SEP=;
index;label;segment;RightUpperArm_boneIndex;RightUpperArm_quat9x_w;RightUpperArm_quat9x_x;RightUpperArm_quat9x_y;RightUpperArm_quat9x_z;RightUpperArm_gyroscope_x;RightUpperArm_gyroscope_y;RightUpperArm_gyroscope_z;RightUpperArm_accelerometer_x;RightUpperArm_accelerometer_y;RightUpperArm_accelerometer_z;RightLowerArm_boneIndex;RightLowerArm_quat9x_w;RightLowerArm_quat9x_x;RightLowerArm_quat9x_y;RightLowerArm_quat9x_z;RightLowerArm_gyroscope_x;RightLowerArm_gyroscope_y;RightLowerArm_gyroscope_z;RightLowerArm_accelerometer_x;RightLowerArm_accelerometer_y;RightLowerArm_accelerometer_z;LeftUpperArm_boneIndex;LeftUpperArm_quat9x_w;LeftUpperArm_quat9x_x;LeftUpperArm_quat9x_y;LeftUpperArm_quat9x_z;LeftUpperArm_gyroscope_x;LeftUpperArm_gyroscope_y;LeftUpperArm_gyroscope_z;LeftUpperArm_accelerometer_x;LeftUpperArm_accelerometer_y;LeftUpperArm_accelerometer_z;LeftLowerArm_boneIndex;LeftLowerArm_quat9x_w;LeftLowerArm_quat9x_x;LeftLowerArm_quat9x_y;LeftLowerArm_quat9x_z;LeftLowerArm_gyroscope_x;LeftLowerArm_gyroscope_y;LeftLowerArm_gyroscope_z;LeftLowerArm_accelerometer_x;LeftLowerArm_accelerometer_y;LeftLowerArm_accelerometer_z;Chest_boneIndex;Chest_quat9x_w;Chest_quat9x_x;Chest_quat9x_y;Chest_quat9x_z;Chest_gyroscope_x;Chest_gyroscope_y;Chest_gyroscope_z;Chest_accelerometer_x;Chest_accelerometer_y;Chest_accelerometer_z;Spine_boneIndex;Spine_quat9x_w;Spine_quat9x_x;Spine_quat9x_y;Spine_quat9x_z;Spine_gyroscope_x;Spine_gyroscope_y;Spine_gyroscope_z;Spine_accelerometer_x;Spine_accelerometer_y;Spine_accelerometer_z;RightUpperLeg_boneIndex;RightUpperLeg_quat9x_w;RightUpperLeg_quat9x_x;RightUpperLeg_quat9x_y;RightUpperLeg_quat9x_z;RightUpperLeg_gyroscope_x;RightUpperLeg_gyroscope_y;RightUpperLeg_gyroscope_z;RightUpperLeg_accelerometer_x;RightUpperLeg_accelerometer_y;RightUpperLeg_accelerometer_z;RightLowerLeg_boneIndex;RightLowerLeg_quat9x_w;RightLowerLeg_quat9x_x;RightLowerLeg_quat9x_y;RightLowerLeg_quat9x_z;RightLowerLeg_gyroscope_x;RightLowerLeg_gyroscope_y;RightLowerLeg_gyroscope_z;RightLowerLeg_accelerometer_x;RightLowerLeg_accelerometer_y;RightLowerLeg_accelerometer_z;LeftUpperLeg_boneIndex;LeftUpperLeg_quat9x_w;LeftUpperLeg_quat9x_x;LeftUpperLeg_quat9x_y;LeftUpperLeg_quat9x_z;LeftUpperLeg_gyroscope_x;LeftUpperLeg_gyroscope_y;LeftUpperLeg_gyroscope_z;LeftUpperLeg_accelerometer_x;LeftUpperLeg_accelerometer_y;LeftUpperLeg_accelerometer_z;LeftLowerLeg_boneIndex;LeftLowerLeg_quat9x_w;LeftLowerLeg_quat9x_x;LeftLowerLeg_quat9x_y;LeftLowerLeg_quat9x_z;LeftLowerLeg_gyroscope_x;LeftLowerLeg_gyroscope_y;LeftLowerLeg_gyroscope_z;LeftLowerLeg_accelerometer_x;LeftLowerLeg_accelerometer_y;LeftLowerLeg_accelerometer_z;pelvis_x;pelvis_y;pelvis_z;lowerSpine_x;lowerSpine_y;lowerSpine_z;middleSpine_x;middleSpine_y;middleSpine_z;upperSpine_x;upperSpine_y;upperSpine_z;rightClavicle_x;rightClavicle_y;rightClavicle_z;rightShoulder_x;rightShoulder_y;rightShoulder_z;rightElbow_x;rightElbow_y;rightElbow_z;rightWrist_x;rightWrist_y;rightWrist_z;leftClavicle_x;leftClavicle_y;leftClavicle_z;leftShoulder_x;leftShoulder_y;leftShoulder_z;leftElbow_x;leftElbow_y;leftElbow_z;leftWrist_x;leftWrist_y;leftWrist_z;rightHip_x;rightHip_y;rightHip_z;rightKnee_x;rightKnee_y;rightKnee_z;rightAnkle_x;rightAnkle_y;rightAnkle_z;leftHip_x;leftHip_y;leftHip_z;leftKnee_x;leftKnee_y;leftKnee_z;leftAnkle_x;leftAnkle_y;leftAnkle_z;
866329.987;NotLabelled;NONE;16384;0.6918986;0.4736842;0.5373961;0.0900277;24;-10;13;2020;-2530;2087;65536;0.77472;0.4224377;-0.3698061;-0.2908587;3;-47;-20;2966;-1114;-2773;8192;0.6748692;-0.6135734;-0.400277;0.08864266;-69;48;45;2738;3079;629;32768;0.4404432;-0.8123455;0.3448753;-0.1648199;47;-7;-136;1517;2801;1370;256;0.2534626;-0.2936288;-0.634349;-0.6686854;105;86;-17;1221;4306;-321;128;-0.1135734;0.2950138;0.5858725;0.7462046;19;-3;4;-905;4453;-1182;4;-0.4085872;0.2229917;-0.5914127;-0.6584544;11;29;54;601;3858;66;16;0.5401662;-0.7660757;0.1440443;0.3171745;141;45;17;-843;3758;2308;2;0.5886427;-0.6876923;-0.2520775;-0.3421052;0;7;8;-195;4014;-1097;8;0.6246537;-0.6306322;0.3559557;0.2922437;-12;18;0;503;4081;-403;0.2054688;2.667689;-0.1800812;0.2114496;3.212697;-0.1565771;0.2167076;3.691846;-0.1379378;0.2441628;4.424322;-0.1034944;-0.002094943;4.761353;-0.1261858;-0.3484954;4.631199;-0.06956932;-0.8965933;5.15424;-0.6028099;-0.1104445;5.577298;-0.2853394;0.5178841;4.741876;-0.1263757;0.8012672;4.588127;-0.06998825;1.154;3.83876;0.4222549;0.3725718;3.303988;0.3879635;-0.1067817;2.625982;-0.1896894;-0.09599891;1.214121;-0.5736039;0;0;0;-0.1067817;2.625982;-0.1896894;-0.09599891;1.214121;-0.5736039;0;0;0
866352.003;NotLabelled;NONE;16384;0.6983604;0.4709141;0.5304709;0.09556787;31;-33;8;1852;-2382;2489;65536;0.7761709;0.4155124;-0.3808864;-0.2825485;-1;-39;-27;2024;-1142;-1543;8192;0.6821284;-0.5969529;-0.4113573;0.09556787;-48;8;34;1624;2891;-413;32768;0.468144;-0.8124683;0.3227147;-0.1288089;44;-17;-169;3955;1797;2592;256;0.2465374;-0.2950138;-0.6204986;-0.6834967;102;-28;-17;-229;4086;-1107;128;-0.1149584;0.2936288;0.5872576;0.7454497;7;2;6;-1015;4115;788;4;-0.4155124;0.2229917;-0.5858725;-0.6590732;15;30;46;505;3866;2;16;0.5595568;-0.7560741;0.1468144;0.3060942;150;54;22;-1047;3786;2598;2;0.5872576;-0.6878555;-0.2548476;-0.3421052;0;13;7;-135;4002;-1051;8;0.6232687;-0.633417;0.3545706;0.2908587;-13;21;0;351;4051;-365;0.1921494;2.685107;-0.1070682;0.1981311;3.230206;-0.08578086;0.20339;3.709426;-0.0690906;0.2279568;4.441176;-0.02010646;-0.01958822;4.777635;-0.03638614;-0.3655373;4.645042;0.01725638;-0.9200716;5.162248;-0.5150204;-0.1271533;5.578602;-0.2056217;0.5004628;4.760179;-0.03638673;0.7843844;4.606442;0.01725578;1.168011;3.876737;0.5158901;0.4115674;3.306403;0.4985321;-0.1201016;2.643361;-0.1164927;-0.103984;1.23717;-0.5205041;0;0;0;-0.1201016;2.643361;-0.1164927;-0.103984;1.23717;-0.5205041;0;0;0
866373.1955;NotLabelled;NONE;16384;0.7006887;0.468144;0.5290859;0.09972299;34;-18;0;2150;-2368;2299;65536;0.7761487;0.4113573;-0.3864266;-0.2811634;-7;-29;-36;2140;-1112;-1615;8192;0.6832763;-0.5927978;-0.4141274;0.101108;-29;-13;36;1930;2399;-267;32768;0.4833795;-0.8087481;0.3171745;-0.1080332;54;-84;-141;6433;1777;1764;256;0.2465374;-0.2936288;-0.6191136;-0.6853465;-41;22;-2;181;3816;-505;128;-0.1149584;0.2922437;0.5900277;0.7438048;14;14;8;-907;3843;750;4;-0.4224377;0.2243767;-0.5775623;-0.661531;24;14;23;483;4022;-12;16;0.5983379;-0.7341295;0.1523546;0.2825485;152;61;28;-563;3690;3012;2;0.5844875;-0.6884925;-0.2576177;-0.3434903;0;10;6;-357;4056;-851;8;0.6232687;-0.6355923;0.3518005;0.2894737;-10;11;-3;309;4115;-273;0.1837797;2.702965;-0.0317678;0.1897624;3.24815;-0.01280764;0.195022;3.727437;0.001836762;0.2162537;4.4566;0.08141373;-0.03277772;4.792345;0.0788912;-0.3781901;4.656094;0.1264824;-0.9287608;5.173406;-0.4097919;-0.1320607;5.580624;-0.09795874;0.4873459;4.777208;0.07885063;0.7718921;4.622621;0.1263933;1.195904;3.911311;0.6188635;0.4991223;3.269283;0.6280103;-0.1284717;2.661179;-0.04099953;-0.1052082;1.260083;-0.4620063;0;0;0;-0.1284717;2.661179;-0.04099953;-0.1052082;1.260083;-0.4620063;0;0;0
866394.0471;NotLabelled;NONE;16384;0.7021328;0.4653739;0.5290859;0.1024931;34;4;-4;2262;-2156;2419;65536;0.7764823;0.4058172;-0.3905817;-0.2825485;-15;-23;-41;2228;-1376;-1593;8192;0.6817304;-0.5914127;-0.4168975;0.1080332;-15;-9;36;3026;2035;-279;32768;0.4958449;-0.8026838;0.3185596;-0.09141274;46;-64;-84;7111;803;2088;256;0.2493075;-0.2922437;-0.6232687;-0.6811575;-33;-14;0;-25;3862;-529;128;-0.1149584;0.2894737;0.5927978;0.7426845;33;13;6;-787;3649;1380;4;-0.4238227;0.2257618;-0.5747922;-0.6625857;18;26;15;589;3908;312;16;0.6177285;-0.7228948;0.1537396;0.2686981;148;85;34;-1021;3634;3238;2;0.5831025;-0.6879322;-0.2603878;-0.3448753;0;16;8;-405;4080;-735;8;0.6232687;-0.6357251;0.3504155;0.2908587;-12;12;-3;285;4097;-359;0.1666541;2.735886;0.1069672;0.1726381;3.281188;0.1221705;0.1778986;3.760565;0.1335122;0.1966128;4.489518;0.2156023;-0.05357371;4.82441;0.2142173;-0.3985177;4.686807;0.2613123;-0.9447702;5.200184;-0.2830973;-0.1450598;5.599319;0.03146684;0.4665991;4.811065;0.2141645;0.751673;4.657296;0.2611963;1.185068;3.953734;0.7566172;0.5212914;3.277817;0.7746798;-0.145598;2.694038;0.09804727;-0.1026323;1.298584;-0.3398131;0;0;0;-0.145598;2.694038;0.09804727;-0.1026323;1.298584;-0.3398131;0;0;0
866414.9976;NotLabelled;NONE;16384;0.7053657;0.4598338;0.5290859;0.1052632;32;0;-5;1954;-1964;2543;65536;0.7760462;0.400277;-0.3961219;-0.2839335;-28;-20;-45;2334;-1544;-1795;8192;0.6804953;-0.5886427;-0.4224377;0.1094183;-14;39;21;2740;2307;-129;32768;0.501385;-0.7999967;0.3185596;-0.08448754;13;-3;-22;6591;-565;3772;256;0.2506925;-0.2894737;-0.6274238;-0.67801;-20;2;-3;451;3580;-279;128;-0.1149584;0.2853186;0.601108;0.7375954;28;13;4;-693;3585;1424;4;-0.4279778;0.2299169;-0.5706371;-0.6620774;16;37;8;695;3988;270;16;0.6371191;-0.7130502;0.1509695;0.2506925;142;115;39;-1021;3804;3272;2;0.5817174;-0.6885788;-0.2617728;-0.3448753;0;19;9;-467;4066;-613;8;0.6232687;-0.6378745;0.3476454;0.2894737;-13;14;-2;257;4059;-489;0.1601005;2.751022;0.1525497;0.1660855;3.296418;0.1639354;0.1713468;3.775862;0.1719211;0.1894748;4.506339;0.2392746;-0.06105527;4.84089;0.2316275;-0.4057681;4.703924;0.2821513;-0.9512527;5.196645;-0.2817653;-0.1466495;5.586853;0.03152171;0.4591297;4.828056;0.2308382;0.7444498;4.675547;0.2804068;1.184553;3.99595;0.8026437;0.5452293;3.297024;0.8262324;-0.1521523;2.709113;0.1439468;-0.1006955;1.311575;-0.2862839;0;0;0;-0.1521523;2.709113;0.1439468;-0.1006955;1.311575;-0.2862839;0;0;0
866435.0278;NotLabelled;NONE;16384;0.7059175;0.4570637;0.5304709;0.1066482;28;-6;-8;2122;-2036;2583;65536;0.7771367;0.3919668;-0.400277;-0.2867036;-39;-24;-50;1992;-1398;-2127;8192;0.6795221;-0.5844875;-0.4307479;0.1052632;17;-6;5;796;2093;-847;32768;0.4916897;-0.8041344;0.3213296;-0.09141274;-43;-18;59;5961;-1035;4370;256;0.2506925;-0.2894737;-0.6288089;-0.6767257;-5;1;-4;215;3768;-423;128;-0.1149584;0.2825485;0.602493;0.7375317;14;4;5;-793;3827;1458;4;-0.4307479;0.234072;-0.567867;-0.6612061;21;36;1;625;3850;-36;16;0.6565097;-0.7035507;0.1454294;0.2299169;132;143;42;-725;3640;3222;2;0.5817174;-0.6868228;-0.2645429;-0.3462604;-1;15;10;-533;4016;-661;8;0.6218836;-0.6399761;0.3462604;0.2894737;-15;11;-1;369;4109;-331;0.1534374;2.760692;0.2327865;0.1594237;3.306206;0.2328013;0.1646856;3.785713;0.2307916;0.1817363;4.516531;0.2946345;-0.06924251;4.850697;0.2850851;-0.4138252;4.713503;0.3358773;-0.9562308;5.222515;-0.2164191;-0.1469479;5.59803;0.1027151;0.45096;4.838574;0.2849507;0.7364316;4.686698;0.3355811;1.179966;3.992973;0.8358796;0.5518231;3.283845;0.8549162;-0.1588172;2.718613;0.2251304;-0.09773549;1.325077;-0.2166671;0;0;0;-0.1588172;2.718613;0.2251304;-0.09773549;1.325077;-0.2166671;0;0;0
866456.0072;NotLabelled;NONE;16384;0.7073591;0.4515235;0.5318559;0.1135734;23;-11;-11;2226;-2034;2635;65536;0.7775685;0.3725762;-0.4127424;-0.2936288;-43;-22;-65;2518;-1334;-2565;8192;0.6762607;-0.5900277;-0.4279778;0.1066482;49;-51;6;1414;1603;-1203;32768;0.4819945;-0.8055872;0.3310249;-0.09556787;-60;-36;81;4731;-505;4418;256;0.2506925;-0.2880886;-0.6288089;-0.6773165;6;0;-4;181;4128;-215;128;-0.1149584;0.2825485;0.602493;0.7375317;2;0;3;-783;3921;1244;4;-0.432133;0.2396122;-0.5650969;-0.660691;24;30;-5;525;3724;-144;16;0.6731302;-0.6960961;0.1385041;0.2077562;113;134;48;-277;3516;3116;2;0.5803324;-0.6862221;-0.267313;-0.3476454;-1;13;9;-563;4088;-665;8;0.6218836;-0.6407236;0.3448753;0.2894737;-16;10;-1;279;4107;-287;0.1486325;2.769567;0.2904105;0.1546188;3.315079;0.2884524;0.1598806;3.794575;0.2847085;0.1779773;4.525586;0.3460037;-0.07251656;4.860078;0.3352441;-0.417306;4.723561;0.3864543;-0.9588831;5.216135;-0.1813429;-0.1420842;5.575901;0.1367842;0.4476681;4.847204;0.3352434;0.7329112;4.695092;0.3864535;1.175209;4.016774;0.9085;0.5301738;3.32315;0.9330455;-0.1636225;2.727461;0.2829191;-0.09543796;1.333639;-0.156931;0;0;0;-0.1636225;2.727461;0.2829191;-0.09543796;1.333639;-0.156931;0;0;0
866476.1836;NotLabelled;NONE;16384;0.7086704;0.4487534;0.5318559;0.1163435;20;-9;-9;2406;-2048;2557;65536;0.7772922;0.3614958;-0.4210526;-0.2963989;-43;-23;-70;2360;-1064;-2907;8192;0.6677538;-0.601108;-0.4252077;0.1094183;65;-64;2;1836;1665;-725;32768;0.4695291;-0.807225;0.3434903;-0.09972299;-79;-28;91;2411;613;3888;256;0.2493075;-0.2867036;-0.6301939;-0.6771281;-29;10;-1;273;3896;-627;128;-0.1135734;0.2825485;0.602493;0.7377463;-24;0;-4;-1205;3473;1366;4;-0.4307479;0.2493075;-0.5609418;-0.6615484;21;9;-18;749;3750;124;16;0.696793;-0.6842105;0.1315789;0.1703601;73;83;48;-601;3552;2806;2;0.5803324;-0.684589;-0.2714681;-0.3476454;-2;9;13;-651;4086;-583;8;0.6191136;-0.6442543;0.3421052;0.2908587;-20;6;0;267;4091;-301;0.1448609;2.776732;0.3356378;0.1508472;3.322243;0.3336798;0.1561091;3.801739;0.3299359;0.1727153;4.532786;0.3912281;-0.07845986;4.866766;0.3804672;-0.4229702;4.729547;0.4316779;-0.9680636;5.208977;-0.1439518;-0.1350432;5.528301;0.1752764;0.4417498;4.854952;0.3804666;0.7273024;4.703424;0.4316773;1.163764;4.022194;0.9548427;0.5004352;3.346303;0.9857119;-0.167394;2.734626;0.3281463;-0.09093237;1.33906;-0.1047617;0;0;0;-0.167394;2.734626;0.3281463;-0.09093237;1.33906;-0.1047617;0;0;0
866496.9887;NotLabelled;NONE;16384;0.7082101;0.4487534;0.5318559;0.1191136;11;-8;-8;2528;-2490;2443;65536;0.7762241;0.3504155;-0.4293629;-0.300554;-41;-23;-78;3348;-848;-3473;8192;0.6596434;-0.6135734;-0.4196676;0.1108033;78;-76;0;2416;1815;-481;32768;0.4529086;-0.8122416;0.3518005;-0.1066482;-88;10;86;1585;1359;2604;256;0.2506925;-0.2867036;-0.6315789;-0.6753239;-17;-12;1;531;3934;-921;128;-0.1121884;0.2853186;0.599723;0.7391478;-23;-4;-6;-1479;3639;1246;4;-0.4279778;0.2534626;-0.5609418;-0.6617673;17;4;-26;771;3798;174;16;0.7013332;-0.6828254;0.1301939;0.1578947;60;61;43;-431;3578;2598;2;0.5789474;-0.6852108;-0.2728532;-0.3476454;-2;5;13;-607;4084;-647;8;0.6163435;-0.6470116;0.3407202;0.2922437;-21;-1;0;457;4039;-209;0.1434456;2.786279;0.4025138;0.1494319;3.33179;0.4009684;0.1546938;3.811289;0.3975872;0.1720504;4.542448;0.4573379;-0.07878348;4.876661;0.4458828;-0.4234319;4.739902;0.4973959;-0.9710463;5.213621;-0.08056366;-0.1295556;5.509593;0.238953;0.4414139;4.864316;0.4458869;0.7268133;4.712602;0.497406;1.148295;4.029003;1.029685;0.4633276;3.375644;1.071293;-0.1688092;2.744178;0.3949879;-0.07517418;1.343989;-0.01921155;0;0;0;-0.1688092;2.744178;0.3949879;-0.07517418;1.343989;-0.01921155;0;0;0
866516.9964;NotLabelled;NONE;16384;0.7079758;0.4487534;0.5318559;0.1204986;4;-14;-13;2416;-2476;2573;65536;0.7748846;0.3393352;-0.4376731;-0.3047091;-40;-28;-79;2934;-688;-3177;8192;0.6498089;-0.6274238;-0.4141274;0.1121884;93;-72;-10;2842;2481;-773;32768;0.4376731;-0.8174127;0.3573407;-0.1121884;-87;10;77;2947;811;1702;256;0.2479224;-0.2880886;-0.632964;-0.6744598;0;11;1;935;3878;-217;128;-0.1108033;0.2825485;0.5983379;0.7415394;15;24;15;-453;3607;392;4;-0.4252077;0.2576177;-0.5609418;-0.6619484;15;8;-34;635;3560;204;16;0.7044948;-0.6814404;0.1301939;0.1495845;48;34;30;-587;3180;2508;2;0.5789474;-0.6853591;-0.2742382;-0.3462604;-1;3;13;-479;4026;-747;8;0.6149584;-0.6477021;0.3407202;0.2936288;-22;0;0;307;4059;-115;0.1496111;2.790505;0.4093869;0.1555974;3.336012;0.4121078;0.1608594;3.815523;0.4124767;0.1780883;4.546967;0.4686462;-0.07280496;4.881077;0.4555616;-0.4174279;4.744512;0.5077532;-0.9615279;5.210987;-0.07934415;-0.1139881;5.48188;0.2463709;0.4473947;4.868823;0.455612;0.7328223;4.717414;0.5078654;1.128958;4.031294;1.056127;0.4197304;3.405242;1.109449;-0.1626431;2.748465;0.4015053;-0.06340326;1.344733;0.0008216202;0;0;0;-0.1626431;2.748465;0.4015053;-0.06340326;1.344733;0.0008216202;0;0;0
866536.9993;NotLabelled;NONE;16384;0.7064554;0.4487534;0.533241;0.1232687;4;-21;-10;2424;-2236;2477;65536;0.7726831;0.3296399;-0.4459834;-0.3088643;-32;-7;-81;3110;-732;-2963;8192;0.6246537;-0.6636431;-0.3975069;0.1066482;108;-61;-43;2764;2727;-855;32768;0.4085872;-0.828939;0.3601108;-0.1274238;-76;55;67;3289;1499;456;256;0.2465374;-0.2867036;-0.634349;-0.6742564;-2;15;-4;573;3506;-189;128;-0.1108033;0.2783934;0.601108;0.7408704;22;18;15;-617;3567;1098;4;-0.4224377;0.2645429;-0.5623268;-0.6598121;16;16;-41;495;3488;188;16;0.7056186;-0.6814404;0.1288089;0.1454294;30;18;14;-541;3264;2492;2;0.5789474;-0.6860571;-0.2742382;-0.3448753;0;3;13;-215;4094;-811;8;0.6135734;-0.6497395;0.3393352;0.2936288;-23;15;-1;215;4077;-239;0.1541815;2.794158;0.412046;0.1601675;3.339651;0.4169575;0.1654295;3.819155;0.4192521;0.1875799;4.550508;0.4748868;-0.06106421;4.886286;0.4615877;-0.4065908;4.752078;0.5139182;-0.9536853;5.221563;-0.06797552;-0.09961347;5.467114;0.2607543;0.4590414;4.870537;0.4615873;0.7434514;4.717251;0.5139183;1.117446;4.021214;1.065221;0.3889759;3.419196;1.133723;-0.1580725;2.75215;0.4039817;-0.05492276;1.345005;0.01647284;0;0;0;-0.1580725;2.75215;0.4039817;-0.05492276;1.345005;0.01647284;0;0;0
866558.0067;NotLabelled;NONE;16384;0.7048991;0.4529086;0.5304709;0.1288089;6;-29;2;2344;-2054;2003;65536;0.7629845;0.3171745;-0.4626039;-0.3213296;-8;14;-72;3710;-404;-2639;8192;0.6149584;-0.677737;-0.3905817;0.09972299;104;-40;-54;2668;2985;-221;32768;0.3947368;-0.8339388;0.3614958;-0.134349;-61;23;73;4953;2275;-16;256;0.2451524;-0.2839335;-0.6357341;-0.674629;-1;19;-9;475;3490;-147;128;-0.1094183;0.2756233;0.602493;0.7409869;0;11;8;-1495;3471;1364;4;-0.4196676;0.2714681;-0.5623268;-0.658766;18;22;-45;607;3582;282;16;0.7043083;-0.6828254;0.1301939;0.1440443;16;-14;3;-47;3318;2610;2;0.5775623;-0.686806;-0.2770083;-0.3434903;-1;7;15;-59;4150;-909;8;0.6121883;-0.652481;0.3365651;0.2936288;-25;20;-1;395;4003;-167;0.159295;2.799917;0.3958462;0.1652812;3.34543;0.396861;0.1705432;3.82494;0.3957303;0.1934436;4.556387;0.4497916;-0.05486415;4.892387;0.4358248;-0.400515;4.75864;0.488516;-0.9563884;5.227942;-0.08514786;-0.09677055;5.449571;0.2461143;0.4652252;4.876113;0.4357485;0.7494915;4.722653;0.4883481;1.055328;4.001893;1.049814;0.2930602;3.446992;1.14373;-0.1529596;2.757852;0.3881068;-0.05167731;1.345068;0.02117284;0;0;0;-0.1529596;2.757852;0.3881068;-0.05167731;1.345068;0.02117284;0;0;0
866579.0319;NotLabelled;NONE;16384;0.705575;0.4542936;0.5277008;0.1315789;11;-31;4;2404;-2280;1885;65536;0.7586969;0.3130194;-0.4695291;-0.3254848;-5;4;-63;4286;-124;-2377;8192;0.6052631;-0.6908651;-0.3850415;0.0900277;105;-21;-39;3092;3405;-233;32768;0.3850415;-0.8362486;0.3628809;-0.1440443;-25;49;77;3103;3635;-592;256;0.2437673;-0.2811634;-0.6357341;-0.676289;4;23;-6;819;3510;-77;128;-0.1052632;0.2742382;0.6038781;0.7409753;1;35;6;-1537;3307;834;4;-0.4127424;0.2853186;-0.5637119;-0.6560991;19;7;-51;911;4126;108;16;0.6982355;-0.6869806;0.1315789;0.1523546;-2;-14;0;5;4702;252;2;0.5761772;-0.6868466;-0.2797784;-0.3434903;-1;17;18;-205;4004;-993;8;0.6108033;-0.6559002;0.33241;0.2936288;-27;15;-3;511;4035;-127;0.1642365;2.804858;0.3755373;0.1702228;3.350372;0.3749785;0.1754848;3.829875;0.3724647;0.1976207;4.561462;0.4249433;-0.05103716;4.897172;0.4102437;-0.3965495;4.763178;0.4632165;-0.9586605;5.229335;-0.1069221;-0.09469652;5.406226;0.2395936;0.4690689;4.88144;0.4102143;0.7534938;4.728391;0.4631523;1.0305;3.999214;1.028697;0.2538919;3.467408;1.137555;-0.1480182;2.762771;0.3679291;-0.04433136;1.345347;0.02005225;0;0;0;-0.1480182;2.762771;0.3679291;-0.04433136;1.345347;0.02005225;0;0;0
866599.2939;NotLabelled;NONE;16384;0.7069888;0.4556787;0.5235457;0.1357341;18;-33;0;2896;-2336;2409;65536;0.7539742;0.3102493;-0.4750692;-0.3310249;-2;10;-64;3328;-328;-1921;8192;0.5955678;-0.700857;-0.3836565;0.08310249;99;-6;-15;4170;3449;-263;32768;0.3781163;-0.8390266;0.3573407;-0.1592798;11;76;84;3865;4619;88;256;0.2396122;-0.2783934;-0.6371191;-0.6776152;4;30;2;783;3656;93;128;-0.101108;0.2700831;0.6052631;0.7419493;5;35;7;-1457;3687;664;4;-0.4072022;0.2936288;-0.5650969;-0.6547014;25;0;-63;679;4154;-252;16;0.700193;-0.6855956;0.1315789;0.1495845;28;28;10;-539;4922;-446;2;0.5734072;-0.6868857;-0.2853186;-0.3434903;-2;12;17;-367;4002;-951;8;0.6066482;-0.6612061;0.3282548;0.2950138;-30;10;-4;431;4051;-271;0.159889;2.814494;0.3099778;0.1658753;3.360007;0.3086607;0.1711372;3.839507;0.3054803;0.1914658;4.571074;0.3589504;-0.05801705;4.906189;0.3446808;-0.4032031;4.771273;0.397439;-0.9628731;5.236105;-0.1761724;-0.09731164;5.396532;0.174347;0.4621262;4.891739;0.3446803;0.7469223;4.739319;0.3974387;0.9881861;4.000982;0.9674594;0.1984565;3.489832;1.080782;-0.1523658;2.772397;0.3024328;-0.04488768;1.345475;-0.002856962;0;0;0;-0.1523658;2.772397;0.3024328;-0.04488768;1.345475;-0.002856962;0;0;0
866620.9975;NotLabelled;NONE;16384;0.7072031;0.4556787;0.5221606;0.1398892;21;-24;4;2822;-2266;2293;65536;0.7494278;0.3060942;-0.4819945;-0.33518;-5;-12;-62;4538;-766;-2471;8192;0.5872576;-0.7089059;-0.3836565;0.0734072;84;17;-31;4574;3469;1145;32768;0.3753462;-0.8378277;0.3559557;-0.1745152;31;32;92;3879;4657;110;256;0.2354571;-0.2770083;-0.6385041;-0.6783353;0;35;5;321;3956;-143;128;-0.09695291;0.267313;0.6080332;0.7412419;-1;32;5;-1075;3983;1162;4;-0.398892;0.3033241;-0.566482;-0.6542001;38;9;-76;789;4578;-260;16;0.7045629;-0.6828254;0.1288089;0.1440443;33;54;7;-1659;4766;458;2;0.5720221;-0.6874635;-0.2867036;-0.3434903;-1;9;16;-303;4046;-1079;8;0.6038781;-0.6638035;0.3268698;0.2963989;-36;3;-6;629;4077;-355;0.1607062;2.820159;0.2907554;0.1666925;3.365669;0.2885461;0.1719544;3.845164;0.2845813;0.1939169;4.576657;0.338416;-0.05481623;4.912336;0.3243101;-0.4003037;4.778165;0.3769966;-0.9618295;5.242987;-0.1948065;-0.0933506;5.388249;0.1551083;0.4652934;4.896723;0.3243093;0.7497476;4.743641;0.3769955;0.9680423;4.001473;0.9512839;0.1668067;3.508114;1.062663;-0.1515488;2.77805;0.2832849;-0.04375372;1.345504;0.005705718;0;0;0;-0.1515488;2.77805;0.2832849;-0.04375372;1.345504;0.005705718;0;0;0
866641.9957;NotLabelled;NONE;16384;0.708688;0.4556787;0.5193906;0.1426593;20;-20;8;2928;-2294;2217;65536;0.7471808;0.300554;-0.4889196;-0.33518;0;-22;-50;4448;138;-3495;8192;0.5803324;-0.7134214;-0.3891967;0.05263158;25;52;-27;3088;4415;949;32768;0.3753462;-0.83149;0.3545706;-0.2049861;54;22;68;1681;5279;216;256;0.2285319;-0.2714681;-0.6412742;-0.6803276;18;24;0;465;4730;-361;128;-0.0900277;0.2603878;0.6066482;0.7457018;-11;26;4;-899;4569;882;4;-0.3919668;0.3144044;-0.566482;-0.653154;35;34;-73;1333;5116;452;16;0.7087733;-0.6814404;0.1218837;0.1357341;16;73;-3;-433;4700;650;2;0.5706371;-0.6881441;-0.2894737;-0.3421052;-5;8;12;-241;4150;-1139;8;0.599723;-0.6670007;0.3254848;0.299169;-39;-1;-7;705;3973;-415;0.1527376;2.825971;0.2695366;0.1587236;3.371462;0.264536;0.1639852;3.85093;0.2581179;0.1890961;4.582299;0.3122609;-0.05819391;4.91905;0.298324;-0.4042491;4.786343;0.3509901;-0.9748073;5.250586;-0.2122781;-0.1045726;5.379133;0.139807;0.4618439;4.901203;0.2982613;0.7456431;4.746878;0.3508523;0.9453236;3.996785;0.9216088;0.1334532;3.518541;1.021296;-0.1595178;2.783824;0.2622991;-0.04633575;1.345278;0.02015276;0;0;0;-0.1595178;2.783824;0.2622991;-0.04633575;1.345278;0.02015276;0;0;0
866662.9952;NotLabelled;NONE;16384;0.711294;0.4556787;0.5138504;0.1495845;24;-25;8;2838;-2404;2383;65536;0.7431093;0.2977839;-0.4986149;-0.33241;22;-10;-19;4406;-342;-2889;8192;0.5803324;-0.7117052;-0.3933518;0.04432133;10;60;-19;3666;5045;1431;32768;0.3795014;-0.8275041;0.3545706;-0.2132964;42;1;25;-63;4067;2586;256;0.2243767;-0.2686981;-0.6398892;-0.684104;24;35;-1;639;4794;231;128;-0.08448754;0.2562327;0.6038781;0.7500253;-82;11;2;-861;4329;3846;4;-0.3891967;0.3254848;-0.566482;-0.6493718;31;31;-61;1199;4142;450;16;0.7126749;-0.6786703;0.1191136;0.1315789;30;-1;0;1973;4916;80;2;0.5706371;-0.6868689;-0.2908587;-0.3434903;-6;10;5;-141;4008;-1387;8;0.5969529;-0.6702013;0.3227147;0.300554;-39;0;-9;445;4037;-315;0.1436907;2.830438;0.2466758;0.149677;3.37595;0.2450942;0.1549389;3.855448;0.2416812;0.1821682;4.586777;0.29535;-0.06413528;4.924237;0.281127;-0.4105897;4.792575;0.3337897;-0.9939681;5.24967;-0.2221448;-0.1184222;5.364671;0.1213537;0.4558483;4.904874;0.2812122;0.7391827;4.749757;0.3339789;0.9216211;3.995815;0.9054356;0.09262532;3.542095;0.9739351;-0.1685642;2.788337;0.2391529;-0.0494116;1.344963;0.03098574;0;0;0;-0.1685642;2.788337;0.2391529;-0.0494116;1.344963;0.03098574;0;0;0
866683.0069;NotLabelled;NONE;16384;0.7145741;0.4542936;0.5096953;0.1523546;24;-21;12;2974;-2210;2331;65536;0.7419222;0.299169;-0.501385;-0.3296399;19;-18;-15;3668;-830;-2309;8192;0.5803324;-0.7090141;-0.398892;0.03739612;0;53;-3;2840;4595;973;32768;0.3836565;-0.8269997;0.3504155;-0.2146814;33;17;-22;-59;3987;3250;256;0.2188366;-0.2645429;-0.6398892;-0.6875096;12;49;-1;261;4602;51;128;-0.08171745;0.2548476;0.602493;0.7519156;-17;19;4;-1027;4063;612;4;-0.3822715;0.3518005;-0.5595568;-0.6457562;41;71;-63;449;4336;18;16;0.7143821;-0.6745152;0.1260388;0.1371191;10;-20;-11;-25;4392;-230;2;0.5692521;-0.6867362;-0.2922437;-0.3448753;-7;12;-1;75;4140;-1267;8;0.5941828;-0.6727383;0.3199446;0.3033241;-42;7;-8;149;4015;-67;0.136369;2.83153;0.2543615;0.1423552;3.377034;0.257769;0.1476172;3.856543;0.2587415;0.1739803;4.586895;0.3247323;-0.07230142;4.924484;0.3134961;-0.4192324;4.791887;0.3603581;-0.9801347;5.258829;-0.2103288;-0.1096031;5.360781;0.1496397;0.4476609;4.905248;0.3186983;0.7304929;4.749352;0.3718618;0.8904495;3.978644;0.9274678;0.05907837;3.526391;0.973042;-0.1758851;2.7895;0.2464226;-0.05390659;1.344012;0.05525119;0;0;0;-0.1758851;2.7895;0.2464226;-0.05390659;1.344012;0.05525119;0;0;0
866702.9969;NotLabelled;NONE;16384;0.7159473;0.4542936;0.5069252;0.1551246;25;-19;19;2832;-1778;2407;65536;0.7418278;0.2977839;-0.5041551;-0.3268698;11;-23;-19;2800;-998;-1917;8192;0.5803324;-0.7068015;-0.4030471;0.03462604;-2;20;9;2666;3581;453;32768;0.3891967;-0.8278077;0.3448753;-0.2105263;24;9;-58;339;3381;2994;256;0.2132964;-0.2617728;-0.6398892;-0.6903054;10;26;-1;-93;4132;-955;128;-0.07894737;0.2506925;0.6052631;0.7513835;-2;35;9;-673;3949;304;4;-0.3836565;0.3628809;-0.5581717;-0.6399761;15;55;-53;567;4132;516;16;0.7159299;-0.6731302;0.1246537;0.1371191;8;15;-10;-9;3852;-734;2;0.5692521;-0.6822423;-0.2977839;-0.3490305;-18;43;-14;579;4174;-525;8;0.5872576;-0.679522;0.3130194;0.3088643;-47;11;-4;-89;4045;241;0.1054113;2.836051;0.1899216;0.1113973;3.381534;0.1958222;0.1166591;3.861033;0.1989862;0.1432634;4.591341;0.2653636;-0.1027143;4.929117;0.2531321;-0.4499528;4.796762;0.2983684;-1.012396;5.25457;-0.2781717;-0.1411977;5.360344;0.07907286;0.4172046;4.909493;0.26069;0.6996764;4.753368;0.315081;0.8643851;3.989646;0.8788847;0.03691804;3.530689;0.9283284;-0.2068424;2.794057;0.1817751;-0.0564118;1.343657;0.06107984;0;0;0;-0.2068424;2.794057;0.1817751;-0.0564118;1.343657;0.06107984;0;0;0
866724.0127;NotLabelled;NONE;16384;0.7191421;0.4529086;0.5027701;0.1578947;23;-13;18;2944;-1710;2347;65536;0.7416558;0.2950138;-0.5069252;-0.3254848;3;-18;-26;2550;-714;-2249;8192;0.5803324;-0.7043464;-0.4072022;0.03601108;-12;18;21;3122;3297;505;32768;0.3975069;-0.8308045;0.333795;-0.200831;16;7;-93;439;3153;2774;256;0.2119114;-0.2603878;-0.6398892;-0.6912551;7;7;-1;21;3886;-203;128;-0.07617728;0.2465374;0.6038781;0.7541536;-23;16;10;-729;3813;1630;4;-0.3836565;0.3725762;-0.5567867;-0.6355968;20;42;-43;511;4108;240;16;0.7179687;-0.6717451;0.1218837;0.1357341;0;23;-15;69;3918;-1238;2;0.5692521;-0.6770261;-0.3047091;-0.3531856;-27;59;-18;503;4216;-389;8;0.5817174;-0.6855312;0.3088643;0.3102493;-53;11;0;-143;3943;317;0.1059391;2.838338;0.1625964;0.1119254;3.383846;0.1651782;0.1171874;3.863357;0.1654249;0.1468093;4.593568;0.2315893;-0.0983681;4.932038;0.2230161;-0.4452841;4.800646;0.2732596;-1.022437;5.257163;-0.2896045;-0.143252;5.363482;0.04733285;0.4215484;4.910951;0.2230152;0.7043398;4.754016;0.273258;0.8874239;3.991221;0.8326327;0.06976521;3.518248;0.9069169;-0.2063151;2.796296;0.1547262;-0.05995958;1.343552;0.06000394;0;0;0;-0.2063151;2.796296;0.1547262;-0.05995958;1.343552;0.06000394;0;0;0
866744.4475;NotLabelled;NONE;16384;0.7215389;0.4501385;0.501385;0.1592798;19;-3;16;2776;-1772;2427;65536;0.7398987;0.2922437;-0.5110803;-0.3254848;-5;-17;-32;2548;-342;-2303;8192;0.5803324;-0.698425;-0.4168975;0.0401662;-24;21;31;2928;2971;475;32768;0.4113573;-0.8380623;0.3130194;-0.1745152;13;19;-101;5381;3419;2852;256;0.2077562;-0.2534626;-0.6426592;-0.6925194;-8;24;0;69;4014;-157;128;-0.07202215;0.2382271;0.6066482;0.755009;11;29;4;-123;3985;980;4;-0.3822715;0.3795014;-0.5554016;-0.6335427;23;36;-34;419;4150;-308;16;0.7202137;-0.6703601;0.1177285;0.134349;-2;37;-17;-453;4182;-1532;2;0.5706371;-0.6690124;-0.3116343;-0.3601108;-33;67;-21;213;4152;-257;8;0.5775623;-0.6890188;0.3060942;0.3130194;-60;4;3;-133;3893;247;0.09971512;2.839;0.1458062;0.1057012;3.384492;0.1507527;0.1109632;3.863997;0.153078;0.1403899;4.594137;0.220107;-0.1048761;4.932553;0.2119223;-0.45176;4.80101;0.2619937;-1.024549;5.256984;-0.305747;-0.1444049;5.358927;0.03003773;0.4150458;4.911602;0.2119212;0.6978762;4.754681;0.2619922;0.8884833;3.995978;0.8244079;0.08735794;3.497159;0.9090555;-0.2125387;2.796993;0.1377392;-0.06532297;1.343092;0.06452031;0;0;0;-0.2125387;2.796993;0.1377392;-0.06532297;1.343092;0.06452031;0;0;0
866765.1398;NotLabelled;NONE;16384;0.7248665;0.4473684;0.4986149;0.1606648;15;-2;9;2546;-1908;2297;65536;0.7372624;0.2825485;-0.5193906;-0.3268698;-12;-19;-39;3042;-362;-2645;8192;0.5817174;-0.692831;-0.4238227;0.04432133;-29;33;39;3338;3235;661;32768;0.4182825;-0.840929;0.301939;-0.1634349;24;51;-101;1875;3541;1442;256;0.2063712;-0.2506925;-0.6454294;-0.6913647;-10;23;1;1;4152;107;128;-0.06925207;0.234072;0.6135734;0.7509608;-3;27;2;-1019;3965;1844;4;-0.3808864;0.3878116;-0.5512465;-0.6329731;30;37;-26;191;3674;-930;16;0.7220332;-0.6703601;0.1094183;0.1315789;-1;49;-19;-659;3884;-1090;2;0.5761772;-0.6512804;-0.3240997;-0.3725762;-44;54;-33;-615;3956;-271;8;0.5706371;-0.6959569;0.301939;0.3144044;-67;5;7;-115;4015;-103;0.08926487;2.838786;0.1351651;0.09525114;3.384297;0.1368942;0.1005132;3.863807;0.1363914;0.1283228;4.594251;0.2007534;-0.1177038;4.932084;0.1914119;-0.464277;4.799947;0.2420677;-1.052124;5.256665;-0.3094525;-0.1675316;5.351179;0.0166783;0.4022639;4.912299;0.1913282;0.6854603;4.756196;0.2418837;0.9080248;4.004739;0.8022885;0.146528;3.454942;0.9273235;-0.2229895;2.796731;0.1273661;-0.07235848;1.342509;0.06899476;0;0;0;-0.2229895;2.796731;0.1273661;-0.07235848;1.342509;0.06899476;0;0;0
866786.1531;NotLabelled;NONE;16384;0.7266691;0.4459834;0.4972299;0.1606648;18;0;9;2864;-1900;2247;65536;0.7354389;0.2770083;-0.5249307;-0.3268698;-6;-24;-39;3264;-210;-2827;8192;0.5831025;-0.6863199;-0.432133;0.04709141;-31;40;44;3480;3507;497;32768;0.4252077;-0.8454995;0.2825485;-0.1565097;31;114;-96;2367;3689;1466;256;0.2036011;-0.2479224;-0.6481994;-0.6905929;-9;22;3;193;4434;201;128;-0.06648199;0.2313019;0.6135734;0.7520686;-6;25;3;-517;4427;518;4;-0.3795014;0.398892;-0.5443213;-0.6329125;20;23;-16;-407;4250;-810;16;0.7232715;-0.6717451;0.09695291;0.1274238;-6;21;-22;17;4348;128;2;0.5803324;-0.6429607;-0.3268698;-0.3781163;-45;44;-44;-873;4098;-227;8;0.5637119;-0.7015178;0.299169;0.3171745;-74;5;13;-205;4213;-157;0.06401832;2.838882;0.06745833;0.07000409;3.384346;0.06003112;0.07526527;3.863781;0.05148005;0.1028671;4.595497;0.09934886;-0.1430097;4.933059;0.08079493;-0.4899223;4.802153;0.1323127;-1.058331;5.241063;-0.4530053;-0.174235;5.31966;-0.1213534;0.3769434;4.913216;0.08436593;0.6597826;4.758272;0.1402096;0.882305;4.0317;0.7325367;0.1399634;3.460979;0.8774331;-0.2482374;2.796703;0.06042361;-0.08381537;1.342897;0.04391795;0;0;0;-0.2482374;2.796703;0.06042361;-0.08381537;1.342897;0.04391795;0;0;0
866806.9796;NotLabelled;NONE;16384;0.7289991;0.4432133;0.4958449;0.1620499;22;0;6;2900;-1806;2085;65536;0.7346284;0.2728532;-0.5290859;-0.3254848;3;-30;-33;3504;-62;-2843;8192;0.5831025;-0.6808195;-0.4404432;0.04986149;-33;54;40;2968;3505;203;32768;0.432133;-0.8492451;0.2631579;-0.1509695;42;79;-105;3339;3161;1870;256;0.200831;-0.2451524;-0.6495845;-0.6910913;-8;24;1;-21;4532;157;128;-0.06371191;0.2271468;0.6149584;0.7524436;5;32;10;-361;4455;474;4;-0.3781163;0.4058172;-0.5429363;-0.6305242;18;22;-18;-589;4072;-742;16;0.7238165;-0.6717451;0.09279778;0.1274238;-5;29;-21;-359;4114;-146;2;0.5927978;-0.6213807;-0.3282548;-0.3933518;-55;42;-73;-893;3932;47;8;0.5484765;-0.7151752;0.2936288;0.3185596;-89;12;33;-219;4435;-161;0.02825614;2.834644;0.08828616;0.03424196;3.380114;0.0813048;0.03950322;3.859555;0.07314561;0.06846546;4.590549;0.130352;-0.1767215;4.928804;0.1157239;-0.5239675;4.79794;0.1650569;-1.094729;5.258322;-0.4011668;-0.2095785;5.318939;-0.06855205;0.3431857;4.907889;0.1198168;0.6256361;4.751689;0.1741078;0.8664299;4.012527;0.743257;0.1460803;3.414905;0.8906785;-0.2839995;2.792471;0.08121425;-0.09788509;1.341355;0.05926788;0;0;0;-0.2839995;2.792471;0.08121425;-0.09788509;1.341355;0.05926788;0;0;0
866827.0811;NotLabelled;NONE;16384;0.730995;0.4404432;0.4944598;0.1648199;28;-3;5;2676;-1790;2027;65536;0.7334695;0.2700831;-0.534626;-0.3213296;12;-34;-28;3204;-294;-2783;8192;0.5844875;-0.6732485;-0.4501385;0.04986149;-32;51;35;2854;2987;-141;32768;0.4404432;-0.8512261;0.2479224;-0.1412742;52;32;-105;3195;2821;1538;256;0.199446;-0.2423823;-0.6523545;-0.6898592;-8;14;-1;7;4292;-19;128;-0.06232687;0.2202216;0.6191136;0.7512099;15;37;10;-203;4251;350;4;-0.3767313;0.4099723;-0.5415512;-0.629856;11;20;-15;-425;4086;-478;16;0.7233843;-0.6731302;0.08587258;0.1274238;-4;35;-22;-477;3962;-188;2;0.601108;-0.6070181;-0.3282548;-0.4030471;-64;52;-92;-993;3940;233;8;0.536011;-0.7262876;0.2908587;0.3171745;-90;6;44;1;4927;207;0.01810317;2.833976;0.06964977;0.02408876;3.379423;0.06112624;0.02934974;3.85884;0.05161157;0.05928868;4.589934;0.1069939;-0.1857687;4.928335;0.09360382;-0.5326989;4.79783;0.1460136;-1.115342;5.248784;-0.4156769;-0.2259292;5.302277;-0.09337205;0.3341398;4.907052;0.0935588;0.6169074;4.750766;0.1459148;0.8844801;4.026972;0.7228047;0.1874261;3.406796;0.8879911;-0.2941527;2.791783;0.0627068;-0.1045629;1.340963;0.05667962;0;0;0;-0.2941527;2.791783;0.0627068;-0.1045629;1.340963;0.05667962;0;0;0
866848.4533;NotLabelled;NONE;16384;0.7329619;0.4376731;0.4930748;0.16759;33;-7;7;2612;-1710;2087;65536;0.7332523;0.267313;-0.5387812;-0.3171745;18;-34;-25;3214;-478;-2593;8192;0.5844875;-0.6644202;-0.4626039;0.05401662;-21;39;31;2810;2213;715;32768;0.4612188;-0.8476918;0.2313019;-0.1232687;46;-17;-64;5257;2533;3104;256;0.1980609;-0.2368421;-0.6565097;-0.6882389;-18;21;-3;-45;3922;241;128;-0.05955679;0.2119114;0.6274238;0.7469176;21;26;5;-547;3955;944;4;-0.3767313;0.4141274;-0.5401662;-0.6283252;11;16;-10;-275;3990;-842;16;0.7244152;-0.6731302;0.07894737;0.1260388;-2;38;-21;-621;4046;-74;2;0.6108175;-0.5886427;-0.3282548;-0.4155124;-65;57;-106;-1217;4162;595;8;0.5249307;-0.7349326;0.2908587;0.3157895;-85;-1;53;-47;5401;385;0.00298805;2.832908;0.05064879;0.008972299;3.378235;0.03636342;0.01423186;3.857524;0.02178453;0.04430527;4.58894;0.07267757;-0.2007087;4.927289;0.05733535;-0.5476326;4.797159;0.1107103;-1.129921;5.248275;-0.4512182;-0.2411684;5.29811;-0.1265147;0.3191965;4.905927;0.05716944;0.6019664;4.749922;0.1103442;0.8832979;4.029213;0.6845462;0.2113393;3.3851;0.86168;-0.3092686;2.790645;0.04418811;-0.1144944;1.340503;0.04764692;0;0;0;-0.3092686;2.790645;0.04418811;-0.1144944;1.340503;0.04764692;0;0;0
866869.0219;NotLabelled;NONE;16384;0.7376201;0.4307479;0.4903047;0.1731302;34;3;3;2870;-1490;2241;65536;0.7326831;0.2645429;-0.5457063;-0.3088643;16;-31;-11;3154;-180;-2623;8192;0.5858725;-0.6581994;-0.4695291;0.05540166;-29;35;24;2762;2415;965;32768;0.468144;-0.8446778;0.2313019;-0.1177285;28;-28;-24;5341;2067;3094;256;0.1966759;-0.232687;-0.6592798;-0.6874049;-15;20;-2;-163;3998;105;128;-0.05817174;0.2077562;0.6315789;0.7446889;19;35;8;-245;3851;34;4;-0.3753462;0.4182825;-0.5387812;-0.6275904;12;18;-6;-353;3984;-1274;16;0.725237;-0.6731302;0.0734072;0.1246537;-1;27;-20;-327;4074;16;2;0.6206996;-0.5706371;-0.3254848;-0.4279778;-59;58;-118;-1391;4316;567;8;0.5124654;-0.7443061;0.2922437;0.3130194;-79;-8;57;315;5375;431;-0.01003539;2.831883;-0.02163178;-0.004055735;3.37679;-0.0473451;0.001199316;3.855668;-0.07196757;0.02883101;4.588388;-0.04330833;-0.2168923;4.925386;-0.07159209;-0.5640129;4.795943;-0.01782554;-1.134374;5.217143;-0.6141534;-0.2475841;5.271646;-0.2848675;0.3030405;4.905553;-0.06572548;0.5856471;4.752087;-0.004852533;0.8739649;4.071742;0.6134345;0.2455828;3.388709;0.8041967;-0.3222935;2.789494;-0.02713341;-0.1249775;1.340322;0.01561721;0;0;0;-0.3222935;2.789494;-0.02713341;-0.1249775;1.340322;0.01561721;0;0;0
866889.9984;NotLabelled;NONE;16384;0.7414178;0.4252077;0.4889196;0.1745152;34;7;-2;2586;-1434;2265;65536;0.7328532;0.2631579;-0.5484765;-0.3047091;17;-26;-3;2862;-202;-2577;8192;0.5872576;-0.6528499;-0.4750692;0.0567867;-29;26;17;2268;2751;687;32768;0.4709141;-0.8421782;0.2354571;-0.1163435;11;-29;11;5695;1281;3542;256;0.1952908;-0.2285319;-0.6620498;-0.6865309;-17;21;-3;-409;4076;327;128;-0.05817174;0.2036011;0.632964;0.7446605;14;21;8;77;4197;358;4;-0.3739612;0.4252077;-0.533241;-0.6284946;9;12;-5;-509;4130;-1304;16;0.7243781;-0.6745152;0.06648199;0.1260388;2;3;-15;-661;4284;154;2;0.6284351;-0.5540166;-0.3227147;-0.4404432;-57;46;-128;-1671;4414;-3;8;0.5;-0.7527723;0.2936288;0.3116343;-86;-9;54;437;5115;667;-0.02268276;2.83048;-0.003196925;-0.0167064;3.375085;-0.03466435;-0.01145447;3.853677;-0.06434356;0.01492676;4.58632;-0.0327075;-0.2314929;4.922982;-0.0588578;-0.5782163;4.792679;-0.004606366;-1.155192;5.225043;-0.5864052;-0.2688734;5.276424;-0.255351;0.2884902;4.904078;-0.05461067;0.5715551;4.750878;0.004785538;0.8841803;4.056339;0.5948327;0.2687676;3.360513;0.7816009;-0.3349414;2.788035;-0.008214533;-0.1324014;1.339407;0.02803135;0;0;0;-0.3349414;2.788035;-0.008214533;-0.1324014;1.339407;0.02803135;0;0;0
866910.5532;NotLabelled;NONE;16384;0.7422168;0.4210526;0.4903047;0.1772853;36;5;-6;2508;-1316;2303;65536;0.7335309;0.2631579;-0.5498615;-0.300554;20;-29;1;2714;-452;-2725;8192;0.5886427;-0.6494501;-0.4778393;0.05817174;-13;13;15;1976;2801;-87;32768;0.4709141;-0.8404167;0.2409972;-0.1177285;-4;-32;34;4909;815;3790;256;0.1952908;-0.2243767;-0.66482;-0.6852233;-21;18;-3;-627;4222;187;128;-0.05817174;0.199446;0.6357341;0.7434242;13;19;7;49;4179;692;4;-0.3711911;0.4279778;-0.533241;-0.6282564;9;0;-6;-597;4018;-1216;16;0.7253044;-0.6731302;0.06509695;0.1288089;4;-4;-11;-555;4086;0;2;0.6439089;-0.5249307;-0.3074792;-0.4639889;-25;9;-128;-709;4058;149;8;0.4750692;-0.7709471;0.2922437;0.3074792;-79;8;39;1373;4181;1679;-0.05283476;2.826617;0.007569149;-0.04685977;3.3711;-0.02596562;-0.04160912;3.849575;-0.05746156;-0.01635527;4.582125;-0.02287671;-0.2636105;4.918422;-0.04559879;-0.6096414;4.787222;0.01086611;-1.187769;5.21281;-0.5747725;-0.2977482;5.26155;-0.2533943;0.2564245;4.900498;-0.0455997;0.5402448;4.747588;0.01086497;0.8685431;4.061059;0.6017733;0.2568281;3.361404;0.786374;-0.3650936;2.784154;0.00272572;-0.1439688;1.338105;0.03279738;0;0;0;-0.3650936;2.784154;0.00272572;-0.1439688;1.338105;0.03279738;0;0;0
866950.9928;NotLabelled;NONE;16384;0.7458086;0.4099723;0.4916897;0.1842105;38;6;-13;2756;-980;2591;65536;0.7369866;0.2645429;-0.5512465;-0.2880886;21;-29;9;2308;-616;-2913;8192;0.5803324;-0.6572427;-0.4764543;0.06509695;31;-55;9;2480;1819;43;32768;0.4473684;-0.8449718;0.2590028;-0.1371191;-55;19;71;691;2117;1834;256;0.200831;-0.2160665;-0.6731302;-0.678143;-24;-2;-2;-477;4130;147;128;-0.05817174;0.1925208;0.6412742;0.7404858;-9;-5;-6;-787;4327;1146;4;-0.365651;0.4293629;-0.533241;-0.6305561;6;-15;-5;-343;4002;-972;16;0.7260908;-0.6717451;0.06509695;0.1315789;5;-8;-5;-491;4024;-282;2;0.6549578;-0.5083103;-0.2880886;-0.4792244;9;3;-92;-37;4778;677;8;0.4584487;-0.7799026;0.2950138;0.3074792;-30;-38;13;997;3789;635;-0.06536125;2.824835;-0.0007742792;-0.05938912;3.369055;-0.03833824;-0.05414114;3.847283;-0.07337487;-0.03162717;4.580158;-0.04419134;-0.2801472;4.91535;-0.06932628;-0.6256708;4.783274;-0.01180905;-1.208081;5.200808;-0.5989994;-0.3171889;5.253415;-0.2806594;0.2399515;4.899376;-0.06932721;0.5243562;4.74795;-0.01181012;0.8631179;4.065084;0.5774344;0.2473841;3.368855;0.7616221;-0.3776205;2.782338;-0.005277932;-0.1527226;1.337098;0.03424136;0;0;0;-0.3776205;2.782338;-0.005277932;-0.1527226;1.337098;0.03424136;0;0;0
866972.008;NotLabelled;NONE;16384;0.7480597;0.3975069;0.4958449;0.1911357;29;5;-22;3022;-1304;3071;65536;0.7411746;0.2617728;-0.5526316;-0.2770083;7;-31;10;2954;-728;-3371;8192;0.5734072;-0.6659818;-0.4722992;0.06786703;47;-53;9;3254;1697;-171;32768;0.4362881;-0.8480866;0.2631579;-0.1454294;-48;13;72;2629;1715;1600;256;0.200831;-0.2146814;-0.677206;-0.6745152;-20;-2;1;-221;4378;23;128;-0.06094183;0.1925208;0.6398892;0.7414605;19;-5;7;579;4113;548;4;-0.3628809;0.4279778;-0.534626;-0.6319236;3;-24;-3;-157;4106;-956;16;0.7268632;-0.6703601;0.06509695;0.134349;4;-10;-4;-679;4078;-348;2;0.6556384;-0.5041551;-0.2797784;-0.4875346;24;25;-73;-81;4414;463;8;0.4556787;-0.7777758;0.301939;0.3102493;5;-53;0;935;2955;249;-0.08151129;2.822232;-0.008753173;-0.07554591;3.365838;-0.05435605;-0.07030423;3.843496;-0.09645659;-0.05673017;4.577108;-0.0868248;-0.3093429;4.908454;-0.1206481;-0.6531919;4.773752;-0.05931246;-1.238729;5.180829;-0.6507204;-0.3486474;5.249325;-0.3331371;0.2109121;4.898832;-0.1207064;0.4971806;4.752473;-0.05944061;0.8324147;4.068771;0.5308505;0.1695539;3.419713;0.7235327;-0.3937712;2.779673;-0.01257762;-0.1590086;1.336301;0.03665222;0;0;0;-0.3937712;2.779673;-0.01257762;-0.1590086;1.336301;0.03665222;0;0;0
866993.0311;NotLabelled;NONE;16384;0.7480597;0.3933518;0.4986149;0.1925208;22;9;-25;3224;-1180;3157;65536;0.7442288;0.2603878;-0.5512465;-0.2728532;1;-28;15;2974;-964;-3415;8192;0.566482;-0.6746432;-0.468144;0.06925207;55;-35;0;3010;2421;-189;32768;0.4279778;-0.8486779;0.2700831;-0.1537396;-44;-18;80;3899;1509;1890;256;0.2022161;-0.2132964;-0.6799793;-0.6717451;-20;-2;0;-353;3990;71;128;-0.06509695;0.1883656;0.6481994;0.7349274;68;-2;15;627;3829;142;4;-0.3587258;0.4265928;-0.536011;-0.6340557;3;-33;-1;13;4132;-1140;16;0.7262203;-0.6703601;0.06648199;0.1371191;2;-17;-4;-567;4080;-462;2;0.6543351;-0.501385;-0.2756233;-0.4944598;13;8;-54;-277;4080;-127;8;0.4570637;-0.7725578;0.3088643;0.3144044;39;-57;-15;521;2453;509;-0.08914885;2.821137;-0.007966898;-0.0831821;3.364868;-0.05202847;-0.07793912;3.842645;-0.09277467;-0.06337991;4.5763;-0.09122023;-0.3155516;4.907593;-0.1286654;-0.6595744;4.774035;-0.06581873;-1.24452;5.148929;-0.6786993;-0.3544344;5.22648;-0.3632149;0.2046901;4.897271;-0.1286662;0.4907686;4.751212;-0.06581962;0.8110248;4.07754;0.5439978;0.1305741;3.448874;0.742875;-0.4014087;2.778588;-0.01192179;-0.1653631;1.335473;0.03866172;0;0;0;-0.4014087;2.778588;-0.01192179;-0.1653631;1.335473;0.03866172;0;0;0
867014.0094;NotLabelled;NONE;16384;0.7469407;0.3905817;0.501385;0.1952908;15;10;-24;3134;-974;3103;65536;0.7472425;0.2590028;-0.5498615;-0.2686981;-7;-23;17;2676;-1278;-3477;8192;0.5595568;-0.6833773;-0.4639889;0.06786703;64;-39;-9;2692;2827;-279;32768;0.4182825;-0.8492801;0.2783934;-0.1620499;-43;-14;86;3395;2125;2180;256;0.2036011;-0.2119114;-0.6813644;-0.6703601;-20;-6;-3;-465;3868;75;128;-0.07063711;0.1869806;0.6523545;0.7310829;32;-14;10;39;4393;1106;4;-0.3518005;0.4196676;-0.5387812;-0.6401799;-3;-39;4;171;4154;-940;16;0.726038;-0.6689751;0.07063711;0.1426593;0;-18;-1;-655;4116;-432;2;0.6545343;-0.5027701;-0.2700831;-0.4958449;11;-29;-28;-627;3786;-981;8;0.4626039;-0.7658641;0.3144044;0.3171745;72;-35;-31;-73;2351;327;-0.09463222;2.8203;-0.014306;-0.08867829;3.362862;-0.07098575;-0.08344711;3.839563;-0.122819;-0.0699463;4.573224;-0.1276113;-0.3226082;4.903817;-0.167832;-0.6664171;4.770312;-0.1037149;-1.253743;5.15138;-0.7104815;-0.3624485;5.233561;-0.3996154;0.1976478;4.894246;-0.1679226;0.4839575;4.749147;-0.1039143;0.7894825;4.061544;0.4978587;0.09167263;3.451914;0.6958509;-0.4068929;2.777672;-0.01719195;-0.1670671;1.335309;0.03694694;0;0;0;-0.4068929;2.777672;-0.01719195;-0.1670671;1.335309;0.03694694;0;0;0
867034.0331;NotLabelled;NONE;16384;0.7459372;0.3864266;0.5055401;0.1966759;8;12;-18;3064;-898;3013;65536;0.7497081;0.2562327;-0.5484765;-0.267313;-10;-19;17;2606;-1192;-3787;8192;0.5526316;-0.6929542;-0.4584487;0.06509695;68;-52;-11;2546;2865;159;32768;0.4085872;-0.8490486;0.2867036;-0.1731302;-45;10;94;3109;2217;1856;256;0.2063712;-0.2105263;-0.682321;-0.6689751;-17;-4;-5;-363;3980;283;128;-0.07479224;0.1883656;0.6537396;0.7290741;11;-18;1;-779;4309;1396;4;-0.3476454;0.4155124;-0.5415512;-0.6428175;-2;-38;4;341;4004;-956;16;0.7256283;-0.6689751;0.07202215;0.1440443;0;-12;0;-633;4076;-140;2;0.6546794;-0.5083103;-0.2617728;-0.4944598;27;-23;1;-571;3436;-87;8;0.4903047;-0.7437041;0.3213296;0.3213296;119;-21;-65;825;2877;1455;-0.1046715;2.818906;-0.007360131;-0.098726;3.360701;-0.07095351;-0.09350252;3.836703;-0.128861;-0.08190491;4.570363;-0.137244;-0.3354222;4.900099;-0.1790874;-0.6788858;4.766018;-0.1143244;-1.269913;5.132509;-0.7264521;-0.3775529;5.21926;-0.4199149;0.1848567;4.891877;-0.1791207;0.4715397;4.747837;-0.1143972;0.7589251;4.064376;0.5008793;0.04260394;3.476666;0.6990435;-0.4169325;2.776245;-0.009658545;-0.1701534;1.33486;0.03902392;0;0;0;-0.4169325;2.776245;-0.009658545;-0.1701534;1.33486;0.03902392;0;0;0
867055.2041;NotLabelled;NONE;16384;0.7455925;0.3808864;0.5096953;0.1980609;3;9;-9;3130;-868;2949;65536;0.7556097;0.2534626;-0.5443213;-0.2617728;-9;-5;10;2254;-1258;-3395;8192;0.5401662;-0.7120434;-0.4445983;0.05955679;65;-55;-31;2930;2761;-83;32768;0.3878116;-0.8500128;0.2963989;-0.1980609;-47;27;102;2923;2391;1054;256;0.2091413;-0.2077562;-0.6850315;-0.666205;-9;-9;-5;-19;3932;173;128;-0.07756232;0.1925208;0.6537396;0.727698;1;-13;5;-617;3845;688;4;-0.3448753;0.4127424;-0.5429363;-0.6449224;-1;-28;0;393;3908;-810;16;0.7252131;-0.6689751;0.0734072;0.1454294;0;-15;0;-407;4044;-76;2;0.6546282;-0.5124654;-0.2590028;-0.4916897;32;-25;14;-275;3620;-19;8;0.5069252;-0.7281777;0.3268698;0.3254848;138;-47;-78;1203;3455;1499;-0.1043304;2.819019;-0.007203884;-0.09838841;3.36049;-0.07349943;-0.09316815;3.836197;-0.1337809;-0.08496561;4.569854;-0.145744;-0.3400058;4.898205;-0.1891918;-0.6828455;4.762854;-0.1237698;-1.275848;5.11532;-0.7421914;-0.3822136;5.201491;-0.4392226;0.1803056;4.89239;-0.1891933;0.4676517;4.749996;-0.1237723;0.7316657;4.067147;0.5025573;-0.005428135;3.503792;0.6951997;-0.4165915;2.776347;-0.009272397;-0.1698255;1.334923;0.03830034;0;0;0;-0.4165915;2.776347;-0.009272397;-0.1698255;1.334923;0.03830034;0;0;0
867077.3926;NotLabelled;NONE;16384;0.7451035;0.3781163;0.5124654;0.1980609;0;7;-7;3200;-920;2867;65536;0.7575456;0.2520775;-0.5429363;-0.2603878;-12;-5;3;2080;-1248;-3447;8192;0.534626;-0.7207968;-0.4376731;0.05540166;62;-43;-39;2836;2775;-87;32768;0.3781163;-0.8489412;0.3033241;-0.2105263;-41;11;102;3375;2317;954;256;0.2105263;-0.2077562;-0.6859522;-0.66482;-7;-16;-2;-115;3860;243;128;-0.08033241;0.1925208;0.6523545;0.7286398;-8;-13;6;-387;3833;514;4;-0.3434903;0.4099723;-0.5443213;-0.6462596;0;-17;-5;381;3998;-776;16;0.7245105;-0.6689751;0.07479224;0.1481994;0;-17;1;-615;4058;-36;2;0.652822;-0.5193906;-0.2576177;-0.4875346;34;-35;29;-419;3760;101;8;0.5235457;-0.7099132;0.33518;0.3310249;150;-81;-86;1285;3911;2095;-0.1054915;2.818869;-0.005899541;-0.09955013;3.360285;-0.07264439;-0.09433039;3.835942;-0.1333206;-0.08994512;4.56948;-0.1524114;-0.3466924;4.896063;-0.1990198;-0.6888197;4.759572;-0.1322492;-1.28668;5.098229;-0.753702;-0.3899097;5.191117;-0.4622037;0.1736422;4.892956;-0.1990207;0.4617289;4.7527;-0.1322502;0.6862183;4.063457;0.502433;-0.08867154;3.550003;0.6860064;-0.4177527;2.776196;-0.007929951;-0.1694147;1.334986;0.03791891;0;0;0;-0.4177527;2.776196;-0.007929951;-0.1694147;1.334986;0.03791891;0;0;0
867118.0046;NotLabelled;NONE;16384;0.7437789;0.3781163;0.5138504;0.199446;-6;-4;0;2978;-876;2735;65536;0.7589156;0.2479224;-0.5429363;-0.2603878;-21;2;-19;1754;-1232;-3259;8192;0.5263157;-0.7366781;-0.4224377;0.04293629;61;-46;-49;2380;2673;-5;32768;0.365651;-0.8421075;0.3199446;-0.234072;-17;-12;108;3167;2661;728;256;0.2160665;-0.2105263;-0.6860641;-0.6620498;-3;-19;-1;-201;3646;351;128;-0.08587258;0.1952908;0.6495845;0.7297447;0;-18;0;-221;3799;514;4;-0.3379501;0.4085872;-0.5457063;-0.6488842;3;-12;-5;433;4228;-724;16;0.7235898;-0.66759;0.08171745;0.1551246;-3;-17;0;-507;4038;-544;2;0.6565199;-0.5457063;-0.2520775;-0.4556787;25;-66;58;-469;3466;405;8;0.5706371;-0.6441888;0.3642659;0.3559557;136;-41;-89;259;4851;1901;-0.1061193;2.818985;-0.005009599;-0.100176;3.360579;-0.07028928;-0.09495455;3.836399;-0.1296783;-0.09121493;4.569866;-0.151475;-0.3482504;4.896048;-0.199282;-0.6902562;4.759504;-0.1320007;-1.289527;5.092971;-0.7548994;-0.3921046;5.186913;-0.4657546;0.1720869;4.893398;-0.1992831;0.4602982;4.753643;-0.1320021;0.6627483;4.058767;0.5039509;-0.1308332;3.571462;0.6787385;-0.4183805;2.776317;-0.007164568;-0.1711824;1.334821;0.03574085;0;0;0;-0.4183805;2.776317;-0.007164568;-0.1711824;1.334821;0.03574085;0;0;0
867159.1197;NotLabelled;NONE;16384;0.7437789;0.3781163;0.5138504;0.199446;-7;-8;7;2948;-872;2701;65536;0.758793;0.2437673;-0.5443213;-0.2617728;-25;7;-30;1864;-1028;-3309;8192;0.5221606;-0.749543;-0.4058172;0.02908587;45;-34;-60;2852;3413;165;32768;0.3545706;-0.8340067;0.33518;-0.2576177;-13;6;107;2693;3635;1080;256;0.2174515;-0.2119114;-0.6851996;-0.6620498;1;-16;-2;-219;3714;451;128;-0.08725762;0.1966759;0.6481994;0.7304397;-1;-14;-1;-163;3851;704;4;-0.3365651;0.4058172;-0.5470914;-0.6501749;1;-13;-2;641;4214;-698;16;0.7231336;-0.66759;0.08310249;0.1565097;-6;-11;0;-455;4052;-622;2;0.6550456;-0.5554016;-0.2520775;-0.4459834;35;-38;64;-511;3698;183;8;0.5872576;-0.6298742;0.3628809;0.3559557;107;41;-65;1787;4565;3733;-0.1119226;2.817697;-0.01292111;-0.1059755;3.359634;-0.07529483;-0.1007506;3.835765;-0.1321308;-0.09871443;4.569119;-0.157621;-0.3565072;4.894459;-0.2070634;-0.6981942;4.757462;-0.1390867;-1.292556;5.088175;-0.7681277;-0.3970377;5.176795;-0.4714947;0.1638347;4.893018;-0.2070644;0.4523706;4.754272;-0.1390879;0.6043798;4.043197;0.4930041;-0.2220661;3.601586;0.6335591;-0.4241835;2.775042;-0.01532328;-0.1716453;1.334751;0.0361229;0;0;0;-0.4241835;2.775042;-0.01532328;-0.1716453;1.334751;0.0361229;0;0;0
867179.9889;NotLabelled;NONE;16384;0.7422363;0.3822715;0.5124654;0.200831;-6;-9;11;3128;-1292;2717;65536;0.7536281;0.2382271;-0.5498615;-0.2700831;-11;30;-42;2758;-734;-3543;8192;0.5207756;-0.7537108;-0.400277;0.02216066;36;-13;-46;3308;3271;397;32768;0.3490305;-0.8296942;0.3407202;-0.2714681;-5;-1;101;3059;3703;1912;256;0.2202216;-0.2132964;-0.685222;-0.6606648;7;-11;0;-265;3914;427;128;-0.09141274;0.200831;0.6468144;0.7300286;-3;-20;-7;-489;4025;556;4;-0.3365651;0.4044321;-0.5470914;-0.6510373;0;-10;0;607;4128;-592;16;0.7229731;-0.66759;0.08448754;0.1565097;-9;-3;-1;-335;4082;-564;2;0.651544;-0.5637119;-0.2548476;-0.4390582;30;-13;58;-1421;4264;307;8;0.599723;-0.6267141;0.3559557;0.3476454;20;47;-3;4785;2287;7131;-0.1103213;2.81807;-0.01152096;-0.1043721;3.360201;-0.07218304;-0.09914522;3.836509;-0.1275151;-0.09732892;4.569893;-0.1521466;-0.3552191;4.895214;-0.2012091;-0.6968651;4.758034;-0.1333939;-1.288618;5.088747;-0.7648896;-0.3933674;5.169222;-0.4651443;0.1651233;4.893927;-0.2012099;0.4537005;4.75519;-0.1333948;0.5653141;4.024966;0.4851434;-0.2880525;3.628192;0.595252;-0.4225821;2.775422;-0.01406866;-0.1713495;1.334819;0.03497733;0;0;0;-0.4225821;2.775422;-0.01406866;-0.1713495;1.334819;0.03497733;0;0;0
867200.9943;NotLabelled;NONE;16384;0.7424766;0.3836565;0.5110803;0.200831;-4;-20;16;3014;-1220;2811;65536;0.7490015;0.2368421;-0.5540166;-0.2756233;-9;18;-47;3318;-896;-3707;8192;0.5207756;-0.7567691;-0.3947368;0.0166205;20;-25;-42;3308;3645;671;32768;0.3434903;-0.8254232;0.3476454;-0.2825485;-4;-26;92;2831;4309;2344;256;0.2216066;-0.2146814;-0.6830025;-0.6620498;9;-13;2;-57;4152;223;128;-0.09279778;0.2049861;0.6468144;0.7286977;-1;-20;-7;-783;4177;426;4;-0.3365651;0.4030471;-0.5470914;-0.6518957;0;-4;2;603;4020;-522;16;0.7218525;-0.6689751;0.08310249;0.1565097;-12;10;-1;-487;4050;-394;2;0.6487009;-0.567867;-0.2576177;-0.4362881;16;8;28;-2969;4614;201;8;0.5914127;-0.6291475;0.3587258;0.3545706;-65;-79;1;-2443;4655;3745;-0.1083072;2.818376;-0.009381182;-0.1023566;3.360634;-0.06889322;-0.09712844;3.837059;-0.1232149;-0.09615627;4.570382;-0.1496707;-0.3544217;4.895282;-0.1995353;-0.6959081;4.757879;-0.1313699;-1.281037;5.091085;-0.7677087;-0.3884941;5.149855;-0.4551221;0.1659218;4.894595;-0.199547;0.4546603;4.756358;-0.1313948;0.5432942;4.019631;0.4831387;-0.3230371;3.646112;0.571126;-0.420568;2.775734;-0.01202655;-0.1690376;1.335115;0.03496255;0;0;0;-0.420568;2.775734;-0.01202655;-0.1690376;1.335115;0.03496255;0;0;0
867220.9861;NotLabelled;NONE;16384;0.743512;0.3864266;0.5069252;0.2022161;-6;-16;22;3428;-1476;2785;65536;0.7452373;0.234072;-0.5581717;-0.2797784;-13;13;-46;4056;-574;-3339;8192;0.5207756;-0.7603967;-0.3878116;0.01385042;1;-44;-35;3044;3675;617;32768;0.3407202;-0.8195234;0.3573407;-0.2908587;-13;-42;77;1853;4047;2894;256;0.2229917;-0.2174515;-0.6816741;-0.6620498;11;-14;2;137;4226;307;128;-0.09418282;0.2077562;0.6454294;0.7289636;-5;-20;-6;-1153;4331;538;4;-0.3379501;0.4030471;-0.5457063;-0.6523399;6;12;1;-31;4046;-620;16;0.7200431;-0.6717451;0.07894737;0.1551246;-13;8;0;-395;4172;-92;2;0.6442156;-0.5706371;-0.2603878;-0.4376731;8;27;19;-1495;4938;-619;8;0.5900277;-0.6312357;0.3559557;0.3559557;36;45;-18;-3087;5453;-3163;-0.1092187;2.818475;-0.01265313;-0.1032684;3.360707;-0.07240953;-0.09804045;3.837106;-0.1269459;-0.09826121;4.570539;-0.1501728;-0.3572091;4.895268;-0.1975466;-0.6982095;4.757056;-0.1285895;-1.288989;5.096093;-0.7565717;-0.3984786;5.14301;-0.4362806;0.1631304;4.89536;-0.1996925;0.45235;4.757257;-0.1333334;0.537138;4.009197;0.4679079;-0.3396955;3.658064;0.5431209;-0.4214796;2.775831;-0.01527786;-0.1693607;1.335222;0.02875778;0;0;0;-0.4214796;2.775831;-0.01527786;-0.1693607;1.335222;0.02875778;0;0;0
867242.1117;NotLabelled;NONE;16384;0.7443256;0.3891967;0.5041551;0.200831;-7;-3;29;3628;-1692;2709;65536;0.7429738;0.2313019;-0.5609418;-0.2825485;-7;5;-36;3882;-10;-3647;8192;0.5235457;-0.7626575;-0.3795014;0.01523546;-18;-41;-23;3554;4065;349;32768;0.33518;-0.8166521;0.365651;-0.2950138;-26;-26;51;727;3291;3168;256;0.2229917;-0.2202216;-0.6807842;-0.6620498;8;-13;5;349;4496;121;128;-0.09418282;0.2119114;0.6440443;0.7289925;-42;-22;-8;-1117;4105;1048;4;-0.3379501;0.4044321;-0.5443213;-0.6526397;9;10;0;-205;4008;-744;16;0.7187486;-0.6731302;0.07894737;0.1551246;-13;-2;-1;-399;3980;-102;2;0.6400496;-0.5734072;-0.2645429;-0.4376731;16;18;45;97;4278;-829;8;0.601108;-0.6261905;0.3518005;0.3504155;57;54;-25;-49;4293;483;-0.1123091;2.81824;-0.02262641;-0.1063568;3.360657;-0.08067907;-0.1011271;3.837225;-0.1337186;-0.1002476;4.570721;-0.154859;-0.3585541;4.895941;-0.2023675;-0.7000231;4.758004;-0.1351997;-1.272817;5.097934;-0.7791592;-0.3874903;5.13254;-0.4433084;0.1617895;4.89532;-0.2023842;0.4505454;4.756629;-0.1352357;0.5130423;4.007084;0.4668867;-0.3727266;3.674877;0.5201793;-0.4245698;2.775604;-0.02539584;-0.1705476;1.335275;0.01680894;0;0;0;-0.4245698;2.775604;-0.02539584;-0.1705476;1.335275;0.01680894;0;0;0
867262.0323;NotLabelled;NONE;16384;0.746211;0.3905817;0.501385;0.1980609;-4;7;33;3218;-1772;2363;65536;0.7398119;0.2313019;-0.5637119;-0.2853186;0;10;-27;3476;-66;-3199;8192;0.5277008;-0.7618207;-0.3753462;0.0166205;-33;-27;-13;3770;4043;-125;32768;0.3310249;-0.8154696;0.3698061;-0.2977839;-32;-15;25;1525;2403;3284;256;0.2229917;-0.2216066;-0.6803346;-0.6620498;5;-7;8;465;4072;433;128;-0.09556787;0.2160665;0.6385041;0.7324578;-26;-23;-7;-667;4223;642;4;-0.3379501;0.4058172;-0.5429363;-0.6529337;9;9;-2;-191;4022;-766;16;0.7158427;-0.6759003;0.07894737;0.1565097;-12;-8;-1;-283;4020;28;2;0.6343234;-0.5844875;-0.2742382;-0.4252077;-9;-21;49;-1417;4298;1195;8;0.602493;-0.6232964;0.3518005;0.3531856;21;-11;-16;-371;4429;-837;-0.1140954;2.817771;-0.03040297;-0.1081407;3.360402;-0.08642288;-0.1029088;3.837166;-0.1376764;-0.09954634;4.570703;-0.1570377;-0.3567498;4.89691;-0.2037596;-0.6986848;4.759967;-0.1369296;-1.267052;5.106241;-0.7814318;-0.3841387;5.131529;-0.4384715;0.1635887;4.894528;-0.2037733;0.4518724;4.754698;-0.1369588;0.5132114;3.999959;0.4587603;-0.3793677;3.685639;0.5066419;-0.4263561;2.775147;-0.03334481;-0.1683158;1.335614;0.01157534;0;0;0;-0.4263561;2.775147;-0.03334481;-0.1683158;1.335614;0.01157534;0;0;0
867283.181;NotLabelled;NONE;16384;0.74899;0.3919668;0.4972299;0.1952908;0;4;35;2842;-1588;2395;65536;0.7375889;0.2299169;-0.566482;-0.2867036;0;-1;-28;2928;-110;-2669;8192;0.534626;-0.7595574;-0.3698061;0.02216066;-31;-17;-3;2768;2855;-1151;32768;0.3227147;-0.817909;0.3739612;-0.2950138;-30;-10;-6;2265;403;1920;256;0.2216066;-0.2243767;-0.6798791;-0.6620498;8;-7;10;101;4022;105;128;-0.09556787;0.2188366;0.6357341;0.7340433;-7;-14;-7;-421;4051;222;4;-0.3379501;0.4072022;-0.5429363;-0.6520708;5;4;-3;-149;4162;-908;16;0.7140732;-0.6772853;0.08033241;0.1578947;-12;-10;-1;-301;4104;124;2;0.6368632;-0.5831025;-0.2797784;-0.4196676;-37;-6;35;-1245;3836;1525;8;0.6080332;-0.6202528;0.3504155;0.3504155;25;22;-15;577;3767;-55;-0.1156414;2.817284;-0.04295107;-0.1096787;3.360645;-0.09136724;-0.1044395;3.83808;-0.1359397;-0.09984048;4.571634;-0.1544034;-0.356495;4.898332;-0.2007167;-0.6986581;4.761884;-0.1340418;-1.262401;5.108411;-0.7824571;-0.3823051;5.127872;-0.4319586;0.1638388;4.895072;-0.2007521;0.4518884;4.754674;-0.1341193;0.5190936;4.001604;0.4630777;-0.3775393;3.698721;0.5088892;-0.4279015;2.774705;-0.04653749;-0.1657799;1.33598;0.0006020218;0;0;0;-0.4279015;2.774705;-0.04653749;-0.1657799;1.33598;0.0006020218;0;0;0
867303.996;NotLabelled;NONE;16384;0.754582;0.3933518;0.4903047;0.1883656;-6;7;36;2452;-1614;2561;65536;0.7325273;0.2271468;-0.5720221;-0.2908587;-4;7;-22;2554;652;-3049;8192;0.536011;-0.7598389;-0.367036;0.02493075;-21;-29;-1;2470;2783;-1703;32768;0.3227147;-0.8187622;0.3753462;-0.2908587;-10;-14;-19;3317;991;1656;256;0.2229917;-0.2299169;-0.6775714;-0.6620498;9;-16;3;235;3836;189;128;-0.09695291;0.2202216;0.6385041;0.731037;5;-6;-8;-469;3701;904;4;-0.3365651;0.4072022;-0.5415512;-0.6539362;3;0;-4;-307;4030;-860;16;0.7122912;-0.6786703;0.08171745;0.1592798;-11;-9;-1;-413;4052;152;2;0.6377481;-0.5831025;-0.2839335;-0.4155124;3;6;37;-841;3384;-701;8;0.6121883;-0.6192794;0.3490305;0.3462604;20;31;-13;411;4125;-439;-0.1121522;2.817581;-0.05212314;-0.1061857;3.361281;-0.09658045;-0.1009431;3.839028;-0.1376744;-0.09238196;4.572589;-0.1543255;-0.3472645;4.900782;-0.1998525;-0.6901658;4.766019;-0.1335429;-1.246604;5.129587;-0.7789295;-0.3689803;5.143152;-0.422013;0.1730441;4.894712;-0.1998535;0.4603253;4.752597;-0.1335441;0.5420498;3.987149;0.4458393;-0.3577324;3.695997;0.5042418;-0.424412;2.77503;-0.05604443;-0.1630644;1.336306;-0.004752755;0;0;0;-0.424412;2.77503;-0.05604443;-0.1630644;1.336306;-0.004752755;0;0;0
867324.0285;NotLabelled;NONE;16384;0.7566765;0.3947368;0.4875346;0.1842105;-7;8;26;2178;-1674;2357;65536;0.7311918;0.2243767;-0.5734072;-0.2936288;-3;8;-16;2586;694;-2907;8192;0.534626;-0.7606665;-0.367036;0.02908587;4;-3;28;3666;2741;-1627;32768;0.3254848;-0.8180087;0.3767313;-0.2880886;16;-22;-21;4141;2067;2638;256;0.2229917;-0.2313019;-0.6770998;-0.6620498;7;-7;7;125;3706;211;128;-0.09833795;0.2229917;0.6371191;0.7312206;-6;-12;-6;-561;4001;932;4;-0.33518;0.4085872;-0.5429363;-0.6526339;0;-6;-4;-379;3926;-720;16;0.7106572;-0.6800554;0.08171745;0.1606648;-9;-8;-2;-401;4054;106;2;0.6303355;-0.5914127;-0.2853186;-0.4141274;43;-14;45;-877;3770;-1499;8;0.6196324;-0.6149584;0.3462604;0.3434903;28;32;-13;203;4067;-105;-0.1160619;2.816573;-0.06186764;-0.1100995;3.359913;-0.1105344;-0.1048604;3.837327;-0.1553271;-0.09289613;4.570915;-0.1682855;-0.3462517;4.900511;-0.2121645;-0.689777;4.767009;-0.1465401;-1.219108;5.150425;-0.8031449;-0.3489721;5.150426;-0.4280972;0.1740231;4.892028;-0.2121868;0.4606392;4.748251;-0.1465886;0.5341144;3.977867;0.4273326;-0.3649454;3.684012;0.483265;-0.4283221;2.773993;-0.06543282;-0.1602476;1.336606;-0.01144247;0;0;0;-0.4283221;2.773993;-0.06543282;-0.1602476;1.336606;-0.01144247;0;0;0
867345.0051;NotLabelled;NONE;16384;0.7585654;0.3947368;0.4861496;0.1800554;-8;12;20;1978;-1902;2629;65536;0.7304975;0.2229917;-0.5734072;-0.2963989;-5;13;-14;2532;560;-3033;8192;0.533241;-0.7601267;-0.3698061;0.033241;-10;-5;33;3642;2993;11;32768;0.3296399;-0.8166755;0.3781163;-0.2853186;18;-22;-6;3595;2133;3244;256;0.2229917;-0.232687;-0.6752671;-0.6634349;8;-7;5;95;4120;-73;128;-0.09833795;0.2257618;0.634349;0.7327774;-12;-10;-6;-531;3969;892;4;-0.3310249;0.4072022;-0.5457063;-0.6533096;-3;-17;-7;-289;4018;-652;16;0.7088531;-0.6814404;0.08310249;0.1620499;-4;-11;-1;-371;4114;254;2;0.625809;-0.599723;-0.2839335;-0.4099723;31;-26;42;-1027;3850;-817;8;0.6240608;-0.6135734;0.3434903;0.3407202;21;19;-13;-133;3991;161;-0.1124547;2.816821;-0.07606927;-0.1064906;3.360308;-0.1230583;-0.1012501;3.837858;-0.1663768;-0.08806754;4.571442;-0.1783974;-0.3408722;4.901513;-0.2218766;-0.6846241;4.768497;-0.1564514;-1.212565;5.153026;-0.8135244;-0.3435194;5.14484;-0.4360464;0.1793878;4.892167;-0.2218664;0.4657595;4.74783;-0.156428;0.5453607;3.987846;0.4303967;-0.3520985;3.688944;0.4852733;-0.4247147;2.774251;-0.07977647;-0.1599097;1.336576;-0.01792844;0;0;0;-0.4247147;2.774251;-0.07977647;-0.1599097;1.336576;-0.01792844;0;0;0
867366.0611;NotLabelled;NONE;16384;0.7597038;0.3961219;0.4847645;0.1759003;-14;2;23;2036;-1994;2455;65536;0.7282764;0.2229917;-0.5747922;-0.299169;2;29;-10;2506;982;-3799;8192;0.533241;-0.759258;-0.3711911;0.03739612;-22;7;22;3630;3355;271;32768;0.33241;-0.8149083;0.3795014;-0.2853186;3;-17;-4;3121;2449;2698;256;0.2216066;-0.234072;-0.6752444;-0.6634349;5;0;0;629;3882;33;128;-0.09833795;0.2271468;0.632964;0.7335466;-13;-5;-5;-787;3869;698;4;-0.3282548;0.4058172;-0.5484765;-0.6532494;-1;-20;-9;-253;3994;-710;16;0.7080503;-0.6814404;0.08448754;0.1648199;-2;-12;0;-229;4188;166;2;0.6222429;-0.6108033;-0.2839335;-0.398892;13;-29;38;-867;4146;-119;8;0.6311201;-0.6094183;0.3393352;0.3393352;16;10;-9;-369;4069;-231;-0.1078053;2.817101;-0.08731209;-0.1018376;3.360916;-0.130345;-0.09659383;3.838769;-0.1701873;-0.08311351;4.572397;-0.1785698;-0.3357815;4.902783;-0.2204292;-0.6795918;4.769582;-0.1556875;-1.203436;5.161731;-0.8115348;-0.3347417;5.148324;-0.4333977;0.1844747;4.893226;-0.2204302;0.4707834;4.748451;-0.1556889;0.5552501;3.992366;0.4354755;-0.3400731;3.686625;0.4875053;-0.420065;2.77456;-0.09135389;-0.1571084;1.336825;-0.02331559;0;0;0;-0.420065;2.77456;-0.09135389;-0.1571084;1.336825;-0.02331559;0;0;0
867386.9886;NotLabelled;NONE;16384;0.7606527;0.398892;0.4819945;0.1731302;-16;0;18;2128;-2108;2347;65536;0.7248321;0.2285319;-0.5747922;-0.3033241;20;47;-4;2698;1044;-3497;8192;0.5415512;-0.7478622;-0.3808864;0.04847645;-68;-1;43;3292;4041;749;32768;0.333795;-0.8156167;0.3808864;-0.2797784;-4;-1;-29;2595;3967;1748;256;0.2202216;-0.234072;-0.6756974;-0.6634349;1;7;1;335;3880;243;128;-0.09695291;0.2285319;0.6315789;0.734494;-8;5;0;-1023;4033;488;4;-0.3254848;0.4058172;-0.5498615;-0.6534711;0;-12;-13;39;3954;-546;16;0.7062232;-0.6828254;0.08587258;0.166205;-1;-12;-2;-457;4028;166;2;0.623044;-0.6135734;-0.2839335;-0.3933518;1;-21;30;-871;4290;291;8;0.6331958;-0.6080332;0.3393352;0.3379501;13;3;-7;-199;4171;-449;-0.1053387;2.817415;-0.09309158;-0.0993694;3.361383;-0.1341494;-0.09412405;3.839377;-0.1722562;-0.07793006;4.572961;-0.1796898;-0.3293715;4.904333;-0.2211382;-0.6736766;4.772322;-0.1565908;-1.194393;5.16907;-0.8121623;-0.3270242;5.150929;-0.4311914;0.1908457;4.892852;-0.2211183;0.4766125;4.746934;-0.1565459;0.5672688;3.996969;0.4414561;-0.3274436;3.688802;0.4895325;-0.4175982;2.774889;-0.09730014;-0.1588035;1.336586;-0.02541697;0;0;0;-0.4175982;2.774889;-0.09730014;-0.1588035;1.336586;-0.02541697;0;0;0
867407.9739;NotLabelled;NONE;16384;0.7620171;0.4030471;0.4778393;0.1689751;-4;-7;21;2460;-2054;2439;65536;0.7208846;0.2437673;-0.5720221;-0.3060942;38;33;24;4362;76;-2557;8192;0.5470914;-0.7409791;-0.3850415;0.05817174;-80;14;58;4500;4125;573;32768;0.3365651;-0.8178198;0.3767313;-0.2756233;16;20;-48;2269;4647;640;256;0.2174515;-0.232687;-0.6757115;-0.66482;6;5;-2;413;4146;207;128;-0.09279778;0.2257618;0.6301939;0.7370725;-13;23;4;-867;4145;778;4;-0.3240997;0.4058172;-0.5512465;-0.6529924;1;-1;-15;329;4010;-586;16;0.7062232;-0.6828254;0.08587258;0.166205;-1;-5;-1;-513;4080;2;2;0.6242867;-0.6149584;-0.2839335;-0.3891967;-2;-13;21;-763;4196;327;8;0.6358442;-0.6052631;0.3393352;0.3379501;9;0;-5;-205;4041;-651;-0.1027925;2.817328;-0.1027264;-0.09682132;3.361465;-0.1414778;-0.09157425;3.839616;-0.177558;-0.07387637;4.573165;-0.1849926;-0.3246395;4.905052;-0.2264311;-0.669212;4.773747;-0.1618698;-1.187483;5.180853;-0.8130143;-0.3212513;5.16434;-0.4293905;0.1955531;4.892504;-0.2264321;0.4810227;4.746002;-0.161871;0.6093077;4.002333;0.4371071;-0.2828398;3.68833;0.4942307;-0.4150519;2.774821;-0.1071297;-0.1561237;1.336802;-0.03019756;0;0;0;-0.4150519;2.774821;-0.1071297;-0.1561237;1.336802;-0.03019756;0;0;0
867428.9933;NotLabelled;NONE;16384;0.7631403;0.4058172;0.4736842;0.1689751;-2;-5;27;2842;-1992;2501;65536;0.7223798;0.2506925;-0.567867;-0.3047091;34;20;34;4092;-292;-2665;8192;0.5540166;-0.7305711;-0.3933518;0.06786703;-96;49;69;5126;4331;263;32768;0.3448753;-0.820444;0.368421;-0.2686981;43;26;-87;1441;4177;614;256;0.2160665;-0.232687;-0.6761556;-0.66482;3;6;-2;311;4068;131;128;-0.0900277;0.2229917;0.6301939;0.7382583;-16;20;4;-503;4073;826;4;-0.3240997;0.4072022;-0.5512465;-0.6521296;5;9;-16;481;3968;-716;16;0.7057259;-0.6828254;0.08725762;0.16759;0;-6;-1;-217;4158;-358;2;0.62401;-0.6163435;-0.2853186;-0.3864266;1;-3;14;-515;4088;27;8;0.6371598;-0.6038781;0.3393352;0.3379501;3;-1;-4;-75;3977;-915;-0.1010219;2.817536;-0.1037179;-0.09504851;3.361868;-0.1396042;-0.0897994;3.840204;-0.1731666;-0.07121435;4.573746;-0.1788482;-0.3215707;4.906033;-0.2195279;-0.6663103;4.774992;-0.1553259;-1.186638;5.190587;-0.7994297;-0.3211197;5.191769;-0.4138467;0.1986063;4.892858;-0.2194896;0.4838899;4.745857;-0.1552403;0.6449966;4.012158;0.4480882;-0.2425786;3.687298;0.5149096;-0.413281;2.775052;-0.1083631;-0.156305;1.336802;-0.02924447;0;0;0;-0.413281;2.775052;-0.1083631;-0.156305;1.336802;-0.02924447;0;0;0
867449.987;NotLabelled;NONE;16384;0.7654595;0.4058172;0.4709141;0.166205;-5;9;27;3216;-1926;2635;65536;0.7237701;0.2562327;-0.5650969;-0.301939;28;5;35;3300;-248;-2627;8192;0.5609418;-0.7175331;-0.4058172;0.07617728;-106;86;71;4508;4351;79;32768;0.3587258;-0.825608;0.3531856;-0.2548476;54;13;-137;1147;3363;2208;256;0.2146814;-0.2313019;-0.6757087;-0.666205;9;10;-5;293;4100;95;128;-0.08864266;0.2202216;0.6288089;0.7404352;-34;14;4;-173;3935;1668;4;-0.3254848;0.4127424;-0.5484765;-0.6502899;4;21;-9;325;4072;-868;16;0.707233;-0.6814404;0.08587258;0.16759;-5;9;-2;-593;3998;-356;2;0.6233749;-0.6163435;-0.2867036;-0.3864266;0;12;7;-331;4140;-251;8;0.6392009;-0.602493;0.3393352;0.3365651;2;4;-2;-43;4029;-1023;-0.1001973;2.817484;-0.1069238;-0.09422357;3.361854;-0.1422361;-0.08897413;3.840224;-0.1752941;-0.06888656;4.573727;-0.1809774;-0.3185647;4.906526;-0.2216384;-0.6635672;4.776191;-0.1574104;-1.17619;5.201248;-0.8015174;-0.3089184;5.216503;-0.4201998;0.2015843;4.892285;-0.2216393;0.486571;4.7447;-0.1574116;0.6766608;4.017245;0.4450427;-0.201505;3.668618;0.5162512;-0.4124563;2.775005;-0.1116173;-0.1560022;1.336833;-0.0294431;0;0;0;-0.4124563;2.775005;-0.1116173;-0.1560022;1.336833;-0.0294431;0;0;0
867471.1486;NotLabelled;NONE;16384;0.7661709;0.4072022;0.4695291;0.1634349;-6;13;25;2684;-1968;2479;65536;0.7261621;0.2603878;-0.5623268;-0.2977839;21;-27;25;2864;-226;-2571;8192;0.5706371;-0.6992952;-0.4224377;0.08310249;-118;104;70;3442;3945;-153;32768;0.3767313;-0.8284008;0.3421052;-0.234072;54;-18;-186;305;2173;2444;256;0.2132964;-0.2285319;-0.6757228;-0.66759;4;16;-7;99;4506;45;128;-0.08725762;0.2174515;0.6288089;0.7414178;-2;20;10;75;4205;-56;4;-0.3268698;0.4155124;-0.5470914;-0.6489965;4;23;-5;15;4186;-934;16;0.7060629;-0.6828254;0.08448754;0.16759;-8;3;-2;-397;4052;-304;2;0.6219562;-0.6149584;-0.2908587;-0.3878116;-2;26;3;-433;4200;-319;8;0.6399282;-0.602493;0.3393352;0.33518;-1;6;-1;13;4067;-651;-0.1098044;2.815661;-0.1101939;-0.1038291;3.360169;-0.1433111;-0.09857815;3.838669;-0.1744401;-0.0791014;4.5722;-0.1783603;-0.3290541;4.904888;-0.2182383;-0.673952;4.774112;-0.1543464;-1.183156;5.204195;-0.7978278;-0.3143134;5.232276;-0.4208397;0.1911066;4.89108;-0.218239;0.4762119;4.743578;-0.1543469;0.701894;4.028485;0.4506186;-0.157339;3.637786;0.5334485;-0.4220632;2.773201;-0.1150725;-0.1608817;1.336342;-0.02520289;0;0;0;-0.4220632;2.773201;-0.1150725;-0.1608817;1.336342;-0.02520289;0;0;0
867492.1295;NotLabelled;NONE;16384;0.7687342;0.4072022;0.466759;0.1592798;-5;6;22;2224;-2212;2541;65536;0.7294568;0.2590028;-0.5623268;-0.2908587;15;-34;11;1736;-58;-2205;8192;0.5872576;-0.6669921;-0.4487534;0.09418282;-98;85;66;2562;3393;-583;32768;0.4141274;-0.8381676;0.3074792;-0.1772853;50;43;-291;-3107;2715;1974;256;0.2132964;-0.2257618;-0.6752841;-0.6689751;0;4;-8;65;4468;-43;128;-0.08864266;0.2174515;0.6288089;0.7412535;-11;-1;5;-987;4017;496;4;-0.3282548;0.4168975;-0.5443213;-0.6497381;2;18;-3;-265;4076;-992;16;0.7060629;-0.6828254;0.08448754;0.16759;-9;-3;-3;-625;4068;-176;2;0.6199527;-0.6108033;-0.2963989;-0.3933518;-6;33;-1;-1063;4076;-389;8;0.6415345;-0.6038781;0.33518;0.333795;-8;20;1;-225;4113;-309;-0.1116089;2.815137;-0.1167317;-0.1056335;3.359659;-0.1496012;-0.1003824;3.838173;-0.1805126;-0.08272719;4.571754;-0.1835905;-0.3335042;4.903866;-0.2230944;-0.6780781;4.772161;-0.1593629;-1.1886;5.207583;-0.7981926;-0.3170883;5.248555;-0.4286184;0.1866892;4.891349;-0.2230951;0.4721582;4.744483;-0.1593636;0.7414746;4.04395;0.4447863;-0.09192865;3.604268;0.5443213;-0.4238676;2.772679;-0.1216311;-0.1612314;1.336203;-0.02988552;0;0;0;-0.4238676;2.772679;-0.1216311;-0.1612314;1.336203;-0.02988552;0;0;0
867513.0053;NotLabelled;NONE;16384;0.7705239;0.4085872;0.4639889;0.1551246;-4;2;9;2228;-1936;2647;65536;0.7310199;0.2562327;-0.566482;-0.2811634;11;-27;-3;1632;266;-2697;8192;0.5914127;-0.6546458;-0.4598338;0.101108;-82;66;64;3374;2233;-883;32768;0.434903;-0.8468801;0.2714681;-0.1412742;71;95;-322;-111;3991;832;256;0.2132964;-0.2243767;-0.6757456;-0.6689751;7;-5;-9;-33;4328;5;128;-0.0900277;0.2174515;0.6274238;0.7422596;1;6;5;-967;4387;186;4;-0.3296399;0.4196676;-0.5443213;-0.6472488;3;9;-2;-463;4070;-1092;16;0.70439;-0.6842105;0.08448754;0.1689751;-11;-3;-2;-753;4050;-66;2;0.6179987;-0.6094183;-0.2977839;-0.3975069;-4;24;-1;-1225;4096;-305;8;0.6417975;-0.6066482;0.33241;0.3310249;-9;15;0;-187;4129;-157;-0.1185485;2.814074;-0.1129404;-0.1125733;3.358578;-0.1461155;-0.1073224;3.837074;-0.1772954;-0.09299301;4.570731;-0.1795029;-0.3452722;4.90175;-0.21862;-0.6892469;4.768408;-0.1550545;-1.195642;5.210196;-0.7927974;-0.3223505;5.25826;-0.4283122;0.1749726;4.891591;-0.218621;0.4611031;4.745945;-0.1550557;0.7992569;4.073078;0.4459234;0.04490721;3.51858;0.5917919;-0.4308073;2.771613;-0.1178141;-0.1613531;1.336203;-0.02922107;0;0;0;-0.4308073;2.771613;-0.1178141;-0.1613531;1.336203;-0.02922107;0;0;0
867554.9851;NotLabelled;NONE;16384;0.7711734;0.4099723;0.4626039;0.1523546;-6;-5;4;1768;-2198;2225;65536;0.7288451;0.2562327;-0.5706371;-0.2783934;17;5;-8;2530;308;-2981;8192;0.5983379;-0.6255959;-0.4903047;0.101108;-51;145;34;2300;1115;-1181;32768;0.4806094;-0.8543192;0.1814404;-0.07894737;108;170;-304;3805;4587;1290;256;0.2146814;-0.2229917;-0.6703601;-0.6743915;7;4;-6;327;3414;-91;128;-0.08864266;0.2146814;0.6232687;0.7467198;-30;-11;3;-297;3841;854;4;-0.3240997;0.4210526;-0.5443213;-0.6491444;4;-11;-1;-347;4014;-652;16;0.7001628;-0.6869806;0.08587258;0.1745152;-8;-11;-2;-651;4040;78;2;0.6189354;-0.6066482;-0.2977839;-0.400277;-1;-1;-3;-1109;3904;-37;8;0.6406009;-0.6094183;0.3296399;0.3310249;-12;2;2;-273;4041;-117;-0.1146791;2.814322;-0.1236097;-0.1087028;3.358924;-0.1551548;-0.1034509;3.837511;-0.1849023;-0.09034224;4.571187;-0.1880249;-0.3431726;4.901735;-0.2275487;-0.6869237;4.767901;-0.163809;-1.188907;5.217408;-0.7996434;-0.3175416;5.270517;-0.4312696;0.1770883;4.892443;-0.2275491;0.4634621;4.747353;-0.1638089;0.8283053;4.091264;0.4401045;0.1397047;3.465969;0.6207225;-0.4269378;2.771877;-0.1286207;-0.1612886;1.336069;-0.03510164;0;0;0;-0.4269378;2.771877;-0.1286207;-0.1612886;1.336069;-0.03510164;0;0;0
867575.9899;NotLabelled;NONE;16384;0.7701603;0.4113573;0.4626039;0.1537396;-4;-18;4;1788;-2190;2189;65536;0.7267774;0.2590028;-0.5720221;-0.2783934;24;14;-6;2478;392;-2491;8192;0.601108;-0.6149382;-0.501385;0.09556787;-28;80;20;-442;61;-711;32768;0.5027701;-0.8503851;0.1454294;-0.05401662;133;64;-245;9607;4007;1296;256;0.2146814;-0.2216066;-0.6689751;-0.676221;13;6;-7;31;3844;5;128;-0.0900277;0.2160665;0.6218836;0.7473092;-17;-3;1;-289;3615;294;4;-0.3227147;0.4196676;-0.5457063;-0.6495683;2;-10;-2;-301;3904;-816;16;0.6996448;-0.6869806;0.08725762;0.1759003;-6;-4;0;-523;4060;210;2;0.620953;-0.6052631;-0.2963989;-0.400277;-1;-9;-1;-1061;3758;9;8;0.6392804;-0.6108033;0.3296399;0.3310249;-12;0;3;-255;4019;-71;-0.1253841;2.811139;-0.1485803;-0.1194043;3.356057;-0.1740714;-0.1141491;3.834946;-0.1984987;-0.107243;4.568683;-0.191851;-0.362854;4.897579;-0.2270309;-0.7054691;4.760008;-0.1651598;-1.204712;5.21476;-0.7994208;-0.336976;5.267593;-0.4225387;0.1574669;4.892686;-0.227032;0.4450491;4.749185;-0.1651613;0.8479004;4.123527;0.4468326;0.3178941;3.372583;0.6769738;-0.4376421;2.768752;-0.1541007;-0.162862;1.335415;-0.04969621;0;0;0;-0.4376421;2.768752;-0.1541007;-0.162862;1.335415;-0.04969621;0;0;0
867596.9908;NotLabelled;NONE;16384;0.7697766;0.4141274;0.4598338;0.1565097;-1;-26;0;2164;-2010;2253;65536;0.7257842;0.2617728;-0.5720221;-0.2783934;18;15;-9;2214;-252;-1673;8192;0.6038781;-0.6081248;-0.5055401;0.09972299;-20;41;10;4562;2435;703;32768;0.5457063;-0.8288696;0.1218837;-0.01800554;125;23;-64;10343;281;5274;256;0.2132964;-0.2202216;-0.66759;-0.6784768;8;12;-5;-49;3550;137;128;-0.0900277;0.2160665;0.6191136;0.7496057;-17;-3;-3;-395;3573;1290;4;-0.3213296;0.4196676;-0.5457063;-0.6502545;1;-6;-3;-259;3988;-1042;16;0.6982822;-0.6883656;0.08725762;0.1759003;-5;-5;0;-561;4124;302;2;0.6226944;-0.6066482;-0.2936288;-0.3975069;3;-17;4;-717;4032;31;8;0.6359001;-0.6135734;0.3296399;0.33241;-11;-12;5;-123;4165;117;-0.1238082;2.811433;-0.1482052;-0.1178276;3.356427;-0.1720509;-0.1125717;3.835386;-0.195032;-0.108055;4.569112;-0.1856622;-0.3647353;4.897303;-0.2196267;-0.7069013;4.758388;-0.1582732;-1.210508;5.211252;-0.7904319;-0.3444214;5.266165;-0.4100684;0.1555988;4.894104;-0.2196355;0.4436464;4.751312;-0.1582919;0.8570741;4.133203;0.4543211;0.4027119;3.337877;0.6968045;-0.4360661;2.769063;-0.1538638;-0.1626445;1.335433;-0.0499233;0;0;0;-0.4360661;2.769063;-0.1538638;-0.1626445;1.335433;-0.0499233;0;0;0
867618.0263;NotLabelled;NONE;16384;0.7673693;0.4168975;0.4584487;0.1648199;3;-26;-12;2742;-1330;2383;65536;0.7215628;0.265928;-0.5734072;-0.2825485;-6;14;-7;3096;-1336;-1611;8192;0.6104672;-0.5969529;-0.5124654;0.09141274;-17;121;-22;2292;3319;565;32768;0.5567867;-0.8220078;0.1177285;-0.02077562;56;20;23;9939;-1745;6130;256;0.2119114;-0.2174515;-0.66759;-0.6798029;16;16;-2;-273;3422;271;128;-0.0900277;0.2188366;0.6163435;0.7510834;-20;-5;-8;-281;3777;896;4;-0.3199446;0.4196676;-0.5457063;-0.6509371;3;-7;-5;-321;4054;-1162;16;0.6977572;-0.6883656;0.08864266;0.1772853;-4;-13;1;-527;4122;302;2;0.6237563;-0.6080332;-0.2922437;-0.3947368;5;-18;8;-625;4102;-3;8;0.6344534;-0.6135734;0.3310249;0.333795;-7;-16;5;-9;4247;121;-0.1247144;2.810871;-0.1526147;-0.118732;3.356019;-0.1726143;-0.1134744;3.835129;-0.1922153;-0.1100971;4.568807;-0.1792587;-0.3672853;4.896761;-0.2116301;-0.7092375;4.757017;-0.1509718;-1.212659;5.213881;-0.7803941;-0.346307;5.272118;-0.4011316;0.1530531;4.894369;-0.211631;0.4413196;4.751726;-0.1509731;0.8696364;4.141175;0.4589838;0.5210748;3.28818;0.6796433;-0.4369717;2.768542;-0.1585964;-0.1606469;1.335517;-0.05399221;0;0;0;-0.4369717;2.768542;-0.1585964;-0.1606469;1.335517;-0.05399221;0;0;0
867638.1938;NotLabelled;NONE;16384;0.7659392;0.4168975;0.4598338;0.16759;0;-15;-9;2906;-1346;2517;65536;0.7215628;0.265928;-0.5734072;-0.2825485;-13;-6;-5;3080;-740;-2855;8192;0.615755;-0.5886427;-0.5180055;0.07756232;-5;72;-53;-794;2245;183;32768;0.5581717;-0.8198405;0.1246537;-0.02770083;-4;-20;83;7703;-1425;5132;256;0.2091413;-0.2146814;-0.6620498;-0.686922;28;-2;-4;-495;4218;105;128;-0.09141274;0.2229917;0.6121883;0.7530895;-7;-11;-4;-265;4257;956;4;-0.3171745;0.4210526;-0.5457063;-0.6513982;4;-11;-7;-335;4110;-1146;16;0.6954992;-0.6897507;0.0900277;0.1800554;-4;-23;2;-617;4162;56;2;0.6234441;-0.6108033;-0.2908587;-0.3919668;7;-21;11;-605;4118;-85;8;0.630915;-0.6149584;0.33241;0.3365651;-7;-18;5;-41;4143;115;-0.127868;2.81023;-0.1519305;-0.1218843;3.355506;-0.1680343;-0.1166253;3.834744;-0.1842114;-0.1149951;4.568412;-0.1703903;-0.3729634;4.895792;-0.2023767;-0.7145819;4.755162;-0.1418849;-1.225584;5.207463;-0.7684864;-0.3597372;5.264042;-0.3878233;0.1473793;4.894639;-0.2023777;0.4359844;4.752611;-0.1418865;0.8775216;4.140479;0.4569576;0.5420028;3.277792;0.659417;-0.4401249;2.767945;-0.1582388;-0.1606704;1.33553;-0.05358251;0;0;0;-0.4401249;2.767945;-0.1582388;-0.1606704;1.33553;-0.05358251;0;0;0
867658.9917;NotLabelled;NONE;16384;0.7653279;0.4168975;0.4598338;0.1703601;-1;-14;-6;2762;-1794;2673;65536;0.7220717;0.2645429;-0.5734072;-0.2825485;-18;-9;-7;2586;-722;-2825;8192;0.6189044;-0.5886427;-0.5152354;0.07063711;19;-11;-50;-808;1337;191;32768;0.5526316;-0.8209851;0.1385041;-0.03739612;-34;-50;120;5043;-435;4048;256;0.2091413;-0.2146814;-0.6592798;-0.689581;20;-7;0;-371;4506;-201;128;-0.09279778;0.2243767;0.6108033;0.7536332;-5;-15;-3;-391;4337;978;4;-0.3144044;0.4196676;-0.5470914;-0.6524722;4;-13;-4;-155;4028;-1134;16;0.6947747;-0.6897507;0.09279778;0.1814404;-5;-23;4;-679;4004;-140;2;0.6244649;-0.6121883;-0.2894737;-0.3891967;9;-25;12;-581;4106;-109;8;0.6301833;-0.6149584;0.333795;0.3365651;-7;-11;5;-139;4083;13;-0.133246;2.808525;-0.1618503;-0.1272609;3.353936;-0.1724482;-0.1220004;3.833313;-0.183786;-0.1242456;4.566636;-0.1574421;-0.3839471;4.893145;-0.1838081;-0.7248057;4.749699;-0.1256905;-1.250074;5.191811;-0.7477517;-0.3810737;5.24839;-0.374342;0.1363944;4.894744;-0.1838827;0.4257581;4.753232;-0.1258547;0.8774403;4.137858;0.4620001;0.5306427;3.277216;0.6538681;-0.4455022;2.766305;-0.1686198;-0.1608707;1.335271;-0.05914517;0;0;0;-0.4455022;2.766305;-0.1686198;-0.1608707;1.335271;-0.05914517;0;0;0
867679.9807;NotLabelled;NONE;16384;0.7634268;0.4182825;0.4612188;0.1717452;-6;-8;-7;2878;-1848;2907;65536;0.7230381;0.2603878;-0.5734072;-0.2839335;-29;-9;-12;2638;-474;-2835;8192;0.6205821;-0.5955678;-0.5055401;0.06786703;43;-64;-55;24;1419;-649;32768;0.5443213;-0.8225363;0.1578947;-0.04709141;-58;-67;136;3247;-199;3740;256;0.2091413;-0.2160665;-0.6578947;-0.6904706;13;-16;2;-231;4428;-287;128;-0.09418282;0.2271468;0.6080332;0.7548705;-18;-24;-7;-423;4207;1238;4;-0.3116343;0.4182825;-0.5484765;-0.6535268;0;-17;0;3;4074;-862;16;0.6931078;-0.6897507;0.09695291;0.1855956;-9;-18;3;-447;3958;-88;2;0.6255959;-0.6149584;-0.2867036;-0.3850415;10;-28;11;-449;4028;-37;8;0.6287052;-0.6149584;0.33518;0.3379501;-7;-7;6;-163;4133;-35;-0.1313636;2.80852;-0.1633825;-0.1253781;3.353961;-0.1723697;-0.1201172;3.833369;-0.182292;-0.1240529;4.566473;-0.1505763;-0.3845025;4.892566;-0.1745803;-0.725036;4.747915;-0.1175559;-1.246231;5.193496;-0.7405666;-0.3766371;5.248436;-0.3682964;0.135834;4.895363;-0.1745813;0.4255167;4.754097;-0.1175572;0.8686745;4.1219;0.4588218;0.4926185;3.271936;0.643025;-0.4436196;2.766322;-0.1702866;-0.1580867;1.335615;-0.05889228;0;0;0;-0.4436196;2.766322;-0.1702866;-0.1580867;1.335615;-0.05889228;0;0;0
867701.0267;NotLabelled;NONE;16384;0.7626663;0.4196676;0.4612188;0.1717452;-15;-1;-10;2968;-1798;2935;65536;0.7234294;0.2562327;-0.5734072;-0.2867036;-42;-2;-9;3272;-558;-2911;8192;0.6135734;-0.6238256;-0.4806094;0.05817174;83;-75;-77;1636;1877;-351;32768;0.5138504;-0.831378;0.199446;-0.07063711;-92;-61;147;2091;1523;3644;256;0.2091413;-0.2174515;-0.6565097;-0.6913536;9;-18;5;-85;4284;-311;128;-0.09695291;0.2313019;0.6052631;0.755484;-22;-29;-13;-525;3991;1264;4;-0.3102493;0.4155124;-0.5484765;-0.6559485;-2;-17;2;27;4036;-784;16;0.6897507;-0.6923421;0.09972299;0.1869806;-9;-10;2;-465;4044;2;2;0.6238271;-0.6191136;-0.2853186;-0.3822715;11;-29;11;-377;4078;-147;8;0.6273474;-0.6163435;0.33518;0.3379501;-6;-4;6;-89;4147;-177;-0.1309907;2.808166;-0.1678685;-0.1250047;3.353653;-0.1733226;-0.1197433;3.833116;-0.1801395;-0.1230511;4.566101;-0.1457466;-0.3832219;4.892504;-0.1685544;-0.7238781;4.747936;-0.1120521;-1.247837;5.192389;-0.7335485;-0.3770555;5.240616;-0.3631297;0.1371168;4.894855;-0.1685553;0.4266794;4.753135;-0.1120532;0.8605265;4.106784;0.4556471;0.4480018;3.272423;0.6329911;-0.4432462;2.766013;-0.1750681;-0.1570562;1.335634;-0.06117896;0;0;0;-0.4432462;2.766013;-0.1750681;-0.1570562;1.335634;-0.06117896;0;0;0
867721.139;NotLabelled;NONE;16384;0.756745;0.4238227;0.468144;0.1689751;-29;17;-16;3168;-1762;2707;65536;0.7272511;0.2465374;-0.567867;-0.2963989;-46;8;12;3672;-336;-3383;8192;0.6094183;-0.6398517;-0.4653739;0.05124654;105;-94;-86;2118;2487;-951;32768;0.4972299;-0.8354442;0.2188366;-0.08310249;-94;-44;146;2531;1881;3310;256;0.2091413;-0.2202216;-0.6551247;-0.6917905;9;-14;9;-137;4104;-271;128;-0.09833795;0.2354571;0.601108;0.7573367;-17;-29;-14;-529;3887;1168;4;-0.3088643;0.4127424;-0.5498615;-0.6571901;-4;-15;4;-83;3966;-644;16;0.6883656;-0.6937192;0.09972299;0.1869806;-9;-4;2;-497;3952;210;2;0.6232687;-0.6257783;-0.2811634;-0.3753462;10;-21;10;-385;4004;-73;8;0.623741;-0.6177285;0.3379501;0.3393352;-7;-10;7;-35;4129;-21;-0.1276935;2.808133;-0.1717885;-0.1217073;3.353642;-0.174035;-0.1164454;3.833137;-0.1780324;-0.1191293;4.565995;-0.1409678;-0.3790225;4.8927;-0.1625816;-0.7198009;4.748218;-0.1066012;-1.243531;5.194038;-0.7273099;-0.3715684;5.233751;-0.3586621;0.1413179;4.894609;-0.1625822;0.4307606;4.752437;-0.1066017;0.8162838;4.068713;0.4521189;0.314634;3.28584;0.6344531;-0.4399485;2.766023;-0.1792559;-0.1502159;1.335968;-0.07037054;0;0;0;-0.4399485;2.766023;-0.1792559;-0.1502159;1.335968;-0.07037054;0;0;0
867742.2246;NotLabelled;NONE;16384;0.754774;0.4238227;0.4722992;0.166205;-31;22;-16;3084;-1730;2463;65536;0.7301692;0.2423823;-0.5637119;-0.300554;-46;5;14;2846;-552;-2777;8192;0.601108;-0.6617586;-0.4459834;0.04293629;134;-119;-95;2756;2687;-1151;32768;0.4806094;-0.8389202;0.2368421;-0.09556787;-81;-44;149;3687;3527;2842;256;0.2091413;-0.2229917;-0.6537396;-0.6922132;8;-15;12;-343;4000;-329;128;-0.09972299;0.2409972;0.5983379;0.7576063;-11;-26;-16;-579;3849;1034;4;-0.3074792;0.4113573;-0.5526316;-0.6563841;-4;-13;2;-335;4032;-774;16;0.6869806;-0.6945165;0.101108;0.1883656;-9;-6;3;-403;4182;350;2;0.6232687;-0.6280503;-0.2797784;-0.3725762;9;-19;11;-433;4088;-217;8;0.623741;-0.6177285;0.3379501;0.3393352;-8;-8;7;-49;4151;-63;-0.1245642;2.810152;-0.1452587;-0.1185779;3.355657;-0.1420926;-0.1133159;3.835167;-0.1413323;-0.1137523;4.56746;-0.09433253;-0.3727971;4.895155;-0.1104413;-0.7137545;4.750882;-0.05501139;-1.252458;5.207831;-0.6544492;-0.3717797;5.225152;-0.3053023;0.1475423;4.895605;-0.1125725;0.4368049;4.751876;-0.05972314;0.7928616;4.038133;0.4807115;0.2485665;3.283562;0.6600239;-0.4368184;2.768118;-0.1531776;-0.1481232;1.336619;-0.06194581;0;0;0;-0.4368184;2.768118;-0.1531776;-0.1481232;1.336619;-0.06194581;0;0;0
867763.0202;NotLabelled;NONE;16384;0.7514983;0.4265928;0.4764543;0.1620499;-31;21;-15;2966;-1824;2269;65536;0.7340603;0.2382271;-0.5581717;-0.3047091;-51;1;7;3096;-394;-2793;8192;0.5900277;-0.6845357;-0.4265928;0.03601108;148;-119;-86;3458;2723;-611;32768;0.4653739;-0.84054;0.2548476;-0.1094183;-75;-45;159;3763;4281;2890;256;0.2091413;-0.2285319;-0.6523545;-0.6917129;1;-18;21;99;3930;-313;128;-0.09972299;0.2506925;0.5941828;0.7577304;-15;-21;-19;-905;3709;1312;4;-0.3060942;0.4099723;-0.5526316;-0.6578962;-1;-15;0;-477;3960;-720;16;0.6855956;-0.6953046;0.1024931;0.1897507;-7;-16;2;-355;4144;470;2;0.6232687;-0.630299;-0.2783934;-0.3698061;7;-17;10;-453;4086;-387;8;0.6216121;-0.6191136;0.3393352;0.3393352;-9;-6;7;73;4109;-19;-0.1151077;2.80951;-0.1818065;-0.1091218;3.354984;-0.1750951;-0.1038599;3.834479;-0.1712184;-0.1023795;4.567052;-0.1288276;-0.3604139;4.895375;-0.148044;-0.702005;4.752428;-0.09308618;-1.237593;5.195289;-0.7057435;-0.3548721;5.209581;-0.3616542;0.1599289;4.894329;-0.148075;0.4485618;4.750112;-0.09315395;0.7540789;4.024365;0.4620271;0.1684974;3.303186;0.6485298;-0.4273612;2.767529;-0.1900205;-0.1459762;1.335901;-0.0799249;0;0;0;-0.4273612;2.767529;-0.1900205;-0.1459762;1.335901;-0.0799249;0;0;0
867784.0515;NotLabelled;NONE;16384;0.7495391;0.4279778;0.4792244;0.1592798;-34;15;-10;2886;-2090;2127;65536;0.7361988;0.232687;-0.5554016;-0.3088643;-51;-4;2;3236;-286;-3055;8192;0.5789474;-0.7050596;-0.4085872;0.02770083;141;-103;-81;3798;3077;225;32768;0.4501385;-0.8406129;0.2742382;-0.1246537;-79;-54;174;3743;4547;3002;256;0.2077562;-0.232687;-0.6523545;-0.6907443;10;-10;27;309;3780;-177;128;-0.09833795;0.2548476;0.5914127;0.7586918;-19;-18;-19;-913;3761;1310;4;-0.301939;0.4085872;-0.5567867;-0.6571742;0;-19;-5;-375;4018;-644;16;0.6828254;-0.6964294;0.1080332;0.1925208;-4;-18;3;-425;4060;360;2;0.6218836;-0.6330822;-0.2770083;-0.368421;6;-17;10;-451;4086;-537;8;0.6177285;-0.6229886;0.3393352;0.3393352;-9;-6;6;43;4027;-23;-0.1150281;2.808906;-0.1865714;-0.1090433;3.354275;-0.1739733;-0.1037823;3.8337;-0.1649218;-0.09730989;4.566088;-0.1198746;-0.3530975;4.896231;-0.1379172;-0.6956605;4.755417;-0.08350074;-1.235873;5.205911;-0.6864567;-0.3502261;5.214972;-0.3497888;0.1672262;4.891636;-0.1379176;0.4548638;4.745256;-0.08350092;0.7110586;3.997069;0.4668226;0.08561349;3.308631;0.6475406;-0.4272806;2.767016;-0.1952751;-0.1437601;1.33585;-0.0846462;0;0;0;-0.4272806;2.767016;-0.1952751;-0.1437601;1.33585;-0.0846462;0;0;0
867804.9846;NotLabelled;NONE;16384;0.7462431;0.432133;0.4819945;0.1551246;-33;15;-3;3012;-2220;1913;65536;0.7388415;0.2271468;-0.5526316;-0.3116343;-45;-3;-1;3034;-152;-2867;8192;0.5623268;-0.7353697;-0.3781163;0.006925208;104;-69;-90;3508;4119;-41;32768;0.4155124;-0.8387899;0.3144044;-0.1578947;-68;-32;187;3311;5267;744;256;0.2036011;-0.2368421;-0.6523545;-0.6905693;17;0;26;643;4042;-325;128;-0.09833795;0.2603878;0.5886427;0.7589648;-21;-18;-18;-947;3705;1378;4;-0.299169;0.4072022;-0.5581717;-0.658125;0;-18;-6;-105;4066;-614;16;0.6814404;-0.6971852;0.1094183;0.1939058;-3;-13;2;-395;4042;178;2;0.6218836;-0.6352888;-0.2756233;-0.365651;5;-16;9;-569;4002;-585;8;0.6163435;-0.6236041;0.3407202;0.3393352;-8;-5;6;155;4029;-51;-0.1004405;2.80997;-0.1997828;-0.094457;3.355225;-0.1829621;-0.08919685;3.834565;-0.1701986;-0.07705851;4.566829;-0.1242984;-0.3302819;4.898963;-0.1419701;-0.6739279;4.760741;-0.08773565;-1.21332;5.208582;-0.693396;-0.3251759;5.208105;-0.3632498;0.1899906;4.890341;-0.1419486;0.4764832;4.741674;-0.08768719;0.6809986;3.981878;0.4683325;0.0161396;3.329581;0.6422834;-0.4126922;2.768149;-0.208837;-0.136082;1.336368;-0.08904293;0;0;0;-0.4126922;2.768149;-0.208837;-0.136082;1.336368;-0.08904293;0;0;0
867825.19;NotLabelled;NONE;16384;0.7443062;0.434903;0.4833795;0.1523546;-29;10;1;2874;-2328;1811;65536;0.7393774;0.2229917;-0.5512465;-0.3157895;-40;5;-8;2738;-450;-2265;8192;0.5554016;-0.7475505;-0.3642659;-0.002770083;96;-47;-85;3590;4121;-115;32768;0.398892;-0.8362922;0.3310249;-0.1786704;-48;-20;191;4057;5089;364;256;0.1980609;-0.2396122;-0.6509695;-0.6925291;30;4;26;639;3946;-161;128;-0.09695291;0.2631579;0.5858725;0.7603298;-23;-14;-16;-973;3929;1194;4;-0.2977839;0.4058172;-0.5595568;-0.6584325;0;-16;-4;111;4110;-638;16;0.6800554;-0.6979318;0.1108033;0.1952908;-4;-10;2;-283;4104;114;2;0.6218836;-0.6388526;-0.2728532;-0.3614958;8;-25;9;-461;3982;-575;8;0.6135734;-0.6248211;0.3421052;0.3407202;-5;-12;3;181;4179;171;-0.09955572;2.809511;-0.2051568;-0.09357372;3.354632;-0.1844377;-0.08831472;3.83387;-0.1682469;-0.06795836;4.565787;-0.1198238;-0.3174313;4.900805;-0.136386;-0.662618;4.766267;-0.08267432;-1.209899;5.220562;-0.676332;-0.3181601;5.212214;-0.3561298;0.2027116;4.886337;-0.1363238;0.4875065;4.734276;-0.08253598;0.6118973;3.947302;0.4591964;-0.1293636;3.380889;0.6250149;-0.4118068;2.767756;-0.2145343;-0.1345569;1.336283;-0.09256056;0;0;0;-0.4118068;2.767756;-0.2145343;-0.1345569;1.336283;-0.09256056;0;0;0
867847.0008;NotLabelled;NONE;16384;0.741335;0.4418283;0.4833795;0.1468144;-11;-1;14;2688;-2698;1543;65536;0.7368304;0.2188366;-0.5498615;-0.3268698;-14;22;-23;3022;456;-2871;8192;0.5498615;-0.7561083;-0.3545706;-0.01523546;82;-18;-81;3314;4429;239;32768;0.3850415;-0.8313285;0.3476454;-0.199446;-31;-31;195;4111;5451;256;256;0.1952908;-0.2437673;-0.6481994;-0.6944613;37;-20;23;287;4082;-537;128;-0.09556787;0.267313;0.5831025;0.7611846;-25;-6;-15;-1161;3977;1098;4;-0.2963989;0.4044321;-0.5609418;-0.6587311;-1;-14;-2;273;4136;-632;16;0.6800554;-0.6973214;0.1121884;0.1966759;-6;-11;1;-267;4064;-4;2;0.6218836;-0.6415853;-0.2700831;-0.3587258;9;-26;9;-175;4112;-365;8;0.6121883;-0.6254195;0.3434903;0.3407202;-5;-11;2;21;4151;137;-0.09715383;2.809655;-0.2070163;-0.0911738;3.354601;-0.1821246;-0.08591633;3.833701;-0.1622655;-0.05837527;4.564966;-0.1079102;-0.3045399;4.902544;-0.1217825;-0.6510423;4.770975;-0.06919885;-1.203964;5.233855;-0.6508768;-0.3089471;5.216393;-0.3403338;0.2154356;4.882963;-0.1217836;0.4987122;4.727678;-0.06920028;0.5894361;3.926748;0.4585827;-0.1866641;3.406646;0.616536;-0.4094042;2.767973;-0.2167394;-0.1334496;1.336187;-0.09550976;0;0;0;-0.4094042;2.767973;-0.2167394;-0.1334496;1.336187;-0.09550976;0;0;0
867867.1657;NotLabelled;NONE;16384;0.7417528;0.4445983;0.4806094;0.1454294;-3;-8;17;2708;-2700;1871;65536;0.7333046;0.2174515;-0.5526316;-0.3310249;-9;13;-34;2760;46;-2485;8192;0.5457063;-0.7625884;-0.3462604;-0.02770083;60;-12;-76;2546;4199;487;32768;0.3725762;-0.8248606;0.3628809;-0.2216066;-21;-46;190;3187;5183;270;256;0.1883656;-0.2506925;-0.6440443;-0.6977668;13;3;20;551;4002;-317;128;-0.09141274;0.2714681;0.5789474;0.7633929;-18;1;-13;-987;3921;1236;4;-0.2963989;0.4016621;-0.5609418;-0.6604238;-2;-10;-1;271;4042;-748;16;0.6786703;-0.6984456;0.1135734;0.1966759;-8;-11;0;-381;4094;-154;2;0.6204986;-0.6458037;-0.2686981;-0.3545706;9;-23;8;127;4180;-291;8;0.6108033;-0.6260174;0.3434903;0.3421052;-4;-3;2;-49;4091;179;-0.09547434;2.80992;-0.2067195;-0.08949655;3.354658;-0.1776115;-0.08424088;3.833589;-0.1540454;-0.05149837;4.564094;-0.09278648;-0.2952387;4.903538;-0.103562;-0.6426945;4.773961;-0.05234432;-1.196517;5.248927;-0.6233235;-0.3005755;5.213871;-0.3169627;0.2245835;4.880242;-0.1035632;0.506721;4.722448;-0.05234617;0.5632418;3.912037;0.465647;-0.2444424;3.436819;0.6056527;-0.4077238;2.768315;-0.2167913;-0.1338496;1.336216;-0.09454138;0;0;0;-0.4077238;2.768315;-0.2167913;-0.1338496;1.336216;-0.09454138;0;0;0
867887.1579;NotLabelled;NONE;16384;0.7427672;0.4473684;0.4764543;0.1454294;-1;-14;24;2776;-2524;2115;65536;0.7297251;0.2160665;-0.5554016;-0.33518;-9;14;-44;2958;112;-2929;8192;0.5443213;-0.7668804;-0.3379501;-0.03739612;39;-26;-76;1958;4553;413;32768;0.3628809;-0.8146847;0.3836565;-0.2396122;-20;-87;164;2203;4753;1266;256;0.1855956;-0.2548476;-0.6426592;-0.6982808;17;-5;19;807;4236;-629;128;-0.08864266;0.2742382;0.5775623;0.7637785;-9;7;-11;-679;4033;1234;4;-0.2963989;0.400277;-0.5609418;-0.6612642;0;3;-1;211;3930;-734;16;0.6772853;-0.699398;0.1135734;0.1980609;-10;6;0;-571;3988;80;2;0.6204986;-0.6478902;-0.267313;-0.3518005;7;-14;8;383;4222;-215;8;0.6108033;-0.6260174;0.3434903;0.3421052;-3;0;2;-17;4145;221;-0.09210283;2.810355;-0.2027023;-0.08612949;3.354687;-0.1668056;-0.08087742;3.833287;-0.1372707;-0.03703599;4.562119;-0.06416207;-0.2755504;4.905381;-0.0696145;-0.6249954;4.78032;-0.02075529;-1.174848;5.261425;-0.5904299;-0.2812946;5.216915;-0.2783752;0.2438549;4.874141;-0.06961519;0.5234983;4.711241;-0.02075595;0.5506135;3.892052;0.4856713;-0.2853684;3.462033;0.6040159;-0.4043509;2.768878;-0.2133346;-0.1294786;1.336403;-0.09792001;0;0;0;-0.4043509;2.768878;-0.2133346;-0.1294786;1.336403;-0.09792001;0;0;0
867908.5086;NotLabelled;NONE;16384;0.7440162;0.4501385;0.4722992;0.1440443;1;-13;32;2784;-2552;2053;65536;0.7239529;0.2146814;-0.5609418;-0.3393352;3;22;-50;2954;534;-3403;8192;0.5484765;-0.7714059;-0.3185596;-0.05124654;2;-29;-58;2944;4589;-83;32768;0.3545706;-0.7964001;0.4141274;-0.2617728;5;-37;104;177;4251;1448;256;0.1814404;-0.2576177;-0.6412742;-0.6996284;7;0;20;891;4124;-239;128;-0.08587258;0.2742382;0.5775623;0.7640949;-7;12;-9;-979;3849;1106;4;-0.2977839;0.4016621;-0.5609418;-0.6598004;1;12;-2;187;3944;-706;16;0.6772853;-0.6996215;0.1121884;0.1980609;-10;13;-2;-385;3942;192;2;0.6204986;-0.6480678;-0.2686981;-0.3504155;5;-4;7;331;4242;-237;8;0.6108033;-0.6260174;0.3434903;0.3421052;-2;0;1;99;4119;231;-0.09271186;2.810036;-0.2051186;-0.08674051;3.354185;-0.1665456;-0.08149015;3.832634;-0.1346578;-0.03162432;4.560645;-0.05734995;-0.2672654;4.90591;-0.06098646;-0.6177737;4.78349;-0.01306301;-1.158773;5.26755;-0.5886797;-0.2682598;5.213539;-0.2695149;0.2518613;4.870339;-0.06084052;0.5301042;4.704836;-0.0127396;0.5333523;3.879777;0.4847958;-0.32668;3.493724;0.5801592;-0.4049594;2.768612;-0.2159715;-0.1298726;1.335959;-0.103312;0;0;0;-0.4049594;2.768612;-0.2159715;-0.1298726;1.335959;-0.103312;0;0;0
867928.9824;NotLabelled;NONE;16384;0.7492678;0.4529086;0.4612188;0.1440443;8;-19;39;2412;-2182;2333;65536;0.7137024;0.2160665;-0.5692521;-0.3462604;15;33;-36;3514;680;-2845;8192;0.5498615;-0.7722995;-0.3130194;-0.0567867;-2;2;-39;3206;4403;-147;32768;0.3518005;-0.7943802;0.4141274;-0.2714681;1;21;80;801;2731;2634;256;0.1772853;-0.2603878;-0.6426592;-0.6983961;3;14;20;697;4084;-267;128;-0.08171745;0.2728532;0.5831025;0.7608317;35;51;-4;-1247;3637;-730;4;-0.299169;0.4030471;-0.5595568;-0.6595052;0;20;-4;105;3940;-736;16;0.6759003;-0.7015697;0.1108033;0.1966759;-10;15;-2;-265;4032;366;2;0.6177285;-0.6497233;-0.2728532;-0.3490305;0;15;4;159;4164;-323;8;0.6108033;-0.6275293;0.3421052;0.3407202;-1;8;0;-47;4083;79;-0.0921395;2.810117;-0.207916;-0.08616871;3.354215;-0.16863;-0.0809188;3.832623;-0.1361152;-0.02512429;4.559666;-0.05390844;-0.2579321;4.906863;-0.05528915;-0.6094451;4.786997;-0.008281291;-1.147961;5.280315;-0.5783393;-0.2614403;5.214105;-0.2504788;0.2608861;4.867046;-0.05524492;0.5377505;4.698954;-0.008182585;0.5192589;3.854049;0.4544932;-0.3666487;3.524334;0.5196304;-0.4043867;2.768708;-0.2188277;-0.132138;1.335629;-0.1047099;0;0;0;-0.4043867;2.768708;-0.2188277;-0.132138;1.335629;-0.1047099;0;0;0
867948.9896;NotLabelled;NONE;16384;0.7512379;0.4542936;0.4570637;0.1426593;4;-13;38;2576;-2116;2579;65536;0.7097065;0.2174515;-0.5720221;-0.3490305;6;23;-29;3250;526;-2431;8192;0.5526316;-0.7700021;-0.3130194;-0.06094183;-7;16;-20;2914;4077;-113;32768;0.3462604;-0.7970526;0.4099723;-0.2770083;-4;15;42;1107;2173;3186;256;0.1731302;-0.2603878;-0.6426592;-0.6994378;25;34;15;725;4034;-173;128;-0.07894737;0.2714681;0.5817174;0.7626777;27;0;-6;-845;4775;2522;4;-0.301939;0.4058172;-0.5581717;-0.6577154;1;26;-7;-131;4012;-820;16;0.6745152;-0.7037184;0.1080332;0.1952908;-10;13;-2;-357;4144;534;2;0.6163435;-0.6491237;-0.2756233;-0.3504155;-1;24;1;-1;4124;-305;8;0.6108033;-0.6282824;0.3407202;0.3407202;0;11;0;31;4109;125;-0.09145705;2.80971;-0.2136338;-0.08548164;3.354233;-0.1807558;-0.08022794;3.832989;-0.1538752;-0.01674826;4.559442;-0.07202592;-0.2458768;4.909079;-0.07354544;-0.5986301;4.792953;-0.02643651;-1.120115;5.298206;-0.6018515;-0.2410857;5.216885;-0.2576263;0.2724921;4.863785;-0.07354575;0.5475721;4.692801;-0.02643645;0.5205303;3.841489;0.4239108;-0.3708558;3.52491;0.4786496;-0.4037057;2.768175;-0.2240171;-0.1295143;1.335413;-0.1105718;0;0;0;-0.4037057;2.768175;-0.2240171;-0.1295143;1.335413;-0.1105718;0;0;0
867968.9958;NotLabelled;NONE;16384;0.7548413;0.4542936;0.4515235;0.1412742;-1;-6;36;2226;-2264;2693;65536;0.7053997;0.2174515;-0.5747922;-0.3531856;-6;14;-27;2958;604;-2289;8192;0.5540166;-0.7683299;-0.3144044;-0.06232687;-16;3;-9;2860;3905;-719;32768;0.3448753;-0.7966855;0.4099723;-0.2797784;0;2;3;1043;1353;2700;256;0.1606648;-0.2576177;-0.6398892;-0.7059474;25;16;12;87;3966;-1377;128;-0.07617728;0.2700831;0.5803324;0.7645041;-9;5;-4;-589;3725;1140;4;-0.3033241;0.4085872;-0.5567867;-0.656536;2;29;-9;-453;3954;-862;16;0.6745152;-0.7043124;0.1066482;0.1939058;-9;10;-1;-503;4106;428;2;0.6149584;-0.6485057;-0.2783934;-0.3518005;-3;30;2;-189;4084;-315;8;0.6108033;-0.6297798;0.3393352;0.3393352;0;12;1;59;4107;161;-0.09080883;2.809197;-0.2203256;-0.08483513;3.353565;-0.1849831;-0.07958278;3.832195;-0.1559356;-0.01215679;4.558043;-0.07189993;-0.2393708;4.908929;-0.07243468;-0.5927665;4.794594;-0.02576488;-1.111451;5.305711;-0.5985253;-0.2335196;5.219797;-0.2526176;0.2787428;4.860804;-0.07243514;0.5528711;4.688178;-0.02576512;0.5295085;3.832655;0.4167375;-0.3646381;3.524829;0.4761767;-0.4030569;2.767709;-0.2309123;-0.1295011;1.334829;-0.1174247;0;0;0;-0.4030569;2.767709;-0.2309123;-0.1295011;1.334829;-0.1174247;0;0;0
867988.9931;NotLabelled;NONE;16384;0.7569908;0.4556787;0.4473684;0.1385041;-8;-1;31;2098;-2104;2603;65536;0.7037306;0.2160665;-0.5747922;-0.3573407;-15;14;-22;2732;626;-2183;8192;0.5554016;-0.7672155;-0.3144044;-0.06371191;-9;18;-4;2716;3599;-1255;32768;0.3448753;-0.7983633;0.4085872;-0.2770083;5;4;-23;757;391;2582;256;0.1592798;-0.2590028;-0.6371191;-0.7082561;26;9;7;241;4000;-541;128;-0.07617728;0.2714681;0.5817174;0.7629593;7;-5;-6;-703;3775;1250;4;-0.3047091;0.4155124;-0.5540166;-0.6538864;3;21;-9;-741;4034;-968;16;0.6731302;-0.7066305;0.1024931;0.1925208;-6;6;0;-479;4022;364;2;0.6135734;-0.6465089;-0.2825485;-0.3545706;-4;31;5;-443;4054;-351;8;0.6121883;-0.6291794;0.3393352;0.3379501;0;10;0;87;4175;171;-0.09603353;2.808618;-0.2163607;-0.0900616;3.352821;-0.1785702;-0.08481076;3.831316;-0.1473702;-0.009979406;4.555017;-0.05186782;-0.2335325;4.908216;-0.04723261;-0.5881729;4.796853;-0.002875686;-1.108533;5.313627;-0.5690018;-0.2264328;5.219581;-0.2360571;0.2840523;4.854701;-0.04723299;0.5562954;4.678519;-0.002875805;0.5444004;3.821705;0.4375825;-0.3500721;3.518365;0.5130215;-0.4082812;2.767179;-0.2271492;-0.1312485;1.334782;-0.1160123;0;0;0;-0.4082812;2.767179;-0.2271492;-0.1312485;1.334782;-0.1160123;0;0;0
868010.2334;NotLabelled;NONE;16384;0.7585351;0.4570637;0.4445983;0.134349;-14;3;26;2070;-2272;2391;65536;0.7013168;0.2132964;-0.5761772;-0.3614958;-10;28;-15;2664;1542;-3093;8192;0.5526316;-0.7658654;-0.3213296;-0.06925207;10;29;8;1706;3377;-785;32768;0.3531856;-0.8020037;0.4016621;-0.265928;9;-11;-60;3457;1113;2368;256;0.1551246;-0.2590028;-0.6357341;-0.7104197;23;24;4;425;4032;-439;128;-0.07617728;0.2714681;0.5831025;0.7619013;7;9;-6;-893;4045;758;4;-0.3047091;0.4182825;-0.5526316;-0.653292;2;9;-8;-771;3994;-976;16;0.6717451;-0.7077454;0.1038781;0.1925208;-5;-3;0;-481;4060;268;2;0.6121883;-0.6458439;-0.2853186;-0.3559557;-3;26;7;-783;4014;-365;8;0.6121883;-0.6306656;0.3379501;0.3365651;0;8;0;71;4137;133;-0.1015226;2.80589;-0.2380367;-0.09554935;3.350215;-0.2020346;-0.09029736;3.828809;-0.1724072;-0.01441589;4.551599;-0.07101528;-0.2374205;4.9051;-0.06372099;-0.5922716;4.793939;-0.02055806;-1.104263;5.317852;-0.5877527;-0.2226079;5.216744;-0.2557014;0.2800797;4.850774;-0.06372139;0.5520095;4.673813;-0.0205583;0.5404813;3.815289;0.416565;-0.3522723;3.507973;0.4961628;-0.4137706;2.764415;-0.2486777;-0.1327894;1.333805;-0.1251333;0;0;0;-0.4137706;2.764415;-0.2486777;-0.1327894;1.333805;-0.1251333;0;0;0
868031.1213;NotLabelled;NONE;16384;0.7591683;0.4612188;0.4404432;0.1301939;-13;-12;14;1826;-2580;2117;65536;0.6958081;0.2146814;-0.5761772;-0.3711911;0;33;-5;3214;1174;-2521;8192;0.5498615;-0.7653881;-0.3268698;-0.07063711;11;31;21;1820;3445;-481;32768;0.3573407;-0.8038099;0.398892;-0.2590028;2;12;-43;4355;1883;1896;256;0.1523546;-0.2576177;-0.6357341;-0.7115219;4;18;10;397;3930;-605;128;-0.0734072;0.2700831;0.5831025;0.7626651;-5;19;-3;-687;4011;1664;4;-0.3033241;0.4196676;-0.5540166;-0.6518736;0;-2;-7;-619;3990;-838;16;0.6717451;-0.7073672;0.1038781;0.1939058;-5;-3;0;-499;3958;352;2;0.6108033;-0.645777;-0.2867036;-0.3573407;5;-2;11;-899;4044;-393;8;0.6135734;-0.6293182;0.3379501;0.3365651;1;-3;0;35;4079;55;-0.1022829;2.804883;-0.2442746;-0.09630836;3.349328;-0.2101276;-0.09105532;3.828021;-0.1821312;-0.01194121;4.54981;-0.07618537;-0.2333473;4.904264;-0.06674702;-0.5887127;4.794442;-0.02439642;-1.10118;5.327653;-0.5824212;-0.2189136;5.216402;-0.2552733;0.2839018;4.847599;-0.06692082;0.5550133;4.669142;-0.02478004;0.5440258;3.810371;0.4118749;-0.3376913;3.475977;0.504301;-0.4145313;2.763373;-0.2547626;-0.1293713;1.333904;-0.1276318;0;0;0;-0.4145313;2.763373;-0.2547626;-0.1293713;1.333904;-0.1276318;0;0;0
868051.9845;NotLabelled;NONE;16384;0.7593186;0.4639889;0.4376731;0.1288089;-9;-7;11;2238;-2562;2027;65536;0.6938617;0.2174515;-0.5747922;-0.3753462;2;28;-3;3246;934;-2265;8192;0.5484765;-0.7641213;-0.33241;-0.06925207;-1;22;25;2268;3697;-135;32768;0.3587258;-0.8074793;0.3919668;-0.2562327;8;36;-38;3593;2897;1236;256;0.1495845;-0.2576177;-0.6357341;-0.7121094;15;23;7;673;4216;-401;128;-0.07063711;0.2700831;0.5817174;0.7639832;-21;15;-4;-935;3893;1532;4;-0.301939;0.4196676;-0.5554016;-0.6513379;-1;-7;-7;-381;4018;-744;16;0.6703601;-0.7086799;0.1038781;0.1939058;-4;-1;0;-409;4062;488;2;0.6108033;-0.6465415;-0.2867036;-0.3559557;6;-12;10;-597;4004;-253;8;0.6135734;-0.6300569;0.3379501;0.33518;0;-1;0;-17;4113;-27;-0.1036543;2.804458;-0.2497049;-0.09768011;3.348866;-0.2149777;-0.09242739;3.827529;-0.1864712;-0.01203426;4.548984;-0.0792191;-0.2327893;4.90383;-0.06927635;-0.5883797;4.794591;-0.02730548;-1.094552;5.3367;-0.5824967;-0.212048;5.214463;-0.2599401;0.2843543;4.846207;-0.06927699;0.5551128;4.667175;-0.02730626;0.5428233;3.812883;0.4180126;-0.3322001;3.464321;0.5210926;-0.4159027;2.762959;-0.2602407;-0.1329046;1.333607;-0.1271;0;0;0;-0.4159027;2.762959;-0.2602407;-0.1329046;1.333607;-0.1271;0;0;0
868073.0146;NotLabelled;NONE;16384;0.7587045;0.4653739;0.4376731;0.1274238;-6;-1;5;2150;-2516;2025;65536;0.6919194;0.2188366;-0.5747922;-0.3781163;2;24;0;3028;676;-1967;8192;0.5484765;-0.7618119;-0.3379501;-0.06786703;-11;21;26;2802;4459;1;32768;0.3601108;-0.8097401;0.3878116;-0.2534626;9;11;-29;4813;3131;1608;256;0.1412742;-0.2548476;-0.6371191;-0.713564;8;17;7;339;4062;-747;128;-0.06509695;0.2686981;0.5803324;0.7660144;-7;11;0;-705;3699;930;4;-0.300554;0.4196676;-0.5567867;-0.6507956;-2;-8;-9;-271;4054;-724;16;0.6703601;-0.7086799;0.1038781;0.1939058;-3;0;0;-387;4192;486;2;0.6108033;-0.6479138;-0.2853186;-0.3545706;4;-12;10;-347;4064;-217;8;0.6135734;-0.6300569;0.3379501;0.33518;0;-4;1;41;4075;-25;-0.1003295;2.804211;-0.2568589;-0.09435717;3.348454;-0.2196428;-0.08910596;3.826982;-0.1889479;-0.006052595;4.547937;-0.08037455;-0.2254681;4.903601;-0.06995685;-0.5814983;4.795637;-0.02841705;-1.087704;5.341041;-0.5803396;-0.2040038;5.218104;-0.2613472;0.2914532;4.844018;-0.06971097;0.5615028;4.663888;-0.0278728;0.5561076;3.815181;0.4281344;-0.3140018;3.456558;0.5380747;-0.4125773;2.76276;-0.2676001;-0.1313836;1.333339;-0.1314254;0;0;0;-0.4125773;2.76276;-0.2676001;-0.1313836;1.333339;-0.1314254;0;0;0
868093.194;NotLabelled;NONE;16384;0.7586514;0.466759;0.4362881;0.1274238;-3;-3;3;2122;-2302;2069;65536;0.6906666;0.2216066;-0.5734072;-0.3808864;3;25;2;2814;876;-2365;8192;0.5498615;-0.7558534;-0.3504155;-0.05955679;-34;32;51;3350;4485;-161;32768;0.3711911;-0.8075755;0.3836565;-0.2506925;41;-6;-16;4739;3367;1876;256;0.1398892;-0.2548476;-0.6357341;-0.7150705;16;13;2;477;3834;-437;128;-0.06371191;0.267313;0.5803324;0.7666152;0;15;0;-825;3809;1424;4;-0.2977839;0.4210526;-0.5581717;-0.6499875;2;0;-9;-257;4086;-704;16;0.6689751;-0.7097835;0.1052632;0.1939058;-3;-4;1;-351;4060;228;2;0.6108033;-0.6486698;-0.2853186;-0.3531856;3;-6;10;-227;4210;-329;8;0.6135734;-0.6300569;0.3379501;0.33518;0;-3;0;63;4101;-25;-0.1023893;2.804207;-0.2539581;-0.09641925;3.348235;-0.2137278;-0.09116998;3.826585;-0.1803827;-0.001837432;4.546632;-0.07076871;-0.2181581;4.904168;-0.05975804;-0.5750987;4.799234;-0.01826918;-1.088782;5.349706;-0.5581189;-0.2007106;5.224768;-0.2523153;0.2982272;4.840106;-0.05975825;0.5667173;4.657579;-0.01826894;0.5740077;3.809383;0.4386582;-0.2905172;3.443045;0.5658609;-0.4146363;2.762816;-0.2649477;-0.1334661;1.333339;-0.1293099;0;0;0;-0.4146363;2.762816;-0.2649477;-0.1334661;1.333339;-0.1293099;0;0;0
868113.9863;NotLabelled;NONE;16384;0.7588827;0.466759;0.4362881;0.1260388;-2;0;2;1966;-2458;2181;65536;0.6898355;0.2229917;-0.5720221;-0.3836565;-5;23;-3;2714;516;-1979;8192;0.5512465;-0.7506861;-0.3601108;-0.05401662;-57;51;54;3584;4717;375;32768;0.3767313;-0.8063203;0.3808864;-0.2506925;42;7;-24;3109;2677;1476;256;0.1385041;-0.2548476;-0.6357341;-0.7153401;10;11;3;407;3858;-457;128;-0.06232687;0.267313;0.5775623;0.7688178;-34;4;-3;-851;3725;1458;4;-0.2977839;0.4210526;-0.5581717;-0.6499875;2;0;-6;-261;4128;-704;16;0.6689751;-0.7094036;0.1052632;0.1952908;-5;-7;0;-421;4024;86;2;0.6094183;-0.6501129;-0.2867036;-0.3518005;2;0;10;-215;4104;-377;8;0.6135734;-0.6300569;0.3379501;0.33518;-1;-2;1;21;4101;29;-0.09861144;2.803393;-0.265965;-0.0926416;3.347405;-0.2255064;-0.08739251;3.825741;-0.1919605;0.002495565;4.545225;-0.07915158;-0.2135255;4.902894;-0.0666953;-0.5705783;4.798085;-0.02585906;-1.0835;5.350788;-0.5641529;-0.1945816;5.226939;-0.260372;0.3028048;4.83839;-0.06669566;0.5711161;4.655455;-0.02585924;0.6019312;3.81547;0.4450445;-0.2553944;3.429643;0.5630178;-0.4108585;2.762007;-0.2769733;-0.1296604;1.333407;-0.1324424;0;0;0;-0.4108585;2.762007;-0.2769733;-0.1296604;1.333407;-0.1324424;0;0;0
868134.9762;NotLabelled;NONE;16384;0.7588246;0.468144;0.434903;0.1260388;-6;-6;2;2116;-2396;2199;65536;0.6875082;0.2229917;-0.5720221;-0.3878116;-4;11;3;3536;882;-2535;8192;0.5554016;-0.7416804;-0.3725762;-0.05124654;-57;76;51;2520;4691;335;32768;0.3850415;-0.805849;0.3753462;-0.2479224;45;24;-41;2491;3835;622;256;0.1371191;-0.2548476;-0.632964;-0.7180582;21;3;0;435;4082;-507;128;-0.06094183;0.267313;0.5747922;0.7710018;-21;-3;-4;-873;3803;1226;4;-0.2963989;0.4210526;-0.5581717;-0.6506202;0;-3;-3;-33;4110;-764;16;0.66759;-0.7105007;0.1066482;0.1952908;-7;-3;0;-401;3976;48;2;0.6080332;-0.6528969;-0.2867036;-0.3490305;5;-6;10;-363;4048;-439;8;0.6135734;-0.6300569;0.3379501;0.33518;-1;0;1;117;4025;-29;-0.1019519;2.803019;-0.2650141;-0.09598552;3.346719;-0.2205524;-0.09073929;3.824795;-0.1834867;0.0005190633;4.544012;-0.07008006;-0.2148158;4.902085;-0.0573533;-0.5720735;4.79793;-0.01663917;-1.085089;5.351952;-0.5534849;-0.19508;5.227562;-0.2531389;0.3013898;4.83659;-0.05735365;0.5693449;4.653106;-0.01663941;0.6185302;3.81928;0.463559;-0.2355213;3.424554;0.5756955;-0.414198;2.761715;-0.2763521;-0.1327408;1.333115;-0.1323262;0;0;0;-0.414198;2.761715;-0.2763521;-0.1327408;1.333115;-0.1323262;0;0;0
868154.9745;NotLabelled;NONE;16384;0.7587613;0.4695291;0.433518;0.1260388;-10;-7;-4;2516;-2424;2411;65536;0.6878764;0.2229917;-0.5706371;-0.3891967;-7;0;7;3834;818;-2827;8192;0.5595568;-0.7332222;-0.3836565;-0.04570637;-74;44;60;2482;4791;-47;32768;0.3933518;-0.8077654;0.3642659;-0.2451524;67;39;-68;2379;4127;-198;256;0.1371191;-0.2548476;-0.6315789;-0.7192768;24;-1;-2;339;4354;-703;128;-0.06094183;0.2686981;0.5706371;0.7736024;-29;-7;-2;-831;4045;1708;4;-0.2963989;0.4210526;-0.5581717;-0.6506202;1;1;0;-11;3956;-792;16;0.66759;-0.7105007;0.1066482;0.1952908;-10;-1;-2;-459;3984;78;2;0.6080332;-0.6528969;-0.2867036;-0.3490305;7;-10;7;-289;4066;-435;8;0.6121883;-0.6314028;0.3379501;0.33518;-3;-2;0;77;4153;-45;-0.1008996;2.802316;-0.2691249;-0.09493691;3.345675;-0.2206738;-0.0896938;3.823466;-0.1801001;0.001320919;4.541782;-0.06093221;-0.2140914;4.899707;-0.04559663;-0.5713707;4.795172;-0.006062925;-1.084267;5.351416;-0.5407204;-0.1944883;5.221538;-0.2420194;0.3021257;4.834303;-0.04559717;0.5700732;4.65055;-0.006063461;0.642522;3.820957;0.4785002;-0.2041764;3.409275;0.5853025;-0.4131448;2.761097;-0.2807907;-0.1289365;1.33317;-0.1354988;0;0;0;-0.4131448;2.761097;-0.2807907;-0.1289365;1.33317;-0.1354988;0;0;0
868174.9897;NotLabelled;NONE;16384;0.7571086;0.4709141;0.434903;0.1260388;-11;-1;-2;2238;-2546;2295;65536;0.6898035;0.2229917;-0.5692521;-0.3878116;-3;-3;11;3448;672;-2857;8192;0.5637119;-0.7237489;-0.3961219;-0.03878116;-76;73;64;3828;4369;891;32768;0.4072022;-0.8076776;0.3518005;-0.2409972;96;38;-95;2299;3923;-608;256;0.1357341;-0.2548476;-0.6246537;-0.7255596;14;13;-11;499;4314;-615;128;-0.05955679;0.2686981;0.566482;0.7767577;-33;4;2;-1103;3831;1810;4;-0.2977839;0.4210526;-0.5567867;-0.6511743;0;7;1;-61;4040;-752;16;0.666205;-0.7116243;0.1052632;0.1966759;-11;2;-2;-535;4198;186;2;0.6066482;-0.6555257;-0.2853186;-0.3476454;7;-10;4;-107;4122;-373;8;0.6121883;-0.6314028;0.3379501;0.33518;-3;0;0;11;4031;-13;-0.1008705;2.804939;-0.2402627;-0.09491364;3.34777;-0.1862177;-0.08967532;3.825119;-0.1407251;0.0005434812;4.541812;-0.01160283;-0.2152497;4.899266;0.008601218;-0.5724331;4.79382;0.04655439;-1.083963;5.359079;-0.4798955;-0.1932751;5.225838;-0.1854132;0.3010358;4.834407;0.007886082;0.569162;4.650404;0.04497361;0.6659485;3.820307;0.5243974;-0.1707291;3.386365;0.6216207;-0.4131144;2.763842;-0.2523877;-0.1289219;1.334495;-0.1217766;0;0;0;-0.4131144;2.763842;-0.2523877;-0.1289219;1.334495;-0.1217766;0;0;0
868218.0017;NotLabelled;NONE;16384;0.7556084;0.4736842;0.434903;0.1246537;-16;-2;0;2452;-2474;2297;65536;0.6931161;0.2243767;-0.5637119;-0.3891967;-10;11;11;2660;284;-1837;8192;0.5817174;-0.6832047;-0.4404432;-0.02908587;-92;87;36;1348;3907;217;32768;0.468144;-0.8077762;0.2908587;-0.2091413;123;17;-202;735;2631;1412;256;0.1385041;-0.2520775;-0.6218836;-0.7283778;14;1;-16;633;3894;-919;128;-0.0567867;0.2645429;0.567867;0.7773798;-11;15;9;-1805;3117;1136;4;-0.301939;0.4238227;-0.5540166;-0.6498252;0;7;4;-455;3912;-1132;16;0.6634349;-0.7144103;0.1038781;0.1966759;-12;4;-1;-691;3966;422;2;0.6066482;-0.6575871;-0.2839335;-0.3448753;4;2;0;181;4236;-331;8;0.6121883;-0.6328746;0.3365651;0.333795;-4;6;2;75;4123;-7;-0.1064405;2.801064;-0.270237;-0.1004903;3.343288;-0.2104048;-0.09525766;3.820123;-0.1598229;-0.007684683;4.53604;-0.02470787;-0.2246906;4.892617;-0.002138555;-0.5816169;4.78571;0.03410649;-1.096367;5.344355;-0.4962499;-0.2041129;5.217484;-0.2037028;0.291804;4.829442;-0.002139121;0.5604407;4.646017;0.03410566;0.6838138;3.831048;0.5329846;-0.1380338;3.368436;0.6243294;-0.418683;2.760099;-0.282836;-0.1322486;1.3322;-0.1417027;0;0;0;-0.418683;2.760099;-0.282836;-0.1322486;1.3322;-0.1417027;0;0;0
868259.0389;NotLabelled;NONE;16384;0.7517586;0.4792244;0.4362881;0.1218837;-11;1;3;2402;-2612;2067;65536;0.6946809;0.2202216;-0.5595568;-0.3947368;-9;1;-1;3230;774;-2787;8192;0.601108;-0.6541196;-0.4584487;-0.02493075;-102;59;26;1884;3263;605;32768;0.5152354;-0.8026552;0.2465374;-0.1717452;132;75;-182;5165;4181;-78;256;0.1412742;-0.2493075;-0.6218836;-0.7287991;0;-2;-13;715;4050;-477;128;-0.05540166;0.265928;0.5609418;0.7820213;-28;-6;10;-949;3727;1780;4;-0.3033241;0.4252077;-0.5526316;-0.6494546;-1;10;0;-485;3736;-1146;16;0.6606648;-0.7173687;0.101108;0.1966759;-9;5;0;-757;3966;586;2;0.6052631;-0.6555945;-0.2880886;-0.3476454;0;11;-5;121;4180;-213;8;0.6121883;-0.6357899;0.333795;0.3310249;-1;4;3;-3;4195;423;-0.1057771;2.800135;-0.2787944;-0.09982515;3.342519;-0.2204348;-0.09459106;3.819491;-0.1711479;-0.01406491;4.535503;-0.03220949;-0.2345417;4.889829;-0.007903114;-0.5904329;4.779268;0.02754867;-1.106655;5.341601;-0.4974515;-0.2101601;5.220541;-0.2156042;0.2825428;4.831679;-0.007903576;0.552929;4.650687;0.02754807;0.7639023;3.860582;0.5369602;0.03443989;3.259221;0.6004869;-0.4180199;2.759136;-0.2912731;-0.1309295;1.331136;-0.1525186;0;0;0;-0.4180199;2.759136;-0.2912731;-0.1309295;1.331136;-0.1525186;0;0;0
868280.1252;NotLabelled;NONE;16384;0.7510974;0.4806094;0.4362881;0.1204986;-9;0;2;2502;-2556;1867;65536;0.6950066;0.2202216;-0.5581717;-0.3961219;1;8;2;3466;744;-2997;8192;0.6094183;-0.6394994;-0.468144;-0.02216066;-104;84;22;2260;3455;345;32768;0.5373961;-0.797951;0.2216066;-0.1592798;154;64;-164;5183;3273;410;256;0.1412742;-0.2423823;-0.6232687;-0.7299511;5;2;-21;305;4396;-1363;128;-0.05540166;0.2617728;0.5581717;0.7853979;2;4;7;-689;3841;1174;4;-0.3033241;0.4265928;-0.5512465;-0.6497233;0;12;-1;-575;3790;-1024;16;0.6592798;-0.7188352;0.09972299;0.1966759;-6;6;1;-757;4004;706;2;0.6052631;-0.6548582;-0.2880886;-0.3490305;-1;12;-4;29;4068;-235;8;0.6121883;-0.6365151;0.33241;0.3310249;0;0;3;19;4097;419;-0.107864;2.798091;-0.2902828;-0.1019241;3.339373;-0.222449;-0.09670015;3.815409;-0.1648304;-0.02185039;4.532257;-0.0270279;-0.2450636;4.884929;-0.003659472;-0.6001508;4.771712;0.03147167;-1.120353;5.331236;-0.4926001;-0.2211528;5.202562;-0.2230085;0.2724497;4.830732;-0.00281167;0.5441591;4.651874;0.03334677;0.8154169;3.881107;0.5438482;0.1829281;3.177626;0.5973184;-0.4201043;2.757318;-0.303536;-0.1315657;1.329603;-0.1648436;0;0;0;-0.4201043;2.757318;-0.303536;-0.1315657;1.329603;-0.1648436;0;0;0
868301.0326;NotLabelled;NONE;16384;0.7504305;0.4819945;0.4362881;0.1191136;-6;-4;3;2320;-2618;2015;65536;0.6945662;0.2216066;-0.5581717;-0.3961219;3;9;3;3004;666;-2225;8192;0.6275095;-0.6052631;-0.4889196;-0.02908587;-91;130;-8;1500;3497;113;32768;0.5831025;-0.780811;0.1731302;-0.1426593;158;15;-131;5665;2333;2140;256;0.1454294;-0.2437673;-0.6177285;-0.7333753;45;-33;-24;301;4184;-1395;128;-0.05540166;0.2603878;0.5581717;0.7858582;5;0;7;-505;3773;1630;4;-0.3033241;0.4293629;-0.5512465;-0.6478961;2;5;-3;-801;4012;-894;16;0.6578947;-0.7201031;0.09972299;0.1966759;-1;-6;2;-445;4094;658;2;0.6052631;-0.6535063;-0.2894737;-0.3504155;1;6;-1;-121;4128;-241;8;0.6108033;-0.6378444;0.33241;0.3310249;0;-3;3;85;4119;351;-0.1163293;2.796233;-0.2919503;-0.1103942;3.337078;-0.2207255;-0.1051744;3.812744;-0.1601244;-0.03600971;4.530691;-0.02510232;-0.2620988;4.881581;-0.002575547;-0.6161624;4.765551;0.03368825;-1.143628;5.336608;-0.4702992;-0.2401823;5.20764;-0.2154433;0.2558476;4.831687;-0.002575547;0.5291054;4.655225;0.03368884;0.8368466;3.88424;0.5227218;0.2544617;3.138494;0.5725082;-0.4285687;2.755543;-0.3054805;-0.1341457;1.328797;-0.1692002;0;0;0;-0.4285687;2.755543;-0.3054805;-0.1341457;1.328797;-0.1692002;0;0;0
868322.0087;NotLabelled;NONE;16384;0.7503436;0.4833795;0.434903;0.1191136;-7;-11;4;2104;-2644;2085;65536;0.6948866;0.2216066;-0.5567867;-0.3975069;-1;5;2;3074;764;-1607;8192;0.6353613;-0.5886427;-0.4986149;-0.03462604;-75;96;-24;196;2329;307;32768;0.6038781;-0.7697842;0.1606648;-0.1301939;143;-34;-108;6413;2069;3030;256;0.1495845;-0.2451524;-0.6121883;-0.7367159;30;-26;-18;77;3672;-217;128;-0.05817174;0.2603878;0.5595568;0.7846722;10;-12;9;-431;3839;1716;4;-0.301939;0.4307479;-0.5512465;-0.6476236;0;0;-3;-685;4028;-904;16;0.6578947;-0.7195301;0.101108;0.1980609;0;-3;3;-493;3926;566;2;0.6052631;-0.652891;-0.2908587;-0.3504155;0;5;1;-145;4160;-227;8;0.6108033;-0.6371207;0.333795;0.3310249;2;-4;3;79;4127;213;-0.1108105;2.795311;-0.3075885;-0.1048753;3.336166;-0.2364389;-0.09965538;3.811841;-0.175904;-0.03642764;4.52873;-0.03260835;-0.2653659;4.877506;-0.006321222;-0.6185172;4.758216;0.02822393;-1.141672;5.331727;-0.4774677;-0.240479;5.204399;-0.2139597;0.2529663;4.831794;-0.006321132;0.5276036;4.657137;0.02822489;0.884003;3.897511;0.5017452;0.4024524;3.081507;0.5076472;-0.4230499;2.754619;-0.3211125;-0.1309894;1.328363;-0.1749884;0;0;0;-0.4230499;2.754619;-0.3211125;-0.1309894;1.328363;-0.1749884;0;0;0
868364.0774;NotLabelled;NONE;16384;0.7484224;0.4847645;0.4362881;0.1204986;1;1;-19;2202;-2342;1923;65536;0.6970971;0.2216066;-0.5540166;-0.3975069;3;-4;18;3466;1012;-2897;8192;0.6482261;-0.5706371;-0.5027701;-0.03739612;-42;21;-11;1184;3001;681;32768;0.634349;-0.7493767;0.1606648;-0.101108;59;-77;-51;5579;369;6316;256;0.1537396;-0.2423823;-0.6094183;-0.7390699;-3;-5;-11;-331;4242;-1047;128;-0.06648199;0.2617728;0.5554016;0.7865012;-3;-22;5;-569;3883;1362;4;-0.301939;0.4307479;-0.5526316;-0.6464422;-4;-1;0;-461;4098;-928;16;0.6578947;-0.7199099;0.101108;0.1966759;1;1;4;-439;4054;508;2;0.6038781;-0.6541724;-0.2908587;-0.3504155;0;-1;3;-225;4028;-483;8;0.6108033;-0.6371116;0.33518;0.3296399;3;-4;3;57;4169;137;-0.110819;2.79451;-0.3153107;-0.1048804;3.335673;-0.2465445;-0.09965757;3.811609;-0.1881057;-0.04239125;4.527328;-0.03668061;-0.274182;4.873915;-0.006693333;-0.6263824;4.751379;0.02615541;-1.144148;5.327044;-0.4826242;-0.2442764;5.19943;-0.2147754;0.2445046;4.832417;-0.00669384;0.520522;4.659618;0.02615485;0.8955378;3.905156;0.4935141;0.4599263;3.063865;0.4773949;-0.4230591;2.753759;-0.3286401;-0.1303109;1.328458;-0.1747697;0;0;0;-0.4230591;2.753759;-0.3286401;-0.1303109;1.328458;-0.1747697;0;0;0
868384.4947;NotLabelled;NONE;16384;0.746576;0.4847645;0.4390582;0.1218837;0;0;-25;2386;-2478;2117;65536;0.6999395;0.2229917;-0.5498615;-0.3975069;-5;-2;28;3538;400;-1995;8192;0.6519119;-0.5650969;-0.5041551;-0.03878116;-31;20;-12;1718;2497;1073;32768;0.6385041;-0.7461442;0.1634349;-0.09418282;-1;-43;-9;4925;-867;6584;256;0.1578947;-0.2423823;-0.6080332;-0.7393346;1;-28;-9;-365;4202;-1233;128;-0.07063711;0.2645429;0.5526316;0.7871631;-9;-34;0;-325;3997;1750;4;-0.301939;0.4307479;-0.5526316;-0.6464422;-3;-4;1;-719;4152;-998;16;0.6578947;-0.719714;0.1024931;0.1966759;1;-7;4;-287;4112;634;2;0.6038781;-0.6555257;-0.2894737;-0.3490305;3;-2;5;-561;4020;-445;8;0.6108033;-0.636381;0.3365651;0.3296399;2;-7;4;117;4057;49;-0.1028938;2.795428;-0.3175677;-0.09696041;3.336113;-0.2451338;-0.09174206;3.811643;-0.1834693;-0.04283425;4.527342;-0.02905117;-0.2786427;4.871085;0.002299428;-0.6294057;4.744333;0.0345214;-1.151055;5.318773;-0.4716682;-0.249371;5.194174;-0.2085371;0.2404907;4.835613;0.00229907;0.5184869;4.665896;0.03452098;0.9240066;3.916197;0.4837197;0.5515749;3.046131;0.4382549;-0.4151328;2.754769;-0.3311964;-0.1272551;1.328754;-0.1747741;0;0;0;-0.4151328;2.754769;-0.3311964;-0.1272551;1.328754;-0.1747741;0;0;0
868404.3125;NotLabelled;NONE;16384;0.7456118;0.4833795;0.4418283;0.1232687;-8;3;-27;2698;-2398;2523;65536;0.7031839;0.2229917;-0.5457063;-0.3975069;-18;-2;30;3322;604;-2213;8192;0.6554906;-0.5609418;-0.5041551;-0.03878116;-24;5;-20;354;2219;721;32768;0.634349;-0.7488133;0.1703601;-0.08864266;-61;-47;22;4299;197;5770;256;0.16759;-0.2465374;-0.6038781;-0.7392322;2;-37;-6;11;4154;-1085;128;-0.07894737;0.2686981;0.5526316;0.7849631;15;-24;-2;-443;3963;1606;4;-0.300554;0.4293629;-0.5540166;-0.6468233;-3;-13;2;-925;4020;-938;16;0.6565097;-0.7205784;0.1052632;0.1966759;1;-17;4;-367;4086;486;2;0.6038781;-0.6555257;-0.2894737;-0.3490305;3;-6;5;-699;4122;-369;8;0.6108033;-0.6356466;0.3379501;0.3296399;1;-11;5;105;4137;-31;-0.09896436;2.795745;-0.3181712;-0.0930352;3.336052;-0.242975;-0.08782038;3.81126;-0.1788811;-0.04386668;4.527172;-0.02395649;-0.2820465;4.869255;0.007625073;-0.6319264;4.740058;0.03974104;-1.156231;5.311096;-0.4675555;-0.2530717;5.192657;-0.2066486;0.2373196;4.837372;0.007624432;0.5164807;4.669558;0.03974;0.9282231;3.921266;0.4856136;0.5649908;3.047596;0.4351074;-0.4112026;2.755156;-0.3320249;-0.124175;1.329141;-0.1740489;0;0;0;-0.4112026;2.755156;-0.3320249;-0.124175;1.329141;-0.1740489;0;0;0
868449.022;NotLabelled;NONE;16384;0.7346441;0.4833795;0.4598338;0.1232687;-18;16;-39;2722;-2286;2083;65536;0.7154326;0.2216066;-0.5290859;-0.398892;-18;-5;39;3402;418;-2689;8192;0.6583334;-0.5789474;-0.4806094;-0.02077562;24;-101;0;2872;2409;363;32768;0.5941828;-0.7720113;0.2063712;-0.09141274;-96;-23;73;371;4325;1616;256;0.1772853;-0.2506925;-0.6052631;-0.7344248;-26;-26;3;-123;4022;-859;128;-0.08587258;0.2728532;0.5554016;0.7808368;18;-25;-5;-897;3653;1734;4;-0.2936288;0.4196676;-0.5623268;-0.6491916;-9;-33;8;-323;4006;-622;16;0.6565097;-0.7191967;0.1094183;0.199446;0;-8;3;-265;3982;420;2;0.6052631;-0.6581353;-0.2839335;-0.3462604;6;-25;1;-519;4140;-489;8;0.6080332;-0.6353598;0.3421052;0.3310249;0;-20;6;115;4099;-39;-0.08479945;2.796376;-0.3281949;-0.0788675;3.336932;-0.2548122;-0.07365034;3.812353;-0.1923132;-0.03782909;4.528135;-0.03472353;-0.2798704;4.867382;-0.001927316;-0.6282721;4.734117;0.02962923;-1.146874;5.300614;-0.4885044;-0.245854;5.186677;-0.2183597;0.2398233;4.841377;-0.001927793;0.5208594;4.676615;0.02962863;0.9319589;3.929635;0.4782855;0.5632896;3.058079;0.4307334;-0.3970383;2.75574;-0.3419009;-0.1146348;1.329451;-0.17817;0;0;0;-0.3970383;2.75574;-0.3419009;-0.1146348;1.329451;-0.17817;0;0;0
