SEP=;
index;label;segment;RightUpperArm_boneIndex;RightUpperArm_quat9x_w;RightUpperArm_quat9x_x;RightUpperArm_quat9x_y;RightUpperArm_quat9x_z;RightUpperArm_gyroscope_x;RightUpperArm_gyroscope_y;RightUpperArm_gyroscope_z;RightUpperArm_accelerometer_x;RightUpperArm_accelerometer_y;RightUpperArm_accelerometer_z;RightLowerArm_boneIndex;RightLowerArm_quat9x_w;RightLowerArm_quat9x_x;RightLowerArm_quat9x_y;RightLowerArm_quat9x_z;RightLowerArm_gyroscope_x;RightLowerArm_gyroscope_y;RightLowerArm_gyroscope_z;RightLowerArm_accelerometer_x;RightLowerArm_accelerometer_y;RightLowerArm_accelerometer_z;LeftUpperArm_boneIndex;LeftUpperArm_quat9x_w;LeftUpperArm_quat9x_x;LeftUpperArm_quat9x_y;LeftUpperArm_quat9x_z;LeftUpperArm_gyroscope_x;LeftUpperArm_gyroscope_y;LeftUpperArm_gyroscope_z;LeftUpperArm_accelerometer_x;LeftUpperArm_accelerometer_y;LeftUpperArm_accelerometer_z;LeftLowerArm_boneIndex;LeftLowerArm_quat9x_w;LeftLowerArm_quat9x_x;LeftLowerArm_quat9x_y;LeftLowerArm_quat9x_z;LeftLowerArm_gyroscope_x;LeftLowerArm_gyroscope_y;LeftLowerArm_gyroscope_z;LeftLowerArm_accelerometer_x;LeftLowerArm_accelerometer_y;LeftLowerArm_accelerometer_z;Chest_boneIndex;Chest_quat9x_w;Chest_quat9x_x;Chest_quat9x_y;Chest_quat9x_z;Chest_gyroscope_x;Chest_gyroscope_y;Chest_gyroscope_z;Chest_accelerometer_x;Chest_accelerometer_y;Chest_accelerometer_z;Spine_boneIndex;Spine_quat9x_w;Spine_quat9x_x;Spine_quat9x_y;Spine_quat9x_z;Spine_gyroscope_x;Spine_gyroscope_y;Spine_gyroscope_z;Spine_accelerometer_x;Spine_accelerometer_y;Spine_accelerometer_z;RightUpperLeg_boneIndex;RightUpperLeg_quat9x_w;RightUpperLeg_quat9x_x;RightUpperLeg_quat9x_y;RightUpperLeg_quat9x_z;RightUpperLeg_gyroscope_x;RightUpperLeg_gyroscope_y;RightUpperLeg_gyroscope_z;RightUpperLeg_accelerometer_x;RightUpperLeg_accelerometer_y;RightUpperLeg_accelerometer_z;RightLowerLeg_boneIndex;RightLowerLeg_quat9x_w;RightLowerLeg_quat9x_x;RightLowerLeg_quat9x_y;RightLowerLeg_quat9x_z;RightLowerLeg_gyroscope_x;RightLowerLeg_gyroscope_y;RightLowerLeg_gyroscope_z;RightLowerLeg_accelerometer_x;RightLowerLeg_accelerometer_y;RightLowerLeg_accelerometer_z;LeftUpperLeg_boneIndex;LeftUpperLeg_quat9x_w;LeftUpperLeg_quat9x_x;LeftUpperLeg_quat9x_y;LeftUpperLeg_quat9x_z;LeftUpperLeg_gyroscope_x;LeftUpperLeg_gyroscope_y;LeftUpperLeg_gyroscope_z;LeftUpperLeg_accelerometer_x;LeftUpperLeg_accelerometer_y;LeftUpperLeg_accelerometer_z;LeftLowerLeg_boneIndex;LeftLowerLeg_quat9x_w;LeftLowerLeg_quat9x_x;LeftLowerLeg_quat9x_y;LeftLowerLeg_quat9x_z;LeftLowerLeg_gyroscope_x;LeftLowerLeg_gyroscope_y;LeftLowerLeg_gyroscope_z;LeftLowerLeg_accelerometer_x;LeftLowerLeg_accelerometer_y;LeftLowerLeg_accelerometer_z;pelvis_x;pelvis_y;pelvis_z;lowerSpine_x;lowerSpine_y;lowerSpine_z;middleSpine_x;middleSpine_y;middleSpine_z;upperSpine_x;upperSpine_y;upperSpine_z;rightClavicle_x;rightClavicle_y;rightClavicle_z;rightShoulder_x;rightShoulder_y;rightShoulder_z;rightElbow_x;rightElbow_y;rightElbow_z;rightWrist_x;rightWrist_y;rightWrist_z;leftClavicle_x;leftClavicle_y;leftClavicle_z;leftShoulder_x;leftShoulder_y;leftShoulder_z;leftElbow_x;leftElbow_y;leftElbow_z;leftWrist_x;leftWrist_y;leftWrist_z;rightHip_x;rightHip_y;rightHip_z;rightKnee_x;rightKnee_y;rightKnee_z;rightAnkle_x;rightAnkle_y;rightAnkle_z;leftHip_x;leftHip_y;leftHip_z;leftKnee_x;leftKnee_y;leftKnee_z;leftAnkle_x;leftAnkle_y;leftAnkle_z;
1276137.9905;NotLabelled;NONE;16384;0.6667318;-0.3961219;0.533241;0.3379501;10;1;9;-60;3624;2149;65536;0.7490963;-0.4210526;0.3933518;0.3268698;-4;-1;0;-756;3736;-2065;8192;0.6472547;-0.4044321;-0.5498615;-0.3393352;9;4;-1;98;3723;2135;32768;0.7104157;-0.4736842;-0.433518;-0.2880886;-2;11;4;-257;3929;-1949;256;0.03185596;-0.01108033;-0.6759003;-0.7362209;0;-3;0;-175;4092;-341;128;0.01246537;0.0734072;0.5886427;0.804957;2;4;0;-443;3875;1434;4;0.5344718;-0.5166205;0.4736842;0.4722992;0;0;1;95;4042;64;16;0.6883656;-0.7146184;-0.0401662;-0.1177285;0;0;0;481;4026;180;2;0.4986149;-0.5055401;-0.4819945;-0.5133163;0;0;0;-89;4124;-147;8;0.6952909;-0.7060438;0.06232687;0.1191136;0;0;0;-323;4095;93;0.4912904;2.841478;0.01360951;0.4972673;3.386136;0.04415648;0.5025222;3.865003;0.06898765;0.4776894;4.595778;0.1307417;0.2079973;4.915;0.1201883;-0.1281853;4.758453;0.1713074;-0.5350233;3.936802;0.03825532;-0.8140481;3.095952;-0.2977705;0.728041;4.932676;0.1201875;1.02172;4.797534;0.1713066;1.445225;3.932848;0.1361342;1.781507;3.059088;-0.009622455;0.1790412;2.799898;0.003418819;0.1538175;1.337201;-0.02371547;0;0;0;0.1790412;2.799898;0.003418819;0.1538175;1.337201;-0.02371547;0;0;0
1276158.853;NotLabelled;NONE;16384;0.6668497;-0.3947368;0.533241;0.3393352;-2;-10;8;-72;3942;2039;65536;0.749873;-0.4196676;0.3933518;0.3268698;-7;-12;-4;-922;3718;-2295;8192;0.6472547;-0.4044321;-0.5498615;-0.3393352;-1;9;-1;276;3921;2019;32768;0.7099281;-0.4722992;-0.434903;-0.2894737;-5;22;8;-129;4017;-1863;256;0.033241;-0.01108033;-0.6759003;-0.7361596;0;-5;1;-137;3996;-303;128;0.01246537;0.0734072;0.5886427;0.804957;4;4;0;-399;3933;1388;4;0.5344718;-0.5166205;0.4736842;0.4722992;0;1;1;109;4060;60;16;0.6883656;-0.7146184;-0.0401662;-0.1177285;0;0;-1;413;4062;158;2;0.4986149;-0.5055401;-0.4819945;-0.5133163;0;0;0;-37;4088;-129;8;0.6952909;-0.7060438;0.06232687;0.1191136;0;0;0;-363;4047;95;0.4912968;2.841478;0.01326953;0.4972738;3.386138;0.04379031;0.5025288;3.865006;0.06859844;0.4791846;4.59582;0.1304806;0.2101431;4.915592;0.1199846;-0.1263573;4.759721;0.1710785;-0.5294089;3.936158;0.03832091;-0.807513;3.094757;-0.297087;0.7302217;4.932208;0.1199837;1.023625;4.79646;0.1710773;1.444915;3.930858;0.1320357;1.779221;3.056462;-0.01445402;0.1790476;2.799899;0.003081053;0.1537729;1.337201;-0.02400516;0;0;0;0.1790476;2.799899;0.003081053;0.1537729;1.337201;-0.02400516;0;0;0
1276180.0043;NotLabelled;NONE;16384;0.6682894;-0.3891967;0.534626;0.3407202;-17;-11;4;330;3770;2139;65536;0.7494982;-0.4196676;0.3905817;0.3310249;-3;5;-16;-1242;3784;-2535;8192;0.6462121;-0.4030471;-0.5512465;-0.3407202;-5;13;0;62;3951;2111;32768;0.7091413;-0.4709141;-0.434903;-0.2936288;-7;15;10;467;3893;-1839;256;0.033241;-0.01246537;-0.6759003;-0.7361375;-1;-4;1;-229;4078;-255;128;0.01246537;0.07202215;0.5900277;0.8040676;9;3;0;-367;3907;1182;4;0.5358071;-0.5152354;0.4736842;0.4722992;0;0;1;101;4106;80;16;0.6883656;-0.7146184;-0.0401662;-0.1177285;-1;2;0;395;4026;194;2;0.4986149;-0.5055401;-0.4819945;-0.5133163;0;0;0;-49;4060;-111;8;0.6952909;-0.7060438;0.06232687;0.1191136;0;0;0;-305;4097;69;0.4912907;2.841478;0.01360631;0.4972677;3.386138;0.04412711;0.5025228;3.865006;0.06893526;0.47769;4.595782;0.1306891;0.207998;4.915003;0.1201354;-0.1281846;4.758456;0.1712547;-0.5308313;3.935149;0.03571312;-0.8096037;3.095097;-0.3025075;0.7280416;4.932679;0.1201347;1.021721;4.797537;0.1712538;1.443083;3.931935;0.1330049;1.778653;3.057943;-0.01299925;0.1790416;2.799899;0.003417769;0.1538178;1.3372;-0.02371593;0;0;0;0.1790416;2.799899;0.003417769;0.1538178;1.3372;-0.02371593;0;0;0
1276199.8542;NotLabelled;NONE;16384;0.669895;-0.3864266;0.534626;0.3407202;-19;-3;4;348;3780;2291;65536;0.7502183;-0.4196676;0.3891967;0.3310249;0;6;-21;-1334;3986;-2549;8192;0.646543;-0.3975069;-0.5540166;-0.3421052;-15;8;-1;-128;3821;2079;32768;0.7105236;-0.4709141;-0.4307479;-0.2963989;-13;0;18;-95;3733;-2231;256;0.03462604;-0.01246537;-0.6759003;-0.7360737;0;-5;0;-115;3984;-287;128;0.01246537;0.07202215;0.5900277;0.8040676;-1;-1;0;-381;4053;1144;4;0.5358071;-0.5152354;0.4736842;0.4722992;0;0;1;65;4088;74;16;0.6869806;-0.71595;-0.0401662;-0.1177285;-2;2;-1;443;4056;162;2;0.4986149;-0.5055401;-0.4819945;-0.5133163;0;1;0;-111;4086;-155;8;0.6952909;-0.7060438;0.06232687;0.1191136;0;-1;0;-301;4069;67;0.4947763;2.841361;0.018226;0.5007544;3.386124;0.04684019;0.5060102;3.865077;0.06997206;0.4825475;4.595897;0.1317221;0.2134544;4.915624;0.1211668;-0.1230211;4.759707;0.1722867;-0.5306866;3.939959;0.03032808;-0.8010042;3.098845;-0.3120916;0.7335302;4.932324;0.1211661;1.026956;4.796632;0.1722859;1.448782;3.931189;0.135625;1.781217;3.056336;-0.01239271;0.1825268;2.799746;0.008195002;0.1538656;1.337201;-0.02340216;0;0;0;0.1825268;2.799746;0.008195002;0.1538656;1.337201;-0.02340216;0;0;0
1276220.904;NotLabelled;NONE;16384;0.6710823;-0.3836565;0.536011;0.3393352;-24;-3;7;254;3992;2449;65536;0.75252;-0.4182825;0.3850415;0.33241;0;1;-30;-1696;4128;-2201;8192;0.6473199;-0.3947368;-0.5567867;-0.3393352;-29;6;2;24;3891;2273;32768;0.7107815;-0.4695291;-0.4279778;-0.301939;-7;34;36;717;4517;-2567;256;0.03462604;-0.01385042;-0.6759003;-0.7360489;1;-1;0;-115;4200;-307;128;0.01246537;0.07202215;0.5900277;0.8040676;-6;-3;0;-451;4019;1136;4;0.5358071;-0.5152354;0.4736842;0.4722992;-1;0;1;107;4120;96;16;0.6869806;-0.71595;-0.0401662;-0.1177285;-2;0;-1;435;4092;182;2;0.4986149;-0.5055401;-0.4819945;-0.5133163;0;1;0;-209;4152;-117;8;0.6952909;-0.7060438;0.06232687;0.1191136;0;0;0;-347;4131;47;0.4956658;2.841159;0.01348841;0.5016438;3.385922;0.04210254;0.5068998;3.864874;0.06523436;0.4819489;4.595657;0.1268505;0.2122055;4.914834;0.1162351;-0.1239522;4.758241;0.1673817;-0.5344025;3.940771;0.02040384;-0.8025093;3.099953;-0.3244719;0.7322462;4.932592;0.1162343;1.025947;4.797507;0.1673807;1.454385;3.935379;0.1293138;1.780629;3.059344;-0.02533212;0.1834162;2.799544;0.003457479;0.1548144;1.336999;-0.02819347;0;0;0;0.1834162;2.799544;0.003457479;0.1548144;1.336999;-0.02819347;0;0;0
1276240.8539;NotLabelled;NONE;16384;0.6738124;-0.3781163;0.5373961;0.3379501;-33;-17;7;88;4138;2587;65536;0.7541726;-0.4168975;0.3808864;0.33518;-5;7;-45;-2412;4090;-2489;8192;0.6480603;-0.3919668;-0.5595568;-0.3365651;-27;2;5;670;3685;1943;32768;0.712275;-0.4639889;-0.4265928;-0.3088643;20;36;57;2437;4837;-3473;256;0.03462604;-0.01385042;-0.6759003;-0.7360489;0;0;-1;-71;4140;-187;128;0.01246537;0.07202215;0.5886427;0.8050821;0;0;0;-489;3929;1226;4;0.5370284;-0.5152354;0.4722992;0.4722992;0;0;2;-11;4036;118;16;0.6869806;-0.7158709;-0.04155125;-0.1177285;-2;2;0;335;4022;266;2;0.4986149;-0.5055401;-0.4819945;-0.5133163;0;0;0;-137;4092;-103;8;0.6952909;-0.7060438;0.06232687;0.1191136;0;0;0;-299;4081;89;0.4956584;2.841159;0.01386213;0.5016365;3.385922;0.04247627;0.5068924;3.864874;0.0656081;0.4833117;4.595703;0.1272203;0.2141672;4.915385;0.1166031;-0.1222835;4.759423;0.1677504;-0.5379728;3.945044;0.01835325;-0.8003714;3.105967;-0.3350462;0.7342405;4.932168;0.1166025;1.027687;4.796533;0.1677497;1.4643;3.938383;0.1328008;1.783672;3.061045;-0.02865595;0.1834087;2.799544;0.003831195;0.1548717;1.336998;-0.02787786;0;0;0;0.1834087;2.799544;0.003831195;0.1548717;1.336998;-0.02787786;0;0;0
1276260.8507;NotLabelled;NONE;16384;0.6757158;-0.3739612;0.5387812;0.3365651;-39;-15;4;72;3790;2305;65536;0.7586008;-0.4141274;0.3725762;0.3379501;1;16;-67;-2880;4204;-2763;8192;0.6491311;-0.3905817;-0.5609418;-0.333795;-25;5;7;836;3659;1635;32768;0.71909;-0.4556787;-0.4210526;-0.3130194;41;0;85;2769;4727;-3343;256;0.03462604;-0.01385042;-0.6759003;-0.7360489;2;5;1;-37;3872;-527;128;0.01523546;0.07063711;0.5914127;0.8031247;6;8;0;-461;3879;1132;4;0.5370284;-0.5152354;0.4722992;0.4722992;0;0;3;-35;4050;58;16;0.6869806;-0.7158709;-0.04155125;-0.1177285;-1;1;0;417;4096;246;2;0.4986149;-0.5055401;-0.4819945;-0.5133163;0;-1;-1;-35;4110;-87;8;0.6952909;-0.7060438;0.06232687;0.1191136;-1;0;1;-305;4067;13;0.4923368;2.841344;0.01763793;0.4983138;3.386006;0.04812804;0.5035688;3.864875;0.07290921;0.4799883;4.595704;0.1345219;0.2108437;4.915386;0.123905;-0.125607;4.759424;0.1750523;-0.5498098;3.950523;0.01993643;-0.8056209;3.112733;-0.3412616;0.730917;4.93217;0.1239042;1.024364;4.796535;0.1750513;1.469014;3.942427;0.1424661;1.785626;3.066431;-0.03124851;0.1800876;2.799764;0.007451924;0.1522907;1.337291;-0.02805105;0;0;0;0.1800876;2.799764;0.007451924;0.1522907;1.337291;-0.02805105;0;0;0
1276280.8667;NotLabelled;NONE;16384;0.679731;-0.3642659;0.5429363;0.33241;-39;0;5;540;3648;2153;65536;0.7717889;-0.4044321;0.3504155;0.3434903;20;15;-103;-2598;4002;-2847;8192;0.6478975;-0.3878116;-0.5650969;-0.33241;-29;20;5;182;3793;2289;32768;0.7288926;-0.4459834;-0.4113573;-0.3171745;49;-1;112;2003;4507;-3289;256;0.03462604;-0.01385042;-0.6745152;-0.7373185;5;4;2;-133;4032;-271;128;0.01523546;0.07063711;0.5914127;0.8031247;-1;5;0;-487;3939;1094;4;0.5370284;-0.5152354;0.4722992;0.4722992;0;0;2;-67;4052;106;16;0.6869806;-0.7158709;-0.04155125;-0.1177285;-1;0;0;415;4024;258;2;0.4986149;-0.5055401;-0.4819945;-0.5133163;0;-1;-3;-7;4150;-145;8;0.6952909;-0.7060438;0.06232687;0.1191136;0;-1;0;-343;4121;83;0.4923374;2.841413;0.01732316;0.4983166;3.386274;0.04402316;0.5035734;3.865305;0.0654721;0.4799927;4.596134;0.1270844;0.2108483;4.915815;0.1164674;-0.1256024;4.759854;0.1676149;-0.5568492;3.955331;0.009185866;-0.8024257;3.121346;-0.3675871;0.7309216;4.932599;0.1164665;1.024368;4.796964;0.1676135;1.474814;3.945857;0.1361269;1.792235;3.075119;-0.060969;0.1800874;2.799764;0.007450486;0.1522906;1.337291;-0.02805176;0;0;0;0.1800874;2.799764;0.007450486;0.1522906;1.337291;-0.02805176;0;0;0
1276301.8451;NotLabelled;NONE;16384;0.6829112;-0.3587258;0.5443213;0.3296399;-42;-7;15;788;3764;2311;65536;0.7802666;-0.3975069;0.3365651;0.3462604;24;20;-111;-3088;4144;-2937;8192;0.6499594;-0.3739612;-0.5720221;-0.33241;-44;36;-10;-344;3855;2263;32768;0.7530844;-0.4168975;-0.3878116;-0.3296399;71;13;143;2353;4857;-3301;256;0.033241;-0.01385042;-0.6745152;-0.7373822;1;5;2;17;4054;-191;128;0.0166205;0.07063711;0.5914127;0.8030972;-4;4;0;-555;3923;1182;4;0.5370284;-0.5152354;0.4722992;0.4722992;-1;-2;2;15;4130;146;16;0.6855956;-0.7171975;-0.04155125;-0.1177285;-1;0;0;421;4090;220;2;0.5;-0.5055401;-0.4819945;-0.5119673;0;-1;-2;3;4138;-173;8;0.6952909;-0.7060438;0.06232687;0.1191136;-1;0;0;-349;4095;89;0.4923377;2.841413;0.01731215;0.4983169;3.386274;0.0440121;0.5035735;3.865305;0.06546098;0.4799083;4.595895;0.1298201;0.2107221;4.915579;0.1204363;-0.1257026;4.759385;0.1710385;-0.5746466;3.965867;0.00638961;-0.7961084;3.146223;-0.4142484;0.7307932;4.932429;0.1204353;1.024264;4.796639;0.171037;1.481046;3.948735;0.1449086;1.797273;3.085434;-0.08421892;0.1800878;2.799764;0.007439552;0.1522888;1.337291;-0.02806104;0;0;0;0.1800878;2.799764;0.007439552;0.1522888;1.337291;-0.02806104;0;0;0
1276322.8396;NotLabelled;NONE;16384;0.6871677;-0.3518005;0.5443213;0.3282548;-49;-12;27;818;3900;2609;65536;0.7896352;-0.3891967;0.3227147;0.3476454;26;41;-118;-3440;4072;-3095;8192;0.6534579;-0.365651;-0.5734072;-0.33241;-45;31;-21;-686;3949;2239;32768;0.7658641;-0.400277;-0.3753462;-0.33518;79;0;148;2609;4629;-3401;256;0.03185596;-0.01385042;-0.6745152;-0.7374433;3;9;1;13;4024;-129;128;0.0166205;0.06925207;0.5900277;0.8042358;-6;6;1;-433;3861;1184;4;0.5370284;-0.5152354;0.4722992;0.4722992;-1;0;2;69;4066;132;16;0.6855956;-0.7171975;-0.04155125;-0.1177285;-2;1;0;433;4010;328;2;0.5;-0.5055401;-0.4806094;-0.5132678;0;0;-2;-37;4084;-199;8;0.6952909;-0.7062761;0.06232687;0.1177285;-1;0;0;-305;4109;115;0.49326;2.841193;0.01190371;0.4992391;3.386054;0.03859532;0.5044959;3.865085;0.06003688;0.4823208;4.595709;0.1245298;0.2137872;4.915945;0.1152059;-0.1229552;4.760426;0.1657812;-0.5820823;3.973706;-0.003342904;-0.7900664;3.165053;-0.4512481;0.7338916;4.931733;0.1152054;1.027084;4.795336;0.1657808;1.503924;3.958709;0.1348954;1.818063;3.121457;-0.1783327;0.1810101;2.799543;0.002031691;0.1531445;1.337071;-0.03341659;0;0;0;0.1810101;2.799543;0.002031691;0.1531445;1.337071;-0.03341659;0;0;0
1276342.9964;NotLabelled;NONE;16384;0.6931023;-0.3434903;0.5429363;0.3268698;-60;-9;38;908;3810;2683;65536;0.7995733;-0.3822715;0.3060942;0.3476454;32;62;-123;-3272;4212;-3289;8192;0.6568296;-0.3573407;-0.5747922;-0.33241;-49;25;-29;-948;3867;2523;32768;0.7803711;-0.3822715;-0.3614958;-0.3379501;87;-7;154;2477;4525;-3441;256;0.03047091;-0.01246537;-0.6745152;-0.7375265;4;10;1;-137;3952;-163;128;0.01800554;0.06925207;0.5900277;0.804206;-5;6;1;-427;3913;1182;4;0.5383502;-0.5138504;0.4709141;0.4736842;1;2;1;147;4060;72;16;0.6855956;-0.7171975;-0.04155125;-0.1177285;0;0;0;389;4070;270;2;0.5;-0.5055401;-0.4806094;-0.5132678;0;0;-2;41;4128;-155;8;0.6952909;-0.7060438;0.06232687;0.1191136;0;0;0;-319;4087;143;0.4932632;2.841159;0.01169256;0.4992413;3.385927;0.04023214;0.5044972;3.864882;0.06329841;0.4838212;4.595538;0.1279226;0.2159399;4.916322;0.1186921;-0.1211119;4.761483;0.169287;-0.5897696;3.981541;-0.005010769;-0.7864761;3.186505;-0.4814785;0.7360754;4.93105;0.118622;1.028996;4.794047;0.1691326;1.517176;3.964287;0.1309944;1.830941;3.144903;-0.2267034;0.1810136;2.799543;0.001667732;0.153077;1.33707;-0.03372437;0;0;0;0.1810136;2.799543;0.001667732;0.153077;1.33707;-0.03372437;0;0;0
1276363.8537;NotLabelled;NONE;16384;0.7076831;-0.3240997;0.5401662;0.3199446;-69;7;53;834;3698;2615;65536;0.8247943;-0.3614958;0.2700831;0.3407202;56;68;-139;-3084;4532;-3217;8192;0.6620122;-0.3476454;-0.5747922;-0.33241;-55;15;-37;-796;3739;2621;32768;0.7939636;-0.3642659;-0.3462604;-0.3421052;93;-9;161;2559;4621;-3389;256;0.02908587;-0.01108033;-0.6731302;-0.7388688;11;7;0;-145;3972;-293;128;0.01800554;0.06786703;0.5886427;0.8053383;-8;1;0;-457;3943;1134;4;0.5370248;-0.5152354;0.4709141;0.4736842;0;4;1;55;4030;90;16;0.6855956;-0.7171975;-0.04155125;-0.1177285;0;0;0;373;4048;222;2;0.4986149;-0.5041551;-0.4819945;-0.5146767;0;3;-2;91;4120;-125;8;0.6952909;-0.7060438;0.06232687;0.1191136;0;2;0;-359;4129;207;0.49227;2.840965;0.01895539;0.4982481;3.385732;0.04748305;0.5035042;3.864689;0.07053885;0.4829436;4.595337;0.1352867;0.215118;4.916168;0.1260771;-0.1219666;4.761377;0.1766017;-0.6010048;3.991068;-0.01174711;-0.7832152;3.210143;-0.5164784;0.7352559;4.930808;0.1260768;1.028147;4.793746;0.1766016;1.527361;3.971316;0.1249384;1.84178;3.174451;-0.2799488;0.1800204;2.799348;0.008931564;0.1529482;1.33707;-0.03430322;0;0;0;0.1800204;2.799348;0.008931564;0.1529482;1.33707;-0.03430322;0;0;0
1276383.8542;NotLabelled;NONE;16384;0.7170209;-0.3144044;0.536011;0.3157895;-73;6;61;528;3914;2815;65536;0.8378872;-0.3490305;0.2506925;0.3365651;64;82;-145;-3074;4548;-3155;8192;0.6677021;-0.3379501;-0.5747922;-0.3310249;-61;18;-45;-652;3695;2515;32768;0.8089817;-0.3434903;-0.3310249;-0.3434903;103;-19;166;2571;4805;-3437;256;0.02770083;-0.009695291;-0.6717451;-0.7402008;9;9;0;-115;4020;-267;128;0.01800554;0.06786703;0.5872576;0.8063488;-7;3;0;-469;3925;1276;4;0.5382433;-0.5152354;0.4709141;0.4722992;0;5;1;39;4114;114;16;0.6855956;-0.7171975;-0.04155125;-0.1177285;0;-1;0;411;4090;190;2;0.4986149;-0.5041551;-0.4819945;-0.5146767;-1;4;-1;-9;4022;-169;8;0.6952909;-0.7060438;0.06232687;0.1191136;1;4;0;-365;4121;179;0.4887953;2.841114;0.01399762;0.4947723;3.385783;0.04437037;0.5000274;3.864658;0.06904836;0.479531;4.595049;0.1366605;0.2117244;4.915931;0.1287717;-0.1253583;4.760965;0.1787719;-0.6306008;4.014645;-0.03585471;-0.7878932;3.275187;-0.6070456;0.7318633;4.930536;0.1287024;1.024758;4.793259;0.1786193;1.536396;3.979346;0.1149971;1.846755;3.206752;-0.3372896;0.1765461;2.799532;0.003821274;0.1528062;1.33707;-0.03493021;0;0;0;0.1765461;2.799532;0.003821274;0.1528062;1.33707;-0.03493021;0;0;0
1276403.9885;NotLabelled;NONE;16384;0.7256072;-0.301939;0.533241;0.3130194;-80;-1;67;512;3700;2895;65536;0.8506738;-0.3365651;0.2313019;0.3310249;70;85;-149;-2886;4436;-3213;8192;0.6814728;-0.3157895;-0.5720221;-0.3296399;-68;28;-57;-670;3765;2765;32768;0.83895;-0.299169;-0.2977839;-0.3434903;116;-26;168;2115;4373;-3151;256;0.02770083;-0.009695291;-0.6717451;-0.7402008;9;6;0;-55;4038;-371;128;0.01939058;0.06648199;0.5858725;0.8074389;-8;4;0;-429;3881;1386;4;0.539452;-0.5152354;0.4695291;0.4722992;0;6;1;109;4130;138;16;0.6855956;-0.7171975;-0.04155125;-0.1177285;0;1;0;421;4048;244;2;0.4986149;-0.5027701;-0.4819945;-0.5160298;0;5;-1;-89;4098;-175;8;0.6952909;-0.706397;0.06094183;0.1177285;1;4;-1;-305;4091;91;0.4925712;2.841007;0.01364458;0.498547;3.385568;0.0458914;0.5038011;3.864355;0.07221711;0.4833725;4.594479;0.1426792;0.2155914;4.915411;0.1360716;-0.1214985;4.760279;0.1855046;-0.6386558;4.027734;-0.04742365;-0.7830951;3.313592;-0.6531759;0.7357316;4.929975;0.1360014;1.02862;4.79248;0.18535;1.554033;3.98864;0.1075197;1.864103;3.246533;-0.3934025;0.1803223;2.79946;0.003313396;0.1526663;1.33707;-0.03553709;0;0;0;0.1803223;2.79946;0.003313396;0.1526663;1.33707;-0.03553709;0;0;0
1276424.8363;NotLabelled;NONE;16384;0.7354427;-0.2894737;0.5290859;0.3088643;-87;0;72;726;3558;2863;65536;0.863994;-0.3213296;0.2105263;0.3254848;78;78;-156;-2574;4264;-3271;8192;0.6895323;-0.301939;-0.5706371;-0.3282548;-75;23;-62;-850;3665;2929;32768;0.8533014;-0.2770083;-0.2811634;-0.3407202;119;-34;165;2119;4219;-3227;256;0.02631579;-0.008310249;-0.6689751;-0.7427723;14;7;1;-125;4040;-437;128;0.01939058;0.06648199;0.5858725;0.8074389;-9;2;0;-535;3891;1378;4;0.539452;-0.5152354;0.4695291;0.4722992;0;5;1;73;4060;96;16;0.6855956;-0.7171159;-0.04293629;-0.1177285;0;2;0;433;4064;252;2;0.4986149;-0.5027701;-0.4833795;-0.5147326;0;4;0;-117;4118;-155;8;0.6952909;-0.706397;0.06094183;0.1177285;1;3;0;-309;4071;43;0.491853;2.84088;0.01759867;0.4978277;3.38533;0.0516695;0.5030807;3.864027;0.07959892;0.4826426;4.594151;0.1500583;0.2148624;4.915082;0.1434148;-0.122234;4.759951;0.1928027;-0.6509774;4.04432;-0.06532982;-0.7799067;3.356609;-0.7042568;0.7350025;4.929646;0.1434141;1.027884;4.79215;0.192802;1.582042;4.011848;0.08184016;1.891818;3.342328;-0.5127771;0.1796046;2.799368;0.007117075;0.1526709;1.33707;-0.03551681;0;0;0;0.1796046;2.799368;0.007117075;0.1526709;1.33707;-0.03551681;0;0;0
1276444.8425;NotLabelled;NONE;16384;0.7448395;-0.2756233;0.5249307;0.3060942;-90;-1;77;868;3334;2695;65536;0.8765016;-0.3047091;0.1911357;0.3199446;90;69;-152;-1902;4308;-3331;8192;0.6966442;-0.2894737;-0.5692521;-0.3268698;-79;16;-67;-978;3579;2817;32768;0.8665214;-0.2548476;-0.2645429;-0.3379501;123;-39;160;1993;4257;-3455;256;0.02493075;-0.008310249;-0.66759;-0.7440652;16;4;0;-229;4010;-449;128;0.02077562;0.06509695;0.5844875;0.8085203;-8;2;0;-483;3967;1374;4;0.5393311;-0.5166205;0.468144;0.4722992;0;3;1;77;4048;76;16;0.6855956;-0.7168871;-0.04293629;-0.1191136;0;3;0;431;4094;212;2;0.4986149;-0.5027701;-0.4833795;-0.5147326;0;5;-1;-173;4134;-177;8;0.6966759;-0.705031;0.06094183;0.1177285;0;2;0;-343;4083;21;0.489274;2.841169;0.0174656;0.4952486;3.385619;0.05153643;0.5005017;3.864316;0.07946585;0.4797797;4.593881;0.1554049;0.2120197;4.914856;0.1501861;-0.1252589;4.759355;0.1971073;-0.66533;4.063839;-0.09083143;-0.7771584;3.407818;-0.765315;0.7321557;4.929415;0.1522768;1.024851;4.791546;0.2017309;1.59719;4.028057;0.06836239;1.906264;3.398527;-0.5687822;0.1770256;2.799657;0.006984005;0.1500918;1.337359;-0.03564988;0;0;0;0.1770256;2.799657;0.006984005;0.1500918;1.337359;-0.03564988;0;0;0
1276465.863;NotLabelled;NONE;16384;0.7642054;-0.2465374;0.5138504;0.301939;-83;-18;82;754;3474;2815;65536;0.8976629;-0.2645429;0.1565097;0.3157895;113;36;-148;-1974;4150;-3303;8192;0.7057544;-0.2756233;-0.566482;-0.3240997;-83;18;-71;-854;3673;2815;32768;0.8800781;-0.2313019;-0.2479224;-0.33241;128;-43;153;1791;4067;-3639;256;0.0235457;-0.006925208;-0.66482;-0.7466003;13;6;2;-157;4210;-599;128;0.02077562;0.06509695;0.5817174;0.8105156;-7;4;0;-453;3905;1498;4;0.5405408;-0.5166205;0.468144;0.4709141;0;4;1;-55;4024;62;16;0.6842105;-0.718125;-0.04432133;-0.1191136;0;5;0;379;4038;302;2;0.4972299;-0.501385;-0.4833795;-0.5174164;-1;3;-1;-281;4186;-191;8;0.6966759;-0.7053792;0.05955679;0.1163435;0;1;0;-257;4065;83;0.4876257;2.840961;0.01699148;0.4935991;3.385293;0.05287934;0.4988512;3.863894;0.08240636;0.4798802;4.5932;0.1612461;0.2127342;4.914716;0.1583719;-0.124654;4.759695;0.2060847;-0.6792119;4.08115;-0.09453428;-0.7797102;3.459085;-0.8021579;0.7329021;4.928251;0.1583713;1.025526;4.789619;0.206084;1.612043;4.040032;0.05643861;1.914545;3.45207;-0.6222214;0.1753777;2.799484;0.006359937;0.1524359;1.337097;-0.03553757;0;0;0;0.1753777;2.799484;0.006359937;0.1524359;1.337097;-0.03553757;0;0;0
1276486.849;NotLabelled;NONE;16384;0.7722548;-0.2313019;0.5096953;0.300554;-83;-29;82;644;3260;3123;65536;0.9074697;-0.2409972;0.1398892;0.3144044;116;29;-145;-2264;3660;-3003;8192;0.7149256;-0.2617728;-0.5623268;-0.3227147;-87;22;-73;-718;3547;2941;32768;0.891742;-0.2077562;-0.234072;-0.3268698;132;-41;143;1811;3793;-3437;256;0.0235457;-0.006925208;-0.6620498;-0.7490578;11;5;3;-61;4024;-571;128;0.02216066;0.06509695;0.5803324;0.8114712;-9;7;0;-339;3831;1482;4;0.5417373;-0.5166205;0.466759;0.4709141;0;2;0;-43;4064;70;16;0.6842105;-0.717894;-0.04432133;-0.1204986;0;3;0;397;4076;280;2;0.4972299;-0.5;-0.4833795;-0.518755;0;2;-1;-253;4086;-87;8;0.6966759;-0.7053792;0.05955679;0.1163435;0;0;0;-307;4087;65;0.489617;2.84087;0.01151859;0.4955874;3.384943;0.05113609;0.5008372;3.863331;0.08394241;0.481943;4.592021;0.1683036;0.2148141;4.913563;0.167981;-0.1225615;4.758203;0.2146717;-0.699418;4.118793;-0.1269719;-0.775416;3.575057;-0.8992232;0.7349826;4.927069;0.1678488;1.02762;4.788065;0.2143801;1.630093;4.055741;0.04407902;1.927856;3.513744;-0.6738098;0.1773697;2.799467;0.0005795145;0.1505017;1.337148;-0.04137443;0;0;0;0.1773697;2.799467;0.0005795145;0.1505017;1.337148;-0.04137443;0;0;0
1276507.8451;NotLabelled;NONE;16384;0.7797489;-0.2146814;0.5055401;0.300554;-90;-38;84;682;2956;3105;65536;0.9157461;-0.2188366;0.1246537;0.3130194;113;32;-146;-2500;3554;-2725;8192;0.7317084;-0.2285319;-0.5567867;-0.3199446;-92;37;-76;-832;3397;3077;32768;0.9116541;-0.1648199;-0.2091413;-0.3130194;124;-49;119;1413;3219;-2635;256;0.02216066;-0.006925208;-0.6606648;-0.7503219;13;6;3;-145;3988;-613;128;0.02216066;0.06371191;0.5789474;0.8125698;-14;5;0;-405;3791;1418;4;0.5417373;-0.5166205;0.466759;0.4709141;0;0;0;-15;4138;66;16;0.6842105;-0.7178071;-0.04570637;-0.1204986;0;1;0;407;4030;332;2;0.4972299;-0.5;-0.4833795;-0.518755;-1;2;-1;-249;4090;-159;8;0.6966759;-0.7053792;0.05955679;0.1163435;0;0;0;-341;4081;59;0.4914665;2.840472;0.01646257;0.4974356;3.384409;0.05791915;0.5026839;3.862683;0.09234253;0.4836731;4.590725;0.1820957;0.2164948;4.91222;0.1841379;-0.1208598;4.756467;0.2296566;-0.7060756;4.141174;-0.1408371;-0.769687;3.643323;-0.9445139;0.7366613;4.925807;0.184137;1.029318;4.786507;0.2296555;1.647237;4.073566;0.03429103;1.945543;3.577427;-0.7158068;0.1792196;2.799106;0.005372057;0.1530719;1.336887;-0.04034951;0;0;0;0.1792196;2.799106;0.005372057;0.1530719;1.336887;-0.04034951;0;0;0
1276548.9013;NotLabelled;NONE;16384;0.7945975;-0.1800554;0.4958449;0.300554;-92;-34;85;1204;2720;2915;65536;0.9324889;-0.1759003;0.09141274;0.301939;114;69;-137;-1934;3134;-2577;8192;0.7481917;-0.1952908;-0.5498615;-0.3157895;-93;26;-75;-952;3103;2921;32768;0.9282827;-0.1288089;-0.1883656;-0.2936288;122;-70;96;1657;2847;-3065;256;0.02077562;-0.006925208;-0.6565097;-0.7539996;18;4;3;-193;3948;-611;128;0.0235457;0.06371191;0.5761772;0.8144975;-9;-1;0;-431;3903;1476;4;0.5417373;-0.5166205;0.466759;0.4709141;0;0;0;201;4084;128;16;0.6842105;-0.7178071;-0.04570637;-0.1204986;0;0;0;483;4070;274;2;0.4986149;-0.4986149;-0.4833795;-0.5187587;0;1;0;-253;4058;-189;8;0.6966759;-0.7053792;0.05955679;0.1163435;0;-1;0;-355;4103;45;0.4888986;2.840724;0.01617332;0.494866;3.384519;0.05945415;0.5001131;3.862675;0.09548156;0.4825671;4.590405;0.1880126;0.2160327;4.912425;0.1913074;-0.1216286;4.757174;0.2362652;-0.7170629;4.164984;-0.1550119;-0.7706586;3.711214;-0.9850828;0.7362254;4.924971;0.1913069;1.028606;4.784913;0.2362648;1.68024;4.116605;-0.002508938;1.975859;3.707731;-0.8045187;0.1766521;2.799396;0.004932575;0.1504182;1.337177;-0.04073976;0;0;0;0.1766521;2.799396;0.004932575;0.1504182;1.337177;-0.04073976;0;0;0
1276570.8744;NotLabelled;NONE;16384;0.8097567;-0.1481994;0.4833795;0.2977839;-81;-11;82;1368;2428;2701;65536;0.9454976;-0.1371191;0.06509695;0.2880886;123;40;-120;-1180;2560;-2697;8192;0.7561769;-0.1800554;-0.5457063;-0.3130194;-92;20;-74;-950;2845;2797;32768;0.935665;-0.1108033;-0.1800554;-0.2825485;123;-64;90;1689;2641;-2983;256;0.01939058;-0.006925208;-0.6523545;-0.7576342;15;1;2;-73;4142;-757;128;0.0235457;0.06371191;0.5747922;0.8154755;-4;-1;-1;-451;3959;1516;4;0.5417373;-0.5166205;0.466759;0.4709141;0;0;-1;159;4044;124;16;0.6842105;-0.7178071;-0.04570637;-0.1204986;0;0;0;383;4052;244;2;0.4986149;-0.4986149;-0.4833795;-0.5187587;0;-1;0;-243;4094;-159;8;0.6966759;-0.7053792;0.05955679;0.1163435;-1;-1;0;-257;4105;63;0.4889066;2.840647;0.01613055;0.4948707;3.384136;0.06309469;0.500115;3.862037;0.1023609;0.4839527;4.588722;0.2030093;0.2180218;4.911181;0.2099679;-0.119918;4.756069;0.2532818;-0.7333084;4.214328;-0.1809963;-0.7612002;3.85112;-1.055696;0.7382369;4.922755;0.2099674;1.030367;4.781659;0.2532814;1.713074;4.162512;-0.02750988;2.004616;3.831036;-0.8659101;0.176661;2.799396;0.004586929;0.1503381;1.337177;-0.04103393;0;0;0;0.176661;2.799396;0.004586929;0.1503381;1.337177;-0.04103393;0;0;0
1276611.8511;NotLabelled;NONE;16384;0.8157166;-0.1357341;0.4778393;0.2963989;-76;-12;79;1022;2288;2821;65536;0.9500567;-0.1149584;0.05263158;0.2853186;123;20;-114;-1178;2328;-2557;8192;0.76332;-0.1648199;-0.5429363;-0.3088643;-90;21;-70;-832;2653;2755;32768;0.9419046;-0.09418282;-0.1717452;-0.2728532;122;-53;86;2043;2595;-2827;256;0.01800554;-0.006925208;-0.6509695;-0.7588587;13;2;2;-127;4188;-761;128;0.0235457;0.06371191;0.5734072;0.81645;-4;0;-1;-413;3877;1532;4;0.5417373;-0.5166205;0.466759;0.4709141;0;0;0;181;4100;62;16;0.6842105;-0.7178071;-0.04570637;-0.1204986;0;0;0;435;4090;158;2;0.4986149;-0.4986149;-0.4833795;-0.5187587;0;-2;0;-253;4118;-157;8;0.6966759;-0.7053792;0.05955679;0.1163435;-1;-1;0;-301;4093;59;0.4889148;2.840608;0.01594139;0.4948772;3.383934;0.06475578;0.50012;3.861698;0.1056489;0.4853551;4.58725;0.2143583;0.2200362;4.910115;0.2249602;-0.1181867;4.75517;0.2666338;-0.7447488;4.265571;-0.2088043;-0.7541339;3.984278;-1.113561;0.7402725;4.920704;0.2249596;1.032145;4.778585;0.2666332;1.727664;4.183997;-0.03501633;2.018334;3.891049;-0.8879411;0.1766696;2.799396;0.004245773;0.1502585;1.337177;-0.04132429;0;0;0;0.1766696;2.799396;0.004245773;0.1502585;1.337177;-0.04132429;0;0;0
1276632.9777;NotLabelled;NONE;16384;0.8268999;-0.1080332;0.468144;0.2922437;-72;-30;65;1032;1786;3143;65536;0.9561031;-0.07202215;0.02908587;0.2825485;101;11;-106;-1098;1724;-2345;8192;0.7794253;-0.1218837;-0.536011;-0.300554;-86;28;-53;-1126;2227;2953;32768;0.9559587;-0.0401662;-0.1495845;-0.2493075;109;-22;70;1279;1211;-2405;256;0.01800554;-0.006925208;-0.6481994;-0.7612262;10;1;1;-103;4122;-755;128;0.0235457;0.06371191;0.5720221;0.817421;-4;-1;-1;-441;3867;1442;4;0.5417373;-0.5166205;0.466759;0.4709141;0;-1;0;137;4088;126;16;0.6842105;-0.7178071;-0.04570637;-0.1204986;0;0;0;345;4082;174;2;0.4986149;-0.4986149;-0.4833795;-0.5187587;0;-2;0;-149;4084;-107;8;0.6966759;-0.7053792;0.05955679;0.1163435;-2;-1;0;-255;4117;73;0.4889222;2.840568;0.01575003;0.4948826;3.383724;0.06641173;0.5001239;3.861346;0.1089293;0.4868549;4.586515;0.2203614;0.2221958;4.909876;0.2322205;-0.1163349;4.755466;0.2733724;-0.7484275;4.28568;-0.2145714;-0.7499452;4.050181;-1.13236;0.7424524;4.919408;0.2321682;1.034041;4.776538;0.2732572;1.742911;4.206743;-0.04472478;2.030258;3.949757;-0.9102749;0.1766775;2.799396;0.003902688;0.1501779;1.337177;-0.041616;0;0;0;0.1766775;2.799396;0.003902688;0.1501779;1.337177;-0.041616;0;0;0
1276653.8468;NotLabelled;NONE;16384;0.8309257;-0.09418282;0.4639889;0.2922437;-73;-30;57;1140;1858;3205;65536;0.9579692;-0.05401662;0.01800554;0.2811634;92;15;-105;-2102;1522;-2303;8192;0.7839972;-0.1080332;-0.534626;-0.2963989;-82;22;-51;-1238;2035;3021;32768;0.958995;-0.0235457;-0.1426593;-0.2437673;99;-35;70;2053;1413;-2349;256;0.0166205;-0.006925208;-0.6468144;-0.7624349;9;0;2;-71;4054;-773;128;0.0235457;0.06371191;0.5720221;0.817421;-4;-2;-2;-497;3871;1510;4;0.5417373;-0.5166205;0.466759;0.4709141;0;-2;0;175;4136;74;16;0.6842105;-0.7178071;-0.04570637;-0.1204986;-2;0;0;399;4072;184;2;0.4986149;-0.5;-0.4833795;-0.5174239;0;-1;1;-151;4056;-105;8;0.6952909;-0.7067445;0.05955679;0.1163435;-2;-2;0;-307;4105;81;0.4889219;2.840527;0.01590704;0.4948804;3.383509;0.06841318;0.50012;3.860984;0.1125526;0.4867656;4.58532;0.2292661;0.2220671;4.908554;0.24349;-0.1164431;4.753805;0.2835271;-0.7576066;4.334229;-0.2372359;-0.740001;4.188089;-1.173254;0.7423227;4.918149;0.2434895;1.033931;4.775021;0.2835266;1.778928;4.278199;-0.07203327;2.061387;4.134691;-0.9650115;0.1766776;2.799396;0.003908354;0.1501794;1.337177;-0.04161117;0;0;0;0.1766776;2.799396;0.003908354;0.1501794;1.337177;-0.04161117;0;0;0
1276694.9352;NotLabelled;NONE;16384;0.837988;-0.06786703;0.4584487;0.2880886;-68;-16;50;1768;1596;3089;65536;0.9626418;-0.01939058;0;0.2700831;94;49;-73;-324;676;-2675;8192;0.7885292;-0.09556787;-0.5318559;-0.2936288;-81;17;-45;-1162;1997;3139;32768;0.9626617;-0.008310249;-0.1357341;-0.234072;98;-48;66;1609;1357;-3037;256;0.01523546;-0.006925208;-0.6440443;-0.7648051;10;2;1;-43;4098;-863;128;0.0235457;0.06371191;0.5706371;0.8183885;-3;-1;-1;-485;3895;1508;4;0.5417373;-0.5166205;0.466759;0.4709141;0;-1;0;199;4024;34;16;0.6842105;-0.7178071;-0.04570637;-0.1204986;-2;0;-1;415;4046;246;2;0.4986149;-0.5;-0.4833795;-0.5174239;0;-2;1;-201;4060;-99;8;0.6952909;-0.7067445;0.05955679;0.1163435;-2;-2;0;-383;4111;75;0.4889286;2.840527;0.0155844;0.4948871;3.383509;0.06809057;0.5001268;3.860984;0.11223;0.4882641;4.584906;0.2316425;0.2242296;4.908626;0.2470887;-0.1145946;4.754424;0.286572;-0.7609637;4.35761;-0.2454757;-0.7346741;4.249883;-1.186487;0.7445036;4.917155;0.2470886;1.03582;4.773281;0.2865721;1.792011;4.301336;-0.07910423;2.069404;4.192572;-0.9785545;0.1766844;2.799396;0.003585556;0.150103;1.337177;-0.04188544;0;0;0;0.1766844;2.799396;0.003585556;0.150103;1.337177;-0.04188544;0;0;0
1276715.857;NotLabelled;NONE;16384;0.8415424;-0.0567867;0.4542936;0.2867036;-66;-12;51;1738;1520;3069;65536;0.964354;-0.002770083;-0.005540166;0.2645429;91;29;-59;-612;720;-2723;8192;0.7924011;-0.08310249;-0.5304709;-0.2894737;-80;16;-39;-1308;2039;3101;32768;0.9654276;0.005540166;-0.1301939;-0.2257618;105;-29;58;575;1221;-3695;256;0.01523546;-0.006925208;-0.6426592;-0.7659693;8;0;2;-111;4068;-859;128;0.0235457;0.06371191;0.5692521;0.8193525;-4;-1;-1;-421;3841;1594;4;0.5417373;-0.5166205;0.466759;0.4709141;0;-1;0;125;4070;90;16;0.6842105;-0.7178071;-0.04570637;-0.1204986;-2;0;0;401;4088;266;2;0.4986149;-0.5;-0.4833795;-0.5174239;0;-2;2;-119;4114;-157;8;0.6952909;-0.7067445;0.05955679;0.1163435;-1;-1;0;-309;4077;109;0.4889347;2.840486;0.0154091;0.4948913;3.383286;0.06975717;0.5001293;3.860609;0.1155164;0.4897288;4.583657;0.2402383;0.2263445;4.907784;0.2580913;-0.1127837;4.753974;0.2964832;-0.7718168;4.403307;-0.2521848;-0.7332786;4.367861;-1.198258;0.7466347;4.915271;0.2580905;1.037667;4.770528;0.2964821;1.801689;4.320957;-0.08091709;2.073111;4.245516;-0.9855863;0.1766909;2.799396;0.003259298;0.1500255;1.337177;-0.04216253;0;0;0;0.1766909;2.799396;0.003259298;0.1500255;1.337177;-0.04216253;0;0;0
1276777.9748;NotLabelled;NONE;16384;0.8500037;-0.02493075;0.4473684;0.2770083;-59;-15;27;1262;910;3253;65536;0.9649814;0.03601108;-0.02077562;0.2590028;70;7;-47;-1396;198;-3095;8192;0.8023444;-0.033241;-0.5290859;-0.2742382;-76;25;-25;-1538;1463;3333;32768;0.9693797;0.07063711;-0.1177285;-0.2036011;98;-26;37;1321;129;-3003;256;0.01385042;-0.006925208;-0.6398892;-0.7683111;6;3;1;-73;3980;-881;128;0.02493075;0.06371191;0.567867;0.8202721;-2;1;-2;-453;3833;1526;4;0.5402887;-0.5193906;0.466759;0.4695291;0;1;-3;151;4068;28;16;0.6828254;-0.7190354;-0.04709141;-0.1204986;-1;0;0;359;4054;260;2;0.4986149;-0.501385;-0.4833795;-0.5160819;0;0;2;-11;4086;-139;8;0.6939058;-0.7081045;0.05955679;0.1163435;-2;1;0;-339;4089;143;0.4889341;2.840445;0.01555538;0.4948885;3.383058;0.07174222;0.5001249;3.860223;0.1191184;0.4896913;4.582815;0.2464562;0.2262903;4.90686;0.2654955;-0.1128274;4.752893;0.3033482;-0.7742397;4.422437;-0.2549179;-0.7341189;4.420079;-1.201587;0.74658;4.914376;0.2654949;1.037622;4.769511;0.3033474;1.811463;4.343246;-0.0810279;2.079583;4.297608;-0.9886712;0.1766907;2.799396;0.003254741;0.1500243;1.337177;-0.04216643;0;0;0;0.1766907;2.799396;0.003254741;0.1500243;1.337177;-0.04216643;0;0;0
1276799.0807;NotLabelled;NONE;16384;0.8506828;-0.01523546;0.4473684;0.2756233;-55;-24;27;1366;932;3129;65536;0.9651116;0.04847645;-0.0235457;0.2562327;79;21;-44;-2036;232;-3321;8192;0.8036679;-0.02216066;-0.5290859;-0.2714681;-76;33;-23;-1520;1501;3441;32768;0.9699119;0.08587258;-0.1149584;-0.1966759;93;-23;38;1469;1;-2929;256;0.01385042;-0.006925208;-0.6385041;-0.7694626;7;2;3;-25;4026;-841;128;0.02493075;0.06371191;0.567867;0.8202721;0;1;-1;-479;3863;1556;4;0.5414822;-0.5193906;0.4653739;0.4695291;0;2;-3;199;4068;32;16;0.6828254;-0.7190354;-0.04709141;-0.1204986;-1;1;0;365;4076;216;2;0.4972299;-0.501385;-0.4833795;-0.5174164;0;2;2;-95;4066;-89;8;0.6939058;-0.7081045;0.05955679;0.1163435;-1;0;0;-321;4077;79;0.4836564;2.840732;0.001729706;0.4896088;3.383154;0.05972751;0.4948432;3.860159;0.1086962;0.4858801;4.581821;0.2413041;0.2231356;4.90625;0.2627348;-0.1162889;4.752697;0.2994987;-0.791818;4.483225;-0.2744131;-0.7447168;4.559203;-1.217708;0.7434394;4.912715;0.2627345;1.034192;4.766992;0.2994986;1.844851;4.432382;-0.09942746;2.114177;4.516647;-1.003944;0.1714135;2.799725;-0.01071926;0.1481151;1.337207;-0.04759214;0;0;0;0.1714135;2.799725;-0.01071926;0.1481151;1.337207;-0.04759214;0;0;0
1276819.8693;NotLabelled;NONE;16384;0.8515359;0.004155125;0.4459834;0.2756233;-51;-20;22;1766;860;3197;65536;0.9649854;0.07617728;-0.02908587;0.2493075;78;26;-42;-1768;-372;-2655;8192;0.804845;-0.009695291;-0.5290859;-0.2686981;-78;20;-19;-1656;1217;3285;32768;0.9697447;0.09972299;-0.1121884;-0.1925208;82;-15;39;1227;-395;-2741;256;0.01385042;-0.006925208;-0.6371191;-0.7706097;6;1;0;-83;3936;-717;128;0.02493075;0.06371191;0.566482;0.8212292;-3;-1;0;-443;3871;1444;4;0.5426801;-0.5193906;0.4653739;0.468144;0;2;-3;123;4036;68;16;0.6828254;-0.7190354;-0.04709141;-0.1204986;-1;1;0;415;4028;206;2;0.4972299;-0.501385;-0.4847645;-0.516119;0;2;2;-119;4110;-95;8;0.6939058;-0.7081045;0.05955679;0.1163435;-1;0;0;-317;4085;83;0.4829848;2.840643;0.005486477;0.4889372;3.383066;0.0634843;0.4941717;3.86007;0.112453;0.4851778;4.58125;0.2476598;0.2224176;4.905586;0.2702706;-0.1169974;4.751884;0.3064964;-0.7981592;4.498809;-0.2682217;-0.7519346;4.598829;-1.209315;0.7427211;4.912078;0.2702703;1.033483;4.766237;0.3064963;1.85151;4.451501;-0.09356347;2.120502;4.56642;-0.9947988;0.1707418;2.799636;-0.006962536;0.1481141;1.337208;-0.04759542;0;0;0;0.1707418;2.799636;-0.006962536;0.1481141;1.337208;-0.04759542;0;0;0
1276839.8579;NotLabelled;NONE;16384;0.8519019;0.01246537;0.4459834;0.2742382;-53;-18;20;1718;834;3499;65536;0.9652488;0.08864266;-0.03185596;0.2437673;66;32;-46;-1920;-648;-2461;8192;0.8061763;0.01246537;-0.5304709;-0.2617728;-70;19;-16;-1588;987;3163;32768;0.9698209;0.1218837;-0.1080332;-0.1814404;61;-38;30;2279;-1045;-2433;256;0.01385042;-0.006925208;-0.6357341;-0.7717528;7;1;0;-71;4022;-725;128;0.02493075;0.06371191;0.566482;0.8212292;-2;-1;0;-447;3849;1450;4;0.5413511;-0.5207756;0.4653739;0.468144;1;3;-3;181;4060;-12;16;0.6828254;-0.7187098;-0.04847645;-0.1218837;-2;7;0;289;4034;274;2;0.4958449;-0.501385;-0.4847645;-0.5174498;0;2;3;-139;4120;-125;8;0.6939058;-0.7081045;0.05955679;0.1163435;-1;0;0;-335;4147;75;0.4867185;2.840535;0.005724708;0.4926687;3.382759;0.06555604;0.4979013;3.859594;0.1161372;0.4888877;4.580283;0.2539378;0.226114;4.904522;0.2777478;-0.1132886;4.750673;0.3134628;-0.8029318;4.526922;-0.2633011;-0.7593291;4.679896;-1.197375;0.746417;4.911041;0.277706;1.03719;4.765086;0.3133709;1.86299;4.471076;-0.08649124;2.131037;4.613337;-0.9840994;0.174476;2.79957;-0.00687442;0.1481093;1.337208;-0.04761055;0;0;0;0.174476;2.79957;-0.00687442;0.1481093;1.337208;-0.04761055;0;0;0
1276860.9818;NotLabelled;NONE;16384;0.8525918;0.02216066;0.4459834;0.2714681;-59;-10;15;1860;670;3409;65536;0.9654047;0.09972299;-0.03601108;0.2382271;61;46;-41;-1916;-768;-2619;8192;0.8068625;0.02216066;-0.5304709;-0.2590028;-70;14;-13;-1908;871;2883;32768;0.9705644;0.1301939;-0.1052632;-0.1731302;58;-58;25;1409;-921;-2315;256;0.01246537;-0.006925208;-0.6357341;-0.7717764;7;2;-1;-63;4094;-793;128;0.02493075;0.06371191;0.566482;0.8212292;-3;0;0;-481;3821;1462;4;0.5412129;-0.5221606;0.4653739;0.466759;1;4;-3;119;4078;86;16;0.6814404;-0.7199286;-0.04986149;-0.1218837;-2;6;0;505;4098;238;2;0.4958449;-0.501385;-0.4861496;-0.5161487;0;2;2;-105;4100;-163;8;0.6939058;-0.7081045;0.05955679;0.1163435;-1;0;0;-343;4115;101;0.483135;2.840741;0.002319627;0.4890852;3.382965;0.06215096;0.4943178;3.8598;0.1127321;0.485263;4.579989;0.2531196;0.2224721;4.904128;0.2780847;-0.116924;4.750134;0.3132353;-0.8109796;4.542597;-0.2642973;-0.7673213;4.719386;-1.194155;0.7427748;4.910673;0.2780842;1.033554;4.764605;0.3132347;1.874294;4.51267;-0.08420701;2.140086;4.699457;-0.9742922;0.1708926;2.799776;-0.01027946;0.1481145;1.337239;-0.04669786;0;0;0;0.1708926;2.799776;-0.01027946;0.1481145;1.337239;-0.04669786;0;0;0
1276881.849;NotLabelled;NONE;16384;0.8532125;0.03047091;0.4459834;0.2686981;-56;-6;13;1942;574;3293;65536;0.966104;0.1108033;-0.03878116;0.2299169;56;48;-41;-2012;-748;-2751;8192;0.8078604;0.03185596;-0.5304709;-0.2548476;-61;6;-16;-2022;721;3163;32768;0.9710949;0.1385041;-0.1052632;-0.1634349;55;-50;18;665;-1045;-2763;256;0.01246537;-0.006925208;-0.634349;-0.7729152;5;4;-2;-21;4000;-707;128;0.02493075;0.06371191;0.566482;0.8212292;-2;0;1;-491;3893;1400;4;0.5424008;-0.5221606;0.4639889;0.466759;0;5;-2;115;4110;40;16;0.6814404;-0.7196927;-0.04986149;-0.1232687;-2;5;-1;397;4042;262;2;0.4958449;-0.501385;-0.4861496;-0.5161487;0;2;1;-55;4106;-153;8;0.6939058;-0.7081045;0.05955679;0.1163435;-2;0;1;-375;4093;131;0.4814345;2.840848;-0.007343799;0.4873846;3.383072;0.05248762;0.4926173;3.859907;0.1030688;0.4851019;4.580104;0.2435064;0.2230043;4.904801;0.2684942;-0.1167201;4.751532;0.3036346;-0.8182123;4.561615;-0.2709692;-0.772774;4.760242;-1.196323;0.7433199;4.910234;0.2684937;1.033787;4.763543;0.3036338;1.878635;4.529514;-0.09603766;2.138649;4.734369;-0.9838524;0.169192;2.799883;-0.01994293;0.1462069;1.33725;-0.05209651;0;0;0;0.169192;2.799883;-0.01994293;0.1462069;1.33725;-0.05209651;0;0;0
1276901.851;NotLabelled;NONE;16384;0.8530181;0.03878116;0.4473684;0.265928;-52;0;11;1962;426;3229;65536;0.9667094;0.1204986;-0.04293629;0.2216066;53;48;-46;-1504;-846;-3055;8192;0.8087896;0.0401662;-0.5304709;-0.2506925;-60;8;-11;-1934;857;3107;32768;0.9710149;0.1468144;-0.1052632;-0.1565097;55;-25;13;597;-1261;-3131;256;0.01246537;-0.005540166;-0.634349;-0.7729264;5;2;-1;13;4054;-771;128;0.02493075;0.06371191;0.5650969;0.8221829;-1;3;1;-569;3843;1456;4;0.5422558;-0.5235457;0.4639889;0.4653739;0;3;-1;27;4104;12;16;0.6800554;-0.7205665;-0.05263158;-0.1246537;-3;6;-1;379;4052;310;2;0.4958449;-0.501385;-0.4861496;-0.5161487;0;3;1;-53;4144;-79;8;0.6925207;-0.7094591;0.05955679;0.1163435;-2;-1;1;-345;4079;149;0.4833351;2.840525;-0.002614088;0.4892853;3.382748;0.05721725;0.494518;3.859584;0.1077984;0.4869736;4.579272;0.2508178;0.2248615;4.903865;0.2769796;-0.1148543;4.750454;0.3115826;-0.8199071;4.575987;-0.2635618;-0.7727532;4.795673;-1.184057;0.7451769;4.909323;0.2769792;1.035652;4.76252;0.3115824;1.886838;4.547858;-0.08550206;2.147013;4.770072;-0.9690841;0.1710927;2.799559;-0.01521319;0.1487875;1.337003;-0.05111627;0;0;0;0.1710927;2.799559;-0.01521319;0.1487875;1.337003;-0.05111627;0;0;0
1276921.9914;NotLabelled;NONE;16384;0.8535925;0.05401662;0.4487534;0.2590028;-43;-13;16;1976;438;3293;65536;0.967007;0.1412742;-0.04847645;0.2063712;64;39;-19;-888;-1440;-3603;8192;0.8082783;0.04847645;-0.5318559;-0.2479224;-57;3;-13;-2112;609;3245;32768;0.9705999;0.1551246;-0.1052632;-0.1509695;60;-28;8;1291;-1191;-3993;256;0.01108033;-0.005540166;-0.632964;-0.7740821;5;2;0;-11;3982;-793;128;0.02631579;0.06232687;0.566482;0.8212923;-1;3;2;-523;3831;1372;4;0.543286;-0.5249307;0.4626039;0.4639889;0;2;-2;-19;4036;26;16;0.6800554;-0.7205665;-0.05263158;-0.1246537;-3;4;0;375;4114;306;2;0.4944598;-0.501385;-0.4875346;-0.516171;0;1;1;7;4090;-83;8;0.6925207;-0.7094591;0.05955679;0.1163435;-2;1;1;-321;4099;155;0.481631;2.840609;-0.01126506;0.487579;3.382627;0.05039738;0.4928097;3.859289;0.1025888;0.4840005;4.578963;0.2456112;0.2213184;4.903094;0.2717743;-0.1181272;4.749087;0.3063768;-0.8304198;4.58935;-0.2641073;-0.7800294;4.828058;-1.179681;0.7416232;4.909467;0.2717739;1.032356;4.763175;0.3063764;1.887463;4.565754;-0.09123166;2.146268;4.804621;-0.9708623;0.1693891;2.799687;-0.02401393;0.1468704;1.337034;-0.05563286;0;0;0;0.1693891;2.799687;-0.02401393;0.1468704;1.337034;-0.05563286;0;0;0
1276942.8671;NotLabelled;NONE;16384;0.8537531;0.06232687;0.4473684;0.2590028;-46;-19;23;2158;426;3335;65536;0.9666271;0.1537396;-0.04709141;0.199446;77;42;-10;-1112;-1032;-4267;8192;0.8101132;0.06509695;-0.5304709;-0.2409972;-47;10;-21;-1990;509;3399;32768;0.9687442;0.1745152;-0.1108033;-0.1371191;70;-23;-11;407;-1631;-3361;256;0.01108033;-0.004155125;-0.6315789;-0.7752213;4;0;-2;-7;3910;-669;128;0.02631579;0.06232687;0.5650969;0.8222459;-2;0;2;-475;3839;1456;4;0.543286;-0.5249307;0.4626039;0.4639889;0;2;-1;-5;4116;24;16;0.6800554;-0.7205665;-0.05263158;-0.1246537;-3;3;0;367;4104;274;2;0.4944598;-0.501385;-0.4875346;-0.516171;0;2;1;25;4120;-101;8;0.6925207;-0.7094591;0.05955679;0.1163435;-2;0;1;-309;4121;125;0.4810399;2.840672;-0.01221493;0.4869901;3.382903;0.04755054;0.4922229;3.859745;0.09807374;0.4849196;4.578909;0.2437162;0.2229179;4.903495;0.2710522;-0.1168517;4.750075;0.3050835;-0.8407035;4.621524;-0.2586916;-0.7866002;4.899302;-1.162965;0.7432349;4.908774;0.2710901;1.033659;4.761747;0.3051681;1.892741;4.580772;-0.09169447;2.150694;4.835915;-0.9669942;0.1687974;2.799706;-0.02480857;0.1467755;1.337034;-0.05588266;0;0;0;0.1687974;2.799706;-0.02480857;0.1467755;1.337034;-0.05588266;0;0;0
1276963.8574;NotLabelled;NONE;16384;0.8539419;0.07063711;0.4473684;0.2562327;-49;-9;25;2238;282;3351;65536;0.9658219;0.166205;-0.04432133;0.1939058;89;38;-3;-1348;-1324;-3923;8192;0.8107191;0.0734072;-0.5290859;-0.2396122;-48;27;-23;-1700;711;3599;32768;0.9668215;0.1842105;-0.1135734;-0.1357341;62;-2;-14;1281;-1483;-3257;256;0.01108033;-0.004155125;-0.6315789;-0.7752213;4;2;-2;-3;3950;-831;128;0.02631579;0.06232687;0.5650969;0.8222459;-4;0;2;-387;3849;1400;4;0.5431271;-0.5263157;0.4626039;0.4626039;0;2;-2;-3;4050;12;16;0.6786703;-0.7218711;-0.05263158;-0.1246537;-3;3;0;359;4004;326;2;0.4944598;-0.501385;-0.4875346;-0.516171;0;2;0;-77;4088;-123;8;0.6925207;-0.7094591;0.05955679;0.1163435;-1;-1;1;-295;4033;207;0.480984;2.84063;-0.0124432;0.4869321;3.382656;0.04915334;0.492163;3.859324;0.1012868;0.4835894;4.577949;0.2495033;0.2210101;4.901964;0.2780296;-0.1184803;4.747816;0.3115489;-0.8445361;4.631117;-0.2519696;-0.7980241;4.930466;-1.149758;0.7413171;4.908175;0.2780293;1.032007;4.761547;0.3115489;1.897782;4.613028;-0.08424184;2.164248;4.904546;-0.9455202;0.168742;2.799706;-0.02518674;0.1466503;1.337034;-0.05621129;0;0;0;0.168742;2.799706;-0.02518674;0.1466503;1.337034;-0.05621129;0;0;0
1276983.9176;NotLabelled;NONE;16384;0.8550745;0.07894737;0.4445983;0.2548476;-40;-18;31;1968;346;3673;65536;0.9642864;0.1800554;-0.04155125;0.1897507;84;25;0;-1550;-1828;-3257;8192;0.8110941;0.08310249;-0.5277008;-0.2382271;-49;30;-24;-1750;603;3543;32768;0.9650649;0.1925208;-0.1163435;-0.134349;59;-10;-10;2087;-1169;-3353;256;0.01108033;-0.002770083;-0.6301939;-0.7763538;5;1;-2;-37;3984;-841;128;0.02631579;0.06094183;0.5650969;0.8223497;-3;2;3;-401;3887;1432;4;0.5431271;-0.5263157;0.4626039;0.4626039;0;2;-2;-13;4106;10;16;0.6786703;-0.7215282;-0.05401662;-0.1260388;-2;3;0;375;4076;384;2;0.4944598;-0.501385;-0.4875346;-0.516171;0;2;1;-55;4104;-137;8;0.6911357;-0.7108084;0.05955679;0.1163435;-1;0;1;-363;4103;241;0.4818462;2.840409;-0.02175505;0.4877942;3.382435;0.0398415;0.4930251;3.859103;0.09197497;0.4844515;4.577727;0.2401915;0.2218722;4.901743;0.2687179;-0.1176182;4.747595;0.3022372;-0.8475485;4.646362;-0.2592632;-0.8092893;4.966781;-1.150142;0.7421791;4.907954;0.2687174;1.032869;4.761326;0.3022369;1.90079;4.627915;-0.09423527;2.173803;4.936141;-0.9476101;0.1696042;2.799485;-0.03449871;0.1473878;1.336731;-0.06126414;0;0;0;0.1696042;2.799485;-0.03449871;0.1473878;1.336731;-0.06126414;0;0;0
1277003.9907;NotLabelled;NONE;16384;0.8557024;0.08725762;0.4418283;0.2548476;-45;-36;35;1836;400;3877;65536;0.961934;0.1925208;-0.0401662;0.1897507;77;-3;-10;-1924;-1752;-3159;8192;0.8111001;0.09141274;-0.5263157;-0.2382271;-47;24;-20;-2104;339;3511;32768;0.9630312;0.200831;-0.1191136;-0.134349;54;-12;1;2515;-1427;-3167;256;0.01108033;-0.002770083;-0.6301939;-0.7763538;5;2;-3;-71;4024;-875;128;0.02631579;0.05955679;0.5650969;0.8224512;-1;3;3;-479;3913;1552;4;0.542961;-0.5277008;0.4626039;0.4612188;0;2;-3;-71;4118;62;16;0.6772853;-0.7228285;-0.05401662;-0.1260388;-2;2;0;399;4036;400;2;0.4930748;-0.501385;-0.4889196;-0.5161859;0;1;1;-23;4086;-91;8;0.6911357;-0.7108084;0.05955679;0.1163435;-1;2;1;-265;4109;181;0.4817981;2.84045;-0.02119109;0.4877462;3.38248;0.04036798;0.4929772;3.859152;0.09246849;0.48313;4.577226;0.2432534;0.2199751;4.900669;0.2729493;-0.1192385;4.745796;0.305932;-0.8506455;4.660334;-0.2562684;-0.8233411;5.004234;-1.138756;0.7402701;4.907807;0.2729487;1.031223;4.761578;0.3059312;1.9008;4.645419;-0.09233592;2.178148;4.967823;-0.9390485;0.1695561;2.799525;-0.03393146;0.1472818;1.336771;-0.06064865;0;0;0;0.1695561;2.799525;-0.03393146;0.1472818;1.336771;-0.06064865;0;0;0
1277024.8593;NotLabelled;NONE;16384;0.8553448;0.1080332;0.4362881;0.2576177;-45;-30;33;2344;174;3251;65536;0.955774;0.2146814;-0.04155125;0.1966759;76;-15;-27;-2054;-1430;-3431;8192;0.8109297;0.09972299;-0.5263157;-0.2354571;-50;11;-19;-2070;241;3535;32768;0.9614713;0.2091413;-0.1204986;-0.1315789;46;-30;11;2575;-1645;-2831;256;0.01108033;-0.001385042;-0.6288089;-0.7774797;3;2;-4;-87;4050;-853;128;0.02631579;0.05955679;0.5650969;0.8224512;-2;0;4;-503;3995;1442;4;0.542961;-0.5277008;0.4626039;0.4612188;0;1;-2;-107;4052;6;16;0.6772853;-0.7225856;-0.05401662;-0.1274238;-2;0;0;407;4022;336;2;0.4930748;-0.501385;-0.4889196;-0.5161859;0;1;2;9;4106;-107;8;0.6911357;-0.710691;0.06094183;0.1163435;-1;1;0;-265;4073;205;0.4826505;2.840201;-0.03050857;0.4885987;3.382236;0.03101357;0.4938295;3.858911;0.08308162;0.4839825;4.576985;0.2338666;0.2208276;4.900428;0.2635624;-0.118386;4.745555;0.2965452;-0.8498105;4.674671;-0.2676556;-0.8298544;5.039994;-1.14169;0.7411225;4.907567;0.2635618;1.032075;4.761338;0.2965444;1.903345;4.658804;-0.1017653;2.187279;4.994926;-0.9409262;0.1704085;2.799276;-0.04324596;0.148017;1.336452;-0.06569245;0;0;0;0.1704085;2.799276;-0.04324596;0.148017;1.336452;-0.06569245;0;0;0
1277045.8492;NotLabelled;NONE;16384;0.8556632;0.1163435;0.433518;0.2576177;-41;-22;35;2506;-24;3183;65536;0.9521876;0.2271468;-0.04432133;0.199446;85;-19;-36;-2270;-1332;-3861;8192;0.8117915;0.1149584;-0.5249307;-0.2285319;-55;1;-19;-2344;361;3435;32768;0.9596309;0.2229917;-0.1191136;-0.1232687;41;-13;17;1345;-1865;-3543;256;0.01246537;-0.001385042;-0.6288089;-0.7774588;2;2;-2;-87;4150;-733;128;0.02631579;0.05817174;0.5650969;0.8225503;3;-3;3;-633;3955;1322;4;0.5427879;-0.5290859;0.4626039;0.4598338;0;1;-2;-23;4082;108;16;0.6772853;-0.7225856;-0.05401662;-0.1274238;-2;0;0;361;4076;378;2;0.4916897;-0.501385;-0.4889196;-0.5175054;1;0;2;27;4146;-97;8;0.6911357;-0.7110338;0.05955679;0.1149584;0;2;0;-283;4093;165;0.4851519;2.83996;-0.02989267;0.4911;3.381994;0.03162944;0.4963309;3.858669;0.08369744;0.4852177;4.576181;0.2370457;0.2214908;4.899049;0.2679089;-0.1174454;4.743458;0.300355;-0.8513714;4.705822;-0.263795;-0.8423414;5.11008;-1.120703;0.7417724;4.907111;0.2679086;1.032986;4.761282;0.3003547;1.906501;4.674511;-0.09678204;2.191681;5.025461;-0.929424;0.1729099;2.799034;-0.0426301;0.1504699;1.33621;-0.06502764;0;0;0;0.1729099;2.799034;-0.0426301;0.1504699;1.33621;-0.06502764;0;0;0
1277066.9988;NotLabelled;NONE;16384;0.8563848;0.1260388;0.4293629;0.2576177;-39;-23;38;2030;-228;3241;65536;0.948351;0.2409972;-0.04709141;0.200831;92;-5;-39;-1870;-1556;-3623;8192;0.8126252;0.1232687;-0.5235457;-0.2243767;-50;0;-21;-2406;163;3479;32768;0.9585188;0.2299169;-0.1177285;-0.1204986;49;-4;13;961;-1789;-4227;256;0.01108033;0;-0.6288089;-0.777481;0;4;-2;-33;4034;-925;128;0.02631579;0.05817174;0.5650969;0.8225503;0;2;2;-497;3987;1476;4;0.5427879;-0.5290859;0.4626039;0.4598338;0;2;-2;-27;4114;98;16;0.6759003;-0.7238813;-0.05401662;-0.1274238;-1;1;0;399;4050;344;2;0.4916897;-0.5027701;-0.4889196;-0.5161599;1;0;1;-37;4148;-203;8;0.6911357;-0.7110338;0.05955679;0.1149584;0;0;0;-263;4119;177;0.485343;2.840018;-0.03387563;0.4912912;3.382057;0.02760981;0.4965221;3.858736;0.07964557;0.4838634;4.576231;0.2329515;0.2194417;4.898532;0.2637948;-0.1191589;4.742214;0.2962489;-0.8509285;4.719178;-0.2714758;-0.8417192;5.145737;-1.117501;0.7397046;4.907713;0.2637956;1.031231;4.762515;0.2962512;1.910255;4.707396;-0.09433082;2.193702;5.085027;-0.9158174;0.173101;2.799091;-0.04661007;0.1505831;1.33621;-0.06476494;0;0;0;0.173101;2.799091;-0.04661007;0.1505831;1.33621;-0.06476494;0;0;0
1277088.8409;NotLabelled;NONE;16384;0.8571942;0.134349;0.4252077;0.2576177;-39;-27;36;2054;2;3239;65536;0.9442114;0.2548476;-0.05124654;0.2022161;96;-14;-47;-2064;-1716;-3031;8192;0.8135725;0.1301939;-0.5221606;-0.2202216;-50;0;-26;-2226;31;3383;32768;0.9566607;0.2382271;-0.1177285;-0.1191136;63;0;10;1409;-1831;-4289;256;0.01108033;0;-0.6288089;-0.777481;0;3;-3;-117;4044;-831;128;0.02631579;0.0567867;0.5650969;0.8226471;2;1;1;-445;3951;1428;4;0.5439582;-0.5290859;0.4626039;0.4584487;0;2;-2;11;4090;118;16;0.6759003;-0.7238813;-0.05401662;-0.1274238;-1;1;0;401;4076;390;2;0.4916897;-0.5027701;-0.4889196;-0.5161599;0;1;1;-19;4076;-169;8;0.6911357;-0.7110338;0.05955679;0.1149584;-1;0;0;-299;4067;219;0.4860791;2.839681;-0.03890985;0.4920273;3.38172;0.02257555;0.4972583;3.858399;0.07461128;0.4842979;4.57589;0.2279146;0.2198907;4.898298;0.2577498;-0.1188979;4.742116;0.288875;-0.8480204;4.736906;-0.2826864;-0.840251;5.187876;-1.115971;0.7401535;4.907265;0.2597766;1.031492;4.761944;0.2933574;1.912724;4.72446;-0.09432718;2.193719;5.115141;-0.9105361;0.1738371;2.798755;-0.05164431;0.151319;1.335873;-0.06979914;0;0;0;0.1738371;2.798755;-0.05164431;0.151319;1.335873;-0.06979914;0;0;0
1277108.8402;NotLabelled;NONE;16384;0.8571729;0.1523546;0.4182825;0.2590028;-43;-42;40;2544;56;3409;65536;0.9344084;0.2825485;-0.06232687;0.2077562;66;-42;-50;-1262;-2808;-1749;8192;0.8142018;0.1385041;-0.5207756;-0.2160665;-48;8;-33;-2092;-33;3259;32768;0.954366;0.2479224;-0.1177285;-0.1177285;72;0;9;1783;-1775;-3849;256;0.01108033;0;-0.6288089;-0.777481;1;1;-4;-73;4040;-797;128;0.02631579;0.0567867;0.5650969;0.8226471;3;2;3;-507;3869;1468;4;0.5426076;-0.5304709;0.4626039;0.4584487;0;3;-1;-63;4068;94;16;0.6759003;-0.7235314;-0.05540166;-0.1288089;-2;1;0;403;4070;306;2;0.4916897;-0.5027701;-0.4889196;-0.5161599;0;1;1;-7;4072;-191;8;0.6911357;-0.7109164;0.06094183;0.1149584;0;0;0;-305;4141;199;0.4896047;2.839619;-0.03953772;0.4955529;3.381661;0.02191154;0.5007839;3.858345;0.07391549;0.4884208;4.575835;0.2272682;0.2241318;4.898242;0.2581334;-0.1145331;4.742061;0.2905784;-0.8460644;4.751885;-0.2778355;-0.8406088;5.227465;-1.097342;0.7443985;4.90721;0.2581331;1.035866;4.761889;0.2905784;1.914851;4.740602;-0.1033843;2.193419;5.145849;-0.913299;0.1773626;2.798692;-0.05226916;0.1510458;1.335873;-0.07038809;0;0;0;0.1773626;2.798692;-0.05226916;0.1510458;1.335873;-0.07038809;0;0;0
1277129.2496;NotLabelled;NONE;16384;0.8569927;0.1620499;0.4141274;0.2603878;-43;-22;41;2774;-142;3483;65536;0.9305315;0.2908587;-0.06786703;0.2119114;44;-36;-49;-1576;-2658;-1829;8192;0.8157578;0.1468144;-0.5166205;-0.2146814;-45;24;-35;-2166;-25;3533;32768;0.9517574;0.2590028;-0.1177285;-0.1149584;65;-22;9;2033;-2117;-3003;256;0.01108033;0.001385042;-0.6288089;-0.7774797;3;2;-3;-161;3960;-819;128;0.02631579;0.05540166;0.566482;0.8217884;3;1;4;-459;3855;1478;4;0.5437748;-0.5304709;0.4626039;0.4570637;0;3;0;-99;4084;114;16;0.6759003;-0.7235314;-0.05540166;-0.1288089;-1;2;0;405;4012;356;2;0.4903047;-0.5027701;-0.4903047;-0.5161636;0;0;1;11;4086;-135;8;0.6911357;-0.7109164;0.06094183;0.1149584;0;0;0;-255;4115;187;0.4860229;2.839772;-0.04292692;0.4919711;3.381815;0.01852234;0.4972021;3.858498;0.07052629;0.484839;4.575989;0.223879;0.22055;4.898396;0.2547441;-0.1181148;4.742215;0.2871892;-0.8476055;4.782867;-0.2824771;-0.8374887;5.307667;-1.071325;0.7408167;4.907364;0.2547438;1.032284;4.762043;0.2871892;1.91219;4.75871;-0.1052765;2.19166;5.180765;-0.906247;0.1737808;2.798845;-0.05565836;0.1510902;1.335919;-0.0694319;0;0;0;0.1737808;2.798845;-0.05565836;0.1510902;1.335919;-0.0694319;0;0;0
1277149.8662;NotLabelled;NONE;16384;0.8582152;0.1703601;0.4099723;0.2576177;-47;-3;42;2714;-322;3435;65536;0.9274712;0.299169;-0.0734072;0.2119114;37;1;-44;-1752;-2598;-1853;8192;0.8172461;0.1648199;-0.5110803;-0.2091413;-56;12;-35;-2294;-111;3575;32768;0.9477338;0.2756233;-0.1177285;-0.1094183;45;2;8;701;-2297;-2813;256;0.01108033;0.001385042;-0.6274238;-0.7785979;2;0;0;-237;4054;-877;128;0.02631579;0.05401662;0.566482;0.8218806;3;2;2;-395;3903;1396;4;0.5437748;-0.5304709;0.4626039;0.4570637;0;3;0;-73;4126;64;16;0.6745152;-0.7248229;-0.05540166;-0.1288089;-1;1;0;429;4060;378;2;0.4903047;-0.5027701;-0.4903047;-0.5161636;0;2;0;-1;4130;-197;8;0.6911357;-0.7110338;0.05955679;0.1149584;0;0;0;-273;4073;193;0.4896332;2.839753;-0.04340978;0.4955837;3.382003;0.01617437;0.5008167;3.858862;0.06653812;0.4872038;4.576329;0.2198956;0.2223536;4.898275;0.2507631;-0.1160386;4.741504;0.2832074;-0.8451388;4.798437;-0.2855636;-0.8330941;5.338531;-1.063992;0.7426038;4.90815;0.2507626;1.034324;4.763336;0.2832068;1.911529;4.776597;-0.1150526;2.189677;5.21803;-0.9059744;0.1773907;2.798781;-0.05598858;0.1509405;1.335918;-0.06975725;0;0;0;0.1773907;2.798781;-0.05598858;0.1509405;1.335918;-0.06975725;0;0;0
1277170.8569;NotLabelled;NONE;16384;0.8590809;0.1786704;0.4072022;0.2534626;-52;6;43;2478;-470;3263;65536;0.9256151;0.3060942;-0.07617728;0.2091413;41;31;-38;-1670;-2344;-2537;8192;0.8183076;0.1731302;-0.5083103;-0.2049861;-57;3;-35;-2348;-381;3391;32768;0.9454367;0.2839335;-0.1177285;-0.1080332;49;1;1;1041;-2093;-3211;256;0.01108033;0.002770083;-0.6274238;-0.7785941;2;0;0;-167;4114;-859;128;0.02631579;0.05401662;0.567867;0.8209243;3;1;1;-473;3981;1508;4;0.5424202;-0.5318559;0.4626039;0.4570637;0;2;0;-101;4094;92;16;0.6745152;-0.7248229;-0.05540166;-0.1288089;-1;2;0;345;3980;392;2;0.4889196;-0.5027701;-0.4903047;-0.5174757;0;2;0;39;4122;-167;8;0.6911357;-0.7110338;0.05955679;0.1149584;0;0;0;-285;4141;153;0.4903448;2.839401;-0.04844715;0.4962953;3.381655;0.01110212;0.5015283;3.858517;0.06143518;0.4879106;4.575434;0.2173466;0.2230557;4.897262;0.2493776;-0.1153312;4.740369;0.281286;-0.8418514;4.814994;-0.2887391;-0.8239518;5.370233;-1.056324;0.7433059;4.907147;0.2493776;1.035031;4.762225;0.2812866;1.910825;4.812024;-0.1171854;2.18858;5.282571;-0.8912824;0.1781022;2.798429;-0.06102313;0.1516515;1.335566;-0.07479066;0;0;0;0.1781022;2.798429;-0.06102313;0.1516515;1.335566;-0.07479066;0;0;0
1277190.8518;NotLabelled;NONE;16384;0.8608866;0.1869806;0.4030471;0.2479224;-52;13;43;2518;-660;2927;65536;0.9241352;0.3144044;-0.07894737;0.2022161;42;22;-37;-638;-2376;-2969;8192;0.8195913;0.1814404;-0.5055401;-0.199446;-59;-8;-37;-2486;-439;3377;32768;0.9434685;0.2908587;-0.1191136;-0.1052632;56;-13;-3;961;-1993;-3627;256;0.01108033;0.002770083;-0.6274238;-0.7785941;0;0;-1;-115;4152;-823;128;0.02631579;0.05401662;0.567867;0.8209243;6;-1;0;-445;3993;1428;4;0.54476;-0.5318559;0.4612188;0.4556787;0;1;1;-141;4082;104;16;0.6745152;-0.7248229;-0.05540166;-0.1288089;0;2;0;425;4014;458;2;0.4889196;-0.5027701;-0.4903047;-0.5174757;0;1;0;-31;4158;-167;8;0.6911357;-0.7112563;0.05955679;0.1135734;0;0;0;-287;4033;223;0.4865683;2.839539;-0.05332177;0.4925211;3.381991;0.004394834;0.4977559;3.859021;0.05311626;0.4828922;4.575911;0.2090331;0.2174784;4.897279;0.2410668;-0.1206351;4.739798;0.2729743;-0.8473029;4.832383;-0.2942212;-0.8277173;5.399429;-1.053083;0.7377104;4.908069;0.2410665;1.029687;4.763654;0.2729741;1.90328;4.832087;-0.1275588;2.179746;5.31663;-0.8934377;0.1743254;2.798525;-0.06574763;0.1514899;1.335566;-0.07511736;0;0;0;0.1743254;2.798525;-0.06574763;0.1514899;1.335566;-0.07511736;0;0;0
1277210.9448;NotLabelled;NONE;16384;0.863642;0.2022161;0.3947368;0.2396122;-35;-25;42;1566;-672;3259;65536;0.9191605;0.3282548;-0.08725762;0.199446;48;-38;-16;78;-2218;-3465;8192;0.820742;0.1897507;-0.5027701;-0.1939058;-54;-10;-43;-2270;-559;3191;32768;0.9409673;0.299169;-0.1218837;-0.101108;66;-13;-17;-133;-2207;-3459;256;0.01246537;0.002770083;-0.6274238;-0.7785732;-2;0;0;-121;4050;-847;128;0.02631579;0.05401662;0.5692521;0.8199645;4;-2;1;-435;3907;1366;4;0.5435843;-0.5318559;0.4626039;0.4556787;0;-1;0;-203;4092;72;16;0.6745152;-0.7248229;-0.05540166;-0.1288089;0;0;0;403;4120;472;2;0.4889196;-0.5027701;-0.4903047;-0.5174757;0;0;0;-39;4012;-201;8;0.6897507;-0.7125995;0.05955679;0.1135734;0;0;0;-323;4073;233;0.4896474;2.839458;-0.0495477;0.4956002;3.381911;0.008168911;0.5008351;3.858941;0.05689034;0.4859713;4.57583;0.2128072;0.2205576;4.897198;0.2448409;-0.1175559;4.739717;0.2767484;-0.8408855;4.852246;-0.2911077;-0.8159325;5.433051;-1.039333;0.7407895;4.907988;0.2448405;1.032766;4.763573;0.2767482;1.904699;4.852056;-0.1234743;2.183015;5.348265;-0.8811711;0.1774045;2.798444;-0.06197355;0.1514899;1.335566;-0.0751174;0;0;0;0.1774045;2.798444;-0.06197355;0.1514899;1.335566;-0.0751174;0;0;0
1277231.8466;NotLabelled;NONE;16384;0.8635454;0.2105263;0.3905817;0.2396122;-40;-36;39;1900;-800;3267;65536;0.9161168;0.333795;-0.08864266;0.2036011;55;-40;-3;-700;-2424;-3645;8192;0.8253523;0.2063712;-0.4916897;-0.1855956;-42;24;-53;-2020;-671;3447;32768;0.9336896;0.3171745;-0.132964;-0.09972299;67;23;-51;577;-2121;-2951;256;0.01246537;0.002770083;-0.6288089;-0.777455;-3;0;-1;-91;4040;-857;128;0.02493075;0.05401662;0.5692521;0.8200078;2;0;1;-445;3885;1478;4;0.5435843;-0.5318559;0.4626039;0.4556787;0;-3;0;-171;4042;126;16;0.6745152;-0.7248229;-0.05540166;-0.1288089;0;0;0;415;4036;448;2;0.4889196;-0.5027701;-0.4903047;-0.5174757;0;-1;1;-23;4114;-201;8;0.6897507;-0.7123774;0.05955679;0.1149584;1;0;0;-287;4117;201;0.4904216;2.839517;-0.05310614;0.4963765;3.382162;0.002775148;0.5016131;3.859353;0.04988263;0.4851852;4.576219;0.2057571;0.2190751;4.897015;0.2377417;-0.1187016;4.738806;0.2696189;-0.8325449;4.888498;-0.3016507;-0.7962821;5.493192;-1.030229;0.7392826;4.908926;0.237801;1.031566;4.765143;0.2697507;1.902964;4.874957;-0.1263329;2.18624;5.385014;-0.872914;0.1781782;2.798461;-0.06538169;0.1516288;1.335566;-0.07483646;0;0;0;0.1781782;2.798461;-0.06538169;0.1516288;1.335566;-0.07483646;0;0;0
1277252.8462;NotLabelled;NONE;16384;0.8639674;0.2188366;0.3850415;0.2396122;-41;-27;40;2600;-998;3255;65536;0.9123114;0.3407202;-0.08864266;0.2091413;55;-32;8;-838;-2688;-2725;8192;0.8264625;0.2160665;-0.4861496;-0.1842105;-44;40;-55;-1866;-847;3275;32768;0.9288684;0.3268698;-0.1398892;-0.1038781;65;30;-38;2101;-1651;-2353;256;0.01246537;0.002770083;-0.6288089;-0.777455;-4;0;-1;-131;4010;-927;128;0.02493075;0.05401662;0.5706371;0.8190445;3;-1;0;-411;3821;1476;4;0.5435843;-0.5318559;0.4626039;0.4556787;0;-4;0;-145;4146;124;16;0.6745152;-0.7248229;-0.05540166;-0.1288089;1;-1;0;391;4042;410;2;0.4889196;-0.5027701;-0.4903047;-0.5174757;0;-3;2;-1;4118;-179;8;0.6911357;-0.7110338;0.05955679;0.1149584;0;-1;0;-271;4093;129;0.4904167;2.839516;-0.05311647;0.4963715;3.382158;0.00279916;0.5016081;3.859346;0.04993683;0.4851998;4.576762;0.2032589;0.2190973;4.897676;0.2341101;-0.1186815;4.739589;0.2665615;-0.8306223;4.902461;-0.3034754;-0.7973175;5.516101;-1.024678;0.7393052;4.909577;0.23411;1.031587;4.765903;0.2665618;1.892177;4.914528;-0.1403418;2.195639;5.450545;-0.860331;0.1781733;2.798461;-0.06539491;0.1516233;1.335566;-0.07484765;0;0;0;0.1781733;2.798461;-0.06539491;0.1516233;1.335566;-0.07484765;0;0;0
1277273.8299;NotLabelled;NONE;16384;0.8636642;0.2271468;0.3808864;0.2396122;-41;-19;39;2330;-814;3465;65536;0.9088638;0.3476454;-0.08725762;0.2132964;35;-30;2;-1956;-2932;-917;8192;0.8287145;0.2257618;-0.4778393;-0.1842105;-42;34;-50;-1750;-979;3249;32768;0.9243376;0.3365651;-0.1426593;-0.1094183;64;44;-18;1551;-1535;-2603;256;0.01246537;0.002770083;-0.6288089;-0.777455;-2;1;-1;-23;3990;-1041;128;0.02493075;0.05401662;0.5706371;0.8190445;5;-2;0;-461;3863;1524;4;0.5424025;-0.5318559;0.4639889;0.4556787;-1;-3;0;-21;4048;64;16;0.6745152;-0.7248229;-0.05540166;-0.1288089;1;-1;0;395;4044;378;2;0.4889196;-0.5041551;-0.4916897;-0.5148072;1;-2;2;-49;4074;-173;8;0.6911357;-0.7112563;0.05955679;0.1135734;0;0;0;-319;4115;53;0.4904172;2.839558;-0.05326707;0.4963741;3.382385;0.0008105012;0.5016124;3.85973;0.04633183;0.4852042;4.577147;0.199654;0.2191017;4.89806;0.2305053;-0.1186772;4.739973;0.2629568;-0.8257998;4.918777;-0.3083014;-0.7994833;5.542914;-1.020731;0.7393095;4.909961;0.2305049;1.031591;4.766287;0.2629566;1.88733;4.934094;-0.1467112;2.205996;5.481868;-0.8511131;0.1781733;2.798461;-0.06539468;0.1516234;1.335566;-0.07484756;0;0;0;0.1781733;2.798461;-0.06539468;0.1516234;1.335566;-0.07484756;0;0;0
1277293.8662;NotLabelled;NONE;16384;0.8637986;0.2354571;0.3781163;0.2354571;-47;-6;32;1870;-1042;3181;65536;0.9066079;0.3518005;-0.08725762;0.2160665;23;26;-4;-1630;-2632;-1783;8192;0.829101;0.234072;-0.4736842;-0.1828255;-45;30;-38;-1478;-1045;3083;32768;0.9200743;0.3462604;-0.1426593;-0.1149584;55;29;1;2629;-2169;-1963;256;0.01246537;0.002770083;-0.6288089;-0.777455;-4;0;0;7;4000;-781;128;0.02493075;0.05401662;0.5706371;0.8190445;3;0;0;-515;3839;1474;4;0.5424025;-0.5318559;0.4639889;0.4556787;0;-3;0;-63;4114;98;16;0.6745152;-0.7248229;-0.05540166;-0.1288089;1;-1;0;393;4054;334;2;0.4889196;-0.5041551;-0.4903047;-0.5161265;0;-2;1;-45;4136;-215;8;0.6911357;-0.7110338;0.05955679;0.1149584;0;-1;0;-277;4053;113;0.4910584;2.839565;-0.05701563;0.4970152;3.382392;-0.002938056;0.5022535;3.859738;0.04258327;0.4858453;4.577154;0.1959054;0.2197428;4.898067;0.2267568;-0.118036;4.73998;0.2592082;-0.821932;4.933809;-0.3111341;-0.8041583;5.567787;-1.015089;0.7399507;4.909969;0.2267564;1.032232;4.766294;0.259208;1.880418;4.953495;-0.1577;2.208022;5.513402;-0.8483284;0.1788145;2.798469;-0.06914323;0.1516233;1.335565;-0.07484759;0;0;0;0.1788145;2.798469;-0.06914323;0.1516233;1.335565;-0.07484759;0;0;0
1277313.8571;NotLabelled;NONE;16384;0.8633454;0.2493075;0.3753462;0.2271468;-45;16;25;2374;-1228;2565;65536;0.9083635;0.3628809;-0.07479224;0.1939058;51;105;28;982;-2278;-3827;8192;0.8290767;0.2423823;-0.4695291;-0.1828255;-39;23;-27;-1446;-1307;2971;32768;0.916729;0.3545706;-0.1426593;-0.1163435;54;5;10;1105;-2029;-2043;256;0.01246537;0.002770083;-0.6301939;-0.7763328;-5;0;0;-113;4022;-807;128;0.02493075;0.05401662;0.5706371;0.8190445;2;0;0;-611;3885;1412;4;0.5424025;-0.5318559;0.4639889;0.4556787;0;0;0;5;4014;60;16;0.6745152;-0.7249274;-0.05401662;-0.1288089;1;-2;0;331;4038;352;2;0.4889196;-0.5041551;-0.4903047;-0.5161265;0;-2;0;-35;4164;-117;8;0.6911357;-0.7110338;0.05955679;0.1149584;0;-1;0;-313;4091;121;0.4910584;2.839565;-0.05701563;0.4970152;3.382392;-0.002938056;0.5022535;3.859738;0.04258327;0.4858453;4.577154;0.1959054;0.2197428;4.898067;0.2267568;-0.118036;4.73998;0.2592082;-0.8195153;4.95131;-0.307886;-0.805703;5.591399;-1.006379;0.7399507;4.909969;0.2267564;1.032232;4.766294;0.259208;1.876505;4.9697;-0.1580513;2.208457;5.542294;-0.8360853;0.1788145;2.798469;-0.06914323;0.1516233;1.335565;-0.07484759;0;0;0;0.1788145;2.798469;-0.06914323;0.1516233;1.335565;-0.07484759;0;0;0
1277333.8648;NotLabelled;NONE;16384;0.8637686;0.2548476;0.3739612;0.2216066;-39;6;24;1940;-1346;2587;65536;0.9083349;0.3698061;-0.06509695;0.1842105;54;43;43;418;-2892;-2013;8192;0.8285073;0.2576177;-0.4639889;-0.1786704;-39;11;-24;-1992;-1223;2815;32768;0.9100661;0.3711911;-0.1371191;-0.1232687;54;48;7;1019;-2373;-2477;256;0.01246537;0.002770083;-0.6315789;-0.7752064;-7;0;2;51;3806;-703;128;0.02493075;0.05401662;0.5706371;0.8190445;-1;0;-2;-431;3693;1288;4;0.5424025;-0.5318559;0.4639889;0.4556787;0;0;0;-3;4094;40;16;0.6745152;-0.7249274;-0.05401662;-0.1288089;1;-2;1;419;3974;316;2;0.4889196;-0.5041551;-0.4903047;-0.5161265;0;-1;0;-17;4186;-131;8;0.6911357;-0.7109164;0.06094183;0.1149584;0;-1;0;-301;4147;213;0.4936128;2.839275;-0.05697917;0.4995696;3.382102;-0.002901587;0.5048078;3.859447;0.04261975;0.4884019;4.577406;0.1933821;0.2223036;4.898433;0.2230676;-0.1154811;4.740469;0.2560552;-0.8144842;4.98075;-0.3025041;-0.8112397;5.632839;-0.9899389;0.7425116;4.910323;0.2230669;1.034788;4.76676;0.2560542;1.875392;4.984917;-0.1611593;2.209083;5.56938;-0.8281237;0.1813689;2.798179;-0.06910681;0.1541778;1.335275;-0.07481229;0;0;0;0.1813689;2.798179;-0.06910681;0.1541778;1.335275;-0.07481229;0;0;0
1277355.1043;NotLabelled;NONE;16384;0.8633521;0.2617728;0.3725762;0.2174515;-35;-3;22;1820;-1308;3031;65536;0.9063359;0.3753462;-0.0567867;0.1855956;39;4;39;-1076;-2878;-1609;8192;0.8286103;0.2631579;-0.4612188;-0.1772853;-31;21;-23;-1714;-1315;2821;32768;0.9056848;0.3808864;-0.1357341;-0.1274238;53;23;14;2237;-2511;-1981;256;0.01108033;0.002770083;-0.632964;-0.774097;-3;1;3;-89;3784;-815;128;0.02631579;0.05401662;0.5720221;0.8180344;1;0;-1;-497;3641;1386;4;0.5424025;-0.5318559;0.4639889;0.4556787;0;0;0;11;4048;96;16;0.6759003;-0.7236362;-0.05401662;-0.1288089;2;-1;0;365;4000;406;2;0.4889196;-0.5041551;-0.4916897;-0.5148072;0;0;0;3;4070;-165;8;0.6911357;-0.7109164;0.06094183;0.1149584;1;-2;-1;-255;4109;237;0.4936156;2.839275;-0.05697197;0.4995724;3.382102;-0.002894397;0.5048106;3.859447;0.04262694;0.4884072;4.57794;0.1908237;0.222313;4.899076;0.2193411;-0.1154777;4.741239;0.2528647;-0.8123198;4.995005;-0.3024213;-0.8215718;5.654237;-0.982954;0.7425213;4.910955;0.2193405;1.034792;4.767506;0.2528641;1.869373;5.015427;-0.1597907;2.200043;5.623498;-0.8068559;0.1813717;2.798179;-0.06909964;0.1541809;1.335275;-0.07480606;0;0;0;0.1813717;2.798179;-0.06909964;0.1541809;1.335275;-0.07480606;0;0;0
1277375.3477;NotLabelled;NONE;16384;0.8625985;0.267313;0.3711911;0.2160665;-34;-18;20;1924;-1244;2843;65536;0.9034899;0.3808864;-0.05124654;0.1897507;44;-23;32;-1212;-2472;-1825;8192;0.8276015;0.2686981;-0.4598338;-0.1772853;-30;23;-19;-1706;-1153;2957;32768;0.9023607;0.3891967;-0.132964;-0.1288089;46;19;31;2271;-2499;-2085;256;0.01108033;0.002770083;-0.632964;-0.774097;0;1;2;5;3690;-795;128;0.02631579;0.05401662;0.5706371;0.8190012;1;1;-1;-401;3561;1444;4;0.5424025;-0.5318559;0.4639889;0.4556787;0;0;-1;-1;4116;92;16;0.6759003;-0.7236362;-0.05401662;-0.1288089;2;-1;0;415;4050;372;2;0.4889196;-0.5041551;-0.4916897;-0.5148072;0;0;1;-7;4038;-165;8;0.6911357;-0.710691;0.06094183;0.1163435;0;0;-1;-357;4071;157;0.4928061;2.83967;-0.05238722;0.498765;3.382681;-0.0001851572;0.5040049;3.860181;0.04368693;0.4891303;4.579224;0.189352;0.2237269;4.901033;0.216689;-0.1144109;4.744046;0.2507035;-0.8113797;5.01403;-0.2967198;-0.8392199;5.678626;-0.9715056;0.7439597;4.911788;0.2167455;1.035913;4.767823;0.2508289;1.866082;5.028269;-0.1630097;2.197332;5.649154;-0.7974881;0.1805618;2.798532;-0.06436101;0.1533619;1.335629;-0.07002386;0;0;0;0.1805618;2.798532;-0.06436101;0.1533619;1.335629;-0.07002386;0;0;0
1277415.964;NotLabelled;NONE;16384;0.8612487;0.2797784;0.3642659;0.2174515;-16;-19;22;2324;-1602;2519;65536;0.8956144;0.3919668;-0.04709141;0.2049861;49;-51;18;-1500;-2726;-1767;8192;0.8273186;0.2742382;-0.4570637;-0.1772853;-24;24;-18;-1898;-1395;2977;32768;0.8995287;0.3975069;-0.1260388;-0.1301939;50;31;48;1541;-2495;-2357;256;0.01108033;0.002770083;-0.632964;-0.774097;0;1;3;-201;3732;-625;128;0.02631579;0.05401662;0.5720221;0.8180344;1;3;0;-385;3697;1474;4;0.5422045;-0.533241;0.4639889;0.4542936;0;1;-3;-25;4122;72;16;0.6759003;-0.7237382;-0.05263158;-0.1288089;3;-1;1;355;4074;320;2;0.4875346;-0.5041551;-0.4916897;-0.516119;0;-1;2;-39;4064;-161;8;0.6911357;-0.7109164;0.06094183;0.1149584;1;0;0;-247;4073;71;0.4927986;2.839629;-0.05225591;0.4987555;3.38246;0.001787246;0.5039938;3.859809;0.0472783;0.4891351;4.578852;0.192945;0.2237347;4.900661;0.2203111;-0.1143993;4.743674;0.2543627;-0.809421;5.021765;-0.2914757;-0.8521399;5.692277;-0.9595971;0.7439675;4.911415;0.2203105;1.035924;4.767451;0.254362;1.865471;5.035285;-0.155993;2.193984;5.668302;-0.779817;0.1805548;2.798532;-0.06438076;0.1533542;1.335629;-0.07004062;0;0;0;0.1805548;2.798532;-0.06438076;0.1533542;1.335629;-0.07004062;0;0;0
1277436.8443;NotLabelled;NONE;16384;0.861056;0.2839335;0.3614958;0.2174515;-18;-11;22;2318;-1360;2969;65536;0.8907443;0.398892;-0.04432133;0.2132964;47;-49;18;-1254;-3074;-1889;8192;0.8269893;0.2797784;-0.4542936;-0.1772853;-21;21;-13;-2314;-1419;2843;32768;0.896919;0.4058172;-0.1163435;-0.1315789;39;45;57;987;-3059;-2027;256;0.009695291;0.001385042;-0.632964;-0.7741193;2;2;2;-105;3914;-763;128;0.02631579;0.05401662;0.5706371;0.8190012;-2;2;-1;-377;3811;1366;4;0.5422045;-0.533241;0.4639889;0.4542936;0;1;-3;87;4044;50;16;0.6759003;-0.7237382;-0.05263158;-0.1288089;2;0;0;357;3982;280;2;0.4875346;-0.5041551;-0.4916897;-0.516119;0;-1;1;1;4084;-143;8;0.6911357;-0.7109164;0.06094183;0.1149584;1;-1;-1;-287;4085;109;0.4954427;2.839384;-0.05669826;0.5014015;3.382395;-0.004496185;0.5066415;3.859895;0.0393759;0.4917828;4.578938;0.1850425;0.2263823;4.900748;0.2124084;-0.1117517;4.743761;0.2464598;-0.800594;5.042922;-0.2960605;-0.8665783;5.72642;-0.9489555;0.7466152;4.911502;0.2124082;1.038572;4.767538;0.24646;1.865314;5.045021;-0.1631448;2.184292;5.691476;-0.778073;0.1831984;2.798246;-0.06867213;0.15591;1.335334;-0.07001574;0;0;0;0.1831984;2.798246;-0.06867213;0.15591;1.335334;-0.07001574;0;0;0
1277457.8603;NotLabelled;NONE;16384;0.8608342;0.2880886;0.3587258;0.2174515;-15;-21;25;2254;-1502;2849;65536;0.886274;0.4044321;-0.04293629;0.2216066;44;-50;21;-1186;-3218;-1915;8192;0.8256254;0.2894737;-0.4501385;-0.1786704;-19;18;-16;-2556;-1379;3029;32768;0.8916785;0.4210526;-0.09972299;-0.132964;38;15;44;1545;-3099;-2109;256;0.009695291;0.002770083;-0.6315789;-0.775246;1;0;0;-39;4090;-767;128;0.02770083;0.05401662;0.5706371;0.8189555;-2;0;0;-419;3967;1418;4;0.5422045;-0.533241;0.4639889;0.4542936;0;1;-2;39;4116;62;16;0.6772853;-0.7224422;-0.05263158;-0.1288089;2;-1;0;439;4052;308;2;0.4875346;-0.5055401;-0.4916897;-0.5147625;0;0;0;55;4162;-197;8;0.6911357;-0.710691;0.06094183;0.1163435;0;0;0;-349;4123;149;0.495469;2.839343;-0.05647548;0.5014259;3.382174;-0.002432304;0.5066642;3.859523;0.04305879;0.4946084;4.578612;0.1887571;0.2304644;4.901452;0.2161373;-0.108279;4.745782;0.2501822;-0.793933;5.052592;-0.2921053;-0.8738439;5.743786;-0.935271;0.7507352;4.910178;0.2161371;1.042129;4.765076;0.2501822;1.866309;5.052179;-0.1579506;2.171458;5.712881;-0.7646999;0.1832252;2.798246;-0.06860034;0.1559374;1.335334;-0.06995475;0;0;0;0.1832252;2.798246;-0.06860034;0.1559374;1.335334;-0.06995475;0;0;0
1277478.8537;NotLabelled;NONE;16384;0.8608042;0.2922437;0.3545706;0.2188366;-12;-29;29;2360;-1662;2879;65536;0.8815994;0.4099723;-0.04293629;0.2299169;41;-58;18;-1154;-3166;-1689;8192;0.8256637;0.2936288;-0.4473684;-0.1786704;-13;13;-23;-2468;-1453;2953;32768;0.8891859;0.4279778;-0.09418282;-0.1315789;38;20;41;1081;-3321;-2083;256;0.009695291;0.002770083;-0.6315789;-0.775246;-1;1;0;-51;4090;-823;128;0.02770083;0.05263158;0.5706371;0.8190457;-1;1;0;-415;4015;1336;4;0.5419992;-0.534626;0.4639889;0.4529086;0;2;-1;-17;4138;56;16;0.6772853;-0.7224422;-0.05263158;-0.1288089;1;0;0;427;4050;272;2;0.4875346;-0.5041551;-0.4916897;-0.516119;-1;2;0;9;4096;-151;8;0.6911357;-0.7110338;0.05955679;0.1149584;0;0;0;-305;4085;75;0.4946332;2.83968;-0.05183673;0.5005901;3.382515;0.002168333;0.5058284;3.859866;0.04762591;0.4925113;4.578406;0.1958996;0.2277989;4.90068;0.224452;-0.1106666;4.74429;0.2579596;-0.7946673;5.058728;-0.282041;-0.8873531;5.755966;-0.9169167;0.7480535;4.910325;0.2244515;1.039705;4.765617;0.2579589;1.859234;5.067664;-0.1487538;2.13859;5.753963;-0.7392958;0.1823893;2.798582;-0.06395844;0.1550987;1.33567;-0.0652533;0;0;0;0.1823893;2.798582;-0.06395844;0.1550987;1.33567;-0.0652533;0;0;0
1277499.8577;NotLabelled;NONE;16384;0.8607318;0.2963989;0.3504155;0.2202216;-13;-29;23;2150;-1758;2909;65536;0.8764085;0.4155124;-0.04293629;0.2396122;40;-61;7;-1722;-2802;-2199;8192;0.8269139;0.2963989;-0.4432133;-0.1786704;-11;20;-24;-2206;-1339;3101;32768;0.8866636;0.434903;-0.08587258;-0.1315789;29;21;35;435;-3733;-1629;256;0.008310249;0.002770083;-0.6315789;-0.7752621;-2;3;0;-161;4190;-789;128;0.02770083;0.05263158;0.5706371;0.8190457;0;4;0;-467;3981;1396;4;0.5431818;-0.534626;0.4626039;0.4529086;0;0;0;-11;4080;70;16;0.6772853;-0.7226878;-0.05263158;-0.1274238;1;1;0;367;4062;220;2;0.4875346;-0.5041551;-0.4916897;-0.516119;0;3;0;-87;4122;-133;8;0.6911357;-0.7110338;0.05955679;0.1149584;0;0;0;-365;4109;81;0.4947147;2.839676;-0.05616698;0.5006717;3.382515;-0.002196052;0.5059101;3.859869;0.04323151;0.4925931;4.578409;0.1915052;0.2278806;4.900682;0.2200578;-0.1105848;4.744293;0.2535652;-0.7903538;5.06611;-0.2874312;-0.8922694;5.769697;-0.9138305;0.7481351;4.910327;0.2200572;1.039787;4.765619;0.2535647;1.856387;5.075268;-0.1533221;2.126487;5.772891;-0.7348319;0.1824708;2.798578;-0.06828588;0.1550988;1.33567;-0.06525321;0;0;0;0.1824708;2.798578;-0.06828588;0.1550988;1.33567;-0.06525321;0;0;0
1277520.8525;NotLabelled;NONE;16384;0.8599078;0.3047091;0.3434903;0.2229917;-5;-29;18;2026;-1672;2777;65536;0.86782;0.4252077;-0.04293629;0.2534626;41;-35;-1;-1906;-2988;-1615;8192;0.8265937;0.300554;-0.4404432;-0.1800554;-14;23;-21;-2480;-1195;3337;32768;0.8850513;0.4390582;-0.07894737;-0.132964;19;15;45;2411;-2839;-2631;256;0.008310249;0.002770083;-0.632964;-0.7741317;0;3;1;-71;4070;-913;128;0.02908587;0.05263158;0.5706371;0.8189977;-1;2;-1;-427;3969;1438;4;0.5431818;-0.534626;0.4626039;0.4529086;0;1;0;-89;4098;48;16;0.6772853;-0.72234;-0.05401662;-0.1288089;0;0;0;459;4092;320;2;0.4875346;-0.5041551;-0.4930748;-0.514796;0;0;0;-111;4142;-89;8;0.6911357;-0.7110338;0.05955679;0.1149584;0;0;0;-333;4107;95;0.491372;2.839943;-0.05370625;0.4973289;3.382781;0.0002647415;0.5025673;3.860135;0.04569234;0.4907934;4.578696;0.1939971;0.2267736;4.901536;0.2225636;-0.1120269;4.745872;0.2560647;-0.7885058;5.075066;-0.284618;-0.9020399;5.78461;-0.9022369;0.7470478;4.910064;0.2225633;1.038388;4.764728;0.2560642;1.849718;5.08094;-0.1562806;2.106061;5.790228;-0.7298543;0.179128;2.798844;-0.06582521;0.1523806;1.335922;-0.06649631;0;0;0;0.179128;2.798844;-0.06582521;0.1523806;1.335922;-0.06649631;0;0;0
1277541.8627;NotLabelled;NONE;16384;0.8593522;0.3088643;0.3393352;0.2257618;-10;-37;20;2032;-1596;2809;65536;0.8626063;0.432133;-0.04570637;0.2590028;37;-48;-11;-1664;-3100;-1481;8192;0.8258089;0.3047091;-0.4390582;-0.1800554;-18;7;-16;-2434;-1571;3211;32768;0.8841557;0.4432133;-0.07479224;-0.1274238;29;-18;40;1189;-2819;-2923;256;0.008310249;0.002770083;-0.632964;-0.7741317;0;0;0;-67;4072;-835;128;0.02908587;0.05263158;0.5706371;0.8189977;1;1;0;-425;3953;1428;4;0.5431818;-0.534626;0.4626039;0.4529086;0;0;1;-19;4040;40;16;0.6772853;-0.72234;-0.05401662;-0.1288089;0;0;0;407;4074;286;2;0.4875346;-0.5041551;-0.4916897;-0.516119;0;-1;0;-75;4146;-157;8;0.6911357;-0.7108084;0.05955679;0.1163435;0;0;0;-313;4135;125;0.4914145;2.839981;-0.05297314;0.4973715;3.382823;0.0009553856;0.5026099;3.860181;0.04634565;0.4908398;4.579279;0.1920237;0.2268228;4.902223;0.2194031;-0.1119804;4.746687;0.2534631;-0.7818277;5.08777;-0.2881059;-0.9117177;5.807578;-0.8904366;0.747097;4.910746;0.2193862;1.038435;4.765531;0.2534263;1.847331;5.086456;-0.1600575;2.093954;5.802859;-0.7290301;0.1791706;2.798881;-0.06508858;0.1524231;1.335958;-0.06564528;0;0;0;0.1791706;2.798881;-0.06508858;0.1524231;1.335958;-0.06564528;0;0;0
1277562.839;NotLabelled;NONE;16384;0.8585727;0.3130194;0.3365651;0.2271468;-14;-33;18;2384;-1700;2779;65536;0.8585939;0.4362881;-0.04986149;0.2645429;25;-58;-10;-724;-3594;-1307;8192;0.8271331;0.3102493;-0.434903;-0.1745152;-22;0;-18;-2178;-1337;3459;32768;0.8823726;0.4501385;-0.06786703;-0.1191136;11;-16;22;1025;-3255;-2343;256;0.008310249;0.002770083;-0.632964;-0.7741317;-2;0;-2;-1;4058;-807;128;0.02908587;0.05263158;0.5706371;0.8189977;0;0;1;-481;3915;1400;4;0.5443584;-0.534626;0.4612188;0.4529086;0;-1;2;-67;4034;90;16;0.6772853;-0.72234;-0.05401662;-0.1288089;0;0;0;401;4032;348;2;0.4875346;-0.5041551;-0.4916897;-0.516119;0;-1;-1;1;4112;-205;8;0.6911357;-0.7108084;0.05955679;0.1163435;0;0;0;-263;4113;151;0.4914163;2.839986;-0.05275012;0.4973733;3.382828;0.001178342;0.5026118;3.860186;0.04656855;0.4908371;4.579272;0.1923022;0.2268192;4.902215;0.2196985;-0.1119851;4.746676;0.253736;-0.7781625;5.096009;-0.2871007;-0.9118649;5.824793;-0.8776874;0.7470934;4.910738;0.2196983;1.03843;4.76552;0.2537361;1.845894;5.094617;-0.1561084;2.081798;5.819114;-0.7193486;0.1791724;2.798886;-0.0648656;0.152425;1.335963;-0.06553679;0;0;0;0.1791724;2.798886;-0.0648656;0.152425;1.335963;-0.06553679;0;0;0
1277583.8655;NotLabelled;NONE;16384;0.857929;0.3171745;0.33241;0.2299169;-10;-31;20;2700;-1690;2689;65536;0.853606;0.4404432;-0.05401662;0.2728532;16;-75;-1;-1128;-3708;-1479;8192;0.8271075;0.3130194;-0.433518;-0.1731302;-29;6;-16;-2324;-1239;3383;32768;0.8824649;0.4515235;-0.06925207;-0.1121884;16;-38;6;653;-3471;-2589;256;0.008310249;0.004155125;-0.632964;-0.7741255;-6;1;-3;-83;3940;-785;128;0.02908587;0.05124654;0.5706371;0.8190855;0;1;2;-429;3875;1390;4;0.5443584;-0.534626;0.4612188;0.4529086;0;-2;2;-115;4062;38;16;0.6772853;-0.72234;-0.05401662;-0.1288089;0;0;0;421;4102;372;2;0.4875346;-0.5041551;-0.4916897;-0.516119;0;-1;0;-73;4092;-107;8;0.6911357;-0.7110338;0.05955679;0.1149584;0;-1;0;-295;4075;225;0.4907793;2.839991;-0.04900973;0.4967363;3.382833;0.004918741;0.5019748;3.860191;0.05030896;0.4902;4.579278;0.1960426;0.2261822;4.902221;0.2234389;-0.1126221;4.746682;0.2574764;-0.7764519;5.102476;-0.2820319;-0.9104083;5.8373;-0.8650295;0.7464563;4.910743;0.2234387;1.037793;4.765525;0.2574765;1.838422;5.110332;-0.1528617;2.057016;5.847654;-0.7063583;0.1785354;2.798892;-0.06112522;0.152425;1.335964;-0.06553677;0;0;0;0.1785354;2.798892;-0.06112522;0.152425;1.335964;-0.06553677;0;0;0
1277603.8607;NotLabelled;NONE;16384;0.8567039;0.3213296;0.3296399;0.232687;-12;-20;19;2866;-1756;2879;65536;0.848731;0.4432133;-0.05817174;0.2825485;13;-80;0;-1640;-3506;-1631;8192;0.8268245;0.3171745;-0.432133;-0.1703601;-28;-4;-18;-2744;-1441;3299;32768;0.8815079;0.4542936;-0.07202215;-0.1066482;13;-33;-10;441;-3597;-2315;256;0.008310249;0.004155125;-0.634349;-0.772991;-2;1;-4;-97;3988;-849;128;0.02908587;0.05124654;0.5706371;0.8190855;2;0;3;-409;3993;1420;4;0.5431818;-0.534626;0.4626039;0.4529086;0;-2;0;-137;4098;12;16;0.6772853;-0.72234;-0.05401662;-0.1288089;0;-1;0;383;4020;392;2;0.4889196;-0.5041551;-0.4916897;-0.5148072;0;-2;0;-47;4092;-83;8;0.6911357;-0.7110338;0.05955679;0.1149584;0;-1;0;-329;4101;191;0.4906479;2.839992;-0.04939385;0.496605;3.382838;0.004500443;0.5018435;3.860198;0.0498606;0.4888079;4.579262;0.1955988;0.2242243;4.901741;0.2229973;-0.1143066;4.745608;0.2570336;-0.7756589;5.107682;-0.2813383;-0.9136642;5.848038;-0.8563376;0.7444827;4.911176;0.2229971;1.036074;4.766469;0.257034;1.833701;5.117308;-0.1540338;2.047813;5.857623;-0.7052844;0.1784041;2.798892;-0.06150647;0.1522842;1.335964;-0.0658628;0;0;0;0.1784041;2.798892;-0.06150647;0.1522842;1.335964;-0.0658628;0;0;0
1277625.3228;NotLabelled;NONE;16384;0.8567151;0.3282548;0.3227147;0.232687;-13;-23;24;2180;-1682;2813;65536;0.8414512;0.4487534;-0.05955679;0.2950138;29;-21;16;-2458;-3588;-1109;8192;0.8260655;0.3213296;-0.432133;-0.166205;-31;-7;-21;-2662;-1425;3185;32768;0.8807743;0.4556787;-0.07617728;-0.1038781;10;-33;-19;923;-3709;-1963;256;0.008310249;0.005540166;-0.634349;-0.7729822;0;1;-5;-87;4074;-729;128;0.02908587;0.04986149;0.5720221;0.8182045;3;0;3;-459;3947;1410;4;0.5431818;-0.534626;0.4626039;0.4529086;-1;-3;0;-55;4124;6;16;0.6772853;-0.72234;-0.05401662;-0.1288089;0;-1;0;397;4052;338;2;0.4889196;-0.5041551;-0.4916897;-0.5148072;0;-3;0;-1;4102;-169;8;0.6911357;-0.710691;0.06094183;0.1163435;0;-2;0;-303;4065;145;0.4912792;2.839986;-0.05312999;0.4972362;3.382833;0.0007643101;0.5024747;3.860193;0.04612448;0.4894351;4.579774;0.1892864;0.2248521;4.902351;0.2155129;-0.1136823;4.746344;0.2500863;-0.7732894;5.113785;-0.2867886;-0.914689;5.857746;-0.8562843;0.7451106;4.911782;0.2155125;1.036698;4.767195;0.250086;1.831611;5.127267;-0.1582481;2.04604;5.871559;-0.7039937;0.1790352;2.798886;-0.06524259;0.1522864;1.335963;-0.06585794;0;0;0;0.1790352;2.798886;-0.06524259;0.1522864;1.335963;-0.06585794;0;0;0
1277646.0281;NotLabelled;NONE;16384;0.8557741;0.33241;0.3199446;0.234072;-18;-24;23;2114;-1572;3139;65536;0.8405982;0.4501385;-0.05401662;0.2963989;17;32;19;-2650;-3486;-717;8192;0.8267086;0.3254848;-0.4293629;-0.1620499;-31;-11;-24;-2470;-1779;2987;32768;0.8800095;0.4570637;-0.08033241;-0.101108;9;-18;-26;201;-3399;-1993;256;0.009695291;0.005540166;-0.634349;-0.7729661;0;2;-6;31;4104;-855;128;0.02908587;0.04847645;0.5720221;0.8182877;3;2;4;-545;3921;1466;4;0.5431818;-0.534626;0.4626039;0.4529086;0;-1;0;37;3988;24;16;0.6772853;-0.72234;-0.05401662;-0.1288089;0;-1;1;329;4094;292;2;0.4889196;-0.5041551;-0.4903047;-0.5161265;1;-3;0;13;4128;-79;8;0.6911357;-0.710691;0.06094183;0.1163435;0;-1;0;-355;4151;131;0.4911393;2.840028;-0.0536667;0.4970983;3.383057;-0.001647674;0.5023383;3.860571;0.04206346;0.4880341;4.580127;0.1852301;0.2228846;4.902239;0.2114587;-0.1153749;4.745636;0.246031;-0.7681875;5.127069;-0.289388;-0.9229848;5.875899;-0.848931;0.7431256;4.912584;0.2114586;1.034967;4.76851;0.2460312;1.827153;5.138205;-0.1589895;2.045129;5.883736;-0.701628;0.1788949;2.798886;-0.0656255;0.1521449;1.335964;-0.0661837;0;0;0;0.1788949;2.798886;-0.0656255;0.1521449;1.335964;-0.0661837;0;0;0
1277667.8484;NotLabelled;NONE;16384;0.855181;0.3365651;0.3171745;0.234072;-21;-16;20;2546;-1580;2885;65536;0.8409027;0.4529086;-0.04847645;0.2922437;8;37;21;-1540;-3368;-1283;8192;0.826871;0.333795;-0.4252077;-0.1551246;-25;-1;-25;-2338;-1805;2667;32768;0.8783293;0.4584487;-0.08864266;-0.1024931;7;-5;-41;697;-3129;-2027;256;0.009695291;0.006925208;-0.634349;-0.7729549;-1;2;-6;-31;4068;-767;128;0.02908587;0.04847645;0.5720221;0.8182877;0;4;5;-481;3891;1576;4;0.5431818;-0.534626;0.4626039;0.4529086;0;0;0;33;4086;14;16;0.6772853;-0.72234;-0.05401662;-0.1288089;0;0;0;369;3994;334;2;0.4889196;-0.5041551;-0.4903047;-0.5161265;0;-2;0;63;4164;-127;8;0.6911357;-0.710691;0.06094183;0.1163435;0;-2;0;-333;4105;149;0.4912542;2.840029;-0.05335517;0.4972132;3.383061;-0.001369325;0.5024533;3.860578;0.04231261;0.4866082;4.580108;0.185449;0.2207696;4.901652;0.2116641;-0.1171539;4.744327;0.2462427;-0.7666646;5.132153;-0.2885992;-0.93136;5.879508;-0.8472872;0.7409873;4.913111;0.2116637;1.033136;4.769663;0.2462424;1.82096;5.150717;-0.1567547;2.044568;5.897501;-0.6953628;0.1790098;2.798886;-0.06531114;0.1522609;1.335964;-0.06591631;0;0;0;0.1790098;2.798886;-0.06531114;0.1522609;1.335964;-0.06591631;0;0;0
1277688.8499;NotLabelled;NONE;16384;0.8549365;0.3407202;0.3144044;0.232687;-24;-1;24;3000;-1792;2521;65536;0.8416837;0.4529086;-0.04293629;0.2908587;16;21;23;-1748;-2962;-1929;8192;0.827118;0.3379501;-0.4224377;-0.1523546;-23;0;-25;-2134;-1927;2801;32768;0.8768648;0.4598338;-0.09418282;-0.1038781;10;-6;-47;325;-3047;-2049;256;0.01108033;0.008310249;-0.634349;-0.7729228;1;-2;-5;-121;3868;-763;128;0.02908587;0.04570637;0.5720221;0.8184471;-3;0;5;-435;3767;1452;4;0.5431818;-0.534626;0.4626039;0.4529086;0;1;0;11;4058;42;16;0.6772853;-0.72234;-0.05401662;-0.1288089;0;-1;0;453;4048;244;2;0.4889196;-0.5055401;-0.4903047;-0.5147699;-1;-1;0;39;4096;-129;8;0.6911357;-0.710691;0.06094183;0.1163435;0;-2;0;-309;4151;127;0.4911142;2.840029;-0.05373825;0.4970733;3.383061;-0.001752413;0.5023134;3.860578;0.04192953;0.4852039;4.580078;0.1850718;0.2188005;4.901154;0.2112893;-0.118846;4.743235;0.2458667;-0.7665643;5.138485;-0.2857045;-0.9392494;5.887021;-0.8403854;0.7389974;4.913527;0.2112891;1.031398;4.770593;0.2458667;1.810079;5.171993;-0.1551429;2.047571;5.917803;-0.6891402;0.1788698;2.798886;-0.06569433;0.1521195;1.335964;-0.06624217;0;0;0;0.1788698;2.798886;-0.06569433;0.1521195;1.335964;-0.06624217;0;0;0
1277709.0012;NotLabelled;NONE;16384;0.8546604;0.3448753;0.3116343;0.2313019;-17;0;28;2394;-1990;2497;65536;0.8414056;0.4556787;-0.03739612;0.2880886;17;37;27;-1068;-3510;-1393;8192;0.827897;0.3407202;-0.4196676;-0.1495845;-22;2;-26;-1978;-1869;2739;32768;0.8755906;0.4598338;-0.101108;-0.1080332;9;10;-43;823;-2769;-1811;256;0.01108033;0.008310249;-0.634349;-0.7729228;3;-2;-4;-105;3922;-757;128;0.02908587;0.04570637;0.5706371;0.8194134;-3;2;4;-423;3807;1374;4;0.5431818;-0.534626;0.4626039;0.4529086;0;1;0;63;4102;66;16;0.6772853;-0.72234;-0.05401662;-0.1288089;0;0;0;377;4040;312;2;0.4889196;-0.5041551;-0.4916897;-0.5148072;-1;2;0;77;4114;-137;8;0.6911357;-0.710691;0.06094183;0.1163435;0;0;0;-295;4065;145;0.4910892;2.84003;-0.05381221;0.4970484;3.383068;-0.001891073;0.5022887;3.86059;0.04173398;0.4823739;4.580024;0.1848483;0.2147208;4.90006;0.2110533;-0.1223075;4.740827;0.2456365;-0.7666329;5.144517;-0.2837104;-0.9471055;5.890542;-0.8392935;0.7348654;4.914461;0.211053;1.027821;4.77267;0.2456364;1.801601;5.183951;-0.1548454;2.049319;5.929465;-0.6845911;0.1788448;2.798886;-0.06576294;0.1520942;1.335964;-0.06630052;0;0;0;0.1788448;2.798886;-0.06576294;0.1520942;1.335964;-0.06630052;0;0;0
1277731.0029;NotLabelled;NONE;16384;0.8552887;0.3476454;0.3088643;0.2285319;-18;0;21;2056;-1870;2649;65536;0.8418775;0.4570637;-0.03047091;0.2853186;6;43;27;-1784;-3608;-551;8192;0.8287677;0.3448753;-0.4155124;-0.1468144;-20;5;-23;-1722;-1863;2647;32768;0.8745778;0.4598338;-0.1052632;-0.1121884;5;7;-33;1113;-2907;-1915;256;0.01246537;0.008310249;-0.634349;-0.7729016;4;-1;-4;-95;3870;-839;128;0.02770083;0.04570637;0.5706371;0.8194613;-2;1;2;-353;3761;1414;4;0.5431818;-0.534626;0.4626039;0.4529086;0;1;-1;61;4060;60;16;0.6772853;-0.7224422;-0.05263158;-0.1288089;0;1;0;395;4012;232;2;0.4889196;-0.5041551;-0.4916897;-0.5148072;0;2;0;-21;4060;-169;8;0.6911357;-0.710691;0.06094183;0.1163435;0;0;0;-285;4075;99;0.4910885;2.839989;-0.05366123;0.4970457;3.382849;0.0001002869;0.5022842;3.86022;0.04534369;0.4823695;4.579654;0.1884581;0.2147163;4.899689;0.214663;-0.1223119;4.740456;0.2492462;-0.7629305;5.15255;-0.2781208;-0.9514007;5.899504;-0.8297874;0.734861;4.914091;0.2146627;1.027817;4.772299;0.2492461;1.796887;5.191573;-0.1520213;2.059485;5.933817;-0.6791853;0.1788446;2.798886;-0.06576298;0.1520941;1.335964;-0.06630057;0;0;0;0.1788446;2.798886;-0.06576298;0.1520941;1.335964;-0.06630057;0;0;0
1277750.8558;NotLabelled;NONE;16384;0.8549039;0.3545706;0.3060942;0.2229917;-16;13;13;2622;-2092;2005;65536;0.8464111;0.4570637;-0.01523546;0.2728532;3;71;15;-1300;-2390;-2383;8192;0.8279653;0.3490305;-0.4141274;-0.1454294;-19;10;-14;-1428;-2061;2597;32768;0.8731498;0.4612188;-0.1080332;-0.1149584;9;7;-20;1427;-2557;-1959;256;0.01246537;0.009695291;-0.632964;-0.7740202;4;-1;-4;-161;3886;-871;128;0.02770083;0.04432133;0.5706371;0.8195374;0;1;3;-407;3735;1424;4;0.5443584;-0.534626;0.4612188;0.4529086;0;3;0;-21;4100;80;16;0.6772853;-0.72234;-0.05401662;-0.1288089;0;2;0;433;4110;284;2;0.4889196;-0.5041551;-0.4916897;-0.5148072;0;0;-1;-97;4064;-147;8;0.6911357;-0.710691;0.06094183;0.1163435;0;0;0;-291;4053;141;0.4937655;2.839694;-0.05333636;0.4997227;3.382549;0.000471229;0.5049611;3.859917;0.04575515;0.4835057;4.579313;0.18883;0.2151678;4.898777;0.215017;-0.1215188;4.738825;0.2496085;-0.7566561;5.158484;-0.2784223;-0.9535328;5.904113;-0.8289428;0.7352805;4.914292;0.2150167;1.028539;4.77313;0.2496083;1.79172;5.203046;-0.151642;2.065553;5.942728;-0.676688;0.1815215;2.798592;-0.06544188;0.1547719;1.33567;-0.06602585;0;0;0;0.1815215;2.798592;-0.06544188;0.1547719;1.33567;-0.06602585;0;0;0
1277771.8504;NotLabelled;NONE;16384;0.8544685;0.3573407;0.3060942;0.2202216;-9;21;9;2400;-2318;1997;65536;0.8482416;0.4570637;-0.01108033;0.267313;13;20;15;-398;-2842;-2393;8192;0.8273766;0.3531856;-0.4127424;-0.1426593;-12;-7;-4;-1684;-2195;2355;32768;0.8716996;0.4626039;-0.1108033;-0.1177285;1;9;-13;339;-3139;-1441;256;0.01385042;0.009695291;-0.632964;-0.7739967;4;-2;-4;-169;3876;-829;128;0.02770083;0.04432133;0.5706371;0.8195374;0;0;2;-433;3767;1446;4;0.5441469;-0.536011;0.4612188;0.4515235;0;2;0;-105;4096;96;16;0.6772853;-0.72234;-0.05401662;-0.1288089;0;3;0;335;4060;258;2;0.4889196;-0.5041551;-0.4916897;-0.5148072;0;0;-1;-29;4114;-111;8;0.6911357;-0.710691;0.06094183;0.1163435;0;-1;0;-259;4103;141;0.4904432;2.839994;-0.04999477;0.4964004;3.382852;0.003781511;0.5016389;3.860222;0.04903791;0.4789342;4.579062;0.1946982;0.2100378;4.897956;0.2220612;-0.126363;4.737289;0.2561138;-0.7573603;5.171989;-0.2646616;-0.9688268;5.912947;-0.8160775;0.7301223;4.914387;0.222061;1.023633;4.773617;0.2561139;1.783339;5.211146;-0.1434993;2.063028;5.950718;-0.6656033;0.1781992;2.798891;-0.06209771;0.152065;1.335964;-0.06636739;0;0;0;0.1781992;2.798891;-0.06209771;0.152065;1.335964;-0.06636739;0;0;0
1277791.8506;NotLabelled;NONE;16384;0.8550924;0.3587258;0.3047091;0.2174515;-6;7;8;1630;-2198;2521;65536;0.8479735;0.4584487;-0.006925208;0.265928;8;17;19;-1446;-3420;-1389;8192;0.8272572;0.3545706;-0.4127424;-0.1398892;-10;-1;-1;-1442;-2161;2503;32768;0.872077;0.4612188;-0.1135734;-0.1177285;2;-21;-17;661;-2843;-1839;256;0.01385042;0.01108033;-0.6315789;-0.7751087;6;2;-1;-71;3932;-867;128;0.02770083;0.04293629;0.5706371;0.8196112;-1;3;2;-561;3883;1350;4;0.5441469;-0.536011;0.4612188;0.4515235;0;1;0;-147;4128;104;16;0.6772853;-0.7220917;-0.05401662;-0.1301939;0;2;0;471;4036;342;2;0.4889196;-0.5027701;-0.4916897;-0.5161599;-1;0;-1;-1;4056;-183;8;0.6911357;-0.710691;0.06094183;0.1163435;0;0;0;-253;4105;145;0.490614;2.839999;-0.05402106;0.4965712;3.382857;-0.0002447688;0.5018097;3.860228;0.04501162;0.4775632;4.579026;0.1906286;0.2079833;4.897344;0.2179721;-0.1280722;4.735958;0.252034;-0.7572309;5.17633;-0.2661941;-0.9695584;5.916608;-0.8181919;0.7280315;4.91489;0.2179716;1.021843;4.774752;0.2520334;1.778874;5.221119;-0.1428541;2.066479;5.960526;-0.6608751;0.17837;2.798896;-0.06612407;0.152181;1.335964;-0.06610044;0;0;0;0.17837;2.798896;-0.06612407;0.152181;1.335964;-0.06610044;0;0;0
1277813.0643;NotLabelled;NONE;16384;0.8553537;0.3601108;0.3033241;0.2160665;-9;-14;2;1786;-2118;2619;65536;0.8476805;0.4598338;-0.002770083;0.2645429;11;15;19;-1190;-3044;-1473;8192;0.8266621;0.3559557;-0.4127424;-0.1398892;-2;0;3;-1756;-2171;2399;32768;0.8718955;0.4612188;-0.1177285;-0.1149584;9;-21;-12;657;-2613;-2545;256;0.01385042;0.01108033;-0.6301939;-0.7762352;3;2;-3;-133;3994;-923;128;0.02908587;0.04293629;0.5706371;0.8195632;-2;3;2;-451;3855;1468;4;0.5441469;-0.536011;0.4612188;0.4515235;0;0;0;-131;4090;90;16;0.6772853;-0.7220917;-0.05401662;-0.1301939;0;1;0;389;4070;346;2;0.4889196;-0.5027701;-0.4916897;-0.5161599;0;1;0;37;4074;-217;8;0.6911357;-0.710691;0.06094183;0.1163435;0;2;0;-307;4125;195;0.4930742;2.839749;-0.05345088;0.4990314;3.382609;0.0002948007;0.50427;3.859982;0.04552428;0.4787811;4.578209;0.1937221;0.2086468;4.895954;0.2222401;-0.1271207;4.733857;0.2557636;-0.7543107;5.178967;-0.2608009;-0.9740385;5.919116;-0.8100691;0.7286633;4.914413;0.2222395;1.022725;4.77467;0.2557627;1.777297;5.225371;-0.1389077;2.068105;5.962203;-0.6588081;0.1808302;2.798645;-0.06555128;0.1546412;1.335712;-0.06546975;0;0;0;0.1808302;2.798645;-0.06555128;0.1546412;1.335712;-0.06546975;0;0;0
1277832.8519;NotLabelled;NONE;16384;0.854418;0.3614958;0.3033241;0.2174515;-2;-8;1;2446;-2250;2169;65536;0.8472516;0.4598338;0;0.265928;9;-9;10;-1678;-2936;-1513;8192;0.8259692;0.3559557;-0.4141274;-0.1398892;0;-8;13;-1912;-2351;2333;32768;0.8718779;0.4612188;-0.1204986;-0.1121884;10;-20;-4;1225;-3061;-2369;256;0.01246537;0.01246537;-0.6301939;-0.7762377;1;0;-1;-255;4002;-881;128;0.02908587;0.04155125;0.5692521;0.8205971;-1;1;1;-395;3879;1424;4;0.5441469;-0.536011;0.4612188;0.4515235;0;0;0;-113;4060;10;16;0.6772853;-0.7220917;-0.05401662;-0.1301939;0;0;0;473;3986;368;2;0.4889196;-0.5027701;-0.4916897;-0.5161599;0;1;0;9;4114;-179;8;0.6911357;-0.710691;0.06094183;0.1163435;0;2;0;-247;4151;181;0.4930704;2.83975;-0.0534668;0.4990277;3.382615;0.0002315308;0.5042663;3.859992;0.04541936;0.4787954;4.577685;0.1961831;0.2086645;4.895327;0.2258682;-0.1270989;4.733111;0.2588538;-0.7519358;5.181971;-0.2573163;-0.9778669;5.921989;-0.8042402;0.7286809;4.913785;0.2258698;1.022746;4.773923;0.2588581;1.777177;5.226464;-0.1339711;2.07236;5.962829;-0.6520658;0.1808264;2.798645;-0.06556336;0.1546374;1.335712;-0.06547956;0;0;0;0.1808264;2.798645;-0.06556336;0.1546374;1.335712;-0.06547956;0;0;0
1277853.844;NotLabelled;NONE;16384;0.8533373;0.3628809;0.3047091;0.2174515;-2;9;-11;2040;-2092;2445;65536;0.8444234;0.4626039;-0.001385042;0.2700831;12;-17;-6;-2082;-2874;-1593;8192;0.8261027;0.3545706;-0.4155124;-0.1385041;5;-11;17;-1354;-2265;2715;32768;0.8714961;0.4626039;-0.1204986;-0.1094183;9;-15;8;1869;-2669;-2657;256;0.01246537;0.01246537;-0.6288089;-0.77736;5;1;0;-353;3964;-979;128;0.02908587;0.04155125;0.5692521;0.8205971;0;0;0;-355;3789;1538;4;0.5441469;-0.536011;0.4612188;0.4515235;0;0;0;-37;4080;172;16;0.6772853;-0.7220917;-0.05401662;-0.1301939;1;0;0;407;4040;314;2;0.4889196;-0.5027701;-0.4916897;-0.5161599;0;0;0;-11;4096;-153;8;0.6911357;-0.710691;0.06094183;0.1163435;0;1;0;-311;4107;119;0.4928131;2.839709;-0.05402378;0.4987683;3.382392;0.001480974;0.5040053;3.859617;0.04825732;0.4788258;4.57731;0.1990726;0.2088237;4.895058;0.2287821;-0.127005;4.732975;0.2617583;-0.7547703;5.182582;-0.2501925;-0.9884908;5.920838;-0.7962239;0.7288476;4.913306;0.2287818;1.022857;4.773323;0.2617582;1.777435;5.22498;-0.1318039;2.072752;5.961358;-0.6498038;0.1805695;2.798645;-0.06626852;0.1543809;1.335712;-0.06608255;0;0;0;0.1805695;2.798645;-0.06626852;0.1543809;1.335712;-0.06608255;0;0;0
1277873.8403;NotLabelled;NONE;16384;0.8532834;0.3614958;0.3074792;0.2160665;2;8;-13;2080;-2104;2407;65536;0.8424549;0.4653739;-0.001385042;0.2714681;9;-9;-12;-2292;-3236;-1379;8192;0.8238879;0.3531856;-0.4210526;-0.1385041;-2;2;19;-2094;-1935;3023;32768;0.8716017;0.4639889;-0.1204986;-0.1024931;10;-19;10;1279;-3695;-2135;256;0.01246537;0.01246537;-0.6288089;-0.77736;3;2;3;-355;3876;-813;128;0.02908587;0.04155125;0.5692521;0.8205971;-4;2;-1;-315;3745;1462;4;0.5452932;-0.536011;0.4612188;0.4501385;0;0;0;-5;4074;114;16;0.6772853;-0.7220917;-0.05401662;-0.1301939;1;0;0;397;4018;344;2;0.4889196;-0.5027701;-0.4916897;-0.5161599;0;1;0;-35;4154;-233;8;0.6911357;-0.710691;0.06094183;0.1163435;0;2;-1;-259;4121;83;0.4928083;2.839709;-0.05403516;0.4987636;3.382392;0.001469566;0.5040005;3.859617;0.04824589;0.4788447;4.576767;0.2016217;0.2088484;4.89441;0.2324976;-0.1269772;4.732213;0.2649377;-0.7569353;5.182729;-0.2435073;-0.9934938;5.923662;-0.7846686;0.7288724;4.912654;0.2324971;1.022884;4.772552;0.2649375;1.778413;5.222826;-0.1283896;2.071484;5.961789;-0.6439747;0.1805649;2.798645;-0.06627984;0.1543765;1.335712;-0.06609219;0;0;0;0.1805649;2.798645;-0.06627984;0.1543765;1.335712;-0.06609219;0;0;0
1277894.0217;NotLabelled;NONE;16384;0.8529315;0.3614958;0.3074792;0.2174515;3;-3;-11;2180;-1840;2555;65536;0.8412369;0.466759;-0.002770083;0.2728532;5;-11;-10;-1814;-3422;-1141;8192;0.8222319;0.3531856;-0.4238227;-0.1398892;-7;-4;18;-2534;-1785;3279;32768;0.8704433;0.466759;-0.1204986;-0.09972299;9;-17;4;951;-3459;-2205;256;0.01246537;0.01246537;-0.6288089;-0.77736;0;0;2;-287;3822;-881;128;0.02908587;0.04155125;0.567867;0.8215562;-4;0;-1;-301;3737;1418;4;0.5452932;-0.536011;0.4612188;0.4501385;0;2;-1;-37;4112;134;16;0.6772853;-0.7220917;-0.05401662;-0.1301939;1;0;0;445;4036;300;2;0.4889196;-0.5027701;-0.4916897;-0.5161599;0;2;0;-21;4154;-237;8;0.6911357;-0.710691;0.06094183;0.1163435;0;2;-1;-271;4067;117;0.4965282;2.839638;-0.05404756;0.5024835;3.382321;0.001457166;0.5077205;3.859545;0.04823349;0.4825648;4.576696;0.2016098;0.2125686;4.894338;0.2324858;-0.1232571;4.732141;0.264926;-0.7560439;5.180103;-0.2422622;-0.9952284;5.923737;-0.7785418;0.7325925;4.912582;0.2324853;1.026605;4.772481;0.2649255;1.788838;5.217553;-0.1213198;2.076143;5.960481;-0.6344509;0.1842847;2.798573;-0.06629217;0.1543766;1.335712;-0.06609151;0;0;0;0.1842847;2.798573;-0.06629217;0.1543766;1.335712;-0.06609151;0;0;0
1277915.0447;NotLabelled;NONE;16384;0.8526627;0.3601108;0.3088643;0.2188366;0;-4;-8;2942;-1790;2707;65536;0.8392289;0.4695291;-0.005540166;0.2742382;4;-11;-6;-2054;-3558;-1397;8192;0.8204358;0.3545706;-0.4265928;-0.1385041;-12;-10;16;-2926;-1859;3035;32768;0.8698193;0.468144;-0.1218837;-0.09695291;12;-17;-6;1175;-3689;-2195;256;0.01246537;0.01385042;-0.6274238;-0.778455;5;0;-2;-33;4038;-779;128;0.02908587;0.04155125;0.567867;0.8215562;0;-3;0;-527;3983;1472;4;0.5439283;-0.5373961;0.4612188;0.4501385;1;2;0;-27;4124;134;16;0.6772853;-0.7220917;-0.05401662;-0.1301939;0;1;0;385;4034;258;2;0.4889196;-0.5027701;-0.4916897;-0.5161599;-1;2;0;-151;4100;-179;8;0.6911357;-0.7110338;0.05955679;0.1149584;0;1;-1;-321;4115;111;0.4965276;2.839596;-0.05389725;0.5024808;3.382089;0.003441495;0.5077159;3.859152;0.05183063;0.4825602;4.576303;0.2052069;0.2125639;4.893945;0.2360829;-0.1232617;4.731748;0.2685231;-0.7566954;5.178685;-0.2387616;-0.9956034;5.924173;-0.7725848;0.7325879;4.912189;0.2360825;1.0266;4.772088;0.2685226;1.792892;5.214162;-0.113109;2.078037;5.961271;-0.6213464;0.1842846;2.798573;-0.06629217;0.1543765;1.335712;-0.06609156;0;0;0;0.1842846;2.798573;-0.06629217;0.1543765;1.335712;-0.06609156;0;0;0
1277935.8522;NotLabelled;NONE;16384;0.8521597;0.3601108;0.3102493;0.2188366;0;4;-4;3136;-2132;2605;65536;0.8384525;0.4709141;-0.005540166;0.2742382;4;-2;-4;-2332;-3652;-1397;8192;0.8199469;0.3545706;-0.4279778;-0.1371191;-4;-8;7;-2410;-2005;2779;32768;0.8688771;0.4695291;-0.1232687;-0.09695291;11;-1;-8;1463;-3605;-2169;256;0.01246537;0.01385042;-0.6274238;-0.778455;7;2;-1;-197;4150;-757;128;0.02908587;0.04155125;0.567867;0.8215562;-1;-1;0;-517;4055;1458;4;0.5439283;-0.5373961;0.4612188;0.4501385;1;2;0;-75;4066;102;16;0.6772853;-0.7219867;-0.05540166;-0.1301939;0;1;0;409;4024;302;2;0.4889196;-0.5027701;-0.4916897;-0.5161599;0;1;0;-171;4116;-113;8;0.6925207;-0.7096848;0.05955679;0.1149584;0;0;-1;-339;4119;79;0.4926878;2.83966;-0.05863539;0.498641;3.382153;-0.001296677;0.5038761;3.859216;0.04709243;0.4774989;4.57577;0.2030334;0.206957;4.892831;0.2350782;-0.128583;4.729938;0.2669806;-0.7656211;5.173155;-0.2390531;-1.003953;5.92272;-0.767397;0.7269487;4.911977;0.2350777;1.021207;4.772269;0.2669802;1.788986;5.215705;-0.1100546;2.072966;5.964926;-0.6158332;0.1804447;2.798637;-0.07103036;0.1542296;1.335712;-0.06643421;0;0;0;0.1804447;2.798637;-0.07103036;0.1542296;1.335712;-0.06643421;0;0;0
1277956.847;NotLabelled;NONE;16384;0.8520854;0.3587258;0.3130194;0.2174515;3;6;-5;2334;-1992;2603;65536;0.8376628;0.4722992;-0.006925208;0.2742382;2;-6;-15;-2162;-3228;-1683;8192;0.8199469;0.3545706;-0.4279778;-0.1371191;-4;7;2;-2076;-1863;2935;32768;0.8677736;0.4709141;-0.1246537;-0.09833795;12;6;-4;1681;-3301;-2193;256;0.01108033;0.01385042;-0.6260388;-0.7795902;8;2;1;-205;4160;-917;128;0.02908587;0.04155125;0.567867;0.8215562;-3;1;-1;-413;4041;1462;4;0.5448744;-0.5387812;0.4598338;0.4487534;0;1;0;-63;4080;62;16;0.6772853;-0.7217355;-0.05540166;-0.1315789;0;3;0;377;4050;270;2;0.4889196;-0.501385;-0.4916897;-0.5175054;0;0;0;-65;4142;-83;8;0.6925207;-0.7096848;0.05955679;0.1149584;0;0;-1;-317;4097;69;0.4901252;2.839954;-0.05862016;0.4960784;3.382447;-0.001281447;0.5013136;3.85951;0.04710766;0.4749363;4.576064;0.2030487;0.2043944;4.893126;0.2350934;-0.1311456;4.730232;0.2669959;-0.7700739;5.172552;-0.2374377;-1.00912;5.923627;-0.7633087;0.7243861;4.912271;0.2350929;1.018645;4.772563;0.2669954;1.787288;5.216436;-0.1077563;2.073604;5.966847;-0.6104439;0.1778821;2.798931;-0.07101513;0.151667;1.336006;-0.06641898;0;0;0;0.1778821;2.798931;-0.07101513;0.151667;1.336006;-0.06641898;0;0;0
1277976.8547;NotLabelled;NONE;16384;0.8524377;0.3587258;0.3130194;0.2160665;2;2;1;2098;-1958;2683;65536;0.8364126;0.4736842;-0.008310249;0.2756233;3;-14;-6;-1690;-3484;-1775;8192;0.8183885;0.3559557;-0.4293629;-0.1385041;-8;-7;6;-2446;-1823;3119;32768;0.8662204;0.4736842;-0.1260388;-0.09695291;8;-14;0;1139;-3463;-2103;256;0.01108033;0.01385042;-0.6246537;-0.7807004;8;2;2;-155;4168;-989;128;0.02908587;0.04293629;0.567867;0.8214849;-2;0;-1;-381;3953;1486;4;0.5448744;-0.5387812;0.4598338;0.4487534;0;2;0;-17;4000;16;16;0.6772853;-0.7216279;-0.0567867;-0.1315789;0;3;-1;377;4088;308;2;0.4889196;-0.501385;-0.4916897;-0.5175054;0;0;0;-37;4186;-105;8;0.6925207;-0.7094591;0.05955679;0.1163435;0;0;0;-353;4087;67;0.492031;2.839711;-0.05860816;0.4979841;3.382203;-0.001269449;0.5032192;3.859267;0.04711965;0.4784172;4.575309;0.2056459;0.2085683;4.892839;0.2388691;-0.1273206;4.730561;0.2702286;-0.769996;5.170323;-0.2316749;-1.008498;5.923612;-0.7546179;0.7286003;4.910855;0.2388688;1.022559;4.770396;0.2702286;1.790526;5.21427;-0.1059063;2.07947;5.965395;-0.606017;0.1797879;2.798688;-0.07100317;0.1541581;1.335755;-0.06573574;0;0;0;0.1797879;2.798688;-0.07100317;0.1541581;1.335755;-0.06573574;0;0;0
1277997.8391;NotLabelled;NONE;16384;0.8520854;0.3587258;0.3130194;0.2174515;0;-12;7;2682;-1802;2839;65536;0.8363977;0.4736842;-0.009695291;0.2756233;5;-14;2;-1766;-3448;-1749;8192;0.8171628;0.3559557;-0.432133;-0.1371191;-12;-17;10;-2296;-1907;3107;32768;0.8654127;0.4750692;-0.1274238;-0.09556787;5;-11;-5;769;-3577;-1887;256;0.01108033;0.01385042;-0.6246537;-0.7807004;4;0;0;25;4034;-961;128;0.02908587;0.04293629;0.567867;0.8214849;-1;0;0;-401;3841;1466;4;0.5460402;-0.5387812;0.4584487;0.4487534;0;0;2;-31;4050;14;16;0.6772853;-0.7216279;-0.0567867;-0.1315789;0;2;0;401;4046;308;2;0.4889196;-0.501385;-0.4916897;-0.5175054;0;0;-1;1;4144;-59;8;0.6925207;-0.7094591;0.05955679;0.1163435;-1;0;0;-331;4129;61;0.4894628;2.840004;-0.05859664;0.4954159;3.382494;-0.00122667;0.5006511;3.859554;0.04718993;0.4758784;4.57503;0.20826;0.2060382;4.892444;0.2426433;-0.1298492;4.73006;0.2734679;-0.7718395;5.170859;-0.2284026;-1.010138;5.925966;-0.7488101;0.7260704;4.910453;0.242643;1.020031;4.769879;0.2734678;1.790221;5.213366;-0.09855606;2.080358;5.967725;-0.593077;0.1772197;2.798983;-0.07099422;0.1515902;1.336049;-0.06572524;0;0;0;0.1772197;2.798983;-0.07099422;0.1515902;1.336049;-0.06572524;0;0;0
1278017.8541;NotLabelled;NONE;16384;0.8516542;0.3601108;0.3116343;0.2188366;-3;-6;8;2868;-1898;2705;65536;0.8351686;0.4750692;-0.008310249;0.2770083;5;-3;2;-2094;-3296;-1657;8192;0.8155472;0.3573407;-0.434903;-0.134349;-13;-13;7;-2194;-1915;2789;32768;0.8645977;0.4764543;-0.1288089;-0.09418282;7;-6;-9;1009;-3311;-1977;256;0.01108033;0.01523546;-0.6246537;-0.7806746;0;3;-2;-221;3878;-935;128;0.02908587;0.04293629;0.566482;0.8224406;0;1;1;-495;3875;1506;4;0.5460402;-0.5387812;0.4584487;0.4487534;0;-1;2;-125;4082;-52;16;0.6772853;-0.7216279;-0.0567867;-0.1315789;0;0;0;387;4028;358;2;0.4889196;-0.501385;-0.4916897;-0.5175054;-1;0;-2;29;4124;-101;8;0.6911357;-0.7108084;0.05955679;0.1163435;-1;-1;0;-351;4095;139;0.4888471;2.840024;-0.05487006;0.4948003;3.382514;0.002499914;0.5000354;3.859574;0.05091652;0.4752628;4.575049;0.2119866;0.2054225;4.892464;0.2463699;-0.1304649;4.730079;0.2771945;-0.7731711;5.169842;-0.2246696;-1.009274;5.925658;-0.745047;0.7254547;4.910472;0.2463696;1.019415;4.769898;0.2771944;1.79205;5.212957;-0.09024185;2.083298;5.968941;-0.581616;0.176604;2.799002;-0.06726763;0.1515901;1.336049;-0.06572531;0;0;0;0.176604;2.799002;-0.06726763;0.1515901;1.336049;-0.06572531;0;0;0
1278038.862;NotLabelled;NONE;16384;0.8520089;0.3601108;0.3116343;0.2174515;-5;7;1;2466;-2168;2653;65536;0.8351686;0.4750692;-0.008310249;0.2770083;7;7;-2;-1922;-3380;-1763;8192;0.8151661;0.3587258;-0.434903;-0.132964;-11;0;2;-1958;-2001;2465;32768;0.863833;0.4778393;-0.1288089;-0.09418282;13;1;-8;899;-3249;-2191;256;0.009695291;0.01523546;-0.6246537;-0.7806931;5;6;0;-243;3986;-871;128;0.03047091;0.04155125;0.566482;0.8224617;0;6;0;-503;3909;1532;4;0.5460402;-0.5387812;0.4584487;0.4487534;0;-1;1;-135;4078;-10;16;0.6772853;-0.7218791;-0.0567867;-0.1301939;0;0;0;343;4076;296;2;0.4889196;-0.501385;-0.4916897;-0.5175054;-1;-1;-3;-5;4104;-33;8;0.6911357;-0.7108084;0.05955679;0.1163435;-1;0;1;-349;4123;197;0.4887008;2.839982;-0.05510209;0.4946518;3.382274;0.00409964;0.4998851;3.859169;0.05412708;0.4738742;4.574598;0.2152072;0.2034848;4.891544;0.249595;-0.1321209;4.728579;0.2804176;-0.7748744;5.17;-0.219927;-1.016264;5.926204;-0.7373081;0.7234852;4.910453;0.2495947;1.017689;4.770388;0.2804174;1.791143;5.216108;-0.08204249;2.082431;5.973717;-0.5708867;0.1764582;2.799002;-0.06764963;0.1514476;1.336049;-0.0660532;0;0;0;0.1764582;2.799002;-0.06764963;0.1514476;1.336049;-0.0660532;0;0;0
1278059.8846;NotLabelled;NONE;16384;0.8515359;0.3628809;0.3116343;0.2146814;-1;-2;3;2084;-2204;2323;65536;0.8332508;0.4792244;-0.008310249;0.2756233;9;-8;-8;-1726;-3278;-1247;8192;0.8145552;0.3601108;-0.434903;-0.132964;-4;8;1;-2160;-2165;2525;32768;0.8627053;0.4792244;-0.1301939;-0.09556787;15;11;-5;967;-3261;-2147;256;0.008310249;0.0166205;-0.6232687;-0.781787;8;6;2;-143;4082;-1095;128;0.03047091;0.04155125;0.566482;0.8224617;1;7;0;-465;3961;1494;4;0.5460402;-0.5387812;0.4584487;0.4487534;0;0;0;-23;4116;12;16;0.6772853;-0.7216279;-0.0567867;-0.1315789;0;1;0;423;3982;322;2;0.4889196;-0.5;-0.4916897;-0.5188437;-1;0;-3;83;4052;-49;8;0.6911357;-0.7108084;0.05955679;0.1163435;0;-1;0;-287;4095;237;0.4859691;2.84023;-0.05635979;0.4919201;3.382531;0.002760181;0.4971536;3.859433;0.05271573;0.4726908;4.57491;0.2138257;0.2029879;4.892439;0.2482271;-0.1329697;4.730198;0.2790434;-0.7759534;5.172656;-0.2200884;-1.018238;5.928861;-0.7370505;0.7230278;4.910223;0.2482269;1.016927;4.76952;0.2790432;1.788811;5.21832;-0.08296504;2.079342;5.977505;-0.5698086;0.1737265;2.799248;-0.0689006;0.1487188;1.336295;-0.06726088;0;0;0;0.1737265;2.799248;-0.0689006;0.1487188;1.336295;-0.06726088;0;0;0
1278081.8501;NotLabelled;NONE;16384;0.8520415;0.3628809;0.3102493;0.2146814;-1;-11;4;2196;-2002;2651;65536;0.8319778;0.4806094;-0.009695291;0.2770083;4;-13;-7;-1906;-3356;-1387;8192;0.8131999;0.3614958;-0.4362881;-0.132964;-4;-5;10;-2260;-1921;2761;32768;0.860384;0.4833795;-0.1301939;-0.09556787;15;3;-5;899;-3281;-2365;256;0.008310249;0.0166205;-0.6218836;-0.7828892;1;2;0;-87;4100;-1025;128;0.03185596;0.04155125;0.567867;0.8214534;0;5;0;-441;3895;1482;4;0.5460402;-0.5387812;0.4584487;0.4487534;0;0;0;-19;4100;26;16;0.6772853;-0.7216279;-0.0567867;-0.1315789;0;1;0;337;4042;320;2;0.4889196;-0.5;-0.4930748;-0.5175276;-1;1;-3;177;4122;-119;8;0.6911357;-0.7108084;0.05955679;0.1163435;0;0;0;-257;4153;273;0.4883133;2.839983;-0.05611089;0.4942644;3.382285;0.003009055;0.4994979;3.859187;0.05296458;0.4753841;4.574092;0.2166467;0.2058317;4.89162;0.2522217;-0.1301969;4.729424;0.2824963;-0.7740734;5.177536;-0.2104;-1.019236;5.938554;-0.7188718;0.7258797;4.909163;0.2522215;1.019718;4.768216;0.2824962;1.790044;5.218774;-0.08064371;2.082192;5.978612;-0.5654956;0.1760707;2.799002;-0.06865175;0.1510697;1.336049;-0.06691317;0;0;0;0.1760707;2.799002;-0.06865175;0.1510697;1.336049;-0.06691317;0;0;0
1278101.8512;NotLabelled;NONE;16384;0.8510999;0.3642659;0.3102493;0.2160665;-5;-4;2;2796;-1784;2663;65536;0.8311588;0.4819945;-0.01108033;0.2770083;2;2;-3;-1840;-3382;-1471;8192;0.8126807;0.3614958;-0.4376731;-0.1315789;-4;-8;11;-1920;-2119;2959;32768;0.8594493;0.4847645;-0.1301939;-0.09695291;9;5;-8;1459;-3611;-1497;256;0.008310249;0.0166205;-0.6218836;-0.7828892;-4;0;0;-95;3972;-993;128;0.03185596;0.0401662;0.566482;0.8224779;-1;1;2;-375;3789;1504;4;0.5460402;-0.5387812;0.4584487;0.4487534;0;2;0;-21;4020;20;16;0.6772853;-0.7216279;-0.0567867;-0.1315789;0;0;0;363;4058;320;2;0.4889196;-0.5;-0.4930748;-0.5175276;-1;3;-1;125;4134;-165;8;0.6911357;-0.7108084;0.05955679;0.1163435;0;3;0;-331;4111;271;0.4883093;2.840027;-0.05627723;0.4942626;3.382531;0.0009564627;0.4994979;3.859603;0.04925321;0.4754236;4.573926;0.2154673;0.2058842;4.891333;0.2521981;-0.1301453;4.72904;0.2819383;-0.7722579;5.178044;-0.2124465;-1.017232;5.940838;-0.7183408;0.7259329;4.908863;0.2521978;1.019771;4.7678;0.2819385;1.791483;5.219238;-0.07714403;2.0839;5.983744;-0.5544387;0.1760662;2.799002;-0.06866362;0.1510654;1.33605;-0.06692285;0;0;0;0.1760662;2.799002;-0.06866362;0.1510654;1.33605;-0.06692285;0;0;0
1278122.051;NotLabelled;NONE;16384;0.8514503;0.3642659;0.3102493;0.2146814;-6;6;2;2562;-2080;2529;65536;0.8316364;0.4819945;-0.009695291;0.2756233;3;6;-5;-1938;-3316;-1467;8192;0.8119333;0.3614958;-0.4390582;-0.1315789;-5;2;10;-1824;-1823;2933;32768;0.8582978;0.4861496;-0.1315789;-0.09833795;3;-6;-8;1337;-3555;-1599;256;0.008310249;0.01800554;-0.6232687;-0.7817563;0;3;0;-273;3872;-895;128;0.03185596;0.03878116;0.566482;0.8225445;-3;1;0;-341;3825;1426;4;0.5460402;-0.5387812;0.4584487;0.4487534;0;3;0;-29;4098;26;16;0.6772853;-0.7216279;-0.0567867;-0.1315789;1;0;0;319;4082;294;2;0.4889196;-0.4986149;-0.4930748;-0.5188622;-1;4;0;65;4020;-189;8;0.6911357;-0.7110338;0.05955679;0.1149584;0;4;0;-273;4105;219;0.4883093;2.839985;-0.05612853;0.4942605;3.382296;0.002905058;0.4994939;3.859206;0.05278464;0.4754198;4.573527;0.218999;0.2058804;4.890935;0.2557299;-0.1301491;4.728642;0.2854703;-0.7730994;5.178403;-0.2071348;-1.016594;5.94336;-0.7104706;0.7259291;4.908464;0.2557297;1.019767;4.767403;0.2854703;1.79235;5.219292;-0.07116413;2.0861;5.984856;-0.5459378;0.1760666;2.799002;-0.06866229;0.1510656;1.336049;-0.06692222;0;0;0;0.1760666;2.799002;-0.06866229;0.1510656;1.336049;-0.06692222;0;0;0
1278142.861;NotLabelled;NONE;16384;0.8512047;0.365651;0.3102493;0.2132964;-4;6;0;2040;-2306;2467;65536;0.8312731;0.4833795;-0.01108033;0.2742382;4;6;-11;-1750;-3250;-1387;8192;0.8103381;0.3628809;-0.4404432;-0.132964;-9;6;11;-2504;-1625;2931;32768;0.85724;0.4875346;-0.134349;-0.09695291;2;-14;-17;1151;-3711;-1751;256;0.006925208;0.01800554;-0.6232687;-0.7817698;3;4;0;-239;3896;-921;128;0.03185596;0.03878116;0.566482;0.8225445;0;2;0;-401;3871;1466;4;0.5460402;-0.5387812;0.4584487;0.4487534;0;2;0;-7;4072;90;16;0.6772853;-0.7216279;-0.0567867;-0.1315789;1;1;0;359;4070;308;2;0.4875346;-0.4986149;-0.4944598;-0.5188474;0;2;0;-47;4030;-159;8;0.6911357;-0.7111484;0.05817174;0.1149584;2;3;0;-343;4069;187;0.488164;2.839986;-0.05650207;0.4941153;3.382301;0.002499785;0.4993488;3.859213;0.05235147;0.4740006;4.574074;0.2160435;0.2039002;4.891135;0.2516229;-0.1318477;4.728359;0.2818954;-0.7751041;5.179152;-0.2093645;-1.020568;5.943792;-0.7122247;0.7239171;4.909578;0.2516227;1.017999;4.769137;0.2818954;1.791407;5.220153;-0.07405418;2.087711;5.986312;-0.5462737;0.1759214;2.799002;-0.06903324;0.1509241;1.336049;-0.06724045;0;0;0;0.1759214;2.799002;-0.06903324;0.1509241;1.336049;-0.06724045;0;0;0
1278163.8803;NotLabelled;NONE;16384;0.8509545;0.367036;0.3102493;0.2119114;-1;-8;3;2232;-2008;2487;65536;0.830071;0.4861496;-0.01385042;0.2728532;2;-4;-11;-1778;-3448;-1209;8192;0.8078046;0.365651;-0.4432133;-0.1315789;-8;-4;2;-2426;-2175;2721;32768;0.855968;0.4875346;-0.1412742;-0.09833795;7;3;-21;1095;-3353;-2051;256;0.006925208;0.01800554;-0.6218836;-0.782872;3;4;0;-119;3984;-867;128;0.033241;0.03878116;0.566482;0.8224896;-1;3;0;-407;3847;1448;4;0.5446702;-0.5401662;0.4584487;0.4487534;0;1;0;3;4082;92;16;0.6772853;-0.7216279;-0.0567867;-0.1315789;0;0;0;447;4012;364;2;0.4875346;-0.4986149;-0.4944598;-0.5188474;0;2;0;-51;4120;-139;8;0.6911357;-0.7111484;0.05817174;0.1149584;2;5;-1;-291;4153;173;0.4880446;2.839986;-0.05680552;0.4939958;3.382301;0.002196366;0.4992293;3.859213;0.05204806;0.4754301;4.574123;0.2157588;0.2060174;4.891767;0.2513469;-0.1300824;4.729718;0.2816153;-0.773622;5.183328;-0.2066724;-1.017183;5.950512;-0.7065734;0.726073;4.909083;0.2513465;1.01985;4.768004;0.2816152;1.794856;5.218551;-0.07144002;2.093636;5.985822;-0.5402814;0.175802;2.799002;-0.06933674;0.1508078;1.336049;-0.06750086;0;0;0;0.175802;2.799002;-0.06933674;0.1508078;1.336049;-0.06750086;0;0;0
1278184.0239;NotLabelled;NONE;16384;0.8500094;0.368421;0.3102493;0.2132964;-1;-9;4;2658;-1842;2353;65536;0.829234;0.4875346;-0.01523546;0.2728532;2;-9;-13;-2034;-3188;-1323;8192;0.8078046;0.365651;-0.4432133;-0.1315789;-4;-1;2;-2404;-2171;2659;32768;0.8546245;0.4889196;-0.1426593;-0.101108;10;18;-15;1393;-3261;-1953;256;0.006925208;0.01800554;-0.6218836;-0.782872;0;2;-2;-111;4012;-903;128;0.033241;0.03739612;0.5650969;0.8235059;-1;4;3;-339;3901;1466;4;0.5446702;-0.5401662;0.4584487;0.4487534;0;2;0;-25;4118;110;16;0.6772853;-0.7216279;-0.0567867;-0.1315789;0;1;0;401;4108;300;2;0.4875346;-0.4972299;-0.4944598;-0.5201749;0;3;0;-69;4140;-175;8;0.6925207;-0.7101348;0.0567867;0.1135734;1;3;-1;-249;4047;119;0.4842987;2.840035;-0.06112139;0.49025;3.382356;-0.002178518;0.4954835;3.859274;0.04762128;0.4717286;4.5736;0.2138641;0.2023311;4.891126;0.2506081;-0.1337706;4.728982;0.2803425;-0.7767692;5.185402;-0.2060347;-1.01609;5.957248;-0.7007837;0.7223874;4.908424;0.2506077;1.016163;4.767229;0.280342;1.793233;5.2208;-0.06420241;2.104243;5.985252;-0.5296835;0.172056;2.79905;-0.07364775;0.1508039;1.33605;-0.06750982;0;0;0;0.172056;2.79905;-0.07364775;0.1508039;1.33605;-0.06750982;0;0;0
1278205.0306;NotLabelled;NONE;16384;0.8501651;0.368421;0.3088643;0.2146814;0;-1;5;2396;-2146;2471;65536;0.8283626;0.4889196;-0.01800554;0.2728532;2;-7;-17;-1722;-3350;-1409;8192;0.8071763;0.367036;-0.4432133;-0.1315789;0;0;1;-2088;-2131;2563;32768;0.853498;0.4903047;-0.1426593;-0.1038781;12;11;-10;1597;-3239;-2025;256;0.006925208;0.01939058;-0.6218836;-0.7828389;0;2;-4;-219;4036;-921;128;0.033241;0.03739612;0.5650969;0.8235059;-1;2;4;-397;3949;1428;4;0.5446702;-0.5401662;0.4584487;0.4487534;0;2;-1;85;4076;80;16;0.6772853;-0.7212636;-0.05817174;-0.132964;0;0;0;387;4030;254;2;0.4875346;-0.4972299;-0.4944598;-0.5201749;0;4;1;-73;4110;-147;8;0.6925207;-0.7101348;0.0567867;0.1135734;2;1;-1;-241;4095;37;0.4842984;2.839993;-0.06097445;0.4902475;3.382116;-0.0002345722;0.4954792;3.858866;0.05114552;0.4717242;4.573193;0.2173883;0.2023267;4.890718;0.2541321;-0.1337751;4.728575;0.2838664;-0.7776778;5.185739;-0.2006118;-1.015509;5.959706;-0.692758;0.722383;4.908016;0.2541319;1.016158;4.766822;0.2838666;1.793231;5.220391;-0.06067253;2.109013;5.984839;-0.5229386;0.1720562;2.799049;-0.07364785;0.1508039;1.33605;-0.06750984;0;0;0;0.1720562;2.799049;-0.07364785;0.1508039;1.33605;-0.06750984;0;0;0
1278225.8464;NotLabelled;NONE;16384;0.8500658;0.3698061;0.3074792;0.2146814;0;-2;2;2314;-2190;2541;65536;0.8274786;0.4903047;-0.02077562;0.2728532;2;-9;-12;-1500;-3442;-1495;8192;0.8071763;0.367036;-0.4432133;-0.1315789;-1;4;1;-1866;-2073;2679;32768;0.8522981;0.4916897;-0.1440443;-0.1052632;10;6;-5;1555;-3173;-1827;256;0.006925208;0.02077562;-0.6218836;-0.7828034;0;2;0;-177;3962;-1021;128;0.033241;0.03601108;0.5650969;0.8235677;-1;1;1;-423;3809;1446;4;0.5469687;-0.5401662;0.4570637;0.4473684;0;5;-1;-19;4074;56;16;0.6772853;-0.7212636;-0.05817174;-0.132964;0;1;0;379;4054;212;2;0.4861496;-0.4972299;-0.4958449;-0.5201527;0;5;0;-87;4110;-115;8;0.6925207;-0.7101348;0.0567867;0.1135734;2;3;0;-405;4099;35;0.4841945;2.840036;-0.06036203;0.4901437;3.382159;0.0003778599;0.4953754;3.85891;0.05175798;0.4703896;4.573192;0.2180106;0.2004453;4.890252;0.254759;-0.1353765;4.727529;0.2844912;-0.7802662;5.184554;-0.1988035;-1.015499;5.961323;-0.6877744;0.7204711;4.908446;0.2547588;1.014489;4.767757;0.2844913;1.789925;5.223045;-0.06146697;2.107292;5.98794;-0.5219029;0.1719523;2.799092;-0.07303543;0.1507134;1.336093;-0.0668514;0;0;0;0.1719523;2.799092;-0.07303543;0.1507134;1.336093;-0.0668514;0;0;0
1278247.8463;NotLabelled;NONE;16384;0.8500658;0.3698061;0.3074792;0.2146814;1;-4;3;2438;-2116;2573;65536;0.8266204;0.4916897;-0.02216066;0.2728532;4;-9;-9;-1312;-3374;-1521;8192;0.806545;0.368421;-0.4432133;-0.1315789;-3;8;2;-1870;-2003;2757;32768;0.8513253;0.4930748;-0.1440443;-0.1066482;7;4;-2;1307;-3349;-1789;256;0.006925208;0.02077562;-0.6218836;-0.7828034;0;3;0;-215;3920;-959;128;0.033241;0.03601108;0.5650969;0.8235677;0;3;0;-423;3843;1494;4;0.5469687;-0.5401662;0.4570637;0.4473684;0;5;0;21;4054;88;16;0.6772853;-0.7212636;-0.05817174;-0.132964;0;1;0;363;4062;288;2;0.4861496;-0.4958449;-0.4972299;-0.5201527;-1;4;0;-153;4102;-91;8;0.6939058;-0.7091116;0.05540166;0.1121884;1;2;0;-263;4105;41;0.4871795;2.839999;-0.0571012;0.4931286;3.382126;0.003606966;0.4983603;3.858879;0.05495918;0.4721437;4.573114;0.2212222;0.2016534;4.889709;0.2579752;-0.1338876;4.726406;0.2877053;-0.7770846;5.186098;-0.1953169;-1.009715;5.965652;-0.6810893;0.7216471;4.908798;0.257975;1.015907;4.768617;0.2877053;1.791342;5.223905;-0.05825482;2.111264;5.989271;-0.516133;0.1749372;2.799055;-0.06977203;0.1505678;1.336093;-0.06717841;0;0;0;0.1749372;2.799055;-0.06977203;0.1505678;1.336093;-0.06717841;0;0;0
