SEP=;
index;label;segment;RightUpperArm_boneIndex;RightUpperArm_quat9x_w;RightUpperArm_quat9x_x;RightUpperArm_quat9x_y;RightUpperArm_quat9x_z;RightUpperArm_gyroscope_x;RightUpperArm_gyroscope_y;RightUpperArm_gyroscope_z;RightUpperArm_accelerometer_x;RightUpperArm_accelerometer_y;RightUpperArm_accelerometer_z;RightLowerArm_boneIndex;RightLowerArm_quat9x_w;RightLowerArm_quat9x_x;RightLowerArm_quat9x_y;RightLowerArm_quat9x_z;RightLowerArm_gyroscope_x;RightLowerArm_gyroscope_y;RightLowerArm_gyroscope_z;RightLowerArm_accelerometer_x;RightLowerArm_accelerometer_y;RightLowerArm_accelerometer_z;LeftUpperArm_boneIndex;LeftUpperArm_quat9x_w;LeftUpperArm_quat9x_x;LeftUpperArm_quat9x_y;LeftUpperArm_quat9x_z;LeftUpperArm_gyroscope_x;LeftUpperArm_gyroscope_y;LeftUpperArm_gyroscope_z;LeftUpperArm_accelerometer_x;LeftUpperArm_accelerometer_y;LeftUpperArm_accelerometer_z;LeftLowerArm_boneIndex;LeftLowerArm_quat9x_w;LeftLowerArm_quat9x_x;LeftLowerArm_quat9x_y;LeftLowerArm_quat9x_z;LeftLowerArm_gyroscope_x;LeftLowerArm_gyroscope_y;LeftLowerArm_gyroscope_z;LeftLowerArm_accelerometer_x;LeftLowerArm_accelerometer_y;LeftLowerArm_accelerometer_z;Chest_boneIndex;Chest_quat9x_w;Chest_quat9x_x;Chest_quat9x_y;Chest_quat9x_z;Chest_gyroscope_x;Chest_gyroscope_y;Chest_gyroscope_z;Chest_accelerometer_x;Chest_accelerometer_y;Chest_accelerometer_z;Spine_boneIndex;Spine_quat9x_w;Spine_quat9x_x;Spine_quat9x_y;Spine_quat9x_z;Spine_gyroscope_x;Spine_gyroscope_y;Spine_gyroscope_z;Spine_accelerometer_x;Spine_accelerometer_y;Spine_accelerometer_z;RightUpperLeg_boneIndex;RightUpperLeg_quat9x_w;RightUpperLeg_quat9x_x;RightUpperLeg_quat9x_y;RightUpperLeg_quat9x_z;RightUpperLeg_gyroscope_x;RightUpperLeg_gyroscope_y;RightUpperLeg_gyroscope_z;RightUpperLeg_accelerometer_x;RightUpperLeg_accelerometer_y;RightUpperLeg_accelerometer_z;RightLowerLeg_boneIndex;RightLowerLeg_quat9x_w;RightLowerLeg_quat9x_x;RightLowerLeg_quat9x_y;RightLowerLeg_quat9x_z;RightLowerLeg_gyroscope_x;RightLowerLeg_gyroscope_y;RightLowerLeg_gyroscope_z;RightLowerLeg_accelerometer_x;RightLowerLeg_accelerometer_y;RightLowerLeg_accelerometer_z;LeftUpperLeg_boneIndex;LeftUpperLeg_quat9x_w;LeftUpperLeg_quat9x_x;LeftUpperLeg_quat9x_y;LeftUpperLeg_quat9x_z;LeftUpperLeg_gyroscope_x;LeftUpperLeg_gyroscope_y;LeftUpperLeg_gyroscope_z;LeftUpperLeg_accelerometer_x;LeftUpperLeg_accelerometer_y;LeftUpperLeg_accelerometer_z;LeftLowerLeg_boneIndex;LeftLowerLeg_quat9x_w;LeftLowerLeg_quat9x_x;LeftLowerLeg_quat9x_y;LeftLowerLeg_quat9x_z;LeftLowerLeg_gyroscope_x;LeftLowerLeg_gyroscope_y;LeftLowerLeg_gyroscope_z;LeftLowerLeg_accelerometer_x;LeftLowerLeg_accelerometer_y;LeftLowerLeg_accelerometer_z;pelvis_x;pelvis_y;pelvis_z;lowerSpine_x;lowerSpine_y;lowerSpine_z;middleSpine_x;middleSpine_y;middleSpine_z;upperSpine_x;upperSpine_y;upperSpine_z;rightClavicle_x;rightClavicle_y;rightClavicle_z;rightShoulder_x;rightShoulder_y;rightShoulder_z;rightElbow_x;rightElbow_y;rightElbow_z;rightWrist_x;rightWrist_y;rightWrist_z;leftClavicle_x;leftClavicle_y;leftClavicle_z;leftShoulder_x;leftShoulder_y;leftShoulder_z;leftElbow_x;leftElbow_y;leftElbow_z;leftWrist_x;leftWrist_y;leftWrist_z;rightHip_x;rightHip_y;rightHip_z;rightKnee_x;rightKnee_y;rightKnee_z;rightAnkle_x;rightAnkle_y;rightAnkle_z;leftHip_x;leftHip_y;leftHip_z;leftKnee_x;leftKnee_y;leftKnee_z;leftAnkle_x;leftAnkle_y;leftAnkle_z;
269295.6326;NotLabelled;NONE;16384;0.7586476;0.5180055;0.3434903;0.1952908;3;-1;-3;2650;-2686;1701;65536;0.7381323;0.3102493;-0.5484765;-0.2409972;2;-2;-1;2931;-854;-2840;8192;0.6246537;-0.665675;-0.4030471;0.06509695;1;5;3;2574;3031;425;32768;0.3878116;-0.7987668;0.2451524;-0.3891967;4;2;0;2924;1704;2455;256;0.2451524;-0.3296399;-0.5761772;-0.7065817;0;1;-2;207;4046;-827;128;-0.01523546;0.1883656;0.5886427;0.7859937;2;-1;0;-813;3943;1372;4;-0.5623268;0.1620499;-0.468144;-0.6620948;0;-1;0;2609;3386;346;16;0.7481186;-0.6357341;0.1703601;0.08448754;1;-2;0;331;4062;-744;2;0.536011;-0.6877035;-0.367036;-0.3240997;0;-4;1;713;4184;-573;8;0.4529086;-0.8647619;-0.2160665;-0.01939058;0;4;0;-1305;3375;2041;0.05245697;2.536375;1.107379;0.05843222;3.080884;1.140476;0.06368589;3.559629;1.167548;0.0890038;4.275664;1.326031;-0.1579859;4.611285;1.359234;-0.504398;4.472888;1.390603;-0.7884404;5.077641;0.7487912;-0.04099393;5.259398;1.302042;0.362033;4.592901;1.359234;0.6454529;4.432237;1.390603;0.8642241;3.68068;1.952367;0.07346886;3.275787;1.622889;-0.2597916;2.494844;1.096978;-0.003448173;1.320288;0.2629723;0;0;0;-0.2597916;2.494844;1.096978;-0.003448173;1.320288;0.2629723;0;0;0
269315.7351;NotLabelled;NONE;16384;0.7595915;0.5166205;0.3434903;0.1952908;3;0;-3;2706;-2672;1649;65536;0.7381323;0.3102493;-0.5484765;-0.2409972;2;-2;0;2923;-916;-2894;8192;0.6246537;-0.665675;-0.4030471;0.06509695;0;2;0;2460;3129;437;32768;0.3878116;-0.7987668;0.2451524;-0.3891967;1;-1;0;2974;1600;2373;256;0.2451524;-0.3296399;-0.5761772;-0.7065817;1;1;-1;269;4098;-791;128;-0.01523546;0.1897507;0.5886427;0.7856604;0;0;0;-913;3815;1350;4;-0.5623268;0.1620499;-0.468144;-0.6620948;0;0;0;2613;3342;370;16;0.7481186;-0.6357341;0.1703601;0.08448754;1;4;0;347;4048;-692;2;0.536011;-0.6883546;-0.367036;-0.3227147;-1;1;0;715;4040;-667;8;0.4529086;-0.8647619;-0.2160665;-0.01939058;0;0;0;-1295;3189;1967;0.05383754;2.534526;1.113831;0.05981296;3.079044;1.146799;0.0650667;3.557796;1.173759;0.0890134;4.273879;1.332232;-0.1586186;4.609027;1.36543;-0.5047649;4.469968;1.396801;-0.7910638;5.073499;0.7548413;-0.04252714;5.256961;1.306051;0.3614347;4.59164;1.36543;0.6451616;4.431519;1.396801;0.8663009;3.681136;1.959207;0.07522839;3.274907;1.632143;-0.2584111;2.492993;1.10344;-0.003108978;1.319297;0.2679066;0;0;0;-0.2584111;2.492993;1.10344;-0.003108978;1.319297;0.2679066;0;0;0
269336.5132;NotLabelled;NONE;16384;0.759234;0.5166205;0.3434903;0.1966759;2;0;0;2696;-2640;1605;65536;0.7375525;0.3102493;-0.5498615;-0.2396122;1;-1;-1;2765;-876;-2878;8192;0.6246537;-0.665809;-0.4030471;0.06371191;0;2;0;2576;3233;239;32768;0.3891967;-0.7976661;0.2465374;-0.3891967;2;0;-1;2972;1720;2313;256;0.2451524;-0.3296399;-0.5761772;-0.7065817;1;2;-1;317;3992;-771;128;-0.01523546;0.1883656;0.5886427;0.7859937;0;2;1;-847;3751;1284;4;-0.5623268;0.1620499;-0.468144;-0.6620948;0;1;0;2509;3240;356;16;0.7481186;-0.6357341;0.1703601;0.08448754;0;1;0;483;4062;-736;2;0.536011;-0.6877035;-0.367036;-0.3240997;0;1;-1;731;3968;-673;8;0.4529086;-0.8647619;-0.2160665;-0.01939058;0;1;0;-1531;3249;2001;0.05383778;2.534526;1.113835;0.05981302;3.079039;1.146864;0.06506675;3.557788;1.173877;0.08901346;4.273872;1.332349;-0.1586185;4.60902;1.365547;-0.5047649;4.46996;1.396919;-0.7891465;5.072446;0.7531272;-0.04060996;5.255908;1.304336;0.361435;4.591632;1.365547;0.6451619;4.431511;1.396919;0.866305;3.68113;1.959323;0.07523263;3.2749;1.63226;-0.2584108;2.492994;1.103439;-0.00310877;1.319296;0.2679059;0;0;0;-0.2584108;2.492994;1.103439;-0.00310877;1.319296;0.2679059;0;0;0
269357.5162;NotLabelled;NONE;16384;0.759234;0.5166205;0.3434903;0.1966759;1;-1;0;2634;-2590;1583;65536;0.7375525;0.3102493;-0.5498615;-0.2396122;1;0;-1;2723;-892;-2850;8192;0.6232687;-0.6671057;-0.4030471;0.06371191;1;2;0;2544;3169;241;32768;0.3891967;-0.7976661;0.2465374;-0.3891967;2;1;0;2770;1642;2461;256;0.2451524;-0.3296399;-0.5761772;-0.7065817;1;3;-1;211;3892;-707;128;-0.01385042;0.1883656;0.5886427;0.7860193;0;2;1;-795;3825;1314;4;-0.5623268;0.1620499;-0.468144;-0.6620948;-1;3;0;2425;3188;300;16;0.7481186;-0.6357341;0.1703601;0.08448754;1;-1;0;273;4036;-802;2;0.536011;-0.6877035;-0.367036;-0.3240997;0;2;-1;673;3988;-657;8;0.4529086;-0.8644146;-0.2174515;-0.01939058;0;0;0;-1423;3193;2039;0.05383927;2.53465;1.113552;0.05981469;3.079167;1.14652;0.06506836;3.557919;1.173481;0.08901525;4.274021;1.331873;-0.1586165;4.609172;1.365034;-0.504763;4.470116;1.396421;-0.7898707;5.071306;0.7517406;-0.04314798;5.255301;1.305228;0.3614369;4.591785;1.365035;0.6451639;4.431666;1.396424;0.864879;3.68011;1.957816;0.07476777;3.273579;1.628808;-0.2584094;2.493116;1.103161;-0.003108442;1.319327;0.2677589;0;0;0;-0.2584094;2.493116;1.103161;-0.003108442;1.319327;0.2677589;0;0;0
269378.5197;NotLabelled;NONE;16384;0.759234;0.5166205;0.3434903;0.1966759;1;-1;0;2592;-2628;1573;65536;0.7375525;0.3102493;-0.5498615;-0.2396122;1;0;-2;2803;-852;-2900;8192;0.6232687;-0.6662669;-0.4044321;0.06371191;0;2;-1;2604;3011;399;32768;0.3891967;-0.7980928;0.2451524;-0.3891967;1;1;0;2894;1722;2401;256;0.2437673;-0.3296399;-0.5761772;-0.7070607;1;0;-1;323;4000;-803;128;-0.01385042;0.1883656;0.5886427;0.7860193;2;0;0;-831;3821;1290;4;-0.5637119;0.1620499;-0.468144;-0.660916;1;3;0;2283;3190;234;16;0.7484327;-0.6357341;0.1689751;0.08448754;0;7;0;-25;4006;-756;2;0.536011;-0.6877035;-0.367036;-0.3240997;0;0;-1;657;3978;-669;8;0.4529086;-0.8644146;-0.2174515;-0.01939058;0;1;0;-1517;3251;2173;0.05383772;2.534524;1.11384;0.05981308;3.079034;1.146937;0.06506664;3.557779;1.174009;0.0890134;4.273864;1.332481;-0.1586186;4.609012;1.36568;-0.5047649;4.469952;1.397051;-0.7898755;5.071214;0.7524383;-0.04315352;5.255146;1.305947;0.3614347;4.591623;1.365679;0.6451619;4.431502;1.397051;0.8617771;3.680115;1.959875;0.07166618;3.273623;1.63082;-0.2584109;2.492994;1.103439;-0.003108799;1.319297;0.2679059;0;0;0;-0.2584109;2.492994;1.103439;-0.003108799;1.319297;0.2679059;0;0;0
269399.5407;NotLabelled;NONE;16384;0.759234;0.5166205;0.3434903;0.1966759;1;-1;0;2654;-2628;1551;65536;0.7375525;0.3102493;-0.5498615;-0.2396122;2;0;-1;2833;-836;-2810;8192;0.6232687;-0.6663979;-0.4044321;0.06232687;0;1;-1;2494;3019;423;32768;0.3891967;-0.7980928;0.2451524;-0.3891967;1;0;0;2902;1718;2269;256;0.2437673;-0.3282548;-0.5775623;-0.7065749;0;0;-1;189;3940;-795;128;-0.01385042;0.1883656;0.5886427;0.7860193;0;0;1;-825;3767;1302;4;-0.5637119;0.1634349;-0.466759;-0.6615542;3;2;0;2265;3310;274;16;0.7490514;-0.6357341;0.16759;0.08171745;0;3;0;531;4018;-728;2;0.536011;-0.6877035;-0.367036;-0.3240997;0;1;0;741;4038;-641;8;0.4529086;-0.8644146;-0.2174515;-0.01939058;0;5;0;-1533;3247;2121;0.05482274;2.533789;1.115018;0.06079805;3.078298;1.148115;0.06605178;3.557044;1.175187;0.09122574;4.272863;1.334663;-0.1558294;4.608391;1.36832;-0.5022167;4.469884;1.39948;-0.7885248;5.071146;0.7553988;-0.04077208;5.255079;1.307514;0.3641932;4.590106;1.368319;0.6476421;4.429452;1.399479;0.8663362;3.679235;1.96306;0.07608265;3.271406;1.636008;-0.2574258;2.492258;1.104617;-0.005313486;1.319519;0.2667733;0;0;0;-0.2574258;2.492258;1.104617;-0.005313486;1.319519;0.2667733;0;0;0
269420.5087;NotLabelled;NONE;16384;0.7601746;0.5152354;0.3434903;0.1966759;1;0;0;2602;-2656;1573;65536;0.7369684;0.3116343;-0.5498615;-0.2396122;1;0;-1;2817;-828;-2738;8192;0.6232687;-0.6663979;-0.4044321;0.06232687;0;2;0;2584;3133;313;32768;0.3905817;-0.796311;0.2465374;-0.3905817;2;-1;0;2884;1708;2237;256;0.2437673;-0.3282548;-0.5775623;-0.7065749;2;2;-2;173;3918;-767;128;-0.01385042;0.1883656;0.5886427;0.7860193;0;2;0;-771;3797;1244;4;-0.5637119;0.1648199;-0.466759;-0.6612105;1;2;0;2361;3380;378;16;0.7490514;-0.6357341;0.16759;0.08171745;0;0;0;669;4000;-710;2;0.536011;-0.6877035;-0.367036;-0.3240997;-1;2;0;817;4034;-633;8;0.4529086;-0.8643824;-0.2174515;-0.02077562;0;2;1;-1463;3195;2017;0.05270177;2.533761;1.115854;0.05867702;3.07827;1.14895;0.06393069;3.557015;1.176023;0.08880031;4.273365;1.33315;-0.158402;4.60889;1.365734;-0.5047233;4.47033;1.397388;-0.7925938;5.071592;0.7540038;-0.04350322;5.255526;1.304303;0.3616288;4.590838;1.365734;0.6451532;4.430414;1.397388;0.8637863;3.67896;1.959341;0.07274175;3.271131;1.634207;-0.2595468;2.49223;1.105452;-0.004117131;1.319013;0.2692842;0;0;0;-0.2595468;2.49223;1.105452;-0.004117131;1.319013;0.2692842;0;0;0
269440.523;NotLabelled;NONE;16384;0.7601746;0.5152354;0.3434903;0.1966759;1;0;0;2572;-2636;1569;65536;0.7363825;0.3116343;-0.5512465;-0.2382271;2;0;-2;2751;-714;-2798;8192;0.6232687;-0.666526;-0.4044321;0.06094183;0;4;-2;2508;3085;457;32768;0.3905817;-0.796311;0.2465374;-0.3905817;0;0;0;2756;1700;2457;256;0.2423823;-0.3268698;-0.5775623;-0.7076926;2;3;-1;217;4004;-673;128;-0.01385042;0.1883656;0.5886427;0.7860193;1;1;0;-871;3863;1280;4;-0.5637119;0.1648199;-0.466759;-0.6612105;0;3;1;2441;3398;406;16;0.7490514;-0.6357341;0.16759;0.08171745;0;0;0;407;4058;-810;2;0.536011;-0.6877035;-0.367036;-0.3240997;-1;2;0;589;3906;-655;8;0.4529086;-0.8643824;-0.2174515;-0.02077562;0;0;0;-1375;3269;1931;0.0520184;2.535576;1.113091;0.05799383;3.080085;1.146188;0.06324744;3.55883;1.17326;0.08811706;4.27518;1.330387;-0.1590853;4.610705;1.362972;-0.5054065;4.472146;1.394625;-0.7913644;5.072356;0.7494086;-0.04347825;5.257879;1.30081;0.3609453;4.592654;1.362972;0.6444699;4.43223;1.394626;0.8631032;3.680775;1.956578;0.07348335;3.273838;1.626895;-0.2602301;2.494045;1.10269;-0.004117042;1.319013;0.2692842;0;0;0;-0.2602301;2.494045;1.10269;-0.004117042;1.319013;0.2692842;0;0;0
269460.5093;NotLabelled;NONE;16384;0.7604396;0.5152354;0.3421052;0.1980609;2;-3;-2;2632;-2718;1573;65536;0.7353436;0.3116343;-0.5526316;-0.2382271;2;-1;-2;2895;-804;-2762;8192;0.6232687;-0.666526;-0.4044321;0.06094183;-1;1;-3;2498;3149;361;32768;0.3905817;-0.796311;0.2465374;-0.3905817;-1;0;0;2904;1790;2435;256;0.2423823;-0.3268698;-0.5775623;-0.7076926;1;3;-1;257;4036;-757;128;-0.01385042;0.1869806;0.5886427;0.78635;2;0;0;-803;3939;1184;4;-0.5637119;0.1648199;-0.466759;-0.6612105;0;0;1;2309;3322;224;16;0.7490514;-0.6357341;0.16759;0.08171745;0;6;0;209;4082;-682;2;0.5373961;-0.6866217;-0.367036;-0.3240997;-1;-1;-2;507;4030;-659;8;0.4529086;-0.8643824;-0.2174515;-0.02077562;-1;0;-1;-1403;3225;2001;0.05670083;2.535576;1.114186;0.06267613;3.080086;1.147282;0.0679298;3.558831;1.174355;0.09265983;4.274968;1.332469;-0.1546061;4.610401;1.365505;-0.5009032;4.471735;1.396951;-0.7923273;5.071945;0.7541845;-0.04391718;5.257941;1.304716;0.365428;4.592447;1.365504;0.6489807;4.432032;1.396951;0.8709433;3.679342;1.955937;0.07993132;3.272405;1.629608;-0.2555477;2.494045;1.103785;-0.002974093;1.319013;0.2692994;0;0;0;-0.2555477;2.494045;1.103785;-0.002974093;1.319013;0.2692994;0;0;0
269480.5152;NotLabelled;NONE;16384;0.7604396;0.5152354;0.3421052;0.1980609;2;-2;-2;2680;-2636;1621;65536;0.7353436;0.3116343;-0.5526316;-0.2382271;3;-2;-1;2985;-838;-2818;8192;0.6232687;-0.666526;-0.4044321;0.06094183;-1;-1;-2;2536;3235;357;32768;0.3905817;-0.796311;0.2465374;-0.3905817;0;0;-1;2962;1808;2339;256;0.2423823;-0.3268698;-0.5775623;-0.7076926;0;2;0;145;4068;-741;128;-0.01385042;0.1869806;0.5900277;0.7853112;0;2;0;-763;3931;1224;4;-0.5637119;0.1648199;-0.466759;-0.6612105;1;-1;0;2115;3248;328;16;0.7480237;-0.6371191;0.16759;0.08033241;1;1;0;559;4008;-612;2;0.5373961;-0.6859662;-0.367036;-0.3254848;0;-1;-2;561;3952;-653;8;0.4529086;-0.8643824;-0.2174515;-0.02077562;0;-1;0;-1459;3255;2131;0.05670083;2.535576;1.114182;0.06267619;3.080089;1.147217;0.0679298;3.558838;1.174236;0.09266001;4.274974;1.332351;-0.1546059;4.610408;1.365387;-0.5009032;4.471741;1.396833;-0.7879779;5.071832;0.7520007;-0.04115504;5.256588;1.305099;0.3654282;4.592453;1.365386;0.6489809;4.432039;1.396833;0.8685681;3.679349;1.956756;0.07755607;3.272413;1.630426;-0.2555478;2.494044;1.103786;-0.002974108;1.319013;0.2693;0;0;0;-0.2555478;2.494044;1.103786;-0.002974108;1.319013;0.2693;0;0;0
269501.5413;NotLabelled;NONE;16384;0.7600775;0.5152354;0.3421052;0.199446;3;-1;-2;2690;-2604;1517;65536;0.7347486;0.3116343;-0.5540166;-0.2368421;3;-3;0;2893;-902;-2794;8192;0.6232687;-0.666526;-0.4044321;0.06094183;0;0;0;2788;3249;309;32768;0.3905817;-0.796311;0.2465374;-0.3905817;1;1;0;2900;1836;2361;256;0.2409972;-0.3254848;-0.5775623;-0.7088031;1;2;0;143;4032;-703;128;-0.01385042;0.1869806;0.5900277;0.7853112;0;1;0;-749;3869;1268;4;-0.5623268;0.1648199;-0.466759;-0.6623888;1;-4;0;2305;3302;294;16;0.7490514;-0.6357341;0.16759;0.08171745;1;-1;0;295;4034;-734;2;0.5373961;-0.6859662;-0.367036;-0.3254848;0;-2;-1;643;4026;-675;8;0.4515235;-0.8651068;-0.2174515;-0.02077562;0;0;-1;-1497;3231;2083;0.06130409;2.536018;1.112044;0.06728065;3.080642;1.14319;0.07253528;3.559482;1.168548;0.0972653;4.275618;1.326663;-0.1500005;4.611052;1.359699;-0.4962977;4.472386;1.391145;-0.7833206;5.072477;0.7462898;-0.03649771;5.257233;1.299388;0.3700336;4.593098;1.359698;0.6535863;4.432683;1.391145;0.873129;3.679992;1.951086;0.08211678;3.273056;1.624756;-0.250945;2.49445;1.101804;0.001628727;1.319419;0.2673181;0;0;0;-0.250945;2.49445;1.101804;0.001628727;1.319419;0.2673181;0;0;0
269522.6767;NotLabelled;NONE;16384;0.7603903;0.5138504;0.3434903;0.199446;4;0;-1;2616;-2540;1577;65536;0.7347486;0.3116343;-0.5540166;-0.2368421;3;-2;0;2749;-870;-2794;8192;0.6232687;-0.666526;-0.4044321;0.06094183;0;3;0;2766;3115;423;32768;0.3905817;-0.7967385;0.2451524;-0.3905817;2;2;0;2930;1874;2305;256;0.2409972;-0.3254848;-0.5789474;-0.7076722;0;0;-1;209;3908;-753;128;-0.01523546;0.1869806;0.5900277;0.7852856;3;0;1;-783;3849;1306;4;-0.5623268;0.1648199;-0.466759;-0.6623888;0;-5;0;2467;3360;274;16;0.7490514;-0.6357341;0.16759;0.08171745;1;-2;-1;491;3972;-688;2;0.5373961;-0.6867055;-0.365651;-0.3254848;0;-3;-1;735;4006;-619;8;0.4515235;-0.8651389;-0.2174515;-0.01939058;0;-4;-1;-1393;3237;1977;0.05972797;2.536554;1.113278;0.06570446;3.081178;1.144425;0.07095909;3.560018;1.169783;0.09555644;4.275941;1.32888;-0.1517697;4.611286;1.362363;-0.4980441;4.472515;1.393603;-0.7885841;5.071383;0.7491856;-0.041246;5.256618;1.301427;0.3682676;4.593422;1.362363;0.6518466;4.433014;1.393603;0.8738063;3.680324;1.95259;0.08141851;3.273387;1.629616;-0.2525211;2.494986;1.103038;-0.001832828;1.319013;0.2693103;0;0;0;-0.2525211;2.494986;1.103038;-0.001832828;1.319013;0.2693103;0;0;0
269544.5276;NotLabelled;NONE;16384;0.7603903;0.5138504;0.3434903;0.199446;4;0;-1;2734;-2576;1633;65536;0.7341596;0.3130194;-0.5540166;-0.2368421;2;-1;0;2771;-930;-2834;8192;0.6232687;-0.6656836;-0.4058172;0.06094183;0;1;0;2574;3179;451;32768;0.3905817;-0.797416;0.2451524;-0.3891967;1;0;-1;2800;1810;2343;256;0.2409972;-0.3254848;-0.5789474;-0.7076722;0;0;-1;217;3894;-767;128;-0.01523546;0.1855956;0.5900277;0.7856141;1;1;1;-807;3859;1356;4;-0.5623268;0.1648199;-0.466759;-0.6623888;0;-2;1;2463;3360;334;16;0.7485877;-0.6357341;0.1689751;0.08310249;2;-17;0;761;4000;-514;2;0.5373961;-0.6867055;-0.365651;-0.3254848;0;-2;-1;653;4004;-573;8;0.4515235;-0.8654858;-0.2160665;-0.01939058;0;-8;-2;-1435;3227;1985;0.05977893;2.536556;1.11328;0.06575555;3.081188;1.1443;0.07101029;3.560033;1.169547;0.0966624;4.276436;1.326299;-0.1501742;4.612247;1.358714;-0.4966455;4.474081;1.390446;-0.7876649;5.070782;0.7442377;-0.0403012;5.256015;1.296445;0.3698368;4.59363;1.358714;0.653187;4.432915;1.390446;0.8751725;3.680225;1.949423;0.08324623;3.271947;1.62701;-0.2524701;2.494986;1.10305;-0.001820356;1.319013;0.2693104;0;0;0;-0.2524701;2.494986;1.10305;-0.001820356;1.319013;0.2693104;0;0;0
269565.5149;NotLabelled;NONE;16384;0.7613245;0.5124654;0.3434903;0.199446;2;0;0;2608;-2554;1637;65536;0.734605;0.3130194;-0.5540166;-0.2354571;1;0;-1;2753;-888;-2788;8192;0.6232687;-0.6656836;-0.4058172;0.06094183;0;2;0;2578;3127;329;32768;0.3905817;-0.797416;0.2451524;-0.3891967;2;1;-1;2904;1804;2259;256;0.2409972;-0.3240997;-0.5789474;-0.7083076;0;0;-1;223;3944;-777;128;-0.01523546;0.1855956;0.5900277;0.7856141;0;1;1;-729;3869;1300;4;-0.5623268;0.1648199;-0.466759;-0.6623888;-2;0;1;2473;3466;478;16;0.7478018;-0.6357341;0.1717452;0.08448754;0;-24;-2;1007;4056;-990;2;0.5373961;-0.6873603;-0.365651;-0.3240997;0;-2;0;711;3984;-627;8;0.4515235;-0.8658604;-0.2146814;-0.01800554;0;-2;0;-1645;3249;2105;0.0608505;2.536698;1.112587;0.06682724;3.081333;1.143548;0.07208192;3.560182;1.168743;0.09773415;4.276585;1.325496;-0.1491024;4.612396;1.35791;-0.4955737;4.474229;1.389642;-0.7865914;5.07093;0.7434335;-0.04043853;5.257743;1.296746;0.3709083;4.593778;1.35791;0.6542588;4.433063;1.389642;0.8772909;3.681541;1.949772;0.08491987;3.272118;1.629914;-0.2513985;2.495127;1.102362;-0.0007488877;1.319155;0.2686231;0;0;0;-0.2513985;2.495127;1.102362;-0.0007488877;1.319155;0.2686231;0;0;0
269585.5124;NotLabelled;NONE;16384;0.7613245;0.5124654;0.3434903;0.199446;2;0;-1;2708;-2516;1667;65536;0.734605;0.3130194;-0.5540166;-0.2354571;0;0;0;2735;-766;-2796;8192;0.6232687;-0.6656836;-0.4058172;0.06094183;0;2;1;2546;3099;347;32768;0.3919668;-0.7967361;0.2451524;-0.3891967;3;2;0;2882;1716;2297;256;0.2409972;-0.3240997;-0.5789474;-0.7083076;0;2;-1;77;3960;-739;128;-0.01523546;0.1855956;0.5900277;0.7856141;0;0;1;-727;3841;1294;4;-0.5623268;0.1634349;-0.466759;-0.6627319;-1;-3;4;2431;3234;234;16;0.7481776;-0.634349;0.1731302;0.08864266;0;-16;-4;-89;4056;-754;2;0.5373961;-0.6873603;-0.365651;-0.3240997;0;0;0;683;3958;-669;8;0.4515235;-0.8658604;-0.2146814;-0.01800554;0;-3;-1;-1367;3211;2119;0.06726623;2.536613;1.113572;0.07324296;3.081249;1.144533;0.07849771;3.560097;1.169728;0.1027806;4.27655;1.32647;-0.1446971;4.611888;1.35888;-0.4909036;4.473061;1.390615;-0.7815673;5.068696;0.7432641;-0.03434181;5.257227;1.294541;0.3753482;4.594265;1.35888;0.6590054;4.434092;1.390614;0.8833684;3.68257;1.950212;0.09024012;3.273147;1.632236;-0.2449829;2.495042;1.103348;0.003686443;1.319069;0.2690153;0;0;0;-0.2449829;2.495042;1.103348;0.003686443;1.319069;0.2690153;0;0;0
269606.5213;NotLabelled;NONE;16384;0.7613245;0.5124654;0.3434903;0.199446;1;0;-2;2584;-2602;1747;65536;0.734605;0.3130194;-0.5540166;-0.2354571;0;0;0;2653;-762;-2930;8192;0.6232687;-0.665809;-0.4058172;0.05955679;1;2;0;2454;3093;417;32768;0.3919668;-0.7971609;0.2437673;-0.3891967;1;0;0;2836;1704;2353;256;0.2409972;-0.3227147;-0.5789474;-0.7089397;-1;7;-2;105;3992;-815;128;-0.01523546;0.1855956;0.5900277;0.7856141;1;1;1;-795;3769;1338;4;-0.5623268;0.1634349;-0.466759;-0.6627319;1;-3;2;2313;3274;252;16;0.7475222;-0.634349;0.1745152;0.09141274;0;-20;-2;563;4020;-682;2;0.5373961;-0.6880953;-0.3642659;-0.3240997;0;-1;0;579;3920;-703;8;0.4515235;-0.8658881;-0.2146814;-0.0166205;0;-5;-2;-1279;3303;1965;0.06286049;2.534908;1.115837;0.06883723;3.079543;1.146798;0.07409197;3.558392;1.171993;0.09837496;4.274845;1.328735;-0.149103;4.610183;1.361145;-0.4953095;4.471356;1.392879;-0.785973;5.066991;0.7455288;-0.03874755;5.255522;1.296806;0.3709424;4.59256;1.361145;0.6545996;4.432387;1.392879;0.8789628;3.680865;1.952477;0.0872556;3.269853;1.633012;-0.2493885;2.493337;1.105612;-0.001435846;1.319175;0.2685215;0;0;0;-0.2493885;2.493337;1.105612;-0.001435846;1.319175;0.2685215;0;0;0
269626.5125;NotLabelled;NONE;16384;0.7606981;0.5124654;0.3448753;0.199446;0;0;-3;2604;-2640;1741;65536;0.7351936;0.3116343;-0.5540166;-0.2354571;0;2;0;2699;-772;-2938;8192;0.6232687;-0.6649628;-0.4072022;0.05955679;-1;2;-1;2432;3079;389;32768;0.3919668;-0.7971609;0.2437673;-0.3891967;0;0;0;2928;1744;2325;256;0.2396122;-0.3227147;-0.5803324;-0.7082765;-1;7;0;167;3982;-689;128;-0.01523546;0.1855956;0.5900277;0.7856141;1;2;0;-803;3893;1290;4;-0.5623268;0.1620499;-0.466759;-0.6630719;0;-5;1;2417;3332;296;16;0.7475248;-0.632964;0.1772853;0.09556787;0;-31;-3;493;4020;-774;2;0.5387812;-0.6870113;-0.3642659;-0.3240997;0;-3;-2;549;4098;-571;8;0.4515235;-0.8662302;-0.2132964;-0.0166205;0;-6;-1;-1445;3313;1963;0.06491965;2.535421;1.113892;0.07089639;3.080056;1.144853;0.07615107;3.558905;1.170048;0.09906614;4.275404;1.32678;-0.1490515;4.610271;1.359186;-0.4949924;4.470783;1.390922;-0.7871909;5.066418;0.7442625;-0.03865963;5.254949;1.293766;0.3710267;4.59364;1.359185;0.6549894;4.43401;1.390922;0.8792481;3.681252;1.948899;0.08726889;3.268904;1.63184;-0.2473295;2.49385;1.103667;-0.001363486;1.319688;0.2659903;0;0;0;-0.2473295;2.49385;1.103667;-0.001363486;1.319688;0.2659903;0;0;0
269646.5137;NotLabelled;NONE;16384;0.7603336;0.5124654;0.3448753;0.200831;-2;-3;-4;2598;-2594;1715;65536;0.734605;0.3130194;-0.5540166;-0.2354571;-1;1;0;2925;-864;-2770;8192;0.6232687;-0.665809;-0.4058172;0.05955679;1;0;-1;2514;3201;363;32768;0.3919668;-0.7964832;0.2437673;-0.3905817;0;2;0;2926;1748;2273;256;0.2382271;-0.3213296;-0.5817174;-0.7082372;0;4;0;261;4040;-711;128;-0.01523546;0.1855956;0.5914127;0.784572;0;0;0;-739;3887;1302;4;-0.5623268;0.1620499;-0.466759;-0.6630719;-1;-3;2;2623;3290;328;16;0.7465027;-0.632964;0.1800554;0.09833795;-2;-22;-2;161;4022;-790;2;0.5387812;-0.6870113;-0.3642659;-0.3240997;0;-4;-2;627;4086;-611;8;0.4515235;-0.8662302;-0.2132964;-0.0166205;0;-3;-1;-1613;3241;2173;0.06542939;2.533488;1.11768;0.07140607;3.078123;1.148641;0.07666075;3.556972;1.173836;0.1018627;4.273693;1.329204;-0.1451876;4.609406;1.360988;-0.4915677;4.471079;1.39301;-0.7885822;5.065607;0.7475278;-0.03779835;5.252558;1.294492;0.3748351;4.591124;1.360988;0.6582912;4.430652;1.39301;0.885735;3.679062;1.951272;0.09315276;3.266714;1.635724;-0.2468196;2.491917;1.107455;-0.003191009;1.319569;0.2665598;0;0;0;-0.2468196;2.491917;1.107455;-0.003191009;1.319569;0.2665598;0;0;0
269668.5198;NotLabelled;NONE;16384;0.7597038;0.5124654;0.3462604;0.200831;-3;0;-5;2756;-2594;1575;65536;0.7356475;0.3130194;-0.5526316;-0.2354571;0;1;2;2931;-956;-2830;8192;0.6232687;-0.665809;-0.4058172;0.05955679;1;0;-2;2556;3197;405;32768;0.3905817;-0.7971633;0.2437673;-0.3905817;0;2;0;3010;1860;2233;256;0.2382271;-0.3213296;-0.5817174;-0.7082372;0;1;0;119;4042;-691;128;-0.01523546;0.1855956;0.5914127;0.784572;2;0;0;-759;3865;1342;4;-0.5623268;0.1606648;-0.4653739;-0.6643813;-1;1;3;2661;3274;318;16;0.7473053;-0.6315789;0.1800554;0.101108;-3;-7;0;137;4076;-798;2;0.5387812;-0.6870113;-0.3642659;-0.3240997;0;0;0;801;4076;-643;8;0.4515235;-0.8662302;-0.2132964;-0.0166205;0;0;0;-1681;3253;2071;0.07236618;2.533837;1.117019;0.07834393;3.078576;1.146089;0.08359951;3.557509;1.169621;0.1097184;4.274496;1.323606;-0.136905;4.610582;1.354758;-0.4834574;4.472754;1.387071;-0.7826791;5.066052;0.7414756;-0.03076422;5.254583;1.286339;0.3830941;4.591643;1.354758;0.666349;4.430875;1.387071;0.8940045;3.678117;1.94367;0.1004973;3.266912;1.628957;-0.2398833;2.492231;1.10695;0.0001464635;1.319884;0.2650205;0;0;0;-0.2398833;2.492231;1.10695;0.0001464635;1.319884;0.2650205;0;0;0
269688.5182;NotLabelled;NONE;16384;0.7587032;0.5124654;0.3476454;0.2022161;-2;0;-4;2774;-2534;1491;65536;0.7356475;0.3130194;-0.5526316;-0.2354571;0;1;2;2831;-1048;-2814;8192;0.6232687;-0.6659314;-0.4058172;0.05817174;0;1;-3;2606;3261;487;32768;0.3919668;-0.7964832;0.2437673;-0.3905817;0;0;0;2972;1942;2233;256;0.2382271;-0.3199446;-0.5817174;-0.708864;1;0;0;193;4060;-777;128;-0.01523546;0.1855956;0.5914127;0.784572;1;-1;0;-733;3923;1318;4;-0.5623268;0.1606648;-0.4653739;-0.6643813;-1;5;3;2513;3286;214;16;0.7463189;-0.632964;0.1800554;0.09972299;-3;5;0;-17;4042;-874;2;0.5387812;-0.6870113;-0.3642659;-0.3240997;-1;1;-1;551;4010;-565;8;0.4515235;-0.8662558;-0.2132964;-0.01523546;-1;1;0;-1343;3365;2065;0.06235129;2.530578;1.120638;0.0683291;3.075317;1.149708;0.07358474;3.55425;1.173241;0.09970361;4.271236;1.327225;-0.1469199;4.607322;1.358378;-0.4934723;4.469495;1.390691;-0.7951048;5.061678;0.7451943;-0.04163057;5.251447;1.287469;0.3730791;4.588383;1.358377;0.6563343;4.427616;1.390691;0.8840389;3.674857;1.94727;0.08911926;3.265239;1.634054;-0.2498982;2.488971;1.11057;-0.005999982;1.319807;0.2653314;0;0;0;-0.2498982;2.488971;1.11057;-0.005999982;1.319807;0.2653314;0;0;0
269710.6545;NotLabelled;NONE;16384;0.7577658;0.5138504;0.3476454;0.2022161;-1;-2;-2;2748;-2648;1451;65536;0.7356475;0.3130194;-0.5526316;-0.2354571;1;1;0;2799;-934;-2812;8192;0.6232687;-0.6659314;-0.4058172;0.05817174;-1;1;-2;2622;3297;553;32768;0.3919668;-0.796058;0.2451524;-0.3905817;0;-2;0;2940;1964;2273;256;0.2382271;-0.3199446;-0.5817174;-0.708864;2;-2;0;287;4018;-699;128;-0.01523546;0.1855956;0.5914127;0.784572;0;0;0;-769;3861;1392;4;-0.5637119;0.1606648;-0.4653739;-0.6632065;0;4;2;2295;3182;180;16;0.7469818;-0.632964;0.1772853;0.09972299;-3;12;-1;-115;3968;-858;2;0.5387812;-0.6870113;-0.3642659;-0.3240997;-2;0;0;633;4052;-587;8;0.4515235;-0.8662558;-0.2132964;-0.01523546;0;2;0;-1539;3281;2171;0.069453;2.531012;1.11911;0.07543081;3.075751;1.14818;0.08068651;3.554684;1.171713;0.1054349;4.271721;1.325686;-0.1418304;4.607336;1.356834;-0.4881188;4.468847;1.389149;-0.7943657;5.058674;0.743667;-0.0396111;5.248441;1.284158;0.378204;4.589391;1.356834;0.6617658;4.429165;1.389149;0.8893504;3.675174;1.944108;0.09510088;3.26397;1.631272;-0.2427965;2.489405;1.109041;-0.0008978397;1.320241;0.2632285;0;0;0;-0.2427965;2.489405;1.109041;-0.0008978397;1.320241;0.2632285;0;0;0
269730.6335;NotLabelled;NONE;16384;0.7577658;0.5138504;0.3476454;0.2022161;0;-3;-1;2838;-2652;1473;65536;0.7350566;0.3144044;-0.5526316;-0.2354571;1;1;-1;2809;-898;-2874;8192;0.6246537;-0.6646324;-0.4058172;0.05817174;-3;2;-2;2678;3395;507;32768;0.3919668;-0.7967361;0.2451524;-0.3891967;0;-4;-2;3048;1872;2293;256;0.2382271;-0.3199446;-0.5817174;-0.708864;3;0;-1;175;3976;-757;128;-0.0166205;0.1855956;0.5900277;0.785586;-1;0;0;-763;3859;1332;4;-0.5623268;0.1606648;-0.4653739;-0.6643813;3;-3;-1;2201;3242;156;16;0.7469818;-0.632964;0.1772853;0.09972299;0;-5;-1;311;4090;-520;2;0.5387812;-0.6870113;-0.3642659;-0.3240997;0;0;0;639;4008;-737;8;0.4515235;-0.8662558;-0.2132964;-0.01523546;0;5;0;-1437;3245;2145;0.06558621;2.530449;1.118872;0.07156408;3.075188;1.147942;0.07681984;3.554121;1.171475;0.1015682;4.271158;1.325449;-0.1456972;4.606773;1.356596;-0.4919856;4.468284;1.388911;-0.8001004;5.059166;0.7452869;-0.04534578;5.248934;1.285778;0.3743372;4.588828;1.356596;0.657899;4.428602;1.388912;0.8854837;3.674612;1.94387;0.09074706;3.264748;1.630512;-0.2466632;2.488842;1.108803;-0.006427884;1.320627;0.2612077;0;0;0;-0.2466632;2.488842;1.108803;-0.006427884;1.320627;0.2612077;0;0;0
269751.6389;NotLabelled;NONE;16384;0.7577658;0.5138504;0.3476454;0.2022161;1;-4;-1;2780;-2600;1501;65536;0.7350566;0.3144044;-0.5526316;-0.2354571;4;1;-3;2851;-954;-2878;8192;0.6246537;-0.6646324;-0.4058172;0.05817174;-3;2;-3;2658;3207;489;32768;0.3933518;-0.7960532;0.2451524;-0.3891967;1;-5;-2;3014;1858;2211;256;0.2382271;-0.3199446;-0.5803324;-0.7099983;4;0;-3;155;4022;-723;128;-0.0166205;0.1855956;0.5900277;0.785586;-3;0;0;-717;3893;1258;4;-0.5623268;0.1620499;-0.4653739;-0.6640448;3;-2;-2;2367;3402;276;16;0.7467957;-0.632964;0.1772853;0.101108;1;-6;-1;329;4042;-636;2;0.5387812;-0.6870113;-0.3642659;-0.3240997;0;0;0;683;4006;-621;8;0.4515235;-0.8658881;-0.2146814;-0.0166205;0;1;0;-1269;3255;2061;0.06392306;2.531365;1.117235;0.06989992;3.076008;1.148067;0.07515472;3.554862;1.173148;0.09990311;4.271899;1.327121;-0.1473624;4.607513;1.358269;-0.4936507;4.469025;1.390585;-0.801815;5.059907;0.7469838;-0.04826456;5.251254;1.288598;0.3726722;4.589568;1.358269;0.6562343;4.429342;1.390584;0.8869373;3.675124;1.943944;0.09178841;3.264113;1.633144;-0.2483259;2.489791;1.107021;-0.006427661;1.320627;0.2612079;0;0;0;-0.2483259;2.489791;1.107021;-0.006427661;1.320627;0.2612079;0;0;0
269772.7224;NotLabelled;NONE;16384;0.7570212;0.5138504;0.3476454;0.2049861;1;-3;0;2778;-2596;1553;65536;0.7334184;0.3157895;-0.5540166;-0.2354571;3;0;-2;2887;-998;-2736;8192;0.6260388;-0.6634479;-0.4058172;0.0567867;-3;3;-3;2536;3045;441;32768;0.3947368;-0.7956157;0.2465374;-0.3878116;0;-4;-1;2758;1742;2451;256;0.2382271;-0.3199446;-0.5803324;-0.7099983;3;-1;-3;207;4036;-725;128;-0.0166205;0.1855956;0.5900277;0.785586;-4;0;0;-713;3903;1228;4;-0.5623268;0.1620499;-0.4653739;-0.6640448;0;1;-1;2545;3428;364;16;0.7467957;-0.632964;0.1772853;0.101108;1;1;0;361;3970;-698;2;0.5387812;-0.6870113;-0.3642659;-0.3240997;0;1;0;607;4024;-529;8;0.4515235;-0.8658881;-0.2146814;-0.0166205;0;1;0;-1541;3187;1957;0.06143099;2.53353;1.112688;0.06740773;3.078172;1.14352;0.07266253;3.557027;1.168601;0.09637064;4.273589;1.32493;-0.151377;4.608747;1.357152;-0.4974709;4.469658;1.388973;-0.8055286;5.06054;0.7453215;-0.05200255;5.251887;1.286969;0.3686824;4.591543;1.357152;0.6524692;4.431618;1.388973;0.8830805;3.677399;1.94237;0.08935767;3.264806;1.630027;-0.2508181;2.491956;1.102474;-0.008110434;1.320971;0.2594165;0;0;0;-0.2508181;2.491956;1.102474;-0.008110434;1.320971;0.2594165;0;0;0
269794.5279;NotLabelled;NONE;16384;0.7576557;0.5138504;0.3462604;0.2049861;1;-1;0;2714;-2566;1611;65536;0.7328205;0.3171745;-0.5540166;-0.2354571;2;0;-1;2897;-890;-2674;8192;0.6260388;-0.6634479;-0.4058172;0.0567867;-4;1;-3;2498;3107;379;32768;0.3947368;-0.7956157;0.2465374;-0.3878116;-1;-3;-1;2738;1714;2365;256;0.2382271;-0.3199446;-0.5789474;-0.7111282;3;-1;-2;161;3988;-685;128;-0.0166205;0.1855956;0.5886427;0.7866244;-1;-1;1;-751;3845;1242;4;-0.5623268;0.1620499;-0.4653739;-0.6640448;-1;4;0;2489;3398;376;16;0.7467957;-0.632964;0.1772853;0.101108;0;4;1;571;4012;-612;2;0.5387812;-0.6870113;-0.3642659;-0.3240997;0;2;-1;629;4022;-499;8;0.4515235;-0.8659135;-0.2146814;-0.01523546;0;0;0;-1611;3221;1969;0.06143099;2.53353;1.112688;0.06740773;3.078172;1.14352;0.07266253;3.557027;1.168601;0.09637064;4.273589;1.32493;-0.151377;4.608747;1.357152;-0.4974709;4.469658;1.388973;-0.807026;5.058048;0.7437583;-0.05626893;5.249725;1.28912;0.3686824;4.591543;1.357152;0.6524692;4.431618;1.388973;0.8847606;3.675955;1.939691;0.09155804;3.261974;1.627862;-0.2508181;2.491956;1.102474;-0.008110434;1.320971;0.2594165;0;0;0;-0.2508181;2.491956;1.102474;-0.008110434;1.320971;0.2594165;0;0;0
269814.7709;NotLabelled;NONE;16384;0.7576557;0.5138504;0.3462604;0.2049861;0;0;0;2672;-2528;1611;65536;0.7328205;0.3171745;-0.5540166;-0.2354571;0;0;0;2813;-860;-2700;8192;0.6260388;-0.6634479;-0.4058172;0.0567867;-3;0;-3;2506;3033;355;32768;0.3947368;-0.7956157;0.2465374;-0.3878116;0;-2;-2;2856;1746;2313;256;0.2396122;-0.3199446;-0.5789474;-0.7106627;2;0;-1;161;3912;-731;128;-0.0166205;0.1855956;0.5886427;0.7866244;-1;-1;0;-747;3797;1200;4;-0.5623268;0.1620499;-0.4653739;-0.6640448;-2;3;1;2309;3316;304;16;0.7469818;-0.632964;0.1772853;0.09972299;0;3;0;519;4118;-798;2;0.5401662;-0.6859229;-0.3642659;-0.3240997;0;0;0;669;4040;-491;8;0.4515235;-0.8659135;-0.2146814;-0.01523546;0;-3;0;-1503;3179;2037;0.06138194;2.533494;1.112833;0.06735748;3.078027;1.145551;0.07261133;3.55679;1.172292;0.09528136;4.27287;1.330972;-0.1529471;4.607567;1.364265;-0.4988457;4.467882;1.395592;-0.8060674;5.057402;0.7502934;-0.05655545;5.250647;1.296815;0.3671364;4.591105;1.364265;0.6511475;4.43148;1.395593;0.8834535;3.675817;1.946305;0.0902645;3.261837;1.634441;-0.2508668;2.491956;1.102463;-0.008121952;1.320971;0.2594162;0;0;0;-0.2508668;2.491956;1.102463;-0.008121952;1.320971;0.2594162;0;0;0
269836.5351;NotLabelled;NONE;16384;0.7576557;0.5138504;0.3462604;0.2049861;0;0;0;2634;-2468;1547;65536;0.7328205;0.3171745;-0.5540166;-0.2354571;0;0;0;2757;-856;-2730;8192;0.6274238;-0.6629851;-0.4044321;0.0567867;-1;0;-1;2560;3075;301;32768;0.3947368;-0.7956157;0.2465374;-0.3878116;0;0;0;2822;1740;2417;256;0.2396122;-0.3199446;-0.5789474;-0.7106627;2;-1;-1;135;3990;-695;128;-0.0166205;0.1855956;0.5886427;0.7866244;0;0;0;-707;3807;1202;4;-0.5623268;0.1620499;-0.4653739;-0.6640448;-1;-6;2;2267;3210;188;16;0.7464654;-0.632964;0.1786704;0.101108;0;-6;-1;265;4072;-768;2;0.5401662;-0.6859229;-0.3642659;-0.3240997;0;0;0;603;3978;-657;8;0.4515235;-0.8662558;-0.2132964;-0.01523546;0;-1;0;-1483;3219;2093;0.061001;2.53315;1.114159;0.06697649;3.077682;1.146878;0.07223034;3.556447;1.173618;0.09365571;4.272781;1.331318;-0.155156;4.607089;1.364164;-0.5008087;4.466842;1.395697;-0.8067852;5.056363;0.7498074;-0.05829054;5.249606;1.297721;0.3649553;4.591536;1.364163;0.6492466;4.432451;1.395697;0.8804898;3.676789;1.946856;0.08788157;3.262807;1.633519;-0.2512476;2.491612;1.103789;-0.006936416;1.320627;0.2611948;0;0;0;-0.2512476;2.491612;1.103789;-0.006936416;1.320627;0.2611948;0;0;0
269857.5122;NotLabelled;NONE;16384;0.7576557;0.5138504;0.3462604;0.2049861;0;0;-2;2734;-2540;1613;65536;0.7328205;0.3171745;-0.5540166;-0.2354571;0;0;0;2827;-840;-2692;8192;0.6260388;-0.6634479;-0.4058172;0.0567867;0;1;-1;2526;3047;421;32768;0.3947368;-0.7956157;0.2465374;-0.3878116;0;0;0;2892;1760;2315;256;0.2396122;-0.3199446;-0.5789474;-0.7106627;1;-1;-1;183;3922;-691;128;-0.01800554;0.1855956;0.5886427;0.7865939;1;-2;0;-767;3825;1242;4;-0.5623268;0.1606648;-0.4653739;-0.6643813;0;-7;2;2339;3232;234;16;0.7462766;-0.632964;0.1786704;0.1024931;-1;-5;-1;113;4022;-772;2;0.5387812;-0.6870113;-0.3642659;-0.3240997;0;-2;0;607;3994;-663;8;0.4501385;-0.8669763;-0.2132964;-0.01523546;-1;-2;0;-1361;3237;2011;0.06209344;2.533308;1.113385;0.06806904;3.077841;1.146104;0.07332289;3.556604;1.172844;0.09474814;4.272939;1.330544;-0.1540636;4.607246;1.36339;-0.4997161;4.467;1.394923;-0.8056927;5.05652;0.7490333;-0.05719805;5.249763;1.296947;0.3660479;4.591694;1.363389;0.6503389;4.432609;1.394923;0.8836007;3.675577;1.943345;0.09099293;3.261596;1.630008;-0.2501552;2.49177;1.103015;-0.005843893;1.320785;0.2604208;0;0;0;-0.2501552;2.49177;1.103015;-0.005843893;1.320785;0.2604208;0;0;0
269877.7031;NotLabelled;NONE;16384;0.7570212;0.5138504;0.3476454;0.2049861;0;1;-2;2804;-2588;1583;65536;0.7328205;0.3171745;-0.5540166;-0.2354571;0;0;1;2801;-876;-2814;8192;0.6260388;-0.6634479;-0.4058172;0.0567867;0;0;-2;2494;3107;505;32768;0.3947368;-0.7962893;0.2465374;-0.3864266;0;-1;0;2904;1804;2265;256;0.2396122;-0.3199446;-0.5789474;-0.7106627;1;-1;0;217;4022;-741;128;-0.01800554;0.1869806;0.5886427;0.7862658;0;-1;-1;-765;3875;1312;4;-0.5609418;0.1606648;-0.4653739;-0.6655511;0;-6;2;2499;3218;232;16;0.7466068;-0.632964;0.1772853;0.1024931;-1;0;0;113;3968;-684;2;0.5401662;-0.6859229;-0.3642659;-0.3240997;0;-2;-1;545;3982;-577;8;0.4501385;-0.8669763;-0.2132964;-0.01523546;0;-3;0;-1521;3287;2089;0.06119668;2.531834;1.114325;0.06717229;3.076374;1.14691;0.0724262;3.555145;1.173533;0.09385216;4.27148;1.331233;-0.1549594;4.605787;1.36408;-0.5006118;4.465541;1.395615;-0.8065928;5.055219;0.749872;-0.05809534;5.248464;1.297782;0.3651521;4.590234;1.364077;0.6494433;4.431149;1.395609;0.8806901;3.675352;1.946582;0.08808064;3.261371;1.633249;-0.2510521;2.490294;1.103966;-0.007511228;1.321129;0.2586251;0;0;0;-0.2510521;2.490294;1.103966;-0.007511228;1.321129;0.2586251;0;0;0
269899.5153;NotLabelled;NONE;16384;0.7570212;0.5138504;0.3476454;0.2049861;0;1;-1;2674;-2626;1513;65536;0.7328205;0.3171745;-0.5540166;-0.2354571;0;0;0;2801;-906;-2776;8192;0.6274238;-0.6621382;-0.4058172;0.0567867;-2;0;-1;2550;3179;395;32768;0.3947368;-0.7958592;0.2479224;-0.3864266;0;0;0;3004;1786;2215;256;0.2396122;-0.3199446;-0.5789474;-0.7106627;2;-1;0;165;3988;-703;128;-0.01800554;0.1869806;0.5886427;0.7862658;-1;0;0;-755;3857;1370;4;-0.5609418;0.1592798;-0.4653739;-0.6658839;0;-2;1;2607;3226;242;16;0.7466068;-0.632964;0.1772853;0.1024931;-1;2;0;271;4108;-726;2;0.5401662;-0.6866567;-0.3628809;-0.3240997;0;-3;0;661;4124;-613;8;0.4501385;-0.8669763;-0.2132964;-0.01523546;0;1;0;-1461;3247;2055;0.05677325;2.532956;1.111525;0.06274873;3.077492;1.144168;0.06800252;3.556261;1.170843;0.08942789;4.272595;1.328542;-0.1593838;4.606903;1.361389;-0.5050365;4.466656;1.392922;-0.8133651;5.055046;0.74712;-0.0648703;5.248289;1.295034;0.3607275;4.59135;1.361388;0.6450186;4.432265;1.392922;0.8762629;3.676603;1.944081;0.08325231;3.26147;1.633295;-0.2554755;2.491416;1.101161;-0.01027209;1.32131;0.2576056;0;0;0;-0.2554755;2.491416;1.101161;-0.01027209;1.32131;0.2576056;0;0;0
269919.6373;NotLabelled;NONE;16384;0.7570212;0.5138504;0.3476454;0.2049861;0;0;-1;2740;-2604;1539;65536;0.7332641;0.3171745;-0.5540166;-0.234072;-1;0;0;2867;-894;-2830;8192;0.6274238;-0.6621382;-0.4058172;0.0567867;-2;0;-1;2560;3129;419;32768;0.3947368;-0.7958592;0.2479224;-0.3864266;0;-2;1;3042;1808;2249;256;0.2396122;-0.3199446;-0.5789474;-0.7106627;2;-1;-1;157;3978;-763;128;-0.01800554;0.1869806;0.5886427;0.7862658;-1;-2;0;-763;3887;1378;4;-0.5609418;0.1592798;-0.4653739;-0.6658839;0;0;1;2423;3352;294;16;0.7466068;-0.632964;0.1772853;0.1024931;0;-2;0;453;4060;-680;2;0.5401662;-0.6866567;-0.3628809;-0.3240997;0;0;1;687;4000;-647;8;0.4501385;-0.8669763;-0.2132964;-0.01523546;0;-2;0;-1323;3183;1913;0.05755395;2.531135;1.11427;0.06352949;3.075672;1.146914;0.0687834;3.55444;1.173588;0.09020865;4.270775;1.331287;-0.1586031;4.605083;1.364134;-0.5042558;4.464836;1.395667;-0.8125832;5.053226;0.7498646;-0.06408817;5.246469;1.297778;0.3615085;4.58953;1.364133;0.6457993;4.430445;1.395667;0.8801343;3.674581;1.945242;0.08663297;3.260785;1.633928;-0.2546947;2.489596;1.103906;-0.01027219;1.32131;0.2576057;0;0;0;-0.2546947;2.489596;1.103906;-0.01027219;1.32131;0.2576057;0;0;0
269940.1931;NotLabelled;NONE;16384;0.7563837;0.5138504;0.3490305;0.2049861;0;0;-1;2800;-2624;1533;65536;0.7332641;0.3171745;-0.5540166;-0.234072;0;1;0;2830;-951;-2857;8192;0.6274238;-0.6621382;-0.4058172;0.0567867;-1;1;-3;2566;3227;393;32768;0.3947368;-0.7954264;0.2493075;-0.3864266;0;-3;0;2926;1770;2233;256;0.2396122;-0.3199446;-0.5789474;-0.7106627;3;-2;0;211;4064;-797;128;-0.01800554;0.1869806;0.5872576;0.7873008;-1;0;0;-813;3921;1408;4;-0.5609418;0.1592798;-0.4653739;-0.6658839;-1;0;0;2359;3342;398;16;0.7462766;-0.632964;0.1786704;0.1024931;0;-5;0;369;4084;-672;2;0.5401662;-0.6873087;-0.3628809;-0.3227147;0;-2;-1;629;3954;-613;8;0.4501385;-0.8669763;-0.2132964;-0.01523546;-2;-3;-1;-1409;3135;2043;0.05755395;2.531135;1.11427;0.06352949;3.075672;1.146914;0.0687834;3.55444;1.173588;0.09020865;4.270775;1.331287;-0.1586031;4.605083;1.364134;-0.5042558;4.464836;1.395667;-0.8125832;5.053226;0.7498646;-0.06433785;5.24819;1.297509;0.3615085;4.58953;1.364133;0.6457993;4.430445;1.395667;0.8801343;3.674581;1.945242;0.08663297;3.260785;1.633928;-0.2546947;2.489596;1.103906;-0.01027219;1.32131;0.2576057;0;0;0;-0.2546947;2.489596;1.103906;-0.01027219;1.32131;0.2576057;0;0;0
269960.5184;NotLabelled;NONE;16384;0.7563837;0.5138504;0.3490305;0.2049861;0;0;0;2668;-2700;1509;65536;0.7332641;0.3171745;-0.5540166;-0.234072;0;1;-1;2927;-994;-2864;8192;0.6274238;-0.6629851;-0.4044321;0.0567867;-2;2;-3;2548;3295;397;32768;0.3947368;-0.7960978;0.2493075;-0.3850415;0;-3;0;3048;1840;2375;256;0.2396122;-0.3199446;-0.5775623;-0.7117887;3;0;-1;217;4100;-795;128;-0.01800554;0.1869806;0.5872576;0.7873008;-3;0;0;-815;3915;1272;4;-0.5609418;0.1578947;-0.4653739;-0.6662136;-2;-1;0;2331;3260;316;16;0.7462766;-0.632964;0.1786704;0.1024931;0;6;0;97;4066;-832;2;0.5401662;-0.6866567;-0.3628809;-0.3240997;0;0;-2;649;3954;-651;8;0.4501385;-0.8669763;-0.2132964;-0.01523546;-1;0;0;-1501;3299;2121;0.06031334;2.530919;1.115444;0.06628776;3.07534;1.149971;0.07154059;3.554013;1.178301;0.09296584;4.270348;1.336;-0.1558459;4.604656;1.368847;-0.5014985;4.464409;1.40038;-0.8122205;5.051665;0.7546929;-0.06397504;5.246629;1.302338;0.3642656;4.589102;1.368846;0.6485567;4.430017;1.40038;0.8829279;3.674155;1.94994;0.08893704;3.261695;1.6381;-0.2519349;2.489416;1.104925;-0.007512435;1.32113;0.2586244;0;0;0;-0.2519349;2.489416;1.104925;-0.007512435;1.32113;0.2586244;0;0;0
269980.5511;NotLabelled;NONE;16384;0.7554408;0.5152354;0.3490305;0.2049861;0;-2;0;2770;-2612;1525;65536;0.7322195;0.3185596;-0.5540166;-0.2354571;0;2;-1;2945;-850;-2809;8192;0.6288089;-0.6617891;-0.4044321;0.05540166;-1;0;-3;2612;3239;435;32768;0.3947368;-0.7956627;0.2506925;-0.3850415;0;-2;0;2884;1852;2355;256;0.2396122;-0.3199446;-0.5775623;-0.7117887;3;1;-1;141;4158;-785;128;-0.01800554;0.1869806;0.5872576;0.7873008;-1;0;0;-769;3877;1352;4;-0.5609418;0.1578947;-0.4653739;-0.6662136;0;-2;0;2265;3134;160;16;0.7466068;-0.632964;0.1772853;0.1024931;0;13;0;21;4046;-724;2;0.5401662;-0.6866567;-0.3628809;-0.3240997;0;0;-1;603;4062;-657;8;0.4501385;-0.8669763;-0.2132964;-0.01523546;0;-1;0;-1579;3307;2213;0.0610618;2.529095;1.118175;0.06703615;3.073516;1.152702;0.07228887;3.552188;1.181032;0.09267753;4.268033;1.341076;-0.1566139;4.601876;1.374992;-0.5020692;4.461034;1.406032;-0.8127237;5.04829;0.7603127;-0.06449956;5.243254;1.307987;0.3635191;4.587064;1.374991;0.648034;4.428282;1.406032;0.8812745;3.671252;1.954465;0.08690017;3.257637;1.645143;-0.2511866;2.487591;1.107656;-0.007522777;1.32113;0.2586241;0;0;0;-0.2511866;2.487591;1.107656;-0.007522777;1.32113;0.2586241;0;0;0
270001.568;NotLabelled;NONE;16384;0.7554408;0.5152354;0.3490305;0.2049861;0;-1;0;2786;-2580;1565;65536;0.7322195;0.3185596;-0.5540166;-0.2354571;0;1;-1;2945;-860;-2743;8192;0.6288089;-0.6617891;-0.4044321;0.05540166;0;0;-2;2598;3213;399;32768;0.3961219;-0.7949741;0.2506925;-0.3850415;1;-1;0;2946;1778;2249;256;0.2396122;-0.3199446;-0.5775623;-0.7117887;3;0;-1;157;4008;-831;128;-0.01800554;0.1869806;0.5858725;0.7883321;-1;0;0;-735;3905;1348;4;-0.5609418;0.1578947;-0.4653739;-0.6662136;0;-3;-1;2381;3092;192;16;0.7459475;-0.634349;0.1759003;0.101108;1;5;0;295;3994;-600;2;0.5401662;-0.6866567;-0.3628809;-0.3240997;0;0;0;677;4036;-633;8;0.4501385;-0.8669763;-0.2132964;-0.01523546;1;1;0;-1523;3237;2161;0.05830228;2.529275;1.117155;0.06427658;3.073696;1.151682;0.06952947;3.552369;1.180012;0.08991802;4.268214;1.340057;-0.1593735;4.602057;1.373972;-0.5048286;4.461215;1.405013;-0.8173608;5.049513;0.7611512;-0.07011795;5.244318;1.31022;0.3607597;4.587245;1.373972;0.6452745;4.428463;1.405013;0.8801929;3.670017;1.950766;0.08533007;3.257738;1.640918;-0.2539461;2.487772;1.106636;-0.01028229;1.32131;0.2576046;0;0;0;-0.2539461;2.487772;1.106636;-0.01028229;1.32131;0.2576046;0;0;0
270023.8263;NotLabelled;NONE;16384;0.7554408;0.5152354;0.3490305;0.2049861;0;0;0;2742;-2604;1543;65536;0.7311695;0.3185596;-0.5554016;-0.2354571;0;0;0;2895;-876;-2759;8192;0.6288089;-0.6617891;-0.4044321;0.05540166;0;2;-1;2612;3125;399;32768;0.3961219;-0.7949741;0.2506925;-0.3850415;1;-2;0;2934;1720;2289;256;0.2396122;-0.3199446;-0.5775623;-0.7117887;3;-1;-1;153;3984;-765;128;-0.01800554;0.1869806;0.5858725;0.7883321;0;-2;0;-773;3861;1392;4;-0.5609418;0.1578947;-0.4653739;-0.6662136;0;-3;-1;2507;3228;258;16;0.7459475;-0.634349;0.1759003;0.101108;1;0;0;205;4022;-832;2;0.5401662;-0.6866567;-0.3628809;-0.3240997;0;0;0;679;4094;-619;8;0.4501385;-0.8666089;-0.2146814;-0.0166205;0;3;1;-1349;3191;2041;0.06004238;2.529858;1.114176;0.06601542;3.074156;1.150583;0.07126719;3.552728;1.180567;0.09165579;4.268573;1.340612;-0.1576356;4.602416;1.374528;-0.5030906;4.461575;1.405568;-0.8156624;5.049873;0.7617265;-0.06841946;5.244678;1.310795;0.3624977;4.587605;1.374527;0.6470125;4.428823;1.405567;0.8819646;3.670376;1.951306;0.08851576;3.256525;1.639931;-0.2522054;2.488392;1.103502;-0.008542493;1.32193;0.2544694;0;0;0;-0.2522054;2.488392;1.103502;-0.008542493;1.32193;0.2544694;0;0;0
270044.5525;NotLabelled;NONE;16384;0.7554408;0.5152354;0.3490305;0.2049861;0;0;0;2744;-2620;1551;65536;0.7311695;0.3185596;-0.5554016;-0.2354571;0;0;-1;2853;-826;-2767;8192;0.6288089;-0.6617891;-0.4044321;0.05540166;0;2;-2;2528;3141;415;32768;0.3961219;-0.7949741;0.2506925;-0.3850415;1;-2;0;2880;1710;2341;256;0.2396122;-0.3199446;-0.5761772;-0.7129104;3;-1;-1;177;3978;-749;128;-0.01800554;0.1869806;0.5858725;0.7883321;0;0;0;-877;3885;1344;4;-0.5609418;0.1578947;-0.4653739;-0.6662136;0;3;0;2611;3358;152;16;0.7469652;-0.634349;0.1731302;0.09833795;1;21;3;447;4082;-688;2;0.5401662;-0.6866567;-0.3628809;-0.3240997;0;0;0;701;4044;-579;8;0.4501385;-0.8666089;-0.2146814;-0.0166205;0;2;0;-1465;3213;2039;0.06004238;2.529858;1.114176;0.06601542;3.074156;1.150583;0.07126719;3.552728;1.180567;0.09165579;4.268573;1.340612;-0.1576356;4.602416;1.374528;-0.5030906;4.461575;1.405568;-0.8156232;5.049873;0.7617073;-0.06995726;5.243426;1.313356;0.3624977;4.587605;1.374527;0.6470125;4.428823;1.405567;0.8819314;3.670376;1.95132;0.0884828;3.256525;1.639945;-0.2522054;2.488392;1.103502;-0.008542493;1.32193;0.2544694;0;0;0;-0.2522054;2.488392;1.103502;-0.008542493;1.32193;0.2544694;0;0;0
270065.7049;NotLabelled;NONE;16384;0.7554408;0.5152354;0.3490305;0.2049861;0;0;0;2756;-2692;1583;65536;0.7311695;0.3185596;-0.5554016;-0.2354571;-1;0;0;2939;-806;-2745;8192;0.6288089;-0.6619035;-0.4044321;0.05401662;0;0;-1;2454;3153;381;32768;0.3961219;-0.7949741;0.2506925;-0.3850415;0;0;0;2906;1706;2383;256;0.2396122;-0.3199446;-0.5761772;-0.7129104;3;0;0;121;4066;-729;128;-0.01800554;0.1869806;0.5858725;0.7883321;0;1;0;-877;3885;1304;4;-0.5609418;0.1592798;-0.4653739;-0.6658839;0;7;0;2389;3358;360;16;0.7473246;-0.634349;0.1731302;0.09556787;0;7;1;911;4064;-780;2;0.5401662;-0.6859229;-0.3642659;-0.3240997;0;0;-1;753;4050;-519;8;0.4501385;-0.8666089;-0.2146814;-0.0166205;0;4;1;-1507;3181;2137;0.05784929;2.529551;1.115676;0.06382221;3.073849;1.152083;0.06907392;3.552421;1.182066;0.0884285;4.267767;1.344451;-0.1613414;4.601142;1.379434;-0.5065983;4.459709;1.409981;-0.8191061;5.048007;0.7661085;-0.07346129;5.24156;1.317786;0.3588122;4.587072;1.379434;0.64355;4.428595;1.409982;0.8784485;3.670148;1.955745;0.08501154;3.256298;1.644339;-0.2543986;2.488084;1.105001;-0.01070297;1.321623;0.2559785;0;0;0;-0.2543986;2.488084;1.105001;-0.01070297;1.321623;0.2559785;0;0;0
270085.5257;NotLabelled;NONE;16384;0.7554408;0.5152354;0.3490305;0.2049861;-1;0;0;2736;-2670;1543;65536;0.730722;0.3185596;-0.5554016;-0.2368421;-1;0;0;2963;-796;-2725;8192;0.6288089;-0.6619035;-0.4044321;0.05401662;0;0;-1;2428;3099;401;32768;0.3961219;-0.7943017;0.2506925;-0.3864266;0;0;1;2900;1702;2311;256;0.2396122;-0.3199446;-0.5761772;-0.7129104;2;0;0;229;4024;-823;128;-0.01800554;0.1869806;0.5858725;0.7883321;0;0;0;-799;3851;1282;4;-0.5623268;0.1592798;-0.4653739;-0.6647146;-1;6;0;2315;3240;312;16;0.7473246;-0.634349;0.1731302;0.09556787;0;2;0;479;4038;-684;2;0.5401662;-0.6859229;-0.3642659;-0.3240997;-1;3;0;665;3986;-515;8;0.4501385;-0.8662646;-0.2160665;-0.0166205;0;2;0;-1517;3217;2007;0.06039208;2.530698;1.116524;0.066365;3.074996;1.152931;0.07161671;3.553568;1.182914;0.09097117;4.268914;1.345299;-0.1587986;4.602289;1.380282;-0.5040555;4.460855;1.410829;-0.8165633;5.049154;0.7669566;-0.0709185;5.242706;1.318634;0.3613551;4.588219;1.380282;0.646093;4.429742;1.41083;0.8795797;3.670076;1.9555;0.0861429;3.256225;1.644094;-0.2518558;2.489231;1.105849;-0.007368356;1.320946;0.2595673;0;0;0;-0.2518558;2.489231;1.105849;-0.007368356;1.320946;0.2595673;0;0;0
270106.546;NotLabelled;NONE;16384;0.7558153;0.5152354;0.3490305;0.2036011;-1;1;0;2646;-2570;1425;65536;0.7317727;0.3185596;-0.5540166;-0.2368421;-1;0;0;2875;-860;-2745;8192;0.6288089;-0.6619035;-0.4044321;0.05401662;0;0;-3;2514;3149;345;32768;0.3961219;-0.7938633;0.2520775;-0.3864266;-1;0;1;2904;1728;2237;256;0.2382271;-0.3199446;-0.5761772;-0.7133744;1;0;0;233;3938;-767;128;-0.01800554;0.1869806;0.5858725;0.7883321;0;1;0;-749;3757;1288;4;-0.5623268;0.1592798;-0.4653739;-0.6647146;0;3;0;2295;3154;330;16;0.7475004;-0.634349;0.1731302;0.09418282;0;3;0;293;4024;-704;2;0.5401662;-0.6859229;-0.3642659;-0.3240997;0;4;0;651;4002;-611;8;0.4501385;-0.8662646;-0.2160665;-0.0166205;0;1;0;-1397;3173;2037;0.062047;2.529752;1.118305;0.06801993;3.07405;1.154712;0.07327157;3.552622;1.184696;0.09262609;4.267967;1.34708;-0.1571437;4.601343;1.382063;-0.5024007;4.459908;1.412611;-0.8149084;5.048208;0.7687378;-0.0690152;5.240032;1.320683;0.3630099;4.587273;1.382063;0.6477479;4.428795;1.412611;0.8812347;3.66913;1.957281;0.08819592;3.256441;1.643329;-0.2502009;2.488285;1.10763;-0.007368371;1.320946;0.2595673;0;0;0;-0.2502009;2.488285;1.10763;-0.007368371;1.320946;0.2595673;0;0;0
270127.524;NotLabelled;NONE;16384;0.7548693;0.5166205;0.3490305;0.2036011;0;0;0;2578;-2614;1421;65536;0.730722;0.3185596;-0.5554016;-0.2368421;0;1;0;2703;-734;-2739;8192;0.6288089;-0.6619035;-0.4044321;0.05401662;0;0;-2;2600;3077;325;32768;0.3947368;-0.795225;0.2520775;-0.3850415;0;0;1;2850;1772;2321;256;0.2382271;-0.3199446;-0.5761772;-0.7133744;2;1;0;195;3908;-771;128;-0.01800554;0.1869806;0.5858725;0.7883321;0;1;0;-747;3717;1280;4;-0.5623268;0.1592798;-0.4653739;-0.6647146;0;0;0;2217;3198;326;16;0.7475004;-0.634349;0.1731302;0.09418282;0;-1;1;327;4000;-714;2;0.5401662;-0.6845287;-0.365651;-0.3254848;0;2;0;463;3990;-627;8;0.4501385;-0.8666089;-0.2146814;-0.0166205;-1;1;0;-1429;3275;2021;0.06577313;2.529407;1.120556;0.07174605;3.073705;1.156963;0.07699776;3.552277;1.186947;0.09760112;4.267365;1.350311;-0.1515847;4.60113;1.385741;-0.4970905;4.460259;1.416083;-0.8100577;5.04981;0.7735797;-0.06156725;5.242891;1.321558;0.3685434;4.586147;1.38574;0.6530017;4.427129;1.416082;0.8874994;3.667462;1.960318;0.09338874;3.256117;1.647314;-0.2464749;2.48794;1.109882;-0.005217239;1.3206;0.2613698;0;0;0;-0.2464749;2.48794;1.109882;-0.005217239;1.3206;0.2613698;0;0;0
270148.0997;NotLabelled;NONE;16384;0.7548693;0.5166205;0.3490305;0.2036011;0;0;0;2542;-2616;1397;65536;0.730722;0.3185596;-0.5554016;-0.2368421;1;0;-1;2755;-794;-2721;8192;0.6288089;-0.6619035;-0.4044321;0.05401662;1;1;-2;2606;3073;339;32768;0.3961219;-0.7938633;0.2520775;-0.3864266;2;0;2;2840;1832;2255;256;0.2382271;-0.3213296;-0.5761772;-0.7127516;3;1;0;187;3960;-809;128;-0.01800554;0.1869806;0.5858725;0.7883321;0;1;0;-781;3759;1372;4;-0.5623268;0.1606648;-0.4653739;-0.6643813;0;-1;0;2351;3324;310;16;0.7475004;-0.634349;0.1731302;0.09418282;0;-7;0;415;4064;-656;2;0.5401662;-0.6845287;-0.365651;-0.3254848;0;-1;-1;511;4030;-555;8;0.4501385;-0.8666089;-0.2146814;-0.0166205;-1;0;0;-1503;3187;1977;0.06577313;2.529407;1.120556;0.07174605;3.073705;1.156963;0.07699776;3.552277;1.186947;0.09760112;4.267365;1.350311;-0.1515847;4.60113;1.385741;-0.4970905;4.460259;1.416083;-0.8119332;5.050847;0.7754503;-0.06501651;5.242671;1.32601;0.3685434;4.586147;1.38574;0.6530017;4.427129;1.416082;0.8874992;3.667462;1.960318;0.09158474;3.256521;1.651391;-0.2464749;2.48794;1.109882;-0.005217239;1.3206;0.2613698;0;0;0;-0.2464749;2.48794;1.109882;-0.005217239;1.3206;0.2613698;0;0;0
270168.5336;NotLabelled;NONE;16384;0.7548693;0.5166205;0.3490305;0.2036011;2;-2;0;2572;-2604;1435;65536;0.730722;0.3185596;-0.5554016;-0.2368421;1;0;-1;2893;-806;-2683;8192;0.6274238;-0.6632165;-0.4044321;0.05401662;1;2;0;2562;3071;409;32768;0.3961219;-0.7943017;0.2506925;-0.3864266;3;1;1;2912;1798;2247;256;0.2382271;-0.3213296;-0.5761772;-0.7127516;2;0;0;203;3934;-779;128;-0.01800554;0.1869806;0.5858725;0.7883321;-1;2;0;-685;3815;1336;4;-0.5623268;0.1606648;-0.4653739;-0.6643813;-1;0;1;2457;3368;430;16;0.7470024;-0.634349;0.1745152;0.09556787;0;-10;0;585;4072;-900;2;0.5401662;-0.6845287;-0.365651;-0.3254848;0;0;0;539;3996;-587;8;0.4501385;-0.8666089;-0.2146814;-0.0166205;0;-2;0;-1455;3285;2021;0.06236076;2.531231;1.117227;0.06833369;3.075529;1.153634;0.07358551;3.554101;1.183617;0.09554255;4.269146;1.346991;-0.153011;4.603383;1.382425;-0.4987827;4.463166;1.412765;-0.8121026;5.053754;0.7713869;-0.06649631;5.245579;1.323719;0.367088;4.587414;1.382425;0.6512446;4.427857;1.412765;0.8844485;3.66819;1.957556;0.09108412;3.256845;1.642665;-0.2498871;2.489764;1.106552;-0.00583829;1.3206;0.2613574;0;0;0;-0.2498871;2.489764;1.106552;-0.00583829;1.3206;0.2613574;0;0;0
270189.5307;NotLabelled;NONE;16384;0.7544944;0.5166205;0.3490305;0.2049861;3;-2;-1;2702;-2626;1567;65536;0.7301167;0.3199446;-0.5554016;-0.2368421;2;-1;-1;2887;-798;-2825;8192;0.6274238;-0.66237;-0.4058172;0.05401662;1;4;-1;2534;3149;413;32768;0.3961219;-0.7936264;0.2506925;-0.3878116;3;2;2;2988;1772;2335;256;0.2382271;-0.3199446;-0.5761772;-0.7133744;3;0;-1;183;3950;-753;128;-0.01800554;0.1869806;0.5858725;0.7883321;0;0;-1;-805;3919;1344;4;-0.5623268;0.1606648;-0.4653739;-0.6643813;0;-2;2;2421;3294;222;16;0.7468239;-0.634349;0.1745152;0.09695291;0;2;-1;-137;3968;-578;2;0.5401662;-0.6845287;-0.365651;-0.3254848;0;-1;0;577;3978;-635;8;0.4501385;-0.8666089;-0.2146814;-0.0166205;0;-3;0;-1361;3321;2059;0.06343883;2.531382;1.116482;0.0694117;3.07568;1.15289;0.07466352;3.554252;1.182873;0.09662062;4.269299;1.346247;-0.151933;4.603534;1.381681;-0.4977046;4.463318;1.41202;-0.8110247;5.053905;0.7706422;-0.0654183;5.24573;1.322975;0.368166;4.587566;1.381681;0.6523226;4.428009;1.41202;0.8824264;3.668536;1.958397;0.08955091;3.255848;1.644033;-0.2488091;2.489915;1.105808;-0.004760206;1.320752;0.2606131;0;0;0;-0.2488091;2.489915;1.105808;-0.004760206;1.320752;0.2606131;0;0;0
270210.5197;NotLabelled;NONE;16384;0.7544944;0.5166205;0.3490305;0.2049861;3;-2;-1;2672;-2604;1583;65536;0.7305645;0.3199446;-0.5554016;-0.2354571;3;-1;-1;2883;-882;-2813;8192;0.6274238;-0.6624815;-0.4058172;0.05263158;1;3;-1;2486;3227;463;32768;0.3961219;-0.7936264;0.2506925;-0.3878116;2;1;1;2988;1740;2299;256;0.2382271;-0.3199446;-0.5761772;-0.7133744;1;0;0;253;4080;-777;128;-0.01800554;0.1869806;0.5858725;0.7883321;0;2;-1;-815;3941;1308;4;-0.5623268;0.1592798;-0.4653739;-0.6647146;0;-2;1;2405;3278;178;16;0.7468239;-0.634349;0.1745152;0.09695291;0;3;0;335;4118;-658;2;0.5401662;-0.6852667;-0.3642659;-0.3254848;0;-3;0;561;4046;-605;8;0.4501385;-0.8666089;-0.2146814;-0.0166205;0;0;0;-1453;3213;2117;0.06439644;2.531729;1.115278;0.07036936;3.076027;1.151685;0.07562113;3.554599;1.181669;0.09622443;4.269688;1.345033;-0.1529614;4.603452;1.380463;-0.4984672;4.462582;1.410805;-0.8140474;5.051914;0.7693805;-0.06836694;5.245291;1.321071;0.3671668;4.58847;1.380462;0.651625;4.429451;1.410804;0.8841046;3.671139;1.957787;0.09088665;3.259615;1.64276;-0.2478516;2.490262;1.104604;-0.005811527;1.321098;0.2588318;0;0;0;-0.2478516;2.490262;1.104604;-0.005811527;1.321098;0.2588318;0;0;0
270230.7699;NotLabelled;NONE;16384;0.7560793;0.5152354;0.3476454;0.2049861;2;-2;0;2766;-2600;1547;65536;0.7295094;0.3199446;-0.5567867;-0.2354571;2;0;-1;2889;-960;-2833;8192;0.6274238;-0.6624815;-0.4058172;0.05263158;1;1;-1;2462;3301;495;32768;0.3961219;-0.7936264;0.2506925;-0.3878116;1;0;0;3066;1798;2283;256;0.2382271;-0.3199446;-0.5761772;-0.7133744;2;0;-1;199;4084;-803;128;-0.0166205;0.1869806;0.5858725;0.7883625;-1;1;0;-781;3947;1372;4;-0.5609418;0.1592798;-0.4653739;-0.6658839;0;-4;0;2391;3316;298;16;0.7468239;-0.634349;0.1745152;0.09695291;0;-6;-1;221;4120;-758;2;0.5401662;-0.6852667;-0.3642659;-0.3254848;0;-2;0;707;4062;-623;8;0.4501385;-0.8669509;-0.2132964;-0.0166205;0;-1;0;-1493;3261;2147;0.06517875;2.529904;1.118018;0.07115179;3.074202;1.154425;0.0764035;3.552774;1.184409;0.09700674;4.267863;1.347773;-0.1521791;4.601627;1.383203;-0.4976848;4.460757;1.413545;-0.813265;5.050089;0.7721208;-0.06783575;5.245196;1.323543;0.3679491;4.586645;1.383202;0.6524074;4.427626;1.413544;0.8834774;3.668093;1.95943;0.09025955;3.25657;1.644403;-0.2470691;2.488437;1.107344;-0.005811557;1.321097;0.2588319;0;0;0;-0.2470691;2.488437;1.107344;-0.005811557;1.321097;0.2588319;0;0;0
270250.6893;NotLabelled;NONE;16384;0.7557024;0.5152354;0.3476454;0.2063712;1;-2;0;2800;-2628;1617;65536;0.7295094;0.3199446;-0.5567867;-0.2354571;1;0;-1;2975;-952;-2813;8192;0.6274238;-0.66259;-0.4058172;0.05124654;0;2;-1;2478;3315;555;32768;0.3961219;-0.7936264;0.2506925;-0.3878116;0;-1;1;2988;1834;2233;256;0.2368421;-0.3199446;-0.5761772;-0.7138355;2;0;0;191;4054;-831;128;-0.0166205;0.1869806;0.5858725;0.7883625;0;0;0;-747;3919;1298;4;-0.5609418;0.1592798;-0.4653739;-0.6658839;0;0;0;2501;3246;266;16;0.7466428;-0.634349;0.1745152;0.09833795;0;0;0;223;4024;-674;2;0.5401662;-0.6852667;-0.3642659;-0.3254848;0;-1;-1;735;4052;-549;8;0.4501385;-0.8666089;-0.2146814;-0.0166205;1;0;0;-1661;3205;2123;0.06351459;2.530847;1.116251;0.06948733;3.075137;1.152794;0.0747391;3.553702;1.182897;0.09534144;4.268789;1.346261;-0.1538446;4.602553;1.38169;-0.4993505;4.461683;1.41203;-0.8106982;5.050959;0.7684878;-0.06685781;5.244805;1.322493;0.3662835;4.58757;1.381692;0.6507419;4.428552;1.412035;0.881808;3.669155;1.958111;0.08859164;3.257632;1.64308;-0.2487333;2.489383;1.105566;-0.005812988;1.321098;0.2588325;0;0;0;-0.2487333;2.489383;1.105566;-0.005812988;1.321098;0.2588325;0;0;0
270271.5056;NotLabelled;NONE;16384;0.7557024;0.5152354;0.3476454;0.2063712;0;0;0;2806;-2524;1611;65536;0.7295094;0.3199446;-0.5567867;-0.2354571;0;0;0;2883;-898;-2785;8192;0.6274238;-0.66259;-0.4058172;0.05124654;0;0;-1;2490;3241;417;32768;0.3961219;-0.7931876;0.2520775;-0.3878116;0;0;0;2928;1754;2377;256;0.2368421;-0.3199446;-0.5761772;-0.7138355;1;0;0;171;4014;-881;128;-0.0166205;0.1869806;0.5858725;0.7883625;0;0;0;-755;3851;1378;4;-0.5609418;0.1592798;-0.4653739;-0.6658839;2;2;0;2487;3266;240;16;0.7466428;-0.634349;0.1745152;0.09833795;0;-3;0;419;4002;-690;2;0.5401662;-0.6845287;-0.365651;-0.3254848;0;2;0;693;4024;-573;8;0.4501385;-0.8666089;-0.2146814;-0.0166205;1;0;0;-1493;3263;1993;0.06389123;2.531189;1.114922;0.06986409;3.075478;1.151464;0.07511574;3.554043;1.181567;0.09696954;4.26887;1.345906;-0.1516306;4.603023;1.381781;-0.4973847;4.46272;1.411917;-0.810663;5.050904;0.7683127;-0.0657962;5.244751;1.320937;0.3684705;4.587126;1.381781;0.6526473;4.427567;1.411917;0.8833205;3.666818;1.956275;0.08952111;3.255295;1.642716;-0.2483567;2.489725;1.104236;-0.007007465;1.321439;0.2570539;0;0;0;-0.2483567;2.489725;1.104236;-0.007007465;1.321439;0.2570539;0;0;0
270291.5704;NotLabelled;NONE;16384;0.7557024;0.5152354;0.3476454;0.2063712;0;0;0;2734;-2558;1575;65536;0.7295094;0.3199446;-0.5567867;-0.2354571;-1;0;0;2805;-876;-2801;8192;0.6274238;-0.66259;-0.4058172;0.05124654;0;0;0;2516;3189;417;32768;0.3961219;-0.7931876;0.2520775;-0.3878116;0;0;0;2914;1734;2351;256;0.2368421;-0.3199446;-0.5761772;-0.7138355;1;0;0;173;4048;-741;128;-0.0166205;0.1869806;0.5844875;0.7893899;0;2;0;-773;3821;1390;4;-0.5623268;0.1606648;-0.4639889;-0.6653492;0;5;0;2445;3330;256;16;0.7463177;-0.634349;0.1759003;0.09833795;0;-13;0;569;4062;-658;2;0.5401662;-0.6845287;-0.365651;-0.3254848;-1;2;-1;609;4030;-571;8;0.4501385;-0.8669763;-0.2132964;-0.01523546;0;-4;0;-1355;3187;1985;0.06389123;2.531189;1.114922;0.06986409;3.075478;1.151464;0.07511574;3.554043;1.181567;0.09696954;4.26887;1.345906;-0.1516306;4.603023;1.381781;-0.4973847;4.46272;1.411917;-0.810663;5.050904;0.7683127;-0.0657962;5.244751;1.320937;0.3684705;4.587126;1.381781;0.6526473;4.427567;1.411917;0.8833205;3.666818;1.956275;0.08903086;3.256643;1.642192;-0.2483567;2.489725;1.104236;-0.007007465;1.321439;0.2570539;0;0;0;-0.2483567;2.489725;1.104236;-0.007007465;1.321439;0.2570539;0;0;0
270332.6024;NotLabelled;NONE;16384;0.7557024;0.5152354;0.3476454;0.2063712;0;0;0;2686;-2546;1521;65536;0.7305645;0.3199446;-0.5554016;-0.2354571;-1;0;0;2867;-846;-2773;8192;0.6274238;-0.66259;-0.4058172;0.05124654;0;0;0;2486;3181;429;32768;0.3961219;-0.7931876;0.2520775;-0.3878116;0;0;0;2900;1742;2299;256;0.2368421;-0.3199446;-0.5761772;-0.7138355;2;0;0;121;3982;-793;128;-0.0166205;0.1869806;0.5844875;0.7893899;0;1;0;-753;3843;1366;4;-0.5623268;0.1606648;-0.4639889;-0.6653492;0;3;0;2285;3294;298;16;0.745806;-0.634349;0.1772853;0.09972299;0;-7;-1;357;4072;-934;2;0.5401662;-0.6845287;-0.365651;-0.3254848;-1;1;0;509;4020;-569;8;0.4515235;-0.8662558;-0.2132964;-0.01523546;0;0;0;-1417;3259;2077;0.06289792;2.530463;1.115718;0.06886941;3.074623;1.154139;0.07411987;3.553081;1.185893;0.09597373;4.267908;1.350232;-0.1526263;4.602062;1.386106;-0.4983804;4.461759;1.416242;-0.8116588;5.049942;0.7726381;-0.06679213;5.243789;1.325263;0.3674746;4.586165;1.386106;0.6516516;4.426606;1.416242;0.8823245;3.665856;1.960601;0.08803499;3.255681;1.646518;-0.2493495;2.489037;1.104878;-0.004256129;1.321251;0.2580809;0;0;0;-0.2493495;2.489037;1.104878;-0.004256129;1.321251;0.2580809;0;0;0
270352.5435;NotLabelled;NONE;16384;0.7557024;0.5152354;0.3476454;0.2063712;0;0;0;2674;-2554;1525;65536;0.7305645;0.3199446;-0.5554016;-0.2354571;-1;0;0;2975;-866;-2761;8192;0.6274238;-0.66259;-0.4058172;0.05124654;0;0;-2;2458;3141;411;32768;0.3961219;-0.7931876;0.2520775;-0.3878116;0;0;0;2862;1716;2189;256;0.2368421;-0.3199446;-0.5761772;-0.7138355;2;0;0;173;3984;-785;128;-0.0166205;0.1869806;0.5844875;0.7893899;0;0;0;-765;3787;1298;4;-0.5623268;0.1606648;-0.4639889;-0.6653492;1;-2;0;2241;3262;224;16;0.7461339;-0.634349;0.1759003;0.09972299;0;6;0;427;4142;-606;2;0.5401662;-0.6845287;-0.365651;-0.3254848;0;-2;0;551;3994;-649;8;0.4515235;-0.8662558;-0.2132964;-0.01523546;1;-2;0;-1383;3175;2039;0.06397802;2.530617;1.114945;0.06994957;3.074777;1.153365;0.07520002;3.553235;1.185119;0.09705383;4.268062;1.349458;-0.1515462;4.602216;1.385333;-0.4973003;4.461913;1.415469;-0.8105786;5.050096;0.7718647;-0.06413031;5.245201;1.321907;0.3685549;4.586319;1.385333;0.6527317;4.42676;1.415469;0.8834047;3.66601;1.959827;0.08911496;3.255835;1.645744;-0.2482694;2.48919;1.104104;-0.003175989;1.321405;0.2573075;0;0;0;-0.2482694;2.48919;1.104104;-0.003175989;1.321405;0.2573075;0;0;0
270372.7839;NotLabelled;NONE;16384;0.7550637;0.5152354;0.3490305;0.2063712;0;1;0;2654;-2628;1549;65536;0.7305645;0.3199446;-0.5554016;-0.2354571;0;-1;0;2845;-820;-2755;8192;0.6274238;-0.66259;-0.4058172;0.05124654;1;0;0;2498;3173;407;32768;0.3961219;-0.7931876;0.2520775;-0.3878116;0;1;1;2944;1828;2333;256;0.2368421;-0.3199446;-0.5747922;-0.7149512;2;-1;0;143;4006;-749;128;-0.0166205;0.1869806;0.5844875;0.7893899;0;0;0;-753;3845;1316;4;-0.5609418;0.1606648;-0.4639889;-0.6665174;1;-3;0;2241;3268;320;16;0.7461339;-0.634349;0.1759003;0.09972299;0;-9;-1;543;4006;-648;2;0.5401662;-0.6845287;-0.365651;-0.3254848;0;-1;0;555;3972;-609;8;0.4515235;-0.8666189;-0.2119114;-0.01385042;1;-5;0;-1367;3235;1961;0.06122202;2.530805;1.113928;0.06719345;3.074965;1.152348;0.0724439;3.553423;1.184102;0.09429777;4.26825;1.348441;-0.1543023;4.602404;1.384316;-0.5000564;4.462101;1.414452;-0.8133348;5.050283;0.7708477;-0.06688643;5.245389;1.32089;0.3657987;4.586507;1.384316;0.6499756;4.426948;1.414452;0.8806484;3.666198;1.95881;0.08635879;3.256023;1.644727;-0.2510256;2.489378;1.103087;-0.005932078;1.321593;0.2562905;0;0;0;-0.2510256;2.489378;1.103087;-0.005932078;1.321593;0.2562905;0;0;0
270393.587;NotLabelled;NONE;16384;0.7550637;0.5152354;0.3490305;0.2063712;0;0;0;2714;-2614;1499;65536;0.7305645;0.3199446;-0.5554016;-0.2354571;-1;0;0;2901;-820;-2835;8192;0.6274238;-0.66259;-0.4058172;0.05124654;0;0;0;2530;3143;503;32768;0.3961219;-0.7931876;0.2520775;-0.3878116;0;1;0;2914;1820;2293;256;0.2368421;-0.3199446;-0.5747922;-0.7149512;2;-1;0;177;3974;-791;128;-0.0166205;0.1869806;0.5844875;0.7893899;0;0;-1;-781;3853;1298;4;-0.5609418;0.1606648;-0.4653739;-0.6655511;-1;-2;1;2341;3298;336;16;0.7467957;-0.632964;0.1772853;0.101108;0;-9;-1;279;4054;-762;2;0.5401662;-0.6852667;-0.3642659;-0.3254848;0;0;-1;585;4092;-475;8;0.4515235;-0.8666189;-0.2119114;-0.01385042;1;-4;0;-1471;3267;1953;0.05951816;2.53174;1.112144;0.06548959;3.0759;1.150565;0.0707401;3.554358;1.182318;0.09156644;4.268675;1.348991;-0.1575097;4.602358;1.385931;-0.5030679;4.461468;1.415575;-0.8186701;5.048512;0.7720656;-0.07224381;5.243617;1.322137;0.3626132;4.587197;1.385931;0.6470128;4.427942;1.415575;0.8776643;3.667194;1.959942;0.08338743;3.257016;1.645828;-0.2527293;2.490313;1.101304;-0.005942121;1.321593;0.2562903;0;0;0;-0.2527293;2.490313;1.101304;-0.005942121;1.321593;0.2562903;0;0;0
270413.5741;NotLabelled;NONE;16384;0.7550637;0.5152354;0.3490305;0.2063712;0;0;0;2730;-2700;1543;65536;0.7295094;0.3199446;-0.5567867;-0.2354571;0;0;0;2881;-830;-2799;8192;0.6274238;-0.66259;-0.4058172;0.05124654;0;-1;-1;2482;3185;493;32768;0.3961219;-0.7931876;0.2520775;-0.3878116;-1;0;0;2940;1826;2277;256;0.2368421;-0.3213296;-0.5747922;-0.7143298;0;-1;0;183;3996;-789;128;-0.0166205;0.1869806;0.5844875;0.7893899;1;0;0;-753;3857;1300;4;-0.5609418;0.1606648;-0.4653739;-0.6655511;-1;0;1;2469;3258;226;16;0.7467957;-0.632964;0.1772853;0.101108;0;-1;0;197;4040;-716;2;0.5401662;-0.6845287;-0.365651;-0.3254848;-1;0;0;683;4056;-513;8;0.4515235;-0.8669564;-0.2105263;-0.01385042;0;-1;0;-1499;3257;2193;0.06240153;2.532504;1.114701;0.06837291;3.076663;1.153122;0.07362342;3.555122;1.184875;0.09444982;4.269438;1.351548;-0.1546264;4.603122;1.388488;-0.5001845;4.462232;1.418132;-0.8157868;5.049275;0.7746227;-0.06936049;5.24438;1.324694;0.3654965;4.587961;1.388488;0.6498962;4.428706;1.418132;0.8805478;3.667957;1.962499;0.08627063;3.257781;1.648385;-0.249846;2.491076;1.103861;-0.007672638;1.320971;0.2594299;0;0;0;-0.249846;2.491076;1.103861;-0.007672638;1.320971;0.2594299;0;0;0
270434.538;NotLabelled;NONE;16384;0.7557024;0.5152354;0.3476454;0.2063712;1;0;0;2714;-2574;1545;65536;0.7295094;0.3199446;-0.5567867;-0.2354571;0;-1;0;2899;-862;-2807;8192;0.6274238;-0.66259;-0.4058172;0.05124654;0;0;-1;2512;3253;431;32768;0.3961219;-0.7931876;0.2520775;-0.3878116;-1;0;0;2964;1734;2201;256;0.2368421;-0.3213296;-0.5747922;-0.7143298;1;0;0;221;3982;-765;128;-0.0166205;0.1869806;0.5844875;0.7893899;0;0;-1;-783;3851;1352;4;-0.5609418;0.1606648;-0.4639889;-0.6665174;-1;0;1;2543;3276;216;16;0.7467957;-0.632964;0.1772853;0.101108;0;-2;0;455;4012;-724;2;0.5401662;-0.6845287;-0.365651;-0.3254848;0;0;1;757;3948;-643;8;0.4515235;-0.8666189;-0.2119114;-0.01385042;0;0;0;-1485;3191;2131;0.05977625;2.532504;1.114104;0.06574762;3.076663;1.152524;0.07099819;3.555122;1.184278;0.09317249;4.269396;1.35096;-0.1552737;4.603549;1.387904;-0.5010971;4.46331;1.417546;-0.8151672;5.050354;0.7732873;-0.071639;5.2442;1.327712;0.3648198;4.587406;1.387904;0.6489184;4.427614;1.417546;0.8782741;3.666865;1.962461;0.08474648;3.256689;1.646458;-0.2524713;2.491077;1.103263;-0.008289695;1.320971;0.259411;0;0;0;-0.2524713;2.491077;1.103263;-0.008289695;1.320971;0.259411;0;0;0
270454.7334;NotLabelled;NONE;16384;0.7557024;0.5152354;0.3476454;0.2063712;1;0;0;2702;-2600;1465;65536;0.7295094;0.3199446;-0.5567867;-0.2354571;0;0;0;2789;-874;-2749;8192;0.6274238;-0.66259;-0.4058172;0.05124654;0;0;-1;2526;3183;373;32768;0.3961219;-0.7931876;0.2520775;-0.3878116;0;1;0;2996;1828;2233;256;0.2382271;-0.3213296;-0.5747922;-0.7138691;1;-1;0;107;3956;-765;128;-0.0166205;0.1869806;0.5844875;0.7893899;0;0;-1;-745;3837;1400;4;-0.5609418;0.1592798;-0.4653739;-0.6658839;-2;-1;0;2351;3264;260;16;0.7462766;-0.632964;0.1786704;0.1024931;0;-4;0;81;4098;-812;2;0.5401662;-0.6852667;-0.3642659;-0.3254848;0;-1;0;553;4006;-677;8;0.4515235;-0.8669774;-0.2105263;-0.01246537;0;-3;0;-1355;3225;1975;0.05516094;2.531118;1.114675;0.06113237;3.075278;1.153095;0.06638288;3.553737;1.18485;0.08855718;4.268011;1.351532;-0.1598889;4.602163;1.388476;-0.5057123;4.461925;1.418117;-0.8174332;5.050108;0.7737572;-0.07390511;5.243956;1.328182;0.3602044;4.58602;1.388476;0.644303;4.426229;1.418118;0.8736588;3.66548;1.963032;0.08013123;3.255303;1.647029;-0.2570866;2.489691;1.103835;-0.00828959;1.320971;0.259411;0;0;0;-0.2570866;2.489691;1.103835;-0.00828959;1.320971;0.259411;0;0;0
270475.5617;NotLabelled;NONE;16384;0.7557024;0.5152354;0.3476454;0.2063712;1;-1;-1;2628;-2550;1559;65536;0.729955;0.3199446;-0.5567867;-0.234072;1;0;0;2777;-852;-2751;8192;0.6274238;-0.66259;-0.4058172;0.05124654;0;0;-1;2500;3185;449;32768;0.3961219;-0.7931876;0.2520775;-0.3878116;0;0;-1;2858;1846;2323;256;0.2382271;-0.3213296;-0.5747922;-0.7138691;0;-2;-1;157;3962;-787;128;-0.0166205;0.1883656;0.5844875;0.7890605;0;-1;0;-745;3861;1350;4;-0.5609418;0.1592798;-0.4653739;-0.6658839;0;-2;0;2309;3182;150;16;0.746085;-0.632964;0.1786704;0.1038781;0;-1;-1;-45;4028;-780;2;0.5401662;-0.6852667;-0.3642659;-0.3254848;0;-2;-1;639;4142;-495;8;0.4515235;-0.8669774;-0.2105263;-0.01246537;0;-2;0;-1527;3289;2089;0.05961066;2.530842;1.115606;0.06558204;3.075002;1.154027;0.07083255;3.55346;1.185781;0.09175646;4.268;1.351488;-0.157276;4.601763;1.387987;-0.5028507;4.460958;1.417834;-0.8133815;5.04914;0.7729002;-0.07087857;5.242989;1.328696;0.3628451;4.586536;1.387986;0.6472256;4.427285;1.417834;0.875575;3.666536;1.963171;0.08263248;3.25636;1.645704;-0.2526368;2.489415;1.104765;-0.00767675;1.321129;0.2586201;0;0;0;-0.2526368;2.489415;1.104765;-0.00767675;1.321129;0.2586201;0;0;0
270496.3767;NotLabelled;NONE;16384;0.7550637;0.5152354;0.3490305;0.2063712;1;-1;-1;2672;-2624;1561;65536;0.729955;0.3199446;-0.5567867;-0.234072;0;0;0;2881;-832;-2841;8192;0.6274238;-0.66259;-0.4058172;0.05124654;-1;0;-2;2550;3227;429;32768;0.3961219;-0.7931876;0.2520775;-0.3878116;-1;-1;0;2980;1718;2249;256;0.2382271;-0.3213296;-0.5747922;-0.7138691;1;-1;0;129;4012;-795;128;-0.0166205;0.1883656;0.5844875;0.7890605;0;-1;0;-833;3871;1330;4;-0.5609418;0.1592798;-0.4653739;-0.6658839;0;-2;0;2353;3152;184;16;0.746085;-0.632964;0.1786704;0.1038781;0;1;0;175;4038;-664;2;0.5401662;-0.6852667;-0.3642659;-0.3254848;0;-1;0;701;4024;-581;8;0.4515235;-0.8669774;-0.2105263;-0.01246537;0;0;0;-1517;3243;2103;0.05794215;2.531181;1.113813;0.06391358;3.075336;1.152295;0.06916404;3.55379;1.184102;0.09008789;4.26833;1.349809;-0.1589444;4.602094;1.386308;-0.504519;4.461288;1.416156;-0.8150508;5.049471;0.7712224;-0.07279932;5.245049;1.326747;0.3611766;4.586866;1.386308;0.6455572;4.427616;1.416156;0.8739075;3.666867;1.961492;0.08096504;3.256691;1.644025;-0.2543053;2.489755;1.102968;-0.009345189;1.321469;0.2568227;0;0;0;-0.2543053;2.489755;1.102968;-0.009345189;1.321469;0.2568227;0;0;0
270518.1411;NotLabelled;NONE;16384;0.7550637;0.5152354;0.3490305;0.2063712;0;0;-1;2740;-2564;1591;65536;0.729955;0.3199446;-0.5567867;-0.234072;0;0;0;2877;-896;-2785;8192;0.6274238;-0.6635419;-0.4044321;0.04986149;-1;0;-1;2484;3217;431;32768;0.3961219;-0.7931876;0.2520775;-0.3878116;0;-1;-1;2972;1802;2213;256;0.2382271;-0.3227147;-0.5747922;-0.713244;1;-1;0;143;4064;-797;128;-0.01800554;0.1883656;0.5844875;0.7890301;0;0;-1;-709;3877;1374;4;-0.5595568;0.1592798;-0.4653739;-0.6670482;0;-2;0;2441;3258;312;16;0.746085;-0.632964;0.1786704;0.1038781;0;-4;0;389;4016;-700;2;0.5401662;-0.6859229;-0.3642659;-0.3240997;0;0;0;705;3980;-635;8;0.4515235;-0.8669774;-0.2105263;-0.01246537;0;0;0;-1523;3185;2037;0.05794078;2.531181;1.113812;0.06391227;3.075337;1.152294;0.06916261;3.553792;1.184101;0.0900864;4.268331;1.349808;-0.158946;4.602095;1.386307;-0.5045208;4.461289;1.416154;-0.8173996;5.048332;0.7713157;-0.07514852;5.243911;1.326842;0.3611751;4.586868;1.386307;0.6455556;4.427617;1.416155;0.8739038;3.666869;1.961493;0.08096153;3.256692;1.644025;-0.2543067;2.489755;1.102967;-0.009345546;1.32147;0.2568223;0;0;0;-0.2543067;2.489755;1.102967;-0.009345546;1.32147;0.2568223;0;0;0
270537.9921;NotLabelled;NONE;16384;0.7550637;0.5152354;0.3490305;0.2063712;0;-1;-1;2760;-2544;1627;65536;0.729955;0.3199446;-0.5567867;-0.234072;0;0;1;2853;-968;-2847;8192;0.6274238;-0.6635419;-0.4044321;0.04986149;-1;0;0;2516;3253;411;32768;0.3961219;-0.7938633;0.2520775;-0.3864266;0;0;-1;2956;1772;2321;256;0.2396122;-0.3227147;-0.5747922;-0.7127799;1;-1;0;139;4008;-863;128;-0.01800554;0.1883656;0.5844875;0.7890301;0;0;0;-803;3849;1384;4;-0.5595568;0.1592798;-0.4653739;-0.6670482;0;0;0;2565;3338;268;16;0.7455577;-0.632964;0.1800554;0.1052632;0;-2;0;245;4048;-716;2;0.5401662;-0.6859229;-0.3642659;-0.3240997;0;0;0;729;3948;-579;8;0.4515235;-0.8669774;-0.2105263;-0.01246537;0;-2;0;-1361;3173;1997;0.05367041;2.532124;1.11141;0.0596419;3.076289;1.149754;0.06489247;3.554751;1.181441;0.08716732;4.269248;1.347157;-0.1612334;4.603481;1.383661;-0.5070738;4.463328;1.413506;-0.8184193;5.050372;0.7679266;-0.0774914;5.245951;1.325217;0.358858;4.587271;1.38366;0.6429369;4.427483;1.413506;0.8675164;3.664371;1.957106;0.07533127;3.254195;1.637753;-0.2585772;2.490695;1.100576;-0.0099563;1.32147;0.2567997;0;0;0;-0.2585772;2.490695;1.100576;-0.0099563;1.32147;0.2567997;0;0;0
270558.713;NotLabelled;NONE;16384;0.7546837;0.5152354;0.3490305;0.2077562;0;0;-1;2762;-2552;1579;65536;0.729955;0.3199446;-0.5567867;-0.234072;0;1;1;2829;-1004;-2799;8192;0.6274238;-0.6626957;-0.4058172;0.04986149;0;0;0;2538;3135;421;32768;0.3961219;-0.7938633;0.2520775;-0.3864266;0;0;0;2966;1766;2323;256;0.2396122;-0.3227147;-0.5747922;-0.7127799;1;-2;0;93;4006;-795;128;-0.0166205;0.1883656;0.5844875;0.7890605;0;0;0;-821;3859;1322;4;-0.5609418;0.1592798;-0.4653739;-0.6658839;0;3;0;2511;3376;210;16;0.7455577;-0.632964;0.1800554;0.1052632;0;-1;1;275;4074;-706;2;0.5401662;-0.6859229;-0.3642659;-0.3240997;0;0;-1;563;4024;-473;8;0.4515235;-0.8673125;-0.2091413;-0.01246537;0;-1;0;-1485;3323;2057;0.05273056;2.532284;1.110146;0.05870205;3.076449;1.14849;0.06395257;3.554912;1.180176;0.08498067;4.269672;1.344913;-0.1640046;4.60352;1.380969;-0.5095973;4.462801;1.411021;-0.8185502;5.049845;0.7642928;-0.07865512;5.245423;1.322953;0.3561145;4.588221;1.380968;0.6404746;4.428972;1.411021;0.8630396;3.665861;1.955449;0.07102668;3.254516;1.637174;-0.259517;2.490856;1.099312;-0.009334788;1.32163;0.2559974;0;0;0;-0.259517;2.490856;1.099312;-0.009334788;1.32163;0.2559974;0;0;0
270579.5529;NotLabelled;NONE;16384;0.7550637;0.5152354;0.3490305;0.2063712;-2;1;0;2722;-2580;1635;65536;0.729955;0.3199446;-0.5567867;-0.234072;-1;1;1;2927;-906;-2755;8192;0.6274238;-0.6634364;-0.4044321;0.05124654;-1;-1;-1;2528;3253;415;32768;0.3961219;-0.7938633;0.2520775;-0.3864266;0;1;-1;2956;1822;2273;256;0.2396122;-0.3227147;-0.5747922;-0.7127799;1;-1;0;179;4020;-799;128;-0.01800554;0.1883656;0.5844875;0.7890301;0;1;0;-785;3899;1308;4;-0.5609418;0.1592798;-0.4653739;-0.6658839;-2;0;0;2305;3206;270;16;0.7452219;-0.632964;0.1814404;0.1052632;0;-6;0;263;4060;-896;2;0.5401662;-0.6859229;-0.3642659;-0.3240997;0;0;0;577;4050;-591;8;0.4515235;-0.8673313;-0.2091413;-0.01108033;0;-1;0;-1633;3283;2081;0.05437535;2.531341;1.111944;0.06034678;3.075497;1.150425;0.06559718;3.553951;1.182233;0.08662534;4.268711;1.346969;-0.1623598;4.602559;1.383025;-0.5079527;4.461841;1.413077;-0.8188329;5.047626;0.7661319;-0.07893783;5.243205;1.324792;0.3577592;4.58726;1.383024;0.6421191;4.428012;1.413077;0.8667696;3.66605;1.958258;0.07475662;3.254704;1.639983;-0.257872;2.489915;1.101099;-0.009334505;1.32163;0.2559973;0;0;0;-0.257872;2.489915;1.101099;-0.009334505;1.32163;0.2559973;0;0;0
270600.5214;NotLabelled;NONE;16384;0.7550637;0.5152354;0.3490305;0.2063712;-2;1;0;2690;-2544;1513;65536;0.7305645;0.3199446;-0.5554016;-0.2354571;-2;1;2;2851;-860;-2761;8192;0.6274238;-0.6634364;-0.4044321;0.05124654;-1;0;0;2526;3243;385;32768;0.3961219;-0.7938633;0.2520775;-0.3864266;0;0;-1;2972;1828;2277;256;0.2396122;-0.3227147;-0.5747922;-0.7127799;1;-1;0;217;4006;-763;128;-0.01800554;0.1883656;0.5844875;0.7890301;0;0;0;-753;3929;1316;4;-0.5609418;0.1592798;-0.4653739;-0.6658839;0;-2;0;2339;3188;220;16;0.7461994;-0.6315789;0.1814404;0.1066482;0;-1;0;55;4032;-776;2;0.5401662;-0.6859229;-0.3642659;-0.3240997;1;0;1;681;4024;-649;8;0.4515235;-0.8673313;-0.2091413;-0.01108033;1;-1;0;-1557;3277;2067;0.05713892;2.531164;1.112945;0.06311041;3.075329;1.151289;0.06836092;3.553792;1.182976;0.08938915;4.268552;1.347712;-0.1595963;4.6024;1.383768;-0.5051889;4.461681;1.41382;-0.8153355;5.048725;0.7676635;-0.07544041;5.244303;1.326324;0.3605229;4.587101;1.383768;0.6448827;4.427852;1.413821;0.8698463;3.66595;1.958955;0.07783377;3.254605;1.64068;-0.2551087;2.489736;1.102111;-0.006571099;1.32145;0.2570096;0;0;0;-0.2551087;2.489736;1.102111;-0.006571099;1.32145;0.2570096;0;0;0
270620.5346;NotLabelled;NONE;16384;0.7550637;0.5152354;0.3490305;0.2063712;-1;1;-1;2704;-2594;1575;65536;0.7305645;0.3199446;-0.5554016;-0.2354571;-2;1;2;2823;-816;-2743;8192;0.6274238;-0.6634364;-0.4044321;0.05124654;-1;0;0;2530;3179;405;32768;0.3961219;-0.7938633;0.2520775;-0.3864266;0;0;-1;2952;1810;2299;256;0.2396122;-0.3227147;-0.5734072;-0.7138945;1;-3;0;149;4062;-795;128;-0.01800554;0.1883656;0.5844875;0.7890301;0;0;0;-713;3859;1386;4;-0.5595568;0.1578947;-0.4653739;-0.6673774;0;-3;0;2437;3206;156;16;0.7465348;-0.6315789;0.1800554;0.1066482;0;4;0;49;4020;-684;2;0.5401662;-0.6859229;-0.3642659;-0.3240997;1;-1;1;645;4010;-591;8;0.4515235;-0.8673313;-0.2091413;-0.01108033;0;0;0;-1273;3259;2049;0.05266315;2.530724;1.115046;0.0586347;3.074889;1.15339;0.06388515;3.553352;1.185076;0.08491337;4.268112;1.349813;-0.1640719;4.60196;1.385868;-0.5096648;4.461242;1.41592;-0.8198145;5.048285;0.7697654;-0.07806587;5.243391;1.326129;0.3560472;4.586661;1.385868;0.6404072;4.427412;1.415921;0.8653734;3.665511;1.961054;0.07336092;3.254166;1.642779;-0.2595842;2.489296;1.104211;-0.0110468;1.32101;0.25911;0;0;0;-0.2595842;2.489296;1.104211;-0.0110468;1.32101;0.25911;0;0;0
270642.6183;NotLabelled;NONE;16384;0.7544219;0.5152354;0.3504155;0.2063712;-2;1;-1;2728;-2600;1595;65536;0.7316154;0.3199446;-0.5540166;-0.2354571;-2;1;2;2773;-876;-2773;8192;0.6274238;-0.6634364;-0.4044321;0.05124654;-1;0;0;2546;3163;503;32768;0.3961219;-0.7938633;0.2520775;-0.3864266;0;-1;-1;2940;1794;2279;256;0.2409972;-0.3240997;-0.5734072;-0.7128001;1;-3;0;189;3996;-795;128;-0.01800554;0.1883656;0.5844875;0.7890301;0;0;0;-811;3859;1428;4;-0.5595568;0.1578947;-0.4653739;-0.6673774;0;-1;0;2455;3346;170;16;0.7453609;-0.632964;0.1800554;0.1066482;0;0;0;357;4004;-660;2;0.5401662;-0.6859229;-0.3642659;-0.3240997;1;0;0;607;3992;-621;8;0.4515235;-0.8673313;-0.2091413;-0.01108033;0;0;0;-1363;3193;2071;0.04899323;2.530017;1.114982;0.05496466;3.074182;1.153326;0.06021535;3.552645;1.185012;0.08020717;4.266895;1.352076;-0.1692581;4.600267;1.389195;-0.5146522;4.458958;1.418756;-0.8247776;5.046001;0.7725897;-0.08304989;5.241107;1.328981;0.3508823;4.585711;1.389195;0.6354667;4.426772;1.418756;0.8604128;3.66487;1.963898;0.06841159;3.253525;1.645593;-0.2632543;2.488588;1.104148;-0.01382244;1.321182;0.2580945;0;0;0;-0.2632543;2.488588;1.104148;-0.01382244;1.321182;0.2580945;0;0;0
270662.7486;NotLabelled;NONE;16384;0.7544219;0.5152354;0.3504155;0.2063712;-3;1;-1;2738;-2590;1579;65536;0.7316154;0.3199446;-0.5540166;-0.2354571;-3;2;2;2853;-862;-2823;8192;0.6288089;-0.6621237;-0.4044321;0.05124654;-1;0;-1;2482;3193;443;32768;0.3961219;-0.7938633;0.2520775;-0.3864266;0;-1;0;2912;1732;2205;256;0.2409972;-0.3240997;-0.5734072;-0.7128001;1;-3;-1;143;3910;-819;128;-0.01800554;0.1883656;0.5831025;0.7900542;0;0;0;-789;3791;1376;4;-0.5595568;0.1578947;-0.4653739;-0.6673774;-1;3;0;2465;3246;278;16;0.7461994;-0.6315789;0.1814404;0.1066482;0;0;0;257;4060;-724;2;0.5401662;-0.6852667;-0.3642659;-0.3254848;1;0;0;661;4006;-555;8;0.4515235;-0.8673313;-0.2091413;-0.01108033;0;1;0;-1505;3253;2027;0.04715168;2.5308;1.109964;0.05312324;3.074965;1.148308;0.05837369;3.553429;1.179995;0.07847077;4.267902;1.346082;-0.1709469;4.601359;1.382755;-0.5163595;4.460139;1.412522;-0.826098;5.046041;0.7651345;-0.08513075;5.2424;1.322097;0.3491914;4.586732;1.382755;0.633755;4.427794;1.412523;0.8563905;3.665893;1.958612;0.0657444;3.254547;1.636956;-0.2650958;2.489372;1.09913;-0.01208352;1.321966;0.2541409;0;0;0;-0.2650958;2.489372;1.09913;-0.01208352;1.321966;0.2541409;0;0;0
270683.503;NotLabelled;NONE;16384;0.7544219;0.5152354;0.3504155;0.2063712;-4;0;0;2780;-2592;1515;65536;0.7322156;0.3199446;-0.5526316;-0.2368421;-3;2;2;2925;-862;-2775;8192;0.6288089;-0.6621237;-0.4044321;0.05124654;-1;0;0;2476;3239;427;32768;0.3961219;-0.7945359;0.2520775;-0.3850415;-1;1;-2;2932;1778;2259;256;0.2409972;-0.3240997;-0.5734072;-0.7128001;1;-1;-1;149;4022;-799;128;-0.01800554;0.1883656;0.5831025;0.7900542;0;0;0;-721;3851;1308;4;-0.5595568;0.1578947;-0.4653739;-0.6673774;-1;2;0;2423;3208;298;16;0.7461994;-0.6315789;0.1814404;0.1066482;0;1;0;363;4024;-718;2;0.5387812;-0.6863562;-0.3642659;-0.3254848;1;1;0;611;3944;-569;8;0.4515235;-0.8673313;-0.2091413;-0.01108033;0;-2;0;-1451;3221;2051;0.04708105;2.529807;1.115038;0.05305117;3.073837;1.155257;0.05830038;3.552187;1.188591;0.07839757;4.266662;1.354679;-0.1710203;4.600119;1.391352;-0.5164328;4.458899;1.421119;-0.8262094;5.044799;0.7737491;-0.08524233;5.241158;1.330712;0.3491181;4.585491;1.391352;0.6336818;4.426553;1.421119;0.859468;3.664457;1.965642;0.06882179;3.253112;1.643987;-0.265166;2.488416;1.10405;-0.01215358;1.32101;0.2590606;0;0;0;-0.265166;2.488416;1.10405;-0.01215358;1.32101;0.2590606;0;0;0
270703.7213;NotLabelled;NONE;16384;0.7532067;0.5166205;0.3518005;0.2049861;-3;1;-1;2712;-2568;1443;65536;0.7322156;0.3199446;-0.5526316;-0.2368421;-1;2;2;2863;-880;-2745;8192;0.6288089;-0.6621237;-0.4044321;0.05124654;0;-1;-1;2434;3137;429;32768;0.3961219;-0.7945359;0.2520775;-0.3850415;-1;0;-1;3008;1774;2225;256;0.2423823;-0.3240997;-0.5734072;-0.7123303;2;-1;-1;171;4006;-793;128;-0.01800554;0.1883656;0.5831025;0.7900542;1;1;0;-809;3831;1342;4;-0.5609418;0.1578947;-0.4653739;-0.6662136;-1;1;0;2369;3234;304;16;0.7461994;-0.6315789;0.1814404;0.1066482;0;5;1;551;4064;-842;2;0.5387812;-0.6863562;-0.3642659;-0.3254848;0;0;1;551;4034;-543;8;0.4515235;-0.8673313;-0.2091413;-0.01108033;0;-1;0;-1363;3289;2093;0.04708105;2.529807;1.115038;0.05305117;3.073837;1.155257;0.05830038;3.552187;1.188591;0.07839757;4.266662;1.354679;-0.1710203;4.600119;1.391352;-0.5164328;4.458899;1.421119;-0.8261713;5.044799;0.7737306;-0.083363;5.240691;1.328402;0.3491181;4.585492;1.391352;0.6336818;4.426553;1.421119;0.8594357;3.664457;1.965655;0.06836766;3.251945;1.646541;-0.265166;2.488416;1.10405;-0.01215358;1.32101;0.2590606;0;0;0;-0.265166;2.488416;1.10405;-0.01215358;1.32101;0.2590606;0;0;0
270724.5155;NotLabelled;NONE;16384;0.7532067;0.5166205;0.3518005;0.2049861;-2;0;0;2608;-2600;1487;65536;0.7332588;0.3199446;-0.5512465;-0.2368421;-1;1;2;2833;-796;-2757;8192;0.6288089;-0.6621237;-0.4044321;0.05124654;-1;-1;-1;2478;3137;423;32768;0.3961219;-0.7945359;0.2520775;-0.3850415;-1;-2;0;2980;1778;2187;256;0.2423823;-0.3240997;-0.5734072;-0.7123303;2;-2;-1;147;3920;-793;128;-0.01800554;0.1883656;0.5831025;0.7900542;0;1;0;-723;3897;1402;4;-0.5595568;0.1578947;-0.4653739;-0.6673774;0;-1;0;2361;3264;224;16;0.7461994;-0.6315789;0.1814404;0.1066482;0;0;0;147;3930;-656;2;0.5387812;-0.6863562;-0.3642659;-0.3254848;0;-1;1;667;4082;-613;8;0.4515235;-0.8676642;-0.2077562;-0.01108033;0;0;0;-1427;3211;2109;0.0466643;2.528862;1.116338;0.05263436;3.072892;1.156557;0.05788368;3.551242;1.189892;0.07673836;4.26598;1.354988;-0.1732604;4.599051;1.391209;-0.5184246;4.457269;1.421185;-0.8304906;5.044317;0.7759577;-0.08871263;5.240209;1.332005;0.3469027;4.585333;1.391209;0.631745;4.426933;1.421185;0.8564885;3.664837;1.966139;0.06601375;3.252325;1.645558;-0.2655828;2.487471;1.10535;-0.01263414;1.32101;0.2590377;0;0;0;-0.2655828;2.487471;1.10535;-0.01263414;1.32101;0.2590377;0;0;0
270745.8805;NotLabelled;NONE;16384;0.7532067;0.5166205;0.3518005;0.2049861;-2;0;-1;2718;-2580;1515;65536;0.7332588;0.3199446;-0.5512465;-0.2368421;0;2;2;2839;-802;-2771;8192;0.6288089;-0.6628593;-0.4030471;0.05263158;-1;0;-1;2520;3189;429;32768;0.3961219;-0.7947653;0.2534626;-0.3836565;0;-3;0;2934;1794;2215;256;0.2423823;-0.3254848;-0.5720221;-0.7128121;3;-1;-2;189;4018;-775;128;-0.01800554;0.1883656;0.5831025;0.7900542;0;-2;0;-739;3885;1376;4;-0.5595568;0.1578947;-0.466759;-0.6664094;0;-3;0;2255;3314;194;16;0.7455577;-0.632964;0.1800554;0.1052632;0;4;0;159;4050;-708;2;0.5387812;-0.6863562;-0.3642659;-0.3254848;0;-1;0;625;3984;-697;8;0.4515235;-0.8676642;-0.2077562;-0.01108033;0;1;0;-1471;3263;2027;0.04503387;2.529807;1.114545;0.05100381;3.073837;1.154763;0.05625314;3.552188;1.188098;0.07510781;4.266925;1.353195;-0.1748909;4.599996;1.389415;-0.5200551;4.458214;1.419391;-0.8321212;5.045263;0.7741641;-0.08875895;5.242407;1.327647;0.3452721;4.586278;1.389415;0.6301144;4.427879;1.419391;0.8548579;3.665783;1.964346;0.06438321;3.253271;1.643765;-0.2672133;2.488416;1.103556;-0.01263401;1.32101;0.2590376;0;0;0;-0.2672133;2.488416;1.103556;-0.01263401;1.32101;0.2590376;0;0;0
270766.7234;NotLabelled;NONE;16384;0.7522548;0.5180055;0.3518005;0.2049861;-2;0;-2;2734;-2660;1547;65536;0.732653;0.3213296;-0.5512465;-0.2368421;0;2;1;2839;-836;-2755;8192;0.6288089;-0.6628593;-0.4030471;0.05263158;-2;0;-2;2598;3205;465;32768;0.3961219;-0.7947653;0.2534626;-0.3836565;-1;-3;-1;2908;1958;2265;256;0.2437673;-0.3254848;-0.5720221;-0.7123397;2;-2;-2;209;4036;-803;128;-0.01800554;0.1883656;0.5831025;0.7900542;0;-1;-1;-831;3863;1300;4;-0.5595568;0.1578947;-0.466759;-0.6664094;1;-2;0;2373;3338;248;16;0.7455577;-0.632964;0.1800554;0.1052632;0;-1;0;399;4036;-710;2;0.5387812;-0.6870113;-0.3642659;-0.3240997;1;-2;0;597;4050;-577;8;0.4515235;-0.8676642;-0.2077562;-0.01108033;-1;-1;0;-1391;3221;1957;0.04872632;2.531809;1.110277;0.05469626;3.075839;1.150495;0.05994558;3.55419;1.18383;0.07910955;4.268378;1.351258;-0.1707414;4.601442;1.388542;-0.5159724;4.459719;1.418026;-0.8264765;5.046768;0.7720462;-0.08445567;5.243913;1.327327;0.3494153;4.587488;1.388542;0.634183;4.428862;1.418027;0.8579296;3.666822;1.96347;0.06732649;3.254483;1.642982;-0.2635207;2.490418;1.099288;-0.01152225;1.32163;0.2559087;0;0;0;-0.2635207;2.490418;1.099288;-0.01152225;1.32163;0.2559087;0;0;0
270787.5368;NotLabelled;NONE;16384;0.7522548;0.5180055;0.3518005;0.2049861;-2;0;-3;2770;-2596;1527;65536;0.7332445;0.3213296;-0.5498615;-0.2382271;0;1;2;2961;-872;-2769;8192;0.6301939;-0.6615426;-0.4030471;0.05263158;-3;0;-1;2456;3167;491;32768;0.3961219;-0.7954324;0.2534626;-0.3822715;-1;-2;-2;2862;1780;2317;256;0.2437673;-0.3254848;-0.5720221;-0.7123397;2;-1;-1;109;4046;-833;128;-0.01800554;0.1883656;0.5831025;0.7900542;-2;0;0;-727;3899;1326;4;-0.5595568;0.1578947;-0.466759;-0.6664094;-1;0;0;2459;3232;282;16;0.7461994;-0.6315789;0.1814404;0.1066482;0;-1;0;329;4036;-746;2;0.5387812;-0.6870113;-0.3642659;-0.3240997;1;0;0;565;4014;-539;8;0.4515235;-0.8676642;-0.2077562;-0.01108033;0;-1;0;-1511;3279;2133;0.04668742;2.531809;1.109785;0.0526576;3.075839;1.150003;0.05790681;3.55419;1.183338;0.07583058;4.268641;1.34977;-0.1745996;4.601322;1.3866;-0.5195819;4.459038;1.416294;-0.8307958;5.047107;0.7715857;-0.09106457;5.24581;1.32936;0.3455808;4.588275;1.386599;0.6306256;4.430188;1.416294;0.8533596;3.668149;1.962152;0.06335264;3.255811;1.640198;-0.2655596;2.490419;1.098796;-0.0119969;1.32163;0.2558864;0;0;0;-0.2655596;2.490419;1.098796;-0.0119969;1.32163;0.2558864;0;0;0
270807.8344;NotLabelled;NONE;16384;0.7516056;0.5180055;0.3531856;0.2049861;-2;0;-2;2840;-2572;1531;65536;0.7332445;0.3213296;-0.5498615;-0.2382271;-1;1;2;2857;-976;-2773;8192;0.6301939;-0.6615426;-0.4030471;0.05263158;-2;-1;-1;2548;3187;411;32768;0.3961219;-0.7954324;0.2534626;-0.3822715;-1;0;-1;2952;1826;2279;256;0.2437673;-0.3254848;-0.5720221;-0.7123397;1;-2;0;167;4024;-755;128;-0.01800554;0.1883656;0.5831025;0.7900542;0;0;0;-727;3927;1282;4;-0.5595568;0.1578947;-0.466759;-0.6664094;-2;0;0;2423;3276;288;16;0.7461994;-0.6315789;0.1814404;0.1066482;0;0;0;343;4058;-754;2;0.5387812;-0.6870113;-0.3642659;-0.3240997;0;0;0;629;3966;-637;8;0.4515235;-0.8676642;-0.2077562;-0.01108033;0;-2;0;-1495;3273;2065;0.04494315;2.531189;1.11288;0.05091321;3.075219;1.153098;0.05616248;3.55357;1.186433;0.07408637;4.268022;1.352865;-0.176344;4.600702;1.389695;-0.5213261;4.458418;1.419389;-0.8325401;5.046487;0.7746805;-0.09097224;5.244728;1.330175;0.3438364;4.587655;1.389694;0.6288813;4.429568;1.419389;0.8547434;3.667344;1.963702;0.06431639;3.253839;1.644285;-0.2673039;2.489799;1.101891;-0.01374121;1.32101;0.2589813;0;0;0;-0.2673039;2.489799;1.101891;-0.01374121;1.32101;0.2589813;0;0;0
270829.6138;NotLabelled;NONE;16384;0.7509531;0.5180055;0.3545706;0.2049861;-1;0;-2;2760;-2608;1493;65536;0.7332445;0.3213296;-0.5498615;-0.2382271;-1;0;1;2799;-982;-2717;8192;0.6301939;-0.6623845;-0.4016621;0.05263158;-3;0;-1;2526;3181;375;32768;0.3961219;-0.7954324;0.2534626;-0.3822715;0;0;-1;2980;1778;2321;256;0.2437673;-0.3254848;-0.5720221;-0.7123397;1;-2;0;107;4004;-719;128;-0.01800554;0.1883656;0.5831025;0.7900542;0;-1;0;-783;3859;1324;4;-0.5595568;0.1578947;-0.466759;-0.6664094;-3;0;0;2419;3266;222;16;0.7463961;-0.6315789;0.1814404;0.1052632;0;9;1;107;4000;-832;2;0.5387812;-0.6870113;-0.3642659;-0.3240997;0;0;1;601;4074;-643;8;0.4515235;-0.8676807;-0.2077562;-0.009695291;2;-3;0;-1425;3219;2095;0.04494315;2.531189;1.11288;0.05091321;3.075219;1.153098;0.05616248;3.55357;1.186433;0.07408637;4.268022;1.352865;-0.176344;4.600702;1.389695;-0.5213261;4.458418;1.419389;-0.8348927;5.045339;0.7747728;-0.09332484;5.243579;1.330268;0.3438364;4.587655;1.389694;0.6288813;4.429568;1.419389;0.8547434;3.667344;1.963702;0.06431639;3.253839;1.644285;-0.2673039;2.489799;1.101891;-0.01374121;1.32101;0.2589813;0;0;0;-0.2673039;2.489799;1.101891;-0.01374121;1.32101;0.2589813;0;0;0
270850.6864;NotLabelled;NONE;16384;0.7509531;0.5180055;0.3545706;0.2049861;-2;1;-1;2842;-2462;1569;65536;0.7342811;0.3213296;-0.5484765;-0.2382271;-1;1;1;2785;-960;-2761;8192;0.6301939;-0.6622729;-0.4016621;0.05401662;-2;0;0;2588;3127;339;32768;0.3961219;-0.7954324;0.2534626;-0.3822715;0;0;0;2900;1750;2283;256;0.2437673;-0.3254848;-0.5706371;-0.7134497;1;-4;0;151;3980;-813;128;-0.01939058;0.1897507;0.5831025;0.78969;0;-3;-1;-805;3761;1354;4;-0.5595568;0.1565097;-0.468144;-0.6657643;-1;-1;1;2355;3210;150;16;0.7455577;-0.632964;0.1800554;0.1052632;0;10;1;19;4088;-796;2;0.5387812;-0.6870113;-0.3642659;-0.3240997;1;-5;1;687;4066;-725;8;0.4529086;-0.8672893;-0.2063712;-0.009695291;3;-1;0;-1501;3241;2115;0.04658449;2.530848;1.114701;0.05255443;3.074878;1.154919;0.05780381;3.553228;1.188254;0.07572758;4.26768;1.354686;-0.1747028;4.60036;1.391515;-0.519685;4.458076;1.42121;-0.8356059;5.043843;0.7766949;-0.09403789;5.242085;1.33219;0.3454775;4.587314;1.391515;0.6305224;4.429227;1.42121;0.8553194;3.665847;1.964342;0.06489229;3.252342;1.644926;-0.2656627;2.489457;1.103712;-0.01209998;1.320668;0.2608022;0;0;0;-0.2656627;2.489457;1.103712;-0.01209998;1.320668;0.2608022;0;0;0
270870.5833;NotLabelled;NONE;16384;0.7502976;0.5180055;0.3559557;0.2049861;-1;1;-1;2756;-2468;1505;65536;0.7342811;0.3213296;-0.5484765;-0.2382271;-2;2;2;2787;-880;-2767;8192;0.6301939;-0.6622729;-0.4016621;0.05401662;-2;0;-1;2548;3171;419;32768;0.3961219;-0.7954324;0.2534626;-0.3822715;0;-1;0;2950;1780;2281;256;0.2451524;-0.3268698;-0.5706371;-0.7123411;3;-3;0;139;3982;-833;128;-0.01939058;0.1897507;0.5831025;0.78969;-1;-1;0;-765;3861;1468;4;-0.5581717;0.1565097;-0.468144;-0.6669259;0;-1;0;2337;3264;190;16;0.745752;-0.632964;0.1800554;0.1038781;0;5;0;241;4046;-716;2;0.5387812;-0.6870113;-0.3642659;-0.3240997;1;-4;2;699;4066;-655;8;0.4529086;-0.8672893;-0.2063712;-0.009695291;3;1;0;-1513;3247;2111;0.05204511;2.531361;1.111997;0.05801523;3.075397;1.152134;0.06326461;3.553752;1.185397;0.08014429;4.267686;1.354146;-0.1707687;4.599883;1.392034;-0.5155475;4.457006;1.421239;-0.8314469;5.042774;0.7767138;-0.08832246;5.24227;1.329673;0.3494301;4.587587;1.392034;0.6347005;4.429815;1.421239;0.8608693;3.667646;1.965499;0.07045245;3.254141;1.646057;-0.260202;2.489968;1.101015;-0.01200497;1.32163;0.2558863;0;0;0;-0.260202;2.489968;1.101015;-0.01200497;1.32163;0.2558863;0;0;0
270892.517;NotLabelled;NONE;16384;0.749717;0.5193906;0.3559557;0.2036011;-2;1;-3;2768;-2650;1611;65536;0.7342811;0.3213296;-0.5484765;-0.2382271;-2;2;1;2883;-832;-2849;8192;0.6315789;-0.6609523;-0.4016621;0.05401662;-1;0;-1;2434;3091;441;32768;0.3961219;-0.7949897;0.2548476;-0.3822715;-2;-2;0;2914;1692;2355;256;0.2451524;-0.3268698;-0.5706371;-0.7123411;3;-1;0;161;4030;-777;128;-0.01800554;0.1897507;0.5831025;0.7897227;-1;0;-1;-805;3875;1348;4;-0.5581717;0.1565097;-0.468144;-0.6669259;-3;0;0;2481;3342;374;16;0.7467957;-0.632964;0.1772853;0.101108;-1;17;1;209;4074;-822;2;0.5387812;-0.687663;-0.3642659;-0.3227147;0;1;2;817;4096;-501;8;0.4529086;-0.8666089;-0.2091413;-0.01108033;0;4;1;-1503;3365;2079;0.04738975;2.531977;1.110901;0.05335975;3.076013;1.151038;0.05860907;3.554369;1.184301;0.07560015;4.268534;1.352057;-0.1752625;4.600821;1.389491;-0.5200614;4.458035;1.418906;-0.8355791;5.042647;0.7731454;-0.09480906;5.242145;1.329255;0.3449344;4.588448;1.389491;0.6301825;4.430675;1.418906;0.8540398;3.668505;1.964121;0.06498647;3.255;1.641326;-0.2648574;2.490584;1.099919;-0.01145598;1.321289;0.2576629;0;0;0;-0.2648574;2.490584;1.099919;-0.01145598;1.321289;0.2576629;0;0;0
270913.7995;NotLabelled;NONE;16384;0.7490578;0.5193906;0.3573407;0.2036011;-3;1;-4;2720;-2658;1565;65536;0.7348635;0.3213296;-0.5470914;-0.2396122;-3;2;2;3011;-858;-2745;8192;0.6315789;-0.6609523;-0.4016621;0.05401662;-2;-1;-2;2454;3135;363;32768;0.3961219;-0.7949897;0.2548476;-0.3822715;-3;-1;0;2826;1656;2379;256;0.2451524;-0.3268698;-0.5706371;-0.7123411;2;-2;1;161;4092;-779;128;-0.01800554;0.1897507;0.5817174;0.7907435;0;0;-1;-839;3903;1356;4;-0.5595568;0.1565097;-0.4695291;-0.6647882;-5;2;0;2483;3278;452;16;0.7461339;-0.634349;0.1759003;0.09972299;-1;22;1;451;4088;-1038;2;0.5373961;-0.6887459;-0.3642659;-0.3227147;-2;5;1;729;4044;-577;8;0.4529086;-0.8666089;-0.2091413;-0.01108033;1;8;1;-1581;3281;2067;0.04517359;2.531656;1.112433;0.05114359;3.075681;1.152712;0.05639279;3.554028;1.1861;0.07338387;4.268193;1.353856;-0.1774788;4.60048;1.391291;-0.5222777;4.457694;1.420705;-0.838991;5.044588;0.7776053;-0.09822112;5.244085;1.333714;0.3427181;4.588107;1.39129;0.6279662;4.430334;1.420706;0.8549604;3.66799;1.964378;0.06542724;3.25582;1.641047;-0.2670736;2.490266;1.101439;-0.01367192;1.320971;0.2591832;0;0;0;-0.2670736;2.490266;1.101439;-0.01367192;1.320971;0.2591832;0;0;0
270933.7381;NotLabelled;NONE;16384;0.7490578;0.5193906;0.3573407;0.2036011;-3;0;-4;2718;-2522;1509;65536;0.7348635;0.3213296;-0.5470914;-0.2396122;-4;1;4;2983;-922;-2801;8192;0.6315789;-0.661792;-0.400277;0.05401662;0;-3;-1;2450;3191;343;32768;0.3947368;-0.7956783;0.2548476;-0.3822715;-5;0;0;2986;1726;2445;256;0.2437673;-0.3282548;-0.5706371;-0.7121794;1;-1;3;201;4130;-803;128;-0.01800554;0.1911357;0.5831025;0.7893887;5;0;-3;-849;3953;1226;4;-0.5595568;0.1551246;-0.4695291;-0.6651128;0;-2;2;2477;3144;128;16;0.7471462;-0.634349;0.1731302;0.09695291;-1;33;-1;-671;4002;-806;2;0.5373961;-0.6880116;-0.365651;-0.3227147;-2;3;0;623;4046;-687;8;0.4529086;-0.8662546;-0.2105263;-0.01246537;0;6;0;-1473;3295;1845;0.05323756;2.53264;1.110792;0.05920601;3.076523;1.152943;0.06445396;3.554753;1.187977;0.08144522;4.268917;1.355733;-0.1694176;4.601204;1.393167;-0.5142164;4.458419;1.422582;-0.833285;5.044156;0.7795914;-0.09069061;5.243196;1.333426;0.3507794;4.588832;1.393167;0.6360275;4.431059;1.422582;0.8630201;3.668714;1.966255;0.07348728;3.256544;1.642923;-0.2590091;2.491288;1.099644;-0.0118691;1.321593;0.2560841;0;0;0;-0.2590091;2.491288;1.099644;-0.0118691;1.321593;0.2560841;0;0;0
270954.5357;NotLabelled;NONE;16384;0.7483955;0.5193906;0.3587258;0.2036011;-3;2;-5;2872;-2576;1581;65536;0.7358926;0.3213296;-0.5457063;-0.2396122;-4;0;4;2997;-922;-2783;8192;0.6315789;-0.6616775;-0.400277;0.05540166;0;-5;-2;2486;3165;405;32768;0.3947368;-0.7952334;0.2562327;-0.3822715;-5;0;0;2912;1752;2401;256;0.2437673;-0.3296399;-0.5706371;-0.7115394;1;-2;3;201;4082;-753;128;-0.01800554;0.1911357;0.5844875;0.7883637;6;5;-1;-891;3877;1266;4;-0.5595568;0.1551246;-0.468144;-0.6660884;5;-2;3;2559;3020;34;16;0.7477595;-0.6357341;0.16759;0.09279778;-2;41;1;-73;4058;-696;2;0.5387812;-0.6869276;-0.365651;-0.3227147;-3;1;-2;551;4022;-663;8;0.4529086;-0.8659168;-0.2119114;-0.01246537;-3;9;0;-1121;3207;1859;0.05122149;2.530549;1.114708;0.05719131;3.07457;1.155049;0.06244057;3.552913;1.188491;0.08202028;4.266774;1.357256;-0.1676347;4.599917;1.395152;-0.5129514;4.458344;1.424353;-0.8316416;5.044081;0.7811742;-0.08934277;5.243121;1.335406;0.3525137;4.585654;1.395151;0.6371857;4.426805;1.424353;0.8627976;3.663301;1.966973;0.07200223;3.252704;1.64473;-0.2610257;2.48916;1.103709;-0.01418905;1.321287;0.2575406;0;0;0;-0.2610257;2.48916;1.103709;-0.01418905;1.321287;0.2575406;0;0;0
270975.5331;NotLabelled;NONE;16384;0.74773;0.5193906;0.3601108;0.2036011;-2;4;-5;2842;-2630;1563;65536;0.7358926;0.3213296;-0.5457063;-0.2396122;-4;0;4;2943;-1002;-2795;8192;0.6301939;-0.6638309;-0.398892;0.05540166;1;-5;-1;2638;3213;357;32768;0.3933518;-0.7965832;0.2562327;-0.3808864;-4;0;0;2852;1854;2361;256;0.2437673;-0.3296399;-0.5706371;-0.7115394;0;-3;3;309;3974;-795;128;-0.01800554;0.1911357;0.5858725;0.787335;4;6;0;-801;3843;1266;4;-0.5595568;0.1565097;-0.4653739;-0.6677036;6;6;0;2439;3340;264;16;0.7478634;-0.6371191;0.1648199;0.08725762;-1;16;2;651;3924;-614;2;0.5387812;-0.6862752;-0.365651;-0.3240997;-4;3;-5;629;3954;-575;8;0.4529086;-0.8658958;-0.2119114;-0.01385042;-4;1;-1;-1057;3225;1997;0.04094607;2.529742;1.111575;0.0469175;3.073898;1.150041;0.05216801;3.552354;1.181834;0.0730992;4.266175;1.350609;-0.1759245;4.599789;1.388509;-0.5215086;4.45887;1.417708;-0.8410119;5.043446;0.7738779;-0.09847194;5.243742;1.327333;0.3441959;4.584541;1.388508;0.6285665;4.425152;1.417708;0.8542609;3.662858;1.961992;0.06376499;3.253597;1.637323;-0.2713014;2.488316;1.100731;-0.01779848;1.321801;0.2546579;0;0;0;-0.2713014;2.488316;1.100731;-0.01779848;1.321801;0.2546579;0;0;0
270995.5382;NotLabelled;NONE;16384;0.7470614;0.5193906;0.3614958;0.2036011;-2;3;0;2760;-2548;1557;65536;0.7369176;0.3213296;-0.5443213;-0.2396122;-4;0;1;2773;-952;-2795;8192;0.6301939;-0.6646612;-0.3975069;0.05540166;0;-4;-1;2618;3145;353;32768;0.3933518;-0.7965832;0.2562327;-0.3808864;-3;2;0;2778;1840;2193;256;0.2437673;-0.3310249;-0.5706371;-0.7108961;0;-1;2;279;3854;-853;128;-0.0166205;0.1911357;0.5858725;0.7873654;1;6;0;-793;3819;1322;4;-0.5595568;0.1565097;-0.4653739;-0.6677036;1;12;0;2497;3430;406;16;0.747304;-0.6385041;0.1634349;0.08448754;-2;20;4;639;4032;-544;2;0.5387812;-0.6856194;-0.365651;-0.3254848;0;4;-2;739;3874;-719;8;0.4515235;-0.866279;-0.2132964;-0.01385042;-1;7;1;-1617;3117;2189;0.03510958;2.528663;1.110868;0.04108244;3.072949;1.147454;0.04633403;3.551512;1.177596;0.067276;4.265332;1.34637;-0.1817455;4.598947;1.384285;-0.5273277;4.458028;1.413506;-0.8492891;5.043659;0.7718629;-0.1067145;5.243955;1.325272;0.3383751;4.583698;1.384252;0.6227475;4.42431;1.413434;0.8443349;3.659164;1.9554;0.05196148;3.250313;1.634819;-0.2771383;2.4872;1.100178;-0.01367857;1.321618;0.2558645;0;0;0;-0.2771383;2.4872;1.100178;-0.01367857;1.321618;0.2558645;0;0;0
271015.632;NotLabelled;NONE;16384;0.7474375;0.5193906;0.3614958;0.2022161;-1;3;0;2688;-2556;1427;65536;0.73752;0.3199446;-0.5443213;-0.2396122;-3;1;0;2659;-916;-2693;8192;0.6301939;-0.6645443;-0.3975069;0.0567867;0;-4;0;2570;3075;287;32768;0.3919668;-0.7972656;0.2562327;-0.3808864;0;2;1;2890;1724;2147;256;0.2437673;-0.3310249;-0.5706371;-0.7108961;1;-2;2;303;3798;-863;128;-0.01523546;0.1897507;0.5858725;0.7877284;-1;6;-1;-793;3679;1392;4;-0.5609418;0.1578947;-0.4653739;-0.6662136;0;14;1;2411;3366;468;16;0.7464269;-0.6398892;0.1634349;0.08171745;-2;7;3;1143;3920;-376;2;0.5387812;-0.6848789;-0.367036;-0.3254848;1;5;0;743;3914;-517;8;0.4515235;-0.8662558;-0.2132964;-0.01523546;-1;5;1;-1339;3197;1951;0.03597546;2.528944;1.108903;0.0419482;3.07322;1.145628;0.04719979;3.551775;1.175892;0.06948292;4.265553;1.344676;-0.1789083;4.599637;1.382579;-0.5247591;4.459373;1.411775;-0.8459337;5.041456;0.7665186;-0.1031599;5.243007;1.319205;0.3411823;4.583404;1.382581;0.6252502;4.423476;1.41178;0.8431244;3.659195;1.956464;0.05154276;3.250342;1.633933;-0.2762724;2.487483;1.098203;-0.01073359;1.321901;0.2545404;0;0;0;-0.2762724;2.487483;1.098203;-0.01073359;1.321901;0.2545404;0;0;0
271055.5268;NotLabelled;NONE;16384;0.7478108;0.5193906;0.3614958;0.200831;0;-1;2;2464;-2514;1349;65536;0.73752;0.3199446;-0.5443213;-0.2396122;0;2;-3;2657;-742;-2761;8192;0.6288089;-0.6658551;-0.3975069;0.0567867;1;2;-1;2550;3009;193;32768;0.3933518;-0.7959194;0.2562327;-0.3822715;2;0;4;2934;1594;2127;256;0.2423823;-0.33241;-0.5692521;-0.7118332;5;2;0;311;3882;-837;128;-0.01246537;0.1883656;0.5844875;0.7891371;-6;3;0;-859;3769;1224;4;-0.5650969;0.1592798;-0.4653739;-0.6623613;-4;4;4;2325;3366;548;16;0.7453519;-0.6398892;0.16759;0.08310249;-4;-19;-1;531;4120;-962;2;0.5373961;-0.6845637;-0.368421;-0.3268698;0;5;-1;397;3916;-623;8;0.4515235;-0.8662558;-0.2132964;-0.01523546;-1;-1;1;-1495;3285;1939;0.04311663;2.529878;1.107861;0.04908931;3.07415;1.144659;0.05434084;3.5527;1.174985;0.07662493;4.266478;1.34377;-0.1717661;4.600563;1.381674;-0.5176167;4.460299;1.410871;-0.8396257;5.043836;0.767346;-0.09559351;5.243816;1.318908;0.3483245;4.58433;1.381674;0.6323925;4.424401;1.410871;0.8529687;3.661186;1.955963;0.05996042;3.253919;1.634936;-0.2691311;2.488419;1.097154;-0.00446412;1.321957;0.2544334;0;0;0;-0.2691311;2.488419;1.097154;-0.00446412;1.321957;0.2544334;0;0;0
271075.5086;NotLabelled;NONE;16384;0.7475158;0.5207756;0.3601108;0.200831;0;-4;1;2506;-2612;1383;65536;0.7360438;0.3199446;-0.5457063;-0.2409972;1;2;-4;2863;-694;-2751;8192;0.6288089;-0.6659717;-0.3975069;0.05540166;1;3;-5;2388;3131;283;32768;0.3933518;-0.7948051;0.2576177;-0.3836565;2;-2;4;2938;1788;2285;256;0.2423823;-0.3310249;-0.5692521;-0.7124783;5;2;-2;263;3998;-761;128;-0.01108033;0.1883656;0.5831025;0.7901817;-3;0;-1;-803;3865;1224;4;-0.5650969;0.1578947;-0.4653739;-0.6626928;-3;-5;6;2351;3274;416;16;0.7451962;-0.6398892;0.16759;0.08448754;-6;-2;-1;-43;4180;-888;2;0.5373961;-0.6839007;-0.368421;-0.3282548;1;1;0;303;4032;-693;8;0.4515235;-0.8662558;-0.2132964;-0.01523546;-1;0;0;-1427;3315;2053;0.05297846;2.528488;1.11224;0.05894959;3.072616;1.151112;0.06419981;3.551048;1.183264;0.08801061;4.263982;1.355366;-0.1596587;4.598428;1.394787;-0.5058182;4.458783;1.423282;-0.8267856;5.043604;0.7804047;-0.08308071;5.243585;1.332408;0.3603953;4.581062;1.394787;0.6441101;4.420383;1.423282;0.8612826;3.657368;1.970018;0.07032657;3.249683;1.644488;-0.2592689;2.48707;1.101362;0.001787767;1.321644;0.2560862;0;0;0;-0.2592689;2.48707;1.101362;0.001787767;1.321644;0.2560862;0;0;0
271116.5196;NotLabelled;NONE;16384;0.7478083;0.5207756;0.3587258;0.2022161;1;-6;0;2738;-2704;1493;65536;0.7350148;0.3199446;-0.5470914;-0.2409972;3;0;-4;3001;-792;-2717;8192;0.6288089;-0.6659717;-0.3975069;0.05540166;1;4;-4;2500;3277;439;32768;0.3933518;-0.7948051;0.2576177;-0.3836565;2;0;4;3102;1896;2333;256;0.2423823;-0.3310249;-0.5692521;-0.7124783;4;1;-1;257;4072;-779;128;-0.01108033;0.1883656;0.5831025;0.7901817;-2;0;-2;-819;3913;1378;4;-0.5637119;0.1565097;-0.4639889;-0.6651676;0;-9;3;2127;3082;54;16;0.7436848;-0.6412742;0.16759;0.08725762;-4;-14;-3;399;4062;-630;2;0.5373961;-0.6846449;-0.367036;-0.3282548;0;-4;0;337;4040;-663;8;0.4515235;-0.8662558;-0.2132964;-0.01523546;-1;0;-1;-1273;3321;2053;0.05471092;2.526965;1.113934;0.06068045;3.070946;1.154809;0.06592923;3.549256;1.188721;0.08839226;4.262237;1.360813;-0.159909;4.596214;1.400229;-0.5058038;4.455915;1.428727;-0.8278071;5.042889;0.7883332;-0.08409017;5.239914;1.341382;0.3601769;4.579832;1.400229;0.644195;4.41969;1.428726;0.8612342;3.65547;1.97383;0.06946868;3.250295;1.647137;-0.2575359;2.485587;1.102892;0.000772059;1.322001;0.2542443;0;0;0;-0.2575359;2.485587;1.102892;0.000772059;1.322001;0.2542443;0;0;0
271136.5358;NotLabelled;NONE;16384;0.7474324;0.5207756;0.3587258;0.2036011;2;-4;-1;2816;-2614;1525;65536;0.7350148;0.3199446;-0.5470914;-0.2409972;3;0;-3;2999;-940;-2771;8192;0.6288089;-0.6660855;-0.3975069;0.05401662;0;4;-3;2508;3297;541;32768;0.3933518;-0.7941351;0.2576177;-0.3850415;2;0;2;3004;1872;2317;256;0.2423823;-0.3310249;-0.5692521;-0.7124783;3;-1;-1;199;4108;-795;128;-0.01108033;0.1883656;0.5831025;0.7901817;-3;-1;-2;-819;3953;1392;4;-0.5623268;0.1551246;-0.4653739;-0.6656966;1;-11;2;2457;3192;164;16;0.7432074;-0.6412742;0.1689751;0.08864266;-3;-12;-2;-29;4004;-648;2;0.5387812;-0.6849601;-0.365651;-0.3268698;1;-9;0;667;4044;-701;8;0.4501385;-0.8673391;-0.2119114;-0.01385042;0;0;-1;-1563;3199;2185;0.0489406;2.526134;1.107827;0.05491012;3.070115;1.148702;0.06015891;3.548425;1.182614;0.08262187;4.261406;1.354706;-0.1656795;4.595383;1.394122;-0.5115741;4.455084;1.422619;-0.8319381;5.041936;0.781292;-0.08979237;5.237704;1.336893;0.3544065;4.579;1.394121;0.6384245;4.418859;1.422619;0.8554639;3.654639;1.967723;0.06369823;3.249464;1.64103;-0.2633064;2.484756;1.096784;0.0005100593;1.32342;0.2467499;0;0;0;-0.2633064;2.484756;1.096784;0.0005100593;1.32342;0.2467499;0;0;0
271157.5175;NotLabelled;NONE;16384;0.7477173;0.5207756;0.3573407;0.2049861;2;-3;0;2848;-2544;1563;65536;0.7344104;0.3213296;-0.5470914;-0.2409972;3;0;-2;2865;-1014;-2799;8192;0.6301939;-0.6647753;-0.3975069;0.05401662;0;3;-3;2444;3349;535;32768;0.3947368;-0.7934476;0.2576177;-0.3850415;1;-2;2;3062;1828;2159;256;0.2423823;-0.33241;-0.5692521;-0.7118332;2;-3;-1;121;4034;-861;128;-0.01108033;0.1897507;0.5817174;0.7908708;-2;-2;-2;-789;3831;1430;4;-0.5609418;0.1551246;-0.4639889;-0.6678285;1;-4;2;2569;3302;192;16;0.7433546;-0.6412742;0.16759;0.0900277;-3;1;0;157;4098;-660;2;0.5387812;-0.6849601;-0.365651;-0.3268698;2;-6;0;803;4090;-695;8;0.4501385;-0.8669995;-0.2132964;-0.01385042;-2;3;0;-1523;3255;2045;0.05375576;2.526768;1.107591;0.0597254;3.070749;1.148466;0.06497419;3.549059;1.182378;0.08743709;4.26204;1.35447;-0.1608641;4.596017;1.393886;-0.5067589;4.455718;1.422384;-0.8278428;5.041287;0.7802439;-0.08569694;5.237055;1.335844;0.3592216;4.579635;1.393885;0.6432398;4.419493;1.422383;0.8588857;3.654073;1.966354;0.06756884;3.250072;1.637127;-0.2584911;2.48539;1.096548;0.001558229;1.323552;0.2460403;0;0;0;-0.2584911;2.48539;1.096548;0.001558229;1.323552;0.2460403;0;0;0
271177.5097;NotLabelled;NONE;16384;0.7477173;0.5207756;0.3573407;0.2049861;1;-2;0;2856;-2526;1609;65536;0.7348635;0.3213296;-0.5470914;-0.2396122;2;1;-2;2781;-994;-2795;8192;0.6301939;-0.6647753;-0.3975069;0.05401662;-1;2;-3;2480;3377;507;32768;0.3947368;-0.7936675;0.2590028;-0.3836565;2;-4;2;3094;1790;2185;256;0.2423823;-0.33241;-0.567867;-0.7129386;5;-1;-1;123;3948;-889;128;-0.01108033;0.1911357;0.5803324;0.7915546;-5;0;-1;-877;3837;1458;4;-0.5623268;0.1551246;-0.4639889;-0.6666627;1;1;3;2691;3386;240;16;0.7433546;-0.6412742;0.16759;0.0900277;-2;4;0;457;4048;-536;2;0.5387812;-0.6863562;-0.3642659;-0.3254848;1;-4;0;847;4080;-519;8;0.4501385;-0.8669995;-0.2132964;-0.01385042;-2;0;-1;-1351;3249;2017;0.04059154;2.526845;1.102787;0.04655939;3.070676;1.145602;0.05180693;3.548862;1.181219;0.07561761;4.261797;1.353323;-0.1720517;4.596242;1.392743;-0.5182113;4.456597;1.421238;-0.836164;5.042048;0.7774346;-0.09661192;5.239376;1.335934;0.3480023;4.578877;1.392743;0.6317172;4.418197;1.421238;0.8492318;3.652576;1.964182;0.06014282;3.247007;1.631556;-0.2716549;2.485507;1.091584;-0.003346749;1.3241;0.2430534;0;0;0;-0.2716549;2.485507;1.091584;-0.003346749;1.3241;0.2430534;0;0;0
271197.5824;NotLabelled;NONE;16384;0.7477173;0.5207756;0.3573407;0.2049861;0;-2;0;2814;-2646;1739;65536;0.7338303;0.3213296;-0.5484765;-0.2396122;0;1;-3;2807;-966;-2851;8192;0.6315789;-0.6635708;-0.3975069;0.05263158;-2;2;-4;2308;3343;517;32768;0.3947368;-0.7929965;0.2590028;-0.3850415;1;-5;1;3044;1682;2257;256;0.2423823;-0.33241;-0.566482;-0.7140396;5;0;-1;183;4150;-883;128;-0.01108033;0.1911357;0.5803324;0.7915546;-4;-1;-2;-927;3933;1328;4;-0.5623268;0.1537396;-0.4639889;-0.6669835;0;3;3;2605;3422;340;16;0.7423242;-0.6426592;0.16759;0.08864266;-2;0;0;505;4062;-536;2;0.5387812;-0.6863562;-0.3642659;-0.3254848;0;0;0;847;4078;-547;8;0.4501385;-0.8669995;-0.2132964;-0.01385042;-2;-1;-1;-1543;3215;2059;0.04213923;2.52585;1.104741;0.04810542;3.069526;1.149494;0.05335152;3.547581;1.186817;0.07610524;4.259991;1.361224;-0.1720556;4.593946;1.401698;-0.5180141;4.453705;1.429704;-0.8359354;5.039155;0.7858846;-0.09665465;5.238196;1.344136;0.3480233;4.577339;1.401698;0.631969;4.416981;1.429705;0.849457;3.651361;1.972659;0.05945706;3.245957;1.641999;-0.2701068;2.484552;1.093379;-0.003357135;1.3241;0.2430532;0;0;0;-0.2701068;2.484552;1.093379;-0.003357135;1.3241;0.2430532;0;0;0
271218.5156;NotLabelled;NONE;16384;0.7477173;0.5207756;0.3573407;0.2049861;-4;0;0;2856;-2610;1679;65536;0.7333766;0.3213296;-0.5484765;-0.2409972;-4;2;0;3135;-896;-2839;8192;0.632964;-0.6631877;-0.3961219;0.05124654;-3;-1;-6;2356;3255;449;32768;0.3947368;-0.7925428;0.2603878;-0.3850415;-2;-4;0;3002;1714;2305;256;0.2423823;-0.33241;-0.566482;-0.7140396;4;0;0;191;4132;-887;128;-0.01108033;0.1911357;0.5803324;0.7915546;0;-1;-2;-919;3945;1428;4;-0.5637119;0.1551246;-0.4639889;-0.6654919;0;1;1;2255;3182;234;16;0.7421575;-0.6426592;0.16759;0.0900277;-1;0;0;247;4068;-602;2;0.5387812;-0.6856194;-0.365651;-0.3254848;0;0;-1;781;4078;-557;8;0.4487534;-0.8677172;-0.2132964;-0.01385042;-2;0;0;-1653;3143;2233;0.04749638;2.524371;1.105504;0.05346251;3.068046;1.150257;0.05870855;3.546102;1.18758;0.08040845;4.257978;1.364286;-0.168242;4.591439;1.405811;-0.5139988;4.450605;1.43333;-0.8318471;5.036055;0.7894744;-0.09417796;5.233839;1.350298;0.3518605;4.575589;1.405811;0.6360366;4.415555;1.433329;0.8552194;3.64855;1.97364;0.06568992;3.244327;1.64042;-0.2647497;2.483073;1.094142;0.001278929;1.324464;0.2410809;0;0;0;-0.2647497;2.483073;1.094142;0.001278929;1.324464;0.2410809;0;0;0
271239.5176;NotLabelled;NONE;16384;0.7477173;0.5207756;0.3573407;0.2049861;-5;1;0;2806;-2550;1527;65536;0.7339544;0.3213296;-0.5470914;-0.2423823;-5;2;0;2971;-912;-2729;8192;0.632964;-0.6631877;-0.3961219;0.05124654;-2;-1;-4;2438;3251;313;32768;0.3947368;-0.7927582;0.2617728;-0.3836565;-2;-4;0;2954;1762;2399;256;0.2423823;-0.333795;-0.566482;-0.7133932;4;-1;0;201;4024;-873;128;-0.01108033;0.1925208;0.5789474;0.7922329;-2;0;-1;-813;3893;1424;4;-0.5637119;0.1551246;-0.4639889;-0.6654919;1;0;0;2241;3180;200;16;0.7421575;-0.6426592;0.16759;0.0900277;-1;2;0;251;4050;-628;2;0.5373961;-0.6867055;-0.365651;-0.3254848;0;1;0;741;3978;-763;8;0.4487534;-0.8677172;-0.2132964;-0.01385042;0;0;0;-1407;3201;2095;0.04670238;2.52559;1.102713;0.05266851;3.069265;1.147467;0.05791456;3.547321;1.184789;0.07961452;4.259197;1.361496;-0.169036;4.592658;1.403021;-0.5147928;4.451824;1.43054;-0.8326411;5.037274;0.786684;-0.09472585;5.233342;1.347787;0.3510665;4.576808;1.40302;0.6352425;4.416775;1.430539;0.8551366;3.647258;1.966978;0.06514025;3.244386;1.633229;-0.2655437;2.484292;1.091352;-0.0003570691;1.324801;0.2392279;0;0;0;-0.2655437;2.484292;1.091352;-0.0003570691;1.324801;0.2392279;0;0;0
271259.5272;NotLabelled;NONE;16384;0.7464654;0.5221606;0.3587258;0.2036011;-5;2;1;2782;-2576;1509;65536;0.7339544;0.3213296;-0.5470914;-0.2423823;-4;2;1;2841;-854;-2735;8192;0.632964;-0.664013;-0.3947368;0.05124654;-1;-1;-4;2500;3221;375;32768;0.3947368;-0.7927582;0.2617728;-0.3836565;-2;-4;0;2926;1750;2341;256;0.2423823;-0.333795;-0.566482;-0.7133932;4;-1;0;71;3948;-889;128;-0.01108033;0.1925208;0.5789474;0.7922329;-2;0;-1;-829;3797;1416;4;-0.5623268;0.1551246;-0.4639889;-0.6666627;2;-1;0;2303;3344;128;16;0.7421575;-0.6426592;0.16759;0.0900277;0;6;1;157;4018;-558;2;0.5373961;-0.6867055;-0.365651;-0.3254848;0;1;0;685;4030;-669;8;0.4487534;-0.8677172;-0.2132964;-0.01385042;1;0;0;-1443;3263;2099;0.04407501;2.525549;1.10223;0.05003935;3.069062;1.14892;0.05528396;3.546982;1.187945;0.07832432;4.258813;1.364662;-0.1696975;4.592741;1.406192;-0.515719;4.452559;1.433709;-0.832065;5.038008;0.7891136;-0.09366167;5.233624;1.349731;0.350374;4.575911;1.406192;0.6342483;4.415341;1.433708;0.8528906;3.645825;1.970658;0.0627712;3.243115;1.637007;-0.2681705;2.484292;1.090708;-0.0009328797;1.324801;0.2392262;0;0;0;-0.2681705;2.484292;1.090708;-0.0009328797;1.324801;0.2392262;0;0;0
271279.5388;NotLabelled;NONE;16384;0.7464654;0.5221606;0.3587258;0.2036011;-5;1;0;2742;-2604;1421;65536;0.7341008;0.3199446;-0.5470914;-0.2437673;-4;3;0;2797;-818;-2677;8192;0.634349;-0.66269;-0.3947368;0.05124654;-1;-1;-4;2468;3193;377;32768;0.3947368;-0.7922995;0.2631579;-0.3836565;-1;-3;0;2856;1788;2269;256;0.2423823;-0.333795;-0.5650969;-0.7144909;4;-1;0;243;4014;-869;128;-0.01108033;0.1939058;0.5789474;0.791895;0;-3;-1;-823;3871;1346;4;-0.5623268;0.1551246;-0.4639889;-0.6666627;1;0;-1;2343;3350;234;16;0.7409558;-0.6440443;0.16759;0.0900277;1;2;0;457;4052;-418;2;0.5373961;-0.6853073;-0.367036;-0.3268698;0;0;-1;595;4110;-641;8;0.4487534;-0.8677172;-0.2132964;-0.01385042;1;2;0;-1555;3355;2019;0.04248279;2.52651;1.100417;0.04844713;3.070023;1.147107;0.05369169;3.547943;1.186132;0.07673228;4.259774;1.362849;-0.1712898;4.593702;1.404379;-0.5173111;4.453519;1.431895;-0.8371815;5.040073;0.7900487;-0.09877801;5.235689;1.350666;0.3487819;4.576872;1.404378;0.632656;4.416303;1.431895;0.8501998;3.64565;1.967659;0.06008023;3.24294;1.634008;-0.2697628;2.485253;1.088896;-0.0009329692;1.324801;0.2392257;0;0;0;-0.2697628;2.485253;1.088896;-0.0009329692;1.324801;0.2392257;0;0;0
271300.4967;NotLabelled;NONE;16384;0.7464654;0.5221606;0.3587258;0.2036011;-5;1;0;2742;-2622;1421;65536;0.735131;0.3199446;-0.5457063;-0.2437673;-3;3;1;3021;-810;-2683;8192;0.634349;-0.663513;-0.3933518;0.05124654;-1;0;-1;2606;3265;383;32768;0.3947368;-0.7922995;0.2631579;-0.3836565;-1;-2;0;3042;1832;2279;256;0.2423823;-0.333795;-0.5650969;-0.7144909;3;-2;0;231;4020;-807;128;-0.01108033;0.1939058;0.5789474;0.791895;-1;-1;-1;-879;3879;1338;4;-0.5623268;0.1551246;-0.4639889;-0.6666627;0;0;-2;2255;3348;346;16;0.7409558;-0.6440443;0.16759;0.0900277;2;-7;0;531;4042;-576;2;0.5373961;-0.6853073;-0.367036;-0.3268698;0;0;-1;611;4038;-529;8;0.4487534;-0.8677172;-0.2132964;-0.01385042;1;0;0;-1543;3231;2031;0.04546344;2.527193;1.096584;0.05142772;3.0707;1.143342;0.05667233;3.548615;1.182427;0.07865757;4.259907;1.361436;-0.1698552;4.593337;1.404015;-0.5156745;4.452563;1.431044;-0.8355197;5.039116;0.7891841;-0.09564036;5.231458;1.348988;0.3502407;4.577266;1.404015;0.6343457;4.417023;1.431044;0.85502;3.646201;1.965284;0.06445038;3.244841;1.631072;-0.2667822;2.485937;1.085058;0.002082653;1.325485;0.2353992;0;0;0;-0.2667822;2.485937;1.085058;0.002082653;1.325485;0.2353992;0;0;0
271320.5153;NotLabelled;NONE;16384;0.7452039;0.5235457;0.3601108;0.2022161;-2;3;0;2832;-2696;1425;65536;0.7346703;0.3199446;-0.5457063;-0.2451524;-3;0;0;2981;-900;-2735;8192;0.634349;-0.663513;-0.3933518;0.05124654;-1;0;-1;2548;3265;401;32768;0.3947368;-0.7922995;0.2631579;-0.3836565;0;-1;0;2998;1748;2325;256;0.2423823;-0.33518;-0.5650969;-0.7138422;2;-3;0;257;4024;-783;128;-0.01108033;0.1939058;0.5789474;0.791895;-1;-1;-2;-805;3943;1362;4;-0.5609418;0.1565097;-0.4653739;-0.6665404;-1;-1;0;2373;3248;222;16;0.7421575;-0.6426592;0.16759;0.0900277;2;10;0;135;4018;-604;2;0.5373961;-0.6853073;-0.367036;-0.3268698;0;-1;0;671;4000;-697;8;0.4501385;-0.8670205;-0.2132964;-0.01246537;0;-1;0;-1545;3189;2117;0.04546368;2.527192;1.096586;0.05142796;3.070699;1.143344;0.05667245;3.548614;1.182428;0.07865769;4.259906;1.361439;-0.1698547;4.593337;1.404017;-0.5156742;4.452562;1.431046;-0.8355185;5.039116;0.7891871;-0.09405303;5.232722;1.34645;0.3502409;4.577265;1.404017;0.6343459;4.417022;1.431046;0.853959;3.645063;1.96408;0.06338966;3.243704;1.629869;-0.2667819;2.485937;1.085059;0.002082676;1.325485;0.2354001;0;0;0;-0.2667819;2.485937;1.085059;0.002082676;1.325485;0.2354001;0;0;0
271340.6239;NotLabelled;NONE;16384;0.7455783;0.5235457;0.3601108;0.200831;-1;3;0;2776;-2630;1447;65536;0.7346703;0.3199446;-0.5457063;-0.2451524;-3;0;0;2923;-920;-2761;8192;0.634349;-0.663513;-0.3933518;0.05124654;-1;-1;-2;2356;3203;353;32768;0.3947368;-0.7922995;0.2631579;-0.3836565;0;0;0;2944;1746;2301;256;0.2423823;-0.33518;-0.5650969;-0.7138422;1;-3;0;195;4000;-825;128;-0.01108033;0.1952908;0.5789474;0.7915546;1;-3;-2;-799;3849;1336;4;-0.5609418;0.1565097;-0.4653739;-0.6665404;0;-3;0;2369;3262;234;16;0.7423242;-0.6426592;0.16759;0.08864266;2;3;0;435;4024;-586;2;0.5373961;-0.6853073;-0.367036;-0.3268698;0;-2;0;569;3944;-751;8;0.4501385;-0.8670205;-0.2132964;-0.01246537;1;-2;0;-1417;3219;2049;0.04211587;2.530689;1.094751;0.04808021;3.074196;1.141509;0.05332464;3.552111;1.180593;0.07664758;4.263357;1.359614;-0.1712375;4.597253;1.402198;-0.5173212;4.45713;1.429225;-0.8391934;5.044777;0.7893829;-0.09883529;5.236672;1.348707;0.348827;4.580204;1.402198;0.6326302;4.419426;1.429224;0.8509569;3.647468;1.962787;0.06119591;3.246108;1.626669;-0.2701298;2.489433;1.083225;-0.001519851;1.324801;0.2392233;0;0;0;-0.2701298;2.489433;1.083225;-0.001519851;1.324801;0.2392233;0;0;0
271360.7993;NotLabelled;NONE;16384;0.7455783;0.5235457;0.3601108;0.200831;0;1;0;2746;-2528;1409;65536;0.7346703;0.3199446;-0.5457063;-0.2451524;-2;0;0;2839;-900;-2769;8192;0.634349;-0.6643322;-0.3919668;0.05124654;-2;-1;-3;2400;3195;399;32768;0.3947368;-0.791838;0.2645429;-0.3836565;0;-2;0;2950;1690;2195;256;0.2423823;-0.33518;-0.5650969;-0.7138422;2;-3;0;197;3938;-911;128;-0.01246537;0.1952908;0.5789474;0.791534;0;-3;-2;-839;3785;1384;4;-0.5609418;0.1551246;-0.4653739;-0.6668641;0;-5;-1;2313;3288;238;16;0.7423242;-0.6426592;0.16759;0.08864266;2;-7;-1;565;4050;-524;2;0.5373961;-0.6860473;-0.365651;-0.3268698;1;-4;0;625;3932;-677;8;0.4501385;-0.8670205;-0.2132964;-0.01246537;0;-4;0;-1311;3193;1973;0.04374325;2.530351;1.096618;0.04970753;3.073852;1.143444;0.05495197;3.551762;1.182588;0.07827497;4.263008;1.361609;-0.1696101;4.596905;1.404193;-0.5156937;4.456781;1.43122;-0.8368503;5.045716;0.7922024;-0.09649187;5.23761;1.351526;0.3504545;4.579854;1.404192;0.6342578;4.419077;1.431219;0.8525866;3.647119;1.964781;0.06282556;3.245759;1.628663;-0.2685024;2.489096;1.085086;0.000107035;1.324464;0.2410843;0;0;0;-0.2685024;2.489096;1.085086;0.000107035;1.324464;0.2410843;0;0;0
