SEP=;
index;label;segment;RightUpperArm_boneIndex;RightUpperArm_quat9x_w;RightUpperArm_quat9x_x;RightUpperArm_quat9x_y;RightUpperArm_quat9x_z;RightUpperArm_gyroscope_x;RightUpperArm_gyroscope_y;RightUpperArm_gyroscope_z;RightUpperArm_accelerometer_x;RightUpperArm_accelerometer_y;RightUpperArm_accelerometer_z;RightLowerArm_boneIndex;RightLowerArm_quat9x_w;RightLowerArm_quat9x_x;RightLowerArm_quat9x_y;RightLowerArm_quat9x_z;RightLowerArm_gyroscope_x;RightLowerArm_gyroscope_y;RightLowerArm_gyroscope_z;RightLowerArm_accelerometer_x;RightLowerArm_accelerometer_y;RightLowerArm_accelerometer_z;LeftUpperArm_boneIndex;LeftUpperArm_quat9x_w;LeftUpperArm_quat9x_x;LeftUpperArm_quat9x_y;LeftUpperArm_quat9x_z;LeftUpperArm_gyroscope_x;LeftUpperArm_gyroscope_y;LeftUpperArm_gyroscope_z;LeftUpperArm_accelerometer_x;LeftUpperArm_accelerometer_y;LeftUpperArm_accelerometer_z;LeftLowerArm_boneIndex;LeftLowerArm_quat9x_w;LeftLowerArm_quat9x_x;LeftLowerArm_quat9x_y;LeftLowerArm_quat9x_z;LeftLowerArm_gyroscope_x;LeftLowerArm_gyroscope_y;LeftLowerArm_gyroscope_z;LeftLowerArm_accelerometer_x;LeftLowerArm_accelerometer_y;LeftLowerArm_accelerometer_z;Chest_boneIndex;Chest_quat9x_w;Chest_quat9x_x;Chest_quat9x_y;Chest_quat9x_z;Chest_gyroscope_x;Chest_gyroscope_y;Chest_gyroscope_z;Chest_accelerometer_x;Chest_accelerometer_y;Chest_accelerometer_z;Spine_boneIndex;Spine_quat9x_w;Spine_quat9x_x;Spine_quat9x_y;Spine_quat9x_z;Spine_gyroscope_x;Spine_gyroscope_y;Spine_gyroscope_z;Spine_accelerometer_x;Spine_accelerometer_y;Spine_accelerometer_z;RightUpperLeg_boneIndex;RightUpperLeg_quat9x_w;RightUpperLeg_quat9x_x;RightUpperLeg_quat9x_y;RightUpperLeg_quat9x_z;RightUpperLeg_gyroscope_x;RightUpperLeg_gyroscope_y;RightUpperLeg_gyroscope_z;RightUpperLeg_accelerometer_x;RightUpperLeg_accelerometer_y;RightUpperLeg_accelerometer_z;RightLowerLeg_boneIndex;RightLowerLeg_quat9x_w;RightLowerLeg_quat9x_x;RightLowerLeg_quat9x_y;RightLowerLeg_quat9x_z;RightLowerLeg_gyroscope_x;RightLowerLeg_gyroscope_y;RightLowerLeg_gyroscope_z;RightLowerLeg_accelerometer_x;RightLowerLeg_accelerometer_y;RightLowerLeg_accelerometer_z;LeftUpperLeg_boneIndex;LeftUpperLeg_quat9x_w;LeftUpperLeg_quat9x_x;LeftUpperLeg_quat9x_y;LeftUpperLeg_quat9x_z;LeftUpperLeg_gyroscope_x;LeftUpperLeg_gyroscope_y;LeftUpperLeg_gyroscope_z;LeftUpperLeg_accelerometer_x;LeftUpperLeg_accelerometer_y;LeftUpperLeg_accelerometer_z;LeftLowerLeg_boneIndex;LeftLowerLeg_quat9x_w;LeftLowerLeg_quat9x_x;LeftLowerLeg_quat9x_y;LeftLowerLeg_quat9x_z;LeftLowerLeg_gyroscope_x;LeftLowerLeg_gyroscope_y;LeftLowerLeg_gyroscope_z;LeftLowerLeg_accelerometer_x;LeftLowerLeg_accelerometer_y;LeftLowerLeg_accelerometer_z;pelvis_x;pelvis_y;pelvis_z;lowerSpine_x;lowerSpine_y;lowerSpine_z;middleSpine_x;middleSpine_y;middleSpine_z;upperSpine_x;upperSpine_y;upperSpine_z;rightClavicle_x;rightClavicle_y;rightClavicle_z;rightShoulder_x;rightShoulder_y;rightShoulder_z;rightElbow_x;rightElbow_y;rightElbow_z;rightWrist_x;rightWrist_y;rightWrist_z;leftClavicle_x;leftClavicle_y;leftClavicle_z;leftShoulder_x;leftShoulder_y;leftShoulder_z;leftElbow_x;leftElbow_y;leftElbow_z;leftWrist_x;leftWrist_y;leftWrist_z;rightHip_x;rightHip_y;rightHip_z;rightKnee_x;rightKnee_y;rightKnee_z;rightAnkle_x;rightAnkle_y;rightAnkle_z;leftHip_x;leftHip_y;leftHip_z;leftKnee_x;leftKnee_y;leftKnee_z;leftAnkle_x;leftAnkle_y;leftAnkle_z;
63433.7928;NotLabelled;NONE;16384;0.7498168;0.4819945;0.2908587;0.3476454;18;-8;6;3254;-2298;1049;65536;-0.6440443;-0.2493075;0.7038669;0.166205;10;-3;-18;2493;-266;-3475;8192;0.6315789;-0.674983;-0.3808864;0.02077562;12;15;2;2012;3355;391;32768;0.4404432;-0.7517472;0.2590028;-0.4168975;13;11;11;3144;1717;1949;256;0.2493075;-0.3227147;-0.567867;-0.7150021;1;23;-1;123;4074;-947;128;-0.1121884;0.3171745;0.5540166;0.7614983;0;20;5;-787;3849;1350;4;-0.5595568;0.1717452;-0.4556787;-0.6706391;2;12;3;2419;3574;410;16;0.7446656;-0.6412742;0.1592798;0.09418282;-5;15;4;531;4074;-660;2;0.5373961;-0.6716166;-0.3891967;-0.3296399;-5;-1;-2;821;4182;-329;8;0.4418283;-0.8581157;-0.2562327;-0.05263158;4;-1;-5;-1717;3295;2301;-0.01399684;2.543435;1.057562;-0.008052111;3.085181;1.121572;-0.002824128;3.561612;1.175828;0.004736602;4.275261;1.346448;-0.2504897;4.604056;1.385191;-0.593376;4.456617;1.414;-0.8184994;4.937363;0.6547017;-0.272792;5.020285;1.424847;0.269825;4.598547;1.385191;0.5571287;4.444435;1.414;0.7397047;3.639126;1.910405;0.0126732;3.213808;1.47645;-0.3262383;2.502568;1.044621;-0.02465653;1.326553;0.2279842;0;0;0;-0.3262383;2.502568;1.044621;-0.02465653;1.326553;0.2279842;0;0;0
63453.7299;NotLabelled;NONE;16384;0.7511306;0.4806094;0.2880886;0.3490305;19;-8;6;3232;-2266;1107;65536;-0.6426592;-0.2493075;0.7051318;0.166205;11;-5;-18;2491;-348;-3363;8192;0.6301939;-0.6748238;-0.3836565;0.0166205;12;12;2;2164;3687;489;32768;0.4404432;-0.7503794;0.2562327;-0.4210526;11;12;10;3348;2017;2021;256;0.2465374;-0.3213296;-0.5692521;-0.7154849;-1;22;-1;95;4166;-965;128;-0.1108033;0.3144044;0.5554016;0.7618409;2;21;5;-685;3945;1452;4;-0.5623268;0.1717452;-0.4556787;-0.6683181;0;13;4;2323;3516;328;16;0.7438164;-0.6426592;0.1592798;0.09141274;-6;17;3;651;4024;-538;2;0.5373961;-0.6706834;-0.3919668;-0.3282548;-6;13;3;993;4116;-443;8;0.4418283;-0.8572837;-0.2590028;-0.05263158;2;15;2;-1401;3165;2135;-0.0100224;2.54249;1.061657;-0.004077911;3.084199;1.125986;0.001149714;3.560599;1.180523;0.008295596;4.274559;1.349853;-0.2471224;4.603274;1.388006;-0.5899218;4.455687;1.417089;-0.8138099;4.937677;0.658215;-0.2692372;5.020226;1.429203;0.2731954;4.59807;1.388006;0.5605898;4.444177;1.417089;0.7400631;3.638253;1.913626;0.01278925;3.215403;1.477669;-0.3222635;2.501631;1.04869;-0.02249922;1.326131;0.2306435;0;0;0;-0.3222635;2.501631;1.04869;-0.02249922;1.326131;0.2306435;0;0;0
63475.8224;NotLabelled;NONE;16384;0.7524269;0.4792244;0.2853186;0.3504155;20;-8;4;3284;-2128;1109;65536;-0.6398892;-0.2493075;0.7079703;0.1648199;14;-7;-17;2493;-266;-3369;8192;0.6288089;-0.6753892;-0.3850415;0.01385042;11;12;2;2316;3685;549;32768;0.4404432;-0.7500726;0.2548476;-0.4224377;10;11;8;3224;2115;2005;256;0.2423823;-0.3171745;-0.5706371;-0.7176521;-3;17;0;-59;4206;-947;128;-0.1080332;0.3088643;0.5581717;0.7624801;3;15;5;-557;3973;1598;4;-0.5637119;0.1731302;-0.4570637;-0.6658435;-3;3;-1;2129;3258;240;16;0.7417502;-0.6454294;0.1592798;0.08864266;-5;-11;-1;559;3986;-488;2;0.5373961;-0.6690568;-0.3947368;-0.3282548;-4;15;1;859;3896;-643;8;0.4432133;-0.8564822;-0.2590028;-0.05401662;2;9;3;-1225;3219;1741;0.005973995;2.540942;1.066898;0.01192021;3.082822;1.129767;0.01714933;3.559366;1.18302;0.02646774;4.273371;1.35206;-0.2279493;4.602877;1.390083;-0.5711956;4.456345;1.419228;-0.7984453;4.940668;0.6628435;-0.2518567;5.022164;1.432517;0.2923504;4.59609;1.390079;0.5792758;4.441337;1.419222;0.7600141;3.633109;1.911539;0.03327239;3.21123;1.473758;-0.3062676;2.500048;1.05405;-0.01479706;1.326251;0.2305798;0;0;0;-0.3062676;2.500048;1.05405;-0.01479706;1.326251;0.2305798;0;0;0
63495.7398;NotLabelled;NONE;16384;0.754582;0.4764543;0.2825485;0.3518005;21;-6;2;3232;-2108;1177;65536;-0.6371191;-0.2493075;0.7107841;0.1634349;14;-8;-15;2317;-310;-3443;8192;0.6274238;-0.675913;-0.3864266;0.01246537;10;10;3;2440;3725;617;32768;0.4418283;-0.7481597;0.2534626;-0.4252077;10;11;6;3190;2215;1947;256;0.2409972;-0.3157895;-0.5720221;-0.7176266;-3;16;-2;-65;4010;-1065;128;-0.1066482;0.3074792;0.5595568;0.7622197;4;17;7;-641;3933;1540;4;-0.5637119;0.1745152;-0.4570637;-0.6654819;1;1;-3;2289;3290;54;16;0.741115;-0.6454294;0.1606648;0.09141274;-6;-14;-1;249;4142;-380;2;0.536011;-0.6686682;-0.3961219;-0.3296399;-3;14;-2;617;3842;-565;8;0.4432133;-0.8563937;-0.2590028;-0.05540166;2;-3;1;-1003;3195;1829;0.03422046;2.544161;1.064786;0.04017037;3.086374;1.124711;0.04540265;3.563202;1.175375;0.05546296;4.277037;1.345081;-0.1986108;4.606772;1.383407;-0.5420104;4.460571;1.412409;-0.768392;4.943133;0.6546398;-0.2182331;5.024285;1.421801;0.3216814;4.599442;1.383406;0.6084447;4.444364;1.412409;0.7878807;3.636576;1.905926;0.05685657;3.214518;1.475511;-0.2780219;2.503198;1.052179;-0.002615809;1.32702;0.2265787;0;0;0;-0.2780219;2.503198;1.052179;-0.002615809;1.32702;0.2265787;0;0;0
63516.7049;NotLabelled;NONE;16384;0.7560602;0.4736842;0.2797784;0.3545706;18;-6;2;3136;-2164;1337;65536;-0.634349;-0.2493075;0.7138865;0.1606648;12;-4;-13;2225;-242;-3505;8192;0.6260388;-0.675632;-0.3891967;0.01108033;9;11;4;2418;3653;579;32768;0.4418283;-0.7483045;0.2506925;-0.4265928;10;10;4;3098;2145;1893;256;0.2396122;-0.3130194;-0.5734072;-0.7181985;-4;17;-3;-59;3970;-1037;128;-0.1052632;0.3047091;0.5609418;0.7625066;4;20;8;-633;3759;1396;4;-0.5637119;0.1745152;-0.4570637;-0.6654819;2;4;-4;2527;3386;6;16;0.7397341;-0.6468144;0.1606648;0.09279778;-4;-7;1;53;4146;-506;2;0.536011;-0.6671603;-0.3975069;-0.3310249;-2;7;-5;781;3952;-499;8;0.4432133;-0.8563937;-0.2590028;-0.05540166;1;0;2;-1687;3205;2089;0.03729522;2.54642;1.060538;0.04324687;3.088788;1.119043;0.04848063;3.565746;1.168458;0.05947155;4.279884;1.336827;-0.1941736;4.61002;1.374545;-0.537761;4.464318;1.403834;-0.7626115;4.947978;0.6463101;-0.2153685;5.028809;1.415588;0.3261088;4.602017;1.374539;0.6126722;4.446621;1.403821;0.7930063;3.637723;1.895186;0.0637815;3.215519;1.461871;-0.2749475;2.505424;1.048048;-0.002369754;1.327445;0.2240779;0;0;0;-0.2749475;2.505424;1.048048;-0.002369754;1.327445;0.2240779;0;0;0
63537.7508;NotLabelled;NONE;16384;0.7567868;0.4722992;0.2783934;0.3559557;16;-8;1;3136;-2150;1345;65536;-0.632964;-0.2506925;0.7149404;0.1592798;11;-4;-11;2321;-226;-3413;8192;0.6260388;-0.6748323;-0.3905817;0.01108033;8;12;5;2354;3503;493;32768;0.4432133;-0.7471564;0.2493075;-0.4279778;11;11;2;3050;2051;1887;256;0.2382271;-0.3116343;-0.5747922;-0.7181544;-6;19;-4;77;3980;-1035;128;-0.1038781;0.300554;0.5609418;0.7643434;2;22;9;-631;3815;1574;4;-0.5637119;0.1759003;-0.4570637;-0.6651171;2;11;-5;2481;3338;120;16;0.7397341;-0.6468144;0.1606648;0.09279778;-2;0;0;105;4030;-384;2;0.536011;-0.6671603;-0.3975069;-0.3310249;-3;8;-2;897;4100;-501;8;0.4432133;-0.8563937;-0.2590028;-0.05540166;1;4;5;-1853;3223;2415;0.04540658;2.547411;1.056462;0.05135995;3.089939;1.113473;0.05659521;3.567031;1.161574;0.06716877;4.281494;1.328591;-0.1866698;4.61155;1.365689;-0.530171;4.465702;1.39526;-0.7494884;4.945169;0.6334592;-0.2041467;5.027477;1.40393;0.3336171;4.603854;1.365688;0.6202723;4.448681;1.395259;0.7996493;3.642245;1.891;0.06936198;3.218346;1.461143;-0.2668365;2.506382;1.044094;0.0002921671;1.328403;0.2183405;0;0;0;-0.2668365;2.506382;1.044094;0.0002921671;1.328403;0.2183405;0;0;0
63557.7645;NotLabelled;NONE;16384;0.7575051;0.4709141;0.2770083;0.3573407;15;-8;0;3158;-2056;1207;65536;-0.6301939;-0.2506925;0.7176895;0.1578947;13;-3;-10;2187;-316;-3361;8192;0.6218836;-0.6762947;-0.3947368;0.008310249;8;16;7;2448;3381;245;32768;0.4432133;-0.7469395;0.2451524;-0.4307479;14;13;4;3104;1847;2017;256;0.2368421;-0.3088643;-0.5747922;-0.7198073;-4;18;-4;31;4008;-919;128;-0.1024931;0.2977839;0.5623268;0.7645969;4;23;10;-637;3793;1540;4;-0.5650969;0.1772853;-0.4570637;-0.6635723;0;15;-5;2373;3384;242;16;0.7397341;-0.6468144;0.1606648;0.09279778;0;4;1;459;4084;-348;2;0.536011;-0.6663331;-0.398892;-0.3310249;-1;12;1;1081;4054;-549;8;0.4432133;-0.8557898;-0.2603878;-0.05817174;-1;17;9;-1779;3135;2555;0.04912657;2.549203;1.054809;0.05507958;3.091706;1.11205;0.0603146;3.568778;1.160353;0.07181162;4.283543;1.326011;-0.1816015;4.613996;1.362487;-0.5252889;4.468645;1.392345;-0.744176;4.947003;0.6297237;-0.1991619;5.031874;1.400148;0.3386753;4.60563;1.362487;0.6251315;4.450147;1.392345;0.8077521;3.644696;1.888507;0.07857668;3.219333;1.45821;-0.2631164;2.508178;1.042422;0.001218714;1.328403;0.2183372;0;0;0;-0.2631164;2.508178;1.042422;0.001218714;1.328403;0.2183372;0;0;0
63578.7462;NotLabelled;NONE;16384;0.7582151;0.4695291;0.2756233;0.3587258;15;-8;-1;3096;-1906;1143;65536;-0.6288089;-0.2506925;0.7192061;0.1565097;13;-4;-8;2239;-436;-3227;8192;0.6204986;-0.6759443;-0.3975069;0.008310249;10;17;8;2320;3299;309;32768;0.4445983;-0.74622;0.2423823;-0.432133;15;15;3;2982;1845;2045;256;0.2354571;-0.3033241;-0.5775623;-0.7204;-5;15;-5;-25;3882;-927;128;-0.09972299;0.2908587;0.5650969;0.765586;4;20;10;-543;3759;1420;4;-0.567867;0.1814404;-0.4584487;-0.6591139;-4;20;-7;2295;3440;428;16;0.739127;-0.6468144;0.1634349;0.09279778;0;-14;0;631;4022;-462;2;0.533241;-0.6638295;-0.4044321;-0.333795;2;18;2;849;3638;-475;8;0.4432133;-0.8545471;-0.2631579;-0.06371191;0;8;9;-981;2981;1761;0.05699947;2.550174;1.055369;0.06295431;3.092834;1.111104;0.06819081;3.570039;1.158084;0.07827222;4.284601;1.324702;-0.1757945;4.614502;1.361619;-0.5191939;4.468433;1.391277;-0.7444415;4.947793;0.6311413;-0.2004991;5.0324;1.402352;0.3444976;4.607166;1.361614;0.6312609;4.452209;1.391267;0.8119503;3.647024;1.888564;0.08300793;3.219761;1.459756;-0.255244;2.509115;1.043106;0.002657503;1.328403;0.2183245;0;0;0;-0.255244;2.509115;1.043106;0.002657503;1.328403;0.2183245;0;0;0
63599.7118;NotLabelled;NONE;16384;0.7597694;0.466759;0.2742382;0.3601108;16;-7;-1;3174;-1942;1137;65536;-0.6274238;-0.2520775;0.7202309;0.1551246;13;-4;-8;2141;-462;-3287;8192;0.6191136;-0.6755951;-0.400277;0.006925208;9;15;8;2192;3281;415;32768;0.4445983;-0.745505;0.2396122;-0.434903;13;15;2;2918;1853;1995;256;0.234072;-0.301939;-0.5789474;-0.7203215;-6;17;-6;27;3850;-803;128;-0.09833795;0.2880886;0.566482;0.765789;4;20;11;-619;3749;1218;4;-0.5692521;0.1842105;-0.4584487;-0.6571479;-5;19;-5;2233;3460;258;16;0.7386441;-0.6468144;0.1648199;0.09418282;0;-12;0;359;4030;-612;2;0.5318559;-0.6640953;-0.4058172;-0.333795;3;16;0;709;3704;-501;8;0.4432133;-0.8549724;-0.2617728;-0.06371191;1;-7;7;-1045;2927;1737;0.08016214;2.554929;1.054476;0.08612019;3.097898;1.107114;0.0913595;3.575361;1.15137;0.09932411;4.290811;1.314257;-0.1557207;4.620143;1.34947;-0.4986829;4.473209;1.379912;-0.7239183;4.949337;0.6177436;-0.1747396;5.03472;1.385148;0.3645909;4.614354;1.349469;0.6518152;4.460407;1.379911;0.8341157;3.658878;1.882496;0.1038563;3.228634;1.458941;-0.2320821;2.5138;1.042466;0.01054106;1.328038;0.2202983;0;0;0;-0.2320821;2.5138;1.042466;0.01054106;1.328038;0.2202983;0;0;0
63621.7108;NotLabelled;NONE;16384;0.7604799;0.4639889;0.2714681;0.3642659;14;-7;-2;3192;-2012;1169;65536;-0.6246537;-0.2534626;0.7230302;0.1509695;13;-3;-7;2219;-418;-3269;8192;0.6177285;-0.6752287;-0.4030471;0.005540166;9;13;9;2274;3291;371;32768;0.4445983;-0.7455809;0.2368421;-0.4362881;13;16;1;2780;1909;2021;256;0.234072;-0.299169;-0.5803324;-0.7203628;-8;18;-5;31;3896;-807;128;-0.09833795;0.2839335;0.567867;0.7663149;6;21;12;-615;3761;1064;4;-0.5706371;0.1855956;-0.4584487;-0.655555;-4;20;-4;2047;3346;92;16;0.7384662;-0.6468144;0.1648199;0.09556787;1;-4;1;83;4134;-622;2;0.5304709;-0.6629562;-0.4072022;-0.3365651;3;16;-3;395;3548;-505;8;0.4432133;-0.8552909;-0.2603878;-0.06509695;-2;-17;5;-817;2939;1803;0.08589774;2.557794;1.050735;0.09185749;3.100909;1.101844;0.09709817;3.578496;1.144755;0.1059743;4.294251;1.306247;-0.1486517;4.623974;1.340823;-0.4917992;4.477536;1.371559;-0.7145817;4.951331;0.6072193;-0.1657248;5.03929;1.374563;0.3716522;4.617525;1.340824;0.6586818;4.463274;1.37156;0.8410318;3.662939;1.876027;0.1114994;3.232287;1.451634;-0.2263467;2.516633;1.038851;0.01242755;1.328158;0.219477;0;0;0;-0.2263467;2.516633;1.038851;0.01242755;1.328158;0.219477;0;0;0
63642.7086;NotLabelled;NONE;16384;0.7611519;0.4626039;0.2700831;0.365651;13;-7;-2;3070;-1946;1059;65536;-0.6232687;-0.2548476;0.7240258;0.1495845;14;-3;-7;2225;-444;-3203;8192;0.6163435;-0.6756661;-0.4044321;0.005540166;10;14;10;2330;3257;345;32768;0.4459834;-0.7448163;0.234072;-0.4376731;14;20;0;2742;1959;2031;256;0.232687;-0.2963989;-0.5831025;-0.7197194;-10;18;-6;7;3900;-673;128;-0.09695291;0.2811634;0.5706371;0.7654545;8;22;12;-461;3793;1040;4;-0.5720221;0.1869806;-0.4598338;-0.6529792;-4;17;-3;1877;3228;184;16;0.7384662;-0.6468144;0.1648199;0.09556787;2;2;2;-9;3998;-558;2;0.5290859;-0.6633583;-0.4072022;-0.3379501;6;10;-5;201;3478;-487;8;0.4432133;-0.8562335;-0.2576177;-0.06371191;-5;-5;4;-1863;2727;1931;0.09010899;2.559064;1.048849;0.09607071;3.102363;1.097971;0.1013131;3.580103;1.139134;0.1084781;4.296405;1.298266;-0.1469367;4.62563;1.331765;-0.489731;4.478471;1.362998;-0.7094849;4.948736;0.5956067;-0.1648009;5.041881;1.365308;0.3733812;4.620429;1.331765;0.6607805;4.466969;1.362997;0.8434486;3.667832;1.869247;0.1137593;3.235455;1.446883;-0.222136;2.517859;1.037128;0.01168714;1.328462;0.2176657;0;0;0;-0.222136;2.517859;1.037128;0.01168714;1.328462;0.2176657;0;0;0
63664.7922;NotLabelled;NONE;16384;0.7613258;0.4612188;0.2700831;0.367036;15;-7;-3;3010;-1818;993;65536;-0.6218836;-0.2548476;0.7255001;0.1481994;14;-5;-7;2205;-514;-3027;8192;0.6121883;-0.6752728;-0.4113573;0.004155125;9;14;13;2328;3053;365;32768;0.4459834;-0.7457481;0.2257618;-0.4404432;16;24;-2;2780;1935;1879;256;0.2313019;-0.2936288;-0.5844875;-0.7201777;-13;14;-5;-65;3836;-625;128;-0.09556787;0.2770083;0.5720221;0.7661095;9;18;10;-459;3643;1060;4;-0.5734072;0.1883656;-0.4598338;-0.6513643;-1;10;-1;1835;3102;236;16;0.739677;-0.6454294;0.1648199;0.09556787;2;-3;1;89;4006;-592;2;0.5290859;-0.6635;-0.4058172;-0.3393352;8;-5;-8;377;3682;-319;8;0.4432133;-0.8557113;-0.2590028;-0.06509695;-4;26;9;-2681;3217;1735;0.1026728;2.561398;1.048308;0.1086378;3.104989;1.094074;0.113883;3.582975;1.132286;0.1215739;4.300101;1.287638;-0.1336012;4.629682;1.319414;-0.4764999;4.482938;1.351441;-0.6976808;4.952068;0.5837656;-0.1515045;5.047799;1.352091;0.3867128;4.624105;1.319414;0.6740032;4.470604;1.35144;0.8580987;3.672772;1.859227;0.1291691;3.237408;1.438624;-0.209573;2.520121;1.036863;0.01311597;1.328462;0.2175844;0;0;0;-0.209573;2.520121;1.036863;0.01311597;1.328462;0.2175844;0;0;0
63685.7314;NotLabelled;NONE;16384;0.7613131;0.4598338;0.2686981;0.3698061;18;-6;-5;3094;-1776;1017;65536;-0.6218836;-0.2562327;0.7255728;0.1454294;17;-8;-6;2111;-628;-2931;8192;0.6108033;-0.6748337;-0.4141274;0.004155125;8;15;13;2312;3069;389;32768;0.4459834;-0.746175;0.2216066;-0.4418283;15;20;0;2736;1925;1949;256;0.2313019;-0.2908587;-0.5872576;-0.7190474;-14;11;-4;-33;3742;-587;128;-0.09556787;0.2742382;0.5734072;0.7660708;8;9;6;-555;3621;1142;4;-0.5734072;0.1883656;-0.4598338;-0.6513643;0;3;0;2077;3072;310;16;0.7391867;-0.6454294;0.166205;0.09695291;3;-6;0;103;3978;-620;2;0.5290859;-0.6619397;-0.4072022;-0.3407202;2;11;1;849;4082;-379;8;0.4432133;-0.854116;-0.2631579;-0.06925207;0;-1;3;-1589;3441;1735;0.1078925;2.561691;1.052594;0.113859;3.105415;1.096751;0.1191053;3.583512;1.133549;0.1263436;4.300951;1.28747;-0.1290405;4.630433;1.318594;-0.4718452;4.483534;1.35092;-0.6966366;4.950166;0.5827713;-0.1488547;5.046715;1.349851;0.3912772;4.625185;1.318594;0.6786655;4.471932;1.35092;0.8614664;3.678955;1.866715;0.1346804;3.237097;1.449185;-0.2043536;2.52038;1.041281;0.01184096;1.327813;0.2215856;0;0;0;-0.2043536;2.52038;1.041281;0.01184096;1.327813;0.2215856;0;0;0
63707.7134;NotLabelled;NONE;16384;0.7627934;0.4570637;0.267313;0.3711911;20;-5;-7;3216;-1756;1051;65536;-0.6204986;-0.2562327;0.7273064;0.1426593;16;-12;-8;2107;-778;-3039;8192;0.6094183;-0.6743801;-0.4168975;0.004155125;7;16;13;2160;3017;413;32768;0.4473684;-0.7445163;0.2188366;-0.4445983;13;15;0;2794;1887;1925;256;0.2313019;-0.2867036;-0.5914127;-0.7173085;-13;10;-3;67;3770;-669;128;-0.09833795;0.2742382;0.5747922;0.7646809;0;-11;1;-707;3755;1218;4;-0.5734072;0.1883656;-0.4584487;-0.6523399;-1;-1;5;2379;3496;46;16;0.7402111;-0.6440443;0.166205;0.09833795;3;-2;0;-97;4042;-726;2;0.5277008;-0.6630445;-0.4072022;-0.3407202;2;8;0;439;4234;-263;8;0.4432133;-0.8545415;-0.2617728;-0.06925207;2;-17;3;-1619;3497;1609;0.1137067;2.561855;1.052576;0.1196749;3.105732;1.094799;0.1249225;3.583957;1.129896;0.131378;4.30241;1.279052;-0.1243678;4.631809;1.308005;-0.4670081;4.48475;1.341329;-0.6924084;4.948981;0.5719047;-0.1427426;5.05095;1.336932;0.395955;4.627137;1.308005;0.6835147;4.474418;1.341328;0.8680272;3.68378;1.860098;0.1417623;3.238676;1.445117;-0.1985399;2.520504;1.041422;0.01382345;1.327937;0.2207259;0;0;0;-0.1985399;2.520504;1.041422;0.01382345;1.327937;0.2207259;0;0;0
63728.7109;NotLabelled;NONE;16384;0.7646772;0.4501385;0.265928;0.3767313;23;-3;-4;3534;-1958;1317;65536;-0.6177285;-0.2562327;0.730722;0.1371191;14;-12;-11;2265;-770;-3687;8192;0.6080332;-0.673912;-0.4196676;0.004155125;6;14;12;2044;3089;463;32768;0.4473684;-0.7440935;0.2174515;-0.4459834;9;12;2;2964;1763;1981;256;0.2313019;-0.2839335;-0.5927978;-0.717267;-12;13;-2;175;4020;-729;128;-0.09972299;0.2756233;0.5747922;0.7640033;0;-7;1;-649;3999;1190;4;-0.5734072;0.1883656;-0.4584487;-0.6523399;-4;3;5;2239;3582;30;16;0.741414;-0.6426592;0.166205;0.09833795;3;4;2;15;4098;-646;2;0.5277008;-0.6623309;-0.4072022;-0.3421052;2;2;0;229;4156;-251;8;0.4445983;-0.8546661;-0.2590028;-0.06925207;0;-23;0;-1149;3405;1693;0.1118698;2.560216;1.056889;0.11784;3.104288;1.096525;0.1230895;3.582675;1.129348;0.1283365;4.302592;1.271313;-0.1279651;4.631831;1.296991;-0.4703541;4.484532;1.331808;-0.7008039;4.950031;0.5646492;-0.1499861;5.054667;1.328487;0.3923649;4.62804;1.297;0.6801844;4.476148;1.331827;0.8711836;3.685396;1.848068;0.1462961;3.238569;1.432531;-0.2003775;2.518813;1.045949;0.01091106;1.327577;0.2230449;0;0;0;-0.2003775;2.518813;1.045949;0.01091106;1.327577;0.2230449;0;0;0
63749.71;NotLabelled;NONE;16384;0.7660983;0.4473684;0.2645429;0.3781163;24;-2;-2;3604;-1940;1377;65536;-0.6149584;-0.2562327;0.7335675;0.134349;14;-11;-11;2255;-770;-3825;8192;0.6066482;-0.6743033;-0.4210526;0.002770083;4;10;9;1940;3257;439;32768;0.4473684;-0.7436655;0.2160665;-0.4473684;6;12;1;3100;1731;2047;256;0.2299169;-0.2825485;-0.5941828;-0.7171133;-12;13;-1;29;4204;-687;128;-0.101108;0.2756233;0.5747922;0.7638212;4;-4;2;-719;4103;1318;4;-0.5747922;0.1869806;-0.4584487;-0.6515189;-5;0;5;2073;3386;166;16;0.7415963;-0.6426592;0.166205;0.09695291;3;7;3;299;4076;-658;2;0.5290859;-0.6620759;-0.4058172;-0.3421052;6;-9;-3;181;3992;-427;8;0.4445983;-0.8565449;-0.2534626;-0.06648199;-1;-37;-2;-1011;3413;1737;0.1092672;2.560184;1.059445;0.1152377;3.104281;1.098748;0.1204873;3.582687;1.131279;0.1233176;4.303171;1.270409;-0.1339064;4.631873;1.293612;-0.4760882;4.483869;1.32745;-0.6890277;4.932086;0.5450905;-0.146484;5.042596;1.314006;0.3864259;4.62937;1.296009;0.6744555;4.47833;1.332751;0.8607414;3.694965;1.861818;0.1371372;3.247646;1.444577;-0.2029801;2.518775;1.048532;0.008289225;1.327036;0.22635;0;0;0;-0.2029801;2.518775;1.048532;0.008289225;1.327036;0.22635;0;0;0
63770.791;NotLabelled;NONE;16384;0.7675018;0.4445983;0.2631579;0.3795014;23;-3;-1;3634;-1886;1429;65536;-0.6135734;-0.2562327;0.7352275;0.1315789;14;-11;-11;2115;-782;-3697;8192;0.6066482;-0.6734365;-0.4224377;0.002770083;2;6;4;2322;3577;461;32768;0.4459834;-0.7436255;0.2132964;-0.4501385;4;15;0;3232;1923;2153;256;0.2299169;-0.2811634;-0.5969529;-0.7153549;-12;11;0;-69;4288;-667;128;-0.101108;0.2756233;0.5747922;0.7638212;6;4;3;-733;4049;1314;4;-0.5747922;0.1869806;-0.4584487;-0.6515189;-5;-6;4;2003;3222;390;16;0.7415963;-0.6426592;0.166205;0.09695291;3;-2;2;471;4050;-544;2;0.5290859;-0.6637659;-0.4030471;-0.3421052;10;-22;-5;175;3944;-401;8;0.4445983;-0.8578697;-0.2493075;-0.06509695;-2;-32;-2;-1777;3359;2013;0.1092672;2.560184;1.059445;0.1152377;3.104281;1.098748;0.1204873;3.582687;1.131279;0.1233176;4.303171;1.270409;-0.1339064;4.631873;1.293612;-0.4760882;4.483869;1.32745;-0.6890277;4.932086;0.5450905;-0.146484;5.042596;1.314006;0.3864259;4.62937;1.296009;0.6744555;4.47833;1.332751;0.8607414;3.694965;1.861818;0.1371372;3.247646;1.444577;-0.2029801;2.518775;1.048532;0.008289225;1.327036;0.22635;0;0;0;-0.2029801;2.518775;1.048532;0.008289225;1.327036;0.22635;0;0;0
63791.7822;NotLabelled;NONE;16384;0.7684148;0.4418283;0.2631579;0.3808864;22;-2;-1;3580;-1742;1427;65536;-0.6121883;-0.2562327;0.7368708;0.1288089;15;-10;-11;2013;-850;-3659;8192;0.6066482;-0.6725657;-0.4238227;0.002770083;3;5;3;2462;3627;455;32768;0.4459834;-0.7435751;0.2105263;-0.4515235;4;14;0;3328;2155;2139;256;0.2285319;-0.2797784;-0.5983379;-0.7151846;-11;9;0;-129;4200;-767;128;-0.101108;0.2742382;0.5761772;0.763276;7;3;3;-725;3951;1452;4;-0.5734072;0.1855956;-0.4598338;-0.652159;-5;-12;2;2085;3172;470;16;0.7412846;-0.6426592;0.16759;0.09695291;4;-14;0;409;3982;-516;2;0.5304709;-0.665169;-0.398892;-0.3421052;10;-24;-4;601;4136;-375;8;0.4445983;-0.8587738;-0.2465374;-0.06371191;-1;-13;1;-2175;3473;1997;0.1253836;2.556579;1.069288;0.1313545;3.100704;1.108203;0.1366044;3.579134;1.140391;0.1414674;4.300719;1.273631;-0.1150137;4.630103;1.295348;-0.4573178;4.483048;1.331981;-0.6702685;4.929945;0.5488692;-0.1300468;5.044515;1.318825;0.4053185;4.6266;1.295348;0.6932254;4.4753;1.331981;0.8838262;3.690633;1.857571;0.1578025;3.244086;1.44372;-0.1868637;2.515162;1.058407;0.01263625;1.326593;0.2287313;0;0;0;-0.1868637;2.515162;1.058407;0.01263625;1.326593;0.2287313;0;0;0
63812.9083;NotLabelled;NONE;16384;0.7705749;0.4376731;0.2617728;0.3822715;21;-4;-1;3418;-1668;1485;65536;-0.6108033;-0.2562327;0.7384974;0.1260388;13;-7;-10;1943;-780;-3619;8192;0.6052631;-0.6729435;-0.4252077;0.001385042;5;4;4;2496;3497;619;32768;0.4459834;-0.7431235;0.2091413;-0.4529086;5;10;1;3164;2259;1981;256;0.2299169;-0.2770083;-0.601108;-0.7134941;-7;3;0;-205;4030;-781;128;-0.1024931;0.2728532;0.5775623;0.7625405;6;-4;3;-495;3947;1664;4;-0.5720221;0.1814404;-0.4612188;-0.653565;-6;-13;-1;2621;3286;452;16;0.741802;-0.6412742;0.1689751;0.09972299;6;-9;0;313;4022;-602;2;0.5304709;-0.6683511;-0.3947368;-0.3407202;4;-8;-1;901;4292;-561;8;0.4445983;-0.8592718;-0.2451524;-0.06232687;-1;-12;1;-1505;3365;1767;0.1361176;2.556859;1.070978;0.1420898;3.101114;1.108014;0.147341;3.579652;1.13855;0.1530567;4.301507;1.270293;-0.1030351;4.631238;1.291328;-0.4455124;4.484663;1.328267;-0.6616399;4.930399;0.5453643;-0.1223034;5.047755;1.315521;0.4172925;4.62712;1.291333;0.7050209;4.475556;1.32828;0.9011708;3.690097;1.850633;0.175337;3.241781;1.438363;-0.1761303;2.515404;1.060252;0.01637062;1.326415;0.2295251;0;0;0;-0.1761303;2.515404;1.060252;0.01637062;1.326415;0.2295251;0;0;0
63832.7333;NotLabelled;NONE;16384;0.7720125;0.433518;0.2603878;0.3850415;15;-5;-1;3480;-1684;1661;65536;-0.6080332;-0.2562327;0.7417011;0.1204986;10;-2;-6;2047;-718;-3681;8192;0.6052631;-0.6729435;-0.4252077;0.001385042;5;4;4;2546;3393;619;32768;0.4459834;-0.743512;0.2077562;-0.4529086;6;8;1;3056;2277;1773;256;0.2299169;-0.2770083;-0.601108;-0.7134941;-5;1;-1;-241;4054;-799;128;-0.1038781;0.2728532;0.5761772;0.7634005;3;-4;3;-513;3915;1616;4;-0.5706371;0.1800554;-0.4626039;-0.6541796;-6;-6;-4;2827;3330;414;16;0.7426807;-0.6398892;0.1703601;0.09972299;7;-9;0;301;4074;-566;2;0.5304709;-0.6683511;-0.3947368;-0.3407202;2;0;-3;705;4138;-593;8;0.4459834;-0.8590474;-0.2437673;-0.06094183;-2;-12;0;-1499;3381;1867;0.1407103;2.553488;1.078593;0.1466842;3.097893;1.113357;0.1519366;3.576554;1.141896;0.1555051;4.299458;1.267828;-0.1015687;4.628582;1.28623;-0.4436052;4.481288;1.324372;-0.6511378;4.920454;0.5354532;-0.1138226;5.040617;1.306589;0.4187691;4.626017;1.28623;0.7069503;4.475614;1.324372;0.8992025;3.692198;1.851223;0.1735655;3.243628;1.438882;-0.171538;2.511988;1.068054;0.01356155;1.326166;0.2311423;0;0;0;-0.171538;2.511988;1.068054;0.01356155;1.326166;0.2311423;0;0;0
63852.7399;NotLabelled;NONE;16384;0.7733359;0.4307479;0.2590028;0.3864266;10;-4;0;3472;-1734;1725;65536;-0.6080332;-0.2576177;0.7412211;0.1204986;6;0;-5;2009;-686;-3597;8192;0.6038781;-0.6733112;-0.4265928;0.001385042;4;6;5;2468;3387;623;32768;0.4473684;-0.7430654;0.2063712;-0.4529086;7;4;0;3070;2241;1703;256;0.2299169;-0.2756233;-0.601108;-0.7140302;-3;2;-2;-137;3944;-809;128;-0.1052632;0.2728532;0.5761772;0.7632107;1;-2;3;-581;3827;1588;4;-0.5706371;0.1800554;-0.4639889;-0.653198;-3;0;-5;2839;3286;322;16;0.7433661;-0.6385041;0.1717452;0.101108;7;-9;0;293;4056;-654;2;0.5304709;-0.6691672;-0.3933518;-0.3407202;2;1;-5;563;4078;-673;8;0.4459834;-0.8594392;-0.2423823;-0.06094183;-1;-9;0;-1563;3357;2061;0.1445564;2.553011;1.083864;0.1505294;3.097323;1.120064;0.155781;3.575907;1.149865;0.1593494;4.298812;1.275798;-0.0977242;4.627936;1.2942;-0.4397608;4.480642;1.332342;-0.6403692;4.914671;0.5388035;-0.1112197;5.040511;1.314666;0.4226134;4.625371;1.294199;0.7107947;4.474968;1.332342;0.9030244;3.691552;1.8592;0.1780078;3.241465;1.447422;-0.1676916;2.51154;1.073207;0.01382564;1.325285;0.236123;0;0;0;-0.1676916;2.51154;1.073207;0.01382564;1.325285;0.236123;0;0;0
63873.7059;NotLabelled;NONE;16384;0.7734127;0.4293629;0.2590028;0.3878116;6;-4;0;3456;-1712;1675;65536;-0.6066482;-0.2576177;0.7425786;0.1191136;4;1;-5;2037;-702;-3549;8192;0.6038781;-0.6715496;-0.4293629;0;1;10;1;2248;3387;605;32768;0.4501385;-0.7413906;0.2063712;-0.4529086;8;0;0;3152;1977;1759;256;0.2299169;-0.2756233;-0.601108;-0.7140302;-1;1;-3;-135;3946;-769;128;-0.1066482;0.2728532;0.5761772;0.7630184;0;-2;2;-655;3801;1536;4;-0.5706371;0.1800554;-0.4639889;-0.653198;-2;4;-6;2671;3158;224;16;0.7445536;-0.6371191;0.1717452;0.101108;8;-6;0;111;4044;-758;2;0.5304709;-0.6684602;-0.3933518;-0.3421052;1;-1;-5;547;4068;-687;8;0.4445983;-0.8606426;-0.2409972;-0.05955679;0;-6;0;-1653;3373;2303;0.1500748;2.553759;1.086632;0.1560479;3.098098;1.122435;0.1612997;3.576703;1.151888;0.1634861;4.299613;1.277819;-0.09421617;4.628244;1.296221;-0.4359705;4.480297;1.334363;-0.6328884;4.911742;0.5384945;-0.1021519;5.039288;1.312993;0.4261253;4.626674;1.29622;0.7145936;4.476824;1.334363;0.9062209;3.694784;1.863483;0.1825922;3.241936;1.452291;-0.1621734;2.51228;1.076007;0.01282309;1.324707;0.2394049;0;0;0;-0.1621734;2.51228;1.076007;0.01282309;1.324707;0.2394049;0;0;0
63893.709;NotLabelled;NONE;16384;0.7738752;0.4293629;0.2576177;0.3878116;2;-4;1;3486;-1796;1577;65536;-0.6066482;-0.2576177;0.7425786;0.1191136;1;2;-4;2099;-806;-3499;8192;0.6038781;-0.670662;-0.4307479;0;0;9;0;2088;3309;553;32768;0.4515235;-0.740548;0.2063712;-0.4529086;7;-2;0;3160;1787;1829;256;0.2299169;-0.2742382;-0.601108;-0.7145634;0;1;-3;-63;3938;-835;128;-0.1066482;0.2742382;0.5747922;0.7635663;1;-5;1;-683;3731;1462;4;-0.5706371;0.1800554;-0.4639889;-0.653198;0;6;-5;2465;3096;292;16;0.7440432;-0.6371191;0.1731302;0.1024931;6;-1;1;127;4044;-866;2;0.5304709;-0.6692733;-0.3919668;-0.3421052;1;0;-2;583;4058;-691;8;0.4459834;-0.8603126;-0.2396122;-0.05955679;2;-5;0;-1643;3363;2177;0.1475676;2.553032;1.090749;0.153541;3.097396;1.126153;0.1587931;3.576024;1.155254;0.1609786;4.298934;1.281185;-0.09672385;4.627565;1.299585;-0.4384784;4.479618;1.337725;-0.634003;4.90906;0.5404306;-0.1066169;5.037568;1.317056;0.4236178;4.625994;1.299588;0.7120857;4.476144;1.337732;0.9047437;3.69461;1.867225;0.1845373;3.23929;1.452769;-0.1646805;2.511545;1.080158;0.01032154;1.323972;0.2435565;0;0;0;-0.1646805;2.511545;1.080158;0.01032154;1.323972;0.2435565;0;0;0
63914.0723;NotLabelled;NONE;16384;0.7731795;0.4293629;0.2576177;0.3891967;0;-3;2;3428;-1840;1467;65536;-0.6052631;-0.2576177;0.7437081;0.1191136;0;3;-2;2065;-702;-3477;8192;0.6052631;-0.6694123;-0.4307479;0;-1;6;-2;2032;3287;585;32768;0.4529086;-0.7397017;0.2063712;-0.4529086;4;-4;1;3118;1703;1833;256;0.2313019;-0.2742382;-0.599723;-0.7152798;4;1;-2;13;3894;-801;128;-0.1080332;0.2756233;0.5747922;0.7628726;0;-5;0;-633;3763;1500;4;-0.5706371;0.1814404;-0.4639889;-0.6528146;1;-1;-3;2423;3126;302;16;0.7469151;-0.634349;0.1717452;0.101108;6;11;0;-155;3978;-968;2;0.5304709;-0.6685634;-0.3919668;-0.3434903;1;-2;2;549;4044;-577;8;0.4459834;-0.8603126;-0.2396122;-0.05955679;1;-2;1;-1357;3225;1831;0.1510094;2.553142;1.090429;0.1569814;3.097382;1.127705;0.1622325;3.575906;1.158452;0.1630379;4.29882;1.284383;-0.09529185;4.626958;1.302784;-0.4367629;4.478358;1.340927;-0.6318908;4.908578;0.5439547;-0.1027367;5.037086;1.319376;0.4250518;4.626381;1.302784;0.7138058;4.477082;1.340927;0.9088565;3.696962;1.871627;0.1894244;3.240416;1.457173;-0.1612384;2.511693;1.079683;0.01185708;1.324119;0.2426848;0;0;0;-0.1612384;2.511693;1.079683;0.01185708;1.324119;0.2426848;0;0;0
63935.8109;NotLabelled;NONE;16384;0.7731795;0.4293629;0.2576177;0.3891967;-1;-1;4;3358;-1912;1317;65536;-0.6052631;-0.2590028;0.7432268;0.1191136;-2;3;-2;2173;-636;-3423;8192;0.6052631;-0.6694109;-0.4307479;-0.001385042;-1;4;-4;1912;3213;487;32768;0.4529086;-0.7393138;0.2077562;-0.4529086;0;-6;1;3038;1623;1803;256;0.2299169;-0.2742382;-0.599723;-0.7157262;5;2;-2;1;3908;-739;128;-0.1080332;0.2756233;0.5734072;0.7639142;-1;-3;0;-667;3815;1324;4;-0.5706371;0.1814404;-0.4639889;-0.6528146;1;-2;-3;2421;3240;258;16;0.7472322;-0.634349;0.1703601;0.101108;6;9;0;119;3990;-830;2;0.5304709;-0.6685634;-0.3919668;-0.3434903;0;0;0;435;3994;-503;8;0.4473684;-0.8599781;-0.2382271;-0.05955679;1;-3;0;-1331;3307;1775;0.1421529;2.553275;1.096489;0.1481253;3.097538;1.133409;0.1533765;3.576082;1.163843;0.1519629;4.298731;1.291278;-0.1073731;4.626036;1.310361;-0.4483861;4.47631;1.348194;-0.6425967;4.905315;0.5503434;-0.117539;5.032892;1.328698;0.41297;4.627057;1.310361;0.702181;4.478565;1.348193;0.8992568;3.6981;1.877635;0.1823441;3.240337;1.46017;-0.1700951;2.511817;1.085773;0.005431235;1.322452;0.2518317;0;0;0;-0.1700951;2.511817;1.085773;0.005431235;1.322452;0.2518317;0;0;0
63957.1002;NotLabelled;NONE;16384;0.7736397;0.4293629;0.2562327;0.3891967;-1;-1;4;3364;-1952;1335;65536;-0.6052631;-0.2590028;0.7430035;0.1204986;-3;3;-3;2199;-564;-3445;8192;0.6080332;-0.6677768;-0.4293629;-0.004155125;-2;0;-8;1984;3269;467;32768;0.4529086;-0.7385298;0.2105263;-0.4529086;-3;-6;1;2974;1795;2041;256;0.2299169;-0.2728532;-0.5983379;-0.7174128;5;1;-1;39;3972;-787;128;-0.1080332;0.2756233;0.5734072;0.7639142;-3;-1;0;-693;3867;1252;4;-0.5706371;0.1814404;-0.4639889;-0.6528146;1;-1;0;2485;3296;252;16;0.7485916;-0.632964;0.1703601;0.09972299;3;1;0;215;4036;-930;2;0.5304709;-0.6685634;-0.3919668;-0.3434903;1;0;-2;443;3990;-499;8;0.4473684;-0.8599781;-0.2382271;-0.05955679;0;-2;0;-1329;3373;1747;0.1414084;2.553403;1.096147;0.1473794;3.09754;1.134888;0.1526294;3.57598;1.166923;0.1524993;4.298463;1.295295;-0.106255;4.626203;1.314804;-0.4475333;4.477034;1.352443;-0.6432297;4.906041;0.5549564;-0.1168657;5.035315;1.332147;0.4140889;4.6263;1.314803;0.7030359;4.477248;1.352442;0.8997679;3.695632;1.880313;0.1814234;3.23939;1.463645;-0.170839;2.511982;1.08528;0.003095396;1.322617;0.2510055;0;0;0;-0.170839;2.511982;1.08528;0.003095396;1.322617;0.2510055;0;0;0
63977.72;NotLabelled;NONE;16384;0.7735652;0.4307479;0.2562327;0.3878116;-1;0;4;3386;-1886;1345;65536;-0.6038781;-0.2590028;0.743904;0.1218837;-3;2;-3;2259;-644;-3459;8192;0.6094183;-0.6674032;-0.4279778;-0.004155125;-2;-1;-8;2038;3265;467;32768;0.4529086;-0.7381336;0.2119114;-0.4529086;-4;-4;1;2948;1849;2007;256;0.2299169;-0.2728532;-0.5983379;-0.7174128;4;1;0;17;3956;-735;128;-0.1080332;0.2770083;0.5734072;0.763413;-2;0;0;-659;3881;1262;4;-0.5706371;0.1814404;-0.4639889;-0.6528146;1;-1;1;2585;3330;250;16;0.7485916;-0.632964;0.1703601;0.09972299;0;5;1;183;4086;-1004;2;0.5304709;-0.6693736;-0.3905817;-0.3434903;0;2;-3;667;4060;-315;8;0.4473684;-0.8599781;-0.2382271;-0.05955679;-2;-1;-1;-1561;3199;1979;0.1432341;2.552298;1.102296;0.1492051;3.096434;1.141037;0.1544551;3.574874;1.173072;0.1520199;4.296917;1.30388;-0.1077791;4.623762;1.324494;-0.4485791;4.473378;1.36163;-0.6439246;4.903749;0.5647933;-0.1150578;5.031123;1.340598;0.4125619;4.62552;1.324494;0.7019836;4.477264;1.36163;0.9021243;3.691678;1.882276;0.1815626;3.238486;1.466107;-0.1690133;2.510877;1.091429;0.003021538;1.321511;0.2567609;0;0;0;-0.1690133;2.510877;1.091429;0.003021538;1.321511;0.2567609;0;0;0
63997.8111;NotLabelled;NONE;16384;0.7740226;0.4307479;0.2548476;0.3878116;0;0;4;3346;-1936;1251;65536;-0.6038781;-0.2590028;0.743904;0.1218837;-3;2;-3;2161;-532;-3405;8192;0.6094183;-0.6682894;-0.4265928;-0.004155125;-2;-4;-7;2220;3249;479;32768;0.4529086;-0.7377346;0.2132964;-0.4529086;-4;-3;1;2986;2005;1877;256;0.2299169;-0.2742382;-0.5969529;-0.7180382;3;0;0;-53;4012;-725;128;-0.1080332;0.2770083;0.5734072;0.763413;-1;-2;-1;-589;3813;1346;4;-0.5720221;0.1800554;-0.4626039;-0.6529689;0;2;6;2463;3222;364;16;0.7497579;-0.632964;0.16759;0.09556787;-4;16;2;283;4034;-938;2;0.5304709;-0.6678501;-0.3919668;-0.3448753;0;4;-3;557;3902;-441;8;0.4459834;-0.8606972;-0.2382271;-0.05955679;-3;4;0;-1601;3253;2181;0.143234;2.552297;1.1023;0.149205;3.096431;1.14109;0.1544549;3.574867;1.173168;0.1520196;4.296911;1.303976;-0.1077794;4.623755;1.32459;-0.4485794;4.473371;1.361726;-0.6452899;4.906326;0.5666264;-0.1182935;5.030862;1.344163;0.4125617;4.625514;1.324589;0.7019835;4.477257;1.361726;0.9039382;3.690332;1.879643;0.1827441;3.238669;1.462908;-0.1690134;2.510877;1.091429;0.003021494;1.321511;0.2567612;0;0;0;-0.1690134;2.510877;1.091429;0.003021494;1.321511;0.2567612;0;0;0
64018.7231;NotLabelled;NONE;16384;0.7740226;0.4307479;0.2548476;0.3878116;-1;0;4;3272;-1882;1217;65536;-0.6038781;-0.2590028;0.743904;0.1218837;-4;2;-3;2085;-596;-3287;8192;0.6108033;-0.6670136;-0.4265928;-0.005540166;-2;-4;-7;2330;3309;487;32768;0.4529086;-0.7377346;0.2132964;-0.4529086;-2;-4;1;2884;2051;1861;256;0.2285319;-0.2742382;-0.5969529;-0.7184802;3;2;0;-95;3804;-737;128;-0.1094183;0.2783934;0.5720221;0.7637509;-3;-4;-2;-467;3699;1566;4;-0.5720221;0.1800554;-0.4612188;-0.6539479;0;1;7;2421;3222;390;16;0.748762;-0.634349;0.16759;0.09418282;-5;16;1;283;3996;-868;2;0.5304709;-0.667133;-0.3919668;-0.3462604;0;3;0;477;3800;-625;8;0.4459834;-0.8603126;-0.2396122;-0.05955679;-3;-3;-2;-1111;3233;1771;0.1386686;2.547646;1.110446;0.1446395;3.09178;1.149235;0.1498896;3.570216;1.181314;0.1478961;4.291816;1.314551;-0.1117032;4.618748;1.336268;-0.4525945;4.468447;1.372902;-0.6453063;4.902764;0.5775647;-0.1200779;5.0273;1.356297;0.4086387;4.620189;1.336267;0.6979704;4.471632;1.372901;0.8975374;3.683686;1.890189;0.1766624;3.233553;1.471251;-0.1735787;2.506226;1.099575;0.002259284;1.320881;0.2599949;0;0;0;-0.1735787;2.506226;1.099575;0.002259284;1.320881;0.2599949;0;0;0
64058.875;NotLabelled;NONE;16384;0.774398;0.432133;0.2534626;0.3864266;-4;0;4;3310;-1936;1409;65536;-0.6038781;-0.2576177;0.7436925;0.1260388;-7;3;-1;2249;-424;-3471;8192;0.6121883;-0.6675096;-0.4238227;-0.005540166;-5;0;-7;2442;3305;537;32768;0.4556787;-0.7369176;0.2160665;-0.4501385;0;-8;0;3134;2085;1959;256;0.2285319;-0.2728532;-0.5955678;-0.7201551;5;2;-1;-7;3942;-879;128;-0.1108033;0.2797784;0.5706371;0.7640811;-3;-4;-1;-573;3865;1362;4;-0.5734072;0.1786704;-0.4598338;-0.6540902;0;0;6;2239;3428;424;16;0.7482391;-0.6357341;0.166205;0.09141274;-7;3;2;583;4016;-652;2;0.5304709;-0.6679448;-0.3905817;-0.3462604;0;-2;0;519;4022;-525;8;0.4445983;-0.8618899;-0.2368421;-0.05817174;0;-2;-1;-1679;3413;2149;0.1404604;2.546762;1.109312;0.1464302;3.090789;1.149558;0.1516792;3.569138;1.182916;0.1509753;4.290568;1.317085;-0.1080393;4.617935;1.339224;-0.4491987;4.468196;1.375665;-0.643418;4.902513;0.5806952;-0.1167126;5.02705;1.358429;0.4123044;4.618446;1.339224;0.7013701;4.469325;1.375665;0.9036341;3.679942;1.889706;0.1819657;3.22981;1.472137;-0.1717867;2.505371;1.098321;0.007066846;1.32135;0.257509;0;0;0;-0.1717867;2.505371;1.098321;0.007066846;1.32135;0.257509;0;0;0
64079.7211;NotLabelled;NONE;16384;0.7736235;0.433518;0.2534626;0.3864266;-4;0;4;3252;-2022;1345;65536;-0.6038781;-0.2576177;0.7434565;0.1274238;-6;3;0;2313;-348;-3479;8192;0.6135734;-0.6662367;-0.4238227;-0.005540166;-5;1;-6;2370;3329;451;32768;0.4556787;-0.7369176;0.2160665;-0.4501385;0;-7;0;3134;2031;1999;256;0.2271468;-0.2728532;-0.5941828;-0.7217356;5;2;-1;-7;4094;-811;128;-0.1108033;0.2797784;0.5692521;0.7651135;-5;-5;0;-571;3945;1466;4;-0.5734072;0.1786704;-0.4598338;-0.6540902;-2;-4;5;2231;3440;424;16;0.7472283;-0.6371191;0.166205;0.0900277;-7;3;1;521;4060;-634;2;0.5304709;-0.6679448;-0.3905817;-0.3462604;2;-5;0;661;4070;-607;8;0.4445983;-0.8615081;-0.2382271;-0.05817174;0;3;0;-1669;3393;2079;0.1444448;2.542985;1.113405;0.1504133;3.086904;1.155098;0.1556614;3.565163;1.18973;0.152669;4.286131;1.326324;-0.1073833;4.612597;1.349565;-0.448065;4.461656;1.385503;-0.6432385;4.899905;0.5929286;-0.1123642;5.01705;1.368974;0.4129562;4.61476;1.349564;0.7024944;4.466436;1.385503;0.9064982;3.674719;1.895248;0.1846871;3.222663;1.480011;-0.1678019;2.501624;1.102294;0.01099658;1.321656;0.2557921;0;0;0;-0.1678019;2.501624;1.102294;0.01099658;1.321656;0.2557921;0;0;0
64100.7096;NotLabelled;NONE;16384;0.7735367;0.434903;0.2534626;0.3850415;-5;0;2;3240;-2016;1283;65536;-0.6038781;-0.2576177;0.7432178;0.1288089;-5;4;1;2261;-404;-3457;8192;0.6149584;-0.6649455;-0.4238227;-0.006925208;-5;1;-5;2350;3439;433;32768;0.4570637;-0.7356514;0.2174515;-0.4501385;0;-6;0;3192;1951;2075;256;0.2271468;-0.2728532;-0.5941828;-0.7217356;5;0;-1;-1;4150;-835;128;-0.1121884;0.2811634;0.5692521;0.7644037;-2;-5;-1;-579;3981;1614;4;-0.5734072;0.1772853;-0.4598338;-0.654467;-3;-7;4;2309;3354;396;16;0.7463524;-0.6385041;0.1648199;0.0900277;-7;9;1;293;4082;-742;2;0.5304709;-0.6694682;-0.3891967;-0.3448753;2;-4;3;735;4250;-501;8;0.4445983;-0.8615081;-0.2382271;-0.05817174;-3;7;0;-1415;3355;1901;0.1508701;2.543385;1.111371;0.156837;3.087162;1.154875;0.1620838;3.565302;1.191098;0.1594694;4.285631;1.331037;-0.1004124;4.612121;1.355797;-0.4411721;4.461192;1.391041;-0.6397861;4.900808;0.6000801;-0.1066954;5.016057;1.374889;0.4199281;4.614013;1.355797;0.7093894;4.465373;1.391041;0.9173852;3.673365;1.898718;0.1947873;3.221308;1.484851;-0.1613762;2.502061;1.100112;0.0158163;1.322093;0.2532717;0;0;0;-0.1613762;2.502061;1.100112;0.0158163;1.322093;0.2532717;0;0;0
64121.6899;NotLabelled;NONE;16384;0.7735367;0.434903;0.2534626;0.3850415;-4;0;0;3248;-2030;1211;65536;-0.6038781;-0.2576177;0.7432178;0.1288089;-3;2;2;2295;-430;-3423;8192;0.6149584;-0.6658263;-0.4224377;-0.006925208;-3;1;-5;2302;3553;491;32768;0.4570637;-0.7352405;0.2188366;-0.4501385;0;-6;0;3190;1963;2097;256;0.2285319;-0.2728532;-0.5927978;-0.722437;5;-5;0;-53;4084;-841;128;-0.1121884;0.2825485;0.567867;0.764923;-3;-5;-2;-635;3971;1350;4;-0.5734072;0.1759003;-0.4612188;-0.6538658;-1;-1;0;2441;3292;260;16;0.744609;-0.6412742;0.1634349;0.08725762;-4;6;1;511;4076;-454;2;0.5304709;-0.6693736;-0.3905817;-0.3434903;0;-5;3;617;4124;-605;8;0.4432133;-0.8622215;-0.2382271;-0.05817174;-7;2;-2;-1493;3287;2071;0.1514508;2.54252;1.109082;0.1574181;3.086326;1.152215;0.1626651;3.564492;1.188112;0.1600493;4.28482;1.328051;-0.09983283;4.61131;1.352809;-0.4405928;4.460381;1.38805;-0.6405813;4.903102;0.5991692;-0.1067503;5.016458;1.373748;0.4205075;4.613203;1.352814;0.7099688;4.464563;1.388061;0.919701;3.670816;1.892295;0.1981844;3.219102;1.476173;-0.1607956;2.501189;1.097854;0.01552597;1.323038;0.2483064;0;0;0;-0.1607956;2.501189;1.097854;0.01552597;1.323038;0.2483064;0;0;0
64142.7324;NotLabelled;NONE;16384;0.7727564;0.4362881;0.2534626;0.3850415;-4;0;-1;3434;-2116;1169;65536;-0.6052631;-0.2576177;0.7418485;0.1301939;-3;2;1;2309;-564;-3613;8192;0.6163435;-0.6645284;-0.4224377;-0.008310249;-3;0;-6;2240;3453;671;32768;0.4570637;-0.7360867;0.2188366;-0.4487534;-1;-6;0;3106;1971;1951;256;0.2285319;-0.2742382;-0.5914127;-0.7230474;4;-6;0;15;4046;-845;128;-0.1121884;0.2825485;0.566482;0.7659492;-3;-4;-1;-691;3875;1382;4;-0.5734072;0.1759003;-0.4612188;-0.6538658;0;2;0;2343;3382;240;16;0.744609;-0.6412742;0.1634349;0.08725762;-4;-2;0;483;4080;-630;2;0.5304709;-0.6701798;-0.3891967;-0.3434903;0;-6;0;661;4148;-579;8;0.4418283;-0.8625485;-0.2396122;-0.05817174;-5;8;0;-1661;3181;2203;0.160827;2.543;1.104891;0.1667926;3.086656;1.149879;0.1720382;3.564696;1.187408;0.1672102;4.284722;1.328835;-0.0936743;4.61036;1.354273;-0.4339676;4.458311;1.389207;-0.6324918;4.900494;0.599656;-0.1001118;5.01385;1.375232;0.4266579;4.613853;1.354273;0.7165757;4.466031;1.389208;0.9241408;3.67161;1.893278;0.2027702;3.221435;1.475241;-0.151419;2.501707;1.093509;0.02101489;1.32404;0.2424957;0;0;0;-0.151419;2.501707;1.093509;0.02101489;1.32404;0.2424957;0;0;0
64163.8838;NotLabelled;NONE;16384;0.7719728;0.4376731;0.2534626;0.3850415;-4;0;0;3392;-2078;1195;65536;-0.6052631;-0.2576177;0.7418485;0.1301939;-2;3;0;2255;-624;-3503;8192;0.6177285;-0.6641213;-0.4210526;-0.008310249;-3;-1;-5;2198;3459;589;32768;0.4584487;-0.7348112;0.2202216;-0.4487534;-1;-6;0;3046;1957;1851;256;0.2285319;-0.2756233;-0.5914127;-0.7225206;4;-6;0;-25;4002;-897;128;-0.1121884;0.2839335;0.566482;0.7654369;-4;-4;-1;-613;3855;1364;4;-0.5734072;0.1759003;-0.4612188;-0.6538658;0;2;0;2287;3328;190;16;0.7434139;-0.6426592;0.1634349;0.08725762;-4;3;1;59;4000;-604;2;0.5304709;-0.6708879;-0.3891967;-0.3421052;1;-2;2;837;4064;-535;8;0.4404432;-0.8627764;-0.2409972;-0.05955679;-2;6;1;-1693;3155;2283;0.158335;2.542962;1.104691;0.1642991;3.086466;1.151483;0.1695433;3.564379;1.190598;0.1651526;4.283931;1.334432;-0.0955345;4.609639;1.360965;-0.435919;4.457679;1.395398;-0.634553;4.901217;0.6066348;-0.1005848;5.013638;1.381256;0.4247996;4.612818;1.360964;0.7146289;4.464705;1.395397;0.9227651;3.668905;1.897051;0.2016776;3.217422;1.479937;-0.1539106;2.501707;1.093161;0.0204624;1.32404;0.2425428;0;0;0;-0.1539106;2.501707;1.093161;0.0204624;1.32404;0.2425428;0;0;0
64184.715;NotLabelled;NONE;16384;0.7719728;0.4376731;0.2534626;0.3850415;-4;-1;1;3360;-2022;1165;65536;-0.6052631;-0.2576177;0.7416041;0.1315789;-3;4;-1;2177;-636;-3331;8192;0.6191136;-0.6628303;-0.4210526;-0.008310249;-4;-1;-4;2192;3387;457;32768;0.4584487;-0.7352393;0.2216066;-0.4473684;-1;-5;0;3110;1847;1869;256;0.2299169;-0.2756233;-0.5900277;-0.7232133;4;-5;0;-49;3902;-919;128;-0.1121884;0.2839335;0.5650969;0.7664601;-3;-4;-1;-577;3789;1518;4;-0.5734072;0.1772853;-0.4612188;-0.6534916;1;2;0;2333;3212;316;16;0.7434139;-0.6426592;0.1634349;0.08725762;-3;11;3;149;4034;-536;2;0.5304709;-0.6708879;-0.3891967;-0.3421052;0;-2;4;885;3968;-489;8;0.4404432;-0.8627764;-0.2409972;-0.05955679;0;6;1;-1589;3077;2095;0.1608926;2.54357;1.10079;0.1668565;3.08707;1.147632;0.1721007;3.564979;1.186792;0.1693917;4.284525;1.330697;-0.09062165;4.61072;1.357854;-0.4312111;4.459396;1.393054;-0.6328143;4.904731;0.6060584;-0.09884721;5.017079;1.38069;0.4297162;4.612921;1.356662;0.7193448;4.464261;1.390418;0.9289711;3.666749;1.888723;0.2089704;3.215658;1.469313;-0.151353;2.502316;1.089257;0.02302077;1.324727;0.2385295;0;0;0;-0.151353;2.502316;1.089257;0.02302077;1.324727;0.2385295;0;0;0
64204.7891;NotLabelled;NONE;16384;0.7711859;0.4390582;0.2534626;0.3850415;-4;-1;2;3428;-1962;1191;65536;-0.6052631;-0.2590028;0.7408743;0.132964;-4;4;-1;2267;-544;-3275;8192;0.6191136;-0.6637081;-0.4196676;-0.008310249;-3;-1;-5;2134;3331;493;32768;0.4584487;-0.7348204;0.2229917;-0.4473684;-3;-8;-1;2962;1807;1967;256;0.2299169;-0.2756233;-0.5886427;-0.724341;4;-4;0;-53;3876;-965;128;-0.1121884;0.2853186;0.5650969;0.7659455;-4;-3;-2;-589;3769;1444;4;-0.5734072;0.1772853;-0.4598338;-0.654467;1;6;0;2349;3328;370;16;0.7426794;-0.6440443;0.1620499;0.08587258;-3;11;2;477;4072;-634;2;0.5290859;-0.6718808;-0.3905817;-0.3407202;0;0;5;871;3836;-681;8;0.4390582;-0.8629976;-0.2423823;-0.06094183;-2;5;0;-1325;3057;1959;0.1554899;2.545451;1.097359;0.1614521;3.088792;1.146002;0.1666949;3.566569;1.186744;0.1614399;4.28582;1.332049;-0.09963912;4.611159;1.35925;-0.4398397;4.458718;1.393377;-0.6371428;4.903605;0.6050401;-0.1056553;5.01414;1.381636;0.4206908;4.614964;1.35925;0.7106986;4.467131;1.393377;0.9216316;3.669811;1.891436;0.2020787;3.218905;1.471059;-0.1567552;2.504235;1.085677;0.02202687;1.324749;0.2385013;0;0;0;-0.1567552;2.504235;1.085677;0.02202687;1.324749;0.2385013;0;0;0
64225.7826;NotLabelled;NONE;16384;0.7711859;0.4390582;0.2534626;0.3850415;-4;0;3;3248;-1944;1191;65536;-0.6052631;-0.2590028;0.7408743;0.132964;-5;4;0;2293;-428;-3329;8192;0.6204986;-0.6623946;-0.4196676;-0.009695291;-4;-3;-7;2090;3187;545;32768;0.4584487;-0.7348204;0.2229917;-0.4473684;-6;-8;0;2892;1853;2071;256;0.2299169;-0.2756233;-0.5886427;-0.724341;4;-2;0;-31;3968;-867;128;-0.1121884;0.2853186;0.5637119;0.7669654;-2;0;-1;-617;3841;1324;4;-0.5734072;0.1786704;-0.4598338;-0.6540902;0;3;0;2189;3332;334;16;0.7432952;-0.6440443;0.1606648;0.08310249;-2;3;1;477;4056;-640;2;0.5290859;-0.6725814;-0.3905817;-0.3393352;1;0;3;729;3786;-613;8;0.4390582;-0.8629976;-0.2423823;-0.06094183;-4;0;-1;-1173;3153;1805;0.1525471;2.544682;1.094898;0.1585093;3.088019;1.143591;0.163752;3.565792;1.184378;0.157579;4.284547;1.33208;-0.103916;4.609459;1.360372;-0.4439198;4.45647;1.394;-0.6432459;4.902699;0.606931;-0.1111445;5.01306;1.38313;0.4164087;4.613931;1.360372;0.7066068;4.466356;1.393998;0.9163418;3.668019;1.890933;0.1961544;3.218652;1.469996;-0.159698;2.503468;1.083212;0.02367649;1.325317;0.235159;0;0;0;-0.159698;2.503468;1.083212;0.02367649;1.325317;0.235159;0;0;0
64246.2582;NotLabelled;NONE;16384;0.770748;0.4418283;0.2520775;0.3836565;-5;1;1;3170;-2116;1179;65536;-0.6052631;-0.2590028;0.7403718;0.1357341;-5;1;2;2427;-374;-3261;8192;0.6204986;-0.6632889;-0.4182825;-0.008310249;-4;-5;-7;2130;3223;537;32768;0.4584487;-0.7352405;0.2243767;-0.4459834;-8;-7;0;2882;1869;2025;256;0.2285319;-0.2770083;-0.5872576;-0.7253744;3;0;1;-1;4066;-773;128;-0.1121884;0.2867036;0.5637119;0.7664488;0;0;-2;-593;3873;1258;4;-0.5747922;0.1786704;-0.4598338;-0.6528735;0;1;1;2207;3266;364;16;0.7420928;-0.6454294;0.1606648;0.08310249;-1;3;1;347;4060;-626;2;0.5290859;-0.6718808;-0.3905817;-0.3407202;0;0;0;751;4074;-487;8;0.4390582;-0.8629976;-0.2423823;-0.06094183;0;4;0;-1759;3275;2167;0.1525917;2.54601;1.094764;0.1585521;3.089182;1.145255;0.1637933;3.566818;1.187622;0.1576204;4.285573;1.335324;-0.1038746;4.610486;1.363616;-0.4438785;4.457496;1.397243;-0.6431545;4.903725;0.6101621;-0.1110532;5.014085;1.386362;0.4164501;4.614957;1.363616;0.7066481;4.467383;1.397243;0.9181333;3.667708;1.891277;0.1979463;3.218341;1.47034;-0.1596529;2.504834;1.08293;0.02457802;1.324867;0.2375936;0;0;0;-0.1596529;2.504834;1.08293;0.02457802;1.324867;0.2375936;0;0;0
64285.9332;NotLabelled;NONE;16384;0.7701865;0.4432133;0.2534626;0.3822715;-2;4;-1;3202;-1992;1091;65536;-0.6052631;-0.2576177;0.7405998;0.1371191;-2;-1;3;2375;-418;-3275;8192;0.6218836;-0.6637327;-0.4155124;-0.008310249;0;-6;-3;2376;3221;383;32768;0.4570637;-0.7365167;0.2257618;-0.4445983;-5;-1;0;3066;1999;1979;256;0.2299169;-0.2770083;-0.5872576;-0.7249366;0;-3;2;-103;3990;-833;128;-0.1135734;0.2880886;0.5650969;0.7647036;2;-7;-5;-645;3889;1404;4;-0.5734072;0.1772853;-0.4612188;-0.6534916;0;-5;1;2197;3184;302;16;0.7429919;-0.6454294;0.1578947;0.08033241;-1;19;1;101;4076;-604;2;0.5277008;-0.6736686;-0.3905817;-0.3393352;1;-3;3;501;3976;-649;8;0.4390582;-0.8629976;-0.2423823;-0.06094183;1;-4;0;-1367;3211;1875;0.1566106;2.545778;1.092254;0.1625709;3.088946;1.142796;0.167812;3.566578;1.185208;0.1633664;4.284655;1.33623;-0.09734815;4.610059;1.366033;-0.4377169;4.45773;1.398966;-0.6378872;4.909198;0.6151046;-0.1045769;5.015798;1.391;0.4229856;4.613283;1.366033;0.7128303;4.46486;1.398966;0.9241918;3.665267;1.893186;0.2028804;3.216121;1.473943;-0.155634;2.504603;1.080416;0.02708788;1.325549;0.2334788;0;0;0;-0.155634;2.504603;1.080416;0.02708788;1.325549;0.2334788;0;0;0
64306.735;NotLabelled;NONE;16384;0.7701865;0.4432133;0.2534626;0.3822715;-1;4;-2;3294;-2052;1025;65536;-0.6066482;-0.2576177;0.7394657;0.1371191;-1;-2;3;2337;-492;-3365;8192;0.6218836;-0.6646136;-0.4141274;-0.006925208;0;-4;-2;2400;3355;481;32768;0.4556787;-0.7369488;0.2271468;-0.4445983;-5;-2;0;3092;2065;1975;256;0.2299169;-0.2783934;-0.5872576;-0.7244058;0;-4;3;-9;3950;-891;128;-0.1135734;0.2880886;0.5650969;0.7647036;3;-7;-4;-649;3859;1402;4;-0.5734072;0.1772853;-0.4612188;-0.6534916;0;-6;1;2301;3318;176;16;0.7422285;-0.6468144;0.1565097;0.07894737;0;13;1;309;4000;-440;2;0.5277008;-0.6744697;-0.3891967;-0.3393352;1;-8;0;481;4040;-453;8;0.4390582;-0.8630943;-0.2423823;-0.05955679;-1;-7;-2;-1189;3281;1739;0.1563379;2.546022;1.093488;0.1623004;3.089388;1.141855;0.1675434;3.567185;1.182355;0.161798;4.285449;1.332447;-0.09950483;4.610418;1.361827;-0.4395979;4.457519;1.394954;-0.6419107;4.91017;0.6123262;-0.109147;5.013178;1.389082;0.4208224;4.614584;1.361826;0.7109346;4.466728;1.394954;0.9220029;3.664878;1.885629;0.1984773;3.217134;1.468708;-0.1559074;2.5048;1.081829;0.02480272;1.325314;0.2350617;0;0;0;-0.1559074;2.5048;1.081829;0.02480272;1.325314;0.2350617;0;0;0
64347.9002;NotLabelled;NONE;16384;0.7697293;0.4432133;0.2548476;0.3822715;0;3;-2;3410;-2166;1169;65536;-0.6066482;-0.2576177;0.7394657;0.1371191;-2;-3;1;2387;-506;-3483;8192;0.6218836;-0.6646136;-0.4141274;-0.006925208;0;-3;-2;2426;3407;493;32768;0.4556787;-0.7377827;0.2271468;-0.4432133;-5;-2;0;3094;2003;2033;256;0.2299169;-0.2783934;-0.5872576;-0.7244058;0;-3;3;57;4038;-931;128;-0.1149584;0.2894737;0.5650969;0.7639732;4;-6;-4;-663;3905;1334;4;-0.5706371;0.1759003;-0.4612188;-0.6562847;0;-5;0;2307;3302;282;16;0.7428085;-0.6468144;0.1551246;0.07617728;1;7;1;267;4082;-528;2;0.5290859;-0.6741824;-0.3878116;-0.3393352;2;-7;-2;603;4052;-533;8;0.4390582;-0.8634821;-0.2409972;-0.05955679;-2;-8;-2;-1477;3203;1935;0.1555783;2.546581;1.089769;0.1615408;3.089947;1.138136;0.1667838;3.567744;1.178636;0.1623821;4.286017;1.328726;-0.09831232;4.611476;1.358104;-0.4386909;4.459212;1.391233;-0.6391413;4.911861;0.6081251;-0.1055524;5.015841;1.384184;0.4220219;4.614668;1.358104;0.711857;4.466269;1.391232;0.9218107;3.664501;1.882519;0.1969188;3.219483;1.465052;-0.1566668;2.505359;1.07811;0.02599242;1.325872;0.2317618;0;0;0;-0.1566668;2.505359;1.07811;0.02599242;1.325872;0.2317618;0;0;0
64368.7069;NotLabelled;NONE;16384;0.7697293;0.4432133;0.2548476;0.3822715;1;3;-1;3458;-2170;1181;65536;-0.6080332;-0.2562327;0.738809;0.1371191;-2;-3;0;2395;-568;-3481;8192;0.6232687;-0.6641777;-0.4127424;-0.006925208;0;-4;-1;2288;3519;467;32768;0.4556787;-0.7373548;0.2285319;-0.4432133;-5;0;0;3102;1967;1987;256;0.2299169;-0.2811634;-0.5872576;-0.7233352;-2;-3;4;33;4142;-865;128;-0.1149584;0.2908587;0.566482;0.7624198;4;-4;-4;-657;3955;1346;4;-0.5706371;0.1759003;-0.4626039;-0.6553091;0;-4;0;2361;3252;344;16;0.7428085;-0.6468144;0.1551246;0.07617728;2;10;2;323;4088;-526;2;0.5290859;-0.6741824;-0.3878116;-0.3393352;1;-3;-3;665;4052;-547;8;0.4390582;-0.8639618;-0.2396122;-0.05817174;-2;-4;-2;-1505;3287;2063;0.1536501;2.546167;1.0915;0.1596128;3.089567;1.139485;0.1648563;3.567393;1.17965;0.1604528;4.285666;1.329739;-0.100242;4.611125;1.359115;-0.440621;4.458861;1.392239;-0.6432279;4.910705;0.6092216;-0.1096479;5.014685;1.385287;0.4200922;4.614316;1.359121;0.7099268;4.465918;1.392252;0.9198654;3.663804;1.882981;0.1943213;3.217471;1.46806;-0.1585952;2.504937;1.079872;0.02690636;1.325431;0.2341697;0;0;0;-0.1585952;2.504937;1.079872;0.02690636;1.325431;0.2341697;0;0;0
64388.8172;NotLabelled;NONE;16384;0.7704156;0.4432133;0.2548476;0.3808864;2;5;0;3356;-2082;1175;65536;-0.6080332;-0.2562327;0.738809;0.1371191;-1;-4;0;2291;-528;-3483;8192;0.6218836;-0.6654876;-0.4127424;-0.005540166;0;-4;0;2210;3497;417;32768;0.4542936;-0.738209;0.2285319;-0.4432133;-4;2;-1;3102;1895;1931;256;0.2299169;-0.2811634;-0.5872576;-0.7233352;-3;-3;3;43;4052;-883;128;-0.1149584;0.2922437;0.566482;0.7618899;5;-3;-3;-617;3867;1478;4;-0.5706371;0.1759003;-0.4626039;-0.6553091;0;-2;-1;2457;3244;394;16;0.7433752;-0.6468144;0.1537396;0.0734072;2;10;1;489;4014;-700;2;0.5290859;-0.6756718;-0.3864266;-0.3379501;1;-4;0;727;4158;-439;8;0.4390582;-0.8639618;-0.2396122;-0.05817174;-1;-1;-1;-1615;3329;2167;0.153294;2.547543;1.089764;0.1592585;3.091095;1.136002;0.1645033;3.569047;1.174629;0.1627922;4.287333;1.324716;-0.09668118;4.613765;1.354094;-0.4376279;4.462778;1.387223;-0.6366808;4.914072;0.602977;-0.10391;5.017302;1.379698;0.4236612;4.615009;1.354094;0.7129383;4.465524;1.387222;0.9224948;3.662517;1.876652;0.1982495;3.217717;1.457833;-0.1589517;2.506277;1.07828;0.02582973;1.325431;0.234291;0;0;0;-0.1589517;2.506277;1.07828;0.02582973;1.325431;0.234291;0;0;0
64409.7233;NotLabelled;NONE;16384;0.7712107;0.4418283;0.2548476;0.3808864;3;5;0;3260;-2022;1161;65536;-0.6080332;-0.2548476;0.7395434;0.1357341;-1;-3;0;2275;-398;-3407;8192;0.6218836;-0.6663446;-0.4113573;-0.005540166;1;-4;0;2248;3345;441;32768;0.4529086;-0.7390595;0.2285319;-0.4432133;-4;0;0;3178;1835;1823;256;0.2299169;-0.2825485;-0.5886427;-0.7216678;-3;-2;4;49;3982;-861;128;-0.1163435;0.2936288;0.566482;0.7611468;3;-4;-4;-611;3807;1482;4;-0.5706371;0.1759003;-0.4626039;-0.6553091;-2;0;-1;2503;3270;388;16;0.7433752;-0.6468144;0.1537396;0.0734072;2;2;0;639;4020;-598;2;0.5290859;-0.676462;-0.3850415;-0.3379501;1;-3;0;833;4042;-553;8;0.4376731;-0.8646643;-0.2396122;-0.05817174;0;1;0;-1647;3291;2037;0.154199;2.547098;1.092166;0.1601635;3.090646;1.138455;0.1654081;3.568594;1.177128;0.1636971;4.28688;1.327215;-0.09577644;4.613312;1.356593;-0.436723;4.462325;1.389722;-0.6351429;4.914835;0.6060169;-0.1023722;5.018065;1.382738;0.4245661;4.614555;1.356593;0.7138432;4.465072;1.389722;0.9215914;3.663385;1.882078;0.1956434;3.219784;1.464938;-0.1580468;2.505833;1.080678;0.02673472;1.324987;0.2366879;0;0;0;-0.1580468;2.505833;1.080678;0.02673472;1.324987;0.2366879;0;0;0
64429.7474;NotLabelled;NONE;16384;0.7712107;0.4418283;0.2548476;0.3808864;3;5;1;3238;-1986;1229;65536;-0.6080332;-0.2548476;0.7395434;0.1357341;-1;-3;0;2149;-468;-3385;8192;0.6218836;-0.6663446;-0.4113573;-0.005540166;0;-4;-2;2170;3299;493;32768;0.4529086;-0.7386298;0.2299169;-0.4432133;-6;-2;1;3108;1849;1909;256;0.2299169;-0.2825485;-0.5886427;-0.7216678;-2;-2;3;19;3916;-921;128;-0.1163435;0.2936288;0.566482;0.7611468;2;-3;-3;-693;3835;1536;4;-0.5706371;0.1759003;-0.4626039;-0.6553091;-3;2;-1;2531;3372;358;16;0.7433752;-0.6468144;0.1537396;0.0734072;2;-3;0;605;4058;-650;2;0.5290859;-0.676462;-0.3850415;-0.3379501;1;-1;-1;881;4078;-547;8;0.4376731;-0.8646643;-0.2396122;-0.05817174;-1;-3;-1;-1397;3207;1871;0.1516983;2.547107;1.091765;0.1576632;3.090686;1.137669;0.162908;3.568662;1.176002;0.1634777;4.287445;1.323699;-0.09495777;4.614796;1.351987;-0.4363823;4.465003;1.385612;-0.6291814;4.916742;0.600062;-0.09883004;5.020127;1.378417;0.425386;4.614386;1.35199;0.7141868;4.464095;1.38562;0.9184318;3.661055;1.877236;0.1917515;3.218663;1.460088;-0.1605475;2.505833;1.080308;0.0261869;1.324987;0.2367491;0;0;0;-0.1605475;2.505833;1.080308;0.0261869;1.324987;0.2367491;0;0;0
64451.7995;NotLabelled;NONE;16384;0.7718933;0.4418283;0.2548476;0.3795014;2;3;0;3242;-2066;1289;65536;-0.6080332;-0.2548476;0.7395434;0.1357341;0;-3;-1;2201;-388;-3463;8192;0.6218836;-0.6663446;-0.4113573;-0.005540166;0;-4;-3;2182;3363;479;32768;0.4529086;-0.7386298;0.2299169;-0.4432133;-6;-2;0;3034;1887;1971;256;0.2299169;-0.2839335;-0.5886427;-0.7211239;0;-1;3;113;3934;-915;128;-0.1163435;0.2950138;0.566482;0.7606111;0;-1;-2;-679;3807;1458;4;-0.5706371;0.1745152;-0.4626039;-0.6556793;-4;0;0;2511;3430;470;16;0.7430874;-0.6468144;0.1551246;0.0734072;0;-7;-2;671;3980;-746;2;0.5290859;-0.676462;-0.3850415;-0.3379501;0;1;-3;847;4112;-413;8;0.4376731;-0.8646643;-0.2396122;-0.05817174;-1;-3;0;-1569;3209;2089;0.1517058;2.547107;1.091766;0.1576706;3.090686;1.13767;0.1629155;3.568662;1.176004;0.1634862;4.287445;1.3237;-0.09494907;4.614796;1.35199;-0.4363732;4.465003;1.385618;-0.6310019;4.916185;0.6001987;-0.1006452;5.01957;1.378549;0.4253947;4.614386;1.35199;0.7141954;4.464095;1.385618;0.9195849;3.661404;1.877326;0.1922942;3.220544;1.459622;-0.16054;2.505833;1.08031;0.02618857;1.324987;0.2367489;0;0;0;-0.16054;2.505833;1.08031;0.02618857;1.324987;0.2367489;0;0;0
64472.7464;NotLabelled;NONE;16384;0.7731398;0.4404432;0.2534626;0.3795014;3;3;0;3270;-2144;1301;65536;-0.6080332;-0.2534626;0.7400193;0.1357341;0;-3;-1;2205;-424;-3559;8192;0.6232687;-0.665904;-0.4099723;-0.005540166;0;-5;-3;2216;3419;471;32768;0.4515235;-0.7390453;0.2313019;-0.4432133;-6;-1;1;3058;1897;1989;256;0.2299169;-0.2839335;-0.5886427;-0.7211239;0;0;3;125;4046;-937;128;-0.1163435;0.2950138;0.566482;0.7606111;1;0;-2;-731;3883;1402;4;-0.5706371;0.1731302;-0.4639889;-0.6550676;-5;0;0;2419;3130;290;16;0.7437221;-0.6454294;0.1565097;0.07617728;0;-4;-2;263;4086;-898;2;0.5290859;-0.6756718;-0.3864266;-0.3379501;-1;5;-2;707;4094;-551;8;0.4376731;-0.8646643;-0.2396122;-0.05817174;0;0;0;-1657;3285;2059;0.1527846;2.545067;1.095075;0.1587495;3.088642;1.141031;0.1639944;3.566615;1.179411;0.1659168;4.285395;1.327108;-0.09190226;4.613231;1.355398;-0.4336076;4.464081;1.389025;-0.6258309;4.916474;0.6037106;-0.09727031;5.019859;1.383283;0.4284398;4.611843;1.355397;0.7169574;4.46101;1.389025;0.9212124;3.658318;1.881206;0.1948867;3.217458;1.461826;-0.1594611;2.503794;1.083614;0.0283699;1.32476;0.2377676;0;0;0;-0.1594611;2.503794;1.083614;0.0283699;1.32476;0.2377676;0;0;0
64493.7432;NotLabelled;NONE;16384;0.7731398;0.4404432;0.2534626;0.3795014;2;1;0;3264;-2092;1241;65536;-0.6080332;-0.2520775;0.7404922;0.1357341;0;-2;-2;2215;-416;-3437;8192;0.6232687;-0.6667649;-0.4085872;-0.004155125;0;-5;-3;2286;3437;411;32768;0.4515235;-0.7390453;0.2313019;-0.4432133;-5;0;0;3046;1967;1999;256;0.2285319;-0.2853186;-0.5886427;-0.7210176;-1;0;1;49;4002;-931;128;-0.1163435;0.2950138;0.566482;0.7606111;1;0;-1;-687;3861;1462;4;-0.5706371;0.1731302;-0.4653739;-0.6540844;-3;0;0;2309;3018;168;16;0.7440123;-0.6454294;0.1551246;0.07617728;-1;6;-2;-263;4002;-762;2;0.5290859;-0.6741824;-0.3878116;-0.3393352;-1;5;1;595;4002;-661;8;0.4376731;-0.8641849;-0.2409972;-0.05955679;1;6;2;-1509;3253;2177;0.1546636;2.544354;1.098606;0.1606283;3.087929;1.144562;0.1658733;3.565902;1.182942;0.1677957;4.284682;1.330639;-0.0900234;4.612518;1.358928;-0.4317288;4.463368;1.392556;-0.6197873;4.91577;0.6062387;-0.09108621;5.017437;1.385942;0.4303187;4.61113;1.358928;0.7188364;4.460297;1.392556;0.924946;3.656364;1.88193;0.1963232;3.21825;1.463657;-0.1575822;2.503081;1.087145;0.02478199;1.324533;0.239427;0;0;0;-0.1575822;2.503081;1.087145;0.02478199;1.324533;0.239427;0;0;0
64513.9887;NotLabelled;NONE;16384;0.7731398;0.4404432;0.2534626;0.3795014;3;1;1;3214;-2010;1229;65536;-0.6080332;-0.2520775;0.7404922;0.1357341;0;-2;-2;2233;-438;-3409;8192;0.6218836;-0.6680568;-0.4085872;-0.004155125;1;-2;-1;2436;3347;345;32768;0.4501385;-0.7398897;0.2313019;-0.4432133;0;1;2;3084;1901;1943;256;0.2271468;-0.2853186;-0.5886427;-0.7214551;-1;0;2;43;3978;-913;128;-0.1163435;0.2963989;0.566482;0.7600724;1;0;-1;-649;3815;1448;4;-0.5706371;0.1731302;-0.4639889;-0.6550676;0;-3;0;2329;2994;14;16;0.7442997;-0.6454294;0.1537396;0.07617728;0;11;-1;-355;4032;-684;2;0.5290859;-0.6741824;-0.3878116;-0.3393352;0;2;1;491;3960;-649;8;0.4376731;-0.8641849;-0.2409972;-0.05955679;0;6;1;-1245;3229;1955;0.1560808;2.54589;1.096738;0.1620456;3.089465;1.142694;0.1672904;3.567437;1.181074;0.1718543;4.286013;1.329705;-0.0847578;4.614758;1.35842;-0.4270096;4.466822;1.391853;-0.6147264;4.919225;0.6054546;-0.08622539;5.019173;1.385515;0.4355756;4.611456;1.35842;0.7235364;4.45952;1.391853;0.9295006;3.655668;1.88142;0.2010598;3.217552;1.462831;-0.1561651;2.504617;1.085277;0.0219439;1.324753;0.238485;0;0;0;-0.1561651;2.504617;1.085277;0.0219439;1.324753;0.238485;0;0;0
64535.0059;NotLabelled;NONE;16384;0.7731398;0.4404432;0.2534626;0.3795014;4;1;0;3228;-2056;1265;65536;-0.6080332;-0.2520775;0.7404922;0.1357341;0;-2;-3;2195;-448;-3425;8192;0.6218836;-0.668902;-0.4072022;-0.004155125;2;0;0;2422;3401;281;32768;0.4501385;-0.7398897;0.2313019;-0.4432133;1;2;2;3044;1905;2029;256;0.2271468;-0.2853186;-0.5886427;-0.7214551;0;0;2;35;3972;-911;128;-0.1149584;0.2963989;0.566482;0.7602831;1;1;-1;-693;3855;1472;4;-0.5706371;0.1731302;-0.4639889;-0.6550676;4;-4;0;2515;3068;-58;16;0.7450069;-0.6454294;0.1509695;0.07479224;0;22;1;-225;4032;-538;2;0.5290859;-0.6741824;-0.3878116;-0.3393352;1;-1;0;515;3954;-603;8;0.4376731;-0.8641849;-0.2409972;-0.05955679;-1;0;0;-1131;3177;1839;0.1507582;2.544788;1.09693;0.1567229;3.088359;1.142939;0.1619678;3.566328;1.181366;0.1678226;4.284701;1.330926;-0.08819848;4.613869;1.360063;-0.430716;4.466506;1.393302;-0.6199036;4.91891;0.6072556;-0.08994395;5.018857;1.386326;0.4321282;4.609633;1.360063;0.7198151;4.457135;1.393302;0.9236289;3.653528;1.88417;0.1927238;3.216633;1.468613;-0.1614875;2.503516;1.085465;0.01965843;1.324969;0.2374853;0;0;0;-0.1614875;2.503516;1.085465;0.01965843;1.324969;0.2374853;0;0;0
64555.7212;NotLabelled;NONE;16384;0.7750567;0.4390582;0.2520775;0.3781163;4;1;1;3278;-2106;1271;65536;-0.6066482;-0.2520775;0.7416273;0.1357341;0;-2;-2;2253;-344;-3459;8192;0.6218836;-0.668902;-0.4072022;-0.004155125;3;2;0;2302;3383;359;32768;0.4501385;-0.7390583;0.2313019;-0.4445983;0;3;2;2990;1851;2089;256;0.2271468;-0.2853186;-0.5886427;-0.7214551;0;0;2;51;3928;-885;128;-0.1149584;0.2963989;0.566482;0.7602831;1;3;-1;-671;3865;1408;4;-0.5692521;0.1731302;-0.4626039;-0.6572486;6;5;0;2521;3282;118;16;0.7443577;-0.6468144;0.1495845;0.07202215;0;23;4;387;4056;-582;2;0.5290859;-0.6749772;-0.3864266;-0.3393352;1;-2;-2;687;3988;-471;8;0.4376731;-0.8641849;-0.2409972;-0.05955679;-1;3;0;-1667;3259;2099;0.1471201;2.544876;1.096696;0.1530845;3.088409;1.143145;0.158329;3.566347;1.181959;0.164184;4.284721;1.331519;-0.09183675;4.613889;1.360657;-0.4343544;4.466527;1.393897;-0.6235529;4.918293;0.6074875;-0.09359157;5.01824;1.386556;0.4284898;4.609652;1.360656;0.7161767;4.457155;1.393894;0.9187776;3.652949;1.884285;0.1878713;3.216054;1.468729;-0.1651256;2.503613;1.085195;0.01601871;1.325066;0.2372141;0;0;0;-0.1651256;2.503613;1.085195;0.01601871;1.325066;0.2372141;0;0;0
64575.88;NotLabelled;NONE;16384;0.7750567;0.4390582;0.2520775;0.3781163;4;0;0;3204;-2066;1251;65536;-0.6066482;-0.2506925;0.7423487;0.134349;1;-2;-2;2315;-356;-3505;8192;0.6204986;-0.6693435;-0.4085872;-0.004155125;4;1;1;2176;3349;383;32768;0.4501385;-0.7390583;0.2313019;-0.4445983;0;4;2;3074;1797;2043;256;0.2271468;-0.2853186;-0.5886427;-0.7214551;0;1;2;97;4006;-887;128;-0.1149584;0.2963989;0.567867;0.7592492;2;1;-1;-805;3913;1306;4;-0.5720221;0.1759003;-0.4612188;-0.6550778;4;13;0;2483;3284;390;16;0.7444918;-0.6481994;0.1454294;0.06648199;0;34;6;277;4056;-464;2;0.5290859;-0.6749772;-0.3864266;-0.3393352;0;0;-1;957;4148;-539;8;0.4376731;-0.8637975;-0.2423823;-0.05955679;0;8;2;-1747;3327;2083;0.1442992;2.544725;1.094166;0.1502636;3.088258;1.140615;0.155508;3.566195;1.179429;0.1613629;4.28457;1.328989;-0.09465802;4.613738;1.358127;-0.4371757;4.466374;1.391365;-0.6216099;4.919971;0.6048776;-0.09428412;5.018966;1.385854;0.4256686;4.609501;1.358126;0.7133555;4.457003;1.391365;0.9159499;3.652401;1.881107;0.185716;3.216824;1.462996;-0.1679463;2.503463;1.082664;0.01963492;1.32532;0.2355221;0;0;0;-0.1679463;2.503463;1.082664;0.01963492;1.32532;0.2355221;0;0;0
64597.6927;NotLabelled;NONE;16384;0.7762883;0.4376731;0.2506925;0.3781163;5;2;0;3312;-2088;1307;65536;-0.6066482;-0.2506925;0.7423487;0.134349;0;-4;-2;2255;-464;-3435;8192;0.6204986;-0.6693435;-0.4085872;-0.004155125;3;0;1;2156;3361;449;32768;0.4487534;-0.739066;0.2313019;-0.4459834;-1;3;3;3110;1831;1989;256;0.2257618;-0.2853186;-0.5900277;-0.7207581;-1;1;3;129;4004;-847;128;-0.1135734;0.2963989;0.567867;0.7594576;1;4;-1;-691;3887;1440;4;-0.5734072;0.1772853;-0.4612188;-0.6534916;2;13;-1;2219;3324;588;16;0.7453866;-0.6481994;0.1426593;0.06232687;0;30;6;755;4118;-666;2;0.5277008;-0.6737711;-0.3891967;-0.3407202;-1;9;2;943;4182;-589;8;0.4376731;-0.862425;-0.2465374;-0.06232687;1;18;4;-1693;3281;2245;0.1435027;2.545244;1.092442;0.1494687;3.088929;1.137089;0.1547146;3.566993;1.174318;0.1605694;4.285366;1.323877;-0.09545147;4.614534;1.353015;-0.437969;4.467172;1.386253;-0.622403;4.920768;0.5997653;-0.09569472;5.019933;1.381137;0.4248753;4.610297;1.353014;0.7125622;4.4578;1.386253;0.9133145;3.654452;1.878804;0.1830807;3.218874;1.460693;-0.1687433;2.503944;1.081089;0.02149905;1.325354;0.2351632;0;0;0;-0.1687433;2.503944;1.081089;0.02149905;1.325354;0.2351632;0;0;0
64618.753;NotLabelled;NONE;16384;0.7762883;0.4376731;0.2506925;0.3781163;4;2;0;3226;-1986;1297;65536;-0.6066482;-0.2493075;0.742815;0.134349;0;-4;-1;2157;-410;-3409;8192;0.6191136;-0.6706248;-0.4085872;-0.004155125;4;0;0;2234;3481;313;32768;0.4487534;-0.7382284;0.2313019;-0.4473684;-1;3;4;3150;1877;2013;256;0.2243767;-0.2867036;-0.5900277;-0.720641;-1;1;3;35;4012;-865;128;-0.1135734;0.2950138;0.5692521;0.7589598;2;1;-2;-671;3931;1438;4;-0.5747922;0.1786704;-0.4612188;-0.6518957;1;6;-1;2131;3286;408;16;0.7447802;-0.6495845;0.1412742;0.05817174;0;24;3;345;4010;-646;2;0.5277008;-0.6729692;-0.3905817;-0.3407202;-1;10;3;763;4016;-671;8;0.4376731;-0.8619266;-0.2479224;-0.06371191;2;12;4;-1565;3161;2009;0.1465802;2.545601;1.094731;0.1525458;3.08925;1.139814;0.1577914;3.567283;1.177426;0.1658792;4.28594;1.325515;-0.08911824;4.61596;1.353983;-0.4320907;4.469728;1.387529;-0.6153378;4.922673;0.6003877;-0.08715993;5.021838;1.380767;0.4311929;4.610108;1.353983;0.7184055;4.456786;1.387529;0.9210165;3.653833;1.879962;0.1889971;3.220796;1.462334;-0.1656657;2.50431;1.083342;0.02198727;1.324824;0.238087;0;0;0;-0.1656657;2.50431;1.083342;0.02198727;1.324824;0.238087;0;0;0
64639.7394;NotLabelled;NONE;16384;0.7770676;0.4362881;0.2506925;0.3781163;4;2;0;3182;-1902;1287;65536;-0.6066482;-0.2493075;0.742815;0.134349;0;-3;-1;2163;-420;-3417;8192;0.6191136;-0.6706148;-0.4085872;-0.005540166;4;0;0;2234;3473;395;32768;0.4473684;-0.7390686;0.2313019;-0.4473684;0;3;3;3086;1845;2023;256;0.2243767;-0.2867036;-0.5900277;-0.720641;-1;0;3;77;3964;-935;128;-0.1135734;0.2963989;0.5692521;0.75842;1;2;-1;-689;3821;1494;4;-0.5747922;0.1800554;-0.4612188;-0.6515145;4;2;-2;2133;3302;312;16;0.7452528;-0.6495845;0.1398892;0.05540166;0;23;4;481;4090;-430;2;0.5277008;-0.6729692;-0.3905817;-0.3407202;0;4;1;613;3898;-683;8;0.4376731;-0.8618231;-0.2479224;-0.06509695;2;7;2;-1393;3123;1973;0.1526398;2.54644;1.093431;0.158607;3.09024;1.136653;0.1638539;3.568399;1.172628;0.1745864;4.286831;1.321639;-0.07919401;4.617752;1.350527;-0.4227037;4.472742;1.383881;-0.6041026;4.926318;0.5966755;-0.07613653;5.023772;1.377414;0.4410918;4.609983;1.350527;0.7277372;4.455562;1.38388;0.926138;3.652485;1.877824;0.1949906;3.220767;1.457313;-0.1596066;2.505111;1.082196;0.02740321;1.32473;0.2380468;0;0;0;-0.1596066;2.505111;1.082196;0.02740321;1.32473;0.2380468;0;0;0
64661.8598;NotLabelled;NONE;16384;0.7770676;0.4362881;0.2506925;0.3781163;4;3;0;3236;-2058;1345;65536;-0.6066482;-0.2493075;0.742815;0.134349;0;-3;0;2161;-316;-3483;8192;0.6191136;-0.6706148;-0.4085872;-0.005540166;3;0;0;2190;3479;417;32768;0.4473684;-0.7390686;0.2313019;-0.4473684;-1;3;2;3000;1885;2071;256;0.2243767;-0.2867036;-0.5900277;-0.720641;-1;1;3;81;3976;-881;128;-0.1121884;0.2950138;0.5692521;0.7591658;1;4;0;-709;3805;1374;4;-0.5734072;0.1800554;-0.4612188;-0.6527338;5;1;-4;2159;3360;342;16;0.7457121;-0.6495845;0.1385041;0.05263158;2;18;4;657;4018;-502;2;0.5263157;-0.6732485;-0.3919668;-0.3407202;0;1;0;685;4004;-597;8;0.4390582;-0.8607184;-0.2493075;-0.06509695;1;4;1;-1173;3169;2011;0.1527705;2.547821;1.093005;0.1587376;3.091616;1.136281;0.1639846;3.569772;1.172304;0.174717;4.288202;1.321315;-0.07906353;4.619123;1.350204;-0.422573;4.474114;1.383557;-0.6020147;4.926326;0.5951195;-0.07404888;5.02378;1.375858;0.4412224;4.611355;1.350203;0.7278681;4.456933;1.383556;0.9249743;3.652777;1.876259;0.1921546;3.222283;1.457406;-0.1594759;2.506492;1.081765;0.02834261;1.324296;0.2403399;0;0;0;-0.1594759;2.506492;1.081765;0.02834261;1.324296;0.2403399;0;0;0
64682.7116;NotLabelled;NONE;16384;0.7778436;0.434903;0.2506925;0.3781163;4;2;0;3208;-2076;1335;65536;-0.6066482;-0.2479224;0.7435274;0.132964;0;-4;0;2227;-312;-3549;8192;0.6177285;-0.6718908;-0.4085872;-0.005540166;3;-1;1;2206;3405;455;32768;0.4473684;-0.7382284;0.2313019;-0.4487534;-2;4;2;2942;1963;1993;256;0.2229917;-0.2867036;-0.5900277;-0.7210708;-1;2;2;99;4000;-919;128;-0.1121884;0.2950138;0.5692521;0.7591658;2;4;0;-749;3929;1264;4;-0.5734072;0.1828255;-0.4612188;-0.6519634;0;7;-3;2255;3446;536;16;0.7447854;-0.6509695;0.1385041;0.04847645;2;0;4;1205;3984;-296;2;0.5263157;-0.6725458;-0.3919668;-0.3421052;0;3;-1;555;3886;-455;8;0.4390582;-0.8610125;-0.2479224;-0.06648199;0;-1;0;-1301;3143;1935;0.1518604;2.548293;1.093612;0.1578273;3.092057;1.137265;0.1630739;3.570189;1.17362;0.1738058;4.28862;1.322631;-0.07997471;4.619541;1.351518;-0.4234844;4.474531;1.38487;-0.6029252;4.926197;0.5961193;-0.07496244;5.023651;1.376859;0.440311;4.611771;1.351519;0.7269566;4.45735;1.384874;0.924062;3.653535;1.878134;0.1912441;3.223042;1.459278;-0.1603858;2.506972;1.082341;0.02928177;1.32386;0.2426201;0;0;0;-0.1603858;2.506972;1.082341;0.02928177;1.32386;0.2426201;0;0;0
64702.8989;NotLabelled;NONE;16384;0.7782886;0.434903;0.2493075;0.3781163;3;2;0;3144;-2002;1285;65536;-0.6066482;-0.2465374;0.7439878;0.132964;0;-3;-1;2089;-358;-3333;8192;0.6177285;-0.6718908;-0.4085872;-0.005540166;3;0;2;2290;3339;397;32768;0.4459834;-0.7394981;0.2299169;-0.4487534;-1;6;2;2952;1903;2009;256;0.2229917;-0.2867036;-0.5914127;-0.7199352;-2;2;2;159;4024;-873;128;-0.1121884;0.2950138;0.5706371;0.7581252;4;5;0;-653;3833;1294;4;-0.5747922;0.1842105;-0.4612188;-0.6503519;-3;6;-2;2241;3392;610;16;0.7446154;-0.6509695;0.1398892;0.04709141;2;-9;0;811;3928;-632;2;0.5263157;-0.6725458;-0.3919668;-0.3421052;0;4;-1;553;3894;-557;8;0.4390582;-0.8610125;-0.2479224;-0.06648199;1;0;0;-1583;3111;1943;0.1605212;2.551508;1.089432;0.1664881;3.095273;1.133085;0.1717348;3.573404;1.16944;0.1837604;4.291624;1.319365;-0.06942314;4.622966;1.348669;-0.4131944;4.478534;1.381831;-0.5921394;4.929376;0.5924959;-0.06333315;5.027007;1.372643;0.4508482;4.614258;1.348668;0.7372135;4.459277;1.381831;0.9321874;3.655406;1.875846;0.1992791;3.226233;1.455795;-0.1517251;2.510187;1.078161;0.03797895;1.323467;0.2435556;0;0;0;-0.1517251;2.510187;1.078161;0.03797895;1.323467;0.2435556;0;0;0
64723.759;NotLabelled;NONE;16384;0.779061;0.433518;0.2493075;0.3781163;3;1;0;3108;-1918;1281;65536;-0.6066482;-0.2465374;0.7439878;0.132964;1;-3;0;2057;-336;-3321;8192;0.6163435;-0.6723289;-0.4099723;-0.004155125;4;0;5;2306;3391;281;32768;0.4459834;-0.7390855;0.2285319;-0.4501385;1;7;0;3002;1773;1981;256;0.2216066;-0.2867036;-0.5927978;-0.7192234;-5;2;2;71;3900;-715;128;-0.1121884;0.2950138;0.5720221;0.7570807;6;0;-1;-597;3763;1326;4;-0.5747922;0.1842105;-0.4626039;-0.6493675;-3;0;0;2299;3260;468;16;0.7446154;-0.6509695;0.1398892;0.04709141;3;2;0;193;4056;-594;2;0.5263157;-0.6718394;-0.3919668;-0.3434903;0;1;0;519;3954;-677;8;0.4390582;-0.8610125;-0.2479224;-0.06648199;0;-2;0;-1491;3223;1925;0.1661128;2.551802;1.090971;0.1720813;3.09571;1.132814;0.1773292;3.573958;1.167576;0.1902983;4.29266;1.315103;-0.0624522;4.624426;1.343315;-0.4064093;4.480553;1.376978;-0.5831677;4.932724;0.5879111;-0.05420965;5.028646;1.368167;0.4578072;4.615041;1.343315;0.743973;4.4598;1.376978;0.9389471;3.655928;1.870993;0.2049556;3.226441;1.453159;-0.1461338;2.510444;1.079849;0.04247264;1.322828;0.2462693;0;0;0;-0.1461338;2.510444;1.079849;0.04247264;1.322828;0.2462693;0;0;0
64744.7079;NotLabelled;NONE;16384;0.779061;0.433518;0.2493075;0.3781163;4;1;-2;3030;-1942;1249;65536;-0.6066482;-0.2465374;0.744234;0.1315789;2;-4;0;2075;-406;-3343;8192;0.6149584;-0.673596;-0.4099723;-0.004155125;5;1;4;2262;3349;317;32768;0.4445983;-0.7399195;0.2285319;-0.4501385;0;7;0;3072;1817;1973;256;0.2216066;-0.2867036;-0.5927978;-0.7192234;-4;1;2;41;3906;-771;128;-0.1121884;0.2950138;0.5734072;0.7560323;6;0;-2;-661;3765;1276;4;-0.5747922;0.1842105;-0.4626039;-0.6493675;-1;-3;1;2249;3178;290;16;0.745824;-0.6495845;0.1398892;0.04709141;3;1;0;465;4020;-572;2;0.5263157;-0.6718394;-0.3919668;-0.3434903;0;-3;-1;453;3982;-645;8;0.4390582;-0.8611184;-0.2479224;-0.06509695;-1;-4;-1;-1431;3299;1939;0.1727918;2.553142;1.090266;0.1787619;3.097186;1.130295;0.184011;3.575548;1.163463;0.1992177;4.29451;1.309494;-0.05250037;4.627118;1.337026;-0.3969008;4.484384;1.371002;-0.573185;4.935176;0.5810404;-0.04275346;5.0311;1.360295;0.4677274;4.616118;1.337026;0.7534114;4.46006;1.371001;0.9487995;3.658549;1.868675;0.2153045;3.228832;1.450206;-0.1394551;2.511748;1.079293;0.04293782;1.322828;0.2461888;0;0;0;-0.1394551;2.511748;1.079293;0.04293782;1.322828;0.2461888;0;0;0
64765.7812;NotLabelled;NONE;16384;0.77983;0.432133;0.2493075;0.3781163;5;1;-3;3070;-1914;1273;65536;-0.6066482;-0.2465374;0.7444775;0.1301939;3;-4;0;2113;-392;-3455;8192;0.6135734;-0.6740145;-0.4113573;-0.004155125;4;0;4;2196;3293;365;32768;0.4445983;-0.739502;0.2271468;-0.4515235;0;6;0;3028;1875;1993;256;0.2216066;-0.2867036;-0.5941828;-0.7180796;-4;0;2;119;3906;-811;128;-0.1121884;0.2950138;0.5734072;0.7560323;6;-1;-2;-671;3855;1270;4;-0.5747922;0.1828255;-0.4626039;-0.6497588;0;-7;0;2169;3170;294;16;0.7457352;-0.6495845;0.1398892;0.04847645;2;-5;-1;385;4026;-726;2;0.5263157;-0.6726456;-0.3905817;-0.3434903;0;-5;-1;597;4074;-659;8;0.4390582;-0.8611184;-0.2479224;-0.06509695;-1;0;-1;-1467;3287;2037;0.169982;2.552516;1.094119;0.1759534;3.09669;1.132331;0.1812038;3.57516;1.163901;0.1964104;4.294123;1.309933;-0.05530763;4.62673;1.337465;-0.3997082;4.483996;1.371441;-0.5760186;4.934788;0.5814847;-0.04632455;5.032603;1.361006;0.4649199;4.615731;1.337464;0.750604;4.459671;1.37144;0.9429736;3.658468;1.87078;0.207818;3.229989;1.45396;-0.1422654;2.511085;1.083296;0.0401278;1.322165;0.2501916;0;0;0;-0.1422654;2.511085;1.083296;0.0401278;1.322165;0.2501916;0;0;0
64785.7928;NotLabelled;NONE;16384;0.77983;0.432133;0.2493075;0.3781163;6;1;-4;3158;-1950;1389;65536;-0.6066482;-0.2451524;0.7449348;0.1301939;3;-5;1;2083;-434;-3471;8192;0.6135734;-0.6740145;-0.4113573;-0.004155125;3;0;3;2184;3329;467;32768;0.4445983;-0.739502;0.2271468;-0.4515235;-1;5;0;3058;1835;2039;256;0.2216066;-0.2867036;-0.5941828;-0.7180796;-4;0;2;133;3996;-795;128;-0.1121884;0.2950138;0.5747922;0.7549798;5;-1;-2;-721;3897;1276;4;-0.5734072;0.1828255;-0.4626039;-0.6509814;1;-8;0;2323;3240;274;16;0.7457352;-0.6495845;0.1398892;0.04847645;2;-2;0;263;4068;-676;2;0.5277008;-0.6715595;-0.3905817;-0.3434903;0;-4;-1;633;4006;-599;8;0.4390582;-0.8611184;-0.2479224;-0.06509695;-1;0;-1;-1525;3247;2089;0.1689861;2.551082;1.095198;0.1749575;3.095257;1.13341;0.1802078;3.573727;1.16498;0.1963609;4.293153;1.308603;-0.05492193;4.626179;1.335039;-0.3995053;4.484007;1.369516;-0.5738862;4.933414;0.5783439;-0.04490328;5.033122;1.358109;0.4652909;4.614502;1.335038;0.750774;4.458185;1.369516;0.9413383;3.65828;1.871623;0.2074597;3.229568;1.452797;-0.1432614;2.509651;1.084375;0.03832398;1.322532;0.248532;0;0;0;-0.1432614;2.509651;1.084375;0.03832398;1.322532;0.248532;0;0;0
64806.7323;NotLabelled;NONE;16384;0.7809154;0.4293629;0.2506925;0.3781163;6;2;-4;3316;-1964;1513;65536;-0.6066482;-0.2451524;0.7454136;0.1274238;2;-6;0;2047;-584;-3623;8192;0.6121883;-0.6752728;-0.4113573;-0.004155125;3;-1;3;2142;3509;411;32768;0.4432133;-0.7403329;0.2271468;-0.4515235;-2;4;0;3104;1865;1993;256;0.2216066;-0.2867036;-0.5941828;-0.7180796;-4;-1;2;99;4004;-831;128;-0.1121884;0.2950138;0.5747922;0.7549798;4;0;-1;-763;3909;1334;4;-0.5720221;0.1814404;-0.4626039;-0.6525854;-1;-1;0;2609;3366;374;16;0.7469395;-0.6481994;0.1398892;0.04847645;0;-1;0;747;4058;-786;2;0.5277008;-0.6723631;-0.3891967;-0.3434903;0;-3;-2;789;4040;-537;8;0.4390582;-0.8611184;-0.2479224;-0.06509695;0;-3;-1;-1587;3215;2023;0.1671211;2.552032;1.093341;0.1730938;3.096331;1.129732;0.1783453;3.574904;1.159701;0.1944984;4.294331;1.303324;-0.05678463;4.627356;1.32976;-0.401368;4.485185;1.364237;-0.5757181;4.934592;0.5730583;-0.04659998;5.032596;1.352947;0.4634285;4.615679;1.32976;0.7489116;4.459363;1.364237;0.9394568;3.659458;1.866352;0.2055779;3.230745;1.447526;-0.1451269;2.510565;1.082668;0.03832413;1.322531;0.2485324;0;0;0;-0.1451269;2.510565;1.082668;0.03832413;1.322531;0.2485324;0;0;0
64827.7453;NotLabelled;NONE;16384;0.7810038;0.4279778;0.2506925;0.3795014;5;2;-3;3404;-1918;1517;65536;-0.6066482;-0.2437673;0.746103;0.1260388;2;-4;0;2065;-570;-3675;8192;0.6121883;-0.6752799;-0.4113573;-0.002770083;0;-3;2;2128;3487;419;32768;0.4432133;-0.7403329;0.2271468;-0.4515235;-3;2;-1;3172;1827;1979;256;0.2229917;-0.2880886;-0.5955678;-0.715946;-3;0;3;131;3998;-833;128;-0.1121884;0.2950138;0.5761772;0.7539234;4;0;-1;-745;3873;1382;4;-0.5734072;0.1814404;-0.4626039;-0.6513687;-1;0;2;2545;3292;346;16;0.7469395;-0.6481994;0.1398892;0.04847645;0;-3;-2;329;4022;-792;2;0.5277008;-0.6730689;-0.3891967;-0.3421052;0;0;0;781;4084;-561;8;0.4390582;-0.8611184;-0.2479224;-0.06509695;0;-1;0;-1719;3317;1987;0.1632589;2.550464;1.098368;0.1692316;3.094764;1.13476;0.1744832;3.573337;1.164729;0.1906363;4.292763;1.308352;-0.06064665;4.625788;1.334787;-0.4052302;4.483617;1.369265;-0.5779088;4.928912;0.5753987;-0.05024701;5.030709;1.355788;0.4595663;4.614111;1.334787;0.7450495;4.457796;1.369265;0.9325862;3.658219;1.873033;0.1970491;3.230751;1.455848;-0.148989;2.508997;1.087695;0.03552403;1.321852;0.2525302;0;0;0;-0.148989;2.508997;1.087695;0.03552403;1.321852;0.2525302;0;0;0
64847.76;NotLabelled;NONE;16384;0.7817612;0.4265928;0.2506925;0.3795014;4;2;-2;3378;-1920;1505;65536;-0.6066482;-0.2437673;0.746103;0.1260388;1;-3;0;2033;-548;-3663;8192;0.6121883;-0.6752799;-0.4113573;-0.002770083;0;-3;1;2244;3457;321;32768;0.4418283;-0.7411603;0.2271468;-0.4515235;-4;1;0;3224;1845;2025;256;0.2229917;-0.2894737;-0.5955678;-0.715387;-3;0;2;51;3974;-791;128;-0.1121884;0.2950138;0.5761772;0.7539234;3;1;-1;-721;3891;1402;4;-0.5734072;0.1814404;-0.4612188;-0.6523502;0;0;3;2369;3246;218;16;0.7468483;-0.6481994;0.1398892;0.04986149;0;2;0;383;4042;-714;2;0.5277008;-0.6730689;-0.3891967;-0.3421052;-1;1;0;789;4180;-555;8;0.4390582;-0.8612219;-0.2479224;-0.06371191;0;1;0;-1679;3321;2051;0.1606121;2.549589;1.099301;0.1665861;3.094007;1.133869;0.1718387;3.572678;1.162235;0.1890196;4.292735;1.302539;-0.06179184;4.626232;1.327466;-0.406571;4.484706;1.362634;-0.5745599;4.927423;0.5663234;-0.05071658;5.029419;1.349255;0.458404;4.613823;1.327466;0.7436709;4.457266;1.362634;0.9304148;3.658781;1.868423;0.1966102;3.231312;1.448199;-0.1516361;2.508086;1.088778;0.03447867;1.321853;0.2526748;0;0;0;-0.1516361;2.508086;1.088778;0.03447867;1.321853;0.2526748;0;0;0
64868.8635;NotLabelled;NONE;16384;0.7825154;0.4252077;0.2506925;0.3795014;4;1;-1;3348;-1908;1579;65536;-0.6066482;-0.2437673;0.7463356;0.1246537;0;-2;0;1971;-538;-3629;8192;0.6121883;-0.6752799;-0.4113573;-0.002770083;0;-3;0;2336;3473;335;32768;0.4418283;-0.7411603;0.2271468;-0.4515235;-3;0;0;3150;1855;2093;256;0.2229917;-0.2894737;-0.5969529;-0.7142317;-2;0;1;165;4030;-787;128;-0.1121884;0.2950138;0.5761772;0.7539234;1;1;-1;-751;3907;1374;4;-0.5734072;0.1814404;-0.4612188;-0.6523502;0;2;0;2241;3238;312;16;0.7468483;-0.6481994;0.1398892;0.04986149;0;-1;-1;373;4088;-578;2;0.5277008;-0.6730689;-0.3891967;-0.3421052;-1;0;0;739;4120;-617;8;0.4390582;-0.8612219;-0.2479224;-0.06371191;0;4;0;-1421;3257;2013;0.1516733;2.548636;1.098092;0.1576473;3.093054;1.13266;0.1628999;3.571725;1.161026;0.1814485;4.291747;1.301337;-0.06872892;4.62572;1.326267;-0.4137763;4.484848;1.361434;-0.5780169;4.926158;0.5635616;-0.05597931;5.028155;1.347698;0.4514426;4.612323;1.326266;0.7364115;4.455224;1.361433;0.9220111;3.656738;1.867643;0.1875155;3.23052;1.447356;-0.160575;2.507133;1.08757;0.03209867;1.322215;0.2510865;0;0;0;-0.160575;2.507133;1.08757;0.03209867;1.322215;0.2510865;0;0;0
64889.7156;NotLabelled;NONE;16384;0.7825154;0.4252077;0.2506925;0.3795014;3;1;-1;3342;-1864;1507;65536;-0.6066482;-0.2437673;0.7463356;0.1246537;0;-2;0;2015;-594;-3599;8192;0.6121883;-0.6761217;-0.4099723;-0.002770083;0;-2;0;2334;3433;299;32768;0.4418283;-0.7411603;0.2271468;-0.4515235;-3;0;0;3102;1921;2025;256;0.2229917;-0.2894737;-0.5969529;-0.7142317;-1;-1;1;155;3988;-837;128;-0.1121884;0.2950138;0.5761772;0.7539234;0;1;0;-765;3911;1320;4;-0.5734072;0.1814404;-0.4612188;-0.6523502;1;0;0;2259;3252;232;16;0.7471064;-0.6481994;0.1385041;0.04986149;0;1;0;157;4038;-628;2;0.5277008;-0.6730689;-0.3891967;-0.3421052;-1;0;0;705;4106;-609;8;0.4390582;-0.8611184;-0.2479224;-0.06509695;0;2;0;-1505;3253;1965;0.1517134;2.548636;1.098099;0.1576873;3.093054;1.132666;0.1629399;3.571725;1.161032;0.1824498;4.292189;1.298923;-0.06728512;4.626573;1.322753;-0.4125147;4.486275;1.358422;-0.5748407;4.926171;0.5593787;-0.05349457;5.030071;1.343726;0.4528683;4.612491;1.322753;0.737633;4.455134;1.358422;0.9232513;3.65665;1.864625;0.18874;3.230432;1.444365;-0.160535;2.507133;1.087576;0.03210769;1.322215;0.2510853;0;0;0;-0.160535;2.507133;1.087576;0.03210769;1.322215;0.2510853;0;0;0
64911.8213;NotLabelled;NONE;16384;0.7832664;0.4238227;0.2506925;0.3795014;1;1;0;3348;-1920;1505;65536;-0.6066482;-0.2423823;0.7470165;0.1232687;0;0;0;2001;-504;-3623;8192;0.6121883;-0.6761217;-0.4099723;-0.002770083;0;-2;0;2360;3417;289;32768;0.4418283;-0.7411603;0.2271468;-0.4515235;-1;0;0;2962;1873;2081;256;0.2229917;-0.2894737;-0.5969529;-0.7142317;-1;-1;1;97;4006;-835;128;-0.1121884;0.2950138;0.5775623;0.7528628;1;2;0;-689;3855;1294;4;-0.5720221;0.1814404;-0.4612188;-0.653565;2;2;-1;2477;3384;330;16;0.7471975;-0.6481994;0.1385041;0.04847645;0;1;0;581;4052;-554;2;0.5277008;-0.6730689;-0.3891967;-0.3421052;-1;1;-1;631;3984;-581;8;0.4390582;-0.8611184;-0.2479224;-0.06509695;-1;3;0;-1459;3231;2031;0.149036;2.5489;1.097032;0.1550101;3.093318;1.131599;0.1602625;3.57199;1.159965;0.1797724;4.292454;1.297856;-0.0699625;4.626838;1.321686;-0.4151921;4.48654;1.357355;-0.577518;4.926436;0.5583118;-0.05617177;5.030336;1.342659;0.4501908;4.612756;1.321686;0.7349559;4.4554;1.357355;0.9193761;3.655936;1.862451;0.1848652;3.229718;1.44219;-0.1632122;2.507398;1.086509;0.0294304;1.32248;0.2500183;0;0;0;-0.1632122;2.507398;1.086509;0.0294304;1.32248;0.2500183;0;0;0
64931.7641;NotLabelled;NONE;16384;0.783936;0.4238227;0.2506925;0.3781163;0;1;0;3256;-1926;1499;65536;-0.6066482;-0.2423823;0.7470165;0.1232687;-1;0;0;2041;-480;-3585;8192;0.6121883;-0.6761259;-0.4099723;-0.001385042;0;0;0;2426;3367;253;32768;0.4404432;-0.7419842;0.2271468;-0.4515235;0;3;0;3000;1927;2079;256;0.2229917;-0.2908587;-0.5969529;-0.7136688;0;0;0;171;4006;-745;128;-0.1121884;0.2950138;0.5775623;0.7528628;2;3;0;-663;3851;1234;4;-0.5720221;0.1814404;-0.4612188;-0.653565;0;4;0;2385;3426;404;16;0.7471975;-0.6481994;0.1385041;0.04847645;0;-3;0;705;3960;-710;2;0.5290859;-0.6704688;-0.3905817;-0.3434903;-1;2;-2;661;4018;-569;8;0.4376731;-0.8614235;-0.2493075;-0.06509695;0;-1;0;-1571;3271;1997;0.1490495;2.549482;1.096846;0.1550248;3.094013;1.129587;0.1602784;3.572777;1.156347;0.1797959;4.293241;1.294237;-0.06993771;4.627624;1.31808;-0.4151652;4.487327;1.353769;-0.5756092;4.928485;0.5550408;-0.05479538;5.032592;1.339714;0.4502156;4.613542;1.318052;0.7349825;4.456187;1.353705;0.9194391;3.655033;1.856103;0.1849053;3.228815;1.435883;-0.1631992;2.507945;1.086475;0.03124152;1.322122;0.2516831;0;0;0;-0.1631992;2.507945;1.086475;0.03124152;1.322122;0.2516831;0;0;0
64952.7424;NotLabelled;NONE;16384;0.783936;0.4238227;0.2506925;0.3781163;0;1;0;3174;-1896;1457;65536;-0.6066482;-0.2423823;0.7470165;0.1232687;0;1;0;1927;-434;-3475;8192;0.6121883;-0.6761259;-0.4099723;-0.001385042;0;0;0;2352;3355;265;32768;0.4404432;-0.7415627;0.2257618;-0.4529086;0;2;1;3000;1911;2019;256;0.2216066;-0.2908587;-0.5969529;-0.7141001;-1;0;0;157;3932;-749;128;-0.1121884;0.2950138;0.5775623;0.7528628;2;3;0;-637;3821;1220;4;-0.5720221;0.1814404;-0.4612188;-0.653565;0;2;0;2309;3314;334;16;0.7471975;-0.6481994;0.1385041;0.04847645;1;-3;0;375;3972;-672;2;0.5290859;-0.6704688;-0.3905817;-0.3434903;0;2;0;651;4026;-507;8;0.4376731;-0.8614235;-0.2493075;-0.06509695;0;0;0;-1613;3223;2033;0.1464857;2.549482;1.096458;0.1524609;3.094013;1.129199;0.1577145;3.572777;1.155959;0.1785971;4.2932;1.293857;-0.07050025;4.628058;1.31769;-0.4159966;4.48842;1.353358;-0.5721262;4.928064;0.552942;-0.05316514;5.032171;1.338842;0.4496253;4.612986;1.31769;0.73409;4.455088;1.353358;0.9174926;3.656716;1.860546;0.1822942;3.231755;1.440213;-0.1657631;2.507944;1.086086;0.03064734;1.322122;0.251756;0;0;0;-0.1657631;2.507944;1.086086;0.03064734;1.322122;0.251756;0;0;0
64972.7688;NotLabelled;NONE;16384;0.783936;0.4238227;0.2506925;0.3781163;-1;0;0;3160;-1912;1451;65536;-0.6066482;-0.2423823;0.7470165;0.1232687;0;0;1;1979;-408;-3413;8192;0.6108033;-0.6773774;-0.4099723;-0.001385042;0;0;0;2328;3225;289;32768;0.4404432;-0.7415627;0.2257618;-0.4529086;1;1;0;2970;1871;1987;256;0.2216066;-0.2908587;-0.5969529;-0.7141001;0;0;0;133;3892;-741;128;-0.1121884;0.2950138;0.5775623;0.7528628;1;3;0;-657;3819;1250;4;-0.5734072;0.1814404;-0.4612188;-0.6523502;-1;0;0;2303;3262;286;16;0.7471064;-0.6481994;0.1385041;0.04986149;0;-4;0;477;3990;-610;2;0.5290859;-0.6704688;-0.3905817;-0.3434903;0;0;0;597;4002;-583;8;0.4376731;-0.8614235;-0.2493075;-0.06509695;0;-1;0;-1441;3205;1907;0.1485144;2.549482;1.096766;0.1544896;3.094013;1.129507;0.1597432;3.572777;1.156266;0.1819077;4.292987;1.295076;-0.06659192;4.628261;1.319324;-0.4123386;4.489193;1.354802;-0.5732998;4.928838;0.5553442;-0.0528723;5.032945;1.340274;0.4535057;4.612258;1.319323;0.7376864;4.453807;1.354802;0.924149;3.655435;1.860872;0.1894666;3.230233;1.439882;-0.1637343;2.507945;1.086394;0.03111746;1.322122;0.2516983;0;0;0;-0.1637343;2.507945;1.086394;0.03111746;1.322122;0.2516983;0;0;0
64994.7884;NotLabelled;NONE;16384;0.783936;0.4238227;0.2506925;0.3781163;-1;0;0;3202;-1882;1383;65536;-0.6066482;-0.2423823;0.7470165;0.1232687;0;0;0;2001;-390;-3413;8192;0.6108033;-0.6773774;-0.4099723;-0.001385042;0;0;0;2336;3255;333;32768;0.4404432;-0.7415627;0.2257618;-0.4529086;1;0;0;3002;1893;2047;256;0.2216066;-0.2908587;-0.5969529;-0.7141001;0;0;0;179;3890;-717;128;-0.1108033;0.2950138;0.5789474;0.7520036;1;2;1;-675;3773;1220;4;-0.5720221;0.1814404;-0.4626039;-0.6525854;0;0;0;2269;3170;332;16;0.7468483;-0.6481994;0.1398892;0.04986149;1;-8;0;475;4034;-460;2;0.5290859;-0.6704688;-0.3905817;-0.3434903;0;-1;-1;575;3962;-473;8;0.4376731;-0.8618231;-0.2479224;-0.06509695;-1;-5;-1;-1339;3145;1843;0.1485607;2.548935;1.096809;0.154536;3.093466;1.12955;0.1597896;3.57223;1.15631;0.181954;4.29244;1.295119;-0.06654567;4.627714;1.319367;-0.4122922;4.488646;1.354846;-0.5717605;4.928291;0.5550888;-0.05133331;5.032398;1.340018;0.4535521;4.611711;1.319367;0.7377327;4.45326;1.354845;0.9202247;3.655232;1.862904;0.1855424;3.230031;1.441914;-0.1636879;2.507397;1.086437;0.02932104;1.322479;0.2500312;0;0;0;-0.1636879;2.507397;1.086437;0.02932104;1.322479;0.2500312;0;0;0
65014.7667;NotLabelled;NONE;16384;0.783936;0.4238227;0.2506925;0.3781163;0;0;0;3158;-1930;1337;65536;-0.6080332;-0.2423823;0.7458895;0.1232687;1;1;0;2053;-518;-3533;8192;0.6108033;-0.6773774;-0.4099723;-0.001385042;0;2;0;2316;3361;309;32768;0.4418283;-0.7407383;0.2257618;-0.4529086;1;0;0;2968;1845;2027;256;0.2216066;-0.2908587;-0.5969529;-0.7141001;-1;0;0;121;3920;-741;128;-0.1108033;0.2936288;0.5789474;0.7525455;1;3;2;-659;3815;1222;4;-0.5720221;0.1814404;-0.4612188;-0.653565;0;0;1;2453;3344;422;16;0.7473348;-0.6468144;0.1426593;0.05263158;0;-14;0;643;4130;-1172;2;0.5290859;-0.6712738;-0.3891967;-0.3434903;0;0;-3;517;3914;-505;8;0.4376731;-0.8618231;-0.2479224;-0.06509695;-1;-7;-1;-1511;3113;1925;0.1540782;2.550924;1.095245;0.1600544;3.095538;1.12658;0.1653088;3.574369;1.152104;0.1874802;4.29458;1.290912;-0.06101805;4.629852;1.315173;-0.4067628;4.490785;1.350669;-0.5662898;4.932493;0.5520613;-0.0458225;5.0366;1.336964;0.4590797;4.61385;1.315146;0.7432621;4.455399;1.35061;0.9257913;3.656063;1.856594;0.1910873;3.230861;1.43564;-0.1581708;2.50936;1.08499;0.03201083;1.322215;0.2510976;0;0;0;-0.1581708;2.50936;1.08499;0.03201083;1.322215;0.2510976;0;0;0
65035.735;NotLabelled;NONE;16384;0.7832664;0.4238227;0.2506925;0.3795014;0;-1;0;3180;-1912;1387;65536;-0.6066482;-0.2423823;0.7470165;0.1232687;2;1;0;2061;-438;-3527;8192;0.6108033;-0.6765372;-0.4113573;-0.001385042;0;2;0;2350;3325;317;32768;0.4418283;-0.7407383;0.2257618;-0.4529086;1;1;0;3006;1893;2065;256;0.2216066;-0.2894737;-0.5969529;-0.7146627;0;0;-1;105;3964;-729;128;-0.1108033;0.2936288;0.5789474;0.7525455;1;1;1;-643;3865;1150;4;-0.5720221;0.1814404;-0.4612188;-0.653565;0;-4;4;2465;3262;134;16;0.747236;-0.6468144;0.1426593;0.05401662;-1;-1;-1;-485;4082;-786;2;0.5290859;-0.6705633;-0.3891967;-0.3448753;-1;0;-3;547;4012;-467;8;0.4376731;-0.8623238;-0.2465374;-0.06371191;0;-3;-1;-1591;3263;2087;0.1483624;2.549101;1.098802;0.1543386;3.093718;1.130082;0.1595931;3.572551;1.155558;0.1817572;4.292762;1.294367;-0.06674242;4.628034;1.318615;-0.4124891;4.488967;1.354093;-0.5719538;4.928612;0.5543352;-0.04887277;5.033618;1.337379;0.4533554;4.612032;1.318615;0.7375361;4.45358;1.354094;0.9200257;3.655554;1.862154;0.1870032;3.229097;1.439543;-0.1638866;2.507536;1.088551;0.03096617;1.321713;0.2538555;0;0;0;-0.1638866;2.507536;1.088551;0.03096617;1.321713;0.2538555;0;0;0
65055.7338;NotLabelled;NONE;16384;0.7832664;0.4238227;0.2506925;0.3795014;1;-1;-1;3172;-1864;1331;65536;-0.6066482;-0.2423823;0.7470165;0.1232687;2;1;0;2015;-492;-3479;8192;0.6108033;-0.6765372;-0.4113573;-0.001385042;0;2;0;2300;3313;325;32768;0.4418283;-0.741159;0.2243767;-0.4529086;2;0;0;3060;1893;1997;256;0.2216066;-0.2894737;-0.5969529;-0.7146627;0;0;-2;81;3970;-755;128;-0.1121884;0.2936288;0.5789474;0.7523403;1;0;0;-683;3851;1274;4;-0.5720221;0.1800554;-0.4612188;-0.6539479;2;-1;3;2399;3240;130;16;0.7474991;-0.6468144;0.1412742;0.05401662;-1;10;0;121;4020;-632;2;0.5290859;-0.6705633;-0.3891967;-0.3448753;0;-1;0;611;4032;-633;8;0.4376731;-0.8623238;-0.2465374;-0.06371191;0;-1;0;-1439;3271;1965;0.1490735;2.549461;1.097515;0.1550497;3.094078;1.128795;0.160304;3.572912;1.15427;0.1810971;4.293165;1.293072;-0.06804031;4.627964;1.317316;-0.4135216;4.488239;1.352796;-0.5754014;4.926715;0.5528818;-0.05316603;5.030822;1.33661;0.452087;4.612952;1.317316;0.7365688;4.455042;1.352796;0.921426;3.657993;1.861535;0.187431;3.231536;1.440616;-0.1631755;2.507895;1.087263;0.02975189;1.322073;0.252121;0;0;0;-0.1631755;2.507895;1.087263;0.02975189;1.322073;0.252121;0;0;0
65076.7678;NotLabelled;NONE;16384;0.7832664;0.4238227;0.2506925;0.3795014;1;-2;-2;3174;-1882;1357;65536;-0.6066482;-0.2423823;0.7470165;0.1232687;3;1;-1;2019;-538;-3533;8192;0.6108033;-0.6765372;-0.4113573;-0.001385042;-1;2;-1;2254;3337;395;32768;0.4432133;-0.7403316;0.2243767;-0.4529086;2;-1;0;3078;1919;1997;256;0.2229917;-0.2894737;-0.5969529;-0.7142317;0;0;-1;121;3992;-763;128;-0.1121884;0.2936288;0.5789474;0.7523403;0;0;0;-699;3943;1384;4;-0.5720221;0.1814404;-0.4598338;-0.6545402;2;0;2;2299;3274;264;16;0.7474991;-0.6468144;0.1412742;0.05401662;-1;-4;0;711;4036;-624;2;0.5290859;-0.6705633;-0.3891967;-0.3448753;1;-1;0;695;4080;-549;8;0.4376731;-0.8623238;-0.2465374;-0.06371191;0;-5;-1;-1427;3257;1983;0.1471849;2.547924;1.099171;0.1531614;3.092565;1.130028;0.1584159;3.571418;1.155131;0.1792091;4.291672;1.293933;-0.06992847;4.626471;1.318177;-0.4154096;4.486746;1.353657;-0.577278;4.925222;0.5537403;-0.05504274;5.029329;1.337468;0.4501989;4.611459;1.318177;0.7346807;4.453549;1.353657;0.9195305;3.6565;1.862398;0.1861223;3.228501;1.442021;-0.1650641;2.50635;1.088955;0.02706;1.32233;0.2510754;0;0;0;-0.1650641;2.50635;1.088955;0.02706;1.32233;0.2510754;0;0;0
65096.7783;NotLabelled;NONE;16384;0.7825938;0.4238227;0.2506925;0.3808864;1;-4;-1;3320;-1952;1397;65536;-0.6066482;-0.2437673;0.746793;0.1218837;2;2;-2;2081;-550;-3651;8192;0.6108033;-0.6756931;-0.4127424;-0.001385042;-1;2;-1;2294;3449;415;32768;0.4432133;-0.7403316;0.2243767;-0.4529086;2;-3;0;3096;1917;2039;256;0.2229917;-0.2894737;-0.5969529;-0.7142317;0;0;-2;47;4000;-837;128;-0.1121884;0.2936288;0.5789474;0.7523403;0;0;2;-705;3911;1318;4;-0.5720221;0.1814404;-0.4598338;-0.6545402;1;0;0;2307;3346;354;16;0.7474991;-0.6468144;0.1412742;0.05401662;0;-9;0;499;4008;-676;2;0.5290859;-0.6705633;-0.3891967;-0.3448753;1;0;-2;625;4056;-397;8;0.4376731;-0.8627186;-0.2451524;-0.06371191;-1;-6;-1;-1475;3239;1945;0.1397358;2.548389;1.096931;0.1457122;3.09303;1.127788;0.1509667;3.571883;1.152891;0.1704767;4.292347;1.290782;-0.07925826;4.62673;1.314612;-0.4244878;4.486433;1.350281;-0.5833796;4.92491;0.5497685;-0.06260848;5.029017;1.33447;0.4408951;4.612648;1.314611;0.72566;4.455293;1.350281;0.9086163;3.658243;1.859706;0.1776626;3.228994;1.436339;-0.1725132;2.506815;1.086715;0.02659123;1.32233;0.2511254;0;0;0;-0.1725132;2.506815;1.086715;0.02659123;1.32233;0.2511254;0;0;0
65117.7181;NotLabelled;NONE;16384;0.7831097;0.4224377;0.2493075;0.3822715;1;-3;0;3402;-1944;1391;65536;-0.6066482;-0.2437673;0.746793;0.1218837;2;2;-1;2109;-534;-3573;8192;0.6108033;-0.6756888;-0.4127424;-0.002770083;-2;2;-1;2254;3465;459;32768;0.4432133;-0.7403316;0.2243767;-0.4529086;1;-2;0;3024;1855;2055;256;0.2229917;-0.2880886;-0.5955678;-0.715946;1;0;-3;75;4040;-815;128;-0.1121884;0.2936288;0.5789474;0.7523403;0;2;1;-657;3899;1322;4;-0.5734072;0.1800554;-0.4598338;-0.6537103;0;1;2;2451;3280;374;16;0.7471346;-0.6468144;0.1426593;0.05540166;0;-1;2;557;4040;-498;2;0.5304709;-0.6694682;-0.3891967;-0.3448753;0;0;-3;619;3986;-467;8;0.4376731;-0.8628197;-0.2451524;-0.06232687;-1;-8;-2;-1521;3237;2015;0.1397358;2.548389;1.096931;0.1457122;3.09303;1.127788;0.1509667;3.571883;1.152891;0.1704767;4.292347;1.290782;-0.07925826;4.62673;1.314612;-0.4244878;4.486433;1.350281;-0.5854412;4.923738;0.5495399;-0.0655278;5.031451;1.334323;0.4408951;4.612648;1.314611;0.72566;4.455293;1.350281;0.9107602;3.659226;1.860468;0.1798065;3.229977;1.437101;-0.1725132;2.506815;1.086715;0.02659123;1.32233;0.2511254;0;0;0;-0.1725132;2.506815;1.086715;0.02659123;1.32233;0.2511254;0;0;0
65137.8612;NotLabelled;NONE;16384;0.7831097;0.4224377;0.2493075;0.3822715;0;-3;0;3306;-1930;1479;65536;-0.6066482;-0.2451524;0.7463395;0.1218837;1;3;-1;2079;-562;-3479;8192;0.6121883;-0.6744342;-0.4127424;-0.002770083;-3;1;-1;2308;3381;325;32768;0.4445983;-0.7395006;0.2243767;-0.4529086;3;-1;-1;3058;1919;1959;256;0.2229917;-0.2880886;-0.5955678;-0.715946;1;0;-3;71;3956;-803;128;-0.1121884;0.2922437;0.5789474;0.7528793;-1;4;2;-627;3853;1372;4;-0.5734072;0.1800554;-0.4584487;-0.6546824;0;2;2;2299;3302;420;16;0.7468688;-0.6468144;0.1440443;0.05540166;0;-23;0;931;4022;-374;2;0.5304709;-0.6694682;-0.3891967;-0.3448753;0;0;-1;623;3964;-467;8;0.4376731;-0.863212;-0.2437673;-0.06232687;0;-10;-1;-1577;3267;2009;0.1457379;2.545782;1.101138;0.1517144;3.090423;1.131995;0.1569689;3.569276;1.157098;0.1741498;4.289334;1.297402;-0.07666159;4.62283;1.322329;-0.4214409;4.481304;1.357497;-0.5824605;4.917343;0.5560787;-0.06076866;5.025055;1.339681;0.4435343;4.610421;1.322329;0.7288011;4.453865;1.357497;0.9148899;3.656699;1.865605;0.1829782;3.227451;1.443897;-0.1665111;2.504208;1.090922;0.02805185;1.322428;0.2504461;0;0;0;-0.1665111;2.504208;1.090922;0.02805185;1.322428;0.2504461;0;0;0
65158.716;NotLabelled;NONE;16384;0.7823609;0.4238227;0.2493075;0.3822715;0;-3;1;3252;-1898;1441;65536;-0.6066482;-0.2451524;0.7463395;0.1218837;0;4;-1;1959;-506;-3479;8192;0.6121883;-0.6744342;-0.4127424;-0.002770083;-2;2;-1;2338;3341;383;32768;0.4459834;-0.7386662;0.2243767;-0.4529086;3;-1;-1;3188;1943;1877;256;0.2229917;-0.2867036;-0.5955678;-0.7165017;1;0;-3;-5;3894;-865;128;-0.1108033;0.2908587;0.5775623;0.7546824;-3;3;2;-615;3843;1296;4;-0.5734072;0.1800554;-0.4598338;-0.6537103;-3;-1;1;2223;3344;448;16;0.7461184;-0.6468144;0.1468144;0.05817174;-1;-16;-1;405;4186;-1150;2;0.5304709;-0.669557;-0.3878116;-0.3462604;0;-2;0;525;4010;-673;8;0.4376731;-0.8641849;-0.2409972;-0.05955679;0;-5;-1;-1571;3305;2057;0.1438261;2.544181;1.102979;0.1498026;3.088825;1.133782;0.1550573;3.56768;1.158839;0.1722381;4.287739;1.299142;-0.07857341;4.621235;1.324069;-0.4233527;4.479709;1.359237;-0.5825528;4.915748;0.5574554;-0.06100893;5.025157;1.340921;0.4416225;4.608827;1.324069;0.7268895;4.45227;1.359237;0.9148537;3.654767;1.866124;0.1846136;3.224274;1.442788;-0.168423;2.502606;1.092767;0.03074857;1.322172;0.2514806;0;0;0;-0.168423;2.502606;1.092767;0.03074857;1.322172;0.2514806;0;0;0
65179.8313;NotLabelled;NONE;16384;0.7816827;0.4238227;0.2493075;0.3836565;-1;-3;1;3260;-1846;1413;65536;-0.6052631;-0.2451524;0.7474632;0.1218837;0;5;0;2009;-536;-3471;8192;0.6121883;-0.6735846;-0.4141274;-0.002770083;-2;4;-2;2370;3263;421;32768;0.4459834;-0.7386662;0.2243767;-0.4529086;4;-3;0;3198;1963;1897;256;0.2243767;-0.2867036;-0.5941828;-0.7172189;3;-1;-3;-35;4006;-803;128;-0.1108033;0.2908587;0.5775623;0.7546824;-3;-3;0;-651;3921;1314;4;-0.5734072;0.1800554;-0.4598338;-0.6537103;-1;-6;1;2245;3226;220;16;0.7470961;-0.6454294;0.1468144;0.06094183;-1;-2;-1;-373;4042;-746;2;0.5304709;-0.669557;-0.3878116;-0.3462604;2;-5;0;537;4122;-579;8;0.4376731;-0.8641849;-0.2409972;-0.05955679;0;-2;0;-1595;3323;2057;0.1527483;2.545686;1.101431;0.1587234;3.090202;1.134434;0.1639768;3.568953;1.161424;0.1797908;4.289042;1.301722;-0.07165319;4.622062;1.326646;-0.4161631;4.479882;1.361815;-0.579183;4.917344;0.5615773;-0.05583632;5.026753;1.34384;0.4485655;4.610641;1.326646;0.734129;4.454626;1.361815;0.9232832;3.657124;1.868259;0.1937456;3.225396;1.44497;-0.1595003;2.504154;1.091038;0.03312652;1.322373;0.2501161;0;0;0;-0.1595003;2.504154;1.091038;0.03312652;1.322373;0.2501161;0;0;0
65199.7137;NotLabelled;NONE;16384;0.7816827;0.4238227;0.2493075;0.3836565;-2;-3;0;3262;-1862;1379;65536;-0.6052631;-0.2465374;0.7467802;0.1232687;0;5;1;2115;-434;-3485;8192;0.6135734;-0.6723161;-0.4141274;-0.004155125;-2;5;-2;2236;3309;515;32768;0.4473684;-0.7378282;0.2243767;-0.4529086;4;-5;0;3058;1945;1961;256;0.2243767;-0.2867036;-0.5941828;-0.7172189;2;-2;-3;-7;3958;-827;128;-0.1121884;0.2922437;0.5761772;0.7550014;-2;-4;0;-715;3923;1330;4;-0.5720221;0.1800554;-0.4598338;-0.6549226;0;-5;0;2291;3212;126;16;0.7461686;-0.6468144;0.1454294;0.06094183;0;6;0;257;4078;-626;2;0.5304709;-0.6710709;-0.3864266;-0.3448753;1;-4;0;661;4108;-559;8;0.4376731;-0.8641849;-0.2409972;-0.05955679;0;-2;-1;-1451;3325;2003;0.1443156;2.545699;1.101813;0.1502908;3.090214;1.134815;0.1555441;3.568965;1.161805;0.1691193;4.288806;1.303603;-0.08335727;4.620992;1.32921;-0.4274261;4.477672;1.364067;-0.5894585;4.913961;0.5629886;-0.07024693;5.022468;1.348128;0.4368944;4.611184;1.329209;0.7229387;4.455983;1.364067;0.9123094;3.659469;1.871983;0.1835764;3.22774;1.44731;-0.1679331;2.504166;1.091419;0.02628966;1.322385;0.2508653;0;0;0;-0.1679331;2.504166;1.091419;0.02628966;1.322385;0.2508653;0;0;0
65220.7298;NotLabelled;NONE;16384;0.7814421;0.4238227;0.2479224;0.3850415;-3;-3;-2;3310;-1992;1397;65536;-0.6052631;-0.2479224;0.7463216;0.1232687;0;5;1;2213;-496;-3571;8192;0.6135734;-0.6723161;-0.4141274;-0.004155125;-2;3;-2;2132;3381;541;32768;0.4487534;-0.7365635;0.2257618;-0.4529086;2;-5;0;2978;1891;1991;256;0.2257618;-0.2867036;-0.5927978;-0.71793;4;-2;-3;35;4004;-843;128;-0.1121884;0.2922437;0.5761772;0.7550014;-3;-3;0;-649;3977;1320;4;-0.5720221;0.1800554;-0.4598338;-0.6549226;1;-6;0;2383;3254;232;16;0.7467082;-0.6454294;0.1481994;0.06232687;0;-15;-1;561;3988;-656;2;0.5304709;-0.6710709;-0.3864266;-0.3448753;0;-3;0;691;4106;-495;8;0.4376731;-0.8641849;-0.2409972;-0.05955679;0;0;0;-1613;3265;1979;0.1425222;2.547515;1.095206;0.1484963;3.09194;1.129666;0.1537489;3.570617;1.157937;0.167324;4.290458;1.299735;-0.08515257;4.622644;1.325341;-0.4292213;4.479324;1.360199;-0.5912538;4.915615;0.5591209;-0.07147098;5.023907;1.343911;0.4350989;4.612837;1.325341;0.7211436;4.457635;1.360199;0.9122411;3.659702;1.865232;0.1851941;3.226746;1.438924;-0.1697261;2.506011;1.084693;0.02633607;1.323329;0.2458353;0;0;0;-0.1697261;2.506011;1.084693;0.02633607;1.323329;0.2458353;0;0;0
65242.8787;NotLabelled;NONE;16384;0.7806894;0.4252077;0.2479224;0.3850415;-4;-4;-2;3372;-2004;1403;65536;-0.6052631;-0.2479224;0.7460915;0.1246537;-1;4;2;2173;-612;-3543;8192;0.6149584;-0.6710495;-0.4141274;-0.004155125;-3;0;-1;2192;3467;459;32768;0.4501385;-0.7365687;0.2257618;-0.4515235;0;-3;-2;3162;1881;2003;256;0.2257618;-0.2867036;-0.5927978;-0.71793;2;-2;-3;73;4056;-841;128;-0.1121884;0.2922437;0.5761772;0.7550014;-4;-4;0;-647;3911;1260;4;-0.5706371;0.1786704;-0.4598338;-0.6565083;-2;0;0;2503;3396;374;16;0.7465914;-0.6454294;0.1481994;0.06371191;0;0;0;237;4028;-526;2;0.5304709;-0.6710709;-0.3864266;-0.3448753;0;-2;0;727;4064;-509;8;0.4376731;-0.8641849;-0.2409972;-0.05955679;-1;2;0;-1551;3203;2055;0.1413225;2.546678;1.099258;0.1472965;3.091103;1.133717;0.1525491;3.569779;1.161988;0.1638863;4.289365;1.305277;-0.08962059;4.620712;1.331561;-0.4332441;4.476253;1.366107;-0.592135;4.912704;0.5644878;-0.07398915;5.022692;1.350124;0.4306589;4.612518;1.33156;0.7171825;4.458134;1.366108;0.9073228;3.660201;1.871502;0.1821831;3.227571;1.441629;-0.1709259;2.505173;1.088744;0.02672607;1.322491;0.25026;0;0;0;-0.1709259;2.505173;1.088744;0.02672607;1.322491;0.25026;0;0;0
65264.7406;NotLabelled;NONE;16384;0.7795631;0.4252077;0.2493075;0.3864266;-4;-2;-1;3520;-1868;1319;65536;-0.6066482;-0.2493075;0.7445033;0.1246537;-2;4;2;2173;-632;-3467;8192;0.6149584;-0.6710495;-0.4141274;-0.004155125;-4;-1;-2;2118;3351;457;32768;0.4501385;-0.7365687;0.2257618;-0.4515235;0;-3;-2;3126;1855;1935;256;0.2257618;-0.2867036;-0.5914127;-0.7190714;1;-4;-2;27;4022;-863;128;-0.1135734;0.2936288;0.5734072;0.7563646;-4;-2;0;-641;3887;1338;4;-0.5720221;0.1786704;-0.4598338;-0.6553019;-2;4;0;2435;3282;228;16;0.7465914;-0.6454294;0.1481994;0.06371191;0;-2;0;399;4022;-650;2;0.5304709;-0.6710709;-0.3864266;-0.3448753;-1;0;1;683;4002;-423;8;0.4376731;-0.8641849;-0.2409972;-0.05955679;0;0;0;-1375;3189;2055;0.138506;2.546118;1.098631;0.14448;3.090543;1.133091;0.1497326;3.56922;1.161362;0.1610698;4.288805;1.30465;-0.09243703;4.620153;1.330934;-0.4360607;4.475694;1.365481;-0.596903;4.913558;0.5650227;-0.07803118;5.021643;1.350444;0.4278424;4.611959;1.330934;0.714366;4.457575;1.365481;0.907554;3.659333;1.869232;0.1833847;3.224174;1.440277;-0.1737423;2.504614;1.088117;0.0249255;1.322841;0.2485928;0;0;0;-0.1737423;2.504614;1.088117;0.0249255;1.322841;0.2485928;0;0;0
65285.726;NotLabelled;NONE;16384;0.7788061;0.4265928;0.2493075;0.3864266;-4;0;0;3434;-1868;1367;65536;-0.6066482;-0.2493075;0.7445033;0.1246537;-2;4;2;2149;-564;-3459;8192;0.6163435;-0.6706319;-0.4127424;-0.004155125;-4;-1;-2;2164;3291;461;32768;0.4501385;-0.7361428;0.2271468;-0.4515235;-1;-4;-2;3042;1837;1853;256;0.2271468;-0.2867036;-0.5914127;-0.7186351;1;-5;-2;19;3976;-871;128;-0.1135734;0.2936288;0.5734072;0.7563646;-4;-2;1;-631;3765;1368;4;-0.5720221;0.1786704;-0.4598338;-0.6553019;0;3;0;2275;3236;248;16;0.7465914;-0.6454294;0.1481994;0.06371191;0;-6;0;197;4002;-650;2;0.5304709;-0.6710709;-0.3864266;-0.3448753;0;0;0;539;3958;-611;8;0.4376731;-0.8641849;-0.2409972;-0.05955679;-1;0;0;-1407;3185;1987;0.1403122;2.545155;1.100593;0.1462839;3.089363;1.138321;0.1515346;3.567862;1.169466;0.1619223;4.286978;1.31516;-0.09201962;4.617904;1.342537;-0.4354555;4.472879;1.376583;-0.5990517;4.90823;0.5753118;-0.07769823;5.018932;1.358723;0.4282702;4.610392;1.342537;0.714994;4.456266;1.376583;0.908181;3.658026;1.880334;0.1840208;3.222867;1.451363;-0.1719354;2.503714;1.08981;0.02492028;1.322841;0.248594;0;0;0;-0.1719354;2.503714;1.08981;0.02492028;1.322841;0.248594;0;0;0
65306.7435;NotLabelled;NONE;16384;0.7794917;0.4265928;0.2493075;0.3850415;-5;0;0;3290;-1898;1325;65536;-0.6066482;-0.2506925;0.7438047;0.1260388;-3;5;2;2101;-476;-3409;8192;0.6163435;-0.6706319;-0.4127424;-0.004155125;-5;-1;-2;2230;3319;403;32768;0.4515235;-0.7361428;0.2271468;-0.4501385;-1;-5;-2;2974;1805;1897;256;0.2271468;-0.2867036;-0.5900277;-0.7197727;2;-4;-2;5;3886;-835;128;-0.1135734;0.2936288;0.5720221;0.7574126;-3;-1;0;-627;3801;1340;4;-0.5720221;0.1786704;-0.4598338;-0.6553019;0;0;0;2225;3200;196;16;0.7461956;-0.6454294;0.1495845;0.06509695;0;-4;0;249;4008;-592;2;0.5304709;-0.6710709;-0.3864266;-0.3448753;0;-3;0;627;3974;-595;8;0.4362881;-0.864885;-0.2409972;-0.05955679;-1;-2;0;-1469;3183;2021;0.1382744;2.545155;1.10027;0.1442462;3.089363;1.137998;0.1494969;3.567862;1.169143;0.1585971;4.287182;1.313912;-0.09593755;4.617686;1.340869;-0.439112;4.472091;1.375108;-0.6016545;4.908845;0.5743865;-0.08176708;5.019547;1.358771;0.4243647;4.611107;1.340869;0.7113652;4.457541;1.375107;0.9045111;3.65801;1.876823;0.1805564;3.224399;1.445942;-0.1739731;2.503714;1.089487;0.02445532;1.32284;0.2486403;0;0;0;-0.1739731;2.503714;1.089487;0.02445532;1.32284;0.2486403;0;0;0
65327.7122;NotLabelled;NONE;16384;0.7782874;0.4279778;0.2506925;0.3850415;-6;-1;0;3234;-1944;1231;65536;-0.6080332;-0.2506925;0.7424365;0.1274238;-2;4;3;2241;-386;-3393;8192;0.6177285;-0.6693563;-0.4127424;-0.004155125;-4;-1;-3;2188;3341;421;32768;0.4515235;-0.7361428;0.2271468;-0.4501385;-2;-4;-3;3004;1827;1955;256;0.2271468;-0.2867036;-0.5900277;-0.7197727;2;-3;-1;-15;3910;-857;128;-0.1135734;0.2936288;0.5720221;0.7574126;-4;-1;0;-645;3857;1362;4;-0.5706371;0.1786704;-0.4598338;-0.6565083;0;-2;0;2297;3286;278;16;0.7460734;-0.6454294;0.1495845;0.06648199;0;-8;1;473;4050;-636;2;0.5304709;-0.6710709;-0.3864266;-0.3448753;0;0;0;563;4018;-541;8;0.4362881;-0.864885;-0.2409972;-0.05955679;-1;0;0;-1615;3179;2095;0.1391711;2.545226;1.099752;0.1451414;3.089306;1.139296;0.1503909;3.567698;1.172038;0.1585424;4.286542;1.319206;-0.09642631;4.61662;1.347256;-0.439411;4.470462;1.380994;-0.6028686;4.908397;0.5811038;-0.08241308;5.018905;1.365139;0.4238843;4.610723;1.347255;0.7110845;4.457421;1.380994;0.9051595;3.657889;1.88235;0.1821909;3.22175;1.452367;-0.1730763;2.503822;1.088819;0.0253667;1.322948;0.2479757;0;0;0;-0.1730763;2.503822;1.088819;0.0253667;1.322948;0.2479757;0;0;0
65347.7845;NotLabelled;NONE;16384;0.7775242;0.4293629;0.2506925;0.3850415;-6;-1;-1;3208;-1996;1231;65536;-0.6080332;-0.2506925;0.7424365;0.1274238;-1;4;3;2251;-466;-3433;8192;0.6191136;-0.6689292;-0.4113573;-0.004155125;-4;-2;-3;2202;3315;515;32768;0.4515235;-0.7365596;0.2285319;-0.4487534;-2;-4;-1;3048;1939;1949;256;0.2285319;-0.2867036;-0.5886427;-0.720468;2;-2;-2;15;3988;-845;128;-0.1135734;0.2936288;0.5706371;0.7584566;-4;-1;0;-611;3905;1382;4;-0.5706371;0.1786704;-0.4598338;-0.6565083;0;-1;0;2415;3402;426;16;0.746585;-0.6440443;0.1523546;0.06786703;0;-7;0;279;3978;-510;2;0.5304709;-0.6710709;-0.3864266;-0.3448753;0;-1;0;679;4052;-571;8;0.4362881;-0.864885;-0.2409972;-0.05955679;0;0;0;-1567;3203;2027;0.1355451;2.546471;1.096381;0.1415155;3.09055;1.135926;0.1467649;3.568943;1.168668;0.1549164;4.287787;1.315836;-0.1000523;4.617865;1.343885;-0.443037;4.471707;1.377624;-0.6106408;4.9097;0.5786241;-0.08680475;5.019244;1.36054;0.4202583;4.611969;1.343885;0.7074586;4.458666;1.377623;0.9045917;3.658848;1.877329;0.1816229;3.222709;1.447345;-0.1767023;2.505066;1.085448;0.02356786;1.323293;0.2463035;0;0;0;-0.1767023;2.505066;1.085448;0.02356786;1.323293;0.2463035;0;0;0
65368.7217;NotLabelled;NONE;16384;0.7767577;0.4307479;0.2506925;0.3850415;-5;-1;-2;3288;-1968;1243;65536;-0.6080332;-0.2520775;0.7417282;0.1288089;-1;4;3;2189;-468;-3373;8192;0.6191136;-0.6689292;-0.4113573;-0.004155125;-4;-2;-3;2248;3405;477;32768;0.4515235;-0.7365596;0.2285319;-0.4487534;-2;-4;-1;3064;1957;1943;256;0.2285319;-0.2867036;-0.5886427;-0.720468;2;-5;-1;41;3986;-871;128;-0.1135734;0.2950138;0.5706371;0.757919;-2;-2;0;-601;3871;1396;4;-0.5706371;0.1786704;-0.4598338;-0.6565083;-2;0;1;2409;3344;448;16;0.746585;-0.6440443;0.1523546;0.06786703;0;4;0;151;4024;-782;2;0.5304709;-0.6710709;-0.3864266;-0.3448753;0;0;0;687;4092;-459;8;0.4362881;-0.864885;-0.2409972;-0.05955679;0;-3;0;-1449;3231;2045;0.1344012;2.545603;1.100535;0.1403701;3.089548;1.141892;0.1456183;3.567828;1.176228;0.1515344;4.286392;1.324862;-0.1044588;4.61562;1.353578;-0.4469883;4.468328;1.38701;-0.6150417;4.907713;0.5888695;-0.09268099;5.017257;1.371772;0.4158675;4.61134;1.353578;0.7035422;4.45886;1.38701;0.9015844;3.657771;1.884312;0.1781057;3.221857;1.454959;-0.1778457;2.504236;1.089452;0.02400628;1.322463;0.2506868;0;0;0;-0.1778457;2.504236;1.089452;0.02400628;1.322463;0.2506868;0;0;0
65389.6929;NotLabelled;NONE;16384;0.7763093;0.4307479;0.2520775;0.3850415;-4;-1;-2;3274;-1988;1271;65536;-0.6080332;-0.2520775;0.7417282;0.1288089;-1;4;4;2205;-492;-3403;8192;0.6204986;-0.6685032;-0.4099723;-0.002770083;-4;-2;-3;2354;3459;417;32768;0.4529086;-0.7361206;0.2299169;-0.4473684;-2;-5;-2;3146;1899;1841;256;0.2299169;-0.2867036;-0.5872576;-0.7211573;2;-4;-1;-39;3998;-917;128;-0.1135734;0.2950138;0.5692521;0.7589598;-3;-1;0;-639;3877;1384;4;-0.5706371;0.1786704;-0.4598338;-0.6565083;-1;0;0;2363;3252;272;16;0.746585;-0.6440443;0.1523546;0.06786703;0;4;0;263;4060;-650;2;0.5304709;-0.6717809;-0.3864266;-0.3434903;0;-3;0;521;3998;-591;8;0.4362881;-0.864885;-0.2409972;-0.05955679;0;-1;0;-1477;3243;2051;0.1344011;2.545602;1.100539;0.1403699;3.089543;1.14195;0.1456181;3.567819;1.176334;0.1515342;4.286385;1.324968;-0.104459;4.615611;1.353683;-0.4469885;4.46832;1.387116;-0.6170167;4.90909;0.590158;-0.09406555;5.018454;1.372691;0.4158673;4.611331;1.353683;0.7035418;4.458853;1.387116;0.9015883;3.657763;1.884416;0.1781095;3.221848;1.455063;-0.1778457;2.504236;1.089452;0.02400628;1.322462;0.2506868;0;0;0;-0.1778457;2.504236;1.089452;0.02400628;1.322462;0.2506868;0;0;0
65409.717;NotLabelled;NONE;16384;0.7756208;0.4307479;0.2520775;0.3864266;-5;-1;-2;3430;-2010;1229;65536;-0.6094183;-0.2534626;0.7401178;0.1288089;-1;4;3;2223;-542;-3449;8192;0.6204986;-0.6685032;-0.4099723;-0.002770083;-3;0;-3;2280;3475;453;32768;0.4529086;-0.7361206;0.2299169;-0.4473684;-1;-5;-3;3118;2007;1967;256;0.2299169;-0.2880886;-0.5872576;-0.7206051;2;-3;-2;-23;4022;-897;128;-0.1149584;0.2950138;0.5692521;0.7587512;-2;-1;0;-631;3879;1436;4;-0.5706371;0.1772853;-0.4598338;-0.6568837;0;-1;0;2237;3182;168;16;0.746585;-0.6440443;0.1523546;0.06786703;0;0;0;425;4084;-610;2;0.5304709;-0.6725757;-0.3850415;-0.3434903;1;-3;0;597;4050;-531;8;0.4362881;-0.864885;-0.2409972;-0.05955679;-1;2;0;-1517;3243;2209;0.132351;2.545565;1.100351;0.1383182;3.089365;1.143573;0.1435651;3.567524;1.179548;0.1472471;4.285802;1.329637;-0.1097681;4.614173;1.359015;-0.4518386;4.46575;1.392143;-0.6225359;4.905173;0.594586;-0.1010583;5.014539;1.378102;0.410569;4.611509;1.359015;0.6987156;4.459858;1.392143;0.8989709;3.658592;1.888275;0.1766938;3.221695;1.457899;-0.1798954;2.504236;1.089116;0.02353443;1.322463;0.2507315;0;0;0;-0.1798954;2.504236;1.089116;0.02353443;1.322463;0.2507315;0;0;0
65429.7143;NotLabelled;NONE;16384;0.774398;0.432133;0.2534626;0.3864266;-4;-1;-2;3376;-2004;1225;65536;-0.6094183;-0.2534626;0.7398754;0.1301939;-1;3;2;2293;-564;-3503;8192;0.6218836;-0.6672149;-0.4099723;-0.002770083;-3;0;-1;2306;3411;517;32768;0.4529086;-0.7369605;0.2299169;-0.4459834;0;-4;-2;3106;2017;1979;256;0.2299169;-0.2880886;-0.5858725;-0.7217317;2;-4;-2;49;4042;-947;128;-0.1149584;0.2950138;0.5692521;0.7587512;-2;-1;0;-655;3919;1430;4;-0.5706371;0.1772853;-0.4612188;-0.6559119;0;-5;0;2333;3284;258;16;0.7464578;-0.6440443;0.1523546;0.06925207;0;-6;0;449;4004;-660;2;0.5304709;-0.6725757;-0.3850415;-0.3434903;1;-1;0;681;3924;-657;8;0.4362881;-0.864885;-0.2409972;-0.05955679;0;0;0;-1455;3157;1987;0.1306359;2.543766;1.102637;0.1366035;3.0876;1.145423;0.1418508;3.565788;1.181016;0.1468834;4.284057;1.331106;-0.1095139;4.612912;1.360485;-0.4518631;4.465131;1.393612;-0.6194404;4.903999;0.5950863;-0.09728026;5.016017;1.377773;0.4108173;4.609269;1.360486;0.698678;4.457075;1.393615;0.896639;3.655413;1.890026;0.1753607;3.218517;1.457978;-0.1816107;2.502427;1.091437;0.02295364;1.322462;0.2507853;0;0;0;-0.1816107;2.502427;1.091437;0.02295364;1.322462;0.2507853;0;0;0
65450.7077;NotLabelled;NONE;16384;0.7736235;0.433518;0.2534626;0.3864266;-4;0;-1;3438;-2022;1295;65536;-0.6094183;-0.2548476;0.7393994;0.1301939;-1;3;3;2231;-546;-3453;8192;0.6218836;-0.6672149;-0.4099723;-0.002770083;-3;0;-1;2190;3383;469;32768;0.4542936;-0.7361076;0.2299169;-0.4459834;0;-3;-2;3070;1839;1873;256;0.2313019;-0.2880886;-0.5858725;-0.721289;2;-5;-2;33;4038;-963;128;-0.1149584;0.2950138;0.567867;0.7597884;0;0;0;-659;3851;1496;4;-0.5692521;0.1772853;-0.4612188;-0.6571143;0;0;0;2523;3268;250;16;0.7461737;-0.6440443;0.1537396;0.06925207;0;-4;0;287;4018;-520;2;0.5304709;-0.6725757;-0.3850415;-0.3434903;1;-1;0;679;3942;-613;8;0.4362881;-0.864885;-0.2409972;-0.05955679;-1;-3;-1;-1445;3199;1943;0.1334518;2.545465;1.100166;0.1394194;3.089299;1.142952;0.1446667;3.567486;1.178545;0.1487516;4.285259;1.331019;-0.1080787;4.613677;1.361484;-0.4502337;4.465337;1.394113;-0.6238173;4.903587;0.596532;-0.1009152;5.013723;1.37899;0.4122567;4.610719;1.361484;0.7003171;4.458796;1.394113;0.9025005;3.657275;1.88905;0.1805083;3.219054;1.459542;-0.1787947;2.504126;1.088966;0.02116475;1.32281;0.249104;0;0;0;-0.1787947;2.504126;1.088966;0.02116475;1.32281;0.249104;0;0;0
65470.8988;NotLabelled;NONE;16384;0.7736235;0.433518;0.2534626;0.3864266;-4;0;-1;3376;-2052;1207;65536;-0.6094183;-0.2548476;0.7393994;0.1301939;-2;4;3;2233;-456;-3421;8192;0.6232687;-0.6667764;-0.4085872;-0.001385042;-3;0;-1;2182;3327;407;32768;0.4542936;-0.7365114;0.2313019;-0.4445983;-1;-3;-2;3032;1751;1909;256;0.2313019;-0.2880886;-0.5844875;-0.7224118;2;-4;-1;9;3962;-957;128;-0.1149584;0.2950138;0.567867;0.7597884;0;1;0;-667;3849;1376;4;-0.5706371;0.1772853;-0.4612188;-0.6559119;-1;3;0;2487;3324;356;16;0.7464578;-0.6440443;0.1523546;0.06925207;0;7;0;229;4112;-856;2;0.5304709;-0.6725757;-0.3850415;-0.3434903;0;0;-1;657;3984;-497;8;0.4362881;-0.8652697;-0.2396122;-0.05955679;0;-3;0;-1525;3263;1931;0.1323223;2.546097;1.099267;0.1382884;3.089786;1.143859;0.1435343;3.567853;1.18104;0.1463317;4.285831;1.332575;-0.1110874;4.613826;1.362612;-0.4529755;4.464917;1.395438;-0.6270352;4.904533;0.5987134;-0.10575;5.016387;1.382006;0.4092525;4.611803;1.362612;0.6975853;4.460439;1.395438;0.898834;3.65892;1.890756;0.1793677;3.219498;1.458246;-0.1799237;2.504796;1.087918;0.02342033;1.322576;0.2501439;0;0;0;-0.1799237;2.504796;1.087918;0.02342033;1.322576;0.2501439;0;0;0
65492.7137;NotLabelled;NONE;16384;0.7723901;0.434903;0.2548476;0.3864266;-4;0;0;3368;-2050;1243;65536;-0.6108033;-0.2548476;0.7380102;0.1315789;-2;4;2;2307;-462;-3405;8192;0.6232687;-0.6667764;-0.4085872;-0.001385042;-2;-1;-1;2188;3391;351;32768;0.4542936;-0.7365114;0.2313019;-0.4445983;0;-2;-2;3058;1813;1939;256;0.232687;-0.2880886;-0.5831025;-0.7230859;2;-2;-2;83;4010;-961;128;-0.1135734;0.2950138;0.567867;0.7599967;0;2;0;-655;3881;1398;4;-0.5706371;0.1772853;-0.4598338;-0.6568837;0;2;0;2291;3306;306;16;0.746585;-0.6440443;0.1523546;0.06786703;0;8;1;227;3972;-642;2;0.5304709;-0.6725757;-0.3850415;-0.3434903;0;0;0;625;4082;-581;8;0.4362881;-0.8652697;-0.2396122;-0.05955679;1;0;1;-1581;3271;2203;0.1314078;2.545427;1.099977;0.1373738;3.089116;1.144569;0.1426197;3.567183;1.18175;0.14447;4.284658;1.335664;-0.1133813;4.612213;1.366784;-0.4550732;4.462744;1.399112;-0.6291471;4.90236;0.6023901;-0.1078657;5.014214;1.385685;0.406961;4.610874;1.366784;0.6954924;4.459783;1.399112;0.899914;3.658102;1.892867;0.1791356;3.218896;1.462328;-0.1808384;2.504126;1.088628;0.02069719;1.32281;0.2491431;0;0;0;-0.1808384;2.504126;1.088628;0.02069719;1.32281;0.2491431;0;0;0
65512.7084;NotLabelled;NONE;16384;0.7716087;0.4362881;0.2548476;0.3864266;-5;0;0;3312;-2048;1179;65536;-0.6108033;-0.2562327;0.7375305;0.1315789;-2;3;2;2283;-426;-3361;8192;0.6232687;-0.6667764;-0.4085872;-0.001385042;-1;0;-2;2176;3405;457;32768;0.4542936;-0.7365114;0.2313019;-0.4445983;0;-1;-1;3184;1857;1981;256;0.232687;-0.2880886;-0.5831025;-0.7230859;3;-2;-1;19;3988;-949;128;-0.1135734;0.2936288;0.567867;0.7605329;0;3;0;-647;3899;1448;4;-0.5706371;0.1772853;-0.4612188;-0.6559119;0;-1;-1;2229;3180;314;16;0.7469909;-0.6440443;0.1509695;0.06648199;1;5;1;373;4068;-582;2;0.5304709;-0.6725757;-0.3850415;-0.3434903;0;-2;0;609;4082;-605;8;0.4362881;-0.8652697;-0.2396122;-0.05955679;0;0;0;-1471;3251;2057;0.1265368;2.54372;1.102131;0.1325024;3.087373;1.147159;0.1377479;3.56541;1.184723;0.1373649;4.282579;1.340066;-0.1215047;4.609267;1.371838;-0.4627295;4.458671;1.403866;-0.639473;4.898289;0.6077332;-0.1162568;5.009217;1.38987;0.3988391;4.609548;1.371838;0.6878395;4.459292;1.403866;0.8913318;3.65761;1.898005;0.1713611;3.218405;1.466117;-0.1857092;2.502428;1.090747;0.02201122;1.322463;0.2508698;0;0;0;-0.1857092;2.502428;1.090747;0.02201122;1.322463;0.2508698;0;0;0
65532.9263;NotLabelled;NONE;16384;0.7716087;0.4362881;0.2548476;0.3864266;-4;0;-1;3304;-2006;1167;65536;-0.6108033;-0.2562327;0.737282;0.132964;-1;3;2;2313;-468;-3363;8192;0.6246537;-0.665479;-0.4085872;-0.001385042;-1;0;-2;2180;3355;487;32768;0.4542936;-0.7365114;0.2313019;-0.4445983;0;-2;0;3162;1945;1959;256;0.232687;-0.2880886;-0.5831025;-0.7230859;2;-2;-1;-1;4022;-933;128;-0.1135734;0.2936288;0.567867;0.7605329;0;1;0;-677;3883;1424;4;-0.5692521;0.1772853;-0.4612188;-0.6571143;0;-3;-1;2291;3268;252;16;0.7469909;-0.6440443;0.1509695;0.06648199;0;0;0;479;4010;-588;2;0.5304709;-0.6725757;-0.3850415;-0.3434903;0;0;1;611;4030;-585;8;0.4362881;-0.8652697;-0.2396122;-0.05955679;0;0;0;-1389;3165;1975;0.1302137;2.54496;1.102027;0.1361793;3.088617;1.147001;0.141425;3.566658;1.184517;0.1410419;4.283827;1.33986;-0.1178278;4.610515;1.371632;-0.4590524;4.459919;1.40366;-0.6377943;4.900888;0.6087221;-0.1147307;5.013539;1.390714;0.4025162;4.610796;1.371632;0.6915164;4.460539;1.40366;0.8950138;3.658858;1.897797;0.175043;3.219653;1.465909;-0.1820322;2.503666;1.090647;0.0210753;1.32235;0.2515413;0;0;0;-0.1820322;2.503666;1.090647;0.0210753;1.32235;0.2515413;0;0;0
