SEP=;
index;label;segment;RightUpperArm_boneIndex;RightUpperArm_quat9x_w;RightUpperArm_quat9x_x;RightUpperArm_quat9x_y;RightUpperArm_quat9x_z;RightUpperArm_gyroscope_x;RightUpperArm_gyroscope_y;RightUpperArm_gyroscope_z;RightUpperArm_accelerometer_x;RightUpperArm_accelerometer_y;RightUpperArm_accelerometer_z;RightLowerArm_boneIndex;RightLowerArm_quat9x_w;RightLowerArm_quat9x_x;RightLowerArm_quat9x_y;RightLowerArm_quat9x_z;RightLowerArm_gyroscope_x;RightLowerArm_gyroscope_y;RightLowerArm_gyroscope_z;RightLowerArm_accelerometer_x;RightLowerArm_accelerometer_y;RightLowerArm_accelerometer_z;LeftUpperArm_boneIndex;LeftUpperArm_quat9x_w;LeftUpperArm_quat9x_x;LeftUpperArm_quat9x_y;LeftUpperArm_quat9x_z;LeftUpperArm_gyroscope_x;LeftUpperArm_gyroscope_y;LeftUpperArm_gyroscope_z;LeftUpperArm_accelerometer_x;LeftUpperArm_accelerometer_y;LeftUpperArm_accelerometer_z;LeftLowerArm_boneIndex;LeftLowerArm_quat9x_w;LeftLowerArm_quat9x_x;LeftLowerArm_quat9x_y;LeftLowerArm_quat9x_z;LeftLowerArm_gyroscope_x;LeftLowerArm_gyroscope_y;LeftLowerArm_gyroscope_z;LeftLowerArm_accelerometer_x;LeftLowerArm_accelerometer_y;LeftLowerArm_accelerometer_z;Chest_boneIndex;Chest_quat9x_w;Chest_quat9x_x;Chest_quat9x_y;Chest_quat9x_z;Chest_gyroscope_x;Chest_gyroscope_y;Chest_gyroscope_z;Chest_accelerometer_x;Chest_accelerometer_y;Chest_accelerometer_z;Spine_boneIndex;Spine_quat9x_w;Spine_quat9x_x;Spine_quat9x_y;Spine_quat9x_z;Spine_gyroscope_x;Spine_gyroscope_y;Spine_gyroscope_z;Spine_accelerometer_x;Spine_accelerometer_y;Spine_accelerometer_z;RightUpperLeg_boneIndex;RightUpperLeg_quat9x_w;RightUpperLeg_quat9x_x;RightUpperLeg_quat9x_y;RightUpperLeg_quat9x_z;RightUpperLeg_gyroscope_x;RightUpperLeg_gyroscope_y;RightUpperLeg_gyroscope_z;RightUpperLeg_accelerometer_x;RightUpperLeg_accelerometer_y;RightUpperLeg_accelerometer_z;RightLowerLeg_boneIndex;RightLowerLeg_quat9x_w;RightLowerLeg_quat9x_x;RightLowerLeg_quat9x_y;RightLowerLeg_quat9x_z;RightLowerLeg_gyroscope_x;RightLowerLeg_gyroscope_y;RightLowerLeg_gyroscope_z;RightLowerLeg_accelerometer_x;RightLowerLeg_accelerometer_y;RightLowerLeg_accelerometer_z;LeftUpperLeg_boneIndex;LeftUpperLeg_quat9x_w;LeftUpperLeg_quat9x_x;LeftUpperLeg_quat9x_y;LeftUpperLeg_quat9x_z;LeftUpperLeg_gyroscope_x;LeftUpperLeg_gyroscope_y;LeftUpperLeg_gyroscope_z;LeftUpperLeg_accelerometer_x;LeftUpperLeg_accelerometer_y;LeftUpperLeg_accelerometer_z;LeftLowerLeg_boneIndex;LeftLowerLeg_quat9x_w;LeftLowerLeg_quat9x_x;LeftLowerLeg_quat9x_y;LeftLowerLeg_quat9x_z;LeftLowerLeg_gyroscope_x;LeftLowerLeg_gyroscope_y;LeftLowerLeg_gyroscope_z;LeftLowerLeg_accelerometer_x;LeftLowerLeg_accelerometer_y;LeftLowerLeg_accelerometer_z;pelvis_x;pelvis_y;pelvis_z;lowerSpine_x;lowerSpine_y;lowerSpine_z;middleSpine_x;middleSpine_y;middleSpine_z;upperSpine_x;upperSpine_y;upperSpine_z;rightClavicle_x;rightClavicle_y;rightClavicle_z;rightShoulder_x;rightShoulder_y;rightShoulder_z;rightElbow_x;rightElbow_y;rightElbow_z;rightWrist_x;rightWrist_y;rightWrist_z;leftClavicle_x;leftClavicle_y;leftClavicle_z;leftShoulder_x;leftShoulder_y;leftShoulder_z;leftElbow_x;leftElbow_y;leftElbow_z;leftWrist_x;leftWrist_y;leftWrist_z;rightHip_x;rightHip_y;rightHip_z;rightKnee_x;rightKnee_y;rightKnee_z;rightAnkle_x;rightAnkle_y;rightAnkle_z;leftHip_x;leftHip_y;leftHip_z;leftKnee_x;leftKnee_y;leftKnee_z;leftAnkle_x;leftAnkle_y;leftAnkle_z;
1238868.3355;NotLabelled;NONE;16384;0.7207994;-0.6537396;0.2285319;0.02908587;1;-6;6;-940;3828;711;65536;0.7619214;-0.6357341;-0.06509695;0.1052632;0;-2;2;-1073;3698;-707;8192;0.5498615;-0.6245201;-0.4764543;-0.2839335;3;-4;-12;848;4157;629;32768;0.6750682;-0.4847645;-0.3448753;-0.4362881;1;-4;-14;1286;3879;-778;256;-0.0900277;-0.01385042;-0.9955308;0.02493075;2;3;0;81;-24;4129;128;0.1592798;-0.07894737;0.9768363;0.1191136;-3;-4;0;411;1273;-4202;4;0.601108;-0.622041;0.2216066;0.4501385;-1;2;1;1011;3764;-674;16;-0.2368421;-0.9238892;0.001385042;-0.300554;0;-5;-3;-635;-1830;3594;2;0.2590028;-0.466759;-0.7184375;-0.4459834;12;0;37;1783;4262;379;8;-0.1523546;-0.9175354;-0.3587258;-0.07894737;8;33;39;-3259;-899;2833;0.6853205;1.795202;2.140908;0.6853538;1.798238;1.595369;0.6853609;1.798885;1.11583;0.6844776;1.76063;0.3830287;0.4245797;1.711526;0.05931664;0.08498995;1.789757;0.1960564;-0.1879553;0.9045327;0.2104519;0;0;0;0.944785;1.699511;0.05931324;1.235253;1.763191;0.1960515;1.44422;0.8441052;0.3957754;1.429067;-0.06028044;0.1135636;0.3734783;1.790716;2.186368;0.7628062;0.403826;1.929814;0.198725;0.9929793;3.000814;0.3734783;1.790716;2.186368;0.7628062;0.403826;1.929814;0.198725;0.9929793;3.000814
1238889.1156;NotLabelled;NONE;16384;0.7211799;-0.6537396;0.2271468;0.03047091;2;2;7;-836;3840;695;65536;0.7620385;-0.6357341;-0.06371191;0.1052632;0;-1;2;-813;3926;-825;8192;0.5512465;-0.6243542;-0.4750692;-0.2839335;-3;-19;-6;1550;4027;851;32768;0.6751478;-0.4861496;-0.3462604;-0.433518;-2;-14;-9;602;3965;-602;256;-0.0900277;-0.01246537;-0.9955829;0.0235457;1;4;0;267;10;4151;128;0.1592798;-0.07894737;0.9766665;0.1204986;-5;-3;-1;493;1211;-4086;4;0.601108;-0.622041;0.2216066;0.4501385;-1;0;-1;1209;3814;-466;16;-0.2368421;-0.9238892;0.001385042;-0.300554;0;-2;-4;-707;-1850;3586;2;0.2506925;-0.4736842;-0.7194195;-0.4418283;2;0;35;2159;3980;689;8;-0.1454294;-0.9123724;-0.3725762;-0.08725762;11;34;41;-3487;-811;2679;0.6866132;1.796414;2.14327;0.6866435;1.799167;1.59773;0.6866478;1.799564;1.118191;0.6857648;1.761309;0.3853891;0.425867;1.712206;0.0616768;0.08627728;1.790437;0.1984167;-0.1859407;0.9049532;0.2104339;0;0;0;0.9460722;1.70019;0.06167424;1.23654;1.763871;0.1984123;1.435154;0.8415906;0.393928;1.42506;-0.06371593;0.1144561;0.3747714;1.79195;2.188734;0.7636408;0.4058408;1.927317;0.200429;0.9961135;2.998157;0.3747714;1.79195;2.188734;0.7636408;0.4058408;1.927317;0.200429;0.9961135;2.998157
1238910.1248;NotLabelled;NONE;16384;0.7211799;-0.6537396;0.2271468;0.03047091;4;-3;7;-1182;3802;317;65536;0.7620385;-0.6357341;-0.06371191;0.1052632;5;-4;3;-1031;4026;-481;8192;0.5540166;-0.6242083;-0.4736842;-0.2811634;-5;-23;-2;1780;3467;605;32768;0.6740345;-0.4889196;-0.3462604;-0.432133;-1;-4;-1;232;3979;-616;256;-0.0900277;-0.01246537;-0.9955829;0.0235457;-1;3;0;263;66;3951;128;0.1592798;-0.07756232;0.9766055;0.1218837;-2;-6;-1;339;1245;-3922;4;0.602493;-0.6226991;0.2216066;0.4473684;-2;5;-6;1265;3980;-608;16;-0.2368421;-0.9243396;0;-0.299169;2;13;-3;-603;-1646;3524;2;0.2465374;-0.4750692;-0.7216346;-0.4390582;-3;20;35;2107;3744;697;8;-0.1412742;-0.9097604;-0.3795014;-0.09141274;19;35;37;-3023;-289;2725;0.685362;1.79367;2.142658;0.6854088;1.797932;1.597128;0.6854278;1.799656;1.117591;0.6847054;1.763605;0.3846778;0.4249603;1.714825;0.06079355;0.08516343;1.791793;0.197736;-0.183955;0.9053705;0.2103844;0;0;0;0.9451939;1.704114;0.06080511;1.235489;1.76811;0.1977622;1.43343;0.8456297;0.3930115;1.427336;-0.06084991;0.1172485;0.3735188;1.789082;2.1881;0.762423;0.402972;1.926734;0.1990696;0.9932446;2.997499;0.3735188;1.789082;2.1881;0.762423;0.402972;1.926734;0.1990696;0.9932446;2.997499
1238930.1179;NotLabelled;NONE;16384;0.7197993;-0.6551247;0.2271468;0.033241;12;-18;10;-1054;3812;201;65536;0.7620725;-0.6357341;-0.06094183;0.1066482;10;-12;5;-1035;3888;-513;8192;0.5540166;-0.6254487;-0.4736842;-0.2783934;1;3;0;1608;3505;-245;32768;0.6740345;-0.4889196;-0.3462604;-0.432133;-1;3;2;1396;3691;-500;256;-0.0900277;-0.01246537;-0.9955829;0.0235457;-2;1;0;-91;68;3865;128;0.1592798;-0.07617728;0.9767146;0.1218837;0;-5;-2;359;1221;-3822;4;0.602493;-0.6236918;0.2216066;0.4459834;0;9;-6;957;4102;-822;16;-0.2354571;-0.9251404;0;-0.2977839;5;4;-4;-687;-1760;3550;2;0.2409972;-0.4736842;-0.7260829;-0.4362881;0;30;38;1865;3770;899;8;-0.134349;-0.9087836;-0.3836565;-0.09418282;24;17;30;-2689;83;2793;0.6853656;1.791399;2.145047;0.6854259;1.796887;1.599527;0.6854566;1.799687;1.119996;0.6847147;1.763637;0.3870822;0.4249606;1.714857;0.06320545;0.08516735;1.791824;0.2001568;-0.1839497;0.9053706;0.2103891;0;0;0;0.9451945;1.704146;0.0632028;1.235493;1.768142;0.2001524;1.43736;0.8452214;0.3892029;1.430485;-0.06286204;0.1187852;0.3735212;1.786709;2.190471;0.7578533;0.3987137;1.932366;0.1970942;0.9881529;3.004951;0.3735212;1.786709;2.190471;0.7578533;0.3987137;1.932366;0.1970942;0.9881529;3.004951
1238951.1413;NotLabelled;NONE;16384;0.718332;-0.6565097;0.2271468;0.03739612;17;-19;13;-656;3910;291;65536;0.7633351;-0.634349;-0.05955679;0.1066482;13;-11;7;-965;3928;-647;8192;0.5526316;-0.6243834;-0.4750692;-0.2811634;2;16;0;868;3879;117;32768;0.6741483;-0.4875346;-0.3462604;-0.433518;1;3;1;1066;3995;-414;256;-0.0900277;-0.01246537;-0.9955829;0.0235457;0;0;0;131;-128;4061;128;0.1606648;-0.07756232;0.9762048;0.1232687;-2;8;-1;525;1145;-3986;4;0.602493;-0.6246799;0.2216066;0.4445983;-1;4;-7;723;4126;-986;16;-0.2368421;-0.9252316;0;-0.2963989;1;9;-7;-739;-2220;3678;2;0.234072;-0.4722992;-0.7300707;-0.434903;0;48;32;2087;3960;885;8;-0.1274238;-0.9090506;-0.3850415;-0.09556787;25;-2;25;-2601;31;3065;0.683216;1.7937;2.142697;0.683273;1.798906;1.597175;0.6833009;1.80146;1.117642;0.6825588;1.76541;0.3847281;0.4228049;1.716629;0.06085163;0.08301155;1.793597;0.197803;-0.1815424;0.9058037;0.2106145;0;0;0;0.9430386;1.705919;0.06084853;1.233337;1.769915;0.1977981;1.438376;0.8482027;0.3893178;1.431501;-0.05988061;0.1189;0.3713718;1.789033;2.188125;0.755147;0.4001861;1.933803;0.1978651;0.9866858;3.009806;0.3713718;1.789033;2.188125;0.755147;0.4001861;1.933803;0.1978651;0.9866858;3.009806
1238972.1135;NotLabelled;NONE;16384;0.7172723;-0.6578947;0.2257618;0.04155125;9;-6;7;-1276;4002;1311;65536;0.7645003;-0.632964;-0.0567867;0.1080332;4;-11;3;-689;3820;-911;8192;0.5512465;-0.6262272;-0.4750692;-0.2797784;1;-16;1;1452;3737;669;32768;0.6741483;-0.4875346;-0.3462604;-0.433518;0;0;4;810;3957;-640;256;-0.0900277;-0.01246537;-0.9955829;0.0235457;-1;2;-1;121;18;4307;128;0.1606648;-0.07894737;0.9760937;0.1232687;-4;11;0;537;1283;-4314;4;0.602493;-0.6251711;0.2229917;0.4432133;-2;-4;-7;713;4096;-878;16;-0.2368421;-0.9256731;-0.001385042;-0.2950138;0;6;-8;-723;-2094;3640;2;0.2285319;-0.4695291;-0.7336041;-0.434903;5;29;28;1635;3858;235;8;-0.1218837;-0.9102484;-0.3836565;-0.09695291;24;-14;23;-2955;-631;3201;0.6796632;1.791788;2.143584;0.679741;1.798867;1.598083;0.679787;1.803068;1.118562;0.6790448;1.767017;0.3856486;0.4192907;1.718236;0.06177181;0.07949756;1.795204;0.1987233;-0.1787828;0.9056017;0.2138199;0;0;0;0.9395244;1.707526;0.06176844;1.229823;1.771522;0.198718;1.432333;0.8493347;0.3906404;1.424927;-0.05799341;0.1177146;0.3678175;1.786964;2.188984;0.7510199;0.3972731;1.938437;0.1971417;0.9872823;3.014279;0.3678175;1.786964;2.188984;0.7510199;0.3972731;1.938437;0.1971417;0.9872823;3.014279
1238993.1305;NotLabelled;NONE;16384;0.7171908;-0.6578947;0.2257618;0.04293629;4;-11;1;-1522;4132;1115;65536;0.7655497;-0.6315789;-0.05540166;0.1094183;0;-10;0;-725;4080;-887;8192;0.5512465;-0.6272755;-0.4736842;-0.2797784;6;1;0;1266;3955;237;32768;0.6748579;-0.4875346;-0.3448753;-0.433518;-2;3;3;1208;3873;-620;256;-0.0900277;-0.01108033;-0.9955993;0.0235457;-8;1;0;-169;78;4489;128;0.1606648;-0.08033241;0.9758048;0.1246537;-4;6;-2;705;1381;-4218;4;0.601108;-0.62551;0.2257618;0.4432133;-2;-8;-8;1015;3900;-780;16;-0.2382271;-0.9257581;-0.001385042;-0.2936288;0;2;-8;-375;-1986;3642;2;0.2229917;-0.4722992;-0.7335309;-0.434903;8;-2;27;1489;3558;519;8;-0.1108033;-0.9106277;-0.3850415;-0.101108;25;13;29;-2949;-275;3139;0.6750979;1.793249;2.146176;0.6751788;1.800614;1.600678;0.6752277;1.805064;1.121159;0.6744857;1.769014;0.3882459;0.4147317;1.720234;0.06436923;0.07493848;1.797201;0.2013206;-0.1756155;0.9054067;0.2172434;0;0;0;0.9349656;1.709523;0.0643661;1.225264;1.77352;0.2013157;1.427986;0.8523233;0.3977241;1.42058;-0.05500424;0.1247979;0.3632519;1.788402;2.191571;0.7428353;0.3969471;1.945343;0.191534;0.9861372;3.022956;0.3632519;1.788402;2.191571;0.7428353;0.3969471;1.945343;0.191534;0.9861372;3.022956
1239013.139;NotLabelled;NONE;16384;0.716582;-0.6578947;0.2271468;0.04570637;9;-17;6;-714;3808;113;65536;0.7657452;-0.6315789;-0.05263158;0.1094183;4;-10;3;-1173;4016;-541;8192;0.5512465;-0.6249823;-0.4750692;-0.2825485;2;18;-1;686;4279;435;32768;0.6739662;-0.4875346;-0.3448753;-0.434903;-4;1;-1;1232;3961;-708;256;-0.0900277;-0.01108033;-0.9955655;0.02493075;-11;0;1;-105;98;4119;128;0.1620499;-0.08171745;0.9754607;0.1246537;-2;3;-5;825;1359;-4000;4;0.601108;-0.6245033;0.2285319;0.4432133;-6;-2;-9;1247;4042;-672;16;-0.2368421;-0.9265524;0;-0.2922437;2;-2;-8;-549;-1654;3464;2;0.2188366;-0.4736842;-0.7347081;-0.433518;11;3;30;1975;3364;959;8;-0.1052632;-0.9099544;-0.3878116;-0.1024931;31;16;29;-2655;67;2751;0.674486;1.79117;2.149908;0.6745865;1.800328;1.604438;0.6746527;1.806357;1.124936;0.6740133;1.770489;0.3920133;0.4143962;1.721074;0.06812337;0.07439135;1.79707;0.2050921;-0.1744682;0.9047951;0.220691;0;0;0;0.9346575;1.711798;0.06811997;1.224778;1.776561;0.2050869;1.425493;0.8550063;0.4018777;1.416496;-0.05183959;0.127401;0.3626383;1.786174;2.195276;0.7396451;0.3930639;1.95451;0.1916658;0.9857653;3.031891;0.3626383;1.786174;2.195276;0.7396451;0.3930639;1.95451;0.1916658;0.9857653;3.031891
1239034.238;NotLabelled;NONE;16384;0.7150303;-0.6592798;0.2271468;0.04986149;16;-20;6;-244;3886;-229;65536;0.765546;-0.6315789;-0.05263158;0.1108033;7;-13;5;-1353;3746;-623;8192;0.5512465;-0.6243542;-0.4750692;-0.2839335;0;0;0;578;4231;447;32768;0.6739662;-0.4875346;-0.3448753;-0.434903;-6;-4;-5;844;4025;-574;256;-0.0900277;-0.01108033;-0.9955299;0.02631579;-10;2;-1;163;-50;4147;128;0.1620499;-0.08310249;0.9751657;0.1260388;-6;14;0;709;1343;-4000;4;0.601108;-0.6249762;0.2299169;0.4418283;-6;-4;-11;1077;4238;-680;16;-0.2368421;-0.9269882;0;-0.2908587;4;4;-7;-595;-1782;3464;2;0.2146814;-0.4764543;-0.7341426;-0.433518;21;1;32;2291;3362;485;8;-0.09833795;-0.9093871;-0.3905817;-0.1038781;31;18;27;-2739;-261;2717;0.6765801;1.794482;2.148242;0.6766846;1.804017;1.602778;0.6767542;1.810375;1.12328;0.6760917;1.772485;0.3904597;0.4164729;1.722111;0.06671831;0.07645498;1.7984;0.2034921;-0.1704282;0.9056021;0.2205331;0;0;0;0.9367366;1.712965;0.06671801;1.226847;1.778178;0.2034929;1.426389;0.8558978;0.3980606;1.415555;-0.05102921;0.1239192;0.364732;1.789454;2.193604;0.7356565;0.3945223;1.953941;0.1920648;0.9853731;3.034558;0.364732;1.789454;2.193604;0.7356565;0.3945223;1.953941;0.1920648;0.9853731;3.034558
1239055.1967;NotLabelled;NONE;16384;0.7135519;-0.6606648;0.2271468;0.05263158;12;-10;10;-1074;4052;573;65536;0.7655297;-0.6315789;-0.04986149;0.1121884;7;-14;7;-997;4024;-785;8192;0.5526316;-0.6241822;-0.4736842;-0.2839335;4;-15;0;968;3969;581;32768;0.6738551;-0.4889196;-0.3448753;-0.433518;-6;-5;-4;1052;3873;-516;256;-0.08864266;-0.01108033;-0.9956166;0.02770083;-12;4;-5;249;-12;4241;128;0.1620499;-0.08725762;0.9748027;0.1260388;-10;21;8;801;1305;-4060;4;0.601108;-0.6249286;0.232687;0.4404432;-5;-5;-16;787;4272;-530;16;-0.2368421;-0.9274216;0;-0.2894737;3;8;-7;-497;-2094;3718;2;0.2091413;-0.4792244;-0.7339388;-0.433518;28;6;33;2243;3486;509;8;-0.09141274;-0.9087561;-0.3933518;-0.1052632;35;12;31;-3583;-437;2915;0.6686199;1.795117;2.146752;0.6687443;1.80645;1.601323;0.6688316;1.81439;1.121849;0.6681399;1.774477;0.3891356;0.4085165;1.723145;0.06554839;0.06848674;1.799726;0.2021293;-0.1720331;0.9052262;0.2208326;0;0;0;0.9287824;1.71413;0.06554532;1.218883;1.779792;0.2021244;1.416849;0.8567748;0.3947973;1.406008;-0.05015266;0.120656;0.3567701;1.78994;2.192087;0.7240481;0.393311;1.956725;0.1839421;0.9844394;3.038935;0.3567701;1.78994;2.192087;0.7240481;0.393311;1.956725;0.1839421;0.9844394;3.038935
1239075.2805;NotLabelled;NONE;16384;0.7124542;-0.6606648;0.2299169;0.05540166;8;-18;1;-1290;3684;679;65536;0.7666414;-0.6301939;-0.04709141;0.1135734;7;-13;-1;-429;4022;-791;8192;0.5512465;-0.6266559;-0.4736842;-0.2811634;7;-4;4;1422;3557;455;32768;0.6709408;-0.4916897;-0.3448753;-0.434903;-6;0;1;830;3937;-638;256;-0.08725762;-0.009695291;-0.9956725;0.03047091;-18;-4;-9;-427;72;3963;128;0.1592798;-0.09141274;0.9746983;0.1274238;4;3;4;837;1543;-4076;4;0.601108;-0.6248657;0.2354571;0.4390582;-6;-9;-23;813;4224;-570;16;-0.2368421;-0.9278517;-0.001385042;-0.2880886;0;5;-9;-637;-2276;3690;2;0.2036011;-0.4847645;-0.731033;-0.434903;22;-13;31;2141;3906;427;8;-0.08448754;-0.9072921;-0.3975069;-0.1080332;36;16;34;-4055;-837;3407;0.665827;1.797706;2.14435;0.6659609;1.809917;1.59894;0.6660565;1.818628;1.119479;0.6653373;1.776711;0.3868784;0.4057075;1.72445;0.06344518;0.06567121;1.801346;0.1998323;-0.170221;0.9056571;0.2204688;0;0;0;0.925975;1.715524;0.06344223;1.216071;1.781609;0.1998269;1.412878;0.8578613;0.3901745;1.403315;-0.04982603;0.1185148;0.3539765;1.792456;2.18967;0.7151861;0.3932729;1.960165;0.1755518;0.9846776;3.042459;0.3539765;1.792456;2.18967;0.7151861;0.3932729;1.960165;0.1755518;0.9846776;3.042459
1239096.27;NotLabelled;NONE;16384;0.711445;-0.6606648;0.232687;0.0567867;14;-25;-4;-1222;3780;429;65536;0.7665188;-0.6301939;-0.04570637;0.1149584;7;-16;-4;-1079;3746;-587;8192;0.5498615;-0.6278716;-0.4736842;-0.2811634;7;-10;6;1324;3965;485;32768;0.6716509;-0.4916897;-0.3434903;-0.434903;-9;-1;4;936;3839;-604;256;-0.08587258;-0.009695291;-0.9957042;0.033241;-19;-3;-9;49;140;3911;128;0.1592798;-0.09279778;0.9747475;0.1260388;9;10;5;657;1517;-3730;4;0.601108;-0.6261905;0.2396122;0.434903;-8;0;-27;833;4380;-806;16;-0.2382271;-0.928353;-0.001385042;-0.2853186;-2;5;-10;-515;-2200;3822;2;0.199446;-0.4875346;-0.731159;-0.433518;16;-2;35;2361;3918;1007;8;-0.07617728;-0.9060311;-0.4016621;-0.1094183;43;26;37;-3473;-205;3283;0.6678059;1.800208;2.145324;0.667964;1.814611;1.599968;0.6680808;1.82525;1.120546;0.6674405;1.779482;0.3881754;0.4079538;1.724701;0.06504437;0.06768578;1.801236;0.2010564;-0.1676565;0.9054414;0.2233022;0;0;0;0.9282469;1.717421;0.0650416;1.218143;1.785139;0.2010513;1.416178;0.8629767;0.3977066;1.402892;-0.04643691;0.1320442;0.3559533;1.794776;2.19061;0.7110596;0.393087;1.966941;0.1709532;0.9836925;3.049438;0.3559533;1.794776;2.19061;0.7110596;0.393087;1.966941;0.1709532;0.9836925;3.049438
1239116.1387;NotLabelled;NONE;16384;0.7088978;-0.6620498;0.2354571;0.06094183;11;-28;1;-544;3974;597;65536;0.7673168;-0.6288089;-0.04432133;0.1177285;3;-15;-3;-1169;3822;-937;8192;0.5498615;-0.62849;-0.4736842;-0.2797784;1;-10;10;1208;3717;453;32768;0.6716509;-0.4916897;-0.3434903;-0.434903;-8;2;7;708;3943;-402;256;-0.08448754;-0.01108033;-0.9957119;0.03601108;-20;-1;-11;241;60;3797;128;0.1578947;-0.09695291;0.9745684;0.1260388;1;24;11;703;1361;-3658;4;0.599723;-0.6283664;0.2423823;0.432133;-11;-5;-34;475;4478;-812;16;-0.2396122;-0.9284222;0;-0.2839335;-4;0;-11;-273;-2210;3614;2;0.1869806;-0.4972299;-0.7295594;-0.4307479;26;-18;48;2761;3946;611;8;-0.05540166;-0.9059686;-0.4044321;-0.1121884;48;-13;31;-2519;643;3067;0.6688358;1.807466;2.142952;0.6689805;1.820652;1.597565;0.6690854;1.83022;1.118121;0.6684085;1.780423;0.3860126;0.4089191;1.723764;0.06320819;0.06863126;1.800913;0.1988228;-0.1678637;0.905473;0.2230184;0;0;0;0.9292151;1.716687;0.06320533;1.219094;1.785266;0.1988184;1.415195;0.8635015;0.3992424;1.401048;-0.04543364;0.1319873;0.3569843;1.802135;2.188257;0.7015024;0.395691;1.978301;0.1652933;0.9900882;3.06066;0.3569843;1.802135;2.188257;0.7015024;0.395691;1.978301;0.1652933;0.9900882;3.06066
1239138.2021;NotLabelled;NONE;16384;0.7094848;-0.6606648;0.2368421;0.06371191;5;-28;0;-1106;4170;695;65536;0.767103;-0.6288089;-0.04432133;0.1191136;0;-17;-3;-931;3980;-797;8192;0.5484765;-0.6292694;-0.4750692;-0.2783934;7;1;18;1084;3793;255;32768;0.6695398;-0.4930748;-0.3421052;-0.4376731;-10;3;11;822;3821;-560;256;-0.08171745;-0.01246537;-0.9958227;0.03878116;-23;-6;-14;189;-198;3973;128;0.1565097;-0.101108;0.9745477;0.1246537;-3;22;19;823;1165;-3972;4;0.5983379;-0.6309697;0.2534626;0.4238227;-10;-8;-47;-35;4328;-790;16;-0.2396122;-0.9292483;0.005540166;-0.2811634;0;-26;-18;-615;-2518;3000;2;0.1814404;-0.5027701;-0.7271574;-0.4307479;30;-17;40;2003;3516;265;8;-0.04570637;-0.9073936;-0.4016621;-0.1149584;43;-19;34;-2823;863;2857;0.6643566;1.809663;2.141279;0.66451;1.823626;1.595911;0.6646227;1.833877;1.116481;0.6637598;1.77988;0.3846709;0.4041065;1.721987;0.06221679;0.06401604;1.800724;0.1974133;-0.1688918;0.9044813;0.2262435;0;0;0;0.9243841;1.71367;0.06221426;1.214439;1.782335;0.1974085;1.411595;0.8611823;0.3995996;1.398152;-0.04775155;0.1323078;0.3525044;1.804267;2.186571;0.6934605;0.3949822;1.990299;0.1586933;0.9939498;3.070849;0.3525044;1.804267;2.186571;0.6934605;0.3949822;1.990299;0.1586933;0.9939498;3.070849
1239158.2699;NotLabelled;NONE;16384;0.7079582;-0.6606648;0.2409972;0.06509695;0;-24;-12;-1514;3766;429;65536;0.7667466;-0.6288089;-0.04293629;0.1218837;1;-17;-9;-727;3920;-641;8192;0.5470914;-0.6310837;-0.4750692;-0.2770083;5;-15;16;484;4019;273;32768;0.6693392;-0.4930748;-0.3407202;-0.4390582;-10;1;7;1370;3861;-618;256;-0.08033241;-0.01385042;-0.9958054;0.04155125;-24;-6;-16;-399;-156;3749;128;0.1537396;-0.1024931;0.974844;0.1246537;7;-3;18;913;1335;-4204;4;0.5955678;-0.6344579;0.2603878;0.4182825;-9;-14;-53;-37;4224;-664;16;-0.2409972;-0.9292741;0.009695291;-0.2797784;0;-31;-17;-715;-2828;2736;2;0.1786704;-0.5096953;-0.7221833;-0.432133;32;-38;26;1657;3714;825;8;-0.03601108;-0.9080868;-0.400277;-0.1177285;41;-18;41;-3383;637;2701;0.6612217;1.814731;2.146472;0.6613669;1.827953;1.601086;0.6614724;1.837554;1.121642;0.6603899;1.779381;0.3901531;0.4005552;1.7203;0.06806141;0.06067892;1.80066;0.20284;-0.1717191;0.9041102;0.2255968;0;0;0;0.9208102;1.710678;0.06805351;1.211051;1.779387;0.2028244;1.408158;0.8593347;0.4100162;1.389516;-0.05004406;0.1445541;0.3493703;1.809397;2.191777;0.6655235;0.3902521;2.027659;0.1353715;0.9939463;3.107853;0.3493703;1.809397;2.191777;0.6655235;0.3902521;2.027659;0.1353715;0.9939463;3.107853
1239179.2183;NotLabelled;NONE;16384;0.7055628;-0.6606648;0.2479224;0.06509695;7;-8;-9;-900;3874;89;65536;0.7672093;-0.6274238;-0.04293629;0.1260388;12;-10;-11;-747;4126;-659;8192;0.5443213;-0.6373374;-0.4722992;-0.2728532;7;-2;4;2218;3715;-71;32768;0.6691328;-0.4930748;-0.3393352;-0.4404432;-6;4;6;1042;4033;-392;256;-0.07756232;-0.01523546;-0.9956233;0.04986149;-19;0;-10;67;-770;3869;128;0.1509695;-0.1024931;0.9757989;0.1204986;1;11;2;261;541;-3048;4;0.5941828;-0.6365016;0.267313;0.4127424;-8;-3;-57;-195;3150;-246;16;-0.2396122;-0.9299737;0.01523546;-0.2783934;-6;-19;-17;-215;-12918;3070;2;0.1786704;-0.5138504;-0.7192328;-0.432133;19;-37;26;1589;3868;683;8;-0.02770083;-0.9066036;-0.4030471;-0.1218837;41;9;43;-3755;187;2397;0.6620009;1.817303;2.140175;0.6621466;1.83058;1.594789;0.6622525;1.840228;1.115347;0.6609483;1.777871;0.3842023;0.4009356;1.717575;0.06247908;0.06126976;1.799529;0.1968288;-0.173514;0.9037725;0.2255771;0;0;0;0.921166;1.706693;0.06247649;1.211587;1.77547;0.1968235;1.409434;0.8567489;0.4091538;1.388057;-0.05218792;0.1423879;0.3501494;1.811964;2.185477;0.6547254;0.3874875;2.047787;0.127882;0.9977735;3.125895;0.3501494;1.811964;2.185477;0.6547254;0.3874875;2.047787;0.127882;0.9977735;3.125895
1239200.1056;NotLabelled;NONE;16384;0.704454;-0.6606648;0.2506925;0.06648199;19;-34;-5;-802;4146;951;65536;0.7678803;-0.6260388;-0.04293629;0.1288089;6;-18;-4;-1101;3686;-933;8192;0.5415512;-0.6376383;-0.4750692;-0.2728532;11;11;8;1884;3765;375;32768;0.6680037;-0.4930748;-0.3379501;-0.4432133;-10;7;13;1022;3903;-570;256;-0.07617728;-0.01523546;-0.9955877;0.05263158;-8;0;-9;479;-988;3705;128;0.1509695;-0.1024931;0.9756268;0.1218837;-14;-1;0;349;269;-3006;4;0.5927978;-0.640171;0.2742382;0.4044321;-25;8;-86;-1495;3326;514;16;-0.2423823;-0.9305119;0.01385042;-0.2742382;-13;23;-20;-1315;-3986;2140;2;0.1759003;-0.5207756;-0.715757;-0.4307479;17;-42;30;2871;3170;259;8;-0.01939058;-0.9047735;-0.4072022;-0.1232687;46;27;31;-3327;279;2057;0.6643012;1.836771;2.136202;0.6643941;1.845254;1.590721;0.6644537;1.850687;1.111212;0.6627675;1.776096;0.3812153;0.4025317;1.710862;0.0606385;0.06305555;1.795632;0.1937148;-0.1787805;0.901973;0.2286477;0;0;0;0.9227427;1.6991;0.0606353;1.213331;1.769623;0.1937106;1.408031;0.8530235;0.4177908;1.384629;-0.05545878;0.1496503;0.3524541;1.831831;2.181581;0.6420279;0.4022292;2.066493;0.1165477;1.013617;3.14464;0.3524541;1.831831;2.181581;0.6420279;0.4022292;2.066493;0.1165477;1.013617;3.14464
1239221.1698;NotLabelled;NONE;16384;0.7032125;-0.6592798;0.2562327;0.07202215;0;-58;-7;650;4528;1073;65536;0.7686145;-0.6246537;-0.04155125;0.1315789;0;-15;0;-1339;3784;-1089;8192;0.5401662;-0.6377797;-0.4764543;-0.2728532;6;1;14;1138;3641;647;32768;0.6677826;-0.4930748;-0.3365651;-0.4445983;-9;-2;19;140;4097;-286;256;-0.07479224;-0.01523546;-0.9956185;0.05401662;-1;0;-6;109;-674;3547;128;0.1495845;-0.101108;0.9754567;0.1260388;-16;-24;0;345;949;-3828;4;0.5900277;-0.6452273;0.2880886;0.3905817;-24;-10;-107;-1639;3746;42;16;-0.2465374;-0.9306881;0.009695291;-0.2700831;-5;30;-15;-273;-3608;2350;2;0.16759;-0.5290859;-0.714143;-0.4265928;8;12;29;1625;1802;-447;8;-0.005540166;-0.9047132;-0.4085872;-0.1204986;34;-25;0;-1329;1007;2485;0.6624362;1.837207;2.135077;0.662546;1.847206;1.589622;0.6626203;1.853974;1.11013;0.6608888;1.775369;0.3805541;0.4006423;1.708298;0.06036514;0.06115425;1.793701;0.1930049;-0.1818779;0.9005303;0.2318687;0;0;0;0.9208567;1.696684;0.06037849;1.211437;1.768021;0.1930364;1.405993;0.8537059;0.4263846;1.378045;-0.05433953;0.1572013;0.3505877;1.832141;2.180432;0.6224546;0.3970585;2.093914;0.1035213;1.014541;3.171759;0.3505877;1.832141;2.180432;0.6224546;0.3970585;2.093914;0.1035213;1.014541;3.171759
1239242.3371;NotLabelled;NONE;16384;0.70284;-0.6578947;0.2603878;0.0734072;-7;-3;-13;666;4572;1189;65536;0.7683761;-0.6246537;-0.04155125;0.132964;-9;5;5;-1439;3782;-829;8192;0.5401662;-0.6389577;-0.4764543;-0.2700831;3;-14;14;998;3683;-41;32768;0.6680138;-0.4930748;-0.33241;-0.4473684;-12;-8;20;1564;3757;-302;256;-0.07479224;-0.0166205;-0.9955963;0.05401662;-3;-5;0;-419;-274;3701;128;0.1509695;-0.09556787;0.9756219;0.1274238;7;-36;-9;575;1315;-4264;4;0.5803324;-0.6540316;0.3157895;0.368421;-17;-16;-118;-547;5572;-386;16;-0.2493075;-0.9319333;0.009695291;-0.2631579;10;1;-27;5;-4202;3046;2;0.1634349;-0.533241;-0.7120124;-0.4265928;24;-42;4;765;2254;-449;8;0;-0.9081892;-0.4016621;-0.1177285;30;-59;-13;-805;821;2197;0.6639025;1.822471;2.147661;0.6640577;1.836612;1.602298;0.6641719;1.84702;1.122871;0.660437;1.77196;0.3929297;0.3993144;1.706424;0.07313615;0.06018703;1.791155;0.2071238;-0.1823253;0.8976893;0.2422963;0;0;0;0.9195276;1.694853;0.07166103;1.210467;1.765568;0.2038635;1.406899;0.8503337;0.4319788;1.375544;-0.05514574;0.1546497;0.3520502;1.817061;2.19295;0.5889653;0.3740582;2.14322;0.07765955;0.9906933;3.225188;0.3520502;1.817061;2.19295;0.5889653;0.3740582;2.14322;0.07765955;0.9906933;3.225188
1239263.1266;NotLabelled;NONE;16384;0.704281;-0.6578947;0.2576177;0.06925207;-6;47;-17;-444;3972;677;65536;0.7676467;-0.6260388;-0.04293629;0.1301939;-9;16;6;-611;4072;-707;8192;0.5373961;-0.6418707;-0.4764543;-0.2686981;11;-3;7;1254;3837;-307;32768;0.6684573;-0.4930748;-0.3296399;-0.4487534;-8;1;16;1340;3943;-318;256;-0.07479224;-0.0166205;-0.9955963;0.05401662;-6;-12;4;-69;-316;4209;128;0.1523546;-0.0900277;0.9761134;0.1260388;10;-23;-16;589;1375;-4328;4;0.5761772;-0.6577052;0.3282548;0.3573407;-24;-12;-117;-579;5642;-180;16;-0.2465374;-0.933817;0.01108033;-0.2590028;15;-13;-30;-127;-3120;3558;2;0.1648199;-0.5415512;-0.7045507;-0.4279778;35;-68;3;1623;2304;49;8;0.004155125;-0.913526;-0.3905817;-0.1135734;32;-93;-14;-1999;177;2783;0.6633019;1.827234;2.137546;0.6634623;1.841861;1.592195;0.6635811;1.852697;1.112778;0.6615608;1.771947;0.3834369;0.4011007;1.704636;0.0634723;0.06185806;1.791345;0.1958928;-0.1845162;0.8991122;0.2352608;0;0;0;0.9212819;1.691618;0.06346941;1.212067;1.762562;0.1958883;1.4104;0.8497555;0.431947;1.371315;-0.05626416;0.1573766;0.3514492;1.821783;2.182827;0.5304813;0.3706157;2.236869;0.03377676;1.003046;3.316519;0.3514492;1.821783;2.182827;0.5304813;0.3706157;2.236869;0.03377676;1.003046;3.316519
1239283.1239;NotLabelled;NONE;16384;0.7017748;-0.6620498;0.2562327;0.05955679;7;-12;-4;-1676;3864;265;65536;0.7672855;-0.6274238;-0.04155125;0.1260388;2;-2;11;-1047;4008;-581;8192;0.534626;-0.6430174;-0.4764543;-0.2714681;5;13;2;1076;4027;-513;32768;0.667952;-0.4930748;-0.3268698;-0.4515235;-2;2;10;1496;3823;-178;256;-0.07617728;-0.01939058;-0.9953651;0.05540166;-4;-12;6;511;-404;4507;128;0.1551246;-0.08587258;0.9760514;0.1260388;5;-24;-14;225;1055;-4054;4;0.5720221;-0.6623555;0.3407202;0.3434903;-28;-4;-119;-841;4806;-56;16;-0.2437673;-0.9356271;0.01523546;-0.2548476;15;-40;-38;-281;-2686;3570;2;0.166205;-0.5498615;-0.6969044;-0.4293629;33;-72;10;2589;2810;167;8;0.008310249;-0.9192315;-0.3781163;-0.1094183;32;-69;-9;-4205;-335;3479;0.6663955;1.832597;2.140451;0.6665285;1.844684;1.595037;0.6666229;1.853285;1.115575;0.6645544;1.772536;0.3862345;0.4040731;1.705224;0.0662867;0.06483933;1.791933;0.1987296;-0.1840603;0.9001408;0.2316607;0;0;0;0.9242544;1.692207;0.06624994;1.215049;1.76315;0.1986493;1.412168;0.850913;0.4379048;1.368069;-0.05403757;0.1605839;0.3545452;1.827357;2.185773;0.5051033;0.3751533;2.282178;0.01975444;1.00274;3.36979;0.3545452;1.827357;2.185773;0.5051033;0.3751533;2.282178;0.01975444;1.00274;3.36979
1239305.1249;NotLabelled;NONE;16384;0.7005162;-0.6620498;0.2590028;0.06232687;8;-22;-1;-864;4118;991;65536;0.7662247;-0.6288089;-0.0401662;0.1260388;-3;-5;11;-1029;3728;-963;8192;0.5318559;-0.6441382;-0.4764543;-0.2742382;13;21;0;564;4115;-425;32768;0.6687112;-0.4916897;-0.3254848;-0.4529086;2;9;3;1422;3961;-218;256;-0.07894737;-0.0235457;-0.9950596;0.05540166;1;-8;6;525;-732;4213;128;0.1578947;-0.07756232;0.976303;0.1260388;-3;-31;-7;255;941;-4298;4;0.567867;-0.6656908;0.3545706;0.3296399;-31;-16;-124;-1079;4068;-20;16;-0.2409972;-0.9376629;0.0235457;-0.2493075;16;-35;-45;-213;-2536;3326;2;0.166205;-0.5595568;-0.6891441;-0.4293629;26;-63;19;3395;3250;81;8;0.01246537;-0.9204828;-0.3753462;-0.1080332;17;4;1;-4265;-295;4093;0.6803463;1.833332;2.121828;0.6804718;1.844771;1.576401;0.6805601;1.852804;1.096928;0.6780524;1.769705;0.3678531;0.4172177;1.702701;0.0481288;0.07843896;1.791583;0.1802961;-0.177257;0.9023941;0.2281704;0;0;0;0.9373251;1.687005;0.04812616;1.228485;1.756879;0.1802909;1.420278;0.8454905;0.4269929;1.368463;-0.05834877;0.1473896;0.3684964;1.828147;2.16716;0.4874737;0.3769299;2.310944;0.01862127;1.001467;3.407511;0.3684964;1.828147;2.16716;0.4874737;0.3769299;2.310944;0.01862127;1.001467;3.407511
1239325.1498;NotLabelled;NONE;16384;0.7018226;-0.6606648;0.2590028;0.06232687;1;4;-8;-1272;3800;1449;65536;0.7665226;-0.6288089;-0.03878116;0.1246537;-9;1;3;-747;3894;-877;8192;0.5304709;-0.6430681;-0.4778393;-0.2770083;12;9;-4;302;4843;43;32768;0.6681129;-0.4903047;-0.3268698;-0.4542936;-2;0;-4;1638;3779;-732;256;-0.08033241;-0.02631579;-0.9948793;0.05540166;0;-8;5;571;-372;4107;128;0.1578947;-0.07202215;0.9765476;0.1274238;-1;-25;-7;253;1171;-4306;4;0.5637119;-0.6668756;0.3711911;0.3157895;-32;-43;-128;-1087;3664;-12;16;-0.2368421;-0.939976;0.03047091;-0.2437673;25;-40;-47;7;-2448;3388;2;0.1634349;-0.5734072;-0.6792114;-0.4279778;19;-53;16;3149;4118;169;8;0.0166205;-0.9175626;-0.3822715;-0.1080332;13;-1;7;-1961;957;2443;0.6823905;1.833251;2.115489;0.6824993;1.843181;1.570033;0.6825728;1.849885;1.09054;0.6793832;1.766251;0.3615285;0.4180145;1.701079;0.04186173;0.07995731;1.792755;0.1739683;-0.1746258;0.903475;0.2259136;0;0;0;0.9379805;1.681247;0.04185885;1.229691;1.748903;0.1739635;1.416899;0.8372765;0.4232935;1.361335;-0.06518614;0.1399896;0.3705419;1.828192;2.160846;0.4550072;0.379935;2.351314;0.01221353;1.004166;3.458833;0.3705419;1.828192;2.160846;0.4550072;0.379935;2.351314;0.01221353;1.004166;3.458833
1239346.2593;NotLabelled;NONE;16384;0.7016668;-0.6606648;0.2603878;0.05817174;-2;18;-10;-1664;3486;899;65536;0.7655372;-0.6301939;-0.0401662;0.1232687;-8;5;-3;-623;4062;-651;8192;0.5318559;-0.6429518;-0.4764543;-0.2770083;0;-21;-1;1180;4043;559;32768;0.6680353;-0.4916897;-0.3268698;-0.4529086;-4;-4;-3;686;4079;-384;256;-0.08171745;-0.02770083;-0.9947289;0.05540166;-5;-5;6;597;-374;3923;128;0.1592798;-0.06925207;0.9767027;0.1260388;13;-19;-4;257;1291;-4790;4;0.5484765;-0.6666166;0.4085872;0.2963989;-24;-73;-124;-861;5304;-682;16;-0.2216066;-0.9459935;0.04293629;-0.232687;49;-42;-50;-43;-1374;4746;2;0.1634349;-0.5789474;-0.6744953;-0.4279778;12;-35;6;2873;3752;225;8;0.01939058;-0.9188192;-0.3795014;-0.1066482;11;-17;0;-3511;501;2671;0.6880102;1.830315;2.11658;0.6881235;1.840637;1.571131;0.6882009;1.847688;1.091643;0.6845638;1.763695;0.3626752;0.4228502;1.699757;0.04304151;0.08528879;1.793309;0.1750998;-0.1703018;0.9042624;0.2260633;0;0;0;0.9427025;1.677141;0.0430508;1.234771;1.743303;0.1751209;1.420815;0.8313864;0.4242612;1.365505;-0.07081223;0.1400673;0.3761615;1.825222;2.16193;0.4193797;0.3821174;2.399503;-0.001521587;1.001527;3.518209;0.3761615;1.825222;2.16193;0.4193797;0.3821174;2.399503;-0.001521587;1.001527;3.518209
1239368.1284;NotLabelled;NONE;16384;0.7010979;-0.6620498;0.2590028;0.05540166;9;5;-7;-1346;3592;-157;65536;0.7655372;-0.6301939;-0.0401662;0.1232687;-1;0;-2;-847;4028;-575;8192;0.5318559;-0.6451603;-0.4750692;-0.2742382;0;-9;3;1780;3293;51;32768;0.6670137;-0.4930748;-0.3268698;-0.4529086;0;0;3;934;3925;-128;256;-0.08171745;-0.02908587;-0.9946893;0.05540166;-9;-5;6;451;-294;3999;128;0.1592798;-0.06509695;0.9773419;0.1232687;25;-22;-4;-75;1207;-3970;4;0.5401662;-0.6648762;0.4279778;0.2880886;-23;-79;-118;-557;5450;-626;16;-0.2119114;-0.9491426;0.05124654;-0.2271468;47;-67;-54;-139;-870;5118;2;0.1648199;-0.5831025;-0.6714495;-0.4265928;4;-35;7;3077;3224;-293;8;0.02216066;-0.9200555;-0.3767313;-0.1052632;14;-32;1;-4201;-147;2577;0.6942267;1.831369;2.112005;0.6943183;1.839704;1.566522;0.6943764;1.845008;1.087012;0.690495;1.760807;0.358069;0.4286046;1.697454;0.03846391;0.09129204;1.791922;0.1705056;-0.1708133;0.9048753;0.2232058;0;0;0;0.9483964;1.673487;0.03846118;1.24064;1.73893;0.1705015;1.426077;0.8259721;0.4162565;1.370399;-0.07704937;0.134761;0.3823798;1.826441;2.157386;0.3598762;0.4021111;2.491506;-0.02218688;0.9934528;3.638968;0.3823798;1.826441;2.157386;0.3598762;0.4021111;2.491506;-0.02218688;0.9934528;3.638968
1239389.1217;NotLabelled;NONE;16384;0.6964542;-0.66482;0.2631579;0.06094183;20;-42;3;-500;4070;313;65536;0.7650634;-0.6301939;-0.03601108;0.1274238;7;-18;10;-1413;3946;-615;8192;0.5277008;-0.6457711;-0.4764543;-0.2783934;14;7;-9;640;4595;-555;32768;0.6674334;-0.4903047;-0.3282548;-0.4542936;10;1;-12;1630;3949;-532;256;-0.08448754;-0.03185596;-0.9942148;0.05817174;-6;-4;11;585;-854;5017;128;0.1606648;-0.05817174;0.9782346;0.1177285;-4;-8;-8;-137;721;-3588;4;0.5304709;-0.6638122;0.4459834;0.2811634;-27;-79;-108;-23;4642;-264;16;-0.2036011;-0.9516052;0.06232687;-0.2216066;40;-83;-56;-413;-264;4734;2;0.1648199;-0.5872576;-0.6695799;-0.4238227;-9;-19;16;2955;2436;-33;8;0.0235457;-0.9218687;-0.3725762;-0.1038781;6;-26;-3;-3755;-811;2399;0.695303;1.836756;2.109778;0.6953523;1.841254;1.564249;0.6953734;1.843186;1.084714;0.691251;1.758822;0.3557912;0.4291831;1.696114;0.0362038;0.09213374;1.791544;0.1682273;-0.1707754;0.9048753;0.2232354;0;0;0;0.9489068;1.670716;0.03620106;1.241332;1.735384;0.1682224;1.428183;0.8234518;0.4166969;1.371089;-0.08036876;0.1380623;0.3834596;1.832148;2.155216;0.3299067;0.4203694;2.535837;-0.03335637;0.9932556;3.698664;0.3834596;1.832148;2.155216;0.3299067;0.4203694;2.535837;-0.03335637;0.9932556;3.698664
1239409.1202;NotLabelled;NONE;16384;0.6942264;-0.666205;0.2645429;0.06509695;12;-5;7;404;5106;1573;65536;0.7651888;-0.6301939;-0.033241;0.1274238;-6;-3;20;-1633;3866;-1035;8192;0.5277008;-0.6461928;-0.4750692;-0.2797784;1;-7;-12;1502;4231;257;32768;0.6679448;-0.4903047;-0.3310249;-0.4515235;8;-10;-12;572;4071;-550;256;-0.08725762;-0.03185596;-0.9939755;0.05817174;-1;-4;18;375;-800;4281;128;0.1620499;-0.05817174;0.9774969;0.1218837;-27;0;-15;59;523;-3652;4;0.5263157;-0.6594021;0.4598338;0.2770083;-28;-47;-92;679;3692;-628;16;-0.1911357;-0.9548784;0.07063711;-0.2160665;40;-59;-50;-783;406;3594;2;0.1648199;-0.5900277;-0.6688919;-0.4210526;-11;-15;15;2341;2672;149;8;0.0235457;-0.9220237;-0.3725762;-0.1024931;8;-2;-6;-2283;1117;1439;0.6924441;1.85442;2.09926;0.6924131;1.851604;1.55372;0.6923637;1.847106;1.074202;0.6876031;1.758277;0.3458135;0.4251371;1.69484;0.02669728;0.08858465;1.792667;0.1582321;-0.1682372;0.9049969;0.2246665;0;0;0;0.9447356;1.666992;0.0266943;1.237505;1.731093;0.1582273;1.418609;0.8191812;0.410998;1.362295;-0.08357799;0.1287894;0.3806072;1.850422;2.144802;0.3068566;0.4530174;2.572213;-0.02926117;1.011864;3.749942;0.3806072;1.850422;2.144802;0.3068566;0.4530174;2.572213;-0.02926117;1.011864;3.749942
1239430.6752;NotLabelled;NONE;16384;0.6952384;-0.66759;0.2590028;0.06232687;-2;60;2;-488;4462;1257;65536;0.7647274;-0.6315789;-0.033241;0.1232687;-21;19;20;-1029;3754;-1009;8192;0.5290859;-0.646077;-0.4736842;-0.2797784;-1;-9;-10;1702;3215;707;32768;0.6681918;-0.4903047;-0.33241;-0.4501385;5;0;0;868;3741;-710;256;-0.0900277;-0.033241;-0.9936831;0.05817174;3;-13;20;9;-946;3431;128;0.1648199;-0.05817174;0.9766842;0.1246537;-8;-11;-16;967;671;-4610;4;0.5221606;-0.660296;0.468144;0.2686981;-15;10;-76;1227;3182;-1086;16;-0.1800554;-0.9582636;0.07063711;-0.2105263;50;-2;-39;-1403;956;3634;2;0.1648199;-0.5914127;-0.67027;-0.4168975;-15;0;11;2697;2440;-731;8;0.02493075;-0.9226986;-0.3711911;-0.101108;10;2;-12;-1971;681;3085;0.6910168;1.847588;2.085876;0.6910359;1.84934;1.540331;0.6910306;1.848858;1.060792;0.6865522;1.75992;0.3324158;0.4242182;1.696346;0.01321828;0.08758732;1.79408;0.144622;-0.1630569;0.9058142;0.2251862;0;0;0;0.9438258;1.668675;0.01339892;1.236529;1.732895;0.1450236;1.416885;0.8221679;0.4025572;1.366013;-0.08171296;0.1229186;0.3791759;1.843209;2.131354;0.2840063;0.454864;2.583349;-0.02823162;0.9873612;3.77971;0.3791759;1.843209;2.131354;0.2840063;0.454864;2.583349;-0.02823162;0.9873612;3.77971
1239451.2634;NotLabelled;NONE;16384;0.6968521;-0.6689751;0.2534626;0.05124654;-7;67;-6;-3062;2888;583;65536;0.7630913;-0.634349;-0.033241;0.1191136;-15;17;1;163;4072;-503;8192;0.5290859;-0.6450592;-0.4750692;-0.2797784;-5;18;0;1514;3441;-239;32768;0.6681918;-0.4903047;-0.33241;-0.4501385;7;-2;3;1452;3923;-248;256;-0.09279778;-0.03601108;-0.9933317;0.05817174;0;-16;16;-217;-856;3241;128;0.166205;-0.05540166;0.97696;0.1218837;22;-15;-15;929;637;-3704;4;0.5152354;-0.6676001;0.4709141;0.2590028;17;5;-19;1171;3506;-90;16;-0.1648199;-0.9646792;0.05955679;-0.1966759;41;27;-38;193;3874;4492;2;0.16759;-0.5914127;-0.6695828;-0.4168975;-3;-8;-22;2083;2824;721;8;0.02216066;-0.9262553;-0.3642659;-0.09418282;-11;-52;-16;-985;541;2537;0.6938065;1.844033;2.092256;0.69386;1.848903;1.546731;0.6938847;1.851161;1.067197;0.6889172;1.761935;0.3388589;0.4263102;1.698865;0.0197857;0.0899658;1.797464;0.1512758;-0.1576985;0.9075317;0.222066;0;0;0;0.9458494;1.669938;0.01978254;1.238756;1.733505;0.1512709;1.418685;0.8197818;0.3982746;1.36957;-0.08464181;0.1200781;0.3819627;1.839394;2.137689;0.2722531;0.4623487;2.619943;-0.01944995;0.9669456;3.833458;0.3819627;1.839394;2.137689;0.2722531;0.4623487;2.619943;-0.01944995;0.9669456;3.833458
1239472.2741;NotLabelled;NONE;16384;0.6942389;-0.6717451;0.2548476;0.04293629;1;13;-12;-3650;2420;-673;65536;0.7618761;-0.6357341;-0.03462604;0.1191136;-1;-1;-16;-563;3846;-357;8192;0.5290859;-0.6434334;-0.4764543;-0.2811634;-5;12;-2;860;4153;-585;32768;0.6698921;-0.4889196;-0.3310249;-0.4501385;11;-10;0;1354;3935;-360;256;-0.09556787;-0.03878116;-0.9928826;0.05955679;-8;-8;11;505;-848;3577;128;0.1689751;-0.05401662;0.9770719;0.1177285;25;1;-8;239;509;-4094;4;0.5152354;-0.6694352;0.466759;0.2617728;11;6;5;1621;3520;-640;16;-0.1606648;-0.9664921;0.05955679;-0.1911357;18;-20;-30;121;3352;4768;2;0.1717452;-0.5914127;-0.668529;-0.4168975;-15;-23;-22;3307;3150;203;8;0.02216066;-0.9296198;-0.3559557;-0.09279778;0;-42;-5;-3917;-469;2861;0.70555;1.848833;2.08866;0.705565;1.850197;1.543115;0.705556;1.849372;1.063576;0.6998633;1.759664;0.3353024;0.4368181;1.697728;0.01636799;0.1010353;1.798156;0.14791;-0.1531936;0.9098408;0.2156804;0;0;0;0.9562011;1.666119;0.01619872;1.24948;1.728263;0.1475371;1.434345;0.8132617;0.3860211;1.383492;-0.09116113;0.1081365;0.3937094;1.844487;2.134144;0.2860827;0.4809923;2.653912;0.03160214;0.9406264;3.893389;0.3937094;1.844487;2.134144;0.2860827;0.4809923;2.653912;0.03160214;0.9406264;3.893389
1239494.1629;NotLabelled;NONE;16384;0.6920026;-0.6717451;0.2603878;0.04570637;6;-21;9;-476;4788;411;65536;0.7618522;-0.634349;-0.03601108;0.1260388;4;-11;-9;-1297;3962;-771;8192;0.5304709;-0.6427101;-0.4750692;-0.2825485;-4;2;-6;1270;4087;107;32768;0.6723018;-0.4875346;-0.333795;-0.4459834;12;-1;-3;1444;3757;-602;256;-0.09695291;-0.0401662;-0.9926091;0.06094183;-12;-1;8;1099;-976;4367;128;0.1689751;-0.05263158;0.9774773;0.1149584;-1;-1;0;-251;301;-3746;4;0.5166205;-0.6701627;0.4626039;0.2645429;-3;17;23;1287;2706;-526;16;-0.1592798;-0.9671766;0.06509695;-0.1869806;-4;-39;-23;-211;2646;3824;2;0.1759003;-0.5914127;-0.6683109;-0.4155124;-16;10;-1;4285;2714;-989;8;0.0235457;-0.9290543;-0.3573407;-0.09279778;8;30;9;-5965;-2221;4095;0.7130431;1.854181;2.070802;0.7130069;1.850862;1.525265;0.7129527;1.845921;1.045751;0.7068875;1.753698;0.3177946;0.4435718;1.691936;-0.0009495765;0.1082721;1.794464;0.130204;-0.1548365;0.9100671;0.2135426;0;0;0;0.9627938;1.657786;-0.0009525716;1.256361;1.718953;0.1301996;1.441288;0.8051405;0.3731447;1.388494;-0.09792292;0.09122992;0.4012069;1.850226;2.116351;0.3085589;0.48333;2.630035;0.07554126;0.9320674;3.877699;0.4012069;1.850226;2.116351;0.3085589;0.48333;2.630035;0.07554126;0.9320674;3.877699
1239514.377;NotLabelled;NONE;16384;0.6925222;-0.6717451;0.2590028;0.04570637;-1;11;7;-750;4188;1135;65536;0.7629367;-0.632964;-0.03739612;0.1260388;-4;1;-10;-733;3860;-915;8192;0.5304709;-0.6410723;-0.4764543;-0.2839335;-5;22;-3;154;4421;75;32768;0.673304;-0.4861496;-0.333795;-0.4459834;8;-4;-11;1572;3835;-756;256;-0.09695291;-0.04155125;-0.9924661;0.06232687;13;-5;-4;-305;-1360;3019;128;0.1689751;-0.04709141;0.9772624;0.1191136;1;-21;-3;829;349;-3408;4;0.5207756;-0.6683023;0.4598338;0.265928;0;5;38;15;2316;-314;16;-0.1537396;-0.9685096;0.06648199;-0.1842105;-15;-10;-9;-597;2742;2760;2;0.1745152;-0.5900277;-0.6707535;-0.4141274;2;17;22;4669;2454;-913;8;0.0235457;-0.9236078;-0.3711911;-0.09279778;10;126;7;-3411;-817;4181;0.7061189;1.858006;2.069447;0.7060466;1.851406;1.52394;0.7059607;1.843583;1.044464;0.6995277;1.74909;0.316802;0.4360022;1.686934;-0.001692683;0.1009674;1.790643;0.1292084;-0.1633703;0.9072543;0.2190834;0;0;0;0.9551443;1.65159;-0.001695842;1.248879;1.712493;0.1292031;1.432291;0.7971784;0.3676013;1.388678;-0.1060883;0.08476824;0.3942857;1.854324;2.115039;0.3117186;0.4830486;2.618671;0.09597838;0.9305981;3.869863;0.3942857;1.854324;2.115039;0.3117186;0.4830486;2.618671;0.09597838;0.9305981;3.869863
1239536.1173;NotLabelled;NONE;16384;0.6931286;-0.6717451;0.2576177;0.04432133;-4;17;3;-1762;3188;1015;65536;0.7614858;-0.634349;-0.03878116;0.1274238;-5;0;-21;-859;3710;-779;8192;0.5318559;-0.6393074;-0.4764543;-0.2853186;-14;-9;-3;352;4363;937;32768;0.6734436;-0.4875346;-0.33518;-0.4432133;0;-19;-12;1208;3779;-674;256;-0.09695291;-0.04155125;-0.9926362;0.05955679;20;3;-6;375;-728;3369;128;0.1689751;-0.04847645;0.9771947;0.1191136;0;17;6;-35;905;-3628;4;0.5235457;-0.6667547;0.4556787;0.2714681;6;1;50;-835;2494;146;16;-0.1509695;-0.9698318;0.06094183;-0.1814404;-17;46;6;-695;2884;2396;2;0.1689751;-0.5914127;-0.6718051;-0.4127424;20;10;24;2881;3016;-727;8;0.02493075;-0.9196154;-0.3808864;-0.09279778;11;31;3;-845;1113;3231;0.704028;1.852417;2.074033;0.7039928;1.849214;1.528496;0.7039398;1.844375;1.048981;0.6971162;1.747681;0.3216115;0.4333692;1.685206;0.003362641;0.09862037;1.790144;0.1340163;-0.1643956;0.9062244;0.2225492;0;0;0;0.9524224;1.648577;0.003359348;1.246335;1.709152;0.134011;1.43026;0.7934738;0.3706142;1.387825;-0.1089512;0.08493161;0.3921916;1.848451;2.119581;0.3067171;0.4721425;2.608792;0.09885454;0.9060179;3.866119;0.3921916;1.848451;2.119581;0.3067171;0.4721425;2.608792;0.09885454;0.9060179;3.866119
1239556.1536;NotLabelled;NONE;16384;0.6940399;-0.6703601;0.2590028;0.04293629;-6;-24;-1;-1556;3542;103;65536;0.7608708;-0.634349;-0.04155125;0.1301939;-1;-3;-27;-829;3914;-571;8192;0.536011;-0.6387085;-0.4750692;-0.2811634;-18;-32;1;1626;3739;981;32768;0.6742564;-0.4889196;-0.33518;-0.4404432;-2;-17;-5;164;4097;-538;256;-0.09556787;-0.0401662;-0.9929898;0.0567867;14;12;-5;675;-156;3803;128;0.16759;-0.05124654;0.9774597;0.1177285;6;21;12;-441;1415;-4736;4;0.5290859;-0.6680152;0.4404432;0.2825485;30;29;63;11;3214;-1684;16;-0.1537396;-0.9704794;0.0401662;-0.1814404;-27;45;30;85;334;4454;2;0.1689751;-0.5900277;-0.6721706;-0.4141274;-13;21;-4;2261;2740;445;8;0.02631579;-0.926424;-0.3642659;-0.09141274;-6;-83;-9;-2699;-279;2429;0.6996802;1.846316;2.073234;0.699648;1.843388;1.527694;0.6995975;1.838792;1.048177;0.6930065;1.746117;0.320282;0.4293503;1.685546;0.001590267;0.09460783;1.789946;0.1326907;-0.1689519;0.90605;0.2198309;0;0;0;0.9483832;1.64863;0.001587778;1.242278;1.70832;0.1326864;1.42573;0.7914531;0.3650129;1.387385;-0.1122804;0.08290607;0.3878434;1.842327;2.118777;0.3108754;0.4588184;2.58871;0.1075118;0.8828061;3.85014;0.3878434;1.842327;2.118777;0.3108754;0.4588184;2.58871;0.1075118;0.8828061;3.85014
1239577.1268;NotLabelled;NONE;16384;0.6933444;-0.6703601;0.2603878;0.04570637;0;-21;3;-860;3964;-135;65536;0.7611456;-0.632964;-0.04432133;0.134349;1;-6;-23;-1299;4006;-589;8192;0.5387812;-0.6381931;-0.4750692;-0.2770083;-21;-15;9;1872;3389;-159;32768;0.6748408;-0.4903047;-0.333795;-0.4390582;3;-4;2;1150;3851;-312;256;-0.09556787;-0.03878116;-0.9931231;0.05540166;2;3;-3;467;-92;4395;128;0.16759;-0.05124654;0.9776255;0.1163435;4;-6;3;-297;1265;-3668;4;0.5304709;-0.6687772;0.432133;0.2908587;36;0;59;-299;3328;-806;16;-0.1592798;-0.9690126;0.03462604;-0.1855956;-32;31;53;27;-992;4368;2;0.1689751;-0.5872576;-0.6762847;-0.4113573;-24;32;4;2667;2324;-379;8;0.02493075;-0.9282207;-0.3601108;-0.0900277;-7;7;-1;-4449;63;2405;0.69634;1.841337;2.078704;0.696297;1.837416;1.533171;0.696237;1.831946;1.053663;0.6900538;1.743556;0.325232;0.4266175;1.684332;0.006106079;0.09162406;1.787277;0.1377151;-0.1768453;0.9044237;0.220318;0;0;0;0.9457241;1.648471;0.006047994;1.239458;1.707983;0.1375885;1.428419;0.790745;0.3639572;1.39332;-0.1137494;0.08387399;0.3845042;1.837431;2.12426;0.3373873;0.4389827;2.552023;0.1214219;0.8603225;3.812245;0.3845042;1.837431;2.12426;0.3373873;0.4389827;2.552023;0.1214219;0.8603225;3.812245
1239598.119;NotLabelled;NONE;16384;0.6934758;-0.6703601;0.2590028;0.05124654;4;0;10;-536;4226;783;65536;0.761385;-0.6315789;-0.04709141;0.1385041;1;-3;-11;-1231;3764;-805;8192;0.536011;-0.6384577;-0.4778393;-0.2770083;0;10;-4;918;4213;-159;32768;0.6754716;-0.4875346;-0.3365651;-0.4390582;14;0;-10;1150;3907;-668;256;-0.09418282;-0.03878116;-0.9933317;0.05401662;9;-1;-3;-21;-288;4301;128;0.16759;-0.04986149;0.9773635;0.1191136;-14;-17;-10;419;971;-3514;4;0.5290859;-0.6700252;0.4252077;0.300554;49;7;62;-621;3338;-148;16;-0.1648199;-0.966638;0.02908587;-0.1939058;-31;30;70;-415;-1282;3308;2;0.16759;-0.5844875;-0.6798608;-0.4099723;-6;28;10;2597;2542;-649;8;0.02216066;-0.9248884;-0.368421;-0.09141274;-7;90;5;-4271;1625;2267;0.6855267;1.8406;2.080225;0.6854671;1.835178;1.534705;0.6853926;1.828389;1.055214;0.6796533;1.742201;0.3265158;0.4164632;1.683294;0.007128;0.0811747;1.785007;0.1389439;-0.1848646;0.9017241;0.2247553;0;0;0;0.9356572;1.648721;0.00712496;1.229201;1.708562;0.1389384;1.426287;0.7926462;0.36373;1.390209;-0.1121281;0.08467948;0.3736924;1.836819;2.125802;0.3503368;0.4308429;2.530207;0.1205071;0.8637109;3.784054;0.3736924;1.836819;2.125802;0.3503368;0.4308429;2.530207;0.1205071;0.8637109;3.784054
1239620.114;NotLabelled;NONE;16384;0.6957349;-0.6689751;0.2562327;0.05263158;-3;0;10;-1064;3964;1291;65536;0.7610447;-0.6315789;-0.04847645;0.1398892;-7;3;-14;-1099;3660;-899;8192;0.5373961;-0.6366884;-0.4778393;-0.2783934;-3;3;-10;1116;4095;899;32768;0.676574;-0.4875346;-0.3379501;-0.4362881;7;-1;-9;1056;3733;-992;256;-0.09556787;-0.03739612;-0.9934698;0.04986149;26;8;-1;241;-802;3599;128;0.1689751;-0.05124654;0.9761841;0.1260388;-25;16;2;595;787;-3976;4;0.5277008;-0.6727753;0.4155124;0.3102493;58;20;68;-489;3776;-1126;16;-0.1703601;-0.9641859;0.02077562;-0.2022161;-16;60;78;-453;-622;2716;2;0.16759;-0.5817174;-0.6830629;-0.4085872;-10;16;0;1379;3264;541;8;0.02077562;-0.9185666;-0.3836565;-0.09279778;-12;106;2;-2393;1413;1993;0.6687511;1.8321;2.084661;0.6687215;1.829404;1.53912;0.6686733;1.825013;1.059601;0.6632403;1.740906;0.3306573;0.4001752;1.683024;0.01097918;0.06486851;1.784505;0.1429269;-0.1935072;0.8989375;0.2286118;0;0;0;0.9193544;1.648227;0.01112121;1.212862;1.707564;0.1432432;1.409802;0.7944779;0.3793855;1.38043;-0.1096416;0.09744108;0.3569143;1.828091;2.130201;0.3618366;0.4167231;2.516046;0.1035325;0.8608737;3.760367;0.3569143;1.828091;2.130201;0.3618366;0.4167231;2.516046;0.1035325;0.8608737;3.760367
1239640.3045;NotLabelled;NONE;16384;0.6971673;-0.66759;0.2562327;0.05124654;-7;-6;6;-1564;3712;963;65536;0.7608632;-0.6315789;-0.05124654;0.1398892;-7;0;-21;-495;4050;-589;8192;0.5387812;-0.634473;-0.4792244;-0.2783934;-9;14;-3;1544;3923;913;32768;0.6758804;-0.4875346;-0.3393352;-0.4362881;3;0;-2;916;3791;-580;256;-0.09556787;-0.03462604;-0.9937699;0.04570637;25;8;-3;125;-376;3821;128;0.16759;-0.05263158;0.9759876;0.1288089;-5;0;4;409;1391;-4222;4;0.5277008;-0.6749829;0.4044321;0.3199446;56;21;64;-695;4756;-1012;16;-0.1731302;-0.9621195;0.005540166;-0.2105263;4;107;85;-73;-442;2282;2;0.1717452;-0.5803324;-0.6823786;-0.4099723;-9;1;-17;1737;3652;621;8;0.01800554;-0.9151101;-0.3919668;-0.09279778;-20;40;-9;-1217;1293;2049;0.6618952;1.81184;2.095615;0.6619515;1.816973;1.550092;0.6619789;1.819461;1.070559;0.65692;1.741516;0.3409281;0.3940634;1.685791;0.0206953;0.05850841;1.785447;0.1534011;-0.1965124;0.8980393;0.2295751;0;0;0;0.9133146;1.652085;0.02069291;1.206662;1.710918;0.1533967;1.404775;0.7955031;0.3793204;1.37995;-0.1090137;0.09821349;0.3500512;1.807179;2.141044;0.3909284;0.3910191;2.506664;0.1099726;0.8445904;3.742651;0.3500512;1.807179;2.141044;0.3909284;0.3910191;2.506664;0.1099726;0.8445904;3.742651
1239661.123;NotLabelled;NONE;16384;0.6978782;-0.666205;0.2576177;0.05263158;1;-22;1;-1582;3380;-37;65536;0.7591014;-0.632964;-0.05263158;0.1426593;-1;-7;-24;-1137;3842;-523;8192;0.5401662;-0.6311885;-0.4819945;-0.2783934;-11;18;6;1236;3665;629;32768;0.6767725;-0.4875346;-0.3393352;-0.434903;1;-2;0;778;4041;-550;256;-0.09418282;-0.033241;-0.9941319;0.04155125;20;9;-6;195;210;4225;128;0.16759;-0.05263158;0.9759876;0.1288089;-1;6;2;111;1719;-4090;4;0.5290859;-0.6805503;0.3850415;0.3296399;28;52;39;-907;3774;-130;16;-0.1800554;-0.9574345;-0.0235457;-0.2243767;-26;65;60;-65;-5384;6200;2;0.1759003;-0.5692521;-0.690604;-0.4099723;-25;57;-14;2821;2968;-13;8;0.01108033;-0.9184309;-0.3850415;-0.0900277;-15;-28;-22;-4299;-7;2285;0.6600367;1.798414;2.094662;0.6601285;1.806785;1.549179;0.6601871;1.812121;1.069669;0.6560957;1.740604;0.3393736;0.3937681;1.686475;0.01843396;0.05763888;1.783378;0.1517243;-0.2007145;0.8970885;0.2296599;0;0;0;0.9131721;1.65521;0.01858306;1.206129;1.714244;0.1520549;1.406957;0.8000028;0.3803226;1.384024;-0.1050183;0.1006823;0.3481896;1.793483;2.140042;0.4228404;0.3724995;2.480762;0.1116997;0.8241272;3.710213;0.3481896;1.793483;2.140042;0.4228404;0.3724995;2.480762;0.1116997;0.8241272;3.710213
1239681.1406;NotLabelled;NONE;16384;0.6965231;-0.666205;0.2603878;0.0567867;7;-38;7;-520;4072;-383;65536;0.7593654;-0.6315789;-0.05401662;0.1468144;4;-11;-16;-1619;3926;-549;8192;0.5401662;-0.6301284;-0.4833795;-0.2783934;-6;-2;3;970;3937;199;32768;0.6767725;-0.4875346;-0.3393352;-0.434903;3;0;-4;1140;3959;-456;256;-0.09279778;-0.03185596;-0.9944724;0.03739612;16;6;-5;261;362;4391;128;0.16759;-0.05540166;0.9754646;0.1315789;-15;12;1;-35;1665;-3838;4;0.5318559;-0.6844656;0.3753462;0.3282548;27;65;30;-1545;3340;454;16;-0.1869806;-0.9543429;-0.02770083;-0.2313019;-36;0;54;47;-3928;3950;2;0.1759003;-0.5623268;-0.6970682;-0.4085872;-30;60;0;2319;3152;477;8;0.008310249;-0.9187274;-0.3850415;-0.08725762;-10;15;-17;-4707;115;2399;0.6541184;1.791158;2.099719;0.6542103;1.799529;1.554236;0.6542689;1.804865;1.074726;0.6504626;1.739647;0.3438396;0.3883023;1.687813;0.02238503;0.05196856;1.782948;0.1564304;-0.2074698;0.8963275;0.2266034;0;0;0;0.9077622;1.657494;0.02238229;1.200583;1.715909;0.1564255;1.406207;0.8005369;0.3757157;1.385899;-0.1044174;0.09565675;0.3422714;1.786227;2.145098;0.4635533;0.3611177;2.453665;0.09834594;0.8110495;3.668783;0.3422714;1.786227;2.145098;0.4635533;0.3611177;2.453665;0.09834594;0.8110495;3.668783
1239701.1113;NotLabelled;NONE;16384;0.6959237;-0.666205;0.2603878;0.06371191;0;8;10;-180;4346;1435;65536;0.7587247;-0.6315789;-0.05540166;0.1495845;-11;3;-5;-1215;3684;-941;8192;0.5401662;-0.6288974;-0.4833795;-0.2811634;0;20;-6;1068;4235;293;32768;0.6755639;-0.4875346;-0.3434903;-0.433518;0;3;-13;1090;3809;-718;256;-0.09141274;-0.03047091;-0.9947443;0.03462604;21;3;-4;57;-68;4169;128;0.16759;-0.05540166;0.9748951;0.1357341;-36;-6;-1;407;1217;-2780;4;0.533241;-0.6884618;0.368421;0.3254848;29;59;25;-1979;3498;264;16;-0.1925208;-0.951573;-0.02631579;-0.2382271;-35;1;45;-479;-2620;2924;2;0.1772853;-0.5581717;-0.700857;-0.4072022;-24;10;1;1783;3500;-469;8;0.006925208;-0.9172458;-0.3891967;-0.08448754;-1;47;-15;-3981;481;2543;0.6444635;1.775781;2.102255;0.6445945;1.787715;1.556839;0.6446874;1.796183;1.077374;0.6413582;1.737265;0.3459505;0.3794509;1.687721;0.02392924;0.04287641;1.781076;0.1586207;-0.2141158;0.8938529;0.2301726;0;0;0;0.898966;1.658363;0.02392623;1.191613;1.71616;0.1586161;1.398512;0.8011391;0.3781718;1.379088;-0.1038151;0.09805059;0.3326133;1.770554;2.14758;0.464553;0.344708;2.44827;0.07451344;0.8079083;3.650618;0.3326133;1.770554;2.14758;0.464553;0.344708;2.44827;0.07451344;0.8079083;3.650618
1239723.136;NotLabelled;NONE;16384;0.6985224;-0.66482;0.2576177;0.06094183;-3;17;1;-1536;3240;1209;65536;0.7573619;-0.632964;-0.05817174;0.1495845;-13;5;-16;-841;3848;-685;8192;0.5401662;-0.6261353;-0.4861496;-0.2825485;-5;12;-3;1212;3719;819;32768;0.6745622;-0.4889196;-0.3434903;-0.433518;-3;-5;-5;718;3877;-728;256;-0.09141274;-0.02770083;-0.9951155;0.02493075;35;6;-2;195;-404;3461;128;0.16759;-0.0567867;0.9734162;0.1454294;-27;3;0;339;1039;-3814;4;0.533241;-0.6907443;0.3628809;0.3268698;31;21;27;-1633;4152;-292;16;-0.1980609;-0.9493033;-0.02908587;-0.2423823;-26;37;35;-1121;-1748;2762;2;0.1800554;-0.5581717;-0.7017542;-0.4044321;-21;-8;4;2239;2988;665;8;0.004155125;-0.9151436;-0.3947368;-0.08171745;-5;21;-22;-2907;103;2725;0.6295284;1.76376;2.098462;0.6297089;1.780205;1.553163;0.6298454;1.792639;1.073785;0.6271372;1.738001;0.3420267;0.3655543;1.689787;0.01954056;0.02869022;1.781633;0.154544;-0.2201051;0.8924098;0.2301217;0;0;0;0.8851308;1.661536;0.01972324;1.177562;1.719166;0.154951;1.379748;0.8046746;0.3810078;1.367991;-0.1016858;0.1050363;0.317674;1.758158;2.143713;0.4561807;0.3329412;2.44443;0.04394048;0.8093135;3.634159;0.317674;1.758158;2.143713;0.4561807;0.3329412;2.44443;0.04394048;0.8093135;3.634159
1239744.5398;NotLabelled;NONE;16384;0.6982464;-0.66482;0.2590028;0.05817174;-5;-6;-5;-2100;3330;343;65536;0.7557087;-0.634349;-0.06094183;0.1509695;-9;2;-26;-981;3960;-449;8192;0.5415512;-0.6244833;-0.4875346;-0.2811634;-11;-7;6;1962;3281;607;32768;0.6744456;-0.4903047;-0.3434903;-0.432133;-1;-4;7;414;4091;-362;256;-0.0900277;-0.02631579;-0.9954027;0.01939058;29;10;-1;327;-22;3609;128;0.16759;-0.05817174;0.9729165;0.1481994;-18;7;1;99;1267;-4244;4;0.5318559;-0.6920026;0.3587258;0.3310249;14;-3;29;-913;5244;-626;16;-0.2036011;-0.9474282;-0.03878116;-0.2437673;-14;65;23;-633;-1410;3190;2;0.1828255;-0.5595568;-0.7023172;-0.400277;-26;-18;0;1893;2878;375;8;0.001385042;-0.9161094;-0.3933518;-0.07756232;-14;-25;-29;-1677;375;2565;0.6257782;1.727392;2.107171;0.6260773;1.754648;1.562305;0.6263181;1.776586;1.083267;0.6242865;1.73646;0.3505679;0.3630937;1.693678;0.02699997;0.02580192;1.781576;0.1635559;-0.2250582;0.8919814;0.2269706;0;0;0;0.882772;1.667362;0.02699745;1.174899;1.723386;0.1635512;1.380295;0.8071172;0.3792817;1.367346;-0.1000884;0.1061541;0.3139139;1.720895;2.152234;0.4652168;0.2959225;2.447901;0.03965503;0.7831759;3.628498;0.3139139;1.720895;2.152234;0.4652168;0.2959225;2.447901;0.03965503;0.7831759;3.628498
1239765.1457;NotLabelled;NONE;16384;0.698414;-0.6634349;0.2617728;0.05955679;-3;-25;-2;-1370;3694;-535;65536;0.755037;-0.634349;-0.06232687;0.1537396;0;-4;-26;-1179;4018;-389;8192;0.5415512;-0.6246415;-0.4889196;-0.2783934;-9;-2;11;2072;3291;-41;32768;0.6752657;-0.4889196;-0.3421052;-0.433518;3;5;13;916;3949;-380;256;-0.0900277;-0.02493075;-0.9955106;0.01523546;20;7;-2;123;-32;4105;128;0.16759;-0.06094183;0.9723209;0.1509695;-22;13;1;467;1285;-4146;4;0.534626;-0.6872208;0.3573407;0.3379501;-7;-6;25;-705;3690;-464;16;-0.2105263;-0.9458759;-0.05401662;-0.2409972;-14;31;-3;231;-1636;3700;2;0.1911357;-0.5554016;-0.707298;-0.3933518;-40;27;-19;1503;2118;1035;8;-0.009695291;-0.9218687;-0.3808864;-0.07063711;-45;-22;-45;-2617;955;1365;0.6230198;1.709306;2.102248;0.6233549;1.739853;1.557557;0.6236274;1.764685;1.07866;0.6220704;1.73288;0.3455518;0.3611298;1.69334;0.02136943;0.02361505;1.779116;0.1587206;-0.2322287;0.891036;0.2234306;0;0;0;0.8808513;1.667895;0.02136642;1.172808;1.722853;0.1587157;1.382379;0.8071649;0.3728874;1.370823;-0.1008008;0.1022353;0.3111526;1.702536;2.14725;0.4781299;0.2780176;2.4366;0.03953326;0.7719328;3.609634;0.3111526;1.702536;2.14725;0.4781299;0.2780176;2.4366;0.03953326;0.7719328;3.609634
1239786.1233;NotLabelled;NONE;16384;0.6958066;-0.66482;0.2645429;0.06232687;3;-33;2;-850;4130;-687;65536;0.7551081;-0.632964;-0.06509695;0.1578947;7;-9;-20;-1747;3800;-361;8192;0.5387812;-0.6254778;-0.4916897;-0.2770083;-2;24;9;1312;3945;-659;32768;0.6753765;-0.4875346;-0.3421052;-0.434903;9;10;7;1430;3933;-406;256;-0.0900277;-0.0235457;-0.9955645;0.01385042;18;2;-3;29;-532;4539;128;0.166205;-0.06509695;0.9718552;0.1537396;-22;28;6;301;995;-5052;4;0.5373961;-0.6879182;0.3518005;0.3379501;17;32;18;-3099;5938;-1686;16;-0.2132964;-0.9458769;-0.05540166;-0.2382271;-7;7;6;-459;-3488;7798;2;0.1980609;-0.5512465;-0.7101725;-0.3905817;-45;5;-26;2399;2526;-83;8;-0.01523546;-0.9226737;-0.3795014;-0.06648199;-28;28;-61;-1585;2365;3053;0.6195627;1.693795;2.102931;0.6199371;1.72792;1.558453;0.620244;1.755897;1.07973;0.6190445;1.730343;0.3463764;0.3583138;1.693047;0.02175942;0.02057254;1.776971;0.1596963;-0.2374941;0.8895056;0.2239955;0;0;0;0.8780853;1.668645;0.02175653;1.169876;1.723014;0.1596916;1.384553;0.809015;0.3760117;1.370916;-0.09770405;0.1013081;0.3076923;1.686731;2.147866;0.4790065;0.2581832;2.41388;0.03809589;0.7592876;3.582991;0.3076923;1.686731;2.147866;0.4790065;0.2581832;2.41388;0.03809589;0.7592876;3.582991
1239807.3006;NotLabelled;NONE;16384;0.693809;-0.66482;0.267313;0.07202215;8;-16;10;616;4852;1445;65536;0.7553875;-0.6315789;-0.06509695;0.1620499;1;-4;1;-1459;3674;-1029;8192;0.5373961;-0.6226251;-0.4944598;-0.2811634;-2;22;-1;1440;4117;569;32768;0.6767654;-0.4833795;-0.3434903;-0.4362881;7;3;5;1334;3913;-576;256;-0.08864266;-0.02493075;-0.9957042;0.009695291;20;-21;-1;3;-766;4921;128;0.1648199;-0.06094183;0.9714682;0.1592798;-38;-87;-8;1027;1583;-5060;4;0.5318559;-0.6894781;0.3518005;0.3434903;40;-43;5;-2055;10612;-1296;16;-0.2077562;-0.9462824;-0.04432133;-0.2437673;31;-85;16;301;-5124;4902;2;0.2022161;-0.5512465;-0.7082359;-0.3919668;14;-24;-25;1357;2246;-1721;8;-0.01939058;-0.9242909;-0.3767313;-0.05817174;-15;-47;-66;-1799;2845;2877;0.6091136;1.682383;2.100863;0.6095299;1.720323;1.556637;0.6098737;1.751655;1.078123;0.6088363;1.728308;0.3446947;0.3482434;1.691335;0.01993033;0.0102742;1.773996;0.1580718;-0.2454556;0.8862889;0.228121;0;0;0;0.8680744;1.668236;0.01992729;1.159709;1.722922;0.1580669;1.377118;0.8112257;0.3812655;1.362983;-0.09472144;0.1040512;0.2972398;1.675004;2.145724;0.4733557;0.2452683;2.402039;0.03813887;0.7529414;3.570448;0.2972398;1.675004;2.145724;0.4733557;0.2452683;2.402039;0.03813887;0.7529414;3.570448
1239829.3118;NotLabelled;NONE;16384;0.6948699;-0.66482;0.2645429;0.07202215;-1;17;13;296;4606;1261;65536;0.7553875;-0.6315789;-0.06509695;0.1620499;-9;5;5;-1615;3714;-783;8192;0.536011;-0.6203518;-0.4972299;-0.2839335;-6;20;-4;712;4223;149;32768;0.6777525;-0.4819945;-0.3434903;-0.4362881;10;6;-4;1268;4015;-386;256;-0.0900277;-0.02770083;-0.9955501;0.002770083;14;-9;0;151;712;4375;128;0.1689751;-0.04293629;0.9712589;0.1620499;9;-20;-5;909;1849;-4970;4;0.5304709;-0.6884339;0.3545706;0.3448753;-25;-29;5;-1819;3632;-1500;16;-0.2049861;-0.9464679;-0.03739612;-0.2465374;-6;-50;13;-693;-4620;2216;2;0.2105263;-0.5554016;-0.7009925;-0.3947368;12;-87;-47;1127;4338;715;8;-0.02493075;-0.9300913;-0.3628809;-0.05124654;-30;-104;-65;-1741;-1197;4125;0.5943528;1.662999;2.095929;0.5948253;1.706059;1.552084;0.5952185;1.741892;1.073886;0.5946389;1.724481;0.3402925;0.3341559;1.691059;0.01505482;-0.003620449;1.773799;0.153621;-0.250135;0.8841298;0.2313955;0;0;0;0.8539019;1.666119;0.01523334;1.145627;1.718652;0.1540167;1.359327;0.8082645;0.3859692;1.349821;-0.09568095;0.1021023;0.2824743;1.655198;2.140686;0.476997;0.2284839;2.400505;0.03056443;0.7287207;3.56789;0.2824743;1.655198;2.140686;0.476997;0.2284839;2.400505;0.03056443;0.7287207;3.56789
1239851.3398;NotLabelled;NONE;16384;0.6973805;-0.6634349;0.2617728;0.07063711;-12;16;8;-1092;3930;647;65536;0.7548171;-0.632964;-0.06509695;0.1592798;-12;11;4;-1267;3926;-627;8192;0.5373961;-0.6189865;-0.4958449;-0.2867036;4;10;-14;342;4327;-307;32768;0.6773264;-0.4806094;-0.3462604;-0.4362881;11;4;-13;1468;3887;-606;256;-0.0900277;-0.02908587;-0.9955145;0;4;-7;0;267;428;4451;128;0.16759;-0.04293629;0.9719568;0.1592798;16;-1;13;429;1399;-3872;4;0.5290859;-0.6830797;0.3614958;0.3504155;-17;-82;10;-1101;2264;-552;16;-0.2063712;-0.9454945;-0.03601108;-0.2493075;5;-9;16;-791;-1738;3126;2;0.2202216;-0.5595568;-0.6930995;-0.3975069;-13;-51;-60;2393;4742;199;8;-0.03601108;-0.9369097;-0.3448753;-0.04432133;-63;-106;-74;-2579;-869;4363;0.5915065;1.649357;2.106514;0.5919737;1.691929;1.562631;0.5923623;1.727333;1.0844;0.5919399;1.719626;0.3506405;0.3313597;1.692263;0.02491544;-0.005903792;1.775436;0.1644673;-0.2494732;0.8841295;0.2321094;0;0;0;0.8509259;1.663822;0.02491224;1.142946;1.712549;0.1644617;1.357422;0.7998695;0.3864782;1.34841;-0.1032014;0.09982568;0.2796284;1.641597;2.151281;0.4740491;0.2150763;2.412238;0.02786839;0.7126241;3.580868;0.2796284;1.641597;2.151281;0.4740491;0.2150763;2.412238;0.02786839;0.7126241;3.580868
1239872.1615;NotLabelled;NONE;16384;0.6972346;-0.66482;0.2590028;0.06925207;-4;14;9;-1396;3654;-445;65536;0.7538241;-0.634349;-0.06648199;0.1578947;-4;6;2;-1259;3962;-267;8192;0.5373961;-0.6170449;-0.4958449;-0.2908587;2;8;-15;572;4359;373;32768;0.6767951;-0.4806094;-0.3490305;-0.434903;9;0;-18;1042;3845;-754;256;-0.0900277;-0.02908587;-0.9955145;0;1;-3;-3;339;-122;4017;128;0.166205;-0.04155125;0.9724807;0.1578947;7;-7;11;-543;995;-3306;4;0.5290859;-0.671965;0.3739612;0.3587258;-15;-19;13;477;3060;-958;16;-0.2063712;-0.944839;-0.04293629;-0.2506925;4;49;15;-1425;-1536;4172;2;0.2437673;-0.5623268;-0.6804658;-0.4016621;-16;-62;-67;3611;3498;651;8;-0.05817174;-0.9405401;-0.33241;-0.03878116;-65;5;-32;-2779;563;2479;0.59409;1.650166;2.109188;0.594524;1.689707;1.565075;0.5948833;1.722446;1.086655;0.5946605;1.718603;0.3528651;0.3340921;1.693804;0.02692488;-0.00294121;1.777341;0.1668154;-0.2471797;0.8857703;0.2282783;0;0;0;0.8535628;1.66367;0.02692187;1.145697;1.710709;0.1668105;1.356411;0.795891;0.383563;1.351983;-0.1073031;0.09719181;0.2822146;1.642655;2.154016;0.4717932;0.2143649;2.408782;0.01883948;0.7155521;3.573244;0.2822146;1.642655;2.154016;0.4717932;0.2143649;2.408782;0.01883948;0.7155521;3.573244
1239893.2446;NotLabelled;NONE;16384;0.6967599;-0.66759;0.2534626;0.06786703;2;2;19;-1516;3698;-247;65536;0.7551081;-0.632964;-0.06509695;0.1578947;16;-1;1;-1163;3926;-431;8192;0.5401662;-0.6150801;-0.4944598;-0.2922437;-4;-4;-13;1266;3835;869;32768;0.676968;-0.4806094;-0.3504155;-0.433518;7;-3;-10;620;3867;-680;256;-0.08864266;-0.03047091;-0.9955973;0;5;-3;-6;361;-356;3835;128;0.1648199;-0.04155125;0.9724905;0.1592798;-17;-8;7;-765;751;-3306;4;0.5304709;-0.6716881;0.3698061;0.3614958;10;25;15;1515;3814;-1294;16;-0.2077562;-0.9441952;-0.04986149;-0.2506925;-4;43;14;-891;-1488;4094;2;0.2548476;-0.5581717;-0.6781826;-0.4044321;-28;3;-66;3441;2948;461;8;-0.06786703;-0.9379687;-0.3379501;-0.03739612;-55;49;-24;-3281;-1667;3523;0.590796;1.654864;2.108335;0.5912102;1.692609;1.564095;0.5915521;1.723769;1.085569;0.5912154;1.719926;0.3517792;0.3305965;1.695128;0.02587944;-0.006415019;1.778665;0.1658221;-0.2484024;0.8863137;0.2248147;0;0;0;0.8500671;1.664993;0.02579585;1.142223;1.712033;0.1656391;1.348398;0.7945504;0.3753825;1.348975;-0.1095337;0.09179986;0.2789223;1.647502;2.153199;0.4513188;0.2145437;2.393551;-0.008607686;0.7105579;3.557495;0.2789223;1.647502;2.153199;0.4513188;0.2145437;2.393551;-0.008607686;0.7105579;3.557495
1239915.437;NotLabelled;NONE;16384;0.697126;-0.66759;0.2520775;0.06925207;4;-7;22;-1096;3898;443;65536;0.756267;-0.6315789;-0.06509695;0.1578947;16;-5;0;-1223;3766;-635;8192;0.5415512;-0.6145185;-0.4944598;-0.2908587;-3;3;-5;1656;3537;11;32768;0.6764138;-0.4806094;-0.3531856;-0.432133;10;5;0;1070;3859;-644;256;-0.08725762;-0.03185596;-0.9956753;-0.001385042;13;-6;-7;391;-286;3603;128;0.1634349;-0.0401662;0.9723248;0.1620499;-17;-6;7;-187;679;-3442;4;0.533241;-0.6732699;0.3628809;0.3614958;10;50;16;843;4244;-1252;16;-0.2105263;-0.9430618;-0.05263158;-0.2520775;-10;0;15;-1013;-1784;4852;2;0.2617728;-0.5540166;-0.6781247;-0.4058172;-18;19;-54;3513;2552;273;8;-0.07756232;-0.9347973;-0.3448753;-0.03462604;-56;57;-31;-2993;-1687;3549;0.5866469;1.651977;2.108;0.5870775;1.691207;1.563866;0.5874339;1.723672;1.085426;0.5871931;1.719707;0.3516366;0.3265539;1.695576;0.02570324;-0.01024566;1.780069;0.1655826;-0.2462094;0.8862901;0.2273077;0;0;0;0.8459393;1.664003;0.02570039;1.138204;1.710258;0.1655784;1.343127;0.7916608;0.37164;1.347959;-0.1128029;0.08930951;0.2747718;1.644492;2.152835;0.4546042;0.2106043;2.381932;-0.01253265;0.7051084;3.543646;0.2747718;1.644492;2.152835;0.4546042;0.2106043;2.381932;-0.01253265;0.7051084;3.543646
1239936.2579;NotLabelled;NONE;16384;0.6985238;-0.666205;0.2506925;0.0734072;-1;-8;22;-694;3900;1163;65536;0.7586893;-0.6288089;-0.06371191;0.1578947;10;-1;-2;-1437;3674;-733;8192;0.5401662;-0.6139641;-0.4958449;-0.2922437;-2;18;-5;1350;3721;135;32768;0.6766719;-0.4792244;-0.3545706;-0.432133;11;5;2;866;3967;-674;256;-0.08587258;-0.033241;-0.995736;-0.005540166;23;-12;-8;75;-684;3785;128;0.1620499;-0.03878116;0.9721472;0.1648199;-10;-7;3;795;879;-3778;4;0.536011;-0.6755057;0.3559557;0.3601108;11;43;10;-923;4162;-590;16;-0.2132964;-0.9421439;-0.05124654;-0.2534626;-32;-4;15;-1565;-1784;5072;2;0.265928;-0.5498615;-0.6790589;-0.4072022;-17;0;-50;3441;2654;-135;8;-0.08725762;-0.9324961;-0.3490305;-0.03185596;-42;12;-27;-2347;-1685;3273;0.5835941;1.642991;2.112652;0.5840544;1.684948;1.568721;0.5844369;1.719811;1.090451;0.5843056;1.717756;0.3566537;0.323649;1.695257;0.03061737;-0.01291766;1.780399;0.1706632;-0.2460111;0.8856944;0.2298262;0;0;0;0.8429369;1.662121;0.03061417;1.135316;1.707131;0.1706579;1.342625;0.7887877;0.3754568;1.35328;-0.1165195;0.09600532;0.2717166;1.63528;2.157432;0.4587321;0.200806;2.3769;-0.01720369;0.699643;3.533176;0.2717166;1.63528;2.157432;0.4587321;0.200806;2.3769;-0.01720369;0.699643;3.533176
1239957.2603;NotLabelled;NONE;16384;0.7000409;-0.66482;0.2493075;0.07617728;-7;-8;14;-458;4216;1289;65536;0.7585717;-0.6288089;-0.06509695;0.1578947;2;4;-5;-1287;3742;-925;8192;0.5401662;-0.6121805;-0.4972299;-0.2936288;-3;18;-6;1468;3789;531;32768;0.6786251;-0.4764543;-0.3545706;-0.432133;12;6;6;830;3915;-610;256;-0.08448754;-0.03462604;-0.9957755;-0.009695291;27;-7;-6;-45;-256;3733;128;0.1606648;-0.03878116;0.9721413;0.166205;0;-9;0;695;1691;-4226;4;0.536011;-0.6784132;0.3518005;0.3587258;16;23;1;-1221;4338;208;16;-0.2202216;-0.9397984;-0.05124654;-0.2562327;-53;13;11;-1599;-1780;4904;2;0.2714681;-0.5484765;-0.677986;-0.4072022;-18;-10;-48;2779;3306;-563;8;-0.09418282;-0.9329013;-0.3462604;-0.03047091;-30;-29;-29;-2261;-2725;3759;0.5807626;1.629326;2.124043;0.5812531;1.674017;1.58033;0.581662;1.711285;1.102241;0.581925;1.715191;0.3684509;0.3213699;1.69625;0.04210722;-0.0149752;1.781422;0.1826659;-0.2430355;0.8850262;0.2354987;0;0;0;0.8405394;1.661308;0.04210418;1.132997;1.70416;0.1826608;1.338766;0.7859352;0.3895358;1.353195;-0.1189655;0.1089385;0.2688825;1.621391;2.168766;0.4616849;0.1867201;2.381852;-0.02107877;0.6928129;3.532129;0.2688825;1.621391;2.168766;0.4616849;0.1867201;2.381852;-0.02107877;0.6928129;3.532129
1239978.2474;NotLabelled;NONE;16384;0.7034866;-0.6620498;0.2465374;0.07756232;-12;6;10;-256;4196;1107;65536;0.7595978;-0.6274238;-0.06648199;0.1578947;-1;10;-6;-1231;3822;-699;8192;0.5401662;-0.6103855;-0.4986149;-0.2950138;-3;20;-5;1132;3763;287;32768;0.678871;-0.4750692;-0.3559557;-0.432133;11;5;6;1168;3879;-660;256;-0.08310249;-0.03462604;-0.9958429;-0.01385042;23;-7;-5;-101;520;3963;128;0.1606648;-0.03601108;0.9722479;0.166205;6;-18;-1;353;2303;-4172;4;0.5318559;-0.6787537;0.3531856;0.3628809;7;-20;8;639;4356;-726;16;-0.232687;-0.9374542;-0.04570637;-0.2548476;-51;-32;-13;-407;-1100;3828;2;0.2853186;-0.5470914;-0.6717195;-0.4099723;-15;3;-31;3207;4876;-471;8;-0.1052632;-0.9369466;-0.33241;-0.0235457;-22;-44;-35;-2503;-851;3923;0.5739322;1.617598;2.128877;0.574439;1.66378;1.585289;0.5748625;1.702359;1.107304;0.5755613;1.712234;0.3735704;0.3151304;1.696849;0.04694115;-0.02099948;1.782038;0.1880037;-0.2457617;0.8844715;0.2347506;0;0;0;0.8341759;1.660113;0.04693776;1.126699;1.700809;0.1879986;1.332334;0.7823213;0.3938383;1.35031;-0.1207913;0.1077397;0.2620508;1.609541;2.173569;0.4614232;0.176114;2.38897;-0.03313506;0.6980008;3.527114;0.2620508;1.609541;2.173569;0.4614232;0.176114;2.38897;-0.03313506;0.6980008;3.527114
1239999.1347;NotLabelled;NONE;16384;0.706378;-0.6606648;0.2423823;0.07617728;-4;7;7;-644;3988;45;65536;0.7595094;-0.6274238;-0.07063711;0.1565097;5;7;-3;-1429;3814;-473;8192;0.5415512;-0.6066688;-0.5;-0.2977839;-4;1;-8;1008;4147;507;32768;0.6808012;-0.4722992;-0.3559557;-0.432133;9;1;2;968;3937;-702;256;-0.08310249;-0.03462604;-0.9957765;-0.01800554;19;-3;-4;169;972;4259;128;0.1606648;-0.033241;0.9725823;0.1648199;8;-16;0;-215;2239;-4236;4;0.533241;-0.6761756;0.3531856;0.365651;-6;-4;13;-219;3962;-504;16;-0.2368421;-0.936836;-0.03601108;-0.2548476;-46;-56;-21;-1055;-1796;3252;2;0.2880886;-0.5415512;-0.6733282;-0.4127424;-10;34;-26;2611;4448;-563;8;-0.1094183;-0.938484;-0.3268698;-0.02077562;-17;-27;-32;-2375;-829;3615;0.5698396;1.610162;2.141563;0.5703409;1.655831;1.597931;0.5707593;1.693957;1.11991;0.5719035;1.709977;0.3862853;0.3116578;1.697503;0.05938402;-0.02449942;1.781734;0.2009566;-0.2476781;0.8832862;0.2371864;0;0;0;0.8306786;1.660419;0.05938098;1.123144;1.699736;0.200951;1.328644;0.7809904;0.4057706;1.350436;-0.1216966;0.1185962;0.2579587;1.602146;2.186265;0.4679475;0.1706899;2.40466;-0.02553409;0.7266424;3.527033;0.2579587;1.602146;2.186265;0.4679475;0.1706899;2.40466;-0.02553409;0.7266424;3.527033
1240019.1105;NotLabelled;NONE;16384;0.7073225;-0.6606648;0.2396122;0.07617728;-1;6;9;-436;4032;375;65536;0.7606514;-0.6260388;-0.07063711;0.1565097;6;6;0;-1437;3818;-673;8192;0.5429363;-0.6047463;-0.5;-0.299169;-4;7;-7;998;4053;403;32768;0.6810349;-0.4709141;-0.3573407;-0.432133;9;3;0;1276;3855;-678;256;-0.08171745;-0.03462604;-0.9958073;-0.02216066;12;-2;-2;341;990;4241;128;0.1606648;-0.03185596;0.9728623;0.1634349;11;-9;3;-457;1933;-4226;4;0.534626;-0.674329;0.3531856;0.367036;-8;3;16;-941;3948;-396;16;-0.2437673;-0.9356753;-0.02908587;-0.2534626;-40;-17;-18;-1721;-2096;2820;2;0.2894737;-0.536011;-0.6754603;-0.4155124;-1;33;-31;1595;3868;45;8;-0.1121884;-0.9392001;-0.3240997;-0.0166205;-14;-4;-26;-2311;-1033;3605;0.5640182;1.605393;2.151742;0.5644972;1.649045;1.607945;0.5648961;1.6854;1.129785;0.5663238;1.707489;0.3963194;0.3061908;1.697902;0.0692312;-0.02996111;1.78119;0.2113724;-0.2521357;0.8821235;0.2368168;0;0;0;0.825186;1.660461;0.06911024;1.117626;1.698402;0.2111076;1.323716;0.7776921;0.4062856;1.348229;-0.12316;0.1136193;0.2521392;1.597544;2.196487;0.4617213;0.1644964;2.404599;-0.02669281;0.7371957;3.52075;0.2521392;1.597544;2.196487;0.4617213;0.1644964;2.404599;-0.02669281;0.7371957;3.52075
1240040.2329;NotLabelled;NONE;16384;0.7082548;-0.6606648;0.2368421;0.07617728;-2;15;12;-490;4154;669;65536;0.7608052;-0.6260388;-0.07202215;0.1551246;4;10;2;-1235;3884;-805;8192;0.5429363;-0.6040592;-0.5;-0.300554;-2;10;-8;562;4099;217;32768;0.6819906;-0.4695291;-0.3573407;-0.432133;8;0;-4;1036;3933;-752;256;-0.08310249;-0.03462604;-0.9956272;-0.02493075;4;0;0;389;332;4223;128;0.1592798;-0.02631579;0.9734871;0.1620499;7;-8;0;-353;1213;-4024;4;0.536011;-0.6746745;0.3504155;0.367036;2;13;15;-831;4050;-1338;16;-0.2506925;-0.9345469;-0.03047091;-0.2506925;-34;19;-18;-1651;-2006;2916;2;0.2922437;-0.5318559;-0.674983;-0.4196676;6;6;-32;1411;3674;599;8;-0.1163435;-0.9392165;-0.3227147;-0.01385042;-10;9;-22;-2351;-1107;3481;0.560565;1.600657;2.154406;0.5610247;1.64255;1.61047;0.5614067;1.677356;1.132195;0.5634614;1.70559;0.3989416;0.303596;1.698908;0.07156821;-0.03262192;1.781217;0.2141234;-0.2521315;0.8814853;0.239187;0;0;0;0.8225675;1.661139;0.0715653;1.114912;1.697703;0.2141184;1.32041;0.7767638;0.4088418;1.348832;-0.1236441;0.1151645;0.2486876;1.592953;2.199187;0.4557343;0.1586226;2.400897;-0.02946019;0.7528876;3.507135;0.2486876;1.592953;2.199187;0.4557343;0.1586226;2.400897;-0.02946019;0.7528876;3.507135
1240081.1074;NotLabelled;NONE;16384;0.7113696;-0.6592798;0.2313019;0.07617728;-3;6;10;-844;3874;847;65536;0.7625016;-0.6246537;-0.07202215;0.1523546;2;4;0;-1125;3754;-803;8192;0.5470914;-0.6007553;-0.4986149;-0.301939;-7;-7;-7;838;4045;649;32768;0.6830123;-0.4695291;-0.3587258;-0.4293629;5;-5;-6;1096;3843;-708;256;-0.08310249;-0.033241;-0.9956387;-0.02631579;4;2;1;293;114;3889;128;0.1592798;-0.02493075;0.9737532;0.1606648;1;1;-1;63;1227;-3726;4;0.5373961;-0.6727753;0.3490305;0.3698061;4;-14;10;-493;3884;52;16;-0.2631579;-0.9341836;-0.03601108;-0.2382271;-19;-10;-23;-437;-2332;3888;2;0.3033241;-0.536011;-0.6623483;-0.4265928;13;-42;-22;1989;3508;447;8;-0.1274238;-0.9388028;-0.3199446;-0.006925208;-21;-11;-19;-2385;-803;3215;0.5575429;1.600807;2.157079;0.557975;1.64019;1.612955;0.5583327;1.672791;1.134525;0.5606931;1.704996;0.4014362;0.3009545;1.700222;0.07392943;-0.03527806;1.781928;0.2167955;-0.2519429;0.8814464;0.2395293;0;0;0;0.8199065;1.662187;0.07392633;1.112213;1.697829;0.2167909;1.316784;0.7762716;0.4095563;1.345799;-0.123198;0.1130792;0.2456678;1.59331;2.20191;0.4557628;0.158679;2.398265;-0.02129042;0.7689106;3.49934;0.2456678;1.59331;2.20191;0.4557628;0.158679;2.398265;-0.02129042;0.7689106;3.49934
1240122.1228;NotLabelled;NONE;16384;0.7128538;-0.6592798;0.2271468;0.07479224;1;1;4;-884;3774;535;65536;0.7635022;-0.6232687;-0.0734072;0.1523546;4;-1;-6;-1361;3772;-629;8192;0.5498615;-0.5993726;-0.4972299;-0.301939;-6;-5;-6;1158;3493;123;32768;0.6824208;-0.4695291;-0.3614958;-0.4279778;11;-2;0;708;3989;-640;256;-0.08310249;-0.033241;-0.9956012;-0.02770083;3;0;2;207;264;3809;128;0.1592798;-0.02493075;0.9737532;0.1606648;1;-2;-4;157;1437;-3712;4;0.536011;-0.6708608;0.3504155;0.3739612;7;-27;10;-309;4286;-642;16;-0.265928;-0.9346465;-0.03047091;-0.234072;-13;-26;-30;-641;-1972;3436;2;0.3074792;-0.5387812;-0.6581717;-0.4265928;9;-25;-17;2237;4014;7;8;-0.1315789;-0.9387169;-0.3185596;-0.004155125;-16;-11;-17;-2619;-1091;2929;0.5572836;1.604468;2.168798;0.5576967;1.642098;1.62455;0.5580375;1.673155;1.146017;0.560471;1.707554;0.4130279;0.3008143;1.703099;0.0854516;-0.03565423;1.783527;0.2284879;-0.2480083;0.8818357;0.2421877;0;0;0;0.8198612;1.66638;0.08544862;1.112047;1.702335;0.2284824;1.317731;0.7788618;0.4106001;1.351952;-0.1207685;0.1151662;0.24541;1.597115;2.213664;0.4579149;0.1613951;2.399162;0.006956816;0.8002045;3.495011;0.24541;1.597115;2.213664;0.4579149;0.1613951;2.399162;0.006956816;0.8002045;3.495011
1240142.1239;NotLabelled;NONE;16384;0.7128538;-0.6592798;0.2271468;0.07479224;-2;0;4;-678;4180;755;65536;0.7632245;-0.6232687;-0.0734072;0.1537396;1;0;-6;-1339;3850;-849;8192;0.5498615;-0.6000684;-0.4972299;-0.300554;-2;2;-2;1830;3493;489;32768;0.6842372;-0.468144;-0.3614958;-0.4265928;12;4;6;766;3901;-806;256;-0.08448754;-0.033241;-0.9954846;-0.02770083;5;0;2;127;368;4047;128;0.1606648;-0.02493075;0.9735256;0.1606648;1;-4;-4;145;1445;-3748;4;0.534626;-0.6696902;0.3518005;0.3767313;0;-23;10;-157;4210;-1048;16;-0.265928;-0.9358413;-0.02493075;-0.2299169;-5;-31;-33;-363;-1678;2906;2;0.3088643;-0.5401662;-0.6554832;-0.4279778;4;-3;-15;2409;4156;173;8;-0.134349;-0.9387987;-0.3171745;-0.002770083;-10;-8;-15;-2767;-1427;2821;0.5532823;1.601226;2.175761;0.5536951;1.638855;1.631513;0.5540358;1.669913;1.152981;0.5566204;1.706333;0.42009;0.2970269;1.702842;0.09245175;-0.03945142;1.782952;0.2356434;-0.2492742;0.8806165;0.2453037;0;0;0;0.8160652;1.666004;0.09244856;1.108231;1.701498;0.2356381;1.314901;0.7770718;0.4117007;1.354124;-0.1233374;0.1192757;0.2414087;1.593872;2.220628;0.4583815;0.1581227;2.400642;0.02120638;0.8081259;3.495495;0.2414087;1.593872;2.220628;0.4583815;0.1581227;2.400642;0.02120638;0.8081259;3.495495
1240162.1244;NotLabelled;NONE;16384;0.7145714;-0.6578947;0.2257618;0.07479224;-4;4;4;-528;4178;849;65536;0.7630901;-0.6232687;-0.07479224;0.1537396;-1;3;-5;-1183;3808;-839;8192;0.5498615;-0.598918;-0.4986149;-0.300554;-4;13;1;1300;3863;669;32768;0.6861242;-0.4653739;-0.3614958;-0.4265928;8;3;7;1078;3843;-924;256;-0.08448754;-0.033241;-0.9954036;-0.03047091;3;-1;2;215;224;4049;128;0.1606648;-0.0235457;0.9735601;0.1606648;1;-3;-1;27;1355;-3934;4;0.534626;-0.6681244;0.3518005;0.3795014;-3;-20;10;-203;3898;-1082;16;-0.2645429;-0.9370684;-0.01800554;-0.2271468;3;-34;-28;-405;-1658;2770;2;0.3102493;-0.5387812;-0.6541533;-0.4307479;2;13;-15;2389;4110;143;8;-0.1357341;-0.9386035;-0.3171745;0;-6;0;-17;-3061;-1381;3177;0.5523599;1.600758;2.176123;0.5527728;1.638386;1.631875;0.5531136;1.669442;1.153342;0.5556959;1.70579;0.4204477;0.2960999;1.702285;0.09281169;-0.04037178;1.782432;0.235998;-0.2501658;0.880096;0.2462628;0;0;0;0.8151357;1.66541;0.09280884;1.107305;1.700898;0.235993;1.315935;0.7770643;0.4128508;1.35748;-0.1222169;0.1172915;0.2404864;1.593405;2.220989;0.4610213;0.1578391;2.398111;0.04125381;0.8124669;3.497012;0.2404864;1.593405;2.220989;0.4610213;0.1578391;2.398111;0.04125381;0.8124669;3.497012
1240183.186;NotLabelled;NONE;16384;0.7150075;-0.6578947;0.2243767;0.07479224;-4;6;3;-558;3966;587;65536;0.762953;-0.6232687;-0.07617728;0.1537396;-3;2;-5;-1551;3700;-757;8192;0.5498615;-0.5977622;-0.5;-0.300554;-8;11;0;484;4209;745;32768;0.6861242;-0.4653739;-0.3614958;-0.4265928;5;-6;2;1294;3815;-920;256;-0.08448754;-0.033241;-0.9954036;-0.03047091;2;0;2;215;194;3945;128;0.1606648;-0.02216066;0.9738201;0.1592798;3;-7;-2;-183;1239;-3912;4;0.533241;-0.6669202;0.3531856;0.3822715;-1;-18;9;-341;3806;-732;16;-0.2631579;-0.9381957;-0.01385042;-0.2243767;7;-19;-21;-771;-2112;3056;2;0.3102493;-0.536011;-0.6555141;-0.432133;2;19;-15;1917;3992;211;8;-0.1371191;-0.9384012;-0.3171745;0.001385042;-5;8;-15;-2763;-1187;3067;0.5497359;1.595398;2.180326;0.5501461;1.632778;1.636061;0.5504844;1.663617;1.157514;0.5533729;1.704009;0.4248326;0.2939046;1.702432;0.09707993;-0.0425865;1.781945;0.2405746;-0.2522348;0.8795331;0.2461608;0;0;0;0.8129234;1.665317;0.09707749;1.105052;1.699878;0.2405695;1.315742;0.7764513;0.4171133;1.36001;-0.1209023;0.1161412;0.2378625;1.588065;2.225197;0.4609802;0.1520965;2.395703;0.05299246;0.8085306;3.497959;0.2378625;1.588065;2.225197;0.4609802;0.1520965;2.395703;0.05299246;0.8085306;3.497959
1240204.1272;NotLabelled;NONE;16384;0.7167118;-0.6565097;0.2229917;0.07479224;-7;2;0;-624;3878;573;65536;0.762533;-0.6232687;-0.07756232;0.1551246;-3;2;-7;-1347;3764;-609;8192;0.5526316;-0.5945008;-0.5;-0.301939;-8;-6;-4;458;4169;547;32768;0.6870616;-0.4639889;-0.3614958;-0.4265928;6;-4;0;916;3997;-610;256;-0.08587258;-0.033241;-0.9952852;-0.03047091;4;0;5;213;314;4103;128;0.1620499;-0.02216066;0.973363;0.1606648;-1;-2;-3;-123;1357;-3906;4;0.533241;-0.6653247;0.3531856;0.3850415;3;3;8;-1;4120;-748;16;-0.2645429;-0.9390439;-0.01800554;-0.2188366;-6;24;-10;-517;-2590;4638;2;0.3144044;-0.533241;-0.6539597;-0.434903;1;-10;-16;1447;3734;251;8;-0.1412742;-0.9372997;-0.3185596;0.005540166;-5;-7;-18;-2323;-1527;3091;0.5465404;1.598478;2.184659;0.5469314;1.634104;1.640276;0.5472529;1.663401;1.161632;0.5499986;1.703793;0.4289501;0.2904665;1.702216;0.1012484;-0.04599669;1.781728;0.2448083;-0.254208;0.878968;0.2461507;0;0;0;0.8094852;1.665101;0.1011441;1.101642;1.699662;0.2445797;1.314499;0.7760851;0.4177045;1.358709;-0.1212692;0.1167237;0.2346686;1.59129;2.229564;0.460798;0.1555066;2.39765;0.06310356;0.8118894;3.503691;0.2346686;1.59129;2.229564;0.460798;0.1555066;2.39765;0.06310356;0.8118894;3.503691
1240224.3667;NotLabelled;NONE;16384;0.7178512;-0.6565097;0.2202216;0.07202215;-3;9;3;-598;4128;129;65536;0.7623909;-0.6232687;-0.07894737;0.1551246;1;2;-1;-1675;3744;-689;8192;0.5540166;-0.594375;-0.4986149;-0.301939;-1;13;-4;918;4037;151;32768;0.6881232;-0.4626039;-0.3628809;-0.4252077;9;2;-3;1182;3911;-708;256;-0.08587258;-0.033241;-0.9952418;-0.03185596;3;2;4;267;376;4159;128;0.1620499;-0.02216066;0.973363;0.1606648;-1;1;-3;11;1341;-4080;4;0.534626;-0.664143;0.3518005;0.3864266;2;0;13;289;4092;-782;16;-0.265928;-0.9395841;-0.01939058;-0.2146814;-11;10;-14;-335;-1848;3680;2;0.3171745;-0.533241;-0.6516955;-0.4362881;1;-19;-18;1547;3474;243;8;-0.1440443;-0.9377949;-0.3157895;0.008310249;-6;-18;-19;-2391;-1105;3225;0.5432031;1.594638;2.186629;0.5436106;1.631765;1.642347;0.5439467;1.662383;1.163786;0.5468331;1.702702;0.4311004;0.2873624;1.701112;0.1033501;-0.04912158;1.780665;0.2468392;-0.2571633;0.8778646;0.2470161;0;0;0;0.8063781;1.663958;0.1033468;1.098511;1.69851;0.2468342;1.31348;0.7744136;0.4144894;1.358234;-0.1219633;0.110693;0.2313299;1.587326;2.231506;0.4603966;0.1511701;2.392263;0.0766865;0.8094141;3.502131;0.2313299;1.587326;2.231506;0.4603966;0.1511701;2.392263;0.0766865;0.8094141;3.502131
1240245.1303;NotLabelled;NONE;16384;0.7186952;-0.6565097;0.2174515;0.07202215;-3;7;6;-604;4096;471;65536;0.7623909;-0.6232687;-0.07894737;0.1551246;1;3;0;-1395;3796;-687;8192;0.5540166;-0.5936693;-0.4986149;-0.3033241;-6;4;-6;662;4133;435;32768;0.687391;-0.4626039;-0.3642659;-0.4252077;7;-5;-5;1226;3835;-946;256;-0.08725762;-0.03185596;-0.9951666;-0.03185596;3;1;4;251;148;4099;128;0.1620499;-0.02216066;0.973363;0.1606648;-1;0;-3;105;1139;-3920;4;0.536011;-0.6636807;0.3490305;0.3878116;2;1;15;-15;4118;-712;16;-0.267313;-0.9395341;-0.01800554;-0.2132964;-9;-2;-13;-235;-1410;3408;2;0.3213296;-0.534626;-0.6485175;-0.4362881;-1;-19;-22;1661;3462;303;8;-0.1454294;-0.9389571;-0.3116343;0.009695291;-9;-23;-20;-2399;-827;3251;0.5414923;1.591266;2.18859;0.5418998;1.628393;1.644307;0.5422359;1.65901;1.165747;0.5452768;1.70135;0.4331756;0.2858707;1.700727;0.1053711;-0.05062294;1.779962;0.2490126;-0.2592082;0.87729;0.246921;0;0;0;0.8048777;1.66345;0.105368;1.09699;1.697538;0.2490073;1.311353;0.7727902;0.4138283;1.360844;-0.1228812;0.1086888;0.2296193;1.583953;2.233466;0.459474;0.1470846;2.386544;0.08514369;0.8086183;3.497659;0.2296193;1.583953;2.233466;0.459474;0.1470846;2.386544;0.08514369;0.8086183;3.497659
1240265.2646;NotLabelled;NONE;16384;0.7191127;-0.6565097;0.2160665;0.07202215;-4;6;5;-978;3812;691;65536;0.7626714;-0.6232687;-0.07894737;0.1537396;2;2;-3;-997;3904;-733;8192;0.5554016;-0.5935368;-0.4972299;-0.3033241;-7;-8;-8;778;4093;605;32768;0.6882458;-0.4626039;-0.3642659;-0.4238227;6;-9;-2;798;3845;-826;256;-0.08864266;-0.03185596;-0.9949989;-0.033241;6;2;3;147;58;3987;128;0.1634349;-0.02216066;0.973359;0.1592798;1;3;-3;175;1223;-4042;4;0.536011;-0.6620542;0.3490305;0.3905817;3;-6;12;-443;3976;-822;16;-0.267313;-0.9401841;-0.0166205;-0.2105263;-4;-8;-12;-511;-1876;3248;2;0.3240997;-0.533241;-0.6473451;-0.4376731;-3;-9;-27;1619;3638;205;8;-0.1468144;-0.940078;-0.3074792;0.01246537;-12;-21;-19;-2269;-637;3063;0.5396203;1.59339;2.190925;0.5400279;1.630518;1.646643;0.5403639;1.661134;1.168082;0.5432981;1.703581;0.4355164;0.2838976;1.702305;0.1077094;-0.05280864;1.78062;0.2513581;-0.2585046;0.8772895;0.2476586;0;0;0;0.8030028;1.66642;0.1077063;1.095021;1.701272;0.2513531;1.308876;0.775944;0.4135594;1.359106;-0.1202022;0.1099367;0.2277471;1.586077;2.235801;0.4617611;0.1489596;2.379983;0.09492034;0.8148286;3.491007;0.2277471;1.586077;2.235801;0.4617611;0.1489596;2.379983;0.09492034;0.8148286;3.491007
1240285.3892;NotLabelled;NONE;16384;0.7192501;-0.6565097;0.2160665;0.07063711;-3;6;2;-988;3938;679;65536;0.7636567;-0.6218836;-0.08033241;0.1537396;2;0;-7;-1395;3742;-719;8192;0.5581717;-0.5916414;-0.4972299;-0.301939;-11;-10;-7;2006;3543;811;32768;0.6892917;-0.4612188;-0.365651;-0.4224377;7;-1;6;430;3875;-894;256;-0.08864266;-0.03047091;-0.9950422;-0.033241;2;2;4;225;244;4095;128;0.1648199;-0.02216066;0.9731255;0.1592798;2;2;-3;-5;1321;-4188;4;0.534626;-0.6623555;0.3490305;0.3919668;5;-11;8;-549;3822;-868;16;-0.2686981;-0.9401219;-0.01523546;-0.2091413;1;0;-11;-455;-2254;3038;2;0.3282548;-0.5318559;-0.6445059;-0.4404432;-1;12;-30;1517;3800;107;8;-0.1495845;-0.9405237;-0.3047091;0.01385042;-13;-15;-19;-2309;-521;3045;0.540223;1.594463;2.192766;0.5406138;1.630077;1.648383;0.5409352;1.659363;1.169739;0.5440186;1.703759;0.4372899;0.2846783;1.703441;0.1094328;-0.05202895;1.781481;0.2532279;-0.2562676;0.8778281;0.2480745;0;0;0;0.8037717;1.667387;0.1094298;1.095775;1.701762;0.2532225;1.308995;0.7757969;0.4126016;1.360186;-0.1201427;0.1085299;0.2283512;1.587276;2.237672;0.4651167;0.1498795;2.374396;0.1093364;0.8171358;3.488181;0.2283512;1.587276;2.237672;0.4651167;0.1498795;2.374396;0.1093364;0.8171358;3.488181
1240306.1168;NotLabelled;NONE;16384;0.7210602;-0.6551247;0.2146814;0.06925207;-6;3;1;-608;3930;649;65536;0.7633766;-0.6218836;-0.08033241;0.1551246;3;2;-7;-1301;3768;-777;8192;0.5581717;-0.5893022;-0.5;-0.301939;-4;12;-2;724;3901;97;32768;0.6902887;-0.4584487;-0.365651;-0.4238227;13;7;4;1350;3901;-834;256;-0.0900277;-0.03047091;-0.9949179;-0.033241;0;1;3;237;400;3995;128;0.166205;-0.02216066;0.9731156;0.1578947;10;0;-4;-19;1355;-4060;4;0.5318559;-0.660646;0.3518005;0.3961219;1;-21;10;-361;4180;-872;16;-0.267313;-0.9411284;-0.01523546;-0.2063712;7;-5;-5;-437;-2236;3136;2;0.3296399;-0.5263157;-0.6454933;-0.4445983;0;33;-34;1319;3830;99;8;-0.1509695;-0.9407287;-0.3033241;0.01523546;-13;-1;-17;-2203;-805;2987;0.5410526;1.594264;2.195527;0.5414435;1.629871;1.651143;0.541765;1.659151;1.172498;0.5447377;1.70373;0.4400592;0.2854045;1.702774;0.1121977;-0.05151932;1.77985;0.2560056;-0.2574736;0.8765848;0.2512036;0;0;0;0.8045956;1.668153;0.1121951;1.096501;1.703298;0.2560012;1.31427;0.7775064;0.4101436;1.370131;-0.1176935;0.1047187;0.2291807;1.587077;2.240433;0.4705351;0.1504787;2.377513;0.1191666;0.8220382;3.490113;0.2291807;1.587077;2.240433;0.4705351;0.1504787;2.377513;0.1191666;0.8220382;3.490113
1240327.1195;NotLabelled;NONE;16384;0.7217449;-0.6551247;0.2119114;0.07063711;-1;6;4;-394;4004;229;65536;0.764356;-0.6204986;-0.08171745;0.1551246;7;0;0;-1729;3782;-623;8192;0.5581717;-0.5885905;-0.5;-0.3033241;-2;5;-5;106;4173;241;32768;0.6921204;-0.4556787;-0.365651;-0.4238227;14;0;0;1106;3771;-900;256;-0.0900277;-0.03047091;-0.9949179;-0.033241;-1;0;4;141;356;3919;128;0.166205;-0.02216066;0.9733394;0.1565097;8;-4;-5;-45;1257;-3720;4;0.5318559;-0.6589772;0.3518005;0.398892;0;-18;12;-93;4190;-736;16;-0.267313;-0.9414524;-0.01385042;-0.2049861;3;0;-3;-549;-2346;3576;2;0.333795;-0.5193906;-0.644159;-0.4515235;3;-13;-30;1539;3768;197;8;-0.1578947;-0.9390664;-0.3047091;0.01939058;-10;3;-16;-2399;-1903;2995;0.5417486;1.596223;2.200436;0.5421228;1.630317;1.655955;0.5424294;1.658266;1.177231;0.5454011;1.702777;0.4447883;0.2860657;1.701812;0.1169282;-0.05085052;1.778931;0.2607315;-0.2583377;0.8760438;0.2522018;0;0;0;0.8052537;1.667147;0.1169249;1.097163;1.702282;0.260726;1.319596;0.7773743;0.4135135;1.375427;-0.1160336;0.1028804;0.2298782;1.589162;2.245372;0.4759637;0.1531374;2.380042;0.1350063;0.8220294;3.497476;0.2298782;1.589162;2.245372;0.4759637;0.1531374;2.380042;0.1350063;0.8220294;3.497476
1240348.123;NotLabelled;NONE;16384;0.7221501;-0.6551247;0.2105263;0.07063711;1;7;8;-352;4078;649;65536;0.7651963;-0.6191136;-0.08171745;0.1565097;7;2;1;-1493;3786;-835;8192;0.5595568;-0.5889066;-0.4972299;-0.3047091;-1;-8;-9;1060;3913;859;32768;0.6931438;-0.4542936;-0.367036;-0.4224377;11;4;2;794;3921;-1058;256;-0.09141274;-0.03047091;-0.9947916;-0.033241;1;0;4;365;250;4119;128;0.16759;-0.02077562;0.9733542;0.1551246;2;-5;-5;-33;1329;-3874;4;0.5318559;-0.6572924;0.3518005;0.4016621;0;-13;14;175;4122;-790;16;-0.267313;-0.9417315;-0.01523546;-0.2036011;1;10;-2;-425;-1966;3726;2;0.3379501;-0.5207756;-0.6398877;-0.4529086;8;-24;-23;1709;3530;3;8;-0.1592798;-0.9387711;-0.3047091;0.02216066;-5;2;-17;-2355;-2551;3091;0.5359188;1.598816;2.206767;0.5362764;1.631403;1.662193;0.5365685;1.658028;1.183394;0.5395407;1.702538;0.4509512;0.2802056;1.701574;0.1230908;-0.05671078;1.778693;0.2668936;-0.2595548;0.8747847;0.2553028;0;0;0;0.7993937;1.666909;0.1230882;1.091302;1.702043;0.2668895;1.312305;0.7765641;0.418287;1.370723;-0.1148021;0.1023108;0.2240497;1.591879;2.251731;0.4723445;0.1556003;2.379455;0.1359171;0.8255463;3.49763;0.2240497;1.591879;2.251731;0.4723445;0.1556003;2.379455;0.1359171;0.8255463;3.49763
1240368.2517;NotLabelled;NONE;16384;0.7229519;-0.6551247;0.2077562;0.07063711;-3;13;8;-624;4166;997;65536;0.7654783;-0.6191136;-0.08171745;0.1551246;4;7;2;-1257;3754;-915;8192;0.5609418;-0.5864126;-0.4986149;-0.3047091;-3;10;-5;1450;4061;841;32768;0.6933154;-0.4529086;-0.368421;-0.4224377;7;3;3;962;3855;-1080;256;-0.09279778;-0.03047091;-0.9946161;-0.03462604;2;0;3;225;370;4097;128;0.16759;-0.02077562;0.9731324;0.1565097;1;-3;-2;127;1453;-3988;4;0.5318559;-0.6555915;0.3518005;0.4044321;0;-5;14;269;4038;-784;16;-0.267313;-0.9420299;-0.01523546;-0.2022161;0;6;-1;-355;-1984;3752;2;0.3393352;-0.5221606;-0.6370379;-0.4542936;9;-18;-18;1803;3578;125;8;-0.1606648;-0.9389142;-0.3033241;0.02493075;-1;-6;-19;-2173;-2559;3303;0.5344846;1.60125;2.211938;0.5348228;1.632069;1.667262;0.5350978;1.657139;1.188378;0.5380691;1.701582;0.4559312;0.2787318;1.700609;0.1280727;-0.0581773;1.777769;0.2718707;-0.2595825;0.8735507;0.2594683;0;0;0;0.7979171;1.6659;0.1280702;1.08983;1.701023;0.2718663;1.307075;0.773927;0.4187442;1.369282;-0.1166532;0.1012779;0.2226171;1.594458;2.256936;0.4734034;0.1579506;2.376978;0.1426886;0.8273904;3.49716;0.2226171;1.594458;2.256936;0.4734034;0.1579506;2.376978;0.1426886;0.8273904;3.49716
1240389.121;NotLabelled;NONE;16384;0.7247342;-0.6537396;0.2063712;0.06925207;-5;12;5;-852;4040;859;65536;0.7667266;-0.6177285;-0.08310249;0.1537396;1;6;0;-1275;3762;-821;8192;0.5609418;-0.5852321;-0.5;-0.3047091;-9;9;-5;714;4047;885;32768;0.6942182;-0.4515235;-0.368421;-0.4224377;5;-1;1;1176;3763;-986;256;-0.09279778;-0.03047091;-0.9946161;-0.03462604;0;-2;2;25;476;3867;128;0.16759;-0.01939058;0.973161;0.1565097;3;-4;-3;191;1477;-3878;4;0.533241;-0.6533669;0.3490305;0.4085872;1;-11;9;135;3948;-862;16;-0.265928;-0.9424218;-0.01523546;-0.2022161;0;-3;0;-335;-2070;3514;2;0.3407202;-0.5235457;-0.6341661;-0.4556787;10;-17;-12;1903;3852;-33;8;-0.1634349;-0.939289;-0.300554;0.02631579;0;-21;-19;-2223;-2241;3171;0.5335951;1.596932;2.21409;0.5339499;1.629257;1.669502;0.5342395;1.655651;1.190689;0.5373565;1.702045;0.4583641;0.2780774;1.702034;0.1304581;-0.0588311;1.778926;0.2744012;-0.2573279;0.8740956;0.2598772;0;0;0;0.7972507;1.667149;0.1304549;1.08915;1.70179;0.2743956;1.310503;0.7749811;0.4168842;1.374769;-0.115036;0.09825075;0.2217263;1.590016;2.259059;0.4748994;0.1533035;2.371395;0.1507735;0.8230139;3.493339;0.2217263;1.590016;2.259059;0.4748994;0.1533035;2.371395;0.1507735;0.8230139;3.493339
1240409.2783;NotLabelled;NONE;16384;0.7252581;-0.6537396;0.2049861;0.06786703;-4;0;1;-660;3794;607;65536;0.7670029;-0.6177285;-0.08310249;0.1523546;4;2;-3;-1243;3780;-727;8192;0.5650969;-0.5835925;-0.4972299;-0.3047091;-4;-11;-3;972;3889;547;32768;0.6951171;-0.4501385;-0.368421;-0.4224377;7;-1;2;964;3957;-938;256;-0.09279778;-0.03047091;-0.9945669;-0.03601108;0;-2;1;93;470;3941;128;0.1689751;-0.01939058;0.9729214;0.1565097;0;0;-2;111;1525;-3794;4;0.5318559;-0.6527573;0.3490305;0.4113573;3;-7;7;-3;3930;-742;16;-0.265928;-0.9424432;-0.01385042;-0.2022161;3;-9;0;-581;-2040;3258;2;0.3421052;-0.5249307;-0.6322727;-0.4556787;9;-5;-10;1807;4102;37;8;-0.1648199;-0.9402851;-0.2963989;0.02908587;0;-22;-14;-2329;-2047;2967;0.5354235;1.596269;2.221174;0.5357753;1.628339;1.67657;0.5360625;1.65451;1.197745;0.5391795;1.700904;0.46542;0.2799003;1.700893;0.1375138;-0.05700817;1.777784;0.2814572;-0.2569872;0.8733587;0.2626756;0;0;0;0.7990737;1.666008;0.1375103;1.090973;1.700648;0.2814519;1.314448;0.7742922;0.4235735;1.379989;-0.1146778;0.102288;0.2235548;1.589374;2.266148;0.4822;0.1525097;2.363019;0.1582838;0.8189886;3.486947;0.2235548;1.589374;2.266148;0.4822;0.1525097;2.363019;0.1582838;0.8189886;3.486947
1240430.1298;NotLabelled;NONE;16384;0.7268935;-0.6523545;0.2036011;0.06786703;1;0;4;-306;3994;409;65536;0.7678403;-0.6163435;-0.08310249;0.1537396;6;0;-1;-1587;3804;-697;8192;0.5650969;-0.5843136;-0.4972299;-0.3033241;-2;0;-3;1216;3979;603;32768;0.6959569;-0.4501385;-0.368421;-0.4210526;6;0;3;1018;3803;-1024;256;-0.09279778;-0.03047091;-0.9945669;-0.03601108;-2;0;0;229;512;4017;128;0.1689751;-0.02077562;0.9728929;0.1565097;-1;6;-1;-123;1417;-3948;4;0.5318559;-0.6527573;0.3490305;0.4113573;3;-1;5;-1;3976;-762;16;-0.265928;-0.9424432;-0.01385042;-0.2022161;1;-5;0;-583;-2220;3460;2;0.3434903;-0.5249307;-0.6295132;-0.4584487;0;2;-9;1817;4278;449;8;-0.166205;-0.9408664;-0.2936288;0.03047091;-1;-1;-3;-2607;-1727;3275;0.5369588;1.594084;2.221676;0.5373107;1.626144;1.677071;0.5375978;1.652305;1.198246;0.5408632;1.700718;0.4660521;0.2816452;1.701677;0.1380993;-0.05527058;1.778257;0.2821915;-0.2554601;0.8739011;0.2623629;0;0;0;0.8008096;1.66666;0.138096;1.092691;1.700829;0.2821864;1.316443;0.7731767;0.4151185;1.383288;-0.1147386;0.09119517;0.2250902;1.58719;2.26665;0.4891772;0.151094;2.360163;0.1661205;0.818342;3.483881;0.2250902;1.58719;2.26665;0.4891772;0.151094;2.360163;0.1661205;0.818342;3.483881
1240450.453;NotLabelled;NONE;16384;0.7259045;-0.6537396;0.2022161;0.06925207;0;0;5;-180;4110;489;65536;0.7678403;-0.6163435;-0.08310249;0.1537396;5;1;2;-1687;3688;-829;8192;0.5650969;-0.5843136;-0.4972299;-0.3033241;-3;1;-2;1010;3961;743;32768;0.6968507;-0.4487534;-0.368421;-0.4210526;5;0;2;1128;3801;-978;256;-0.09279778;-0.03047091;-0.9945669;-0.03601108;-2;1;0;387;402;3991;128;0.1689751;-0.02077562;0.9728929;0.1565097;0;4;0;-247;1269;-3858;4;0.5318559;-0.6518825;0.3490305;0.4127424;1;0;4;145;4056;-786;16;-0.265928;-0.9424625;-0.01246537;-0.2022161;0;-2;0;-595;-2170;3388;2;0.3434903;-0.5235457;-0.6306655;-0.4584487;-2;9;-7;1785;4264;393;8;-0.166205;-0.940433;-0.2950138;0.03047091;-1;7;3;-2603;-1721;3215;0.5359727;1.592293;2.229596;0.5363275;1.624609;1.685007;0.5366172;1.650995;1.206194;0.5398827;1.699408;0.4740002;0.2806648;1.700368;0.1460473;-0.05625082;1.776948;0.29014;-0.2561951;0.8726476;0.2657942;0;0;0;0.7998291;1.665352;0.1460445;1.09171;1.69952;0.2901347;1.316885;0.7724119;0.4244533;1.385469;-0.1152531;0.1002072;0.224104;1.585377;2.274565;0.4881906;0.1492814;2.368078;0.1651338;0.8165289;3.491795;0.224104;1.585377;2.274565;0.4881906;0.1492814;2.368078;0.1651338;0.8165289;3.491795
1240471.0965;NotLabelled;NONE;16384;0.7275332;-0.6523545;0.200831;0.06925207;-2;7;5;-332;4142;867;65536;0.7690749;-0.6149584;-0.08448754;0.1523546;2;4;3;-1429;3742;-851;8192;0.566482;-0.5822482;-0.4972299;-0.3047091;-3;1;-4;766;4017;707;32768;0.6968507;-0.4487534;-0.368421;-0.4210526;4;0;1;1112;3679;-1006;256;-0.09279778;-0.03047091;-0.9945669;-0.03601108;1;-2;3;121;266;4059;128;0.1703601;-0.02077562;0.9726513;0.1565097;5;1;-4;107;1501;-4030;4;0.533241;-0.6506114;0.3476454;0.4141274;1;2;5;229;4120;-716;16;-0.265928;-0.9427393;-0.01385042;-0.200831;0;4;1;-607;-2152;3548;2;0.3448753;-0.5221606;-0.6300493;-0.4598338;-5;11;-3;1655;4222;395;8;-0.16759;-0.9397514;-0.2963989;0.03047091;-3;12;8;-2421;-1641;3231;0.5315313;1.593303;2.228077;0.5318861;1.625619;1.683488;0.5321758;1.652006;1.204675;0.5354408;1.700419;0.4724811;0.2762227;1.701379;0.1445286;-0.06069289;1.777958;0.2886209;-0.2561946;0.8726476;0.2657948;0;0;0;0.7953871;1.666362;0.1445253;1.087268;1.70053;0.2886157;1.31244;0.7734219;0.42294;1.382293;-0.113176;0.09605771;0.2196625;1.586388;2.273047;0.4847011;0.1502386;2.362985;0.1626096;0.8182539;3.486523;0.2196625;1.586388;2.273047;0.4847011;0.1502386;2.362985;0.1626096;0.8182539;3.486523
1240491.1329;NotLabelled;NONE;16384;0.7280446;-0.6523545;0.199446;0.06786703;-6;12;1;-618;3980;1097;65536;0.7690749;-0.6149584;-0.08448754;0.1523546;0;7;0;-1111;3770;-951;8192;0.567867;-0.5816218;-0.4972299;-0.3033241;-2;-1;-2;806;3913;817;32768;0.6977407;-0.4473684;-0.368421;-0.4210526;2;0;3;888;3845;-970;256;-0.09418282;-0.02908587;-0.9944782;-0.03601108;0;1;3;99;562;4087;128;0.1703601;-0.02216066;0.9728426;0.1551246;3;7;-3;93;1549;-4038;4;0.533241;-0.6513496;0.3462604;0.4141274;2;6;4;131;4082;-836;16;-0.267313;-0.9423261;-0.01523546;-0.200831;1;9;1;-341;-2020;3578;2;0.3448753;-0.5207756;-0.6311947;-0.4598338;-8;10;0;1527;4192;297;8;-0.16759;-0.9389172;-0.299169;0.02908587;-6;11;12;-2299;-1555;3089;0.5315939;1.592493;2.235385;0.5319483;1.624799;1.690795;0.5322376;1.651178;1.211981;0.5355022;1.69959;0.4797876;0.2762838;1.70055;0.151835;-0.06063189;1.77713;0.2959275;-0.2558762;0.8718894;0.2685764;0;0;0;0.7954483;1.665534;0.1518312;1.08733;1.699702;0.2959213;1.312612;0.7719431;0.4254802;1.382465;-0.1146553;0.09859735;0.2197251;1.585579;2.280354;0.485179;0.1490343;2.362415;0.1656962;0.8165462;3.486999;0.2197251;1.585579;2.280354;0.485179;0.1490343;2.362415;0.1656962;0.8165462;3.486999
1240512.3714;NotLabelled;NONE;16384;0.7297881;-0.6509695;0.1980609;0.06648199;-6;12;-2;-746;3960;881;65536;0.7693479;-0.6149584;-0.08448754;0.1509695;-2;5;-2;-1325;3700;-805;8192;0.5692521;-0.5802663;-0.4972299;-0.3033241;-4;-1;-1;790;4009;703;32768;0.6977407;-0.4473684;-0.368421;-0.4210526;1;0;2;1068;3809;-942;256;-0.09418282;-0.02908587;-0.9944782;-0.03601108;-3;1;3;257;566;4059;128;0.1717452;-0.0235457;0.9725665;0.1551246;5;9;-2;13;1485;-3994;4;0.533241;-0.6512023;0.3448753;0.4155124;2;2;3;25;3964;-916;16;-0.265928;-0.9430119;-0.01523546;-0.199446;0;1;1;-461;-2114;3478;2;0.3448753;-0.5193906;-0.6333397;-0.4584487;-11;15;-1;1369;4118;275;8;-0.16759;-0.9385167;-0.300554;0.02770083;-7;8;16;-2307;-1333;3287;0.5329745;1.596198;2.236694;0.5333154;1.627259;1.692032;0.5335929;1.652542;1.213159;0.5367368;1.70108;0.4809732;0.2775207;1.701401;0.1530179;-0.05959966;1.777059;0.2971184;-0.2551068;0.8718889;0.269307;0;0;0;0.7967767;1.667768;0.153015;1.088564;1.702691;0.2971138;1.317139;0.775382;0.4240956;1.387316;-0.1101419;0.09438318;0.2211068;1.589386;2.281687;0.4897972;0.1533692;2.362422;0.1723516;0.82335;3.486113;0.2211068;1.589386;2.281687;0.4897972;0.1533692;2.362422;0.1723516;0.82335;3.486113
1240534.1518;NotLabelled;NONE;16384;0.7316415;-0.6495845;0.1966759;0.06371191;-4;5;-2;-534;3976;453;65536;0.7691945;-0.6149584;-0.08587258;0.1509695;1;2;0;-1463;3812;-727;8192;0.5692521;-0.5802663;-0.4972299;-0.3033241;-4;-3;-1;714;3985;549;32768;0.6986268;-0.4459834;-0.368421;-0.4210526;3;3;2;1020;3811;-908;256;-0.09556787;-0.02908587;-0.994346;-0.03601108;-5;3;3;271;436;4037;128;0.1717452;-0.02493075;0.9727519;0.1537396;5;7;-1;-41;1315;-3932;4;0.533241;-0.651934;0.3434903;0.4155124;0;1;2;39;4034;-818;16;-0.265928;-0.942718;-0.01523546;-0.200831;0;0;2;-503;-1978;3308;2;0.3462604;-0.5138504;-0.6370921;-0.4584487;-12;17;-4;1161;3976;311;8;-0.16759;-0.9373232;-0.3047091;0.02216066;-6;13;19;-2451;-1149;2841;0.5359029;1.595829;2.240118;0.5362466;1.627144;1.695471;0.5365265;1.652652;1.21661;0.5396887;1.70119;0.4844244;0.2804807;1.701511;0.1564622;-0.05664309;1.777169;0.3005547;-0.2535707;0.8724298;0.2690089;0;0;0;0.7997367;1.667878;0.1564725;1.09152;1.702802;0.3005786;1.321627;0.7754703;0.4246029;1.391812;-0.1100533;0.09489173;0.224035;1.588996;2.285107;0.4966408;0.1534886;2.361686;0.1829604;0.820503;3.488195;0.224035;1.588996;2.285107;0.4966408;0.1534886;2.361686;0.1829604;0.820503;3.488195
1240554.1375;NotLabelled;NONE;16384;0.7309005;-0.6509695;0.1952908;0.06232687;-1;6;0;-544;4084;493;65536;0.7691945;-0.6149584;-0.08587258;0.1509695;1;2;1;-1365;3840;-779;8192;0.5706371;-0.5789043;-0.4972299;-0.3033241;0;0;0;852;3885;723;32768;0.6977902;-0.4459834;-0.368421;-0.4224377;3;4;2;1140;3787;-1004;256;-0.09556787;-0.02908587;-0.994346;-0.03601108;-4;2;3;223;348;4001;128;0.1717452;-0.02493075;0.9727519;0.1537396;5;7;0;75;1313;-3894;4;0.534626;-0.6507986;0.3434903;0.4155124;-1;7;2;83;4012;-788;16;-0.265928;-0.942718;-0.01523546;-0.200831;2;1;3;-507;-2086;3560;2;0.3462604;-0.5110803;-0.6393164;-0.4584487;-11;15;-6;1149;3972;287;8;-0.16759;-0.9360238;-0.3088643;0.01939058;-5;14;19;-2489;-1275;2949;0.5380967;1.596696;2.246006;0.5384268;1.626771;1.701289;0.5386947;1.651188;1.222371;0.5417488;1.699659;0.4901806;0.2824903;1.699975;0.1622581;-0.05460431;1.775676;0.3063956;-0.2548224;0.8718545;0.2696882;0;0;0;0.8017431;1.666294;0.1621916;1.093552;1.701203;0.3062496;1.32437;0.7735357;0.4263802;1.394838;-0.1109059;0.09383726;0.2262299;1.589966;2.291018;0.5020556;0.1550013;2.366222;0.1881022;0.8217487;3.492814;0.2262299;1.589966;2.291018;0.5020556;0.1550013;2.366222;0.1881022;0.8217487;3.492814
1240574.15;NotLabelled;NONE;16384;0.7309005;-0.6509695;0.1952908;0.06232687;-1;5;0;-632;4016;667;65536;0.7694651;-0.6149584;-0.08587258;0.1495845;1;3;0;-1333;3744;-829;8192;0.5706371;-0.5789043;-0.4972299;-0.3033241;0;2;0;732;3975;571;32768;0.6979414;-0.4445983;-0.3698061;-0.4224377;1;-1;1;1152;3915;-1010;256;-0.09556787;-0.02770083;-0.9944348;-0.03462604;-2;0;1;249;362;4065;128;0.1717452;-0.02631579;0.9729333;0.1523546;4;6;0;71;1303;-3894;4;0.534626;-0.6515278;0.3421052;0.4155124;0;6;2;45;4062;-830;16;-0.265928;-0.9426945;-0.0166205;-0.200831;0;0;3;-479;-2104;3602;2;0.3476454;-0.5083103;-0.6407714;-0.4584487;-12;11;-5;1135;3880;307;8;-0.16759;-0.9351329;-0.3116343;0.01800554;-5;15;16;-2467;-1423;3001;0.5367746;1.597096;2.24242;0.5371047;1.627171;1.697703;0.5373726;1.651588;1.218785;0.5405167;1.700059;0.4865944;0.2812987;1.700375;0.1586407;-0.05581373;1.776077;0.3027365;-0.2548561;0.871855;0.2696573;0;0;0;0.8005515;1.666694;0.1586375;1.092343;1.701604;0.3027315;1.324312;0.7741492;0.422282;1.393099;-0.1105528;0.09007806;0.2249079;1.590366;2.287432;0.4971861;0.1545355;2.358941;0.1830941;0.8212826;3.485494;0.2249079;1.590366;2.287432;0.4971861;0.1545355;2.358941;0.1830941;0.8212826;3.485494
1240595.115;NotLabelled;NONE;16384;0.7326163;-0.6495845;0.1939058;0.06094183;0;1;1;-760;3958;775;65536;0.7694651;-0.6149584;-0.08587258;0.1495845;0;0;0;-1303;3752;-883;8192;0.5706371;-0.5800911;-0.4958449;-0.3033241;-2;-6;0;908;4211;739;32768;0.6986735;-0.4445983;-0.368421;-0.4224377;-1;-2;1;1006;3857;-1108;256;-0.09695291;-0.02770083;-0.9943007;-0.03462604;0;2;0;239;220;3925;128;0.1717452;-0.02770083;0.9728948;0.1523546;-2;4;0;111;1213;-3812;4;0.534626;-0.6515278;0.3421052;0.4155124;-2;1;2;83;4060;-776;16;-0.265928;-0.942718;-0.01523546;-0.200831;0;-5;3;-581;-2146;3738;2;0.3490305;-0.5055401;-0.6422084;-0.4584487;-14;13;-5;1181;3758;355;8;-0.16759;-0.9342308;-0.3144044;0.0166205;-5;9;13;-2351;-1601;2935;0.5389006;1.60405;2.242489;0.5392171;1.632885;1.697705;0.5394732;1.656211;1.218733;0.5423582;1.70286;0.4864231;0.2830898;1.701573;0.1585114;-0.05422745;1.776617;0.3024718;-0.2532711;0.8723948;0.2694014;0;0;0;0.802442;1.66946;0.1585088;1.094149;1.705611;0.3024675;1.326123;0.7781568;0.4220083;1.397772;-0.1059498;0.08882624;0.2270349;1.597422;2.287524;0.5023231;0.1621349;2.358413;0.1874501;0.8281162;3.485201;0.2270349;1.597422;2.287524;0.5023231;0.1621349;2.358413;0.1874501;0.8281162;3.485201
1240616.1326;NotLabelled;NONE;16384;0.7322483;-0.6495845;0.1952908;0.06094183;-2;0;0;-488;4054;815;65536;0.7693093;-0.6149584;-0.08725762;0.1495845;-2;3;0;-1383;3768;-849;8192;0.5720221;-0.5801688;-0.4958449;-0.300554;-5;0;0;990;3745;803;32768;0.6986735;-0.4445983;-0.368421;-0.4224377;-2;-1;5;1020;3801;-876;256;-0.09695291;-0.02770083;-0.9943007;-0.03462604;0;0;1;195;258;3919;128;0.1717452;-0.02908587;0.9728544;0.1523546;-3;2;0;123;1271;-3860;4;0.536011;-0.6511155;0.3407202;0.4155124;0;1;3;61;4174;-876;16;-0.265928;-0.9427393;-0.01385042;-0.200831;-2;-6;0;-753;-2008;3508;2;0.3490305;-0.5041551;-0.6432963;-0.4584487;-12;9;-2;1185;3516;153;8;-0.16759;-0.9337872;-0.3157895;0.01523546;-6;3;9;-2295;-1439;2967;0.5411957;1.60313;2.245763;0.5415151;1.63223;1.700993;0.5417737;1.65579;1.222032;0.5446765;1.702376;0.4897186;0.2854142;1.701083;0.1618019;-0.05189919;1.776169;0.3057497;-0.2525262;0.8723955;0.2701004;0;0;0;0.8047636;1.668925;0.1618122;1.096471;1.705063;0.3057733;1.326949;0.7771802;0.4248909;1.396011;-0.1064346;0.08986264;0.2293297;1.59648;2.290793;0.5048128;0.1611927;2.360922;0.1940135;0.82794;3.488389;0.2293297;1.59648;2.290793;0.5048128;0.1611927;2.360922;0.1940135;0.82794;3.488389
1240636.2853;NotLabelled;NONE;16384;0.7338421;-0.6481994;0.1939058;0.06094183;-4;4;0;-640;3950;559;65536;0.7695773;-0.6149584;-0.08725762;0.1481994;0;1;-1;-1317;3846;-807;8192;0.5720221;-0.5789822;-0.4972299;-0.300554;-6;-1;5;842;3901;637;32768;0.6976802;-0.4459834;-0.367036;-0.4238227;-1;-1;6;1030;3791;-860;256;-0.09695291;-0.02770083;-0.9943007;-0.03462604;0;-2;0;195;316;3965;128;0.1717452;-0.03047091;0.9725941;0.1537396;-3;2;0;217;1325;-3778;4;0.536011;-0.6511155;0.3407202;0.4155124;-3;2;2;-137;4146;-724;16;-0.265928;-0.9427393;-0.01385042;-0.200831;-3;-3;-3;-825;-2178;3290;2;0.3504155;-0.501385;-0.6456894;-0.4570637;-6;3;-1;1167;3536;133;8;-0.1689751;-0.9335786;-0.3157895;0.01246537;-3;-3;4;-2291;-1207;3025;0.5406009;1.601749;2.245335;0.5409232;1.631117;1.700579;0.5411844;1.654911;1.22163;0.5440688;1.701497;0.4893159;0.2847981;1.700204;0.1614055;-0.05251158;1.77529;0.3053622;-0.2545635;0.8718212;0.2700418;0;0;0;0.8041477;1.668046;0.1614029;1.095858;1.704184;0.3053565;1.330355;0.7772467;0.4239931;1.399408;-0.1063681;0.08896267;0.2287347;1.595078;2.29036;0.5036693;0.1594806;2.356169;0.19386;0.826992;3.483455;0.2287347;1.595078;2.29036;0.5036693;0.1594806;2.356169;0.19386;0.826992;3.483455
1240657.341;NotLabelled;NONE;16384;0.7338421;-0.6481994;0.1939058;0.06094183;-1;0;-1;-812;3826;495;65536;0.7695773;-0.6149584;-0.08725762;0.1481994;1;0;0;-1283;3760;-705;8192;0.5734072;-0.5783291;-0.4972299;-0.299169;-3;-9;4;820;3775;467;32768;0.6992897;-0.4445983;-0.365651;-0.4238227;0;0;5;1144;3887;-936;256;-0.09695291;-0.02770083;-0.9943007;-0.03462604;-1;-1;-1;173;364;3887;128;0.1717452;-0.03185596;0.9725497;0.1537396;-5;11;2;75;1323;-3940;4;0.536011;-0.6503888;0.3421052;0.4155124;-4;2;1;-371;4100;-848;16;-0.267313;-0.9426416;-0.01385042;-0.199446;0;0;-5;-765;-2208;3188;2;0.3518005;-0.501385;-0.6449358;-0.4570637;-4;0;-1;1201;3834;143;8;-0.1689751;-0.9335786;-0.3157895;0.01246537;0;1;3;-2319;-1081;2995;0.5418124;1.598842;2.249297;0.5421541;1.629982;1.704639;0.5424322;1.655333;1.22577;0.5453163;1.701919;0.4934564;0.2860458;1.700626;0.1655464;-0.05126382;1.775712;0.3095029;-0.2530222;0.8723619;0.2697417;0;0;0;0.805395;1.668468;0.1655432;1.097106;1.704606;0.3094971;1.333785;0.7781651;0.4276707;1.398201;-0.1062983;0.09395975;0.2299447;1.592024;2.294289;0.5048789;0.1564273;2.360098;0.1950701;0.8239388;3.487384;0.2299447;1.592024;2.294289;0.5048789;0.1564273;2.360098;0.1950701;0.8239388;3.487384
1240679.1405;NotLabelled;NONE;16384;0.7334747;-0.6481994;0.1952908;0.06094183;0;-4;0;-514;4008;475;65536;0.7693093;-0.6149584;-0.08725762;0.1495845;3;-1;0;-1483;3794;-767;8192;0.5734072;-0.58023;-0.4958449;-0.2977839;-1;-5;4;942;3939;411;32768;0.6992897;-0.4445983;-0.365651;-0.4238227;1;2;4;1102;3861;-936;256;-0.09556787;-0.02770083;-0.994482;-0.033241;-3;0;-1;267;248;4143;128;0.1717452;-0.03462604;0.972673;0.1523546;8;11;2;-39;1439;-4470;4;0.536011;-0.6503888;0.3421052;0.4155124;-3;-5;0;-299;4008;-882;16;-0.267313;-0.9429336;-0.01385042;-0.1980609;1;3;-6;-693;-2146;3160;2;0.3518005;-0.501385;-0.6449358;-0.4570637;-2;-1;-1;1307;4030;169;8;-0.16759;-0.9338282;-0.3157895;0.01246537;3;3;2;-2555;-1539;3155;0.5418016;1.598338;2.249298;0.5421461;1.629745;1.704655;0.5424268;1.655333;1.225799;0.5453109;1.701919;0.4934852;0.2860402;1.700626;0.1655757;-0.05126942;1.775712;0.3095319;-0.2530218;0.8723617;0.2697417;0;0;0;0.8053895;1.668467;0.165572;1.0971;1.704605;0.309526;1.336682;0.778656;0.425687;1.400673;-0.1042192;0.08771843;0.2299336;1.591497;2.294285;0.5018682;0.1553557;2.360678;0.1954166;0.8263645;3.486805;0.2299336;1.591497;2.294285;0.5018682;0.1553557;2.360678;0.1954166;0.8263645;3.486805
1240699.147;NotLabelled;NONE;16384;0.7338421;-0.6481994;0.1939058;0.06094183;0;0;1;-468;3992;561;65536;0.7693093;-0.6149584;-0.08725762;0.1495845;3;0;0;-1377;3750;-757;8192;0.5734072;-0.58023;-0.4958449;-0.2977839;0;1;3;766;4001;631;32768;0.6984484;-0.4445983;-0.365651;-0.4252077;0;1;1;1276;3781;-1026;256;-0.09556787;-0.02770083;-0.994482;-0.033241;-3;-1;-1;321;322;4421;128;0.1703601;-0.03601108;0.973296;0.1495845;12;9;3;25;1595;-4368;4;0.536011;-0.6496584;0.3434903;0.4155124;-3;-22;-2;-83;4054;-924;16;-0.267313;-0.9432021;-0.01523546;-0.1966759;3;5;-7;-503;-2164;3280;2;0.3518005;-0.501385;-0.6449358;-0.4570637;-2;-3;0;1439;4230;187;8;-0.16759;-0.9333587;-0.3171745;0.01246537;4;8;3;-2385;-1775;3263;0.5411609;1.60198;2.248486;0.541495;1.632424;1.703789;0.5417665;1.657164;1.224888;0.5445138;1.701793;0.492452;0.2851898;1.699534;0.1645897;-0.05212257;1.774886;0.3084005;-0.2552916;0.8718207;0.2693533;0;0;0;0.8045505;1.667558;0.1645864;1.096272;1.704183;0.3083949;1.33478;0.7782674;0.4270111;1.399684;-0.1046088;0.08921605;0.2292939;1.59522;2.293491;0.5010482;0.1590784;2.360619;0.195134;0.8303483;3.486736;0.2292939;1.59522;2.293491;0.5010482;0.1590784;2.360619;0.195134;0.8303483;3.486736
1240720.117;NotLabelled;NONE;16384;0.7324998;-0.6495845;0.1939058;0.06232687;4;-9;0;-544;3946;575;65536;0.77057;-0.6135734;-0.08587258;0.1495845;5;-7;2;-1511;3686;-747;8192;0.5747922;-0.578858;-0.4958449;-0.2977839;-2;-9;1;488;4211;999;32768;0.6992897;-0.4445983;-0.365651;-0.4238227;-5;-9;-3;928;3843;-1070;256;-0.09556787;-0.02770083;-0.994482;-0.033241;-5;1;-2;365;540;4429;128;0.1703601;-0.03739612;0.9734557;0.1481994;7;9;3;63;1669;-4424;4;0.533241;-0.646454;0.3504155;0.4182825;-8;-16;-4;429;4006;-646;16;-0.267313;-0.9437755;-0.01523546;-0.1939058;7;2;-6;-503;-1946;3410;2;0.3531856;-0.5027701;-0.6440801;-0.4556787;-3;-13;2;1525;4238;271;8;-0.16759;-0.9338282;-0.3157895;0.01246537;4;-1;4;-2367;-1981;3207;0.5396814;1.607432;2.250096;0.5399853;1.635126;1.705252;0.5402302;1.657448;1.226233;0.5429778;1.702079;0.4937962;0.2836539;1.699819;0.1659335;-0.05365865;1.77517;0.3097447;-0.2552919;0.8718203;0.2693533;0;0;0;0.8030145;1.667842;0.1659306;1.094736;1.704468;0.3097394;1.333225;0.7785522;0.4283952;1.396409;-0.1045741;0.09092999;0.2278168;1.600899;2.295152;0.4965652;0.1642185;2.362857;0.1932631;0.8350004;3.489972;0.2278168;1.600899;2.295152;0.4965652;0.1642185;2.362857;0.1932631;0.8350004;3.489972
1240740.2784;NotLabelled;NONE;16384;0.7336067;-0.6481994;0.1939058;0.06371191;2;-5;0;-16;4088;873;65536;0.7715539;-0.6121883;-0.08448754;0.1509695;2;-1;3;-1575;3600;-953;8192;0.5747922;-0.5807505;-0.4944598;-0.2963989;-3;-15;3;970;4007;899;32768;0.6999683;-0.4459834;-0.3642659;-0.4224377;-7;-5;-2;990;3717;-1064;256;-0.09418282;-0.02770083;-0.9946141;-0.033241;-11;4;-1;149;848;4305;128;0.1703601;-0.03878116;0.9736113;0.1468144;8;12;2;223;1653;-4118;4;0.534626;-0.644555;0.3518005;0.4182825;-10;-1;-4;395;4174;-478;16;-0.265928;-0.9444501;-0.01523546;-0.1925208;9;6;-5;-571;-1814;3350;2;0.3545706;-0.5041551;-0.6441903;-0.4529086;-3;0;6;1505;3914;459;8;-0.166205;-0.9340932;-0.3157895;0.01108033;0;-4;12;-2223;-1673;3311;0.5396794;1.610352;2.250539;0.5399698;1.636813;1.705634;0.5402028;1.658051;1.226565;0.5429505;1.702682;0.4941286;0.2836264;1.700421;0.1662661;-0.05368601;1.775774;0.3100768;-0.2524311;0.87166;0.2725499;0;0;0;0.8029871;1.668445;0.1662629;1.094709;1.705071;0.3100716;1.334711;0.7791107;0.4252861;1.399615;-0.1037645;0.08749115;0.2278159;1.603921;2.295617;0.490366;0.1662462;2.366456;0.1942278;0.8375542;3.495161;0.2278159;1.603921;2.295617;0.490366;0.1662462;2.366456;0.1942278;0.8375542;3.495161
1240781.3185;NotLabelled;NONE;16384;0.7336067;-0.6481994;0.1939058;0.06371191;0;7;-2;-112;4174;901;65536;0.771974;-0.6121883;-0.08310249;0.1495845;1;1;5;-1061;3918;-891;8192;0.5761772;-0.5807852;-0.4944598;-0.2936288;-1;-12;5;978;3777;943;32768;0.6990839;-0.4473684;-0.3642659;-0.4224377;-7;-3;0;1008;3883;-914;256;-0.09418282;-0.02631579;-0.9947405;-0.03047091;-17;3;-1;27;734;4099;128;0.1703601;-0.0401662;0.973763;0.1454294;8;11;2;303;1579;-3738;4;0.536011;-0.6434036;0.3518005;0.4182825;-9;4;-4;337;4062;-856;16;-0.2645429;-0.9450968;-0.0166205;-0.1911357;10;7;-7;-597;-1920;3414;2;0.3531856;-0.5055401;-0.6448376;-0.4515235;0;-1;9;1369;4056;347;8;-0.166205;-0.9345757;-0.3144044;0.009695291;3;-6;18;-2333;-1577;3157;0.5397029;1.611879;2.257422;0.5399797;1.637107;1.712458;0.5402009;1.657263;1.233342;0.5429487;1.701955;0.5009101;0.2836266;1.699701;0.1730459;-0.05369291;1.775013;0.3168617;-0.2518685;0.8709495;0.2753256;0;0;0;0.80299;1.66777;0.1730428;1.094708;1.704407;0.3168562;1.333657;0.7784786;0.4344813;1.398294;-0.1047375;0.0975256;0.2278405;1.605549;2.302522;0.4835793;0.1665306;2.370938;0.1881059;0.8348587;3.501584;0.2278405;1.605549;2.302522;0.4835793;0.1665306;2.370938;0.1881059;0.8348587;3.501584
1240803.1668;NotLabelled;NONE;16384;0.7327459;-0.6495845;0.1925208;0.06371191;5;8;-3;-430;3968;769;65536;0.771974;-0.6121883;-0.08310249;0.1495845;0;-1;7;-1633;3670;-781;8192;0.5761772;-0.5814834;-0.4944598;-0.2922437;0;-11;7;856;3869;773;32768;0.6989165;-0.4487534;-0.3628809;-0.4224377;-8;-5;0;928;3907;-992;256;-0.09418282;-0.02631579;-0.9947819;-0.02908587;-17;2;-2;3;556;3929;128;0.1703601;-0.04293629;0.9736448;0.1454294;4;14;4;273;1447;-3714;4;0.536011;-0.644302;0.3518005;0.4168975;-5;7;-4;251;3892;-1080;16;-0.2631579;-0.9457369;-0.01800554;-0.1897507;11;5;-6;-539;-2050;3580;2;0.3531856;-0.5055401;-0.6458053;-0.4501385;1;-2;12;1479;4254;461;8;-0.1648199;-0.9348456;-0.3144044;0.006925208;3;4;22;-2411;-1633;3289;0.544045;1.622065;2.257739;0.5443084;1.646063;1.71272;0.5445177;1.665136;1.23356;0.5468944;1.705983;0.5009012;0.2874806;1.701154;0.1731377;-0.05003985;1.776115;0.3166641;-0.2482205;0.8720516;0.2751518;0;0;0;0.8069459;1.670923;0.1731344;1.098586;1.709272;0.3166584;1.341903;0.784386;0.4335233;1.405209;-0.09991801;0.09917694;0.2321837;1.615838;2.302861;0.4843451;0.1760123;2.367482;0.1919861;0.8406228;3.501125;0.2321837;1.615838;2.302861;0.4843451;0.1760123;2.367482;0.1919861;0.8406228;3.501125
1240823.3823;NotLabelled;NONE;16384;0.732865;-0.6495845;0.1925208;0.06232687;3;1;-3;-284;4094;833;65536;0.7721218;-0.6121883;-0.08171745;0.1495845;0;0;8;-1533;3734;-933;8192;0.5775623;-0.5833558;-0.4930748;-0.2880886;5;-12;3;930;3927;787;32768;0.6962889;-0.4515235;-0.3628809;-0.4238227;-10;0;-2;1046;3775;-976;256;-0.09279778;-0.02493075;-0.9950606;-0.02493075;-14;3;-1;79;368;4019;128;0.1689751;-0.04986149;0.973762;0.1440443;2;16;5;379;1349;-3806;4;0.5373961;-0.6440428;0.3518005;0.4155124;-6;7;-9;23;4002;-776;16;-0.2617728;-0.946398;-0.01800554;-0.1883656;6;6;-6;-543;-2258;3454;2;0.3518005;-0.5069252;-0.6464392;-0.4487534;0;1;12;1581;4188;525;8;-0.1634349;-0.9341692;-0.3171745;0.004155125;4;14;28;-2513;-1605;3057;0.5414941;1.6244;2.256013;0.5417632;1.648946;1.711019;0.5419777;1.668501;1.231878;0.5442269;1.707327;0.4991095;0.2847621;1.701526;0.171402;-0.05275488;1.776796;0.3147753;-0.2481984;0.8720524;0.2751709;0;0;0;0.8042351;1.671431;0.1713992;1.095888;1.710251;0.3147701;1.340666;0.785912;0.4329056;1.401023;-0.09897494;0.09956008;0.2296325;1.618127;2.301126;0.4809437;0.178319;2.369335;0.1915439;0.8392138;3.505905;0.2296325;1.618127;2.301126;0.4809437;0.178319;2.369335;0.1915439;0.8392138;3.505905
1240844.1609;NotLabelled;NONE;16384;0.7329815;-0.6495845;0.1925208;0.06094183;0;6;-11;-676;3880;981;65536;0.7716994;-0.6135734;-0.08033241;0.1468144;-4;0;5;-1185;3778;-799;8192;0.5761772;-0.586568;-0.4916897;-0.2867036;5;-7;4;954;3889;923;32768;0.6961098;-0.4529086;-0.3614958;-0.4238227;-12;1;1;862;3819;-988;256;-0.09279778;-0.0235457;-0.995128;-0.0235457;-13;2;0;-187;260;3931;128;0.1689751;-0.05263158;0.9736162;0.1440443;1;13;0;467;1465;-3690;4;0.5387812;-0.6440339;0.3545706;0.4113573;-8;3;-17;153;4160;-680;16;-0.2603878;-0.9473269;-0.01800554;-0.1855956;5;-1;-4;-99;-1962;3298;2;0.3504155;-0.5083103;-0.6470635;-0.4473684;0;2;14;1643;4230;599;8;-0.1620499;-0.9334748;-0.3199446;0;9;20;34;-2601;-1905;2929;0.5451343;1.634315;2.25694;0.5454021;1.658709;1.711938;0.5456153;1.67813;1.232792;0.5473999;1.711142;0.4997375;0.2878125;1.701806;0.1722087;-0.04990965;1.776998;0.3151391;-0.2468334;0.8726157;0.2746098;0;0;0;0.8073905;1.67358;0.1721995;1.098966;1.714587;0.3151205;1.346796;0.7913095;0.4351762;1.40373;-0.09594977;0.1075842;0.2332727;1.628055;2.302054;0.4799556;0.1874675;2.370728;0.1915497;0.8453683;3.509286;0.2332727;1.628055;2.302054;0.4799556;0.1874675;2.370728;0.1915497;0.8453683;3.509286
1240866.1273;NotLabelled;NONE;16384;0.7332065;-0.6495845;0.1925208;0.05817174;3;3;-15;-782;3854;851;65536;0.7708588;-0.6149584;-0.08033241;0.1454294;-3;0;3;-1065;3830;-855;8192;0.5761772;-0.587243;-0.4916897;-0.2853186;6;-5;6;1330;3681;1071;32768;0.6943605;-0.4542936;-0.3614958;-0.4252077;-12;5;3;770;3981;-872;256;-0.09279778;-0.02216066;-0.9952215;-0.02077562;-11;4;0;-81;388;4065;128;0.1689751;-0.05540166;0.9734625;0.1440443;-1;15;0;463;1615;-3796;4;0.5387812;-0.6450325;0.3559557;0.4085872;-7;3;-21;33;4152;-562;16;-0.2603878;-0.9473269;-0.01800554;-0.1855956;9;-4;-2;-215;-2142;3308;2;0.3448753;-0.5096953;-0.6499004;-0.4459834;1;11;31;1733;4068;149;8;-0.1537396;-0.9314886;-0.3296399;-0.005540166;14;24;38;-2803;-2143;3321;0.5516622;1.639368;2.252364;0.551936;1.664321;1.707388;0.5521545;1.684233;1.228262;0.5537542;1.715414;0.4951263;0.2941579;1.704474;0.1676545;-0.04377294;1.779006;0.3104377;-0.2424819;0.874966;0.2709877;0;0;0;0.8138186;1.677815;0.1676511;1.105286;1.720059;0.3104329;1.351267;0.7969123;0.4352127;1.405242;-0.09090865;0.108642;0.2398;1.633062;2.297469;0.4741343;0.1908218;2.374218;0.1932694;0.8459793;3.516239;0.2398;1.633062;2.297469;0.4741343;0.1908218;2.374218;0.1932694;0.8459793;3.516239
1240887.1287;NotLabelled;NONE;16384;0.7329501;-0.6495845;0.1939058;0.0567867;5;-2;-11;-546;4010;721;65536;0.7708588;-0.6149584;-0.08033241;0.1454294;-5;-1;6;-1533;3702;-819;8192;0.5747922;-0.5874389;-0.4930748;-0.2853186;9;-4;5;1124;3757;849;32768;0.6935104;-0.4542936;-0.3614958;-0.4265928;-13;10;2;1072;3759;-888;256;-0.09279778;-0.02216066;-0.9952215;-0.02077562;-11;3;0;47;640;4015;128;0.1689751;-0.05817174;0.9733009;0.1440443;-1;19;3;433;1647;-3890;4;0.5387812;-0.6444746;0.3601108;0.4058172;-14;-7;-26;23;4094;-520;16;-0.2590028;-0.9477319;-0.0166205;-0.1855956;8;-6;-3;-439;-2252;3198;2;0.3393352;-0.5110803;-0.6536134;-0.4432133;2;10;40;1997;3854;301;8;-0.1495845;-0.9306511;-0.333795;-0.009695291;19;23;39;-2671;-1673;3203;0.5563456;1.645632;2.248595;0.5566255;1.671146;1.703645;0.5568495;1.691553;1.22454;0.5581619;1.718879;0.4912501;0.2985201;1.705367;0.1639103;-0.03961662;1.779544;0.3063902;-0.2416928;0.8762224;0.2676118;0;0;0;0.818265;1.680408;0.1639068;1.109628;1.724356;0.3063857;1.357098;0.801775;0.432397;1.408009;-0.08731544;0.1088022;0.2444829;1.639279;2.29369;0.4739492;0.1966826;2.378072;0.1932892;0.8518393;3.520143;0.2444829;1.639279;2.29369;0.4739492;0.1966826;2.378072;0.1932892;0.8518393;3.520143
