SEP=;
index;label;segment;RightUpperArm_boneIndex;RightUpperArm_quat9x_w;RightUpperArm_quat9x_x;RightUpperArm_quat9x_y;RightUpperArm_quat9x_z;RightUpperArm_gyroscope_x;RightUpperArm_gyroscope_y;RightUpperArm_gyroscope_z;RightUpperArm_accelerometer_x;RightUpperArm_accelerometer_y;RightUpperArm_accelerometer_z;RightLowerArm_boneIndex;RightLowerArm_quat9x_w;RightLowerArm_quat9x_x;RightLowerArm_quat9x_y;RightLowerArm_quat9x_z;RightLowerArm_gyroscope_x;RightLowerArm_gyroscope_y;RightLowerArm_gyroscope_z;RightLowerArm_accelerometer_x;RightLowerArm_accelerometer_y;RightLowerArm_accelerometer_z;LeftUpperArm_boneIndex;LeftUpperArm_quat9x_w;LeftUpperArm_quat9x_x;LeftUpperArm_quat9x_y;LeftUpperArm_quat9x_z;LeftUpperArm_gyroscope_x;LeftUpperArm_gyroscope_y;LeftUpperArm_gyroscope_z;LeftUpperArm_accelerometer_x;LeftUpperArm_accelerometer_y;LeftUpperArm_accelerometer_z;LeftLowerArm_boneIndex;LeftLowerArm_quat9x_w;LeftLowerArm_quat9x_x;LeftLowerArm_quat9x_y;LeftLowerArm_quat9x_z;LeftLowerArm_gyroscope_x;LeftLowerArm_gyroscope_y;LeftLowerArm_gyroscope_z;LeftLowerArm_accelerometer_x;LeftLowerArm_accelerometer_y;LeftLowerArm_accelerometer_z;Chest_boneIndex;Chest_quat9x_w;Chest_quat9x_x;Chest_quat9x_y;Chest_quat9x_z;Chest_gyroscope_x;Chest_gyroscope_y;Chest_gyroscope_z;Chest_accelerometer_x;Chest_accelerometer_y;Chest_accelerometer_z;Spine_boneIndex;Spine_quat9x_w;Spine_quat9x_x;Spine_quat9x_y;Spine_quat9x_z;Spine_gyroscope_x;Spine_gyroscope_y;Spine_gyroscope_z;Spine_accelerometer_x;Spine_accelerometer_y;Spine_accelerometer_z;RightUpperLeg_boneIndex;RightUpperLeg_quat9x_w;RightUpperLeg_quat9x_x;RightUpperLeg_quat9x_y;RightUpperLeg_quat9x_z;RightUpperLeg_gyroscope_x;RightUpperLeg_gyroscope_y;RightUpperLeg_gyroscope_z;RightUpperLeg_accelerometer_x;RightUpperLeg_accelerometer_y;RightUpperLeg_accelerometer_z;RightLowerLeg_boneIndex;RightLowerLeg_quat9x_w;RightLowerLeg_quat9x_x;RightLowerLeg_quat9x_y;RightLowerLeg_quat9x_z;RightLowerLeg_gyroscope_x;RightLowerLeg_gyroscope_y;RightLowerLeg_gyroscope_z;RightLowerLeg_accelerometer_x;RightLowerLeg_accelerometer_y;RightLowerLeg_accelerometer_z;LeftUpperLeg_boneIndex;LeftUpperLeg_quat9x_w;LeftUpperLeg_quat9x_x;LeftUpperLeg_quat9x_y;LeftUpperLeg_quat9x_z;LeftUpperLeg_gyroscope_x;LeftUpperLeg_gyroscope_y;LeftUpperLeg_gyroscope_z;LeftUpperLeg_accelerometer_x;LeftUpperLeg_accelerometer_y;LeftUpperLeg_accelerometer_z;LeftLowerLeg_boneIndex;LeftLowerLeg_quat9x_w;LeftLowerLeg_quat9x_x;LeftLowerLeg_quat9x_y;LeftLowerLeg_quat9x_z;LeftLowerLeg_gyroscope_x;LeftLowerLeg_gyroscope_y;LeftLowerLeg_gyroscope_z;LeftLowerLeg_accelerometer_x;LeftLowerLeg_accelerometer_y;LeftLowerLeg_accelerometer_z;pelvis_x;pelvis_y;pelvis_z;lowerSpine_x;lowerSpine_y;lowerSpine_z;middleSpine_x;middleSpine_y;middleSpine_z;upperSpine_x;upperSpine_y;upperSpine_z;rightClavicle_x;rightClavicle_y;rightClavicle_z;rightShoulder_x;rightShoulder_y;rightShoulder_z;rightElbow_x;rightElbow_y;rightElbow_z;rightWrist_x;rightWrist_y;rightWrist_z;leftClavicle_x;leftClavicle_y;leftClavicle_z;leftShoulder_x;leftShoulder_y;leftShoulder_z;leftElbow_x;leftElbow_y;leftElbow_z;leftWrist_x;leftWrist_y;leftWrist_z;rightHip_x;rightHip_y;rightHip_z;rightKnee_x;rightKnee_y;rightKnee_z;rightAnkle_x;rightAnkle_y;rightAnkle_z;leftHip_x;leftHip_y;leftHip_z;leftKnee_x;leftKnee_y;leftKnee_z;leftAnkle_x;leftAnkle_y;leftAnkle_z;
200202.7514;NotLabelled;NONE;16384;0.6454294;-0.6769978;0.3171745;0.1565097;1;0;-1;-928;3958;153;65536;0.6094183;-0.7304922;-0.08448754;0.2963989;0;0;0;-1939;3482;990;8192;0.468144;-0.5888594;-0.5526316;-0.3587258;0;0;0;1370;3897;161;32768;0.5876985;-0.5166205;-0.2146814;-0.5844875;1;0;0;1842;3546;953;256;-0.1108033;0.07894737;-0.8716248;-0.4709141;0;0;-1;-59;3238;2301;128;0.1883656;-0.1052632;0.7769614;0.5914127;2;0;0;-261;3975;-1124;4;0.6911455;-0.3545706;0.1357341;0.6149584;0;0;0;3031;2686;-38;16;-0.1911357;-0.9712015;-0.0166205;-0.1412742;0;0;0;-275;-1512;3822;2;0.6547337;-0.08171745;-0.3753462;-0.6509695;0;0;0;-3163;2456;555;8;-0.1786704;-0.9425877;-0.1814404;-0.2160665;0;0;0;-1741;-1063;3563;0.2525083;0.05139756;0.9098673;0.257653;0.5202105;0.6309236;0.2621638;0.931262;0.3839941;0.241907;1.547744;-0.01350097;-0.02497348;1.792603;-0.2222279;-0.3633471;1.697775;-0.09319234;-0.5100294;0.7961702;0.06147565;0;0;0;0.4950898;1.809693;-0.2222301;0.7866016;1.735565;-0.0931962;0.9517314;0.8232603;0.1689255;0.5371025;0.01044917;-0.0864332;-0.0597192;0.0118022;0.9265548;0.01178083;-0.9495885;-0.1741151;-0.03271654;-0.4561067;1.077613;-0.0597192;0.0118022;0.9265548;0.01178083;-0.9495885;-0.1741151;-0.03271654;-0.4561067;1.077613
200223.7082;NotLabelled;NONE;16384;0.6454294;-0.6769978;0.3171745;0.1565097;0;0;-1;-920;3966;137;65536;0.6094183;-0.7304922;-0.08448754;0.2963989;0;0;0;-2019;3468;966;8192;0.468144;-0.5888594;-0.5526316;-0.3587258;0;0;-1;1342;3825;133;32768;0.5890727;-0.5166205;-0.2146814;-0.5831025;1;1;0;1814;3532;889;256;-0.1121884;0.07894737;-0.8714476;-0.4709141;0;0;0;-113;3248;2305;128;0.1883656;-0.1052632;0.7769614;0.5914127;1;0;0;-247;3951;-1158;4;0.6911455;-0.3545706;0.1357341;0.6149584;0;0;0;3085;2720;-28;16;-0.1911357;-0.9712015;-0.0166205;-0.1412742;0;0;0;-351;-1494;3812;2;0.6547337;-0.08171745;-0.3753462;-0.6509695;0;0;0;-3215;2454;553;8;-0.1786704;-0.9425877;-0.1814404;-0.2160665;0;0;0;-1811;-1101;3593;0.2527863;0.05495453;0.9152756;0.2579204;0.5228145;0.6347361;0.2624219;0.9330223;0.3864073;0.2419442;1.548252;-0.01301173;-0.02501873;1.792345;-0.2225288;-0.3633655;1.697776;-0.09323269;-0.5100325;0.7961709;0.06144996;0;0;0;0.4950372;1.809657;-0.2225314;0.786567;1.736055;-0.09323679;0.9502496;0.8230321;0.1672862;0.5344045;0.009864569;-0.08494099;-0.05944045;0.01541638;0.9321098;0.01211533;-0.9459746;-0.1685565;-0.0324454;-0.4524925;1.083169;-0.05944045;0.01541638;0.9321098;0.01211533;-0.9459746;-0.1685565;-0.0324454;-0.4524925;1.083169
200245.0591;NotLabelled;NONE;16384;0.6454294;-0.6769978;0.3171745;0.1565097;0;0;-2;-896;3988;165;65536;0.6094183;-0.7306511;-0.08310249;0.2963989;0;0;0;-1939;3486;1034;8192;0.468144;-0.5888594;-0.5526316;-0.3587258;0;0;-1;1432;3817;115;32768;0.5890727;-0.5166205;-0.2146814;-0.5831025;1;0;0;1824;3552;937;256;-0.1121884;0.07894737;-0.8714476;-0.4709141;0;0;0;-53;3240;2277;128;0.1883656;-0.1052632;0.7769614;0.5914127;2;0;0;-229;3965;-1176;4;0.6911455;-0.3545706;0.1357341;0.6149584;0;0;0;3011;2718;-60;16;-0.1911357;-0.9712015;-0.0166205;-0.1412742;0;0;0;-417;-1500;3746;2;0.6547337;-0.08171745;-0.3753462;-0.6509695;0;0;0;-3189;2454;601;8;-0.1786704;-0.9425877;-0.1814404;-0.2160665;0;0;0;-1755;-1081;3625;0.2511809;0.05410695;0.9158092;0.2563151;0.5219669;0.6352695;0.2608167;0.9321747;0.3869407;0.2411589;1.547443;-0.01246078;-0.02547855;1.791897;-0.2219709;-0.3639509;1.697776;-0.09267721;-0.5098803;0.7961707;0.06270152;0;0;0;0.4946001;1.808516;-0.2219735;0.7860317;1.734522;-0.09268089;0.9509522;0.8214989;0.1670603;0.5363334;0.007549286;-0.08466241;-0.06104586;0.01456881;0.9326432;0.007808208;-0.9468222;-0.1681955;-0.0336805;-0.4533401;1.083636;-0.06104586;0.01456881;0.9326432;0.007808208;-0.9468222;-0.1681955;-0.0336805;-0.4533401;1.083636
200265.7299;NotLabelled;NONE;16384;0.6454294;-0.6769978;0.3171745;0.1565097;0;0;-2;-886;3972;151;65536;0.6094183;-0.7306511;-0.08310249;0.2963989;-1;0;0;-1997;3528;980;8192;0.468144;-0.5888594;-0.5526316;-0.3587258;0;0;-1;1392;3783;109;32768;0.5890727;-0.5166205;-0.2146814;-0.5831025;0;1;0;1922;3612;973;256;-0.1121884;0.07894737;-0.8714476;-0.4709141;0;0;0;-77;3256;2381;128;0.1883656;-0.1052632;0.7769614;0.5914127;2;0;0;-295;4023;-1156;4;0.6911455;-0.3545706;0.1357341;0.6149584;0;0;0;3049;2690;-52;16;-0.1911357;-0.9709991;-0.0166205;-0.1426593;0;0;0;-291;-1488;3778;2;0.6547337;-0.08171745;-0.3753462;-0.6509695;0;1;0;-3251;2488;567;8;-0.1786704;-0.9425877;-0.1814404;-0.2160665;0;0;0;-1667;-1097;3579;0.2530158;0.05506778;0.9157609;0.25815;0.5229278;0.6352211;0.2626515;0.9331355;0.3868923;0.2429936;1.548404;-0.01250892;-0.02364386;1.792858;-0.2220192;-0.3621162;1.698737;-0.09272537;-0.5084263;0.797132;0.06229426;0;0;0;0.4964346;1.809477;-0.2220215;0.7878663;1.735483;-0.09272893;0.952149;0.8224597;0.1674157;0.5375299;0.008510351;-0.08430755;-0.05921102;0.01552963;0.9325948;0.009643156;-0.9458609;-0.1682445;-0.0318456;-0.4523787;1.083587;-0.05921102;0.01552963;0.9325948;0.009643156;-0.9458609;-0.1682445;-0.0318456;-0.4523787;1.083587
200285.7536;NotLabelled;NONE;16384;0.6454294;-0.6766661;0.3185596;0.1551246;0;1;-2;-914;3976;139;65536;0.6094183;-0.7306511;-0.08310249;0.2963989;0;0;0;-1947;3464;984;8192;0.468144;-0.5888594;-0.5526316;-0.3587258;0;1;0;1392;3837;179;32768;0.5890727;-0.5166205;-0.2146814;-0.5831025;0;1;0;1856;3550;929;256;-0.1121884;0.07894737;-0.8721946;-0.4695291;0;0;0;-109;3254;2345;128;0.1883656;-0.1038781;0.7781999;0.5900277;2;0;0;-255;3991;-1122;4;0.6911455;-0.3545706;0.1357341;0.6149584;0;0;0;3057;2718;-72;16;-0.1911357;-0.9709991;-0.0166205;-0.1426593;0;0;0;-361;-1524;3768;2;0.6547337;-0.08171745;-0.3753462;-0.6509695;0;0;0;-3269;2494;541;8;-0.1786704;-0.9425877;-0.1814404;-0.2160665;0;0;0;-1711;-1079;3613;0.2530158;0.05506778;0.9157609;0.25815;0.5229278;0.6352211;0.2626515;0.9331355;0.3868923;0.2429936;1.548404;-0.01250892;-0.02364386;1.792858;-0.2220192;-0.3621162;1.698737;-0.09272537;-0.5084263;0.797132;0.06229426;0;0;0;0.4964346;1.809477;-0.2220215;0.7878663;1.735483;-0.09272893;0.952149;0.8224597;0.1674157;0.5375299;0.008510351;-0.08430755;-0.05921102;0.01552963;0.9325948;0.009643156;-0.9458609;-0.1682445;-0.03554398;-0.4525452;1.083524;-0.05921102;0.01552963;0.9325948;0.009643156;-0.9458609;-0.1682445;-0.03554398;-0.4525452;1.083524
200305.7637;NotLabelled;NONE;16384;0.6454294;-0.6766661;0.3185596;0.1551246;0;0;-1;-896;3992;123;65536;0.6094183;-0.7306511;-0.08310249;0.2963989;0;0;0;-1969;3468;984;8192;0.468144;-0.5888594;-0.5526316;-0.3587258;0;1;0;1408;3863;131;32768;0.5890727;-0.5166205;-0.2146814;-0.5831025;1;2;0;1926;3608;963;256;-0.1121884;0.07894737;-0.8721946;-0.4695291;0;0;0;-77;3246;2301;128;0.1897507;-0.1052632;0.7776771;0.5900277;2;1;0;-245;3917;-1162;4;0.6923754;-0.3545706;0.1357341;0.6135734;0;0;0;3005;2750;4;16;-0.1911357;-0.9709991;-0.0166205;-0.1426593;0;0;0;-365;-1504;3762;2;0.6547337;-0.08171745;-0.3753462;-0.6509695;0;0;0;-3199;2478;573;8;-0.1786704;-0.9425877;-0.1814404;-0.2160665;0;0;0;-1679;-1009;3559;0.2564678;0.0581696;0.9200242;0.2615895;0.5248911;0.6375943;0.26608;0.9340916;0.3876084;0.2461985;1.548103;-0.01371139;-0.02052266;1.791788;-0.2240091;-0.3589675;1.697925;-0.09445593;-0.5084291;0.797132;0.06226911;0;0;0;0.4995486;1.80863;-0.2240117;0.790999;1.735165;-0.09446037;0.9552687;0.8221416;0.1656928;0.5406623;0.008192062;-0.08604993;-0.0557583;0.01869965;0.9370317;0.01314957;-0.9426908;-0.1638034;-0.03209871;-0.4493749;1.087963;-0.0557583;0.01869965;0.9370317;0.01314957;-0.9426908;-0.1638034;-0.03209871;-0.4493749;1.087963
200325.9843;NotLabelled;NONE;16384;0.6440443;-0.6779846;0.3185596;0.1551246;0;0;-1;-956;3954;155;65536;0.6094183;-0.7306511;-0.08310249;0.2963989;0;0;0;-1997;3480;972;8192;0.466759;-0.5899578;-0.5526316;-0.3587258;0;1;-1;1376;3859;117;32768;0.5885661;-0.5166205;-0.2160665;-0.5831025;1;1;0;1838;3582;909;256;-0.1121884;0.07894737;-0.8721946;-0.4695291;0;0;0;-111;3222;2289;128;0.1897507;-0.1052632;0.7776771;0.5900277;1;1;0;-227;4025;-1152;4;0.6923754;-0.3545706;0.1357341;0.6135734;0;0;0;3011;2708;18;16;-0.1911357;-0.9709991;-0.0166205;-0.1426593;0;0;0;-317;-1510;3788;2;0.6547337;-0.08171745;-0.3753462;-0.6509695;0;0;0;-3195;2478;543;8;-0.1786704;-0.9429041;-0.1814404;-0.2146814;0;0;0;-1705;-1081;3573;0.2564693;0.0577476;0.918924;0.261593;0.524642;0.6367802;0.2660851;0.9339952;0.3870447;0.2461933;1.548007;-0.01427427;-0.0205332;1.791692;-0.2245651;-0.3589747;1.697829;-0.09500322;-0.508427;0.7971325;0.06228197;0;0;0;0.499538;1.808534;-0.2245812;0.7909916;1.735068;-0.09503736;0.9552769;0.8222046;0.1656653;0.5406637;0.008255005;-0.08606706;-0.05575681;0.01826715;0.9359053;0.0112684;-0.9438493;-0.1644116;-0.0339472;-0.4505334;1.087356;-0.05575681;0.01826715;0.9359053;0.0112684;-0.9438493;-0.1644116;-0.0339472;-0.4505334;1.087356
200347.7179;NotLabelled;NONE;16384;0.6440443;-0.6779846;0.3185596;0.1551246;0;0;-1;-862;3964;127;65536;0.6094183;-0.7300877;-0.08310249;0.2977839;0;0;0;-1937;3472;990;8192;0.466759;-0.5899578;-0.5526316;-0.3587258;0;1;0;1336;3845;149;32768;0.5871907;-0.5166205;-0.2160665;-0.5844875;0;0;0;1864;3504;913;256;-0.1121884;0.07894737;-0.8721946;-0.4695291;0;0;0;-115;3248;2339;128;0.1897507;-0.1052632;0.7776771;0.5900277;2;1;0;-255;3981;-1120;4;0.6911455;-0.3545706;0.1357341;0.6149584;0;0;0;3033;2746;-46;16;-0.1911357;-0.9709991;-0.0166205;-0.1426593;0;0;0;-319;-1508;3756;2;0.6539377;-0.08171745;-0.3767313;-0.6509695;0;0;0;-3227;2542;565;8;-0.1786704;-0.9429041;-0.1814404;-0.2146814;0;0;0;-1741;-1059;3551;0.2544182;0.05767798;0.9166241;0.2595418;0.5245724;0.6344801;0.264034;0.9339256;0.3847447;0.2441526;1.547937;-0.01657493;-0.02256851;1.791623;-0.2268727;-0.3610134;1.697759;-0.09731972;-0.5084291;0.797132;0.06226864;0;0;0;0.4975028;1.808464;-0.2268751;0.7889531;1.734998;-0.09732373;0.9517437;0.8225718;0.1658323;0.538731;0.007587194;-0.08518388;-0.05780792;0.01819801;0.9336054;0.009245735;-0.9439189;-0.1667095;-0.03600225;-0.4506028;1.085056;-0.05780792;0.01819801;0.9336054;0.009245735;-0.9439189;-0.1667095;-0.03600225;-0.4506028;1.085056
200367.8985;NotLabelled;NONE;16384;0.6440443;-0.6779846;0.3185596;0.1551246;0;0;-1;-962;3942;105;65536;0.6094183;-0.7300877;-0.08310249;0.2977839;0;0;0;-1973;3456;1048;8192;0.468144;-0.5888594;-0.5526316;-0.3587258;0;0;-1;1390;3809;151;32768;0.5871907;-0.5166205;-0.2160665;-0.5844875;0;1;0;1942;3510;921;256;-0.1121884;0.07894737;-0.8729389;-0.468144;0;0;0;-119;3248;2301;128;0.1897507;-0.1052632;0.7776771;0.5900277;1;0;0;-269;3947;-1160;4;0.6923754;-0.3545706;0.1357341;0.6135734;0;0;0;3023;2670;-54;16;-0.1911357;-0.9709991;-0.0166205;-0.1426593;0;0;0;-317;-1534;3754;2;0.6547337;-0.08171745;-0.3753462;-0.6509695;0;0;0;-3305;2486;555;8;-0.1786704;-0.9429041;-0.1814404;-0.2146814;0;0;0;-1683;-1063;3627;0.2532987;0.05680871;0.9185577;0.2584223;0.5237031;0.6364138;0.2629144;0.9330564;0.3866784;0.243033;1.547068;-0.01464126;-0.02368806;1.790753;-0.224939;-0.3621329;1.69689;-0.09538603;-0.5095487;0.7962627;0.06420231;0;0;0;0.4963833;1.807595;-0.2249415;0.7878335;1.734129;-0.09539004;0.950624;0.8217025;0.1677659;0.5357636;0.007498264;-0.08273199;-0.05892746;0.01732874;0.9355392;0.009980325;-0.9440622;-0.1652957;-0.0352678;-0.4507463;1.08647;-0.05892746;0.01732874;0.9355392;0.009980325;-0.9440622;-0.1652957;-0.0352678;-0.4507463;1.08647
200388.714;NotLabelled;NONE;16384;0.6440443;-0.6779846;0.3185596;0.1551246;0;0;0;-942;4030;115;65536;0.6094183;-0.7300877;-0.08310249;0.2977839;0;0;0;-1931;3482;1046;8192;0.466759;-0.5912522;-0.5512465;-0.3587258;1;0;0;1408;3841;107;32768;0.5884064;-0.5152354;-0.2160665;-0.5844875;1;1;0;1904;3554;953;256;-0.1121884;0.07756232;-0.873063;-0.468144;0;0;0;-65;3250;2359;128;0.1897507;-0.1052632;0.778726;0.5886427;1;0;0;-289;3987;-1166;4;0.6923754;-0.3545706;0.1357341;0.6135734;1;0;0;3049;2736;-54;16;-0.1911357;-0.9709991;-0.0166205;-0.1426593;0;0;0;-333;-1490;3776;2;0.6545593;-0.08310249;-0.3753462;-0.6509695;0;0;0;-3167;2536;519;8;-0.1786704;-0.9429041;-0.1814404;-0.2146814;0;0;0;-1763;-1047;3615;0.2535815;0.05858231;0.9209802;0.258705;0.5254767;0.6388363;0.2631971;0.93483;0.3891008;0.2430937;1.54758;-0.01413143;-0.02371026;1.790495;-0.225214;-0.3621282;1.69689;-0.09540331;-0.5095518;0.796263;0.06417738;0;0;0;0.496354;1.807559;-0.2252166;0.7878222;1.734623;-0.09540756;0.9520791;0.8215992;0.164754;0.5372309;0.007395029;-0.08576474;-0.05864464;0.01910186;0.9379617;0.008464143;-0.9430146;-0.1623499;-0.03684646;-0.4496984;1.089414;-0.05864464;0.01910186;0.9379617;0.008464143;-0.9430146;-0.1623499;-0.03684646;-0.4496984;1.089414
200408.7156;NotLabelled;NONE;16384;0.6440443;-0.6783;0.3185596;0.1537396;0;0;-1;-926;3964;111;65536;0.6094183;-0.7300877;-0.08310249;0.2977839;0;0;0;-1947;3476;984;8192;0.468144;-0.5901561;-0.5512465;-0.3587258;0;2;-1;1444;3903;157;32768;0.5878959;-0.5152354;-0.2174515;-0.5844875;0;1;0;1940;3542;869;256;-0.1121884;0.07756232;-0.873063;-0.468144;1;0;0;-119;3244;2367;128;0.1897507;-0.1052632;0.778726;0.5886427;1;0;0;-199;3967;-1156;4;0.6923754;-0.3545706;0.1357341;0.6135734;0;0;0;3001;2664;-32;16;-0.1911357;-0.9709991;-0.0166205;-0.1426593;0;0;0;-411;-1478;3750;2;0.6545593;-0.08310249;-0.3753462;-0.6509695;0;0;0;-3251;2450;565;8;-0.1786704;-0.9429041;-0.1814404;-0.2146814;0;0;0;-1687;-1039;3589;0.2520741;0.0596602;0.9271583;0.2571872;0.5255933;0.6434293;0.2616701;0.9340959;0.3923045;0.2430998;1.546702;-0.01121822;-0.02308769;1.790158;-0.2224564;-0.3617494;1.697428;-0.09265471;-0.509646;0.7962637;0.06342256;0;0;0;0.4970159;1.805974;-0.2223857;0.7882884;1.732399;-0.09249718;0.9482245;0.8188848;0.1686296;0.5349776;0.00503397;-0.08565669;-0.06015149;0.02023792;0.9442852;0.008585654;-0.9418793;-0.1559261;-0.03857771;-0.4485629;1.09577;-0.06015149;0.02023792;0.9442852;0.008585654;-0.9418793;-0.1559261;-0.03857771;-0.4485629;1.09577
200429.7172;NotLabelled;NONE;16384;0.6440443;-0.6783;0.3185596;0.1537396;0;0;-1;-940;4008;105;65536;0.6094183;-0.7300877;-0.08310249;0.2977839;0;0;0;-2003;3456;1012;8192;0.466759;-0.5912522;-0.5512465;-0.3587258;0;1;0;1368;3889;113;32768;0.5878959;-0.5152354;-0.2174515;-0.5844875;0;0;0;1906;3522;907;256;-0.1121884;0.07756232;-0.873063;-0.468144;0;0;0;-75;3258;2341;128;0.1911357;-0.1052632;0.7783872;0.5886427;1;0;0;-247;3949;-1208;4;0.6916643;-0.3559557;0.1357341;0.6135734;0;0;0;3047;2732;-6;16;-0.1911357;-0.9709991;-0.0166205;-0.1426593;0;0;0;-341;-1510;3776;2;0.6545593;-0.08310249;-0.3753462;-0.6509695;0;0;0;-3259;2474;543;8;-0.1786704;-0.9429041;-0.1814404;-0.2146814;0;0;0;-1743;-1039;3559;0.2532696;0.0586822;0.9226288;0.2583826;0.5246153;0.6389;0.2628653;0.9331179;0.3877749;0.2442381;1.545724;-0.01574495;-0.02197918;1.78918;-0.2269456;-0.3606226;1.696449;-0.09709606;-0.5096373;0.7962632;0.06349483;0;0;0;0.4981243;1.804996;-0.2269484;0.7894151;1.731421;-0.09710091;0.9512628;0.8181968;0.1638634;0.5395705;0.00331068;-0.08962721;-0.05895591;0.01925993;0.9397559;0.00962621;-0.9428573;-0.1604647;-0.03736064;-0.4495409;1.091237;-0.05895591;0.01925993;0.9397559;0.00962621;-0.9428573;-0.1604647;-0.03736064;-0.4495409;1.091237
200449.7121;NotLabelled;NONE;16384;0.6440443;-0.6783;0.3185596;0.1537396;0;0;0;-990;3950;143;65536;0.6094183;-0.730244;-0.08171745;0.2977839;0;0;0;-1937;3486;996;8192;0.466759;-0.5912522;-0.5512465;-0.3587258;0;1;0;1370;3845;103;32768;0.5878959;-0.5152354;-0.2174515;-0.5844875;0;0;0;1794;3502;909;256;-0.1121884;0.07756232;-0.8738043;-0.466759;0;0;0;-93;3268;2351;128;0.1911357;-0.1052632;0.7783872;0.5886427;1;0;0;-219;3961;-1178;4;0.6916643;-0.3559557;0.1357341;0.6135734;0;0;0;3047;2718;-48;16;-0.1911357;-0.9709991;-0.0166205;-0.1426593;0;0;0;-345;-1550;3776;2;0.6537631;-0.08310249;-0.3767313;-0.6509695;0;0;0;-3189;2494;609;8;-0.1786704;-0.9429041;-0.1814404;-0.2146814;0;0;0;-1705;-1037;3587;0.2532691;0.05869818;0.9226553;0.2583822;0.5246227;0.6389123;0.262865;0.9331172;0.3877748;0.2442379;1.545724;-0.01574519;-0.02197932;1.78918;-0.2269459;-0.3606227;1.69645;-0.09709641;-0.5096371;0.796263;0.06349447;0;0;0;0.4981243;1.804996;-0.2269485;0.7894149;1.731421;-0.09710082;0.949785;0.8187978;0.1668625;0.5380927;0.00391221;-0.08662834;-0.05895641;0.01927638;0.9397837;0.01306706;-0.9449062;-0.1584073;-0.03391999;-0.4515898;1.093295;-0.05895641;0.01927638;0.9397837;0.01306706;-0.9449062;-0.1584073;-0.03391999;-0.4515898;1.093295
200469.7137;NotLabelled;NONE;16384;0.6440443;-0.6783;0.3185596;0.1537396;0;0;0;-926;3974;99;65536;0.6094183;-0.730244;-0.08171745;0.2977839;0;0;0;-1943;3468;1000;8192;0.468144;-0.5901561;-0.5512465;-0.3587258;0;0;-1;1372;3835;163;32768;0.5878959;-0.5152354;-0.2174515;-0.5844875;1;1;0;1820;3520;957;256;-0.1121884;0.07756232;-0.8738043;-0.466759;1;0;0;-5;3250;2365;128;0.1911357;-0.1052632;0.7783872;0.5886427;2;0;0;-235;3991;-1184;4;0.6923754;-0.3545706;0.1357341;0.6135734;0;0;0;3041;2760;-46;16;-0.1911357;-0.9712015;-0.0166205;-0.1412742;0;0;0;-353;-1500;3812;2;0.6537631;-0.08310249;-0.3767313;-0.6509695;0;0;0;-3191;2526;623;8;-0.1786704;-0.9429041;-0.1814404;-0.2146814;0;0;0;-1717;-1081;3571;0.2550084;0.06143904;0.9246652;0.2601213;0.5273631;0.6409222;0.2646039;0.935858;0.3897847;0.245755;1.547199;-0.01564179;-0.02054546;1.789882;-0.2276244;-0.3591619;1.697412;-0.09751931;-0.5081841;0.7972252;0.06306462;0;0;0;0.4995512;1.80592;-0.2276269;0.7908607;1.732873;-0.09752317;0.9512174;0.8202507;0.1664481;0.5395374;0.00536418;-0.08706205;-0.05721706;0.02201724;0.9417936;0.0148579;-0.9421651;-0.1563941;-0.03218806;-0.448849;1.095306;-0.05721706;0.02201724;0.9417936;0.0148579;-0.9421651;-0.1563941;-0.03218806;-0.448849;1.095306
200489.8793;NotLabelled;NONE;16384;0.6440443;-0.6779846;0.3185596;0.1551246;0;0;0;-988;3986;131;65536;0.6094183;-0.730244;-0.08171745;0.2977839;0;0;0;-1955;3482;1026;8192;0.468144;-0.5901561;-0.5512465;-0.3587258;0;1;-1;1354;3817;161;32768;0.5878959;-0.5152354;-0.2174515;-0.5844875;1;1;0;1910;3572;911;256;-0.1121884;0.07756232;-0.8738043;-0.466759;1;0;0;-31;3258;2321;128;0.1897507;-0.1052632;0.778726;0.5886427;1;0;0;-231;3973;-1146;4;0.6921024;-0.3545706;0.1371191;0.6135734;0;0;0;3077;2678;-30;16;-0.1911357;-0.9712015;-0.0166205;-0.1412742;0;0;0;-347;-1488;3780;2;0.6539377;-0.08171745;-0.3767313;-0.6509695;0;1;0;-3257;2454;527;8;-0.1786704;-0.9429041;-0.1814404;-0.2146814;0;0;0;-1721;-1093;3521;0.2550084;0.06143904;0.9246652;0.2601213;0.5273631;0.6409222;0.2646039;0.935858;0.3897847;0.245755;1.547199;-0.01564179;-0.02054546;1.789882;-0.2276244;-0.3591619;1.697412;-0.09751931;-0.5081841;0.7972252;0.06306462;0;0;0;0.4995512;1.80592;-0.2276269;0.7908607;1.732873;-0.09752317;0.9526959;0.819649;0.1634486;0.5410159;0.004763365;-0.09006168;-0.05721706;0.02201724;0.9417936;0.01141704;-0.9400995;-0.158424;-0.03193069;-0.4466174;1.093344;-0.05721706;0.02201724;0.9417936;0.01141704;-0.9400995;-0.158424;-0.03193069;-0.4466174;1.093344
200510.708;NotLabelled;NONE;16384;0.6440443;-0.6783;0.3185596;0.1537396;0;0;0;-936;3996;147;65536;0.6094183;-0.730244;-0.08171745;0.2977839;0;0;0;-1969;3450;978;8192;0.466759;-0.5912522;-0.5512465;-0.3587258;0;0;-1;1370;3833;145;32768;0.5877295;-0.5138504;-0.2174515;-0.5858725;1;0;1;1902;3526;907;256;-0.1121884;0.07756232;-0.8738043;-0.466759;0;0;0;-109;3210;2323;128;0.1897507;-0.1052632;0.778726;0.5886427;1;0;0;-241;3991;-1142;4;0.6921024;-0.3545706;0.1371191;0.6135734;0;0;0;3027;2714;-8;16;-0.1911357;-0.9712015;-0.0166205;-0.1412742;0;0;0;-383;-1484;3778;2;0.6539377;-0.08171745;-0.3767313;-0.6509695;0;0;0;-3283;2428;579;8;-0.1786704;-0.9429041;-0.1814404;-0.2146814;0;0;0;-1759;-1053;3591;0.2536305;0.06186414;0.9258465;0.2587435;0.5277972;0.6421177;0.2632263;0.9362998;0.3909928;0.2443773;1.547639;-0.01443378;-0.02192305;1.790323;-0.2264165;-0.3605396;1.697853;-0.0963116;-0.5081844;0.7972255;0.06306444;0;0;0;0.4981736;1.806361;-0.2264188;0.7894831;1.733315;-0.09631513;0.9513179;0.8200908;0.1646567;0.5396379;0.005204439;-0.08885352;-0.05859508;0.02244186;0.9429735;0.007738497;-0.9418786;-0.1554544;-0.03560954;-0.4483964;1.096313;-0.05859508;0.02244186;0.9429735;0.007738497;-0.9418786;-0.1554544;-0.03560954;-0.4483964;1.096313
200530.7163;NotLabelled;NONE;16384;0.6440443;-0.6783;0.3185596;0.1537396;0;0;-1;-974;3924;105;65536;0.6094183;-0.730244;-0.08171745;0.2977839;0;0;-1;-1957;3458;1000;8192;0.466759;-0.5912522;-0.5512465;-0.3587258;0;0;-1;1338;3937;207;32768;0.5877295;-0.5138504;-0.2174515;-0.5858725;1;0;1;1890;3574;881;256;-0.1121884;0.07756232;-0.8738043;-0.466759;0;0;0;-107;3220;2293;128;0.1911357;-0.1052632;0.7783872;0.5886427;2;1;0;-209;3969;-1142;4;0.6921024;-0.3545706;0.1371191;0.6135734;0;0;0;2991;2712;-36;16;-0.1911357;-0.9712015;-0.0166205;-0.1412742;0;0;0;-315;-1502;3796;2;0.6539377;-0.08171745;-0.3767313;-0.6509695;0;-1;0;-3243;2452;553;8;-0.1786704;-0.9429041;-0.1814404;-0.2146814;0;0;0;-1655;-1107;3559;0.2550077;0.06142306;0.9246389;0.2601207;0.5273561;0.64091;0.2646036;0.9358587;0.389785;0.2457547;1.547198;-0.0156417;-0.02054568;1.789882;-0.2276245;-0.3591622;1.697412;-0.09751952;-0.5081846;0.7972255;0.06306422;0;0;0;0.4995511;1.80592;-0.2276269;0.7908607;1.732873;-0.09752278;0.9512173;0.820251;0.1664485;0.5389237;0.00649929;-0.0896951;-0.0572179;0.02200103;0.9417659;0.009116124;-0.9423196;-0.1566627;-0.03423229;-0.4488375;1.095106;-0.0572179;0.02200103;0.9417659;0.009116124;-0.9423196;-0.1566627;-0.03423229;-0.4488375;1.095106
200550.7228;NotLabelled;NONE;16384;0.6440443;-0.6783;0.3185596;0.1537396;0;-1;-1;-988;3956;169;65536;0.6094183;-0.730244;-0.08171745;0.2977839;0;0;-1;-1867;3474;1026;8192;0.466759;-0.5912522;-0.5512465;-0.3587258;1;0;-1;1392;3875;131;32768;0.5877295;-0.5138504;-0.2174515;-0.5858725;1;1;1;1792;3484;869;256;-0.1121884;0.07756232;-0.8738043;-0.466759;0;0;0;-147;3286;2345;128;0.1897507;-0.1038781;0.7799568;0.5872576;2;0;0;-253;3967;-1194;4;0.6921024;-0.3545706;0.1371191;0.6135734;0;-1;0;3021;2784;16;16;-0.1911357;-0.9712015;-0.0166205;-0.1412742;0;0;0;-347;-1514;3810;2;0.6539377;-0.08171745;-0.3767313;-0.6509695;0;-1;0;-3175;2462;555;8;-0.1786704;-0.9429041;-0.1814404;-0.2146814;0;0;0;-1715;-1039;3633;0.255008;0.0614388;0.9246648;0.2601209;0.5273628;0.6409218;0.2646036;0.9358578;0.3897843;0.2457546;1.547198;-0.01564217;-0.02054585;1.789882;-0.2276247;-0.3591622;1.697412;-0.0975197;-0.5081843;0.797225;0.06306443;0;0;0;0.4995508;1.80592;-0.2276273;0.7908603;1.732873;-0.09752354;0.9512178;0.82025;0.1664475;0.5389243;0.006498575;-0.08969587;-0.05721746;0.022017;0.9417932;0.009115774;-0.9423032;-0.156635;-0.03423187;-0.4488211;1.095133;-0.05721746;0.022017;0.9417932;0.009115774;-0.9423032;-0.156635;-0.03423187;-0.4488211;1.095133
200572.7069;NotLabelled;NONE;16384;0.6440443;-0.6776478;0.3199446;0.1537396;0;-1;-1;-970;3976;111;65536;0.6094183;-0.730244;-0.08171745;0.2977839;0;0;0;-1973;3486;1012;8192;0.466759;-0.5912522;-0.5512465;-0.3587258;0;2;-1;1394;3853;113;32768;0.5872152;-0.5138504;-0.2188366;-0.5858725;1;1;0;1786;3570;897;256;-0.1121884;0.07756232;-0.8745427;-0.4653739;0;0;0;-51;3254;2269;128;0.1911357;-0.1038781;0.7796184;0.5872576;2;0;0;-305;3989;-1196;4;0.6921024;-0.3545706;0.1371191;0.6135734;0;-1;1;2985;2710;-22;16;-0.1911357;-0.9712015;-0.0166205;-0.1412742;0;0;0;-349;-1516;3774;2;0.6539377;-0.08171745;-0.3767313;-0.6509695;0;0;0;-3183;2552;567;8;-0.1786704;-0.9429041;-0.1814404;-0.2146814;0;0;0;-1777;-1055;3567;0.2549996;0.06422544;0.9318489;0.2601;0.5290089;0.6462411;0.2645717;0.9364944;0.3934688;0.2457906;1.547834;-0.01196089;-0.02047439;1.790518;-0.2239882;-0.3591127;1.698048;-0.09393978;-0.508195;0.7972255;0.06297961;0;0;0;0.4996223;1.806556;-0.2239037;0.7909102;1.733509;-0.0937511;0.951168;0.8198361;0.1666222;0.5389171;0.006084919;-0.08958986;-0.0572252;0.02487326;0.9491488;0.009292156;-0.9394474;-0.1492682;-0.03426528;-0.4459655;1.102493;-0.0572252;0.02487326;0.9491488;0.009292156;-0.9394474;-0.1492682;-0.03426528;-0.4459655;1.102493
200592.7309;NotLabelled;NONE;16384;0.6440443;-0.6776478;0.3199446;0.1537396;0;0;-1;-918;4006;139;65536;0.6094183;-0.730244;-0.08171745;0.2977839;0;0;0;-2025;3504;1006;8192;0.466759;-0.5904096;-0.5512465;-0.3601108;0;1;0;1324;3869;129;32768;0.5872152;-0.5138504;-0.2188366;-0.5858725;1;0;0;1878;3520;945;256;-0.1121884;0.07756232;-0.8745427;-0.4653739;0;0;0;-111;3344;2277;128;0.1911357;-0.1038781;0.7796184;0.5872576;2;0;0;-265;3989;-1134;4;0.6921024;-0.3545706;0.1371191;0.6135734;0;-1;1;3069;2738;-14;16;-0.1911357;-0.9712015;-0.0166205;-0.1412742;0;0;0;-333;-1498;3768;2;0.6539377;-0.08171745;-0.3767313;-0.6509695;0;1;-1;-3245;2514;559;8;-0.1786704;-0.9429041;-0.1814404;-0.2146814;0;0;0;-1709;-1057;3577;0.2570826;0.06500793;0.9301083;0.262183;0.5297825;0.6444858;0.2666545;0.9372597;0.3917004;0.2475849;1.547328;-0.01562711;-0.01879817;1.789237;-0.2283889;-0.3573879;1.697029;-0.0980294;-0.5081876;0.7972255;0.06304038;0;0;0;0.5012917;1.805497;-0.2283914;0.7926195;1.73298;-0.09803331;0.9529639;0.8203568;0.1659451;0.5422706;0.005568504;-0.08947198;-0.05514212;0.02565575;0.9474096;0.01124363;-0.9386647;-0.1510157;-0.03216353;-0.4451828;1.100751;-0.05514212;0.02565575;0.9474096;0.01124363;-0.9386647;-0.1510157;-0.03216353;-0.4451828;1.100751
200614.7197;NotLabelled;NONE;16384;0.6440443;-0.6776478;0.3199446;0.1537396;0;0;-2;-926;3960;83;65536;0.6094183;-0.730244;-0.08171745;0.2977839;0;0;0;-1999;3396;1008;8192;0.466759;-0.5904096;-0.5512465;-0.3601108;0;0;0;1394;3849;217;32768;-0.5858725;0.5138504;0.2188366;0.5872152;0;0;1;1984;3536;917;256;-0.1121884;0.07756232;-0.8745427;-0.4653739;0;0;0;-123;3324;2313;128;0.1911357;-0.1038781;0.7796184;0.5872576;1;0;0;-275;4015;-1174;4;0.6908721;-0.3545706;0.1371191;0.6149584;0;0;1;3081;2702;-84;16;-0.1911357;-0.9712015;-0.0166205;-0.1412742;0;0;0;-391;-1470;3790;2;0.6539377;-0.08171745;-0.3767313;-0.6509695;0;0;0;-3277;2474;555;8;-0.1786704;-0.9429041;-0.1814404;-0.2146814;0;0;0;-1719;-1073;3565;0.2570832;0.06500793;0.9301081;0.2621835;0.5297825;0.6444855;0.266655;0.9372597;0.3917002;0.2475853;1.547328;-0.0156275;-0.01879792;1.789237;-0.2283892;-0.3573875;1.697029;-0.09802955;-0.5081874;0.7972255;0.06304042;0;0;0;0.501292;1.805497;-0.2283918;0.7926199;1.73298;-0.09803373;0.9514869;0.8196406;0.1643576;0.5407934;0.004852057;-0.09105943;-0.05514157;0.02565575;0.9474094;0.01124374;-0.9386649;-0.1510158;-0.03216314;-0.4451826;1.100751;-0.05514157;0.02565575;0.9474094;0.01124374;-0.9386649;-0.1510158;-0.03216314;-0.4451826;1.100751
200635.7925;NotLabelled;NONE;16384;0.6440443;-0.6776478;0.3199446;0.1537396;0;0;-1;-974;4006;143;65536;0.6094183;-0.730244;-0.08171745;0.2977839;1;-5;0;-2009;3466;750;8192;0.466759;-0.5912522;-0.5512465;-0.3587258;0;1;0;1364;3913;147;32768;-0.5858725;0.5138504;0.2188366;0.5872152;1;1;1;1828;3532;885;256;-0.1135734;0.07756232;-0.874364;-0.4653739;0;0;0;-93;3292;2333;128;0.1911357;-0.1038781;0.7796184;0.5872576;1;0;0;-301;3971;-1088;4;0.6908721;-0.3545706;0.1371191;0.6149584;0;0;0;3035;2686;-42;16;-0.1911357;-0.9712015;-0.0166205;-0.1412742;0;0;0;-357;-1508;3812;2;0.6531378;-0.08171745;-0.3781163;-0.6509695;0;-1;0;-3263;2460;585;8;-0.1786704;-0.9429041;-0.1814404;-0.2146814;0;0;0;-1763;-1083;3639;0.2570831;0.06500793;0.9301088;0.2621834;0.5297825;0.6444863;0.2666549;0.9372597;0.391701;0.2475853;1.547328;-0.0156266;-0.01879776;1.789237;-0.2283884;-0.3573875;1.697029;-0.09802887;-0.5081877;0.7972255;0.06304051;0;0;0;0.5012921;1.805497;-0.2283909;0.7926199;1.73298;-0.0980328;0.9514866;0.8196411;0.1643586;0.5389974;0.005602837;-0.09055799;-0.05514169;0.02565575;0.9474102;0.0131038;-0.9379439;-0.1515333;-0.03030345;-0.4444618;1.100233;-0.05514169;0.02565575;0.9474102;0.0131038;-0.9379439;-0.1515333;-0.03030345;-0.4444618;1.100233
200655.967;NotLabelled;NONE;16384;0.6426592;-0.6789615;0.3199446;0.1537396;1;0;-1;-910;4022;81;65536;0.6094183;-0.730244;-0.08171745;0.2977839;0;-1;0;-2051;3492;1064;8192;0.466759;-0.5904096;-0.5512465;-0.3601108;1;2;-1;1308;3895;77;32768;-0.5858725;0.5124654;0.2188366;0.5884243;1;2;0;1884;3502;941;256;-0.1135734;0.07756232;-0.874364;-0.4653739;0;0;0;-109;3242;2343;128;0.1911357;-0.1038781;0.7806599;0.5858725;2;1;0;-271;3987;-1148;4;0.6908721;-0.3545706;0.1371191;0.6149584;0;0;0;3077;2718;-12;16;-0.1911357;-0.9712015;-0.0166205;-0.1412742;0;0;0;-371;-1508;3828;2;0.6533096;-0.08033241;-0.3781163;-0.6509695;0;0;0;-3239;2458;563;8;-0.1786704;-0.9429041;-0.1814404;-0.2146814;0;0;0;-1745;-1089;3569;0.2558415;0.06417298;0.9309683;0.2609417;0.5289476;0.6453457;0.2654133;0.9364247;0.3925605;0.2471472;1.546528;-0.01475065;-0.01891711;1.788795;-0.2275056;-0.3576279;1.697028;-0.09714824;-0.5080307;0.797225;0.06429224;0;0;0;0.5011936;1.804369;-0.2275085;0.7924259;1.731464;-0.09715241;0.95342;0.8188415;0.1664306;0.5403038;0.004803896;-0.08746876;-0.05638327;0.02482104;0.9482697;0.009154066;-0.9387786;-0.1508384;-0.03116879;-0.4452968;1.10103;-0.05638327;0.02482104;0.9482697;0.009154066;-0.9387786;-0.1508384;-0.03116879;-0.4452968;1.10103
200677.6981;NotLabelled;NONE;16384;0.6426592;-0.6789615;0.3199446;0.1537396;0;0;0;-868;4048;145;65536;0.6094183;-0.7298315;-0.08033241;0.299169;0;0;0;-1977;3526;970;8192;0.466759;-0.5904096;-0.5512465;-0.3601108;1;1;0;1340;3887;143;32768;-0.5858725;0.5124654;0.2188366;0.5884243;1;2;0;1936;3554;879;256;-0.1135734;0.07756232;-0.874364;-0.4653739;0;0;0;-127;3310;2341;128;0.1911357;-0.1038781;0.7806599;0.5858725;1;0;0;-231;4037;-1178;4;0.6908721;-0.3545706;0.1371191;0.6149584;0;0;0;3035;2754;-40;16;-0.1911357;-0.9712015;-0.0166205;-0.1412742;0;0;0;-309;-1482;3778;2;0.6533096;-0.08033241;-0.3781163;-0.6509695;0;0;0;-3245;2414;551;8;-0.1786704;-0.9429041;-0.1814404;-0.2146814;0;0;0;-1727;-1121;3571;0.2537904;0.06637716;0.9341786;0.25888;0.5301812;0.6469824;0.2633421;0.9367993;0.3928177;0.2451323;1.546903;-0.01449603;-0.02090272;1.78917;-0.2272881;-0.3596315;1.697403;-0.09697744;-0.5080396;0.7972252;0.06422155;0;0;0;0.4992082;1.804743;-0.2272186;0.7904224;1.731838;-0.09682211;0.9498537;0.8176177;0.1621303;0.5363964;0.004616022;-0.09451882;-0.05843368;0.02708387;0.9516247;0.007256489;-0.936516;-0.1474747;-0.03324002;-0.4430337;1.104389;-0.05843368;0.02708387;0.9516247;0.007256489;-0.936516;-0.1474747;-0.03324002;-0.4430337;1.104389
200697.7195;NotLabelled;NONE;16384;0.6426592;-0.6789615;0.3199446;0.1537396;0;1;0;-948;3972;145;65536;0.6094183;-0.7298315;-0.08033241;0.299169;0;0;0;-1937;3522;968;8192;0.466759;-0.5904096;-0.5512465;-0.3601108;0;0;0;1296;3949;113;32768;-0.5858725;0.5124654;0.2188366;0.5884243;1;1;0;1984;3580;923;256;-0.1135734;0.07756232;-0.874364;-0.4653739;0;0;0;-71;3304;2293;128;0.1911357;-0.1038781;0.7806599;0.5858725;1;1;0;-243;3995;-1158;4;0.6908721;-0.3545706;0.1371191;0.6149584;0;0;0;2991;2758;-46;16;-0.1911357;-0.9710218;-0.01523546;-0.1426593;0;0;0;-347;-1508;3816;2;0.6533096;-0.08033241;-0.3781163;-0.6509695;0;0;0;-3283;2490;557;8;-0.1786704;-0.9429041;-0.1814404;-0.2146814;0;0;0;-1715;-1075;3611;0.2541599;0.06592011;0.9325977;0.2592496;0.5297241;0.6454016;0.2637118;0.9363422;0.3912368;0.2454457;1.546446;-0.01607434;-0.02061854;1.788713;-0.2288294;-0.3593293;1.696946;-0.09847227;-0.5076867;0.7973199;0.06582294;0;0;0;0.4994922;1.804286;-0.2288319;0.7907245;1.731381;-0.09847596;0.950237;0.8180432;0.1635231;0.5367442;0.005041838;-0.09306894;-0.05806421;0.02662683;0.9500438;0.007474039;-0.9369726;-0.1490646;-0.03284934;-0.4434907;1.102804;-0.05806421;0.02662683;0.9500438;0.007474039;-0.9369726;-0.1490646;-0.03284934;-0.4434907;1.102804
200738.7036;NotLabelled;NONE;16384;0.6426592;-0.6789615;0.3199446;0.1537396;0;0;-1;-940;3990;193;65536;0.6094183;-0.7298315;-0.08033241;0.299169;0;0;0;-1919;3444;978;8192;0.4653739;-0.591502;-0.5512465;-0.3601108;0;0;-1;1280;3945;179;32768;-0.5858725;0.5124654;0.2188366;0.5884243;0;0;0;1890;3554;871;256;-0.1135734;0.07756232;-0.8750997;-0.4639889;1;0;0;-115;3250;2309;128;0.1911357;-0.1038781;0.7806599;0.5858725;1;0;0;-211;3977;-1186;4;0.6908721;-0.3545706;0.1371191;0.6149584;0;-1;0;3049;2668;-38;16;-0.1911357;-0.9710218;-0.01523546;-0.1426593;0;0;0;-419;-1516;3770;2;0.6533096;-0.08033241;-0.3781163;-0.6509695;0;0;0;-3215;2438;527;8;-0.1786704;-0.9429041;-0.1814404;-0.2146814;0;0;0;-1733;-1111;3601;0.2541599;0.06592011;0.9325977;0.2592496;0.5297241;0.6454016;0.2637118;0.9363422;0.3912368;0.2454457;1.546446;-0.01607434;-0.02061854;1.788713;-0.2288294;-0.3593293;1.696946;-0.09847227;-0.5076867;0.7973199;0.06582294;0;0;0;0.4994922;1.804286;-0.2288319;0.7907245;1.731381;-0.09847596;0.950237;0.8180432;0.1635231;0.5367442;0.005041838;-0.09306894;-0.05806421;0.02662683;0.9500438;0.007474039;-0.9369726;-0.1490646;-0.03586975;-0.4431129;1.102555;-0.05806421;0.02662683;0.9500438;0.007474039;-0.9369726;-0.1490646;-0.03586975;-0.4431129;1.102555
200799.7124;NotLabelled;NONE;16384;0.6426592;-0.6789615;0.3199446;0.1537396;0;0;-1;-868;4006;129;65536;0.6094183;-0.7298315;-0.08033241;0.299169;0;0;0;-1969;3480;986;8192;0.4653739;-0.5906565;-0.5512465;-0.3614958;0;0;-1;1386;3867;105;32768;-0.5858725;0.5124654;0.2188366;0.5884243;0;1;-1;1856;3498;831;256;-0.1135734;0.07617728;-0.8752214;-0.4639889;0;0;0;-13;3240;2331;128;0.1911357;-0.1038781;0.7806599;0.5858725;1;1;0;-257;3963;-1174;4;0.6908721;-0.3545706;0.1371191;0.6149584;0;0;0;3047;2714;-104;16;-0.1911357;-0.9710218;-0.01523546;-0.1426593;0;-1;0;-311;-1494;3828;2;0.6533096;-0.08033241;-0.3781163;-0.6509695;0;1;0;-3263;2456;569;8;-0.1786704;-0.9429041;-0.1814404;-0.2146814;0;1;0;-1669;-1045;3649;0.2544446;0.06771183;0.9349998;0.2595343;0.5315158;0.6478034;0.2639965;0.938134;0.3936386;0.245507;1.546962;-0.015568;-0.02064111;1.788451;-0.2290995;-0.3593248;1.696945;-0.09848914;-0.5076896;0.7973192;0.06579953;0;0;0;0.499463;1.804249;-0.2291019;0.7907143;1.731874;-0.09849294;0.9487413;0.819144;0.1665094;0.5352606;0.006142378;-0.09010138;-0.05777957;0.02841854;0.9524459;0.007808816;-0.9351809;-0.1466595;-0.03559232;-0.4413211;1.104958;-0.05777957;0.02841854;0.9524459;0.007808816;-0.9351809;-0.1466595;-0.03559232;-0.4413211;1.104958
200843.7175;NotLabelled;NONE;16384;0.6426592;-0.6789615;0.3199446;0.1537396;0;0;0;-954;3970;139;65536;0.6094183;-0.7298315;-0.08033241;0.299169;0;0;0;-1937;3482;978;8192;0.4653739;-0.5906565;-0.5512465;-0.3614958;0;0;0;1298;3881;135;32768;-0.5858725;0.5124654;0.2202216;0.5879074;0;0;-1;1856;3574;853;256;-0.1135734;0.07617728;-0.8759542;-0.4626039;0;0;0;-83;3276;2335;128;0.1911357;-0.1038781;0.7816974;0.5844875;0;1;0;-293;3983;-1174;4;0.6908721;-0.3545706;0.1371191;0.6149584;0;0;0;2989;2670;-26;16;-0.1911357;-0.9710218;-0.01523546;-0.1426593;0;0;0;-307;-1516;3850;2;0.6509695;-0.08033241;-0.3795014;-0.6525061;0;0;0;-3281;2500;553;8;-0.1786704;-0.9429041;-0.1814404;-0.2146814;0;0;0;-1739;-1077;3563;0.2527414;0.0664444;0.9348857;0.2578311;0.5302484;0.6476895;0.2622932;0.9368665;0.3935245;0.2452744;1.545546;-0.01596583;-0.02028911;1.787576;-0.2296136;-0.3591938;1.696946;-0.09896544;-0.5077764;0.7973201;0.06512623;0;0;0;0.4998516;1.802122;-0.2296162;0.7909262;1.729108;-0.09896933;0.9471238;0.8156612;0.1646484;0.5339831;0.002660036;-0.09251089;-0.05948274;0.02715111;0.9523318;0.007563703;-0.9364486;-0.1466857;-0.03749767;-0.4425888;1.104873;-0.05948274;0.02715111;0.9523318;0.007563703;-0.9364486;-0.1466857;-0.03749767;-0.4425888;1.104873
200925.7935;NotLabelled;NONE;16384;0.6426592;-0.6789615;0.3199446;0.1537396;0;0;-2;-994;3982;103;65536;0.6094183;-0.7298315;-0.08033241;0.299169;0;-1;0;-1941;3508;1050;8192;0.4653739;-0.5906565;-0.5512465;-0.3614958;0;0;0;1354;3843;151;32768;-0.5844875;0.5124654;0.2202216;0.5892844;0;0;0;1910;3496;919;256;-0.1149584;0.07617728;-0.8757735;-0.4626039;0;0;0;-75;3180;2343;128;0.1911357;-0.1038781;0.7816974;0.5844875;0;0;0;-275;3981;-1196;4;0.6908721;-0.3545706;0.1371191;0.6149584;0;0;0;3001;2736;-12;16;-0.1911357;-0.9710218;-0.01523546;-0.1426593;0;-1;0;-301;-1518;3830;2;0.6509695;-0.07894737;-0.3795014;-0.652675;0;0;0;-3255;2494;547;8;-0.1786704;-0.9428532;-0.1800554;-0.2160665;0;0;0;-1719;-1053;3569;0.253046;0.07007813;0.9402242;0.258125;0.5329075;0.6514599;0.2625776;0.9386635;0.3959205;0.2453356;1.546062;-0.01545896;-0.02031217;1.787314;-0.2298802;-0.3591897;1.696945;-0.09898075;-0.5077793;0.7973189;0.06510448;0;0;0;0.4998223;1.802081;-0.2298826;0.7909163;1.729597;-0.09898454;0.9471023;0.8161511;0.1646397;0.5362481;0.001821041;-0.09197737;-0.05917738;0.03084421;0.9578148;0.007916357;-0.9327552;-0.1411997;-0.03719896;-0.4388959;1.110357;-0.05917738;0.03084421;0.9578148;0.007916357;-0.9327552;-0.1411997;-0.03719896;-0.4388959;1.110357
200946.718;NotLabelled;NONE;16384;0.6426592;-0.6783071;0.3213296;0.1537396;0;-1;-1;-976;3938;141;65536;0.6094183;-0.7299826;-0.07894737;0.299169;0;-1;0;-2031;3496;1032;8192;0.4653739;-0.5906565;-0.5512465;-0.3614958;0;0;-1;1334;3819;79;32768;-0.5844875;0.5124654;0.2202216;0.5892844;0;0;0;1882;3570;899;256;-0.1149584;0.07617728;-0.8757735;-0.4626039;0;0;0;-81;3236;2383;128;0.1911357;-0.1024931;0.7818802;0.5844875;1;0;0;-279;3921;-1266;4;0.6905957;-0.3545706;0.1385041;0.6149584;0;0;0;3017;2748;-72;16;-0.1911357;-0.9708173;-0.01523546;-0.1440443;0;0;0;-297;-1502;3776;2;0.6509695;-0.07894737;-0.3795014;-0.652675;0;0;0;-3241;2512;523;8;-0.1786704;-0.9431696;-0.1800554;-0.2146814;0;0;0;-1749;-1091;3611;0.25181;0.06925273;0.9410916;0.2568889;0.5320821;0.6523274;0.2613415;0.9378381;0.3967878;0.2448946;1.545269;-0.01457676;-0.02043713;1.786873;-0.2289916;-0.3594325;1.696945;-0.09809422;-0.5076168;0.7973194;0.06635728;0;0;0;0.499716;1.80096;-0.2289944;0.7907151;1.728091;-0.09809813;0.9475515;0.8146453;0.1651399;0.5342219;0.001085758;-0.08994114;-0.06041345;0.03001881;0.9586822;0.003967583;-0.9335809;-0.1404946;-0.03805855;-0.4397213;1.11117;-0.06041345;0.03001881;0.9586822;0.003967583;-0.9335809;-0.1404946;-0.03805855;-0.4397213;1.11117
200967.8666;NotLabelled;NONE;16384;0.6426592;-0.6786195;0.3213296;0.1523546;0;0;-1;-954;3938;125;65536;0.6094183;-0.7299826;-0.07894737;0.299169;0;0;0;-1929;3472;972;8192;0.4653739;-0.5927897;-0.5498615;-0.3601108;0;0;0;1440;3825;61;32768;-0.5844875;0.5124654;0.2202216;0.5892844;0;1;0;1892;3554;833;256;-0.1149584;0.07617728;-0.8757735;-0.4626039;0;0;0;-57;3242;2383;128;0.1911357;-0.1024931;0.7818802;0.5844875;2;0;0;-233;3943;-1182;4;0.6905957;-0.3545706;0.1385041;0.6149584;0;0;0;3001;2710;-20;16;-0.1911357;-0.9708173;-0.01523546;-0.1440443;0;0;0;-303;-1508;3802;2;0.6495845;-0.07894737;-0.3795014;-0.6540535;0;0;0;-3283;2506;601;8;-0.1786704;-0.9431696;-0.1800554;-0.2146814;0;0;0;-1691;-1077;3623;0.2550319;0.07017779;0.9407346;0.2601088;0.5328221;0.6516739;0.2645597;0.9384141;0.3958744;0.2481124;1.545845;-0.01549026;-0.01721935;1.787449;-0.2299051;-0.3562149;1.697522;-0.09900746;-0.5061605;0.7982793;0.06594604;0;0;0;0.502934;1.801536;-0.2299079;0.7939329;1.728668;-0.09901208;0.950776;0.8152213;0.1642221;0.5374461;0.001661301;-0.09085886;-0.05719145;0.03095484;0.9583527;0.004905462;-0.9348507;-0.1390181;-0.04081887;-0.4411526;1.112581;-0.05719145;0.03095484;0.9583527;0.004905462;-0.9348507;-0.1390181;-0.04081887;-0.4411526;1.112581
200988.8002;NotLabelled;NONE;16384;0.6426592;-0.6792736;0.3199446;0.1523546;0;0;0;-946;3996;97;65536;0.6094183;-0.7299826;-0.07894737;0.299169;0;1;0;-1843;3460;1028;8192;0.4653739;-0.5927897;-0.5498615;-0.3601108;0;0;0;1374;3821;85;32768;-0.5844875;0.5124654;0.2202216;0.5892844;0;0;0;1876;3504;871;256;-0.1149584;0.07617728;-0.8765037;-0.4612188;0;0;0;-81;3288;2317;128;0.1911357;-0.1024931;0.7818802;0.5844875;1;0;0;-275;3961;-1256;4;0.6921024;-0.3545706;0.1371191;0.6135734;0;0;0;3035;2684;-56;16;-0.1911357;-0.9710218;-0.01523546;-0.1426593;0;0;0;-373;-1488;3774;2;0.6495845;-0.07894737;-0.3795014;-0.6540535;0;0;0;-3215;2578;537;8;-0.1786704;-0.9428532;-0.1800554;-0.2160665;0;0;0;-1705;-1115;3573;0.2564132;0.0697248;0.9395325;0.26149;0.5323691;0.6504717;0.2659408;0.9379611;0.3946722;0.249494;1.545392;-0.01669234;-0.01583758;1.786996;-0.2311075;-0.3548331;1.697068;-0.1002102;-0.5061604;0.7982793;0.06594552;0;0;0;0.5043157;1.801083;-0.2311099;0.7953147;1.728214;-0.1002136;0.9515839;0.8153014;0.165202;0.5382546;0.001741886;-0.08987931;-0.05581015;0.03050184;0.9571504;0.006288007;-0.9353034;-0.1402202;-0.03943777;-0.4416056;1.111379;-0.05581015;0.03050184;0.9571504;0.006288007;-0.9353034;-0.1402202;-0.03943777;-0.4416056;1.111379
201009.749;NotLabelled;NONE;16384;0.6426592;-0.6783071;0.3213296;0.1537396;0;0;-1;-1054;3942;61;65536;0.6094183;-0.7299826;-0.07894737;0.299169;0;-1;0;-2005;3492;1116;8192;0.4653739;-0.5927897;-0.5498615;-0.3601108;0;0;0;1364;3831;103;32768;-0.5844875;0.5124654;0.2202216;0.5892844;0;1;0;1854;3542;963;256;-0.1149584;0.07617728;-0.8765037;-0.4612188;0;0;0;-115;3252;2313;128;0.1911357;-0.1024931;0.7818802;0.5844875;1;0;0;-269;3905;-1264;4;0.6918265;-0.3545706;0.1385041;0.6135734;0;0;0;2981;2716;-88;16;-0.1911357;-0.9710218;-0.01523546;-0.1426593;0;0;0;-371;-1460;3788;2;0.6495845;-0.07894737;-0.3808864;-0.653248;0;0;0;-3249;2530;577;8;-0.1786704;-0.9428532;-0.1800554;-0.2160665;0;0;0;-1741;-1033;3515;0.2549383;0.0719173;0.9424188;0.2600152;0.5345616;0.6533581;0.264466;0.9401536;0.3975586;0.2477929;1.546299;-0.01568934;-0.01762447;1.787123;-0.2308748;-0.3565923;1.697455;-0.09972736;-0.5061628;0.7982793;0.06592457;0;0;0;0.5025226;1.801433;-0.2308777;0.7935419;1.729096;-0.09973173;0.9498003;0.8161831;0.1656899;0.536481;0.002622604;-0.08940841;-0.05728504;0.03269434;0.9600368;0.005282879;-0.9316261;-0.1386122;-0.03679454;-0.4377666;1.11305;-0.05728504;0.03269434;0.9600368;0.005282879;-0.9316261;-0.1386122;-0.03679454;-0.4377666;1.11305
201030.7184;NotLabelled;NONE;16384;0.6426592;-0.6786195;0.3213296;0.1523546;0;-3;-1;-956;4014;185;65536;0.6094183;-0.7299826;-0.07894737;0.299169;0;0;0;-1917;3504;1054;8192;0.4653739;-0.5927897;-0.5498615;-0.3601108;0;0;-1;1390;3847;105;32768;-0.5844875;0.5138504;0.2202216;0.588077;0;1;0;1826;3534;939;256;-0.1149584;0.07617728;-0.8765037;-0.4612188;0;0;0;-13;3212;2379;128;0.1911357;-0.1024931;0.7829136;0.5831025;2;1;0;-301;3921;-1224;4;0.6918265;-0.3545706;0.1385041;0.6135734;0;0;0;3027;2696;-26;16;-0.1911357;-0.9710218;-0.01523546;-0.1426593;0;0;0;-349;-1478;3808;2;0.6495845;-0.07894737;-0.3808864;-0.653248;0;0;0;-3199;2498;585;8;-0.1786704;-0.9431696;-0.1800554;-0.2146814;0;0;0;-1763;-1081;3599;0.2553239;0.07198334;0.9431274;0.2604008;0.5346277;0.6540666;0.2648516;0.9402196;0.3982671;0.2481785;1.546365;-0.01498084;-0.01723885;1.787189;-0.2301663;-0.3562067;1.697521;-0.09901884;-0.5061633;0.7982795;0.06592482;0;0;0;0.5029083;1.801499;-0.2301692;0.7939275;1.729162;-0.09902322;0.950186;0.8162487;0.1663985;0.5368666;0.002688646;-0.08869969;-0.05689944;0.03276038;0.9607454;0.003380474;-0.9337606;-0.1360962;-0.03869686;-0.4399009;1.115566;-0.05689944;0.03276038;0.9607454;0.003380474;-0.9337606;-0.1360962;-0.03869686;-0.4399009;1.115566
201051.7941;NotLabelled;NONE;16384;0.6426592;-0.6783071;0.3213296;0.1537396;0;0;-1;-956;3994;111;65536;0.6094183;-0.7299826;-0.07894737;0.299169;0;0;0;-1885;3450;978;8192;0.4653739;-0.5927897;-0.5498615;-0.3601108;1;1;0;1352;3867;87;32768;-0.5844875;0.5124654;0.2202216;0.5892844;0;1;0;1872;3502;879;256;-0.1149584;0.07617728;-0.8765037;-0.4612188;0;0;0;-111;3228;2461;128;0.1911357;-0.1024931;0.7829136;0.5831025;1;0;0;-267;4013;-1292;4;0.6905957;-0.3545706;0.1385041;0.6149584;0;0;0;3027;2728;-72;16;-0.1911357;-0.9710218;-0.01523546;-0.1426593;0;0;0;-315;-1508;3798;2;0.6495845;-0.07894737;-0.3808864;-0.653248;0;0;0;-3229;2484;519;8;-0.1786704;-0.9431696;-0.1800554;-0.2146814;0;0;0;-1741;-1075;3571;0.2567002;0.07337689;0.944833;0.2617664;0.5350416;0.6542099;0.2662078;0.9397664;0.3970408;0.2495349;1.545911;-0.0162072;-0.01588224;1.786736;-0.2313932;-0.3548501;1.697068;-0.1002459;-0.506163;0.7982793;0.06592403;0;0;0;0.504265;1.801045;-0.2313954;0.795284;1.728708;-0.1002493;0.9515767;0.8157959;0.1651533;0.5386332;0.001205921;-0.08725181;-0.0555225;0.03421378;0.9625949;0.00475844;-0.9323077;-0.1342462;-0.03732008;-0.4384477;1.117416;-0.0555225;0.03421378;0.9625949;0.00475844;-0.9323077;-0.1342462;-0.03732008;-0.4384477;1.117416
201071.7228;NotLabelled;NONE;16384;0.6426592;-0.6786195;0.3213296;0.1523546;0;2;-2;-968;3940;181;65536;0.6094183;-0.7301311;-0.07756232;0.299169;0;1;0;-1965;3418;980;8192;0.4639889;-0.5938745;-0.5498615;-0.3601108;0;0;0;1344;3867;69;32768;-0.5844875;0.5124654;0.2202216;0.5892844;0;0;0;1924;3576;895;256;-0.1149584;0.07617728;-0.8765037;-0.4612188;0;0;0;-105;3244;2345;128;0.1911357;-0.1024931;0.7829136;0.5831025;3;0;0;-223;3971;-1184;4;0.6905957;-0.3545706;0.1385041;0.6149584;0;0;0;3039;2726;-22;16;-0.1911357;-0.9710218;-0.01523546;-0.1426593;0;0;0;-287;-1520;3806;2;0.6495845;-0.07894737;-0.3808864;-0.653248;0;0;0;-3289;2502;527;8;-0.1786704;-0.9431696;-0.1800554;-0.2146814;0;0;0;-1665;-1051;3555;0.2553437;0.07382989;0.9460591;0.26041;0.5354946;0.6554361;0.2648513;0.9402194;0.398267;0.2481785;1.546364;-0.01498098;-0.01723868;1.787189;-0.230167;-0.3562066;1.697521;-0.09901971;-0.5061631;0.7982793;0.06592415;0;0;0;0.5029085;1.801498;-0.2301692;0.7939274;1.729161;-0.09902312;0.9501858;0.8162489;0.1663992;0.5368668;0.002689123;-0.08869898;-0.05687892;0.03466678;0.9638212;0.005264763;-0.9311388;-0.1335466;-0.03681365;-0.4372787;1.118116;-0.05687892;0.03466678;0.9638212;0.005264763;-0.9311388;-0.1335466;-0.03681365;-0.4372787;1.118116
201092.0284;NotLabelled;NONE;16384;0.6412742;-0.6799285;0.3213296;0.1523546;0;0;-1;-1026;4044;83;65536;0.6094183;-0.7299826;-0.07894737;0.299169;0;1;0;-2023;3498;996;8192;0.4639889;-0.5938745;-0.5498615;-0.3601108;0;0;-1;1388;3877;87;32768;-0.5844875;0.5124654;0.2202216;0.5892844;0;0;0;1914;3560;905;256;-0.1149584;0.07617728;-0.8772311;-0.4598338;0;0;0;-39;3208;2433;128;0.1911357;-0.1024931;0.7839433;0.5817174;2;1;0;-325;3987;-1224;4;0.6905957;-0.3545706;0.1385041;0.6149584;0;0;0;3105;2700;-52;16;-0.1911357;-0.9710218;-0.01523546;-0.1426593;0;-1;0;-319;-1552;3834;2;0.6495845;-0.07894737;-0.3808864;-0.653248;0;0;0;-3269;2502;537;8;-0.1786704;-0.9431696;-0.1800554;-0.2146814;0;0;0;-1747;-1071;3609;0.25818;0.07433367;0.9444414;0.2632462;0.5359983;0.6538182;0.2676876;0.9407232;0.3966492;0.2510147;1.546868;-0.0165988;-0.01440241;1.787692;-0.2317849;-0.3533703;1.698025;-0.1006375;-0.5047047;0.7992361;0.06551225;0;0;0;0.5057448;1.802002;-0.231787;0.7967638;1.729665;-0.1006409;0.9515582;0.8173773;0.167769;0.5382392;0.00381732;-0.0873293;-0.05404265;0.03517056;0.9622033;0.008101035;-0.930635;-0.1351644;-0.03397736;-0.436775;1.116498;-0.05404265;0.03517056;0.9622033;0.008101035;-0.930635;-0.1351644;-0.03397736;-0.436775;1.116498
201113.2679;NotLabelled;NONE;16384;0.6412742;-0.6799285;0.3213296;0.1523546;0;-1;-1;-1008;3944;35;65536;0.6094183;-0.7301311;-0.07756232;0.299169;0;-1;0;-1967;3496;1070;8192;0.4639889;-0.5938745;-0.5498615;-0.3601108;0;0;0;1454;3859;63;32768;-0.5844875;0.5124654;0.2202216;0.5892844;0;1;1;1856;3584;859;256;-0.1149584;0.07617728;-0.8772311;-0.4598338;0;0;0;-71;3256;2443;128;0.1911357;-0.1024931;0.7839433;0.5817174;3;1;0;-297;3961;-1280;4;0.6918265;-0.3545706;0.1385041;0.6135734;0;1;0;3001;2714;-20;16;-0.1911357;-0.9710218;-0.01523546;-0.1426593;0;-1;0;-275;-1498;3826;2;0.6495845;-0.07894737;-0.3808864;-0.653248;0;0;0;-3207;2552;561;8;-0.1786704;-0.9431696;-0.1800554;-0.2146814;0;0;0;-1711;-1037;3583;0.254961;0.07685423;0.9472927;0.2600164;0.537535;0.6551127;0.2644481;0.9413893;0.3965786;0.2475508;1.546243;-0.01854727;-0.01795113;1.786286;-0.2345008;-0.356892;1.69688;-0.1031054;-0.506166;0.7982795;0.06590346;0;0;0;0.5021899;1.80082;-0.2345034;0.7932287;1.729014;-0.103109;0.948047;0.8167255;0.1652866;0.5347385;0.003166437;-0.08982933;-0.05726111;0.03775144;0.9651985;0.004928645;-0.9280541;-0.1321671;-0.03720224;-0.4341948;1.119494;-0.05726111;0.03775144;0.9651985;0.004928645;-0.9280541;-0.1321671;-0.03720224;-0.4341948;1.119494
201133.7236;NotLabelled;NONE;16384;0.6412742;-0.6799285;0.3213296;0.1523546;0;0;0;-960;4018;75;65536;0.6094183;-0.7301311;-0.07756232;0.299169;0;0;0;-1981;3514;1034;8192;0.4639889;-0.5938745;-0.5498615;-0.3601108;0;2;-1;1378;3869;99;32768;-0.5844875;0.5138504;0.2202216;0.588077;0;1;0;1846;3554;931;256;-0.1149584;0.07617728;-0.8772311;-0.4598338;1;0;0;-103;3178;2321;128;0.1911357;-0.1024931;0.7839433;0.5817174;0;0;-1;-277;3899;-1190;4;0.6918265;-0.3545706;0.1385041;0.6135734;0;0;0;2959;2760;2;16;-0.1911357;-0.9710218;-0.01523546;-0.1426593;0;-1;0;-403;-1538;3766;2;0.6495845;-0.07894737;-0.3808864;-0.653248;0;0;0;-3245;2562;555;8;-0.1786704;-0.9431696;-0.1800554;-0.2146814;0;0;0;-1719;-1083;3529;0.2564416;0.07781005;0.9468997;0.261497;0.5384908;0.6547196;0.2659288;0.9423456;0.3961855;0.2490313;1.547199;-0.01894022;-0.01647075;1.787242;-0.2348937;-0.3554114;1.697835;-0.103498;-0.5047076;0.7992353;0.06549133;0;0;0;0.5036701;1.801775;-0.2348965;0.7947089;1.72997;-0.1035022;0.9494923;0.8176818;0.1649138;0.5361841;0.00412178;-0.09020172;-0.05578041;0.03870726;0.9648052;0.004545465;-0.9278138;-0.1320335;-0.03758448;-0.4339542;1.119627;-0.05578041;0.03870726;0.9648052;0.004545465;-0.9278138;-0.1320335;-0.03758448;-0.4339542;1.119627
201154.8125;NotLabelled;NONE;16384;0.6412742;-0.6799285;0.3213296;0.1523546;0;1;0;-956;4058;155;65536;0.6094183;-0.7301311;-0.07756232;0.299169;0;0;1;-1961;3516;1018;8192;0.4639889;-0.5930324;-0.5498615;-0.3614958;0;1;-2;1334;3899;105;32768;-0.5844875;0.5124654;0.2202216;0.5892844;1;2;0;1930;3520;963;256;-0.1149584;0.07617728;-0.8772311;-0.4598338;1;0;0;-103;3194;2371;128;0.1911357;-0.1024931;0.7839433;0.5817174;1;0;-1;-225;3991;-1230;4;0.6918265;-0.3545706;0.1385041;0.6135734;0;0;0;3029;2780;10;16;-0.1911357;-0.9710218;-0.01523546;-0.1426593;0;0;0;-313;-1476;3762;2;0.6495845;-0.07894737;-0.3808864;-0.653248;0;1;0;-3215;2498;593;8;-0.1786704;-0.9431696;-0.1800554;-0.2146814;0;0;0;-1695;-1105;3595;0.2564416;0.07781005;0.9468997;0.261497;0.5384908;0.6547196;0.2659288;0.9423456;0.3961855;0.2490313;1.547199;-0.01894022;-0.01647075;1.787242;-0.2348937;-0.3554114;1.697835;-0.103498;-0.5047076;0.7992353;0.06549133;0;0;0;0.5036701;1.801775;-0.2348965;0.7947089;1.72997;-0.1035022;0.9494923;0.8176818;0.1649138;0.5365595;0.003091574;-0.08750852;-0.05578041;0.03870726;0.9648052;0.004545465;-0.9278138;-0.1320335;-0.03758448;-0.4339542;1.119627;-0.05578041;0.03870726;0.9648052;0.004545465;-0.9278138;-0.1320335;-0.03758448;-0.4339542;1.119627
201174.7245;NotLabelled;NONE;16384;0.6412742;-0.6799285;0.3213296;0.1523546;0;0;0;-1018;3994;169;65536;0.6094183;-0.7301311;-0.07756232;0.299169;0;0;1;-1929;3510;1010;8192;0.4639889;-0.5930324;-0.5498615;-0.3614958;0;2;-1;1322;3849;67;32768;-0.5844875;0.5124654;0.2202216;0.5892844;0;1;0;1896;3518;935;256;-0.1149584;0.07617728;-0.8772311;-0.4598338;1;0;0;-65;3242;2393;128;0.1911357;-0.1024931;0.7839433;0.5817174;1;0;0;-255;3969;-1274;4;0.6918265;-0.3545706;0.1385041;0.6135734;0;0;0;3061;2666;2;16;-0.1911357;-0.9710218;-0.01523546;-0.1426593;0;0;0;-311;-1522;3788;2;0.6481994;-0.07894737;-0.3808864;-0.6546223;0;1;0;-3259;2464;465;8;-0.1786704;-0.9431696;-0.1800554;-0.2146814;0;0;0;-1673;-1055;3583;0.2564416;0.07781005;0.9468997;0.261497;0.5384908;0.6547196;0.2659288;0.9423456;0.3961855;0.2490313;1.547199;-0.01894022;-0.01647075;1.787242;-0.2348937;-0.3554114;1.697835;-0.103498;-0.5047076;0.7992353;0.06549133;0;0;0;0.5036701;1.801775;-0.2348965;0.7947089;1.72997;-0.1035022;0.9480025;0.8169637;0.1633257;0.5346939;0.003404856;-0.09178978;-0.05578041;0.03870726;0.9648052;0.004545465;-0.9278138;-0.1320335;-0.03758448;-0.4339542;1.119627;-0.05578041;0.03870726;0.9648052;0.004545465;-0.9278138;-0.1320335;-0.03758448;-0.4339542;1.119627
201195.7146;NotLabelled;NONE;16384;0.6412742;-0.6799285;0.3213296;0.1523546;-1;1;0;-994;3950;171;65536;0.6094183;-0.7301311;-0.07756232;0.299169;0;0;0;-1957;3462;988;8192;0.4639889;-0.5930324;-0.5498615;-0.3614958;0;0;-1;1304;3815;97;32768;-0.5844875;0.5124654;0.2202216;0.5892844;0;0;0;1858;3518;903;256;-0.1163435;0.07617728;-0.8770486;-0.4598338;0;0;0;-33;3194;2347;128;0.1911357;-0.1024931;0.7839433;0.5817174;0;0;0;-277;3883;-1186;4;0.6918265;-0.3545706;0.1385041;0.6135734;0;1;0;3063;2672;-48;16;-0.1911357;-0.9710218;-0.01523546;-0.1426593;0;0;0;-255;-1480;3760;2;0.6481994;-0.07894737;-0.3808864;-0.6546223;0;0;0;-3265;2490;557;8;-0.1786704;-0.9431696;-0.1800554;-0.2146814;0;0;0;-1733;-1047;3585;0.2564416;0.07781005;0.9468997;0.261497;0.5384908;0.6547196;0.2659288;0.9423456;0.3961855;0.2490313;1.547199;-0.01894022;-0.01647075;1.787242;-0.2348937;-0.3554114;1.697835;-0.103498;-0.5047076;0.7992353;0.06549133;0;0;0;0.5036701;1.801775;-0.2348965;0.7947089;1.72997;-0.1035022;0.9480025;0.8169637;0.1633257;0.5346939;0.003404856;-0.09178978;-0.05578041;0.03870726;0.9648052;0.004545465;-0.9278138;-0.1320335;-0.03758448;-0.4339542;1.119627;-0.05578041;0.03870726;0.9648052;0.004545465;-0.9278138;-0.1320335;-0.03758448;-0.4339542;1.119627
201216.7203;NotLabelled;NONE;16384;0.6412742;-0.6799285;0.3213296;0.1523546;0;0;0;-972;3940;159;65536;0.6094183;-0.7301311;-0.07756232;0.299169;0;0;0;-1963;3432;1002;8192;0.4639889;-0.5921859;-0.5498615;-0.3628809;0;0;0;1280;3829;155;32768;-0.5844875;0.5124654;0.2202216;0.5892844;0;0;0;1878;3442;855;256;-0.1149584;0.07479224;-0.8780748;-0.4584487;0;0;0;-113;3276;2389;128;0.1911357;-0.1024931;0.7839433;0.5817174;0;0;0;-241;3945;-1162;4;0.6918265;-0.3545706;0.1385041;0.6135734;0;0;0;3053;2682;-50;16;-0.1911357;-0.9712242;-0.01523546;-0.1412742;0;0;0;-323;-1486;3770;2;0.6481994;-0.07894737;-0.3808864;-0.6546223;0;0;0;-3207;2478;569;8;-0.1786704;-0.9431696;-0.1800554;-0.2146814;0;0;0;-1699;-1051;3573;0.2552029;0.07699013;0.9477605;0.2602583;0.5376709;0.6555805;0.26469;0.9415257;0.3970463;0.24858;1.546411;-0.0180647;-0.01660933;1.786805;-0.2340123;-0.3556662;1.697836;-0.1026185;-0.5045441;0.7992361;0.06673928;0;0;0;0.5035501;1.80066;-0.2340148;0.7944951;1.728473;-0.1026223;0.9484483;0.8154676;0.1638259;0.5345104;0.001907587;-0.09026704;-0.05701917;0.03788733;0.9656662;0.0005951077;-0.9286339;-0.1313185;-0.03844047;-0.4347739;1.120442;-0.05701917;0.03788733;0.9656662;0.0005951077;-0.9286339;-0.1313185;-0.03844047;-0.4347739;1.120442
201237.7073;NotLabelled;NONE;16384;0.6426592;-0.678929;0.3213296;0.1509695;0;0;0;-1018;3936;133;65536;0.6094183;-0.7301311;-0.07756232;0.299169;0;0;0;-1903;3510;972;8192;0.4639889;-0.5921859;-0.5498615;-0.3628809;0;0;-1;1310;3865;87;32768;-0.5844875;0.5124654;0.2202216;0.5892844;0;0;0;1856;3554;823;256;-0.1163435;0.07479224;-0.8778924;-0.4584487;1;0;0;-91;3226;2385;128;0.1911357;-0.1024931;0.7839433;0.5817174;1;1;0;-287;3899;-1240;4;0.6915478;-0.3545706;0.1398892;0.6135734;0;0;0;2965;2786;-44;16;-0.1911357;-0.971245;-0.01385042;-0.1412742;0;0;0;-337;-1538;3774;2;0.6481994;-0.07894737;-0.3808864;-0.6546223;0;0;0;-3227;2480;575;8;-0.1772853;-0.9434309;-0.1800554;-0.2146814;0;0;0;-1695;-1061;3625;0.2550342;0.07836175;0.9491673;0.2600896;0.5390425;0.6569872;0.2645213;0.9428973;0.3984531;0.2488636;1.546302;-0.01882463;-0.01614119;1.786101;-0.2356578;-0.355271;1.697837;-0.1039783;-0.5047958;0.7992358;0.06480888;0;0;0;0.5040277;1.799601;-0.2356602;0.7949112;1.727686;-0.1039824;0.9463613;0.8139677;0.1614535;0.5333984;0.0004076958;-0.09422103;-0.05718789;0.03925896;0.967073;0.004621867;-0.9272623;-0.1296838;-0.03550294;-0.4332414;1.12198;-0.05718789;0.03925896;0.967073;0.004621867;-0.9272623;-0.1296838;-0.03550294;-0.4332414;1.12198
201258.0279;NotLabelled;NONE;16384;0.6426592;-0.678929;0.3213296;0.1509695;0;0;0;-934;3986;133;65536;0.6094183;-0.7301311;-0.07756232;0.299169;0;0;0;-1893;3502;1014;8192;0.4639889;-0.5921859;-0.5498615;-0.3628809;0;1;-2;1328;3877;55;32768;-0.5844875;0.5124654;0.2216066;0.5887649;1;1;0;1892;3514;937;256;-0.1163435;0.07479224;-0.8778924;-0.4584487;1;0;0;-19;3246;2389;128;0.1925208;-0.1024931;0.7836043;0.5817174;1;0;0;-307;3971;-1266;4;0.6915478;-0.3545706;0.1398892;0.6135734;0;0;0;3045;2752;-20;16;-0.1911357;-0.9712242;-0.01523546;-0.1412742;0;0;0;-315;-1526;3770;2;0.6481994;-0.07894737;-0.3808864;-0.6546223;0;0;0;-3243;2560;539;8;-0.1772853;-0.943745;-0.1800554;-0.2132964;0;0;0;-1707;-1055;3575;0.2572262;0.07727885;0.9516715;0.2622817;0.5379596;0.6594915;0.2667136;0.9418144;0.4009573;0.2518387;1.545248;-0.01630681;-0.01285467;1.785396;-0.2331342;-0.3520986;1.697568;-0.1014566;-0.504634;0.7992353;0.06605776;0;0;0;0.5073313;1.798221;-0.2331366;0.7981211;1.725926;-0.1014606;0.9502274;0.8122067;0.1635997;0.5366331;-0.001352787;-0.09105195;-0.05499583;0.03817606;0.9695771;0.001820147;-0.9305432;-0.1255093;-0.03452942;-0.4359846;1.126057;-0.05499583;0.03817606;0.9695771;0.001820147;-0.9305432;-0.1255093;-0.03452942;-0.4359846;1.126057
201278.8829;NotLabelled;NONE;16384;0.6426592;-0.678929;0.3213296;0.1509695;0;0;0;-994;3920;163;65536;0.6094183;-0.7301311;-0.07756232;0.299169;0;0;0;-1933;3480;1078;8192;0.4639889;-0.5921859;-0.5498615;-0.3628809;0;0;-1;1328;3893;135;32768;-0.5844875;0.5124654;0.2216066;0.5887649;0;0;0;1864;3498;929;256;-0.1163435;0.07479224;-0.8778924;-0.4584487;0;0;0;-93;3208;2447;128;0.1925208;-0.101108;0.7837842;0.5817174;1;0;0;-251;3917;-1264;4;0.6915478;-0.3545706;0.1398892;0.6135734;0;0;0;2971;2758;4;16;-0.1911357;-0.9712242;-0.01523546;-0.1412742;0;0;0;-333;-1538;3768;2;0.6481994;-0.07894737;-0.3808864;-0.6546223;0;0;0;-3141;2568;561;8;-0.1772853;-0.943745;-0.1800554;-0.2132964;0;0;0;-1657;-1069;3563;0.2572266;0.07730198;0.9517302;0.2622819;0.5379732;0.6595351;0.2667137;0.9418194;0.4009877;0.2518393;1.545253;-0.01627638;-0.01285383;1.785401;-0.2331042;-0.352098;1.697573;-0.1014271;-0.504634;0.7992351;0.06605726;0;0;0;0.507332;1.798226;-0.2331059;0.7981218;1.725931;-0.1014294;0.9502275;0.8122032;0.1636009;0.5389112;-0.00268507;-0.0904921;-0.05499536;0.03819966;0.9696373;0.001821615;-0.9305193;-0.1254489;-0.03520748;-0.4364984;1.126309;-0.05499536;0.03819966;0.9696373;0.001821615;-0.9305193;-0.1254489;-0.03520748;-0.4364984;1.126309
201300.0306;NotLabelled;NONE;16384;0.6426592;-0.678929;0.3213296;0.1509695;0;0;0;-984;3938;157;65536;0.6094183;-0.7301311;-0.07756232;0.299169;0;0;0;-1953;3482;1044;8192;0.4639889;-0.5913349;-0.5498615;-0.3642659;0;0;-1;1276;3887;105;32768;-0.5844875;0.5124654;0.2216066;0.5887649;0;0;0;1830;3504;865;256;-0.1163435;0.07479224;-0.8778924;-0.4584487;0;0;0;-49;3250;2341;128;0.1911357;-0.101108;0.7851488;0.5803324;1;0;0;-311;3923;-1212;4;0.6915478;-0.3545706;0.1398892;0.6135734;0;0;0;3037;2714;-60;16;-0.1911357;-0.971245;-0.01385042;-0.1412742;0;0;0;-331;-1520;3816;2;0.6481994;-0.07894737;-0.3808864;-0.6546223;0;0;0;-3211;2536;557;8;-0.1772853;-0.9434309;-0.1800554;-0.2146814;0;0;0;-1737;-1021;3533;0.2572267;0.07764792;0.9522475;0.26228;0.5381327;0.6597589;0.2667099;0.9418144;0.4009542;0.2518351;1.545248;-0.01630987;-0.01285831;1.785396;-0.2331374;-0.3521023;1.697569;-0.1014598;-0.5046338;0.7992358;0.06605808;0;0;0;0.5073276;1.798221;-0.2331396;0.7981175;1.725926;-0.1014636;0.95023;0.8122067;0.1635931;0.538913;-0.002681732;-0.09049985;-0.05499518;0.03855705;0.9701816;0.001820628;-0.9301617;-0.1249048;-0.03520721;-0.436141;1.126853;-0.05499518;0.03855705;0.9701816;0.001820628;-0.9301617;-0.1249048;-0.03520721;-0.436141;1.126853
201320.7134;NotLabelled;NONE;16384;0.6426592;-0.678929;0.3213296;0.1509695;0;1;-1;-988;3984;127;65536;0.6094183;-0.7301311;-0.07756232;0.299169;0;0;0;-1919;3440;1050;8192;0.4639889;-0.5926198;-0.5484765;-0.3642659;0;0;-1;1292;3805;97;32768;-0.5844875;0.5124654;0.2216066;0.5887649;0;1;0;1816;3516;901;256;-0.1163435;0.07479224;-0.8778924;-0.4584487;0;0;0;-27;3172;2401;128;0.1911357;-0.101108;0.7851488;0.5803324;1;0;0;-259;3877;-1284;4;0.6915478;-0.3545706;0.1398892;0.6135734;0;0;0;2993;2702;-40;16;-0.1911357;-0.971245;-0.01385042;-0.1412742;0;0;0;-315;-1520;3784;2;0.6481994;-0.07894737;-0.3808864;-0.6546223;0;0;0;-3197;2450;545;8;-0.1772853;-0.943745;-0.1800554;-0.2132964;0;0;0;-1743;-1065;3601;0.2572305;0.07949209;0.955114;0.262273;0.5389984;0.66109;0.2666935;0.9418142;0.4009396;0.2518186;1.545247;-0.01632451;-0.01287479;1.785396;-0.2331519;-0.3521188;1.697568;-0.1014744;-0.5046341;0.7992356;0.06605792;0;0;0;0.5073112;1.79822;-0.2331545;0.7981009;1.725925;-0.1014782;0.9487578;0.8114974;0.1619586;0.5374411;-0.003390551;-0.09213422;-0.05499071;0.0404613;0.9731899;0.001824923;-0.9282575;-0.1218963;-0.03452474;-0.4336994;1.12967;-0.05499071;0.0404613;0.9731899;0.001824923;-0.9282575;-0.1218963;-0.03452474;-0.4336994;1.12967
201340.7142;NotLabelled;NONE;16384;0.6412742;-0.6802374;0.3213296;0.1509695;0;0;-1;-1030;3916;127;65536;0.6094183;-0.7302769;-0.07617728;0.299169;0;0;0;-1921;3442;966;8192;0.4639889;-0.5926198;-0.5484765;-0.3642659;0;0;-1;1330;3869;53;32768;-0.5844875;0.5124654;0.2216066;0.5887649;0;0;0;1846;3482;905;256;-0.1163435;0.07479224;-0.8778924;-0.4584487;0;0;0;-129;3162;2421;128;0.1911357;-0.101108;0.7851488;0.5803324;0;0;0;-263;3927;-1276;4;0.6915478;-0.3545706;0.1398892;0.6135734;0;0;0;3065;2702;-50;16;-0.1911357;-0.971245;-0.01385042;-0.1412742;0;0;0;-333;-1524;3826;2;0.6481994;-0.07894737;-0.3808864;-0.6546223;0;0;0;-3213;2488;557;8;-0.1772853;-0.9434309;-0.1800554;-0.2146814;0;0;0;-1727;-1089;3577;0.2572507;0.07949233;0.9551315;0.2622932;0.5389986;0.6611075;0.2667137;0.9418144;0.400957;0.2518388;1.545248;-0.01630733;-0.01285452;1.785396;-0.2331349;-0.3520986;1.697568;-0.1014574;-0.504634;0.7992358;0.0660574;0;0;0;0.5073315;1.79822;-0.2331375;0.7981213;1.725925;-0.101461;0.9466939;0.8113322;0.1625851;0.5353773;-0.003556013;-0.09150731;-0.05497056;0.04046154;0.9732074;0.001845472;-0.9282577;-0.1218786;-0.03450438;-0.4336991;1.129687;-0.05497056;0.04046154;0.9732074;0.001845472;-0.9282577;-0.1218786;-0.03450438;-0.4336991;1.129687
201360.7414;NotLabelled;NONE;16384;0.6426592;-0.678929;0.3213296;0.1509695;0;0;0;-974;3960;141;65536;0.6094183;-0.7302769;-0.07617728;0.299169;0;0;0;-1935;3474;956;8192;0.4639889;-0.5926198;-0.5484765;-0.3642659;0;0;-1;1336;3865;13;32768;-0.5844875;0.5124654;0.2216066;0.5887649;0;0;0;1850;3560;891;256;-0.1163435;0.07479224;-0.8786143;-0.4570637;0;0;0;-47;3244;2403;128;0.1911357;-0.101108;0.7851488;0.5803324;2;0;0;-283;4005;-1284;4;0.6915478;-0.3545706;0.1398892;0.6135734;0;0;0;3045;2696;-44;16;-0.1911357;-0.971245;-0.01385042;-0.1412742;0;0;0;-379;-1502;3780;2;0.6481994;-0.07894737;-0.3808864;-0.6546223;0;0;0;-3191;2546;517;8;-0.1786704;-0.9431696;-0.1800554;-0.2146814;0;0;0;-1707;-1111;3573;0.2566647;0.08025575;0.9518728;0.2617073;0.539762;0.657849;0.2661277;0.9425778;0.3976984;0.2512529;1.546011;-0.01956596;-0.01344045;1.786159;-0.2363935;-0.3526845;1.698332;-0.104716;-0.5031747;0.800189;0.06564337;0;0;0;0.5067455;1.798984;-0.2363961;0.7975353;1.726688;-0.1047197;0.946108;0.8120956;0.1593264;0.5347913;-0.002792597;-0.09476592;-0.05555645;0.04122496;0.9699487;0.001259543;-0.9274943;-0.1251372;-0.03509036;-0.4329357;1.126428;-0.05555645;0.04122496;0.9699487;0.001259543;-0.9274943;-0.1251372;-0.03509036;-0.4329357;1.126428
201381.7243;NotLabelled;NONE;16384;0.6426592;-0.678929;0.3213296;0.1509695;0;0;0;-1060;3996;129;65536;0.6094183;-0.7302769;-0.07617728;0.299169;0;0;0;-1981;3474;958;8192;0.4639889;-0.5926198;-0.5484765;-0.3642659;0;2;-1;1326;3929;103;32768;-0.5844875;0.5124654;0.2216066;0.5887649;1;1;0;1910;3588;907;256;-0.1163435;0.07479224;-0.8786143;-0.4570637;0;0;0;-73;3214;2389;128;0.1925208;-0.101108;0.7848103;0.5803324;2;0;0;-319;3937;-1236;4;0.6915478;-0.3545706;0.1398892;0.6135734;0;0;0;3101;2720;-14;16;-0.1911357;-0.971245;-0.01385042;-0.1412742;0;0;0;-301;-1494;3802;2;0.6481994;-0.07894737;-0.3808864;-0.6546223;0;0;0;-3227;2532;513;8;-0.1786704;-0.9431696;-0.1800554;-0.2146814;0;0;0;-1735;-1043;3625;0.2590002;0.08227038;0.9570874;0.2640427;0.5417767;0.6630634;0.2684631;0.9445925;0.4029129;0.253361;1.546725;-0.01621756;-0.01141888;1.786088;-0.2338073;-0.3506353;1.698522;-0.1018844;-0.5031772;0.800189;0.06562448;0;0;0;0.5087614;1.799136;-0.2338097;0.7995722;1.727375;-0.1018883;0.9481348;0.8127809;0.1621637;0.5368278;-0.00210762;-0.09194427;-0.05322102;0.04323959;0.9751633;0.003636234;-0.9254801;-0.1199205;-0.03276074;-0.4309206;1.131644;-0.05322102;0.04323959;0.9751633;0.003636234;-0.9254801;-0.1199205;-0.03276074;-0.4309206;1.131644
201401.7419;NotLabelled;NONE;16384;0.6412742;-0.6802374;0.3213296;0.1509695;0;0;0;-1060;3964;205;65536;0.6094183;-0.7302769;-0.07617728;0.299169;0;-2;0;-1757;3436;934;8192;0.4639889;-0.5926198;-0.5484765;-0.3642659;0;0;-2;1364;3893;51;32768;-0.5844875;0.5124654;0.2216066;0.5887649;1;0;0;1896;3602;897;256;-0.1177285;0.07479224;-0.8784298;-0.4570637;1;0;0;-25;3238;2381;128;0.1925208;-0.101108;0.7848103;0.5803324;0;0;0;-301;3971;-1244;4;0.6915478;-0.3545706;0.1398892;0.6135734;0;0;0;2933;2734;-50;16;-0.1911357;-0.971245;-0.01385042;-0.1412742;0;0;0;-325;-1524;3810;2;0.6481994;-0.07894737;-0.3808864;-0.6546223;0;-1;0;-3237;2486;525;8;-0.1786704;-0.9431696;-0.1800554;-0.2146814;0;1;0;-1667;-1031;3619;0.2589999;0.08229518;0.9571493;0.2640423;0.5417914;0.6631094;0.2684627;0.9445982;0.4029451;0.2533612;1.546731;-0.0161851;-0.01141832;1.786094;-0.2337749;-0.3506351;1.698528;-0.1018528;-0.5031774;0.8001895;0.06562416;0;0;0;0.5087621;1.799142;-0.2337767;0.7995726;1.72738;-0.1018547;0.9481343;0.8127775;0.1621652;0.5368276;-0.002110481;-0.09194365;-0.05322126;0.0432651;0.9752265;0.003637707;-0.9254539;-0.1198579;-0.03276131;-0.4308956;1.131707;-0.05322126;0.0432651;0.9752265;0.003637707;-0.9254539;-0.1198579;-0.03276131;-0.4308956;1.131707
201423.9393;NotLabelled;NONE;16384;0.6412742;-0.6802374;0.3213296;0.1509695;0;0;0;-1012;3984;15;65536;0.6094183;-0.7302769;-0.07617728;0.299169;1;-1;0;-2023;3472;1114;8192;0.4639889;-0.5926198;-0.5484765;-0.3642659;-1;0;-2;1364;3881;85;32768;-0.5844875;0.5124654;0.2216066;0.5887649;1;0;0;1824;3560;873;256;-0.1177285;0.07479224;-0.8784298;-0.4570637;1;0;0;21;3216;2385;128;0.1925208;-0.101108;0.7848103;0.5803324;1;0;0;-333;3961;-1230;4;0.6915478;-0.3545706;0.1398892;0.6135734;0;0;0;2997;2696;22;16;-0.1911357;-0.9710425;-0.01385042;-0.1426593;0;0;0;-317;-1564;3782;2;0.6481994;-0.07894737;-0.3808864;-0.6546223;0;0;0;-3237;2502;535;8;-0.1786704;-0.9431696;-0.1800554;-0.2146814;0;0;0;-1741;-1055;3599;0.2557212;0.08128738;0.9551296;0.2607636;0.5407836;0.6610898;0.2651837;0.9435904;0.4009255;0.2508607;1.545752;-0.0181914;-0.01360924;1.785461;-0.2357753;-0.3529388;1.698332;-0.1038545;-0.5030131;0.8001893;0.0668712;0;0;0;0.5065876;1.797837;-0.2357779;0.7973052;1.725695;-0.1038583;0.9465216;0.8111017;0.1598243;0.5345861;-0.003786325;-0.09326447;-0.05649999;0.04225731;0.973207;-0.002355769;-0.9264619;-0.1220152;-0.0356524;-0.4319036;1.129636;-0.05649999;0.04225731;0.973207;-0.002355769;-0.9264619;-0.1220152;-0.0356524;-0.4319036;1.129636
201445.0229;NotLabelled;NONE;16384;0.6412742;-0.6795813;0.3227147;0.1509695;0;0;0;-942;4002;217;65536;0.6094183;-0.7304201;-0.07479224;0.299169;0;1;0;-1853;3502;1056;8192;0.4639889;-0.5926198;-0.5484765;-0.3642659;0;0;-2;1354;3859;67;32768;-0.5844875;0.5124654;0.2216066;0.5887649;1;2;0;1856;3476;901;256;-0.1177285;0.07479224;-0.8784298;-0.4570637;1;0;0;-23;3186;2355;128;0.1925208;-0.101108;0.7848103;0.5803324;1;0;0;-267;3911;-1218;4;0.6915478;-0.3545706;0.1398892;0.6135734;0;0;0;3011;2680;-2;16;-0.1911357;-0.9710425;-0.01385042;-0.1426593;0;0;0;-383;-1538;3804;2;0.6481994;-0.08033241;-0.3808864;-0.6544538;0;0;0;-3199;2410;551;8;-0.1786704;-0.9434838;-0.1800554;-0.2132964;0;0;0;-1675;-1053;3555;0.2557212;0.08128738;0.9551296;0.2607636;0.5407836;0.6610898;0.2651837;0.9435904;0.4009255;0.2508607;1.545752;-0.0181914;-0.01360924;1.785461;-0.2357753;-0.3529388;1.698332;-0.1038545;-0.5030131;0.8001893;0.0668712;0;0;0;0.5065876;1.797837;-0.2357779;0.7973052;1.725695;-0.1038583;0.9465216;0.8111017;0.1598243;0.5345861;-0.003786325;-0.09326447;-0.05649999;0.04225731;0.973207;-0.002355769;-0.9264619;-0.1220152;-0.03935102;-0.432059;1.129594;-0.05649999;0.04225731;0.973207;-0.002355769;-0.9264619;-0.1220152;-0.03935102;-0.432059;1.129594
201465.7078;NotLabelled;NONE;16384;0.6412742;-0.6795813;0.3227147;0.1509695;0;1;0;-1004;3932;73;65536;0.6094183;-0.7304201;-0.07479224;0.299169;0;0;0;-1951;3576;1010;8192;0.4639889;-0.5926198;-0.5484765;-0.3642659;0;2;-1;1310;3823;97;32768;-0.5831025;0.5124654;0.2216066;0.5901366;1;2;0;1896;3514;929;256;-0.1177285;0.07479224;-0.8784298;-0.4570637;0;0;0;-37;3190;2387;128;0.1911357;-0.101108;0.7851488;0.5803324;1;0;0;-319;3991;-1192;4;0.6915478;-0.3545706;0.1398892;0.6135734;0;-1;0;3005;2646;-54;16;-0.1911357;-0.9710425;-0.01385042;-0.1426593;0;1;0;-273;-1496;3702;2;0.6481994;-0.08033241;-0.3808864;-0.6544538;0;0;0;-3267;2476;523;8;-0.1786704;-0.9431696;-0.1800554;-0.2146814;0;0;0;-1749;-1039;3599;0.2589382;0.08184671;0.9542091;0.2639805;0.541343;0.6601695;0.2684007;0.9441497;0.4000051;0.2540777;1.546312;-0.01911181;-0.01039226;1.786021;-0.2366957;-0.3497218;1.698891;-0.104775;-0.5015537;0.8011396;0.06645341;0;0;0;0.5098046;1.798396;-0.2366983;0.8005223;1.726255;-0.1047787;0.9497386;0.811661;0.1589039;0.5378031;-0.003226995;-0.09418488;-0.05328301;0.04281664;0.9722866;0.0008612089;-0.9259026;-0.1229356;-0.03613406;-0.4314997;1.128674;-0.05328301;0.04281664;0.9722866;0.0008612089;-0.9259026;-0.1229356;-0.03613406;-0.4314997;1.128674
201485.7652;NotLabelled;NONE;16384;0.6412742;-0.6795813;0.3227147;0.1509695;0;1;-1;-1014;3964;187;65536;0.6094183;-0.7304201;-0.07479224;0.299169;0;0;0;-1965;3488;942;8192;0.4639889;-0.5926198;-0.5484765;-0.3642659;0;0;0;1336;3801;95;32768;-0.5831025;0.5124654;0.2216066;0.5901366;0;0;0;1870;3474;847;256;-0.1177285;0.07479224;-0.8784298;-0.4570637;0;0;0;-31;3214;2295;128;0.1925208;-0.101108;0.7848103;0.5803324;2;1;0;-311;3897;-1234;4;0.6903165;-0.3545706;0.1398892;0.6149584;0;0;1;3085;2704;10;16;-0.1911357;-0.9710425;-0.01385042;-0.1426593;0;0;0;-239;-1458;3766;2;0.6481994;-0.08033241;-0.3808864;-0.6544538;0;-1;-1;-3233;2474;571;8;-0.1786704;-0.9431696;-0.1800554;-0.2146814;0;0;0;-1701;-1071;3533;0.2589387;0.08182812;0.9541798;0.2639811;0.5413344;0.6601559;0.2684014;0.9441502;0.4000054;0.2540783;1.546312;-0.01911148;-0.01039177;1.786021;-0.2366957;-0.3497211;1.698891;-0.1047746;-0.5015532;0.8011396;0.06645311;0;0;0;0.5098051;1.798397;-0.236698;0.8005228;1.726255;-0.1047785;0.9497387;0.8116615;0.1589039;0.5359634;-0.00245738;-0.09365774;-0.0532825;0.04279733;0.9722559;0.0008618124;-0.9259214;-0.1229658;-0.03613353;-0.4315188;1.128643;-0.0532825;0.04279733;0.9722559;0.0008618124;-0.9259214;-0.1229658;-0.03613353;-0.4315188;1.128643
201506.7268;NotLabelled;NONE;16384;0.6412742;-0.6795813;0.3227147;0.1509695;0;0;-1;-1054;3926;205;65536;0.6094183;-0.7302769;-0.07617728;0.299169;0;0;0;-1887;3464;1028;8192;0.4639889;-0.5926198;-0.5484765;-0.3642659;0;0;0;1280;3809;45;32768;-0.5844875;0.5124654;0.2216066;0.5887649;0;0;0;1754;3504;833;256;-0.1177285;0.07479224;-0.8791491;-0.4556787;0;0;0;-125;3162;2365;128;0.1925208;-0.101108;0.7858326;0.5789474;1;1;0;-293;3913;-1234;4;0.6915478;-0.3545706;0.1398892;0.6135734;0;0;1;2997;2718;32;16;-0.1911357;-0.9710425;-0.01385042;-0.1426593;0;0;0;-315;-1518;3860;2;0.6495845;-0.07894737;-0.3808864;-0.653248;0;0;-1;-3209;2482;551;8;-0.1786704;-0.9431696;-0.1800554;-0.2146814;0;0;0;-1705;-1089;3601;0.2589383;0.08184671;0.9542089;0.2639806;0.541343;0.6601692;0.2684008;0.9441497;0.4000049;0.2540777;1.546312;-0.01911201;-0.01039223;1.786021;-0.2366959;-0.3497218;1.698891;-0.1047751;-0.5015535;0.8011396;0.06645331;0;0;0;0.5098046;1.798396;-0.2366985;0.8005223;1.726255;-0.1047789;0.9497391;0.8116615;0.1589037;0.5359637;-0.002457857;-0.09365843;-0.05328298;0.04281664;0.9722865;0.002727445;-0.9251916;-0.1234701;-0.03426766;-0.4307892;1.128139;-0.05328298;0.04281664;0.9722865;0.002727445;-0.9251916;-0.1234701;-0.03426766;-0.4307892;1.128139
201527.7166;NotLabelled;NONE;16384;0.6412742;-0.6795813;0.3227147;0.1509695;0;0;-1;-1008;3902;209;65536;0.6094183;-0.7302769;-0.07617728;0.299169;-1;0;0;-1877;3492;954;8192;0.4639889;-0.5917662;-0.5484765;-0.365651;0;0;0;1326;3845;121;32768;-0.5831025;0.5124654;0.2216066;0.5901366;0;0;0;1854;3534;895;256;-0.1177285;0.07479224;-0.8791491;-0.4556787;0;0;0;-93;3178;2383;128;0.1925208;-0.101108;0.7858326;0.5789474;1;0;0;-277;3955;-1244;4;0.6900343;-0.3545706;0.1412742;0.6149584;0;0;1;2977;2710;10;16;-0.1911357;-0.9710425;-0.01385042;-0.1426593;0;0;0;-347;-1494;3816;2;0.6495845;-0.08033241;-0.3808864;-0.653079;0;0;0;-3183;2494;525;8;-0.1786704;-0.9431696;-0.1800554;-0.2146814;0;0;0;-1713;-1113;3593;0.2577768;0.08517122;0.9629754;0.2628083;0.5436747;0.6673899;0.267219;0.9456031;0.4058706;0.2527159;1.54646;-0.01510805;-0.01181599;1.785382;-0.2334827;-0.351133;1.698512;-0.1013582;-0.5030235;0.8001893;0.06679341;0;0;0;0.5083753;1.797982;-0.2334238;0.7990989;1.726376;-0.1012263;0.9482247;0.810899;0.1594266;0.5363286;-0.003989458;-0.09372533;-0.05444375;0.04620242;0.9811956;-0.0001304392;-0.9225166;-0.1140176;-0.03731883;-0.4281139;1.137585;-0.05444375;0.04620242;0.9811956;-0.0001304392;-0.9225166;-0.1140176;-0.03731883;-0.4281139;1.137585
201548.7163;NotLabelled;NONE;16384;0.6412742;-0.6789219;0.3240997;0.1509695;-1;0;-1;-940;3934;157;65536;0.6094183;-0.7302769;-0.07617728;0.299169;0;-1;0;-1981;3418;838;8192;0.4639889;-0.5926198;-0.5484765;-0.3642659;-1;0;1;1282;3869;149;32768;-0.5844875;0.5124654;0.2216066;0.5887649;0;0;1;1920;3484;823;256;-0.1177285;0.07479224;-0.8791491;-0.4556787;0;0;0;-109;3250;2321;128;0.1925208;-0.101108;0.7858326;0.5789474;3;1;0;-289;3987;-1270;4;0.6900343;-0.3545706;0.1412742;0.6149584;1;-2;0;3011;2760;-2;16;-0.1911357;-0.9710425;-0.01385042;-0.1426593;0;0;0;-323;-1500;3760;2;0.6481994;-0.07894737;-0.3808864;-0.6546223;0;0;0;-3219;2502;545;8;-0.1786704;-0.9434838;-0.1800554;-0.2132964;0;-1;0;-1697;-1093;3577;0.2577928;0.08459973;0.9598907;0.2628242;0.5431032;0.6643052;0.2672349;0.9450315;0.4027858;0.252682;1.545889;-0.0181912;-0.0118757;1.784809;-0.2365346;-0.351177;1.697941;-0.1043696;-0.5030153;0.8001894;0.06685303;0;0;0;0.5083157;1.797411;-0.2365372;0.7990547;1.725803;-0.104374;0.9467775;0.8105067;0.1577049;0.5330111;-0.003612041;-0.09487156;-0.05442777;0.04563093;0.978111;-0.0006418489;-0.924577;-0.1158094;-0.03768212;-0.4301746;1.135798;-0.05442777;0.04563093;0.978111;-0.0006418489;-0.924577;-0.1158094;-0.03768212;-0.4301746;1.135798
201569.8915;NotLabelled;NONE;16384;0.6412742;-0.6792284;0.3240997;0.1495845;0;0;-2;-980;3900;79;65536;0.6094183;-0.7302769;-0.07617728;0.299169;0;0;0;-1987;3452;1082;8192;0.4639889;-0.5926198;-0.5484765;-0.3642659;-2;0;0;1262;3839;141;32768;-0.5844875;0.5124654;0.2216066;0.5887649;0;0;1;1920;3512;879;256;-0.1177285;0.07479224;-0.8791491;-0.4556787;0;0;0;-19;3264;2345;128;0.1925208;-0.101108;0.7858326;0.5789474;3;2;0;-329;3991;-1230;4;0.6900343;-0.3545706;0.1412742;0.6149584;0;-2;0;3051;2732;-36;16;-0.1911357;-0.971245;-0.01385042;-0.1412742;0;0;0;-365;-1484;3738;2;0.6481994;-0.07894737;-0.3808864;-0.6546223;0;0;0;-3267;2578;517;8;-0.1786704;-0.9434838;-0.1800554;-0.2132964;0;0;0;-1709;-1093;3607;0.2595511;0.08420444;0.9593874;0.2645826;0.5427079;0.6638019;0.2689933;0.9446363;0.4022826;0.2544404;1.545494;-0.01869445;-0.0101173;1.784414;-0.2370379;-0.3494186;1.697546;-0.1048729;-0.5030153;0.8001895;0.06685297;0;0;0;0.5100741;1.797016;-0.2370404;0.8008131;1.725408;-0.1048773;0.95002;0.8108149;0.1588109;0.5380937;-0.00407362;-0.09429229;-0.05266935;0.04523563;0.9776077;0.001116551;-0.9249723;-0.1163126;-0.03592369;-0.4305699;1.135295;-0.05266935;0.04523563;0.9776077;0.001116551;-0.9249723;-0.1163126;-0.03592369;-0.4305699;1.135295
201590.7157;NotLabelled;NONE;16384;0.6412742;-0.6792284;0.3240997;0.1495845;-1;0;-3;-1016;3880;207;65536;0.6094183;-0.7302769;-0.07617728;0.299169;0;-1;0;-1889;3386;884;8192;0.4639889;-0.5926198;-0.5484765;-0.3642659;0;0;0;1266;3847;85;32768;-0.5844875;0.5110803;0.2216066;0.5899675;0;0;0;1888;3512;901;256;-0.1191136;0.07479224;-0.8789625;-0.4556787;-1;0;0;-145;3208;2359;128;0.1939058;-0.101108;0.7865109;0.5775623;4;0;0;-231;4015;-1206;4;0.6900343;-0.3545706;0.1412742;0.6149584;0;-1;1;3025;2676;-114;16;-0.1911357;-0.971245;-0.01385042;-0.1412742;0;1;0;-407;-1464;3772;2;0.6481994;-0.07894737;-0.3808864;-0.6546223;0;0;0;-3225;2434;529;8;-0.1786704;-0.9434838;-0.1800554;-0.2132964;0;0;0;-1719;-1023;3613;0.2609335;0.08373618;0.9581888;0.265965;0.5422397;0.6626033;0.2703756;0.9441681;0.4010839;0.2558227;1.545025;-0.01989317;-0.008734994;1.783946;-0.2382366;-0.3480363;1.697077;-0.1060715;-0.5030152;0.8001895;0.06685275;0;0;0;0.5114564;1.796547;-0.2382391;0.8021954;1.72494;-0.106076;0.9514022;0.8103466;0.1576121;0.5394762;-0.004541874;-0.09549101;-0.05128706;0.04476738;0.976409;0.002498861;-0.9254405;-0.1175113;-0.03084272;-0.4308825;1.134139;-0.05128706;0.04476738;0.976409;0.002498861;-0.9254405;-0.1175113;-0.03084272;-0.4308825;1.134139
201612.7242;NotLabelled;NONE;16384;0.6412742;-0.6792284;0.3240997;0.1495845;0;0;-2;-904;3920;33;65536;0.6094183;-0.7302769;-0.07617728;0.299169;0;0;0;-2015;3432;1002;8192;0.4639889;-0.5926198;-0.5484765;-0.3642659;0;0;0;1326;3867;71;32768;-0.5844875;0.5110803;0.2216066;0.5899675;0;2;0;1952;3546;899;256;-0.1191136;0.07479224;-0.8796791;-0.4542936;-1;-1;0;-51;3190;2319;128;0.1939058;-0.101108;0.7865109;0.5775623;6;0;0;-293;3961;-1292;4;0.6895087;-0.3531856;0.1412742;0.6163435;0;-2;0;3083;2672;-66;16;-0.1911357;-0.971245;-0.01385042;-0.1412742;0;1;0;-239;-1464;3798;2;0.6481994;-0.07894737;-0.3822715;-0.6538144;0;0;0;-3189;2450;529;8;-0.1786704;-0.9434838;-0.1800554;-0.2132964;0;0;0;-1715;-1087;3589;0.2597006;0.08482623;0.9619392;0.264721;0.5423226;0.6647974;0.2691219;0.9433603;0.4019137;0.2553442;1.544245;-0.01905057;-0.008904949;1.783512;-0.2373888;-0.3483183;1.697078;-0.1052257;-0.5028481;0.8001895;0.06809986;0;0;0;0.5113024;1.795441;-0.2373913;0.8019489;1.723456;-0.1052295;0.9518395;0.8088622;0.1580705;0.5389061;-0.004996777;-0.0966973;-0.05251932;0.04591942;0.9803035;-0.001446068;-0.9242883;-0.1137473;-0.03168404;-0.4297299;1.137982;-0.05251932;0.04591942;0.9803035;-0.001446068;-0.9242883;-0.1137473;-0.03168404;-0.4297299;1.137982
201633.7144;NotLabelled;NONE;16384;0.6412742;-0.6792284;0.3240997;0.1495845;0;0;-3;-978;3966;163;65536;0.6094183;-0.7302769;-0.07617728;0.299169;0;0;0;-2053;3460;938;8192;0.4639889;-0.5926198;-0.5484765;-0.3642659;-1;1;1;1264;3839;109;32768;-0.5831025;0.5110803;0.2216066;0.5913365;0;0;1;1968;3526;845;256;-0.1191136;0.07479224;-0.8796791;-0.4542936;-2;-1;0;-67;3242;2383;128;0.1939058;-0.101108;0.7875262;0.5761772;8;1;0;-247;3985;-1236;4;0.6895087;-0.3531856;0.1412742;0.6163435;1;-1;0;3103;2766;-34;16;-0.1911357;-0.971245;-0.01385042;-0.1412742;0;0;0;-289;-1526;3812;2;0.6481994;-0.07894737;-0.3808864;-0.6546223;0;0;0;-3275;2484;539;8;-0.1786704;-0.9434838;-0.1800554;-0.2132964;0;0;0;-1709;-1045;3563;0.2600227;0.08666587;0.9643181;0.2650432;0.5441623;0.6671763;0.269444;0.9452;0.4042926;0.2554339;1.544775;-0.01852593;-0.008904144;1.783251;-0.2376205;-0.348289;1.697078;-0.105215;-0.5028505;0.80019;0.06808262;0;0;0;0.5112977;1.795408;-0.2376232;0.8019662;1.723959;-0.1052196;0.951808;0.8093653;0.1581082;0.5388834;-0.004493713;-0.09667401;-0.05219704;0.04775906;0.9826823;-0.002692962;-0.9196815;-0.1138885;-0.032974;-0.4251237;1.137839;-0.05219704;0.04775906;0.9826823;-0.002692962;-0.9196815;-0.1138885;-0.032974;-0.4251237;1.137839
201653.7232;NotLabelled;NONE;16384;0.6412742;-0.6788696;0.3254848;0.1481994;0;1;-3;-874;4036;163;65536;0.6094183;-0.7302769;-0.07617728;0.299169;0;0;0;-2003;3436;816;8192;0.4639889;-0.5913349;-0.5498615;-0.3642659;-1;0;1;1186;3827;181;32768;-0.5844875;0.5110803;0.2216066;0.5899675;-1;-2;1;1914;3460;839;256;-0.1191136;0.0734072;-0.8797958;-0.4542936;-2;0;0;-97;3288;2329;128;0.1939058;-0.101108;0.7875262;0.5761772;6;1;0;-277;3951;-1206;4;0.6895087;-0.3531856;0.1412742;0.6163435;1;0;0;2971;2708;-48;16;-0.1911357;-0.971245;-0.01385042;-0.1412742;0;0;0;-287;-1508;3792;2;0.6481994;-0.07894737;-0.3822715;-0.6538144;0;1;0;-3225;2510;551;8;-0.1786704;-0.9434838;-0.1800554;-0.2132964;0;0;0;-1715;-1013;3585;0.2600164;0.08912802;0.9702611;0.2650259;0.5456243;0.6715844;0.2694171;0.9457767;0.4073555;0.2554558;1.545352;-0.01546487;-0.008856975;1.783828;-0.2345899;-0.3482569;1.697654;-0.1022235;-0.5028583;0.8001893;0.06802456;0;0;0;0.5113449;1.795985;-0.2345324;0.8019979;1.724536;-0.102095;0.9517791;0.8090632;0.1581945;0.5370514;-0.004029751;-0.09610597;-0.05220267;0.05028319;0.9887674;-0.002571749;-0.9171576;-0.1077972;-0.03299752;-0.4225991;1.143927;-0.05220267;0.05028319;0.9887674;-0.002571749;-0.9171576;-0.1077972;-0.03299752;-0.4225991;1.143927
201673.7217;NotLabelled;NONE;16384;0.6412742;-0.6788696;0.3254848;0.1481994;0;2;-4;-940;3974;171;65536;0.6108033;-0.7291189;-0.07617728;0.299169;0;-1;-1;-2027;3472;778;8192;0.4639889;-0.5921859;-0.5498615;-0.3628809;-2;-3;1;1130;3863;155;32768;-0.5844875;0.5110803;0.2202216;0.590486;-2;-3;1;1956;3466;825;256;-0.1191136;0.0734072;-0.8797958;-0.4542936;-2;0;0;-107;3216;2347;128;0.1939058;-0.09972299;0.788714;0.5747922;6;1;0;-263;3963;-1280;4;0.6895087;-0.3531856;0.1412742;0.6163435;1;-1;1;2981;2756;-40;16;-0.1911357;-0.971245;-0.01385042;-0.1412742;0;0;0;-299;-1480;3728;2;0.6481994;-0.07894737;-0.3808864;-0.6546223;1;1;0;-3263;2536;571;8;-0.1772853;-0.943745;-0.1800554;-0.2132964;1;0;0;-1735;-1063;3571;0.2639318;0.08595204;0.9644085;0.2689412;0.5424483;0.6657318;0.2733323;0.9426007;0.4015028;0.2602288;1.542012;-0.02157795;-0.003813162;1.781025;-0.2404439;-0.3432349;1.695735;-0.107562;-0.5028504;0.800189;0.06808256;0;0;0;0.5164163;1.791924;-0.2411211;0.807081;1.719832;-0.1090578;0.957137;0.805161;0.1538789;0.5442128;-0.008697987;-0.100903;-0.04828742;0.04710722;0.9829149;0.001217002;-0.9203334;-0.1136557;-0.0290643;-0.4257751;1.138072;-0.04828742;0.04710722;0.9829149;0.001217002;-0.9203334;-0.1136557;-0.0290643;-0.4257751;1.138072
201693.7377;NotLabelled;NONE;16384;0.6412742;-0.6791705;0.3254848;0.1468144;-1;3;-4;-950;3878;215;65536;0.6108033;-0.7291189;-0.07617728;0.299169;0;-3;-2;-1991;3442;628;8192;0.4653739;-0.5919461;-0.5498615;-0.3614958;-8;-2;4;1158;3837;251;32768;-0.5858725;0.5110803;0.2188366;0.5896277;-4;-11;1;1906;3360;669;256;-0.1191136;0.0734072;-0.8805096;-0.4529086;-4;0;0;-37;3342;2215;128;0.1952908;-0.09972299;0.7903844;0.5720221;12;2;0;-307;4025;-1236;4;0.6895087;-0.3531856;0.1412742;0.6163435;1;-3;1;3003;2812;-2;16;-0.1911357;-0.9710425;-0.01385042;-0.1426593;0;0;0;-325;-1528;3808;2;0.6481994;-0.07894737;-0.3808864;-0.6546223;2;3;-1;-3199;2502;613;8;-0.1772853;-0.943745;-0.1800554;-0.2132964;0;1;0;-1723;-1069;3521;0.2630807;0.09085631;0.96819;0.2680771;0.5461578;0.6676947;0.2724566;0.9452529;0.4018715;0.2598835;1.542972;-0.02361248;-0.003884129;1.781108;-0.243761;-0.343472;1.696347;-0.1109653;-0.5016115;0.8010397;0.06720918;0;0;0;0.5163457;1.792007;-0.2438296;0.8068448;1.720445;-0.1111156;0.9595599;0.8077884;0.1572365;0.5446783;-0.00575304;-0.09537137;-0.04913762;0.0520854;0.9868646;0.001741;-0.9197206;-0.1057756;-0.03010908;-0.4201739;1.14393;-0.04913762;0.0520854;0.9868646;0.001741;-0.9197206;-0.1057756;-0.03010908;-0.4201739;1.14393
201714.8747;NotLabelled;NONE;16384;0.6412742;-0.6794685;0.3254848;0.1454294;-3;3;-6;-924;3868;195;65536;0.6108033;-0.7286925;-0.07479224;0.300554;3;-7;-3;-1947;3256;570;8192;0.466759;-0.5916998;-0.5498615;-0.3601108;-10;-2;4;1024;3733;259;32768;0.5889376;-0.5124654;-0.2174515;-0.5858725;-4;-13;1;1844;3334;621;256;-0.1191136;0.0734072;-0.8812206;-0.4515235;-7;1;0;-55;3308;2261;128;0.1952908;-0.09972299;0.7913849;0.5706371;13;2;0;-227;4037;-1248;4;0.6895087;-0.3531856;0.1412742;0.6163435;0;-2;1;3013;2732;-78;16;-0.1911357;-0.9710425;-0.01385042;-0.1426593;0;0;0;-335;-1476;3804;2;0.6468144;-0.07894737;-0.3808864;-0.6559908;4;6;-1;-3083;2532;595;8;-0.1772853;-0.943745;-0.1800554;-0.2132964;0;1;1;-1711;-1111;3593;0.2642002;0.09739423;0.973141;0.2691742;0.550662;0.6695871;0.2735341;0.9479589;0.4010829;0.2607555;1.543181;-0.02787966;-0.003087215;1.779916;-0.249446;-0.3426555;1.695783;-0.1162016;-0.5016183;0.8012214;0.06496266;0;0;0;0.5171378;1.791041;-0.2495124;0.8076509;1.72038;-0.1163465;0.9639735;0.8083715;0.1521274;0.5486752;-0.005303383;-0.09936409;-0.04801685;0.05875015;0.9920993;0.002968593;-0.91605;-0.09786558;-0.03270185;-0.4132326;1.150425;-0.04801685;0.05875015;0.9920993;0.002968593;-0.91605;-0.09786558;-0.03270185;-0.4132326;1.150425
201735.7129;NotLabelled;NONE;16384;0.6412742;-0.6797634;0.3254848;0.1440443;-3;3;-8;-886;3744;155;65536;0.6108033;-0.7281197;-0.07479224;0.301939;5;-13;-6;-1957;3216;362;8192;0.468144;-0.5909958;-0.5512465;-0.3573407;-11;-6;5;1042;3607;335;32768;0.5894471;-0.5124654;-0.2160665;-0.5858725;-4;-12;3;1964;3216;513;256;-0.1204986;0.0734072;-0.8810323;-0.4515235;-9;0;0;-39;3324;2247;128;0.1952908;-0.09972299;0.7923818;0.5692521;15;3;0;-173;3951;-1220;4;0.6882681;-0.3531856;0.1412742;0.6177285;0;-1;1;3075;2698;-100;16;-0.1911357;-0.9710425;-0.01385042;-0.1426593;0;0;0;-353;-1498;3762;2;0.6468144;-0.07894737;-0.3808864;-0.6559908;2;3;-1;-3177;2550;475;8;-0.1772853;-0.943745;-0.1800554;-0.2132964;0;0;1;-1653;-1103;3561;0.2666213;0.09782481;0.9841821;0.2715842;0.5500765;0.6791155;0.2759341;0.9464736;0.4092855;0.2629155;1.543252;-0.01750291;-0.001020662;1.780679;-0.2382154;-0.3405579;1.695912;-0.105294;-0.5012494;0.8008609;0.07188185;0;0;0;0.5191996;1.79203;-0.2382182;0.8097376;1.721009;-0.1052982;0.9686868;0.8074832;0.1563875;0.555571;-0.005899429;-0.09960309;-0.04559499;0.05924416;1.003281;0.005402105;-0.908196;-0.09322147;-0.03028178;-0.4137936;1.158426;-0.04559499;0.05924416;1.003281;0.005402105;-0.908196;-0.09322147;-0.03028178;-0.4137936;1.158426
201756.7254;NotLabelled;NONE;16384;0.6412742;-0.6793908;0.3268698;0.1426593;-2;0;-9;-798;3504;319;65536;0.6121883;-0.7250465;-0.07063711;0.3074792;14;-25;-7;-1703;2970;48;8192;0.468144;-0.5918311;-0.5512465;-0.3559557;-11;-5;7;1046;3629;273;32768;0.5913252;-0.5124654;-0.2146814;-0.5844875;-2;-8;3;1990;3214;341;256;-0.1204986;0.0734072;-0.8817408;-0.4501385;-13;0;0;-69;3386;2153;128;0.1952908;-0.09972299;0.793375;0.567867;18;4;1;-211;3995;-1302;4;0.6882681;-0.3531856;0.1412742;0.6177285;0;0;1;2949;2736;-166;16;-0.1911357;-0.9710425;-0.01385042;-0.1426593;0;1;-1;-349;-1442;3826;2;0.6454294;-0.07894737;-0.3795014;-0.6581542;3;3;-2;-3209;2526;449;8;-0.1772853;-0.9434797;-0.1814404;-0.2132964;-1;1;1;-1773;-1095;3651;0.2652981;0.09819722;0.991279;0.2702498;0.549428;0.6847051;0.2745898;0.9449229;0.4135537;0.2623793;1.541726;-0.0132245;-0.001229763;1.779494;-0.2339602;-0.3408891;1.695159;-0.1010762;-0.5021588;0.8000021;0.07503472;0;0;0;0.5190045;1.79018;-0.2339081;0.8094376;1.718786;-0.1009587;0.9760707;0.8054128;0.1564476;0.5607453;-0.00692749;-0.0992791;-0.04691747;0.0596807;1.010518;0.003336374;-0.9070501;-0.08664408;-0.02936766;-0.412648;1.165084;-0.04691747;0.0596807;1.010518;0.003336374;-0.9070501;-0.08664408;-0.02936766;-0.412648;1.165084
201776.7298;NotLabelled;NONE;16384;0.6398892;-0.6803177;0.3282548;0.1412742;-3;-6;-7;-662;3564;313;65536;0.6121883;-0.7241305;-0.06786703;0.3102493;20;-25;-5;-1617;3016;-174;8192;0.4709141;-0.5899985;-0.5526316;-0.3531856;-10;0;5;1022;3759;335;32768;0.592848;-0.5096953;-0.2132964;-0.5858725;3;13;6;2206;3174;75;256;-0.1204986;0.0734072;-0.8831494;-0.4473684;-16;0;-1;-173;3270;2161;128;0.1966759;-0.09972299;0.795009;0.5650969;20;4;1;-215;3957;-1300;4;0.6885509;-0.3531856;0.1398892;0.6177285;0;0;3;3069;2726;-136;16;-0.1911357;-0.971245;-0.01385042;-0.1412742;0;0;0;-345;-1496;3788;2;0.6454294;-0.07894737;-0.3795014;-0.6581542;2;4;-3;-3215;2498;561;8;-0.1772853;-0.9431655;-0.1814404;-0.2146814;0;0;1;-1709;-1033;3601;0.2706999;0.1010602;1.004726;0.2756404;0.5512671;0.6966505;0.2799705;0.9458566;0.4241828;0.2675266;1.541337;-0.00443247;0.003828011;1.778309;-0.2259165;-0.335803;1.694234;-0.09279469;-0.500667;0.799984;0.08458918;0;0;0;0.5240576;1.789223;-0.2258639;0.8145131;1.718365;-0.09267685;0.9819891;0.8057079;0.1667151;0.5668972;-0.006354809;-0.09026711;-0.04151493;0.062608;1.024105;0.008774024;-0.9041228;-0.07305515;-0.02396995;-0.4097202;1.178672;-0.04151493;0.062608;1.024105;0.008774024;-0.9041228;-0.07305515;-0.02396995;-0.4097202;1.178672
201798.7085;NotLabelled;NONE;16384;0.6412742;-0.678341;0.3296399;0.1412742;-6;-9;-4;-564;3616;331;65536;0.6135734;-0.7221408;-0.06371191;0.3130194;27;-27;0;-1605;3080;-534;8192;0.4709141;-0.5895268;-0.5540166;-0.3518005;-7;8;2;864;3727;331;32768;0.5933526;-0.5069252;-0.2146814;-0.5872576;8;30;7;2200;3022;-133;256;-0.1204986;0.0734072;-0.885242;-0.4432133;-21;-2;-1;-133;3286;2127;128;0.1966759;-0.09972299;0.7989181;0.5595568;26;2;2;-227;3945;-1362;4;0.6885509;-0.3531856;0.1398892;0.6177285;0;1;4;3003;2742;-106;16;-0.1897507;-0.9715165;-0.01385042;-0.1412742;0;0;-1;-327;-1454;3804;2;0.6454294;-0.07894737;-0.3781163;-0.6589509;3;0;-3;-3229;2524;459;8;-0.1786704;-0.9429041;-0.1814404;-0.2146814;0;-2;1;-1717;-1045;3513;0.2732518;0.1071727;1.010575;0.2781696;0.5553091;0.6994939;0.2824796;0.9480672;0.4243928;0.2695273;1.540888;-0.007878929;0.005627882;1.776262;-0.2308227;-0.3339336;1.692711;-0.09719452;-0.4998122;0.800179;0.08773953;0;0;0;0.5258477;1.78763;-0.2308255;0.8163614;1.717848;-0.09719837;0.9918818;0.8065329;0.1615946;0.5757339;-0.002922535;-0.1018245;-0.03896165;0.06885099;1.030233;0.01353284;-0.8956685;-0.06876954;-0.01546094;-0.4011102;1.182989;-0.03896165;0.06885099;1.030233;0.01353284;-0.8956685;-0.06876954;-0.01546094;-0.4011102;1.182989
201818.7332;NotLabelled;NONE;16384;0.6412742;-0.677376;0.3310249;0.1426593;-10;-12;-1;-470;3672;333;65536;0.6163435;-0.7189233;-0.05955679;0.3157895;35;-31;3;-1623;3134;-624;8192;0.4722992;-0.5862785;-0.5554016;-0.3531856;-4;15;-2;620;3645;407;32768;0.5919542;-0.5041551;-0.2174515;-0.5900277;16;21;6;2228;2800;-263;256;-0.1204986;0.07202215;-0.8867371;-0.4404432;-25;-2;-2;-91;3218;2243;128;0.1966759;-0.09972299;0.8018123;0.5554016;29;2;3;-141;4001;-1364;4;0.6885509;-0.3531856;0.1398892;0.6177285;-1;0;4;3111;2756;-126;16;-0.1897507;-0.9715165;-0.01385042;-0.1412742;0;0;-1;-361;-1490;3758;2;0.6454294;-0.07894737;-0.3781163;-0.6589509;4;0;-4;-3243;2468;505;8;-0.1772853;-0.9434309;-0.1800554;-0.2146814;0;-3;0;-1737;-1041;3561;0.2807686;0.1262469;1.015678;0.2856407;0.5702221;0.6986861;0.2899103;0.9593008;0.4184042;0.2761663;1.542245;-0.02707246;0.01195105;1.772207;-0.2552303;-0.327496;1.691234;-0.1197374;-0.4960411;0.8030431;0.08284487;0;0;0;0.5321557;1.784253;-0.2555205;0.8227649;1.71787;-0.120378;1.002981;0.8138101;0.1597522;0.5889878;0.001394749;-0.09788801;-0.03144202;0.08818936;1.035887;0.02089355;-0.8908074;-0.05024584;-0.007572353;-0.3831713;1.196278;-0.03144202;0.08818936;1.035887;0.02089355;-0.8908074;-0.05024584;-0.007572353;-0.3831713;1.196278
201839.7041;NotLabelled;NONE;16384;0.6426592;-0.6753821;0.33241;0.1426593;-11;-13;0;-392;3594;429;65536;0.6191136;-0.7157516;-0.05401662;0.3185596;44;-31;9;-1791;3098;-498;8192;0.4722992;-0.5854419;-0.5554016;-0.3545706;-5;14;-7;380;3523;389;32768;-0.5900277;0.501385;0.2202216;0.5932814;23;13;4;2320;2748;-525;256;-0.1204986;0.07202215;-0.8887888;-0.4362881;-28;-1;-3;-77;3292;2323;128;0.1966759;-0.09972299;0.8037241;0.5526316;32;5;5;-57;3961;-1438;4;0.6885509;-0.3531856;0.1398892;0.6177285;-1;1;2;3147;2692;-80;16;-0.1897507;-0.9715165;-0.01385042;-0.1412742;0;0;-1;-343;-1498;3786;2;0.6468144;-0.07894737;-0.3767313;-0.6583859;4;0;-6;-3261;2434;569;8;-0.1772853;-0.9434309;-0.1800554;-0.2146814;1;-4;0;-1655;-1071;3529;0.2863069;0.1328509;1.058595;0.2911443;0.573668;0.7372248;0.2953832;0.9599543;0.4531065;0.2827345;1.545873;0.01151641;0.01897327;1.777762;-0.2152101;-0.3206556;1.696422;-0.08039528;-0.4909329;0.80406;0.1013361;0;0;0;0.5391959;1.788995;-0.2152129;0.8296454;1.721258;-0.08039939;1.010384;0.8098345;0.1743857;0.5988286;0.001130819;-0.09839293;-0.02590135;0.09499526;1.079214;0.02816395;-0.869524;-0.01971171;-0.002275169;-0.378449;1.233382;-0.02590135;0.09499526;1.079214;0.02816395;-0.869524;-0.01971171;-0.002275169;-0.378449;1.233382
201861.1741;NotLabelled;NONE;16384;0.6454294;-0.6707649;0.33518;0.1454294;-13;-16;5;-434;3746;719;65536;0.632964;-0.7043791;-0.04155125;0.3185596;66;-8;15;-2239;3596;-1010;8192;0.4722992;-0.5832818;-0.5567867;-0.3559557;-8;12;-9;114;3469;381;32768;0.593721;-0.4986149;-0.2216066;-0.5914127;25;5;0;2072;2690;-409;256;-0.1191136;0.07202215;-0.8910027;-0.432133;-33;0;-5;-183;3260;2269;128;0.1966759;-0.09972299;0.8065652;0.5484765;35;5;5;-23;4043;-1370;4;0.6895393;-0.3518005;0.1385041;0.6177285;-2;7;-1;3213;2656;-128;16;-0.1897507;-0.9715165;-0.01385042;-0.1412742;0;-2;-1;-243;-1438;3764;2;0.6468144;-0.07894737;-0.3739612;-0.6599633;5;2;-6;-3145;2400;567;8;-0.1772853;-0.9436942;-0.1786704;-0.2146814;0;-4;0;-1733;-1149;3681;0.2979202;0.1465545;1.087467;0.3027344;0.5852492;0.7632058;0.3069529;0.9696586;0.4765533;0.293737;1.551484;0.02959976;0.02977395;1.78094;-0.1993564;-0.3098076;1.700399;-0.06394348;-0.4840902;0.8071449;0.1094107;0;0;0;0.5499817;1.792848;-0.1992431;0.8404603;1.726728;-0.06369135;1.019454;0.8129342;0.1837318;0.6093792;0.004713535;-0.0926833;-0.01428661;0.1088355;1.108357;0.04013391;-0.8556838;0.009449292;0.00928992;-0.364609;1.262534;-0.01428661;0.1088355;1.108357;0.04013391;-0.8556838;0.009449292;0.00928992;-0.364609;1.262534
201881.7008;NotLabelled;NONE;16384;0.6481994;-0.6674794;0.33518;0.1481994;-19;-18;9;-602;3812;863;65536;0.6412742;-0.6976885;-0.03739612;0.3171745;76;4;15;-2387;3788;-1278;8192;0.4778393;-0.579229;-0.5554016;-0.3573407;-10;-6;-14;-96;3915;721;32768;0.5973127;-0.4944598;-0.2285319;-0.5886427;26;6;-9;2490;2802;29;256;-0.1191136;0.07202215;-0.893006;-0.4279778;-39;0;-6;-205;3208;2399;128;0.1966759;-0.101108;0.8101333;0.5429363;33;7;7;-119;3971;-1458;4;0.6907776;-0.3518005;0.1385041;0.6163435;-2;9;-1;3115;2654;-164;16;-0.1897507;-0.9715353;-0.01246537;-0.1412742;0;-6;0;-267;-1504;3828;2;0.6468144;-0.07894737;-0.3725762;-0.6607461;4;6;-5;-3133;2326;575;8;-0.1772853;-0.9439554;-0.1772853;-0.2146814;0;-6;0;-1607;-1057;3609;0.3337837;0.1727114;1.138005;0.3385627;0.608196;0.8094442;0.34275;0.9897678;0.519025;0.3282362;1.567431;0.06674455;0.06378132;1.794111;-0.1643994;-0.2756465;1.713961;-0.02837007;-0.4557608;0.8198164;0.1340863;0;0;0;0.5839574;1.807328;-0.1642161;0.8745515;1.743187;-0.02796295;1.052798;0.8281276;0.2152891;0.6500376;0.01874232;-0.06837611;0.02157915;0.1351998;1.159299;0.0778234;-0.8250425;0.0567425;0.04352885;-0.3339674;1.309738;0.02157915;0.1351998;1.159299;0.0778234;-0.8250425;0.0567425;0.04352885;-0.3339674;1.309738
201901.7073;NotLabelled;NONE;16384;0.6523545;-0.6620919;0.3365651;0.1509695;-24;-23;12;-628;4104;907;65536;0.6509695;-0.6901983;-0.03185596;0.3144044;83;2;13;-2421;3926;-1272;8192;0.4833795;-0.5750876;-0.5540166;-0.3587258;-12;-11;-20;208;3979;899;32768;0.5998909;-0.4916897;-0.2313019;-0.5872576;32;-7;-8;3370;3240;-217;256;-0.1177285;0.07202215;-0.8984149;-0.4168975;-45;-1;-6;-217;3196;2401;128;0.1966759;-0.101108;0.8165475;0.533241;44;6;7;-141;4051;-1520;4;0.6920109;-0.3518005;0.1385041;0.6149584;-3;7;-1;3095;2738;-128;16;-0.1897507;-0.9715521;-0.01108033;-0.1412742;0;-6;0;-283;-1462;3790;2;0.6468144;-0.07894737;-0.3711911;-0.6615252;3;9;-2;-3253;2328;591;8;-0.1759003;-0.9444734;-0.1759003;-0.2146814;-1;-7;0;-1699;-1047;3575;0.3506349;0.1914196;1.168184;0.3553687;0.6227953;0.8342469;0.3595162;1.000736;0.5391169;0.3442127;1.574224;0.08157972;0.07944213;1.798445;-0.1515921;-0.2598675;1.719109;-0.0147939;-0.4408074;0.8253868;0.1490704;0;0;0;0.5996009;1.812328;-0.1515951;0.8902922;1.749804;-0.01479828;1.071837;0.8341081;0.2235674;0.6844453;0.0194695;-0.06639558;0.0384334;0.154175;1.189984;0.09255742;-0.8067806;0.08794415;0.05923906;-0.3151691;1.340755;0.0384334;0.154175;1.189984;0.09255742;-0.8067806;0.08794415;0.05923906;-0.3151691;1.340755
201922.6944;NotLabelled;NONE;16384;0.6580011;-0.6551247;0.3379501;0.1537396;-31;-29;14;-746;4186;1027;65536;0.6592798;-0.682501;-0.02631579;0.3144044;89;-10;10;-2329;4018;-1034;8192;0.4875346;-0.5742413;-0.5512465;-0.3587258;-16;-13;-22;424;4003;855;32768;0.6045243;-0.4903047;-0.232687;-0.5831025;36;-33;-3;3774;3422;-599;256;-0.1177285;0.07063711;-0.9017057;-0.4099723;-48;-1;-7;-185;3156;2405;128;0.1966759;-0.101108;0.8201388;0.5277008;45;5;8;-11;4023;-1426;4;0.6920109;-0.3518005;0.1385041;0.6149584;-4;5;-2;3179;2812;-146;16;-0.1897507;-0.9713645;-0.009695291;-0.1426593;0;-9;0;-291;-1532;3848;2;0.6454294;-0.07756232;-0.3711911;-0.6630401;4;8;-1;-3431;2330;461;8;-0.1759003;-0.9447303;-0.1745152;-0.2146814;0;-6;0;-1781;-1019;3541;0.3782896;0.230238;1.229503;0.382939;0.653924;0.8858604;0.3870118;1.025069;0.5822278;0.3694371;1.587198;0.1108844;0.1038226;1.804474;-0.1278374;-0.2352252;1.726929;0.01062801;-0.4219484;0.832464;0.163585;0;0;0;0.6239126;1.820737;-0.1278402;0.9147823;1.762887;0.01062348;1.098178;0.8442993;0.2360946;0.7191905;0.02791047;-0.05998781;0.06609347;0.1934988;1.25222;0.1215273;-0.7681653;0.1508629;0.08528781;-0.2760186;1.403383;0.06609347;0.1934988;1.25222;0.1215273;-0.7681653;0.1508629;0.08528781;-0.2760186;1.403383
201943.2085;NotLabelled;NONE;16384;0.6627609;-0.6481994;0.3407202;0.1565097;-38;-35;17;-648;4182;1145;65536;0.66759;-0.6746091;-0.01939058;0.3144044;92;-16;8;-2411;4016;-964;8192;0.4930748;-0.5708287;-0.5498615;-0.3587258;-20;-15;-26;344;4093;833;32768;0.6120363;-0.4875346;-0.232687;-0.5775623;38;-42;2;3540;3248;-723;256;-0.1163435;0.07063711;-0.9050015;-0.4030471;-51;-1;-10;-149;3204;2441;128;0.1966759;-0.1024931;0.8235059;0.5221606;46;5;10;91;4045;-1526;4;0.6932393;-0.3518005;0.1385041;0.6135734;-4;7;-4;3215;2718;-92;16;-0.1897507;-0.9713645;-0.009695291;-0.1426593;0;-9;0;-317;-1484;3824;2;0.6454294;-0.07756232;-0.3698061;-0.6638136;5;5;0;-3283;2410;477;8;-0.1759003;-0.9447303;-0.1745152;-0.2146814;0;-6;-1;-1595;-1091;3621;0.401847;0.2542107;1.293436;0.4064475;0.6734324;0.9443603;0.410477;1.040634;0.6359689;0.393611;1.595372;0.1559241;0.1283281;1.809013;-0.08641973;-0.210892;1.733764;0.05288691;-0.4061022;0.8370183;0.1796592;0;0;0;0.6484242;1.82507;-0.0861416;0.9391294;1.769269;0.05350316;1.121683;0.8460388;0.2598905;0.751593;0.02720928;-0.04067543;0.08965418;0.2177677;1.316668;0.1472409;-0.7438967;0.2154219;0.1055295;-0.2513554;1.467616;0.08965418;0.2177677;1.316668;0.1472409;-0.7438967;0.2154219;0.1055295;-0.2513554;1.467616
201963.7737;NotLabelled;NONE;16384;0.6748764;-0.6315789;0.3448753;0.1634349;-50;-38;25;-528;3862;1329;65536;0.6889576;-0.6523545;-0.006925208;0.3157895;102;-6;3;-2341;3856;-1034;8192;0.5;-0.5674564;-0.5470914;-0.3587258;-27;-19;-32;262;4197;923;32768;0.6181135;-0.4847645;-0.232687;-0.5734072;39;-36;8;3272;3130;-619;256;-0.1163435;0.07063711;-0.908054;-0.3961219;-54;-1;-13;-189;3118;2443;128;0.1952908;-0.1024931;0.827321;0.5166205;45;4;13;159;3895;-1494;4;0.6947016;-0.3531856;0.1398892;0.6108033;-4;14;-7;3105;2714;-136;16;-0.1883656;-0.9716666;-0.005540166;-0.1426593;0;-13;0;-301;-1480;3850;2;0.6454294;-0.07894737;-0.3698061;-0.6636503;7;6;-1;-3143;2398;525;8;-0.1759003;-0.9449852;-0.1731302;-0.2146814;0;-7;0;-1621;-1053;3631;0.4302953;0.2761347;1.328806;0.4348489;0.6910796;0.9746569;0.4388371;1.054503;0.6618218;0.420178;1.601883;0.1734682;0.1542046;1.810993;-0.07204974;-0.1847686;1.736763;0.06840082;-0.3883395;0.8419099;0.1953876;0;0;0;0.6742464;1.828722;-0.07205215;0.9651324;1.775965;0.06839645;1.151628;0.8534963;0.2746649;0.791914;0.03334141;-0.03475302;0.1181057;0.2399771;1.352522;0.1763123;-0.7223902;0.2519228;0.1317884;-0.2298484;1.50402;0.1181057;0.2399771;1.352522;0.1763123;-0.7223902;0.2519228;0.1317884;-0.2298484;1.50402
201985.7175;NotLabelled;NONE;16384;0.6804813;-0.6232687;0.3476454;0.166205;-50;-34;28;-382;3712;1157;65536;0.6993116;-0.6412742;-0.002770083;0.3157895;104;0;2;-2171;3658;-790;8192;0.5166205;-0.5591419;-0.5401662;-0.3587258;-34;-20;-38;18;4173;753;32768;0.6310244;-0.4778393;-0.232687;-0.5650969;44;-34;12;3210;3162;-277;256;-0.1135734;0.07063711;-0.9113932;-0.3891967;-57;-2;-17;-129;2972;2567;128;0.1939058;-0.1024931;0.8310792;0.5110803;48;-2;15;-41;3895;-1498;4;0.6971273;-0.3531856;0.1398892;0.6080332;-5;13;-7;3003;2714;-90;16;-0.1883656;-0.9716735;-0.004155125;-0.1426593;0;-12;0;-211;-1474;3768;2;0.6426592;-0.07894737;-0.367036;-0.667863;8;16;0;-3307;2402;557;8;-0.1745152;-0.9457451;-0.1703601;-0.2146814;0;-8;0;-1619;-1033;3625;0.4909717;0.3000512;1.426723;0.4954753;0.7104478;1.067312;0.4994194;1.069854;0.7498685;0.4799079;1.60981;0.2533522;0.2136412;1.81467;0.0045904;-0.1252558;1.741861;0.1459652;-0.3472074;0.8475835;0.2425812;0;0;0;0.7336456;1.833462;0.004587203;1.024563;1.783413;0.1459599;1.214229;0.8584485;0.3376454;0.8624119;0.03775477;0.02066821;0.1787854;0.2641995;1.450941;0.234695;-0.7038419;0.3552096;0.1921792;-0.2131736;1.608112;0.1787854;0.2641995;1.450941;0.234695;-0.7038419;0.3552096;0.1921792;-0.2131736;1.608112
202006.7203;NotLabelled;NONE;16384;0.6869835;-0.6149584;0.3476454;0.1703601;-51;-29;29;-254;3616;943;65536;0.7111605;-0.6288089;0;0.3144044;108;3;4;-2023;3764;-744;8192;0.5249307;-0.5562801;-0.536011;-0.3573407;-37;-25;-42;-56;4191;909;32768;0.6388541;-0.4722992;-0.232687;-0.5609418;44;-44;9;2960;2960;-333;256;-0.1121884;0.06925207;-0.915174;-0.3808864;-58;-5;-19;-107;2914;2527;128;0.1925208;-0.101108;0.8349503;0.5055401;52;-4;16;-227;3817;-1568;4;0.6976307;-0.3545706;0.1398892;0.6066482;-7;12;-5;3011;2816;-20;16;-0.1883656;-0.9714771;-0.001385042;-0.1440443;0;-14;0;-173;-1474;3760;2;0.6412742;-0.07894737;-0.367036;-0.669193;10;13;1;-3541;2284;449;8;-0.1745152;-0.9459935;-0.1689751;-0.2146814;0;-7;-2;-1731;-1041;3631;0.5217828;0.3198378;1.482799;0.5262359;0.7256379;1.118206;0.5301355;1.080984;0.7962237;0.5086374;1.613332;0.2916385;0.241656;1.813298;0.03968148;-0.09701517;1.741182;0.1819502;-0.3297904;0.8481884;0.2638403;0;0;0;0.7615762;1.834296;0.03967881;1.052617;1.787612;0.1819457;1.248546;0.8574357;0.3389784;0.9151531;0.03682566;0.002473742;0.2095998;0.2842965;1.507514;0.2677098;-0.6851187;0.4131119;0.2190978;-0.1939142;1.665583;0.2095998;0.2842965;1.507514;0.2677098;-0.6851187;0.4131119;0.2190978;-0.1939142;1.665583
202026.8037;NotLabelled;NONE;16384;0.6936473;-0.6066482;0.3476454;0.1731302;-53;-27;31;-194;3870;847;65536;0.722571;-0.6163435;0.005540166;0.3130194;111;0;7;-2055;3898;-422;8192;0.536011;-0.5496626;-0.5318559;-0.3573407;-40;-33;-49;-220;4081;723;32768;0.6476947;-0.468144;-0.2299169;-0.5554016;45;-56;6;2880;2978;-597;256;-0.1080332;0.06786703;-0.9225146;-0.3642659;-61;-4;-19;135;2860;2669;128;0.1883656;-0.09972299;0.8450887;0.4903047;62;-2;18;-165;3911;-1784;4;0.6985541;-0.3545706;0.1412742;0.6052631;-8;10;-6;2979;2820;-78;16;-0.1869806;-0.9717456;0;-0.1440443;1;-15;0;-129;-1466;3750;2;0.6398892;-0.08033241;-0.365651;-0.6711095;11;8;3;-3505;2352;435;8;-0.1745152;-0.9459935;-0.1689751;-0.2146814;0;-8;-4;-1627;-1017;3519;0.5483236;0.3399136;1.548718;0.5527231;0.7408216;1.178752;0.5565751;1.091847;0.8520651;0.5349621;1.614822;0.337776;0.267985;1.809875;0.08199248;-0.07072642;1.740063;0.2253098;-0.3107522;0.8474479;0.2882037;0;0;0;0.7878854;1.831364;0.08198991;1.078862;1.787576;0.2253057;1.277912;0.855598;0.3669788;0.9559645;0.03643608;0.01610821;0.2361443;0.3047051;1.57395;0.3002075;-0.6674907;0.4823502;0.2441923;-0.1753271;1.734135;0.2361443;0.3047051;1.57395;0.3002075;-0.6674907;0.4823502;0.2441923;-0.1753271;1.734135
202048.7236;NotLabelled;NONE;16384;0.6997887;-0.5983379;0.3476454;0.1772853;-52;-28;31;-270;3956;827;65536;0.7323833;-0.6052631;0.01246537;0.3116343;109;-9;10;-1895;3864;-190;8192;0.5490516;-0.5443213;-0.5249307;-0.3559557;-44;-42;-50;-52;3965;495;32768;0.6591372;-0.4626039;-0.2285319;-0.5470914;51;-64;2;2758;3144;-505;256;-0.1052632;0.06786703;-0.9260719;-0.3559557;-65;-4;-23;-77;2924;2589;128;0.1869806;-0.09972299;0.8501617;0.4819945;66;2;20;73;4035;-1916;4;0.6994707;-0.3545706;0.1426593;0.6038781;-9;9;-7;3267;2752;-18;16;-0.1869806;-0.9717446;0.001385042;-0.1440443;1;-16;0;-231;-1456;3756;2;0.6398892;-0.08171745;-0.3642659;-0.6716952;14;4;5;-3337;2396;421;8;-0.1745152;-0.9462399;-0.16759;-0.2146814;1;-8;-4;-1583;-1113;3635;0.5804374;0.389796;1.639079;0.5846912;0.777432;1.255227;0.5884146;1.116741;0.9163853;0.5649515;1.620675;0.3835036;0.297396;1.804956;0.1204409;-0.04118905;1.73859;0.2656812;-0.2900862;0.8472643;0.3094988;0;0;0;0.8171768;1.829159;0.1204382;1.108135;1.792106;0.2656769;1.311787;0.8578691;0.3840144;1.000293;0.04125166;0.01809871;0.2682681;0.3554995;1.665656;0.3385858;-0.6195402;0.5769815;0.2714909;-0.1303272;1.829378;0.2682681;0.3554995;1.665656;0.3385858;-0.6195402;0.5769815;0.2714909;-0.1303272;1.829378
202068.9487;NotLabelled;NONE;16384;0.7108704;-0.5817174;0.3490305;0.1855956;-47;-31;32;-232;3642;1129;65536;0.7492115;-0.5831025;0.02631579;0.3130194;98;-14;15;-2017;3504;36;8192;0.5587626;-0.5415512;-0.5193906;-0.3531856;-44;-43;-49;4;3977;237;32768;0.6667433;-0.4598338;-0.2285319;-0.5401662;53;-58;-2;2356;3028;-145;256;-0.1024931;0.06786703;-0.93005;-0.3462604;-68;-5;-24;-191;2834;2685;128;0.1855956;-0.09972299;0.8551216;0.4736842;65;0;23;257;3935;-1754;4;0.7015697;-0.3545706;0.1440443;0.601108;-10;17;-11;3489;2782;-12;16;-0.1869806;-0.9715304;0.004155125;-0.1454294;0;-17;0;-157;-1502;3906;2;0.6385041;-0.08310249;-0.3628809;-0.6735903;14;6;5;-3133;2438;413;8;-0.1731302;-0.9469806;-0.1648199;-0.2146814;2;-11;-3;-1515;-1105;3673;0.6101596;0.4170859;1.721273;0.6143339;0.797472;1.330235;0.6179872;1.130381;0.985103;0.5934917;1.624646;0.443287;0.325702;1.803075;0.1764544;-0.0128979;1.737861;0.3221814;-0.268671;0.8474238;0.3278489;0;0;0;0.8453746;1.82949;0.1770517;1.136187;1.796267;0.3235044;1.342996;0.8583901;0.40027;1.047211;0.04359674;0.01763564;0.2979959;0.3832936;1.748551;0.3714527;-0.5945725;0.6626225;0.2965533;-0.1048231;1.914367;0.2979959;0.3832936;1.748551;0.3714527;-0.5945725;0.6626225;0.2965533;-0.1048231;1.914367
202088.7225;NotLabelled;NONE;16384;0.7175412;-0.5734072;0.3476454;0.1883656;-45;-30;35;-222;3572;1199;65536;0.7559054;-0.5747922;0.033241;0.3116343;90;-5;15;-2085;3580;4;8192;0.5686823;-0.5373961;-0.5138504;-0.3518005;-42;-37;-50;-32;3959;357;32768;0.6746475;-0.4556787;-0.2299169;-0.533241;49;-51;-6;2388;3070;273;256;-0.09833795;0.06648199;-0.9336485;-0.3379501;-70;-9;-30;-287;2818;2741;128;0.1814404;-0.09972299;0.8598086;0.466759;64;-12;25;-31;3849;-1468;4;0.7074445;-0.3545706;0.1440443;0.5941828;-8;33;-10;2843;2698;40;16;-0.1842105;-0.9717969;0.01108033;-0.1468144;2;-22;3;35;-1398;3804;2;0.6371191;-0.08448754;-0.3614958;-0.6754715;15;15;4;-3075;2484;499;8;-0.1731302;-0.9472206;-0.1634349;-0.2146814;0;-16;-2;-1407;-1129;3657;0.6674839;0.4396429;1.800176;0.6715776;0.8126843;1.402124;0.6751597;1.139111;1.050854;0.6484374;1.621945;0.4989297;0.3798457;1.793609;0.2284902;0.0415439;1.729904;0.3755703;-0.2278305;0.8435149;0.3665702;0;0;0;0.8993945;1.822366;0.228487;1.190355;1.793487;0.3755654;1.401775;0.8565023;0.4506385;1.11845;0.04153848;0.0590415;0.3553258;0.4063649;1.828142;0.427644;-0.574959;0.7452601;0.3446525;-0.0842278;1.996109;0.3553258;0.4063649;1.828142;0.427644;-0.574959;0.7452601;0.3446525;-0.0842278;1.996109
202108.7492;NotLabelled;NONE;16384;0.7219256;-0.566482;0.3476454;0.1925208;-46;-23;35;-66;3612;1207;65536;0.7625254;-0.566482;0.03739612;0.3102493;84;7;16;-2179;3718;286;8192;0.5865157;-0.5304709;-0.5027701;-0.3490305;-41;-46;-50;-140;3689;637;32768;0.6895977;-0.4501385;-0.2313019;-0.5180055;49;-56;-13;2652;2848;-187;256;-0.09418282;0.06509695;-0.9376251;-0.3282548;-72;-14;-31;-253;2840;2731;128;0.1786704;-0.09695291;0.86516;0.4584487;62;-14;26;-283;3761;-1720;4;0.7102212;-0.3559557;0.1440443;0.5900277;-6;24;-7;2581;2828;108;16;-0.1842105;-0.9715304;0.01523546;-0.1481994;4;-27;6;185;-1358;3752;2;0.6315789;-0.08725762;-0.3601108;-0.6810392;17;23;9;-3777;2414;215;8;-0.1717452;-0.9487242;-0.1578947;-0.2132964;2;-15;-4;-1765;-899;3605;0.6902134;0.4615979;1.871827;0.6942391;0.8284481;1.468062;0.6977614;1.149412;1.111792;0.67105;1.622074;0.551132;0.4026201;1.788145;0.2770637;0.06416187;1.7263;0.4245782;-0.2113953;0.8430283;0.3773742;0;0;0;0.9220976;1.818156;0.2776113;1.212815;1.792661;0.425791;1.426356;0.8541989;0.4701167;1.160766;0.03925872;0.06623417;0.3780601;0.428756;1.900357;0.4522132;-0.5557444;0.8204864;0.3563019;-0.06937385;2.072114;0.3780601;0.428756;1.900357;0.4522132;-0.5557444;0.8204864;0.3563019;-0.06937385;2.072114
202129.6865;NotLabelled;NONE;16384;0.7282922;-0.5581717;0.3462604;0.1952908;-48;-12;34;28;3982;1147;65536;0.7690748;-0.5595568;0.04155125;0.3060942;73;21;17;-2181;3980;322;8192;0.5964674;-0.5277008;-0.4958449;-0.3462604;-37;-57;-53;120;3787;571;32768;0.6975469;-0.4473684;-0.2313019;-0.5096953;48;-59;-15;2632;3164;171;256;-0.08725762;0.06232687;-0.9454935;-0.3074792;-76;-12;-28;-131;2616;2813;128;0.1731302;-0.09418282;0.8751819;0.4418283;76;-8;22;-113;3761;-2002;4;0.7106748;-0.3573407;0.1440443;0.5886427;-8;12;-3;2899;2816;88;16;-0.1828255;-0.9712914;0.01939058;-0.1509695;5;-27;8;83;-1476;3804;2;0.6301939;-0.0900277;-0.3587258;-0.6826906;20;8;13;-3939;2314;3;8;-0.1703601;-0.9492033;-0.1565097;-0.2132964;4;-17;-5;-1563;-933;3569;0.7092398;0.4891765;1.909184;0.7131772;0.8479762;1.498248;0.7166215;1.161837;1.135704;0.6888189;1.622533;0.5652232;0.4200225;1.782115;0.2876808;0.08169261;1.722521;0.4364107;-0.1982172;0.8405886;0.3897671;0;0;0;0.9394214;1.813462;0.2876781;1.230172;1.791834;0.4364063;1.44825;0.8535864;0.4566468;1.210489;0.03825307;0.03654289;0.3970927;0.4569054;1.938425;0.4779009;-0.5316033;0.862702;0.3698525;-0.04366589;2.11273;0.3970927;0.4569054;1.938425;0.4779009;-0.5316033;0.862702;0.3698525;-0.04366589;2.11273
202150.7896;NotLabelled;NONE;16384;0.7344795;-0.5512465;0.3434903;0.1966759;-48;-1;30;38;4050;1267;65536;0.7746321;-0.5540166;0.04293629;0.301939;61;28;16;-2241;3712;318;8192;0.6060661;-0.5263157;-0.4875346;-0.3434903;-38;-60;-52;166;4015;505;32768;0.7034348;-0.4459834;-0.2313019;-0.5027701;42;-57;-14;2740;3372;423;256;-0.08310249;0.06094183;-0.9494882;-0.2963989;-80;-14;-26;-397;2556;2899;128;0.1703601;-0.09279778;0.880697;0.432133;80;-6;21;279;3767;-2068;4;0.7133718;-0.3559557;0.1454294;0.5858725;-9;15;-6;3325;2760;402;16;-0.1814404;-0.9712756;0.02216066;-0.1523546;6;-26;10;5;-1432;3706;2;0.6288089;-0.09279778;-0.3573407;-0.6843213;21;-2;15;-3535;2188;71;8;-0.1689751;-0.9499032;-0.1537396;-0.2132964;6;-14;-7;-1563;-971;3599;0.7262539;0.5491898;1.990921;0.7300173;0.8921335;1.56666;0.7333081;1.192007;1.192464;0.7053464;1.626649;0.6018986;0.4367279;1.772593;0.3167807;0.09820742;1.718339;0.4671119;-0.1870041;0.839643;0.3972737;0;0;0;0.9559985;1.806;0.3167772;1.246403;1.792206;0.4671065;1.466503;0.8542228;0.4713906;1.247663;0.03941107;0.04013842;0.4141193;0.518054;2.021496;0.5138519;-0.4732232;0.9499166;0.3801268;0.01277637;2.198215;0.4141193;0.518054;2.021496;0.5138519;-0.4732232;0.9499166;0.3801268;0.01277637;2.198215
202170.7119;NotLabelled;NONE;16384;0.7461943;-0.5401662;0.3365651;0.1952908;-41;17;24;-264;3738;1473;65536;0.7847101;-0.5443213;0.04155125;0.2936288;45;32;3;-2425;3524;-226;8192;0.6162517;-0.5235457;-0.4806094;-0.3393352;-40;-57;-48;196;3853;409;32768;0.7092035;-0.4445983;-0.2313019;-0.4958449;36;-52;-8;2766;3250;417;256;-0.07894737;0.05817174;-0.9534027;-0.2853186;-81;-15;-29;-203;2476;2913;128;0.16759;-0.09141274;0.8867198;0.4210526;80;-1;24;371;3697;-2010;4;0.7156377;-0.3559557;0.1454294;0.5831025;-8;24;-13;3563;2560;564;16;-0.1786704;-0.971247;0.02631579;-0.1551246;8;-24;11;257;-1316;3776;2;0.6274238;-0.09695291;-0.3559557;-0.6857368;22;-1;13;-3165;2364;95;8;-0.16759;-0.9506814;-0.1523546;-0.2119114;7;-12;-9;-1623;-1081;3733;0.7354462;0.5785229;2.069178;0.7391068;0.9120975;1.637511;0.7423068;1.203709;1.256839;0.7153185;1.624164;0.6560467;0.4473132;1.762693;0.3666849;0.108423;1.711244;0.517169;-0.1794019;0.8378696;0.4044586;0;0;0;0.9665059;1.797278;0.3675621;1.256447;1.787716;0.5191108;1.476463;0.8501835;0.4890965;1.271637;0.03526187;0.05122054;0.4233191;0.5480647;2.100502;0.5256698;-0.4443486;1.030221;0.3756331;0.03922987;2.277606;0.4233191;0.5480647;2.100502;0.5256698;-0.4443486;1.030221;0.3756331;0.03922987;2.277606
202191.772;NotLabelled;NONE;16384;0.751492;-0.536011;0.333795;0.1911357;-40;18;22;-518;3594;1237;65536;0.7881629;-0.5401662;0.0401662;0.2922437;43;26;-4;-2315;3460;-428;8192;0.6250007;-0.5221606;-0.4736842;-0.33518;-40;-61;-43;328;3665;471;32768;0.7129534;-0.4432133;-0.2313019;-0.4916897;32;-48;-3;2548;3256;365;256;-0.07479224;0.0567867;-0.9570657;-0.2742382;-82;-23;-47;-779;2904;2861;128;0.1634349;-0.09141274;0.8920302;0.4113573;77;-7;28;-1;3523;-1958;4;0.7220598;-0.3587258;0.1454294;0.5734072;-4;36;-18;2639;2696;340;16;-0.1759003;-0.9706395;0.033241;-0.1606648;5;-26;13;197;-1494;3904;2;0.6274238;-0.101108;-0.3545706;-0.6858543;20;3;12;-2891;2564;345;8;-0.166205;-0.9513643;-0.1495845;-0.2119114;7;-17;-7;-1351;-1025;3643;0.7580409;0.6065114;2.121894;0.7615827;0.9292789;1.682087;0.7646782;1.21136;1.2943;0.7378787;1.617322;0.6836129;0.4699252;1.749046;0.3910426;0.1310204;1.701424;0.5427498;-0.1665065;0.8325872;0.4205595;0;0;0;0.9891389;1.783323;0.3910398;1.279091;1.777215;0.5427447;1.502684;0.8405304;0.5127004;1.310774;0.02562904;0.06897348;0.4459224;0.5768404;2.154048;0.5538242;-0.4167542;1.085411;0.3876746;0.06146765;2.332819;0.4459224;0.5768404;2.154048;0.5538242;-0.4167542;1.085411;0.3876746;0.06146765;2.332819
202212.8156;NotLabelled;NONE;16384;0.7563532;-0.5318559;0.3310249;0.1883656;-42;16;20;-420;3596;1163;65536;0.7921482;-0.536011;0.03739612;0.2894737;42;28;-9;-2235;3442;-310;8192;0.6412743;-0.5221606;-0.4584487;-0.3254848;-26;-66;-38;296;3991;357;32768;0.7229679;-0.4390582;-0.2285319;-0.4819945;27;-42;3;2376;3550;537;256;-0.06925207;0.05401662;-0.961125;-0.2617728;-86;-18;-31;-299;2378;2901;128;0.1606648;-0.08864266;0.8972162;0.4016621;77;-9;28;-395;3461;-2198;4;0.7243741;-0.3601108;0.1468144;0.5692521;-3;20;-15;2439;2890;292;16;-0.1745152;-0.9703281;0.03601108;-0.1634349;6;-24;15;173;-1376;3760;2;0.6218836;-0.1066482;-0.3545706;-0.6900482;14;21;19;-3627;2546;223;8;-0.1634349;-0.9530052;-0.1440443;-0.2105263;8;-14;-3;-1485;-957;3605;0.7631784;0.6355233;2.167016;0.7666178;0.9489386;1.720495;0.7696227;1.222775;1.326842;0.743072;1.6142;0.706726;0.4753504;1.738512;0.4107203;0.13629;1.693855;0.5629793;-0.1670947;0.829067;0.4272268;0;0;0;0.9945018;1.773727;0.4107171;1.284222;1.771721;0.5629743;1.510193;0.8361566;0.5190344;1.328472;0.02178836;0.07007092;0.4510674;0.6065383;2.199861;0.5621548;-0.3954732;1.139441;0.3727338;0.07860446;2.385112;0.4510674;0.6065383;2.199861;0.5621548;-0.3954732;1.139441;0.3727338;0.07860446;2.385112
202233.7353;NotLabelled;NONE;16384;0.7604358;-0.5290859;0.3268698;0.1869806;-35;14;16;-38;3710;1005;65536;0.7960725;-0.5318559;0.03462604;0.2867036;38;32;-11;-1865;3392;-422;8192;0.6482453;-0.5221606;-0.4515235;-0.3213296;-25;-62;-37;486;4107;553;32768;0.7260789;-0.4376731;-0.2271468;-0.4792244;18;-44;8;2620;3688;399;256;-0.06648199;0.05124654;-0.9644206;-0.2506925;-90;-21;-29;-61;2252;2961;128;0.1578947;-0.08587258;0.9022512;0.3919668;79;-12;22;-465;3437;-2298;4;0.7255728;-0.3614958;0.1481994;0.566482;0;8;-12;2751;3022;354;16;-0.1731302;-0.9699989;0.03878116;-0.166205;7;-25;16;13;-1534;3810;2;0.6191136;-0.1094183;-0.3545706;-0.6921024;13;14;25;-3839;2444;-7;8;-0.1620499;-0.95345;-0.1426593;-0.2105263;4;-16;-2;-1201;-1179;3985;0.7621602;0.6672678;2.215034;0.76549;0.9706986;1.761668;0.7683983;1.235733;1.362035;0.7430172;1.610466;0.7316436;0.4758466;1.726851;0.4319402;0.1365059;1.6863;0.5847231;-0.1700077;0.8251793;0.4335577;0;0;0;0.995001;1.762014;0.4319371;1.284445;1.764052;0.5847179;1.512451;0.8304548;0.5162834;1.347494;0.02014613;0.05370682;0.4500574;0.6390195;2.24859;0.56982;-0.3688958;1.194729;0.3580382;0.1028826;2.43767;0.4500574;0.6390195;2.24859;0.56982;-0.3688958;1.194729;0.3580382;0.1028826;2.43767
202254.7168;NotLabelled;NONE;16384;0.7651625;-0.5249307;0.3240997;0.1842105;-33;15;14;190;3768;1265;65536;0.7999907;-0.5277008;0.03047091;0.2839335;33;33;-9;-1887;3234;-912;8192;0.6541005;-0.5221606;-0.4459834;-0.3171745;-33;-63;-30;462;4247;697;32768;0.7304909;-0.4362881;-0.2243767;-0.4750692;13;-46;15;2588;3692;51;256;-0.05817174;0.04432133;-0.9717544;-0.2243767;-93;-21;-26;71;1986;3551;128;0.1523546;-0.08033241;0.9130051;0.3698061;92;-10;19;171;3323;-2872;4;0.724983;-0.3642659;0.1495845;0.5650969;4;0;-19;3149;2860;406;16;-0.1703601;-0.9698357;0.04293629;-0.1689751;10;-32;16;189;-1388;3338;2;0.6163435;-0.1135734;-0.3559557;-0.6931936;15;6;29;-3751;2608;-271;8;-0.1606648;-0.9542966;-0.1385041;-0.2105263;3;-21;-1;-1137;-1259;3831;0.7591743;0.6972375;2.258331;0.7623935;0.9905856;1.798377;0.7652044;1.246733;1.39299;0.7415804;1.60656;0.7539047;0.4751171;1.716398;0.4511163;0.1354565;1.680153;0.6042706;-0.1707881;0.8211973;0.4407534;0;0;0;0.9943433;1.750488;0.4511133;1.283554;1.755532;0.6042656;1.511794;0.8228507;0.5249655;1.352789;0.0143168;0.05722842;0.4470796;0.6697376;2.292579;0.5714606;-0.343488;1.244359;0.3441893;0.1260271;2.48542;0.4470796;0.6697376;2.292579;0.5714606;-0.343488;1.244359;0.3441893;0.1260271;2.48542
