SEP=;
index;label;segment;RightUpperArm_boneIndex;RightUpperArm_quat9x_w;RightUpperArm_quat9x_x;RightUpperArm_quat9x_y;RightUpperArm_quat9x_z;RightUpperArm_gyroscope_x;RightUpperArm_gyroscope_y;RightUpperArm_gyroscope_z;RightUpperArm_accelerometer_x;RightUpperArm_accelerometer_y;RightUpperArm_accelerometer_z;RightLowerArm_boneIndex;RightLowerArm_quat9x_w;RightLowerArm_quat9x_x;RightLowerArm_quat9x_y;RightLowerArm_quat9x_z;RightLowerArm_gyroscope_x;RightLowerArm_gyroscope_y;RightLowerArm_gyroscope_z;RightLowerArm_accelerometer_x;RightLowerArm_accelerometer_y;RightLowerArm_accelerometer_z;LeftUpperArm_boneIndex;LeftUpperArm_quat9x_w;LeftUpperArm_quat9x_x;LeftUpperArm_quat9x_y;LeftUpperArm_quat9x_z;LeftUpperArm_gyroscope_x;LeftUpperArm_gyroscope_y;LeftUpperArm_gyroscope_z;LeftUpperArm_accelerometer_x;LeftUpperArm_accelerometer_y;LeftUpperArm_accelerometer_z;LeftLowerArm_boneIndex;LeftLowerArm_quat9x_w;LeftLowerArm_quat9x_x;LeftLowerArm_quat9x_y;LeftLowerArm_quat9x_z;LeftLowerArm_gyroscope_x;LeftLowerArm_gyroscope_y;LeftLowerArm_gyroscope_z;LeftLowerArm_accelerometer_x;LeftLowerArm_accelerometer_y;LeftLowerArm_accelerometer_z;Chest_boneIndex;Chest_quat9x_w;Chest_quat9x_x;Chest_quat9x_y;Chest_quat9x_z;Chest_gyroscope_x;Chest_gyroscope_y;Chest_gyroscope_z;Chest_accelerometer_x;Chest_accelerometer_y;Chest_accelerometer_z;Spine_boneIndex;Spine_quat9x_w;Spine_quat9x_x;Spine_quat9x_y;Spine_quat9x_z;Spine_gyroscope_x;Spine_gyroscope_y;Spine_gyroscope_z;Spine_accelerometer_x;Spine_accelerometer_y;Spine_accelerometer_z;RightUpperLeg_boneIndex;RightUpperLeg_quat9x_w;RightUpperLeg_quat9x_x;RightUpperLeg_quat9x_y;RightUpperLeg_quat9x_z;RightUpperLeg_gyroscope_x;RightUpperLeg_gyroscope_y;RightUpperLeg_gyroscope_z;RightUpperLeg_accelerometer_x;RightUpperLeg_accelerometer_y;RightUpperLeg_accelerometer_z;RightLowerLeg_boneIndex;RightLowerLeg_quat9x_w;RightLowerLeg_quat9x_x;RightLowerLeg_quat9x_y;RightLowerLeg_quat9x_z;RightLowerLeg_gyroscope_x;RightLowerLeg_gyroscope_y;RightLowerLeg_gyroscope_z;RightLowerLeg_accelerometer_x;RightLowerLeg_accelerometer_y;RightLowerLeg_accelerometer_z;LeftUpperLeg_boneIndex;LeftUpperLeg_quat9x_w;LeftUpperLeg_quat9x_x;LeftUpperLeg_quat9x_y;LeftUpperLeg_quat9x_z;LeftUpperLeg_gyroscope_x;LeftUpperLeg_gyroscope_y;LeftUpperLeg_gyroscope_z;LeftUpperLeg_accelerometer_x;LeftUpperLeg_accelerometer_y;LeftUpperLeg_accelerometer_z;LeftLowerLeg_boneIndex;LeftLowerLeg_quat9x_w;LeftLowerLeg_quat9x_x;LeftLowerLeg_quat9x_y;LeftLowerLeg_quat9x_z;LeftLowerLeg_gyroscope_x;LeftLowerLeg_gyroscope_y;LeftLowerLeg_gyroscope_z;LeftLowerLeg_accelerometer_x;LeftLowerLeg_accelerometer_y;LeftLowerLeg_accelerometer_z;pelvis_x;pelvis_y;pelvis_z;lowerSpine_x;lowerSpine_y;lowerSpine_z;middleSpine_x;middleSpine_y;middleSpine_z;upperSpine_x;upperSpine_y;upperSpine_z;rightClavicle_x;rightClavicle_y;rightClavicle_z;rightShoulder_x;rightShoulder_y;rightShoulder_z;rightElbow_x;rightElbow_y;rightElbow_z;rightWrist_x;rightWrist_y;rightWrist_z;leftClavicle_x;leftClavicle_y;leftClavicle_z;leftShoulder_x;leftShoulder_y;leftShoulder_z;leftElbow_x;leftElbow_y;leftElbow_z;leftWrist_x;leftWrist_y;leftWrist_z;rightHip_x;rightHip_y;rightHip_z;rightKnee_x;rightKnee_y;rightKnee_z;rightAnkle_x;rightAnkle_y;rightAnkle_z;leftHip_x;leftHip_y;leftHip_z;leftKnee_x;leftKnee_y;leftKnee_z;leftAnkle_x;leftAnkle_y;leftAnkle_z;
711505.1412;NotLabelled;NONE;16384;0.7325063;-0.6288089;0.2506925;0.07202215;-2;4;5;-734;3848;1145;65536;0.7848482;-0.5817174;-0.01108033;0.2132964;2;4;2;-1248;3751;-1015;8192;0.5789474;-0.6106934;-0.4778393;-0.2520775;2;-2;-6;964;3843;549;32768;0.6994762;-0.4736842;-0.3504155;-0.4044321;4;5;-3;1050;3849;-892;256;-0.05124654;0.001385042;-0.9986236;0.01108033;4;0;-2;-1;304;3993;128;0.1315789;-0.06232687;0.9837286;0.1052632;-3;4;1;237;1195;-3846;4;0.5886427;-0.6139438;0.2396122;0.468144;-1;3;4;1283;3842;-718;16;-0.2562327;-0.9308571;-0.02770083;-0.2590028;0;3;-5;-769;-1828;3568;2;0.3587258;-0.4418283;-0.6101073;-0.5512465;-2;0;1;611;4204;275;8;-0.2243767;-0.9416959;-0.2506925;-0.004155125;-6;4;6;-2177;-2021;2947;0.6458095;1.780439;2.323349;0.645624;1.763529;1.778064;0.6454388;1.746644;1.298822;0.6455123;1.728479;0.5652465;0.3870063;1.681236;0.2401459;0.0454345;1.746451;0.3787635;-0.2204917;0.860303;0.3302417;0;0;0;0.9073458;1.683339;0.2401431;1.195994;1.751102;0.3787585;1.450134;0.838215;0.5529023;1.521404;-0.05825615;0.2544938;0.3339857;1.77762;2.369067;0.7405546;0.3910497;2.138885;0.1736086;1.013556;3.189306;0.3339857;1.77762;2.369067;0.7405546;0.3910497;2.138885;0.1736086;1.013556;3.189306
711525.0564;NotLabelled;NONE;16384;0.733693;-0.6274238;0.2506925;0.07202215;-3;6;2;-930;3736;1143;65536;0.7848482;-0.5817174;-0.01108033;0.2132964;1;2;0;-1250;3701;-1035;8192;0.5789474;-0.6106934;-0.4778393;-0.2520775;0;4;-1;1292;3797;713;32768;0.6982162;-0.4722992;-0.3531856;-0.4058172;2;4;1;774;3929;-880;256;-0.05124654;0.001385042;-0.998638;0.009695291;3;0;-1;131;298;4049;128;0.1315789;-0.06232687;0.9835795;0.1066482;-2;0;0;255;1111;-4062;4;0.5886427;-0.6128852;0.2396122;0.4695291;0;0;4;1167;3894;-770;16;-0.2562327;-0.9308571;-0.02770083;-0.2590028;0;1;-3;-615;-1958;3668;2;0.3601108;-0.4418283;-0.610541;-0.5498615;-6;-1;1;451;4244;141;8;-0.2257618;-0.9413576;-0.2506925;-0.005540166;-6;0;9;-2287;-2025;3235;0.644151;1.779248;2.324792;0.6439646;1.762266;1.779509;0.6437788;1.745318;1.300269;0.6438419;1.729183;0.5666468;0.3853256;1.682876;0.2414194;0.04376462;1.747756;0.3802208;-0.218979;0.8607485;0.3300868;0;0;0;0.9056658;1.684905;0.2414165;1.194325;1.752244;0.380216;1.446982;0.8387146;0.5531459;1.518251;-0.0577569;0.2547377;0.3323272;1.776435;2.370512;0.7387408;0.3906202;2.135552;0.1751821;1.013497;3.187576;0.3323272;1.776435;2.370512;0.7387408;0.3906202;2.135552;0.1751821;1.013497;3.187576
711546.0428;NotLabelled;NONE;16384;0.7342994;-0.6274238;0.2493075;0.07063711;-2;2;1;-976;3728;1183;65536;0.7852233;-0.5817174;-0.01108033;0.2119114;0;1;0;-1284;3665;-999;8192;0.5803324;-0.6093774;-0.4778393;-0.2520775;0;0;0;902;3909;717;32768;0.6982162;-0.4722992;-0.3531856;-0.4058172;2;2;0;966;3863;-966;256;-0.05124654;0.001385042;-0.9986505;0.008310249;0;0;0;-41;76;4029;128;0.132964;-0.06371191;0.9833044;0.1066482;2;2;0;361;1117;-4054;4;0.5886427;-0.6128852;0.2396122;0.4695291;0;0;2;1099;3812;-660;16;-0.2562327;-0.9312414;-0.02770083;-0.2576177;0;-2;-2;-565;-1900;3648;2;0.3601108;-0.4418283;-0.6117856;-0.5484765;-9;0;3;477;4382;77;8;-0.2257618;-0.9409785;-0.2520775;-0.006925208;-7;6;11;-2391;-1975;3203;0.6451918;1.773283;2.328009;0.645022;1.757811;1.782682;0.6448505;1.742189;1.303397;0.6449036;1.728084;0.5697323;0.3863773;1.682714;0.2443807;0.04482681;1.747258;0.3833646;-0.2189771;0.8607485;0.3300887;0;0;0;0.9067177;1.684669;0.2443776;1.195388;1.751582;0.3833597;1.448038;0.8380532;0.5562991;1.522066;-0.05850446;0.2588231;0.3333666;1.770343;2.373711;0.7404187;0.385381;2.134864;0.1768655;1.008258;3.186891;0.3333666;1.770343;2.373711;0.7404187;0.385381;2.134864;0.1768655;1.008258;3.186891
711567.2889;NotLabelled;NONE;16384;0.7354805;-0.6260388;0.2493075;0.07063711;-1;0;2;-798;3794;1033;65536;0.7852025;-0.5817174;-0.01246537;0.2119114;0;-1;0;-1506;3669;-861;8192;0.5803324;-0.6088026;-0.4778393;-0.2534626;2;-2;-1;986;4007;665;32768;0.6991511;-0.4709141;-0.3531856;-0.4058172;2;3;-1;1148;3903;-964;256;-0.05124654;0.001385042;-0.9986505;0.008310249;-1;0;0;29;210;4089;128;0.132964;-0.06371191;0.9833044;0.1066482;1;0;1;377;1161;-3984;4;0.5900277;-0.6115519;0.2396122;0.4695291;-1;0;1;1151;3822;-724;16;-0.2562327;-0.9312816;-0.02631579;-0.2576177;0;-3;0;-477;-1808;3486;2;0.3614958;-0.4404432;-0.613206;-0.5470914;-12;3;5;443;4420;37;8;-0.2271468;-0.9398872;-0.2548476;-0.008310249;-6;8;12;-2269;-1875;3019;0.6468502;1.770411;2.329113;0.6466837;1.755239;1.783776;0.6465151;1.739882;1.304483;0.6465588;1.727807;0.5707823;0.3880228;1.683373;0.2453091;0.04648307;1.747581;0.3844751;-0.2174641;0.8611915;0.3299346;0;0;0;0.9083633;1.685254;0.2453061;1.197045;1.751742;0.3844698;1.451292;0.8380406;0.554127;1.525318;-0.05851698;0.256651;0.3350248;1.767445;2.374811;0.7420751;0.3824836;2.135961;0.1819127;1.005729;3.189579;0.3350248;1.767445;2.374811;0.7420751;0.3824836;2.135961;0.1819127;1.005729;3.189579
711588.0768;NotLabelled;NONE;16384;0.7354805;-0.6260388;0.2493075;0.07063711;1;-3;1;-874;3858;905;65536;0.7852025;-0.5817174;-0.01246537;0.2119114;1;-4;0;-1236;3763;-1031;8192;0.5803324;-0.6098871;-0.4764543;-0.2534626;2;4;-2;1062;4113;591;32768;0.6984497;-0.4709141;-0.3545706;-0.4058172;0;1;-4;992;3965;-882;256;-0.05124654;0.001385042;-0.9986505;0.008310249;-1;2;0;-7;210;4125;128;0.132964;-0.06371191;0.9831532;0.1080332;-1;1;0;355;1037;-3910;4;0.5900277;-0.6120929;0.2382271;0.4695291;0;2;1;1171;3762;-730;16;-0.2562327;-0.9309355;-0.02493075;-0.2590028;1;-5;2;-525;-1762;3458;2;0.3614958;-0.4404432;-0.6156662;-0.5443213;-15;0;7;637;4184;115;8;-0.2271468;-0.9387221;-0.2590028;-0.01108033;-3;11;11;-2049;-1763;2925;0.6458476;1.769319;2.332385;0.645681;1.754148;1.787049;0.6455125;1.738791;1.307756;0.6455562;1.726715;0.5740553;0.3870203;1.682281;0.2485819;0.04548047;1.746489;0.387748;-0.2195198;0.8606123;0.3300837;0;0;0;0.9073608;1.684163;0.248579;1.196042;1.75065;0.3877426;1.448807;0.8363138;0.5561879;1.524262;-0.05924535;0.2560762;0.3340222;1.766354;2.378084;0.7377953;0.3812102;2.134769;0.1785559;1.005444;3.188292;0.3340222;1.766354;2.378084;0.7377953;0.3812102;2.134769;0.1785559;1.005444;3.188292
711608.0407;NotLabelled;NONE;16384;0.7354805;-0.6260388;0.2493075;0.07063711;3;-4;1;-674;3814;901;65536;0.7848482;-0.5817174;-0.01108033;0.2132964;0;-3;0;-1514;3703;-947;8192;0.5803324;-0.6088026;-0.4778393;-0.2534626;0;2;0;982;3993;727;32768;0.6984497;-0.4709141;-0.3545706;-0.4058172;0;0;-4;1028;3879;-974;256;-0.05124654;0.001385042;-0.9986505;0.008310249;0;3;0;-9;118;4053;128;0.132964;-0.06371191;0.9831532;0.1080332;-2;4;1;371;1031;-3910;4;0.5900277;-0.6120929;0.2382271;0.4695291;1;0;0;1093;3850;-652;16;-0.2548476;-0.9309654;-0.0235457;-0.2603878;1;-1;3;-791;-1960;3560;2;0.3628809;-0.4404432;-0.6172921;-0.5415512;-16;-3;8;575;4124;95;8;-0.2285319;-0.9375995;-0.2617728;-0.01246537;-2;9;11;-2079;-1837;3039;0.6458138;1.766482;2.332476;0.6456637;1.752821;1.787101;0.6455097;1.738791;1.307766;0.6455535;1.726715;0.5740657;0.3870176;1.682282;0.248593;0.04547777;1.746489;0.3877583;-0.2195202;0.8606122;0.3300835;0;0;0;0.9073581;1.684163;0.2485898;1.196039;1.750651;0.3877533;1.446737;0.8357871;0.5564276;1.523738;-0.06021142;0.2580237;0.3339869;1.763391;2.378157;0.7408783;0.379216;2.134521;0.1791778;1.004079;3.186361;0.3339869;1.763391;2.378157;0.7408783;0.379216;2.134521;0.1791778;1.004079;3.186361
711650.0886;NotLabelled;NONE;16384;0.7358143;-0.6260388;0.2479224;0.07202215;3;-1;2;-598;3962;1285;65536;0.7848482;-0.5817174;-0.01108033;0.2132964;-2;-3;2;-1420;3667;-1023;8192;0.5817174;-0.6097125;-0.4764543;-0.2506925;2;-7;3;1932;3571;459;32768;0.6981805;-0.4736842;-0.3545706;-0.4030471;0;-1;1;486;4039;-804;256;-0.05124654;0.002770083;-0.9986582;0.006925208;-1;0;0;-187;224;4065;128;0.132964;-0.06509695;0.9829093;0.1094183;0;1;0;461;1091;-4080;4;0.5900277;-0.6120929;0.2382271;0.4695291;0;2;-2;1159;3880;-770;16;-0.2548476;-0.9305407;-0.02493075;-0.2617728;0;1;0;-901;-1868;3658;2;0.3642659;-0.4418283;-0.6191151;-0.5373961;-13;-2;10;611;4096;-73;8;-0.2285319;-0.9360155;-0.267313;-0.01385042;-4;11;4;-2211;-1983;3427;0.646361;1.766619;2.332471;0.646211;1.752957;1.787095;0.646057;1.738927;1.307761;0.6461007;1.726852;0.5740604;0.3875649;1.682418;0.2485878;0.04602504;1.746626;0.3877531;-0.2189755;0.8607485;0.3300894;0;0;0;0.9079054;1.6843;0.2485845;1.196587;1.750787;0.3877481;1.449352;0.8364508;0.5561938;1.526353;-0.05954826;0.2577906;0.3345342;1.763528;2.378152;0.7414256;0.3793523;2.134516;0.1772854;1.001642;3.186576;0.3345342;1.763528;2.378152;0.7414256;0.3793523;2.134516;0.1772854;1.001642;3.186576
711691.0425;NotLabelled;NONE;16384;0.7358143;-0.6260388;0.2479224;0.07202215;4;3;0;-738;3960;1177;65536;0.7848666;-0.5817174;-0.009695291;0.2132964;-4;-2;1;-1520;3759;-997;8192;0.5803324;-0.6099485;-0.4778393;-0.2506925;4;13;3;1544;3811;459;32768;0.6973791;-0.4736842;-0.3545706;-0.4044321;0;6;3;888;3909;-902;256;-0.05124654;0.002770083;-0.9986582;0.006925208;-2;0;1;-67;68;4099;128;0.132964;-0.06509695;0.9829093;0.1094183;-2;-2;0;389;933;-3994;4;0.5900277;-0.6131528;0.2382271;0.468144;1;1;-2;1027;3856;-792;16;-0.2548476;-0.9305407;-0.02493075;-0.2617728;0;3;-1;-841;-1888;3570;2;0.3642659;-0.4418283;-0.6215088;-0.534626;-12;0;12;541;3986;-11;8;-0.2285319;-0.9356384;-0.2686981;-0.01246537;-1;12;3;-1923;-1723;3145;0.6431617;1.763088;2.334135;0.6430308;1.751169;1.788718;0.6428936;1.73867;1.309342;0.6429557;1.728727;0.575609;0.3845314;1.684562;0.2500108;0.04282671;1.747468;0.3893659;-0.21898;0.8607483;0.3300869;0;0;0;0.9048653;1.68781;0.250008;1.193374;1.75465;0.3893609;1.448635;0.8408878;0.55716;1.526322;-0.05667365;0.2636719;0.3313332;1.759851;2.379795;0.7382282;0.3756757;2.136165;0.1697732;0.9966104;3.186702;0.3313332;1.759851;2.379795;0.7382282;0.3756757;2.136165;0.1697732;0.9966104;3.186702
711713.0365;NotLabelled;NONE;16384;0.7364137;-0.6260388;0.2465374;0.07063711;-2;5;-2;-764;3950;901;65536;0.7841954;-0.5831025;-0.01108033;0.2119114;-7;0;3;-1536;3763;-851;8192;0.5789474;-0.6096072;-0.4792244;-0.2520775;4;14;2;876;3851;587;32768;0.6983179;-0.4722992;-0.3545706;-0.4044321;0;6;2;1082;3849;-896;256;-0.05124654;0.002770083;-0.9986582;0.006925208;-1;0;2;-121;-6;4013;128;0.132964;-0.06509695;0.9829093;0.1094183;-1;-3;-2;469;933;-4000;4;0.5886427;-0.6139438;0.2396122;0.468144;0;-8;-3;927;3916;-678;16;-0.2548476;-0.9308912;-0.02631579;-0.2603878;0;3;-2;-747;-1914;3490;2;0.3628809;-0.4432133;-0.6237056;-0.5318559;-7;-6;14;535;4076;93;8;-0.2271468;-0.9347727;-0.2728532;-0.01246537;5;13;4;-2041;-1525;2945;0.6452162;1.763668;2.333978;0.6450853;1.751749;1.788561;0.6449482;1.73925;1.309185;0.6450101;1.729308;0.5754521;0.3865859;1.685143;0.2498538;0.0448812;1.748049;0.3892089;-0.2169255;0.8613286;0.32993;0;0;0;0.9069197;1.68839;0.249851;1.195428;1.75523;0.3892039;1.451161;0.8421674;0.560065;1.527076;-0.05560589;0.2667593;0.3333877;1.760432;2.379638;0.739648;0.3753917;2.139893;0.1711931;0.9963253;3.190429;0.3333877;1.760432;2.379638;0.739648;0.3753917;2.139893;0.1711931;0.9963253;3.190429
711733.0584;NotLabelled;NONE;16384;0.7365453;-0.6260388;0.2465374;0.06925207;0;8;-4;-816;3956;875;65536;0.7831636;-0.5844875;-0.01108033;0.2119114;-7;1;1;-1412;3661;-883;8192;0.5789474;-0.6090326;-0.4792244;-0.2534626;2;-10;1;1114;3867;741;32768;0.6973791;-0.4736842;-0.3545706;-0.4044321;-2;-2;-2;814;3905;-922;256;-0.05263158;0.002770083;-0.9985861;0.006925208;0;0;3;-209;-44;4011;128;0.134349;-0.06509695;0.9827209;0.1094183;0;-1;-2;435;949;-3894;4;0.5886427;-0.6123419;0.2409972;0.4695291;0;-13;-4;1131;3956;-666;16;-0.2548476;-0.9308912;-0.02631579;-0.2603878;1;0;-2;-711;-1826;3476;2;0.3628809;-0.4459834;-0.6240869;-0.5290859;-4;-13;15;651;4016;23;8;-0.2257618;-0.9343129;-0.2756233;-0.01108033;8;18;4;-1941;-1657;3019;0.6439532;1.764334;2.332255;0.6438223;1.752415;1.786838;0.6436852;1.739915;1.307461;0.6437472;1.729973;0.5737289;0.3853229;1.685808;0.2481306;0.04361821;1.748714;0.3874857;-0.218313;0.8621162;0.3269444;0;0;0;0.9056568;1.689055;0.2481278;1.194165;1.755895;0.3874806;1.448877;0.8428959;0.5601944;1.526221;-0.05388737;0.2642458;0.3321248;1.761097;2.377914;0.7385392;0.3752819;2.142956;0.1725453;0.9955786;3.195198;0.3321248;1.761097;2.377914;0.7385392;0.3752819;2.142956;0.1725453;0.9955786;3.195198
711754.0411;NotLabelled;NONE;16384;0.7366742;-0.6260388;0.2465374;0.06786703;-1;8;-7;-946;3720;925;65536;0.782128;-0.5858725;-0.01108033;0.2119114;-6;0;0;-1236;3733;-947;8192;0.5789474;-0.6096072;-0.4792244;-0.2520775;5;0;1;1642;3741;743;32768;0.6973791;-0.4736842;-0.3545706;-0.4044321;-2;1;0;690;3901;-944;256;-0.05263158;0.002770083;-0.9985861;0.006925208;0;0;3;-79;32;4007;128;0.134349;-0.06371191;0.9828117;0.1094183;0;-1;-2;573;1101;-3994;4;0.5872576;-0.6131246;0.2423823;0.4695291;0;-6;-4;1173;3914;-888;16;-0.2548476;-0.9308912;-0.02631579;-0.2603878;1;1;-2;-785;-1840;3510;2;0.3628809;-0.4487534;-0.6244434;-0.5263157;-3;-22;15;661;3980;85;8;-0.2243767;-0.934237;-0.2770083;-0.01108033;8;9;1;-2025;-1891;3129;0.6459991;1.76464;2.328114;0.6458691;1.752795;1.782695;0.6457327;1.74036;1.303317;0.6457933;1.730425;0.5695846;0.387369;1.686258;0.2439866;0.04566356;1.749157;0.3833432;-0.2182582;0.8630311;0.3245578;0;0;0;0.9077029;1.689515;0.2439826;1.19621;1.756359;0.3833356;1.450387;0.8427429;0.5535542;1.525488;-0.05502999;0.260039;0.3341706;1.761397;2.373772;0.7374446;0.3754675;2.134128;0.1743746;0.9957638;3.187936;0.3341706;1.761397;2.373772;0.7374446;0.3754675;2.134128;0.1743746;0.9957638;3.187936
711775.0818;NotLabelled;NONE;16384;0.7368005;-0.6260388;0.2465374;0.06648199;0;4;-7;-1002;3774;781;65536;0.782128;-0.5858725;-0.01108033;0.2119114;-6;0;0;-1532;3803;-961;8192;0.5775623;-0.6103462;-0.4792244;-0.2534626;3;11;2;1228;3931;605;32768;0.696574;-0.4736842;-0.3545706;-0.4058172;-4;3;0;994;3969;-880;256;-0.05401662;0.002770083;-0.9985209;0.005540166;0;0;1;-53;-50;3981;128;0.1357341;-0.06371191;0.9824662;0.1108033;-2;-5;0;481;917;-4012;4;0.5858725;-0.6139001;0.2437673;0.4695291;0;-4;-4;1045;3898;-932;16;-0.2548476;-0.9308912;-0.02631579;-0.2603878;0;3;-4;-929;-1908;3646;2;0.3642659;-0.4515235;-0.6228038;-0.5249307;-4;-16;15;599;3808;145;8;-0.2229917;-0.9341723;-0.2783934;-0.009695291;7;7;0;-1993;-1857;3107;0.6466398;1.765493;2.325782;0.6465073;1.753414;1.780369;0.6463684;1.740775;1.300996;0.6464307;1.730839;0.5672632;0.3880073;1.686673;0.2416648;0.04630154;1.749571;0.3810202;-0.2191132;0.8639368;0.3215584;0;0;0;0.9083411;1.689929;0.2416618;1.196848;1.756774;0.3810155;1.452039;0.8437747;0.5530203;1.52714;-0.05399823;0.2595053;0.3348116;1.762268;2.371444;0.7382607;0.3755735;2.136574;0.1751882;0.9958695;3.190381;0.3348116;1.762268;2.371444;0.7382607;0.3755735;2.136574;0.1751882;0.9958695;3.190381
711796.0279;NotLabelled;NONE;16384;0.7348112;-0.6274238;0.2493075;0.06509695;3;-2;-7;-964;3768;883;65536;0.7814421;-0.5872576;-0.01246537;0.2105263;-5;1;0;-1274;3713;-937;8192;0.5775623;-0.6092561;-0.4806094;-0.2534626;1;1;1;736;3975;517;32768;0.696574;-0.4736842;-0.3545706;-0.4058172;-5;0;-1;1132;3837;-888;256;-0.05540166;0.004155125;-0.9984401;0.005540166;0;0;2;-79;-76;3985;128;0.1357341;-0.06371191;0.9824662;0.1108033;0;-7;-1;457;879;-3878;4;0.5858725;-0.6139001;0.2437673;0.4695291;0;-7;-4;997;3844;-778;16;-0.2548476;-0.9312373;-0.02770083;-0.2590028;0;4;-4;-703;-1936;3612;2;0.3642659;-0.4542936;-0.6231179;-0.5221606;-1;-5;16;635;3930;129;8;-0.2229917;-0.9341856;-0.2783934;-0.008310249;7;0;0;-1903;-1721;3071;0.6495616;1.75957;2.322137;0.6494464;1.749073;1.776691;0.649323;1.737823;1.297284;0.6493348;1.729924;0.5635266;0.3908839;1.686694;0.2378243;0.04919562;1.749251;0.3773772;-0.2182015;0.8639367;0.3221779;0;0;0;0.9112181;1.689883;0.2377954;1.199743;1.756302;0.3773146;1.452853;0.8433471;0.5525944;1.525348;-0.05463398;0.2590603;0.3377319;1.756213;2.36778;0.7407024;0.3687706;2.136531;0.180617;0.9890664;3.191928;0.3377319;1.756213;2.36778;0.7407024;0.3687706;2.136531;0.180617;0.9890664;3.191928
711816.0636;NotLabelled;NONE;16384;0.7349326;-0.6274238;0.2493075;0.06371191;2;-3;-7;-966;3868;957;65536;0.7803993;-0.5886427;-0.01246537;0.2105263;-5;1;0;-1282;3819;-947;8192;0.5775623;-0.6097692;-0.4792244;-0.2548476;4;-9;0;1030;3817;503;32768;0.6956301;-0.4750692;-0.3545706;-0.4058172;-6;-2;-2;1052;3857;-900;256;-0.05540166;0.004155125;-0.9984401;0.005540166;1;0;1;-175;-72;3895;128;0.1357341;-0.06232687;0.982555;0.1108033;0;-8;0;503;917;-3850;4;0.5844875;-0.6141141;0.2465374;0.4695291;0;-4;-5;1173;3910;-898;16;-0.2548476;-0.9316616;-0.02631579;-0.2576177;0;0;-4;-699;-1828;3512;2;0.3628809;-0.4570637;-0.6253643;-0.5180055;-4;-4;15;769;3926;183;8;-0.2188366;-0.9355789;-0.2770083;-0.008310249;7;-5;2;-1931;-1199;3033;0.6526647;1.760967;2.316156;0.6525494;1.75047;1.77071;0.6524258;1.73922;1.291302;0.652495;1.73144;0.5575433;0.3941808;1.687544;0.2318212;0.05231318;1.749128;0.3713677;-0.2187194;0.8647029;0.3197627;0;0;0;0.9145042;1.69218;0.2318187;1.202837;1.759379;0.3713625;1.457968;0.8464451;0.5437982;1.529667;-0.05153608;0.2500685;0.3408349;1.757611;2.361798;0.7431772;0.3701677;2.129458;0.1884347;0.9898343;3.188043;0.3408349;1.757611;2.361798;0.7431772;0.3701677;2.129458;0.1884347;0.9898343;3.188043
711837.0515;NotLabelled;NONE;16384;0.7344613;-0.6274238;0.2506925;0.06371191;0;-2;-4;-874;3970;835;65536;0.7803993;-0.5886427;-0.01246537;0.2105263;-6;2;0;-1478;3819;-797;8192;0.5761772;-0.6110781;-0.4792244;-0.2548476;5;11;-1;1414;3927;549;32768;0.6931618;-0.4764543;-0.3559557;-0.4072022;-4;6;0;860;3953;-798;256;-0.05540166;0.004155125;-0.9984401;0.005540166;3;1;0;-213;-80;3997;128;0.1357341;-0.06094183;0.9826418;0.1108033;-2;-5;0;559;771;-3834;4;0.5844875;-0.6141141;0.2465374;0.4695291;0;0;-4;1065;3916;-822;16;-0.2548476;-0.9320434;-0.02631579;-0.2562327;0;-2;-3;-641;-1770;3614;2;0.3614958;-0.4584487;-0.6262977;-0.5166205;-2;-2;12;749;3926;211;8;-0.2174515;-0.9363106;-0.2756233;-0.008310249;7;-8;3;-2043;-1075;3291;0.6534611;1.761797;2.31295;0.6533432;1.751065;1.767509;0.6532174;1.739609;1.288106;0.6532866;1.731829;0.5543474;0.3949724;1.687933;0.2286256;0.05310481;1.749516;0.3681718;-0.2195858;0.8655905;0.3167537;0;0;0;0.9152958;1.692569;0.2286222;1.203629;1.759768;0.3681663;1.455212;0.8456665;0.5396304;1.525498;-0.05329227;0.2485639;0.3416316;1.75846;2.358595;0.7410636;0.3693331;2.131352;0.1906379;0.9903547;3.191395;0.3416316;1.75846;2.358595;0.7410636;0.3693331;2.131352;0.1906379;0.9903547;3.191395
711857.0395;NotLabelled;NONE;16384;0.7344613;-0.6274238;0.2506925;0.06371191;0;-2;-5;-906;3978;773;65536;0.7793293;-0.5900277;-0.01385042;0.2105263;-5;1;0;-1306;3781;-889;8192;0.5747922;-0.6107154;-0.4806094;-0.2562327;6;7;-1;756;3889;323;32768;0.6923463;-0.4764543;-0.3559557;-0.4085872;-4;3;-1;1224;3905;-730;256;-0.05540166;0.004155125;-0.9984401;0.005540166;4;1;-1;-5;-250;3971;128;0.1357341;-0.06094183;0.9826418;0.1108033;-4;-3;1;329;727;-3940;4;0.5844875;-0.6151706;0.2465374;0.468144;-1;1;-4;983;3846;-862;16;-0.2548476;-0.9320815;-0.02493075;-0.2562327;0;0;-2;-633;-1896;3640;2;0.3614958;-0.4584487;-0.6262977;-0.5166205;-3;1;7;627;3894;209;8;-0.2146814;-0.937356;-0.2742382;-0.008310249;5;-4;1;-2033;-1075;3477;0.6549799;1.761853;2.311481;0.6548595;1.750886;1.766044;0.6547313;1.739225;1.286647;0.6548005;1.731444;0.552888;0.3964863;1.687549;0.2271661;0.05461871;1.749132;0.3667124;-0.2195857;0.8655906;0.3167537;0;0;0;0.9168097;1.692184;0.2271631;1.205143;1.759383;0.3667068;1.455154;0.8454709;0.5414429;1.523781;-0.05508518;0.254951;0.3431506;1.758535;2.357129;0.7425827;0.3694086;2.129886;0.1955599;0.9907908;3.191478;0.3431506;1.758535;2.357129;0.7425827;0.3694086;2.129886;0.1955599;0.9907908;3.191478
711878.0327;NotLabelled;NONE;16384;0.7341059;-0.6274238;0.2520775;0.06232687;0;0;-6;-918;3794;841;65536;0.7797021;-0.5900277;-0.01385042;0.2091413;-5;1;-1;-1352;3777;-865;8192;0.5747922;-0.611221;-0.4792244;-0.2576177;4;-2;-1;706;3967;373;32768;0.6923463;-0.4764543;-0.3559557;-0.4085872;-3;0;-3;1078;3929;-792;256;-0.05540166;0.004155125;-0.9984469;0.004155125;5;0;0;-95;-78;3969;128;0.134349;-0.05955679;0.9829171;0.1108033;0;-6;0;429;1015;-4114;4;0.5844875;-0.6151706;0.2465374;0.468144;-1;-1;-3;857;4008;-910;16;-0.2548476;-0.9320815;-0.02493075;-0.2562327;0;-2;-1;-579;-2012;3636;2;0.3601108;-0.4584487;-0.6270951;-0.5166205;-1;7;3;523;3836;37;8;-0.2132964;-0.9380761;-0.2728532;-0.008310249;0;-3;-3;-1897;-1171;3557;0.6520722;1.762151;2.308625;0.6519519;1.751185;1.763188;0.6518241;1.739523;1.28379;0.6518934;1.731743;0.5500315;0.3935795;1.687847;0.2243089;0.05171178;1.749431;0.3638555;-0.222492;0.8658898;0.3138944;0;0;0;0.9139028;1.692483;0.2243063;1.202235;1.759682;0.3638506;1.451231;0.8458416;0.5404056;1.518067;-0.05491173;0.2541123;0.3402429;1.758834;2.354272;0.7390601;0.3688991;2.130922;0.1929557;0.9912622;3.192411;0.3402429;1.758834;2.354272;0.7390601;0.3688991;2.130922;0.1929557;0.9912622;3.192411
711899.0384;NotLabelled;NONE;16384;0.7337453;-0.6274238;0.2534626;0.06094183;-3;2;-7;-868;3876;899;65536;0.7786262;-0.5914127;-0.01523546;0.2091413;-3;1;0;-1364;3789;-837;8192;0.5747922;-0.6123043;-0.4778393;-0.2576177;6;-8;-1;1352;3929;439;32768;0.6923463;-0.4764543;-0.3559557;-0.4085872;-1;1;-1;844;4019;-824;256;-0.05540166;0.004155125;-0.9984469;0.004155125;3;0;-1;-123;-20;4101;128;0.1357341;-0.05817174;0.9828097;0.1108033;-1;-5;1;499;943;-4164;4;0.5844875;-0.6162221;0.2465374;0.466759;-3;2;-2;939;4000;-822;16;-0.2548476;-0.9321175;-0.0235457;-0.2562327;-1;-7;-1;-649;-1912;3558;2;0.3601108;-0.4584487;-0.6270951;-0.5166205;3;8;1;487;3892;11;8;-0.2119114;-0.9387916;-0.2714681;-0.008310249;-1;-6;-6;-1899;-1131;3551;0.6567994;1.75963;2.306743;0.6566757;1.748366;1.761312;0.6565449;1.736443;1.281921;0.6565953;1.730693;0.5481434;0.3982666;1.687737;0.2223071;0.05641181;1.748987;0.3620319;-0.2209593;0.8663428;0.3137277;0;0;0;0.9185907;1.692293;0.2223042;1.206937;1.759061;0.3620268;1.452391;0.8440731;0.5375916;1.519224;-0.05667996;0.2512975;0.3449703;1.756339;2.352394;0.7437847;0.3664036;2.129038;0.1976928;0.9887667;3.190536;0.3449703;1.756339;2.352394;0.7437847;0.3664036;2.129038;0.1976928;0.9887667;3.190536
711920.1736;NotLabelled;NONE;16384;0.733859;-0.6274238;0.2534626;0.05955679;0;3;-4;-876;3912;635;65536;0.7775723;-0.5927978;-0.01523546;0.2091413;-1;2;1;-1516;3789;-753;8192;0.5734072;-0.6136016;-0.4778393;-0.2576177;3;1;1;1514;3899;561;32768;0.6923463;-0.4764543;-0.3559557;-0.4085872;-3;1;0;762;3925;-882;256;-0.05540166;0.004155125;-0.9984517;0.002770083;1;1;-2;79;-88;4093;128;0.134349;-0.05817174;0.983;0.1108033;-2;-3;2;451;749;-4112;4;0.5858725;-0.6153982;0.2479224;0.4653739;-2;-2;-1;911;3890;-816;16;-0.2548476;-0.9321515;-0.02216066;-0.2562327;0;-3;-2;-717;-1864;3456;2;0.3601108;-0.4584487;-0.6248027;-0.5193906;8;0;-4;531;3868;81;8;-0.2119114;-0.9395993;-0.2686981;-0.006925208;-2;-5;-6;-1991;-1155;3131;0.6570641;1.759325;2.302203;0.6569387;1.747894;1.756776;0.6568062;1.735824;1.277389;0.6568564;1.730073;0.5436115;0.3985277;1.687118;0.2177763;0.0566729;1.748368;0.3575008;-0.2238588;0.8666341;0.3108527;0;0;0;0.9188515;1.691675;0.2177727;1.207198;1.758443;0.3574951;1.450599;0.8429511;0.5332957;1.517431;-0.05780196;0.2470011;0.3452353;1.756047;2.347857;0.7434179;0.3653131;2.128384;0.1982467;0.9886568;3.189779;0.3452353;1.756047;2.347857;0.7434179;0.3653131;2.128384;0.1982467;0.9886568;3.189779
711941.0462;NotLabelled;NONE;16384;0.733859;-0.6274238;0.2534626;0.05955679;0;2;-1;-1112;3916;515;65536;0.7775723;-0.5927978;-0.01523546;0.2091413;0;0;1;-1364;3863;-745;8192;0.5734072;-0.6136016;-0.4778393;-0.2576177;0;-3;0;856;3861;347;32768;0.6921024;-0.4778393;-0.3545706;-0.4085872;-2;-1;0;1120;3827;-732;256;-0.05540166;0.004155125;-0.9984517;0.002770083;1;1;-2;-15;-234;4061;128;0.134349;-0.05817174;0.983;0.1108033;-1;-5;3;369;709;-4122;4;0.5844875;-0.6167138;0.2479224;0.4653739;-3;-5;0;1003;3886;-804;16;-0.2548476;-0.9321515;-0.02216066;-0.2562327;0;0;-1;-693;-1862;3522;2;0.3614958;-0.4598338;-0.6229824;-0.5193906;9;-8;-7;707;3938;3;8;-0.2119114;-0.9396086;-0.2686981;-0.005540166;-2;-4;-7;-1937;-1363;3083;0.6578825;1.757144;2.299036;0.6577564;1.745649;1.753609;0.6576232;1.733523;1.274223;0.657657;1.729802;0.5404327;0.3993146;1.687788;0.214485;0.05747217;1.748703;0.3543859;-0.2247147;0.8674932;0.3078235;0;0;0;0.9196393;1.692264;0.2144831;1.207999;1.758602;0.3543833;1.449831;0.8433042;0.5333309;1.516661;-0.0574497;0.2470358;0.3460536;1.753871;2.34469;0.7371771;0.3611648;2.125027;0.1929368;0.985487;3.186324;0.3460536;1.753871;2.34469;0.7371771;0.3611648;2.125027;0.1929368;0.985487;3.186324
711961.2376;NotLabelled;NONE;16384;0.7339701;-0.6274238;0.2534626;0.05817174;0;-3;-1;-1212;3826;565;65536;0.7775723;-0.5927978;-0.01523546;0.2091413;3;-2;0;-1294;3735;-805;8192;0.5747922;-0.6133827;-0.4764543;-0.2576177;1;-10;0;1086;3791;375;32768;0.6921024;-0.4778393;-0.3545706;-0.4085872;-2;-3;0;894;3905;-792;256;-0.05401662;0.005540166;-0.9985209;0.002770083;1;0;-3;-91;-244;4051;128;0.134349;-0.0567867;0.983081;0.1108033;0;-5;2;441;821;-3952;4;0.5844875;-0.6151066;0.2493075;0.466759;-3;-1;0;995;3942;-740;16;-0.2548476;-0.9321515;-0.02216066;-0.2562327;0;-3;-2;-681;-1854;3604;2;0.3614958;-0.4598338;-0.6218251;-0.5207756;10;-10;-9;759;3880;7;8;-0.2132964;-0.9396974;-0.267313;-0.004155125;-2;-8;-8;-1977;-1591;3117;0.6578849;1.757149;2.298934;0.6577588;1.745655;1.753509;0.6576258;1.733529;1.274122;0.6576576;1.729807;0.5403315;0.3993146;1.687793;0.2143849;0.0574724;1.748708;0.3542861;-0.224714;0.8674929;0.3078246;0;0;0;0.9196393;1.692269;0.2143816;1.207999;1.758607;0.3542809;1.44983;0.8433301;0.5333369;1.513696;-0.05794704;0.2480156;0.346056;1.753876;2.344589;0.740483;0.3614146;2.129331;0.196245;0.9857368;3.190628;0.346056;1.753876;2.344589;0.740483;0.3614146;2.129331;0.196245;0.9857368;3.190628
711982.2097;NotLabelled;NONE;16384;0.7333792;-0.6274238;0.2548476;0.05955679;0;-6;-2;-1074;3714;729;65536;0.7786262;-0.5914127;-0.01523546;0.2091413;3;0;-1;-1430;3861;-879;8192;0.5734072;-0.6152563;-0.4764543;-0.2562327;0;-6;1;1648;3793;521;32768;0.6911441;-0.4792244;-0.3545706;-0.4085872;-1;0;2;734;3977;-898;256;-0.05263158;0.005540166;-0.9985948;0.002770083;0;0;-3;-55;-114;4061;128;0.132964;-0.0567867;0.9832693;0.1108033;-4;6;3;339;883;-4166;4;0.5858725;-0.6148384;0.2493075;0.4653739;-4;-1;0;961;3882;-732;16;-0.2534626;-0.9325609;-0.02077562;-0.2562327;0;-1;-2;-685;-1888;3584;2;0.3628809;-0.4612188;-0.6188238;-0.5221606;12;-6;-11;797;3846;113;8;-0.2132964;-0.9400954;-0.265928;-0.002770083;-1;-8;-10;-1995;-1689;3189;0.6585997;1.758588;2.298897;0.658471;1.746864;1.753476;0.6583357;1.734537;1.274095;0.6583769;1.730917;0.5403039;0.4001502;1.688235;0.2143512;0.05814168;1.748188;0.3542615;-0.2255691;0.8674934;0.3071979;0;0;0;0.9204606;1.694147;0.2143481;1.208637;1.76126;0.3542567;1.449499;0.8452709;0.5309581;1.514158;-0.05600667;0.2458153;0.3467711;1.755334;2.344554;0.7393347;0.3627244;2.12686;0.1921489;0.9870465;3.186641;0.3467711;1.755334;2.344554;0.7393347;0.3627244;2.12686;0.1921489;0.9870465;3.186641
712004.0457;NotLabelled;NONE;16384;0.7334903;-0.6274238;0.2548476;0.05817174;-2;-2;1;-936;3998;1027;65536;0.7786262;-0.5914127;-0.01523546;0.2091413;4;-1;0;-1496;3761;-825;8192;0.5734072;-0.6141812;-0.4778393;-0.2562327;0;2;1;1546;3823;495;32768;0.6903234;-0.4792244;-0.3545706;-0.4099723;0;1;4;724;4009;-772;256;-0.05263158;0.005540166;-0.99859;0.004155125;-1;0;-3;5;-48;3979;128;0.132964;-0.05817174;0.9831883;0.1108033;-2;5;3;347;811;-3950;4;0.5858725;-0.6148384;0.2493075;0.4653739;-3;-4;0;853;3904;-768;16;-0.2534626;-0.9325609;-0.02077562;-0.2562327;0;-2;-1;-731;-1968;3626;2;0.3628809;-0.4612188;-0.6176525;-0.5235457;12;-2;-12;885;3794;89;8;-0.2146814;-0.9405595;-0.2631579;-0.002770083;-2;-13;-12;-2037;-1903;3363;0.6583145;1.757971;2.300798;0.6581852;1.746186;1.755378;0.6580495;1.733804;1.275999;0.6580907;1.730172;0.5422077;0.3998637;1.687487;0.2162557;0.05785544;1.747444;0.356165;-0.2255779;0.8666341;0.3096078;0;0;0;0.920174;1.693395;0.2162523;1.208351;1.760509;0.35616;1.448634;0.8453746;0.5380052;1.51264;-0.05684865;0.2557211;0.3464859;1.754722;2.346456;0.7357031;0.3610897;2.129298;0.1865198;0.9831712;3.189364;0.3464859;1.754722;2.346456;0.7357031;0.3610897;2.129298;0.1865198;0.9831712;3.189364
712025.0324;NotLabelled;NONE;16384;0.7333792;-0.6274238;0.2548476;0.05955679;0;-6;1;-926;3962;699;65536;0.7796763;-0.5900277;-0.01523546;0.2091413;5;-1;1;-1534;3695;-881;8192;0.5734072;-0.6141812;-0.4778393;-0.2562327;0;-1;-1;1128;3843;327;32768;0.6912828;-0.4778393;-0.3545706;-0.4099723;0;3;4;1032;3929;-744;256;-0.05124654;0.004155125;-0.9986687;0.004155125;0;-2;-3;-163;-198;4031;128;0.132964;-0.05817174;0.9831883;0.1108033;0;1;1;313;861;-4080;4;0.5858725;-0.6132232;0.2506925;0.466759;-2;-5;0;1065;3894;-752;16;-0.2534626;-0.9325609;-0.02077562;-0.2562327;0;-2;-1;-675;-1888;3528;2;0.3642659;-0.4612188;-0.6144748;-0.5263157;11;0;-11;867;4080;25;8;-0.2160665;-0.9410163;-0.2603878;-0.001385042;-2;-14;-12;-1949;-1937;3255;0.6599432;1.75967;2.300314;0.6598165;1.748112;1.754889;0.659683;1.73593;1.275504;0.6597412;1.730268;0.5417265;0.401528;1.686644;0.2158884;0.05950788;1.746938;0.3556237;-0.2255798;0.8666339;0.3096058;0;0;0;0.9218374;1.692628;0.2158805;1.210001;1.76017;0.3556076;1.452326;0.8456068;0.537614;1.514535;-0.05680144;0.2555209;0.3481145;1.756402;2.345969;0.7373328;0.3627697;2.128813;0.1881427;0.9848504;3.188876;0.3481145;1.756402;2.345969;0.7373328;0.3627697;2.128813;0.1881427;0.9848504;3.188876
712045.0429;NotLabelled;NONE;16384;0.7332654;-0.6274238;0.2548476;0.06094183;0;-6;2;-764;3896;709;65536;0.7797021;-0.5900277;-0.01385042;0.2091413;5;0;1;-1434;3751;-925;8192;0.5734072;-0.6152563;-0.4764543;-0.2562327;1;2;0;1214;4051;585;32768;0.691169;-0.4778393;-0.3531856;-0.4113573;0;2;2;964;3937;-898;256;-0.05124654;0.004155125;-0.9986687;0.004155125;1;-2;-2;-75;-128;4059;128;0.132964;-0.05817174;0.9831883;0.1108033;-1;0;1;303;991;-4020;4;0.5858725;-0.6126552;0.2520775;0.466759;-1;-1;0;1029;3878;-718;16;-0.2534626;-0.9329702;-0.01939058;-0.2548476;0;0;-1;-703;-1834;3522;2;0.3642659;-0.4612188;-0.6120912;-0.5290859;11;1;-11;935;4352;21;8;-0.2188366;-0.9422671;-0.2534626;0;0;-23;-8;-1885;-1913;2909;0.6580917;1.757785;2.304055;0.6579649;1.746226;1.75863;0.6578313;1.734045;1.279245;0.6578815;1.728268;0.5454683;0.3995514;1.685309;0.2196337;0.05769851;1.746575;0.359356;-0.2256047;0.8657651;0.3120111;0;0;0;0.9198756;1.689848;0.2196309;1.208224;1.756612;0.3593507;1.450045;0.8419726;0.5416473;1.514491;-0.0594933;0.2570525;0.3462629;1.754517;2.34971;0.7336181;0.3607519;2.13009;0.1814897;0.9828329;3.188625;0.3462629;1.754517;2.34971;0.7336181;0.3607519;2.13009;0.1814897;0.9828329;3.188625
712066.2194;NotLabelled;NONE;16384;0.7344483;-0.6260388;0.2548476;0.06094183;-1;-2;0;-812;3998;881;65536;0.7807483;-0.5886427;-0.01385042;0.2091413;4;1;2;-1356;3781;-899;8192;0.5734072;-0.6146777;-0.4764543;-0.2576177;0;2;0;1126;3991;657;32768;0.691169;-0.4778393;-0.3531856;-0.4113573;-1;-1;2;938;3933;-856;256;-0.05124654;0.004155125;-0.9986687;0.004155125;1;-2;-2;-35;60;4087;128;0.132964;-0.05817174;0.9831883;0.1108033;-1;0;1;297;1095;-4080;4;0.5858725;-0.6126552;0.2520775;0.466759;-2;0;1;1061;3828;-696;16;-0.2534626;-0.9329702;-0.01939058;-0.2548476;0;0;-1;-651;-1814;3634;2;0.3642659;-0.4612188;-0.6108913;-0.5304709;10;2;-11;935;4136;85;8;-0.2188366;-0.9430078;-0.2506925;0;0;-10;-4;-1951;-2043;2827;0.6584772;1.758885;2.304092;0.6583504;1.747326;1.758667;0.6582168;1.735145;1.279283;0.6582671;1.729367;0.5455056;0.399937;1.686409;0.219671;0.05808407;1.747675;0.3593932;-0.2235624;0.8663425;0.3118773;0;0;0;0.9202613;1.690948;0.2196682;1.20861;1.757712;0.3593879;1.448387;0.8425777;0.5419007;1.509513;-0.05863631;0.2557802;0.3466485;1.755617;2.349747;0.7308696;0.3609335;2.130449;0.1830566;0.9843218;3.190457;0.3466485;1.755617;2.349747;0.7308696;0.3609335;2.130449;0.1830566;0.9843218;3.190457
712087.2194;NotLabelled;NONE;16384;0.7344483;-0.6260388;0.2548476;0.06094183;-3;0;0;-860;3926;1207;65536;0.781118;-0.5886427;-0.01385042;0.2077562;3;2;2;-1444;3747;-965;8192;0.5734072;-0.6152563;-0.4764543;-0.2562327;-3;-6;-1;1150;3885;453;32768;0.691169;-0.4778393;-0.3531856;-0.4113573;-1;-3;2;842;3957;-776;256;-0.05124654;0.004155125;-0.9986736;0.002770083;0;-1;-1;19;100;4067;128;0.132964;-0.05817174;0.9830312;0.1121884;-1;-2;0;269;1019;-4076;4;0.5858725;-0.6126552;0.2520775;0.466759;-2;0;1;1081;3934;-724;16;-0.2534626;-0.9329702;-0.01939058;-0.2548476;0;0;0;-637;-1908;3670;2;0.3642659;-0.4612188;-0.6096858;-0.5318559;9;2;-10;855;4094;137;8;-0.2202216;-0.9434177;-0.2479224;0;-2;-11;-3;-2269;-2335;3171;0.6603542;1.757498;2.310244;0.6602274;1.745939;1.764819;0.6600938;1.733758;1.285434;0.660144;1.727981;0.5516572;0.401814;1.685022;0.2258226;0.05996105;1.746288;0.3655449;-0.2227264;0.8654635;0.314902;0;0;0;0.9221382;1.689561;0.2258198;1.210487;1.756325;0.3655396;1.44877;0.8405559;0.5468216;1.509897;-0.06065762;0.260701;0.3485254;1.75423;2.355899;0.7327465;0.3595467;2.136601;0.1849336;0.982935;3.196608;0.3485254;1.75423;2.355899;0.7327465;0.3595467;2.136601;0.1849336;0.982935;3.196608
712108.0437;NotLabelled;NONE;16384;0.7356266;-0.6246537;0.2548476;0.06094183;-3;2;0;-822;3954;1023;65536;0.7814851;-0.5886427;-0.01385042;0.2063712;0;4;3;-1342;3751;-953;8192;0.5747922;-0.6139626;-0.4764543;-0.2562327;0;-7;-3;1454;3677;283;32768;0.691169;-0.4778393;-0.3531856;-0.4113573;1;1;4;870;3973;-752;256;-0.04986149;0.004155125;-0.9987437;0.002770083;0;0;1;-43;-36;4071;128;0.132964;-0.05817174;0.9830312;0.1121884;0;0;-1;331;875;-4064;4;0.5872576;-0.6113276;0.2520775;0.466759;-2;3;1;1079;3916;-692;16;-0.2534626;-0.9329702;-0.01939058;-0.2548476;0;-1;0;-613;-1876;3608;2;0.3642659;-0.4612188;-0.6084749;-0.533241;7;1;-8;937;4024;123;8;-0.2202216;-0.9434177;-0.2479224;0;-4;-2;-3;-2385;-2377;3273;0.661872;1.75248;2.31011;0.6617615;1.742432;1.764655;0.6616422;1.731577;1.285239;0.6616742;1.72783;0.5514486;0.4033304;1.685809;0.2255027;0.06148949;1.746737;0.3654024;-0.2211956;0.8659124;0.3147476;0;0;0;0.923655;1.690275;0.2254997;1.212016;1.756611;0.3653967;1.451785;0.8414769;0.5479192;1.512909;-0.05973756;0.2617976;0.3500419;1.749086;2.355746;0.7342603;0.3544025;2.136444;0.18646;0.9777906;3.196458;0.3500419;1.749086;2.355746;0.7342603;0.3544025;2.136444;0.18646;0.9777906;3.196458
712129.0361;NotLabelled;NONE;16384;0.7356266;-0.6246537;0.2548476;0.06094183;-4;2;0;-866;4004;1029;65536;0.7818495;-0.5886427;-0.01385042;0.2049861;0;4;3;-1474;3779;-891;8192;0.5734072;-0.6152563;-0.4764543;-0.2562327;3;8;-2;1228;3865;241;32768;0.6912995;-0.4764543;-0.3531856;-0.4127424;2;7;3;960;3931;-848;256;-0.04986149;0.004155125;-0.9987437;0.002770083;0;0;1;-29;-66;3977;128;0.132964;-0.05817174;0.9830312;0.1121884;0;-3;-2;371;863;-3924;4;0.5886427;-0.6105646;0.2506925;0.466759;-1;4;2;929;3842;-690;16;-0.2534626;-0.9326186;-0.01800554;-0.2562327;0;-4;1;-579;-1854;3502;2;0.3642659;-0.4612188;-0.6072583;-0.534626;6;0;-5;939;4068;187;8;-0.2216066;-0.9427281;-0.2493075;0;-6;9;-1;-2193;-2205;3049;0.6632648;1.752413;2.314021;0.6631544;1.742365;1.768567;0.6630352;1.731511;1.28915;0.6630675;1.727755;0.5553598;0.4047234;1.685733;0.2294143;0.06288292;1.746664;0.3693131;-0.22054;0.8663578;0.3139796;0;0;0;0.9250483;1.690194;0.2294118;1.21341;1.75653;0.3693081;1.45378;0.8411722;0.5499119;1.515698;-0.06004202;0.2639611;0.3514346;1.74902;2.359658;0.7329659;0.3541343;2.136973;0.1822273;0.9775224;3.195463;0.3514346;1.74902;2.359658;0.7329659;0.3541343;2.136973;0.1822273;0.9775224;3.195463
712150.0365;NotLabelled;NONE;16384;0.7373913;-0.6232687;0.2534626;0.05955679;-4;4;0;-870;3940;859;65536;0.7818495;-0.5886427;-0.01385042;0.2049861;1;4;4;-1376;3729;-881;8192;0.5734072;-0.6135094;-0.4764543;-0.2603878;-1;0;-3;872;4055;593;32768;0.6914244;-0.4750692;-0.3531856;-0.4141274;0;-3;1;970;3887;-840;256;-0.04986149;0.004155125;-0.9987437;0.002770083;1;0;2;-103;-72;4035;128;0.134349;-0.0567867;0.9829239;0.1121884;0;-4;-3;309;949;-3888;4;0.5886427;-0.6111314;0.2493075;0.466759;0;2;1;1037;3904;-692;16;-0.2534626;-0.9326186;-0.01800554;-0.2562327;0;-2;1;-623;-1900;3538;2;0.3642659;-0.4612188;-0.6072583;-0.534626;0;0;-1;889;4166;31;8;-0.2243767;-0.941705;-0.2506925;0;-3;1;2;-1867;-2051;2807;0.6649452;1.752856;2.313082;0.6648349;1.742808;1.767627;0.6647157;1.731954;1.28821;0.664748;1.728198;0.5544201;0.4064038;1.686176;0.2284746;0.06456336;1.747107;0.3683734;-0.2190123;0.866801;0.3138269;0;0;0;0.9267288;1.690637;0.2284721;1.215091;1.756973;0.3683684;1.454363;0.8418381;0.5515426;1.515947;-0.05860627;0.2631074;0.3531151;1.749463;2.358718;0.7344922;0.3553057;2.131259;0.1812834;0.9793372;3.188081;0.3531151;1.749463;2.358718;0.7344922;0.3553057;2.131259;0.1812834;0.9793372;3.188081
712171.0368;NotLabelled;NONE;16384;0.7373913;-0.6232687;0.2534626;0.05955679;-2;4;0;-958;3778;803;65536;0.7822113;-0.5886427;-0.01385042;0.2036011;2;1;3;-1216;3721;-897;8192;0.5747922;-0.6138735;-0.4750692;-0.2590028;-3;-11;-2;1422;3717;567;32768;0.6914244;-0.4750692;-0.3531856;-0.4141274;0;-2;4;674;4007;-740;256;-0.05124654;0.004155125;-0.9986736;0.002770083;2;-1;3;-19;94;3963;128;0.134349;-0.0567867;0.9829239;0.1121884;-1;-3;-3;267;1033;-3924;4;0.5886427;-0.6111314;0.2493075;0.466759;0;2;1;1033;3924;-716;16;-0.2534626;-0.9326186;-0.01800554;-0.2562327;0;-1;1;-737;-1948;3578;2;0.3642659;-0.4612188;-0.6072583;-0.534626;0;3;0;821;4090;99;8;-0.2257618;-0.9413739;-0.2506925;0;0;-3;2;-1871;-1983;2815;0.6660939;1.752515;2.317488;0.6659819;1.7423;1.772037;0.6658611;1.7313;1.292624;0.6658935;1.727544;0.5588332;0.4075496;1.685521;0.2328879;0.06570908;1.746453;0.3727863;-0.2190117;0.866801;0.3138264;0;0;0;0.9278744;1.689982;0.2328849;1.216236;1.756318;0.3727815;1.45105;0.839292;0.5522262;1.512306;-0.06037807;0.2613143;0.354264;1.749135;2.363127;0.7387853;0.3558933;2.135354;0.1855763;0.9799252;3.192175;0.354264;1.749135;2.363127;0.7387853;0.3558933;2.135354;0.1855763;0.9799252;3.192175
712191.0411;NotLabelled;NONE;16384;0.7373913;-0.6232687;0.2534626;0.05955679;0;1;0;-962;3674;843;65536;0.7822113;-0.5886427;-0.01385042;0.2036011;3;0;2;-1250;3673;-911;8192;0.5747922;-0.6144561;-0.4750692;-0.2576177;0;2;-2;1630;3695;459;32768;0.6914244;-0.4750692;-0.3531856;-0.4141274;1;5;7;880;3877;-806;256;-0.05124654;0.002770083;-0.9986812;0.001385042;1;0;2;27;86;3943;128;0.1357341;-0.05401662;0.9827307;0.1135734;0;-5;-3;265;923;-3978;4;0.5886427;-0.6121868;0.2493075;0.4653739;0;3;2;1035;3938;-716;16;-0.2534626;-0.9326186;-0.01800554;-0.2562327;0;0;0;-743;-1894;3622;2;0.3642659;-0.4612188;-0.6084749;-0.533241;0;3;0;825;4126;21;8;-0.2257618;-0.9413739;-0.2506925;0;1;-4;2;-2015;-1941;2971;0.6686568;1.752947;2.317149;0.6685444;1.742732;1.771698;0.6684234;1.731732;1.292284;0.6684555;1.727984;0.5584939;0.4101116;1.685964;0.2325483;0.06827089;1.746892;0.3724478;-0.2166124;0.8672409;0.3142761;0;0;0;0.9304364;1.690429;0.2325453;1.218798;1.756765;0.3724426;1.455136;0.8396585;0.5494566;1.515584;-0.06001091;0.2583756;0.3568268;1.749567;2.362787;0.7407144;0.3563256;2.133948;0.1904397;0.9803574;3.192301;0.3568268;1.749567;2.362787;0.7407144;0.3563256;2.133948;0.1904397;0.9803574;3.192301
712212.0651;NotLabelled;NONE;16384;0.7375019;-0.6232687;0.2534626;0.05817174;-2;3;0;-932;4002;963;65536;0.7825938;-0.5886427;-0.01246537;0.2022161;1;3;3;-1342;3739;-933;8192;0.5747922;-0.6127992;-0.4764543;-0.2590028;2;13;-1;1014;3891;369;32768;0.6922493;-0.4736842;-0.3518005;-0.4155124;2;6;6;1152;3903;-782;256;-0.05263158;0.002770083;-0.9986092;0.001385042;1;-2;2;-67;-70;3999;128;0.1371191;-0.05401662;0.9825383;0.1135734;0;-5;-3;329;903;-3998;4;0.5900277;-0.6114155;0.2479224;0.4653739;0;4;2;1021;3886;-772;16;-0.2520775;-0.9329938;-0.01800554;-0.2562327;0;0;0;-697;-1866;3572;2;0.3642659;-0.4612188;-0.6084749;-0.533241;-2;-2;0;807;4234;61;8;-0.2257618;-0.9413739;-0.2506925;0;2;-3;2;-2201;-2007;3099;0.6686019;1.746704;2.317142;0.668502;1.737599;1.771671;0.6683918;1.727573;1.292236;0.6684026;1.725751;0.5584385;0.4099329;1.685338;0.2323892;0.06827286;1.746892;0.3724556;-0.2166089;0.8672407;0.3142785;0;0;0;0.9302685;1.68829;0.2323868;1.218823;1.75342;0.372451;1.456647;0.8369386;0.5507092;1.517092;-0.06273127;0.2596282;0.3567709;1.743232;2.362766;0.7400079;0.3491826;2.137786;0.1897472;0.9732139;3.196146;0.3567709;1.743232;2.362766;0.7400079;0.3491826;2.137786;0.1897472;0.9732139;3.196146
712233.0478;NotLabelled;NONE;16384;0.7379764;-0.6232687;0.2520775;0.05817174;-3;3;0;-978;3812;929;65536;0.7829504;-0.5886427;-0.01246537;0.200831;0;3;1;-1304;3721;-945;8192;0.5734072;-0.6135094;-0.4764543;-0.2603878;0;5;-1;686;4133;479;32768;0.6922493;-0.4736842;-0.3518005;-0.4155124;0;0;2;1044;3949;-892;256;-0.05263158;0.002770083;-0.9986092;0.001385042;2;-1;2;-65;-96;4009;128;0.1371191;-0.05263158;0.9826135;0.1135734;0;-5;-2;283;933;-3922;4;0.5900277;-0.6114155;0.2479224;0.4653739;1;3;1;1015;3928;-794;16;-0.2520775;-0.9329938;-0.01800554;-0.2562327;0;0;0;-673;-1878;3540;2;0.365651;-0.4626039;-0.6078045;-0.5318559;-2;-3;2;859;4158;15;8;-0.2257618;-0.941004;-0.2520775;0;0;4;0;-2261;-2035;3157;0.6748558;1.747065;2.316462;0.6747565;1.738015;1.77099;0.6746471;1.728039;1.291554;0.6746576;1.726222;0.5577559;0.416188;1.685811;0.2317066;0.07452766;1.747363;0.3717734;-0.2121599;0.8682343;0.3145696;0;0;0;0.9365236;1.688764;0.2317034;1.225078;1.753895;0.3717685;1.463962;0.8372773;0.5479009;1.52173;-0.06115437;0.2524853;0.3630247;1.743587;2.362085;0.7454628;0.3502749;2.131258;0.1981477;0.9710833;3.193035;0.3630247;1.743587;2.362085;0.7454628;0.3502749;2.131258;0.1981477;0.9710833;3.193035
712254.0466;NotLabelled;NONE;16384;0.7376097;-0.6232687;0.2534626;0.0567867;-4;4;-3;-1138;3726;1019;65536;0.7839665;-0.5872576;-0.01385042;0.200831;0;3;-1;-1194;3715;-1013;8192;0.5761772;-0.6119863;-0.4750692;-0.2603878;-2;-6;-2;1522;3737;557;32768;0.6922493;-0.4736842;-0.3518005;-0.4155124;1;-1;4;740;3977;-824;256;-0.05263158;0.002770083;-0.9986101;0;4;0;3;25;-34;3969;128;0.1371191;-0.05263158;0.9826135;0.1135734;0;-1;-2;219;1005;-4054;4;0.5900277;-0.6119753;0.2465374;0.4653739;0;4;1;997;3948;-746;16;-0.2534626;-0.9326186;-0.01800554;-0.2562327;0;2;0;-671;-1912;3590;2;0.3642659;-0.4626039;-0.6086356;-0.5318559;-2;2;2;747;4034;73;8;-0.2257618;-0.9402575;-0.2548476;0;1;9;0;-1995;-1779;3043;0.6748657;1.748328;2.317755;0.6747639;1.739048;1.772287;0.6746522;1.728868;1.292856;0.6746627;1.727052;0.5590578;0.4161931;1.686641;0.2330083;0.07453278;1.748192;0.3730754;-0.2106311;0.8686647;0.3144085;0;0;0;0.9365287;1.689594;0.2330052;1.225083;1.754724;0.3730706;1.460891;0.8376977;0.5512056;1.518659;-0.06073427;0.2557901;0.3630348;1.74487;2.363382;0.7454728;0.3515575;2.132554;0.1981577;0.9723654;3.194332;0.3630348;1.74487;2.363382;0.7454728;0.3515575;2.132554;0.1981577;0.9723654;3.194332
712275.0487;NotLabelled;NONE;16384;0.738883;-0.6218836;0.2534626;0.05540166;-5;3;-3;-1038;3800;1127;65536;0.7832811;-0.5886427;-0.01385042;0.199446;0;2;-2;-1350;3805;-889;8192;0.5747922;-0.6138735;-0.4750692;-0.2590028;-1;7;0;1496;3779;301;32768;0.6923629;-0.4722992;-0.3518005;-0.4168975;1;3;7;872;3925;-792;256;-0.05401662;0.002770083;-0.9985362;0;2;0;3;77;76;4041;128;0.1385041;-0.05124654;0.9824925;0.1135734;0;0;-2;299;979;-4090;4;0.5900277;-0.6119753;0.2465374;0.4653739;0;4;2;1017;3850;-754;16;-0.2520775;-0.9329938;-0.01800554;-0.2562327;0;-1;0;-539;-1882;3594;2;0.3642659;-0.4626039;-0.6098431;-0.5304709;-2;1;3;657;3924;121;8;-0.2257618;-0.9402565;-0.2548476;0.001385042;0;4;0;-1937;-1679;3169;0.6768178;1.74332;2.319214;0.6767159;1.73404;1.773746;0.6766042;1.72386;1.294315;0.6766027;1.724074;0.5605145;0.418122;1.684602;0.2343587;0.07647292;1.745816;0.3746008;-0.2118574;0.8672138;0.3175741;0;0;0;0.938458;1.68748;0.2343558;1.227024;1.752181;0.3745953;1.463958;0.8342463;0.5464503;1.521723;-0.06418669;0.2510341;0.364987;1.739862;2.36484;0.7505593;0.3474698;2.133678;0.203246;0.971501;3.193565;0.364987;1.739862;2.36484;0.7505593;0.3474698;2.133678;0.203246;0.971501;3.193565
712296.2236;NotLabelled;NONE;16384;0.7389855;-0.6218836;0.2534626;0.05401662;-4;5;-3;-1112;3850;955;65536;0.7832553;-0.5886427;-0.01523546;0.199446;0;2;-2;-1314;3737;-947;8192;0.5747922;-0.6122119;-0.4764543;-0.2603878;0;7;0;1090;3749;269;32768;0.6923629;-0.4722992;-0.3518005;-0.4168975;3;3;7;960;3933;-762;256;-0.05540166;0.002770083;-0.9984603;0;-2;0;2;-13;30;4091;128;0.1385041;-0.05263158;0.9825784;0.1121884;2;2;-2;375;961;-4068;4;0.5914127;-0.6111943;0.2451524;0.4653739;-1;2;2;947;3852;-708;16;-0.2520775;-0.9329938;-0.01800554;-0.2562327;0;0;0;-757;-1906;3594;2;0.3642659;-0.4626039;-0.6098431;-0.5304709;-1;0;3;531;3980;53;8;-0.2257618;-0.9398801;-0.2562327;0.001385042;0;0;-1;-1943;-1671;3261;0.6812296;1.743904;2.318738;0.6811258;1.734445;1.773273;0.6810122;1.724108;1.293845;0.681011;1.724328;0.5600452;0.4225303;1.684859;0.2338892;0.0808811;1.746072;0.3741315;-0.2102787;0.8685435;0.3149802;0;0;0;0.9428663;1.687736;0.2338862;1.231433;1.752435;0.3741267;1.468754;0.8353282;0.5498223;1.525358;-0.06231201;0.2517865;0.3693989;1.740461;2.364367;0.7543288;0.3480681;2.132137;0.2099697;0.968877;3.195432;0.3693989;1.740461;2.364367;0.7543288;0.3480681;2.132137;0.2099697;0.968877;3.195432
712318.0402;NotLabelled;NONE;16384;0.7390855;-0.6218836;0.2534626;0.05263158;-3;-1;-1;-926;3924;889;65536;0.7842944;-0.5872576;-0.01523546;0.199446;3;0;0;-1426;3733;-871;8192;0.5747922;-0.6132873;-0.4750692;-0.2603878;1;2;0;802;3997;345;32768;0.6931729;-0.4709141;-0.3504155;-0.4182825;4;3;5;1228;3875;-794;256;-0.05540166;0.002770083;-0.9984603;0;-2;-1;2;-91;66;4059;128;0.1398892;-0.05263158;0.9823822;0.1121884;3;0;-1;337;943;-3980;4;0.5914127;-0.6111943;0.2451524;0.4653739;0;0;2;973;3862;-732;16;-0.2520775;-0.9329938;-0.01800554;-0.2562327;0;0;0;-657;-1876;3614;2;0.3642659;-0.4626039;-0.6098431;-0.5304709;-1;0;3;571;4090;35;8;-0.2257618;-0.9402565;-0.2548476;0.001385042;0;-1;-1;-1949;-1691;3237;0.6818806;1.745208;2.318421;0.6817627;1.734474;1.772979;0.6816369;1.723016;1.293577;0.6816355;1.723241;0.5597773;0.4231549;1.683775;0.2336211;0.08150584;1.744987;0.3738639;-0.2114546;0.8679911;0.3157139;0;0;0;0.9434908;1.686652;0.2336178;1.232058;1.751349;0.3738586;1.470431;0.8341089;0.5474167;1.526208;-0.06353116;0.2492252;0.3700511;1.741872;2.364066;0.7541373;0.3502365;2.125972;0.2127305;0.9710449;3.190774;0.3700511;1.741872;2.364066;0.7541373;0.3502365;2.125972;0.2127305;0.9710449;3.190774
712339.1678;NotLabelled;NONE;16384;0.7407215;-0.6204986;0.2520775;0.05263158;0;-1;1;-784;3874;781;65536;0.7842944;-0.5872576;-0.01523546;0.199446;3;0;1;-1410;3773;-847;8192;0.5761772;-0.613059;-0.4736842;-0.2603878;0;-5;-2;1126;4077;727;32768;0.6941118;-0.4695291;-0.3504155;-0.4182825;1;0;0;940;3923;-860;256;-0.05540166;0.001385042;-0.9984632;0;-2;-1;1;-37;78;4119;128;0.1398892;-0.05263158;0.9823822;0.1121884;-1;0;-1;349;1003;-4034;4;0.5914127;-0.6111943;0.2451524;0.4653739;0;2;2;983;3910;-724;16;-0.2520775;-0.9329938;-0.01800554;-0.2562327;1;0;0;-755;-1868;3554;2;0.3642659;-0.4626039;-0.6098431;-0.5304709;-3;-3;3;573;4174;-25;8;-0.2257618;-0.9402565;-0.2548476;0.001385042;0;-3;-1;-1915;-1611;3227;0.6843447;1.743677;2.321177;0.6842276;1.732997;1.775735;0.6841024;1.721587;1.296331;0.6841002;1.721812;0.5625311;0.425619;1.682346;0.2363748;0.08397005;1.743557;0.3766184;-0.2106226;0.8670912;0.3187278;0;0;0;0.945955;1.685223;0.2363715;1.234522;1.74992;0.3766119;1.470834;0.8322096;0.5505034;1.52472;-0.06416225;0.2481765;0.3725151;1.740336;2.366821;0.756601;0.348701;2.128727;0.2151958;0.9695098;3.19353;0.3725151;1.740336;2.366821;0.756601;0.348701;2.128727;0.2151958;0.9695098;3.19353
712359.0428;NotLabelled;NONE;16384;0.7395591;-0.6218836;0.2520775;0.05263158;1;3;2;-818;3962;857;65536;0.7843201;-0.5872576;-0.01385042;0.199446;4;0;3;-1294;3815;-963;8192;0.5761772;-0.613059;-0.4736842;-0.2603878;-1;2;-2;1322;3969;709;32768;0.6941118;-0.4695291;-0.3504155;-0.4182825;0;0;1;998;3875;-854;256;-0.0567867;0.001385042;-0.9983844;0.001385042;0;0;0;-19;-28;4101;128;0.1412742;-0.05263158;0.9821839;0.1121884;-1;1;0;253;923;-4106;4;0.5914127;-0.6111943;0.2451524;0.4653739;-1;2;2;1099;3880;-724;16;-0.2520775;-0.9329938;-0.01800554;-0.2562327;0;0;-1;-777;-1898;3612;2;0.365651;-0.4626039;-0.6102173;-0.5290859;-1;-3;0;745;4024;83;8;-0.2257618;-0.9406319;-0.2534626;0;-3;-2;0;-1979;-1867;3315;0.6837848;1.742005;2.325838;0.6836677;1.731325;1.780396;0.6835423;1.719915;1.300992;0.6835421;1.720027;0.5671918;0.4249535;1.681226;0.2410414;0.08347488;1.743404;0.3812748;-0.2106236;0.8670924;0.318727;0;0;0;0.9452954;1.682664;0.2410381;1.23404;1.746585;0.3812697;1.469866;0.8281634;0.5520428;1.525191;-0.06722438;0.2470728;0.3719553;1.738665;2.371482;0.7560419;0.3470292;2.133389;0.2146337;0.9678376;3.19819;0.3719553;1.738665;2.371482;0.7560419;0.3470292;2.133389;0.2146337;0.9678376;3.19819
712380.0498;NotLabelled;NONE;16384;0.7400296;-0.6218836;0.2506925;0.05263158;0;2;3;-1048;3950;985;65536;0.7843201;-0.5872576;-0.01385042;0.199446;1;0;2;-1246;3763;-1005;8192;0.5761772;-0.6119863;-0.4750692;-0.2603878;-2;3;0;1034;3871;539;32768;0.6941118;-0.4695291;-0.3504155;-0.4182825;0;0;1;1074;3883;-838;256;-0.0567867;0.001385042;-0.9983854;0;0;0;0;-55;52;4083;128;0.1412742;-0.05263158;0.9821839;0.1121884;0;-1;-1;321;981;-4074;4;0.5927978;-0.610406;0.2437673;0.4653739;-1;0;1;1097;3888;-672;16;-0.2520775;-0.9329938;-0.01800554;-0.2562327;0;0;-1;-681;-1954;3586;2;0.367036;-0.4639889;-0.6095331;-0.5277008;0;-3;0;769;4016;79;8;-0.2257618;-0.9406319;-0.2534626;0;-3;3;1;-1959;-1879;3219;0.6858552;1.745649;2.322425;0.6857385;1.735023;1.776982;0.6856138;1.72366;1.297577;0.6856191;1.721746;0.5637791;0.4270391;1.682003;0.2377353;0.08554956;1.744515;0.3777935;-0.2076857;0.8676442;0.3191518;0;0;0;0.9473808;1.683524;0.2377322;1.236114;1.747877;0.3777882;1.472412;0.8294553;0.5479077;1.526892;-0.06593227;0.242785;0.3740255;1.742303;2.368069;0.7574511;0.3506685;2.128912;0.2189953;0.9714772;3.195209;0.3740255;1.742303;2.368069;0.7574511;0.3506685;2.128912;0.2189953;0.9714772;3.195209
712401.1831;NotLabelled;NONE;16384;0.7400296;-0.6218836;0.2506925;0.05263158;0;-3;4;-1138;3878;1151;65536;0.7857057;-0.5858725;-0.01385042;0.1980609;0;0;2;-1316;3697;-1007;8192;0.5775623;-0.6100869;-0.4750692;-0.2617728;-2;-1;0;956;3881;437;32768;0.6941118;-0.4695291;-0.3504155;-0.4182825;0;-2;0;1050;3961;-840;256;-0.0567867;0.001385042;-0.9983854;0;0;0;0;-75;88;3993;128;0.1412742;-0.05263158;0.9821839;0.1121884;0;-1;-1;367;1105;-4010;4;0.5927978;-0.610406;0.2437673;0.4653739;-1;0;2;977;3918;-686;16;-0.2520775;-0.9329938;-0.01800554;-0.2562327;0;-1;-2;-767;-1842;3548;2;0.367036;-0.4653739;-0.6084763;-0.5277008;2;-8;2;795;4058;125;8;-0.2271468;-0.9399239;-0.2548476;0;-1;7;4;-1971;-1983;3047;0.6843385;1.743418;2.323831;0.684222;1.732792;1.778387;0.6840975;1.72143;1.298982;0.6840972;1.721545;0.5651824;0.4255084;1.682745;0.2390318;0.08402976;1.744923;0.3792652;-0.2076848;0.8676438;0.3191528;0;0;0;0.9458504;1.684183;0.2390287;1.234595;1.748103;0.3792601;1.47295;0.8301685;0.5491378;1.527429;-0.06521928;0.2440153;0.3725088;1.740073;2.369474;0.7557224;0.3492143;2.12551;0.2172709;0.9700222;3.191809;0.3725088;1.740073;2.369474;0.7557224;0.3492143;2.12551;0.2172709;0.9700222;3.191809
712423.2022;NotLabelled;NONE;16384;0.7411914;-0.6204986;0.2506925;0.05263158;-1;0;0;-798;3734;1007;65536;0.7857057;-0.5858725;-0.01385042;0.1980609;1;0;0;-1402;3805;-865;8192;0.5775623;-0.6111628;-0.4736842;-0.2617728;-1;-5;0;920;3973;489;32768;0.6941118;-0.4695291;-0.3504155;-0.4182825;0;-1;0;1046;3883;-804;256;-0.0567867;0.001385042;-0.9983854;0;0;0;0;-53;102;3981;128;0.1412742;-0.05263158;0.9821839;0.1121884;-1;1;0;273;1051;-3914;4;0.5927978;-0.610406;0.2437673;0.4653739;-1;0;1;975;3896;-722;16;-0.2520775;-0.9333731;-0.01800554;-0.2548476;0;0;-2;-759;-1860;3546;2;0.367036;-0.466759;-0.6086151;-0.5263157;2;-9;4;725;4074;97;8;-0.2271468;-0.9395473;-0.2562327;0;-2;11;6;-1927;-2329;3109;0.6866998;1.742935;2.326661;0.6865833;1.732308;1.781217;0.6864587;1.720946;1.301812;0.6864584;1.721061;0.5680121;0.4278697;1.682261;0.2418615;0.08639109;1.744439;0.3820949;-0.2053235;0.8671601;0.3219824;0;0;0;0.9482117;1.683699;0.2418584;1.236956;1.74762;0.3820897;1.475389;0.8288808;0.5474521;1.529867;-0.06650698;0.2423289;0.3748702;1.739589;2.372303;0.7580837;0.3487306;2.128339;0.2196322;0.9695385;3.194639;0.3748702;1.739589;2.372303;0.7580837;0.3487306;2.128339;0.2196322;0.9695385;3.194639
712443.2648;NotLabelled;NONE;16384;0.7416584;-0.6204986;0.2493075;0.05263158;0;4;0;-924;3812;919;65536;0.7857057;-0.5858725;-0.01385042;0.1980609;1;0;1;-1366;3797;-939;8192;0.5775623;-0.6117542;-0.4736842;-0.2603878;1;7;0;1270;3841;525;32768;0.6941118;-0.4695291;-0.3504155;-0.4182825;1;3;2;1040;3895;-904;256;-0.0567867;0.001385042;-0.9983854;0;0;0;0;-61;52;4039;128;0.1412742;-0.05263158;0.9820247;0.1135734;-1;1;0;285;983;-3922;4;0.5927978;-0.610406;0.2437673;0.4653739;-2;0;0;1055;3918;-728;16;-0.2520775;-0.9333731;-0.01800554;-0.2548476;0;0;-3;-737;-1916;3522;2;0.368421;-0.468144;-0.6067115;-0.5263157;0;-4;5;815;4136;91;8;-0.2285319;-0.9384512;-0.2590028;0;-2;9;5;-2227;-2519;3267;0.6877317;1.742373;2.329752;0.6876152;1.731747;1.784308;0.6874905;1.720384;1.304904;0.6874903;1.720499;0.5711037;0.4289016;1.681699;0.244953;0.08742297;1.743877;0.3851864;-0.2053237;0.8671598;0.3219827;0;0;0;0.9492437;1.683137;0.2449499;1.237988;1.747058;0.3851812;1.474356;0.8278296;0.5507854;1.528835;-0.06755829;0.245663;0.3759021;1.739027;2.375395;0.7591156;0.3481688;2.131431;0.2240781;0.9693017;3.199259;0.3759021;1.739027;2.375395;0.7591156;0.3481688;2.131431;0.2240781;0.9693017;3.199259
712464.0438;NotLabelled;NONE;16384;0.7416584;-0.6204986;0.2493075;0.05263158;1;2;0;-988;3926;897;65536;0.7857057;-0.5858725;-0.01385042;0.1980609;0;0;1;-1332;3741;-955;8192;0.5775623;-0.6100869;-0.4750692;-0.2617728;1;5;0;966;3991;583;32768;0.6950467;-0.468144;-0.3504155;-0.4182825;0;1;0;1150;3871;-878;256;-0.0567867;0.001385042;-0.9983854;0;2;0;0;-89;16;3933;128;0.1412742;-0.05263158;0.9820247;0.1135734;-1;-1;0;313;1033;-3946;4;0.5927978;-0.609851;0.2451524;0.4653739;-1;-3;0;1079;3854;-724;16;-0.2520775;-0.9333988;-0.0166205;-0.2548476;0;-1;-4;-637;-1908;3640;2;0.367036;-0.468144;-0.6087475;-0.5249307;0;-1;8;919;4056;-27;8;-0.2285319;-0.9380679;-0.2603878;0;-4;9;3;-2121;-2247;3151;0.686169;1.739944;2.331285;0.6860691;1.730825;1.785815;0.685959;1.720787;1.30638;0.6859586;1.720902;0.5725801;0.4273699;1.682103;0.2464291;0.08589127;1.74428;0.3866628;-0.2053242;0.8671603;0.3219821;0;0;0;0.9477119;1.68354;0.2464266;1.236456;1.747461;0.3866581;1.474308;0.828841;0.5535094;1.528787;-0.06654739;0.2483867;0.374338;1.736472;2.37691;0.7575518;0.345614;2.132945;0.2225145;0.9667466;3.200773;0.374338;1.736472;2.37691;0.7575518;0.345614;2.132945;0.2225145;0.9667466;3.200773
712484.2131;NotLabelled;NONE;16384;0.7416584;-0.6204986;0.2493075;0.05263158;0;-1;2;-1032;3906;1031;65536;0.7857289;-0.5858725;-0.01246537;0.1980609;0;0;1;-1328;3837;-983;8192;0.5775623;-0.6100869;-0.4750692;-0.2617728;0;-1;0;836;4015;651;32768;0.6942112;-0.468144;-0.3504155;-0.4196676;-1;-1;0;1116;3885;-886;256;-0.0567867;0.001385042;-0.9983854;0;3;-1;0;-81;20;3991;128;0.1412742;-0.05263158;0.9820247;0.1135734;-1;-3;0;387;995;-3828;4;0.5927978;-0.609851;0.2451524;0.4653739;0;-2;0;1133;3874;-668;16;-0.2520775;-0.9337759;-0.0166205;-0.2534626;0;-3;-4;-627;-1886;3666;2;0.365651;-0.4722992;-0.6087537;-0.5221606;0;0;15;853;4052;87;8;-0.2299169;-0.9369558;-0.2631579;0;0;7;5;-2059;-1593;2779;0.6861719;1.739944;2.331275;0.6860719;1.730824;1.785804;0.6859618;1.720786;1.306369;0.6859614;1.720902;0.5725694;0.4273727;1.682102;0.2464185;0.08589411;1.74428;0.3866522;-0.2053238;0.8671602;0.3219822;0;0;0;0.9477148;1.68354;0.2464159;1.236459;1.74746;0.3866472;1.474892;0.8287216;0.5520092;1.5308;-0.06567442;0.2442466;0.3743408;1.736472;2.376899;0.7544163;0.3446902;2.133292;0.2202956;0.9667903;3.201016;0.3743408;1.736472;2.376899;0.7544163;0.3446902;2.133292;0.2202956;0.9667903;3.201016
712506.0558;NotLabelled;NONE;16384;0.7416584;-0.6204986;0.2493075;0.05263158;0;-4;2;-994;3848;1149;65536;0.7857289;-0.5858725;-0.01246537;0.1980609;0;-1;0;-1424;3719;-1005;8192;0.5775623;-0.6111628;-0.4736842;-0.2617728;0;-3;0;1028;3861;605;32768;0.6950467;-0.468144;-0.3504155;-0.4182825;-1;-1;1;976;3863;-870;256;-0.0567867;0.001385042;-0.9983854;0;4;-1;0;11;130;3977;128;0.1412742;-0.05263158;0.9820247;0.1135734;-2;-3;0;365;1085;-3914;4;0.5927978;-0.609851;0.2451524;0.4653739;-1;0;0;1133;3860;-714;16;-0.2520775;-0.9337759;-0.0166205;-0.2534626;0;-1;-4;-699;-1898;3556;2;0.3642659;-0.4736842;-0.6096937;-0.5207756;-3;3;14;739;4138;77;8;-0.2285319;-0.9369046;-0.2645429;0;1;4;6;-2009;-1533;2897;0.6882281;1.740489;2.331109;0.6881282;1.73137;1.785639;0.6880181;1.721332;1.306204;0.6880176;1.721448;0.5724041;0.429429;1.682647;0.2462532;0.08795035;1.744825;0.3864868;-0.2032675;0.8677056;0.321817;0;0;0;0.9497711;1.684085;0.2462506;1.238515;1.748005;0.3864819;1.476948;0.829267;0.5518439;1.531083;-0.06530714;0.2442832;0.3763971;1.737017;2.376734;0.7564725;0.3452356;2.133127;0.2257695;0.9676538;3.202368;0.3763971;1.737017;2.376734;0.7564725;0.3452356;2.133127;0.2257695;0.9676538;3.202368
712527.0458;NotLabelled;NONE;16384;0.7427155;-0.6191136;0.2493075;0.05401662;0;1;0;-808;3830;935;65536;0.7857289;-0.5858725;-0.01246537;0.1980609;-1;1;0;-1236;3761;-939;8192;0.5775623;-0.6111628;-0.4736842;-0.2617728;0;-2;1;1296;3851;579;32768;0.6941118;-0.4695291;-0.3504155;-0.4182825;-1;-1;1;938;3969;-816;256;-0.0567867;0.001385042;-0.9983844;-0.001385042;2;-1;0;-47;32;3989;128;0.1412742;-0.05124654;0.9819368;0.1149584;-2;-4;0;205;929;-4086;4;0.5927978;-0.609851;0.2451524;0.4653739;0;2;0;1129;3892;-728;16;-0.2520775;-0.9337759;-0.0166205;-0.2534626;0;0;-3;-635;-1848;3540;2;0.3642659;-0.4736842;-0.610874;-0.5193906;-5;4;12;641;4058;101;8;-0.2271468;-0.9368483;-0.265928;-0.001385042;1;0;5;-2063;-1421;3079;0.6882281;1.740489;2.331109;0.6881282;1.73137;1.785639;0.6880181;1.721332;1.306204;0.6880176;1.721448;0.5724041;0.429429;1.682647;0.2462532;0.08795035;1.744825;0.3864868;-0.2032675;0.8677056;0.321817;0;0;0;0.9497711;1.684085;0.2462506;1.238515;1.748005;0.3864819;1.474883;0.8287771;0.5520858;1.530791;-0.06561828;0.244323;0.3763971;1.737017;2.376734;0.7564725;0.3452356;2.133127;0.2257695;0.9676538;3.202368;0.3763971;1.737017;2.376734;0.7564725;0.3452356;2.133127;0.2257695;0.9676538;3.202368
712547.1943;NotLabelled;NONE;16384;0.7432784;-0.6191136;0.2479224;0.05263158;0;3;-1;-1008;3894;1025;65536;0.7857289;-0.5858725;-0.01246537;0.1980609;0;1;0;-1314;3773;-921;8192;0.5775623;-0.6117542;-0.4736842;-0.2603878;0;0;0;1108;3911;257;32768;0.6948093;-0.4695291;-0.3490305;-0.4182825;0;1;1;1076;3885;-728;256;-0.05817174;0.001385042;-0.9983018;-0.002770083;3;-1;0;-75;16;3981;128;0.1412742;-0.05124654;0.9819368;0.1149584;-1;-6;0;337;869;-4020;4;0.5941828;-0.6085016;0.2451524;0.4653739;0;2;0;991;3878;-720;16;-0.2506925;-0.9345469;-0.01523546;-0.2520775;0;-1;-1;-529;-1880;3586;2;0.3628809;-0.4736842;-0.6128711;-0.5180055;-5;2;9;631;3948;105;8;-0.2271468;-0.9368483;-0.265928;-0.001385042;1;0;3;-2173;-1279;3149;0.6876519;1.73557;2.332266;0.6875657;1.727722;1.786776;0.6874679;1.718801;1.307319;0.6874393;1.720945;0.5735221;0.428832;1.683089;0.2472757;0.08736864;1.744932;0.3876939;-0.2032564;0.8677049;0.3218243;0;0;0;0.949174;1.684445;0.2472563;1.237934;1.747931;0.3876527;1.474318;0.8290913;0.555375;1.528786;-0.0662967;0.2502504;0.3758198;1.731993;2.377875;0.7558868;0.3402102;2.134255;0.2252211;0.9626288;3.203515;0.3758198;1.731993;2.377875;0.7558868;0.3402102;2.134255;0.2252211;0.9626288;3.203515
712568.0303;NotLabelled;NONE;16384;0.7432784;-0.6191136;0.2479224;0.05263158;-1;0;0;-1040;3876;1079;65536;0.7857289;-0.5858725;-0.01246537;0.1980609;0;0;0;-1374;3765;-891;8192;0.5775623;-0.6117542;-0.4736842;-0.2603878;1;0;0;876;3915;351;32768;0.6939736;-0.4695291;-0.3490305;-0.4196676;1;0;0;1134;3923;-836;256;-0.05817174;0.001385042;-0.9983018;-0.002770083;2;-1;0;-43;-88;4133;128;0.1412742;-0.04986149;0.9820082;0.1149584;1;-8;-1;369;849;-4062;4;0.5941828;-0.6085016;0.2451524;0.4653739;0;0;1;989;3874;-740;16;-0.2506925;-0.9345469;-0.01523546;-0.2520775;0;0;0;-527;-1878;3542;2;0.3628809;-0.4736842;-0.6140392;-0.5166205;-5;0;4;529;3982;-17;8;-0.2257618;-0.9367858;-0.267313;-0.002770083;2;4;3;-2069;-1089;3093;0.6887836;1.732641;2.335298;0.6886974;1.724793;1.789807;0.6885995;1.715872;1.310351;0.6885891;1.720048;0.5765629;0.4299835;1.683137;0.2502062;0.0885268;1.744648;0.3907871;-0.202372;0.8677059;0.3223816;0;0;0;0.950326;1.684407;0.2502029;1.239093;1.747458;0.3907818;1.477414;0.828838;0.5569617;1.52948;-0.06607318;0.2500235;0.3769513;1.729063;2.380906;0.7529772;0.3371552;2.131794;0.2296159;0.9576148;3.205783;0.3769513;1.729063;2.380906;0.7529772;0.3371552;2.131794;0.2296159;0.9576148;3.205783
712588.1351;NotLabelled;NONE;16384;0.742815;-0.6191136;0.2493075;0.05263158;0;-3;0;-986;3906;731;65536;0.7846942;-0.5872576;-0.01246537;0.1980609;0;0;0;-1390;3739;-901;8192;0.5775623;-0.6111628;-0.4736842;-0.2617728;1;-3;-1;1096;3951;489;32768;0.6939736;-0.4695291;-0.3490305;-0.4196676;0;-1;0;956;3907;-790;256;-0.05817174;0.001385042;-0.9983018;-0.002770083;3;0;0;29;-30;4165;128;0.1412742;-0.04847645;0.9820775;0.1149584;-1;-3;0;345;875;-4016;4;0.5941828;-0.6085016;0.2451524;0.4653739;0;0;1;1029;3950;-764;16;-0.2506925;-0.9345685;-0.01385042;-0.2520775;0;-2;0;-557;-1828;3590;2;0.365651;-0.4736842;-0.6135594;-0.5152354;-3;-2;-2;623;3968;19;8;-0.2229917;-0.9374491;-0.267313;-0.002770083;1;-3;-2;-1969;-1181;3329;0.6887896;1.733083;2.335289;0.6887009;1.724999;1.789802;0.6886007;1.715871;1.310349;0.6885902;1.720047;0.576561;0.4299846;1.683137;0.2502046;0.08852805;1.744647;0.3907857;-0.2023713;0.8677053;0.3223815;0;0;0;0.9503272;1.684406;0.2502013;1.239094;1.747457;0.3907802;1.477416;0.8288374;0.5569588;1.527708;-0.06624579;0.2502277;0.3769577;1.729525;2.3809;0.7529831;0.3376174;2.131788;0.2296221;0.9580762;3.205776;0.3769577;1.729525;2.3809;0.7529831;0.3376174;2.131788;0.2296221;0.9580762;3.205776
712610.0533;NotLabelled;NONE;16384;0.742815;-0.6191136;0.2493075;0.05263158;0;-1;0;-918;3822;761;65536;0.7846942;-0.5872576;-0.01246537;0.1980609;1;0;-1;-1328;3813;-969;8192;0.5775623;-0.6128241;-0.4722992;-0.2603878;0;0;-1;1288;3925;559;32768;0.6939736;-0.4695291;-0.3490305;-0.4196676;0;1;0;1036;3909;-906;256;-0.05817174;0.001385042;-0.9983018;-0.002770083;2;1;0;75;32;4085;128;0.1412742;-0.04847645;0.9820775;0.1149584;0;-2;0;223;923;-4160;4;0.5941828;-0.6085016;0.2451524;0.4653739;0;1;1;1051;3920;-772;16;-0.2506925;-0.9341938;-0.01385042;-0.2534626;0;-2;1;-623;-1880;3538;2;0.365651;-0.4736842;-0.6123937;-0.5166205;0;0;-5;687;3882;-99;8;-0.2216066;-0.9381742;-0.265928;-0.001385042;0;-3;-5;-1901;-1255;3205;0.689477;1.734039;2.330818;0.6893857;1.72572;1.785334;0.6892832;1.716385;1.305885;0.6892728;1.720562;0.5720972;0.4306671;1.683651;0.2457407;0.08921054;1.745161;0.3863215;-0.2032211;0.8686165;0.3193799;0;0;0;0.9510096;1.684921;0.2457374;1.239777;1.747971;0.3863161;1.476605;0.8287426;0.551262;1.526896;-0.06634068;0.2445303;0.3776453;1.7305;2.376432;0.7536706;0.3385924;2.127319;0.2312239;0.9600059;3.201201;0.3776453;1.7305;2.376432;0.7536706;0.3385924;2.127319;0.2312239;0.9600059;3.201201
712652.0539;NotLabelled;NONE;16384;0.7429118;-0.6191136;0.2493075;0.05124654;-3;0;0;-948;3868;1029;65536;0.7857057;-0.5858725;-0.01385042;0.1980609;2;0;-1;-1490;3745;-871;8192;0.5789474;-0.6115159;-0.4722992;-0.2603878;0;-9;0;1124;3763;365;32768;0.6939736;-0.4695291;-0.3490305;-0.4196676;2;0;2;942;3979;-714;256;-0.0567867;0.001385042;-0.9983816;-0.002770083;-1;0;-1;-45;-22;4099;128;0.1412742;-0.04709141;0.9821449;0.1149584;0;-2;1;309;933;-4032;4;0.5955678;-0.6077035;0.2437673;0.4653739;0;0;2;973;3940;-688;16;-0.2506925;-0.9341938;-0.01385042;-0.2534626;0;-2;0;-663;-1870;3572;2;0.367036;-0.4722992;-0.6114641;-0.5180055;1;0;-8;617;3866;-19;8;-0.2216066;-0.938956;-0.2631579;0;1;-7;-7;-1875;-1643;3149;0.689477;1.734038;2.330818;0.6893857;1.72572;1.785334;0.6892832;1.716385;1.305885;0.6892728;1.720562;0.5720972;0.4306671;1.683651;0.2457407;0.08921054;1.745162;0.3863215;-0.2032211;0.8686165;0.3193799;0;0;0;0.9510096;1.68492;0.2457374;1.239777;1.747971;0.3863161;1.47604;0.8288645;0.5527432;1.526332;-0.06621873;0.2460116;0.3776453;1.7305;2.376432;0.7536706;0.3385924;2.127319;0.2277974;0.9597012;3.199704;0.3776453;1.7305;2.376432;0.7536706;0.3385924;2.127319;0.2277974;0.9597012;3.199704
712673.0411;NotLabelled;NONE;16384;0.7429118;-0.6191136;0.2493075;0.05124654;0;-1;1;-878;3888;777;65536;0.7857289;-0.5858725;-0.01246537;0.1980609;3;0;0;-1314;3781;-1005;8192;0.5789474;-0.6115159;-0.4722992;-0.2603878;1;0;0;1364;3901;349;32768;0.6946684;-0.4695291;-0.3476454;-0.4196676;2;2;2;1068;3859;-842;256;-0.0567867;0.001385042;-0.9983816;-0.002770083;-1;0;-2;29;-26;4057;128;0.1412742;-0.04709141;0.9821449;0.1149584;-1;0;1;337;891;-4088;4;0.5955678;-0.6077035;0.2437673;0.4653739;-2;0;2;1001;3882;-692;16;-0.2506925;-0.9342133;-0.01246537;-0.2534626;0;-1;0;-617;-1838;3594;2;0.368421;-0.4722992;-0.6106306;-0.5180055;2;-2;-9;745;3942;-21;8;-0.2216066;-0.9393431;-0.2617728;0;0;-9;-7;-1931;-1739;3155;0.68882;1.732501;2.334038;0.688726;1.723948;1.788558;0.6886212;1.714408;1.309114;0.6886107;1.718582;0.5753255;0.4300052;1.681668;0.2489689;0.08854815;1.743176;0.3895496;-0.2053212;0.8671603;0.3219842;0;0;0;0.9503477;1.682942;0.2489659;1.239114;1.745995;0.3895444;1.476472;0.8266983;0.553342;1.527615;-0.06838536;0.2467518;0.3769885;1.728982;2.379656;0.7534882;0.3378856;2.126758;0.2246418;0.9589944;3.19768;0.3769885;1.728982;2.379656;0.7534882;0.3378856;2.126758;0.2246418;0.9589944;3.19768
712693.1001;NotLabelled;NONE;16384;0.742815;-0.6191136;0.2493075;0.05263158;0;-1;2;-912;3918;823;65536;0.7867597;-0.5844875;-0.01246537;0.1980609;3;0;0;-1300;3777;-943;8192;0.5789474;-0.6115159;-0.4722992;-0.2603878;-1;3;1;976;4019;531;32768;0.6956026;-0.468144;-0.3476454;-0.4196676;0;0;2;1044;3853;-908;256;-0.0567867;0.001385042;-0.9983816;-0.002770083;0;0;-1;-93;-102;4093;128;0.1412742;-0.04709141;0.9821449;0.1149584;-1;3;2;249;859;-4032;4;0.5955678;-0.6071461;0.2451524;0.4653739;-2;-2;2;977;3876;-706;16;-0.2506925;-0.9342133;-0.01246537;-0.2534626;0;-1;0;-657;-1928;3542;2;0.3698061;-0.4722992;-0.6074288;-0.5207756;5;-2;-9;923;3970;-31;8;-0.2229917;-0.9397821;-0.2590028;0.001385042;0;-4;-8;-1929;-1859;3283;0.6908737;1.733047;2.333876;0.6907799;1.724494;1.788395;0.6906753;1.714953;1.30895;0.6906655;1.719127;0.5751622;0.4320603;1.682214;0.2488057;0.09060298;1.743721;0.3893861;-0.2032657;0.8677051;0.3218186;0;0;0;0.9524027;1.683487;0.2488031;1.241169;1.74654;0.3893818;1.478526;0.8272433;0.5531813;1.528107;-0.06735671;0.2449288;0.3790421;1.729528;2.379493;0.7555422;0.3384309;2.126596;0.2276102;0.9604988;3.197412;0.3790421;1.729528;2.379493;0.7555422;0.3384309;2.126596;0.2276102;0.9604988;3.197412
712714.041;NotLabelled;NONE;16384;0.7432784;-0.6191136;0.2479224;0.05263158;-1;-2;0;-920;3882;1083;65536;0.7867365;-0.5844875;-0.01385042;0.1980609;2;3;-1;-1260;3755;-1015;8192;0.5789474;-0.6115159;-0.4722992;-0.2603878;-2;-1;0;992;4041;583;32768;0.6956026;-0.468144;-0.3476454;-0.4196676;0;-3;0;1096;3879;-884;256;-0.0567867;0.001385042;-0.9983816;-0.002770083;0;0;-1;-23;94;4027;128;0.1412742;-0.04847645;0.9820775;0.1149584;0;0;1;217;953;-4046;4;0.5955678;-0.6071461;0.2451524;0.4653739;-2;0;2;1009;3906;-662;16;-0.2506925;-0.9342133;-0.01246537;-0.2534626;0;-1;-1;-621;-1882;3578;2;0.3711911;-0.4722992;-0.6065834;-0.5207756;5;0;-8;761;4002;-17;8;-0.2229917;-0.9401597;-0.2576177;0.002770083;0;-3;-8;-1831;-1997;3251;0.6900917;1.732655;2.337056;0.6899977;1.724102;1.791576;0.6898929;1.714562;1.312131;0.6898825;1.718736;0.5783433;0.431277;1.681822;0.2519867;0.08981991;1.74333;0.3925674;-0.2024248;0.8667848;0.3248147;0;0;0;0.9516194;1.683096;0.2519837;1.240386;1.746149;0.3925622;1.477743;0.8268521;0.5563611;1.528751;-0.06675422;0.2454686;0.3782603;1.729136;2.382673;0.7516073;0.3371243;2.130135;0.2236765;0.9591918;3.200953;0.3782603;1.729136;2.382673;0.7516073;0.3371243;2.130135;0.2236765;0.9591918;3.200953
712735.0368;NotLabelled;NONE;16384;0.7439672;-0.6177285;0.2493075;0.05263158;-4;0;0;-920;3832;1187;65536;0.7870839;-0.5844875;-0.01385042;0.1966759;2;0;-1;-1270;3757;-935;8192;0.5803324;-0.6107908;-0.4722992;-0.2590028;-3;-6;0;1106;3839;609;32768;0.6956026;-0.468144;-0.3476454;-0.4196676;1;-2;1;854;3997;-814;256;-0.0567867;0.001385042;-0.9983816;-0.002770083;-2;0;-1;45;126;4021;128;0.1412742;-0.04847645;0.9820775;0.1149584;0;1;1;259;1033;-4066;4;0.5955678;-0.6077035;0.2437673;0.4653739;-2;0;3;1025;3884;-702;16;-0.2506925;-0.9342133;-0.01246537;-0.2534626;0;-3;0;-629;-1884;3608;2;0.3711911;-0.4709141;-0.6064695;-0.5221606;7;2;-7;769;4020;105;8;-0.2243767;-0.9402086;-0.2562327;0.002770083;-2;-5;-8;-1807;-1983;3153;0.6864994;1.732097;2.338305;0.6864082;1.723778;1.792821;0.6863058;1.714443;1.313373;0.6862909;1.718617;0.5795846;0.4276835;1.681703;0.2532296;0.08622725;1.743212;0.3938125;-0.2044816;0.8662403;0.3249816;0;0;0;0.9480259;1.682978;0.2532237;1.236793;1.74603;0.3938004;1.474153;0.8268042;0.5579895;1.525159;-0.06680214;0.2470971;0.3746676;1.728559;2.383919;0.7480135;0.3365471;2.13138;0.2200888;0.9586146;3.202199;0.3746676;1.728559;2.383919;0.7480135;0.3365471;2.13138;0.2200888;0.9586146;3.202199
712756.0415;NotLabelled;NONE;16384;0.7439672;-0.6177285;0.2493075;0.05263158;-1;-1;0;-894;3782;999;65536;0.7870839;-0.5844875;-0.01385042;0.1966759;2;0;0;-1384;3741;-1031;8192;0.5803324;-0.6118593;-0.4709141;-0.2590028;0;0;0;1154;3863;399;32768;0.6956026;-0.468144;-0.3476454;-0.4196676;2;2;1;1082;3895;-754;256;-0.0567867;0.001385042;-0.9983816;-0.002770083;-1;0;-1;-7;126;4069;128;0.1412742;-0.04847645;0.9820775;0.1149584;0;0;1;251;983;-3978;4;0.5969529;-0.6052774;0.2437673;0.466759;-2;-2;3;995;3914;-618;16;-0.2493075;-0.9346014;-0.01108033;-0.2534626;0;-1;-2;-639;-1906;3584;2;0.3711911;-0.4709141;-0.6052743;-0.5235457;7;1;-7;839;4128;87;8;-0.2257618;-0.9402484;-0.2548476;0.004155125;-2;-8;-5;-1817;-2121;3149;0.6905651;1.731506;2.340135;0.6904739;1.723187;1.794652;0.6903715;1.713852;1.315203;0.6903615;1.718026;0.5814147;0.4317564;1.681112;0.2550584;0.09029928;1.742621;0.3956389;-0.2029685;0.8666608;0.3248069;0;0;0;0.9520988;1.682386;0.2550555;1.240865;1.745439;0.3956342;1.48127;0.82657;0.5573741;1.532278;-0.06703615;0.2464816;0.3787334;1.727968;2.38575;0.755233;0.3368707;2.132853;0.2273013;0.9589381;3.20367;0.3787334;1.727968;2.38575;0.755233;0.3368707;2.132853;0.2273013;0.9589381;3.20367
712776.3145;NotLabelled;NONE;16384;0.7439672;-0.6177285;0.2493075;0.05263158;-1;-1;2;-766;3906;921;65536;0.7881106;-0.5831025;-0.01385042;0.1966759;2;1;0;-1372;3715;-1001;8192;0.5803324;-0.6118593;-0.4709141;-0.2590028;0;2;0;1102;3947;561;32768;0.6956026;-0.468144;-0.3476454;-0.4196676;1;1;1;1062;3889;-924;256;-0.0567867;0.001385042;-0.9983816;-0.002770083;0;0;-1;-27;0;4023;128;0.1412742;-0.04847645;0.9820775;0.1149584;0;-1;1;225;921;-3964;4;0.5969529;-0.6052774;0.2437673;0.466759;-2;-1;2;1127;3862;-606;16;-0.2493075;-0.9346014;-0.01108033;-0.2534626;0;-2;-2;-591;-1902;3584;2;0.3711911;-0.4709141;-0.6040735;-0.5249307;7;1;-6;967;4250;141;8;-0.2257618;-0.9409949;-0.2520775;0.004155125;-3;-9;0;-1847;-2133;3125;0.6905651;1.731506;2.340135;0.6904739;1.723187;1.794652;0.6903715;1.713852;1.315203;0.6903615;1.718026;0.5814147;0.4317564;1.681112;0.2550584;0.09029928;1.742621;0.3956389;-0.2029685;0.8666608;0.3248069;0;0;0;0.9520988;1.682387;0.2550555;1.240865;1.745439;0.3956342;1.479208;0.8260756;0.5576152;1.530216;-0.06753039;0.2467231;0.3787334;1.727967;2.38575;0.7524297;0.3376575;2.124505;0.2254162;0.9574468;3.197094;0.3787334;1.727967;2.38575;0.7524297;0.3376575;2.124505;0.2254162;0.9574468;3.197094
712797.4763;NotLabelled;NONE;16384;0.7444299;-0.6177285;0.2479224;0.05263158;0;0;2;-884;3892;911;65536;0.7881106;-0.5831025;-0.01385042;0.1966759;2;0;0;-1324;3797;-967;8192;0.5803324;-0.6118593;-0.4709141;-0.2590028;-2;0;0;1018;4049;679;32768;0.6965327;-0.466759;-0.3476454;-0.4196676;0;-2;1;948;3879;-850;256;-0.0567867;0.001385042;-0.9983816;-0.002770083;0;0;0;-25;40;4027;128;0.1412742;-0.04847645;0.9820775;0.1149584;0;-2;0;275;965;-4032;4;0.5969529;-0.6052774;0.2437673;0.466759;-1;0;2;1151;3888;-634;16;-0.2493075;-0.9346167;-0.009695291;-0.2534626;0;-2;-2;-647;-1882;3588;2;0.3698061;-0.4709141;-0.6037177;-0.5263157;3;2;-4;923;4170;205;8;-0.2285319;-0.940331;-0.2520775;0.002770083;-8;2;9;-1979;-2127;3115;0.6914006;1.730575;2.343123;0.6913092;1.722256;1.79764;0.6912065;1.712921;1.318191;0.691196;1.717095;0.5844032;0.4325906;1.680181;0.2580469;0.09113364;1.74169;0.398628;-0.2021344;0.8657299;0.3277968;0;0;0;0.9529329;1.681455;0.2580436;1.241699;1.744508;0.3986217;1.480042;0.8251444;0.5606028;1.53105;-0.06846142;0.24971;0.3795689;1.727036;2.388738;0.7532648;0.3367263;2.127493;0.2262523;0.956515;3.200082;0.3795689;1.727036;2.388738;0.7532648;0.3367263;2.127493;0.2262523;0.956515;3.200082
712839.0644;NotLabelled;NONE;16384;0.745478;-0.6163435;0.2479224;0.05401662;0;-1;0;-974;3746;1079;65536;0.7881106;-0.5831025;-0.01385042;0.1966759;1;2;-1;-1264;3699;-1059;8192;0.5817174;-0.6105426;-0.4709141;-0.2590028;-3;-5;-1;1166;3839;649;32768;0.6965327;-0.466759;-0.3476454;-0.4196676;0;0;2;1020;3887;-812;256;-0.0567867;0.001385042;-0.9983816;-0.002770083;0;0;0;-57;134;4027;128;0.1412742;-0.04847645;0.9820775;0.1149584;-1;0;0;313;1039;-4002;4;0.5969529;-0.6052774;0.2437673;0.466759;0;1;2;1129;3820;-644;16;-0.2493075;-0.9349759;-0.01108033;-0.2520775;0;1;-2;-575;-1892;3568;2;0.3698061;-0.4695291;-0.6047956;-0.5263157;2;8;-4;955;4114;165;8;-0.2299169;-0.9399974;-0.2520775;0;-11;4;14;-2193;-2171;3205;0.6898611;1.730969;2.344583;0.6897696;1.722651;1.799099;0.6896669;1.713315;1.319651;0.6896564;1.71749;0.585863;0.431051;1.680576;0.2595066;0.08959408;1.742085;0.4000878;-0.2021341;0.8657299;0.3277963;0;0;0;0.9513932;1.68185;0.2595034;1.24016;1.744903;0.4000815;1.478503;0.8255392;0.5620625;1.530935;-0.06706452;0.2485374;0.3780294;1.727431;2.390198;0.7517253;0.3371211;2.128953;0.225626;0.9578658;3.201437;0.3780294;1.727431;2.390198;0.7517253;0.3371211;2.128953;0.225626;0.9578658;3.201437
712859.1303;NotLabelled;NONE;16384;0.745577;-0.6163435;0.2479224;0.05263158;-2;0;-2;-1006;3690;1157;65536;0.7891334;-0.5817174;-0.01385042;0.1966759;1;0;-2;-1282;3723;-1025;8192;0.5817174;-0.6105426;-0.4709141;-0.2590028;-1;0;0;1056;3891;539;32768;0.6972223;-0.466759;-0.3462604;-0.4196676;0;0;1;1014;3911;-836;256;-0.0567867;0.001385042;-0.9983816;-0.002770083;-1;0;0;-7;132;3997;128;0.1412742;-0.04847645;0.9820775;0.1149584;0;-1;0;267;1027;-3984;4;0.5969529;-0.6052774;0.2437673;0.466759;0;-1;1;1115;3876;-704;16;-0.2493075;-0.9349913;-0.009695291;-0.2520775;0;0;-1;-475;-1818;3648;2;0.3698061;-0.468144;-0.6046622;-0.5277008;-2;11;-1;909;4254;19;8;-0.2313019;-0.9389091;-0.2548476;-0.001385042;-13;13;18;-2221;-2269;3249;0.6892588;1.730894;2.347841;0.6891676;1.722575;1.802357;0.6890652;1.71324;1.322909;0.6890553;1.717415;0.5891204;0.4304501;1.6805;0.262764;0.08899296;1.742009;0.4033445;-0.2021344;0.8657295;0.3277962;0;0;0;0.9507926;1.681775;0.2627612;1.239559;1.744828;0.4033399;1.479454;0.8252925;0.562024;1.531887;-0.06731093;0.2484995;0.377427;1.727356;2.393456;0.7511232;0.3370458;2.13221;0.2275338;0.9571277;3.206306;0.377427;1.727356;2.393456;0.7511232;0.3370458;2.13221;0.2275338;0.9571277;3.206306
712880.0378;NotLabelled;NONE;16384;0.745115;-0.6163435;0.2493075;0.05263158;0;-1;-1;-966;3784;1057;65536;0.7891079;-0.5817174;-0.01523546;0.1966759;1;0;-2;-1318;3727;-993;8192;0.5817174;-0.6111283;-0.4709141;-0.2576177;-2;0;1;1134;3891;557;32768;0.6972223;-0.466759;-0.3462604;-0.4196676;1;-2;2;942;3877;-836;256;-0.0567867;0.001385042;-0.9983816;-0.002770083;-2;0;0;17;158;3979;128;0.1412742;-0.04847645;0.9820775;0.1149584;1;6;0;185;1037;-4108;4;0.5983379;-0.6044655;0.2423823;0.466759;0;1;0;1165;3886;-678;16;-0.2493075;-0.9349913;-0.009695291;-0.2520775;0;-1;0;-573;-1906;3572;2;0.368421;-0.468144;-0.6067115;-0.5263157;-5;9;1;915;4176;51;8;-0.232687;-0.9374256;-0.2590028;-0.002770083;-13;23;22;-2017;-2273;3073;0.6917089;1.729431;2.350639;0.6916176;1.721112;1.805155;0.6915152;1.711777;1.325707;0.6915053;1.715951;0.5919183;0.4329002;1.679037;0.265562;0.09144303;1.740546;0.4061424;-0.201302;0.864789;0.3307788;0;0;0;0.9532426;1.680311;0.2655591;1.242009;1.743364;0.4061378;1.481904;0.8238289;0.5648218;1.532763;-0.06828308;0.2496436;0.3798771;1.725892;2.396253;0.7535734;0.3355823;2.135009;0.2308971;0.9566145;3.209;0.3798771;1.725892;2.396253;0.7535734;0.3355823;2.135009;0.2308971;0.9566145;3.209
712901.0361;NotLabelled;NONE;16384;0.745115;-0.6163435;0.2493075;0.05263158;-2;-4;-1;-894;3850;1009;65536;0.7891079;-0.5817174;-0.01523546;0.1966759;0;0;-2;-1398;3707;-991;8192;0.5817174;-0.6111283;-0.4709141;-0.2576177;-1;-3;1;1158;3847;589;32768;0.6972223;-0.466759;-0.3462604;-0.4196676;0;0;3;1068;3939;-858;256;-0.0567867;0.001385042;-0.9983816;-0.002770083;-2;1;0;3;232;4189;128;0.1412742;-0.04986149;0.9820082;0.1149584;1;13;1;151;1135;-4124;4;0.5983379;-0.6044655;0.2423823;0.466759;0;4;0;1169;3972;-634;16;-0.2493075;-0.9349913;-0.009695291;-0.2520775;0;1;0;-569;-1896;3546;2;0.368421;-0.466759;-0.6077777;-0.5263157;-7;7;4;891;4264;177;8;-0.2354571;-0.935951;-0.2617728;-0.005540166;-11;16;24;-1963;-2363;2991;0.6911883;1.728493;2.349336;0.6910968;1.720174;1.803852;0.6909942;1.710839;1.324404;0.6909837;1.715014;0.5906157;0.4323783;1.6781;0.2642594;0.09092131;1.739608;0.4048405;-0.2033672;0.8642448;0.3309381;0;0;0;0.9527205;1.679374;0.2642561;1.241487;1.742426;0.4048342;1.482874;0.8234946;0.5647412;1.533734;-0.06861734;0.2495628;0.3793566;1.724955;2.39495;0.7528296;0.3355049;2.128855;0.2301546;0.9565369;3.202846;0.3793566;1.724955;2.39495;0.7528296;0.3355049;2.128855;0.2301546;0.9565369;3.202846
712922.0575;NotLabelled;NONE;16384;0.7461596;-0.6149584;0.2493075;0.05401662;0;-2;0;-794;3808;1007;65536;0.7891079;-0.5817174;-0.01523546;0.1966759;0;0;-2;-1248;3723;-1005;8192;0.5817174;-0.6111283;-0.4709141;-0.2576177;0;0;2;1144;3917;463;32768;0.6972223;-0.466759;-0.3462604;-0.4196676;1;1;2;1136;3859;-882;256;-0.0567867;0.001385042;-0.9983816;-0.002770083;-3;1;1;37;200;4035;128;0.1412742;-0.05124654;0.982098;0.1135734;2;10;0;103;1175;-3988;4;0.5983379;-0.6044655;0.2423823;0.466759;0;1;-1;1113;3856;-614;16;-0.2493075;-0.9346167;-0.009695291;-0.2534626;0;2;2;-567;-1868;3572;2;0.367036;-0.466759;-0.6109996;-0.5235457;-9;3;9;893;4244;7;8;-0.2382271;-0.9336146;-0.267313;-0.01246537;-10;12;22;-2221;-2243;2965;0.6911821;1.728052;2.349347;0.6910933;1.719969;1.803859;0.6909931;1.71084;1.324407;0.690983;1.715014;0.5906184;0.4323777;1.6781;0.264262;0.09092051;1.739609;0.4048424;-0.2033674;0.8642446;0.3309377;0;0;0;0.9527202;1.679374;0.2642588;1.241487;1.742427;0.4048375;1.482873;0.8234943;0.5647467;1.533733;-0.0686177;0.249568;0.3793502;1.724495;2.394958;0.7528232;0.3350445;2.128863;0.230147;0.956077;3.202854;0.3793502;1.724495;2.394958;0.7528232;0.3350445;2.128863;0.230147;0.956077;3.202854
712943.2252;NotLabelled;NONE;16384;0.7462586;-0.6149584;0.2493075;0.05263158;1;0;-4;-808;3872;1191;65536;0.78908;-0.5817174;-0.0166205;0.1966759;-1;0;0;-1340;3709;-1085;8192;0.5817174;-0.6111283;-0.4709141;-0.2576177;0;2;1;1040;3989;635;32768;0.6972223;-0.466759;-0.3462604;-0.4196676;0;1;1;1072;3815;-914;256;-0.0567867;0.001385042;-0.9983816;-0.002770083;-3;2;2;-41;226;4121;128;0.1412742;-0.05263158;0.9820247;0.1135734;1;7;-1;237;1185;-3980;4;0.5983379;-0.6044655;0.2423823;0.466759;1;0;-2;1135;3846;-652;16;-0.2493075;-0.9346167;-0.009695291;-0.2534626;0;1;1;-623;-1872;3566;2;0.367036;-0.466759;-0.6121837;-0.5221606;-10;6;12;887;4126;1;8;-0.2396122;-0.932421;-0.2700831;-0.01523546;-9;10;20;-2447;-2199;3053;0.6906145;1.730361;2.352542;0.6905116;1.721005;1.807075;0.6903991;1.71076;1.327645;0.690389;1.714934;0.593857;0.4317837;1.67802;0.2675004;0.09032652;1.739529;0.4080809;-0.2033676;0.8642447;0.330938;0;0;0;0.9521263;1.679294;0.2674973;1.240893;1.742347;0.4080759;1.482285;0.8234146;0.5679757;1.533144;-0.06869709;0.2527974;0.3787836;1.726909;2.39817;0.7522565;0.3374596;2.132075;0.2261565;0.9582045;3.204559;0.3787836;1.726909;2.39817;0.7522565;0.3374596;2.132075;0.2261565;0.9582045;3.204559
712964.0443;NotLabelled;NONE;16384;0.7457944;-0.6149584;0.2506925;0.05263158;0;0;-1;-522;3992;1271;65536;0.78908;-0.5817174;-0.0166205;0.1966759;-4;1;2;-1390;3735;-1027;8192;0.5817174;-0.6100585;-0.4722992;-0.2576177;0;-1;2;930;3955;595;32768;0.6972223;-0.466759;-0.3462604;-0.4196676;0;-1;0;1022;3917;-812;256;-0.05817174;0.001385042;-0.9983047;-0.001385042;-4;1;3;23;266;4087;128;0.1426593;-0.05401662;0.9817492;0.1135734;0;5;-1;255;1179;-4044;4;0.5983379;-0.6055325;0.2423823;0.4653739;0;1;-3;1165;3826;-606;16;-0.2493075;-0.9346014;-0.01108033;-0.2534626;0;2;0;-689;-1842;3552;2;0.365651;-0.466759;-0.614189;-0.5207756;-9;8;15;829;4128;-3;8;-0.2396122;-0.931158;-0.2742382;-0.01800554;-7;18;18;-2329;-1917;2799;0.6901546;1.728843;2.352528;0.6900545;1.719723;1.807057;0.6899443;1.709685;1.327623;0.6899343;1.71386;0.593835;0.4313292;1.676946;0.2674781;0.089872;1.738454;0.4080588;-0.2054336;0.863698;0.331089;0;0;0;0.9516715;1.67822;0.2674755;1.240438;1.741273;0.408054;1.481824;0.8223407;0.5679629;1.532684;-0.06977081;0.2527845;0.3783236;1.725371;2.398153;0.7517965;0.3359219;2.132057;0.2256965;0.9566662;3.204542;0.3783236;1.725371;2.398153;0.7517965;0.3359219;2.132057;0.2256965;0.9566662;3.204542
712984.0246;NotLabelled;NONE;16384;0.7462586;-0.6149584;0.2493075;0.05263158;0;4;-2;-674;4018;1231;65536;0.7884014;-0.5831025;-0.0166205;0.1952908;-5;1;3;-1364;3767;-1011;8192;0.5817174;-0.6100585;-0.4722992;-0.2576177;1;-2;1;1294;3813;507;32768;0.6972223;-0.466759;-0.3462604;-0.4196676;0;0;0;870;3921;-766;256;-0.05955679;0.002770083;-0.9982201;-0.001385042;-3;0;4;15;262;4101;128;0.1426593;-0.05401662;0.9817492;0.1135734;0;4;-3;213;1199;-4094;4;0.5983379;-0.6049763;0.2437673;0.4653739;0;0;-7;1157;3908;-596;16;-0.2493075;-0.9345839;-0.01246537;-0.2534626;0;3;0;-747;-1854;3556;2;0.3642659;-0.466759;-0.6161816;-0.5193906;-3;7;17;655;4114;39;8;-0.2396122;-0.9298963;-0.2783934;-0.01939058;0;19;19;-2263;-1919;2579;0.6928154;1.73053;2.350896;0.6927186;1.721704;1.80542;0.6926113;1.711923;1.325981;0.6926057;1.71407;0.5921837;0.4340085;1.676215;0.2659288;0.09254104;1.73806;0.4063368;-0.2045153;0.8636975;0.3316571;0;0;0;0.9543507;1.67757;0.2659258;1.243106;1.741054;0.4063315;1.486997;0.8226244;0.5653236;1.536983;-0.06948745;0.2500052;0.3809841;1.727034;2.396517;0.7531668;0.3366981;2.133256;0.2291281;0.9564874;3.2073;0.3809841;1.727034;2.396517;0.7531668;0.3366981;2.133256;0.2291281;0.9564874;3.2073
713004.0467;NotLabelled;NONE;16384;0.7462586;-0.6149584;0.2493075;0.05263158;1;7;-3;-816;3878;1133;65536;0.7884014;-0.5831025;-0.0166205;0.1952908;-5;1;4;-1252;3785;-1029;8192;0.5817174;-0.6100585;-0.4722992;-0.2576177;3;7;1;1162;3853;507;32768;0.6963868;-0.466759;-0.3462604;-0.4210526;0;5;0;1222;3869;-840;256;-0.06094183;0.002770083;-0.9981365;-0.001385042;-2;0;5;35;350;4177;128;0.1426593;-0.05540166;0.9815108;0.1149584;0;5;-2;197;1219;-4038;4;0.5969529;-0.6074035;0.2437673;0.4639889;0;-2;-9;1047;3918;-544;16;-0.2493075;-0.9349585;-0.01246537;-0.2520775;0;5;-1;-681;-1950;3578;2;0.3614958;-0.468144;-0.6179257;-0.5180055;-2;12;21;633;4214;143;8;-0.2396122;-0.9290326;-0.2811634;-0.02077562;6;16;19;-2433;-2479;2519;0.693146;1.733792;2.348948;0.6930492;1.724965;1.803472;0.6929419;1.715185;1.324032;0.6929299;1.717456;0.5902359;0.4344376;1.678942;0.2639746;0.09280074;1.739819;0.404393;-0.202928;0.8650627;0.3290656;0;0;0;0.9547743;1.681733;0.2639712;1.243354;1.745991;0.4043882;1.487688;0.8275614;0.5627;1.536797;-0.06455016;0.2472441;0.3813145;1.730296;2.394569;0.7496046;0.3390477;2.130653;0.2276417;0.95788;3.20626;0.3813145;1.730296;2.394569;0.7496046;0.3390477;2.130653;0.2276417;0.95788;3.20626
713024.3514;NotLabelled;NONE;16384;0.7468162;-0.6149584;0.2479224;0.05124654;2;5;-3;-794;3850;1143;65536;0.7877454;-0.5844875;-0.01523546;0.1939058;-5;0;5;-1336;3773;-895;8192;0.5803324;-0.6097172;-0.4736842;-0.2590028;6;9;1;824;3987;489;32768;0.6963868;-0.466759;-0.3462604;-0.4210526;0;5;-1;1226;3887;-790;256;-0.06094183;0.001385042;-0.9981365;-0.002770083;-1;0;5;51;374;4079;128;0.1440443;-0.05540166;0.9813085;0.1149584;-2;4;-2;243;1311;-3954;4;0.5969529;-0.6062844;0.2465374;0.4639889;0;-10;-11;1073;3930;-604;16;-0.2493075;-0.934939;-0.01385042;-0.2520775;2;5;-2;-651;-1892;3504;2;0.3573407;-0.4736842;-0.6195875;-0.5138504;-1;-7;38;1163;4158;5;8;-0.2354571;-0.9279065;-0.2880886;-0.0235457;14;15;16;-2465;-3019;3283;0.6942285;1.730498;2.348758;0.6941506;1.72342;1.803257;0.6940601;1.715175;1.323788;0.6940479;1.717452;0.5899919;0.4355556;1.678941;0.2637303;0.09391902;1.739819;0.4041494;-0.2020139;0.8650627;0.3296275;0;0;0;0.9558921;1.68173;0.2637274;1.244472;1.745986;0.4041442;1.489236;0.8275561;0.5617901;1.535709;-0.06472516;0.2464144;0.3823956;1.726856;2.394356;0.752817;0.3348081;2.137744;0.2372779;0.953938;3.216273;0.3823956;1.726856;2.394356;0.752817;0.3348081;2.137744;0.2372779;0.953938;3.216273
713045.0422;NotLabelled;NONE;16384;0.7456735;-0.6163435;0.2479224;0.05124654;11;3;0;-832;3856;1005;65536;0.7867414;-0.5858725;-0.01385042;0.1939058;-4;-3;8;-1232;3721;-995;8192;0.5803324;-0.609127;-0.4736842;-0.2603878;7;7;2;688;4031;775;32768;0.6963868;-0.466759;-0.3462604;-0.4210526;-2;1;-3;1072;3815;-886;256;-0.06232687;0.001385042;-0.998051;-0.002770083;-1;0;4;-35;514;4135;128;0.1440443;-0.0567867;0.9810661;0.1163435;-4;4;0;293;1383;-4010;4;0.5955678;-0.6070813;0.2479224;0.4639889;-1;-11;-13;1103;3984;-726;16;-0.2493075;-0.9349174;-0.01523546;-0.2520775;2;6;-3;-791;-1862;3532;2;0.3531856;-0.4778393;-0.6222059;-0.5096953;1;-4;46;1255;4096;45;8;-0.232687;-0.9272696;-0.2922437;-0.02493075;19;18;15;-2255;-2461;3267;0.6969628;1.728003;2.346608;0.6968859;1.720981;1.801106;0.6967961;1.712786;1.321636;0.6967861;1.716968;0.587848;0.4381798;1.680063;0.2614911;0.09672412;1.741579;0.4020726;-0.1992902;0.866958;0.3262899;0;0;0;0.9585224;1.681325;0.2614884;1.24729;1.74437;0.4020673;1.491097;0.8260006;0.561541;1.53757;-0.0662806;0.2461655;0.3851298;1.724356;2.392206;0.7492408;0.3305019;2.136367;0.2327901;0.9486793;3.215007;0.3851298;1.724356;2.392206;0.7492408;0.3305019;2.136367;0.2327901;0.9486793;3.215007
713065.13;NotLabelled;NONE;16384;0.7445265;-0.6177285;0.2479224;0.05124654;12;-2;0;-930;3806;1107;65536;0.7860718;-0.5872576;-0.01246537;0.1925208;-6;-4;7;-1196;3737;-977;8192;0.5789474;-0.6093664;-0.4750692;-0.2603878;5;-1;6;1172;3975;971;32768;0.6954564;-0.468144;-0.3462604;-0.4210526;-8;-2;-2;930;3897;-906;256;-0.06371191;0.002770083;-0.9979606;-0.002770083;-8;-1;3;-75;556;4339;128;0.1440443;-0.05817174;0.9806525;0.1191136;-5;5;0;335;1507;-4246;4;0.5941828;-0.6073009;0.2506925;0.4639889;-2;-11;-15;1125;3934;-670;16;-0.2493075;-0.9352662;-0.0166205;-0.2506925;2;11;-5;-927;-1918;3450;2;0.3476454;-0.4819945;-0.6255023;-0.5055401;4;1;52;1057;4424;77;8;-0.2285319;-0.9274257;-0.2950138;-0.02493075;23;11;19;-1983;-2041;3079;0.698194;1.726776;2.340171;0.6981362;1.721506;1.794649;0.6980633;1.71485;1.315156;0.6980532;1.719034;0.5813677;0.4394468;1.682133;0.255011;0.09799156;1.74365;0.3955924;-0.1971836;0.8684196;0.3236732;0;0;0;0.9597893;1.68339;0.2550081;1.248558;1.746432;0.3955876;1.491299;0.8274567;0.5531791;1.536897;-0.06482518;0.237676;0.3863595;1.722983;2.385746;0.7500299;0.3283172;2.133735;0.2356668;0.9455392;3.213918;0.3863595;1.722983;2.385746;0.7500299;0.3283172;2.133735;0.2356668;0.9455392;3.213918
713086.0468;NotLabelled;NONE;16384;0.7433752;-0.6191136;0.2479224;0.05124654;11;-2;-2;-886;3830;1185;65536;0.7850351;-0.5886427;-0.01246537;0.1925208;-8;-3;6;-1378;3683;-959;8192;0.5775623;-0.6106793;-0.4750692;-0.2603878;3;2;8;1066;3911;743;32768;0.6945221;-0.4695291;-0.3462604;-0.4210526;-9;-1;-2;1088;3885;-748;256;-0.06371191;0.001385042;-0.9979635;-0.002770083;-12;0;4;-119;572;4141;128;0.1454294;-0.05955679;0.9803649;0.1191136;-5;8;0;337;1519;-4180;4;0.5914127;-0.6081626;0.2576177;0.4626039;0;-13;-24;939;4210;-870;16;-0.2506925;-0.9355512;-0.02077562;-0.2479224;1;7;-9;-615;-1992;3506;2;0.3421052;-0.4861496;-0.6275706;-0.5027701;6;-3;55;595;4726;-17;8;-0.2243767;-0.9284015;-0.2950138;-0.02631579;30;3;25;-1967;-1833;3417;0.7009522;1.724597;2.333519;0.70093;1.722587;1.787976;0.7008883;1.718797;1.308451;0.7008659;1.723113;0.5746643;0.4423618;1.685557;0.2483009;0.1007386;1.746109;0.3888934;-0.1935764;0.87028;0.3208385;0;0;0;0.9626988;1.68825;0.2482975;1.251292;1.752062;0.3888884;1.495007;0.8337555;0.5488582;1.538337;-0.05952847;0.2358819;0.3891147;1.720531;2.37905;0.7492099;0.3241827;2.131258;0.2403982;0.9407609;3.214433;0.3891147;1.720531;2.37905;0.7492099;0.3241827;2.131258;0.2403982;0.9407609;3.214433
713106.0534;NotLabelled;NONE;16384;0.7421226;-0.6204986;0.2479224;0.05263158;13;2;-6;-666;3840;1095;65536;0.7850559;-0.5886427;-0.01108033;0.1925208;-7;-5;7;-1210;3737;-1041;8192;0.5775623;-0.610189;-0.4764543;-0.2590028;7;1;9;1064;3819;479;32768;0.6936805;-0.4695291;-0.3462604;-0.4224377;-8;1;-1;1064;3831;-808;256;-0.06509695;0.001385042;-0.997877;-0.001385042;-15;-1;4;-67;510;4115;128;0.1454294;-0.06094183;0.9799392;0.1218837;-5;11;0;417;1511;-4096;4;0.5886427;-0.6107169;0.2603878;0.4612188;0;-14;-25;831;4184;-624;16;-0.2506925;-0.9362809;-0.02077562;-0.2451524;3;4;-12;-953;-1990;3328;2;0.3365651;-0.4916897;-0.629562;-0.4986149;9;-9;57;749;4954;81;8;-0.2174515;-0.9295249;-0.2963989;-0.02908587;32;1;30;-2527;-1497;3643;0.6989406;1.724018;2.327438;0.698922;1.722315;1.781894;0.6988834;1.718795;1.302367;0.6988736;1.722982;0.5685791;0.4402669;1.686083;0.2422218;0.09881209;1.747604;0.3828035;-0.1944491;0.871187;0.3178366;0;0;0;0.9606094;1.687338;0.2422192;1.249378;1.750376;0.3827989;1.491586;0.8322492;0.546055;1.533527;-0.06202888;0.2357387;0.3871028;1.719926;2.372965;0.737744;0.3186506;2.139864;0.2330443;0.9362595;3.224375;0.3871028;1.719926;2.372965;0.737744;0.3186506;2.139864;0.2330443;0.9362595;3.224375
713127.0434;NotLabelled;NONE;16384;0.7409623;-0.6218836;0.2479224;0.05263158;16;0;-3;-782;3882;963;65536;0.7840338;-0.5900277;-0.009695291;0.1925208;-6;-6;9;-1358;3839;-819;8192;0.5747922;-0.6122119;-0.4764543;-0.2603878;10;2;10;1072;3737;341;32768;0.692741;-0.4709141;-0.3462604;-0.4224377;-5;3;-1;1028;3887;-728;256;-0.06509695;0.001385042;-0.997878;0;-18;-2;3;-153;390;4183;128;0.1454294;-0.06371191;0.979763;0.1218837;-5;12;0;527;1503;-4382;4;0.5872576;-0.6113088;0.2645429;0.4598338;-1;-18;-29;737;4124;-730;16;-0.2506925;-0.9369701;-0.02216066;-0.2423823;5;20;-14;-691;-2150;3198;2;0.3254848;-0.5027701;-0.6320784;-0.4916897;7;-13;53;1191;4650;-99;8;-0.2036011;-0.9297323;-0.3047091;-0.03601108;34;28;42;-2797;-721;3183;0.699289;1.722153;2.324191;0.6993061;1.723716;1.778647;0.6992989;1.723068;1.299107;0.6992932;1.725228;0.5653107;0.4406951;1.687385;0.2390549;0.09922877;1.749234;0.3794639;-0.1915168;0.8717148;0.3181685;0;0;0;0.9610374;1.688728;0.2390521;1.249794;1.752205;0.3794588;1.496022;0.8351934;0.5429714;1.535334;-0.05924428;0.2327719;0.3874481;1.717789;2.369673;0.7374845;0.3143488;2.149018;0.2427125;0.9326053;3.237727;0.3874481;1.717789;2.369673;0.7374845;0.3143488;2.149018;0.2427125;0.9326053;3.237727
713148.0481;NotLabelled;NONE;16384;0.7367848;-0.6260388;0.2493075;0.05540166;24;-4;0;-912;3848;551;65536;0.7819821;-0.5927978;-0.005540166;0.1925208;-4;-12;11;-1212;3865;-935;8192;0.5734072;-0.6124312;-0.4778393;-0.2603878;14;3;13;1260;3729;449;32768;0.6918945;-0.4709141;-0.3462604;-0.4238227;-5;5;0;938;3941;-694;256;-0.06648199;0.001385042;-0.9977828;0.002770083;-23;-2;3;-7;350;4561;128;0.1454294;-0.06648199;0.9795789;0.1218837;-7;13;0;531;1481;-4540;4;0.5844875;-0.61258;0.2700831;0.4584487;-1;-15;-36;839;4200;-734;16;-0.2520775;-0.9368862;-0.02493075;-0.2409972;6;16;-12;-353;-2328;3406;2;0.3213296;-0.5083103;-0.6329913;-0.4875346;4;-6;56;1161;4502;7;8;-0.1952908;-0.9290491;-0.3116343;-0.0401662;35;39;50;-2595;-1343;3349;0.6993625;1.72585;2.317974;0.6993852;1.727914;1.772431;0.699383;1.727707;1.292891;0.6993827;1.727839;0.559091;0.4407938;1.689047;0.2329395;0.09931525;1.751222;0.3731745;-0.1903525;0.873138;0.3149486;0;0;0;0.9611359;1.690484;0.2329367;1.24988;1.754401;0.3731696;1.491571;0.8371601;0.5420775;1.529494;-0.05825937;0.2345489;0.3875211;1.721444;2.363448;0.7309642;0.3149261;2.152231;0.2422115;0.9328985;3.243816;0.3875211;1.721444;2.363448;0.7309642;0.3149261;2.152231;0.2422115;0.9328985;3.243816
713169.0419;NotLabelled;NONE;16384;0.7338446;-0.6288089;0.2506925;0.0567867;25;-14;1;-1544;3824;537;65536;0.7816544;-0.5927978;-0.002770083;0.1939058;0;-17;8;-818;3971;-781;8192;0.567867;-0.6154184;-0.4806094;-0.2603878;17;6;11;1096;4093;933;32768;0.689243;-0.4722992;-0.3462604;-0.4265928;-11;5;0;1256;3883;-826;256;-0.06648199;0.001385042;-0.9977251;0.01108033;-28;-1;-1;-303;336;4221;128;0.1454294;-0.07063711;0.9787619;0.1260388;-12;13;2;759;1395;-3946;4;0.5817174;-0.616454;0.2742382;0.4542936;-3;-14;-43;981;4248;-532;16;-0.2520775;-0.9376302;-0.0235457;-0.2382271;5;1;-12;-83;-2238;3560;2;0.3144044;-0.5138504;-0.6351786;-0.4833795;10;-7;61;1211;4550;-153;8;-0.1869806;-0.9282207;-0.3185596;-0.04432133;41;34;55;-2815;-1579;3221;0.6996458;1.735796;2.300794;0.6996741;1.738365;1.755253;0.6996768;1.738601;1.275714;0.6996887;1.73468;0.5419241;0.4411198;1.693991;0.215988;0.09961601;1.756815;0.3558722;-0.1851488;0.8764634;0.3087522;0;0;0;0.9614612;1.69562;0.2159846;1.25018;1.760417;0.3558668;1.492883;0.8438776;0.5271154;1.528178;-0.05169535;0.2197211;0.387804;1.731349;2.34626;0.7243826;0.3212512;2.148272;0.2402162;0.9409463;3.240925;0.387804;1.731349;2.34626;0.7243826;0.3212512;2.148272;0.2402162;0.9409463;3.240925
713189.0579;NotLabelled;NONE;16384;0.7302861;-0.6315789;0.2534626;0.05955679;28;-33;0;-1616;3826;783;65536;0.7802617;-0.5941828;0;0.1952908;0;-25;5;-1394;3775;-723;8192;0.5650969;-0.6173775;-0.4806094;-0.2617728;17;10;14;572;4271;637;32768;0.6889868;-0.4736842;-0.3448753;-0.4265928;-13;2;-5;1100;3831;-700;256;-0.06648199;0.001385042;-0.9976704;0.01523546;-31;1;-4;-271;290;3941;128;0.1440443;-0.0734072;0.9785836;0.1274238;-1;10;1;797;1625;-4074;4;0.5775623;-0.6197453;0.2867036;0.4473684;-2;-13;-54;345;4372;-620;16;-0.2493075;-0.939241;-0.01523546;-0.2354571;5;-39;-10;-45;-2118;3440;2;0.3088643;-0.5193906;-0.6365377;-0.4792244;9;-9;62;1771;4400;367;8;-0.1786704;-0.9272468;-0.3254848;-0.04847645;45;26;56;-2855;-1547;3469;0.6996197;1.743536;2.293198;0.699706;1.751402;1.747708;0.6997597;1.756294;1.268193;0.699828;1.740204;0.5345693;0.4413273;1.693831;0.2093396;0.0997444;1.758587;0.3481445;-0.1826249;0.8770994;0.3084512;0;0;0;0.9616665;1.696034;0.2093366;1.250304;1.763461;0.3481398;1.491034;0.8488387;0.5319617;1.521382;-0.04799402;0.2277299;0.3877731;1.738647;2.338586;0.7199648;0.3246807;2.161931;0.2436234;0.9459552;3.257122;0.3877731;1.738647;2.338586;0.7199648;0.3246807;2.161931;0.2436234;0.9459552;3.257122
713210.2793;NotLabelled;NONE;16384;0.7271535;-0.632964;0.2576177;0.06509695;32;-40;-3;-914;3626;505;65536;0.7795619;-0.5941828;0.001385042;0.1980609;-1;-25;5;-1316;3617;-1159;8192;0.5637119;-0.6169751;-0.4819945;-0.2631579;21;-1;18;620;3941;585;32768;0.6871719;-0.4750692;-0.3448753;-0.4279778;-15;1;-5;1012;3921;-754;256;-0.06648199;0.001385042;-0.9975982;0.01939058;-33;1;-8;-19;206;4235;128;0.1440443;-0.07617728;0.9783718;0.1274238;-1;14;6;481;1457;-4198;4;0.5734072;-0.624319;0.2936288;0.4418283;-5;-25;-59;339;4166;-640;16;-0.2479224;-0.9393574;-0.006925208;-0.2368421;3;-53;-9;-419;-2312;3210;2;0.301939;-0.5249307;-0.6394559;-0.4736842;6;6;64;1957;4414;-157;8;-0.1689751;-0.9267967;-0.3310249;-0.05401662;47;24;56;-3021;-1093;3261;0.6985158;1.750526;2.281001;0.6986234;1.760341;1.735542;0.6986959;1.766945;1.256048;0.6988021;1.744773;0.5225832;0.4403398;1.695562;0.1977396;0.09871581;1.761278;0.3359916;-0.1810252;0.8786001;0.3051043;0;0;0;0.9606779;1.698052;0.1977367;1.249272;1.766787;0.3359863;1.485472;0.8520591;0.5250843;1.512846;-0.04523349;0.2219268;0.3866675;1.745475;2.326359;0.6974664;0.3226807;2.185229;0.2336912;0.9434872;3.286065;0.3866675;1.745475;2.326359;0.6974664;0.3226807;2.185229;0.2336912;0.9434872;3.286065
713231.058;NotLabelled;NONE;16384;0.7232225;-0.6357341;0.2603878;0.07063711;27;-38;-3;-606;3960;859;65536;0.779205;-0.5941828;0.002770083;0.199446;-4;-17;6;-1232;3815;-993;8192;0.5609418;-0.6200811;-0.4819945;-0.2617728;21;-11;22;1228;3807;653;32768;0.6862123;-0.4764543;-0.3448753;-0.4279778;-14;3;-4;856;3933;-634;256;-0.06509695;0;-0.9976011;0.0235457;-37;-5;-9;109;210;4053;128;0.1426593;-0.07756232;0.978466;0.1274238;1;8;10;491;1497;-4322;4;0.5692521;-0.6261093;0.301939;0.4390582;-6;-32;-64;731;3926;-818;16;-0.2479224;-0.9393829;0;-0.2368421;0;-45;-6;-667;-3112;3186;2;0.2950138;-0.5290859;-0.6423219;-0.4695291;3;3;64;1747;4274;-227;8;-0.1578947;-0.9265038;-0.3365651;-0.05817174;53;21;56;-2851;-787;2749;0.693929;1.758549;2.274275;0.6940423;1.76888;1.728826;0.6941198;1.775939;1.249339;0.6942709;1.747685;0.5160828;0.4358504;1.695638;0.1916484;0.09418404;1.762311;0.3293368;-0.1820963;0.8783317;0.3052388;0;0;0;0.956187;1.698416;0.1916454;1.244737;1.768455;0.3293321;1.479932;0.8538289;0.5201693;1.504121;-0.04454243;0.219951;0.3820802;1.753455;2.319625;0.6844889;0.3262162;2.20829;0.2227118;0.9488404;3.308939;0.3820802;1.753455;2.319625;0.6844889;0.3262162;2.20829;0.2227118;0.9488404;3.308939
713251.0374;NotLabelled;NONE;16384;0.7184495;-0.6371191;0.267313;0.08033241;20;-31;-9;-526;4208;957;65536;0.7767021;-0.5969529;0.006925208;0.200831;-7;-9;9;-1472;3629;-1005;8192;0.5567867;-0.6243942;-0.4819945;-0.2603878;23;-8;23;1098;3773;387;32768;0.6843815;-0.4778393;-0.3448753;-0.4293629;-10;8;-5;1278;3875;-424;256;-0.06371191;0;-0.9975443;0.02908587;-39;-14;-9;-271;214;3633;128;0.1412742;-0.07756232;0.9788462;0.1260388;8;-3;6;685;1429;-3514;4;0.5650969;-0.6287052;0.3102493;0.434903;-7;-20;-65;1295;3468;-722;16;-0.2479224;-0.9393819;0.001385042;-0.2368421;-13;25;-5;177;-10932;3762;2;0.2797784;-0.5373961;-0.6492167;-0.4598338;2;15;67;1963;3548;151;8;-0.134349;-0.9255664;-0.3476454;-0.06648199;75;12;58;-3079;-877;2719;0.6872883;1.766895;2.266343;0.6874036;1.7774;1.720897;0.6874828;1.784611;1.241412;0.6875852;1.750138;0.5084222;0.4290538;1.69593;0.1844305;0.08753704;1.764545;0.321534;-0.1824499;0.8784571;0.3046668;0;0;0;0.9493954;1.697524;0.1844252;1.238101;1.76807;0.3215246;1.470721;0.8547609;0.5215952;1.494319;-0.04454803;0.2241482;0.3754393;1.761788;2.31169;0.6679597;0.3308594;2.22373;0.2077482;0.9579165;3.322516;0.3754393;1.761788;2.31169;0.6679597;0.3308594;2.22373;0.2077482;0.9579165;3.322516
713272.0286;NotLabelled;NONE;16384;0.7172563;-0.6371191;0.2700831;0.08171745;20;-7;-12;-322;3830;619;65536;0.7756221;-0.5983379;0.008310249;0.200831;-6;-2;11;-1228;3937;-649;8192;0.5470914;-0.6339588;-0.4806094;-0.2603878;32;-9;12;2168;3809;-35;32768;0.6811336;-0.4792244;-0.3476454;-0.4307479;-2;16;-8;864;3981;-822;256;-0.06232687;-0.001385042;-0.997454;0.03462604;-37;-4;-8;-557;-64;3889;128;0.1412742;-0.07894737;0.9787354;0.1260388;-2;8;1;861;1129;-2836;4;0.5650969;-0.6325669;0.3157895;0.4252077;-22;40;-80;-63;3410;398;16;-0.2520775;-0.938625;0;-0.2354571;-24;26;-12;-793;-5394;3914;2;0.2714681;-0.5415512;-0.6522149;-0.4556787;4;7;67;1615;3330;-319;8;-0.1204986;-0.9255954;-0.3518005;-0.07063711;71;19;51;-3475;-307;3577;0.6831056;1.785232;2.24984;0.6832032;1.794137;1.704365;0.6832668;1.799942;1.22486;0.683425;1.75736;0.4922971;0.4249432;1.699404;0.1689151;0.08337633;1.769313;0.3052381;-0.1806459;0.881304;0.2974334;0;0;0;0.9452835;1.701331;0.1689123;1.233938;1.773576;0.3052334;1.463535;0.8618701;0.5158342;1.484738;-0.03848672;0.2213935;0.3712582;1.780256;2.295212;0.6528641;0.3457447;2.234119;0.1904971;0.9736838;3.331496;0.3712582;1.780256;2.295212;0.6528641;0.3457447;2.234119;0.1904971;0.9736838;3.331496
713292.0425;NotLabelled;NONE;16384;0.7149431;-0.6398892;0.2700831;0.08033241;18;3;-14;-930;4082;659;65536;0.7745169;-0.599723;0.01108033;0.200831;-5;-2;15;-1126;3961;-713;8192;0.5429363;-0.6359061;-0.4819945;-0.2617728;36;11;12;1622;3835;827;32768;0.6795461;-0.4792244;-0.3490305;-0.432133;-10;17;-3;1086;3745;-788;256;-0.06094183;-0.004155125;-0.9972674;0.04155125;-14;-12;-5;149;-1136;3345;128;0.1398892;-0.08033241;0.9786424;0.1274238;-12;-5;6;319;249;-3390;4;0.5623268;-0.6473985;0.3282548;0.3961219;-2;-1;-112;-1919;6026;-958;16;-0.2520775;-0.9399883;0.004155125;-0.2299169;12;-65;-23;289;-2356;4332;2;0.265928;-0.5457063;-0.6548758;-0.4501385;-1;5;57;1787;3328;477;8;-0.1094183;-0.9240968;-0.3587258;-0.0734072;53;47;40;-2621;789;3417;0.6845083;1.794832;2.243437;0.6846089;1.803993;1.697966;0.6846752;1.810024;1.218465;0.6847543;1.759209;0.4864262;0.4261539;1.698178;0.1637053;0.08473589;1.77035;0.2992195;-0.180361;0.8826449;0.2936059;0;0;0;0.9464973;1.698985;0.1637022;1.235304;1.772136;0.299215;1.451735;0.8628113;0.5327989;1.473573;-0.03955853;0.2446321;0.3726605;1.789835;2.288804;0.6354455;0.3508459;2.255448;0.1726744;0.9878981;3.347389;0.3726605;1.789835;2.288804;0.6354455;0.3508459;2.255448;0.1726744;0.9878981;3.347389
713314.0326;NotLabelled;NONE;16384;0.7119276;-0.6426592;0.2714681;0.08033241;18;-6;-11;-736;4166;695;65536;0.7748537;-0.599723;0.01246537;0.199446;-5;-3;18;-1410;3723;-833;8192;0.5387812;-0.6378143;-0.4833795;-0.2631579;30;8;27;916;3865;1277;32768;0.6776831;-0.4806094;-0.3490305;-0.433518;-23;-1;3;952;3727;-1022;256;-0.05955679;-0.006925208;-0.9972165;0.04432133;-13;-14;-11;325;-740;3875;128;0.1385041;-0.07756232;0.9788815;0.1288089;-5;-20;3;163;903;-4354;4;0.5554016;-0.6527735;0.3407202;0.3864266;-13;-26;-113;-781;6580;-1146;16;-0.2479224;-0.9409785;0.01523546;-0.2299169;4;-48;-24;-607;-4476;3264;2;0.2603878;-0.5470914;-0.6587777;-0.4459834;-3;14;49;1367;3300;-303;8;-0.09833795;-0.9234956;-0.3628809;-0.07617728;52;8;38;-923;787;2887;0.6862991;1.803908;2.232791;0.6864179;1.81475;1.687352;0.6865001;1.822258;1.207871;0.6863028;1.761073;0.4766269;0.4273991;1.69671;0.1547978;0.08633599;1.772425;0.2892679;-0.1780119;0.8844786;0.289493;0;0;0;0.9477404;1.695031;0.1547948;1.236899;1.768715;0.2892632;1.448575;0.8604767;0.5312783;1.470855;-0.04249716;0.2450463;0.3744498;1.798771;2.278133;0.5927609;0.3529325;2.330561;0.1439056;0.9934819;3.426258;0.3744498;1.798771;2.278133;0.5927609;0.3529325;2.330561;0.1439056;0.9934819;3.426258
713335.046;NotLabelled;NONE;16384;0.7092589;-0.6454294;0.2714681;0.08171745;22;-4;-9;-772;3906;691;65536;0.7740858;-0.601108;0.01523546;0.1980609;-11;-3;13;-1026;3685;-1061;8192;0.534626;-0.6397723;-0.4861496;-0.2617728;14;-13;32;1102;4167;1015;32768;0.6761429;-0.4847645;-0.3462604;-0.433518;-28;-16;-2;1164;4127;-536;256;-0.05817174;-0.009695291;-0.9971482;0.04709141;-19;-10;-11;53;-126;4275;128;0.1385041;-0.07479224;0.9792783;0.1274238;14;-18;-2;627;1649;-5032;4;0.5498615;-0.6565418;0.3545706;0.3753462;-28;-25;-117;-787;5298;-988;16;-0.2465374;-0.9419383;0.01939058;-0.2271468;7;-9;-20;-1449;-3676;2980;2;0.2548476;-0.5498615;-0.6614324;-0.4418283;5;15;51;873;3152;-439;8;-0.08725762;-0.9261134;-0.3587258;-0.07756232;60;-38;32;-1143;-289;3725;0.6883877;1.805541;2.22426;0.6885169;1.8173;1.678839;0.6886081;1.825614;1.199372;0.6880496;1.760144;0.4684988;0.4287918;1.69527;0.1470574;0.08814212;1.773582;0.281088;-0.1751576;0.8853557;0.2885508;0;0;0;0.9491169;1.690828;0.1470547;1.23867;1.763763;0.281083;1.445535;0.8566754;0.5314285;1.465233;-0.04730213;0.2481877;0.3765376;1.800328;2.269588;0.5743598;0.3540907;2.370189;0.1301064;0.9916446;3.469503;0.3765376;1.800328;2.269588;0.5743598;0.3540907;2.370189;0.1301064;0.9916446;3.469503
713356.0564;NotLabelled;NONE;16384;0.7075814;-0.6454294;0.2770083;0.07756232;4;0;-22;-1778;3834;1279;65536;0.7715477;-0.6052631;0.01523546;0.1952908;-12;4;3;-878;4121;-649;8192;0.533241;-0.6442067;-0.4847645;-0.2562327;7;-33;25;1610;4139;-251;32768;0.6755639;-0.4875346;-0.3434903;-0.433518;-19;-3;-4;736;4129;-262;256;-0.0567867;-0.01108033;-0.9970789;0.04986149;-30;-5;-8;59;-120;4231;128;0.1385041;-0.07202215;0.9798422;0.1246537;23;-10;3;935;1315;-4376;4;0.5457063;-0.6593845;0.368421;0.3628809;-25;-16;-123;-1311;4146;-768;16;-0.2451524;-0.9433678;0.01523546;-0.2229917;11;36;-21;-1169;-3174;3656;2;0.2409972;-0.5595568;-0.6603367;-0.4390582;37;-35;43;661;2978;-133;8;-0.06371191;-0.9309654;-0.3504155;-0.08033241;59;-9;24;-2171;1191;2883;0.6885908;1.814825;2.214158;0.6886977;1.824568;1.668698;0.6887696;1.831109;1.189203;0.6878032;1.761367;0.4587258;0.4281775;1.695995;0.1376819;0.08796063;1.776904;0.2712691;-0.1711941;0.887522;0.2842441;0;0;0;0.9484715;1.688783;0.1376793;1.238419;1.760959;0.2712643;1.445517;0.8568764;0.5320725;1.458454;-0.04874504;0.2537395;0.3767425;1.809781;2.259517;0.5457405;0.3638968;2.406887;0.108445;1.001006;3.509244;0.3767425;1.809781;2.259517;0.5457405;0.3638968;2.406887;0.108445;1.001006;3.509244
713376.1141;NotLabelled;NONE;16384;0.7060696;-0.6468144;0.2783934;0.07479224;11;11;-20;-978;3716;49;65536;0.7704305;-0.6066482;0.0166205;0.1952908;-5;-8;4;-1194;3847;-531;8192;0.5235457;-0.6510786;-0.4861496;-0.2562327;23;24;20;1220;3817;-717;32768;0.6717651;-0.4903047;-0.3434903;-0.4362881;-6;8;-9;1438;3881;-420;256;-0.0567867;-0.01246537;-0.9968461;0.05401662;-24;-8;-6;435;-614;3663;128;0.1371191;-0.07063711;0.9806573;0.1204986;28;-12;12;171;593;-3540;4;0.5401662;-0.663526;0.3822715;0.3490305;-26;-4;-118;-1615;3988;-324;16;-0.2451524;-0.9447182;0.01108033;-0.2174515;15;40;-24;-903;-3002;3986;2;0.2382271;-0.567867;-0.6551466;-0.4376731;36;-55;29;1705;3000;253;8;-0.05263158;-0.931537;-0.3504155;-0.08171745;43;-7;26;-2703;627;3371;0.699303;1.824914;2.197596;0.6993713;1.831132;1.652084;0.699409;1.834574;1.172557;0.6981946;1.760688;0.4424873;0.4383712;1.694162;0.1218413;0.09837649;1.776705;0.2549936;-0.1714812;0.890625;0.2741857;0;0;0;0.9586449;1.68561;0.1218383;1.24879;1.757795;0.2549883;1.458098;0.8567698;0.5244651;1.465764;-0.04959035;0.2483496;0.387458;1.820162;2.243009;0.5221935;0.3759482;2.435232;0.08964854;1.007777;3.542492;0.387458;1.820162;2.243009;0.5221935;0.3759482;2.435232;0.08964854;1.007777;3.542492
713397.04;NotLabelled;NONE;16384;0.7023868;-0.6509695;0.2783934;0.0734072;26;3;-19;-1348;3456;-109;65536;0.7689539;-0.6080332;0.01800554;0.1966759;-8;-12;3;-1118;3805;-1047;8192;0.5193906;-0.652822;-0.4875346;-0.2576177;22;5;18;1006;4117;-81;32768;0.670041;-0.4916897;-0.3448753;-0.4362881;-16;-5;-12;818;3975;-892;256;-0.05540166;-0.0166205;-0.996464;0.06094183;-13;-3;-1;449;-862;3969;128;0.134349;-0.06509695;0.9820882;0.1149584;3;-13;7;-299;503;-3900;4;0.5277008;-0.668965;0.4099723;0.3254848;-22;-58;-120;-2507;4634;-514;16;-0.2382271;-0.9489294;0.01385042;-0.2063712;26;-40;-47;-303;-2650;4060;2;0.2354571;-0.5747922;-0.6510197;-0.4362881;25;-41;24;2281;3150;147;8;-0.04570637;-0.9316554;-0.3504155;-0.08448754;32;-3;29;-3323;-135;2729;0.7044158;1.840472;2.188404;0.7044306;1.841827;1.642858;0.7044214;1.840994;1.163319;0.7029224;1.760931;0.4339017;0.4428971;1.692286;0.1138667;0.1031128;1.77673;0.2463621;-0.1703273;0.8918786;0.2708114;0;0;0;0.9631498;1.682545;0.1138636;1.25348;1.755192;0.2463573;1.454121;0.8586669;0.5366343;1.45504;-0.0495131;0.2664553;0.3925752;1.836126;2.233887;0.4945137;0.3968415;2.476636;0.07343572;1.026901;3.589311;0.3925752;1.836126;2.233887;0.4945137;0.3968415;2.476636;0.07343572;1.026901;3.589311
713418.0471;NotLabelled;NONE;16384;0.6982863;-0.6537396;0.2825485;0.07202215;21;-20;-19;-1232;4098;1207;65536;0.7675005;-0.6094183;0.01800554;0.1980609;-21;-4;4;-1206;3705;-1033;8192;0.5180055;-0.655495;-0.4861496;-0.2562327;9;-27;13;2114;3941;431;32768;0.668902;-0.4944598;-0.3448753;-0.434903;-13;-5;-4;414;3989;-296;256;-0.05540166;-0.01800554;-0.9962667;0.06371191;-15;-6;4;129;-1044;4185;128;0.134349;-0.06232687;0.9822679;0.1149584;4;-14;-2;179;591;-4594;4;0.5180055;-0.6683698;0.4293629;0.3171745;-20;-94;-122;-1961;4540;-368;16;-0.2313019;-0.9513078;0.02493075;-0.2022161;30;-86;-53;159;-2026;4118;2;0.232687;-0.5817174;-0.6467773;-0.434903;19;-43;30;2757;3378;-271;8;-0.0401662;-0.9306088;-0.3531856;-0.08725762;31;12;29;-3671;-1001;2551;0.7027105;1.863939;2.186316;0.7026469;1.858137;1.6408;0.7025687;1.851014;1.161314;0.7000344;1.76054;0.4331172;0.4393061;1.689319;0.1142189;0.1002547;1.778248;0.2456526;-0.1713515;0.8927579;0.267242;0;0;0;0.959469;1.675596;0.1141108;1.250424;1.747905;0.2454147;1.445608;0.8490553;0.5322028;1.447033;-0.06042528;0.2664402;0.3908765;1.86019;2.231898;0.4330471;0.4366648;2.567543;0.03951728;1.05302;3.697839;0.3908765;1.86019;2.231898;0.4330471;0.4366648;2.567543;0.03951728;1.05302;3.697839
713439.177;NotLabelled;NONE;16384;0.6970145;-0.6537396;0.2853186;0.0734072;8;-13;-16;-786;4290;1661;65536;0.76565;-0.6121883;0.01800554;0.1966759;-23;0;4;-1192;3995;-573;8192;0.5152354;-0.6582548;-0.4875346;-0.2520775;3;0;16;2552;2841;117;32768;0.6676863;-0.4958449;-0.3434903;-0.4362881;-6;4;5;1110;3847;-282;256;-0.0567867;-0.01939058;-0.9958882;0.06786703;-25;-14;6;-155;-820;3903;128;0.1357341;-0.05817174;0.9826526;0.1121884;30;-41;-12;749;611;-3920;4;0.5069252;-0.6657975;0.4501385;0.3116343;-20;-97;-123;-1245;4512;-210;16;-0.2229917;-0.953986;0.03878116;-0.1966759;39;-95;-52;-199;-1270;3596;2;0.2299169;-0.5886427;-0.6442781;-0.4307479;12;-26;47;2977;3246;-583;8;-0.033241;-0.9302242;-0.3545706;-0.08864266;42;14;21;-3939;-1561;2825;0.7036042;1.867059;2.159343;0.7035354;1.860789;1.613832;0.7034528;1.853255;1.134352;0.7007253;1.758636;0.4066826;0.4398357;1.686235;0.08818217;0.1009978;1.776742;0.2190888;-0.1738494;0.8931458;0.2643203;0;0;0;0.9599636;1.671239;0.08817947;1.251089;1.743583;0.2190844;1.445107;0.8496516;0.5216042;1.445376;-0.06137359;0.2611809;0.3917706;1.863349;2.204931;0.4047037;0.4516789;2.589481;0.0285975;1.057698;3.731239;0.3917706;1.863349;2.204931;0.4047037;0.4516789;2.589481;0.0285975;1.057698;3.731239
713459.2214;NotLabelled;NONE;16384;0.6928102;-0.6578947;0.2867036;0.07063711;15;14;-17;-870;3742;-625;65536;0.7622751;-0.6163435;0.01939058;0.1966759;-11;-5;5;-980;3975;-693;8192;0.5124654;-0.6583597;-0.4903047;-0.2520775;14;30;21;1128;3291;-1363;32768;0.6667792;-0.4958449;-0.3434903;-0.4376731;2;6;-6;1658;4193;8;256;-0.05817174;-0.02216066;-0.9955578;0.07063711;-18;-12;3;37;-744;3559;128;0.1371191;-0.05263158;0.9833893;0.1066482;38;-24;-10;631;551;-3632;4;0.4972299;-0.6645285;0.468144;0.3033241;-20;-56;-126;-833;4366;-242;16;-0.2119114;-0.9571179;0.04986149;-0.1911357;54;-56;-54;-945;-922;3282;2;0.2174515;-0.6038781;-0.6390778;-0.4238227;24;-44;45;2089;2972;-643;8;-0.0166205;-0.9325013;-0.3504155;-0.08587258;60;-68;0;-1899;577;2671;0.7054111;1.882154;2.153565;0.7053022;1.872232;1.608108;0.7051843;1.861488;1.128689;0.7019691;1.76068;0.4018534;0.4408016;1.686117;0.08408038;0.1022061;1.778446;0.2143399;-0.1732408;0.8949797;0.2584499;0;0;0;0.9608968;1.670029;0.0840078;1.252225;1.742875;0.214181;1.451965;0.8508818;0.518693;1.446532;-0.06051683;0.2596359;0.3935808;1.87875;2.1992;0.3829094;0.4805815;2.630328;0.03273839;1.073887;3.786916;0.3935808;1.87875;2.1992;0.3829094;0.4805815;2.630328;0.03273839;1.073887;3.786916
713480.05;NotLabelled;NONE;16384;0.6891191;-0.6620498;0.2867036;0.06786703;19;8;-10;-2274;3418;-177;65536;0.7607573;-0.6177285;0.02077562;0.1980609;-5;-12;1;-1228;3941;-421;8192;0.5055401;-0.6626335;-0.4903047;-0.2548476;18;-25;1;1872;4401;583;32768;0.6644982;-0.4972299;-0.3476454;-0.4362881;-7;-2;-13;474;3913;-896;256;-0.05817174;-0.0235457;-0.9953256;0.0734072;-11;-10;1;643;-1260;4021;128;0.1371191;-0.04986149;0.98383;0.1038781;8;-7;0;237;345;-3518;4;0.4875346;-0.666772;0.4819945;0.2922437;-14;-38;-130;-925;4256;-334;16;-0.200831;-0.9607847;0.05124654;-0.1842105;69;-15;-52;-1011;-972;3598;2;0.2160665;-0.6121883;-0.6334472;-0.4210526;14;-51;28;2365;3378;109;8;-0.006925208;-0.9369619;-0.3393352;-0.08310249;46;-85;-2;-2087;659;3353;0.706969;1.898762;2.125805;0.7067843;1.881943;1.580518;0.7065998;1.865138;1.101273;0.7028427;1.760041;0.3751354;0.4412808;1.684899;0.05782297;0.1031611;1.77969;0.1875499;-0.1732601;0.8975821;0.2492481;0;0;0;0.961289;1.666214;0.05781996;1.252988;1.738375;0.1875446;1.453361;0.8505158;0.5035068;1.445239;-0.06093144;0.2446925;0.3951644;1.895935;2.17161;0.3604868;0.5134681;2.649565;0.03382728;1.085223;3.823752;0.3951644;1.895935;2.17161;0.3604868;0.5134681;2.649565;0.03382728;1.085223;3.823752
713501.0574;NotLabelled;NONE;16384;0.686039;-0.6634349;0.2908587;0.06786703;13;-36;-9;-1864;3834;181;65536;0.7596306;-0.6191136;0.02077562;0.1980609;-3;-8;3;-1200;3917;-541;8192;0.5055401;-0.6641864;-0.4889196;-0.2534626;0;-8;5;2552;3687;1145;32768;0.6643682;-0.4986149;-0.3476454;-0.434903;-10;-2;0;378;3983;-374;256;-0.05955679;-0.02631579;-0.9947501;0.07894737;-13;-4;1;415;-1292;3681;128;0.134349;-0.04847645;0.9841341;0.1052632;5;-12;5;-99;255;-4640;4;0.468144;-0.6699007;0.5083103;0.2714681;-15;-27;-125;-875;4208;92;16;-0.1759003;-0.9689066;0.04155125;-0.1689751;99;52;-46;-863;-432;2990;2;0.2160665;-0.6177285;-0.629894;-0.4182825;5;-37;17;3045;3404;-111;8;0;-0.9405636;-0.3296399;-0.08171745;38;-55;6;-2829;129;3381;0.706598;1.909162;2.111465;0.7063755;1.888873;1.566295;0.7061577;1.869018;1.087167;0.7019673;1.75978;0.3615553;0.4401546;1.683461;0.04473171;0.1022941;1.779811;0.1739835;-0.1737763;0.8983767;0.2460043;0;0;0;0.9601161;1.663514;0.04472873;1.252018;1.735707;0.1739787;1.441741;0.8499112;0.5020735;1.438374;-0.06367064;0.2507875;0.3947773;1.906627;2.157221;0.3399675;0.5431468;2.685215;0.03115839;1.088088;3.876854;0.3947773;1.906627;2.157221;0.3399675;0.5431468;2.685215;0.03115839;1.088088;3.876854
713521.2989;NotLabelled;NONE;16384;0.6845778;-0.6634349;0.2936288;0.07063711;15;-17;-4;-998;4028;393;65536;0.7595915;-0.6191136;0.02216066;0.1980609;-3;-5;2;-616;4021;-823;8192;0.5055401;-0.6626668;-0.4916897;-0.2520775;-8;15;17;1642;3121;385;32768;0.6624163;-0.5;-0.3476454;-0.4362881;-7;0;0;1626;3855;-90;256;-0.05955679;-0.02770083;-0.9944888;0.08171745;-18;-12;-1;135;-612;3967;128;0.134349;-0.04432133;0.9847655;0.101108;30;-20;-2;-65;665;-3774;4;0.4612188;-0.6722091;0.5180055;0.2590028;-16;-2;-119;-1085;3774;-42;16;-0.1606648;-0.9735512;0.03185596;-0.1592798;117;47;-45;205;-462;3264;2;0.2160665;-0.6218836;-0.6276348;-0.4155124;1;-22;18;3365;3280;-433;8;0.005540166;-0.9415135;-0.3268698;-0.08171745;39;-2;20;-3689;-829;3481;0.709529;1.913823;2.09841;0.7093194;1.894713;1.553198;0.7091129;1.875894;1.074028;0.7040588;1.758339;0.3497235;0.4417394;1.679594;0.03391382;0.1043919;1.778987;0.1621983;-0.1738886;0.8990512;0.2434485;0;0;0;0.9616032;1.657243;0.03391099;1.253899;1.729566;0.162193;1.444672;0.8442538;0.4909846;1.440839;-0.07003677;0.2422966;0.3977073;1.911189;2.144154;0.3091776;0.5896561;2.765903;0.03682619;1.067438;3.994673;0.3977073;1.911189;2.144154;0.3091776;0.5896561;2.765903;0.03682619;1.067438;3.994673
713542.0429;NotLabelled;NONE;16384;0.6818823;-0.666205;0.2936288;0.07063711;14;5;-3;-1036;3538;67;65536;0.7591873;-0.6191136;0.0235457;0.199446;3;-9;0;-1340;3797;-363;8192;0.5041551;-0.6626928;-0.4930748;-0.2520775;2;6;13;516;4023;-1419;32768;0.6613686;-0.501385;-0.3476454;-0.4362881;-1;-1;-16;1396;4107;-298;256;-0.05955679;-0.02908587;-0.9942178;0.08448754;-11;-4;1;147;-888;4093;128;0.1357341;-0.04155125;0.9851142;0.09695291;21;-6;-8;171;477;-3838;4;0.4529086;-0.6776592;0.5249307;0.2451524;0;17;-118;-2101;3262;-560;16;-0.1398892;-0.9781983;0.02770083;-0.1509695;146;-5;-49;1453;-64;1914;2;0.2132964;-0.6232687;-0.6290346;-0.4127424;-1;0;29;3671;3148;-863;8;0.01246537;-0.9397494;-0.3310249;-0.08448754;44;50;25;-3805;-1021;3901;0.7110836;1.927854;2.094017;0.7108172;1.903561;1.549011;0.7105607;1.880188;1.070042;0.7050351;1.758499;0.3464232;0.4424446;1.67858;0.03113496;0.1053711;1.77952;0.1589307;-0.1718379;0.8995252;0.2431528;0;0;0;0.9622527;1.654974;0.03113213;1.254756;1.727325;0.1589261;1.45095;0.8434362;0.4883556;1.44364;-0.071661;0.2427305;0.3992665;1.925655;2.139816;0.2903816;0.6257758;2.802627;0.03849286;1.06058;4.051556;0.3992665;1.925655;2.139816;0.2903816;0.6257758;2.802627;0.03849286;1.06058;4.051556
713563.0469;NotLabelled;NONE;16384;0.6775147;-0.6689751;0.2963989;0.07479224;17;-23;0;-338;4546;525;65536;0.7587778;-0.6191136;0.02493075;0.200831;-10;0;14;-1430;3771;-973;8192;0.5027701;-0.6652945;-0.4916897;-0.2506925;10;-24;-3;1742;4263;-1121;32768;0.6604993;-0.5027701;-0.3490305;-0.434903;3;3;-17;472;4113;-502;256;-0.06094183;-0.02908587;-0.9940151;0.08587258;-4;2;9;411;-1552;4099;128;0.1371191;-0.04155125;0.9850577;0.09556787;-7;10;-6;97;23;-3790;4;0.4418283;-0.6839399;0.5318559;0.232687;5;0;-116;-2891;3096;-664;16;-0.1135734;-0.9825599;0.03047091;-0.1440443;180;-53;-51;697;570;1988;2;0.2036011;-0.6274238;-0.6317217;-0.4072022;8;6;30;2567;2868;-773;8;0.02493075;-0.9343796;-0.3448753;-0.08587258;41;0;17;-903;677;2693;0.7094391;1.941125;2.08614;0.7091185;1.911923;1.541375;0.7088147;1.884235;1.062636;0.7027972;1.758416;0.339728;0.4399282;1.677326;0.02497031;0.1031341;1.779809;0.1522736;-0.1714151;0.8996328;0.243055;0;0;0;0.9596781;1.652467;0.02496782;1.25239;1.724842;0.152269;1.448941;0.8420271;0.4843537;1.440043;-0.07381237;0.2415659;0.3976265;1.939338;2.131988;0.274493;0.664611;2.839636;0.04242313;1.044305;4.110188;0.3976265;1.939338;2.131988;0.274493;0.664611;2.839636;0.04242313;1.044305;4.110188
