SEP=;
index;label;segment;RightUpperArm_boneIndex;RightUpperArm_quat9x_w;RightUpperArm_quat9x_x;RightUpperArm_quat9x_y;RightUpperArm_quat9x_z;RightUpperArm_gyroscope_x;RightUpperArm_gyroscope_y;RightUpperArm_gyroscope_z;RightUpperArm_accelerometer_x;RightUpperArm_accelerometer_y;RightUpperArm_accelerometer_z;RightLowerArm_boneIndex;RightLowerArm_quat9x_w;RightLowerArm_quat9x_x;RightLowerArm_quat9x_y;RightLowerArm_quat9x_z;RightLowerArm_gyroscope_x;RightLowerArm_gyroscope_y;RightLowerArm_gyroscope_z;RightLowerArm_accelerometer_x;RightLowerArm_accelerometer_y;RightLowerArm_accelerometer_z;LeftUpperArm_boneIndex;LeftUpperArm_quat9x_w;LeftUpperArm_quat9x_x;LeftUpperArm_quat9x_y;LeftUpperArm_quat9x_z;LeftUpperArm_gyroscope_x;LeftUpperArm_gyroscope_y;LeftUpperArm_gyroscope_z;LeftUpperArm_accelerometer_x;LeftUpperArm_accelerometer_y;LeftUpperArm_accelerometer_z;LeftLowerArm_boneIndex;LeftLowerArm_quat9x_w;LeftLowerArm_quat9x_x;LeftLowerArm_quat9x_y;LeftLowerArm_quat9x_z;LeftLowerArm_gyroscope_x;LeftLowerArm_gyroscope_y;LeftLowerArm_gyroscope_z;LeftLowerArm_accelerometer_x;LeftLowerArm_accelerometer_y;LeftLowerArm_accelerometer_z;Chest_boneIndex;Chest_quat9x_w;Chest_quat9x_x;Chest_quat9x_y;Chest_quat9x_z;Chest_gyroscope_x;Chest_gyroscope_y;Chest_gyroscope_z;Chest_accelerometer_x;Chest_accelerometer_y;Chest_accelerometer_z;Spine_boneIndex;Spine_quat9x_w;Spine_quat9x_x;Spine_quat9x_y;Spine_quat9x_z;Spine_gyroscope_x;Spine_gyroscope_y;Spine_gyroscope_z;Spine_accelerometer_x;Spine_accelerometer_y;Spine_accelerometer_z;RightUpperLeg_boneIndex;RightUpperLeg_quat9x_w;RightUpperLeg_quat9x_x;RightUpperLeg_quat9x_y;RightUpperLeg_quat9x_z;RightUpperLeg_gyroscope_x;RightUpperLeg_gyroscope_y;RightUpperLeg_gyroscope_z;RightUpperLeg_accelerometer_x;RightUpperLeg_accelerometer_y;RightUpperLeg_accelerometer_z;RightLowerLeg_boneIndex;RightLowerLeg_quat9x_w;RightLowerLeg_quat9x_x;RightLowerLeg_quat9x_y;RightLowerLeg_quat9x_z;RightLowerLeg_gyroscope_x;RightLowerLeg_gyroscope_y;RightLowerLeg_gyroscope_z;RightLowerLeg_accelerometer_x;RightLowerLeg_accelerometer_y;RightLowerLeg_accelerometer_z;LeftUpperLeg_boneIndex;LeftUpperLeg_quat9x_w;LeftUpperLeg_quat9x_x;LeftUpperLeg_quat9x_y;LeftUpperLeg_quat9x_z;LeftUpperLeg_gyroscope_x;LeftUpperLeg_gyroscope_y;LeftUpperLeg_gyroscope_z;LeftUpperLeg_accelerometer_x;LeftUpperLeg_accelerometer_y;LeftUpperLeg_accelerometer_z;LeftLowerLeg_boneIndex;LeftLowerLeg_quat9x_w;LeftLowerLeg_quat9x_x;LeftLowerLeg_quat9x_y;LeftLowerLeg_quat9x_z;LeftLowerLeg_gyroscope_x;LeftLowerLeg_gyroscope_y;LeftLowerLeg_gyroscope_z;LeftLowerLeg_accelerometer_x;LeftLowerLeg_accelerometer_y;LeftLowerLeg_accelerometer_z;pelvis_x;pelvis_y;pelvis_z;lowerSpine_x;lowerSpine_y;lowerSpine_z;middleSpine_x;middleSpine_y;middleSpine_z;upperSpine_x;upperSpine_y;upperSpine_z;rightClavicle_x;rightClavicle_y;rightClavicle_z;rightShoulder_x;rightShoulder_y;rightShoulder_z;rightElbow_x;rightElbow_y;rightElbow_z;rightWrist_x;rightWrist_y;rightWrist_z;leftClavicle_x;leftClavicle_y;leftClavicle_z;leftShoulder_x;leftShoulder_y;leftShoulder_z;leftElbow_x;leftElbow_y;leftElbow_z;leftWrist_x;leftWrist_y;leftWrist_z;rightHip_x;rightHip_y;rightHip_z;rightKnee_x;rightKnee_y;rightKnee_z;rightAnkle_x;rightAnkle_y;rightAnkle_z;leftHip_x;leftHip_y;leftHip_z;leftKnee_x;leftKnee_y;leftKnee_z;leftAnkle_x;leftAnkle_y;leftAnkle_z;
624845.2949;NotLabelled;NONE;16384;0.7776524;0.4764543;0.2617728;0.3157895;3;0;0;2950;-2430;1391;65536;0.7668279;0.5900277;-0.199446;0.1551246;-1;0;-1;-188;-3963;-1139;8192;0.7645066;0.4806094;-0.3628809;-0.2299169;1;0;1;-3038;-2287;1869;32768;0.7902084;0.602493;0.101108;-0.04847645;-2;0;0;-252;-4079;-1280;256;0.0401662;-0.02077562;-0.599723;-0.7989289;1;0;0;-169;3884;-1215;128;0.06094183;0;0.5637119;0.8237202;1;0;0;-401;3861;1526;4;0.5315078;-0.5041551;0.4847645;0.4778393;0;-2;-1;115;4126;138;16;0.6426592;-0.7622348;0.05401662;-0.05540166;0;0;0;693;3976;634;2;0.5224931;-0.4889196;-0.4806094;-0.5069252;0;-1;1;-205;4108;59;8;0.5817174;-0.7022898;-0.3462604;-0.2202216;0;0;0;-953;4001;387;0.5827066;2.813756;-0.1562875;0.5886571;3.356006;-0.0966979;0.5938899;3.832865;-0.04632936;0.566214;4.53727;0.1574117;0.2950018;4.850773;0.21133;-0.04006337;4.685248;0.233058;-0.6648102;5.217058;-0.1972902;-0.5315105;6.133083;-0.39959;0.8149444;4.871205;0.2113297;1.109619;4.730425;0.2330577;1.875713;5.276474;0.02519992;1.801259;6.188996;-0.2188197;0.2704641;2.772785;-0.1688668;0.2248788;1.310861;-0.2083291;0;0;0;0.2704641;2.772785;-0.1688668;0.2248788;1.310861;-0.2083291;0;0;0
624866.0376;NotLabelled;NONE;16384;0.7776524;0.4764543;0.2617728;0.3157895;2;0;0;2994;-2414;1389;65536;0.7678916;0.5886427;-0.199446;0.1551246;0;-1;-2;-30;-3965;-1169;8192;0.7645066;0.4806094;-0.3628809;-0.2299169;1;0;0;-3020;-2319;1801;32768;0.7899438;0.602493;0.1024931;-0.04986149;0;3;-1;-182;-4073;-1258;256;0.0401662;-0.02077562;-0.5983379;-0.7999668;0;0;0;-159;3966;-1171;128;0.06094183;-0.001385042;0.5637119;0.8237191;-1;0;0;-361;3931;1478;4;0.5302594;-0.5041551;0.4847645;0.4792244;0;-1;-1;129;4040;144;16;0.6426592;-0.7621354;0.05540166;-0.05540166;0;0;0;651;3994;682;2;0.5224931;-0.4889196;-0.4806094;-0.5069252;0;-2;0;-211;4136;89;8;0.5831025;-0.7018226;-0.3448753;-0.2202216;0;0;0;-983;4007;335;0.583397;2.813834;-0.160168;0.5893474;3.356084;-0.1005784;0.5945804;3.832942;-0.05020989;0.5669044;4.537347;0.1535312;0.2956922;4.850851;0.2074495;-0.03937295;4.685326;0.2291775;-0.6622487;5.218359;-0.2023679;-0.5289486;6.134384;-0.4046678;0.8156348;4.871283;0.2074492;1.110309;4.730503;0.2291772;1.877827;5.27533;0.02337548;1.801707;6.186822;-0.2239572;0.2711545;2.772863;-0.1727473;0.2248788;1.310861;-0.208329;0;0;0;0.2711545;2.772863;-0.1727473;0.2248788;1.310861;-0.208329;0;0;0
624886.0521;NotLabelled;NONE;16384;0.7784994;0.4750692;0.2617728;0.3157895;3;-2;1;2996;-2386;1425;65536;0.7678916;0.5886427;-0.199446;0.1551246;0;-2;-1;10;-3969;-1147;8192;0.7649581;0.4792244;-0.3628809;-0.2313019;2;1;-1;-2912;-2243;1913;32768;0.7898551;0.602493;0.1024931;-0.05124654;0;2;-1;-26;-3959;-1090;256;0.0401662;-0.02077562;-0.5983379;-0.7999668;0;0;0;-185;3922;-1155;128;0.06094183;-0.001385042;0.5637119;0.8237191;-1;0;0;-423;3863;1446;4;0.5302594;-0.5041551;0.4847645;0.4792244;0;0;-1;139;4108;194;16;0.6426592;-0.7621354;0.05540166;-0.05540166;0;0;0;569;3994;642;2;0.5238333;-0.4889196;-0.4806094;-0.5055401;0;1;1;-221;4146;-21;8;0.5831025;-0.7022557;-0.3448753;-0.2188366;0;0;0;-911;3967;341;0.5819573;2.813579;-0.1603059;0.5879078;3.355833;-0.1007492;0.5931407;3.832694;-0.05040956;0.5653936;4.536386;0.1557698;0.2941445;4.849664;0.2108087;-0.0408943;4.684017;0.2320097;-0.6638007;5.217051;-0.1994909;-0.5294565;6.132249;-0.4048175;0.8140842;4.870169;0.2108083;1.108781;4.729356;0.2320092;1.876285;5.274183;0.02615264;1.799664;6.18577;-0.2206782;0.2697148;2.772608;-0.1728826;0.2272385;1.310482;-0.2081507;0;0;0;0.2697148;2.772608;-0.1728826;0.2272385;1.310482;-0.2081507;0;0;0
624906.0487;NotLabelled;NONE;16384;0.7784994;0.4750692;0.2617728;0.3157895;4;-2;1;2984;-2388;1499;65536;0.7678916;0.5886427;-0.199446;0.1551246;0;-2;0;22;-3945;-1177;8192;0.7649581;0.4792244;-0.3628809;-0.2313019;0;0;-1;-2874;-2337;1963;32768;0.789764;0.602493;0.1024931;-0.05263158;0;0;0;-34;-3985;-1150;256;0.0401662;-0.02077562;-0.5983379;-0.7999668;0;0;-1;-153;3918;-1131;128;0.06094183;-0.001385042;0.5637119;0.8237191;-1;-1;0;-407;3807;1448;4;0.5327678;-0.5041551;0.4833795;0.4778393;0;1;0;201;4072;140;16;0.6426592;-0.7621354;0.05540166;-0.05540166;0;1;0;575;3980;650;2;0.5238333;-0.4889196;-0.4806094;-0.5055401;0;1;1;-249;4082;13;8;0.5831025;-0.7022557;-0.3448753;-0.2188366;0;0;0;-941;4015;355;0.5819575;2.813579;-0.1603056;0.587908;3.355833;-0.1007489;0.5931409;3.832694;-0.05040924;0.5653936;4.536386;0.1557701;0.2941445;4.849664;0.2108088;-0.0408944;4.684017;0.2320096;-0.6632016;5.215798;-0.2018939;-0.5288571;6.130998;-0.4072203;0.8140842;4.870169;0.2108088;1.108781;4.729356;0.23201;1.877458;5.271585;0.02368429;1.80243;6.18334;-0.223017;0.269715;2.772608;-0.1728824;0.2272387;1.310482;-0.2081505;0;0;0;0.269715;2.772608;-0.1728824;0.2272387;1.310482;-0.2081505;0;0;0
624926.0424;NotLabelled;NONE;16384;0.7789637;0.4750692;0.2603878;0.3157895;1;0;0;2906;-2426;1437;65536;0.7678916;0.5886427;-0.199446;0.1551246;-1;0;1;78;-3871;-1067;8192;0.7653756;0.4792244;-0.3628809;-0.2299169;0;0;-1;-2788;-2259;1919;32768;0.789764;0.602493;0.1024931;-0.05263158;-1;0;0;-208;-3953;-1092;256;0.0401662;-0.02077562;-0.5983379;-0.7999668;0;0;0;-173;3902;-1173;128;0.06094183;-0.001385042;0.5637119;0.8237191;-1;0;0;-401;3881;1474;4;0.5327678;-0.5041551;0.4833795;0.4778393;0;2;0;153;4094;144;16;0.6426592;-0.7621354;0.05540166;-0.05540166;-1;2;1;607;3968;654;2;0.5238333;-0.4889196;-0.4806094;-0.5055401;0;0;1;-207;4094;-1;8;0.5831025;-0.7022557;-0.3448753;-0.2188366;0;0;0;-939;4003;309;0.5850693;2.813378;-0.1561146;0.5910197;3.355632;-0.09655783;0.5962527;3.832494;-0.04621819;0.5685054;4.536186;0.1599611;0.2972563;4.849463;0.2149999;-0.03778258;4.683816;0.2362007;-0.6600897;5.215597;-0.1977029;-0.5257453;6.130797;-0.4030292;0.8171961;4.869968;0.2149999;1.111893;4.729155;0.2362011;1.88057;5.271384;0.02787536;1.807136;6.183303;-0.2186957;0.2728268;2.772407;-0.1686913;0.2272388;1.310482;-0.2081505;0;0;0;0.2728268;2.772407;-0.1686913;0.2272388;1.310482;-0.2081505;0;0;0
624946.224;NotLabelled;NONE;16384;0.7789637;0.4750692;0.2603878;0.3157895;1;2;0;2844;-2368;1423;65536;0.7681701;0.5886427;-0.199446;0.1537396;-2;0;0;112;-3879;-1003;8192;0.7653756;0.4792244;-0.3628809;-0.2299169;1;1;-1;-2808;-2229;1809;32768;0.789764;0.602493;0.1024931;-0.05263158;-1;0;0;-246;-3921;-1030;256;0.0401662;-0.01939058;-0.5983379;-0.8000015;0;0;0;-183;3944;-1113;128;0.06094183;-0.001385042;0.5637119;0.8237191;0;1;0;-379;3825;1436;4;0.5327678;-0.5041551;0.4833795;0.4778393;0;2;0;87;4086;134;16;0.6426592;-0.7622348;0.05401662;-0.05540166;-1;2;0;609;4052;636;2;0.5238333;-0.4889196;-0.4806094;-0.5055401;0;1;0;-249;4142;59;8;0.5817174;-0.7034034;-0.3448753;-0.2188366;0;0;0;-961;3981;331;0.5850693;2.813378;-0.1561146;0.5910197;3.355632;-0.09655783;0.5962527;3.832494;-0.04621819;0.5685054;4.536186;0.1599611;0.2972563;4.849463;0.2149999;-0.03778258;4.683816;0.2362007;-0.6582121;5.216816;-0.1988942;-0.5238677;6.132015;-0.4042206;0.8171961;4.869968;0.2149999;1.111893;4.729155;0.2362011;1.879594;5.272735;0.02779984;1.80616;6.184655;-0.2187712;0.2728268;2.772407;-0.1686913;0.2272388;1.310482;-0.2081505;0;0;0;0.2728268;2.772407;-0.1686913;0.2272388;1.310482;-0.2081505;0;0;0
624988.0344;NotLabelled;NONE;16384;0.7798067;0.4736842;0.2603878;0.3157895;2;0;-2;2968;-2428;1355;65536;0.7692294;0.5872576;-0.199446;0.1537396;-2;-1;0;38;-3893;-1097;8192;0.766241;0.4778393;-0.3628809;-0.2299169;1;-2;0;-2804;-2349;1907;32768;0.790638;0.601108;0.1038781;-0.05263158;-3;0;0;-244;-4015;-1094;256;0.0401662;-0.01939058;-0.5983379;-0.8000015;1;0;-1;-207;3892;-1101;128;0.06094183;-0.001385042;0.5637119;0.8237191;0;0;1;-391;3823;1424;4;0.5327678;-0.5041551;0.4833795;0.4778393;0;2;0;87;4084;178;16;0.6412742;-0.7634004;0.05401662;-0.05540166;-2;2;0;717;3928;670;2;0.5238333;-0.4889196;-0.4806094;-0.5055401;0;2;0;-257;4074;17;8;0.5831025;-0.7022557;-0.3448753;-0.2188366;0;0;0;-955;4037;345;0.58232;2.813756;-0.1569079;0.5882706;3.35601;-0.09735109;0.5935036;3.832872;-0.04701144;0.5645872;4.536513;0.1591818;0.2928181;4.849338;0.2142271;-0.04194514;4.683135;0.235425;-0.6633382;5.216135;-0.1982919;-0.5278046;6.131121;-0.4037854;0.8127229;4.870707;0.2142268;1.107654;4.730384;0.2354249;1.87489;5.273963;0.02532078;1.80091;6.185883;-0.2210867;0.2700775;2.772785;-0.1694844;0.2244021;1.310861;-0.2088425;0;0;0;0.2700775;2.772785;-0.1694844;0.2244021;1.310861;-0.2088425;0;0;0
625008.0443;NotLabelled;NONE;16384;0.7798067;0.4736842;0.2603878;0.3157895;3;1;-2;2962;-2440;1361;65536;0.7692294;0.5872576;-0.199446;0.1537396;-2;0;0;86;-3937;-1049;8192;0.766241;0.4778393;-0.3628809;-0.2299169;1;0;-1;-2830;-2219;1873;32768;0.790638;0.601108;0.1038781;-0.05263158;-4;0;0;-186;-3995;-1110;256;0.0401662;-0.01939058;-0.5983379;-0.8000015;1;0;-1;-265;3962;-1117;128;0.06094183;-0.001385042;0.5637119;0.8237191;0;1;0;-379;3891;1476;4;0.5314537;-0.5055401;0.4833795;0.4778393;0;1;0;35;4052;150;16;0.6412742;-0.7632987;0.05401662;-0.0567867;-2;2;0;651;3960;708;2;0.5224931;-0.4889196;-0.4806094;-0.5069252;0;1;0;-305;4090;27;8;0.5831025;-0.7022557;-0.3448753;-0.2188366;0;0;0;-949;4047;347;0.5826716;2.812927;-0.1616829;0.5886222;3.355181;-0.1021261;0.593855;3.832042;-0.05178645;0.5649387;4.535683;0.1544068;0.2931696;4.848508;0.209452;-0.04159359;4.682304;0.23065;-0.6623906;5.214044;-0.2054612;-0.5258115;6.128192;-0.4139676;0.8130745;4.869877;0.2094518;1.108005;4.729554;0.2306498;1.87543;5.271878;0.0180048;1.799281;6.182859;-0.2312006;0.270429;2.771955;-0.1742594;0.2247536;1.310031;-0.2136176;0;0;0;0.270429;2.771955;-0.1742594;0.2247536;1.310031;-0.2136176;0;0;0
625029.0308;NotLabelled;NONE;16384;0.7793428;0.4736842;0.2617728;0.3157895;4;0;-1;2994;-2384;1353;65536;0.7692294;0.5872576;-0.199446;0.1537396;-3;-2;1;-60;-3923;-1005;8192;0.766241;0.4778393;-0.3628809;-0.2299169;2;1;-2;-2988;-2261;1795;32768;0.791689;0.599723;0.1038781;-0.05263158;-3;0;0;-100;-3923;-1102;256;0.0401662;-0.01939058;-0.5983379;-0.8000015;0;0;0;-217;3896;-1191;128;0.06094183;-0.001385042;0.5637119;0.8237191;0;1;0;-425;3777;1508;4;0.5314537;-0.5055401;0.4833795;0.4778393;0;1;0;31;4044;122;16;0.6412742;-0.7632987;0.05401662;-0.0567867;-1;2;0;613;3954;766;2;0.5224931;-0.4889196;-0.4806094;-0.5069252;0;1;0;-279;4096;31;8;0.5831025;-0.7022557;-0.3448753;-0.2188366;0;0;0;-923;3991;387;0.5820011;2.812765;-0.1654217;0.5879517;3.355019;-0.1058649;0.5931846;3.83188;-0.05552523;0.5642683;4.535521;0.150668;0.2924992;4.848346;0.2057133;-0.04226403;4.682143;0.2269112;-0.6630611;5.213882;-0.2092;-0.526482;6.12803;-0.4177063;0.812404;4.869715;0.205713;1.107335;4.729392;0.2269111;1.87476;5.271717;0.01426601;1.798611;6.182697;-0.2349393;0.2697586;2.771793;-0.1779982;0.2275428;1.309654;-0.2129764;0;0;0;0.2697586;2.771793;-0.1779982;0.2275428;1.309654;-0.2129764;0;0;0
625050.0251;NotLabelled;NONE;16384;0.7796209;0.4722992;0.2617728;0.3171745;4;-1;-1;3058;-2396;1399;65536;0.7702849;0.5858725;-0.199446;0.1537396;-3;-2;2;8;-3993;-1087;8192;0.766241;0.4778393;-0.3628809;-0.2299169;3;0;-1;-2930;-2199;1831;32768;0.791689;0.599723;0.1038781;-0.05263158;-3;1;0;-22;-3879;-1150;256;0.0401662;-0.01939058;-0.5983379;-0.8000015;0;0;-1;-141;3866;-1115;128;0.06094183;-0.001385042;0.5637119;0.8237191;-1;0;0;-441;3915;1450;4;0.5326958;-0.5055401;0.4833795;0.4764543;0;1;0;-25;4072;122;16;0.6412742;-0.7632987;0.05401662;-0.0567867;-1;1;0;663;3972;730;2;0.5224931;-0.4889196;-0.4806094;-0.5069252;0;0;0;-305;4088;69;8;0.5831025;-0.7022557;-0.3448753;-0.2188366;0;0;0;-945;3961;369;0.5820011;2.812765;-0.1654217;0.5879517;3.355019;-0.1058649;0.5931846;3.83188;-0.05552523;0.5642683;4.535521;0.150668;0.2924992;4.848346;0.2057133;-0.04226403;4.682143;0.2269112;-0.664939;5.212665;-0.2080048;-0.5283599;6.126813;-0.4165112;0.812404;4.869715;0.205713;1.107335;4.729392;0.2269111;1.87476;5.271717;0.01426601;1.798516;6.181817;-0.2381086;0.2697586;2.771793;-0.1779982;0.2275428;1.309654;-0.2129764;0;0;0;0.2697586;2.771793;-0.1779982;0.2275428;1.309654;-0.2129764;0;0;0
625071.0398;NotLabelled;NONE;16384;0.7800846;0.4722992;0.2603878;0.3171745;3;0;-2;3074;-2416;1423;65536;0.7700072;0.5858725;-0.199446;0.1551246;-3;-1;1;-4;-3971;-1133;8192;0.7675168;0.4764543;-0.3628809;-0.2285319;1;0;-1;-2808;-2311;1905;32768;0.7927364;0.5983379;0.1038781;-0.05263158;-3;-1;1;-184;-3945;-1198;256;0.0401662;-0.01939058;-0.5983379;-0.8000015;0;0;-1;-217;3944;-1163;128;0.06094183;-0.001385042;0.5637119;0.8237191;-1;1;0;-453;3863;1400;4;0.5326958;-0.5055401;0.4833795;0.4764543;0;0;0;-21;4078;186;16;0.6412742;-0.7632987;0.05401662;-0.0567867;0;0;0;643;3982;712;2;0.5224931;-0.4889196;-0.4806094;-0.5069252;0;0;0;-191;4128;-15;8;0.5817174;-0.7034034;-0.3448753;-0.2188366;0;0;0;-993;3957;345;0.5857951;2.812643;-0.1651204;0.5917457;3.354897;-0.1055636;0.5969787;3.831758;-0.05522397;0.5680623;4.535399;0.1509693;0.2962931;4.848225;0.2060145;-0.03847003;4.682021;0.2272125;-0.6614853;5.210114;-0.2101651;-0.523863;6.123415;-0.4216775;0.8161981;4.869594;0.2060143;1.111129;4.72927;0.2272123;1.878554;5.271595;0.01456729;1.80231;6.181695;-0.2378073;0.2735526;2.771672;-0.1776969;0.2275429;1.309654;-0.2129764;0;0;0;0.2735526;2.771672;-0.1776969;0.2275429;1.309654;-0.2129764;0;0;0
625092.0607;NotLabelled;NONE;16384;0.7800846;0.4722992;0.2603878;0.3171745;2;1;-2;3002;-2376;1457;65536;0.771059;0.5844875;-0.199446;0.1551246;-4;0;3;30;-4011;-1139;8192;0.7668604;0.4764543;-0.3642659;-0.2285319;1;0;-1;-2918;-2305;1911;32768;0.7925537;0.5983379;0.1052632;-0.05263158;-4;0;1;-236;-3987;-1114;256;0.0401662;-0.01939058;-0.5983379;-0.8000015;0;0;0;-231;3992;-1227;128;0.06094183;-0.001385042;0.5637119;0.8237191;0;1;0;-393;3925;1488;4;0.5326958;-0.5055401;0.4833795;0.4764543;0;-1;0;33;4080;66;16;0.6398892;-0.7644601;0.05401662;-0.0567867;0;1;0;617;3944;726;2;0.5224931;-0.4889196;-0.4806094;-0.5069252;0;0;1;-155;4100;-15;8;0.5817174;-0.7034034;-0.3448753;-0.2188366;0;0;0;-939;3951;343;0.5857951;2.812643;-0.1651204;0.5917457;3.354897;-0.1055636;0.5969787;3.831758;-0.05522397;0.5680623;4.535399;0.1509693;0.2962931;4.848225;0.2060145;-0.03847003;4.682021;0.2272125;-0.6596071;5.211334;-0.2113606;-0.5236218;6.124851;-0.4230026;0.8161981;4.869594;0.2060143;1.111129;4.72927;0.2272123;1.877768;5.271678;0.01196039;1.80143;6.180887;-0.243576;0.2735526;2.771672;-0.1776969;0.2275429;1.309654;-0.2129764;0;0;0;0.2735526;2.771672;-0.1776969;0.2275429;1.309654;-0.2129764;0;0;0
625112.2116;NotLabelled;NONE;16384;0.7804583;0.4709141;0.2617728;0.3171745;3;1;-1;2916;-2386;1399;65536;0.7724634;0.5831025;-0.1980609;0.1551246;-4;0;2;-192;-3885;-1173;8192;0.7668604;0.4764543;-0.3642659;-0.2285319;2;-1;-1;-2970;-2223;1899;32768;0.7935974;0.5969529;0.1052632;-0.05263158;-4;0;1;-60;-3925;-1152;256;0.0401662;-0.01939058;-0.5983379;-0.8000015;-1;0;0;-155;3950;-1217;128;0.06094183;-0.001385042;0.5637119;0.8237191;0;1;0;-447;3911;1464;4;0.5326958;-0.5055401;0.4833795;0.4764543;0;0;0;53;4040;164;16;0.6398892;-0.7644601;0.05401662;-0.0567867;0;0;0;629;3934;718;2;0.5224931;-0.4889196;-0.4806094;-0.5069252;0;0;0;-225;4156;51;8;0.5817174;-0.7034034;-0.3448753;-0.2188366;0;0;0;-1021;4035;357;0.5861495;2.811798;-0.1698849;0.5921001;3.354052;-0.1103282;0.597333;3.830913;-0.0599885;0.5684165;4.534554;0.1462047;0.2966475;4.847379;0.20125;-0.03811567;4.681176;0.2224479;-0.6592526;5.210488;-0.2161251;-0.5222222;6.123148;-0.4307658;0.8165525;4.868748;0.2012497;1.111483;4.728425;0.2224478;1.879555;5.269619;0.00925836;1.801135;6.178759;-0.2458928;0.273907;2.770826;-0.1824615;0.2278972;1.308808;-0.217741;0;0;0;0.273907;2.770826;-0.1824615;0.2278972;1.308808;-0.217741;0;0;0
625134.0646;NotLabelled;NONE;16384;0.7804583;0.4709141;0.2617728;0.3171745;3;0;-2;2940;-2384;1441;65536;0.7724634;0.5831025;-0.1980609;0.1551246;-3;-1;1;-8;-3983;-1207;8192;0.7668604;0.4764543;-0.3642659;-0.2285319;2;-3;-1;-2842;-2375;1853;32768;0.7935974;0.5969529;0.1052632;-0.05263158;-3;0;1;-174;-3873;-1240;256;0.0401662;-0.01939058;-0.5983379;-0.8000015;-1;-1;0;-133;3932;-1187;128;0.06094183;-0.001385042;0.5637119;0.8237191;0;0;0;-493;3899;1432;4;0.5326958;-0.5055401;0.4833795;0.4764543;0;1;0;33;4108;156;16;0.6398892;-0.7644601;0.05401662;-0.0567867;0;0;0;643;3958;706;2;0.5224931;-0.4889196;-0.4806094;-0.5069252;0;0;0;-211;4106;65;8;0.5817174;-0.7034034;-0.3448753;-0.2188366;0;0;0;-985;3951;339;0.5861495;2.811798;-0.1698849;0.5921001;3.354052;-0.1103282;0.597333;3.830913;-0.0599885;0.5684165;4.534554;0.1462047;0.2966475;4.847379;0.20125;-0.03811567;4.681176;0.2224479;-0.6605323;5.207997;-0.2173096;-0.5242629;6.119778;-0.4361317;0.8165525;4.868748;0.2012497;1.111483;4.728425;0.2224478;1.879555;5.269619;0.00925836;1.801038;6.177859;-0.2490477;0.273907;2.770826;-0.1824615;0.2278972;1.308808;-0.217741;0;0;0;0.273907;2.770826;-0.1824615;0.2278972;1.308808;-0.217741;0;0;0
625155.0423;NotLabelled;NONE;16384;0.7812924;0.4695291;0.2617728;0.3171745;4;0;-2;3050;-2426;1477;65536;0.7724634;0.5831025;-0.1980609;0.1551246;-2;-1;1;-22;-3937;-1195;8192;0.7681302;0.4750692;-0.3642659;-0.2271468;1;-2;0;-2860;-2305;1877;32768;0.7935974;0.5969529;0.1052632;-0.05263158;-3;0;1;-302;-3951;-1218;256;0.04155125;-0.01939058;-0.5983379;-0.7999308;0;-1;0;-187;3990;-1167;128;0.06094183;-0.001385042;0.5637119;0.8237191;2;1;1;-357;3945;1390;4;0.5326958;-0.5055401;0.4833795;0.4764543;0;0;0;63;4090;102;16;0.6398892;-0.7644601;0.05401662;-0.0567867;0;1;0;655;3946;672;2;0.5238333;-0.4889196;-0.4806094;-0.5055401;0;0;0;-185;4112;93;8;0.5817174;-0.7034034;-0.3448753;-0.2188366;0;0;0;-957;4031;365;0.5861495;2.811798;-0.1698849;0.5921001;3.354052;-0.1103282;0.597333;3.830913;-0.0599885;0.5684165;4.534554;0.1462047;0.2966475;4.847379;0.20125;-0.03811567;4.681176;0.2224479;-0.6605323;5.207997;-0.2173096;-0.5242629;6.119778;-0.4361317;0.8165525;4.868748;0.2012497;1.111483;4.728425;0.2224478;1.879555;5.269619;0.00925836;1.801038;6.177859;-0.2490477;0.273907;2.770826;-0.1824615;0.2278972;1.308808;-0.217741;0;0;0;0.273907;2.770826;-0.1824615;0.2278972;1.308808;-0.217741;0;0;0
625176.0525;NotLabelled;NONE;16384;0.7812924;0.4695291;0.2617728;0.3171745;4;0;-1;3064;-2406;1445;65536;0.7724634;0.5831025;-0.1980609;0.1551246;-2;-2;1;-86;-4017;-1113;8192;0.7681302;0.4750692;-0.3642659;-0.2271468;3;-1;0;-2914;-2193;1857;32768;0.7944527;0.5955678;0.1066482;-0.05263158;-1;2;0;-128;-3957;-1120;256;0.04155125;-0.01939058;-0.5983379;-0.7999308;-1;-1;-1;-217;3934;-1195;128;0.06094183;-0.002770083;0.5637119;0.8237156;2;1;1;-363;3903;1446;4;0.5326958;-0.5055401;0.4833795;0.4764543;0;1;0;37;4062;136;16;0.6398892;-0.7644601;0.05401662;-0.0567867;0;2;0;685;3962;704;2;0.5238333;-0.4889196;-0.4806094;-0.5055401;0;1;0;-195;4144;1;8;0.5817174;-0.7034034;-0.3448753;-0.2188366;0;0;0;-979;3973;367;0.5864537;2.811797;-0.1694277;0.5924043;3.354051;-0.1098709;0.5976372;3.830913;-0.05953129;0.5671623;4.534531;0.1465149;0.2947014;4.846765;0.2014924;-0.0396934;4.679827;0.2227219;-0.6607711;5.205368;-0.2204456;-0.5241367;6.117148;-0.43904;0.8145577;4.869285;0.2014924;1.109798;4.729618;0.2227224;1.877448;5.270889;0.008215189;1.799363;6.179129;-0.2502216;0.2742112;2.770826;-0.1820043;0.2282605;1.308808;-0.2173603;0;0;0;0.2742112;2.770826;-0.1820043;0.2282605;1.308808;-0.2173603;0;0;0
625197.229;NotLabelled;NONE;16384;0.7815599;0.468144;0.2617728;0.3185596;3;0;-1;3000;-2334;1461;65536;0.7732279;0.5817174;-0.1980609;0.1565097;-2;-1;1;-202;-3927;-1229;8192;0.768985;0.4736842;-0.3642659;-0.2271468;3;-1;-1;-2820;-2219;1883;32768;0.7944527;0.5955678;0.1066482;-0.05263158;-1;3;0;-114;-3977;-1128;256;0.04155125;-0.01939058;-0.5983379;-0.7999308;-2;-1;-1;-187;3956;-1113;128;0.06094183;-0.002770083;0.5637119;0.8237156;0;1;1;-447;3849;1526;4;0.5326958;-0.5055401;0.4833795;0.4764543;0;1;0;41;4072;178;16;0.6398892;-0.7644601;0.05401662;-0.0567867;-1;1;0;687;3930;712;2;0.5212157;-0.4889196;-0.4819945;-0.5069252;-1;2;0;-227;4134;9;8;0.5817174;-0.7034034;-0.3448753;-0.2188366;0;0;0;-943;3951;349;0.5864539;2.811798;-0.1694316;0.5924046;3.354056;-0.1099069;0.5976376;3.83092;-0.05959541;0.5671628;4.534539;0.1464505;0.2947018;4.846774;0.2014279;-0.0396929;4.679834;0.2226575;-0.6607718;5.205377;-0.2205085;-0.5241371;6.117157;-0.4391029;0.8145582;4.869293;0.2014278;1.109798;4.729627;0.2226579;1.877449;5.270897;0.008148283;1.797186;6.178158;-0.2530478;0.2742114;2.770826;-0.1820055;0.2282605;1.308808;-0.2173609;0;0;0;0.2742114;2.770826;-0.1820055;0.2282605;1.308808;-0.2173609;0;0;0
625218.0607;NotLabelled;NONE;16384;0.7815599;0.468144;0.2617728;0.3185596;2;1;-1;3002;-2320;1461;65536;0.7738603;0.5817174;-0.1966759;0.1551246;-2;0;2;42;-3947;-1197;8192;0.768985;0.4736842;-0.3642659;-0.2271468;4;0;-2;-2914;-2231;1973;32768;0.7944527;0.5955678;0.1066482;-0.05263158;-3;1;0;-196;-3929;-1164;256;0.04155125;-0.01939058;-0.599723;-0.7988929;-2;0;0;-209;3886;-1101;128;0.06094183;-0.002770083;0.5637119;0.8237156;-1;2;0;-359;3795;1452;4;0.5326958;-0.5055401;0.4833795;0.4764543;0;1;0;37;4050;130;16;0.6398892;-0.7644601;0.05401662;-0.0567867;0;1;0;661;3990;762;2;0.5212157;-0.4889196;-0.4819945;-0.5069252;-1;2;-1;-267;4026;-7;8;0.5817174;-0.7034034;-0.3448753;-0.2188366;0;0;0;-989;3991;383;0.5864537;2.811798;-0.1694302;0.5924044;3.354055;-0.1099055;0.5976374;3.83092;-0.05959406;0.5671626;4.534538;0.1464521;0.2947016;4.846772;0.2014297;-0.03969322;4.679834;0.2226593;-0.66109;5.202929;-0.2229476;-0.5250383;6.114045;-0.4446565;0.814558;4.869292;0.2014297;1.109798;4.729626;0.2226596;1.877642;5.269617;0.00563395;1.797379;6.176878;-0.2555618;0.2742112;2.770826;-0.1820042;0.2282605;1.308808;-0.2173603;0;0;0;0.2742112;2.770826;-0.1820042;0.2282605;1.308808;-0.2173603;0;0;0
625239.0397;NotLabelled;NONE;16384;0.7821231;0.468144;0.2617728;0.3171745;3;1;-1;3006;-2310;1411;65536;0.774621;0.5803324;-0.1966759;0.1565097;-3;0;2;-172;-3899;-1191;8192;0.7698365;0.4722992;-0.3642659;-0.2271468;3;-1;-1;-2850;-2261;1963;32768;0.7952093;0.5941828;0.1080332;-0.05401662;-4;0;0;-100;-3907;-1198;256;0.04155125;-0.01939058;-0.599723;-0.7988929;-1;0;0;-207;3868;-1143;128;0.06232687;-0.002770083;0.5637119;0.8236119;-1;3;1;-367;3803;1416;4;0.5326958;-0.5055401;0.4833795;0.4764543;0;1;0;89;4070;104;16;0.6398892;-0.7644526;0.05263158;-0.05817174;0;2;0;677;3944;726;2;0.5225115;-0.4875346;-0.4819945;-0.5069252;0;2;0;-253;4064;63;8;0.5817174;-0.7034034;-0.3448753;-0.2188366;0;0;0;-1017;3969;457;0.5864674;2.811798;-0.1694098;0.5924179;3.354055;-0.1098851;0.5976509;3.83092;-0.05957368;0.5672442;4.535251;0.1440337;0.2948188;4.847712;0.1978905;-0.03960261;4.680894;0.2196471;-0.6609664;5.20399;-0.2260061;-0.5250804;6.114876;-0.448759;0.8146783;4.870158;0.1978904;1.109896;4.730525;0.2196473;1.877756;5.270516;0.002678782;1.797512;6.177776;-0.2585229;0.2742248;2.770826;-0.1819838;0.2282767;1.308808;-0.2173433;0;0;0;0.2742248;2.770826;-0.1819838;0.2282767;1.308808;-0.2173433;0;0;0
625260.0354;NotLabelled;NONE;16384;0.7829504;0.466759;0.2617728;0.3171745;2;1;-1;2960;-2308;1395;65536;0.774621;0.5803324;-0.1966759;0.1565097;-3;1;2;-92;-3861;-1177;8192;0.7698365;0.4722992;-0.3642659;-0.2271468;2;-4;-1;-2838;-2209;1947;32768;0.7952093;0.5941828;0.1080332;-0.05401662;-5;0;0;-60;-3829;-1208;256;0.04155125;-0.01939058;-0.599723;-0.7988929;0;0;0;-205;3840;-1195;128;0.06232687;-0.004155125;0.5637119;0.8236061;0;1;0;-395;3853;1430;4;0.5326958;-0.5055401;0.4833795;0.4764543;0;1;0;95;4096;118;16;0.6398892;-0.7644526;0.05263158;-0.05817174;0;2;0;649;3944;716;2;0.5225115;-0.4875346;-0.4819945;-0.5069252;0;2;0;-237;4110;11;8;0.5817174;-0.7027227;-0.3462604;-0.2188366;0;0;0;-1007;3973;399;0.5868948;2.811804;-0.1689578;0.5928456;3.354078;-0.1095857;0.5980788;3.830957;-0.05940844;0.567672;4.535288;0.1441989;0.2952468;4.847748;0.1980557;-0.03917475;4.680931;0.2198124;-0.6596214;5.205187;-0.2257558;-0.5243181;6.115394;-0.451616;0.8151063;4.870195;0.1980556;1.110324;4.730562;0.2198126;1.87837;5.269267;0.0003207624;1.797517;6.175716;-0.2634981;0.2746522;2.770829;-0.1815193;0.2287039;1.308811;-0.2168787;0;0;0;0.2746522;2.770829;-0.1815193;0.2287039;1.308811;-0.2168787;0;0;0
625280.1531;NotLabelled;NONE;16384;0.7829504;0.466759;0.2617728;0.3171745;3;0;-2;2890;-2328;1445;65536;0.7756566;0.5789474;-0.1966759;0.1565097;-2;1;1;-118;-3845;-1187;8192;0.7710913;0.4709141;-0.3642659;-0.2257618;1;0;-2;-2772;-2259;1853;32768;0.7962424;0.5927978;0.1080332;-0.05401662;-5;0;-1;-292;-3917;-1302;256;0.04155125;-0.01939058;-0.599723;-0.7988929;-1;0;0;-307;3878;-1111;128;0.06232687;-0.004155125;0.5637119;0.8236061;0;2;0;-409;3897;1422;4;0.5326958;-0.5055401;0.4833795;0.4764543;0;2;-1;57;4094;172;16;0.6398892;-0.7644526;0.05263158;-0.05817174;0;1;0;665;3960;750;2;0.5225115;-0.4875346;-0.4819945;-0.5069252;0;2;1;-241;4100;1;8;0.5817174;-0.7034034;-0.3448753;-0.2188366;0;0;0;-983;3979;437;0.5868943;2.811805;-0.1689602;0.5928451;3.354083;-0.1096203;0.5980783;3.830965;-0.05947144;0.5676715;4.535295;0.144136;0.2952461;4.847756;0.1979928;-0.03917544;4.680938;0.2197493;-0.6590104;5.203901;-0.2281833;-0.5237078;6.114108;-0.4540437;0.8151056;4.870203;0.1979926;1.110323;4.73057;0.2197496;1.878372;5.269275;0.0002676249;1.797519;6.175724;-0.2635517;0.2746518;2.770829;-0.181519;0.2287038;1.308811;-0.2168785;0;0;0;0.2746518;2.770829;-0.181519;0.2287038;1.308811;-0.2168785;0;0;0
625301.0789;NotLabelled;NONE;16384;0.7823879;0.466759;0.2617728;0.3185596;2;0;-1;2946;-2284;1453;65536;0.7756566;0.5789474;-0.1966759;0.1565097;-2;0;1;22;-3973;-1193;8192;0.7710913;0.4709141;-0.3642659;-0.2257618;2;0;-1;-2872;-2279;1873;32768;0.7972716;0.5914127;0.1080332;-0.05401662;-4;0;-1;-132;-3825;-1320;256;0.04155125;-0.01800554;-0.599723;-0.7989253;-1;0;0;-201;3866;-1167;128;0.06232687;-0.004155125;0.5637119;0.8236061;0;2;0;-389;3885;1450;4;0.5326166;-0.5069252;0.4833795;0.4750692;0;2;0;21;4044;188;16;0.6398892;-0.7644526;0.05263158;-0.05817174;0;1;0;615;3950;692;2;0.5225115;-0.4875346;-0.4819945;-0.5069252;0;2;0;-247;4046;7;8;0.5817174;-0.7034034;-0.3448753;-0.2188366;0;0;0;-971;3987;349;0.5868943;2.811805;-0.1689616;0.5928451;3.354083;-0.1096217;0.5980783;3.830964;-0.05947283;0.5676715;4.535295;0.1441342;0.2952461;4.847756;0.1979909;-0.03917541;4.680939;0.2197476;-0.659009;5.2039;-0.2281874;-0.522666;6.113211;-0.4570165;0.8151056;4.870202;0.1979907;1.110323;4.73057;0.2197478;1.8776;5.269319;-0.002309829;1.796647;6.174841;-0.2692633;0.2746518;2.770828;-0.1815204;0.2287037;1.30881;-0.2168791;0;0;0;0.2746518;2.770828;-0.1815204;0.2287037;1.30881;-0.2168791;0;0;0
625322.0368;NotLabelled;NONE;16384;0.7832125;0.4653739;0.2617728;0.3185596;3;0;0;3016;-2310;1457;65536;0.7760065;0.5789474;-0.1952908;0.1565097;-2;-1;1;-248;-3969;-1193;8192;0.7710913;0.4709141;-0.3642659;-0.2257618;3;-1;0;-2852;-2183;1847;32768;0.7972716;0.5914127;0.1080332;-0.05401662;-2;1;0;-92;-3815;-1314;256;0.04155125;-0.01939058;-0.599723;-0.7988929;0;0;0;-167;3924;-1129;128;0.06232687;-0.004155125;0.5637119;0.8236061;0;0;0;-369;3911;1442;4;0.5326166;-0.5069252;0.4833795;0.4750692;0;1;0;87;4052;80;16;0.6398892;-0.7644526;0.05263158;-0.05817174;0;2;0;661;3952;674;2;0.5212304;-0.4875346;-0.4833795;-0.5069252;0;2;1;-277;4148;-5;8;0.5817174;-0.7027227;-0.3462604;-0.2188366;0;0;0;-957;3995;329;0.5868262;2.811888;-0.1736595;0.5927771;3.354165;-0.1143197;0.5980101;3.831047;-0.06417084;0.5664304;4.535322;0.139451;0.293485;4.847327;0.1933144;-0.04065826;4.679952;0.2150677;-0.6633906;5.201757;-0.2301885;-0.5275546;6.111067;-0.459319;0.8133065;4.870639;0.1933145;1.108756;4.731498;0.2150685;1.875042;5.270247;-0.01038545;1.793391;6.174833;-0.280285;0.2745837;2.770911;-0.1862183;0.228223;1.30881;-0.2173851;0;0;0;0.2745837;2.770911;-0.1862183;0.228223;1.30881;-0.2173851;0;0;0
625342.0482;NotLabelled;NONE;16384;0.7832125;0.4653739;0.2617728;0.3185596;1;1;0;3006;-2354;1543;65536;0.7770379;0.5775623;-0.1952908;0.1565097;-2;0;0;-158;-3947;-1209;8192;0.7710913;0.4709141;-0.3642659;-0.2257618;2;-1;-1;-2838;-2201;1861;32768;0.7982972;0.5900277;0.1080332;-0.05401662;0;2;0;-222;-3883;-1294;256;0.04155125;-0.01939058;-0.599723;-0.7988929;0;-1;0;-145;3946;-1161;128;0.06232687;-0.004155125;0.5650969;0.8226564;1;0;0;-431;3871;1436;4;0.5326166;-0.5069252;0.4833795;0.4750692;0;1;0;51;3994;82;16;0.6398892;-0.7644526;0.05263158;-0.05817174;0;1;0;717;3960;630;2;0.5212304;-0.4875346;-0.4833795;-0.5069252;0;1;0;-367;4118;39;8;0.5817174;-0.7034034;-0.3448753;-0.2188366;0;0;0;-929;4023;333;0.5872379;2.811887;-0.1730507;0.5931886;3.354165;-0.1137109;0.5984218;3.831047;-0.06356204;0.5680149;4.535378;0.140045;0.2955895;4.847839;0.1939016;-0.03883192;4.681021;0.2156583;-0.6589755;5.201527;-0.2347015;-0.5244496;6.110809;-0.46471;0.8154491;4.870285;0.1939015;1.110666;4.730652;0.2156585;1.877944;5.269401;-0.006399244;1.796891;6.173986;-0.2764788;0.2749953;2.770911;-0.1856096;0.2287038;1.30881;-0.2168791;0;0;0;0.2749953;2.770911;-0.1856096;0.2287038;1.30881;-0.2168791;0;0;0
625363.0374;NotLabelled;NONE;16384;0.7832125;0.4653739;0.2617728;0.3185596;0;1;0;3014;-2322;1507;65536;0.7770379;0.5775623;-0.1952908;0.1565097;-3;1;0;12;-3977;-1217;8192;0.7725875;0.4695291;-0.3628809;-0.2257618;3;1;0;-2816;-2259;1999;32768;0.7980136;0.5900277;0.1094183;-0.05540166;-2;1;0;-116;-3843;-1204;256;0.04155125;-0.01800554;-0.599723;-0.7989253;0;0;0;-205;3880;-1181;128;0.06371191;-0.005540166;0.5650969;0.8225421;0;0;0;-453;3865;1430;4;0.5326166;-0.5069252;0.4833795;0.4750692;0;0;0;21;4136;112;16;0.6398892;-0.7644526;0.05263158;-0.05817174;0;0;0;663;3924;688;2;0.5212304;-0.4875346;-0.4833795;-0.5069252;0;1;0;-345;4054;-19;8;0.5817174;-0.7034034;-0.3448753;-0.2188366;0;0;0;-915;4005;319;0.5872386;2.811929;-0.1732002;0.5931916;3.354403;-0.1156874;0.5984267;3.831451;-0.06714515;0.5680199;4.535783;0.136462;0.2955945;4.848243;0.1903186;-0.03882696;4.681426;0.2120754;-0.6590527;5.201932;-0.2381715;-0.5234915;6.110307;-0.4711415;0.8154541;4.870689;0.1903185;1.110671;4.731057;0.2120755;1.877908;5.269806;-0.01012158;1.796756;6.173445;-0.2833204;0.2749955;2.770911;-0.1856095;0.2287039;1.30881;-0.2168792;0;0;0;0.2749955;2.770911;-0.1856095;0.2287039;1.30881;-0.2168792;0;0;0
625383.0446;NotLabelled;NONE;16384;0.7832125;0.4653739;0.2617728;0.3185596;2;1;-1;3034;-2410;1463;65536;0.7770379;0.5775623;-0.1952908;0.1565097;-3;0;0;-112;-3957;-1201;8192;0.7719355;0.4695291;-0.3642659;-0.2257618;2;-2;0;-2900;-2237;1949;32768;0.7990357;0.5886427;0.1094183;-0.05540166;-4;0;0;-134;-3903;-1172;256;0.04155125;-0.01800554;-0.599723;-0.7989253;-2;0;0;-165;3966;-1151;128;0.06371191;-0.004155125;0.5650969;0.8225503;0;0;0;-473;3909;1412;4;0.5326166;-0.5069252;0.4833795;0.4750692;0;0;0;3;4040;154;16;0.6398892;-0.7644526;0.05263158;-0.05817174;0;1;0;639;3950;746;2;0.5212304;-0.4875346;-0.4833795;-0.5069252;0;0;0;-305;4130;17;8;0.5817174;-0.7034034;-0.3448753;-0.2188366;0;0;0;-941;3979;301;0.5868303;2.811934;-0.1738179;0.5927835;3.354428;-0.1164945;0.5980186;3.831492;-0.06811891;0.5664349;4.535768;0.1355027;0.2934885;4.847774;0.189361;-0.04065517;4.680398;0.2111078;-0.6627681;5.201062;-0.2363448;-0.5277182;6.109437;-0.4696115;0.8133099;4.871085;0.189371;1.108759;4.731944;0.2111307;1.873777;5.270664;-0.0186592;1.791493;6.174415;-0.2911485;0.2745872;2.770911;-0.1862116;0.2282271;1.30881;-0.2173802;0;0;0;0.2745872;2.770911;-0.1862116;0.2282271;1.30881;-0.2173802;0;0;0
625404.0368;NotLabelled;NONE;16384;0.7840338;0.4639889;0.2617728;0.3185596;2;2;-1;3070;-2308;1439;65536;0.7770379;0.5775623;-0.1952908;0.1565097;-2;0;0;-152;-3953;-1167;8192;0.7727762;0.468144;-0.3642659;-0.2257618;1;-5;0;-2766;-2205;1991;32768;0.7990357;0.5886427;0.1094183;-0.05540166;-4;0;-1;-160;-3845;-1288;256;0.04155125;-0.01800554;-0.599723;-0.7989253;-1;0;0;-221;3972;-1099;128;0.06371191;-0.004155125;0.5650969;0.8225503;-1;0;0;-443;3849;1436;4;0.5326166;-0.5069252;0.4833795;0.4750692;0;0;0;65;4104;132;16;0.6398892;-0.7644526;0.05263158;-0.05817174;0;0;0;685;3970;734;2;0.5225115;-0.4875346;-0.4819945;-0.5069252;0;0;0;-321;4086;55;8;0.5817174;-0.7034034;-0.3448753;-0.2188366;0;0;0;-965;4003;369;0.5868266;2.811933;-0.1738209;0.5927798;3.354424;-0.1164652;0.5980148;3.831486;-0.06806102;0.5664351;4.535761;0.1355612;0.2934897;4.847766;0.1894248;-0.04065356;4.680392;0.2111782;-0.6617932;5.200898;-0.2378064;-0.5267481;6.109273;-0.471076;0.8133112;4.871079;0.1894248;1.108761;4.731937;0.2111785;1.875726;5.269383;-0.01507491;1.793324;6.172181;-0.2906744;0.2745835;2.770911;-0.1862172;0.2282228;1.308811;-0.2173848;0;0;0;0.2745835;2.770911;-0.1862172;0.2282228;1.308811;-0.2173848;0;0;0
625425.0414;NotLabelled;NONE;16384;0.7845952;0.4639889;0.2617728;0.3171745;2;1;0;2990;-2278;1475;65536;0.7784119;0.5761772;-0.1939058;0.1565097;-3;0;1;-120;-3939;-1225;8192;0.7731795;0.468144;-0.3642659;-0.2243767;0;-2;-1;-2726;-2181;1913;32768;0.7990357;0.5886427;0.1094183;-0.05540166;-4;0;-1;-132;-3791;-1286;256;0.04155125;-0.01800554;-0.599723;-0.7989253;-1;0;1;-211;3870;-1147;128;0.06232687;-0.004155125;0.5650969;0.8226564;-1;0;-1;-393;3823;1448;4;0.5326166;-0.5069252;0.4833795;0.4750692;0;0;0;19;4012;136;16;0.6398892;-0.7644526;0.05263158;-0.05817174;0;0;0;603;3968;708;2;0.5225115;-0.4875346;-0.4819945;-0.5069252;0;0;0;-229;4120;1;8;0.5817174;-0.7034034;-0.3448753;-0.2188366;0;0;0;-955;4005;327;0.5868266;2.811933;-0.1738209;0.5927798;3.354424;-0.1164652;0.5980148;3.831486;-0.06806102;0.5664351;4.535761;0.1355612;0.2934897;4.847766;0.1894248;-0.04065356;4.680392;0.2111782;-0.6611873;5.199592;-0.2401501;-0.5261422;6.107968;-0.4734192;0.8133112;4.871079;0.1894248;1.108761;4.731937;0.2111785;1.875905;5.268073;-0.01756462;1.793503;6.170869;-0.2931644;0.2745835;2.770911;-0.1862172;0.2282228;1.308811;-0.2173848;0;0;0;0.2745835;2.770911;-0.1862172;0.2282228;1.308811;-0.2173848;0;0;0
625445.0328;NotLabelled;NONE;16384;0.7845952;0.4639889;0.2617728;0.3171745;1;1;0;3024;-2306;1493;65536;0.7784119;0.5761772;-0.1939058;0.1565097;-3;0;1;-138;-3887;-1309;8192;0.7740164;0.466759;-0.3642659;-0.2243767;2;0;0;-2714;-2273;1933;32768;0.8000543;0.5872576;0.1094183;-0.05540166;-3;0;0;-92;-3731;-1346;256;0.04155125;-0.01800554;-0.599723;-0.7989253;-1;0;1;-177;3800;-1109;128;0.06232687;-0.004155125;0.5650969;0.8226564;0;0;0;-353;3789;1430;4;0.5326166;-0.5069252;0.4833795;0.4750692;0;-1;0;39;4150;130;16;0.6398892;-0.7644526;0.05263158;-0.05817174;0;0;0;611;3944;678;2;0.5225115;-0.4875346;-0.4819945;-0.5069252;0;0;0;-251;4120;15;8;0.5817174;-0.7034034;-0.3448753;-0.2188366;0;0;0;-969;3993;373;0.5868235;2.811929;-0.1738133;0.5927765;3.354403;-0.1163004;0.5980115;3.831451;-0.06775814;0.5664352;4.535727;0.1358644;0.2934908;4.847732;0.1897323;-0.04065203;4.680357;0.2114914;-0.6602878;5.200581;-0.2398928;-0.526048;6.108005;-0.4772904;0.8133121;4.871044;0.1897238;1.108762;4.731903;0.2114727;1.874943;5.269306;-0.01752535;1.792536;6.172101;-0.2931241;0.2745806;2.770911;-0.1862225;0.2282193;1.30881;-0.2173889;0;0;0;0.2745806;2.770911;-0.1862225;0.2282193;1.30881;-0.2173889;0;0;0
625465.1598;NotLabelled;NONE;16384;0.7854126;0.4626039;0.2617728;0.3171745;2;0;0;2968;-2330;1475;65536;0.7794352;0.5747922;-0.1939058;0.1565097;-2;0;0;-156;-3929;-1213;8192;0.7740164;0.466759;-0.3642659;-0.2243767;2;0;1;-2798;-2267;1951;32768;0.8010691;0.5858725;0.1094183;-0.05540166;-2;0;0;-226;-3863;-1452;256;0.04155125;-0.01800554;-0.599723;-0.7989253;0;0;0;-163;3850;-1127;128;0.06232687;-0.004155125;0.5650969;0.8226564;0;-1;0;-401;3841;1478;4;0.5326166;-0.5069252;0.4833795;0.4750692;0;-1;0;39;4060;120;16;0.6398892;-0.7644526;0.05263158;-0.05817174;0;0;0;645;3974;704;2;0.5225115;-0.4875346;-0.4819945;-0.5069252;0;0;0;-249;4090;-3;8;0.5817174;-0.7027227;-0.3462604;-0.2188366;0;0;0;-989;3991;369;0.5868266;2.811929;-0.1738093;0.5927796;3.354404;-0.1162965;0.5980146;3.831452;-0.06775424;0.5664348;4.535727;0.1358676;0.2934893;4.847733;0.1897311;-0.04065388;4.680358;0.2114846;-0.6602733;5.200712;-0.2397715;-0.5260299;6.108137;-0.477167;0.8133109;4.871044;0.189731;1.10876;4.731903;0.2114849;1.875129;5.268052;-0.01981181;1.792615;6.169886;-0.2985169;0.2745835;2.770911;-0.1862185;0.2282228;1.308811;-0.2173853;0;0;0;0.2745835;2.770911;-0.1862185;0.2282228;1.308811;-0.2173853;0;0;0
625486.1851;NotLabelled;NONE;16384;0.7854126;0.4626039;0.2617728;0.3171745;2;1;0;3006;-2290;1517;65536;0.7794352;0.5747922;-0.1939058;0.1565097;-3;0;0;-208;-3945;-1211;8192;0.7740164;0.466759;-0.3642659;-0.2243767;1;0;0;-2808;-2135;2039;32768;0.8009721;0.5858725;0.1094183;-0.0567867;0;2;-2;-238;-3953;-1366;256;0.04155125;-0.01800554;-0.599723;-0.7989253;0;0;0;-229;3946;-1149;128;0.06232687;-0.004155125;0.5650969;0.8226564;0;-1;-1;-411;3893;1496;4;0.5326166;-0.5069252;0.4833795;0.4750692;0;-1;0;79;4068;146;16;0.6398892;-0.7644526;0.05263158;-0.05817174;0;0;0;645;3956;704;2;0.5225115;-0.4875346;-0.4819945;-0.5069252;0;-1;0;-239;4128;-37;8;0.5817174;-0.7034034;-0.3448753;-0.2188366;0;0;0;-971;4021;337;0.5868266;2.811929;-0.1738093;0.5927796;3.354404;-0.1162965;0.5980146;3.831452;-0.06775424;0.5664348;4.535727;0.1358676;0.2934893;4.847733;0.1897311;-0.04065388;4.680358;0.2114846;-0.6596694;5.199398;-0.242108;-0.5244036;6.105894;-0.4824532;0.8133109;4.871044;0.189731;1.10876;4.731903;0.2114849;1.875129;5.268052;-0.01981181;1.792502;6.168912;-0.3016145;0.2745835;2.770911;-0.1862185;0.2282228;1.308811;-0.2173853;0;0;0;0.2745835;2.770911;-0.1862185;0.2282228;1.308811;-0.2173853;0;0;0
625526.0816;NotLabelled;NONE;16384;0.7859705;0.4626039;0.2617728;0.3157895;1;0;0;2944;-2318;1559;65536;0.7807311;0.5734072;-0.1939058;0.1551246;-2;0;0;-74;-3881;-1367;8192;0.7737946;0.4653739;-0.365651;-0.2257618;1;0;0;-2820;-2247;2049;32768;0.8018841;0.5844875;0.1094183;-0.05817174;-1;0;-1;16;-3833;-1298;256;0.04155125;-0.01800554;-0.599723;-0.7989253;0;0;0;-203;3876;-1129;128;0.06232687;-0.002770083;0.5637119;0.8236119;0;-2;0;-389;3823;1476;4;0.5326166;-0.5069252;0.4833795;0.4750692;0;0;0;53;4078;140;16;0.6398892;-0.7644526;0.05263158;-0.05817174;0;0;0;613;3990;720;2;0.5212157;-0.4889196;-0.4819945;-0.5069252;0;0;0;-197;4136;11;8;0.5817174;-0.7027227;-0.3462604;-0.2188366;0;0;0;-909;3975;353;0.5868266;2.811929;-0.1738093;0.5927796;3.354404;-0.1162965;0.5980146;3.831452;-0.06775424;0.5664348;4.535727;0.1358676;0.2934893;4.847733;0.1897311;-0.04065388;4.680358;0.2114846;-0.6596694;5.199398;-0.242108;-0.5244036;6.105894;-0.4824532;0.8133109;4.871044;0.189731;1.10876;4.731903;0.2114849;1.875129;5.268052;-0.01981181;1.794055;6.169091;-0.3014917;0.2745835;2.770911;-0.1862185;0.2282228;1.308811;-0.2173853;0;0;0;0.2745835;2.770911;-0.1862185;0.2282228;1.308811;-0.2173853;0;0;0
625547.0315;NotLabelled;NONE;16384;0.7859705;0.4626039;0.2617728;0.3157895;0;0;0;3026;-2364;1569;65536;0.7807311;0.5734072;-0.1939058;0.1551246;-1;1;0;-100;-3863;-1333;8192;0.7741973;0.4653739;-0.365651;-0.2243767;0;-1;0;-2802;-2235;2031;32768;0.8018841;0.5844875;0.1094183;-0.05817174;-2;-2;-1;-120;-3935;-1372;256;0.04155125;-0.01800554;-0.599723;-0.7989253;0;0;0;-219;3884;-1073;128;0.06232687;-0.002770083;0.5637119;0.8236119;0;0;0;-465;3915;1402;4;0.5326166;-0.5069252;0.4833795;0.4750692;0;0;0;97;4110;114;16;0.6398892;-0.7644526;0.05263158;-0.05817174;0;0;0;653;3944;726;2;0.5212157;-0.4889196;-0.4819945;-0.5069252;0;0;0;-211;4086;21;8;0.5817174;-0.7027227;-0.3462604;-0.2188366;0;0;0;-955;4011;353;0.5867905;2.811887;-0.173708;0.5927413;3.354161;-0.1143358;0.5979745;3.831039;-0.06415856;0.5664337;4.535315;0.1394697;0.2934985;4.84732;0.1933855;-0.04064031;4.679945;0.2152027;-0.6589344;5.198578;-0.2398374;-0.5210936;6.103927;-0.4830245;0.81332;4.870632;0.193286;1.108774;4.73149;0.2149834;1.877621;5.262996;-0.01879269;1.797926;6.163229;-0.3034256;0.274548;2.770911;-0.1862695;0.2281813;1.308811;-0.2174282;0;0;0;0.274548;2.770911;-0.1862695;0.2281813;1.308811;-0.2174282;0;0;0
625568.0439;NotLabelled;NONE;16384;0.7867841;0.4612188;0.2617728;0.3157895;0;1;0;2940;-2296;1513;65536;0.7813476;0.5734072;-0.1925208;0.1537396;-1;2;0;-84;-3907;-1315;8192;0.7741973;0.4653739;-0.365651;-0.2243767;0;0;0;-2788;-2223;2013;32768;0.8018841;0.5844875;0.1094183;-0.05817174;-1;0;-1;-144;-3877;-1322;256;0.04293629;-0.01939058;-0.599723;-0.7988197;1;0;0;-275;3946;-1107;128;0.06232687;-0.002770083;0.5650969;0.8226622;0;0;0;-453;3899;1442;4;0.5326166;-0.5069252;0.4833795;0.4750692;0;-1;0;93;4088;88;16;0.6398892;-0.7644526;0.05263158;-0.05817174;0;0;0;673;3982;698;2;0.5224931;-0.4889196;-0.4806094;-0.5069252;0;0;0;-219;4104;63;8;0.5817174;-0.7034034;-0.3448753;-0.2188366;0;0;0;-909;4021;337;0.5868263;2.811887;-0.1736556;0.5927772;3.354161;-0.1142835;0.5980103;3.831039;-0.06410618;0.5664306;4.535315;0.1395161;0.2934853;4.847321;0.1933796;-0.04065787;4.679945;0.2151331;-0.658761;5.200134;-0.2383867;-0.520874;6.105483;-0.4815475;0.8133068;4.870632;0.1933796;1.108756;4.73149;0.2151334;1.876754;5.265128;-0.01656702;1.797114;6.16536;-0.3012152;0.2745838;2.770911;-0.1862171;0.228223;1.30881;-0.2173846;0;0;0;0.2745838;2.770911;-0.1862171;0.228223;1.30881;-0.2173846;0;0;0
625588.3538;NotLabelled;NONE;16384;0.7867841;0.4612188;0.2617728;0.3157895;0;0;0;2966;-2322;1497;65536;0.7823622;0.5720221;-0.1925208;0.1537396;0;0;0;-66;-3851;-1271;8192;0.7750282;0.4639889;-0.365651;-0.2243767;1;0;0;-2830;-2203;1973;32768;0.8018841;0.5844875;0.1094183;-0.05817174;-1;1;0;2;-3859;-1292;256;0.04155125;-0.01800554;-0.599723;-0.7989253;-1;0;0;-197;3910;-1133;128;0.06232687;-0.002770083;0.5650969;0.8226622;0;0;0;-435;3867;1434;4;0.5326166;-0.5069252;0.4833795;0.4750692;0;0;0;63;4090;148;16;0.6398892;-0.7644526;0.05263158;-0.05817174;0;0;0;631;3984;726;2;0.5238333;-0.4889196;-0.4806094;-0.5055401;0;0;0;-301;4102;5;8;0.5817174;-0.7034034;-0.3448753;-0.2188366;0;0;0;-937;4003;359;0.5875488;2.811929;-0.1727359;0.5935017;3.3544;-0.115191;0.5987366;3.831445;-0.06662059;0.5667722;4.535751;0.1368349;0.2936568;4.84762;0.1906219;-0.04039568;4.680069;0.2124114;-0.6562064;5.198936;-0.2457192;-0.5176095;6.104042;-0.4893789;0.8134654;4.871215;0.1906216;1.10899;4.732239;0.2124114;1.87784;5.265876;-0.01644671;1.799307;6.16611;-0.3014019;0.2753057;2.770911;-0.1851478;0.2290665;1.308811;-0.2164955;0;0;0;0.2753057;2.770911;-0.1851478;0.2290665;1.308811;-0.2164955;0;0;0
625629.0522;NotLabelled;NONE;16384;0.7867841;0.4612188;0.2617728;0.3157895;0;0;0;2872;-2394;1447;65536;0.7823622;0.5720221;-0.1925208;0.1537396;0;0;1;-32;-3867;-1263;8192;0.7750282;0.4639889;-0.365651;-0.2243767;1;-1;0;-2870;-2209;1933;32768;0.8028918;0.5831025;0.1094183;-0.05817174;0;0;1;-156;-3873;-1244;256;0.04155125;-0.01800554;-0.599723;-0.7989253;0;0;0;-207;3878;-1113;128;0.06232687;-0.002770083;0.5650969;0.8226622;0;0;0;-391;3933;1414;4;0.5326166;-0.5069252;0.4833795;0.4750692;0;0;0;105;4074;164;16;0.6398892;-0.7644526;0.05263158;-0.05817174;0;0;0;605;3934;692;2;0.5238333;-0.4889196;-0.4806094;-0.5055401;0;0;0;-319;4086;13;8;0.5817174;-0.7027227;-0.3462604;-0.2188366;0;0;0;-979;3965;307;0.5868266;2.811929;-0.1738051;0.5927795;3.3544;-0.1162603;0.5980143;3.831445;-0.06768987;0.5664347;4.53572;0.1359324;0.2934892;4.847725;0.189796;-0.04065404;4.680351;0.2115494;-0.6581551;5.199217;-0.2443;-0.5194992;6.103372;-0.491433;0.8133107;4.871037;0.189796;1.10876;4.731895;0.2115497;1.876934;5.264201;-0.02261868;1.797294;6.164434;-0.3072668;0.2745835;2.770911;-0.186217;0.2282228;1.30881;-0.2173846;0;0;0;0.2745835;2.770911;-0.186217;0.2282228;1.30881;-0.2173846;0;0;0
625650.0235;NotLabelled;NONE;16384;0.7867841;0.4612188;0.2617728;0.3157895;1;0;-1;2970;-2330;1479;65536;0.7823622;0.5720221;-0.1925208;0.1537396;0;0;0;-76;-3859;-1249;8192;0.7750282;0.4639889;-0.365651;-0.2243767;2;-1;0;-2800;-2199;2049;32768;0.8027018;0.5831025;0.1108033;-0.05817174;0;0;0;-330;-4003;-1346;256;0.04155125;-0.01800554;-0.599723;-0.7989253;0;0;0;-173;3926;-1095;128;0.06232687;-0.002770083;0.5650969;0.8226622;0;0;0;-355;3927;1460;4;0.5326166;-0.5069252;0.4833795;0.4750692;0;1;0;93;4096;74;16;0.6398892;-0.7644526;0.05263158;-0.05817174;0;0;0;571;3946;670;2;0.5238333;-0.4889196;-0.4806094;-0.5055401;0;0;0;-249;4122;21;8;0.5817174;-0.7027227;-0.3462604;-0.2188366;0;0;0;-999;4001;387;0.5868266;2.811929;-0.1738051;0.5927795;3.3544;-0.1162603;0.5980143;3.831445;-0.06768987;0.5664347;4.53572;0.1359324;0.2934892;4.847725;0.189796;-0.04065404;4.680351;0.2115494;-0.6581551;5.199217;-0.2443;-0.5194992;6.103372;-0.491433;0.8133107;4.871037;0.189796;1.10876;4.731895;0.2115497;1.876934;5.264201;-0.02261868;1.797174;6.163443;-0.3103501;0.2745835;2.770911;-0.186217;0.2282228;1.30881;-0.2173846;0;0;0;0.2745835;2.770911;-0.186217;0.2282228;1.30881;-0.2173846;0;0;0
625670.2979;NotLabelled;NONE;16384;0.7867841;0.4612188;0.2617728;0.3157895;2;0;0;2950;-2266;1473;65536;0.7823622;0.5720221;-0.1925208;0.1537396;0;0;0;-230;-3923;-1101;8192;0.7743733;0.4639889;-0.367036;-0.2243767;1;0;0;-2850;-2229;2011;32768;0.8027018;0.5831025;0.1108033;-0.05817174;-1;1;-1;-214;-3989;-1330;256;0.04155125;-0.01800554;-0.599723;-0.7989253;0;0;0;-223;3990;-1099;128;0.06094183;-0.002770083;0.5650969;0.822766;0;0;-1;-387;3881;1456;4;0.5326166;-0.5069252;0.4833795;0.4750692;0;-1;0;51;4088;124;16;0.6398892;-0.7645568;0.05263158;-0.0567867;0;0;0;677;3978;678;2;0.5238333;-0.4889196;-0.4806094;-0.5055401;0;0;0;-241;4050;21;8;0.5817174;-0.7027227;-0.3462604;-0.2188366;0;0;0;-899;4029;341;0.5868266;2.811929;-0.1738051;0.5927795;3.3544;-0.1162603;0.5980143;3.831445;-0.06768987;0.5664347;4.53572;0.1359324;0.2934892;4.847725;0.189796;-0.04065404;4.680351;0.2115494;-0.6581551;5.199217;-0.2443;-0.5194992;6.103372;-0.491433;0.8133107;4.871037;0.189796;1.10876;4.731895;0.2115497;1.876934;5.264201;-0.02261868;1.795068;6.163386;-0.3099366;0.2745835;2.770911;-0.186217;0.2282228;1.30881;-0.2173846;0;0;0;0.2745835;2.770911;-0.186217;0.2282228;1.30881;-0.2173846;0;0;0
625692.04;NotLabelled;NONE;16384;0.7862267;0.4612188;0.2617728;0.3171745;2;0;0;3046;-2242;1463;65536;0.7823622;0.5720221;-0.1925208;0.1537396;-1;0;0;-122;-3903;-1125;8192;0.7758557;0.4626039;-0.365651;-0.2243767;2;2;-1;-2880;-2237;1993;32768;0.8026002;0.5831025;0.1108033;-0.05955679;-1;2;-1;-132;-3919;-1332;256;0.04155125;-0.01800554;-0.599723;-0.7989253;0;0;0;-195;3996;-1143;128;0.06094183;-0.001385042;0.5650969;0.8227695;0;0;0;-411;3865;1458;4;0.5326166;-0.5069252;0.4833795;0.4750692;0;0;0;81;4076;178;16;0.6398892;-0.7644526;0.05263158;-0.05817174;0;0;0;635;3988;698;2;0.5224931;-0.4889196;-0.4806094;-0.5069252;0;0;0;-237;4072;-1;8;0.5817174;-0.7027227;-0.3462604;-0.2188366;0;0;0;-949;3975;365;0.5840344;2.812301;-0.1744445;0.5899873;3.354756;-0.1167467;0.5952221;3.831787;-0.06804192;0.5636424;4.536061;0.1355799;0.2906969;4.848067;0.1894433;-0.04344631;4.680693;0.2111968;-0.6609403;5.199558;-0.2446636;-0.5222839;6.103714;-0.4917969;0.8105184;4.871379;0.1894434;1.105968;4.732238;0.2111973;1.875596;5.263357;-0.02088118;1.79373;6.162541;-0.3081993;0.2717915;2.771287;-0.1868688;0.2254307;1.309186;-0.2180357;0;0;0;0.2717915;2.771287;-0.1868688;0.2254307;1.309186;-0.2180357;0;0;0
625713.0545;NotLabelled;NONE;16384;0.7866865;0.4612188;0.2603878;0.3171745;2;0;0;2970;-2376;1535;65536;0.7823622;0.5720221;-0.1925208;0.1537396;-2;-1;0;-88;-3935;-1145;8192;0.7754539;0.4626039;-0.365651;-0.2257618;2;0;0;-2780;-2283;2001;32768;0.8026002;0.5831025;0.1108033;-0.05955679;0;0;-1;-262;-3939;-1402;256;0.04155125;-0.01800554;-0.599723;-0.7989253;0;0;0;-141;3880;-1041;128;0.06094183;-0.001385042;0.5650969;0.8227695;0;-1;0;-341;3869;1400;4;0.5326166;-0.5069252;0.4833795;0.4750692;0;0;0;59;4044;200;16;0.6398892;-0.7644526;0.05263158;-0.05817174;0;0;0;635;4058;708;2;0.5238333;-0.4889196;-0.4806094;-0.5055401;0;0;0;-287;4062;27;8;0.5817174;-0.7027227;-0.3462604;-0.2188366;0;0;0;-971;4001;397;0.5868264;2.811924;-0.1737888;0.592779;3.354376;-0.1160595;0.5980139;3.831404;-0.06732698;0.5664341;4.535679;0.1362956;0.2934887;4.847684;0.1901594;-0.04065443;4.68031;0.2119128;-0.6590637;5.198029;-0.2440106;-0.520408;6.102184;-0.4911435;0.8133101;4.870997;0.1901593;1.10876;4.731855;0.211913;1.877107;5.262821;-0.02471337;1.796788;6.162184;-0.3119088;0.2745834;2.770911;-0.1862157;0.2282227;1.308811;-0.217384;0;0;0;0.2745834;2.770911;-0.1862157;0.2282227;1.308811;-0.217384;0;0;0
625733.041;NotLabelled;NONE;16384;0.787497;0.4598338;0.2603878;0.3171745;1;0;0;2928;-2398;1537;65536;0.7823622;0.5720221;-0.1925208;0.1537396;-3;0;0;12;-3957;-1197;8192;0.7754539;0.4626039;-0.365651;-0.2257618;1;2;-1;-2788;-2205;2011;32768;0.8024963;0.5831025;0.1108033;-0.06094183;0;2;-1;-132;-3993;-1378;256;0.04293629;-0.01800554;-0.599723;-0.7988521;1;0;0;-219;3928;-1135;128;0.06094183;-0.001385042;0.5650969;0.8227695;0;0;0;-387;3939;1440;4;0.5326166;-0.5069252;0.4833795;0.4750692;0;0;0;55;4056;124;16;0.6398892;-0.7644526;0.05263158;-0.05817174;0;0;0;663;3982;734;2;0.5224931;-0.4889196;-0.4806094;-0.5069252;0;-1;0;-231;4136;19;8;0.5817174;-0.7027227;-0.3462604;-0.2188366;0;0;1;-979;3937;377;0.5868266;2.811924;-0.1737887;0.5927792;3.354376;-0.1160595;0.598014;3.831404;-0.06732689;0.5664343;4.535679;0.1362957;0.2934888;4.847684;0.1901593;-0.04065447;4.68031;0.2119126;-0.6571681;5.199236;-0.245204;-0.5185121;6.103391;-0.4923365;0.8133103;4.870997;0.1901595;1.10876;4.731855;0.2119133;1.878048;5.261488;-0.02464473;1.797728;6.160852;-0.3118402;0.2745835;2.770911;-0.1862156;0.2282229;1.308811;-0.217384;0;0;0;0.2745835;2.770911;-0.1862156;0.2282229;1.308811;-0.217384;0;0;0
625753.2644;NotLabelled;NONE;16384;0.787497;0.4598338;0.2603878;0.3171745;2;1;0;3038;-2332;1519;65536;0.78202;0.5720221;-0.1939058;0.1537396;-2;0;0;-40;-3967;-1251;8192;0.7754539;0.4626039;-0.365651;-0.2257618;1;4;-1;-2868;-2111;2019;32768;0.8024963;0.5831025;0.1108033;-0.06094183;0;1;-1;86;-3889;-1320;256;0.04293629;-0.01800554;-0.599723;-0.7988521;0;-1;0;-237;3992;-1195;128;0.06094183;-0.001385042;0.5650969;0.8227695;0;-1;0;-449;3831;1460;4;0.5326166;-0.5069252;0.4833795;0.4750692;0;0;0;51;4062;108;16;0.6398892;-0.7644526;0.05263158;-0.05817174;0;0;0;639;3980;738;2;0.5224931;-0.4889196;-0.4806094;-0.5069252;0;0;0;-231;4062;-3;8;0.5817174;-0.7027227;-0.3462604;-0.2188366;0;0;0;-949;3987;365;0.5871379;2.811925;-0.1733291;0.5930905;3.354376;-0.1155998;0.5983253;3.831404;-0.06686722;0.5651879;4.535652;0.1366041;0.2915533;4.847064;0.1903984;-0.04221943;4.678957;0.2121843;-0.657355;5.196553;-0.2482842;-0.5182853;6.100709;-0.4951845;0.811322;4.871525;0.1903984;1.107078;4.733041;0.2121848;1.87676;5.262675;-0.0230855;1.798469;6.162213;-0.3102905;0.2748949;2.770911;-0.185756;0.2285865;1.308811;-0.2170018;0;0;0;0.2748949;2.770911;-0.185756;0.2285865;1.308811;-0.2170018;0;0;0
625775.0458;NotLabelled;NONE;16384;0.787497;0.4598338;0.2603878;0.3171745;1;0;0;2882;-2264;1543;65536;0.783373;0.5706371;-0.1925208;0.1537396;-1;0;1;58;-3931;-1391;8192;0.7754539;0.4626039;-0.365651;-0.2257618;0;1;-2;-2820;-2071;1985;32768;0.8023899;0.5831025;0.1108033;-0.06232687;0;0;0;30;-3755;-1278;256;0.04293629;-0.01939058;-0.599723;-0.7988197;-1;-1;0;-157;3940;-1179;128;0.06094183;-0.001385042;0.5650969;0.8227695;0;-1;0;-457;3807;1482;4;0.5326166;-0.5069252;0.4833795;0.4750692;0;-1;0;-11;4088;126;16;0.6398892;-0.7645568;0.05263158;-0.0567867;0;0;0;629;3966;712;2;0.5224931;-0.4889196;-0.4806094;-0.5069252;0;0;0;-253;4110;11;8;0.5817174;-0.7027227;-0.3462604;-0.2188366;0;0;0;-957;3991;353;0.5871379;2.811925;-0.1733291;0.5930905;3.354376;-0.1155998;0.5983253;3.831404;-0.06686722;0.5651879;4.535652;0.1366041;0.2915533;4.847064;0.1903984;-0.04221943;4.678957;0.2121843;-0.657355;5.196553;-0.2482842;-0.5164452;6.100741;-0.4940186;0.811322;4.871525;0.1903984;1.107078;4.733041;0.2121848;1.87676;5.262675;-0.0230855;1.798469;6.162213;-0.3102905;0.2748949;2.770911;-0.185756;0.2285865;1.308811;-0.2170018;0;0;0;0.2748949;2.770911;-0.185756;0.2285865;1.308811;-0.2170018;0;0;0
625796.0718;NotLabelled;NONE;16384;0.787497;0.4598338;0.2603878;0.3171745;1;-1;-1;2966;-2312;1487;65536;0.783373;0.5706371;-0.1925208;0.1537396;0;0;2;84;-3881;-1385;8192;0.7754539;0.4626039;-0.365651;-0.2257618;0;0;0;-2832;-2237;1993;32768;0.8023899;0.5831025;0.1108033;-0.06232687;0;0;1;-96;-3829;-1294;256;0.04293629;-0.01939058;-0.599723;-0.7988197;0;-1;0;-117;3894;-1173;128;0.06094183;-0.001385042;0.5650969;0.8227695;0;-2;0;-447;3833;1416;4;0.5326166;-0.5069252;0.4833795;0.4750692;0;0;1;21;4026;198;16;0.6398892;-0.7644601;0.05401662;-0.0567867;0;0;0;645;3996;682;2;0.5224931;-0.4889196;-0.4806094;-0.5069252;0;0;0;-257;4086;57;8;0.5817174;-0.7027227;-0.3462604;-0.2188366;0;0;0;-929;3995;337;0.5847591;2.8123;-0.1733809;0.5907117;3.354752;-0.1156517;0.5959465;3.83178;-0.0669191;0.563982;4.536086;0.1365366;0.2908665;4.847955;0.1903237;-0.04318599;4.680405;0.2121131;-0.6573001;5.198001;-0.2497168;-0.5166667;6.101196;-0.4992338;0.8106752;4.87155;0.1903236;1.1062;4.732574;0.2121133;1.876402;5.262208;-0.02145168;1.800294;6.16192;-0.3087012;0.272516;2.771287;-0.185808;0.2262768;1.309187;-0.2171563;0;0;0;0.272516;2.771287;-0.185808;0.2262768;1.309187;-0.2171563;0;0;0
625816.0729;NotLabelled;NONE;16384;0.7883041;0.4584487;0.2603878;0.3171745;0;0;-1;2934;-2314;1559;65536;0.783373;0.5706371;-0.1925208;0.1537396;0;0;2;-170;-3875;-1359;8192;0.7762784;0.4612188;-0.365651;-0.2257618;0;0;-1;-2848;-2109;2009;32768;0.8035008;0.5817174;0.1108033;-0.06094183;0;0;1;-106;-3909;-1352;256;0.04293629;-0.01939058;-0.599723;-0.7988197;0;-1;0;-223;3872;-1099;128;0.06094183;-0.001385042;0.5650969;0.8227695;0;0;0;-387;3929;1454;4;0.5339314;-0.5055401;0.4833795;0.4750692;0;-2;0;37;4124;122;16;0.6398892;-0.7644601;0.05401662;-0.0567867;0;0;0;645;3974;722;2;0.5238333;-0.4889196;-0.4806094;-0.5055401;0;-1;0;-263;4084;15;8;0.5817174;-0.7027227;-0.3462604;-0.2188366;0;0;0;-993;3975;387;0.5871224;2.811922;-0.1731851;0.593075;3.354373;-0.1154558;0.5983098;3.831402;-0.06672324;0.5663453;4.535707;0.1367324;0.2932298;4.847577;0.1905195;-0.04082266;4.680027;0.2123089;-0.6549368;5.197623;-0.2495209;-0.5143034;6.100818;-0.4990379;0.8130386;4.871172;0.1905194;1.108564;4.732196;0.2123092;1.878765;5.26183;-0.02125582;1.802657;6.161542;-0.3085054;0.2748793;2.770909;-0.1856121;0.2286402;1.308808;-0.2169604;0;0;0;0.2748793;2.770909;-0.1856121;0.2286402;1.308808;-0.2169604;0;0;0
625837.1446;NotLabelled;NONE;16384;0.7883041;0.4584487;0.2603878;0.3171745;0;0;-2;2888;-2352;1545;65536;0.783373;0.5706371;-0.1925208;0.1537396;0;1;0;-290;-3893;-1237;8192;0.7762784;0.4612188;-0.365651;-0.2257618;0;1;-1;-2926;-2175;1975;32768;0.8035008;0.5817174;0.1108033;-0.06094183;0;1;1;-108;-3891;-1394;256;0.04293629;-0.01939058;-0.599723;-0.7988197;0;0;0;-173;3988;-1189;128;0.06094183;0;0.5650969;0.8227707;1;-1;0;-449;3891;1460;4;0.5326958;-0.5055401;0.4833795;0.4764543;0;-2;0;43;4082;116;16;0.6398892;-0.7644601;0.05401662;-0.0567867;0;0;0;599;4020;742;2;0.5238333;-0.4889196;-0.4806094;-0.5055401;0;-1;0;-269;4114;-1;8;0.5803324;-0.7038669;-0.3462604;-0.2188366;0;0;0;-941;3995;341;0.5905557;2.811709;-0.168783;0.5965085;3.35416;-0.1110538;0.6017432;3.831188;-0.0623212;0.5697788;4.535494;0.1411345;0.2966633;4.847363;0.1949216;-0.0373892;4.679813;0.216711;-0.650885;5.196073;-0.2474315;-0.5102515;6.099267;-0.4969479;0.816472;4.870958;0.1949215;1.111997;4.731983;0.2167112;1.882375;5.260271;-0.01930669;1.804603;6.158812;-0.309762;0.2783128;2.770696;-0.1812101;0.2286401;1.308808;-0.2169605;0;0;0;0.2783128;2.770696;-0.1812101;0.2286401;1.308808;-0.2169605;0;0;0
625858.034;NotLabelled;NONE;16384;0.7883041;0.4584487;0.2603878;0.3171745;0;0;-1;2964;-2302;1549;65536;0.783373;0.5706371;-0.1925208;0.1537396;0;1;0;-138;-3907;-1285;8192;0.7754539;0.4626039;-0.365651;-0.2257618;0;0;-1;-2952;-2213;1997;32768;0.8035008;0.5817174;0.1108033;-0.06094183;0;0;0;-188;-3977;-1402;256;0.04293629;-0.01939058;-0.599723;-0.7988197;-2;0;0;-129;3916;-1163;128;0.06094183;0;0.5650969;0.8227707;1;0;0;-391;3871;1476;4;0.5314357;-0.5055401;0.4847645;0.4764543;0;-1;0;45;4034;130;16;0.6398892;-0.7644601;0.05401662;-0.0567867;0;0;0;621;3968;740;2;0.5238333;-0.4889196;-0.4806094;-0.5055401;0;-2;0;-235;4098;33;8;0.5803324;-0.7038669;-0.3462604;-0.2188366;0;0;0;-981;3967;383;0.5867714;2.811839;-0.1690958;0.5927241;3.354287;-0.1113336;0.5979588;3.831312;-0.06257211;0.565995;4.535618;0.1408834;0.2928799;4.847487;0.1946713;-0.04117245;4.679937;0.2164619;-0.6546717;5.196167;-0.2477073;-0.5140391;6.099362;-0.497225;0.8126885;4.871082;0.1946694;1.108214;4.732107;0.2164581;1.87859;5.26038;-0.01959807;1.800816;6.15892;-0.3100532;0.2745284;2.770826;-0.1815255;0.2286394;1.308808;-0.2169617;0;0;0;0.2745284;2.770826;-0.1815255;0.2286394;1.308808;-0.2169617;0;0;0
625878.4012;NotLabelled;NONE;16384;0.787497;0.4598338;0.2603878;0.3171745;0;-2;0;3036;-2288;1487;65536;0.783373;0.5706371;-0.1925208;0.1537396;1;0;0;-242;-3919;-1231;8192;0.7762784;0.4612188;-0.365651;-0.2257618;-1;0;-1;-2898;-2171;2041;32768;0.8033086;0.5817174;0.1121884;-0.06094183;1;0;0;-122;-3937;-1308;256;0.04293629;-0.01939058;-0.599723;-0.7988197;-1;-1;0;-145;3902;-1153;128;0.06094183;0;0.5650969;0.8227707;0;0;0;-383;3829;1470;4;0.5314357;-0.5055401;0.4847645;0.4764543;0;0;0;121;4074;142;16;0.6398892;-0.7644601;0.05401662;-0.0567867;0;0;0;653;3970;716;2;0.5238333;-0.4889196;-0.4806094;-0.5055401;0;0;0;-233;4082;-5;8;0.5803324;-0.7034348;-0.3462604;-0.2202216;0;-1;0;-945;3969;315;0.5874662;2.811906;-0.1729747;0.593419;3.354354;-0.1152125;0.5986537;3.831379;-0.06645092;0.5666892;4.535686;0.1370045;0.2935738;4.847555;0.1907914;-0.04047857;4.680004;0.212581;-0.6539746;5.196263;-0.2515613;-0.5133409;6.099458;-0.5010784;0.8133826;4.87115;0.1907913;1.108907;4.732173;0.2125811;1.879109;5.261807;-0.0209842;1.801337;6.160347;-0.3114397;0.2752234;2.770893;-0.1854044;0.2286401;1.308808;-0.2169609;0;0;0;0.2752234;2.770893;-0.1854044;0.2286401;1.308808;-0.2169609;0;0;0
625899.1422;NotLabelled;NONE;16384;0.787497;0.4598338;0.2603878;0.3171745;-1;0;0;3106;-2336;1479;65536;0.783373;0.5706371;-0.1925208;0.1537396;0;0;0;-206;-3935;-1345;8192;0.7762784;0.4612188;-0.365651;-0.2257618;-1;0;-2;-2816;-2143;2041;32768;0.8033086;0.5817174;0.1121884;-0.06094183;1;1;0;-104;-3913;-1290;256;0.04293629;-0.01939058;-0.599723;-0.7988197;-1;-1;-1;-139;3922;-1165;128;0.05955679;0;0.5650969;0.8228721;-1;-1;0;-431;3813;1456;4;0.5314357;-0.5055401;0.4847645;0.4764543;0;0;0;107;4084;150;16;0.6398892;-0.7644601;0.05401662;-0.0567867;0;0;0;599;3996;654;2;0.5238333;-0.4889196;-0.4806094;-0.5055401;0;0;0;-213;4134;65;8;0.5803324;-0.7034348;-0.3462604;-0.2202216;0;0;0;-897;4029;397;0.5874662;2.811906;-0.1729747;0.593419;3.354354;-0.1152125;0.5986537;3.831379;-0.06645092;0.5666892;4.535686;0.1370045;0.2935738;4.847555;0.1907914;-0.04047857;4.680004;0.212581;-0.6545928;5.1976;-0.249249;-0.5139592;6.100794;-0.4987661;0.8133826;4.87115;0.1907913;1.108907;4.732173;0.2125811;1.879285;5.260462;-0.02343687;1.799404;6.158949;-0.3134801;0.2752234;2.770893;-0.1854044;0.2286401;1.308808;-0.2169609;0;0;0;0.2752234;2.770893;-0.1854044;0.2286401;1.308808;-0.2169609;0;0;0
625920.0283;NotLabelled;NONE;16384;0.787497;0.4598338;0.2603878;0.3171745;-1;0;0;2976;-2352;1555;65536;0.783373;0.5706371;-0.1925208;0.1537396;2;1;0;-32;-3921;-1309;8192;0.7761054;0.4626039;-0.3642659;-0.2257618;0;3;-2;-2926;-2253;2041;32768;0.8021974;0.5831025;0.1121884;-0.06232687;1;2;0;-202;-3887;-1358;256;0.04432133;-0.01939058;-0.599723;-0.798744;0;-1;0;-233;3902;-1137;128;0.05955679;0;0.5650969;0.8228721;-1;-1;0;-469;3881;1396;4;0.5314357;-0.5055401;0.4847645;0.4764543;0;-1;0;79;4128;172;16;0.6398892;-0.7645618;0.05401662;-0.05540166;0;0;0;631;3968;684;2;0.5238333;-0.4889196;-0.4806094;-0.5055401;0;0;0;-251;4056;37;8;0.5803324;-0.7034348;-0.3462604;-0.2202216;0;0;1;-967;3997;337;0.5874665;2.811903;-0.1729639;0.5934191;3.354335;-0.1150541;0.5986537;3.831347;-0.06616263;0.5666891;4.535653;0.1372924;0.2935736;4.847523;0.1910792;-0.04047882;4.679972;0.2128686;-0.6545854;5.197568;-0.2489721;-0.5139515;6.100762;-0.4984899;0.8133824;4.871118;0.1910792;1.108907;4.732141;0.2128691;1.879289;5.260429;-0.02313623;1.799408;6.158917;-0.3131797;0.2752236;2.770893;-0.1854057;0.2286403;1.308808;-0.2169615;0;0;0;0.2752236;2.770893;-0.1854057;0.2286403;1.308808;-0.2169615;0;0;0
625940.2269;NotLabelled;NONE;16384;0.787497;0.4598338;0.2603878;0.3171745;-1;-1;0;2958;-2328;1569;65536;0.783373;0.5706371;-0.1925208;0.1537396;2;0;0;-4;-3987;-1301;8192;0.7761054;0.4626039;-0.3642659;-0.2257618;0;0;-1;-2856;-2137;2081;32768;0.8021974;0.5831025;0.1121884;-0.06232687;1;0;0;-66;-3911;-1276;256;0.04293629;-0.01939058;-0.599723;-0.7988197;0;0;0;-97;3944;-1149;128;0.05955679;0;0.5650969;0.8228721;0;0;0;-471;3897;1390;4;0.5314357;-0.5055401;0.4847645;0.4764543;0;-1;0;67;4028;134;16;0.6398892;-0.7645618;0.05401662;-0.05540166;0;0;0;593;4002;728;2;0.5238333;-0.4889196;-0.4806094;-0.5055401;0;0;0;-263;4094;43;8;0.5803324;-0.7034348;-0.3462604;-0.2202216;0;0;1;-983;3945;335;0.5849861;2.812279;-0.1731586;0.5909386;3.354711;-0.1152488;0.596173;3.831723;-0.06635745;0.5626511;4.536002;0.1369409;0.2888469;4.84728;0.1906556;-0.04483502;4.678996;0.2124789;-0.658175;5.196592;-0.2503794;-0.5171241;6.099786;-0.4996612;0.8086025;4.872023;0.1906556;1.104433;4.733705;0.2124794;1.873579;5.264522;-0.02187514;1.795845;6.164186;-0.3088436;0.272743;2.771269;-0.1856004;0.2262128;1.309184;-0.2172341;0;0;0;0.272743;2.771269;-0.1856004;0.2262128;1.309184;-0.2172341;0;0;0
625960.072;NotLabelled;NONE;16384;0.7879536;0.4598338;0.2590028;0.3171745;0;-2;1;2976;-2276;1521;65536;0.783373;0.5706371;-0.1925208;0.1537396;3;0;0;-222;-3987;-1179;8192;0.7761054;0.4626039;-0.3642659;-0.2257618;-2;-1;0;-2816;-2121;2007;32768;0.8021974;0.5831025;0.1121884;-0.06232687;0;0;0;-38;-3835;-1274;256;0.04293629;-0.01800554;-0.599723;-0.7988521;-1;-1;0;-157;3914;-1143;128;0.05955679;0;0.5650969;0.8228721;0;-1;1;-441;3789;1442;4;0.5314357;-0.5055401;0.4847645;0.4764543;0;0;0;29;4116;136;16;0.6398892;-0.7645618;0.05401662;-0.05540166;0;0;0;643;3958;682;2;0.5238333;-0.4889196;-0.4806094;-0.5055401;0;0;0;-269;4068;15;8;0.5803324;-0.7034348;-0.3462604;-0.2202216;0;0;0;-965;4043;339;0.584675;2.812279;-0.1736149;0.5906276;3.354711;-0.1157051;0.5958622;3.831723;-0.06681365;0.5638976;4.536029;0.1366414;0.2907821;4.847899;0.1904281;-0.04327035;4.680348;0.2122176;-0.6581568;5.197944;-0.2485841;-0.5175231;6.101139;-0.4981018;0.8105909;4.871494;0.1904282;1.106116;4.732517;0.2122181;1.874472;5.263336;-0.02471063;1.796259;6.162998;-0.3115482;0.272432;2.771269;-0.1860567;0.2258488;1.309184;-0.2176125;0;0;0;0.272432;2.771269;-0.1860567;0.2258488;1.309184;-0.2176125;0;0;0
625981.0581;NotLabelled;NONE;16384;0.7871436;0.4612188;0.2590028;0.3171745;-1;0;0;2966;-2300;1577;65536;0.7827017;0.5720221;-0.1911357;0.1537396;0;1;0;-76;-3953;-1131;8192;0.7761054;0.4626039;-0.3642659;-0.2257618;-2;0;-1;-2776;-2215;1979;32768;0.8021974;0.5831025;0.1121884;-0.06232687;1;0;0;-164;-3759;-1358;256;0.04432133;-0.01939058;-0.599723;-0.798744;-1;-1;0;-151;3904;-1077;128;0.05955679;0;0.5650969;0.8228721;-1;-1;0;-377;3783;1432;4;0.5314357;-0.5055401;0.4847645;0.4764543;0;0;0;55;4082;148;16;0.6398892;-0.7645618;0.05401662;-0.05540166;0;0;0;647;4030;698;2;0.5224931;-0.4889196;-0.4806094;-0.5069252;0;0;0;-271;4114;33;8;0.5803324;-0.7034348;-0.3462604;-0.2202216;0;0;0;-951;4011;321;0.584262;2.812279;-0.1742183;0.5902146;3.354711;-0.1163084;0.595449;3.831723;-0.06741709;0.5623115;4.53597;0.1360536;0.288677;4.847383;0.1898475;-0.04509576;4.679276;0.2116336;-0.6583273;5.198074;-0.2500194;-0.5182469;6.101269;-0.4998476;0.8084456;4.871844;0.1898475;1.104202;4.73336;0.2116341;1.87243;5.264178;-0.02571014;1.793581;6.163841;-0.3123738;0.2720191;2.771269;-0.1866601;0.2253662;1.309185;-0.2181125;0;0;0;0.2720191;2.771269;-0.1866601;0.2253662;1.309185;-0.2181125;0;0;0
626002.1035;NotLabelled;NONE;16384;0.7871436;0.4612188;0.2590028;0.3171745;-2;2;0;2980;-2370;1545;65536;0.7827017;0.5720221;-0.1911357;0.1537396;0;3;0;-152;-3919;-1193;8192;0.7761054;0.4626039;-0.3642659;-0.2257618;-1;2;-1;-2802;-2241;2003;32768;0.8020025;0.5831025;0.1135734;-0.06232687;2;1;0;-202;-3799;-1470;256;0.04432133;-0.01939058;-0.599723;-0.798744;0;0;0;-215;3892;-1129;128;0.05955679;0;0.5650969;0.8228721;-1;0;0;-433;3883;1482;4;0.5314357;-0.5055401;0.4847645;0.4764543;0;0;0;37;4154;148;16;0.6398892;-0.7645618;0.05401662;-0.05540166;0;-1;0;669;3928;734;2;0.5238333;-0.4889196;-0.4806094;-0.5055401;0;0;0;-263;4092;25;8;0.5803324;-0.7034348;-0.3462604;-0.2202216;0;0;0;-917;4013;353;0.5849861;2.812279;-0.1731586;0.5909386;3.354711;-0.1152488;0.596173;3.831723;-0.06635745;0.5626511;4.536002;0.1369409;0.2888469;4.84728;0.1906556;-0.04483502;4.678996;0.2124789;-0.65689;5.199127;-0.2492374;-0.5187002;6.103246;-0.496762;0.8086025;4.872023;0.1906556;1.104433;4.733705;0.2124794;1.873579;5.264522;-0.02187514;1.795845;6.164186;-0.3088436;0.272743;2.771269;-0.1856004;0.2262128;1.309184;-0.2172341;0;0;0;0.272743;2.771269;-0.1856004;0.2262128;1.309184;-0.2172341;0;0;0
626024.2053;NotLabelled;NONE;16384;0.7877003;0.4612188;0.2590028;0.3157895;-1;1;0;2900;-2282;1487;65536;0.7827017;0.5720221;-0.1911357;0.1537396;0;1;0;-74;-3885;-1165;8192;0.7761054;0.4626039;-0.3642659;-0.2257618;0;1;0;-2756;-2133;1963;32768;0.8018937;0.5831025;0.1135734;-0.06371191;2;1;0;-52;-3775;-1236;256;0.04432133;-0.01939058;-0.599723;-0.798744;0;0;0;-189;3948;-1123;128;0.05817174;0;0.5650969;0.8229712;-1;0;0;-373;3907;1404;4;0.5314357;-0.5055401;0.4847645;0.4764543;0;-1;0;105;4068;126;16;0.6398892;-0.7645618;0.05401662;-0.05540166;0;0;0;661;3974;712;2;0.5238333;-0.4889196;-0.4806094;-0.5055401;0;0;0;-229;4098;49;8;0.5803324;-0.7034348;-0.3462604;-0.2202216;0;0;0;-925;4003;375;0.5849861;2.812279;-0.1731586;0.5909386;3.354711;-0.1152488;0.596173;3.831723;-0.06635745;0.5626511;4.536002;0.1369409;0.2888469;4.84728;0.1906556;-0.04483502;4.678996;0.2124789;-0.65689;5.199127;-0.2492374;-0.5187002;6.103246;-0.496762;0.8086025;4.872023;0.1906556;1.104433;4.733705;0.2124794;1.873579;5.264522;-0.02187514;1.793739;6.164133;-0.308427;0.272743;2.771269;-0.1856004;0.2262128;1.309184;-0.2172341;0;0;0;0.272743;2.771269;-0.1856004;0.2262128;1.309184;-0.2172341;0;0;0
626046.2047;NotLabelled;NONE;16384;0.7877003;0.4612188;0.2590028;0.3157895;0;-1;1;2892;-2334;1349;65536;0.7827017;0.5720221;-0.1911357;0.1537396;0;0;-1;-40;-3787;-1211;8192;0.7761054;0.4626039;-0.3642659;-0.2257618;0;1;0;-2752;-2197;2007;32768;0.8018937;0.5831025;0.1135734;-0.06371191;1;0;0;-126;-3825;-1298;256;0.04432133;-0.01939058;-0.599723;-0.798744;0;0;0;-169;3920;-1105;128;0.05817174;0;0.5637119;0.8239205;-2;0;0;-453;3815;1490;4;0.5314357;-0.5055401;0.4847645;0.4764543;0;0;0;73;4060;154;16;0.6398892;-0.7645618;0.05401662;-0.05540166;0;0;0;633;4006;708;2;0.5238333;-0.4889196;-0.4806094;-0.5055401;0;-1;0;-267;4078;37;8;0.5803324;-0.7034348;-0.3462604;-0.2202216;0;0;0;-963;3967;345;0.5849861;2.812276;-0.1731455;0.5909384;3.354693;-0.1150913;0.5961729;3.831692;-0.06607306;0.5626509;4.535971;0.1372256;0.2888468;4.847248;0.1909406;-0.04483501;4.678965;0.2127638;-0.6559784;5.200234;-0.2488745;-0.5177888;6.104354;-0.4963983;0.8086022;4.871991;0.1909405;1.104433;4.733672;0.2127641;1.873579;5.264491;-0.0215902;1.795287;6.16428;-0.3080108;0.2727431;2.77127;-0.1855991;0.2262129;1.309185;-0.2172335;0;0;0;0.2727431;2.77127;-0.1855991;0.2262129;1.309185;-0.2172335;0;0;0
626067.0271;NotLabelled;NONE;16384;0.7863305;0.4626039;0.2590028;0.3171745;0;-3;0;2936;-2368;1409;65536;0.7827017;0.5720221;-0.1911357;0.1537396;1;-1;-2;-84;-3867;-1219;8192;0.7761054;0.4626039;-0.3642659;-0.2257618;0;2;0;-2822;-2203;2023;32768;0.8018937;0.5831025;0.1135734;-0.06371191;1;0;0;-144;-3829;-1352;256;0.04432133;-0.01939058;-0.599723;-0.798744;1;0;0;-245;3830;-1107;128;0.05817174;0;0.5637119;0.8239205;0;0;0;-355;3855;1450;4;0.5327498;-0.5041551;0.4847645;0.4764543;0;0;0;77;4066;148;16;0.6398892;-0.7645618;0.05401662;-0.05540166;0;0;0;647;3902;740;2;0.5224931;-0.4889196;-0.4806094;-0.5069252;0;-1;0;-293;4070;19;8;0.5803324;-0.7034348;-0.3462604;-0.2202216;0;0;0;-943;3999;353;0.5849856;2.812233;-0.172996;0.5909358;3.354452;-0.113115;0.5961685;3.831283;-0.06249009;0.5626465;4.535562;0.1408086;0.2888425;4.846839;0.1945235;-0.04483929;4.678556;0.2163468;-0.6558917;5.199827;-0.245412;-0.5177018;6.103946;-0.4929359;0.8085979;4.871582;0.1945233;1.104429;4.733264;0.216347;1.873621;5.264082;-0.01785558;1.795329;6.16387;-0.3042762;0.2727431;2.77127;-0.1855992;0.2262129;1.309185;-0.2172336;0;0;0;0.2727431;2.77127;-0.1855992;0.2262129;1.309185;-0.2172336;0;0;0
626088.1455;NotLabelled;NONE;16384;0.7867853;0.4626039;0.2576177;0.3171745;0;0;1;2964;-2316;1471;65536;0.7829725;0.5720221;-0.1911357;0.1523546;1;0;-1;-104;-3965;-1091;8192;0.7757012;0.4626039;-0.3642659;-0.2271468;0;2;0;-2902;-2185;1975;32768;0.8018937;0.5831025;0.1135734;-0.06371191;1;0;0;-102;-3923;-1310;256;0.04432133;-0.01939058;-0.599723;-0.798744;0;0;0;-241;3968;-1117;128;0.05817174;0;0.5637119;0.8239205;0;0;0;-451;3921;1484;4;0.5327498;-0.5041551;0.4847645;0.4764543;0;0;0;95;4130;150;16;0.6398892;-0.7645618;0.05401662;-0.05540166;0;0;0;633;4002;726;2;0.5224931;-0.4889196;-0.4806094;-0.5069252;0;0;0;-233;4070;-31;8;0.5803324;-0.7034348;-0.3462604;-0.2202216;0;0;0;-933;3979;337;0.5884227;2.812018;-0.1685986;0.5943729;3.354237;-0.1087176;0.5996056;3.831068;-0.05809271;0.5660836;4.535347;0.145206;0.2922795;4.846624;0.1989208;-0.04140221;4.678341;0.2207442;-0.6540801;5.199797;-0.2386459;-0.5158902;6.103916;-0.4861698;0.812035;4.871367;0.1989207;1.107866;4.733049;0.2207444;1.877012;5.263867;-0.01360995;1.79872;6.163655;-0.3000305;0.2761802;2.771055;-0.1812018;0.2262128;1.309185;-0.2172336;0;0;0;0.2761802;2.771055;-0.1812018;0.2262128;1.309185;-0.2172336;0;0;0
626108.2721;NotLabelled;NONE;16384;0.7867853;0.4626039;0.2576177;0.3171745;0;-3;2;2992;-2280;1535;65536;0.7816876;0.5734072;-0.1911357;0.1537396;0;-1;-1;-146;-3949;-1195;8192;0.7757012;0.4626039;-0.3642659;-0.2271468;0;0;0;-2826;-2203;2027;32768;0.8018937;0.5831025;0.1135734;-0.06371191;1;0;0;-138;-3915;-1266;256;0.04432133;-0.01939058;-0.599723;-0.798744;1;0;0;-107;3930;-1177;128;0.05817174;0;0.5637119;0.8239205;-2;0;0;-481;3819;1448;4;0.5327498;-0.5041551;0.4847645;0.4764543;0;0;0;-11;4106;190;16;0.6398892;-0.7644626;0.05540166;-0.05540166;0;0;0;693;3994;706;2;0.5224931;-0.4889196;-0.4806094;-0.5069252;0;0;0;-275;4100;29;8;0.5803324;-0.7034348;-0.3462604;-0.2202216;0;0;0;-965;4013;381;0.5884227;2.812018;-0.1685986;0.5943729;3.354237;-0.1087176;0.5996056;3.831068;-0.05809271;0.5660836;4.535347;0.145206;0.2922795;4.846624;0.1989208;-0.04140221;4.678341;0.2207442;-0.6521731;5.201;-0.2398154;-0.5123895;6.104912;-0.4872043;0.812035;4.871367;0.1989207;1.107866;4.733049;0.2207444;1.877951;5.262537;-0.01353472;1.799659;6.162326;-0.2999552;0.2761802;2.771055;-0.1812018;0.2262128;1.309185;-0.2172336;0;0;0;0.2761802;2.771055;-0.1812018;0.2262128;1.309185;-0.2172336;0;0;0
626129.1404;NotLabelled;NONE;16384;0.7867853;0.4626039;0.2576177;0.3171745;0;-2;1;3040;-2384;1475;65536;0.7819587;0.5734072;-0.1911357;0.1523546;0;0;-1;-152;-3903;-1157;8192;0.7757012;0.4626039;-0.3642659;-0.2271468;-1;0;0;-2820;-2189;2037;32768;0.8018937;0.5831025;0.1135734;-0.06371191;0;0;-1;-92;-3875;-1328;256;0.04432133;-0.01939058;-0.599723;-0.798744;0;0;0;-207;3892;-1193;128;0.05817174;0;0.5637119;0.8239205;-3;0;0;-371;3845;1486;4;0.5327498;-0.5041551;0.4847645;0.4764543;0;0;0;151;4112;138;16;0.6398892;-0.7645618;0.05401662;-0.05540166;0;0;0;649;3938;678;2;0.5251008;-0.4889196;-0.4792244;-0.5055401;0;0;0;-327;4038;39;8;0.5803324;-0.7034348;-0.3462604;-0.2202216;0;0;0;-983;4003;345;0.5907859;2.811641;-0.1683988;0.596736;3.353859;-0.1085177;0.6019687;3.83069;-0.05789289;0.5684467;4.534969;0.1454058;0.2946426;4.846247;0.1991207;-0.03903909;4.677963;0.220944;-0.64981;5.200623;-0.2396155;-0.5126415;6.105696;-0.4842088;0.8143981;4.870989;0.1991206;1.110229;4.732671;0.2209443;1.880314;5.262159;-0.0133349;1.802022;6.161948;-0.2997553;0.2785433;2.770677;-0.181002;0.228576;1.308807;-0.2170338;0;0;0;0.2785433;2.770677;-0.181002;0.228576;1.308807;-0.2170338;0;0;0
626150.0209;NotLabelled;NONE;16384;0.7867853;0.4626039;0.2576177;0.3171745;0;0;0;3016;-2406;1523;65536;0.7819587;0.5734072;-0.1911357;0.1523546;0;2;-1;18;-4045;-1211;8192;0.7757012;0.4626039;-0.3642659;-0.2271468;-1;2;0;-2850;-2255;2015;32768;0.8018937;0.5831025;0.1135734;-0.06371191;0;0;0;-86;-3879;-1302;256;0.04293629;-0.01800554;-0.599723;-0.7988521;0;0;0;-195;3870;-1141;128;0.05817174;0;0.5623268;0.8248664;-2;1;0;-443;3839;1428;4;0.5327498;-0.5041551;0.4847645;0.4764543;0;0;0;133;4090;116;16;0.6398892;-0.7645618;0.05401662;-0.05540166;0;0;0;665;3950;622;2;0.5251008;-0.4889196;-0.4792244;-0.5055401;0;0;0;-195;4106;23;8;0.5803324;-0.7034348;-0.3462604;-0.2202216;0;0;0;-933;4011;367;0.5884227;2.812018;-0.1685986;0.5943729;3.354237;-0.1087176;0.5996056;3.831068;-0.05809271;0.5660836;4.535347;0.145206;0.2922795;4.846624;0.1989208;-0.04140221;4.678341;0.2207442;-0.6521731;5.201;-0.2398154;-0.5134072;6.105865;-0.4842735;0.812035;4.871367;0.1989207;1.107866;4.733049;0.2207444;1.877951;5.262537;-0.01353472;1.799659;6.162326;-0.2999552;0.2761802;2.771055;-0.1812018;0.2262128;1.309185;-0.2172336;0;0;0;0.2761802;2.771055;-0.1812018;0.2262128;1.309185;-0.2172336;0;0;0
626170.0503;NotLabelled;NONE;16384;0.7872375;0.4626039;0.2562327;0.3171745;0;-1;2;2958;-2340;1415;65536;0.7819587;0.5734072;-0.1911357;0.1523546;1;0;0;-14;-4001;-1211;8192;0.7750493;0.4626039;-0.365651;-0.2271468;-1;0;0;-2846;-2201;2019;32768;0.8017824;0.5831025;0.1135734;-0.06509695;0;-1;0;20;-3919;-1272;256;0.04293629;-0.01800554;-0.599723;-0.7988521;1;1;0;-203;3922;-1149;128;0.05817174;0;0.5623268;0.8248664;-1;0;0;-413;3917;1434;4;0.5327498;-0.5041551;0.4847645;0.4764543;0;1;0;73;4088;160;16;0.6398892;-0.7645618;0.05401662;-0.05540166;0;0;0;633;3976;698;2;0.5251008;-0.4889196;-0.4792244;-0.5055401;0;0;0;-267;4088;17;8;0.5803324;-0.7034348;-0.3462604;-0.2202216;0;0;0;-921;3963;311;0.5877149;2.811976;-0.1695222;0.5936627;3.353989;-0.1078173;0.5988935;3.830648;-0.0555886;0.565756;4.534895;0.1478825;0.2921215;4.846308;0.2016767;-0.04165126;4.678201;0.2234629;-0.6541198;5.200861;-0.2348363;-0.5163061;6.105725;-0.4798321;0.8118901;4.870769;0.2016764;1.107646;4.732285;0.2234628;1.87686;5.261773;-0.01366067;1.797454;6.161562;-0.2997744;0.2754729;2.771055;-0.1822746;0.2253659;1.309185;-0.2181118;0;0;0;0.2754729;2.771055;-0.1822746;0.2253659;1.309185;-0.2181118;0;0;0
626190.1251;NotLabelled;NONE;16384;0.786422;0.4639889;0.2562327;0.3171745;0;-3;1;2954;-2352;1413;65536;0.7816189;0.5734072;-0.1925208;0.1523546;1;-1;-1;-186;-3771;-1077;8192;0.7750493;0.4626039;-0.365651;-0.2271468;-1;0;0;-2858;-2139;1967;32768;0.8017824;0.5831025;0.1135734;-0.06509695;0;-1;0;-160;-3895;-1244;256;0.04293629;-0.01800554;-0.599723;-0.7988521;0;0;0;-231;3954;-1121;128;0.05817174;0;0.5623268;0.8248664;-3;0;0;-389;3855;1496;4;0.5327498;-0.5041551;0.4847645;0.4764543;0;1;0;99;4050;136;16;0.6398892;-0.7645618;0.05401662;-0.05540166;0;1;0;639;3988;700;2;0.5251008;-0.4889196;-0.4792244;-0.5055401;0;0;0;-255;4100;5;8;0.5803324;-0.7034348;-0.3462604;-0.2202216;0;0;0;-987;3963;303;0.5877152;2.811976;-0.1695219;0.5936632;3.353989;-0.107817;0.5988939;3.830648;-0.05558832;0.5657564;4.534895;0.1478828;0.2921219;4.846308;0.2016769;-0.04165096;4.678201;0.2234629;-0.6523027;5.202062;-0.2358871;-0.5144886;6.106927;-0.4808828;0.8118905;4.870769;0.2016768;1.107646;4.732285;0.2234633;1.878267;5.260584;-0.01173592;1.800412;6.160549;-0.2977248;0.2754733;2.771055;-0.1822744;0.2253662;1.309185;-0.2181117;0;0;0;0.2754733;2.771055;-0.1822744;0.2253662;1.309185;-0.2181117;0;0;0
626211.0531;NotLabelled;NONE;16384;0.786422;0.4639889;0.2562327;0.3171745;1;-1;0;2892;-2390;1491;65536;0.7816189;0.5734072;-0.1925208;0.1523546;0;0;-3;-38;-3891;-1119;8192;0.7750493;0.4626039;-0.365651;-0.2271468;-1;1;0;-2852;-2107;1953;32768;0.8017824;0.5831025;0.1135734;-0.06509695;0;1;-1;-186;-3851;-1298;256;0.04293629;-0.01800554;-0.599723;-0.7988521;0;1;1;-293;3854;-1155;128;0.05817174;0;0.5623268;0.8248664;-2;0;0;-403;3839;1436;4;0.5327498;-0.5041551;0.4847645;0.4764543;0;0;0;35;4080;106;16;0.6398892;-0.7645618;0.05401662;-0.05540166;0;1;0;669;3974;714;2;0.5251008;-0.4889196;-0.4792244;-0.5055401;0;2;0;-241;4080;31;8;0.5803324;-0.7034348;-0.3462604;-0.2202216;0;0;0;-915;3957;369;0.5877149;2.811976;-0.1695222;0.5936627;3.353989;-0.1078173;0.5988935;3.830648;-0.0555886;0.565756;4.534895;0.1478825;0.2921215;4.846308;0.2016767;-0.04165126;4.678201;0.2234629;-0.6529209;5.203382;-0.2335518;-0.5132653;6.108278;-0.4773891;0.8118901;4.870769;0.2016764;1.107646;4.732285;0.2234628;1.878266;5.260585;-0.01173702;1.800411;6.16055;-0.297726;0.2754729;2.771055;-0.1822746;0.2253659;1.309185;-0.2181118;0;0;0;0.2754729;2.771055;-0.1822746;0.2253659;1.309185;-0.2181118;0;0;0
626231.043;NotLabelled;NONE;16384;0.7868719;0.4639889;0.2548476;0.3171745;1;-2;1;2962;-2370;1461;65536;0.7806009;0.5747922;-0.1925208;0.1523546;1;-1;-2;10;-3937;-1137;8192;0.7750493;0.4626039;-0.365651;-0.2271468;-1;2;0;-2838;-2169;1949;32768;0.8017824;0.5831025;0.1135734;-0.06509695;1;0;-2;-192;-3869;-1372;256;0.04293629;-0.01800554;-0.599723;-0.7988521;1;1;0;-227;3850;-1119;128;0.05817174;0;0.5623268;0.8248664;-1;0;0;-381;3853;1494;4;0.5327498;-0.5041551;0.4847645;0.4764543;0;0;0;63;4038;98;16;0.6398892;-0.7645618;0.05401662;-0.05540166;0;0;0;655;3950;696;2;0.5251008;-0.4889196;-0.4792244;-0.5055401;0;0;0;-339;4104;21;8;0.5803324;-0.7034348;-0.3462604;-0.2202216;0;0;0;-1015;3977;303;0.5877149;2.811976;-0.1695222;0.5936627;3.353989;-0.1078173;0.5988935;3.830648;-0.0555886;0.565756;4.534895;0.1478825;0.2921215;4.846308;0.2016767;-0.04165126;4.678201;0.2234629;-0.6529209;5.203382;-0.2335518;-0.5132653;6.108278;-0.4773891;0.8118901;4.870769;0.2016764;1.107646;4.732285;0.2234628;1.878266;5.260585;-0.01173702;1.800411;6.16055;-0.297726;0.2754729;2.771055;-0.1822746;0.2253659;1.309185;-0.2181118;0;0;0;0.2754729;2.771055;-0.1822746;0.2253659;1.309185;-0.2181118;0;0;0
626252.0406;NotLabelled;NONE;16384;0.7868719;0.4639889;0.2548476;0.3171745;1;-2;1;2944;-2298;1459;65536;0.7806009;0.5747922;-0.1925208;0.1523546;0;-2;-1;-40;-3881;-1069;8192;0.7750493;0.4626039;-0.365651;-0.2271468;-1;0;1;-2800;-2199;1937;32768;0.8017824;0.5831025;0.1135734;-0.06509695;2;-1;0;-84;-3835;-1264;256;0.04293629;-0.01800554;-0.5983379;-0.79989;1;1;0;-201;3964;-1135;128;0.05817174;0;0.5623268;0.8248664;0;0;1;-393;3899;1490;4;0.5327498;-0.5041551;0.4847645;0.4764543;0;0;0;53;4058;162;16;0.6398892;-0.7645618;0.05401662;-0.05540166;0;0;0;667;3986;690;2;0.5251008;-0.4889196;-0.4792244;-0.5055401;0;0;0;-287;4080;-1;8;0.5803324;-0.7034348;-0.3462604;-0.2202216;0;0;0;-939;3967;325;0.5877152;2.811976;-0.1695219;0.5936632;3.353989;-0.107817;0.5988939;3.830648;-0.05558832;0.5657564;4.534895;0.1478828;0.2921219;4.846308;0.2016769;-0.04165096;4.678201;0.2234629;-0.6510141;5.204583;-0.2347143;-0.5123695;6.110422;-0.4756099;0.8118905;4.870769;0.2016768;1.107646;4.732285;0.2234633;1.878267;5.260584;-0.01173592;1.800412;6.160549;-0.2977248;0.2754733;2.771055;-0.1822744;0.2253662;1.309185;-0.2181117;0;0;0;0.2754733;2.771055;-0.1822744;0.2253662;1.309185;-0.2181117;0;0;0
626272.0426;NotLabelled;NONE;16384;0.7868719;0.4639889;0.2548476;0.3171745;1;0;0;3006;-2316;1461;65536;0.780258;0.5747922;-0.1939058;0.1523546;-1;-1;-1;-124;-3877;-1145;8192;0.7750493;0.4626039;-0.365651;-0.2271468;-1;0;1;-2792;-2155;1951;32768;0.8017824;0.5831025;0.1135734;-0.06509695;2;0;0;-158;-3895;-1286;256;0.04293629;-0.01800554;-0.5983379;-0.79989;1;0;0;-211;3968;-1145;128;0.05817174;0;0.5623268;0.8248664;-1;0;0;-355;3879;1500;4;0.5314357;-0.5055401;0.4847645;0.4764543;1;0;0;59;4074;136;16;0.6398892;-0.7645618;0.05401662;-0.05540166;0;0;0;615;3942;770;2;0.5251008;-0.4889196;-0.4792244;-0.5055401;0;0;0;-257;4084;7;8;0.5803324;-0.7038669;-0.3462604;-0.2188366;0;0;0;-949;3963;335;0.5877004;2.811975;-0.1695445;0.5936483;3.353989;-0.1078396;0.598879;3.830647;-0.05561085;0.5656769;4.534182;0.1502995;0.2920079;4.845369;0.2052146;-0.04173795;4.677141;0.2264737;-0.6511388;5.203524;-0.2316535;-0.512514;6.109362;-0.4725604;0.8117732;4.869902;0.2052144;1.107552;4.731385;0.2264737;1.878153;5.259686;-0.008788824;1.800273;6.159649;-0.2947715;0.2754584;2.771054;-0.182297;0.2253483;1.309185;-0.2181301;0;0;0;0.2754584;2.771054;-0.182297;0.2253483;1.309185;-0.2181301;0;0;0
626293.0261;NotLabelled;NONE;16384;0.7868719;0.4639889;0.2548476;0.3171745;1;1;0;2934;-2346;1485;65536;0.780258;0.5747922;-0.1939058;0.1523546;-2;1;-1;14;-3909;-1097;8192;0.7743943;0.4626039;-0.367036;-0.2271468;-1;2;0;-2828;-2189;2013;32768;0.8007733;0.5844875;0.1135734;-0.06509695;1;0;-1;-180;-3929;-1174;256;0.04293629;-0.01800554;-0.5983379;-0.79989;0;0;0;-185;3850;-1175;128;0.05817174;0;0.5623268;0.8248664;-1;0;0;-407;3857;1488;4;0.5314357;-0.5055401;0.4847645;0.4764543;0;0;0;65;4084;106;16;0.6398892;-0.7645618;0.05401662;-0.05540166;0;0;0;615;3976;744;2;0.5251008;-0.4889196;-0.4792244;-0.5055401;0;0;0;-273;4064;39;8;0.5803324;-0.7038669;-0.3462604;-0.2188366;0;0;0;-1007;3937;329;0.5842457;2.812191;-0.1739283;0.5901936;3.354205;-0.1122234;0.5954244;3.830863;-0.05999464;0.5622222;4.534398;0.1459157;0.2885533;4.845585;0.2008309;-0.04519258;4.677357;0.22209;-0.6545936;5.203739;-0.2360372;-0.5141332;6.109604;-0.4757787;0.8083186;4.870118;0.2008307;1.104097;4.731601;0.2220899;1.874698;5.259901;-0.01317257;1.796819;6.159864;-0.2991552;0.2720038;2.77127;-0.1866807;0.2253482;1.309184;-0.2181301;0;0;0;0.2720038;2.77127;-0.1866807;0.2253482;1.309184;-0.2181301;0;0;0
626314.0258;NotLabelled;NONE;16384;0.7868719;0.4639889;0.2548476;0.3171745;2;-2;1;2942;-2364;1347;65536;0.780258;0.5747922;-0.1939058;0.1523546;-1;-1;0;-82;-3909;-1261;8192;0.7743943;0.4626039;-0.367036;-0.2271468;-1;1;1;-2944;-2221;2005;32768;0.8007733;0.5844875;0.1135734;-0.06509695;0;-1;-1;-42;-3943;-1166;256;0.04293629;-0.01800554;-0.5983379;-0.79989;1;2;0;-185;3880;-1083;128;0.05817174;0;0.5623268;0.8248664;0;0;0;-399;3799;1452;4;0.5314357;-0.5055401;0.4847645;0.4764543;0;0;0;61;4122;112;16;0.6398892;-0.7645618;0.05401662;-0.05540166;0;0;0;655;3980;728;2;0.5251008;-0.4889196;-0.4792244;-0.5055401;0;0;0;-257;4126;45;8;0.5803324;-0.7038669;-0.3462604;-0.2188366;0;0;0;-999;3963;403;0.584246;2.812191;-0.1739284;0.5901939;3.354204;-0.1122235;0.5954248;3.830863;-0.05999473;0.5622227;4.534397;0.1459156;0.2885537;4.845584;0.2008308;-0.04519216;4.677356;0.2220899;-0.6545929;5.203739;-0.2360378;-0.5141326;6.109603;-0.4757791;0.808319;4.870117;0.2008305;1.104098;4.7316;0.2220898;1.876146;5.258708;-0.01109201;1.798407;6.159659;-0.2939891;0.272004;2.77127;-0.1866807;0.2253485;1.309185;-0.2181301;0;0;0;0.272004;2.77127;-0.1866807;0.2253485;1.309185;-0.2181301;0;0;0
626334.1857;NotLabelled;NONE;16384;0.7867597;0.4639889;0.2534626;0.3185596;2;-3;0;3010;-2412;1423;65536;0.7812764;0.5734072;-0.1939058;0.1523546;0;-3;0;-124;-3869;-1221;8192;0.7743943;0.4626039;-0.367036;-0.2271468;-2;-1;1;-2892;-2237;1995;32768;0.8007733;0.5844875;0.1135734;-0.06509695;-1;-4;0;38;-3933;-1218;256;0.04293629;-0.01800554;-0.5983379;-0.79989;2;0;0;-201;3916;-1147;128;0.05817174;0;0.5623268;0.8248664;0;1;0;-397;3897;1488;4;0.5314357;-0.5055401;0.4847645;0.4764543;0;1;0;113;4082;126;16;0.6398892;-0.7645618;0.05401662;-0.05540166;0;1;0;667;3914;708;2;0.5251008;-0.4889196;-0.4792244;-0.5055401;0;0;0;-265;4078;85;8;0.5803324;-0.7038669;-0.3462604;-0.2188366;0;0;0;-935;3997;373;0.584246;2.812191;-0.1739284;0.5901939;3.354204;-0.1122235;0.5954248;3.830863;-0.05999473;0.5622227;4.534397;0.1459156;0.2885537;4.845584;0.2008308;-0.04519216;4.677356;0.2220899;-0.6545929;5.203739;-0.2360378;-0.5141326;6.109603;-0.4757791;0.808319;4.870117;0.2008305;1.104098;4.7316;0.2220898;1.876146;5.258708;-0.01109201;1.798407;6.159659;-0.2939891;0.272004;2.77127;-0.1866807;0.2253485;1.309185;-0.2181301;0;0;0;0.272004;2.77127;-0.1866807;0.2253485;1.309185;-0.2181301;0;0;0
626354.2475;NotLabelled;NONE;16384;0.7867597;0.4639889;0.2534626;0.3185596;1;0;0;3006;-2464;1489;65536;0.7809314;0.5734072;-0.1952908;0.1523546;0;-2;-2;-176;-3901;-1215;8192;0.7743943;0.4626039;-0.367036;-0.2271468;-1;0;0;-2852;-2175;1961;32768;0.8008847;0.5844875;0.1135734;-0.06371191;0;0;-1;-146;-3879;-1294;256;0.04293629;-0.01800554;-0.5983379;-0.79989;1;1;-1;-261;3976;-1135;128;0.05817174;0;0.5623268;0.8248664;0;1;0;-387;3909;1450;4;0.5314357;-0.5055401;0.4847645;0.4764543;0;0;0;85;4070;110;16;0.6398892;-0.7645618;0.05401662;-0.05540166;0;0;0;619;3948;696;2;0.5251008;-0.4889196;-0.4792244;-0.5055401;0;1;0;-231;4096;51;8;0.5803324;-0.7038669;-0.3462604;-0.2188366;0;0;0;-959;4009;337;0.5842457;2.812191;-0.1739283;0.5901936;3.354205;-0.1122234;0.5954244;3.830863;-0.05999464;0.5622222;4.534398;0.1459157;0.2885533;4.845585;0.2008309;-0.04519258;4.677357;0.22209;-0.6536082;5.203807;-0.2372671;-0.5121346;6.108731;-0.4799501;0.8083186;4.870118;0.2008307;1.104097;4.731601;0.2220899;1.876145;5.258709;-0.01109254;1.798406;6.159659;-0.2939897;0.2720038;2.77127;-0.1866807;0.2253482;1.309184;-0.2181301;0;0;0;0.2720038;2.77127;-0.1866807;0.2253482;1.309184;-0.2181301;0;0;0
626374.2335;NotLabelled;NONE;16384;0.7867597;0.4639889;0.2534626;0.3185596;1;0;0;3026;-2288;1541;65536;0.7809314;0.5734072;-0.1952908;0.1523546;0;0;-1;-124;-3969;-1205;8192;0.7735652;0.4639889;-0.367036;-0.2271468;0;2;0;-2870;-2199;1897;32768;0.8010799;0.5844875;0.1121884;-0.06371191;0;0;0;-28;-3887;-1250;256;0.04293629;-0.01800554;-0.5983379;-0.79989;0;1;0;-243;4008;-1211;128;0.05817174;0;0.5623268;0.8248664;0;1;0;-411;3897;1484;4;0.5314357;-0.5055401;0.4847645;0.4764543;0;1;0;69;4074;108;16;0.6398892;-0.7645618;0.05401662;-0.05540166;0;0;0;619;4002;698;2;0.5251008;-0.4889196;-0.4792244;-0.5055401;0;2;0;-275;4094;45;8;0.5803324;-0.7038669;-0.3462604;-0.2188366;0;0;0;-959;3973;381;0.5842457;2.812191;-0.1739283;0.5901936;3.354205;-0.1122234;0.5954244;3.830863;-0.05999464;0.5622222;4.534398;0.1459157;0.2885533;4.845585;0.2008309;-0.04519258;4.677357;0.22209;-0.6536082;5.203807;-0.2372671;-0.5102998;6.108756;-0.4787777;0.8083186;4.870118;0.2008307;1.104097;4.731601;0.2220899;1.876145;5.258709;-0.01109254;1.796853;6.159485;-0.2941146;0.2720038;2.77127;-0.1866807;0.2253482;1.309184;-0.2181301;0;0;0;0.2720038;2.77127;-0.1866807;0.2253482;1.309184;-0.2181301;0;0;0
626395.0444;NotLabelled;NONE;16384;0.7880192;0.4626039;0.2520775;0.3185596;1;-1;1;2956;-2292;1519;65536;0.7809314;0.5734072;-0.1952908;0.1523546;0;-1;0;-30;-3967;-1281;8192;0.7735652;0.4639889;-0.367036;-0.2271468;0;0;1;-2920;-2271;2013;32768;0.8010799;0.5844875;0.1121884;-0.06371191;0;0;0;-72;-3879;-1258;256;0.04155125;-0.0166205;-0.5983379;-0.7999931;0;2;0;-129;3964;-1129;128;0.05955679;0;0.5623268;0.8247675;0;1;0;-433;3807;1474;4;0.5326958;-0.5055401;0.4833795;0.4764543;0;1;0;45;4084;124;16;0.6398892;-0.7645618;0.05401662;-0.05540166;0;0;0;619;3992;710;2;0.5251008;-0.4889196;-0.4792244;-0.5055401;0;1;0;-173;4112;73;8;0.5803324;-0.7038669;-0.3462604;-0.2188366;0;0;0;-1021;4001;357;0.5842457;2.812191;-0.1739283;0.5901936;3.354205;-0.1122234;0.5954244;3.830863;-0.05999464;0.5622222;4.534398;0.1459157;0.2885533;4.845585;0.2008309;-0.04519258;4.677357;0.22209;-0.6536082;5.203807;-0.2372671;-0.5102998;6.108756;-0.4787777;0.8083186;4.870118;0.2008307;1.104097;4.731601;0.2220899;1.875972;5.260044;-0.008632183;1.798782;6.160869;-0.2920791;0.2720038;2.77127;-0.1866807;0.2253482;1.309184;-0.2181301;0;0;0;0.2720038;2.77127;-0.1866807;0.2253482;1.309184;-0.2181301;0;0;0
626415.0434;NotLabelled;NONE;16384;0.7880192;0.4626039;0.2520775;0.3185596;1;0;0;3048;-2400;1547;65536;0.7806599;0.5734072;-0.1952908;0.1537396;0;0;-1;-180;-3957;-1137;8192;0.7729066;0.4639889;-0.368421;-0.2271468;-1;-1;0;-2892;-2209;2003;32768;0.8010799;0.5844875;0.1121884;-0.06371191;0;-1;0;-142;-3947;-1238;256;0.04155125;-0.0166205;-0.5983379;-0.7999931;0;1;0;-195;3980;-1173;128;0.05955679;0;0.5623268;0.8247675;0;1;0;-395;3907;1532;4;0.5326958;-0.5055401;0.4833795;0.4764543;0;2;0;97;4076;154;16;0.6398892;-0.7645618;0.05401662;-0.05540166;0;1;0;625;4018;700;2;0.5251008;-0.4889196;-0.4792244;-0.5055401;0;1;0;-201;4062;33;8;0.5803324;-0.7038669;-0.3462604;-0.2188366;0;1;0;-983;3923;343;0.5828478;2.812127;-0.1711118;0.5887959;3.354157;-0.1095506;0.5940267;3.830829;-0.05744824;0.5612143;4.534334;0.1486287;0.2877171;4.845658;0.2036204;-0.04612109;4.677608;0.2248434;-0.6538011;5.203937;-0.2356271;-0.5114322;6.108885;-0.4776929;0.8074958;4.869905;0.2036204;1.103198;4.73122;0.2248437;1.874167;5.259663;-0.008889049;1.795876;6.160488;-0.2920337;0.2706058;2.771203;-0.1838525;0.2244986;1.309185;-0.2190044;0;0;0;0.2706058;2.771203;-0.1838525;0.2244986;1.309185;-0.2190044;0;0;0
626436.0671;NotLabelled;NONE;16384;0.788461;0.4626039;0.2506925;0.3185596;1;0;1;2916;-2322;1473;65536;0.7806599;0.5734072;-0.1952908;0.1537396;0;0;-1;-88;-3873;-1169;8192;0.7729066;0.4639889;-0.368421;-0.2271468;0;0;1;-2850;-2253;2031;32768;0.8010799;0.5844875;0.1121884;-0.06371191;-1;0;-1;-196;-3945;-1164;256;0.04155125;-0.0166205;-0.5983379;-0.7999931;0;1;0;-217;3946;-1205;128;0.05955679;0;0.5623268;0.8247675;0;0;1;-355;3843;1548;4;0.5326958;-0.5055401;0.4833795;0.4764543;0;1;0;45;4154;130;16;0.6398892;-0.7645618;0.05401662;-0.05540166;0;1;0;667;3998;714;2;0.5224931;-0.4889196;-0.4806094;-0.5069252;0;2;0;-307;4092;73;8;0.5803324;-0.7038669;-0.3462604;-0.2188366;0;0;0;-947;4009;357;0.582848;2.812127;-0.171113;0.5887961;3.354157;-0.1095518;0.5940269;3.830829;-0.0574494;0.5612144;4.534334;0.1486273;0.2877174;4.845658;0.2036189;-0.04612085;4.677608;0.2248419;-0.6537935;5.203936;-0.2356383;-0.5130256;6.109102;-0.4778271;0.807496;4.869905;0.2036188;1.103199;4.73122;0.2248421;1.875617;5.258467;-0.006797701;1.797325;6.159292;-0.2899426;0.270606;2.771203;-0.1838537;0.2244987;1.309185;-0.2190051;0;0;0;0.270606;2.771203;-0.1838537;0.2244987;1.309185;-0.2190051;0;0;0
626456.3075;NotLabelled;NONE;16384;0.788461;0.4626039;0.2506925;0.3185596;0;-1;1;2946;-2318;1411;65536;0.7809314;0.5734072;-0.1952908;0.1523546;0;-2;-1;-36;-3921;-1157;8192;0.7722449;0.4639889;-0.3698061;-0.2271468;-1;-2;1;-2884;-2255;1963;32768;0.8010799;0.5844875;0.1121884;-0.06371191;-2;-2;0;-92;-3909;-1160;256;0.04155125;-0.0166205;-0.5983379;-0.7999931;-1;1;-1;-157;3906;-1215;128;0.05955679;0;0.5609418;0.8257102;0;1;1;-431;3821;1490;4;0.5326958;-0.5055401;0.4833795;0.4764543;0;0;0;79;4104;58;16;0.6398892;-0.7644626;0.05540166;-0.05540166;0;0;0;635;3966;722;2;0.5237857;-0.4875346;-0.4806094;-0.5069252;0;0;0;-263;4078;-7;8;0.5803324;-0.7038669;-0.3462604;-0.2188366;0;0;0;-951;3975;367;0.582848;2.812127;-0.171113;0.5887961;3.354157;-0.1095518;0.5940269;3.830829;-0.0574494;0.5612144;4.534334;0.1486273;0.2877174;4.845658;0.2036189;-0.04612085;4.677608;0.2248419;-0.6518825;5.205132;-0.2367861;-0.5111144;6.110298;-0.4789749;0.807496;4.869905;0.2036188;1.103199;4.73122;0.2248421;1.875617;5.258467;-0.006797701;1.797325;6.159292;-0.2899426;0.270606;2.771203;-0.1838537;0.2244987;1.309185;-0.2190051;0;0;0;0.270606;2.771203;-0.1838537;0.2244987;1.309185;-0.2190051;0;0;0
626477.0522;NotLabelled;NONE;16384;0.7883393;0.4626039;0.2493075;0.3199446;0;-1;1;2972;-2356;1427;65536;0.7809314;0.5734072;-0.1952908;0.1523546;0;-1;0;-72;-3881;-1215;8192;0.773481;0.4626039;-0.3698061;-0.2257618;-1;-3;0;-2866;-2167;1905;32768;0.8010799;0.5844875;0.1121884;-0.06371191;-2;-1;-1;-88;-3891;-1158;256;0.04293629;-0.0166205;-0.5983379;-0.79992;0;0;-1;-241;3904;-1129;128;0.05955679;-0.001385042;0.5609418;0.825709;-1;0;1;-385;3839;1462;4;0.5326958;-0.5055401;0.4833795;0.4764543;0;0;0;15;4088;138;16;0.6398892;-0.7645618;0.05540166;-0.05401662;0;1;0;667;3982;676;2;0.5237857;-0.4875346;-0.4806094;-0.5069252;0;0;0;-253;4070;23;8;0.5803324;-0.7038669;-0.3462604;-0.2188366;0;0;0;-941;3979;371;0.5852118;2.811707;-0.1707816;0.5911576;3.353527;-0.1073987;0.5963865;3.830021;-0.05369429;0.5635738;4.533526;0.1523827;0.2900767;4.84485;0.2073744;-0.04376151;4.6768;0.2285973;-0.649434;5.204324;-0.2331474;-0.5070651;6.109273;-0.4752131;0.8098553;4.869097;0.2073744;1.105558;4.730412;0.2285977;1.87946;5.25646;-0.0008040667;1.801169;6.157285;-0.283949;0.2729702;2.770826;-0.1836713;0.2268631;1.308807;-0.2188233;0;0;0;0.2729702;2.770826;-0.1836713;0.2268631;1.308807;-0.2188233;0;0;0
626498.0469;NotLabelled;NONE;16384;0.7883393;0.4626039;0.2493075;0.3199446;0;0;1;2958;-2300;1465;65536;0.7809314;0.5734072;-0.1952908;0.1523546;0;0;-1;44;-3959;-1185;8192;0.773481;0.4626039;-0.3698061;-0.2257618;0;-2;0;-2748;-2155;1875;32768;0.8010799;0.5844875;0.1121884;-0.06371191;-1;1;-1;-178;-3785;-1166;256;0.04155125;-0.0166205;-0.5983379;-0.7999931;0;2;0;-193;3886;-1131;128;0.05955679;-0.001385042;0.5609418;0.825709;-2;0;0;-427;3795;1500;4;0.5326958;-0.5055401;0.4833795;0.4764543;0;0;0;33;4096;156;16;0.6398892;-0.7645618;0.05540166;-0.05401662;0;0;0;625;3990;694;2;0.5237857;-0.4875346;-0.4806094;-0.5069252;0;0;0;-287;4106;21;8;0.5803324;-0.7038669;-0.3462604;-0.2188366;0;0;0;-975;3995;333;0.5827223;2.812085;-0.1709565;0.5886682;3.353909;-0.1076063;0.5938972;3.830406;-0.05393054;0.559526;4.53388;0.1519962;0.2853402;4.844611;0.2069187;-0.04812552;4.675827;0.2281741;-0.6521247;5.203425;-0.2356726;-0.5093519;6.108373;-0.4775003;0.805064;4.870007;0.2069189;1.101073;4.731982;0.2281748;1.87455;5.258045;-0.002615869;1.796732;6.158871;-0.2858909;0.2704808;2.771203;-0.1838436;0.2244325;1.309185;-0.2190724;0;0;0;0.2704808;2.771203;-0.1838436;0.2244325;1.309185;-0.2190724;0;0;0
626520.0584;NotLabelled;NONE;16384;0.7875249;0.4639889;0.2493075;0.3199446;0;-3;2;2922;-2226;1425;65536;0.7805837;0.5734072;-0.1966759;0.1523546;0;-2;0;-40;-3917;-1177;8192;0.773481;0.4626039;-0.3698061;-0.2257618;0;0;-1;-2756;-2229;1877;32768;0.8010799;0.5844875;0.1121884;-0.06371191;-1;1;0;-114;-3817;-1194;256;0.04155125;-0.0166205;-0.5983379;-0.7999931;0;1;0;-219;3818;-1095;128;0.05955679;-0.001385042;0.5609418;0.825709;-1;1;0;-367;3839;1458;4;0.5326958;-0.5055401;0.4833795;0.4764543;0;0;0;49;4070;100;16;0.6398892;-0.7645618;0.05540166;-0.05401662;0;0;0;627;3962;708;2;0.5237857;-0.4875346;-0.4806094;-0.5069252;0;0;0;-237;4048;39;8;0.5803324;-0.7034348;-0.3462604;-0.2202216;0;0;0;-947;3961;353;0.5824151;2.812085;-0.1714081;0.5883609;3.353909;-0.1080578;0.5935898;3.830406;-0.05438207;0.5607773;4.533911;0.1516949;0.2872803;4.845235;0.2066866;-0.04655797;4.677185;0.2279097;-0.6513297;5.204783;-0.2349297;-0.5089611;6.109732;-0.4769954;0.807059;4.869482;0.2066865;1.102762;4.730797;0.2279098;1.875854;5.256861;-0.00417009;1.797562;6.157686;-0.2873151;0.2701735;2.771203;-0.1842951;0.2240662;1.309185;-0.219447;0;0;0;0.2701735;2.771203;-0.1842951;0.2240662;1.309185;-0.219447;0;0;0
626540.3088;NotLabelled;NONE;16384;0.7879621;0.4639889;0.2479224;0.3199446;-1;-4;2;2968;-2316;1471;65536;0.7809314;0.5734072;-0.1952908;0.1523546;-1;-1;0;-166;-3847;-1147;8192;0.773481;0.4626039;-0.3698061;-0.2257618;0;-1;1;-2858;-2193;1939;32768;0.8020886;0.5831025;0.1121884;-0.06371191;-1;0;0;-272;-3913;-1290;256;0.04155125;-0.0166205;-0.5969529;-0.8010271;0;1;0;-243;3894;-1171;128;0.05955679;-0.001385042;0.5609418;0.825709;1;0;0;-407;3821;1426;4;0.5326958;-0.5055401;0.4833795;0.4764543;0;0;0;91;4094;112;16;0.6398892;-0.7645618;0.05540166;-0.05401662;0;0;0;671;3960;682;2;0.5237857;-0.4875346;-0.4806094;-0.5069252;0;0;0;-319;4050;49;8;0.5803324;-0.7034348;-0.3462604;-0.2202216;0;0;0;-955;3995;345;0.5824151;2.812085;-0.1714081;0.5883609;3.353909;-0.1080578;0.5935898;3.830406;-0.05438207;0.5607773;4.533911;0.1516949;0.2872803;4.845235;0.2066866;-0.04655797;4.677185;0.2279097;-0.6519553;5.206109;-0.2325936;-0.5077505;6.11108;-0.4734872;0.807059;4.869482;0.2066865;1.102762;4.730797;0.2279098;1.875854;5.256861;-0.00417009;1.797562;6.157686;-0.2873151;0.2701735;2.771203;-0.1842951;0.2240662;1.309185;-0.219447;0;0;0;0.2701735;2.771203;-0.1842951;0.2240662;1.309185;-0.219447;0;0;0
626562.1515;NotLabelled;NONE;16384;0.7879621;0.4639889;0.2479224;0.3199446;-1;-1;1;3020;-2396;1537;65536;0.7809314;0.5734072;-0.1952908;0.1523546;-2;0;0;-232;-3839;-1079;8192;0.7728172;0.4626039;-0.3711911;-0.2257618;0;-1;0;-2854;-2141;1995;32768;0.8020886;0.5831025;0.1121884;-0.06371191;-1;0;-2;-338;-3927;-1288;256;0.04155125;-0.0166205;-0.5969529;-0.8010271;0;0;0;-227;3946;-1181;128;0.05955679;-0.001385042;0.5609418;0.825709;2;0;0;-385;3995;1524;4;0.5326958;-0.5055401;0.4833795;0.4764543;0;0;0;13;4050;146;16;0.6398892;-0.7645618;0.05540166;-0.05401662;0;0;0;665;3968;694;2;0.5237857;-0.4875346;-0.4806094;-0.5069252;0;0;0;-315;4126;-15;8;0.5803324;-0.7034348;-0.3462604;-0.2202216;0;0;0;-971;3993;323;0.5824003;2.812085;-0.1714298;0.5883461;3.353909;-0.1080795;0.5935751;3.830406;-0.0544038;0.5607029;4.533191;0.1541068;0.2871737;4.844287;0.2102173;-0.04663903;4.676121;0.2309134;-0.6501604;5.206241;-0.2306748;-0.5078111;6.11119;-0.4727521;0.8069492;4.868603;0.2102174;1.102674;4.729885;0.230914;1.875747;5.255948;-0.001227736;1.797286;6.155786;-0.287451;0.2701587;2.771203;-0.1843168;0.2240487;1.309184;-0.2194649;0;0;0;0.2701587;2.771203;-0.1843168;0.2240487;1.309184;-0.2194649;0;0;0
626583.0462;NotLabelled;NONE;16384;0.7879621;0.4639889;0.2479224;0.3199446;0;1;0;2906;-2420;1481;65536;0.7809314;0.5734072;-0.1952908;0.1523546;-3;2;-2;-106;-3911;-1135;8192;0.7728172;0.4626039;-0.3711911;-0.2257618;0;0;0;-2844;-2171;2007;32768;0.8020886;0.5831025;0.1121884;-0.06371191;-1;0;-2;-158;-3869;-1394;256;0.04155125;-0.0166205;-0.5969529;-0.8010271;-1;0;0;-251;3958;-1199;128;0.05955679;-0.001385042;0.5623268;0.8247663;1;0;0;-369;3879;1594;4;0.5326958;-0.5055401;0.4833795;0.4764543;0;0;0;47;4074;154;16;0.6398892;-0.7645618;0.05540166;-0.05401662;0;0;0;651;3978;674;2;0.5250533;-0.4875346;-0.4792244;-0.5069252;0;0;0;-239;4144;57;8;0.5803324;-0.7034348;-0.3462604;-0.2202216;0;0;0;-1031;3989;355;0.5824003;2.812085;-0.1714298;0.5883461;3.353909;-0.1080795;0.5935751;3.830406;-0.0544038;0.5607029;4.533191;0.1541068;0.2871737;4.844287;0.2102173;-0.04663903;4.676121;0.2309134;-0.6501604;5.206241;-0.2306748;-0.5078111;6.11119;-0.4727521;0.8069492;4.868603;0.2102174;1.102674;4.729885;0.230914;1.877185;5.254753;0.0008677244;1.798724;6.154591;-0.2853554;0.2701587;2.771203;-0.1843168;0.2240487;1.309184;-0.2194649;0;0;0;0.2701587;2.771203;-0.1843168;0.2240487;1.309184;-0.2194649;0;0;0
626604.1285;NotLabelled;NONE;16384;0.7883965;0.4639889;0.2465374;0.3199446;2;-2;2;2996;-2336;1427;65536;0.7805837;0.5734072;-0.1966759;0.1523546;-1;-2;0;-138;-4015;-1211;8192;0.7728172;0.4626039;-0.3711911;-0.2257618;0;0;1;-2852;-2203;2023;32768;0.8020886;0.5831025;0.1121884;-0.06371191;-3;-2;-1;34;-3837;-1310;256;0.04155125;-0.0166205;-0.5969529;-0.8010271;0;0;0;-215;3902;-1157;128;0.05955679;-0.001385042;0.5623268;0.8247663;0;0;0;-405;3883;1580;4;0.5326958;-0.5055401;0.4833795;0.4764543;0;0;0;25;4118;150;16;0.6398892;-0.7645618;0.05540166;-0.05401662;0;0;0;691;3968;680;2;0.5237638;-0.4889196;-0.4792244;-0.5069252;0;0;0;-259;4108;53;8;0.5803324;-0.7034348;-0.3462604;-0.2202216;0;0;0;-995;3981;299;0.5824005;2.812128;-0.171579;0.5883487;3.354162;-0.1100498;0.5935796;3.830837;-0.05797566;0.5607074;4.533621;0.1505348;0.2871782;4.844718;0.2066454;-0.04663452;4.676551;0.2273416;-0.6502454;5.206671;-0.2341298;-0.5078963;6.111619;-0.4762073;0.8069537;4.869033;0.2066454;1.102678;4.730315;0.227342;1.877144;5.255183;-0.002854735;1.798683;6.155021;-0.2890778;0.2701585;2.771203;-0.184317;0.2240486;1.309184;-0.219465;0;0;0;0.2701585;2.771203;-0.184317;0.2240486;1.309184;-0.219465;0;0;0
626625.0777;NotLabelled;NONE;16384;0.7883965;0.4639889;0.2465374;0.3199446;2;-2;2;3012;-2416;1503;65536;0.7815992;0.5720221;-0.1966759;0.1523546;-2;-2;-1;-126;-3961;-1239;8192;0.7728172;0.4626039;-0.3711911;-0.2257618;-1;-2;1;-2884;-2145;1987;32768;0.8032859;0.5817174;0.1108033;-0.06371191;0;-3;0;-20;-3849;-1360;256;0.04155125;-0.0166205;-0.5969529;-0.8010271;0;0;0;-145;3940;-1143;128;0.05955679;-0.001385042;0.5609418;0.825709;0;-1;0;-399;3879;1456;4;0.5313779;-0.5069252;0.4833795;0.4764543;0;0;0;25;4094;96;16;0.6398892;-0.7645618;0.05540166;-0.05401662;0;0;0;647;3988;722;2;0.5250533;-0.4875346;-0.4792244;-0.5069252;0;0;0;-285;4156;75;8;0.5803324;-0.7034348;-0.3462604;-0.2202216;0;0;0;-983;3989;285;0.5824005;2.812128;-0.171579;0.5883487;3.354162;-0.1100498;0.5935796;3.830837;-0.05797566;0.5607074;4.533621;0.1505348;0.2871782;4.844718;0.2066454;-0.04663452;4.676551;0.2273416;-0.6482402;5.207866;-0.2353728;-0.5040545;6.112837;-0.4762777;0.8069537;4.869033;0.2066454;1.102678;4.730315;0.227342;1.877189;5.255184;-0.002704412;1.798728;6.155021;-0.2889276;0.2701585;2.771203;-0.184317;0.2240486;1.309184;-0.219465;0;0;0;0.2701585;2.771203;-0.184317;0.2240486;1.309184;-0.219465;0;0;0
626646.0459;NotLabelled;NONE;16384;0.7883965;0.4639889;0.2465374;0.3199446;2;1;0;3066;-2464;1509;65536;0.7815992;0.5720221;-0.1966759;0.1523546;-2;-1;-1;-68;-3991;-1251;8192;0.7736446;0.4612188;-0.3711911;-0.2257618;0;3;-1;-2796;-2155;1993;32768;0.8029826;0.5817174;0.1121884;-0.06509695;2;2;-1;-186;-3889;-1340;256;0.04155125;-0.0166205;-0.5969529;-0.8010271;0;0;2;-265;3948;-1185;128;0.05817174;-0.001385042;0.5623268;0.8248652;0;0;0;-387;3875;1460;4;0.5326958;-0.5055401;0.4833795;0.4764543;0;-1;0;9;4112;146;16;0.6398892;-0.7645618;0.05540166;-0.05401662;0;0;0;607;3990;718;2;0.5250533;-0.4875346;-0.4792244;-0.5069252;0;0;0;-261;4166;39;8;0.5803324;-0.7034348;-0.3462604;-0.2202216;0;0;0;-981;3943;313;0.5789294;2.812289;-0.1758112;0.5848752;3.354113;-0.1124609;0.5901041;3.83061;-0.0587852;0.557232;4.533395;0.1497253;0.2837027;4.844491;0.2058359;-0.05010998;4.676325;0.226532;-0.6516255;5.20764;-0.2362992;-0.5064348;6.111662;-0.4801423;0.8034782;4.868807;0.2058359;1.099203;4.730089;0.2265326;1.873758;5.254957;-0.003363431;1.797257;6.153841;-0.2930897;0.2666878;2.771406;-0.1886982;0.2240487;1.309184;-0.219465;0;0;0;0.2666878;2.771406;-0.1886982;0.2240487;1.309184;-0.219465;0;0;0
626666.0454;NotLabelled;NONE;16384;0.7883965;0.4639889;0.2465374;0.3199446;2;1;1;2958;-2306;1461;65536;0.7815992;0.5720221;-0.1966759;0.1523546;-1;0;-1;-94;-3971;-1241;8192;0.7736446;0.4612188;-0.3711911;-0.2257618;0;5;0;-2928;-2199;2015;32768;0.8029826;0.5817174;0.1121884;-0.06509695;1;1;-1;28;-3925;-1302;256;0.04155125;-0.0166205;-0.5983379;-0.7999931;-1;0;0;-237;3930;-1193;128;0.05955679;-0.001385042;0.5623268;0.8247663;1;0;0;-421;3831;1526;4;0.5326958;-0.5055401;0.4833795;0.4764543;0;-1;0;31;4052;116;16;0.6398892;-0.7645618;0.05540166;-0.05401662;0;0;0;607;3968;714;2;0.5250533;-0.4875346;-0.4792244;-0.5069252;0;0;0;-355;4086;17;8;0.5803324;-0.7034348;-0.3462604;-0.2202216;0;0;0;-969;4011;331;0.5824338;2.812125;-0.1715187;0.5883816;3.354142;-0.1098453;0.5936125;3.830803;-0.05764425;0.5607032;4.533587;0.1508605;0.287164;4.844684;0.2069222;-0.04665233;4.676518;0.227559;-0.6480772;5.209262;-0.2337445;-0.5028426;6.113285;-0.4775615;0.8069395;4.868999;0.2070151;1.10266;4.730281;0.2277644;1.877433;5.25453;-0.002811432;1.800424;6.153542;-0.2920073;0.2701917;2.771204;-0.1842684;0.2240879;1.309185;-0.2194249;0;0;0;0.2701917;2.771204;-0.1842684;0.2240879;1.309185;-0.2194249;0;0;0
626688.0367;NotLabelled;NONE;16384;0.7896413;0.4626039;0.2451524;0.3199446;2;0;2;2998;-2284;1473;65536;0.7815992;0.5720221;-0.1966759;0.1523546;0;-2;0;-40;-3999;-1265;8192;0.7736446;0.4612188;-0.3711911;-0.2257618;1;0;0;-2950;-2181;1977;32768;0.8019773;0.5831025;0.1121884;-0.06509695;0;-1;0;62;-3883;-1282;256;0.04155125;-0.01523546;-0.5983379;-0.8000207;0;0;0;-211;3912;-1123;128;0.05955679;-0.001385042;0.5623268;0.8247663;0;0;0;-435;3833;1526;4;0.5326958;-0.5055401;0.4833795;0.4764543;0;0;0;45;4088;198;16;0.6398892;-0.7645618;0.05540166;-0.05401662;0;0;0;629;3964;650;2;0.5237638;-0.4889196;-0.4792244;-0.5069252;0;-1;0;-291;4114;69;8;0.5803324;-0.7034348;-0.3462604;-0.2202216;0;0;0;-941;4031;347;0.5824153;2.812128;-0.1715571;0.5883633;3.354162;-0.110028;0.5935943;3.830837;-0.05795379;0.5607817;4.53434;0.1481232;0.2872846;4.845665;0.203115;-0.0465536;4.677616;0.2243379;-0.6481291;5.20893;-0.2384155;-0.5029187;6.112952;-0.4822468;0.8070633;4.869912;0.2031147;1.102766;4.731227;0.2243381;1.877463;5.25476;-0.008111596;1.800425;6.153772;-0.2972999;0.2701733;2.771202;-0.1842951;0.2240662;1.309185;-0.219447;0;0;0;0.2701733;2.771202;-0.1842951;0.2240662;1.309185;-0.219447;0;0;0
626708.0542;NotLabelled;NONE;16384;0.7896413;0.4626039;0.2451524;0.3199446;2;0;0;3000;-2410;1487;65536;0.7819906;0.5706371;-0.1980609;0.1537396;0;-1;-1;-102;-3891;-1259;8192;0.7736446;0.4612188;-0.3711911;-0.2257618;0;-2;1;-2804;-2193;2063;32768;0.8019773;0.5831025;0.1121884;-0.06509695;0;-1;0;-178;-3921;-1326;256;0.04155125;-0.0166205;-0.5983379;-0.7999931;0;0;0;-213;3978;-1143;128;0.05955679;-0.001385042;0.5623268;0.8247663;0;0;0;-397;3869;1462;4;0.5326958;-0.5055401;0.4833795;0.4764543;0;-1;0;71;4092;158;16;0.6398892;-0.7645618;0.05540166;-0.05401662;0;0;0;655;3960;710;2;0.5251008;-0.4889196;-0.4792244;-0.5055401;0;-1;0;-265;4164;7;8;0.5803324;-0.7034348;-0.3462604;-0.2202216;0;0;0;-949;3977;309;0.5820062;2.812128;-0.1721573;0.5879543;3.354162;-0.1106281;0.5931852;3.830837;-0.05855392;0.559204;4.534281;0.147539;0.2851901;4.84515;0.202538;-0.04836833;4.676545;0.2237577;-0.6484178;5.207722;-0.2411292;-0.5037484;6.111745;-0.4852827;0.8049278;4.87026;0.2025378;1.10086;4.732066;0.2237576;1.875044;5.255599;-0.01039776;1.797522;6.155608;-0.2963378;0.2697642;2.771203;-0.1848954;0.223579;1.309185;-0.2199441;0;0;0;0.2697642;2.771203;-0.1848954;0.223579;1.309185;-0.2199441;0;0;0
626730.0758;NotLabelled;NONE;16384;0.7896413;0.4626039;0.2451524;0.3199446;1;3;0;2892;-2330;1575;65536;0.7822616;0.5706371;-0.1980609;0.1523546;0;2;-1;-104;-3885;-1235;8192;0.7736446;0.4612188;-0.3711911;-0.2257618;-1;-1;1;-2808;-2143;2101;32768;0.8029826;0.5817174;0.1121884;-0.06509695;-1;-1;-1;-228;-3839;-1298;256;0.04155125;-0.01523546;-0.5983379;-0.8000207;-1;1;1;-217;3948;-1159;128;0.05955679;-0.001385042;0.5623268;0.8247663;1;0;-1;-397;3859;1498;4;0.5326958;-0.5055401;0.4833795;0.4764543;0;-2;0;89;4116;122;16;0.6398892;-0.7645618;0.05540166;-0.05401662;0;0;0;683;3978;692;2;0.5263614;-0.4889196;-0.4778393;-0.5055401;0;0;0;-193;4146;27;8;0.5803324;-0.7034348;-0.3462604;-0.2202216;0;0;0;-973;3989;337;0.5824153;2.812128;-0.1715571;0.5883633;3.354162;-0.110028;0.5935943;3.830837;-0.05795379;0.5607817;4.53434;0.1481232;0.2872846;4.845665;0.203115;-0.0465536;4.677616;0.2243379;-0.6455702;5.208794;-0.2418782;-0.4991124;6.112108;-0.4875829;0.8070633;4.869912;0.2031147;1.102766;4.731227;0.2243381;1.877467;5.25476;-0.008098871;1.800578;6.154769;-0.2942096;0.2701733;2.771202;-0.1842951;0.2240662;1.309185;-0.219447;0;0;0;0.2701733;2.771202;-0.1842951;0.2240662;1.309185;-0.219447;0;0;0
626751.0484;NotLabelled;NONE;16384;0.7902011;0.4626039;0.2451524;0.3185596;0;0;0;2860;-2288;1483;65536;0.7822616;0.5706371;-0.1980609;0.1523546;-1;0;-1;-138;-3901;-1225;8192;0.7729785;0.4612188;-0.3725762;-0.2257618;-1;1;0;-2922;-2199;2013;32768;0.8031749;0.5817174;0.1108033;-0.06509695;0;0;-1;-18;-3913;-1292;256;0.04155125;-0.01523546;-0.5983379;-0.8000207;-2;2;0;-147;3886;-1101;128;0.05955679;-0.001385042;0.5623268;0.8247663;0;0;0;-415;3821;1464;4;0.5326958;-0.5055401;0.4833795;0.4764543;0;0;0;151;4104;160;16;0.6398892;-0.7645618;0.05540166;-0.05401662;0;0;0;629;3968;662;2;0.5263614;-0.4889196;-0.4778393;-0.5055401;0;0;0;-247;4084;33;8;0.5803324;-0.7034348;-0.3462604;-0.2202216;0;0;0;-945;4007;361;0.5820062;2.812128;-0.1721573;0.5879543;3.354162;-0.1106281;0.5931852;3.830837;-0.05855392;0.559204;4.534281;0.147539;0.2851901;4.84515;0.202538;-0.04836833;4.676545;0.2237577;-0.6484177;5.207722;-0.2411294;-0.5009101;6.11081;-0.4870403;0.8049278;4.87026;0.2025378;1.10086;4.732066;0.2237576;1.875044;5.255599;-0.01039824;1.797365;6.154611;-0.2994156;0.2697642;2.771203;-0.1848954;0.223579;1.309185;-0.2199441;0;0;0;0.2697642;2.771203;-0.1848954;0.223579;1.309185;-0.2199441;0;0;0
626771.0507;NotLabelled;NONE;16384;0.7902011;0.4626039;0.2451524;0.3185596;0;0;0;2950;-2324;1495;65536;0.7822616;0.5706371;-0.1980609;0.1523546;-1;1;-1;-134;-3859;-1215;8192;0.7729785;0.4612188;-0.3725762;-0.2257618;-1;-1;2;-2952;-2293;1983;32768;0.8031749;0.5817174;0.1108033;-0.06509695;0;-2;0;-72;-3887;-1354;256;0.04155125;-0.01523546;-0.5983379;-0.8000207;-1;2;0;-167;3970;-1111;128;0.05955679;-0.001385042;0.5623268;0.8247663;0;0;0;-427;3815;1500;4;0.5326958;-0.5055401;0.4833795;0.4764543;0;0;0;97;4070;108;16;0.6398892;-0.7645618;0.05540166;-0.05401662;0;0;0;659;3956;706;2;0.5251008;-0.4889196;-0.4792244;-0.5055401;-1;1;0;-293;4124;49;8;0.5803324;-0.7027513;-0.3476454;-0.2202216;0;0;0;-959;3989;299;0.5820062;2.812128;-0.1721573;0.5879543;3.354162;-0.1106281;0.5931852;3.830837;-0.05855392;0.559204;4.534281;0.147539;0.2851901;4.84515;0.202538;-0.04836833;4.676545;0.2237577;-0.6474888;5.208831;-0.2410594;-0.4999812;6.111917;-0.4869702;0.8049278;4.87026;0.2025378;1.10086;4.732066;0.2237576;1.876482;5.254403;-0.008298486;1.800908;6.153456;-0.2977461;0.2697642;2.771203;-0.1848954;0.223579;1.309185;-0.2199441;0;0;0;0.2697642;2.771203;-0.1848954;0.223579;1.309185;-0.2199441;0;0;0
626792.0409;NotLabelled;NONE;16384;0.7902011;0.4626039;0.2451524;0.3185596;1;1;0;2984;-2410;1513;65536;0.7822616;0.5706371;-0.1980609;0.1523546;-1;0;-1;18;-3899;-1295;8192;0.7723094;0.4612188;-0.3739612;-0.2257618;-1;-3;2;-2920;-2153;2077;32768;0.8031749;0.5817174;0.1108033;-0.06509695;0;-2;-1;-202;-3925;-1306;256;0.0401662;-0.01523546;-0.5983379;-0.8000914;-2;1;0;-231;4022;-1175;128;0.05955679;-0.001385042;0.5623268;0.8247663;1;1;0;-423;3933;1502;4;0.5326958;-0.5055401;0.4833795;0.4764543;0;0;0;117;4072;176;16;0.6398892;-0.7645618;0.05540166;-0.05401662;0;0;0;683;3986;702;2;0.5251008;-0.4889196;-0.4792244;-0.5055401;-1;3;0;-331;4108;65;8;0.5803324;-0.7027513;-0.3476454;-0.2202216;0;0;0;-959;3959;359;0.5820062;2.812128;-0.1721573;0.5879543;3.354162;-0.1106281;0.5931852;3.830837;-0.05855392;0.559204;4.534281;0.147539;0.2851901;4.84515;0.202538;-0.04836833;4.676545;0.2237577;-0.6474888;5.208831;-0.2410594;-0.4999812;6.111917;-0.4869702;0.8049278;4.87026;0.2025378;1.10086;4.732066;0.2237576;1.876482;5.254403;-0.008298486;1.800908;6.153456;-0.2977461;0.2697642;2.771203;-0.1848954;0.223579;1.309185;-0.2199441;0;0;0;0.2697642;2.771203;-0.1848954;0.223579;1.309185;-0.2199441;0;0;0
626833.8666;NotLabelled;NONE;16384;0.7902011;0.4626039;0.2451524;0.3185596;0;2;0;3092;-2428;1535;65536;0.7825301;0.5706371;-0.1980609;0.1509695;-2;1;0;-6;-3959;-1269;8192;0.7720411;0.4612188;-0.3753462;-0.2243767;-4;1;-1;-2708;-1999;2121;32768;0.8033647;0.5817174;0.1094183;-0.06509695;-1;-3;-2;80;-3883;-1446;256;0.0401662;-0.01523546;-0.599723;-0.7990538;-2;1;2;-235;3930;-1069;128;0.05955679;0;0.5623268;0.8247675;0;-2;-2;-363;3853;1522;4;0.5326958;-0.5055401;0.4833795;0.4764543;0;1;0;15;4062;188;16;0.6398892;-0.7644601;0.0567867;-0.05401662;0;1;0;607;3968;700;2;0.5250533;-0.4875346;-0.4792244;-0.5069252;-2;5;0;-249;4124;-17;8;0.5803324;-0.7027513;-0.3476454;-0.2202216;0;0;0;-941;3965;325;0.5816969;2.812128;-0.172606;0.5876451;3.354162;-0.1110768;0.5928759;3.830837;-0.05900264;0.5604533;4.534312;0.1472353;0.2871284;4.845775;0.202301;-0.04680219;4.677904;0.2234892;-0.6466973;5.210191;-0.2403273;-0.4996007;6.113278;-0.4864834;0.8069205;4.869735;0.2023009;1.102547;4.730883;0.2234893;1.879216;5.252021;-0.007756919;1.803159;6.151074;-0.2970775;0.2694549;2.771203;-0.1853441;0.2232114;1.309185;-0.2203164;0;0;0;0.2694549;2.771203;-0.1853441;0.2232114;1.309185;-0.2203164;0;0;0
626855.0388;NotLabelled;NONE;16384;0.7902011;0.4626039;0.2451524;0.3185596;-1;3;0;3002;-2456;1489;65536;0.7825301;0.5706371;-0.1980609;0.1509695;-3;1;0;60;-3981;-1287;8192;0.771212;0.4626039;-0.3753462;-0.2243767;-5;-1;1;-2898;-2259;1965;32768;0.8046638;0.5803324;0.1080332;-0.06371191;3;-5;1;-148;-3823;-1450;256;0.0401662;-0.01523546;-0.599723;-0.7990538;-1;0;1;-213;4060;-1167;128;0.05955679;0;0.5623268;0.8247675;1;0;-1;-403;3987;1494;4;0.5326958;-0.5055401;0.4833795;0.4764543;0;-2;0;39;4058;142;16;0.6398892;-0.7645568;0.0567867;-0.05263158;0;0;0;689;3960;644;2;0.5250714;-0.4861496;-0.4806094;-0.5069252;-2;4;0;-237;4030;21;8;0.5803324;-0.7027513;-0.3476454;-0.2202216;0;-1;0;-951;4031;373;0.5840765;2.811751;-0.1724117;0.5900245;3.353781;-0.1108505;0.5952554;3.830453;-0.05874817;0.5628894;4.534641;0.1450506;0.2895952;4.846327;0.1989961;-0.04435974;4.678573;0.2207125;-0.6441843;5.210831;-0.2432274;-0.4954743;6.113688;-0.4892569;0.8093903;4.870222;0.1989944;1.104996;4.731405;0.2207091;1.882201;5.252688;-0.008402079;1.808271;6.151778;-0.298155;0.2718345;2.770826;-0.1851524;0.2255936;1.308808;-0.2201276;0;0;0;0.2718345;2.770826;-0.1851524;0.2255936;1.308808;-0.2201276;0;0;0
626896.0413;NotLabelled;NONE;16384;0.7902011;0.4626039;0.2451524;0.3185596;0;3;1;2884;-2394;1509;65536;0.7825301;0.5706371;-0.1980609;0.1509695;-1;1;0;-70;-3863;-1237;8192;0.771212;0.4626039;-0.3753462;-0.2243767;-4;-1;1;-2762;-2215;1935;32768;0.8036631;0.5817174;0.1080332;-0.06371191;5;-1;2;-64;-3795;-1326;256;0.0401662;-0.01523546;-0.601108;-0.7980124;-3;0;1;-165;3994;-1147;128;0.05955679;0;0.5637119;0.8238215;0;0;-1;-451;3931;1522;4;0.5326958;-0.5055401;0.4833795;0.4764543;0;-4;1;79;4136;168;16;0.6398892;-0.7645568;0.0567867;-0.05263158;0;0;0;665;3964;658;2;0.5250714;-0.4861496;-0.4806094;-0.5069252;0;-2;0;-343;4132;71;8;0.5803324;-0.7027513;-0.3476454;-0.2202216;0;0;0;-959;3957;403;0.5812761;2.812129;-0.1730137;0.5872242;3.354159;-0.1114525;0.5924551;3.830831;-0.05935022;0.5600885;4.535019;0.1444484;0.2867941;4.846705;0.198393;-0.04716089;4.678951;0.2201084;-0.6470192;5.211236;-0.2437563;-0.4983083;6.114095;-0.4897855;0.8065892;4.8706;0.198393;1.102195;4.731784;0.2201087;1.879209;5.25441;-0.006575644;1.805691;6.152367;-0.2999291;0.2690341;2.771204;-0.1857543;0.2227934;1.309186;-0.2207296;0;0;0;0.2690341;2.771204;-0.1857543;0.2227934;1.309186;-0.2207296;0;0;0
626917.0355;NotLabelled;NONE;16384;0.7911862;0.4626039;0.2437673;0.3171745;1;0;0;2924;-2466;1483;65536;0.7835382;0.5692521;-0.1980609;0.1509695;0;-1;-3;-160;-3891;-1285;8192;0.7703795;0.4639889;-0.3753462;-0.2243767;-3;4;1;-2898;-2161;1955;32768;0.8026588;0.5831025;0.1080332;-0.06371191;4;-1;0;-168;-3921;-1182;256;0.03878116;-0.0166205;-0.601108;-0.7980532;-1;0;1;-167;3858;-1095;128;0.05955679;0;0.5637119;0.8238215;0;0;-1;-391;3731;1456;4;0.5315078;-0.5041551;0.4847645;0.4778393;0;-1;0;53;4090;146;16;0.6398892;-0.7645568;0.0567867;-0.05263158;0;-2;0;691;3938;684;2;0.5263869;-0.4875346;-0.4792244;-0.5055401;0;-3;0;-191;4114;41;8;0.5803324;-0.7027513;-0.3476454;-0.2202216;0;0;0;-969;3935;313;0.5813267;2.812171;-0.173089;0.5872771;3.354405;-0.113352;0.5925099;3.83125;-0.06285383;0.5601611;4.536144;0.1384943;0.2868876;4.848049;0.1912638;-0.0470963;4.680413;0.2134429;-0.646687;5.214257;-0.2489744;-0.4979099;6.117115;-0.4949628;0.8066854;4.871878;0.1913631;1.102266;4.733102;0.2136627;1.879411;5.256486;-0.01081252;1.80612;6.155452;-0.3011163;0.2690843;2.771204;-0.1856803;0.2228531;1.309186;-0.2206688;0;0;0;0.2690843;2.771204;-0.1856803;0.2228531;1.309186;-0.2206688;0;0;0
626958.0412;NotLabelled;NONE;16384;0.7911862;0.4626039;0.2437673;0.3171745;2;-1;1;2884;-2320;1515;65536;0.7835382;0.5692521;-0.1980609;0.1509695;0;-1;-3;-74;-3885;-1245;8192;0.7703795;0.4639889;-0.3753462;-0.2243767;-2;2;1;-2986;-2153;1971;32768;0.8026588;0.5831025;0.1080332;-0.06371191;3;-1;-1;-256;-3951;-1096;256;0.03878116;-0.0166205;-0.601108;-0.7980532;0;1;0;-133;3912;-1153;128;0.05955679;0;0.5637119;0.8238215;0;0;0;-415;3871;1498;4;0.5315078;-0.5041551;0.4847645;0.4778393;0;-1;0;183;4090;100;16;0.6398892;-0.7645568;0.0567867;-0.05263158;0;0;0;665;4014;678;2;0.5263869;-0.4875346;-0.4792244;-0.5055401;0;-2;0;-231;4108;39;8;0.5803324;-0.7027513;-0.3476454;-0.2202216;0;0;0;-921;4001;349;0.5817395;2.812156;-0.1728014;0.5876898;3.35439;-0.1130644;0.5929225;3.831234;-0.06256625;0.5633463;4.536212;0.1389144;0.2912942;4.849164;0.1917941;-0.04333249;4.68282;0.2140097;-0.6400512;5.217393;-0.2512721;-0.4901974;6.119284;-0.5001358;0.8111807;4.870979;0.1917941;1.106225;4.731053;0.2140101;1.883201;5.255002;-0.009735197;1.810159;6.154967;-0.2969882;0.269497;2.771189;-0.1853929;0.2229294;1.309186;-0.2205918;0;0;0;0.269497;2.771189;-0.1853929;0.2229294;1.309186;-0.2205918;0;0;0
626979.048;NotLabelled;NONE;16384;0.7911862;0.4626039;0.2437673;0.3171745;0;-2;2;2938;-2350;1535;65536;0.7831868;0.5692521;-0.199446;0.1509695;0;-1;-1;-112;-3921;-1285;8192;0.7697031;0.4639889;-0.3767313;-0.2243767;-2;1;0;-2890;-2071;1931;32768;0.8016508;0.5844875;0.1080332;-0.06371191;0;-2;-2;-4;-3785;-1116;256;0.03878116;-0.0166205;-0.601108;-0.7980532;-1;1;0;-71;3886;-1127;128;0.05955679;0;0.5623268;0.8247675;0;-1;0;-431;3831;1442;4;0.5315078;-0.5041551;0.4847645;0.4778393;0;-1;0;151;4032;108;16;0.6398892;-0.7645568;0.0567867;-0.05263158;0;0;0;743;3956;744;2;0.5263869;-0.4875346;-0.4792244;-0.5055401;0;-1;0;-239;4082;117;8;0.5803324;-0.7027513;-0.3476454;-0.2202216;0;0;0;-1005;4003;309;0.5817395;2.812156;-0.1728014;0.5876898;3.35439;-0.1130644;0.5929225;3.831234;-0.06256625;0.5633463;4.536212;0.1389144;0.2912942;4.849164;0.1917941;-0.04333249;4.68282;0.2140097;-0.6400512;5.217393;-0.2512721;-0.4901974;6.119284;-0.5001358;0.8111807;4.870979;0.1917941;1.106225;4.731053;0.2140101;1.883201;5.255002;-0.009735197;1.810159;6.154967;-0.2969882;0.269497;2.771189;-0.1853929;0.2229294;1.309186;-0.2205918;0;0;0;0.269497;2.771189;-0.1853929;0.2229294;1.309186;-0.2205918;0;0;0
