SEP=;
index;label;RightUpperArm_boneIndex;RightUpperArm_quat9x_w;RightUpperArm_quat9x_x;RightUpperArm_quat9x_y;RightUpperArm_quat9x_z;RightUpperArm_gyroscope_x;RightUpperArm_gyroscope_y;RightUpperArm_gyroscope_z;RightUpperArm_accelerometer_x;RightUpperArm_accelerometer_y;RightUpperArm_accelerometer_z;RightLowerArm_boneIndex;RightLowerArm_quat9x_w;RightLowerArm_quat9x_x;RightLowerArm_quat9x_y;RightLowerArm_quat9x_z;RightLowerArm_gyroscope_x;RightLowerArm_gyroscope_y;RightLowerArm_gyroscope_z;RightLowerArm_accelerometer_x;RightLowerArm_accelerometer_y;RightLowerArm_accelerometer_z;LeftUpperArm_boneIndex;LeftUpperArm_quat9x_w;LeftUpperArm_quat9x_x;LeftUpperArm_quat9x_y;LeftUpperArm_quat9x_z;LeftUpperArm_gyroscope_x;LeftUpperArm_gyroscope_y;LeftUpperArm_gyroscope_z;LeftUpperArm_accelerometer_x;LeftUpperArm_accelerometer_y;LeftUpperArm_accelerometer_z;LeftLowerArm_boneIndex;LeftLowerArm_quat9x_w;LeftLowerArm_quat9x_x;LeftLowerArm_quat9x_y;LeftLowerArm_quat9x_z;LeftLowerArm_gyroscope_x;LeftLowerArm_gyroscope_y;LeftLowerArm_gyroscope_z;LeftLowerArm_accelerometer_x;LeftLowerArm_accelerometer_y;LeftLowerArm_accelerometer_z;Chest_boneIndex;Chest_quat9x_w;Chest_quat9x_x;Chest_quat9x_y;Chest_quat9x_z;Chest_gyroscope_x;Chest_gyroscope_y;Chest_gyroscope_z;Chest_accelerometer_x;Chest_accelerometer_y;Chest_accelerometer_z;Spine_boneIndex;Spine_quat9x_w;Spine_quat9x_x;Spine_quat9x_y;Spine_quat9x_z;Spine_gyroscope_x;Spine_gyroscope_y;Spine_gyroscope_z;Spine_accelerometer_x;Spine_accelerometer_y;Spine_accelerometer_z;RightUpperLeg_boneIndex;RightUpperLeg_quat9x_w;RightUpperLeg_quat9x_x;RightUpperLeg_quat9x_y;RightUpperLeg_quat9x_z;RightUpperLeg_gyroscope_x;RightUpperLeg_gyroscope_y;RightUpperLeg_gyroscope_z;RightUpperLeg_accelerometer_x;RightUpperLeg_accelerometer_y;RightUpperLeg_accelerometer_z;RightLowerLeg_boneIndex;RightLowerLeg_quat9x_w;RightLowerLeg_quat9x_x;RightLowerLeg_quat9x_y;RightLowerLeg_quat9x_z;RightLowerLeg_gyroscope_x;RightLowerLeg_gyroscope_y;RightLowerLeg_gyroscope_z;RightLowerLeg_accelerometer_x;RightLowerLeg_accelerometer_y;RightLowerLeg_accelerometer_z;LeftUpperLeg_boneIndex;LeftUpperLeg_quat9x_w;LeftUpperLeg_quat9x_x;LeftUpperLeg_quat9x_y;LeftUpperLeg_quat9x_z;LeftUpperLeg_gyroscope_x;LeftUpperLeg_gyroscope_y;LeftUpperLeg_gyroscope_z;LeftUpperLeg_accelerometer_x;LeftUpperLeg_accelerometer_y;LeftUpperLeg_accelerometer_z;LeftLowerLeg_boneIndex;LeftLowerLeg_quat9x_w;LeftLowerLeg_quat9x_x;LeftLowerLeg_quat9x_y;LeftLowerLeg_quat9x_z;LeftLowerLeg_gyroscope_x;LeftLowerLeg_gyroscope_y;LeftLowerLeg_gyroscope_z;LeftLowerLeg_accelerometer_x;LeftLowerLeg_accelerometer_y;LeftLowerLeg_accelerometer_z;pelvis_x;pelvis_y;pelvis_z;lowerSpine_x;lowerSpine_y;lowerSpine_z;middleSpine_x;middleSpine_y;middleSpine_z;upperSpine_x;upperSpine_y;upperSpine_z;rightClavicle_x;rightClavicle_y;rightClavicle_z;rightShoulder_x;rightShoulder_y;rightShoulder_z;rightElbow_x;rightElbow_y;rightElbow_z;rightWrist_x;rightWrist_y;rightWrist_z;leftClavicle_x;leftClavicle_y;leftClavicle_z;leftShoulder_x;leftShoulder_y;leftShoulder_z;leftElbow_x;leftElbow_y;leftElbow_z;leftWrist_x;leftWrist_y;leftWrist_z;rightHip_x;rightHip_y;rightHip_z;rightKnee_x;rightKnee_y;rightKnee_z;rightAnkle_x;rightAnkle_y;rightAnkle_z;leftHip_x;leftHip_y;leftHip_z;leftKnee_x;leftKnee_y;leftKnee_z;leftAnkle_x;leftAnkle_y;leftAnkle_z;
949266.73;NotLabelled;16384;0.8122262;0.333795;0.3808864;0.2894737;29;6;-35;2982;-1556;2366;65536;-0.5096953;-0.5083103;0.603983;0.3421052;6;-46;24;3532;-262;-1163;8192;0.5858725;-0.7445484;-0.3074792;-0.08864266;-5;-16;0;1459;3741;-555;32768;0.4958449;-0.7679428;0.4016621;-0.05540166;-4;-36;-3;2906;2890;985;256;0.1980609;-0.2354571;-0.6468144;-0.6978273;11;5;0;-46;4014;-354;128;-0.1537396;0.2368421;0.6315789;0.7220652;-4;-1;-1;-238;3986;476;4;-0.5872576;0.1412742;-0.4459834;-0.6605065;0;-1;-1;2516;3088;410;16;0.7646433;-0.6315789;-0.01385042;-0.1274238;3;-2;0;723;4123;-680;2;0.5277008;-0.6911427;-0.3240997;-0.3725762;1;-1;1;126;3934;-970;8;0.3961219;-0.8168975;0.301939;0.2908587;0;0;-1;1063;3441;2023;0.2236179;2.450467;1.291396;0.2295712;2.992972;1.23416;0.2348017;3.46962;1.181839;0.2549605;4.200781;1.240652;0.005407572;4.535938;1.228778;-0.3397596;4.400566;1.280481;-0.6783667;4.722592;0.4804974;-0.079382;4.80827;1.209657;0.5255542;4.521601;1.228778;0.8103728;4.368861;1.28048;0.8144892;3.477204;1.645453;0.1645499;2.797565;1.761458;-0.0886429;2.407837;1.288557;-0.006996199;1.305026;0.3304332;0;0;0;-0.0886429;2.407837;1.288557;-0.006996199;1.305026;0.3304332;0;0;0
949287.5187;NotLabelled;16384;0.8116273;0.3296399;0.3836565;0.2922437;27;-1;-32;3108;-1228;2466;65536;-0.5124654;-0.5055401;0.6078345;0.33518;10;-42;21;3850;-568;-1161;8192;0.5872576;-0.7456439;-0.3033241;-0.08448754;-6;-16;3;1435;3853;-431;32768;0.4944598;-0.7655585;0.4085872;-0.04986149;-6;-30;0;2856;2974;853;256;0.1980609;-0.2354571;-0.6468144;-0.6978273;7;1;3;96;4078;-382;128;-0.1537396;0.2368421;0.6315789;0.7220652;-4;-3;-2;-294;4014;546;4;-0.5872576;0.1412742;-0.4459834;-0.6605065;0;-2;0;2454;3072;336;16;0.7646433;-0.6315789;-0.01385042;-0.1274238;2;-2;1;775;4087;-660;2;0.5277008;-0.6911427;-0.3240997;-0.3725762;0;-1;0;182;3938;-952;8;0.3961219;-0.8168975;0.301939;0.2908587;0;0;0;1079;3389;2063;0.2246642;2.452453;1.289306;0.2306196;2.995157;1.234006;0.2358522;3.471989;1.183384;0.2564491;4.202853;1.24564;0.00710237;4.538215;1.235311;-0.3381543;4.402812;1.286331;-0.6839932;4.700386;0.4799973;-0.0801394;4.79981;1.203373;0.5272399;4.52356;1.235311;0.8119586;4.370405;1.286331;0.8193827;3.478208;1.64993;0.1695952;2.798755;1.767855;-0.08759642;2.409832;1.286303;-0.006367385;1.305026;0.3304455;0;0;0;-0.08759642;2.409832;1.286303;-0.006367385;1.305026;0.3304455;0;0;0
949308.517;NotLabelled;16384;0.8110374;0.3240997;0.3864266;0.2963989;25;-3;-26;3378;-1088;2678;65536;-0.5166205;-0.5041551;0.6084969;0.3296399;9;-32;22;4096;-930;-1199;8192;0.5872576;-0.7463614;-0.301939;-0.08310249;-5;-18;4;1513;3877;-531;32768;0.4944598;-0.7635022;0.4127424;-0.04709141;-7;-18;4;3058;3000;663;256;0.1966759;-0.2354571;-0.6454294;-0.6994995;0;0;4;114;4192;-564;128;-0.1537396;0.2368421;0.6315789;0.7220652;-2;-5;-2;-316;4018;510;4;-0.5872576;0.1412742;-0.4473684;-0.6595692;0;-4;0;2448;3052;378;16;0.7646433;-0.6315789;-0.01385042;-0.1274238;2;-3;0;823;4111;-700;2;0.5277008;-0.6911427;-0.3240997;-0.3725762;0;0;0;170;3858;-926;8;0.3961219;-0.8168975;0.301939;0.2908587;0;-2;-1;1101;3357;2155;0.2246642;2.452453;1.289306;0.2306196;2.995157;1.234006;0.2358522;3.471989;1.183384;0.2564491;4.202853;1.24564;0.00710237;4.538215;1.235311;-0.3381543;4.402812;1.286331;-0.6858989;4.69031;0.4771662;-0.08533794;4.795192;1.20251;0.5272399;4.52356;1.235311;0.8119586;4.370405;1.286331;0.8219752;3.478125;1.649665;0.1723348;2.799358;1.772263;-0.08759642;2.409832;1.286303;-0.006367385;1.305026;0.3304455;0;0;0;-0.08759642;2.409832;1.286303;-0.006367385;1.305026;0.3304455;0;0;0
949328.5334;NotLabelled;16384;0.8109711;0.3213296;0.3878116;0.2977839;18;2;-17;3570;-1136;2824;65536;-0.5193906;-0.5041551;0.6091145;0.3240997;7;-24;19;4122;-1154;-1357;8192;0.5886427;-0.7461326;-0.300554;-0.08033241;-4;-17;4;1529;3887;-689;32768;0.4930748;-0.7636479;0.4141274;-0.04709141;-6;-10;5;3066;2964;529;256;0.1952908;-0.2354571;-0.6468144;-0.6986076;-1;0;4;170;4112;-500;128;-0.1551246;0.2382271;0.6315789;0.7213128;0;-7;0;-302;4044;496;4;-0.5858725;0.1412742;-0.4473684;-0.6607999;0;-6;0;2484;3118;356;16;0.7648967;-0.6315789;-0.01246537;-0.1260388;2;-5;0;851;4107;-648;2;0.5277008;-0.6911427;-0.3240997;-0.3725762;0;-1;1;98;3876;-932;8;0.3961219;-0.8168975;0.301939;0.2908587;0;-4;0;1023;3435;2053;0.2314654;2.453902;1.288145;0.2374209;2.996607;1.232844;0.2426535;3.473439;1.182223;0.2636974;4.20399;1.24791;0.01456088;4.539552;1.239123;-0.3307869;4.404126;1.289461;-0.6810834;4.67846;0.4768342;-0.07909119;4.791934;1.199694;0.5346894;4.524572;1.239122;0.8193054;4.371002;1.28946;0.8300103;3.478949;1.653328;0.1805578;2.800334;1.777752;-0.08079529;2.411282;1.285142;-0.005740181;1.305026;0.3304575;0;0;0;-0.08079529;2.411282;1.285142;-0.005740181;1.305026;0.3304575;0;0;0
949348.5587;NotLabelled;16384;0.8108907;0.3185596;0.3891967;0.299169;13;6;-12;3512;-1062;2944;65536;-0.5221606;-0.5041551;0.6089428;0.3199446;5;-19;13;4110;-1108;-1371;8192;0.5872576;-0.7479263;-0.299169;-0.07894737;0;-12;3;1599;3841;-921;32768;0.4916897;-0.7637886;0.4155124;-0.04709141;-6;-3;2;2860;2698;569;256;0.1952908;-0.2354571;-0.6468144;-0.6986076;-2;4;1;222;4022;-428;128;-0.1565097;0.2396122;0.6315789;0.7205545;4;-4;0;-378;4022;680;4;-0.5844875;0.1398892;-0.4473684;-0.6623193;-3;-8;0;2556;3088;348;16;0.7662861;-0.6301939;-0.01108033;-0.1246537;3;-8;0;827;4145;-638;2;0.5277008;-0.6911427;-0.3240997;-0.3725762;1;-4;0;118;3950;-818;8;0.3961219;-0.8158894;0.3033241;0.2922437;-1;-4;0;1023;3483;2039;0.2324714;2.454853;1.287275;0.2384264;2.997509;1.231503;0.2436585;3.474297;1.180468;0.266855;4.204944;1.24433;0.01870531;4.541214;1.234723;-0.3270352;4.40693;1.285423;-0.6792463;4.675306;0.4716352;-0.07785976;4.797433;1.193588;0.5387874;4.524705;1.234722;0.8229549;4.370427;1.285423;0.8383553;3.478461;1.64934;0.1874607;2.801837;1.777032;-0.07978928;2.41223;1.284312;-0.004743829;1.304935;0.3308318;0;0;0;-0.07978928;2.41223;1.284312;-0.004743829;1.304935;0.3308318;0;0;0
949368.7388;NotLabelled;16384;0.8118459;0.3144044;0.3905817;0.299169;5;2;-5;3242;-1060;2770;65536;-0.5249307;-0.5027701;0.6105898;0.3144044;1;-10;4;3972;-974;-1497;8192;0.5872576;-0.7480712;-0.299169;-0.07756232;4;-5;2;1629;3795;-1039;32768;0.4916897;-0.7637886;0.4155124;-0.04709141;-3;5;-1;2700;2760;555;256;0.1939058;-0.2354571;-0.6468144;-0.6989933;0;9;1;280;3978;-438;128;-0.1565097;0.2396122;0.6315789;0.7205545;4;-3;0;-424;4024;580;4;-0.5844875;0.1385041;-0.4473684;-0.6626104;-3;-8;-1;2632;3004;354;16;0.7662861;-0.6301939;-0.01108033;-0.1246537;3;-10;0;757;4047;-628;2;0.5277008;-0.6918875;-0.3240997;-0.3711911;0;-4;0;166;3992;-906;8;0.3961219;-0.8158894;0.3033241;0.2922437;-1;-4;0;1035;3469;2049;0.2292097;2.452897;1.292196;0.2351641;2.995504;1.235948;0.2403958;3.472247;1.184495;0.2635921;4.202895;1.248357;0.01544249;4.539164;1.23875;-0.3302979;4.40488;1.28945;-0.6828251;4.667282;0.4738529;-0.08197415;4.796956;1.194935;0.5355246;4.522655;1.238749;0.819692;4.368376;1.28945;0.8325003;3.477405;1.655893;0.1799263;2.802778;1.78556;-0.08305085;2.410271;1.289273;-0.007540241;1.303928;0.3347242;0;0;0;-0.08305085;2.410271;1.289273;-0.007540241;1.303928;0.3347242;0;0;0
949389.7286;NotLabelled;16384;0.8112017;0.3130194;0.3919668;0.300554;3;0;-4;3146;-1112;2768;65536;-0.5263157;-0.5027701;0.6101089;0.3130194;1;-4;3;3944;-788;-1475;8192;0.5831025;-0.7513145;-0.299169;-0.07756232;10;6;2;1531;3707;-705;32768;0.4916897;-0.765948;0.4113573;-0.04847645;0;23;-2;2982;2704;725;256;0.1911357;-0.234072;-0.6468144;-0.7002203;3;14;1;256;4042;-376;128;-0.1578947;0.2396122;0.6315789;0.7202523;3;-3;0;-358;4064;606;4;-0.5831025;0.1385041;-0.4487534;-0.662894;-3;-5;-2;2740;3018;336;16;0.7665288;-0.6301939;-0.009695291;-0.1232687;3;-11;0;671;4085;-668;2;0.5277008;-0.6925346;-0.3227147;-0.3711911;0;-4;0;210;3888;-1004;8;0.3947368;-0.8160446;0.3047091;0.2922437;-2;-5;0;1119;3527;2021;0.2331443;2.450909;1.294762;0.2390987;2.993517;1.238514;0.2443303;3.470259;1.187061;0.2688297;4.200794;1.251718;0.02128148;4.537518;1.242468;-0.3247001;4.403796;1.293011;-0.677539;4.659739;0.4754981;-0.07701129;4.796095;1.195617;0.5413333;4.520081;1.242467;0.8252232;4.365238;1.29301;0.8401183;3.474902;1.660918;0.1877969;2.800277;1.791851;-0.07911634;2.408284;1.291839;-0.006891638;1.303929;0.334738;0;0;0;-0.07911634;2.408284;1.291839;-0.006891638;1.303929;0.334738;0;0;0
949410.5126;NotLabelled;16384;0.8112017;0.3130194;0.3919668;0.300554;0;2;-1;3204;-1098;2716;65536;-0.5263157;-0.501385;0.6119549;0.3116343;0;-2;2;3996;-806;-1275;8192;0.5817174;-0.751691;-0.300554;-0.07894737;12;8;1;1441;3675;-555;32768;0.4916897;-0.7672493;0.4085872;-0.05124654;1;27;0;3102;2802;775;256;0.1897507;-0.232687;-0.6481994;-0.6997778;3;17;2;258;4048;-384;128;-0.1578947;0.2409972;0.632964;0.7185723;3;-3;0;-316;4014;626;4;-0.5831025;0.1371191;-0.4487534;-0.6631818;-1;-3;-2;2758;3014;360;16;0.7667503;-0.6301939;-0.009695291;-0.1218837;4;-10;0;677;4055;-638;2;0.5277008;-0.6931784;-0.3213296;-0.3711911;1;-5;0;208;3992;-964;8;0.3947368;-0.8155472;0.3047091;0.2936288;0;-5;0;1195;3539;2129;0.243767;2.45332;1.292806;0.2497208;2.995875;1.236067;0.254952;3.472571;1.184182;0.2806259;4.202926;1.250408;0.03362155;4.540066;1.241868;-0.312578;4.406795;1.292107;-0.6768472;4.659246;0.4785311;-0.07149792;4.798809;1.193983;0.5536444;4.52179;1.241856;0.8372813;4.366383;1.29208;0.8489063;3.478094;1.665019;0.1988968;2.802166;1.800649;-0.06849378;2.410691;1.289926;-0.004502207;1.30384;0.3351253;0;0;0;-0.06849378;2.410691;1.289926;-0.004502207;1.30384;0.3351253;0;0;0
949430.5287;NotLabelled;16384;0.8117135;0.3130194;0.3919668;0.299169;-2;6;0;3104;-1040;2646;65536;-0.5263157;-0.5027701;0.6108176;0.3116343;-3;-2;2;4038;-842;-1039;8192;0.5803324;-0.7526143;-0.300554;-0.08033241;11;6;0;1361;3705;-529;32768;0.4903047;-0.7694128;0.4058172;-0.05401662;0;21;2;3200;2844;801;256;0.1869806;-0.2313019;-0.6481994;-0.7009816;1;18;3;178;4014;-360;128;-0.1578947;0.2409972;0.632964;0.7185723;2;-3;-1;-400;4058;616;4;-0.5831025;0.1371191;-0.4487534;-0.6631818;0;0;-3;2716;2990;296;16;0.7681214;-0.6288089;-0.008310249;-0.1204986;4;-8;1;683;4111;-748;2;0.5290859;-0.6921218;-0.3213296;-0.3711911;1;-3;0;218;3982;-960;8;0.3947368;-0.8150284;0.3060942;0.2936288;0;-1;0;1087;3445;2155;0.2487367;2.451684;1.293962;0.2546883;2.994036;1.235313;0.2599173;3.470547;1.18175;0.2863035;4.201042;1.246118;0.03962177;4.538396;1.236761;-0.3066978;4.405587;1.287391;-0.6728913;4.660164;0.4753432;-0.06571543;4.798856;1.189416;0.5596269;4.519621;1.236714;0.8431226;4.364069;1.287289;0.8530086;3.475384;1.659333;0.2025904;2.800133;1.796373;-0.06352407;2.409046;1.291243;-0.005023792;1.30418;0.3337944;0;0;0;-0.06352407;2.409046;1.291243;-0.005023792;1.30418;0.3337944;0;0;0
949451.525;NotLabelled;16384;0.8115528;0.3130194;0.3933518;0.2977839;-2;9;1;3042;-1128;2562;65536;-0.5277008;-0.501385;0.6107609;0.3116343;-7;-2;2;3858;-674;-1109;8192;0.5789474;-0.7536803;-0.300554;-0.08033241;11;1;-1;1325;3717;-487;32768;0.4903047;-0.7700433;0.4044321;-0.05540166;-1;14;3;3018;2860;925;256;0.1814404;-0.2285319;-0.6495845;-0.7020631;1;15;4;156;4020;-348;128;-0.1578947;0.2409972;0.632964;0.7185723;0;0;-1;-356;4018;582;4;-0.5831025;0.1385041;-0.4501385;-0.6619543;0;1;-4;2730;2976;390;16;0.7694826;-0.6274238;-0.006925208;-0.1191136;4;-3;0;699;4117;-784;2;0.5290859;-0.6928628;-0.3213296;-0.3698061;0;-1;1;260;3976;-1006;8;0.3947368;-0.8150284;0.3060942;0.2936288;0;0;0;1099;3439;2113;0.2537109;2.45066;1.298254;0.2596624;2.993012;1.239605;0.2648916;3.469523;1.186042;0.2924592;4.199837;1.251949;0.04633003;4.537613;1.24326;-0.3002141;4.405263;1.293555;-0.667464;4.658278;0.4814954;-0.05632925;4.799023;1.191779;0.5663036;4.517989;1.243259;0.8495366;4.361868;1.293553;0.8561333;3.474681;1.669227;0.2048935;2.801295;1.811445;-0.05854982;2.408022;1.295535;-0.005722642;1.303156;0.3377569;0;0;0;-0.05854982;2.408022;1.295535;-0.005722642;1.303156;0.3377569;0;0;0
949492.6779;NotLabelled;16384;0.811892;0.3130194;0.3947368;0.2950138;-2;8;-1;2972;-1200;2480;65536;-0.5290859;-0.5;0.6106981;0.3116343;-7;-6;0;3714;-520;-1191;8192;0.5789474;-0.7535314;-0.300554;-0.08171745;11;-2;0;1363;3753;-483;32768;0.4889196;-0.7708226;0.4044321;-0.0567867;-4;9;4;2834;2914;789;256;0.1786704;-0.2271468;-0.6495845;-0.703222;0;12;4;202;4044;-320;128;-0.1578947;0.2409972;0.632964;0.7185723;-1;0;-3;-296;3926;482;4;-0.5831025;0.1385041;-0.4501385;-0.6619543;1;3;-3;2732;3026;410;16;0.7694826;-0.6274238;-0.006925208;-0.1191136;4;-1;1;725;4075;-808;2;0.5277008;-0.6939183;-0.3213296;-0.3698061;0;-1;1;332;3980;-1002;8;0.3947368;-0.8150284;0.3060942;0.2936288;0;-1;0;1119;3507;2041;0.2695377;2.453054;1.298975;0.2754892;2.995406;1.240326;0.2807183;3.471917;1.186763;0.3115123;4.202068;1.253039;0.06687874;4.540934;1.244516;-0.2802483;4.41009;1.294737;-0.6593565;4.663254;0.4881917;-0.03755236;4.803967;1.18916;0.5867606;4.519011;1.244516;0.8692994;4.361614;1.294737;0.8779014;3.47526;1.67233;0.2279209;2.802209;1.821709;-0.04272312;2.410416;1.296256;-0.004248276;1.302116;0.3417667;0;0;0;-0.04272312;2.410416;1.296256;-0.004248276;1.302116;0.3417667;0;0;0
949513.2556;NotLabelled;16384;0.8123939;0.3130194;0.3947368;0.2936288;0;3;1;3010;-1232;2470;65536;-0.5304709;-0.4972299;0.6117574;0.3116343;-3;-4;0;3804;-648;-1311;8192;0.5761772;-0.756201;-0.299169;-0.08171745;5;-2;-1;1451;3791;-463;32768;0.4861496;-0.7732962;0.4030471;-0.0567867;-6;-1;2;2704;3108;751;256;0.1759003;-0.2257618;-0.6523545;-0.7018008;-1;10;5;194;3982;-350;128;-0.1565097;0.2423823;0.632964;0.7184095;0;1;-2;-430;3998;410;4;-0.5831025;0.1398892;-0.4501385;-0.6616629;1;4;-2;2586;2994;388;16;0.7706098;-0.6260388;-0.006925208;-0.1191136;3;0;0;861;4103;-866;2;0.5277008;-0.6939183;-0.3213296;-0.3698061;0;1;0;198;3882;-898;8;0.3947368;-0.8145281;0.3060942;0.2950138;0;1;0;1049;3419;2151;0.2772994;2.453054;1.299207;0.2832509;2.995406;1.240559;0.2884801;3.471917;1.186996;0.3204928;4.201881;1.254742;0.07642865;4.541173;1.246879;-0.2709216;4.410811;1.296808;-0.6565764;4.665431;0.4938332;-0.02845287;4.806108;1.189152;0.5962731;4.518378;1.246879;0.8785431;4.360408;1.296807;0.8879827;3.473415;1.672879;0.2367815;2.802724;1.827469;-0.03496152;2.410416;1.296489;-0.002202064;1.302116;0.3417864;0;0;0;-0.03496152;2.410416;1.296489;-0.002202064;1.302116;0.3417864;0;0;0
949533.7252;NotLabelled;16384;0.8123939;0.3130194;0.3947368;0.2936288;1;2;1;3016;-1156;2474;65536;-0.5304709;-0.4972299;0.6117574;0.3116343;0;-3;-1;3804;-616;-1243;8192;0.5761772;-0.7567475;-0.2977839;-0.08171745;2;-2;-1;1423;3811;-547;32768;0.4861496;-0.7732962;0.4030471;-0.0567867;-6;-9;1;2746;3076;803;256;0.1731302;-0.2257618;-0.6523545;-0.7024892;-2;5;6;122;3986;-402;128;-0.1565097;0.2423823;0.634349;0.7171868;0;2;-2;-404;3930;382;4;-0.5831025;0.1398892;-0.4501385;-0.6616629;1;2;0;2532;2996;368;16;0.7706098;-0.6260388;-0.006925208;-0.1191136;2;1;0;811;4039;-916;2;0.5277008;-0.6939183;-0.3213296;-0.3698061;0;2;0;180;3954;-926;8;0.3947368;-0.8145281;0.3060942;0.2950138;0;0;0;1107;3449;2155;0.2807757;2.454061;1.300751;0.2867279;2.996468;1.242608;0.2919576;3.473028;1.189488;0.326798;4.20321;1.253391;0.08404028;4.543393;1.243802;-0.2637969;4.414635;1.294495;-0.6540325;4.670558;0.4941521;-0.01927191;4.809136;1.183842;0.603793;4.518596;1.243801;0.8854651;4.359804;1.294493;0.890877;3.474118;1.673711;0.2404585;2.805046;1.83829;-0.03148514;2.411426;1.29799;-0.003052145;1.301146;0.3454514;0;0;0;-0.03148514;2.411426;1.29799;-0.003052145;1.301146;0.3454514;0;0;0
949574.5411;NotLabelled;16384;0.8123939;0.3130194;0.3947368;0.2936288;1;2;1;3050;-1182;2604;65536;-0.5304709;-0.4972299;0.6117574;0.3116343;1;-3;-3;3798;-600;-1251;8192;0.5761772;-0.7567475;-0.2977839;-0.08171745;1;-4;-1;1333;3729;-549;32768;0.4847645;-0.7735429;0.4044321;-0.05540166;-5;-17;0;2760;2936;945;256;0.1731302;-0.2257618;-0.6523545;-0.7024892;-4;-2;6;166;4006;-410;128;-0.1551246;0.2423823;0.634349;0.7174877;-1;2;-2;-368;3950;476;4;-0.5831025;0.1398892;-0.4501385;-0.6616629;1;0;0;2522;3020;372;16;0.771733;-0.6246537;-0.006925208;-0.1191136;1;0;0;773;4077;-846;2;0.5277008;-0.6931784;-0.3213296;-0.3711911;0;1;0;120;3918;-950;8;0.3947368;-0.8145281;0.3060942;0.2950138;0;0;-1;1071;3511;2083;0.2857435;2.454071;1.300699;0.2916934;2.996269;1.240631;0.2969209;3.472636;1.18582;0.3344228;4.202559;1.251155;0.09291071;4.543646;1.242209;-0.2553996;4.41606;1.292617;-0.6486681;4.671984;0.4937595;-0.01127231;4.810562;1.181015;0.6125696;4.516951;1.242208;0.8936545;4.357031;1.292616;0.8991475;3.470959;1.670933;0.2493638;2.801888;1.838001;-0.02651733;2.411426;1.298101;-0.001729995;1.301146;0.345461;0;0;0;-0.02651733;2.411426;1.298101;-0.001729995;1.301146;0.345461;0;0;0
949595.5217;NotLabelled;16384;0.8123939;0.3130194;0.3947368;0.2936288;0;-1;1;2962;-1066;2714;65536;-0.5290859;-0.4958449;0.6140766;0.3116343;1;0;-6;3748;-628;-1407;8192;0.5761772;-0.7572911;-0.2963989;-0.08171745;0;-8;0;1341;3735;-585;32768;0.4847645;-0.7721865;0.4072022;-0.05401662;-4;-22;0;2812;2902;991;256;0.1731302;-0.2271468;-0.6537396;-0.700753;-1;-16;6;118;3948;-450;128;-0.1551246;0.2423823;0.634349;0.7174877;0;1;-3;-380;3984;486;4;-0.5831025;0.1398892;-0.4487534;-0.6626031;0;-2;0;2582;3050;324;16;0.771733;-0.6246537;-0.006925208;-0.1191136;0;0;-1;785;4065;-836;2;0.5290859;-0.6921218;-0.3213296;-0.3711911;0;0;1;152;3926;-914;8;0.3947368;-0.8150472;0.3047091;0.2950138;0;0;-1;1013;3471;2077;0.2828164;2.453084;1.304402;0.2887669;2.995335;1.244821;0.2939949;3.471752;1.190439;0.3314968;4.201675;1.255774;0.08998489;4.542761;1.246828;-0.2583255;4.415176;1.297236;-0.6515936;4.671099;0.4983791;-0.0141983;4.809678;1.185635;0.6096435;4.516066;1.246828;0.8907283;4.356146;1.297236;0.8962215;3.470075;1.675553;0.2463941;2.801894;1.845979;-0.02944434;2.410441;1.301762;-0.004656792;1.300161;0.3491224;0;0;0;-0.02944434;2.410441;1.301762;-0.004656792;1.300161;0.3491224;0;0;0
949616.5191;NotLabelled;16384;0.8128932;0.3130194;0.3947368;0.2922437;-5;0;2;2984;-1054;2898;65536;-0.5290859;-0.4958449;0.6140766;0.3116343;0;3;-7;3848;-778;-1507;8192;0.5761772;-0.7579798;-0.2950138;-0.08033241;3;-7;0;1503;3779;-757;32768;0.4847645;-0.7695199;0.4127424;-0.04986149;0;-21;0;2906;2874;733;256;0.1745152;-0.2299169;-0.6523545;-0.7007968;0;-16;6;132;3992;-370;128;-0.1537396;0.2423823;0.634349;0.7177857;0;1;-3;-344;3942;550;4;-0.5831025;0.1398892;-0.4487534;-0.6626031;0;-2;1;2558;3044;360;16;0.7715179;-0.6246537;-0.006925208;-0.1204986;0;-1;-1;731;4079;-794;2;0.5290859;-0.6921218;-0.3213296;-0.3711911;0;-2;0;116;3928;-902;8;0.3947368;-0.8150472;0.3047091;0.2950138;-1;0;0;1085;3497;1981;0.2758454;2.451637;1.305893;0.2817959;2.993888;1.246312;0.287024;3.470305;1.191931;0.3267585;4.200342;1.254617;0.08628315;4.542128;1.244482;-0.2624038;4.415786;1.295416;-0.6540263;4.671708;0.4957509;-0.01964641;4.806223;1.186595;0.6058583;4.513851;1.244482;0.8864653;4.35326;1.295416;0.8898257;3.466809;1.672864;0.2391775;2.799094;1.841986;-0.0364154;2.408994;1.303254;-0.005375579;1.300161;0.3491122;0;0;0;-0.0364154;2.408994;1.303254;-0.005375579;1.300161;0.3491122;0;0;0
949636.5229;NotLabelled;16384;0.8128932;0.3130194;0.3947368;0.2922437;-8;0;3;2842;-980;2882;65536;-0.5277008;-0.4958449;0.6152672;0.3116343;-2;7;-7;3828;-792;-1499;8192;0.5747922;-0.7595675;-0.2936288;-0.08033241;4;-5;0;1541;3713;-803;32768;0.4847645;-0.768864;0.4141274;-0.04847645;0;-18;0;2868;2850;723;256;0.1759003;-0.232687;-0.6523545;-0.6995351;0;-23;5;182;4022;-552;128;-0.1537396;0.2423823;0.634349;0.7177857;0;1;-3;-324;3970;464;4;-0.5831025;0.1398892;-0.4487534;-0.6626031;0;-2;0;2508;3048;374;16;0.771733;-0.6246537;-0.006925208;-0.1191136;0;-1;-1;763;4145;-738;2;0.5290859;-0.6921218;-0.3213296;-0.3711911;0;-2;0;66;3938;-892;8;0.3947368;-0.8150472;0.3047091;0.2950138;-1;-1;0;1065;3485;2063;0.2695842;2.451298;1.306965;0.2755353;2.993602;1.247868;0.2807639;3.470068;1.193911;0.3212409;4.199894;1.258553;0.08111918;4.541953;1.249295;-0.2677051;4.415834;1.299841;-0.6539509;4.673059;0.4979817;-0.02393538;4.807574;1.192808;0.6006648;4.51314;1.249295;0.8810989;4.352126;1.299841;0.8821838;3.46592;1.677881;0.2310701;2.797973;1.844269;-0.04267669;2.408658;1.304284;-0.0056272;1.299825;0.3503567;0;0;0;-0.04267669;2.408658;1.304284;-0.0056272;1.299825;0.3503567;0;0;0
949657.5361;NotLabelled;16384;0.8128554;0.3144044;0.3947368;0.2908587;-10;1;2;2822;-940;2916;65536;-0.5277008;-0.4958449;0.6145637;0.3130194;-5;10;-6;3836;-620;-1531;8192;0.5747922;-0.7595675;-0.2936288;-0.08033241;6;-2;-1;1611;3779;-833;32768;0.4861496;-0.7672405;0.4155124;-0.04847645;0;-12;-1;2828;2932;667;256;0.1772853;-0.234072;-0.6523545;-0.698723;0;-19;5;276;4042;-372;128;-0.1537396;0.2423823;0.6357341;0.7165593;0;1;-3;-378;3978;520;4;-0.5831025;0.1398892;-0.4487534;-0.6626031;0;-1;1;2598;3028;346;16;0.771733;-0.6246537;-0.006925208;-0.1191136;0;-1;0;773;4089;-786;2;0.5290859;-0.6921218;-0.3213296;-0.3711911;0;-3;0;214;3890;-842;8;0.3947368;-0.8150472;0.3047091;0.2950138;-1;0;0;1131;3461;2157;0.2595394;2.451634;1.305376;0.2654905;2.993938;1.24628;0.270719;3.470404;1.192323;0.3127469;4.200204;1.256259;0.07335049;4.542761;1.246685;-0.2757378;4.417432;1.297371;-0.6519543;4.674657;0.4907572;-0.02816129;4.807168;1.191557;0.5928339;4.512849;1.246684;0.8729287;4.351288;1.29737;0.8654578;3.46558;1.676499;0.213851;2.797278;1.839499;-0.05272138;2.408994;1.302695;-0.009744063;1.300161;0.3490173;0;0;0;-0.05272138;2.408994;1.302695;-0.009744063;1.300161;0.3490173;0;0;0
949677.5183;NotLabelled;16384;0.8126761;0.3144044;0.3961219;0.2894737;-12;4;0;2786;-1020;2828;65536;-0.5263157;-0.4958449;0.6143343;0.3157895;-7;8;-5;3786;-568;-1441;8192;0.5734072;-0.7606136;-0.2936288;-0.08033241;6;2;-1;1571;3767;-749;32768;0.4861496;-0.7665752;0.4168975;-0.04709141;1;-7;-1;2858;2878;709;256;0.1772853;-0.2368421;-0.6509695;-0.6990811;0;-11;5;256;3956;-270;128;-0.1523546;0.2437673;0.6357341;0.7163852;0;3;-3;-398;4014;674;4;-0.5831025;0.1398892;-0.4487534;-0.6626031;0;-1;0;2648;2986;346;16;0.7717193;-0.6246537;-0.008310249;-0.1191136;0;-1;-1;745;4105;-800;2;0.5290859;-0.6928628;-0.3213296;-0.3698061;0;-2;0;262;3966;-906;8;0.3947368;-0.8150472;0.3047091;0.2950138;0;0;-1;1063;3457;2145;0.2542428;2.451643;1.304987;0.2601916;2.993734;1.243962;0.265418;3.470005;1.188311;0.3075645;4.199861;1.251528;0.06822151;4.542447;1.241631;-0.2808837;4.417222;1.29246;-0.6595306;4.677525;0.487974;-0.03718024;4.808837;1.19028;0.5877;4.512452;1.241631;0.8677723;4.350897;1.292459;0.8610533;3.465188;1.671602;0.2083793;2.796491;1.828601;-0.05801803;2.408994;1.30247;-0.01116303;1.300161;0.3489748;0;0;0;-0.05801803;2.408994;1.30247;-0.01116303;1.300161;0.3489748;0;0;0
949698.6704;NotLabelled;16384;0.8117135;0.3171745;0.398892;0.2853186;-16;4;-3;2692;-1080;2678;65536;-0.5277008;-0.4944598;0.6121085;0.3199446;-15;6;-4;3764;-562;-1229;8192;0.5734072;-0.760466;-0.2936288;-0.08171745;7;5;-1;1595;3791;-635;32768;0.4861496;-0.7665752;0.4168975;-0.04709141;5;0;0;2954;2918;693;256;0.1772853;-0.2382271;-0.6523545;-0.6973172;2;-1;4;258;4030;-188;128;-0.1509695;0.2437673;0.6357341;0.7166784;-2;2;-3;-340;3920;624;4;-0.5831025;0.1398892;-0.4487534;-0.6626031;0;2;0;2732;3068;310;16;0.7717193;-0.6246537;-0.008310249;-0.1191136;0;2;0;741;4105;-780;2;0.5290859;-0.6928628;-0.3213296;-0.3698061;0;-1;1;214;3954;-980;8;0.3947368;-0.8150472;0.3047091;0.2950138;0;-1;0;1059;3511;2043;0.2461539;2.452063;1.303092;0.2521032;2.994209;1.242561;0.2573303;3.470531;1.187344;0.3015322;4.200029;1.253225;0.06316376;4.543326;1.244525;-0.2863061;4.418908;1.294825;-0.6636651;4.679375;0.4897867;-0.04348809;4.806298;1.194817;0.5825554;4.511858;1.244524;0.8621573;4.349326;1.294823;0.8513408;3.464501;1.675931;0.1984987;2.79545;1.830707;-0.06610692;2.409416;1.300534;-0.01504804;1.300583;0.3472548;0;0;0;-0.06610692;2.409416;1.300534;-0.01504804;1.300583;0.3472548;0;0;0
949718.6123;NotLabelled;16384;0.8109747;0.3185596;0.400277;0.2839335;-16;6;-4;2744;-1184;2608;65536;-0.5277008;-0.4944598;0.6113825;0.3213296;-17;4;-3;3800;-448;-1197;8192;0.5720221;-0.7608229;-0.2950138;-0.08310249;5;2;-1;1341;3843;-609;32768;0.4875346;-0.7655196;0.4168975;-0.04986149;1;3;4;2916;3006;761;256;0.1759003;-0.2382271;-0.6523545;-0.6976679;2;1;4;306;4010;-296;128;-0.1509695;0.2437673;0.6357341;0.7166784;-4;2;-4;-332;3956;538;4;-0.5831025;0.1398892;-0.4487534;-0.6626031;0;3;-1;2686;3048;324;16;0.7717193;-0.6246537;-0.008310249;-0.1191136;0;2;0;679;4087;-730;2;0.5290859;-0.6928628;-0.3213296;-0.3698061;0;1;0;160;3978;-898;8;0.3947368;-0.8150472;0.3047091;0.2950138;-1;0;0;1023;3483;2073;0.2434781;2.45206;1.302995;0.249428;2.994259;1.242941;0.2546555;3.470629;1.188142;0.3011295;4.200221;1.251382;0.06382239;4.544219;1.241496;-0.2860193;4.421066;1.29232;-0.6679283;4.686724;0.4911329;-0.04279113;4.810076;1.192407;0.583114;4.511145;1.241495;0.8622233;4.34793;1.292319;0.8492066;3.462482;1.671909;0.1960474;2.793432;1.82534;-0.06878275;2.409415;1.300396;-0.01576258;1.300583;0.3472235;0;0;0;-0.06878275;2.409415;1.300396;-0.01576258;1.300583;0.3472235;0;0;0
949739.5367;NotLabelled;16384;0.810228;0.3199446;0.4016621;0.2825485;-15;7;-5;2786;-1154;2572;65536;-0.5290859;-0.4916897;0.6109572;0.3240997;-18;1;-2;3718;-430;-1263;8192;0.5706371;-0.7617099;-0.2950138;-0.08448754;3;0;-1;1353;3831;-579;32768;0.4861496;-0.7664;0.4168975;-0.04986149;-1;2;4;2828;3034;687;256;0.1745152;-0.2382271;-0.6523545;-0.6980156;2;3;3;298;4016;-264;128;-0.1495845;0.2437673;0.634349;0.7181945;-4;2;-4;-330;3990;544;4;-0.5831025;0.1398892;-0.4487534;-0.6626031;0;4;-1;2636;3028;322;16;0.7717193;-0.6246537;-0.008310249;-0.1191136;0;1;0;755;4115;-832;2;0.5290859;-0.6928628;-0.3213296;-0.3698061;0;0;0;214;3966;-788;8;0.3947368;-0.8150472;0.3047091;0.2950138;0;0;0;1089;3493;2155;0.2459623;2.45206;1.303125;0.2519122;2.994259;1.24307;0.2571398;3.470629;1.188272;0.3049317;4.200071;1.252239;0.06824899;4.54451;1.242679;-0.2818185;4.42194;1.293358;-0.6684943;4.68954;0.4951097;-0.04059863;4.811728;1.194119;0.5874799;4.510494;1.242678;0.8662896;4.346724;1.293358;0.8513874;3.461913;1.674362;0.1961004;2.794014;1.823683;-0.06629848;2.409415;1.300526;-0.01509921;1.300582;0.3472531;0;0;0;-0.06629848;2.409415;1.300526;-0.01509921;1.300582;0.3472531;0;0;0
949760.5376;NotLabelled;16384;0.8094736;0.3213296;0.4030471;0.2811634;-15;4;-6;2906;-1140;2538;65536;-0.5304709;-0.4903047;0.6101325;0.3254848;-17;0;-2;3782;-552;-1313;8192;0.5706371;-0.7617099;-0.2950138;-0.08448754;0;0;-1;1401;3843;-559;32768;0.4861496;-0.7663086;0.4168975;-0.05124654;-1;-1;5;2784;3046;673;256;0.1745152;-0.2382271;-0.6523545;-0.6980156;2;2;3;300;3970;-210;128;-0.1481994;0.2437673;0.634349;0.7184816;-4;0;-4;-428;4014;514;4;-0.5844875;0.1412742;-0.4487534;-0.6610872;0;3;0;2536;3046;292;16;0.7714881;-0.6246537;-0.009695291;-0.1204986;0;4;0;727;4041;-854;2;0.5304709;-0.691803;-0.3213296;-0.3698061;0;0;0;176;3934;-968;8;0.3947368;-0.8150472;0.3047091;0.2950138;0;0;0;1011;3499;2085;0.2484441;2.452049;1.303452;0.2543968;2.994509;1.245801;0.2596271;3.471117;1.193115;0.3087388;4.200408;1.257803;0.07268226;4.545285;1.248567;-0.2776105;4.423301;1.299103;-0.6690726;4.692842;0.5038459;-0.03466946;4.810601;1.197721;0.5918505;4.510327;1.248565;0.8703588;4.346;1.299102;0.8522683;3.461469;1.680615;0.1966688;2.794769;1.833869;-0.06381661;2.409416;1.300648;-0.01443648;1.300583;0.3472806;0;0;0;-0.06381661;2.409416;1.300648;-0.01443648;1.300583;0.3472806;0;0;0
949780.5275;NotLabelled;16384;0.8087113;0.3227147;0.4044321;0.2797784;-14;3;-4;2896;-1176;2572;65536;-0.5304709;-0.4889196;0.6105034;0.3268698;-16;2;-3;3744;-528;-1259;8192;0.5720221;-0.761206;-0.2936288;-0.08448754;-2;-1;-3;1371;3869;-603;32768;0.4861496;-0.7655535;0.4182825;-0.05124654;-3;-1;5;2726;3046;555;256;0.1731302;-0.2382271;-0.6523545;-0.6983604;3;2;2;280;3892;-310;128;-0.1481994;0.2451524;0.634349;0.7180102;-4;0;-3;-334;3916;454;4;-0.5844875;0.1412742;-0.4473684;-0.6620253;0;2;0;2530;2994;302;16;0.7714694;-0.6246537;-0.01108033;-0.1204986;0;9;0;609;4053;-846;2;0.5304709;-0.691803;-0.3213296;-0.3698061;0;1;1;184;3932;-896;8;0.3947368;-0.8150472;0.3047091;0.2950138;0;0;0;1041;3429;2051;0.2484732;2.453083;1.302054;0.2544266;2.995593;1.244873;0.2596573;3.472245;1.192599;0.3087689;4.201537;1.257288;0.0727123;4.546413;1.248051;-0.2775805;4.42443;1.298588;-0.6723382;4.69591;0.5056226;-0.03441465;4.812474;1.196465;0.5918808;4.511456;1.248051;0.8703892;4.34713;1.298587;0.8523166;3.462599;1.680102;0.1952088;2.797076;1.832011;-0.06378758;2.410452;1.299211;-0.01484787;1.300674;0.3469206;0;0;0;-0.06378758;2.410452;1.299211;-0.01484787;1.300674;0.3469206;0;0;0
949800.6591;NotLabelled;16384;0.8066865;0.3254848;0.4072022;0.2783934;-11;1;-3;2866;-1210;2488;65536;-0.5318559;-0.4861496;0.6092703;0.3310249;-12;2;-3;3808;-480;-1325;8192;0.5720221;-0.761206;-0.2936288;-0.08448754;-4;-2;-3;1371;3873;-607;32768;0.4861496;-0.7655535;0.4182825;-0.05124654;-4;1;5;2852;3038;611;256;0.1717452;-0.2382271;-0.6509695;-0.699993;1;-4;2;310;4026;-374;128;-0.1468144;0.2451524;0.634349;0.7182947;-4;0;-2;-424;3954;464;4;-0.5844875;0.1412742;-0.4473684;-0.6620253;1;0;1;2490;3026;334;16;0.7712307;-0.6246537;-0.01246537;-0.1218837;-1;2;0;811;4083;-862;2;0.5304709;-0.691803;-0.3213296;-0.3698061;0;0;1;208;3974;-904;8;0.3947368;-0.8145446;0.3047091;0.2963989;0;1;0;981;3469;2111;0.2442904;2.452049;1.301966;0.2502437;2.99456;1.244801;0.2554745;3.471215;1.192541;0.3059078;4.200352;1.257946;0.07047933;4.545667;1.249031;-0.2800382;4.42427;1.299425;-0.6795152;4.69769;0.5094953;-0.03865415;4.811028;1.198153;0.5895833;4.509764;1.24903;0.8677891;4.344882;1.299424;0.8515936;3.45909;1.678087;0.1937796;2.794397;1.830574;-0.0679704;2.409418;1.299121;-0.01652674;1.301092;0.3452738;0;0;0;-0.0679704;2.409418;1.299121;-0.01652674;1.301092;0.3452738;0;0;0
949820.5722;NotLabelled;16384;0.8059026;0.3268698;0.4085872;0.2770083;-9;2;-1;2886;-1150;2524;65536;-0.533241;-0.4861496;0.6073024;0.33241;-10;1;-2;3854;-458;-1275;8192;0.5747922;-0.7596508;-0.2922437;-0.08448754;-6;-3;-4;1329;3805;-715;32768;0.4847645;-0.7656738;0.4196676;-0.05124654;-4;-5;3;2822;2870;677;256;0.1717452;-0.2382271;-0.6509695;-0.699993;3;-7;2;312;3986;-342;128;-0.1468144;0.2465374;0.634349;0.7178205;-2;0;-2;-452;3966;488;4;-0.5844875;0.1412742;-0.4473684;-0.6620253;1;0;1;2532;3120;358;16;0.7710105;-0.6246537;-0.01246537;-0.1232687;-1;3;0;779;4137;-820;2;0.5304709;-0.691803;-0.3213296;-0.3698061;0;0;1;220;3954;-900;8;0.3947368;-0.8155637;0.3033241;0.2950138;0;1;0;1047;3477;2127;0.246146;2.45214;1.301749;0.2520999;2.9947;1.24505;0.257331;3.4714;1.1932;0.3082611;4.200193;1.26197;0.0730828;4.545713;1.254554;-0.2775401;4.424338;1.304261;-0.6866173;4.699623;0.5199116;-0.03806132;4.807419;1.202226;0.5921611;4.509439;1.254579;0.8702302;4.344129;1.304318;0.8553534;3.458663;1.683797;0.1978053;2.79397;1.837424;-0.06611466;2.409513;1.298864;-0.0163264;1.301187;0.3449284;0;0;0;-0.06611466;2.409513;1.298864;-0.0163264;1.301187;0.3449284;0;0;0
949841.5289;NotLabelled;16384;0.8059026;0.3268698;0.4085872;0.2770083;-6;2;-1;2880;-1222;2472;65536;-0.533241;-0.4847645;0.6076498;0.333795;-8;0;-1;3798;-448;-1221;8192;0.5761772;-0.759133;-0.2908587;-0.08448754;-5;-6;-4;1355;3783;-689;32768;0.4833795;-0.7658804;0.4210526;-0.04986149;-2;-9;1;2726;3014;693;256;0.1717452;-0.2382271;-0.6509695;-0.699993;4;-5;1;314;3948;-254;128;-0.1468144;0.2465374;0.634349;0.7178205;-2;0;-2;-410;4054;476;4;-0.5844875;0.1412742;-0.4473684;-0.6620253;0;-1;2;2558;3088;308;16;0.7709869;-0.6246537;-0.01385042;-0.1232687;-2;5;-1;655;4085;-766;2;0.5304709;-0.691803;-0.3213296;-0.3698061;0;0;1;234;3958;-850;8;0.3961219;-0.8148919;0.3033241;0.2950138;0;0;0;955;3501;2101;0.2481502;2.451817;1.303057;0.2541041;2.994379;1.246376;0.2593354;3.47108;1.19454;0.3102688;4.199873;1.263307;0.07509011;4.545393;1.255902;-0.2755302;4.424018;1.305627;-0.686507;4.701907;0.5231922;-0.03464812;4.81062;1.202205;0.5941683;4.509119;1.255902;0.87224;4.343809;1.305627;0.8603809;3.45588;1.679414;0.2012629;2.793221;1.835085;-0.06411046;2.409189;1.300172;-0.01437043;1.300863;0.3462341;0;0;0;-0.06411046;2.409189;1.300172;-0.01437043;1.300863;0.3462341;0;0;0
949861.6583;NotLabelled;16384;0.8059026;0.3268698;0.4085872;0.2770083;-6;1;0;2814;-1196;2588;65536;-0.533241;-0.4847645;0.6076498;0.333795;-7;0;-1;3760;-428;-1187;8192;0.5761772;-0.759133;-0.2908587;-0.08448754;-6;-6;-5;1413;3775;-651;32768;0.4833795;-0.7651173;0.4224377;-0.04986149;0;-14;1;2998;2750;881;256;0.1717452;-0.2396122;-0.6495845;-0.7008064;7;-4;1;148;3986;-290;128;-0.1468144;0.2465374;0.634349;0.7178205;-3;1;-1;-386;3952;512;4;-0.5844875;0.1412742;-0.4473684;-0.6620253;0;-1;2;2576;3046;310;16;0.7698626;-0.6260388;-0.01385042;-0.1232687;-2;3;0;759;4113;-774;2;0.5304709;-0.691803;-0.3213296;-0.3698061;0;0;0;264;3928;-886;8;0.3961219;-0.8148919;0.3033241;0.2950138;0;0;0;989;3509;2005;0.2458209;2.452238;1.30137;0.2517748;2.9948;1.244688;0.257006;3.471501;1.192852;0.3079393;4.200294;1.261618;0.0727607;4.545814;1.254214;-0.2778597;4.424439;1.303939;-0.6888351;4.702327;0.5215028;-0.03537673;4.807828;1.199484;0.5918389;4.50954;1.254213;0.8699105;4.34423;1.303939;0.8592128;3.455066;1.674812;0.20004;2.793255;1.83383;-0.06643981;2.40961;1.298484;-0.01669984;1.301282;0.3445466;0;0;0;-0.06643981;2.40961;1.298484;-0.01669984;1.301282;0.3445466;0;0;0
949882.6705;NotLabelled;16384;0.8051108;0.3282548;0.4099723;0.2756233;-6;0;0;2930;-1164;2570;65536;-0.533241;-0.4833795;0.6079907;0.33518;-6;-2;-3;3764;-526;-1193;8192;0.5775623;-0.7586097;-0.2894737;-0.08448754;-5;-7;-5;1495;3705;-757;32768;0.4833795;-0.7644401;0.4238227;-0.04847645;0;-20;0;2898;2808;755;256;0.1717452;-0.2396122;-0.6495845;-0.7008064;0;-12;1;328;3994;-284;128;-0.1454294;0.2465374;0.632964;0.7193235;-4;1;-1;-388;3978;538;4;-0.5844875;0.1412742;-0.4459834;-0.6629591;1;1;1;2570;3106;320;16;0.7698626;-0.6260388;-0.01385042;-0.1232687;-1;-1;0;725;4117;-790;2;0.5304709;-0.691803;-0.3213296;-0.3698061;0;0;0;224;3918;-884;8;0.3961219;-0.8148919;0.3033241;0.2950138;-1;0;0;1089;3495;2077;0.245887;2.453217;1.297634;0.2518408;2.995779;1.240952;0.257072;3.47248;1.189116;0.3086159;4.200975;1.260537;0.07373703;4.546722;1.254325;-0.2770005;4.42547;1.303522;-0.6861897;4.70336;0.52015;-0.0342797;4.80886;1.199621;0.5927836;4.510001;1.254325;0.8707;4.344272;1.303521;0.8591561;3.455107;1.674369;0.1986312;2.794127;1.83121;-0.06637377;2.410589;1.294748;-0.01445694;1.302263;0.3409261;0;0;0;-0.06637377;2.410589;1.294748;-0.01445694;1.302263;0.3409261;0;0;0
949904.691;NotLabelled;16384;0.8051108;0.3282548;0.4099723;0.2756233;-4;0;0;2924;-1168;2646;65536;-0.534626;-0.4819945;0.6071082;0.3365651;-6;-1;-2;3820;-516;-1347;8192;0.5789474;-0.7587588;-0.2867036;-0.08310249;-4;-4;-4;1561;3771;-753;32768;0.4833795;-0.7615134;0.4293629;-0.04570637;2;-17;0;2882;2766;813;256;0.1717452;-0.2409972;-0.6481994;-0.7016134;2;-10;2;262;4046;-250;128;-0.1454294;0.2465374;0.632964;0.7193235;-3;1;0;-424;3994;490;4;-0.5844875;0.1412742;-0.4459834;-0.6629591;0;1;2;2600;3092;356;16;0.7698626;-0.6260388;-0.01385042;-0.1232687;-1;3;0;705;4139;-762;2;0.5290859;-0.6928628;-0.3213296;-0.3698061;0;0;0;148;3894;-922;8;0.3961219;-0.8148919;0.3033241;0.2950138;0;1;1;1039;3431;2087;0.2415764;2.45174;1.29929;0.247533;2.994546;1.245002;0.2527667;3.471471;1.19527;0.3043105;4.199967;1.26669;0.06943172;4.545713;1.260478;-0.2813058;4.424462;1.309675;-0.6939275;4.704278;0.5287938;-0.04042345;4.806568;1.207223;0.5884781;4.508992;1.260478;0.8663945;4.343263;1.309674;0.8561147;3.452872;1.677604;0.1961096;2.79153;1.835109;-0.07068419;2.409125;1.296202;-0.01445663;1.302262;0.3409254;0;0;0;-0.07068419;2.409125;1.296202;-0.01445663;1.302262;0.3409254;0;0;0
949925.6112;NotLabelled;16384;0.8043109;0.3296399;0.4113573;0.2742382;-5;0;-1;2928;-1160;2694;65536;-0.534626;-0.4806094;0.6082052;0.3365651;-6;-1;-3;3788;-492;-1399;8192;0.5789474;-0.7587588;-0.2867036;-0.08310249;-2;0;-2;1555;3737;-799;32768;0.4833795;-0.7607309;0.4307479;-0.04570637;4;-9;0;2966;2786;699;256;0.1731302;-0.2423823;-0.6481994;-0.7007955;1;-7;1;314;4020;-508;128;-0.1454294;0.2465374;0.632964;0.7193235;-3;-1;-1;-422;3940;496;4;-0.5844875;0.1412742;-0.4459834;-0.6629591;0;0;2;2504;3090;380;16;0.7698626;-0.6260388;-0.01385042;-0.1232687;-1;3;0;769;4117;-726;2;0.5304709;-0.691158;-0.3227147;-0.3698061;0;0;0;242;4004;-882;8;0.3961219;-0.8148919;0.3033241;0.2950138;0;0;0;1071;3459;2177;0.2386104;2.451739;1.299127;0.2445671;2.994546;1.244838;0.2498007;3.471471;1.195106;0.3019498;4.199658;1.269176;0.06736863;4.545627;1.264155;-0.2834853;4.424499;1.312822;-0.6941131;4.704316;0.5308918;-0.03869724;4.805437;1.20765;0.5863836;4.508461;1.264155;0.8641453;4.342317;1.312822;0.8541647;3.450946;1.678383;0.1928542;2.79054;1.83433;-0.07365;2.409124;1.296038;-0.01523681;1.302263;0.3408922;0;0;0;-0.07365;2.409124;1.296038;-0.01523681;1.302263;0.3408922;0;0;0
949946.523;NotLabelled;16384;0.8043109;0.3296399;0.4113573;0.2742382;-8;1;0;2916;-1256;2744;65536;-0.536011;-0.4806094;0.6062149;0.3379501;-7;1;-2;3940;-504;-1283;8192;0.5789474;-0.7587588;-0.2867036;-0.08310249;0;1;0;1459;3825;-765;32768;0.4847645;-0.7599311;0.4307479;-0.04432133;6;-3;0;2962;2884;721;256;0.1731302;-0.2437673;-0.6468144;-0.7015943;3;-6;0;270;3996;-560;128;-0.1454294;0.2465374;0.632964;0.7193235;-3;-2;-1;-388;4016;466;4;-0.5844875;0.1412742;-0.4459834;-0.6629591;-1;0;2;2572;3082;366;16;0.7687342;-0.6274238;-0.01385042;-0.1232687;-2;1;0;787;4157;-688;2;0.5304709;-0.691158;-0.3227147;-0.3698061;0;0;1;206;3934;-874;8;0.3961219;-0.8148919;0.3033241;0.2950138;0;0;0;1015;3427;2163;0.2333436;2.45174;1.298815;0.2393002;2.994546;1.244527;0.2445339;3.471471;1.194794;0.2967867;4.199722;1.268162;0.06225228;4.545718;1.262826;-0.2886147;4.424684;1.311633;-0.6992965;4.706427;0.5304222;-0.04644865;4.805445;1.209967;0.5812621;4.508482;1.262825;0.8590044;4.342346;1.311633;0.847538;3.450976;1.677152;0.1846091;2.791407;1.829731;-0.07891691;2.409125;1.295726;-0.0166221;1.302262;0.3408267;0;0;0;-0.07891691;2.409125;1.295726;-0.0166221;1.302262;0.3408267;0;0;0
949966.5771;NotLabelled;16384;0.8035032;0.3310249;0.4127424;0.2728532;-10;3;0;2926;-1336;2700;65536;-0.536011;-0.4792244;0.6073104;0.3379501;-9;3;-2;3954;-360;-1271;8192;0.5789474;-0.7587588;-0.2867036;-0.08310249;1;3;1;1331;3943;-775;32768;0.4847645;-0.759849;0.4307479;-0.04570637;4;2;-1;2942;2986;639;256;0.1731302;-0.2437673;-0.6468144;-0.7015943;2;-4;0;328;4022;-574;128;-0.1454294;0.2465374;0.632964;0.7193235;-1;-3;0;-408;3946;588;4;-0.5844875;0.1412742;-0.4459834;-0.6629591;-1;-1;2;2520;3090;350;16;0.7687342;-0.6274238;-0.01385042;-0.1232687;-1;-1;0;747;4105;-716;2;0.5304709;-0.691158;-0.3227147;-0.3698061;1;-1;0;160;3918;-842;8;0.3961219;-0.8148919;0.3033241;0.2950138;0;-1;0;1037;3443;2113;0.2334364;2.452705;1.295067;0.239393;2.995511;1.240778;0.2446267;3.472436;1.191046;0.2974761;4.200374;1.267057;0.06323564;4.546584;1.26291;-0.2877464;4.425672;1.311189;-0.6948398;4.707416;0.5281019;-0.04026532;4.807372;1.205847;0.5822136;4.508908;1.26291;0.8598027;4.342363;1.311189;0.8466595;3.450993;1.676651;0.1854584;2.789031;1.82634;-0.07882404;2.41009;1.291978;-0.01433845;1.303228;0.3372236;0;0;0;-0.07882404;2.41009;1.291978;-0.01433845;1.303228;0.3372236;0;0;0
949987.527;NotLabelled;16384;0.8034005;0.33241;0.4127424;0.2714681;-11;4;-1;2896;-1452;2612;65536;-0.536011;-0.4792244;0.6057606;0.3407202;-11;3;-1;3952;-280;-1247;8192;0.5789474;-0.7586058;-0.2867036;-0.08448754;2;3;0;1279;3975;-663;32768;0.4861496;-0.7589636;0.4307479;-0.04570637;1;5;-2;3028;2860;641;256;0.1731302;-0.2437673;-0.6468144;-0.7015943;1;-1;0;382;4068;-510;128;-0.1454294;0.2479224;0.632964;0.7188473;0;-3;0;-474;4026;634;4;-0.5844875;0.1398892;-0.4459834;-0.6632528;-1;-2;2;2458;3026;342;16;0.7687342;-0.6274238;-0.01385042;-0.1232687;-1;0;0;695;4083;-742;2;0.5304709;-0.691803;-0.3213296;-0.3698061;1;-2;0;158;3960;-920;8;0.3961219;-0.8148919;0.3033241;0.2950138;-1;-2;0;1033;3505;2059;0.2334364;2.452705;1.295067;0.239393;2.995511;1.240778;0.2446267;3.472436;1.191046;0.2974761;4.200374;1.267057;0.06323564;4.546584;1.26291;-0.2877464;4.425672;1.311189;-0.6998705;4.709339;0.5314354;-0.04510999;4.807189;1.209308;0.5822136;4.508908;1.26291;0.8598027;4.342363;1.311189;0.8474978;3.450993;1.67668;0.1847942;2.790237;1.825047;-0.07882404;2.41009;1.291978;-0.01433845;1.303228;0.3372236;0;0;0;-0.07882404;2.41009;1.291978;-0.01433845;1.303228;0.3372236;0;0;0
950007.6736;NotLabelled;16384;0.8025799;0.333795;0.4141274;0.2700831;-11;4;-2;2798;-1436;2526;65536;-0.5373961;-0.4778393;0.6048462;0.3421052;-12;2;-1;3872;-252;-1267;8192;0.5789474;-0.7586058;-0.2867036;-0.08448754;1;0;0;1253;3859;-557;32768;0.4861496;-0.759748;0.4293629;-0.04570637;2;8;-1;2974;2892;639;256;0.1717452;-0.2437673;-0.6454294;-0.7032084;1;0;0;384;4118;-490;128;-0.1454294;0.2479224;0.632964;0.7188473;1;-2;0;-468;4038;674;4;-0.5844875;0.1398892;-0.4459834;-0.6632528;-1;-4;0;2620;3082;312;16;0.7687342;-0.6274238;-0.01385042;-0.1232687;0;0;0;713;4105;-680;2;0.5304709;-0.691803;-0.3213296;-0.3698061;0;-2;0;104;3916;-858;8;0.3961219;-0.8148919;0.3033241;0.2950138;0;-1;1;1035;3487;2007;0.2349006;2.450718;1.297464;0.2408572;2.993526;1.243193;0.2460908;3.470453;1.193475;0.29894;4.19839;1.269487;0.06469947;4.5446;1.26534;-0.2862826;4.423688;1.313618;-0.6991817;4.71039;0.5353859;-0.0416258;4.806052;1.21086;0.5836778;4.506926;1.26534;0.8612666;4.34038;1.31362;0.8475634;3.448425;1.67763;0.185438;2.786489;1.823299;-0.07735997;2.408103;1.294374;-0.01433918;1.303227;0.3372244;0;0;0;-0.07735997;2.408103;1.294374;-0.01433918;1.303227;0.3372244;0;0;0
950029.6876;NotLabelled;16384;0.8011708;0.3365651;0.4155124;0.2686981;-8;0;-3;2740;-1368;2442;65536;-0.5387812;-0.4764543;0.6031311;0.3448753;-10;3;1;3784;-214;-1267;8192;0.5789474;-0.7586058;-0.2867036;-0.08448754;0;-2;0;1315;3811;-563;32768;0.4861496;-0.7604446;0.4279778;-0.04709141;0;0;-2;2882;2982;547;256;0.1717452;-0.2437673;-0.6454294;-0.7032084;0;-1;-1;358;3996;-450;128;-0.1454294;0.2479224;0.632964;0.7188473;0;-1;0;-502;3964;644;4;-0.5844875;0.1385041;-0.4459834;-0.6635433;0;-2;0;2650;3046;324;16;0.7687342;-0.6274238;-0.01385042;-0.1232687;0;-1;0;759;4143;-688;2;0.5304709;-0.691803;-0.3213296;-0.3698061;1;-2;0;242;3944;-980;8;0.3947368;-0.8155637;0.3033241;0.2950138;0;0;1;1105;3445;2115;0.2371895;2.450718;1.297599;0.2431461;2.993527;1.243327;0.2483797;3.470453;1.19361;0.3017241;4.197998;1.272963;0.06773251;4.544391;1.270319;-0.283352;4.423511;1.317929;-0.7008464;4.712158;0.5428737;-0.03864795;4.806671;1.213961;0.5866837;4.506345;1.270318;0.8641376;4.339382;1.317928;0.851078;3.447415;1.681935;0.190207;2.784637;1.829458;-0.07507098;2.408103;1.294509;-0.0137428;1.303228;0.3372492;0;0;0;-0.07507098;2.408103;1.294509;-0.0137428;1.303228;0.3372492;0;0;0
950050.5226;NotLabelled;16384;0.8009146;0.3365651;0.4168975;0.267313;-7;-2;-4;2814;-1450;2490;65536;-0.5387812;-0.4750692;0.6034301;0.3462604;-9;5;1;3728;-198;-1225;8192;0.5789474;-0.7586058;-0.2867036;-0.08448754;-2;-2;-1;1311;3819;-571;32768;0.4861496;-0.7605291;0.4279778;-0.04570637;0;-5;-2;2934;2930;525;256;0.1717452;-0.2437673;-0.6454294;-0.7032084;0;-2;-2;328;3990;-490;128;-0.1454294;0.2479224;0.632964;0.7188473;-1;-2;0;-420;3940;602;4;-0.5844875;0.1385041;-0.4473684;-0.6626104;-1;0;0;2686;3046;318;16;0.7687342;-0.6274238;-0.01385042;-0.1232687;0;-2;0;733;4127;-700;2;0.5304709;-0.691803;-0.3213296;-0.3698061;1;0;0;260;3922;-958;8;0.3947368;-0.8155637;0.3033241;0.2950138;0;0;1;1159;3475;2117;0.2386696;2.448729;1.299985;0.2446262;2.991537;1.245713;0.2498598;3.468463;1.195996;0.3032042;4.196008;1.275348;0.06921262;4.542401;1.272705;-0.2818719;4.421521;1.320315;-0.7037566;4.713783;0.5490005;-0.03673148;4.806082;1.215601;0.588164;4.504355;1.272704;0.8656177;4.337392;1.320314;0.8525587;3.445425;1.684321;0.191182;2.783009;1.831202;-0.07359087;2.406114;1.296894;-0.01374285;1.303228;0.3372494;0;0;0;-0.07359087;2.406114;1.296894;-0.01374285;1.303228;0.3372494;0;0;0
950071.6544;NotLabelled;16384;0.8003311;0.3379501;0.4168975;0.267313;-7;-2;-5;2836;-1440;2462;65536;-0.5387812;-0.4750692;0.6026332;0.3476454;-7;4;1;3762;-196;-1221;8192;0.5803324;-0.7575468;-0.2867036;-0.08448754;-4;-1;-2;1325;3809;-659;32768;0.4861496;-0.7598301;0.4293629;-0.04432133;-2;-7;-2;2910;2870;483;256;0.1717452;-0.2423823;-0.6454294;-0.703687;0;-3;-2;272;3976;-486;128;-0.1468144;0.2479224;0.6315789;0.7197833;-1;-2;0;-458;3942;578;4;-0.5844875;0.1385041;-0.4473684;-0.6626104;0;1;0;2692;2996;410;16;0.7687342;-0.6274238;-0.01385042;-0.1232687;0;-1;0;733;4135;-824;2;0.5290859;-0.6928628;-0.3213296;-0.3698061;1;0;0;180;3958;-944;8;0.3947368;-0.8155637;0.3033241;0.2950138;0;-1;0;1083;3425;2155;0.2429841;2.450196;1.298554;0.2489406;2.993005;1.244283;0.2541743;3.469931;1.194566;0.3075186;4.197475;1.273918;0.07352704;4.543869;1.271275;-0.2775575;4.422989;1.318884;-0.7014731;4.715471;0.5487679;-0.03288776;4.804576;1.214239;0.5924783;4.505823;1.271274;0.8699321;4.33886;1.318884;0.8568729;3.446893;1.68289;0.1969981;2.783276;1.831098;-0.06927651;2.407581;1.295464;-0.01374274;1.303227;0.3372492;0;0;0;-0.06927651;2.407581;1.295464;-0.01374274;1.303227;0.3372492;0;0;0
950092.5216;NotLabelled;16384;0.7990214;0.3393352;0.4182825;0.267313;-6;-3;-5;2932;-1344;2484;65536;-0.5387812;-0.4750692;0.601832;0.3490305;-6;4;2;3886;-268;-1199;8192;0.5803324;-0.7580696;-0.2853186;-0.08448754;-4;-1;-3;1287;3801;-639;32768;0.4861496;-0.7591254;0.4307479;-0.04293629;-6;-8;-3;2930;2822;685;256;0.1731302;-0.2423823;-0.6454294;-0.7033475;0;-2;-2;360;4058;-464;128;-0.1468144;0.2479224;0.6315789;0.7197833;0;-2;0;-436;3944;542;4;-0.5844875;0.1385041;-0.4459834;-0.6635433;0;2;0;2668;2992;372;16;0.7687342;-0.6274238;-0.01385042;-0.1232687;0;6;1;671;4109;-798;2;0.5290859;-0.6936003;-0.3213296;-0.368421;1;-1;0;162;3948;-986;8;0.3947368;-0.8155637;0.3033241;0.2950138;0;0;0;1087;3401;2119;0.2458121;2.450188;1.298826;0.2517702;2.99314;1.246017;0.2570053;3.470199;1.197584;0.3089255;4.197847;1.276925;0.07425648;4.543783;1.274276;-0.2765907;4.422216;1.321889;-0.7034827;4.71639;0.5540642;-0.03206146;4.804436;1.216815;0.5932809;4.506752;1.274275;0.8710612;4.340333;1.321887;0.8613744;3.447513;1.683902;0.2023348;2.783533;1.834184;-0.06644833;2.407582;1.295612;-0.01300655;1.303227;0.337278;0;0;0;-0.06644833;2.407582;1.295612;-0.01300655;1.303227;0.337278;0;0;0
950112.6667;NotLabelled;16384;0.7979667;0.3407202;0.4182825;0.2686981;-5;-4;-3;2900;-1376;2480;65536;-0.5387812;-0.4750692;0.601832;0.3490305;-5;6;3;3932;-306;-1253;8192;0.5817174;-0.7570072;-0.2853186;-0.08448754;-3;-3;-2;1347;3789;-673;32768;0.4847645;-0.7600875;0.4307479;-0.04155125;-5;-7;-3;2938;2906;615;256;0.1731302;-0.2423823;-0.6454294;-0.7033475;0;0;-3;344;4008;-456;128;-0.1468144;0.2479224;0.632964;0.7185656;1;-2;0;-470;4006;540;4;-0.5844875;0.1385041;-0.4459834;-0.6635433;0;0;1;2510;3000;376;16;0.7684847;-0.6274238;-0.01523546;-0.1246537;-1;4;0;849;4143;-848;2;0.5304709;-0.6931825;-0.3199446;-0.368421;1;-2;1;178;3956;-938;8;0.3947368;-0.8155637;0.3033241;0.2950138;0;0;1;1041;3453;2087;0.2390565;2.44872;1.30013;0.2450146;2.991673;1.247321;0.2502498;3.468731;1.198888;0.3008391;4.19655;1.277516;0.06553483;4.542052;1.274546;-0.2850852;4.419888;1.322301;-0.7140228;4.714606;0.5558268;-0.04246336;4.801601;1.218577;0.5846266;4.505974;1.274546;0.8627151;4.340112;1.322301;0.8509459;3.446937;1.683376;0.1921345;2.782591;1.833044;-0.07320398;2.406114;1.296916;-0.01364233;1.303227;0.3372533;0;0;0;-0.07320398;2.406114;1.296916;-0.01364233;1.303227;0.3372533;0;0;0
950133.5624;NotLabelled;16384;0.7966458;0.3421052;0.4196676;0.2686981;-5;-4;-3;2978;-1358;2510;65536;-0.5387812;-0.4764543;0.5999293;0.3504155;-3;6;1;3868;-446;-1163;8192;0.5817174;-0.7575278;-0.2839335;-0.08448754;-2;-2;0;1403;3823;-777;32768;0.4833795;-0.7603298;0.432133;-0.03878116;-6;-2;-2;3010;2874;719;256;0.1717452;-0.2409972;-0.6454294;-0.7041625;0;3;-3;358;3934;-362;128;-0.1468144;0.2479224;0.632964;0.7185656;1;-1;1;-478;3950;568;4;-0.5858725;0.1385041;-0.4459834;-0.6623208;0;-1;1;2556;2980;376;16;0.7671255;-0.6288089;-0.01523546;-0.1260388;-2;4;0;755;4077;-748;2;0.5290859;-0.6942403;-0.3199446;-0.368421;0;0;0;160;3896;-880;8;0.3947368;-0.8155637;0.3033241;0.2950138;-1;0;1;1051;3453;1987;0.2389617;2.448826;1.2996;0.2449179;2.991587;1.244864;0.250151;3.468471;1.194738;0.3007567;4.196291;1.273356;0.06545198;4.541792;1.270435;-0.2851583;4.419627;1.318263;-0.7159829;4.717373;0.5540206;-0.0442856;4.804368;1.21663;0.5845436;4.505714;1.270327;0.8626419;4.339851;1.318024;0.853532;3.444562;1.673904;0.1956978;2.780195;1.827716;-0.07329881;2.406208;1.29655;-0.01393694;1.303322;0.3368744;0;0;0;-0.07329881;2.406208;1.29655;-0.01393694;1.303322;0.3368744;0;0;0
950153.6539;NotLabelled;16384;0.7966458;0.3421052;0.4196676;0.2686981;-6;-2;-1;3030;-1328;2640;65536;-0.5387812;-0.4764543;0.5991182;0.3518005;-4;6;0;3972;-470;-1179;8192;0.5817174;-0.7575278;-0.2839335;-0.08448754;-2;-1;0;1439;3831;-743;32768;0.4833795;-0.7603298;0.432133;-0.03878116;-3;0;-3;2942;2818;731;256;0.1717452;-0.2396122;-0.6454294;-0.704635;0;3;-2;348;3988;-470;128;-0.1481994;0.2479224;0.632964;0.7182813;0;-1;1;-556;3940;550;4;-0.5844875;0.1385041;-0.4459834;-0.6635433;0;-2;2;2590;2948;318;16;0.7670967;-0.6288089;-0.0166205;-0.1260388;-2;4;0;751;4137;-788;2;0.5290859;-0.6942403;-0.3199446;-0.368421;1;2;-1;120;3932;-966;8;0.3947368;-0.8155637;0.3033241;0.2950138;-1;1;1;1059;3437;2091;0.2508712;2.448413;1.298907;0.2568273;2.991175;1.24417;0.2620604;3.468059;1.194045;0.3125574;4.195809;1.273375;0.07721198;4.541284;1.270721;-0.2733966;4.419032;1.318335;-0.7106503;4.714585;0.556898;-0.03518504;4.802679;1.21552;0.5963081;4.505269;1.27072;0.874413;4.339394;1.318335;0.8652799;3.445019;1.676505;0.2095485;2.780266;1.837459;-0.06138921;2.405796;1.295856;-0.007633388;1.303944;0.3346637;0;0;0;-0.06138921;2.405796;1.295856;-0.007633388;1.303944;0.3346637;0;0;0
950173.7764;NotLabelled;16384;0.7953178;0.3434903;0.4210526;0.2686981;-10;0;0;2990;-1450;2698;65536;-0.5387812;-0.4778393;0.5971971;0.3531856;-6;7;-1;3918;-430;-1149;8192;0.5817174;-0.7575278;-0.2839335;-0.08448754;0;0;0;1459;3737;-739;32768;0.4833795;-0.7603298;0.432133;-0.03878116;0;1;-3;2890;2924;679;256;0.1703601;-0.2396122;-0.6454294;-0.7049712;-1;1;-1;318;4000;-494;128;-0.1481994;0.2479224;0.632964;0.7182813;0;-1;1;-470;3944;564;4;-0.5844875;0.1371191;-0.4459834;-0.6638309;0;-2;1;2586;2972;352;16;0.7670967;-0.6288089;-0.0166205;-0.1260388;-2;0;-1;769;4107;-756;2;0.5290859;-0.6935034;-0.3199446;-0.3698061;0;3;-2;34;3978;-910;8;0.3947368;-0.8155637;0.3033241;0.2950138;-1;6;3;985;3395;1969;0.2495497;2.449872;1.296008;0.2555054;2.992586;1.240804;0.260738;3.469426;1.190267;0.3098161;4.197275;1.269584;0.07379574;4.542289;1.266937;-0.2765709;4.419353;1.314571;-0.7172052;4.715562;0.5553401;-0.03889173;4.802621;1.211166;0.5929612;4.507288;1.266911;0.8713924;4.341959;1.314514;0.8638502;3.447275;1.671951;0.2084784;2.782523;1.834365;-0.06271082;2.407252;1.292997;-0.00918898;1.304365;0.3329787;0;0;0;-0.06271082;2.407252;1.292997;-0.00918898;1.304365;0.3329787;0;0;0
950194.5621;NotLabelled;16384;0.7951851;0.3448753;0.4210526;0.267313;-11;1;0;2960;-1360;2700;65536;-0.5387812;-0.4778393;0.5963758;0.3545706;-9;7;-1;3990;-400;-1245;8192;0.5817174;-0.7570072;-0.2853186;-0.08448754;0;3;0;1505;3709;-733;32768;0.4833795;-0.7611153;0.4307479;-0.03878116;0;3;-4;2986;2848;707;256;0.1703601;-0.2382271;-0.6454294;-0.7054404;-1;1;-1;270;4034;-500;128;-0.1481994;0.2479224;0.632964;0.7182813;0;0;1;-456;4000;528;4;-0.5844875;0.1371191;-0.4459834;-0.6638309;0;-1;1;2628;3058;362;16;0.7670967;-0.6288089;-0.0166205;-0.1260388;-2;-4;-1;767;4061;-670;2;0.5290859;-0.6935034;-0.3199446;-0.3698061;0;1;-3;266;3822;-996;8;0.3947368;-0.8160633;0.3033241;0.2936288;-2;4;3;1179;3393;2013;0.2534316;2.447878;1.298485;0.2593871;2.990593;1.243281;0.2646198;3.467433;1.192744;0.3150293;4.195113;1.27277;0.07964504;4.540564;1.27043;-0.270953;4.418227;1.317905;-0.7148951;4.71429;0.5605465;-0.03416574;4.802477;1.213714;0.598745;4.504607;1.270429;0.8768658;4.338719;1.317904;0.8691881;3.444344;1.67611;0.2141157;2.779591;1.839726;-0.05882895;2.405259;1.295474;-0.008578047;1.304365;0.3329944;0;0;0;-0.05882895;2.405259;1.295474;-0.008578047;1.304365;0.3329944;0;0;0
950215.5241;NotLabelled;16384;0.7943126;0.3462604;0.4224377;0.265928;-14;1;-2;2932;-1318;2678;65536;-0.5401662;-0.4764543;0.5954052;0.3559557;-11;8;-1;3886;-362;-1235;8192;0.5817174;-0.7570072;-0.2853186;-0.08448754;1;5;0;1465;3775;-743;32768;0.4833795;-0.7611153;0.4307479;-0.03878116;0;4;-3;2982;2836;689;256;0.1703601;-0.2382271;-0.6468144;-0.7041707;-2;3;-1;256;3998;-496;128;-0.1481994;0.2479224;0.632964;0.7182813;0;1;0;-464;3990;560;4;-0.5844875;0.1371191;-0.4459834;-0.6638309;0;0;1;2642;3004;386;16;0.7670967;-0.6288089;-0.0166205;-0.1260388;-2;-2;0;689;4123;-704;2;0.5290859;-0.6935034;-0.3199446;-0.3698061;1;-1;-2;256;3952;-1012;8;0.3947368;-0.8160633;0.3033241;0.2936288;-1;0;2;1173;3475;2145;0.2562543;2.447878;1.298611;0.26221;2.990592;1.243407;0.2674426;3.467432;1.19287;0.3164315;4.19521;1.272886;0.08037329;4.540201;1.270541;-0.2699851;4.417181;1.318018;-0.7163134;4.716283;0.5632607;-0.03278261;4.803454;1.213633;0.5995426;4.505258;1.27054;0.8779866;4.339913;1.318017;0.8724422;3.445893;1.677144;0.218733;2.780319;1.842862;-0.05600619;2.405258;1.2956;-0.007852465;1.304365;0.3330132;0;0;0;-0.05600619;2.405258;1.2956;-0.007852465;1.304365;0.3330132;0;0;0
950236.5277;NotLabelled;16384;0.7928235;0.3490305;0.4238227;0.2645429;-15;1;-4;2884;-1370;2564;65536;-0.5401662;-0.4764543;0.5929013;0.3601108;-14;10;0;3988;-322;-1223;8192;0.5803324;-0.7573911;-0.2867036;-0.08587258;3;8;1;1315;3855;-705;32768;0.4833795;-0.7618975;0.4293629;-0.03878116;2;9;-1;3020;2788;659;256;0.1703601;-0.2368421;-0.6468144;-0.7046378;-3;5;-1;324;4052;-524;128;-0.1481994;0.2479224;0.632964;0.7182813;1;1;0;-514;4014;566;4;-0.5844875;0.1371191;-0.4459834;-0.6638309;0;2;1;2646;3014;376;16;0.7659593;-0.6301939;-0.0166205;-0.1260388;-1;0;0;775;4149;-644;2;0.5290859;-0.6927631;-0.3199446;-0.3711911;0;3;0;430;4028;-930;8;0.3933518;-0.8172286;0.3033241;0.2922437;0;0;0;1107;3445;2247;0.2563969;2.447878;1.298617;0.2623526;2.990593;1.243413;0.2675853;3.467433;1.192876;0.3173903;4.195439;1.270265;0.08170927;4.540678;1.266737;-0.2687718;4.418213;1.314741;-0.718339;4.719193;0.5626574;-0.03137934;4.805291;1.20955;0.6008399;4.505166;1.266737;0.8791146;4.339688;1.314741;0.8736097;3.445668;1.673868;0.2199191;2.780094;1.839658;-0.05586356;2.405258;1.295606;-0.007815838;1.304365;0.3330137;0;0;0;-0.05586356;2.405258;1.295606;-0.007815838;1.304365;0.3330137;0;0;0
950256.5361;NotLabelled;16384;0.7919314;0.3504155;0.4252077;0.2631579;-15;0;-5;2962;-1412;2534;65536;-0.5401662;-0.4764543;0.5920579;0.3614958;-15;10;1;3914;-324;-1171;8192;0.5789474;-0.7577671;-0.2880886;-0.08725762;5;7;1;1325;3901;-697;32768;0.4847645;-0.761725;0.4279778;-0.0401662;1;11;-2;3038;2810;687;256;0.1689751;-0.2354571;-0.6481994;-0.7041625;-3;8;-1;320;4026;-408;128;-0.1468144;0.2465374;0.632964;0.7190421;0;1;0;-464;4018;498;4;-0.5858725;0.1371191;-0.4459834;-0.6626089;0;4;0;2628;3024;394;16;0.7659593;-0.6301939;-0.0166205;-0.1260388;-1;-4;0;853;4137;-630;2;0.5290859;-0.6921218;-0.3213296;-0.3711911;-1;6;1;340;3974;-928;8;0.3933518;-0.8172286;0.3033241;0.2922437;1;-1;0;1125;3427;2233;0.2622551;2.448808;1.295121;0.2682106;2.991523;1.239916;0.2734434;3.468363;1.189379;0.3218248;4.196466;1.266758;0.08546919;4.541243;1.263226;-0.2647718;4.418094;1.311232;-0.7202765;4.722596;0.5641551;-0.0277921;4.805713;1.205523;0.6046683;4.506747;1.263226;0.8832659;4.341815;1.311231;0.8759842;3.448401;1.671836;0.2236624;2.782009;1.83972;-0.05000544;2.406188;1.29211;-0.004050925;1.305295;0.329415;0;0;0;-0.05000544;2.406188;1.29211;-0.004050925;1.305295;0.329415;0;0;0
950276.5367;NotLabelled;16384;0.7899535;0.3531856;0.4265928;0.2631579;-15;1;-6;3020;-1392;2542;65536;-0.5415512;-0.4764543;0.5890874;0.3642659;-15;8;1;3940;-350;-1091;8192;0.5789474;-0.7572391;-0.2894737;-0.08725762;5;6;0;1325;3835;-653;32768;0.4847645;-0.7624273;0.4265928;-0.04155125;2;11;-2;2916;2774;797;256;0.16759;-0.234072;-0.6481994;-0.7049549;-3;6;-1;304;4064;-412;128;-0.1468144;0.2465374;0.634349;0.7178205;0;3;0;-458;4008;546;4;-0.5858725;0.1371191;-0.4459834;-0.6626089;0;5;0;2676;3026;398;16;0.7659881;-0.6301939;-0.01523546;-0.1260388;-2;-9;0;803;4107;-570;2;0.5290859;-0.6914771;-0.3227147;-0.3711911;-2;9;0;304;3970;-910;8;0.3933518;-0.8167319;0.3033241;0.2936288;0;0;0;985;3425;2091;0.2694961;2.447768;1.296622;0.2754523;2.990528;1.241869;0.2806854;3.46741;1.191728;0.329787;4.195669;1.267167;0.09376723;4.540666;1.26275;-0.2565874;4.417986;1.311128;-0.7213528;4.723737;0.5702913;-0.024863;4.805877;1.207435;0.6129324;4.505662;1.262774;0.8913755;4.340586;1.311182;0.884528;3.448087;1.674049;0.2328852;2.780875;1.841312;-0.04276448;2.40515;1.293572;-0.002693415;1.305296;0.3294283;0;0;0;-0.04276448;2.40515;1.293572;-0.002693415;1.305296;0.3294283;0;0;0
950297.5319;NotLabelled;16384;0.7890435;0.3545706;0.4279778;0.2617728;-15;4;-5;3002;-1368;2536;65536;-0.5415512;-0.4764543;0.5882286;0.365651;-16;6;1;3984;-442;-997;8192;0.5775623;-0.7581353;-0.2894737;-0.08864266;4;5;1;1309;3795;-625;32768;0.4847645;-0.763124;0.4252077;-0.04293629;1;10;-1;2906;2938;781;256;0.166205;-0.232687;-0.6495845;-0.7044662;-3;6;0;322;4052;-414;128;-0.1468144;0.2465374;0.634349;0.7178205;0;3;1;-410;4016;568;4;-0.5872576;0.1385041;-0.4459834;-0.6610929;0;6;-1;2614;3084;376;16;0.7650998;-0.6315789;-0.01385042;-0.1246537;-1;-11;0;677;4179;-610;2;0.5290859;-0.690829;-0.3240997;-0.3711911;-1;8;0;272;3940;-960;8;0.3933518;-0.8177413;0.301939;0.2922437;0;0;0;1027;3451;2159;0.2771271;2.447356;1.298289;0.2830811;2.989918;1.241607;0.2883123;3.466619;1.189772;0.337332;4.194813;1.265894;0.101274;4.539787;1.261796;-0.2490679;4.417024;1.310053;-0.7183672;4.72549;0.5732114;-0.0147804;4.807823;1.202484;0.6204433;4.504842;1.261796;0.8989038;4.339751;1.310053;0.8933311;3.447301;1.673065;0.2418433;2.780458;1.842393;-0.03513354;2.404728;1.295403;0.0009805709;1.304874;0.3311025;0;0;0;-0.03513354;2.404728;1.295403;0.0009805709;1.304874;0.3311025;0;0;0
950317.5998;NotLabelled;16384;0.787369;0.3559557;0.4307479;0.2603878;-15;6;-3;3042;-1372;2440;65536;-0.5429363;-0.4750692;0.5872086;0.367036;-18;4;0;3988;-464;-953;8192;0.5775623;-0.7574417;-0.2908587;-0.0900277;5;4;2;1345;3811;-587;32768;0.4847645;-0.7638941;0.4238227;-0.04293629;1;8;0;2934;2908;733;256;0.166205;-0.2313019;-0.6495845;-0.7049222;-4;4;0;280;4034;-440;128;-0.1454294;0.2451524;0.634349;0.7185764;0;2;0;-414;4052;474;4;-0.5872576;0.1385041;-0.4459834;-0.6610929;0;6;-1;2604;3010;376;16;0.7653242;-0.6315789;-0.01385042;-0.1232687;0;-1;0;615;4097;-734;2;0.5277008;-0.6911427;-0.3240997;-0.3725762;-3;8;0;96;4008;-1000;8;0.3933518;-0.8177413;0.301939;0.2922437;0;0;0;1075;3503;2097;0.2862592;2.449139;1.294036;0.292213;2.991701;1.237354;0.2974442;3.468402;1.185519;0.3471812;4.196749;1.259681;0.1114559;4.541939;1.254703;-0.2389955;4.419643;1.303352;-0.7176379;4.729962;0.5733289;-0.01008236;4.811345;1.19826;0.630591;4.506492;1.254702;0.9089009;4.341262;1.30335;0.9025273;3.449075;1.666994;0.2512133;2.782598;1.83842;-0.02600163;2.406511;1.29115;0.005707353;1.305699;0.3277884;0;0;0;-0.02600163;2.406511;1.29115;0.005707353;1.305699;0.3277884;0;0;0
950338.7868;NotLabelled;16384;0.7870669;0.3559557;0.432133;0.2590028;-13;9;-3;3008;-1428;2464;65536;-0.5443213;-0.4736842;0.5853043;0.3698061;-16;2;0;3946;-390;-1025;8192;0.5761772;-0.7584959;-0.2908587;-0.0900277;4;3;3;1269;3829;-599;32768;0.4847645;-0.7645819;0.4224377;-0.04432133;1;7;0;2854;2956;677;256;0.1648199;-0.2299169;-0.6509695;-0.7044227;-4;2;0;274;3986;-420;128;-0.1454294;0.2451524;0.634349;0.7185764;-1;0;0;-474;3936;518;4;-0.5872576;0.1398892;-0.4459834;-0.6608013;2;1;-1;2448;2956;322;16;0.7650735;-0.6315789;-0.01523546;-0.1246537;0;16;1;585;4075;-796;2;0.5290859;-0.6894308;-0.3254848;-0.3725762;-2;2;0;184;3938;-924;8;0.3947368;-0.8170736;0.301939;0.2922437;0;3;0;1037;3481;2143;0.2870093;2.449466;1.292842;0.2929637;2.992075;1.236607;0.2981953;3.468818;1.185164;0.3465048;4.197262;1.259319;0.1101052;4.54199;1.254325;-0.2401085;4.41901;1.30296;-0.724264;4.729412;0.5766174;-0.0121392;4.809787;1.196469;0.6293086;4.507559;1.254349;0.9079389;4.342874;1.303012;0.9015392;3.450739;1.666785;0.2516051;2.783443;1.840248;-0.02525133;2.406841;1.289919;0.004417211;1.306029;0.3264915;0;0;0;-0.02525133;2.406841;1.289919;0.004417211;1.306029;0.3264915;0;0;0
950359.8984;NotLabelled;16384;0.7864037;0.3587258;0.433518;0.2548476;-10;4;0;2912;-1396;2368;65536;-0.5457063;-0.4722992;0.5833739;0.3725762;-11;2;-2;3886;-396;-1197;8192;0.5761772;-0.7579634;-0.2922437;-0.0900277;2;1;2;1317;3829;-573;32768;0.4847645;-0.7653455;0.4210526;-0.04432133;0;7;0;2772;2900;679;256;0.1648199;-0.2299169;-0.6523545;-0.7031403;-3;1;0;310;3930;-320;128;-0.1454294;0.2451524;0.634349;0.7185764;-4;0;0;-370;3928;626;4;-0.5872576;0.1398892;-0.4459834;-0.6608013;2;0;0;2460;3022;400;16;0.7647863;-0.6315789;-0.01800554;-0.1260388;0;16;1;695;4109;-792;2;0.5290859;-0.6894308;-0.3254848;-0.3725762;-1;1;1;228;3934;-914;8;0.3947368;-0.8170736;0.301939;0.2922437;0;5;0;1001;3505;2297;0.2905385;2.451555;1.290251;0.2964928;2.994164;1.234016;0.3017245;3.470908;1.182573;0.3507478;4.199502;1.254756;0.1146771;4.544442;1.248887;-0.2356432;4.421928;1.297931;-0.7232332;4.733171;0.5742514;-0.003953397;4.811615;1.186035;0.6338474;4.509513;1.248886;0.9123306;4.344693;1.29793;0.9042166;3.453122;1.66305;0.254476;2.786192;1.838626;-0.02172214;2.40893;1.287328;0.005438238;1.306119;0.3261154;0;0;0;-0.02172214;2.40893;1.287328;0.005438238;1.306119;0.3261154;0;0;0
950402.6206;NotLabelled;16384;0.7854529;0.3601108;0.434903;0.2534626;-6;0;1;2918;-1424;2502;65536;-0.5470914;-0.4709141;0.5814173;0.3753462;-4;6;-1;3840;-372;-1163;8192;0.5761772;-0.7579634;-0.2922437;-0.0900277;0;0;0;1347;3767;-597;32768;0.4847645;-0.7660244;0.4196676;-0.04570637;-2;7;0;2888;2942;661;256;0.1634349;-0.2271468;-0.6523545;-0.7043628;0;5;0;396;3952;-300;128;-0.1454294;0.2451524;0.632964;0.7197967;-2;0;0;-378;3966;440;4;-0.5872576;0.1398892;-0.4459834;-0.6608013;0;0;0;2708;3066;418;16;0.7654331;-0.6301939;-0.01939058;-0.1288089;0;4;-1;805;4059;-642;2;0.5290859;-0.6887752;-0.3268698;-0.3725762;-1;2;2;332;3964;-904;8;0.3947368;-0.8175841;0.300554;0.2922437;1;0;-1;1195;3421;2111;0.2880064;2.452064;1.288244;0.2939608;2.994673;1.232009;0.2991924;3.471416;1.180566;0.3490069;4.200214;1.250099;0.113301;4.545382;1.243039;-0.2371369;4.423418;1.292611;-0.728037;4.740933;0.573911;-0.004159451;4.817479;1.180491;0.6324339;4.509901;1.243038;0.9107544;4.344964;1.292611;0.9040464;3.453741;1.658605;0.2553431;2.785992;1.834907;-0.0242542;2.409438;1.285321;0.002798975;1.306628;0.3241056;0;0;0;-0.0242542;2.409438;1.285321;0.002798975;1.306628;0.3241056;0;0;0
950422.5493;NotLabelled;16384;0.7848164;0.3614958;0.434903;0.2534626;-5;-1;3;2950;-1364;2580;65536;-0.5457063;-0.4709141;0.5827175;0.3753462;-3;6;-2;3888;-426;-1169;8192;0.5761772;-0.7579634;-0.2922437;-0.0900277;0;0;0;1315;3859;-619;32768;0.4847645;-0.7660244;0.4196676;-0.04570637;-5;3;1;2940;2870;697;256;0.1620499;-0.2271468;-0.6537396;-0.703398;0;5;0;364;3992;-348;128;-0.1454294;0.2451524;0.632964;0.7197967;-2;0;0;-442;3980;500;4;-0.5872576;0.1398892;-0.4459834;-0.6608013;0;2;0;2684;3056;478;16;0.764056;-0.6315789;-0.01939058;-0.1301939;0;1;0;819;4123;-638;2;0.5290859;-0.6887752;-0.3268698;-0.3725762;-1;1;0;222;3954;-922;8;0.3947368;-0.8175841;0.300554;0.2922437;0;0;-1;1005;3383;2093;0.2944244;2.450913;1.293109;0.300381;2.993718;1.238803;0.3056147;3.470642;1.189056;0.353902;4.199478;1.259257;0.1174837;4.544164;1.252447;-0.2327137;4.421431;1.301819;-0.7352407;4.738256;0.5908918;-0.003257573;4.812935;1.187902;0.6366891;4.509759;1.252548;0.9153377;4.345353;1.302045;0.9130617;3.455436;1.671259;0.2648829;2.788049;1.85083;-0.01783609;2.408298;1.290021;0.003441662;1.305487;0.3286607;0;0;0;-0.01783609;2.408298;1.290021;0.003441662;1.305487;0.3286607;0;0;0
950443.5229;NotLabelled;16384;0.7855824;0.3614958;0.433518;0.2534626;-4;0;4;2942;-1344;2548;65536;-0.5457063;-0.4709141;0.581823;0.3767313;-2;5;-3;3924;-456;-1117;8192;0.5761772;-0.7579634;-0.2922437;-0.0900277;-1;-1;0;1259;3793;-723;32768;0.4833795;-0.7668992;0.4196676;-0.04570637;-7;1;1;2956;2844;741;256;0.1606648;-0.2257618;-0.6537396;-0.7041612;0;4;0;294;3982;-392;128;-0.1454294;0.2451524;0.632964;0.7197967;-1;-1;0;-496;4026;520;4;-0.5886427;0.1412742;-0.4459834;-0.6592725;1;2;0;2534;3008;420;16;0.7640196;-0.6315789;-0.02077562;-0.1301939;0;2;0;785;4061;-656;2;0.5290859;-0.6887752;-0.3268698;-0.3725762;-1;2;1;186;3906;-978;8;0.3947368;-0.8175841;0.300554;0.2922437;1;0;0;1121;3459;2193;0.3022325;2.451498;1.290711;0.3081891;2.994303;1.236406;0.3134227;3.471227;1.186659;0.36385;4.200108;1.254866;0.1284293;4.545457;1.247211;-0.2221033;4.423875;1.297048;-0.7229944;4.744827;0.586817;0.008620322;4.817345;1.184545;0.6475327;4.509546;1.24721;0.9257226;4.344469;1.297046;0.9220204;3.453246;1.663083;0.2742386;2.785858;1.844081;-0.01002806;2.408883;1.287624;0.009132609;1.306073;0.3262189;0;0;0;-0.01002806;2.408883;1.287624;0.009132609;1.306073;0.3262189;0;0;0
950463.5184;NotLabelled;16384;0.7853894;0.3628809;0.433518;0.2520775;-3;2;6;2870;-1380;2510;65536;-0.5443213;-0.4709141;0.5822218;0.3781163;-2;2;-5;3838;-404;-1117;8192;0.5761772;-0.7584959;-0.2908587;-0.0900277;0;-3;0;1427;3791;-733;32768;0.4806094;-0.7693927;0.4182825;-0.04570637;-7;6;3;3010;2874;833;256;0.1592798;-0.2257618;-0.6537396;-0.7044758;1;5;0;366;3900;-342;128;-0.1440443;0.2451524;0.632964;0.7200751;-1;0;0;-434;3948;560;4;-0.5886427;0.1412742;-0.4459834;-0.6592725;1;0;0;2494;3002;386;16;0.764056;-0.6315789;-0.01939058;-0.1301939;0;-5;-1;891;4123;-612;2;0.5290859;-0.6881162;-0.3282548;-0.3725762;-3;5;1;312;3922;-804;8;0.3947368;-0.8170877;0.300554;0.2936288;1;3;0;1009;3419;2077;0.3055036;2.452879;1.288014;0.3114602;2.995684;1.233709;0.3166937;3.472608;1.183961;0.3670382;4.201433;1.252826;0.1315807;4.546764;1.245465;-0.2189419;4.425099;1.295171;-0.7203339;4.747215;0.5858214;0.01500016;4.818841;1.179076;0.6506878;4.51091;1.245465;0.9288926;4.345817;1.29517;0.9266707;3.454594;1.661219;0.2791514;2.788415;1.847534;-0.006756783;2.410264;1.284927;0.008115023;1.306496;0.3245451;0;0;0;-0.006756783;2.410264;1.284927;0.008115023;1.306496;0.3245451;0;0;0
950504.6173;NotLabelled;16384;0.7859547;0.3642659;0.432133;0.2506925;-4;1;8;2938;-1396;2506;65536;-0.5443213;-0.4709141;0.58132;0.3795014;-1;3;-5;3876;-398;-1075;8192;0.5761772;-0.7584959;-0.2908587;-0.0900277;0;-2;0;1471;3709;-811;32768;0.4792244;-0.7701728;0.4182825;-0.04709141;-5;10;4;2912;2780;859;256;0.1565097;-0.2229917;-0.6537396;-0.7059773;1;11;0;318;3950;-374;128;-0.1454294;0.2451524;0.632964;0.7197967;0;-1;0;-424;3944;572;4;-0.5886427;0.1412742;-0.4459834;-0.6592725;0;1;0;2546;3018;430;16;0.7642908;-0.6315789;-0.01939058;-0.1288089;0;-6;-1;755;4131;-728;2;0.5277008;-0.6885175;-0.3296399;-0.3725762;-2;6;2;266;3916;-1018;8;0.3947368;-0.8175841;0.300554;0.2922437;0;4;0;1139;3495;2107;0.3102719;2.452453;1.289693;0.3162289;2.995304;1.235847;0.321463;3.47227;1.186505;0.3731548;4.200938;1.25603;0.1383389;4.54671;1.248967;-0.2124121;4.425652;1.298541;-0.7157564;4.750767;0.5919478;0.02033579;4.819345;1.184622;0.6573787;4.509894;1.248966;0.9352733;4.344241;1.29854;0.9323648;3.452671;1.663738;0.2852886;2.788127;1.857289;-0.001988709;2.409841;1.286566;0.01106799;1.306073;0.3261584;0;0;0;-0.001988709;2.409841;1.286566;0.01106799;1.306073;0.3261584;0;0;0
950525.5205;NotLabelled;16384;0.7871546;0.3642659;0.4307479;0.2493075;0;0;9;2888;-1470;2364;65536;-0.5429363;-0.4709141;0.5817093;0.3808864;1;4;-6;3896;-276;-1149;8192;0.5747922;-0.7590142;-0.2922437;-0.0900277;3;4;1;1511;3691;-769;32768;0.4778393;-0.7723554;0.4155124;-0.04986149;-2;18;4;2784;2804;853;256;0.1537396;-0.2202216;-0.6551247;-0.7061716;0;11;1;396;4028;-384;128;-0.1454294;0.2451524;0.632964;0.7197967;0;-3;0;-502;3972;436;4;-0.5886427;0.1426593;-0.4445983;-0.6599094;1;2;0;2586;3046;396;16;0.7645568;-0.6315789;-0.01800554;-0.1274238;0;-6;-1;807;4103;-662;2;0.5277008;-0.6878527;-0.3310249;-0.3725762;-1;3;0;80;3972;-874;8;0.3961219;-0.8164171;0.300554;0.2936288;0;-2;0;1021;3495;2011;0.3186443;2.452783;1.288395;0.3246009;2.995587;1.23409;0.3298346;3.472511;1.184343;0.3813796;4.201066;1.255154;0.1464989;4.546807;1.248669;-0.2042351;4.425594;1.297987;-0.7114719;4.754863;0.5961159;0.03068066;4.822562;1.181286;0.6655456;4.510087;1.248668;0.9434656;4.3444;1.297985;0.943489;3.45283;1.663195;0.2959659;2.790696;1.863394;0.006383836;2.410168;1.285308;0.01168154;1.306399;0.3248256;0;0;0;0.006383836;2.410168;1.285308;0.01168154;1.306399;0.3248256;0;0;0
950566.7086;NotLabelled;16384;0.7872691;0.365651;0.4293629;0.2493075;1;-2;8;2874;-1546;2424;65536;-0.5415512;-0.4709141;0.5829989;0.3808864;4;4;-5;3838;-186;-1123;8192;0.5734072;-0.760061;-0.2922437;-0.0900277;2;5;1;1483;3743;-755;32768;0.4764543;-0.7738628;0.4141274;-0.05124654;0;19;4;2846;2836;823;256;0.1523546;-0.2202216;-0.6551247;-0.7064717;1;10;0;290;3994;-264;128;-0.1454294;0.2465374;0.632964;0.7193235;0;-3;0;-468;3986;480;4;-0.5886427;0.1426593;-0.4445983;-0.6599094;0;0;0;2536;2972;410;16;0.7647863;-0.6315789;-0.01800554;-0.1260388;1;-6;-1;631;4155;-674;2;0.5277008;-0.6871007;-0.3310249;-0.3739612;-1;0;0;180;3942;-890;8;0.3961219;-0.8164171;0.300554;0.2936288;0;2;0;1111;3481;2161;0.3236808;2.45323;1.288042;0.3296375;2.996035;1.233736;0.3348711;3.472959;1.183989;0.3870391;4.201603;1.253402;0.1524487;4.547529;1.246288;-0.1983807;4.426706;1.295885;-0.7085358;4.758533;0.5973419;0.03803813;4.823189;1.177208;0.6714643;4.510373;1.246287;0.9492514;4.344546;1.295883;0.9512734;3.454195;1.664049;0.3038302;2.79404;1.870933;0.01142025;2.410615;1.284954;0.01468295;1.306304;0.3250865;0;0;0;0.01142025;2.410615;1.284954;0.01468295;1.306304;0.3250865;0;0;0
950588.737;NotLabelled;16384;0.78921;0.365651;0.4265928;0.2479224;3;-2;9;2792;-1546;2358;65536;-0.5387812;-0.4722992;0.5835382;0.3822715;7;3;-6;3940;-216;-1031;8192;0.5734072;-0.7593616;-0.2936288;-0.09141274;1;3;1;1453;3729;-667;32768;0.4764543;-0.7756864;0.4099723;-0.0567867;4;18;5;2898;2880;879;256;0.1495845;-0.2174515;-0.6565097;-0.706636;1;8;0;298;3938;-322;128;-0.1468144;0.2465374;0.632964;0.7190421;1;-6;0;-346;3960;498;4;-0.5886427;0.1426593;-0.4445983;-0.6599094;0;0;1;2482;2980;378;16;0.7647863;-0.6315789;-0.01800554;-0.1260388;0;-5;-1;731;4131;-756;2;0.5290859;-0.6860347;-0.3310249;-0.3739612;0;-2;1;124;3960;-820;8;0.3961219;-0.8164171;0.300554;0.2936288;0;1;0;1059;3423;2129;0.324068;2.453554;1.286806;0.3300247;2.99636;1.232517;0.3352583;3.473285;1.182785;0.3887839;4.201771;1.252831;0.1548411;4.548141;1.246001;-0.1962166;4.427932;1.295471;-0.706409;4.762496;0.5982633;0.0396232;4.824986;1.179062;0.6737862;4.510014;1.246001;0.9512597;4.343626;1.295471;0.9515814;3.454156;1.665768;0.3035262;2.795625;1.875881;0.01180756;2.410939;1.283717;0.01326267;1.306628;0.3238456;0;0;0;0.01180756;2.410939;1.283717;0.01326267;1.306628;0.3238456;0;0;0
950609.5175;NotLabelled;16384;0.7895211;0.365651;0.4252077;0.2493075;5;-2;9;2790;-1500;2380;65536;-0.5373961;-0.4722992;0.584814;0.3822715;8;2;-6;3854;-218;-1001;8192;0.5734072;-0.7588246;-0.2950138;-0.09141274;0;3;1;1507;3717;-735;32768;0.4764543;-0.7770417;0.4072022;-0.05817174;6;18;4;2760;2854;911;256;0.1481994;-0.2174515;-0.6565097;-0.7069277;2;8;0;336;3904;-298;128;-0.1481994;0.2479224;0.632964;0.7182813;0;-4;0;-464;3960;584;4;-0.5886427;0.1426593;-0.4445983;-0.6599094;0;-3;0;2546;3040;434;16;0.7650446;-0.6315789;-0.0166205;-0.1246537;0;-8;-1;797;4101;-748;2;0.5290859;-0.6860347;-0.3310249;-0.3739612;0;0;0;170;3878;-856;8;0.3961219;-0.8174222;0.299169;0.2922437;0;2;0;1003;3427;2081;0.3345731;2.453556;1.286628;0.3405292;2.996316;1.231876;0.3457623;3.473198;1.181735;0.3999101;4.201775;1.250343;0.1662573;4.548326;1.242867;-0.1848942;4.42851;1.292624;-0.6955442;4.766765;0.5975348;0.05313054;4.826276;1.175239;0.6851704;4.509765;1.242867;0.9625111;4.343241;1.292623;0.9657518;3.453514;1.662287;0.3160663;2.797236;1.87441;0.02231252;2.410939;1.283579;0.01591249;1.306628;0.3237273;0;0;0;0.02231252;2.410939;1.283579;0.01591249;1.306628;0.3237273;0;0;0
950629.5187;NotLabelled;16384;0.7910067;0.365651;0.4224377;0.2493075;9;-3;8;2746;-1538;2294;65536;-0.536011;-0.4736842;0.5858678;0.3808864;10;0;-5;3786;-160;-957;8192;0.5720221;-0.7598692;-0.2950138;-0.09141274;0;6;1;1379;3661;-691;32768;0.4764543;-0.7775537;0.4058172;-0.06094183;7;14;4;2868;2860;833;256;0.1481994;-0.2160665;-0.6565097;-0.7073523;2;7;0;314;3932;-308;128;-0.1481994;0.2479224;0.632964;0.7182813;0;-2;0;-380;3930;550;4;-0.5886427;0.1426593;-0.4445983;-0.6599094;0;-5;0;2610;3022;400;16;0.765269;-0.6315789;-0.0166205;-0.1232687;0;-9;-1;813;4115;-728;2;0.5290859;-0.6867879;-0.3310249;-0.3725762;0;-2;0;198;3914;-870;8;0.3961219;-0.8174222;0.299169;0.2922437;-1;1;0;1007;3441;2079;0.3373418;2.453466;1.2869;0.3432975;2.996181;1.231696;0.3485301;3.473021;1.181159;0.4040402;4.201437;1.250382;0.1710384;4.548432;1.243184;-0.1803403;4.429233;1.292818;-0.6904666;4.767243;0.5972247;0.05767077;4.824591;1.175843;0.6898782;4.508896;1.243183;0.9669029;4.341811;1.292817;0.9722363;3.45243;1.663288;0.3233758;2.7957;1.876531;0.02508122;2.410846;1.283889;0.01687558;1.306535;0.3240514;0;0;0;0.02508122;2.410846;1.283889;0.01687558;1.306535;0.3240514;0;0;0
950650.5281;NotLabelled;16384;0.7917448;0.365651;0.4210526;0.2493075;11;-4;8;2706;-1474;2328;65536;-0.534626;-0.4736842;0.5871319;0.3808864;12;-1;-4;3786;-136;-975;8192;0.5720221;-0.75933;-0.2963989;-0.09141274;0;6;0;1333;3725;-635;32768;0.4778393;-0.7773157;0.4044321;-0.06232687;8;9;2;2804;2770;937;256;0.1468144;-0.2160665;-0.6565097;-0.7076411;3;7;0;260;3994;-324;128;-0.1481994;0.2479224;0.632964;0.7182813;-1;-2;0;-394;3884;564;4;-0.5886427;0.1426593;-0.4445983;-0.6599094;0;-3;0;2708;3046;358;16;0.7652978;-0.6315789;-0.01523546;-0.1232687;0;-9;-1;795;4113;-706;2;0.5290859;-0.6874537;-0.3296399;-0.3725762;0;-1;0;236;3974;-802;8;0.3961219;-0.8174222;0.299169;0.2922437;0;0;0;1085;3475;2073;0.3380503;2.453785;1.285658;0.344006;2.9965;1.230454;0.3492387;3.47334;1.179917;0.4033285;4.201863;1.249131;0.1696506;4.548404;1.241928;-0.1814948;4.42852;1.291564;-0.6884674;4.768818;0.5947818;0.05788207;4.827106;1.175611;0.6885664;4.50988;1.241927;0.9659168;4.343335;1.291563;0.9696922;3.45484;1.664173;0.3191057;2.799625;1.876819;0.02578974;2.411165;1.282647;0.01552469;1.306854;0.3228289;0;0;0;0.02578974;2.411165;1.282647;0.01552469;1.306854;0.3228289;0;0;0
950670.5429;NotLabelled;16384;0.7926807;0.3642659;0.4196676;0.2506925;12;-6;6;2766;-1490;2428;65536;-0.533241;-0.4736842;0.5892844;0.3795014;13;-4;-3;3850;-174;-903;8192;0.5720221;-0.7586198;-0.2977839;-0.09279778;0;4;0;1287;3769;-589;32768;0.4778393;-0.7772033;0.4044321;-0.06371191;8;4;2;2940;2798;863;256;0.1454294;-0.2146814;-0.6565097;-0.7083482;3;5;0;274;3962;-288;128;-0.1481994;0.2479224;0.632964;0.7182813;-1;0;0;-360;3930;562;4;-0.5872576;0.1412742;-0.4445983;-0.6614397;0;0;1;2714;2998;286;16;0.7657389;-0.6315789;-0.01523546;-0.1204986;0;-5;-2;631;4093;-784;2;0.5290859;-0.6874537;-0.3296399;-0.3725762;0;-3;0;270;3920;-914;8;0.3961219;-0.8174222;0.299169;0.2922437;-1;1;0;1015;3413;2177;0.3428716;2.453374;1.287136;0.3488272;2.996089;1.231932;0.3540598;3.472929;1.181395;0.4095146;4.201291;1.25122;0.176489;4.548277;1.244292;-0.1748845;4.429012;1.293806;-0.6821326;4.77045;0.5977824;0.06367987;4.826582;1.179513;0.6953318;4.508778;1.244291;0.972365;4.34167;1.293806;0.9789404;3.453522;1.667202;0.3285892;2.797384;1.877709;0.03061104;2.410755;1.284125;0.01854205;1.306444;0.3243282;0;0;0;0.03061104;2.410755;1.284125;0.01854205;1.306444;0.3243282;0;0;0
950691.534;NotLabelled;16384;0.794968;0.3614958;0.4168975;0.2520775;13;-2;4;2736;-1448;2506;65536;-0.5318559;-0.4750692;0.5911954;0.3767313;12;-7;0;3942;-244;-1009;8192;0.5734072;-0.7575734;-0.2977839;-0.09279778;-1;1;0;1323;3799;-613;32768;0.4792244;-0.7763501;0.4044321;-0.06371191;2;-3;0;2942;2796;917;256;0.1454294;-0.2132964;-0.6565097;-0.7087665;2;3;0;244;3972;-396;128;-0.1481994;0.2479224;0.632964;0.7182813;-3;0;0;-360;3976;450;4;-0.5886427;0.1412742;-0.4445983;-0.6602073;0;2;1;2642;2964;280;16;0.7657389;-0.6315789;-0.01523546;-0.1204986;0;-1;-1;629;4149;-766;2;0.5290859;-0.6874537;-0.3296399;-0.3725762;-1;0;0;294;3958;-752;8;0.3961219;-0.8179278;0.2977839;0.2922437;-1;1;0;1135;3443;2185;0.3435692;2.453043;1.285773;0.3495249;2.995758;1.230569;0.3547576;3.472598;1.180032;0.4101612;4.200907;1.250453;0.1771138;4.547883;1.243791;-0.174255;4.428555;1.293187;-0.6801139;4.768156;0.5952559;0.06512129;4.823037;1.177844;0.695959;4.508417;1.243791;0.9729998;4.341287;1.293187;0.9802843;3.452876;1.665946;0.3291899;2.797902;1.877773;0.03130877;2.410423;1.282762;0.01574226;1.30708;0.3219033;0;0;0;0.03130877;2.410423;1.282762;0.01574226;1.30708;0.3219033;0;0;0
950712.5525;NotLabelled;16384;0.7958809;0.3601108;0.4155124;0.2534626;11;-2;3;2772;-1454;2632;65536;-0.5318559;-0.4750692;0.5920758;0.3753462;10;-9;-2;3776;-226;-1091;8192;0.5734072;-0.7575734;-0.2977839;-0.09279778;-2;0;-1;1319;3769;-605;32768;0.4792244;-0.775627;0.4058172;-0.06371191;1;-4;0;2908;2850;907;256;0.1454294;-0.2132964;-0.6565097;-0.7087665;1;2;-1;272;3962;-356;128;-0.1481994;0.2479224;0.632964;0.7182813;0;1;0;-338;3978;524;4;-0.5886427;0.1412742;-0.4432133;-0.6611379;1;1;2;2564;2986;304;16;0.7657389;-0.6315789;-0.01523546;-0.1204986;0;0;-1;745;4129;-750;2;0.5304709;-0.6863856;-0.3296399;-0.3725762;0;1;0;344;3984;-822;8;0.3961219;-0.8179278;0.2977839;0.2922437;-1;0;0;1049;3443;2179;0.3483281;2.452013;1.286847;0.3542837;2.994727;1.231642;0.3595164;3.471567;1.181105;0.413503;4.199984;1.251515;0.1797809;4.546505;1.24485;-0.1713551;4.426495;1.294248;-0.672428;4.763773;0.5917537;0.06973642;4.820538;1.17807;0.6987017;4.508049;1.244849;0.9760675;4.34146;1.294246;0.9865164;3.452168;1.664823;0.3362876;2.795928;1.875389;0.03606761;2.409393;1.283836;0.01643218;1.30708;0.3218688;0;0;0;0.03606761;2.409393;1.283836;0.01643218;1.30708;0.3218688;0;0;0
950733.6025;NotLabelled;16384;0.7972271;0.3587258;0.4141274;0.2534626;9;-2;1;2822;-1470;2622;65536;-0.5304709;-0.4750692;0.594191;0.3739612;9;-8;-1;3886;-234;-1151;8192;0.5734072;-0.7575734;-0.2977839;-0.09279778;0;0;-1;1395;3731;-643;32768;0.4792244;-0.775627;0.4058172;-0.06371191;1;-6;0;2912;2796;927;256;0.1440443;-0.2119114;-0.6565097;-0.7094645;0;2;0;268;3968;-394;128;-0.1481994;0.2479224;0.632964;0.7182813;0;2;0;-390;3970;540;4;-0.5886427;0.1412742;-0.4432133;-0.6611379;1;0;3;2602;3044;312;16;0.7657389;-0.6315789;-0.01523546;-0.1204986;-1;-1;-1;677;4133;-806;2;0.5290859;-0.6874537;-0.3296399;-0.3725762;0;1;0;278;3880;-910;8;0.3947368;-0.8185971;0.2977839;0.2922437;-2;0;0;1023;3375;2165;0.3441406;2.450543;1.288603;0.3500963;2.993258;1.233399;0.3553288;3.470098;1.182862;0.4093156;4.198515;1.253272;0.1755933;4.545036;1.246607;-0.1755426;4.425026;1.296005;-0.6737182;4.760454;0.5905696;0.06715754;4.818143;1.178424;0.6945142;4.50658;1.246606;0.97188;4.339991;1.296003;0.9823287;3.450699;1.666579;0.3310823;2.795281;1.876566;0.03188002;2.407924;1.285592;0.01643242;1.30708;0.3218686;0;0;0;0.03188002;2.407924;1.285592;0.01643242;1.30708;0.3218686;0;0;0
950754.5361;NotLabelled;16384;0.7967854;0.3587258;0.4141274;0.2548476;7;-2;0;2786;-1424;2646;65536;-0.5304709;-0.4750692;0.5950604;0.3725762;7;-5;0;3872;-242;-1253;8192;0.5734072;-0.7575734;-0.2977839;-0.09279778;0;0;0;1407;3743;-629;32768;0.4792244;-0.7749008;0.4072022;-0.06371191;1;-7;0;2856;2816;823;256;0.1440443;-0.2119114;-0.6565097;-0.7094645;0;-1;0;266;4076;-432;128;-0.1481994;0.2465374;0.632964;0.7187579;0;4;0;-436;4004;544;4;-0.5886427;0.1412742;-0.4418283;-0.6620643;1;0;3;2528;2994;330;16;0.7659556;-0.6315789;-0.01523546;-0.1191136;-1;-1;-1;631;4103;-724;2;0.5304709;-0.6863856;-0.3296399;-0.3725762;0;0;-1;196;3910;-854;8;0.3947368;-0.8185971;0.2977839;0.2922437;-2;0;0;913;3477;2033;0.3493081;2.450544;1.288465;0.3552637;2.993258;1.23326;0.3604963;3.470098;1.182723;0.4144376;4.198461;1.253724;0.1806963;4.544975;1.247323;-0.1704358;4.424905;1.296604;-0.670879;4.759835;0.592538;0.06943089;4.816332;1.18122;0.6996194;4.506548;1.247322;0.9769915;4.339934;1.296602;0.9904189;3.450643;1.667082;0.3400223;2.795226;1.879685;0.03704756;2.407924;1.285454;0.01772609;1.30708;0.3218001;0;0;0;0.03704756;2.407924;1.285454;0.01772609;1.30708;0.3218001;0;0;0
950774.7085;NotLabelled;16384;0.7974075;0.3573407;0.4141274;0.2548476;5;-2;0;2838;-1452;2734;65536;-0.5304709;-0.4750692;0.5959254;0.3711911;5;-3;1;3878;-228;-1217;8192;0.5747922;-0.7570668;-0.2963989;-0.09279778;0;0;-1;1349;3737;-703;32768;0.4792244;-0.7742841;0.4085872;-0.06232687;1;-9;0;2918;2816;839;256;0.1440443;-0.2119114;-0.6565097;-0.7094645;-1;-6;1;272;4024;-352;128;-0.1468144;0.2465374;0.632964;0.7190421;0;4;0;-488;3976;522;4;-0.5886427;0.1412742;-0.4418283;-0.6620643;2;0;3;2606;3010;334;16;0.7659268;-0.6315789;-0.0166205;-0.1191136;-1;1;-1;595;4111;-702;2;0.5304709;-0.6863856;-0.3296399;-0.3725762;-2;0;-1;216;4018;-882;8;0.3933518;-0.8182631;0.299169;0.2936288;-2;-3;1;1071;3397;2237;0.3430753;2.449373;1.289066;0.3490308;2.992086;1.233846;0.3542635;3.468925;1.183294;0.4082048;4.197288;1.254294;0.1744634;4.543801;1.247894;-0.1766686;4.423731;1.297174;-0.6747822;4.757304;0.590817;0.06424046;4.814748;1.181022;0.6933864;4.505374;1.247893;0.9707588;4.33876;1.297173;0.9826964;3.449469;1.667704;0.3312804;2.794878;1.879732;0.03081477;2.406754;1.286057;0.01566672;1.307392;0.3206387;0;0;0;0.03081477;2.406754;1.286057;0.01566672;1.307392;0.3206387;0;0;0
950795.5332;NotLabelled;16384;0.7975832;0.3559557;0.4141274;0.2562327;4;0;-2;2762;-1374;2624;65536;-0.5304709;-0.4750692;0.5967858;0.3698061;2;-3;2;3960;-294;-1183;8192;0.5734072;-0.7581164;-0.2963989;-0.09279778;1;0;0;1439;3819;-685;32768;0.4806094;-0.7726918;0.4099723;-0.06232687;4;-12;-2;2786;2874;845;256;0.1454294;-0.2119114;-0.6565097;-0.7091818;-1;-5;0;232;4010;-394;128;-0.1468144;0.2465374;0.634349;0.7178205;0;5;0;-386;3980;534;4;-0.5900277;0.1412742;-0.4404432;-0.6617543;1;-1;3;2672;3026;328;16;0.7657101;-0.6315789;-0.0166205;-0.1204986;-2;0;0;713;4161;-750;2;0.5318559;-0.6853129;-0.3296399;-0.3725762;-1;1;-1;200;3872;-848;8;0.3933518;-0.8182631;0.299169;0.2936288;-3;-2;1;891;3441;2211;0.3406452;2.449766;1.287601;0.3466012;2.992526;1.232848;0.3518344;3.469408;1.182708;0.4057757;4.197771;1.253708;0.1720343;4.544285;1.247307;-0.1790979;4.424215;1.296587;-0.6761922;4.756154;0.5887436;0.06154233;4.81455;1.180465;0.6909574;4.505857;1.247307;0.9683295;4.339243;1.296587;0.9812328;3.448731;1.664139;0.3303932;2.793795;1.876871;0.02838463;2.407149;1.284551;0.01323773;1.307787;0.319133;0;0;0;0.02838463;2.407149;1.284551;0.01323773;1.307787;0.319133;0;0;0
950816.5151;NotLabelled;16384;0.7974797;0.3545706;0.4155124;0.2562327;4;0;-4;2736;-1358;2600;65536;-0.5318559;-0.4750692;0.5964096;0.368421;1;-3;4;3858;-276;-1177;8192;0.5734072;-0.7581164;-0.2963989;-0.09279778;2;0;-1;1395;3835;-681;32768;0.4819945;-0.771202;0.4113573;-0.06094183;5;-12;-3;2842;2834;835;256;0.1468144;-0.2132964;-0.6565097;-0.7084809;-2;-9;1;224;3940;-386;128;-0.1454294;0.2451524;0.634349;0.7185764;0;4;0;-342;3986;546;4;-0.5900277;0.1412742;-0.4404432;-0.6617543;0;0;3;2656;3022;388;16;0.7656788;-0.6315789;-0.01800554;-0.1204986;-1;0;-1;699;4087;-670;2;0.5318559;-0.6853129;-0.3296399;-0.3725762;-1;0;-2;164;3982;-716;8;0.3933518;-0.8182631;0.299169;0.2936288;-3;-4;1;1135;3469;2157;0.3381176;2.446959;1.291533;0.3440716;2.989522;1.234851;0.3493028;3.466223;1.183015;0.401873;4.194744;1.253416;0.1674774;4.54081;1.246746;-0.1834244;4.420118;1.296145;-0.6784356;4.749064;0.5854504;0.05689597;4.808421;1.18006;0.6864721;4.503363;1.246745;0.9641612;4.337314;1.296145;0.9739128;3.447674;1.665903;0.3220495;2.792319;1.874162;0.02585697;2.404332;1.288647;0.01469634;1.30748;0.320323;0;0;0;0.02585697;2.404332;1.288647;0.01469634;1.30748;0.320323;0;0;0
950836.6339;NotLabelled;16384;0.7980941;0.3531856;0.4155124;0.2562327;3;-1;-5;2822;-1372;2616;65536;-0.5318559;-0.4750692;0.5964096;0.368421;0;-3;3;3788;-284;-1093;8192;0.5734072;-0.7579456;-0.2963989;-0.09418282;1;0;0;1395;3899;-581;32768;0.4819945;-0.77057;0.4127424;-0.05955679;4;-12;-4;2898;2890;869;256;0.1468144;-0.2146814;-0.6565097;-0.7080625;-1;-5;0;240;3986;-384;128;-0.1454294;0.2437673;0.634349;0.7190474;0;5;0;-318;3974;590;4;-0.5900277;0.1412742;-0.4404432;-0.6617543;0;0;2;2724;3026;378;16;0.7656788;-0.6315789;-0.01800554;-0.1204986;-1;2;0;691;4091;-578;2;0.5318559;-0.6853129;-0.3296399;-0.3725762;-1;-1;-2;144;3966;-840;8;0.3919668;-0.8189274;0.299169;0.2936288;-3;-4;1;1067;3445;2139;0.3304565;2.447354;1.290135;0.3364109;2.989963;1.2339;0.3416426;3.466706;1.182457;0.3942572;4.195281;1.252265;0.1598824;4.541356;1.245315;-0.1910264;4.420724;1.294816;-0.6816812;4.746309;0.5795662;0.05159336;4.808743;1.176397;0.6788749;4.503877;1.245341;0.9565544;4.337852;1.294873;0.9633751;3.448517;1.665431;0.3116404;2.791579;1.869052;0.01819581;2.404728;1.287211;0.01097853;1.307877;0.3188507;0;0;0;0.01819581;2.404728;1.287211;0.01097853;1.307877;0.3188507;0;0;0
950857.6163;NotLabelled;16384;0.7976481;0.3531856;0.4155124;0.2576177;2;-1;-6;2868;-1444;2620;65536;-0.533241;-0.4750692;0.5960267;0.367036;0;-4;2;3884;-250;-1207;8192;0.5734072;-0.7579456;-0.2963989;-0.09418282;0;0;0;1339;3853;-551;32768;0.4833795;-0.7697019;0.4127424;-0.05955679;4;-8;-3;2906;2970;831;256;0.1468144;-0.2146814;-0.6565097;-0.7080625;0;-2;0;268;3992;-396;128;-0.1440443;0.2437673;0.6357341;0.7181023;0;2;0;-350;3958;552;4;-0.5900277;0.1412742;-0.4390582;-0.662674;0;1;1;2646;3022;382;16;0.7645342;-0.632964;-0.01800554;-0.1204986;-1;0;0;739;4119;-600;2;0.5318559;-0.6859774;-0.3282548;-0.3725762;-1;0;-2;168;3900;-898;8;0.3919668;-0.8189274;0.299169;0.2936288;-3;-2;1;1059;3371;2043;0.3277643;2.447353;1.29017;0.3337186;2.98996;1.233919;0.3389503;3.466702;1.182462;0.3929864;4.195172;1.252277;0.1592854;4.541703;1.245344;-0.191855;4.421754;1.29486;-0.6828551;4.746281;0.5793667;0.04916984;4.808715;1.177731;0.6782038;4.503214;1.245343;0.9555622;4.336648;1.294859;0.9616319;3.446404;1.66324;0.3100355;2.789119;1.866185;0.0155037;2.404728;1.287248;0.01031147;1.307876;0.3188736;0;0;0;0.0155037;2.404728;1.287248;0.01031147;1.307876;0.3188736;0;0;0
950878.7342;NotLabelled;16384;0.7969251;0.3531856;0.4168975;0.2576177;2;0;-5;2882;-1400;2580;65536;-0.533241;-0.4736842;0.5971281;0.367036;0;-3;3;3978;-318;-1221;8192;0.5734072;-0.7579456;-0.2963989;-0.09418282;0;0;0;1375;3841;-525;32768;0.4833795;-0.7690636;0.4141274;-0.05817174;1;-6;-1;2928;3022;715;256;0.1468144;-0.2146814;-0.6565097;-0.7080625;0;1;0;258;4054;-382;128;-0.1440443;0.2437673;0.6357341;0.7181023;-1;2;0;-398;3960;580;4;-0.5900277;0.1398892;-0.4390582;-0.6629678;0;0;1;2596;3002;306;16;0.7645342;-0.632964;-0.01800554;-0.1204986;-1;0;0;667;4085;-618;2;0.533241;-0.684146;-0.3282548;-0.3739612;0;-2;-4;44;3944;-850;8;0.3905817;-0.8185842;0.300554;0.2950138;-4;-6;1;1139;3519;2139;0.3263724;2.446765;1.287918;0.3323251;2.989217;1.230193;0.3375551;3.465818;1.177441;0.3915913;4.194288;1.247256;0.1578903;4.540819;1.240323;-0.1932502;4.42087;1.289839;-0.6846139;4.744039;0.5739812;0.0477826;4.80955;1.17156;0.6768088;4.50233;1.240322;0.954167;4.335763;1.289838;0.9601734;3.44552;1.65822;0.3089848;2.787008;1.858477;0.01411176;2.404132;1.285121;0.01309851;1.308781;0.3150363;0;0;0;0.01411176;2.404132;1.285121;0.01309851;1.308781;0.3150363;0;0;0
950899.5323;NotLabelled;16384;0.7970887;0.3518005;0.4168975;0.2590028;0;-1;-3;2976;-1394;2614;65536;-0.534626;-0.4736842;0.5967392;0.365651;-1;-1;3;3892;-454;-1215;8192;0.5747922;-0.7568958;-0.2963989;-0.09418282;-1;-2;0;1269;3863;-621;32768;0.4847645;-0.7681913;0.4141274;-0.05817174;-1;-3;-1;2870;2936;731;256;0.1468144;-0.2132964;-0.6565097;-0.7084809;0;1;0;286;4042;-444;128;-0.1440443;0.2423823;0.6357341;0.7185709;-1;1;0;-334;4066;552;4;-0.5900277;0.1398892;-0.4390582;-0.6629678;0;-1;2;2510;2972;346;16;0.7645342;-0.632964;-0.01800554;-0.1204986;0;1;0;659;4113;-690;2;0.533241;-0.6848089;-0.3268698;-0.3739612;0;-2;-3;40;4020;-724;8;0.3891967;-0.8192436;0.300554;0.2950138;-3;-1;1;905;3441;2277;0.328029;2.444751;1.290184;0.3339817;2.987203;1.232459;0.3392118;3.463804;1.179707;0.393248;4.192275;1.249522;0.1595468;4.538805;1.242589;-0.1915936;4.418856;1.292105;-0.6854355;4.740891;0.5774421;0.04709077;4.804236;1.175096;0.6784655;4.500316;1.242588;0.9558237;4.333749;1.292104;0.9618934;3.443505;1.660485;0.3112639;2.784647;1.861419;0.01576835;2.402118;1.287387;0.01309842;1.308781;0.3150361;0;0;0;0.01576835;2.402118;1.287387;0.01309842;1.308781;0.3150361;0;0;0
950920.5204;NotLabelled;16384;0.7963628;0.3518005;0.4182825;0.2590028;0;0;-2;2972;-1358;2558;65536;-0.536011;-0.4736842;0.5954955;0.365651;-1;0;2;3918;-418;-1169;8192;0.5747922;-0.7568958;-0.2963989;-0.09418282;0;-2;0;1321;3817;-625;32768;0.4847645;-0.7682949;0.4141274;-0.0567867;-1;-5;-2;2862;2924;737;256;0.1468144;-0.2132964;-0.6565097;-0.7084809;0;0;0;246;3968;-432;128;-0.1440443;0.2423823;0.6357341;0.7185709;0;0;0;-388;3956;548;4;-0.5900277;0.1398892;-0.4390582;-0.6629678;0;-3;2;2566;2958;388;16;0.7645342;-0.632964;-0.01800554;-0.1204986;0;0;0;719;4129;-634;2;0.533241;-0.6848089;-0.3268698;-0.3739612;0;-2;-2;120;3992;-836;8;0.3891967;-0.8192436;0.300554;0.2950138;-3;0;1;1129;3395;2323;0.3307867;2.444752;1.290145;0.3367394;2.987202;1.232403;0.3419695;3.463801;1.179637;0.3945876;4.192376;1.249442;0.1602124;4.538451;1.242505;-0.1906937;4.41782;1.292023;-0.6854836;4.736845;0.5766662;0.0486967;4.80327;1.171951;0.6792049;4.500973;1.242504;0.9568869;4.334947;1.292022;0.9661168;3.44383;1.658221;0.3163195;2.783754;1.857851;0.01852602;2.402118;1.287349;0.01377341;1.308781;0.3150068;0;0;0;0.01852602;2.402118;1.287349;0.01377341;1.308781;0.3150068;0;0;0
950942.8473;NotLabelled;16384;0.7963628;0.3518005;0.4182825;0.2590028;0;0;-2;2934;-1388;2554;65536;-0.536011;-0.4736842;0.5963437;0.3642659;-1;0;2;3906;-436;-1147;8192;0.5747922;-0.7568958;-0.2963989;-0.09418282;0;-1;0;1357;3749;-653;32768;0.4847645;-0.7675468;0.4155124;-0.0567867;0;-5;-2;2822;2888;727;256;0.1468144;-0.2132964;-0.6565097;-0.7084809;0;-4;0;246;3938;-402;128;-0.1440443;0.2423823;0.6357341;0.7185709;0;0;0;-372;3912;598;4;-0.5900277;0.1398892;-0.4390582;-0.6629678;0;-4;2;2638;2988;340;16;0.7645342;-0.632964;-0.01800554;-0.1204986;0;-3;-1;753;4117;-704;2;0.534626;-0.6843886;-0.3254848;-0.3739612;0;-4;0;178;3948;-788;8;0.3891967;-0.8192436;0.300554;0.2950138;-2;-3;0;1283;3465;2213;0.3307867;2.444752;1.290145;0.3367394;2.987202;1.232403;0.3419695;3.463801;1.179637;0.3945876;4.192376;1.249442;0.1602124;4.538451;1.242505;-0.1906937;4.41782;1.292023;-0.6878368;4.735707;0.5777919;0.04800093;4.804238;1.170787;0.6792049;4.500973;1.242504;0.9568869;4.334947;1.292022;0.9661177;3.44383;1.658221;0.3179117;2.782573;1.859107;0.01852602;2.402118;1.287349;0.01377341;1.308781;0.3150068;0;0;0;0.01852602;2.402118;1.287349;0.01377341;1.308781;0.3150068;0;0;0
950963.5372;NotLabelled;16384;0.7963628;0.3518005;0.4182825;0.2590028;0;-1;-2;2944;-1362;2598;65536;-0.536011;-0.4736842;0.5963437;0.3642659;-1;0;1;3824;-400;-1119;8192;0.5747922;-0.7574367;-0.2950138;-0.09418282;0;-2;0;1301;3829;-585;32768;0.4847645;-0.767648;0.4155124;-0.05540166;1;-5;-2;2872;2958;765;256;0.1468144;-0.2132964;-0.6551247;-0.7097619;1;-4;0;224;4038;-440;128;-0.1440443;0.2423823;0.6357341;0.7185709;0;0;0;-382;3974;560;4;-0.5900277;0.1385041;-0.4390582;-0.6632586;-1;-4;2;2670;3034;308;16;0.7647825;-0.632964;-0.0166205;-0.1191136;0;-3;-1;695;4081;-668;2;0.534626;-0.6851436;-0.3254848;-0.3725762;1;-3;0;274;3960;-786;8;0.3878116;-0.8193911;0.301939;0.2950138;-2;-4;0;989;3469;2175;0.3307867;2.444752;1.290145;0.3367394;2.987202;1.232403;0.3419695;3.463801;1.179637;0.3945876;4.192376;1.249442;0.1602124;4.538451;1.242505;-0.1906937;4.41782;1.292023;-0.6878368;4.735707;0.5777919;0.04671913;4.805215;1.172261;0.6792049;4.500973;1.242504;0.9568869;4.334947;1.292022;0.9661177;3.44383;1.658221;0.3168771;2.783409;1.858516;0.01852602;2.402118;1.287349;0.01377341;1.308781;0.3150068;0;0;0;0.01852602;2.402118;1.287349;0.01377341;1.308781;0.3150068;0;0;0
950983.5283;NotLabelled;16384;0.7951816;0.3518005;0.4196676;0.2603878;-1;-1;-2;2928;-1422;2572;65536;-0.536011;-0.4736842;0.5963437;0.3642659;-1;0;0;3978;-356;-1169;8192;0.5761772;-0.7563837;-0.2950138;-0.09418282;-1;-3;0;1335;3841;-505;32768;0.4847645;-0.767648;0.4155124;-0.05540166;0;-8;-2;2898;2862;715;256;0.1468144;-0.2132964;-0.6551247;-0.7097619;0;-5;0;236;3966;-434;128;-0.1440443;0.2423823;0.6357341;0.7185709;-1;-1;0;-432;3992;542;4;-0.5900277;0.1385041;-0.4390582;-0.6632586;-1;-3;1;2682;2990;332;16;0.7647825;-0.632964;-0.0166205;-0.1191136;0;-2;0;699;4181;-742;2;0.534626;-0.6857998;-0.3240997;-0.3725762;1;-4;-1;174;3946;-850;8;0.3878116;-0.8193911;0.301939;0.2950138;-2;-2;1;1151;3525;2129;0.3326529;2.442646;1.292752;0.3386056;2.985096;1.235011;0.3438356;3.461696;1.182245;0.3957289;4.190062;1.254718;0.16102;4.535933;1.24898;-0.1897818;4.414782;1.297966;-0.6868383;4.732669;0.5836747;0.04764521;4.802177;1.178233;0.6800486;4.498957;1.248979;0.9578788;4.333021;1.297965;0.965655;3.441561;1.663359;0.3179839;2.779956;1.864826;0.02039218;2.400012;1.289956;0.01408732;1.308693;0.3153585;0;0;0;0.02039218;2.400012;1.289956;0.01408732;1.308693;0.3153585;0;0;0
951004.5283;NotLabelled;16384;0.7956338;0.3518005;0.4196676;0.2590028;-3;1;-2;2920;-1400;2560;65536;-0.5373961;-0.4736842;0.5942458;0.365651;-4;0;1;3942;-374;-1099;8192;0.5761772;-0.7570935;-0.2936288;-0.09279778;-2;-6;-1;1243;3907;-591;32768;0.4847645;-0.7663374;0.4182825;-0.05263158;-5;-10;-1;2966;2892;787;256;0.1468144;-0.2146814;-0.6551247;-0.7093441;0;-6;0;246;4036;-416;128;-0.1440443;0.2423823;0.6357341;0.7185709;-1;-1;0;-400;4032;584;4;-0.5886427;0.1371191;-0.4390582;-0.6647752;0;-1;1;2624;2904;296;16;0.7647825;-0.632964;-0.0166205;-0.1191136;0;1;0;617;4113;-696;2;0.534626;-0.6857998;-0.3240997;-0.3725762;0;-4;-2;148;3968;-768;8;0.3864266;-0.8195456;0.301939;0.2963989;-1;-3;1;1089;3495;2189;0.3326529;2.442646;1.292752;0.3386056;2.985096;1.235011;0.3438356;3.461696;1.182245;0.3957289;4.190062;1.254718;0.16102;4.535933;1.24898;-0.1897818;4.414782;1.297966;-0.6896651;4.730157;0.5845349;0.04481861;4.799665;1.179093;0.6800486;4.498957;1.248979;0.9578788;4.333021;1.297965;0.9680282;3.440695;1.661182;0.320357;2.77909;1.862649;0.02039218;2.400012;1.289956;0.01408732;1.308693;0.3153585;0;0;0;0.02039218;2.400012;1.289956;0.01408732;1.308693;0.3153585;0;0;0
951025.6635;NotLabelled;16384;0.7949016;0.3518005;0.4210526;0.2590028;-3;1;-3;2952;-1410;2546;65536;-0.5373961;-0.4736842;0.5942458;0.365651;-5;0;1;3932;-316;-1153;8192;0.5775623;-0.7565738;-0.2922437;-0.09279778;-1;-8;-1;1369;3871;-621;32768;0.4847645;-0.7656738;0.4196676;-0.05124654;-5;-10;0;2886;2914;713;256;0.1481994;-0.2146814;-0.6551247;-0.709056;0;-6;0;256;4102;-436;128;-0.1426593;0.2423823;0.634349;0.7200698;-1;-1;0;-434;4016;578;4;-0.5886427;0.1371191;-0.4390582;-0.6647752;0;-1;0;2628;2950;306;16;0.7647512;-0.632964;-0.01800554;-0.1191136;0;6;0;673;4109;-764;2;0.536011;-0.6853717;-0.3227147;-0.3725762;0;-2;-1;186;4002;-852;8;0.3864266;-0.8195456;0.301939;0.2963989;-1;0;0;965;3471;2307;0.3295891;2.441647;1.293911;0.3355417;2.984097;1.23617;0.3407719;3.460697;1.183404;0.3940797;4.18896;1.255887;0.160043;4.535285;1.250154;-0.1909936;4.414816;1.299138;-0.6873351;4.731563;0.5838438;0.048812;4.802203;1.176207;0.6789988;4.497302;1.250153;0.9565061;4.330826;1.299137;0.965165;3.438754;1.663014;0.3181815;2.776448;1.864387;0.01732832;2.399014;1.291116;0.01341072;1.308693;0.3153884;0;0;0;0.01732832;2.399014;1.291116;0.01341072;1.308693;0.3153884;0;0;0
951046.536;NotLabelled;16384;0.7949016;0.3518005;0.4210526;0.2590028;-3;1;-4;2964;-1372;2508;65536;-0.5387812;-0.4736842;0.5929903;0.365651;-5;0;2;3954;-260;-1185;8192;0.5775623;-0.7567424;-0.2922437;-0.09141274;-1;-8;-1;1377;3873;-689;32768;0.4847645;-0.7650045;0.4210526;-0.04986149;-4;-9;-1;2956;2914;719;256;0.1481994;-0.2160665;-0.6551247;-0.7086352;0;-4;1;292;4028;-418;128;-0.1426593;0.2423823;0.6357341;0.7188472;1;0;0;-432;3974;530;4;-0.5886427;0.1371191;-0.4390582;-0.6647752;0;-1;0;2652;2958;304;16;0.7645003;-0.632964;-0.01939058;-0.1204986;0;8;0;547;4127;-670;2;0.536011;-0.6853717;-0.3227147;-0.3725762;0;-2;-1;138;3950;-834;8;0.3864266;-0.8205538;0.300554;0.2950138;-1;3;0;1099;3439;2291;0.3247587;2.442026;1.292607;0.3307142;2.984725;1.237254;0.3359467;3.461551;1.186586;0.3878863;4.189974;1.258458;0.1531971;4.535853;1.252449;-0.197609;4.414763;1.301555;-0.6966833;4.730368;0.5876586;0.03834951;4.801009;1.181405;0.6722236;4.498848;1.252449;0.9500469;4.332936;1.301555;0.9598678;3.439661;1.662438;0.3130667;2.777001;1.863232;0.01249808;2.399405;1.289609;0.01041377;1.309084;0.313876;0;0;0;0.01249808;2.399405;1.289609;0.01041377;1.309084;0.313876;0;0;0
951067.7542;NotLabelled;16384;0.7941664;0.3518005;0.4224377;0.2590028;-3;0;-4;2922;-1390;2566;65536;-0.5387812;-0.4736842;0.5929903;0.365651;-6;0;2;3924;-404;-1145;8192;0.5775623;-0.7572758;-0.2908587;-0.09141274;0;-5;0;1427;3811;-647;32768;0.4833795;-0.7651173;0.4224377;-0.04986149;-3;-8;0;2952;2918;707;256;0.1481994;-0.2160665;-0.6551247;-0.7086352;0;-4;1;298;4052;-372;128;-0.1426593;0.2423823;0.6357341;0.7188472;0;-2;0;-404;4010;600;4;-0.5886427;0.1371191;-0.4390582;-0.6647752;0;-2;0;2760;3054;302;16;0.7642807;-0.632964;-0.01939058;-0.1218837;0;11;1;711;4127;-726;2;0.536011;-0.6853717;-0.3227147;-0.3725762;0;-1;0;214;4044;-880;8;0.3864266;-0.8205538;0.300554;0.2950138;0;2;0;1209;3479;2271;0.3216476;2.442124;1.292107;0.3276009;2.984623;1.234821;0.3328315;3.461266;1.182454;0.3861874;4.189585;1.254336;0.1521711;4.535921;1.248333;-0.1988698;4.415512;1.297436;-0.6960629;4.731118;0.5822289;0.039352;4.80387;1.175246;0.6711247;4.497906;1.248332;0.9486249;4.331453;1.297436;0.9589742;3.438771;1.659771;0.3123037;2.775756;1.859808;0.009386957;2.399493;1.289273;0.009396374;1.309173;0.3135376;0;0;0;0.009386957;2.399493;1.289273;0.009396374;1.309173;0.3135376;0;0;0
951088.8328;NotLabelled;16384;0.7934282;0.3518005;0.4238227;0.2590028;-3;1;-4;2998;-1396;2510;65536;-0.5387812;-0.4722992;0.594094;0.365651;-5;0;2;3986;-316;-1181;8192;0.5775623;-0.7572758;-0.2908587;-0.09141274;0;-4;0;1443;3799;-673;32768;0.4833795;-0.7652063;0.4224377;-0.04847645;0;-9;0;2970;2924;695;256;0.1495845;-0.2160665;-0.6537396;-0.7096226;0;-4;1;236;4030;-514;128;-0.1426593;0.2437673;0.6357341;0.7183788;0;-3;-1;-480;4004;582;4;-0.5886427;0.1371191;-0.4390582;-0.6647752;0;0;0;2668;2982;284;16;0.7640221;-0.632964;-0.02077562;-0.1232687;0;6;0;705;4151;-652;2;0.536011;-0.6853717;-0.3227147;-0.3725762;0;-1;1;230;4044;-782;8;0.3864266;-0.8210598;0.299169;0.2950138;1;4;0;1189;3433;2193;0.3236994;2.441823;1.293297;0.3296526;2.984321;1.23601;0.3348833;3.460964;1.183644;0.3882391;4.189283;1.255526;0.154223;4.535619;1.249522;-0.1968181;4.41521;1.298626;-0.6965234;4.729671;0.5846667;0.03889138;4.802424;1.177684;0.6731763;4.497604;1.249522;0.9506766;4.331151;1.298626;0.9596986;3.438124;1.660144;0.3116021;2.777144;1.862291;0.01143867;2.399191;1.290463;0.01144812;1.308871;0.3147275;0;0;0;0.01143867;2.399191;1.290463;0.01144812;1.308871;0.3147275;0;0;0
951109.7337;NotLabelled;16384;0.7928126;0.3531856;0.4238227;0.2590028;-4;0;-2;2990;-1446;2608;65536;-0.5401662;-0.4722992;0.5919785;0.367036;-5;0;0;4010;-416;-1175;8192;0.5775623;-0.7579721;-0.2894737;-0.0900277;0;-4;1;1347;3901;-635;32768;0.4833795;-0.7637572;0.4252077;-0.04709141;-2;-6;0;2970;2922;711;256;0.1495845;-0.2174515;-0.6537396;-0.7091995;0;-5;1;354;4038;-402;128;-0.1440443;0.2437673;0.634349;0.7193261;-2;-1;-1;-504;4020;616;4;-0.5886427;0.1371191;-0.4390582;-0.6647752;0;0;0;2638;2976;332;16;0.7640221;-0.632964;-0.02077562;-0.1232687;0;5;0;703;4145;-706;2;0.536011;-0.6861228;-0.3227147;-0.3711911;1;0;0;156;3964;-862;8;0.3878116;-0.8209033;0.299169;0.2936288;1;5;0;1073;3351;2229;0.3207846;2.441914;1.29295;0.3267379;2.984414;1.23568;0.3319684;3.461059;1.183328;0.3832236;4.189323;1.257255;0.1482175;4.535004;1.252171;-0.2024867;4.413453;1.300867;-0.7031177;4.726768;0.5870522;0.03125441;4.797342;1.181623;0.6672777;4.498474;1.252171;0.945244;4.332682;1.300866;0.953543;3.439654;1.662402;0.3066421;2.777483;1.864483;0.008523881;2.399283;1.290115;0.01048383;1.308962;0.3143811;0;0;0;0.008523881;2.399283;1.290115;0.01048383;1.308962;0.3143811;0;0;0
951130.5521;NotLabelled;16384;0.7925222;0.3531856;0.4252077;0.2576177;-5;2;-1;2968;-1468;2562;65536;-0.5415512;-0.4722992;0.5907117;0.367036;-6;0;1;3996;-350;-1147;8192;0.5775623;-0.7579721;-0.2894737;-0.0900277;0;-4;0;1289;3871;-713;32768;0.4833795;-0.7637572;0.4252077;-0.04709141;-2;-4;1;2986;2902;667;256;0.1495845;-0.2174515;-0.6537396;-0.7091995;0;-3;1;346;4050;-448;128;-0.1426593;0.2451524;0.634349;0.7191314;-2;-1;-1;-516;4024;624;4;-0.5872576;0.1357341;-0.4390582;-0.6662827;0;-2;0;2688;2938;368;16;0.7635311;-0.632964;-0.02216066;-0.1260388;0;5;0;727;4113;-674;2;0.536011;-0.6861228;-0.3227147;-0.3711911;1;0;2;208;3930;-880;8;0.3878116;-0.8214067;0.2977839;0.2936288;1;5;0;1047;3361;2193;0.3180115;2.441906;1.293091;0.3239665;2.98456;1.237299;0.3291985;3.461346;1.186245;0.3818682;4.189509;1.260184;0.1475341;4.535644;1.255104;-0.2034056;4.414775;1.303798;-0.7036914;4.729724;0.5904605;0.03235048;4.80145;1.182825;0.6665226;4.498108;1.255104;0.944166;4.331774;1.303797;0.9518247;3.438993;1.665957;0.3040193;2.777288;1.866662;0.005750835;2.399283;1.29013;0.009807974;1.308962;0.314403;0;0;0;0.005750835;2.399283;1.29013;0.009807974;1.308962;0.314403;0;0;0
951151.762;NotLabelled;16384;0.7919035;0.3545706;0.4252077;0.2576177;-6;4;0;2926;-1448;2540;65536;-0.5415512;-0.4709141;0.5909553;0.368421;-6;1;1;3958;-296;-1149;8192;0.5775623;-0.7586628;-0.2880886;-0.08864266;0;-4;1;1295;3851;-725;32768;0.4819945;-0.7638602;0.4265928;-0.04709141;-3;-4;0;3006;2880;769;256;0.1495845;-0.2188366;-0.6537396;-0.7087733;0;-2;1;364;4018;-378;128;-0.1426593;0.2451524;0.634349;0.7191314;-1;0;0;-450;4024;538;4;-0.5872576;0.1357341;-0.4390582;-0.6662827;0;-1;0;2678;2940;340;16;0.7635311;-0.632964;-0.02216066;-0.1260388;0;-1;0;755;4121;-622;2;0.534626;-0.6872026;-0.3227147;-0.3711911;1;0;2;204;3922;-820;8;0.3878116;-0.8214067;0.2977839;0.2936288;0;2;0;1087;3347;2069;0.3194469;2.440692;1.295068;0.3254023;2.983395;1.239748;0.3306348;3.460224;1.18911;0.3833047;4.188388;1.263048;0.1489704;4.534523;1.257969;-0.2019692;4.413653;1.306662;-0.7040148;4.728839;0.5946667;0.03368032;4.802686;1.184709;0.6679587;4.496986;1.257968;0.9456023;4.330652;1.306661;0.9532005;3.437872;1.668823;0.3053949;2.776168;1.869528;0.007186234;2.398072;1.292066;0.01152933;1.30875;0.3152253;0;0;0;0.007186234;2.398072;1.292066;0.01152933;1.30875;0.3152253;0;0;0
951172.5874;NotLabelled;16384;0.7916079;0.3545706;0.4265928;0.2562327;-5;3;0;2888;-1446;2474;65536;-0.5415512;-0.4709141;0.5909553;0.368421;-6;0;0;3886;-238;-1187;8192;0.5775623;-0.7586628;-0.2880886;-0.08864266;0;-5;2;1299;3795;-709;32768;0.4819945;-0.7639443;0.4265928;-0.04570637;-4;-1;1;2896;2864;645;256;0.1495845;-0.2188366;-0.6537396;-0.7087733;0;-1;1;352;3970;-380;128;-0.1426593;0.2451524;0.634349;0.7191314;0;0;0;-488;3994;578;4;-0.5872576;0.1357341;-0.4390582;-0.6662827;0;-1;0;2710;2982;374;16;0.7635311;-0.632964;-0.02216066;-0.1260388;0;-5;0;735;4103;-608;2;0.534626;-0.6872026;-0.3227147;-0.3711911;0;0;1;88;3852;-876;8;0.3891967;-0.8212456;0.2977839;0.2922437;0;0;0;1143;3379;2063;0.3194469;2.440692;1.295068;0.3254023;2.983395;1.239748;0.3306348;3.460224;1.18911;0.3848786;4.188283;1.262942;0.1512073;4.534873;1.25837;-0.1998611;4.414685;1.307817;-0.7038843;4.732487;0.5983858;0.03523731;4.803191;1.187026;0.6701206;4.496328;1.257253;0.9475443;4.329453;1.305348;0.9542716;3.436901;1.668088;0.3050492;2.777231;1.870899;0.007186234;2.398072;1.292066;0.01152933;1.30875;0.3152253;0;0;0;0.007186234;2.398072;1.292066;0.01152933;1.30875;0.3152253;0;0;0
951194.5204;NotLabelled;16384;0.7916079;0.3545706;0.4265928;0.2562327;-5;3;-1;2792;-1444;2394;65536;-0.5415512;-0.4709141;0.5900895;0.3698061;-6;1;0;3904;-192;-1133;8192;0.5775623;-0.7586628;-0.2880886;-0.08864266;2;-3;2;1341;3795;-755;32768;0.4806094;-0.7648163;0.4265928;-0.04570637;-4;1;0;2916;2760;605;256;0.1495845;-0.2188366;-0.6537396;-0.7087733;0;0;1;328;3934;-424;128;-0.1426593;0.2437673;0.634349;0.7196021;0;-1;0;-328;3938;570;4;-0.5872576;0.1357341;-0.4390582;-0.6662827;0;0;0;2664;2944;338;16;0.7637585;-0.632964;-0.02216066;-0.1246537;0;-4;0;697;4081;-660;2;0.534626;-0.6872026;-0.3227147;-0.3711911;0;0;0;74;3894;-854;8;0.3891967;-0.8212456;0.2977839;0.2922437;-1;1;1;1003;3389;2059;0.3166681;2.440692;1.29508;0.3226236;2.983395;1.239761;0.3278561;3.460225;1.189122;0.3819411;4.188283;1.263071;0.14828;4.534873;1.257997;-0.2028939;4.414686;1.306688;-0.7063551;4.731739;0.5965238;0.03149891;4.802443;1.186752;0.6671944;4.496328;1.257996;0.9445142;4.329454;1.306687;0.9514163;3.436921;1.669469;0.3033574;2.776053;1.872106;0.004407465;2.398072;1.292079;0.01085143;1.30875;0.3152494;0;0;0;0.004407465;2.398072;1.292079;0.01085143;1.30875;0.3152494;0;0;0
951214.5268;NotLabelled;16384;0.7914334;0.3559557;0.4265928;0.2548476;-5;2;-2;2836;-1528;2406;65536;-0.5429363;-0.4695291;0.5899205;0.3698061;-5;1;1;3858;-188;-1039;8192;0.5775623;-0.7593477;-0.2867036;-0.08725762;2;-3;1;1235;3747;-687;32768;0.4806094;-0.7648163;0.4265928;-0.04570637;-4;3;0;2868;2800;737;256;0.1495845;-0.2188366;-0.6537396;-0.7087733;-1;-1;0;306;3954;-446;128;-0.1426593;0.2437673;0.634349;0.7196021;2;-1;0;-466;3940;600;4;-0.5872576;0.1357341;-0.4390582;-0.6662827;0;1;0;2652;2964;360;16;0.7637585;-0.632964;-0.02216066;-0.1246537;0;0;0;679;4143;-716;2;0.534626;-0.6864527;-0.3227147;-0.3725762;0;0;-1;140;3922;-826;8;0.3891967;-0.8212456;0.2977839;0.2922437;-1;0;1;1055;3435;2159;0.3146218;2.440997;1.293875;0.3205773;2.983698;1.238538;0.3258097;3.460526;1.187885;0.3798947;4.188584;1.261833;0.1462336;4.535174;1.256759;-0.2049405;4.414987;1.305451;-0.7084001;4.732039;0.5952849;0.03073579;4.801801;1.18402;0.665148;4.49663;1.256758;0.9424677;4.329756;1.305449;0.9493691;3.437222;1.668232;0.3009288;2.777565;1.873576;0.002361238;2.398376;1.290875;0.00880523;1.309055;0.3140457;0;0;0;0.002361238;2.398376;1.290875;0.00880523;1.309055;0.3140457;0;0;0
951235.5209;NotLabelled;16384;0.7903795;0.3559557;0.4293629;0.2534626;-1;4;-4;2794;-1504;2406;65536;-0.5429363;-0.4695291;0.5890499;0.3711911;-6;-2;2;3876;-114;-989;8192;0.5761772;-0.7603992;-0.2867036;-0.08725762;2;-4;1;1305;3851;-635;32768;0.4792244;-0.765685;0.4265928;-0.04570637;-4;1;0;2944;2840;745;256;0.1495845;-0.2202216;-0.6537396;-0.7083442;-3;-2;1;328;4012;-430;128;-0.1426593;0.2451524;0.6357341;0.7179072;2;-1;0;-434;3958;486;4;-0.5886427;0.1357341;-0.4390582;-0.6650594;0;0;0;2580;2966;356;16;0.7637585;-0.632964;-0.02216066;-0.1246537;0;0;0;715;4131;-686;2;0.534626;-0.6864527;-0.3227147;-0.3725762;0;0;-1;78;4026;-838;8;0.3878116;-0.8219005;0.2977839;0.2922437;-1;0;1;1077;3429;2271;0.314621;2.440998;1.293875;0.3205764;2.983698;1.238538;0.3258089;3.460526;1.187884;0.3798938;4.188585;1.261833;0.1462328;4.535175;1.256758;-0.2049413;4.414987;1.30545;-0.7089889;4.735052;0.5970545;0.03193843;4.804741;1.183541;0.6651472;4.49663;1.256758;0.9424669;4.329756;1.305449;0.9494593;3.437468;1.668833;0.301019;2.777811;1.874177;0.002360404;2.398377;1.290875;0.008805171;1.309055;0.3140455;0;0;0;0.002360404;2.398377;1.290875;0.008805171;1.309055;0.3140455;0;0;0
951256.5226;NotLabelled;16384;0.7903795;0.3559557;0.4293629;0.2534626;-1;3;-5;2824;-1524;2472;65536;-0.5443213;-0.468144;0.5879987;0.3725762;-6;-2;3;3898;-174;-1067;8192;0.5761772;-0.76092;-0.2853186;-0.08725762;1;-5;2;1363;3839;-619;32768;0.4792244;-0.765685;0.4265928;-0.04570637;-4;0;0;2930;2924;727;256;0.1495845;-0.2202216;-0.6551247;-0.7070634;-4;-3;0;330;3948;-446;128;-0.1440443;0.2451524;0.6357341;0.7176306;3;-2;0;-460;3956;524;4;-0.5886427;0.1357341;-0.4390582;-0.6650594;0;-1;0;2596;3006;438;16;0.7635311;-0.632964;-0.02216066;-0.1260388;0;0;0;683;4113;-684;2;0.534626;-0.6864527;-0.3227147;-0.3725762;0;0;0;104;3932;-870;8;0.3878116;-0.822401;0.2963989;0.2922437;0;2;1;1019;3363;2311;0.3137936;2.439986;1.294867;0.3197469;2.982488;1.237614;0.3249774;3.459134;1.185276;0.3804779;4.187085;1.259236;0.1474915;4.534129;1.254166;-0.2039157;4.414623;1.302855;-0.7106656;4.733785;0.5959826;0.03027779;4.80254;1.18256;0.6663299;4.494575;1.254165;0.9433245;4.327161;1.302855;0.9471573;3.435744;1.668419;0.2978932;2.777308;1.875067;0.001532972;2.397355;1.29203;0.008129224;1.309055;0.3140635;0;0;0;0.001532972;2.397355;1.29203;0.008129224;1.309055;0.3140635;0;0;0
951277.6021;NotLabelled;16384;0.7896255;0.3559557;0.4307479;0.2534626;0;3;-4;2804;-1514;2484;65536;-0.5443213;-0.468144;0.5879987;0.3725762;-6;-1;3;3872;-240;-1131;8192;0.5761772;-0.7610775;-0.2853186;-0.08587258;0;-6;2;1351;3969;-685;32768;0.4778393;-0.7665501;0.4265928;-0.04570637;-6;0;0;2998;3012;799;256;0.1495845;-0.2202216;-0.6551247;-0.7070634;-3;-2;0;384;3990;-456;128;-0.1440443;0.2451524;0.6357341;0.7176306;3;-3;0;-450;4014;548;4;-0.5886427;0.1357341;-0.4390582;-0.6650594;0;-3;0;2600;2964;386;16;0.7635311;-0.632964;-0.02216066;-0.1260388;0;1;0;631;4111;-670;2;0.534626;-0.6864527;-0.3227147;-0.3725762;0;-1;1;164;3924;-946;8;0.3878116;-0.822401;0.2963989;0.2922437;0;2;1;1039;3415;2173;0.3160041;2.439683;1.296037;0.3219568;2.982137;1.238328;0.3271869;3.458739;1.185591;0.3834331;4.186899;1.256888;0.1507909;4.534153;1.25062;-0.2007214;4.415176;1.299842;-0.7075627;4.734339;0.5930346;0.03651863;4.802093;1.175743;0.6695895;4.494083;1.25062;0.9464308;4.326571;1.29984;0.9489187;3.434813;1.664583;0.2996811;2.776376;1.871315;0.00374341;2.39705;1.293238;0.01021354;1.30875;0.3152711;0;0;0;0.00374341;2.39705;1.293238;0.01021354;1.30875;0.3152711;0;0;0
951298.5278;NotLabelled;16384;0.7900688;0.3559557;0.4307479;0.2520775;0;2;-3;2840;-1556;2480;65536;-0.5457063;-0.468144;0.5867135;0.3725762;-4;-1;3;3840;-224;-1185;8192;0.5761772;-0.7612326;-0.2853186;-0.08448754;0;-5;3;1411;3929;-677;32768;0.4778393;-0.7666315;0.4265928;-0.04432133;-8;0;0;2974;2980;779;256;0.1495845;-0.2202216;-0.6551247;-0.7070634;-3;0;0;410;4042;-386;128;-0.1440443;0.2451524;0.6371191;0.7164013;3;-5;0;-462;4006;588;4;-0.5872576;0.1357341;-0.4404432;-0.665368;0;-4;0;2580;2978;288;16;0.7635311;-0.632964;-0.02216066;-0.1260388;0;0;0;713;4097;-644;2;0.534626;-0.6872026;-0.3227147;-0.3711911;0;0;0;160;3910;-930;8;0.3878116;-0.8228919;0.2963989;0.2908587;-1;-1;0;1081;3359;2121;0.3160041;2.439683;1.296037;0.3219568;2.982137;1.238328;0.3271869;3.458739;1.185591;0.3834331;4.186899;1.256888;0.1507909;4.534153;1.25062;-0.2007214;4.415176;1.299842;-0.7099143;4.733191;0.5942082;0.03416711;4.800945;1.176917;0.6695895;4.494083;1.25062;0.9464308;4.326571;1.29984;0.9504142;3.435402;1.666005;0.3007975;2.778191;1.875432;0.00374341;2.39705;1.293238;0.01021354;1.30875;0.3152711;0;0;0;0.00374341;2.39705;1.293238;0.01021354;1.30875;0.3152711;0;0;0
951319.6917;NotLabelled;16384;0.7900688;0.3559557;0.4307479;0.2520775;0;1;-3;2834;-1412;2508;65536;-0.5457063;-0.466759;0.587816;0.3725762;-3;0;3;3864;-266;-1203;8192;0.5761772;-0.7619026;-0.2839335;-0.08310249;0;-3;4;1429;3863;-787;32768;0.4750692;-0.7684298;0.4265928;-0.04293629;-11;1;0;2898;2836;765;256;0.1495845;-0.2202216;-0.6565097;-0.7057775;-3;0;-1;420;4066;-420;128;-0.1454294;0.2465374;0.6371191;0.7156458;3;-5;1;-496;4032;628;4;-0.5872576;0.134349;-0.4404432;-0.665649;0;-4;0;2682;2970;284;16;0.7635311;-0.632964;-0.02216066;-0.1260388;0;-2;0;709;4117;-704;2;0.534626;-0.6878513;-0.3213296;-0.3711911;0;-1;0;132;3868;-902;8;0.3878116;-0.8228919;0.2963989;0.2908587;-1;0;1;1003;3411;2145;0.3182293;2.442236;1.293047;0.3241798;2.984481;1.233402;0.3294078;3.460892;1.178964;0.3856539;4.189051;1.250261;0.1530115;4.536306;1.243994;-0.1985007;4.417329;1.293215;-0.7072127;4.736741;0.5878659;0.03850836;4.806631;1.168221;0.6718104;4.496235;1.243993;0.9486517;4.328723;1.293214;0.9541343;3.438146;1.660796;0.3061235;2.779741;1.871445;0.005968571;2.399593;1.290413;0.01021343;1.308751;0.3152707;0;0;0;0.005968571;2.399593;1.290413;0.01021343;1.308751;0.3152707;0;0;0
951339.672;NotLabelled;16384;0.7893121;0.3559557;0.432133;0.2520775;1;0;-3;2792;-1440;2522;65536;-0.5470914;-0.466759;0.5865271;0.3725762;-1;0;3;3874;-230;-1173;8192;0.5761772;-0.7619026;-0.2839335;-0.08310249;0;-3;3;1395;3767;-783;32768;0.4736842;-0.7692843;0.4265928;-0.04293629;-10;2;-1;2964;2842;779;256;0.1495845;-0.2202216;-0.6565097;-0.7057775;-4;1;-2;308;3996;-378;128;-0.1454294;0.2465374;0.6371191;0.7156458;4;-4;1;-430;3990;484;4;-0.5872576;0.134349;-0.4404432;-0.665649;0;-1;0;2614;2906;270;16;0.7637585;-0.632964;-0.02216066;-0.1246537;0;4;0;659;4087;-676;2;0.534626;-0.6878513;-0.3213296;-0.3711911;0;-1;-1;118;3986;-866;8;0.3878116;-0.8228919;0.2963989;0.2908587;-2;0;1;1057;3423;2073;0.3200687;2.440221;1.295267;0.3260185;2.982416;1.23518;0.331246;3.458782;1.180354;0.3882386;4.18714;1.248982;0.1559409;4.534602;1.241516;-0.1956758;4.416156;1.291269;-0.7044426;4.735568;0.5859591;0.04149485;4.803247;1.166299;0.6746994;4.494014;1.241515;0.9513878;4.326406;1.291268;0.9570153;3.436074;1.65944;0.3099051;2.778955;1.876767;0.007807791;2.397576;1.29267;0.01025489;1.30875;0.3152695;0;0;0;0.007807791;2.397576;1.29267;0.01025489;1.30875;0.3152695;0;0;0
951359.7611;NotLabelled;16384;0.7899352;0.3545706;0.432133;0.2520775;2;1;-3;2828;-1448;2532;65536;-0.5470914;-0.466759;0.5865271;0.3725762;0;0;3;3794;-248;-1143;8192;0.5761772;-0.7620524;-0.2839335;-0.08171745;0;-3;3;1393;3763;-799;32768;0.4722992;-0.7709769;0.4252077;-0.04155125;-9;3;-1;2956;2808;819;256;0.1495845;-0.2188366;-0.6565097;-0.7062082;-3;0;-2;426;3938;-320;128;-0.1468144;0.2465374;0.6371191;0.7153629;3;-5;2;-498;3926;566;4;-0.5858725;0.134349;-0.4404432;-0.6668684;0;0;0;2730;2926;308;16;0.7634897;-0.632964;-0.0235457;-0.1260388;0;7;0;593;4105;-652;2;0.534626;-0.6878513;-0.3213296;-0.3711911;0;1;-1;252;3942;-812;8;0.3878116;-0.8228919;0.2963989;0.2908587;-1;1;1;1061;3357;2267;0.3180248;2.440525;1.294059;0.3239747;2.98272;1.233973;0.3292023;3.459087;1.179146;0.3861947;4.187445;1.247774;0.1538971;4.534906;1.240308;-0.1977195;4.41646;1.290061;-0.7088755;4.734727;0.5859619;0.03869858;4.804541;1.163937;0.6726555;4.494318;1.240307;0.9493438;4.326711;1.29006;0.9549916;3.436377;1.658232;0.3075185;2.780509;1.878237;0.005763948;2.39788;1.291463;0.008211106;1.309055;0.3140617;0;0;0;0.005763948;2.39788;1.291463;0.008211106;1.309055;0.3140617;0;0;0
951380.6702;NotLabelled;16384;0.7899352;0.3545706;0.432133;0.2520775;2;1;-3;2872;-1428;2496;65536;-0.5470914;-0.466759;0.5874046;0.3711911;0;-2;3;3794;-296;-1129;8192;0.5761772;-0.7620524;-0.2839335;-0.08171745;0;-1;4;1443;3705;-813;32768;0.4709141;-0.7718236;0.4252077;-0.04155125;-6;4;-1;2962;2804;819;256;0.1495845;-0.2188366;-0.6578947;-0.7049181;-3;3;-2;346;3964;-370;128;-0.1481994;0.2465374;0.6371191;0.7150773;3;-3;2;-464;3922;434;4;-0.5858725;0.134349;-0.4404432;-0.6668684;0;0;0;2678;2968;316;16;0.7632597;-0.632964;-0.0235457;-0.1274238;0;8;0;755;4111;-718;2;0.534626;-0.6878513;-0.3213296;-0.3711911;-1;2;0;196;3986;-866;8;0.3878116;-0.8228919;0.2963989;0.2908587;-1;3;0;1025;3431;2277;0.3185241;2.441649;1.292471;0.3244735;2.983793;1.231922;0.3297005;3.460113;1.176689;0.3852703;4.188581;1.245307;0.1522945;4.535588;1.237836;-0.1990903;4.416457;1.28759;-0.7106642;4.733105;0.5830656;0.03814855;4.802919;1.159436;0.6711311;4.496014;1.237835;0.9481465;4.328948;1.28759;0.9560771;3.439208;1.657152;0.311366;2.782616;1.883029;0.006263316;2.399002;1.289914;0.008565366;1.30915;0.3136579;0;0;0;0.006263316;2.399002;1.289914;0.008565366;1.30915;0.3136579;0;0;0
951401.528;NotLabelled;16384;0.789176;0.3545706;0.433518;0.2520775;2;0;-3;2898;-1388;2564;65536;-0.5484765;-0.466759;0.5861116;0.3711911;0;-2;3;3824;-298;-1119;8192;0.5747922;-0.762728;-0.2853186;-0.08033241;0;0;3;1457;3717;-785;32768;0.4709141;-0.7718236;0.4252077;-0.04155125;-3;4;-1;2914;2794;781;256;0.1495845;-0.2174515;-0.6578947;-0.7053466;-3;1;-1;340;3990;-394;128;-0.1495845;0.2465374;0.6385041;0.7135518;3;-3;2;-502;3990;510;4;-0.5872576;0.134349;-0.4404432;-0.665649;1;0;0;2690;2958;302;16;0.7629832;-0.632964;-0.02493075;-0.1288089;0;9;0;609;4149;-684;2;0.534626;-0.6864527;-0.3227147;-0.3725762;-1;0;0;156;4066;-850;8;0.3878116;-0.8238774;0.2950138;0.2894737;0;6;1;989;3395;2243;0.3207393;2.441347;1.293635;0.3266881;2.983439;1.23262;0.3319147;3.459711;1.176978;0.3882282;4.188369;1.242921;0.1555955;4.535579;1.234248;-0.1958933;4.416979;1.284535;-0.7075984;4.733628;0.5801059;0.04002798;4.804364;1.157902;0.6743927;4.495487;1.234248;0.9512556;4.328328;1.284535;0.9592551;3.438589;1.654095;0.3142229;2.783264;1.882722;0.008478463;2.398698;1.291117;0.01065372;1.308845;0.3148606;0;0;0;0.008478463;2.398698;1.291117;0.01065372;1.308845;0.3148606;0;0;0
