SEP=;
index;label;RightUpperArm_boneIndex;RightUpperArm_quat9x_w;RightUpperArm_quat9x_x;RightUpperArm_quat9x_y;RightUpperArm_quat9x_z;RightUpperArm_gyroscope_x;RightUpperArm_gyroscope_y;RightUpperArm_gyroscope_z;RightUpperArm_accelerometer_x;RightUpperArm_accelerometer_y;RightUpperArm_accelerometer_z;RightLowerArm_boneIndex;RightLowerArm_quat9x_w;RightLowerArm_quat9x_x;RightLowerArm_quat9x_y;RightLowerArm_quat9x_z;RightLowerArm_gyroscope_x;RightLowerArm_gyroscope_y;RightLowerArm_gyroscope_z;RightLowerArm_accelerometer_x;RightLowerArm_accelerometer_y;RightLowerArm_accelerometer_z;LeftUpperArm_boneIndex;LeftUpperArm_quat9x_w;LeftUpperArm_quat9x_x;LeftUpperArm_quat9x_y;LeftUpperArm_quat9x_z;LeftUpperArm_gyroscope_x;LeftUpperArm_gyroscope_y;LeftUpperArm_gyroscope_z;LeftUpperArm_accelerometer_x;LeftUpperArm_accelerometer_y;LeftUpperArm_accelerometer_z;LeftLowerArm_boneIndex;LeftLowerArm_quat9x_w;LeftLowerArm_quat9x_x;LeftLowerArm_quat9x_y;LeftLowerArm_quat9x_z;LeftLowerArm_gyroscope_x;LeftLowerArm_gyroscope_y;LeftLowerArm_gyroscope_z;LeftLowerArm_accelerometer_x;LeftLowerArm_accelerometer_y;LeftLowerArm_accelerometer_z;Chest_boneIndex;Chest_quat9x_w;Chest_quat9x_x;Chest_quat9x_y;Chest_quat9x_z;Chest_gyroscope_x;Chest_gyroscope_y;Chest_gyroscope_z;Chest_accelerometer_x;Chest_accelerometer_y;Chest_accelerometer_z;Spine_boneIndex;Spine_quat9x_w;Spine_quat9x_x;Spine_quat9x_y;Spine_quat9x_z;Spine_gyroscope_x;Spine_gyroscope_y;Spine_gyroscope_z;Spine_accelerometer_x;Spine_accelerometer_y;Spine_accelerometer_z;RightUpperLeg_boneIndex;RightUpperLeg_quat9x_w;RightUpperLeg_quat9x_x;RightUpperLeg_quat9x_y;RightUpperLeg_quat9x_z;RightUpperLeg_gyroscope_x;RightUpperLeg_gyroscope_y;RightUpperLeg_gyroscope_z;RightUpperLeg_accelerometer_x;RightUpperLeg_accelerometer_y;RightUpperLeg_accelerometer_z;RightLowerLeg_boneIndex;RightLowerLeg_quat9x_w;RightLowerLeg_quat9x_x;RightLowerLeg_quat9x_y;RightLowerLeg_quat9x_z;RightLowerLeg_gyroscope_x;RightLowerLeg_gyroscope_y;RightLowerLeg_gyroscope_z;RightLowerLeg_accelerometer_x;RightLowerLeg_accelerometer_y;RightLowerLeg_accelerometer_z;LeftUpperLeg_boneIndex;LeftUpperLeg_quat9x_w;LeftUpperLeg_quat9x_x;LeftUpperLeg_quat9x_y;LeftUpperLeg_quat9x_z;LeftUpperLeg_gyroscope_x;LeftUpperLeg_gyroscope_y;LeftUpperLeg_gyroscope_z;LeftUpperLeg_accelerometer_x;LeftUpperLeg_accelerometer_y;LeftUpperLeg_accelerometer_z;LeftLowerLeg_boneIndex;LeftLowerLeg_quat9x_w;LeftLowerLeg_quat9x_x;LeftLowerLeg_quat9x_y;LeftLowerLeg_quat9x_z;LeftLowerLeg_gyroscope_x;LeftLowerLeg_gyroscope_y;LeftLowerLeg_gyroscope_z;LeftLowerLeg_accelerometer_x;LeftLowerLeg_accelerometer_y;LeftLowerLeg_accelerometer_z;pelvis_x;pelvis_y;pelvis_z;lowerSpine_x;lowerSpine_y;lowerSpine_z;middleSpine_x;middleSpine_y;middleSpine_z;upperSpine_x;upperSpine_y;upperSpine_z;rightClavicle_x;rightClavicle_y;rightClavicle_z;rightShoulder_x;rightShoulder_y;rightShoulder_z;rightElbow_x;rightElbow_y;rightElbow_z;rightWrist_x;rightWrist_y;rightWrist_z;leftClavicle_x;leftClavicle_y;leftClavicle_z;leftShoulder_x;leftShoulder_y;leftShoulder_z;leftElbow_x;leftElbow_y;leftElbow_z;leftWrist_x;leftWrist_y;leftWrist_z;rightHip_x;rightHip_y;rightHip_z;rightKnee_x;rightKnee_y;rightKnee_z;rightAnkle_x;rightAnkle_y;rightAnkle_z;leftHip_x;leftHip_y;leftHip_z;leftKnee_x;leftKnee_y;leftKnee_z;leftAnkle_x;leftAnkle_y;leftAnkle_z;
591498.0619;NotLabelled;16384;0.7230103;0.4709141;0.4778393;0.1648199;0;0;-1;2794;-2114;2012;65536;0.566504;0.4113573;-0.5124654;-0.4972299;0;0;0;4052;190;-577;8192;0.6578947;-0.7054405;-0.2631579;-0.0166205;-1;-1;0;1562;3852;44;32768;0.4265928;-0.7505699;0.5041551;-0.02216066;0;-1;0;3274;2542;522;256;0.1038781;-0.1855956;-0.6828254;-0.6989371;2;0;-1;488;4040;-120;128;-0.08864266;0.1828255;0.666205;0.7175571;0;-4;0;-424;4030;254;4;-0.5484765;0.1468144;-0.4806094;-0.6683066;-2;-2;0;2316;3232;298;16;0.7902921;-0.6080332;0.04847645;-0.05817174;0;-7;-1;725;4079;-1034;2;0.5457063;-0.7139658;-0.2894737;-0.3296399;0;-2;0;272;3904;-910;8;0.3850415;-0.7894688;0.33241;0.3434903;-1;-2;1;1029;3551;1985;0.5059474;2.50627;1.251092;0.5118577;3.04485;1.164379;0.5170492;3.517939;1.086162;0.5977854;4.246476;1.120484;0.3767449;4.600549;1.097645;0.02176288;4.495988;1.154161;-0.6589482;4.980515;0.753916;0.2516766;4.939266;1.012486;0.893923;4.543238;1.097644;1.165332;4.369264;1.15416;1.395826;3.467793;1.404158;0.7519776;2.882159;1.778695;0.1936857;2.463553;1.250767;0.04319294;1.286196;0.3951721;0;0;0;0.1936857;2.463553;1.250767;0.04319294;1.286196;0.3951721;0;0;0
591538.9889;NotLabelled;16384;0.7226931;0.4709141;0.4778393;0.166205;0;0;-1;2824;-2136;2022;65536;0.566504;0.4113573;-0.5124654;-0.4972299;-2;-1;0;4072;214;-589;8192;0.6578947;-0.7054405;-0.2631579;-0.0166205;-1;-1;0;1498;3854;28;32768;0.4265928;-0.7505699;0.5041551;-0.02216066;0;0;0;3298;2572;518;256;0.1038781;-0.1855956;-0.6828254;-0.6989371;1;1;-1;412;4048;-120;128;-0.08864266;0.1842105;0.666205;0.7172028;0;-4;0;-538;4010;292;4;-0.5484765;0.1468144;-0.4806094;-0.6683066;-1;-2;0;2344;3176;202;16;0.7903067;-0.6080332;0.04986149;-0.0567867;0;-10;-1;685;4057;-1044;2;0.5457063;-0.7139658;-0.2894737;-0.3296399;0;-1;-1;242;3950;-998;8;0.3850415;-0.7894688;0.33241;0.3434903;-1;-1;1;1079;3495;1971;0.5054405;2.504477;1.253569;0.51135;3.043011;1.166579;0.5165412;3.51606;1.088117;0.5958912;4.24477;1.12201;0.3741749;4.598407;1.098979;0.01939628;4.493203;1.155579;-0.6605518;4.97773;0.7540399;0.2495792;4.936481;1.014342;0.8914613;4.542082;1.098979;1.163205;4.368658;1.155578;1.39371;3.466315;1.402397;0.749149;2.88068;1.775708;0.1931788;2.461759;1.253268;0.04244041;1.286196;0.395254;0;0;0;0.1931788;2.461759;1.253268;0.04244041;1.286196;0.395254;0;0;0
591559.9532;NotLabelled;16384;0.7226931;0.4709141;0.4778393;0.166205;0;0;-1;2840;-2150;2084;65536;0.566504;0.4113573;-0.5124654;-0.4972299;-1;-1;0;4078;136;-613;8192;0.6578947;-0.7054405;-0.2631579;-0.0166205;-1;-2;0;1480;3908;-22;32768;0.4265928;-0.7505699;0.5041551;-0.02216066;0;0;0;3264;2556;602;256;0.1038781;-0.1855956;-0.6828254;-0.6989371;1;3;-1;536;3988;-40;128;-0.08864266;0.1842105;0.666205;0.7172028;0;-3;0;-504;4042;200;4;-0.5470914;0.1468144;-0.4819945;-0.6684444;-1;-3;0;2368;3252;220;16;0.7904123;-0.6080332;0.05124654;-0.05401662;0;-1;0;561;4049;-1088;2;0.5457063;-0.7139658;-0.2894737;-0.3296399;0;-1;-2;242;3952;-910;8;0.3836565;-0.7901428;0.33241;0.3434903;-1;-1;1;1111;3523;2107;0.5062122;2.50447;1.25351;0.5121219;3.043006;1.166531;0.517313;3.516057;1.08808;0.5966629;4.244766;1.121974;0.3749467;4.598403;1.098943;0.02016819;4.493199;1.155543;-0.6606281;4.976223;0.7536296;0.2495027;4.934975;1.013932;0.8922331;4.542078;1.098942;1.163977;4.368654;1.155542;1.394482;3.466311;1.40236;0.7499215;2.880676;1.775671;0.1939506;2.461752;1.253208;0.04321226;1.286189;0.3951938;0;0;0;0.1939506;2.461752;1.253208;0.04321226;1.286189;0.3951938;0;0;0
591581;NotLabelled;16384;0.7217755;0.4709141;0.4792244;0.166205;0;0;-1;2892;-2220;2064;65536;0.566504;0.4113573;-0.5124654;-0.4972299;-2;-1;0;4126;156;-593;8192;0.6578947;-0.7054717;-0.2631579;-0.01523546;-2;-2;0;1508;3874;-14;32768;0.4265928;-0.7505699;0.5041551;-0.02216066;-1;0;0;3226;2442;570;256;0.1038781;-0.1869806;-0.6828254;-0.6985678;0;-3;0;478;3876;-254;128;-0.0900277;0.1842105;0.666205;0.7170302;0;-4;1;-462;4014;318;4;-0.5470914;0.1454294;-0.4819945;-0.6687471;-1;-5;0;2364;3202;222;16;0.7904123;-0.6080332;0.05124654;-0.05401662;0;0;0;591;4085;-1062;2;0.5470914;-0.712905;-0.2894737;-0.3296399;0;-1;-1;210;3950;-978;8;0.3836565;-0.7901428;0.33241;0.3434903;0;0;0;1119;3487;2157;0.5066923;2.507121;1.249045;0.512602;3.045657;1.162066;0.5177929;3.518708;1.083615;0.5971429;4.247417;1.117509;0.3754266;4.601054;1.094478;0.02064818;4.495851;1.151078;-0.6601472;4.978875;0.7491636;0.2499835;4.937626;1.009466;0.8927131;4.54473;1.094477;1.164457;4.371305;1.151077;1.394961;3.468963;1.397895;0.7504008;2.883328;1.771206;0.1944306;2.464403;1.248743;0.04192516;1.286532;0.3942136;0;0;0;0.1944306;2.464403;1.248743;0.04192516;1.286532;0.3942136;0;0;0
591601.8666;NotLabelled;16384;0.7229944;0.4695291;0.4792244;0.1648199;0;3;-1;2828;-2188;2046;65536;0.5675072;0.4099723;-0.5124654;-0.4972299;-2;-3;-1;4030;166;-565;8192;0.6578947;-0.7059868;-0.2617728;-0.01523546;-2;-2;0;1494;3862;-18;32768;0.4265928;-0.7505699;0.5041551;-0.02216066;-1;0;0;3222;2488;514;256;0.1052632;-0.1869806;-0.6814404;-0.699712;0;-4;0;578;3988;-146;128;-0.0900277;0.1855956;0.666205;0.716673;-1;-2;1;-444;4032;384;4;-0.5470914;0.1454294;-0.4819945;-0.6687471;-1;-2;0;2402;3200;196;16;0.7904123;-0.6080332;0.05124654;-0.05401662;0;2;0;577;3997;-1080;2;0.5470914;-0.7134658;-0.2880886;-0.3296399;0;-1;0;262;3934;-942;8;0.3836565;-0.7901428;0.33241;0.3434903;0;-1;0;1103;3519;2105;0.5059802;2.50533;1.251551;0.5118895;3.043821;1.164291;0.5170801;3.51683;1.085592;0.5978729;4.245381;1.119493;0.3768571;4.599457;1.096465;0.02187103;4.494955;1.153064;-0.6600159;4.976751;0.7515267;0.2495731;4.935503;1.013716;0.894031;4.542108;1.096464;1.165431;4.368146;1.153062;1.397101;3.466467;1.401215;0.7517681;2.880833;1.773188;0.1937185;2.462613;1.251273;0.04110739;1.286532;0.3943;0;0;0;0.1937185;2.462613;1.251273;0.04110739;1.286532;0.3943;0;0;0
591623.1074;NotLabelled;16384;0.7229944;0.4695291;0.4792244;0.1648199;0;2;0;2762;-2150;2030;65536;0.5675072;0.4099723;-0.5124654;-0.4972299;-2;-3;-1;4030;204;-635;8192;0.6592798;-0.7046936;-0.2617728;-0.01523546;-1;0;0;1476;3810;20;32768;0.4252077;-0.7513554;0.5041551;-0.02216066;0;0;0;3270;2464;562;256;0.1066482;-0.1883656;-0.6814404;-0.6991305;0;-2;-1;446;3962;-148;128;-0.09141274;0.1855956;0.666205;0.7164977;-1;-3;0;-426;4040;404;4;-0.5470914;0.1454294;-0.4819945;-0.6687471;-1;-2;0;2414;3174;280;16;0.7904123;-0.6080332;0.05124654;-0.05401662;0;0;1;649;4059;-1024;2;0.5470914;-0.7134658;-0.2880886;-0.3296399;1;-2;0;254;3962;-950;8;0.3836565;-0.7901428;0.33241;0.3434903;0;-1;0;1047;3531;1983;0.5033506;2.505331;1.251956;0.5092598;3.043823;1.164707;0.5144504;3.516834;1.08602;0.5932562;4.245489;1.122272;0.3712896;4.599037;1.100295;0.01656848;4.493394;1.156435;-0.66301;4.975626;0.7515225;0.2466021;4.93367;1.013519;0.888617;4.54309;1.100295;1.160468;4.369684;1.156434;1.39002;3.467396;1.404343;0.7439061;2.881762;1.774959;0.191089;2.462613;1.251677;0.04027893;1.286532;0.3943853;0;0;0;0.191089;2.462613;1.251677;0.04027893;1.286532;0.3943853;0;0;0
591643.9643;NotLabelled;16384;0.7229944;0.4695291;0.4792244;0.1648199;0;0;0;2846;-2178;2056;65536;0.5675072;0.4099723;-0.5124654;-0.4972299;-1;-3;-1;4020;220;-731;8192;0.6592798;-0.7047222;-0.2617728;-0.01385042;-1;0;0;1434;3852;24;32768;0.4252077;-0.7513554;0.5041551;-0.02216066;0;0;0;3268;2492;488;256;0.1066482;-0.1883656;-0.6814404;-0.6991305;0;-1;0;514;3996;-154;128;-0.09141274;0.1855956;0.66482;0.717783;-2;-4;0;-448;4030;350;4;-0.5457063;0.1454294;-0.4819945;-0.6698778;-1;-1;0;2432;3198;260;16;0.7904123;-0.6080332;0.05124654;-0.05401662;0;-1;0;711;4055;-1094;2;0.5470914;-0.7134658;-0.2880886;-0.3296399;1;-2;0;218;3892;-924;8;0.3836565;-0.7901428;0.33241;0.3434903;0;-1;0;1011;3447;1913;0.4983685;2.505331;1.252682;0.5042772;3.043777;1.165148;0.5094675;3.516746;1.086209;0.5883294;4.245417;1.122028;0.3663875;4.598967;1.099858;0.01166216;4.493383;1.156082;-0.6662787;4.975616;0.7484336;0.2422837;4.93366;1.014048;0.8837109;4.542982;1.099857;1.155552;4.369589;1.156081;1.386221;3.467046;1.402014;0.7388945;2.882748;1.772625;0.1861068;2.462613;1.252428;0.03870949;1.286532;0.3945431;0;0;0;0.1861068;2.462613;1.252428;0.03870949;1.286532;0.3945431;0;0;0
591664.3332;NotLabelled;16384;0.7220744;0.4695291;0.4806094;0.1648199;0;0;-1;2806;-2194;2056;65536;0.5672536;0.4085872;-0.5138504;-0.4972299;0;-1;-1;4072;244;-747;8192;0.6592798;-0.7047222;-0.2617728;-0.01385042;-1;0;0;1472;3868;-16;32768;0.4252077;-0.7513554;0.5041551;-0.02216066;0;0;0;3334;2466;588;256;0.1080332;-0.1897507;-0.6814404;-0.6985431;0;-1;-1;540;4058;-112;128;-0.09141274;0.1855956;0.66482;0.717783;-4;-2;0;-492;4014;326;4;-0.5457063;0.1440443;-0.4819945;-0.670177;0;0;0;2392;3190;304;16;0.7903164;-0.6080332;0.05124654;-0.05540166;0;8;1;503;4023;-1072;2;0.5470914;-0.7134658;-0.2880886;-0.3296399;1;-2;0;250;3962;-908;8;0.3836565;-0.7901428;0.33241;0.3434903;0;0;0;1081;3513;2055;0.4961485;2.506335;1.251853;0.5020608;3.045103;1.166323;0.5072542;3.518363;1.089145;0.5861161;4.247033;1.124964;0.3641742;4.600584;1.102794;0.009448946;4.495;1.159018;-0.6686599;4.977233;0.7516493;0.2399023;4.935277;1.017264;0.8814974;4.544599;1.102793;1.153339;4.371205;1.159017;1.385797;3.469327;1.405702;0.7384707;2.88503;1.776312;0.1838869;2.463618;1.251426;0.0387091;1.286532;0.3945426;0;0;0;0.1838869;2.463618;1.251426;0.0387091;1.286532;0.3945426;0;0;0
591684.9644;NotLabelled;16384;0.7220744;0.4695291;0.4806094;0.1648199;0;0;-1;2836;-2136;2050;65536;0.5672536;0.4085872;-0.5138504;-0.4972299;0;0;0;4066;220;-691;8192;0.6592798;-0.7047222;-0.2617728;-0.01385042;0;0;-1;1474;3864;-42;32768;0.4252077;-0.7513133;0.5041551;-0.0235457;0;-3;-1;3238;2466;478;256;0.1080332;-0.1897507;-0.6814404;-0.6985431;0;0;-1;514;4034;-152;128;-0.09141274;0.1869806;0.66482;0.7174234;-4;-2;0;-476;4032;354;4;-0.5457063;0.1440443;-0.4819945;-0.670177;0;0;0;2334;3154;266;16;0.7903067;-0.6080332;0.04986149;-0.0567867;0;4;1;777;4015;-1082;2;0.5470914;-0.7140235;-0.2867036;-0.3296399;0;0;0;150;4000;-932;8;0.3836565;-0.7901428;0.33241;0.3434903;0;1;0;1121;3483;2113;0.4950861;2.504197;1.255651;0.5009984;3.042965;1.170121;0.5061917;3.516225;1.092943;0.5851133;4.244911;1.128324;0.3631975;4.598465;1.105958;0.008467585;4.492942;1.162268;-0.6698314;4.973952;0.7537701;0.2373836;4.929005;1.023469;0.8805165;4.54244;1.105957;1.152348;4.369058;1.162266;1.383733;3.46718;1.409958;0.7349362;2.882883;1.777988;0.1828244;2.46148;1.255225;0.03918959;1.286184;0.3956285;0;0;0;0.1828244;2.46148;1.255225;0.03918959;1.286184;0.3956285;0;0;0
591705.9802;NotLabelled;16384;0.7220744;0.4695291;0.4806094;0.1648199;0;-1;0;2832;-2136;2026;65536;0.5672536;0.4085872;-0.5138504;-0.4972299;0;0;0;4088;192;-701;8192;0.6592798;-0.7047222;-0.2617728;-0.01385042;0;0;0;1536;3908;10;32768;0.4265928;-0.7505277;0.5041551;-0.0235457;0;0;-1;3226;2492;476;256;0.1094183;-0.1911357;-0.6814404;-0.6979496;0;0;-1;430;4030;-162;128;-0.09279778;0.1869806;0.6634349;0.718527;-3;-2;0;-488;3974;314;4;-0.5457063;0.1440443;-0.4819945;-0.670177;0;0;0;2360;3158;312;16;0.7903067;-0.6080332;0.04986149;-0.0567867;0;2;0;675;4031;-1062;2;0.5470914;-0.7146614;-0.2867036;-0.3282548;0;0;0;224;3936;-960;8;0.3836565;-0.7901428;0.33241;0.3434903;1;0;0;1133;3467;2099;0.4943095;2.504202;1.255711;0.5002218;3.042973;1.170194;0.5054152;3.516234;1.093026;0.5843366;4.24492;1.128406;0.362421;4.598474;1.10604;0.007691056;4.492951;1.162349;-0.6706088;4.97396;0.7538527;0.2366061;4.929013;1.023552;0.8797401;4.542448;1.106039;1.151571;4.369067;1.162348;1.382957;3.467189;1.410041;0.7324167;2.884249;1.777146;0.1820479;2.461486;1.255284;0.03841324;1.286189;0.3956881;0;0;0;0.1820479;2.461486;1.255284;0.03841324;1.286189;0.3956881;0;0;0
591725.9534;NotLabelled;16384;0.7208539;0.4709141;0.4806094;0.166205;0;-2;0;2880;-2184;2012;65536;0.5672536;0.4085872;-0.5138504;-0.4972299;1;1;-1;4118;202;-679;8192;0.6592798;-0.7047222;-0.2617728;-0.01385042;0;0;-1;1510;3920;16;32768;0.4265928;-0.7505277;0.5041551;-0.0235457;0;0;-1;3294;2514;548;256;0.1094183;-0.1911357;-0.6814404;-0.6979496;0;0;-2;444;4046;-166;128;-0.09279778;0.1869806;0.6634349;0.718527;-3;-1;0;-474;4036;356;4;-0.5457063;0.1440443;-0.4819945;-0.670177;-1;0;0;2414;3246;300;16;0.7903067;-0.6080332;0.04986149;-0.0567867;-1;4;0;599;4085;-1054;2;0.5470914;-0.7146614;-0.2867036;-0.3282548;1;0;1;202;3944;-1002;8;0.3836565;-0.7901428;0.33241;0.3434903;0;0;0;1075;3525;2033;0.4893081;2.5042;1.256575;0.4952235;3.043239;1.172768;0.5004196;3.516743;1.097104;0.5794036;4.245443;1.13204;0.3575158;4.599003;1.109475;0.002780765;4.493544;1.165871;-0.6738858;4.974552;0.7546757;0.2322477;4.929606;1.027986;0.8748302;4.542934;1.109474;1.146651;4.369565;1.16587;1.377048;3.467687;1.414482;0.7248164;2.883409;1.776423;0.1770465;2.461485;1.256001;0.03683677;1.286188;0.3958389;0;0;0;0.1770465;2.461485;1.256001;0.03683677;1.286188;0.3958389;0;0;0
591745.9729;NotLabelled;16384;0.7208539;0.4709141;0.4806094;0.166205;1;-2;0;2850;-2092;2058;65536;0.5662534;0.4099723;-0.5138504;-0.4972299;1;1;-1;4118;196;-675;8192;0.6592798;-0.7047222;-0.2617728;-0.01385042;-1;0;-1;1450;3878;24;32768;0.4265928;-0.7505277;0.5041551;-0.0235457;0;0;-1;3290;2526;482;256;0.1094183;-0.1911357;-0.6814404;-0.6979496;0;0;-1;490;4024;-150;128;-0.09279778;0.1883656;0.6634349;0.7181651;-4;0;0;-454;4062;344;4;-0.5470914;0.1440443;-0.4819945;-0.6690468;0;1;0;2428;3284;290;16;0.790206;-0.6080332;0.04986149;-0.05817174;0;2;0;701;4027;-1080;2;0.5457063;-0.7157195;-0.2867036;-0.3282548;0;-1;0;240;3962;-996;8;0.3836565;-0.7901428;0.33241;0.3434903;1;0;0;1083;3511;2015;0.4893081;2.5042;1.256575;0.4952235;3.043239;1.172768;0.5004196;3.516743;1.097104;0.5794036;4.245443;1.13204;0.3575158;4.599003;1.109475;0.002780765;4.493544;1.165871;-0.6753894;4.974109;0.7566385;0.2307444;4.929162;1.029949;0.8748302;4.542934;1.109474;1.146651;4.369565;1.16587;1.377048;3.467687;1.414482;0.7248164;2.883409;1.776423;0.1770465;2.461485;1.256001;0.03683677;1.286188;0.3958389;0;0;0;0.1770465;2.461485;1.256001;0.03683677;1.286188;0.3958389;0;0;0
591766.1484;NotLabelled;16384;0.7208539;0.4709141;0.4806094;0.166205;0;-2;0;2896;-2140;2056;65536;0.5662534;0.4099723;-0.5138504;-0.4972299;1;1;0;4154;172;-673;8192;0.6592798;-0.7047222;-0.2617728;-0.01385042;0;1;-1;1454;3886;2;32768;0.4265928;-0.7505277;0.5041551;-0.0235457;1;-1;-1;3266;2496;532;256;0.1108033;-0.1911357;-0.6814404;-0.6977311;0;1;-1;504;4046;-108;128;-0.09279778;0.1883656;0.6620498;0.7194421;-4;-1;0;-516;4056;384;4;-0.5470914;0.1440443;-0.4819945;-0.6690468;0;2;0;2366;3224;312;16;0.7891383;-0.6094183;0.04986149;-0.05817174;-1;0;0;749;4053;-1028;2;0.5457063;-0.7157195;-0.2867036;-0.3282548;1;0;1;192;3976;-966;8;0.3836565;-0.7901428;0.33241;0.3434903;1;0;0;1067;3513;1979;0.4935604;2.502839;1.258536;0.4994757;3.04188;1.174742;0.5046719;3.515386;1.099088;0.583656;4.244085;1.134025;0.3617681;4.597645;1.11146;0.00703305;4.492186;1.167855;-0.6711349;4.972743;0.7586079;0.2344002;4.928507;1.03401;0.8790826;4.541577;1.11146;1.150903;4.368207;1.167856;1.381299;3.466334;1.416489;0.7290664;2.882057;1.778429;0.1812987;2.460124;1.257961;0.03888345;1.285838;0.3967823;0;0;0;0.1812987;2.460124;1.257961;0.03888345;1.285838;0.3967823;0;0;0
591787.2175;NotLabelled;16384;0.7208539;0.4709141;0.4806094;0.166205;0;-2;0;2896;-2178;2076;65536;0.5649934;0.4099723;-0.5152354;-0.4972299;2;1;0;4082;234;-709;8192;0.6592798;-0.7046936;-0.2617728;-0.01523546;0;1;0;1432;3860;-10;32768;0.4265928;-0.7505277;0.5041551;-0.0235457;1;0;-1;3196;2462;520;256;0.1108033;-0.1911357;-0.6814404;-0.6977311;0;0;-1;460;3994;-154;128;-0.09279778;0.1883656;0.6620498;0.7194421;-5;0;0;-566;3992;426;4;-0.5470914;0.1440443;-0.4819945;-0.6690468;0;0;0;2370;3170;266;16;0.7891383;-0.6094183;0.04986149;-0.05817174;-1;4;0;587;3979;-1076;2;0.5457063;-0.7151631;-0.2880886;-0.3282548;0;1;0;244;3960;-1010;8;0.3850415;-0.79007;0.33241;0.3421052;0;1;0;1051;3505;1969;0.49314;2.504031;1.254961;0.4990586;3.043379;1.173166;0.5042578;3.517162;1.099269;0.5818627;4.246033;1.133748;0.3593035;4.599156;1.110979;0.004772723;4.49306;1.167464;-0.6727615;4.973625;0.7571797;0.2322477;4.929391;1.034305;0.8767232;4.544068;1.110978;1.148876;4.37125;1.167464;1.378887;3.469371;1.416432;0.7259665;2.885093;1.77713;0.1808785;2.461319;1.254215;0.04010224;1.287033;0.3927663;0;0;0;0.1808785;2.461319;1.254215;0.04010224;1.287033;0.3927663;0;0;0
591807.1679;NotLabelled;16384;0.7217755;0.4709141;0.4792244;0.166205;1;-1;0;2820;-2160;2034;65536;0.5649934;0.4099723;-0.5152354;-0.4972299;1;1;-1;4058;262;-649;8192;0.6592798;-0.7046936;-0.2617728;-0.01523546;0;2;0;1498;3830;-48;32768;0.4279778;-0.7497388;0.5041551;-0.0235457;2;1;0;3234;2462;482;256;0.1108033;-0.1925208;-0.6814404;-0.6973502;-1;-3;0;496;3986;-126;128;-0.09279778;0.1883656;0.6606648;0.7207143;-4;0;0;-524;4014;382;4;-0.5470914;0.1440443;-0.4819945;-0.6690468;-1;2;0;2354;3204;236;16;0.789035;-0.6094183;0.04986149;-0.05955679;-1;1;0;749;4015;-1074;2;0.5457063;-0.7151631;-0.2880886;-0.3282548;0;1;0;216;3972;-950;8;0.3850415;-0.79007;0.33241;0.3421052;0;1;0;1141;3497;1969;0.49314;2.504031;1.254961;0.4990586;3.043379;1.173166;0.5042578;3.517162;1.099269;0.5818627;4.246033;1.133748;0.3593035;4.599156;1.110979;0.004772723;4.49306;1.167464;-0.6726163;4.973625;0.75694;0.2314906;4.927106;1.036624;0.8767232;4.544068;1.110978;1.148876;4.37125;1.167464;1.377119;3.468707;1.41565;0.724199;2.88443;1.776348;0.1808785;2.461319;1.254215;0.04010224;1.287033;0.3927663;0;0;0;0.1808785;2.461319;1.254215;0.04010224;1.287033;0.3927663;0;0;0
591827.9762;NotLabelled;16384;0.7214552;0.4709141;0.4792244;0.16759;1;0;0;2802;-2196;2016;65536;0.5649934;0.4099723;-0.5152354;-0.4972299;1;0;0;4088;212;-555;8192;0.6592798;-0.7046936;-0.2617728;-0.01523546;2;1;0;1336;3788;-56;32768;0.4279778;-0.749694;0.5041551;-0.02493075;2;-2;-2;3206;2382;566;256;0.1121884;-0.1925208;-0.6828254;-0.6957722;-3;-4;0;454;3948;-70;128;-0.09279778;0.1883656;0.6606648;0.7207143;-5;0;0;-480;3994;364;4;-0.5470914;0.1440443;-0.4819945;-0.6690468;0;2;0;2306;3212;266;16;0.789035;-0.6094183;0.04986149;-0.05955679;-1;-2;0;717;4025;-1068;2;0.5457063;-0.7151631;-0.2880886;-0.3282548;0;3;0;238;3902;-952;8;0.3850415;-0.79007;0.33241;0.3421052;0;0;0;1075;3425;1915;0.4925802;2.503673;1.256458;0.4985021;3.04332;1.17666;0.5037042;3.517373;1.104516;0.5827545;4.246087;1.139003;0.3608962;4.599652;1.116237;0.006155699;4.494259;1.172721;-0.6684031;4.976055;0.7589917;0.2351207;4.929536;1.040555;0.8782057;4.543539;1.116236;1.150015;4.37018;1.17272;1.377741;3.467637;1.42138;0.7238518;2.88203;1.778142;0.1803187;2.460963;1.255541;0.04133345;1.286677;0.3938021;0;0;0;0.1803187;2.460963;1.255541;0.04133345;1.286677;0.3938021;0;0;0
591848.0883;NotLabelled;16384;0.7214552;0.4709141;0.4792244;0.16759;2;1;-1;2864;-2198;2018;65536;0.565248;0.4113573;-0.5138504;-0.4972299;1;-1;1;3996;174;-587;8192;0.6592798;-0.7046936;-0.2617728;-0.01523546;3;0;0;1316;3810;-22;32768;0.4279778;-0.7497388;0.5041551;-0.0235457;0;-4;-4;3192;2360;540;256;0.1135734;-0.1939058;-0.6828254;-0.6951626;-4;-6;0;474;3910;-162;128;-0.09279778;0.1883656;0.6606648;0.7207143;-5;-1;0;-506;3940;324;4;-0.5484765;0.1454294;-0.4819945;-0.6676115;0;1;0;2312;3220;284;16;0.789035;-0.6094183;0.04986149;-0.05955679;-2;-2;0;657;4103;-1012;2;0.5457063;-0.7145258;-0.2880886;-0.3296399;0;2;0;190;3828;-1034;8;0.3850415;-0.79007;0.33241;0.3421052;0;0;0;1071;3555;1977;0.4925802;2.503673;1.256458;0.4985021;3.04332;1.17666;0.5037042;3.517373;1.104516;0.5820578;4.246315;1.13562;0.3597762;4.599543;1.111783;0.005271763;4.494027;1.169508;-0.671535;4.971776;0.7547572;0.2319888;4.925257;1.03632;0.8771434;4.543973;1.110896;1.149259;4.37115;1.167547;1.378484;3.469951;1.419681;0.722866;2.885703;1.775498;0.1803187;2.460963;1.255541;0.04133345;1.286677;0.3938021;0;0;0;0.1803187;2.460963;1.255541;0.04133345;1.286677;0.3938021;0;0;0
591868.9778;NotLabelled;16384;0.7214552;0.4709141;0.4792244;0.16759;3;1;0;2818;-2120;1998;65536;0.565248;0.4113573;-0.5138504;-0.4972299;1;-1;0;4034;214;-593;8192;0.6578947;-0.7064988;-0.2603878;-0.01523546;3;-1;-1;1336;3900;36;32768;0.4279778;-0.7488478;0.5055401;-0.02216066;0;-6;-5;3226;2444;550;256;0.1135734;-0.1952908;-0.6828254;-0.6947747;-4;-6;0;490;4006;-32;128;-0.09279778;0.1883656;0.6592798;0.7219814;-8;-2;1;-470;3938;378;4;-0.5484765;0.1454294;-0.4819945;-0.6676115;0;1;0;2362;3230;308;16;0.789035;-0.6094183;0.04986149;-0.05955679;-1;-1;0;669;4069;-990;2;0.5457063;-0.7145258;-0.2880886;-0.3296399;0;2;0;164;3846;-966;8;0.3850415;-0.79007;0.33241;0.3421052;0;0;0;1057;3523;2023;0.4857901;2.504455;1.256341;0.4917121;3.044102;1.176543;0.4969143;3.518155;1.1044;0.5752919;4.247108;1.135177;0.3530861;4.600345;1.110753;-0.001523882;4.494901;1.16796;-0.6728765;4.975188;0.747319;0.2293244;4.931655;1.033564;0.8704484;4.544721;1.110753;1.142452;4.371905;1.16796;1.36776;3.469362;1.418814;0.7118481;2.883754;1.771844;0.1735286;2.461746;1.255425;0.03908874;1.286677;0.3940313;0;0;0;0.1735286;2.461746;1.255425;0.03908874;1.286677;0.3940313;0;0;0
591889.9744;NotLabelled;16384;0.7214365;0.4695291;0.4806094;0.16759;3;1;0;2796;-2056;1980;65536;0.5639858;0.4113573;-0.5152354;-0.4972299;1;-2;0;3990;212;-673;8192;0.6578947;-0.7064988;-0.2603878;-0.01523546;2;-1;-1;1466;3878;46;32768;0.4279778;-0.7488478;0.5055401;-0.02216066;-1;-5;-4;3278;2422;492;256;0.1149584;-0.1952908;-0.6828254;-0.6945469;-3;-4;0;456;3990;-54;128;-0.09279778;0.1883656;0.6592798;0.7219814;-5;-1;0;-508;3956;354;4;-0.5484765;0.1454294;-0.4819945;-0.6676115;0;0;1;2270;3226;266;16;0.7880667;-0.6108033;0.04986149;-0.05817174;-1;0;0;731;4031;-1080;2;0.5457063;-0.7145258;-0.2880886;-0.3296399;0;0;0;166;3960;-950;8;0.3850415;-0.79007;0.33241;0.3421052;0;0;0;1049;3551;2053;0.4827248;2.504452;1.256931;0.4886499;3.044389;1.179127;0.4938549;3.518706;1.108736;0.5736728;4.247501;1.139548;0.3521795;4.60118;1.115047;-0.002660394;4.496441;1.172124;-0.6736486;4.975175;0.7491373;0.2278505;4.931643;1.037583;0.8694301;4.544526;1.115234;1.141069;4.371168;1.172539;1.362381;3.469215;1.429009;0.7063538;2.883065;1.780925;0.1704632;2.461746;1.255844;0.03812662;1.286677;0.3941254;0;0;0;0.1704632;2.461746;1.255844;0.03812662;1.286677;0.3941254;0;0;0
591909.9802;NotLabelled;16384;0.7214365;0.4695291;0.4806094;0.16759;4;0;0;2816;-2214;2020;65536;0.5652039;0.4113573;-0.5152354;-0.4958449;2;-2;0;4012;196;-675;8192;0.6578947;-0.7064676;-0.2603878;-0.0166205;2;0;-1;1516;3864;28;32768;0.4279778;-0.7488875;0.5055401;-0.02077562;-1;-5;-3;3224;2546;478;256;0.1163435;-0.1966759;-0.6842105;-0.6925596;-3;-4;0;518;4052;-82;128;-0.09279778;0.1883656;0.6578947;0.7232437;-5;0;1;-420;3982;356;4;-0.5484765;0.1454294;-0.4819945;-0.6676115;-1;0;1;2288;3256;290;16;0.7880667;-0.6108033;0.04986149;-0.05817174;-1;0;0;553;4061;-1022;2;0.5457063;-0.7145258;-0.2880886;-0.3296399;0;0;0;234;4032;-950;8;0.3850415;-0.79007;0.33241;0.3421052;0;1;0;1029;3525;2029;0.4807702;2.505987;1.252146;0.4866953;3.045925;1.174343;0.4919004;3.520241;1.103951;0.5703588;4.249205;1.134261;0.3481893;4.60245;1.109629;-0.006428003;4.497081;1.166928;-0.6790701;4.975069;0.7457277;0.2210458;4.929247;1.038113;0.8655455;4.546771;1.109628;1.137535;4.373962;1.166926;1.359071;3.471069;1.419873;0.702501;2.884919;1.770773;0.1685086;2.463281;1.251059;0.03750445;1.288213;0.3891364;0;0;0;0.1685086;2.463281;1.251059;0.03750445;1.288213;0.3891364;0;0;0
591929.9808;NotLabelled;16384;0.7223361;0.468144;0.4806094;0.16759;4;0;0;2840;-2114;2106;65536;0.5639382;0.4113573;-0.5166205;-0.4958449;2;-2;0;4076;182;-765;8192;0.6578947;-0.7064676;-0.2603878;-0.0166205;0;0;-1;1432;3876;-12;32768;0.4293629;-0.7471937;0.5069252;-0.01939058;0;-8;-4;3264;2570;522;256;0.1177285;-0.1980609;-0.6842105;-0.6919305;-3;-5;0;506;3976;-54;128;-0.09279778;0.1883656;0.6578947;0.7232437;-3;0;1;-450;4058;382;4;-0.5484765;0.1440443;-0.4819945;-0.6679118;-1;-1;0;2228;3222;278;16;0.7879633;-0.6108033;0.04986149;-0.05955679;-1;2;0;693;4027;-1088;2;0.5457063;-0.7139658;-0.2894737;-0.3296399;0;0;0;246;3946;-954;8;0.3850415;-0.79007;0.33241;0.3421052;0;3;1;1085;3473;2025;0.4755715;2.505984;1.253004;0.4814997;3.046205;1.177192;0.4867074;3.520778;1.108551;0.5658847;4.249791;1.135624;0.3440588;4.603141;1.109455;-0.01065466;4.498375;1.16726;-0.6797837;4.974796;0.738753;0.2192081;4.931276;1.034923;0.8613604;4.546954;1.10964;1.133187;4.374134;1.16767;1.350948;3.471524;1.424865;0.6946455;2.884015;1.773989;0.16331;2.463283;1.251747;0.03588772;1.288213;0.3892881;0;0;0;0.16331;2.463283;1.251747;0.03588772;1.288213;0.3892881;0;0;0
591950.9841;NotLabelled;16384;0.7229334;0.468144;0.4792244;0.1689751;4;0;0;2848;-2110;2112;65536;0.565153;0.4113573;-0.5166205;-0.4944598;2;-2;0;4016;160;-789;8192;0.6578947;-0.7064676;-0.2603878;-0.0166205;0;-1;0;1450;3898;22;32768;0.4293629;-0.7462868;0.5083103;-0.01800554;-1;-12;-5;3240;2628;508;256;0.1191136;-0.199446;-0.6842105;-0.6912954;-4;-8;0;470;4012;-128;128;-0.09279778;0.1883656;0.6565097;0.7245012;-1;-1;1;-462;4046;440;4;-0.5484765;0.1440443;-0.4819945;-0.6679118;0;-1;0;2346;3178;268;16;0.7879633;-0.6108033;0.04986149;-0.05955679;-1;1;0;625;4019;-1042;2;0.5457063;-0.7139658;-0.2894737;-0.3296399;0;1;0;220;3936;-960;8;0.3850415;-0.7906513;0.3310249;0.3421052;0;3;1;1115;3437;2023;0.4748653;2.503828;1.256764;0.4807936;3.044049;1.180952;0.4860013;3.518622;1.112311;0.5652818;4.247643;1.138877;0.3434893;4.601004;1.112574;-0.01121265;4.49632;1.1706;-0.679834;4.973235;0.74185;0.2171108;4.927428;1.043824;0.8607836;4.544752;1.112574;1.132613;4.371935;1.170599;1.35051;3.468386;1.424359;0.6935006;2.879013;1.768983;0.1626037;2.461127;1.255507;0.03650936;1.287857;0.390407;0;0;0;0.1626037;2.461127;1.255507;0.03650936;1.287857;0.390407;0;0;0
591971.9654;NotLabelled;16384;0.7238284;0.466759;0.4792244;0.1689751;3;0;0;2796;-2012;2110;65536;0.565153;0.4113573;-0.5166205;-0.4944598;1;-2;0;3976;140;-743;8192;0.6578947;-0.7070078;-0.2590028;-0.01523546;0;-1;1;1494;3878;32;32768;0.4293629;-0.7463189;0.5083103;-0.0166205;-1;-11;-4;3288;2680;414;256;0.1204986;-0.199446;-0.6842105;-0.6910553;-2;-5;0;460;3982;-70;128;-0.09279778;0.1883656;0.6565097;0.7245012;-3;0;0;-524;4026;434;4;-0.5484765;0.1440443;-0.4819945;-0.6679118;0;-1;0;2370;3202;266;16;0.7880497;-0.6108033;0.04847645;-0.05955679;-1;1;0;667;4067;-1038;2;0.5457063;-0.7139658;-0.2894737;-0.3296399;0;0;0;238;3882;-986;8;0.3850415;-0.7912492;0.3310249;0.3407202;0;1;1;1173;3429;2039;0.4698519;2.503823;1.257574;0.4757832;3.04432;1.18375;0.4809937;3.519142;1.116856;0.5603713;4.24817;1.142939;0.338623;4.601542;1.116419;-0.01608828;4.496943;1.174539;-0.6819501;4.973576;0.7412064;0.2138802;4.930072;1.046808;0.8559102;4.545223;1.116419;1.127721;4.372408;1.174538;1.344695;3.468859;1.429088;0.6870478;2.878942;1.771555;0.1575906;2.461127;1.256146;0.03495061;1.287858;0.3905498;0;0;0;0.1575906;2.461127;1.256146;0.03495061;1.287858;0.3905498;0;0;0
591993.0328;NotLabelled;16384;0.7238284;0.466759;0.4792244;0.1689751;2;0;0;2834;-2048;2076;65536;0.565153;0.4113573;-0.5166205;-0.4944598;0;-1;0;3984;146;-777;8192;0.6578947;-0.7070078;-0.2590028;-0.01523546;0;0;1;1504;3886;-16;32768;0.4293629;-0.7453737;0.5096953;-0.0166205;0;-5;-2;3222;2572;418;256;0.1204986;-0.200831;-0.6842105;-0.690654;-2;-2;0;424;3926;-186;128;-0.09279778;0.1883656;0.6565097;0.7245012;-3;0;0;-478;3930;460;4;-0.5484765;0.1440443;-0.4819945;-0.6679118;0;0;0;2364;3254;276;16;0.7879633;-0.6108033;0.04986149;-0.05955679;0;0;0;663;4065;-950;2;0.5443213;-0.7150223;-0.2894737;-0.3296399;0;1;0;294;3952;-944;8;0.3850415;-0.7912492;0.3310249;0.3407202;1;1;0;997;3525;2037;0.4646546;2.504187;1.256905;0.4705859;3.044684;1.183082;0.4757964;3.519506;1.116187;0.5538141;4.248698;1.141775;0.3314041;4.601638;1.115035;-0.0231072;4.496415;1.173251;-0.6863997;4.971967;0.7348181;0.2088432;4.928461;1.042138;0.8487957;4.546285;1.115034;1.120933;4.374018;1.17325;1.336913;3.470524;1.428843;0.6803254;2.879246;1.770997;0.1523931;2.461491;1.255478;0.03141426;1.288222;0.3896478;0;0;0;0.1523931;2.461491;1.255478;0.03141426;1.288222;0.3896478;0;0;0
592013.9818;NotLabelled;16384;0.7238284;0.466759;0.4792244;0.1689751;1;0;0;2846;-2074;2082;65536;0.5663618;0.4113573;-0.5166205;-0.4930748;1;-1;0;4020;168;-751;8192;0.6578947;-0.7070078;-0.2590028;-0.01523546;0;1;1;1400;3896;-26;32768;0.4307479;-0.7446038;0.5096953;-0.01523546;0;0;-1;3280;2496;448;256;0.1204986;-0.200831;-0.6842105;-0.690654;-1;0;0;452;3998;-118;128;-0.09279778;0.1883656;0.6565097;0.7245012;-1;0;1;-466;3984;474;4;-0.5484765;0.1440443;-0.4819945;-0.6679118;0;1;0;2380;3250;296;16;0.7879633;-0.6108033;0.04986149;-0.05955679;0;2;0;613;4043;-1032;2;0.5443213;-0.7143821;-0.2894737;-0.3310249;0;2;0;230;3930;-996;8;0.3864266;-0.7905737;0.3310249;0.3407202;0;0;0;1087;3517;2017;0.4648336;2.503823;1.258193;0.4707649;3.044319;1.184369;0.4759755;3.519141;1.117475;0.5554538;4.248176;1.143068;0.3337516;4.601562;1.11633;-0.02096981;4.497048;1.174545;-0.6841938;4.972599;0.7360086;0.210409;4.929094;1.045185;0.8510309;4.545171;1.11633;1.122823;4.372358;1.174544;1.338763;3.468866;1.430171;0.6804839;2.8784;1.770473;0.1525722;2.461126;1.256765;0.03339039;1.287857;0.390686;0;0;0;0.1525722;2.461126;1.256765;0.03339039;1.287857;0.390686;0;0;0
592034.9788;NotLabelled;16384;0.7229094;0.466759;0.4806094;0.1689751;0;-1;0;2788;-2094;2126;65536;0.5650952;0.4113573;-0.5180055;-0.4930748;0;0;0;4042;150;-671;8192;0.6578947;-0.7070078;-0.2590028;-0.01523546;0;-2;0;1340;3908;-62;32768;0.4293629;-0.7454033;0.5096953;-0.01523546;-1;-2;-1;3278;2458;452;256;0.1204986;-0.200831;-0.6842105;-0.690654;0;0;0;474;3994;-88;128;-0.09279778;0.1883656;0.6565097;0.7245012;0;0;1;-474;4004;360;4;-0.5484765;0.1440443;-0.4819945;-0.6679118;0;2;0;2368;3242;328;16;0.7880497;-0.6108033;0.04847645;-0.05955679;0;3;1;665;3991;-1004;2;0.5443213;-0.7143821;-0.2894737;-0.3310249;0;2;0;182;3920;-972;8;0.3864266;-0.7905737;0.3310249;0.3407202;0;0;0;1109;3505;1937;0.4648336;2.503823;1.258193;0.4707649;3.044319;1.184369;0.4759755;3.519141;1.117475;0.5554538;4.248176;1.143068;0.3337516;4.601562;1.11633;-0.02096981;4.497048;1.174545;-0.6841938;4.972599;0.7360086;0.2105021;4.931393;1.045232;0.8510309;4.545171;1.11633;1.122823;4.372358;1.174544;1.338763;3.468866;1.430171;0.682025;2.875734;1.768811;0.1525722;2.461126;1.256765;0.03339039;1.287857;0.390686;0;0;0;0.1525722;2.461126;1.256765;0.03339039;1.287857;0.390686;0;0;0
592055.2949;NotLabelled;16384;0.7238284;0.466759;0.4792244;0.1689751;1;-1;0;2780;-2134;2082;65536;0.5650952;0.4113573;-0.5180055;-0.4930748;0;0;0;4034;148;-709;8192;0.6578947;-0.7070078;-0.2590028;-0.01523546;0;-2;-1;1474;3854;-68;32768;0.4293629;-0.7444543;0.5110803;-0.01523546;-2;-4;-1;3278;2512;410;256;0.1218837;-0.200831;-0.6842105;-0.690411;0;0;0;512;3954;-40;128;-0.09279778;0.1883656;0.6565097;0.7245012;0;0;0;-414;3962;410;4;-0.5484765;0.1440443;-0.4819945;-0.6679118;0;2;0;2348;3202;338;16;0.7868682;-0.6121883;0.04847645;-0.06094183;0;5;1;613;4089;-1014;2;0.5443213;-0.7143821;-0.2894737;-0.3310249;0;1;-1;130;3954;-992;8;0.3864266;-0.7905737;0.3310249;0.3407202;0;1;0;1105;3519;1987;0.4620488;2.504187;1.257219;0.46798;3.044684;1.183396;0.4731907;3.519506;1.116501;0.552669;4.24854;1.142094;0.3309667;4.601926;1.115357;-0.0237546;4.497413;1.173571;-0.6890061;4.971734;0.7367789;0.2046993;4.928246;1.048542;0.848246;4.545535;1.115356;1.120038;4.372723;1.17357;1.335978;3.46923;1.429197;0.6794135;2.877402;1.770444;0.1497874;2.461491;1.255792;0.03060554;1.288222;0.3897121;0;0;0;0.1497874;2.461491;1.255792;0.03060554;1.288222;0.3897121;0;0;0
592075.9813;NotLabelled;16384;0.7238284;0.466759;0.4792244;0.1689751;0;0;0;2850;-2074;2054;65536;0.5650952;0.4113573;-0.5180055;-0.4930748;0;0;0;4074;202;-657;8192;0.6578947;-0.7070078;-0.2590028;-0.01523546;0;-1;0;1528;3786;-26;32768;0.4293629;-0.7444543;0.5110803;-0.01523546;-1;-4;0;3210;2520;352;256;0.1218837;-0.200831;-0.6842105;-0.690411;0;0;0;524;3944;-108;128;-0.09279778;0.1883656;0.6565097;0.7245012;0;0;0;-470;3970;426;4;-0.5484765;0.1440443;-0.4819945;-0.6679118;0;1;0;2350;3182;330;16;0.7868682;-0.6121883;0.04847645;-0.06094183;0;3;0;681;4023;-1008;2;0.5443213;-0.7143821;-0.2894737;-0.3310249;0;1;0;216;3844;-1018;8;0.3864266;-0.7911692;0.3310249;0.3393352;0;0;0;1121;3469;2055;0.4637778;2.504998;1.254474;0.469709;3.045494;1.18065;0.4749196;3.520316;1.113756;0.5530402;4.249515;1.138848;0.3306774;4.602468;1.111887;-0.02384421;4.497334;1.170199;-0.6862251;4.972884;0.73039;0.2068805;4.929396;1.043869;0.8480611;4.547043;1.111887;1.120179;4.374777;1.170199;1.335628;3.471284;1.426239;0.6774251;2.880268;1.765734;0.1515164;2.462301;1.253047;0.03399757;1.289032;0.3867399;0;0;0;0.1515164;2.462301;1.253047;0.03399757;1.289032;0.3867399;0;0;0
592097.0975;NotLabelled;16384;0.7238284;0.466759;0.4792244;0.1689751;1;0;0;2764;-2088;1990;65536;0.5650952;0.4113573;-0.5180055;-0.4930748;0;0;0;3980;202;-737;8192;0.6578947;-0.7075421;-0.2576177;-0.01385042;0;0;0;1544;3802;-52;32768;0.4293629;-0.7444543;0.5110803;-0.01523546;0;-2;0;3192;2612;400;256;0.1218837;-0.200831;-0.6842105;-0.690411;0;0;0;484;3922;-94;128;-0.09279778;0.1883656;0.6565097;0.7245012;0;1;0;-434;3948;440;4;-0.5484765;0.1454294;-0.4819945;-0.6676115;0;0;0;2346;3290;344;16;0.7867597;-0.6121883;0.04847645;-0.06232687;0;1;0;701;4039;-1066;2;0.5443213;-0.7137387;-0.2894737;-0.33241;0;0;0;170;3884;-978;8;0.3864266;-0.7911692;0.3310249;0.3393352;0;-1;0;1103;3473;2025;0.4637778;2.504998;1.254474;0.469709;3.045494;1.18065;0.4749196;3.520316;1.113756;0.5530402;4.249515;1.138848;0.3306774;4.602468;1.111887;-0.02384421;4.497334;1.170199;-0.6862251;4.972884;0.73039;0.2068805;4.929396;1.043869;0.8480611;4.547043;1.111887;1.120179;4.374777;1.170199;1.335628;3.471284;1.426239;0.6774251;2.880268;1.765734;0.1515164;2.462301;1.253047;0.03399757;1.289032;0.3867399;0;0;0;0.1515164;2.462301;1.253047;0.03399757;1.289032;0.3867399;0;0;0
592117.9743;NotLabelled;16384;0.7238284;0.466759;0.4792244;0.1689751;1;0;0;2788;-2124;2036;65536;0.5650952;0.4113573;-0.5180055;-0.4930748;0;0;0;3920;212;-653;8192;0.6578947;-0.7070363;-0.2590028;-0.01385042;0;1;0;1530;3844;-8;32768;0.4293629;-0.7444543;0.5110803;-0.01523546;0;0;0;3156;2542;494;256;0.1204986;-0.200831;-0.6842105;-0.690654;0;0;0;482;3952;-52;128;-0.09279778;0.1883656;0.6565097;0.7245012;1;1;0;-396;3950;408;4;-0.5484765;0.1454294;-0.4819945;-0.6676115;0;0;0;2324;3230;364;16;0.7867597;-0.6121883;0.04847645;-0.06232687;0;2;0;707;4005;-1022;2;0.5443213;-0.7137387;-0.2894737;-0.33241;0;0;0;182;3946;-958;8;0.3864266;-0.7911692;0.3310249;0.3393352;0;-1;0;1049;3543;1983;0.464024;2.506438;1.253285;0.4699553;3.046934;1.179462;0.4751658;3.521756;1.112567;0.5532865;4.250955;1.13766;0.3309237;4.603908;1.110699;-0.02359796;4.498774;1.169011;-0.6859788;4.974324;0.7292014;0.2071267;4.930836;1.04268;0.8483074;4.548483;1.110698;1.120426;4.376217;1.16901;1.335957;3.47278;1.42518;0.6777539;2.881764;1.764675;0.1517626;2.463741;1.251858;0.03602743;1.288673;0.3877532;0;0;0;0.1517626;2.463741;1.251858;0.03602743;1.288673;0.3877532;0;0;0
592138.9751;NotLabelled;16384;0.7235036;0.466759;0.4792244;0.1703601;3;-1;-1;2842;-2132;2034;65536;0.5650952;0.4113573;-0.5180055;-0.4930748;1;-1;1;4036;184;-613;8192;0.6565097;-0.7082941;-0.2590028;-0.01523546;1;0;1;1420;3810;14;32768;0.4293629;-0.7444543;0.5110803;-0.01523546;0;0;0;3194;2538;556;256;0.1204986;-0.200831;-0.6842105;-0.690654;0;2;0;486;3976;-30;128;-0.09279778;0.1883656;0.6565097;0.7245012;0;0;0;-484;3988;406;4;-0.5484765;0.1454294;-0.4833795;-0.6666095;0;0;0;2320;3230;352;16;0.7867597;-0.6121883;0.04847645;-0.06232687;-1;0;0;815;4019;-948;2;0.5443213;-0.7137387;-0.2894737;-0.33241;0;-1;0;286;3934;-908;8;0.3864266;-0.7905737;0.3310249;0.3407202;0;-1;0;1103;3547;1983;0.4664272;2.506438;1.252991;0.4723585;3.046934;1.179168;0.477569;3.521756;1.112274;0.5570474;4.250791;1.137867;0.3353452;4.604176;1.111129;-0.01937619;4.499663;1.169344;-0.6826002;4.975214;0.7308074;0.2111054;4.931726;1.042571;0.8526247;4.547785;1.111129;1.124417;4.374973;1.169343;1.342017;3.472137;1.425882;0.6844671;2.881122;1.76664;0.1541658;2.463741;1.251565;0.03677183;1.288672;0.3876832;0;0;0;0.1541658;2.463741;1.251565;0.03677183;1.288672;0.3876832;0;0;0
592158.9839;NotLabelled;16384;0.7243953;0.4653739;0.4792244;0.1703601;4;0;0;2900;-2144;2034;65536;0.5663008;0.4113573;-0.5180055;-0.4916897;1;-2;1;4030;158;-645;8192;0.6565097;-0.7083225;-0.2590028;-0.01385042;1;0;1;1432;3876;-10;32768;0.4293629;-0.7444543;0.5110803;-0.01523546;1;0;0;3224;2528;444;256;0.1204986;-0.200831;-0.6842105;-0.690654;-1;2;0;478;3952;-86;128;-0.09279778;0.1883656;0.6578947;0.7232437;0;1;0;-458;4022;344;4;-0.5484765;0.1454294;-0.4833795;-0.6666095;-1;-1;0;2288;3184;352;16;0.7866731;-0.6121883;0.04986149;-0.06232687;0;-2;0;731;4063;-994;2;0.5443213;-0.7143821;-0.2894737;-0.3310249;0;-1;0;266;3862;-980;8;0.3864266;-0.7911692;0.3310249;0.3393352;0;-4;0;1115;3443;1969;0.4705407;2.507726;1.250666;0.476472;3.048222;1.176843;0.4816825;3.523044;1.109948;0.5611609;4.252079;1.135542;0.3394587;4.605464;1.108804;-0.01526269;4.500951;1.167019;-0.6792995;4.974992;0.7280774;0.2144057;4.931503;1.039841;0.8567382;4.549073;1.108803;1.12853;4.376262;1.167018;1.342255;3.473043;1.42546;0.6847057;2.882027;1.766217;0.1582793;2.465029;1.249239;0.03677185;1.288672;0.3876834;0;0;0;0.1582793;2.465029;1.249239;0.03677185;1.288672;0.3876834;0;0;0
592179.3966;NotLabelled;16384;0.7243953;0.4653739;0.4792244;0.1703601;3;1;-1;2868;-2082;2060;65536;0.5663008;0.4113573;-0.5180055;-0.4916897;1;-3;1;4022;124;-645;8192;0.6565097;-0.7083225;-0.2590028;-0.01385042;0;1;1;1408;3906;-46;32768;0.4293629;-0.7444543;0.5110803;-0.01523546;0;1;0;3288;2512;452;256;0.1204986;-0.200831;-0.6855956;-0.6892791;-1;0;0;490;4020;-48;128;-0.09279778;0.1883656;0.6578947;0.7232437;1;1;0;-440;3958;360;4;-0.5498615;0.1440443;-0.4833795;-0.6657686;-1;-2;1;2336;3226;322;16;0.7866731;-0.6121883;0.04986149;-0.06232687;-1;1;0;613;4019;-1034;2;0.5443213;-0.7149418;-0.2880886;-0.3310249;0;0;-1;142;3860;-1028;8;0.3850415;-0.7912637;0.33241;0.3393352;-1;-4;0;1127;3491;1999;0.4737718;2.507356;1.25141;0.4797001;3.047577;1.175598;0.4849078;3.52215;1.106956;0.5643954;4.251184;1.132521;0.3426836;4.604569;1.105863;-0.01201674;4.500056;1.164206;-0.6756058;4.974627;0.7251608;0.2183048;4.933438;1.036648;0.8599629;4.54818;1.105676;1.131776;4.375367;1.163793;1.34734;3.471857;1.419678;0.6899127;2.880841;1.760673;0.1615104;2.464655;1.250153;0.03969227;1.288297;0.388641;0;0;0;0.1615104;2.464655;1.250153;0.03969227;1.288297;0.388641;0;0;0
592200.0031;NotLabelled;16384;0.7243953;0.4653739;0.4792244;0.1703601;3;0;0;2858;-2020;2104;65536;0.5652921;0.4127424;-0.5180055;-0.4916897;0;-2;1;3950;132;-655;8192;0.6565097;-0.7083225;-0.2590028;-0.01385042;0;0;1;1394;3864;-4;32768;0.4293629;-0.7444543;0.5110803;-0.01523546;0;1;1;3258;2514;424;256;0.1204986;-0.200831;-0.6855956;-0.6892791;-1;0;1;420;3948;-36;128;-0.09279778;0.1883656;0.6578947;0.7232437;1;-1;0;-472;4024;316;4;-0.5498615;0.1440443;-0.4833795;-0.6657686;0;-1;2;2364;3188;250;16;0.7867597;-0.6121883;0.04847645;-0.06232687;0;1;0;675;4043;-1018;2;0.5443213;-0.7142988;-0.2880886;-0.33241;0;-1;-2;172;3980;-886;8;0.3850415;-0.7906683;0.33241;0.3407202;-1;-2;0;1061;3567;1975;0.4775389;2.504527;1.254718;0.4834671;3.044748;1.178906;0.4886749;3.519321;1.110264;0.5688144;4.248375;1.133059;0.3474164;4.601855;1.105072;-0.00737375;4.49788;1.16383;-0.6707512;4.970832;0.7227219;0.2231088;4.929643;1.034354;0.8646452;4.545002;1.105071;1.136307;4.37217;1.163829;1.351747;3.469608;1.423141;0.6942649;2.878592;1.764028;0.1652774;2.461826;1.253461;0.03962921;1.288298;0.3886473;0;0;0;0.1652774;2.461826;1.253461;0.03962921;1.288298;0.3886473;0;0;0
592220.9771;NotLabelled;16384;0.7249565;0.4639889;0.4792244;0.1717452;3;0;0;2866;-2028;2084;65536;0.5663008;0.4113573;-0.5180055;-0.4916897;0;-2;0;4060;130;-745;8192;0.6565097;-0.7083225;-0.2590028;-0.01385042;0;-1;1;1358;3846;-4;32768;0.4293629;-0.7444247;0.5110803;-0.0166205;-1;0;1;3218;2508;444;256;0.1204986;-0.200831;-0.6855956;-0.6892791;-1;0;1;432;3954;-64;128;-0.09279778;0.1883656;0.6578947;0.7232437;2;0;0;-438;3960;408;4;-0.5498615;0.1440443;-0.4819945;-0.666772;0;-2;1;2346;3198;278;16;0.7867597;-0.6121883;0.04847645;-0.06232687;0;1;0;705;4087;-966;2;0.5457063;-0.7132413;-0.2880886;-0.33241;0;-1;-1;222;3970;-998;8;0.3850415;-0.7906683;0.33241;0.3407202;-1;0;0;1009;3475;2051;0.4747583;2.504902;1.253747;0.4806866;3.045123;1.177935;0.4858944;3.519696;1.109293;0.5660339;4.248751;1.132087;0.3446358;4.60223;1.104101;-0.01015425;4.498256;1.162859;-0.6735317;4.971207;0.7217506;0.2196353;4.930716;1.035454;0.8618647;4.545378;1.1041;1.133527;4.372545;1.162857;1.348967;3.469983;1.42217;0.6914843;2.878967;1.763057;0.1624969;2.462201;1.252489;0.03684868;1.288672;0.3876759;0;0;0;0.1624969;2.462201;1.252489;0.03684868;1.288672;0.3876759;0;0;0
592241.9676;NotLabelled;16384;0.724039;0.4639889;0.4806094;0.1717452;3;1;0;2856;-2054;2132;65536;0.5652242;0.4127424;-0.5193906;-0.4903047;1;-3;0;4074;148;-715;8192;0.6565097;-0.7083225;-0.2590028;-0.01385042;1;-2;0;1424;3838;-60;32768;0.4293629;-0.7444247;0.5110803;-0.0166205;-2;0;1;3158;2504;416;256;0.1218837;-0.2022161;-0.6855956;-0.6886303;0;0;1;520;4020;-40;128;-0.09279778;0.1883656;0.6592798;0.7219814;2;0;-1;-410;4004;418;4;-0.5498615;0.1440443;-0.4819945;-0.666772;0;-4;1;2338;3230;324;16;0.7867597;-0.6121883;0.04847645;-0.06232687;0;0;0;669;4067;-974;2;0.5443213;-0.7142988;-0.2880886;-0.33241;0;-1;-1;310;3890;-988;8;0.3836565;-0.7907581;0.333795;0.3407202;-2;-2;0;1119;3415;2039;0.470643;2.503619;1.256072;0.4765712;3.04384;1.18026;0.481779;3.518413;1.111618;0.5619185;4.247468;1.134413;0.3405205;4.600947;1.106426;-0.01426962;4.496973;1.165184;-0.6777054;4.967317;0.7213839;0.2161546;4.926127;1.033017;0.8577493;4.544095;1.106425;1.129411;4.371262;1.165183;1.344852;3.4687;1.424495;0.6856567;2.87905;1.764439;0.1583815;2.460918;1.254815;0.03684844;1.288672;0.3876761;0;0;0;0.1583815;2.460918;1.254815;0.03684844;1.288672;0.3876761;0;0;0
592263.1127;NotLabelled;16384;0.7249247;0.4626039;0.4806094;0.1717452;2;1;0;2948;-2036;2190;65536;0.5664228;0.4127424;-0.5193906;-0.4889196;0;-2;0;4084;152;-753;8192;0.6565097;-0.7083482;-0.2590028;-0.01246537;1;-2;0;1448;3858;-10;32768;0.4279778;-0.7452219;0.5110803;-0.0166205;-1;1;0;3254;2540;400;256;0.1218837;-0.2022161;-0.6855956;-0.6886303;-1;0;1;480;4010;-36;128;-0.09279778;0.1883656;0.6592798;0.7219814;1;0;0;-472;4024;366;4;-0.5484765;0.1440443;-0.4819945;-0.6679118;0;-2;0;2404;3218;294;16;0.7867597;-0.6121883;0.04847645;-0.06232687;0;2;0;677;4053;-976;2;0.5443213;-0.7148559;-0.2867036;-0.33241;0;-2;-1;240;3928;-934;8;0.3836565;-0.7907581;0.333795;0.3407202;-2;-2;0;1033;3467;1973;0.4660863;2.503623;1.256468;0.4720116;3.043562;1.178665;0.4772165;3.517878;1.108273;0.5574744;4.246936;1.130543;0.3361167;4.60043;1.102417;-0.01866311;4.496547;1.1614;-0.6808904;4.967298;0.7162273;0.2102104;4.926826;1.035756;0.853337;4.543501;1.102227;1.124999;4.370667;1.160981;1.338552;3.467152;1.41853;0.6781276;2.877501;1.756078;0.1538249;2.460918;1.255381;0.03544082;1.288673;0.3878073;0;0;0;0.1538249;2.460918;1.255381;0.03544082;1.288673;0.3878073;0;0;0
592282.9933;NotLabelled;16384;0.7249247;0.4626039;0.4806094;0.1717452;2;1;0;2864;-2066;2204;65536;0.5664228;0.4127424;-0.5193906;-0.4889196;0;-2;0;4154;130;-775;8192;0.6565097;-0.7083482;-0.2590028;-0.01246537;0;-1;0;1462;3926;-6;32768;0.4279778;-0.7452219;0.5110803;-0.0166205;-1;0;1;3310;2578;336;256;0.1218837;-0.2022161;-0.6886303;-0.6855956;-2;-2;1;510;4010;-2;128;-0.09279778;0.1883656;0.6592798;0.7219814;1;0;-1;-540;4054;406;4;-0.5484765;0.1426593;-0.4819945;-0.668209;-1;0;0;2412;3250;308;16;0.7867329;-0.6121883;0.04709141;-0.06371191;0;2;0;683;4047;-970;2;0.5457063;-0.7137992;-0.2867036;-0.33241;0;-1;-1;234;3934;-1014;8;0.3836565;-0.7907581;0.333795;0.3407202;-1;0;0;1105;3509;2031;0.4634516;2.504647;1.255435;0.4693768;3.044585;1.177631;0.4745819;3.518901;1.107239;0.5548316;4.247959;1.129539;0.3334841;4.601452;1.101332;-0.02131721;4.497571;1.160185;-0.6842558;4.965585;0.7131902;0.2068143;4.927413;1.033087;0.8507046;4.544523;1.101331;1.122345;4.371689;1.160184;1.338411;3.469789;1.421269;0.6780305;2.881445;1.761177;0.15119;2.461941;1.254347;0.03529912;1.288672;0.3878208;0;0;0;0.15119;2.461941;1.254347;0.03529912;1.288672;0.3878208;0;0;0
592304.1349;NotLabelled;16384;0.7249247;0.4626039;0.4806094;0.1717452;0;1;1;2924;-2054;2234;65536;0.5674294;0.4113573;-0.5193906;-0.4889196;0;-1;0;4086;88;-841;8192;0.6565097;-0.7088531;-0.2576177;-0.01246537;0;-3;0;1326;3920;-14;32768;0.4279778;-0.7452219;0.5110803;-0.0166205;-2;0;1;3276;2618;436;256;0.1218837;-0.2036011;-0.6882221;-0.6855956;-1;-2;1;510;4080;-32;128;-0.09279778;0.1883656;0.6592798;0.7219814;0;0;-1;-494;4048;374;4;-0.5484765;0.1426593;-0.4819945;-0.668209;0;0;0;2334;3234;312;16;0.7866488;-0.6121883;0.04847645;-0.06371191;0;2;0;583;4087;-1064;2;0.5457063;-0.7137992;-0.2867036;-0.33241;0;0;-1;192;4000;-1012;8;0.3836565;-0.7907581;0.333795;0.3407202;-1;0;0;1115;3509;2005;0.465046;2.502856;1.257588;0.4709712;3.042794;1.179785;0.4761762;3.51711;1.109393;0.5578866;4.246169;1.125538;0.3372115;4.599853;1.094587;-0.01773906;4.497169;1.154631;-0.6808739;4.965182;0.7079265;0.2103361;4.927011;1.027433;0.8543181;4.5419;1.094587;1.125672;4.369024;1.15463;1.341852;3.467124;1.415621;0.681621;2.87878;1.755819;0.1527845;2.46015;1.256501;0.03472424;1.288685;0.3878301;0;0;0;0.1527845;2.46015;1.256501;0.03472424;1.288685;0.3878301;0;0;0
592324.9591;NotLabelled;16384;0.7258067;0.4612188;0.4806094;0.1717452;0;1;1;2842;-2060;2192;65536;0.5674294;0.4113573;-0.5193906;-0.4889196;0;-1;0;4132;112;-849;8192;0.6565097;-0.7088531;-0.2576177;-0.01246537;0;-4;0;1450;3854;-30;32768;0.4279778;-0.7452219;0.5110803;-0.0166205;-3;-1;1;3294;2510;506;256;0.1218837;-0.2036011;-0.6882221;-0.6855956;-1;-2;2;494;3960;-94;128;-0.09279778;0.1883656;0.6592798;0.7219814;0;0;-1;-490;4028;334;4;-0.5484765;0.1426593;-0.4819945;-0.668209;0;-1;0;2362;3182;188;16;0.7867329;-0.6121883;0.04709141;-0.06371191;1;9;0;507;4073;-1098;2;0.5457063;-0.7137992;-0.2867036;-0.33241;0;0;-2;138;3962;-982;8;0.3822715;-0.7914286;0.333795;0.3407202;-1;0;1;1077;3561;2033;0.4651445;2.50248;1.258907;0.4710697;3.042418;1.181103;0.4762747;3.516734;1.110712;0.5592605;4.245629;1.127691;0.3392096;4.599734;1.097111;-0.01592824;4.497605;1.156993;-0.6781117;4.965619;0.7088798;0.213129;4.926744;1.028217;0.8562142;4.540875;1.097111;1.127257;4.367457;1.156993;1.341312;3.464954;1.417653;0.6803593;2.876611;1.756446;0.1528829;2.459774;1.25782;0.03667036;1.288309;0.3888996;0;0;0;0.1528829;2.459774;1.25782;0.03667036;1.288309;0.3888996;0;0;0
592366.1445;NotLabelled;16384;0.726133;0.4612188;0.4806094;0.1703601;1;-1;4;2870;-2022;2164;65536;0.5674294;0.4113573;-0.5193906;-0.4889196;1;1;0;3996;50;-789;8192;0.6565097;-0.7093779;-0.2562327;-0.01108033;0;-1;-1;1578;3840;-142;32768;0.4265928;-0.7450326;0.5124654;-0.01800554;-1;0;2;3254;2538;450;256;0.1218837;-0.2049861;-0.6891887;-0.6842105;0;-2;1;514;3916;6;128;-0.09141274;0.1883656;0.6606648;0.7208912;0;0;-1;-372;3960;388;4;-0.5484765;0.1426593;-0.4819945;-0.668209;0;0;0;2442;3220;286;16;0.7865853;-0.6121883;0.04570637;-0.06648199;0;7;0;797;4039;-1064;2;0.5457063;-0.7131525;-0.2867036;-0.333795;0;0;-1;270;3896;-996;8;0.3822715;-0.7920113;0.33241;0.3407202;0;3;0;1141;3425;2127;0.4623738;2.502856;1.257911;0.4682989;3.042794;1.180107;0.4735039;3.51711;1.109715;0.5564898;4.246006;1.126694;0.3364388;4.600111;1.096115;-0.01869896;4.497981;1.155997;-0.6801232;4.964886;0.7056123;0.2111173;4.926013;1.02495;0.8534432;4.541252;1.096114;1.124486;4.367833;1.155997;1.338541;3.46533;1.416657;0.6775885;2.876987;1.75545;0.1501122;2.460151;1.256824;0.03389958;1.288685;0.3879033;0;0;0;0.1501122;2.460151;1.256824;0.03389958;1.288685;0.3879033;0;0;0
592387.0904;NotLabelled;16384;0.7270479;0.4612188;0.4792244;0.1703601;0;0;4;2910;-1976;2190;65536;0.5674294;0.4113573;-0.5193906;-0.4889196;1;0;-1;3954;-24;-711;8192;0.6551247;-0.7106572;-0.2562327;-0.01108033;0;0;-1;1532;3850;-122;32768;0.4265928;-0.7450326;0.5124654;-0.01800554;0;0;2;3216;2484;468;256;0.1218837;-0.2063712;-0.6887752;-0.6842105;1;-2;2;462;3958;-40;128;-0.09141274;0.1883656;0.6606648;0.7208912;1;-1;-2;-476;3972;324;4;-0.5484765;0.1426593;-0.4819945;-0.668209;0;1;0;2488;3250;288;16;0.7865463;-0.6121883;0.04432133;-0.06786703;0;21;1;341;4047;-1040;2;0.5457063;-0.7131525;-0.2867036;-0.333795;0;0;0;190;4004;-1006;8;0.3822715;-0.7931852;0.3310249;0.3393352;0;6;1;1031;3503;2085;0.461243;2.502513;1.259089;0.4671653;3.042203;1.179584;0.4723679;3.516295;1.107698;0.5572957;4.245009;1.122715;0.3381771;4.599616;1.091261;-0.01721221;4.49859;1.151522;-0.6768252;4.967008;0.7000529;0.2138002;4.928134;1.021101;0.8550231;4.539383;1.09126;1.125622;4.365405;1.151521;1.33919;3.46296;1.412784;0.6750734;2.878115;1.751447;0.1489814;2.459804;1.258147;0.03443812;1.288339;0.3890049;0;0;0;0.1489814;2.459804;1.258147;0.03443812;1.288339;0.3890049;0;0;0
592427.9625;NotLabelled;16384;0.7270479;0.4612188;0.4792244;0.1703601;0;0;3;2892;-2080;2268;65536;0.5674294;0.4113573;-0.5193906;-0.4889196;-1;0;-2;4018;82;-707;8192;0.6551247;-0.7106572;-0.2562327;-0.01108033;1;0;-1;1488;3786;-78;32768;0.4252077;-0.745824;0.5124654;-0.01800554;0;0;2;3250;2404;504;256;0.1218837;-0.2063712;-0.6887752;-0.6842105;0;-2;2;436;3994;-48;128;-0.09141274;0.1897507;0.6606648;0.7205279;0;-1;-2;-492;4054;328;4;-0.5498615;0.1440443;-0.4819945;-0.666772;2;3;0;2332;3178;236;16;0.7861999;-0.6121883;0.04155125;-0.0734072;0;9;1;977;3991;-944;2;0.5457063;-0.7131525;-0.2867036;-0.333795;0;1;-1;188;3990;-954;8;0.3836565;-0.7925162;0.3310249;0.3393352;-1;7;1;1069;3491;2041;0.457826;2.502531;1.259405;0.4637484;3.042221;1.1799;0.468951;3.516313;1.108014;0.5551521;4.24486;1.123876;0.3366587;4.599885;1.092799;-0.01891509;4.499413;1.152897;-0.6756603;4.96905;0.6985224;0.2142793;4.930176;1.021468;0.8533986;4.538748;1.092798;1.123685;4.364227;1.152896;1.334559;3.462075;1.417338;0.669723;2.87723;1.754585;0.1455644;2.459822;1.258463;0.03287308;1.288357;0.3890792;0;0;0;0.1455644;2.459822;1.258463;0.03287308;1.288357;0.3890792;0;0;0
592448.0031;NotLabelled;16384;0.7270479;0.4612188;0.4792244;0.1703601;-1;2;4;2858;-2178;2190;65536;0.5686941;0.4113573;-0.5180055;-0.4889196;-2;0;-3;4104;148;-809;8192;0.6551247;-0.7106572;-0.2562327;-0.01108033;2;0;0;1476;3800;-146;32768;0.4252077;-0.7457893;0.5124654;-0.01939058;0;1;2;3308;2394;564;256;0.1218837;-0.2077562;-0.6883587;-0.6842105;0;-3;3;526;4068;-56;128;-0.09141274;0.1897507;0.6606648;0.7205279;0;1;-2;-506;4030;350;4;-0.5498615;0.1440443;-0.4819945;-0.666772;1;3;0;2220;3278;356;16;0.7861413;-0.6121883;0.0401662;-0.07479224;0;6;0;745;4049;-950;2;0.5457063;-0.7131525;-0.2867036;-0.333795;-1;2;-2;168;3910;-986;8;0.3836565;-0.7930932;0.3296399;0.3393352;-1;5;1;1097;3437;1967;0.4608057;2.502626;1.260337;0.4667282;3.042319;1.180846;0.4719307;3.516412;1.108972;0.5581318;4.24496;1.124834;0.3396384;4.599985;1.093757;-0.0159353;4.499513;1.153855;-0.6726817;4.96915;0.6994824;0.2172579;4.930275;1.022428;0.8563783;4.538848;1.093756;1.126665;4.364326;1.153854;1.337539;3.462175;1.418296;0.6728644;2.878647;1.758133;0.1485441;2.459918;1.259394;0.03545882;1.287673;0.3911136;0;0;0;0.1485441;2.459918;1.259394;0.03545882;1.287673;0.3911136;0;0;0
592468.96;NotLabelled;16384;0.7276914;0.4612188;0.4792244;0.16759;-2;3;4;2776;-2052;2108;65536;0.5672367;0.4099723;-0.5193906;-0.4903047;-3;0;-3;4090;232;-785;8192;0.6537396;-0.7119316;-0.2562327;-0.01108033;3;0;0;1454;3958;-160;32768;0.4252077;-0.745752;0.5124654;-0.02077562;0;2;2;3354;2428;510;256;0.1218837;-0.2091413;-0.6893139;-0.6828254;-1;-5;4;556;4000;-32;128;-0.0900277;0.1897507;0.6620498;0.7194301;0;1;-2;-538;3958;296;4;-0.5498615;0.1440443;-0.4819945;-0.666772;0;0;0;2254;3188;318;16;0.7861413;-0.6121883;0.0401662;-0.07479224;0;5;1;715;3997;-948;2;0.5457063;-0.7125026;-0.2867036;-0.33518;-2;2;-2;148;3880;-880;8;0.3836565;-0.7936844;0.3296399;0.3379501;-1;4;1;1091;3475;1995;0.4573956;2.502654;1.260625;0.4633179;3.042346;1.181133;0.4685206;3.51644;1.109259;0.5559921;4.244816;1.125972;0.3381236;4.600258;1.095274;-0.01763347;4.500339;1.155208;-0.6724335;4.969975;0.6980351;0.217834;4.93337;1.020342;0.854756;4.538218;1.095274;1.124729;4.363156;1.155207;1.334472;3.461005;1.420547;0.6673762;2.87885;1.757987;0.145134;2.459945;1.259682;0.03390193;1.2877;0.3911616;0;0;0;0.145134;2.459945;1.259682;0.03390193;1.2877;0.3911616;0;0;0
592488.964;NotLabelled;16384;0.7280406;0.4626039;0.4778393;0.166205;-2;2;4;2718;-2162;2044;65536;0.5672367;0.4099723;-0.5193906;-0.4903047;-2;2;-1;3984;228;-845;8192;0.6537396;-0.7119316;-0.2562327;-0.01108033;5;-1;0;1452;3946;-80;32768;0.4238227;-0.74654;0.5124654;-0.02077562;0;6;2;3338;2466;468;256;0.1218837;-0.2105263;-0.6888922;-0.6828254;0;-3;3;550;3976;-72;128;-0.0900277;0.1897507;0.6620498;0.7194301;0;0;-2;-462;4004;360;4;-0.5498615;0.1440443;-0.4819945;-0.666772;0;0;0;2304;3194;312;16;0.7860084;-0.6121883;0.0401662;-0.07617728;0;-1;0;845;4029;-920;2;0.5457063;-0.7125026;-0.2867036;-0.33518;-2;2;-2;98;3850;-926;8;0.3836565;-0.7942582;0.3282548;0.3379501;-2;2;2;1141;3461;2103;0.455424;2.502656;1.260704;0.4613437;3.042094;1.179503;0.4665436;3.515958;1.106128;0.5559652;4.24414;1.120869;0.3390229;4.60008;1.089383;-0.01695821;4.501266;1.149817;-0.6696957;4.975353;0.6942923;0.2196743;4.933477;1.018428;0.8554882;4.536663;1.089199;1.125034;4.361041;1.149412;1.332275;3.458351;1.414886;0.6629599;2.877571;1.750295;0.1431624;2.459945;1.259907;0.03328969;1.2877;0.3912141;0;0;0;0.1431624;2.459945;1.259907;0.03328969;1.2877;0.3912141;0;0;0
592509.9596;NotLabelled;16384;0.7280406;0.4626039;0.4778393;0.166205;-2;1;4;2702;-2138;2040;65536;0.5672367;0.4099723;-0.5193906;-0.4903047;-1;3;-1;3966;314;-791;8192;0.6537396;-0.7124286;-0.2548476;-0.01108033;4;-2;1;1450;3920;-36;32768;0.4238227;-0.74654;0.5124654;-0.02077562;0;7;1;3238;2462;462;256;0.1218837;-0.2105263;-0.6888922;-0.6828254;-1;0;3;546;3956;-92;128;-0.0900277;0.1897507;0.6620498;0.7194301;1;0;-1;-478;3944;338;4;-0.5498615;0.1440443;-0.4819945;-0.666772;0;0;0;2290;3206;356;16;0.7860693;-0.6121883;0.04155125;-0.07479224;0;-8;-1;917;4051;-990;2;0.5457063;-0.7118495;-0.2867036;-0.3365651;0;0;-2;204;3902;-1000;8;0.3822715;-0.7949257;0.3282548;0.3379501;-1;0;1;1057;3431;2013;0.454298;2.502287;1.262098;0.4602176;3.041725;1.180897;0.4654175;3.515589;1.107522;0.5561023;4.243597;1.123157;0.3397973;4.59995;1.091979;-0.01638591;4.501687;1.152121;-0.6666176;4.978158;0.6954992;0.2219416;4.936282;1.021851;0.856151;4.535634;1.091978;1.12536;4.359471;1.15212;1.332357;3.457625;1.420637;0.662352;2.878169;1.75696;0.1420363;2.459576;1.261301;0.03432956;1.287331;0.3923366;0;0;0;0.1420363;2.459576;1.261301;0.03432956;1.287331;0.3923366;0;0;0
592529.979;NotLabelled;16384;0.7283554;0.4626039;0.4778393;0.1648199;-1;1;4;2698;-2210;1996;65536;0.5660365;0.4099723;-0.5193906;-0.4916897;0;4;-1;3970;290;-659;8192;0.6523545;-0.713697;-0.2548476;-0.01108033;4;-2;3;1454;3872;-26;32768;0.4238227;-0.7474491;0.5110803;-0.02216066;0;8;2;3160;2546;404;256;0.1218837;-0.2105263;-0.6888922;-0.6828254;0;-1;2;518;3918;-102;128;-0.0900277;0.1897507;0.6620498;0.7194301;2;0;-1;-494;3960;370;4;-0.5498615;0.1440443;-0.4819945;-0.666772;0;-1;0;2300;3210;338;16;0.7861255;-0.6121883;0.04293629;-0.0734072;0;-6;0;699;4025;-966;2;0.5457063;-0.7118495;-0.2867036;-0.3365651;-1;1;-1;134;3956;-904;8;0.3822715;-0.7949257;0.3282548;0.3379501;-2;0;1;1149;3491;2053;0.4550199;2.502259;1.262128;0.4609395;3.041697;1.180927;0.4661395;3.515561;1.107552;0.5568243;4.243568;1.123187;0.3405192;4.599922;1.092009;-0.01566398;4.501658;1.152151;-0.6658957;4.978129;0.6955291;0.2226636;4.936253;1.021881;0.8568732;4.535605;1.092008;1.126082;4.359442;1.15215;1.331526;3.457003;1.419865;0.6615213;2.877548;1.756188;0.1427583;2.459548;1.261331;0.03505151;1.287302;0.3923666;0;0;0;0.1427583;2.459548;1.261331;0.03505151;1.287302;0.3923666;0;0;0
592550.9786;NotLabelled;16384;0.7283818;0.4639889;0.4764543;0.1648199;-1;0;3;2640;-2194;2014;65536;0.5660365;0.4099723;-0.5193906;-0.4916897;0;2;-2;3964;348;-685;8192;0.6523545;-0.7132211;-0.2562327;-0.009695291;1;-1;2;1342;3840;-18;32768;0.4224377;-0.7491347;0.5096953;-0.0235457;0;5;2;3236;2500;416;256;0.1204986;-0.2105263;-0.6891358;-0.6828254;0;-2;2;558;3942;-86;128;-0.0900277;0.1911357;0.6620498;0.7190634;2;0;-1;-518;3910;434;4;-0.5498615;0.1440443;-0.4819945;-0.666772;0;-2;1;2328;3206;320;16;0.7862536;-0.6121883;0.04293629;-0.07202215;1;-8;0;725;4071;-968;2;0.5457063;-0.7118495;-0.2867036;-0.3365651;0;-1;-1;100;3896;-966;8;0.3822715;-0.7949257;0.3282548;0.3379501;-1;-1;1;1085;3441;2093;0.4557463;2.502233;1.262148;0.4616659;3.04167;1.180948;0.466866;3.515534;1.107572;0.5575507;4.243542;1.123208;0.3412456;4.599895;1.09203;-0.01493758;4.501632;1.152172;-0.6643637;4.979599;0.6959667;0.2241019;4.935427;1.022271;0.8575993;4.535579;1.092029;1.126809;4.359416;1.15217;1.330023;3.457298;1.422655;0.6592834;2.878399;1.758472;0.1434847;2.459521;1.261351;0.03577796;1.287276;0.3923871;0;0;0;0.1434847;2.459521;1.261351;0.03577796;1.287276;0.3923871;0;0;0
592570.9729;NotLabelled;16384;0.7286938;0.4639889;0.4764543;0.1634349;1;0;0;2656;-2176;2104;65536;0.5648305;0.4099723;-0.5193906;-0.4930748;1;1;-1;3948;338;-667;8192;0.6523545;-0.7132211;-0.2562327;-0.009695291;0;-2;1;1308;3866;-16;32768;0.4224377;-0.7491347;0.5096953;-0.0235457;-1;2;1;3194;2504;374;256;0.1204986;-0.2119114;-0.6887112;-0.6828254;0;-3;1;552;3958;-34;128;-0.0900277;0.1911357;0.6634349;0.7177857;1;0;-2;-464;3982;346;4;-0.5498615;0.1440443;-0.4819945;-0.666772;-1;-4;0;2308;3196;316;16;0.7863024;-0.6121883;0.04432133;-0.07063711;1;-4;-1;647;4055;-1064;2;0.5457063;-0.7111929;-0.2867036;-0.3379501;0;-3;-1;100;3860;-956;8;0.3822715;-0.7949257;0.3282548;0.3379501;-1;-2;1;1033;3463;2049;0.4562108;2.502604;1.260828;0.4621303;3.042044;1.179642;0.4673303;3.51591;1.106279;0.559478;4.243733;1.121918;0.3438896;4.600521;1.090742;-0.01249039;4.502974;1.150883;-0.6615161;4.983257;0.6965456;0.2275898;4.939085;1.021101;0.860113;4.535167;1.090741;1.128968;4.358463;1.150882;1.335939;3.457595;1.422686;0.6652677;2.88059;1.761879;0.1439491;2.459892;1.26003;0.03453289;1.287647;0.3912793;0;0;0;0.1439491;2.459892;1.26003;0.03453289;1.287647;0.3912793;0;0;0
592592.0731;NotLabelled;16384;0.7286938;0.4639889;0.4764543;0.1634349;2;0;0;2668;-2182;2088;65536;0.5648305;0.4099723;-0.5193906;-0.4930748;1;0;0;3998;322;-679;8192;0.6523545;-0.7137172;-0.2548476;-0.009695291;0;-4;0;1310;3894;-26;32768;0.4224377;-0.7491347;0.5096953;-0.0235457;-4;0;1;3280;2498;442;256;0.1204986;-0.2119114;-0.6900816;-0.6814404;0;-3;1;556;3992;-34;128;-0.0900277;0.1911357;0.6634349;0.7177857;2;-1;-1;-498;3988;260;4;-0.5484765;0.1440443;-0.4819945;-0.6679118;-1;-5;0;2362;3140;394;16;0.7863024;-0.6121883;0.04432133;-0.07063711;0;-1;0;671;4011;-1002;2;0.5470914;-0.7113426;-0.2853186;-0.3365651;0;-3;-1;72;3928;-1020;8;0.3808864;-0.7955903;0.3282548;0.3379501;-2;-2;0;1139;3481;2085;0.4542406;2.502584;1.260974;0.4601569;3.041719;1.177786;0.4653538;3.515309;1.102665;0.5587675;4.242952;1.119174;0.3438059;4.600151;1.088385;-0.01275259;4.503155;1.148358;-0.6599897;4.984928;0.6930478;0.2283201;4.938457;1.019457;0.8599149;4.533897;1.088384;1.128452;4.356654;1.148357;1.334839;3.455788;1.420605;0.6634423;2.878783;1.75836;0.141979;2.45987;1.260347;0.03442529;1.287625;0.3913641;0;0;0;0.141979;2.45987;1.260347;0.03442529;1.287625;0.3913641;0;0;0
592612.9889;NotLabelled;16384;0.7304765;0.4626039;0.4750692;0.1634349;3;1;0;2666;-2194;2088;65536;0.5648305;0.4099723;-0.5193906;-0.4930748;1;-1;0;3980;284;-697;8192;0.6523545;-0.7137172;-0.2548476;-0.009695291;0;-6;0;1324;3970;-30;32768;0.4224377;-0.7491347;0.5096953;-0.0235457;-5;-2;1;3310;2478;432;256;0.1204986;-0.2119114;-0.6900816;-0.6814404;-1;-2;1;582;3998;-60;128;-0.0900277;0.1911357;0.6634349;0.7177857;1;0;-1;-518;4044;386;4;-0.5484765;0.1426593;-0.4819945;-0.668209;0;-3;1;2426;3210;298;16;0.7863024;-0.6121883;0.04432133;-0.07063711;0;-3;0;751;3999;-976;2;0.5470914;-0.7113426;-0.2853186;-0.3365651;0;-2;-1;190;3914;-968;8;0.3808864;-0.7950175;0.3296399;0.3379501;-1;-2;0;1155;3407;2109;0.4523669;2.503608;1.259824;0.4582831;3.042742;1.176637;0.4634802;3.516333;1.101516;0.557572;4.243947;1.11523;0.3429247;4.601225;1.083196;-0.01369369;4.504785;1.143708;-0.6611394;4.986558;0.6886951;0.2272449;4.940088;1.014901;0.8589722;4.534495;1.083195;1.127375;4.357232;1.143707;1.332339;3.455771;1.415061;0.6610198;2.878765;1.75297;0.1401053;2.460894;1.259198;0.03451483;1.287624;0.3913563;0;0;0;0.1401053;2.460894;1.259198;0.03451483;1.287624;0.3913563;0;0;0
592633.2286;NotLabelled;16384;0.7304765;0.4626039;0.4750692;0.1634349;3;1;0;2730;-2138;2132;65536;0.5648305;0.4099723;-0.5193906;-0.4930748;1;-2;0;4036;344;-735;8192;0.6523545;-0.7142103;-0.2534626;-0.009695291;-1;-8;0;1380;3986;-64;32768;0.4210526;-0.749013;0.5110803;-0.02216066;-6;-3;1;3296;2476;480;256;0.1204986;-0.2119114;-0.6900816;-0.6814404;-1;0;0;566;4008;-60;128;-0.0900277;0.1911357;0.66482;0.716503;2;0;0;-496;4044;382;4;-0.5484765;0.1426593;-0.4819945;-0.668209;0;-2;1;2462;3218;328;16;0.7864256;-0.6121883;0.04432133;-0.06925207;0;-1;0;699;4039;-1022;2;0.5470914;-0.7118965;-0.2839335;-0.3365651;0;-3;-1;156;3904;-1112;8;0.3795014;-0.7956796;0.3296399;0.3379501;-2;-3;0;1037;3429;2045;0.4541286;2.501804;1.262042;0.4600449;3.040939;1.178854;0.465242;3.514529;1.103733;0.5593339;4.242143;1.117447;0.3446866;4.599422;1.085413;-0.01193184;4.502981;1.145926;-0.6564202;4.984832;0.6868131;0.231964;4.93836;1.013019;0.860734;4.532692;1.085413;1.129137;4.355429;1.145925;1.334038;3.453968;1.417326;0.6627194;2.876961;1.755235;0.141867;2.45909;1.261415;0.03451508;1.287624;0.391356;0;0;0;0.141867;2.45909;1.261415;0.03451508;1.287624;0.391356;0;0;0
592653.9766;NotLabelled;16384;0.7304765;0.4626039;0.4750692;0.1634349;2;1;0;2714;-2178;2160;65536;0.5670371;0.4085872;-0.5193906;-0.4916897;0;-2;1;4010;272;-803;8192;0.6523545;-0.7147177;-0.2520775;-0.008310249;-1;-9;0;1482;4000;-114;32768;0.4196676;-0.74979;0.5110803;-0.02216066;-7;-1;1;3318;2508;430;256;0.1204986;-0.2119114;-0.6900816;-0.6814404;-1;1;0;562;3980;-96;128;-0.0900277;0.1911357;0.66482;0.716503;4;-2;0;-502;4028;324;4;-0.5484765;0.1426593;-0.4819945;-0.668209;0;-1;1;2432;3184;294;16;0.7864256;-0.6121883;0.04432133;-0.06925207;0;-2;-1;759;4045;-998;2;0.5470914;-0.7118965;-0.2839335;-0.3365651;0;-2;-2;224;3882;-952;8;0.3795014;-0.7956796;0.3296399;0.3379501;-2;-4;1;1093;3455;1967;0.4521141;2.502174;1.26083;0.458027;3.040996;1.175637;0.4632209;3.514303;1.098755;0.557313;4.241917;1.11247;0.3426655;4.599195;1.080436;-0.01395279;4.502755;1.140948;-0.6584419;4.984605;0.6818361;0.2299429;4.938134;1.008041;0.8587131;4.532466;1.080435;1.127116;4.355203;1.140947;1.330469;3.453151;1.411549;0.6600379;2.876929;1.752542;0.1398525;2.459457;1.260374;0.03249988;1.287993;0.3903152;0;0;0;0.1398525;2.459457;1.260374;0.03249988;1.287993;0.3903152;0;0;0
592674.9488;NotLabelled;16384;0.7304502;0.4612188;0.4764543;0.1634349;1;1;-1;2772;-2126;2136;65536;0.5670371;0.4085872;-0.5193906;-0.4916897;0;-1;1;4006;270;-785;8192;0.6523545;-0.7147325;-0.2520775;-0.006925208;0;-5;0;1486;3898;-200;32768;0.4182825;-0.7505634;0.5110803;-0.02216066;-5;0;0;3328;2506;562;256;0.1191136;-0.2105263;-0.6907457;-0.6814404;0;0;0;566;3988;-86;128;-0.0900277;0.1911357;0.66482;0.716503;5;0;0;-578;4020;318;4;-0.5484765;0.1412742;-0.4819945;-0.6685032;0;2;2;2382;3206;288;16;0.786467;-0.6121883;0.04570637;-0.06786703;0;-7;0;725;4077;-1054;2;0.5470914;-0.7118965;-0.2839335;-0.3365651;0;0;-3;202;3906;-948;8;0.3795014;-0.7956796;0.3296399;0.3379501;-4;-3;1;1041;3489;1923;0.4521141;2.502174;1.26083;0.458027;3.040996;1.175637;0.4632209;3.514303;1.098755;0.557313;4.241917;1.11247;0.3426655;4.599195;1.080436;-0.01395279;4.502755;1.140948;-0.6584419;4.984605;0.6818361;0.230756;4.939723;1.006043;0.8587131;4.532466;1.080435;1.127116;4.355203;1.140947;1.3306;3.453217;1.411671;0.6603182;2.878343;1.755226;0.1398525;2.459457;1.260374;0.03249988;1.287993;0.3903152;0;0;0;0.1398525;2.459457;1.260374;0.03249988;1.287993;0.3903152;0;0;0
592695;NotLabelled;16384;0.7304502;0.4612188;0.4764543;0.1634349;0;0;-2;2734;-2126;2172;65536;0.5670371;0.4085872;-0.5193906;-0.4916897;0;0;2;3992;206;-685;8192;0.6523545;-0.7152194;-0.2506925;-0.006925208;0;-5;0;1434;3798;-174;32768;0.4182825;-0.7505634;0.5110803;-0.02216066;-5;-1;0;3292;2396;622;256;0.1191136;-0.2105263;-0.6907457;-0.6814404;-2;1;0;596;3944;2;128;-0.09141274;0.1911357;0.666205;0.7150397;5;0;1;-518;4026;292;4;-0.5484765;0.1412742;-0.4819945;-0.6685032;0;0;2;2350;3178;222;16;0.786467;-0.6121883;0.04570637;-0.06786703;0;-8;0;659;4059;-1008;2;0.5470914;-0.7118965;-0.2839335;-0.3365651;-1;1;-5;158;3798;-996;8;0.3781163;-0.7957639;0.3310249;0.3379501;-5;-3;3;1061;3379;1943;0.4598089;2.500346;1.262446;0.4657217;3.039168;1.177253;0.4709156;3.512476;1.100371;0.5651972;4.240081;1.11322;0.3506371;4.597378;1.080801;-0.005997032;4.5011;1.14148;-0.6536751;4.980632;0.6844336;0.2368476;4.935749;1.004983;0.8666674;4.530514;1.0808;1.135034;4.353253;1.141479;1.341314;3.451924;1.412272;0.6726143;2.878404;1.761134;0.1475472;2.45763;1.26199;0.03483988;1.287973;0.3901774;0;0;0;0.1475472;2.45763;1.26199;0.03483988;1.287973;0.3901774;0;0;0
592715.2012;NotLabelled;16384;0.7304502;0.4612188;0.4764543;0.1634349;0;2;-3;2740;-2200;2098;65536;0.5670371;0.4085872;-0.5193906;-0.4916897;-2;-1;1;4070;262;-725;8192;0.6523545;-0.7152315;-0.2506925;-0.005540166;1;-6;1;1494;3726;-250;32768;0.4168975;-0.7513732;0.5110803;-0.02077562;-5;1;0;3224;2286;630;256;0.1191136;-0.2105263;-0.6921093;-0.6800554;-3;0;0;556;3946;-38;128;-0.09141274;0.1911357;0.66759;0.7137467;3;1;0;-502;3926;254;4;-0.5484765;0.1412742;-0.4819945;-0.6685032;0;-1;1;2346;3196;276;16;0.7865036;-0.6121883;0.04709141;-0.06648199;0;-7;0;675;4025;-1016;2;0.5484765;-0.7107247;-0.2825485;-0.3379501;-2;3;-6;34;3964;-906;8;0.3767313;-0.7958314;0.3310249;0.3393352;-5;0;3;1137;3465;2239;0.4598087;2.500348;1.26225;0.4657175;3.038802;1.174764;0.4709079;3.511778;1.095867;0.5651895;4.239383;1.108716;0.3506294;4.596679;1.076297;-0.006004751;4.500402;1.136976;-0.6534516;4.979934;0.6796021;0.2370711;4.935052;1.000152;0.8666597;4.529817;1.076296;1.135026;4.352555;1.136975;1.33962;3.450635;1.40708;0.670921;2.877116;1.755941;0.147547;2.45763;1.261991;0.03483988;1.287973;0.3901775;0;0;0;0.147547;2.45763;1.261991;0.03483988;1.287973;0.3901775;0;0;0
592735.9695;NotLabelled;16384;0.7295449;0.4612188;0.4778393;0.1634349;0;3;-3;2842;-2160;2116;65536;0.5670371;0.4085872;-0.5193906;-0.4916897;-3;-1;2;4040;226;-651;8192;0.6509695;-0.7164924;-0.2506925;-0.005540166;1;-6;2;1562;3746;-182;32768;0.4155124;-0.75214;0.5110803;-0.02077562;-6;0;0;3282;2374;734;256;0.1191136;-0.2105263;-0.6921093;-0.6800554;-3;0;0;576;3980;0;128;-0.09141274;0.1897507;0.66759;0.7141162;4;-1;0;-508;4002;318;4;-0.5484765;0.1412742;-0.4819945;-0.6685032;-1;0;3;2354;3208;326;16;0.7866195;-0.6121883;0.04709141;-0.06509695;0;0;-1;525;4003;-1102;2;0.5498615;-0.7089925;-0.2825485;-0.3393352;-2;1;-4;30;3980;-914;8;0.3753462;-0.7976481;0.3296399;0.3379501;-4;1;3;1139;3457;2227;0.4608428;2.500331;1.262032;0.466748;3.038455;1.172538;0.4719351;3.511134;1.091877;0.5668856;4.238696;1.101936;0.3526351;4.596064;1.068275;-0.004056633;4.50034;1.129491;-0.6516376;4.979873;0.6723071;0.2389594;4.93499;0.9926494;0.868604;4.528729;1.068274;1.136839;4.351453;1.129489;1.343202;3.450189;1.400437;0.676456;2.876659;1.752999;0.1485811;2.457613;1.261945;0.03567103;1.287956;0.3901588;0;0;0;0.1485811;2.457613;1.261945;0.03567103;1.287956;0.3901588;0;0;0
592757.1862;NotLabelled;16384;0.7304187;0.4598338;0.4778393;0.1634349;0;3;-3;2790;-2128;2126;65536;0.5670371;0.4085872;-0.5193906;-0.4916897;-2;-3;2;4034;162;-631;8192;0.6509695;-0.7165017;-0.2506925;-0.004155125;3;-4;3;1592;3800;-246;32768;0.4155124;-0.75214;0.5110803;-0.02077562;-5;1;0;3190;2414;560;256;0.1191136;-0.2105263;-0.6921093;-0.6800554;-3;0;0;520;3922;-20;128;-0.09141274;0.1897507;0.6689751;0.7128189;3;-2;0;-534;3908;284;4;-0.5498615;0.1398892;-0.4819945;-0.6676561;-1;-2;4;2410;3178;244;16;0.7867012;-0.6121883;0.04570637;-0.06509695;0;8;0;469;4025;-1090;2;0.5498615;-0.7089925;-0.2825485;-0.3393352;-1;0;-3;42;3962;-1002;8;0.3753462;-0.7976481;0.3296399;0.3379501;-4;0;2;1175;3485;2131;0.4588231;2.500698;1.260999;0.4647283;3.03882;1.171492;0.4699153;3.511497;1.090821;0.5648659;4.239058;1.10088;0.3506153;4.596426;1.067219;-0.006076396;4.500703;1.128435;-0.6559303;4.979042;0.6732303;0.2346671;4.93416;0.9935724;0.8665843;4.529092;1.067218;1.134819;4.351816;1.128433;1.339111;3.450894;1.402074;0.6725379;2.878732;1.757177;0.1465614;2.45798;1.260913;0.03365117;1.288322;0.3891269;0;0;0;0.1465614;2.45798;1.260913;0.03365117;1.288322;0.3891269;0;0;0
592778.1221;NotLabelled;16384;0.7298197;0.4598338;0.4792244;0.1620499;1;4;-3;2768;-2142;2144;65536;0.5692959;0.4072022;-0.5180055;-0.4916897;-3;-5;1;3928;150;-713;8192;0.6495845;-0.7177643;-0.2506925;-0.002770083;2;0;3;1614;3938;-134;32768;0.4141274;-0.7529036;0.5110803;-0.02077562;-3;4;0;3266;2546;518;256;0.1191136;-0.2105263;-0.6934675;-0.6786703;-3;-1;0;442;3956;-46;128;-0.09141274;0.1911357;0.6689751;0.7124487;4;-2;0;-516;3948;194;4;-0.5498615;0.1398892;-0.4806094;-0.6686538;1;-2;4;2378;3116;198;16;0.7867012;-0.6121883;0.04570637;-0.06509695;-2;4;0;803;4049;-1048;2;0.5498615;-0.7083279;-0.2825485;-0.3407202;0;0;-4;38;3948;-984;8;0.3739612;-0.7982984;0.3296399;0.3379501;-5;-2;2;1089;3449;2023;0.460005;2.498224;1.263099;0.4659063;3.036008;1.171582;0.4710901;3.50838;1.089144;0.5660406;4.235942;1.099204;0.3517901;4.593309;1.065543;-0.004901648;4.497587;1.126759;-0.653996;4.974797;0.6692911;0.2366013;4.929914;0.9896329;0.8677589;4.525976;1.065541;1.135994;4.3487;1.126756;1.341983;3.448437;1.401293;0.6754104;2.876276;1.756397;0.1477433;2.455506;1.263186;0.03089048;1.2887;0.3881049;0;0;0;0.1477433;2.455506;1.263186;0.03089048;1.2887;0.3881049;0;0;0
592797.9667;NotLabelled;16384;0.7297803;0.4584487;0.4806094;0.1620499;2;3;-2;2764;-2192;2092;65536;0.5692285;0.4072022;-0.5193906;-0.4903047;-2;-6;0;4018;278;-835;8192;0.6495845;-0.7177643;-0.2506925;-0.002770083;1;0;3;1522;3904;-136;32768;0.4141274;-0.7538419;0.5096953;-0.02077562;-1;5;0;3276;2510;460;256;0.1191136;-0.2105263;-0.6934675;-0.6786703;-2;0;0;540;4000;22;128;-0.09141274;0.1897507;0.6703601;0.7115165;2;0;0;-550;4028;290;4;-0.5484765;0.1398892;-0.4806094;-0.6697904;1;-4;3;2322;3156;292;16;0.7867012;-0.6121883;0.04570637;-0.06509695;-2;0;-1;747;4135;-1086;2;0.5498615;-0.7083279;-0.2825485;-0.3407202;0;-1;-5;64;3888;-946;8;0.3725762;-0.7989457;0.3296399;0.3379501;-5;0;3;1037;3401;1919;0.4561754;2.496922;1.265341;0.4620768;3.034708;1.173835;0.4672605;3.507082;1.091408;0.5628769;4.234589;1.098683;0.3489346;4.592022;1.063782;-0.007813573;4.496856;1.125533;-0.6582799;4.974364;0.6703317;0.2341037;4.931027;0.9858793;0.8648422;4.52422;1.063781;1.132946;4.346931;1.125532;1.338519;3.447685;1.40369;0.6722063;2.876898;1.761485;0.1439137;2.454204;1.265427;0.0309806;1.2887;0.3880975;0;0;0;0.1439137;2.454204;1.265427;0.0309806;1.2887;0.3880975;0;0;0
592818.9652;NotLabelled;16384;0.7297803;0.4584487;0.4806094;0.1620499;3;1;-3;2860;-2098;2196;65536;0.5702168;0.4058172;-0.5193906;-0.4903047;-1;-4;1;4086;226;-875;8192;0.6481994;-0.718531;-0.2520775;-0.002770083;1;0;4;1384;3872;-42;32768;0.4141274;-0.7538419;0.5096953;-0.02077562;-1;4;0;3346;2454;582;256;0.1204986;-0.2105263;-0.6945814;-0.6772853;-3;-1;0;582;4042;66;128;-0.09279778;0.1911357;0.6703601;0.7109662;3;0;0;-472;4010;266;4;-0.5484765;0.1385041;-0.4806094;-0.6700782;0;-5;3;2450;3196;356;16;0.7866646;-0.6121883;0.04432133;-0.06648199;-1;8;0;533;4065;-1108;2;0.5512465;-0.7071339;-0.2811634;-0.3421052;-1;-2;-7;8;4002;-1036;8;0.3711911;-0.7995902;0.3296399;0.3379501;-6;2;4;1271;3471;2223;0.4540262;2.497952;1.264069;0.459924;3.03539;1.170539;0.4651042;3.50745;1.086333;0.5607208;4.234958;1.093608;0.3467785;4.592391;1.058707;-0.009969711;4.497224;1.120458;-0.6615429;4.972409;0.6644088;0.2299224;4.929092;0.9825448;0.862686;4.524589;1.058707;1.13079;4.3473;1.120457;1.336236;3.448053;1.398709;0.670858;2.876476;1.756982;0.1417646;2.455235;1.264329;0.03098071;1.2887;0.3880974;0;0;0;0.1417646;2.455235;1.264329;0.03098071;1.2887;0.3880974;0;0;0
592838.9597;NotLabelled;16384;0.7303399;0.4570637;0.4806094;0.1634349;2;1;-2;2800;-2152;2154;65536;0.5702168;0.4058172;-0.5193906;-0.4903047;0;-3;1;4086;214;-829;8192;0.6481994;-0.718535;-0.2520775;-0.001385042;1;-3;3;1402;3794;-72;32768;0.4141274;-0.7538419;0.5096953;-0.02077562;-3;3;0;3200;2446;580;256;0.1204986;-0.2105263;-0.6945814;-0.6772853;-2;0;0;612;3990;30;128;-0.09279778;0.1911357;0.6703601;0.7109662;1;0;0;-538;4022;266;4;-0.5484765;0.1385041;-0.4792244;-0.6710694;0;-4;4;2494;3158;312;16;0.7866231;-0.6121883;0.04293629;-0.06786703;-2;12;0;691;4043;-1024;2;0.5512465;-0.7070118;-0.2797784;-0.3434903;-2;0;-6;136;3972;-830;8;0.3698061;-0.8002317;0.3296399;0.3379501;-4;1;4;1245;3337;2341;0.4528773;2.496151;1.266482;0.4587745;3.03354;1.172674;0.4639543;3.505556;1.088224;0.5587833;4.233189;1.092719;0.3444355;4.590256;1.056581;-0.01217887;4.494935;1.118865;-0.6631331;4.970121;0.6619339;0.2284693;4.92607;0.9795851;0.8604163;4.523014;1.056581;1.128743;4.34625;1.118864;1.333162;3.447965;1.400951;0.6671596;2.876388;1.75806;0.1406156;2.453433;1.266766;0.02956618;1.288717;0.3881515;0;0;0;0.1406156;2.453433;1.266766;0.02956618;1.288717;0.3881515;0;0;0
592860.04;NotLabelled;16384;0.7303399;0.4570637;0.4806094;0.1634349;3;1;-2;2822;-2046;2138;65536;0.5714048;0.4058172;-0.5193906;-0.4889196;0;-1;3;4038;226;-803;8192;0.6481994;-0.718535;-0.2520775;-0.001385042;0;-4;3;1488;3836;-104;32768;0.4127424;-0.7555348;0.5083103;-0.02077562;-4;1;0;3316;2414;530;256;0.1204986;-0.2105263;-0.6945814;-0.6772853;-2;0;-1;508;3920;-32;128;-0.09279778;0.1911357;0.6703601;0.7109662;0;0;0;-488;3902;332;4;-0.5498615;0.1371191;-0.4778393;-0.6712081;1;-1;4;2512;3258;368;16;0.7854663;-0.6135734;0.04432133;-0.06786703;-2;-9;-3;847;4039;-888;2;0.5512465;-0.7064621;-0.2811634;-0.3434903;-1;4;-2;216;3928;-930;8;0.3698061;-0.8008152;0.3296399;0.3365651;-3;-2;2;1335;3387;2297;0.4480346;2.494844;1.268736;0.4539317;3.032233;1.174928;0.4591115;3.50425;1.090478;0.5539405;4.231883;1.094973;0.3395927;4.58895;1.058835;-0.01702163;4.493629;1.121119;-0.6680472;4.966181;0.6615654;0.223555;4.922131;0.9792164;0.8555735;4.521708;1.058835;1.1239;4.344944;1.121118;1.330044;3.447329;1.404081;0.6640415;2.875751;1.76119;0.1357729;2.452127;1.269019;0.02883472;1.288736;0.3881418;0;0;0;0.1357729;2.452127;1.269019;0.02883472;1.288736;0.3881418;0;0;0
592880.9784;NotLabelled;16384;0.7302926;0.4556787;0.4819945;0.1634349;2;0;-3;2730;-2068;2176;65536;0.5716028;0.4072022;-0.5193906;-0.4875346;0;-2;2;3978;160;-717;8192;0.6481994;-0.7185363;-0.2520775;0;0;-3;1;1512;3882;-144;32768;0.4127424;-0.7555348;0.5083103;-0.02077562;-3;0;0;3262;2450;442;256;0.1191136;-0.2091413;-0.6952384;-0.6772853;0;2;-1;552;3986;0;128;-0.09279778;0.1897507;0.6703601;0.7113371;2;2;0;-468;4012;268;4;-0.5498615;0.1357341;-0.4778393;-0.6714895;0;-1;3;2460;3202;304;16;0.7855848;-0.6135734;0.04432133;-0.06648199;-2;-4;-2;549;4067;-938;2;0.5512465;-0.7064621;-0.2811634;-0.3434903;0;0;0;176;4018;-1112;8;0.368421;-0.8014534;0.3296399;0.3365651;-2;-5;1;1305;3375;2355;0.4528174;2.491421;1.271301;0.4587144;3.02881;1.177493;0.4638942;3.500826;1.093044;0.5587232;4.228459;1.097538;0.3443755;4.585526;1.061401;-0.01223889;4.490205;1.123685;-0.6632644;4.962757;0.6641308;0.2284305;4.920983;0.9818292;0.8603565;4.518284;1.0614;1.128683;4.34152;1.123684;1.334827;3.443905;1.406647;0.6699287;2.872928;1.766762;0.1405557;2.448703;1.271585;0.03378171;1.289506;0.3851764;0;0;0;0.1405557;2.448703;1.271585;0.03378171;1.289506;0.3851764;0;0;0
592901.9501;NotLabelled;16384;0.7302926;0.4556787;0.4819945;0.1634349;1;2;-4;2838;-2100;2222;65536;0.5716028;0.4072022;-0.5193906;-0.4875346;-1;-3;2;3996;188;-717;8192;0.6481994;-0.7190207;-0.2506925;0;0;-2;1;1468;3898;-92;32768;0.4127424;-0.7555348;0.5083103;-0.02077562;-3;0;0;3278;2434;462;256;0.1191136;-0.2091413;-0.6952384;-0.6772853;0;2;0;522;4014;-20;128;-0.09279778;0.1897507;0.6717451;0.7100294;5;0;0;-550;4110;314;4;-0.5498615;0.1357341;-0.4778393;-0.6714895;-1;0;3;2488;3090;314;16;0.7846172;-0.6149584;0.04432133;-0.06509695;-2;0;-2;549;4055;-1010;2;0.5512465;-0.7057871;-0.2811634;-0.3448753;0;1;0;88;4008;-910;8;0.368421;-0.8014534;0.3296399;0.3365651;-1;-2;1;1109;3401;2233;0.4578409;2.489947;1.271848;0.463738;3.027334;1.178029;0.4689178;3.499349;1.09357;0.5639139;4.226965;1.097205;0.3496423;4.584039;1.060684;-0.006984353;4.488872;1.123133;-0.6612097;4.959089;0.6657332;0.2311823;4.92033;0.9818517;0.8656076;4.516678;1.060683;1.133903;4.339926;1.123132;1.342922;3.442985;1.406121;0.6795101;2.872007;1.768966;0.1455793;2.447229;1.272132;0.03333715;1.289867;0.3840042;0;0;0;0.1455793;2.447229;1.272132;0.03333715;1.289867;0.3840042;0;0;0
592922.1582;NotLabelled;16384;0.7293767;0.4556787;0.4833795;0.1634349;0;3;-5;2814;-2078;2248;65536;0.5716028;0.4072022;-0.5193906;-0.4875346;-3;-3;2;4068;192;-771;8192;0.6481994;-0.7190207;-0.2506925;0;0;-3;0;1426;3916;-90;32768;0.4113573;-0.755357;0.5096953;-0.02077562;-3;-1;0;3338;2452;566;256;0.1191136;-0.2077562;-0.6956536;-0.6772853;-1;1;0;540;4034;10;128;-0.09279778;0.1897507;0.6731302;0.7087165;4;2;0;-562;4056;316;4;-0.5498615;0.134349;-0.4778393;-0.671768;0;0;3;2418;3066;252;16;0.7846172;-0.6149584;0.04432133;-0.06509695;-2;-7;-2;705;4113;-1062;2;0.5512465;-0.7064621;-0.2811634;-0.3434903;-1;0;0;140;3886;-938;8;0.367036;-0.8020886;0.3296399;0.3365651;-3;0;2;975;3355;1993;0.4585575;2.491438;1.266546;0.4644507;3.02847;1.170712;0.4696269;3.500165;1.084482;0.5646247;4.22778;1.088074;0.3503365;4.584854;1.05165;-0.006261975;4.489687;1.114259;-0.6608797;4.961616;0.6591891;0.2316546;4.922857;0.9749066;0.8663023;4.517494;1.051417;1.134626;4.340741;1.113745;1.34235;3.442146;1.392408;0.679101;2.871169;1.755551;0.1462958;2.448723;1.267003;0.03365491;1.291359;0.3789257;0;0;0;0.1462958;2.448723;1.267003;0.03365491;1.291359;0.3789257;0;0;0
592942.9943;NotLabelled;16384;0.7293214;0.4542936;0.4847645;0.1634349;0;3;-5;2818;-2142;2174;65536;0.5716028;0.4072022;-0.5193906;-0.4875346;-4;-3;2;4104;176;-735;8192;0.6481994;-0.7190207;-0.2506925;0;0;-3;1;1396;3826;-120;32768;0.4113573;-0.755357;0.5096953;-0.02077562;-4;-1;0;3284;2472;592;256;0.1191136;-0.2077562;-0.6956536;-0.6772853;-3;1;0;570;4082;-22;128;-0.09141274;0.1897507;0.6731302;0.7088965;3;4;0;-504;4026;232;4;-0.5498615;0.134349;-0.4778393;-0.671768;3;-3;3;2484;3130;268;16;0.7847309;-0.6149584;0.04432133;-0.06371191;-3;-9;-2;687;4103;-984;2;0.5526316;-0.7053792;-0.2811634;-0.3434903;-3;3;-3;6;3844;-836;8;0.367036;-0.8020886;0.3296399;0.3365651;-5;-1;3;953;3435;1959;0.4625182;2.489597;1.268281;0.4684073;3.026265;1.170429;0.47358;3.497632;1.082428;0.5672901;4.225419;1.085207;0.3523819;4.58207;1.048306;-0.004066527;4.486345;1.110919;-0.6613218;4.955369;0.6566482;0.2317402;4.91661;0.97087;0.8684657;4.515623;1.048305;1.137083;4.339417;1.110917;1.345166;3.441874;1.392685;0.6817842;2.873072;1.758987;0.1502565;2.446883;1.268912;0.03428961;1.29136;0.3788692;0;0;0;0.1502565;2.446883;1.268912;0.03428961;1.29136;0.3788692;0;0;0
592962.9675;NotLabelled;16384;0.7293214;0.4542936;0.4847645;0.1634349;-1;5;-5;2892;-2050;2152;65536;0.5738403;0.4058172;-0.5180055;-0.4875346;-5;-2;4;4154;186;-697;8192;0.6481994;-0.7190207;-0.2506925;0;1;-5;2;1418;3788;-156;32768;0.4113573;-0.7553939;0.5096953;-0.01939058;-4;0;1;3326;2404;674;256;0.1191136;-0.2077562;-0.6956536;-0.6772853;-5;0;1;510;3982;-32;128;-0.09141274;0.1883656;0.6745152;0.7079487;4;3;0;-380;3950;172;4;-0.5498615;0.134349;-0.4764543;-0.6727511;0;2;3;2464;3032;208;16;0.7837549;-0.6163435;0.04432133;-0.06232687;-2;5;-1;645;4037;-1076;2;0.5526316;-0.7047032;-0.2811634;-0.3448753;-4;5;-4;-24;3872;-842;8;0.365651;-0.802721;0.3296399;0.3365651;-6;0;4;1113;3495;1949;0.4604835;2.489951;1.267277;0.4663732;3.026671;1.169712;0.4715463;3.498085;1.081963;0.5652564;4.225872;1.084742;0.3503482;4.582524;1.047841;-0.006100237;4.486799;1.110453;-0.6647037;4.953483;0.6557266;0.2283581;4.914724;0.969948;0.866432;4.516076;1.04784;1.135049;4.339869;1.110452;1.343149;3.442327;1.392207;0.6797683;2.873526;1.75851;0.1482218;2.447237;1.267883;0.03225496;1.291713;0.3778407;0;0;0;0.1482218;2.447237;1.267883;0.03225496;1.291713;0.3778407;0;0;0
592984.1723;NotLabelled;16384;0.7274726;0.4542936;0.4875346;0.1634349;0;4;-4;2812;-2014;2060;65536;0.5750876;0.4058172;-0.5166205;-0.4875346;-5;-4;3;3916;88;-727;8192;0.6468144;-0.7207461;-0.2493075;0.001385042;5;-7;3;1552;3780;-194;32768;0.4085872;-0.7568957;0.5096953;-0.01939058;-6;1;1;3256;2306;692;256;0.1191136;-0.2077562;-0.6969994;-0.6759003;-4;1;0;506;3952;50;128;-0.09141274;0.1883656;0.6745152;0.7079487;7;2;0;-406;3948;162;4;-0.5512465;0.134349;-0.4764543;-0.6716166;0;6;4;2404;3134;196;16;0.7837549;-0.6163435;0.04432133;-0.06232687;-3;5;-1;659;4073;-1030;2;0.5526316;-0.7034689;-0.2825485;-0.3462604;-5;4;-6;-46;3970;-912;8;0.365651;-0.802721;0.3296399;0.3365651;-6;3;5;1201;3479;2111;0.4565324;2.490068;1.264296;0.4624182;3.026415;1.164701;0.4675876;3.497493;1.075167;0.5612977;4.22528;1.077946;0.3463894;4.581933;1.041046;-0.010059;4.486207;1.103658;-0.6684307;4.952891;0.6485963;0.2262996;4.915633;0.9582193;0.8624734;4.515484;1.041045;1.13109;4.339278;1.103657;1.339048;3.441735;1.385518;0.6773872;2.871567;1.752807;0.1442709;2.447356;1.265077;0.03238186;1.293185;0.372761;0;0;0;0.1442709;2.447356;1.265077;0.03238186;1.293185;0.372761;0;0;0
593026.0961;NotLabelled;16384;0.7274067;0.4529086;0.4889196;0.1634349;2;7;-3;2856;-2008;2062;65536;0.5784684;0.4044321;-0.5152354;-0.4861496;-4;-7;3;3988;78;-607;8192;0.6454294;-0.7219761;-0.2493075;0.004155125;6;-5;3;1570;3816;-194;32768;0.4058172;-0.7583846;0.5096953;-0.01939058;-6;4;1;3192;2462;608;256;0.1191136;-0.2063712;-0.6987504;-0.6745152;-3;1;0;492;3958;52;128;-0.09141274;0.1869806;0.6772853;0.7056674;6;1;0;-522;3980;252;4;-0.5526316;0.134349;-0.4736842;-0.6724374;3;2;6;2448;3202;232;16;0.783832;-0.6163435;0.04293629;-0.06232687;-5;0;-3;695;4067;-956;2;0.5540166;-0.7010062;-0.2825485;-0.3490305;-2;3;-3;-50;3862;-914;8;0.3628809;-0.8051214;0.3282548;0.33518;-6;0;2;1187;3311;2207;0.4589434;2.489031;1.265334;0.4648291;3.025378;1.165739;0.4699985;3.496456;1.076205;0.5643617;4.224164;1.076211;0.3497551;4.580868;1.038078;-0.006748617;4.485698;1.10122;-0.6695285;4.949987;0.6501236;0.2262418;4.914967;0.9569893;0.8657792;4.513957;1.038077;1.134268;4.337746;1.10122;1.340451;3.440656;1.385814;0.6792741;2.873291;1.758278;0.1466818;2.446319;1.266115;0.03246692;1.293185;0.3727534;0;0;0;0.1466818;2.446319;1.266115;0.03246692;1.293185;0.3727534;0;0;0
593045.9931;NotLabelled;16384;0.7276453;0.4515235;0.4903047;0.1620499;2;7;-4;2848;-2104;2150;65536;0.5784684;0.4044321;-0.5152354;-0.4861496;-4;-8;3;3984;102;-733;8192;0.6440443;-0.7236879;-0.2479224;0.004155125;5;-4;3;1544;3872;-98;32768;0.4058172;-0.7593136;0.5083103;-0.01939058;-6;4;1;3186;2496;560;256;0.1191136;-0.2063712;-0.6987504;-0.6745152;-5;1;1;468;3974;-44;128;-0.09141274;0.1855956;0.6786703;0.7047018;5;3;0;-522;3996;238;4;-0.5540166;0.132964;-0.4736842;-0.6715724;1;-2;7;2508;3162;330;16;0.7827409;-0.6177285;0.04293629;-0.06232687;-5;0;-3;661;4127;-950;2;0.5540166;-0.7010062;-0.2825485;-0.3490305;-1;-1;-2;-106;3934;-802;8;0.3614958;-0.8057443;0.3282548;0.33518;-5;1;3;1015;3411;2279;0.4531431;2.485622;1.269217;0.4590203;3.0212;1.165564;0.4641821;3.491587;1.072466;0.5578998;4.219369;1.068856;0.3429531;4.575693;1.029115;-0.01342621;4.480517;1.092949;-0.6781818;4.942462;0.6423541;0.2199833;4.911157;0.9425486;0.8590361;4.509239;1.029114;1.127722;4.333576;1.092947;1.335644;3.438228;1.381733;0.6757682;2.873692;1.760744;0.1408815;2.442917;1.270347;0.03059116;1.293545;0.3716599;0;0;0;0.1408815;2.442917;1.270347;0.03059116;1.293545;0.3716599;0;0;0
593067.0973;NotLabelled;16384;0.7276453;0.4515235;0.4903047;0.1620499;2;7;-5;2856;-2116;2226;65536;0.5794343;0.4030471;-0.5152354;-0.4861496;-4;-8;2;4032;150;-739;8192;0.6440443;-0.7236786;-0.2479224;0.005540166;4;-4;3;1446;3840;-64;32768;0.4044321;-0.7600522;0.5083103;-0.01939058;-6;3;0;3248;2520;516;256;0.1191136;-0.2063712;-0.7000847;-0.6731302;-5;-1;1;530;4006;-34;128;-0.09141274;0.1855956;0.6786703;0.7047018;4;2;0;-490;3954;318;4;-0.5540166;0.1315789;-0.4722992;-0.6728195;0;-4;6;2510;3108;318;16;0.7817207;-0.6191136;0.04155125;-0.06232687;-6;-4;-4;703;4029;-1030;2;0.5554016;-0.6999094;-0.2825485;-0.3490305;-3;-2;-1;32;3938;-794;8;0.3614958;-0.8057443;0.3282548;0.33518;-5;-1;2;1397;3301;2355;0.4592693;2.483827;1.268178;0.4651423;3.019006;1.162488;0.4703003;3.489036;1.067603;0.564018;4.216819;1.063992;0.3490712;4.573142;1.024252;-0.007308066;4.477967;1.088085;-0.672803;4.939082;0.6377321;0.2253618;4.907776;0.937926;0.8651541;4.506688;1.02425;1.133839;4.331025;1.088083;1.338233;3.435487;1.378789;0.6792786;2.870185;1.758264;0.1470079;2.441127;1.269483;0.03275065;1.294654;0.3675936;0;0;0;0.1470079;2.441127;1.269483;0.03275065;1.294654;0.3675936;0;0;0
593088.2125;NotLabelled;16384;0.7275688;0.4501385;0.4916897;0.1620499;2;7;-3;2810;-2132;2156;65536;0.5805936;0.4030471;-0.5152354;-0.4847645;-4;-9;1;4094;138;-837;8192;0.6426592;-0.724897;-0.2479224;0.006925208;2;-4;4;1408;3898;-52;32768;0.4044321;-0.7600862;0.5083103;-0.01800554;-5;1;1;3280;2620;558;256;0.1191136;-0.2077562;-0.699675;-0.6731302;-4;-2;1;574;4018;-44;128;-0.09141274;0.1855956;0.6786703;0.7047018;4;0;-1;-522;4030;332;4;-0.5540166;0.1315789;-0.4709141;-0.6737896;0;-4;5;2612;3026;280;16;0.7807311;-0.6204986;0.04155125;-0.06094183;-7;-4;-5;667;4087;-1050;2;0.5554016;-0.6999094;-0.2825485;-0.3490305;-1;-2;0;-48;3918;-1026;8;0.3601108;-0.8063642;0.3282548;0.33518;-4;-3;0;1331;3427;2271;0.4567788;2.482033;1.267432;0.4626518;3.017212;1.161743;0.4678097;3.487242;1.066858;0.5621713;4.214922;1.060485;0.3475215;4.571286;1.019517;-0.008910984;4.476666;1.083877;-0.67471;4.937782;0.6339736;0.2241757;4.905695;0.9319193;0.8635453;4.504374;1.019517;1.132105;4.328711;1.083876;1.338439;3.433848;1.375289;0.679786;2.869973;1.7574;0.1445173;2.439333;1.268738;0.03225754;1.296105;0.36249;0;0;0;0.1445173;2.439333;1.268738;0.03225754;1.296105;0.36249;0;0;0
593108.2558;NotLabelled;16384;0.7277942;0.4487534;0.4930748;0.1606648;0;5;-2;2846;-2006;2252;65536;0.5825068;0.400277;-0.5152354;-0.4847645;-5;-5;1;4058;112;-883;8192;0.6426592;-0.724897;-0.2479224;0.006925208;1;-6;3;1390;3888;-96;32768;0.4030471;-0.7608216;0.5083103;-0.01800554;-6;-1;2;3328;2504;542;256;0.1191136;-0.2077562;-0.7010049;-0.6717451;-3;-3;1;580;4016;-8;128;-0.09141274;0.1855956;0.6786703;0.7047018;4;1;-1;-554;4018;352;4;-0.5554016;0.1301939;-0.4709141;-0.6729179;0;-4;7;2700;3000;244;16;0.780838;-0.6204986;0.04155125;-0.05955679;-9;-4;-6;739;4099;-1114;2;0.5554016;-0.7004669;-0.2811634;-0.3490305;-1;-1;0;-144;4034;-950;8;0.3601108;-0.8063642;0.3282548;0.33518;-3;-2;0;1217;3407;2221;0.4501639;2.482059;1.264855;0.4560368;3.017239;1.159166;0.4611948;3.487269;1.064281;0.5568553;4.214787;1.058755;0.3428476;4.571579;1.018164;-0.0137628;4.477522;1.082362;-0.678982;4.936289;0.6292115;0.2193388;4.906439;0.9290878;0.8587512;4.503746;1.018162;1.126988;4.327531;1.08236;1.331703;3.433769;1.378257;0.6739815;2.868534;1.759961;0.1379025;2.439359;1.26616;0.03161594;1.297521;0.357443;0;0;0;0.1379025;2.439359;1.26616;0.03161594;1.297521;0.357443;0;0;0
593148.9516;NotLabelled;16384;0.7262149;0.4487534;0.4958449;0.1592798;-1;5;-2;2784;-2052;2240;65536;0.5846763;0.398892;-0.5138504;-0.4847645;-5;-4;1;4048;90;-845;8192;0.6426592;-0.7253547;-0.2465374;0.008310249;1;-5;1;1398;3874;-148;32768;0.4016621;-0.7606274;0.5096953;-0.01800554;-5;-2;2;3314;2460;294;256;0.1204986;-0.2091413;-0.7003559;-0.6717451;-2;-3;1;576;3942;-104;128;-0.09141274;0.1869806;0.6800554;0.7029983;5;-1;-1;-512;3970;242;4;-0.5554016;0.1274238;-0.468144;-0.6753765;3;1;10;2870;3040;194;16;0.7788357;-0.6232687;0.04155125;-0.0567867;-14;-7;-8;741;4167;-1196;2;0.5554016;-0.7011554;-0.2811634;-0.3476454;0;1;2;-236;3840;-986;8;0.3587258;-0.8069814;0.3282548;0.33518;-5;1;0;1053;3447;2013;0.4523647;2.479474;1.266971;0.4582377;3.014653;1.161282;0.4633958;3.484683;1.066397;0.5597005;4.212089;1.058113;0.3459902;4.568919;1.016298;-0.010672;4.47542;1.08102;-0.6775039;4.933355;0.6294016;0.2221798;4.901908;0.9249984;0.8618331;4.500627;1.016297;1.129945;4.324414;1.08102;1.335353;3.430651;1.376435;0.6779354;2.866849;1.760775;0.1401034;2.436774;1.268277;0.02964319;1.297855;0.3563993;0;0;0;0.1401034;2.436774;1.268277;0.02964319;1.297855;0.3563993;0;0;0
593189.9722;NotLabelled;16384;0.7262149;0.4487534;0.4958449;0.1592798;-3;5;-2;2810;-2054;2160;65536;0.5846763;0.398892;-0.5138504;-0.4847645;-6;-3;0;3932;142;-841;8192;0.6426592;-0.7253547;-0.2465374;0.008310249;1;-4;0;1370;3902;-212;32768;0.4016621;-0.7606274;0.5096953;-0.01800554;-4;0;2;3266;2396;322;256;0.1204986;-0.2105263;-0.6999409;-0.6717451;-1;-4;1;622;3930;-4;128;-0.09141274;0.1869806;0.6800554;0.7029983;6;-4;-2;-504;4000;266;4;-0.5581717;0.1246537;-0.4653739;-0.6755241;1;3;13;2898;3052;216;16;0.7768812;-0.6260388;0.0401662;-0.05401662;-18;6;-8;547;4041;-1136;2;0.5554016;-0.7011554;-0.2811634;-0.3476454;0;-1;0;-228;3878;-868;8;0.3587258;-0.8075434;0.3268698;0.33518;-7;5;3;947;3445;1967;0.4430435;2.475653;1.265748;0.4489119;3.010429;1.158037;0.4540659;3.480097;1.061375;0.5502319;4.207531;1.053947;0.3364597;4.564367;1.012511;-0.02019456;4.470725;1.077071;-0.68848;4.927794;0.6267248;0.2115443;4.897731;0.9214281;0.8523158;4.496175;1.01251;1.120451;4.319939;1.07707;1.324877;3.426254;1.373401;0.6651825;2.864643;1.757048;0.130782;2.432958;1.267228;0.02843991;1.300628;0.346243;0;0;0;0.130782;2.432958;1.267228;0.02843991;1.300628;0.346243;0;0;0
593209.9687;NotLabelled;16384;0.7255701;0.4487534;0.4972299;0.1578947;-2;6;-2;2770;-2064;2176;65536;0.5856188;0.3975069;-0.5138504;-0.4847645;-5;-3;0;4006;200;-849;8192;0.6426592;-0.7262731;-0.2437673;0.009695291;1;-8;0;1204;3740;-146;32768;0.400277;-0.7604282;0.5110803;-0.01800554;-6;0;2;3284;2348;524;256;0.1204986;-0.2105263;-0.7012675;-0.6703601;-2;-3;2;588;3956;94;128;-0.09141274;0.1883656;0.6814404;0.7012853;4;-4;-2;-540;4012;266;4;-0.5609418;0.1232687;-0.4639889;-0.6744356;1;5;13;2708;2830;260;16;0.7747113;-0.6288089;0.03878116;-0.05401662;-21;13;-9;715;4105;-1212;2;0.5554016;-0.7011554;-0.2811634;-0.3476454;-1;-3;0;-82;3956;-766;8;0.3587258;-0.8086757;0.3254848;0.333795;-7;11;4;1225;3369;2179;0.4377142;2.469913;1.265337;0.4435826;3.00469;1.157625;0.4487366;3.474358;1.060964;0.5461993;4.201627;1.054394;0.3330691;4.558892;1.013339;-0.02376136;4.46581;1.077736;-0.6910927;4.922879;0.625978;0.2083061;4.892816;0.9225842;0.8488029;4.48978;1.013338;1.116614;4.312992;1.077735;1.320413;3.419306;1.374498;0.6599084;2.857697;1.756748;0.1254528;2.427219;1.266816;0.02526087;1.303654;0.3349249;0;0;0;0.1254528;2.427219;1.266816;0.02526087;1.303654;0.3349249;0;0;0
593232.0157;NotLabelled;16384;0.725775;0.4473684;0.4986149;0.1565097;-1;7;-1;2788;-2040;2110;65536;0.5866219;0.3961219;-0.5124654;-0.4861496;-6;-4;0;4008;154;-785;8192;0.6426592;-0.7267365;-0.2423823;0.009695291;1;-13;-1;1274;3778;-196;32768;0.400277;-0.7604282;0.5110803;-0.01800554;-9;-4;2;3290;2278;716;256;0.1204986;-0.2119114;-0.7008502;-0.6703601;-3;-5;2;580;3964;134;128;-0.09279778;0.1883656;0.6814404;0.7011033;4;-12;-3;-550;3916;76;4;-0.5623268;0.1218837;-0.4612188;-0.6754333;4;4;17;2680;2788;220;16;0.7724907;-0.6315789;0.03601108;-0.05540166;-23;15;-9;583;4071;-1142;2;0.5567867;-0.7006106;-0.2797784;-0.3476454;-2;0;0;22;4008;-880;8;0.3587258;-0.8103547;0.3227147;0.33241;-8;18;5;869;3377;2263;0.4416684;2.466751;1.262179;0.4475323;3.001115;1.152442;0.4526823;3.470414;1.054002;0.5507956;4.197566;1.044679;0.3379662;4.554866;1.002402;-0.01891536;4.462347;1.067323;-0.6874107;4.919747;0.617625;0.2126943;4.888858;0.9119952;0.8536376;4.485291;1.002401;1.121322;4.308502;1.067321;1.323779;3.414294;1.363426;0.6626686;2.854878;1.74784;0.1294071;2.424062;1.263834;0.02704525;1.305976;0.3256096;0;0;0;0.1294071;2.424062;1.263834;0.02704525;1.305976;0.3256096;0;0;0
593252.2031;NotLabelled;16384;0.725775;0.4473684;0.4986149;0.1565097;0;8;0;2772;-2014;2186;65536;0.5886981;0.3947368;-0.5124654;-0.4847645;-4;-5;0;3950;142;-817;8192;0.6426592;-0.7271772;-0.2409972;0.01108033;0;-15;-1;1432;3744;-194;32768;0.398892;-0.7602553;0.5124654;-0.0166205;-10;-6;3;3278;2356;612;256;0.1204986;-0.2132964;-0.7017529;-0.6689751;-3;-5;3;642;3894;62;128;-0.09418282;0.1911357;0.6814404;0.7001683;3;-15;-3;-588;3884;102;4;-0.5637119;0.1204986;-0.4584487;-0.6764124;3;5;19;2666;2894;240;16;0.7702413;-0.634349;0.033241;-0.0567867;-25;12;-11;755;4061;-1036;2;0.5567867;-0.700056;-0.2811634;-0.3476454;-2;2;-1;-220;3928;-946;8;0.3573407;-0.8131728;0.3185596;0.3310249;-14;13;9;1019;3333;1883;0.4360088;2.46312;1.260499;0.4418721;2.997427;1.15048;0.4470215;3.466673;1.051792;0.5464319;4.193659;1.043333;0.3342463;4.551388;1.00144;-0.02280986;4.459428;1.066196;-0.6910959;4.916008;0.6153555;0.2098607;4.884264;0.9070178;0.8497931;4.480894;1.001439;1.117152;4.303552;1.066195;1.317591;3.408748;1.36187;0.6556677;2.849332;1.744884;0.1237475;2.420432;1.262178;0.02752181;1.308247;0.3163228;0;0;0;0.1237475;2.420432;1.262178;0.02752181;1.308247;0.3163228;0;0;0
593273.2004;NotLabelled;16384;0.7259719;0.4459834;0.5;0.1551246;0;8;0;2678;-2014;2188;65536;0.5886981;0.3947368;-0.5124654;-0.4847645;-4;-5;0;3800;92;-837;8192;0.6426592;-0.7276347;-0.2396122;0.01108033;0;-13;-1;1512;3754;-306;32768;0.3975069;-0.7600459;0.5138504;-0.0166205;-11;-8;4;3280;2402;558;256;0.1218837;-0.2160665;-0.7019852;-0.66759;-4;-9;4;648;3812;38;128;-0.09556787;0.1939058;0.6814404;0.6992183;2;-7;-1;-628;3884;180;4;-0.566482;0.1191136;-0.4556787;-0.6762152;1;5;21;2566;2886;308;16;0.7681113;-0.6371191;0.03185596;-0.05540166;-29;8;-13;833;4131;-1126;2;0.5567867;-0.6993665;-0.2811634;-0.3490305;-2;6;-7;-286;3630;-912;8;0.3559557;-0.8148825;0.3171745;0.3296399;-21;13;12;627;3425;1479;0.4308443;2.459376;1.258663;0.436707;2.993626;1.148371;0.4418559;3.462822;1.049445;0.5432143;4.189515;1.0391;0.3319725;4.547705;0.9963861;-0.02530226;4.45687;1.061523;-0.6919787;4.91368;0.6085371;0.2091377;4.883293;0.8998503;0.8473279;4.475826;0.9963512;1.114236;4.297932;1.061447;1.313869;3.403053;1.357444;0.6522891;2.844467;1.742257;0.118583;2.416689;1.260365;0.02821524;1.310456;0.3069812;0;0;0;0.118583;2.416689;1.260365;0.02821524;1.310456;0.3069812;0;0;0
593294.1229;NotLabelled;16384;0.7262664;0.4459834;0.5;0.1537396;-1;6;1;2606;-1926;2166;65536;0.5896245;0.3933518;-0.5124654;-0.4847645;-4;-5;-1;3852;74;-905;8192;0.6426592;-0.728067;-0.2382271;0.01246537;-1;-10;-1;1508;3714;-334;32768;0.3947368;-0.7605808;0.5152354;-0.01523546;-9;-6;4;3174;2388;512;256;0.1232687;-0.2174515;-0.7026312;-0.666205;-5;-13;5;628;3748;6;128;-0.09695291;0.1952908;0.6828254;0.6972883;3;-7;-1;-640;3794;146;4;-0.5706371;0.1135734;-0.4515235;-0.676462;3;0;30;2796;2668;212;16;0.7625757;-0.6440443;0.02770083;-0.05401662;-35;10;-17;467;4049;-1078;2;0.5581717;-0.6974272;-0.2797784;-0.3518005;-3;2;-14;-498;3638;-782;8;0.3545706;-0.8171158;0.3144044;0.3282548;-28;14;17;693;3463;1381;0.4208779;2.454731;1.257147;0.4267399;2.988924;1.14658;0.4318881;3.458069;1.04741;0.5350595;4.184492;1.036087;0.3247073;4.543152;0.992923;-0.03278509;4.453295;1.058223;-0.6980683;4.909056;0.6021427;0.2012652;4.878669;0.8989143;0.8398817;4.469987;0.9929219;1.106353;4.291513;1.058222;1.3032;3.396191;1.354744;0.6386026;2.839802;1.737533;0.1086166;2.412045;1.258873;0.0262081;1.312877;0.2966377;0;0;0;0.1086166;2.412045;1.258873;0.0262081;1.312877;0.2966377;0;0;0
593315.1728;NotLabelled;16384;0.7265583;0.4459834;0.5;0.1523546;-2;6;2;2636;-2014;2142;65536;0.5905461;0.3919668;-0.5124654;-0.4847645;-5;-3;-3;3828;156;-907;8192;0.6412742;-0.7301613;-0.2354571;0.01385042;0;-8;0;1504;3550;-410;32768;0.3919668;-0.7610737;0.5166205;-0.01523546;-7;-3;2;3076;2136;640;256;0.1232687;-0.2188366;-0.7022011;-0.666205;-5;-12;5;706;3678;40;128;-0.09695291;0.1966759;0.6828254;0.6968989;2;-5;-2;-630;3664;124;4;-0.5734072;0.1094183;-0.4473684;-0.6775643;4;-1;35;2840;2656;246;16;0.7591431;-0.6481994;0.02493075;-0.05401662;-37;22;-16;367;4151;-744;2;0.5595568;-0.695615;-0.2797784;-0.3531856;-15;5;-21;-402;3726;-304;8;0.3504155;-0.8199902;0.3130194;0.3268698;-31;11;21;1253;3229;1941;0.4191415;2.44447;1.2495;0.4249981;2.978177;1.13661;0.4301416;3.446887;1.035401;0.5338351;4.173204;1.022228;0.3237276;4.531907;0.9782438;-0.03380656;4.442473;1.043895;-0.6963142;4.89976;0.5853084;0.2024989;4.868519;0.883564;0.8388488;4.458369;0.9782428;1.105214;4.279865;1.043894;1.301011;3.38462;1.341339;0.6361673;2.830511;1.726999;0.1068802;2.401792;1.251427;0.02674638;1.318323;0.2713594;0;0;0;0.1068802;2.401792;1.251427;0.02674638;1.318323;0.2713594;0;0;0
593336.951;NotLabelled;16384;0.7268473;0.4459834;0.5;0.1509695;0;5;4;2464;-1980;2036;65536;0.5891199;0.3905817;-0.5138504;-0.4861496;-2;-2;-3;3724;230;-959;8192;0.6412742;-0.7301337;-0.2354571;0.01523546;1;-6;0;1430;3474;-432;32768;0.3919668;-0.7611002;0.5166205;-0.01385042;-6;1;1;3106;2046;714;256;0.1246537;-0.2216066;-0.7024004;-0.66482;-5;-11;4;676;3686;198;128;-0.09695291;0.1966759;0.6828254;0.6968989;2;-5;-2;-536;3718;110;4;-0.5761772;0.1066482;-0.4432133;-0.6783863;3;5;35;2726;2698;186;16;0.7556008;-0.6523545;0.02077562;-0.05540166;-40;20;-17;599;4101;-636;2;0.5623268;-0.6919596;-0.2797784;-0.3559557;-15;5;-21;-314;3710;-884;8;0.3462604;-0.8233522;0.3102493;0.3254848;-33;13;22;915;3285;2123;0.4160166;2.43458;1.248997;0.4218734;2.968288;1.136114;0.4270169;3.436999;1.034911;0.5320023;4.163146;1.022631;0.3225399;4.522275;0.9790426;-0.03516397;4.433397;1.044525;-0.6961902;4.892209;0.5853237;0.2026216;4.860103;0.8834903;0.8375296;4.447821;0.9790412;1.103566;4.268766;1.044523;1.295527;3.373459;1.344275;0.6293936;2.823017;1.732948;0.1037554;2.391901;1.250923;0.02808203;1.321267;0.2565024;0;0;0;0.1037554;2.391901;1.250923;0.02808203;1.321267;0.2565024;0;0;0
593356.9763;NotLabelled;16384;0.7271336;0.4459834;0.5;0.1495845;0;3;3;2364;-1988;2060;65536;0.5900359;0.3891967;-0.5138504;-0.4861496;0;-1;-3;3620;282;-941;8192;0.6412742;-0.7305789;-0.234072;0.01523546;3;-6;0;1540;3530;-512;32768;0.3905817;-0.7618119;0.5166205;-0.01385042;-6;4;2;3130;2054;618;256;0.1246537;-0.2229917;-0.7032712;-0.6634349;-2;-7;3;616;3686;150;128;-0.09833795;0.1980609;0.6828254;0.6963124;3;-6;-2;-450;3698;112;4;-0.5789474;0.1038781;-0.4390582;-0.6791592;4;5;34;2624;2640;278;16;0.7508535;-0.6578947;0.01800554;-0.05540166;-40;10;-20;919;4065;-600;2;0.566482;-0.6873505;-0.2756233;-0.3614958;-7;0;-21;-450;3758;-776;8;0.3365651;-0.8294792;0.3074792;0.3227147;-42;-1;24;1309;3233;2181;0.4058463;2.426421;1.246512;0.4117031;2.960129;1.133629;0.4168466;3.42884;1.032426;0.5236483;4.154707;1.019217;0.3150778;4.514303;0.9752157;-0.04283544;4.426404;1.040874;-0.7003189;4.886738;0.5781232;0.1963054;4.849406;0.8822093;0.8298796;4.43856;0.9752147;1.095479;4.258923;1.040872;1.287391;3.36428;1.342634;0.6206551;2.812462;1.728311;0.09358513;2.383743;1.248438;0.02822995;1.324065;0.2416272;0;0;0;0.09358513;2.383743;1.248438;0.02822995;1.324065;0.2416272;0;0;0
593378.0993;NotLabelled;16384;0.7280841;0.4459834;0.4986149;0.1495845;1;1;3;2378;-1938;2134;65536;0.5900359;0.3891967;-0.5138504;-0.4861496;0;-2;-3;3672;206;-903;8192;0.6398892;-0.7317923;-0.234072;0.01523546;3;-2;-1;1490;3654;-416;32768;0.3891967;-0.7634306;0.5152354;-0.01523546;-4;4;1;3118;2134;512;256;0.1246537;-0.2229917;-0.7032712;-0.6634349;0;-3;1;534;3662;104;128;-0.09972299;0.199446;0.6828254;0.6957198;-2;-7;-2;-488;3686;228;4;-0.5817174;0.09972299;-0.4362881;-0.6792002;1;-1;35;2758;2640;620;16;0.7473554;-0.6620498;0.01523546;-0.05401662;-42;0;-24;577;4003;-406;2;0.567867;-0.6854752;-0.2756233;-0.3628809;-13;8;-22;-438;3722;-420;8;0.3296399;-0.8327913;0.3074792;0.3213296;-44;-2;24;1123;3151;2519;0.4039249;2.418611;1.239128;0.409781;2.952258;1.125954;0.4149239;3.420913;1.024495;0.5236861;4.146453;1.009464;0.3160741;4.506504;0.9646552;-0.04205149;4.419736;1.030658;-0.6978617;4.881589;0.5670484;0.1988287;4.843387;0.8708308;0.8306688;4.429367;0.964654;1.095805;4.249171;1.030656;1.285644;3.353941;1.331985;0.6183836;2.803594;1.718856;0.09166369;2.375934;1.24108;0.03252121;1.32734;0.2223496;0;0;0;0.09166369;2.375934;1.24108;0.03252121;1.32734;0.2223496;0;0;0
593399.0554;NotLabelled;16384;0.7292135;0.4445983;0.4986149;0.1481994;3;0;2;2462;-1926;2180;65536;0.5888268;0.3891967;-0.5152354;-0.4861496;2;-3;-3;3700;212;-891;8192;0.6398892;-0.7317923;-0.234072;0.01523546;2;0;-2;1550;3730;-318;32768;0.3891967;-0.7634306;0.5152354;-0.01523546;-2;1;0;3186;2166;450;256;0.1246537;-0.2229917;-0.7032712;-0.6634349;0;-2;1;552;3732;18;128;-0.09972299;0.200831;0.6814404;0.6966787;-2;-8;-1;-568;3778;238;4;-0.5872576;0.09279778;-0.4307479;-0.6789501;1;-1;35;2792;2734;312;16;0.7389609;-0.6717451;0.008310249;-0.05124654;-41;33;-21;165;4101;-476;2;0.5706371;-0.6822507;-0.2742382;-0.365651;-7;-1;-21;-566;3864;-1004;8;0.3227147;-0.8365387;0.3060942;0.3199446;-45;0;24;909;3193;2485;0.4058383;2.40956;1.234514;0.4116936;2.943144;1.121044;0.4168359;3.411743;1.019326;0.525598;4.137282;1.004295;0.3179861;4.497334;0.9594864;-0.04013968;4.410566;1.025489;-0.6938573;4.873589;0.5600939;0.202833;4.835386;0.8638778;0.8325809;4.420197;0.9594855;1.097717;4.240002;1.025488;1.285406;3.345238;1.329539;0.6174977;2.797013;1.7183;0.09357709;2.366884;1.236491;0.03276347;1.329974;0.2059674;0;0;0;0.09357709;2.366884;1.236491;0.03276347;1.329974;0.2059674;0;0;0
593419.081;NotLabelled;16384;0.7292135;0.4445983;0.4986149;0.1481994;1;0;1;2512;-1920;2266;65536;0.587612;0.3891967;-0.5166205;-0.4861496;1;-2;-3;3776;214;-865;8192;0.6398892;-0.7322614;-0.232687;0.01385042;1;0;-5;1522;3770;-178;32768;0.3891967;-0.7625204;0.5166205;-0.01385042;0;-3;-2;3102;2388;452;256;0.1246537;-0.2229917;-0.7032712;-0.6634349;1;0;0;586;3812;124;128;-0.101108;0.2022161;0.6814404;0.6960781;-2;-9;-1;-520;3874;168;4;-0.5886427;0.08864266;-0.4265928;-0.6809265;0;-6;32;2738;2636;298;16;0.7337348;-0.6772853;0;-0.05401662;-41;58;-21;-489;3969;-212;2;0.5720221;-0.6814545;-0.2714681;-0.367036;-10;-11;-21;-464;3836;-788;8;0.3157895;-0.8402078;0.3047091;0.3185596;-47;0;23;1411;3095;2865;0.4080919;2.393353;1.217233;0.413952;2.927367;1.105806;0.4190984;3.396352;1.005881;0.5278608;4.121891;0.9908502;0.3202488;4.481943;0.9460415;-0.03787684;4.395175;1.012045;-0.6901199;4.858538;0.5449221;0.2056075;4.818167;0.8512549;0.8348434;4.404806;0.9460401;1.099979;4.224609;1.012043;1.287693;3.329847;1.316079;0.6197845;2.781622;1.704841;0.09583053;2.350669;1.219034;0.03356288;1.33537;0.1672975;0;0;0;0.09583053;2.350669;1.219034;0.03356288;1.33537;0.1672975;0;0;0
593439.9859;NotLabelled;16384;0.7292135;0.4445983;0.4986149;0.1481994;0;-1;0;2624;-1958;2268;65536;0.588452;0.3878116;-0.5180055;-0.4847645;0;-1;-2;3868;122;-1123;8192;0.6398892;-0.7322614;-0.232687;0.01385042;0;0;-5;1480;3818;-140;32768;0.3905817;-0.7618119;0.5166205;-0.01385042;1;-3;-2;3268;2440;466;256;0.1246537;-0.2243767;-0.7028305;-0.6634349;1;0;0;626;3832;102;128;-0.101108;0.2036011;0.6800554;0.6970283;-3;-11;-3;-548;3940;242;4;-0.5900277;0.08448754;-0.4238227;-0.681985;1;-11;32;2718;2504;236;16;0.729399;-0.6814404;-0.008310249;-0.05955679;-41;61;-18;237;4255;-98;2;0.5761772;-0.6782972;-0.2686981;-0.368421;-14;-11;-19;-410;4082;-656;8;0.3074792;-0.8443052;0.3033241;0.3171745;-45;-2;22;1413;2955;3067;0.4042926;2.383421;1.20678;0.410152;2.917373;1.095053;0.4152978;3.386302;0.9948651;0.5240591;4.111841;0.9798256;0.3164436;4.471893;0.935033;-0.04167703;4.385125;1.001064;-0.6939894;4.848749;0.5342983;0.2007845;4.806207;0.8431125;0.8310382;4.394756;0.9349917;1.096179;4.21456;1.000974;1.280694;3.318388;1.302811;0.6136645;2.769518;1.69217;0.09203136;2.340739;1.208606;0.03365011;1.338009;0.144659;0;0;0;0.09203136;2.340739;1.208606;0.03365011;1.338009;0.144659;0;0;0
593460.0703;NotLabelled;16384;0.7292135;0.4445983;0.4986149;0.1481994;0;-3;0;2666;-2018;2388;65536;0.588452;0.3878116;-0.5180055;-0.4847645;0;1;-1;3978;154;-1093;8192;0.6412742;-0.7310737;-0.232687;0.01246537;-2;1;-7;1428;3866;-136;32768;0.3905817;-0.7618119;0.5166205;-0.01385042;2;-5;-1;3252;2492;496;256;0.1232687;-0.2243767;-0.7030748;-0.6634349;3;0;1;620;3880;44;128;-0.1024931;0.2049861;0.6800554;0.6964198;-2;-13;-4;-634;3950;264;4;-0.5914127;0.08033241;-0.4210526;-0.6830025;1;-5;30;2752;2546;310;16;0.723717;-0.6869806;-0.01523546;-0.06371191;-40;44;-20;513;4257;-22;2;0.5803324;-0.6756292;-0.2645429;-0.3698061;-11;-14;-12;-124;4014;-816;8;0.2936288;-0.8502057;0.300554;0.3171745;-48;-8;20;1795;2989;2667;0.4041595;2.373992;1.201266;0.4100236;2.908366;1.09158;0.4151736;3.377675;0.993184;0.5252228;4.103038;0.9790685;0.3182569;4.463512;0.9346659;-0.04003417;4.377297;1.000496;-0.6915302;4.840659;0.5323321;0.2022993;4.797275;0.8437532;0.8327142;4.385464;0.9346648;1.097518;4.204717;1.000494;1.281505;3.308715;1.303156;0.6134205;2.758368;1.688602;0.0918982;2.331303;1.202916;0.03581544;1.339595;0.1285656;0;0;0;0.0918982;2.331303;1.202916;0.03581544;1.339595;0.1285656;0;0;0
593481.1872;NotLabelled;16384;0.7292135;0.4445983;0.4986149;0.1481994;-2;-3;0;2816;-2066;2518;65536;0.588452;0.3878116;-0.5180055;-0.4847645;0;2;-3;3986;110;-1023;8192;0.6412742;-0.7315131;-0.2313019;0.01246537;-4;0;-7;1350;3860;-194;32768;0.3919668;-0.7601582;0.5180055;-0.01385042;2;-7;0;3208;2500;584;256;0.1232687;-0.2243767;-0.7017652;-0.66482;5;-3;2;730;3966;34;128;-0.1024931;0.2091413;0.6786703;0.6965355;-5;-7;-4;-638;4034;110;4;-0.5927978;0.07756232;-0.4182825;-0.6838235;-1;-1;30;2870;2714;336;16;0.7181544;-0.6925207;-0.02077562;-0.06509695;-39;33;-23;495;4161;34;2;0.5817174;-0.6749787;-0.2631579;-0.3698061;-9;-3;-17;-342;3820;-896;8;0.2867036;-0.8525659;0.300554;0.3171745;-52;-12;20;1123;3263;2285;0.4124547;2.364519;1.190593;0.418318;2.898831;1.080602;0.4234675;3.368083;0.9819391;0.5349454;4.093228;0.9678195;0.3286901;4.454109;0.9234149;-0.02977017;4.3686;0.989245;-0.6819161;4.831962;0.5219871;0.2125371;4.788579;0.8316126;0.8429927;4.375048;0.9234141;1.10744;4.19378;0.9892444;1.292241;3.296654;1.288057;0.6249325;2.746307;1.674844;0.1001934;2.321831;1.192269;0.04179697;1.341247;0.1078783;0;0;0;0.1001934;2.321831;1.192269;0.04179697;1.341247;0.1078783;0;0;0
593501.995;NotLabelled;16384;0.7283673;0.4459834;0.4986149;0.1481994;-4;-2;1;2804;-2094;2450;65536;0.5873082;0.3878116;-0.5180055;-0.4861496;-2;2;-5;4098;108;-1023;8192;0.6426592;-0.7303189;-0.2313019;0.01108033;-5;-1;-6;1260;3846;-236;32768;0.3919668;-0.7601582;0.5180055;-0.01385042;1;-7;0;3246;2354;628;256;0.1232687;-0.2257618;-0.7013208;-0.66482;5;-7;3;748;3920;-28;128;-0.1024931;0.2091413;0.6772853;0.6978823;-4;-7;-4;-704;4006;244;4;-0.5969529;0.07063711;-0.4141274;-0.6834882;2;0;30;2894;2708;212;16;0.7095686;-0.700831;-0.03047091;-0.06648199;-39;21;-24;161;4183;50;2;0.5831025;-0.6727952;-0.2617728;-0.3725762;-10;-2;-24;-476;3806;-734;8;0.2783934;-0.8553156;0.300554;0.3171745;-58;-11;24;1023;3351;2277;0.4135779;2.356966;1.177155;0.4194458;2.891696;1.069221;0.4245994;3.361324;0.9723643;0.5354089;4.086621;0.9610381;0.3288627;4.447469;0.9177332;-0.02958947;4.361382;0.9828499;-0.6810337;4.822941;0.5128366;0.2131684;4.779558;0.8231872;0.8432392;4.368891;0.9180127;1.107785;4.187631;0.9834689;1.290649;3.291085;1.285201;0.6219495;2.740004;1.668524;0.1013165;2.314272;1.178655;0.04567906;1.342698;0.08603932;0;0;0;0.1013165;2.314272;1.178655;0.04567906;1.342698;0.08603932;0;0;0
593522.007;NotLabelled;16384;0.7283673;0.4459834;0.4986149;0.1481994;-6;0;5;2712;-2018;2420;65536;0.5873082;0.3878116;-0.5180055;-0.4861496;-3;4;-5;4084;106;-937;8192;0.6440443;-0.7299905;-0.2285319;0.009695291;-5;-6;-5;1326;3708;-398;32768;0.3919668;-0.7582872;0.5207756;-0.01246537;-1;-8;0;3266;2242;572;256;0.1232687;-0.2271468;-0.7008734;-0.66482;3;-10;3;766;3838;-6;128;-0.1024931;0.2105263;0.6772853;0.6974657;-6;-3;-4;-714;3930;228;4;-0.5983379;0.06786703;-0.4099723;-0.6850609;5;0;29;2924;2542;302;16;0.7036011;-0.7066305;-0.03462604;-0.06648199;-38;19;-22;-121;3941;322;2;0.5858725;-0.6693779;-0.2603878;-0.3753462;-14;0;-33;-562;3582;-532;8;0.2714681;-0.8575387;0.300554;0.3171745;-66;-5;32;483;3585;1643;0.4190308;2.338774;1.159408;0.4249033;2.873911;1.053503;0.4300607;3.343903;0.9584281;0.5421453;4.069017;0.947965;0.3362203;4.430282;0.9051824;-0.02236003;4.344746;0.9703194;-0.6741602;4.809281;0.5037448;0.2194532;4.763698;0.8154726;0.8504575;4.350797;0.905181;1.114706;4.16899;0.9703176;1.297737;3.270183;1.265144;0.6284268;2.7191;1.647399;0.1067694;2.296075;1.160732;0.04883878;1.344378;0.05087828;0;0;0;0.1067694;2.296075;1.160732;0.04883878;1.344378;0.05087828;0;0;0
593542.9856;NotLabelled;16384;0.7281711;0.4487534;0.4972299;0.1454294;-11;3;6;2548;-1930;2080;65536;0.5859201;0.3864266;-0.5180055;-0.4889196;-7;7;-6;3820;206;-879;8192;0.6440443;-0.7304227;-0.2271468;0.009695291;-4;-3;-3;1344;3628;-496;32768;0.3919668;-0.7573341;0.5221606;-0.01246537;-1;-5;0;3282;2138;552;256;0.1232687;-0.2285319;-0.7004231;-0.66482;2;-10;3;744;3706;-20;128;-0.101108;0.2119114;0.6772853;0.6972484;-5;0;-4;-678;3818;112;4;-0.601108;0.06648199;-0.4072022;-0.6844236;4;7;30;2884;2458;350;16;0.6980609;-0.7120178;-0.03878116;-0.06509695;-36;8;-21;187;4115;382;2;0.5900277;-0.6652281;-0.2576177;-0.3781163;-24;-3;-41;-488;3534;20;8;0.2617728;-0.862019;0.2977839;0.3157895;-74;-2;39;1217;3151;2307;0.4162053;2.328258;1.146268;0.4220778;2.863396;1.040373;0.4272353;3.33339;0.9453063;0.5405982;4.058318;0.935772;0.3353181;4.419998;0.8934008;-0.02342531;4.335012;0.9583603;-0.6732137;4.79954;0.4889793;0.2197277;4.753955;0.8026274;0.8494145;4.339608;0.8934013;1.11333;4.157254;0.9583625;1.292548;3.256233;1.248734;0.6223682;2.705245;1.629601;0.1039439;2.285558;1.147592;0.05407798;1.344849;0.02802154;0;0;0;0.1039439;2.285558;1.147592;0.05407798;1.344849;0.02802154;0;0;0
593563.0204;NotLabelled;16384;0.7275913;0.4501385;0.4972299;0.1440443;-12;3;8;2346;-1842;1948;65536;0.5847616;0.3864266;-0.5180055;-0.4903047;-7;9;-5;3658;178;-795;8192;0.6440443;-0.7304227;-0.2271468;0.009695291;-1;0;-2;1328;3448;-514;32768;0.3919668;-0.7573341;0.5221606;-0.01246537;0;-1;1;3270;2016;484;256;0.1232687;-0.2313019;-0.6995131;-0.66482;1;-9;3;664;3618;36;128;-0.101108;0.2119114;0.6759003;0.6985911;-6;0;-4;-576;3618;156;4;-0.6038781;0.06371191;-0.4030471;-0.6847081;4;12;29;2762;2400;440;16;0.6939058;-0.7160371;-0.04155125;-0.06371191;-36;3;-22;297;4295;144;2;0.599723;-0.6532714;-0.2534626;-0.3864266;-32;5;-47;-424;3638;-780;8;0.2396122;-0.8723102;0.2922437;0.3102493;-67;20;45;1227;2065;3281;0.4139197;2.320243;1.130371;0.4197928;2.855446;1.0248;0.4249511;3.325497;0.9300181;0.5395892;4.050237;0.921419;0.3349531;4.41233;0.8794633;-0.02395171;4.327893;0.9442458;-0.6716203;4.798939;0.4784451;0.2210908;4.748078;0.7919365;0.8489075;4.331037;0.8794627;1.112489;4.148139;0.9442455;1.290241;3.246551;1.233764;0.6183634;2.696305;1.612704;0.1016583;2.277544;1.131666;0.05647311;1.345033;0.005060367;0;0;0;0.1016583;2.277544;1.131666;0.05647311;1.345033;0.005060367;0;0;0
593583.1159;NotLabelled;16384;0.7281342;0.4501385;0.4972299;0.1412742;-11;3;7;2280;-1842;1874;65536;0.5848239;0.3864266;-0.5166205;-0.4916897;-7;8;-5;3364;132;-689;8192;0.6440443;-0.7304227;-0.2271468;0.009695291;1;1;-1;1284;3370;-468;32768;0.3919668;-0.75731;0.5221606;-0.01385042;0;7;1;3074;1892;600;256;0.1246537;-0.232687;-0.698808;-0.66482;0;-7;2;484;3400;120;128;-0.101108;0.2146814;0.6745152;0.6990839;-2;-14;-4;-422;3502;-34;4;-0.6066482;0.06232687;-0.400277;-0.6840115;5;5;31;2830;2466;104;16;0.6897507;-0.7199965;-0.04432133;-0.06232687;-37;13;-24;-7;4189;-124;2;0.6038781;-0.646942;-0.2534626;-0.3905817;-27;4;-36;-52;3834;-712;8;0.2285319;-0.8781142;0.2880886;0.3060942;-66;22;45;1241;2371;2705;0.4069487;2.307779;1.123923;0.4128261;2.843378;1.02038;0.4179883;3.313784;0.9273798;0.5351679;4.038136;0.9206696;0.3318188;4.401051;0.8795526;-0.02740619;4.317707;0.9439764;-0.6732577;4.791416;0.4783528;0.2179855;4.738346;0.7956319;0.8454853;4.317957;0.8795516;1.108398;4.133971;0.9439749;1.28504;3.232385;1.234171;0.6115339;2.682138;1.610211;0.09468719;2.265074;1.125043;0.05839543;1.344907;-0.01198493;0;0;0;0.09468719;2.265074;1.125043;0.05839543;1.344907;-0.01198493;0;0;0
593603.9708;NotLabelled;16384;0.7284884;0.4515235;0.4958449;0.1398892;-10;4;6;2284;-1816;1892;65536;0.5845713;0.3850415;-0.5166205;-0.4930748;-6;5;-6;3392;252;-627;8192;0.6440443;-0.7304227;-0.2271468;0.009695291;5;0;0;1288;3350;-382;32768;0.3919668;-0.7582631;0.5207756;-0.01385042;0;12;0;2894;1810;724;256;0.1246537;-0.234072;-0.6983453;-0.66482;0;-8;2;544;3342;54;128;-0.101108;0.2174515;0.6745152;0.6982272;-3;-13;-4;-420;3362;262;4;-0.6121883;0.0567867;-0.3919668;-0.6843703;4;6;39;2802;2158;354;16;0.6814404;-0.7273288;-0.05401662;-0.06094183;-38;23;-24;-51;4161;92;2;0.6066482;-0.6435035;-0.2534626;-0.3919668;-32;13;-33;166;3820;70;8;0.2188366;-0.8842761;0.2825485;0.300554;-68;17;45;1815;1949;2925;0.4019025;2.299127;1.114039;0.4077842;2.835118;1.012545;0.4129502;3.305876;0.9213436;0.5299609;4.030265;0.9155886;0.326535;4.393183;0.874896;-0.03268373;4.309672;0.9391376;-0.6750191;4.786386;0.4717199;0.2158258;4.733294;0.7901124;0.840221;4.31021;0.874895;1.103164;4.126204;0.9391363;1.278598;3.224618;1.230065;0.6018344;2.675759;1.602265;0.08964092;2.256418;1.114983;0.06042996;1.344559;-0.02892176;0;0;0;0.08964092;2.256418;1.114983;0.06042996;1.344559;-0.02892176;0;0;0
593624.1462;NotLabelled;16384;0.727893;0.4529086;0.4958449;0.1385041;-8;6;6;2236;-1764;1890;65536;0.5834002;0.3850415;-0.5166205;-0.4944598;-7;2;-5;3438;188;-569;8192;0.6412742;-0.7328728;-0.2271468;0.008310249;8;0;0;1244;3246;-230;32768;0.3919668;-0.7601317;0.5180055;-0.01523546;0;10;0;2874;1884;672;256;0.1246537;-0.234072;-0.6983453;-0.66482;0;-7;2;524;3344;116;128;-0.1024931;0.2188366;0.6731302;0.6989288;-5;-10;-3;-500;3420;104;4;-0.6149584;0.05263158;-0.3878116;-0.6845862;5;5;40;2834;2042;344;16;0.6759003;-0.7321618;-0.05817174;-0.06094183;-40;21;-26;-117;3909;94;2;0.6094183;-0.6377692;-0.2548476;-0.3961219;-31;25;-35;-250;3532;-714;8;0.2077562;-0.8892183;0.2797784;0.2963989;-66;15;48;1485;1821;3311;0.3907521;2.272759;1.097879;0.396634;2.808753;0.9964073;0.4018001;3.279516;0.9052263;0.5200733;4.003706;0.9004309;0.3172883;4.367031;0.8601643;-0.04208884;4.284063;0.9242232;-0.6809918;4.764578;0.4559945;0.2096978;4.70841;0.774294;0.8308291;4.283164;0.8601633;1.093437;4.098617;0.924222;1.268075;3.19703;1.21563;0.5913805;2.647428;1.586856;0.07849064;2.23005;1.098821;0.05989058;1.343328;-0.06489483;0;0;0;0.07849064;2.23005;1.098821;0.05989058;1.343328;-0.06489483;0;0;0
593647.0647;NotLabelled;16384;0.727727;0.4529086;0.4972299;0.134349;-7;7;3;2230;-2040;1912;65536;0.5819566;0.3836565;-0.5166205;-0.4972299;-8;-1;-6;3362;338;-665;8192;0.6412742;-0.7328728;-0.2271468;0.008310249;5;0;-1;1222;3300;-160;32768;0.3919668;-0.7610447;0.5166205;-0.0166205;0;5;0;2930;2028;554;256;0.1246537;-0.2354571;-0.6978796;-0.66482;0;-6;3;602;3368;60;128;-0.1024931;0.2202216;0.6731302;0.6984937;-2;-12;-4;-656;3414;78;4;-0.6177285;0.04986149;-0.3822715;-0.6854151;9;4;39;2890;1914;122;16;0.6717451;-0.7355171;-0.06371191;-0.06094183;-42;29;-24;-343;4191;148;2;0.6121883;-0.6310609;-0.2562327;-0.4016621;-31;25;-36;-810;3408;-706;8;0.1966759;-0.8943959;0.2756233;0.2922437;-67;17;46;1317;1987;3139;0.3936723;2.256296;1.088841;0.3995575;2.792614;0.9890877;0.4047267;3.263666;0.8994161;0.5229999;3.987856;0.8946207;0.3202149;4.35118;0.854354;-0.03916228;4.268213;0.918413;-0.678257;4.75137;0.4531756;0.2123144;4.692993;0.7714081;0.8337556;4.267314;0.8543529;1.096364;4.082767;0.9184117;1.26502;3.181471;1.214209;0.5883749;2.631768;1.585377;0.08141065;2.213585;1.089635;0.06465488;1.341955;-0.08545639;0;0;0;0.08141065;2.213585;1.089635;0.06465488;1.341955;-0.08545639;0;0;0
593667.9565;NotLabelled;16384;0.7271178;0.4542936;0.4972299;0.132964;-6;6;2;2288;-2004;1920;65536;0.5828673;0.3822715;-0.5166205;-0.4972299;-8;-2;-6;3458;438;-799;8192;0.6398892;-0.7340825;-0.2271468;0.008310249;2;-3;-2;1100;3296;-154;32768;0.3919668;-0.7610447;0.5166205;-0.0166205;-3;4;1;2894;2014;596;256;0.1246537;-0.2354571;-0.6978796;-0.66482;-1;-7;5;754;3398;122;128;-0.1024931;0.2202216;0.6731302;0.6984937;2;-8;-5;-704;3454;-18;4;-0.6204986;0.04709141;-0.3767313;-0.6861759;12;0;42;3122;1952;150;16;0.666205;-0.7400413;-0.06925207;-0.06094183;-42;32;-22;-311;4249;240;2;0.6225126;-0.6163435;-0.2562327;-0.4085872;-33;12;-41;-496;3558;-152;8;0.1759003;-0.903872;0.267313;0.2839335;-71;10;46;2145;1279;3317;0.3832478;2.24033;1.082419;0.3891332;2.77665;0.9826778;0.3943024;3.247704;0.8930169;0.5138351;3.971693;0.8891877;0.3116906;4.335422;0.8493495;-0.04784405;4.252995;0.9132231;-0.6844105;4.739475;0.4479816;0.2058563;4.675805;0.7660509;0.8250849;4.250662;0.84935;1.087358;4.065577;0.9132256;1.254582;3.164287;1.209856;0.5763072;2.615222;1.578988;0.07098621;2.197619;1.083212;0.06461394;1.340742;-0.102781;0;0;0;0.07098621;2.197619;1.083212;0.06461394;1.340742;-0.102781;0;0;0
