SEP=;
index;label;RightUpperArm_boneIndex;RightUpperArm_quat9x_w;RightUpperArm_quat9x_x;RightUpperArm_quat9x_y;RightUpperArm_quat9x_z;RightUpperArm_gyroscope_x;RightUpperArm_gyroscope_y;RightUpperArm_gyroscope_z;RightUpperArm_accelerometer_x;RightUpperArm_accelerometer_y;RightUpperArm_accelerometer_z;RightLowerArm_boneIndex;RightLowerArm_quat9x_w;RightLowerArm_quat9x_x;RightLowerArm_quat9x_y;RightLowerArm_quat9x_z;RightLowerArm_gyroscope_x;RightLowerArm_gyroscope_y;RightLowerArm_gyroscope_z;RightLowerArm_accelerometer_x;RightLowerArm_accelerometer_y;RightLowerArm_accelerometer_z;LeftUpperArm_boneIndex;LeftUpperArm_quat9x_w;LeftUpperArm_quat9x_x;LeftUpperArm_quat9x_y;LeftUpperArm_quat9x_z;LeftUpperArm_gyroscope_x;LeftUpperArm_gyroscope_y;LeftUpperArm_gyroscope_z;LeftUpperArm_accelerometer_x;LeftUpperArm_accelerometer_y;LeftUpperArm_accelerometer_z;LeftLowerArm_boneIndex;LeftLowerArm_quat9x_w;LeftLowerArm_quat9x_x;LeftLowerArm_quat9x_y;LeftLowerArm_quat9x_z;LeftLowerArm_gyroscope_x;LeftLowerArm_gyroscope_y;LeftLowerArm_gyroscope_z;LeftLowerArm_accelerometer_x;LeftLowerArm_accelerometer_y;LeftLowerArm_accelerometer_z;Chest_boneIndex;Chest_quat9x_w;Chest_quat9x_x;Chest_quat9x_y;Chest_quat9x_z;Chest_gyroscope_x;Chest_gyroscope_y;Chest_gyroscope_z;Chest_accelerometer_x;Chest_accelerometer_y;Chest_accelerometer_z;Spine_boneIndex;Spine_quat9x_w;Spine_quat9x_x;Spine_quat9x_y;Spine_quat9x_z;Spine_gyroscope_x;Spine_gyroscope_y;Spine_gyroscope_z;Spine_accelerometer_x;Spine_accelerometer_y;Spine_accelerometer_z;RightUpperLeg_boneIndex;RightUpperLeg_quat9x_w;RightUpperLeg_quat9x_x;RightUpperLeg_quat9x_y;RightUpperLeg_quat9x_z;RightUpperLeg_gyroscope_x;RightUpperLeg_gyroscope_y;RightUpperLeg_gyroscope_z;RightUpperLeg_accelerometer_x;RightUpperLeg_accelerometer_y;RightUpperLeg_accelerometer_z;RightLowerLeg_boneIndex;RightLowerLeg_quat9x_w;RightLowerLeg_quat9x_x;RightLowerLeg_quat9x_y;RightLowerLeg_quat9x_z;RightLowerLeg_gyroscope_x;RightLowerLeg_gyroscope_y;RightLowerLeg_gyroscope_z;RightLowerLeg_accelerometer_x;RightLowerLeg_accelerometer_y;RightLowerLeg_accelerometer_z;LeftUpperLeg_boneIndex;LeftUpperLeg_quat9x_w;LeftUpperLeg_quat9x_x;LeftUpperLeg_quat9x_y;LeftUpperLeg_quat9x_z;LeftUpperLeg_gyroscope_x;LeftUpperLeg_gyroscope_y;LeftUpperLeg_gyroscope_z;LeftUpperLeg_accelerometer_x;LeftUpperLeg_accelerometer_y;LeftUpperLeg_accelerometer_z;LeftLowerLeg_boneIndex;LeftLowerLeg_quat9x_w;LeftLowerLeg_quat9x_x;LeftLowerLeg_quat9x_y;LeftLowerLeg_quat9x_z;LeftLowerLeg_gyroscope_x;LeftLowerLeg_gyroscope_y;LeftLowerLeg_gyroscope_z;LeftLowerLeg_accelerometer_x;LeftLowerLeg_accelerometer_y;LeftLowerLeg_accelerometer_z;pelvis_x;pelvis_y;pelvis_z;lowerSpine_x;lowerSpine_y;lowerSpine_z;middleSpine_x;middleSpine_y;middleSpine_z;upperSpine_x;upperSpine_y;upperSpine_z;rightClavicle_x;rightClavicle_y;rightClavicle_z;rightShoulder_x;rightShoulder_y;rightShoulder_z;rightElbow_x;rightElbow_y;rightElbow_z;rightWrist_x;rightWrist_y;rightWrist_z;leftClavicle_x;leftClavicle_y;leftClavicle_z;leftShoulder_x;leftShoulder_y;leftShoulder_z;leftElbow_x;leftElbow_y;leftElbow_z;leftWrist_x;leftWrist_y;leftWrist_z;rightHip_x;rightHip_y;rightHip_z;rightKnee_x;rightKnee_y;rightKnee_z;rightAnkle_x;rightAnkle_y;rightAnkle_z;leftHip_x;leftHip_y;leftHip_z;leftKnee_x;leftKnee_y;leftKnee_z;leftAnkle_x;leftAnkle_y;leftAnkle_z;
896534.9485;NotLabelled;16384;0.1108033;0.1537396;-0.8029646;-0.5650969;-19;116;144;-284;5044;757;65536;0.2811634;-0.005540166;0.7653342;0.5789474;-27;131;-170;-2479;5196;-301;8192;0.7694265;-0.5747922;0.08725762;0.2645429;-9;162;46;654;3227;455;32768;0.7258503;-0.6066482;0.3130194;0.08448754;75;74;-1;954;3315;-256;256;0.6331716;-0.5277008;-0.5110803;-0.2437673;41;136;-61;865;4304;599;128;-0.5207756;0.5498615;0.5579397;0.3393352;-70;125;50;-1433;4337;-780;4;0.06509695;-0.1163435;-0.7350109;-0.66482;54;89;-40;-537;4382;-792;16;0.3739612;-0.5387812;0.4501385;0.606006;50;-24;-40;-377;3894;2036;2;0.7461249;-0.634349;0.1966759;-0.04709141;-41;83;-64;251;4896;1149;8;0.4293629;-0.333795;0.5650969;0.6203982;22;109;-15;-727;4809;411;0.6263585;2.758089;-0.2545588;0.6317839;3.25248;-0.4851448;0.6365435;3.686194;-0.6896627;0.8177723;4.35146;-0.9407408;0.6452925;4.702549;-1.088169;0.2870348;4.685975;-0.9808576;-0.1453986;3.906905;-0.7271261;-0.2190814;3.040664;-1.10395;1.147342;4.565785;-1.088171;1.397151;4.383567;-0.9808603;1.609684;3.481391;-0.7178306;1.778594;2.591445;-0.9957723;0.3141152;2.717039;-0.2422636;0.1761217;1.270093;-0.4100864;0;0;0;0.3141152;2.717039;-0.2422636;0.1761217;1.270093;-0.4100864;0;0;0
896556.0871;NotLabelled;16384;0.08310249;0.1565097;-0.8038194;-0.567867;-20;118;134;-156;4842;751;65536;0.3116343;-0.005540166;0.7545032;0.5775623;-26;118;-169;-2517;5004;-211;8192;0.7768923;-0.5734072;0.06925207;0.2506925;-10;159;51;476;3251;791;32768;0.7328506;-0.602493;0.3074792;0.0734072;70;69;-2;906;2965;-218;256;0.6294507;-0.5193906;-0.5138504;-0.2645429;34;141;-51;969;3878;505;128;-0.5124654;0.5429363;0.5602815;0.3587258;-68;130;45;-1355;3911;-350;4;0.06094183;-0.101108;-0.7313151;-0.6717451;47;90;-39;-691;3960;422;16;0.3795014;-0.533241;0.4529086;0.6053979;57;3;-33;121;3830;1592;2;0.7474838;-0.6315789;0.1952908;-0.06509695;-37;98;-68;-215;4288;1311;8;0.4432133;-0.3407202;0.5595568;0.6118561;32;112;-14;-141;4277;665;0.5659674;2.770202;-0.2766157;0.5714104;3.266211;-0.5036992;0.5761856;3.701361;-0.7051445;0.7358009;4.374563;-0.9496518;0.5520954;4.721092;-1.094282;0.1943497;4.691661;-0.988023;-0.2150676;3.88233;-0.7991042;-0.2180216;3.039675;-1.232372;1.058403;4.601049;-1.094284;1.313883;4.426226;-0.9880262;1.540647;3.529147;-0.7195078;1.723433;2.644551;-1.005632;0.2537231;2.729066;-0.2646354;0.1392692;1.27695;-0.4029028;0;0;0;0.2537231;2.729066;-0.2646354;0.1392692;1.27695;-0.4029028;0;0;0
896576.6825;NotLabelled;16384;0.0567867;0.1606648;-0.8043098;-0.5692521;-22;122;124;-258;4666;623;65536;0.3407202;-0.005540166;0.743971;0.5747922;-25;113;-170;-2649;4938;-141;8192;0.7913073;-0.567867;0.03185596;0.2243767;-17;140;55;376;2817;1171;32768;0.746874;-0.5927978;0.2963989;0.05401662;58;55;-3;1190;2593;-726;256;0.6190377;-0.4986149;-0.5263157;-0.301939;15;151;-34;-91;3242;161;128;-0.4958449;0.5263157;0.5678063;0.3933518;-49;118;35;-103;3525;-66;4;0.05124654;-0.07756232;-0.7233353;-0.6842105;39;76;-29;-305;3546;-442;16;0.3961219;-0.5235457;0.4570637;0.6000668;56;25;-26;-139;3490;924;2;0.7472425;-0.6288089;0.1897507;-0.101108;-30;101;-56;-1163;2988;1341;8;0.4639889;-0.3531856;0.5554016;0.5928771;46;94;-3;455;3869;951;0.5241507;2.78001;-0.294399;0.5296266;3.27901;-0.5148335;0.5344309;3.716812;-0.7104453;0.6736311;4.396115;-0.9505155;0.4795665;4.737747;-1.093254;0.1227559;4.69669;-0.9877096;-0.2715627;3.874874;-0.8219967;-0.2461799;3.045761;-1.279954;0.9893185;4.633292;-1.093256;1.249904;4.465724;-0.9877127;1.490052;3.573414;-0.7149715;1.682014;2.693884;-1.010546;0.2119047;2.738719;-0.2830151;0.1110414;1.283104;-0.3919712;0;0;0;0.2119047;2.738719;-0.2830151;0.1110414;1.283104;-0.3919712;0;0;0
896597.1076;NotLabelled;16384;0.03047091;0.1648199;-0.8039149;-0.5706371;-25;130;119;-252;4912;277;65536;0.3711911;-0.005540166;0.7325024;0.5706371;-25;128;-169;-2885;4902;-107;8192;0.7978356;-0.5637119;0.01385042;0.2132964;-18;131;55;296;2785;1147;32768;0.7517076;-0.5886427;0.2936288;0.04709141;56;44;-4;1208;2513;-976;256;0.6146808;-0.4861496;-0.533241;-0.3185596;9;147;-31;-829;3462;-75;128;-0.4889196;0.5166205;0.5709497;0.4099723;-38;113;34;375;3849;-212;4;0.04709141;-0.06648199;-0.7194488;-0.6897507;37;73;-21;-185;4588;-366;16;0.4058172;-0.5193906;0.4584487;0.5961297;53;20;-25;-147;4388;702;2;0.746888;-0.6274238;0.1869806;-0.1163435;-27;81;-46;-1673;2946;1313;8;0.4722992;-0.3601108;0.5554016;0.5820505;48;89;8;1591;3621;771;0.4336894;2.798246;-0.3002338;0.4392088;3.301204;-0.5114792;0.4440516;3.74252;-0.6990286;0.5488969;4.428735;-0.9368899;0.3379021;4.760583;-1.078687;-0.01643157;4.701234;-0.9734986;-0.3922044;3.869644;-0.8135573;-0.3634283;3.055658;-1.2977;0.8522772;4.681995;-1.078689;1.120939;4.527462;-0.9735016;1.392701;3.647222;-0.6913705;1.599305;2.777834;-1.006436;0.1214413;2.756752;-0.2896719;0.05149102;1.296838;-0.357612;0;0;0;0.1214413;2.756752;-0.2896719;0.05149102;1.296838;-0.357612;0;0;0
896616.9465;NotLabelled;16384;0.002770083;0.1717452;-0.8030375;-0.5706371;-32;141;121;-238;5306;75;65536;0.4016621;-0.008310249;0.7205997;0.5650969;-22;152;-165;-2963;5016;-327;8192;0.8033934;-0.5595568;-0.001385042;0.2036011;-18;122;58;246;3083;1065;32768;0.7569452;-0.5844875;0.2894737;0.0401662;54;41;-6;1178;2761;-1102;256;0.6093475;-0.4750692;-0.5373961;-0.3379501;14;144;-29;-1149;4124;-153;128;-0.4833795;0.5069252;0.5732098;0.4252077;-30;107;38;795;4421;-80;4;0.04155125;-0.05955679;-0.7163946;-0.6939058;31;52;-9;125;5020;-506;16;0.4127424;-0.5138504;0.4612188;0.5940359;47;11;-23;57;4758;136;2;0.7466928;-0.6260388;0.1842105;-0.1288089;-19;70;-37;-1655;2988;1019;8;0.4750692;-0.368421;0.5581717;0.5718561;39;53;19;2129;3601;1313;0.3909478;2.806238;-0.2975187;0.3964837;3.310704;-0.505137;0.4013412;3.753358;-0.6895037;0.4893032;4.441216;-0.9294546;0.2702118;4.767386;-1.072143;-0.08252636;4.699717;-0.9666173;-0.4452713;3.858879;-0.8261234;-0.395489;3.062832;-1.337617;0.7863529;4.701385;-1.072145;1.05875;4.553776;-0.9666206;1.348401;3.680796;-0.6797698;1.556646;2.816033;-1.006276;0.07869885;2.76467;-0.2872805;0.02404079;1.303343;-0.3362237;0;0;0;0.07869885;2.76467;-0.2872805;0.02404079;1.303343;-0.3362237;0;0;0
896637.0872;NotLabelled;16384;-0.05263158;0.1842105;-0.8024724;-0.5650969;-57;132;118;-764;5602;-205;65536;0.4653739;-0.01800554;0.6955529;0.5470914;-10;161;-154;-2843;5152;-731;8192;0.8084586;-0.5554016;-0.01800554;0.1939058;-15;116;58;68;3471;1177;32768;0.7619768;-0.5803324;0.2853186;0.03462604;55;44;-13;1238;3035;-1226;256;0.6037495;-0.4626039;-0.5429363;-0.3559557;22;146;-30;-1491;4564;87;128;-0.4792244;0.4972299;0.5758026;0.4376731;-23;93;41;905;5071;186;4;0.03739612;-0.05401662;-0.7143714;-0.6966759;20;35;4;767;4848;-428;16;0.4182825;-0.5110803;0.4626039;0.5914679;40;9;-18;425;4698;-18;2;0.7453763;-0.6260388;0.1814404;-0.1398892;-9;62;-30;-1619;3208;847;8;0.4792244;-0.3725762;0.5595568;0.5642936;21;47;29;1353;3893;2109;0.3528722;2.812301;-0.2827659;0.3584221;3.318044;-0.4872515;0.3632922;3.761834;-0.6688693;0.4320257;4.453214;-0.9049464;0.2039525;4.773837;-1.046123;-0.1468457;4.69564;-0.9414092;-0.4948933;3.848063;-0.8042803;-0.4253207;3.070022;-1.340571;0.7217536;4.72246;-1.045841;0.9981008;4.582034;-0.9407852;1.314762;3.717436;-0.6571112;1.52581;2.856959;-0.9930073;0.04062251;2.770669;-0.272807;-0.0008880571;1.308717;-0.315574;0;0;0;0.04062251;2.770669;-0.272807;-0.0008880571;1.308717;-0.315574;0;0;0
896657.9513;NotLabelled;16384;-0.07894737;0.1883656;-0.8032321;-0.5595568;-71;112;111;-864;5656;-79;65536;0.4944598;-0.0235457;0.6827595;0.5373961;-6;157;-149;-3025;5188;-509;8192;0.8121884;-0.5526316;-0.03185596;0.1842105;-6;107;56;148;3851;1385;32768;0.7684859;-0.5747922;0.2797784;0.02770083;54;48;-20;1358;3299;-1176;256;0.5970653;-0.4515235;-0.5484765;-0.3725762;22;138;-31;-1687;4792;495;128;-0.4764543;0.4889196;0.5766882;0.4487534;-19;84;43;855;5367;620;4;0.03185596;-0.05401662;-0.7119289;-0.699446;11;25;19;957;4210;-396;16;0.4238227;-0.5069252;0.4653739;0.5889213;33;11;-15;71;4244;-160;2;0.7441051;-0.6260388;0.1800554;-0.1481994;0;55;-28;-1831;3790;725;8;0.4806094;-0.3795014;0.5626032;0.5554016;11;71;35;-83;4471;1779;0.3256854;2.816239;-0.2719631;0.3312407;3.32248;-0.4752142;0.3361156;3.766711;-0.6557488;0.3865382;4.460238;-0.8901443;0.1500518;4.775092;-1.030462;-0.1985278;4.68743;-0.9258348;-0.5416595;3.829075;-0.8640473;-0.4182803;3.092031;-1.446577;0.669026;4.737362;-1.030464;0.9490128;4.604002;-0.9258376;1.272337;3.744731;-0.6336231;1.484277;2.887993;-0.9783961;0.01343538;2.774584;-0.2621142;-0.0198086;1.312279;-0.2997658;0;0;0;0.01343538;2.774584;-0.2621142;-0.0198086;1.312279;-0.2997658;0;0;0
896699.9549;NotLabelled;16384;-0.1232687;0.1925208;-0.8071275;-0.5443213;-70;84;94;-998;5028;581;65536;0.5498615;-0.033241;0.6576512;0.5138504;2;148;-136;-2605;4958;-635;8192;0.8178492;-0.5484765;-0.07894737;0.1551246;18;111;58;470;3853;2153;32768;0.7846575;-0.5650969;0.2548476;0.005540166;49;75;-32;1834;3523;-1124;256;0.5837831;-0.4210526;-0.5581717;-0.4127424;-4;98;-31;-1071;4374;615;128;-0.4639889;0.466759;0.5772301;0.4833795;-27;86;41;-215;4315;-72;4;0.01108033;-0.05540166;-0.7069671;-0.7049862;14;35;29;365;4048;-750;16;0.4390582;-0.501385;0.4653739;0.5824673;18;11;-7;-445;4020;686;2;0.7324644;-0.6371191;0.1689751;-0.1703601;23;63;2;-1391;4074;503;8;0.4944598;-0.4127424;0.5577214;0.5235457;15;64;42;465;3787;913;0.2975268;2.820292;-0.2417259;0.3030901;3.327265;-0.4431437;0.307972;3.772147;-0.6220694;0.3430696;4.467699;-0.8532362;0.09969736;4.777883;-0.9921746;-0.2468785;4.682034;-0.8880715;-0.5881674;3.821532;-0.8508632;-0.4511042;3.10411;-1.45445;0.6193802;4.751661;-0.9921769;0.9022287;4.624055;-0.8880749;1.239325;3.769658;-0.597134;1.456722;2.917864;-0.9506484;-0.01472358;2.778602;-0.23204;-0.03773509;1.316381;-0.2793634;0;0;0;-0.01472358;2.778602;-0.23204;-0.03773509;1.316381;-0.2793634;0;0;0
896721.0563;NotLabelled;16384;-0.1440443;0.1939058;-0.8089153;-0.536011;-65;88;86;-740;4588;725;65536;0.5734072;-0.03601108;0.6458558;0.5027701;7;137;-127;-2121;4548;-605;8192;0.818945;-0.5470914;-0.09418282;0.1454294;16;102;63;440;3493;2299;32768;0.7883186;-0.5637119;0.2465374;-0.001385042;42;76;-30;2042;3113;-1362;256;0.5810691;-0.4099723;-0.5609418;-0.4238227;-6;95;-24;-797;3928;-33;128;-0.4598338;0.4570637;0.5789259;0.4944598;-20;87;36;-269;3847;-310;4;0.002770083;-0.05401662;-0.7036011;-0.7085338;16;41;28;147;4016;-470;16;0.4418283;-0.5;0.4653739;0.5815625;19;16;-5;-319;3940;748;2;0.7291096;-0.6412742;0.1634349;-0.1745152;21;56;11;-1785;3494;583;8;0.4944598;-0.4196676;0.5577265;0.5180055;-2;28;37;427;3241;1277;0.2396794;2.824728;-0.15616;0.2452922;3.33621;-0.3458348;0.2502182;3.785099;-0.5144553;0.2419263;4.483947;-0.7380718;-0.02029787;4.779868;-0.8737826;-0.3602229;4.661515;-0.7709105;-0.7092428;3.803314;-0.7734787;-0.5598773;3.128229;-1.421357;0.5000093;4.786043;-0.8737845;0.7902651;4.675169;-0.7709135;1.147759;3.833482;-0.4675413;1.380378;2.990499;-0.8323097;-0.07257325;2.782827;-0.1475169;-0.07766613;1.322539;-0.2391329;0;0;0;-0.07257325;2.782827;-0.1475169;-0.07766613;1.322539;-0.2391329;0;0;0
896741.9559;NotLabelled;16384;-0.1814404;0.200831;-0.8060633;-0.5263157;-51;91;74;-358;4082;317;65536;0.6121883;-0.04570637;0.6240838;0.4833795;0;115;-103;-1397;3598;-539;8192;0.8201435;-0.5443213;-0.1108033;0.1371191;12;87;67;456;3097;2335;32768;0.7927606;-0.5609418;0.2382271;-0.01108033;31;68;-24;2136;2725;-1544;256;0.5759825;-0.4016621;-0.5637119;-0.434903;3;95;-18;-743;3524;-287;128;-0.4556787;0.4487534;0.580349;0.5041551;-17;85;33;-149;3607;70;4;-0.002770083;-0.05263158;-0.702216;-0.7100105;14;44;27;13;4036;-118;16;0.4445983;-0.5;0.4653739;0.5794476;19;15;-5;93;3882;876;2;0.725307;-0.6454294;0.1578947;-0.1800554;26;65;14;-2217;3110;479;8;0.4916897;-0.4265928;0.5574874;0.5152354;-29;25;42;-183;3271;1137;0.2177322;2.824722;-0.1325659;0.2233531;3.336942;-0.3202383;0.2282863;3.786487;-0.4871014;0.2055032;4.485008;-0.7107311;-0.06280159;4.775425;-0.8464473;-0.4001992;4.65005;-0.7435732;-0.7551509;3.794708;-0.7705855;-0.5929247;3.140175;-1.436218;0.4572656;4.79239;-0.8464495;0.7497584;4.687561;-0.7435763;1.112384;3.849664;-0.4358343;1.346726;3.008152;-0.8028886;-0.09452079;2.782787;-0.1241001;-0.08737134;1.323498;-0.2303201;0;0;0;-0.09452079;2.782787;-0.1241001;-0.08737134;1.323498;-0.2303201;0;0;0
896784.0861;NotLabelled;16384;-0.199446;0.2049861;-0.8043598;-0.5207756;-53;85;67;-356;3944;625;65536;0.6311597;-0.04986149;0.6121883;0.4736842;-5;115;-88;-1119;3358;-347;8192;0.8208963;-0.5415512;-0.1246537;0.1315789;4;73;65;410;2975;2305;32768;0.7952539;-0.5595568;0.232687;-0.01800554;20;47;-16;2186;2417;-1778;256;0.5712822;-0.3933518;-0.567867;-0.4432133;5;93;-14;-909;3466;221;128;-0.4515235;0.4404432;0.5814586;0.5138504;-15;87;29;121;3585;398;4;-0.009695291;-0.04986149;-0.700831;-0.7115165;12;41;26;-9;4010;2;16;0.4473684;-0.5;0.466759;0.5761923;21;15;-5;23;3856;894;2;0.7201257;-0.6509695;0.1523546;-0.1855956;26;65;14;-2641;3152;519;8;0.4861496;-0.434903;0.5572035;0.5138504;-46;24;47;-789;3267;1143;0.2087045;2.825136;-0.1147837;0.2143344;3.338181;-0.3001909;0.2192755;3.788458;-0.4650659;0.1855643;4.487784;-0.6847663;-0.08726404;4.774747;-0.8188008;-0.4226418;4.64356;-0.7165701;-0.7754461;3.789754;-0.7863821;-0.5794164;3.165002;-1.471256;0.4324762;4.799803;-0.8188028;0.7265927;4.698964;-0.7165733;1.096386;3.867029;-0.4012777;1.334911;3.029288;-0.7742169;-0.103549;2.783164;-0.1065183;-0.09307872;1.324577;-0.2217206;0;0;0;-0.103549;2.783164;-0.1065183;-0.09307872;1.324577;-0.2217206;0;0;0
896806.1614;NotLabelled;16384;-0.2285319;0.2105263;-0.8031641;-0.5083103;-59;75;53;94;3868;867;65536;0.6624641;-0.06786703;0.5927978;0.4529086;-34;143;-53;-559;2954;523;8192;0.8236958;-0.5304709;-0.1578947;0.1232687;-11;53;45;536;2871;1789;32768;0.8003899;-0.5540166;0.2271468;-0.02908587;15;17;-4;1764;2533;-2248;256;0.5554016;-0.368421;-0.5790833;-0.4695291;-1;84;-6;-1157;3656;295;128;-0.4362881;0.4168975;0.585296;0.5415512;-15;74;20;469;3821;288;4;-0.02908587;-0.04432133;-0.699446;-0.7127166;7;33;24;67;4050;106;16;0.4584487;-0.4986149;0.466759;0.5686334;25;14;-7;35;3998;748;2;0.7116297;-0.6606648;0.1357341;-0.1966759;8;49;17;-1633;3090;755;8;0.4639889;-0.4736842;0.5403775;0.5180055;-100;66;63;-1553;3835;1315;0.2038222;2.8262;-0.093753;0.2094623;3.340174;-0.2765667;0.2144126;3.791278;-0.4391656;0.1726288;4.490444;-0.6579872;-0.1034981;4.77441;-0.7916458;-0.4373344;4.639241;-0.6895599;-0.7906657;3.78711;-0.775351;-0.5842757;3.177887;-1.471086;0.4159188;4.805455;-0.7916476;0.7111853;4.707884;-0.6895621;1.088411;3.881842;-0.3676445;1.325769;3.046474;-0.7466038;-0.1084317;2.784186;-0.08571713;-0.0945509;1.326376;-0.2100344;0;0;0;-0.1084317;2.784186;-0.08571713;-0.0945509;1.326376;-0.2100344;0;0;0
896825.9571;NotLabelled;16384;-0.2423823;0.2146814;-0.8023564;-0.501385;-59;87;44;142;3720;841;65536;0.6745594;-0.08310249;0.5844875;0.4432133;-51;150;-34;-329;2986;605;8192;0.8251349;-0.5263157;-0.166205;0.1204986;-8;54;41;642;2851;1729;32768;0.8021388;-0.5512465;0.2271468;-0.033241;22;21;-2;1842;2553;-2202;256;0.5498615;-0.3614958;-0.5819302;-0.4778393;2;81;-5;-1155;3666;201;128;-0.432133;0.4099723;0.5868197;0.5484765;-9;67;17;515;4011;250;4;-0.03601108;-0.04293629;-0.699446;-0.7124851;8;35;25;253;4082;180;16;0.4612188;-0.4972299;0.466759;0.5676052;27;20;-8;-45;4100;752;2;0.7104683;-0.6620498;0.1288089;-0.200831;-4;51;16;-1555;3394;835;8;0.4570637;-0.4930748;0.52745;0.5193906;-116;94;67;-1077;3713;1577;0.1930003;2.827261;-0.02924897;0.1986761;3.344483;-0.2026578;0.2036581;3.798478;-0.3570018;0.1370176;4.497816;-0.5690107;-0.1490846;4.773135;-0.6997497;-0.4778468;4.625281;-0.598785;-0.8418815;3.779446;-0.7006301;-0.647629;3.185405;-1.412794;0.3689125;4.822498;-0.6997521;0.6675334;4.73443;-0.5987886;1.076537;3.928871;-0.2640271;1.300876;3.101041;-0.6667131;-0.1192551;2.785109;-0.02204311;-0.1106696;1.330083;-0.1759476;0;0;0;-0.1192551;2.785109;-0.02204311;-0.1106696;1.330083;-0.1759476;0;0;0
896867.0819;NotLabelled;16384;-0.2700831;0.2299169;-0.7986563;-0.4861496;-43;110;27;-418;3764;403;65536;0.6950149;-0.1218837;0.567867;0.4238227;-70;141;0;-697;3372;-375;8192;0.8254836;-0.5235457;-0.1759003;0.1163435;-3;59;36;790;2859;1777;32768;0.8051858;-0.5470914;0.2257618;-0.03739612;28;27;0;1830;2537;-2052;256;0.5443213;-0.3545706;-0.5845106;-0.4861496;5;77;-5;-1275;3742;321;128;-0.4293629;0.4044321;0.5861836;0.5554016;-6;57;13;451;4053;418;4;-0.04155125;-0.04155125;-0.699446;-0.7122657;8;36;23;333;4046;132;16;0.4653739;-0.4958449;0.468144;0.5642748;27;13;-8;63;4188;732;2;0.7121889;-0.6606648;0.1218837;-0.2036011;-19;55;16;-1459;3610;781;8;0.4487534;-0.5152354;0.5110803;0.521488;-135;108;69;-747;4215;1713;0.1909556;2.826767;-0.007745147;0.1966384;3.34462;-0.1792604;0.2016265;3.799177;-0.3319422;0.1279087;4.498991;-0.5400041;-0.1609946;4.772175;-0.6690503;-0.4882105;4.620496;-0.5687385;-0.8580966;3.778443;-0.6803569;-0.664901;3.18124;-1.390161;0.3564858;4.826688;-0.6690522;0.6560273;4.741034;-0.5687417;1.077727;3.941662;-0.2349004;1.297924;3.117994;-0.648266;-0.1213;2.784589;-0.0007061362;-0.117386;1.33079;-0.1659679;0;0;0;-0.1213;2.784589;-0.0007061362;-0.117386;1.33079;-0.1659679;0;0;0
896887.2174;NotLabelled;16384;-0.2811634;0.2409972;-0.7957458;-0.4792244;-34;104;21;-758;3914;255;65536;0.7005614;-0.1426593;0.5623268;0.4155124;-72;131;17;-621;3590;-737;8192;0.8261851;-0.5207756;-0.1842105;0.1108033;0;68;30;770;2963;1851;32768;0.807718;-0.5429363;0.2257618;-0.04293629;32;30;1;1848;2561;-1996;256;0.5401662;-0.3476454;-0.5855533;-0.4944598;4;72;-2;-1269;3840;467;128;-0.4252077;0.398892;0.5877311;0.5609418;-6;55;9;405;4091;378;4;-0.04847645;-0.0401662;-0.6980609;-0.7132655;7;32;21;417;4160;124;16;0.4695291;-0.4944598;0.4695291;0.5608872;29;10;-9;85;4026;692;2;0.7177148;-0.6551247;0.1038781;-0.2119114;-45;69;16;-1351;3706;671;8;0.4404432;-0.5427915;0.4944598;0.5166205;-151;125;72;-819;4473;1939;0.1938835;2.82758;0.01713513;0.1995779;3.3465;-0.1511257;0.2045764;3.802006;-0.3009508;0.123529;4.502286;-0.5046703;-0.1682935;4.773328;-0.6316486;-0.4938208;4.617768;-0.5317885;-0.8757138;3.782221;-0.6515694;-0.6738905;3.165546;-1.342059;0.3486132;4.833036;-0.6320606;0.6491483;4.749791;-0.5326983;1.087263;3.957405;-0.2033753;1.306941;3.138583;-0.6265314;-0.1183727;2.785359;0.02388783;-0.1193135;1.332536;-0.1497942;0;0;0;-0.1183727;2.785359;0.02388783;-0.1193135;1.332536;-0.1497942;0;0;0
896907.9492;NotLabelled;16384;-0.2908587;0.2520775;-0.7913074;-0.4750692;-23;92;11;-1226;4012;123;65536;0.7029274;-0.1620499;0.5581717;0.4099723;-60;90;24;-327;3912;-1833;8192;0.8263245;-0.5166205;-0.2022161;0.09695291;1;70;22;618;2923;2125;32768;0.8128719;-0.534626;0.2243767;-0.05540166;34;12;11;2262;2465;-1700;256;0.534626;-0.3421052;-0.5880069;-0.501385;2;65;0;-1285;3926;583;128;-0.4196676;0.3947368;0.5892029;0.566482;-8;56;5;351;4149;258;4;-0.05401662;-0.03878116;-0.6980609;-0.712944;6;27;17;579;4020;-126;16;0.4722992;-0.4916897;0.4709141;0.5598344;32;-1;-10;-27;4168;570;2;0.7209284;-0.6509695;0.09279778;-0.2188366;-57;79;18;-1523;3694;879;8;0.4307479;-0.5674328;0.4764543;0.5152354;-169;141;73;-233;4429;2409;0.1926244;2.827731;0.04500455;0.1983253;3.347232;-0.1214535;0.2033297;3.803255;-0.2696963;0.113602;4.503769;-0.4689264;-0.1815614;4.771981;-0.5941799;-0.5051327;4.61176;-0.4953363;-0.8890173;3.779376;-0.6298687;-0.6958632;3.147145;-1.30867;0.3345654;4.838094;-0.5941817;0.636112;4.757945;-0.495339;1.073611;3.96701;-0.1617378;1.292684;3.154291;-0.5968071;-0.119632;2.785486;0.05159852;-0.1198769;1.334154;-0.1341246;0;0;0;-0.119632;2.785486;0.05159852;-0.1198769;1.334154;-0.1341246;0;0;0
896928.9361;NotLabelled;16384;-0.2950138;0.2631579;-0.788641;-0.4709141;-11;68;1;-1622;3848;59;65536;0.7023062;-0.1759003;0.5567867;0.4072022;-47;39;36;-689;3980;-1833;8192;0.8272607;-0.5138504;-0.2091413;0.08864266;2;61;16;426;2883;2285;32768;0.8150143;-0.5304709;0.2257618;-0.05817174;31;-4;12;1908;2383;-1768;256;0.5249307;-0.3310249;-0.5923074;-0.5138504;0;56;10;-1355;3888;557;128;-0.4099723;0.3864266;0.5934739;0.5747922;-3;53;-3;175;4029;206;4;-0.06371191;-0.03601108;-0.6952909;-0.7149928;9;35;11;915;3996;-306;16;0.4778393;-0.4847645;0.4750692;0.5576578;32;0;-10;-283;4096;246;2;0.7256877;-0.6454294;0.08033241;-0.2243767;-67;86;24;-1563;3788;803;8;0.4196676;-0.5957144;0.4542936;0.5124654;-185;153;74;-335;4675;2555;0.1933763;2.827603;0.06735888;0.1990878;3.348077;-0.09602909;0.2041016;3.804967;-0.2415769;0.1094539;4.506065;-0.4364309;-0.1876278;4.773028;-0.5598028;-0.5100214;4.610008;-0.4616903;-0.894478;3.77736;-0.5929144;-0.7141819;3.127792;-1.258761;0.328038;4.842645;-0.5598049;0.6302037;4.763942;-0.4616936;1.072066;3.97787;-0.122396;1.297729;3.177838;-0.5771611;-0.1188805;2.78532;0.07368328;-0.1242152;1.335076;-0.1202865;0;0;0;-0.1188805;2.78532;0.07368328;-0.1242152;1.335076;-0.1202865;0;0;0
896950.1158;NotLabelled;16384;-0.2963989;0.2700831;-0.7866036;-0.4695291;0;33;-5;-1530;3852;327;65536;0.6959693;-0.1855956;0.5595568;0.4099723;-38;-14;51;-1087;3772;-1343;8192;0.8272757;-0.5124654;-0.2146814;0.08310249;4;45;10;412;2815;2167;32768;0.8168341;-0.5263157;0.2285319;-0.05955679;28;-5;11;1538;2319;-1780;256;0.5207756;-0.3268698;-0.5946589;-0.5180055;0;49;16;-1269;3862;629;128;-0.4044321;0.3822715;0.5959221;0.5789474;-8;55;-6;263;4099;280;4;-0.07063711;-0.033241;-0.6939058;-0.7158213;7;37;12;1025;3926;-348;16;0.4806094;-0.4806094;0.4764543;0.5576921;31;-2;-10;-315;4048;142;2;0.7374576;-0.6301939;0.05401662;-0.2368421;-88;75;31;-1531;3758;689;8;0.3961219;-0.6508974;0.4030471;0.5069252;-200;147;66;483;4689;3027;0.1863467;2.827349;0.114826;0.1920689;3.348792;-0.04544146;0.1970922;3.806546;-0.1882498;0.09256855;4.508239;-0.3757718;-0.2083239;4.77236;-0.4959878;-0.5283082;4.603946;-0.3991067;-0.9192477;3.771724;-0.5126931;-0.7666878;3.107913;-1.171387;0.3063409;4.849027;-0.4959891;0.6097038;4.773468;-0.3991082;1.064143;3.988783;-0.07348776;1.278538;3.194326;-0.5432345;-0.1259106;2.785029;0.1208764;-0.1300482;1.33698;-0.08887722;0;0;0;-0.1259106;2.785029;0.1208764;-0.1300482;1.33698;-0.08887722;0;0;0
896971.074;NotLabelled;16384;-0.2922437;0.2756233;-0.7837402;-0.4736842;20;-3;-10;-754;3826;557;65536;0.6753268;-0.1966759;0.5706371;0.4238227;-29;-45;73;-1073;3928;-1001;8192;0.8274508;-0.5110803;-0.2188366;0.07894737;7;33;3;522;2899;2141;32768;0.8182244;-0.5235457;0.2299169;-0.05955679;25;-5;11;1522;2347;-1708;256;0.5152354;-0.3240997;-0.5985688;-0.5207756;0;46;19;-1073;3950;669;128;-0.398892;0.3781163;0.5982514;0.5831025;-8;53;-7;345;4155;212;4;-0.07617728;-0.03047091;-0.6925207;-0.7167172;5;41;13;935;3978;-478;16;0.4847645;-0.4778393;0.4792244;0.5540911;30;8;-8;-631;4084;76;2;0.7440214;-0.6218836;0.0401662;-0.2409972;-87;70;38;-1331;3696;677;8;0.3836565;-0.6758024;0.3767313;0.5041551;-202;153;61;401;4455;2777;0.1799714;2.826357;0.1391613;0.1856991;3.348311;-0.01943514;0.1907273;3.806521;-0.1607766;0.08367352;4.508419;-0.34609;-0.2181931;4.771858;-0.4653541;-0.5375437;4.602034;-0.3688446;-0.9300095;3.769134;-0.4716918;-0.7965472;3.089575;-1.118364;0.2962018;4.850317;-0.4653564;0.5998714;4.775517;-0.3688482;1.058435;3.991657;-0.0470444;1.270093;3.202708;-0.5271987;-0.1322861;2.784019;0.1450653;-0.135539;1.337342;-0.07397;0;0;0;-0.1322861;2.784019;0.1450653;-0.135539;1.337342;-0.07397;0;0;0
896990.9515;NotLabelled;16384;-0.2880886;0.2783934;-0.7817747;-0.4778393;32;-1;-17;-740;3808;715;65536;0.663789;-0.2036011;0.5775623;0.4293629;-32;-29;78;-1275;3822;-1351;8192;0.8274693;-0.5110803;-0.2202216;0.07479224;8;25;-2;618;2911;2157;32768;0.8199855;-0.5193906;0.232687;-0.06094183;20;-10;11;1642;2395;-1686;256;0.5096953;-0.3213296;-0.6011703;-0.5249307;0;45;21;-1049;3864;673;128;-0.3919668;0.3753462;0.6005046;0.5872576;-12;52;-8;429;4041;428;4;-0.08310249;-0.02908587;-0.6925207;-0.7160049;4;41;15;935;4052;-614;16;0.4889196;-0.4750692;0.4792244;0.5528208;27;12;-7;-659;4056;-78;2;0.7495213;-0.6149584;0.02493075;-0.2437673;-87;57;47;-1241;4016;671;8;0.3698061;-0.7000245;0.3490305;0.501385;-195;145;53;321;4421;2627;0.1823345;2.826644;0.1651395;0.188068;3.349124;0.008287475;0.1931013;3.807804;-0.1315226;0.08749278;4.510355;-0.3151816;-0.2138479;4.774717;-0.433733;-0.5335295;4.605358;-0.337503;-0.9210681;3.768003;-0.4210605;-0.822791;3.057941;-1.040697;0.3007143;4.852069;-0.4337347;0.6042558;4.776395;-0.3375053;1.067539;3.993465;-0.02023196;1.275158;3.207581;-0.5071282;-0.1299232;2.784286;0.1708906;-0.1320572;1.338616;-0.05470994;0;0;0;-0.1299232;2.784286;0.1708906;-0.1320572;1.338616;-0.05470994;0;0;0
897011.1573;NotLabelled;16384;-0.2825485;0.2825485;-0.7788947;-0.4833795;40;0;-24;-864;3816;995;65536;0.653565;-0.2119114;0.5831025;0.433518;-38;-16;77;-1187;4018;-581;8192;0.8268397;-0.5124654;-0.2216066;0.06786703;12;20;-11;952;2843;1857;32768;0.8217103;-0.5152354;0.2354571;-0.06232687;20;16;7;1180;2647;-2000;256;0.5055401;-0.3185596;-0.6037225;-0.5277008;1;45;22;-1083;3850;583;128;-0.3864266;0.3725762;0.6003768;0.5927978;-17;53;-8;423;3961;274;4;-0.0900277;-0.02631579;-0.6911357;-0.7166128;3;38;18;907;4032;-648;16;0.4930748;-0.4736842;0.4806094;0.549104;24;12;-6;-603;4044;-32;2;0.7570161;-0.6066482;0.01246537;-0.2423823;-88;39;57;-1165;4090;399;8;0.3573407;-0.7214139;0.3213296;0.4986149;-186;144;46;603;4103;2701;0.1841157;2.825011;0.1907655;0.1898588;3.348355;0.03681874;0.1949006;3.807804;-0.1004408;0.08906996;4.511302;-0.2803077;-0.2123934;4.776251;-0.3972241;-0.53198;4.606351;-0.3016353;-0.9147839;3.765354;-0.3688284;-0.8425876;3.039256;-0.9732835;0.3021602;4.853662;-0.3972257;0.6057861;4.777515;-0.3016374;1.072223;3.993003;0.006989717;1.276085;3.21275;-0.490438;-0.1281422;2.782621;0.1962621;-0.1366483;1.338677;-0.0399798;0;0;0;-0.1281422;2.782621;0.1962621;-0.1366483;1.338677;-0.0399798;0;0;0
897031.9491;NotLabelled;16384;-0.2756233;0.2867036;-0.7772663;-0.4875346;45;6;-34;-1076;3938;1209;65536;0.6429965;-0.2202216;0.5886427;0.4376731;-45;-15;75;-407;4794;-883;8192;0.8263105;-0.5138504;-0.2216066;0.06371191;17;23;-15;1130;2749;1797;32768;0.8238634;-0.5110803;0.2354571;-0.06786703;29;33;7;1640;2657;-2338;256;0.5;-0.3171745;-0.6066309;-0.5304709;2;46;23;-1115;3818;589;128;-0.3795014;0.368421;0.6032345;0.5969529;-17;56;-8;459;4043;276;4;-0.09695291;-0.02493075;-0.6897507;-0.7170932;2;37;20;917;3984;-648;16;0.4958449;-0.4722992;0.4806094;0.547801;22;7;-4;-543;4038;-6;2;0.7634909;-0.599723;0;-0.2396122;-82;22;65;-1123;4018;493;8;0.3448753;-0.7409325;0.2936288;0.4958449;-175;142;39;687;3961;2513;0.1871846;2.824255;0.2154964;0.1929424;3.348953;0.06623204;0.1979975;3.809609;-0.06691666;0.09200154;4.513514;-0.2450904;-0.2095416;4.778693;-0.3612763;-0.5290698;4.608522;-0.2659741;-0.9041775;3.762773;-0.3142537;-0.8538674;3.021229;-0.9019431;0.3050009;4.856178;-0.3612784;0.6086717;4.779851;-0.2659773;1.073691;3.990987;0.03356409;1.274976;3.216444;-0.4737386;-0.125074;2.781817;0.2205835;-0.1330549;1.339405;-0.02485724;0;0;0;-0.125074;2.781817;0.2205835;-0.1330549;1.339405;-0.02485724;0;0;0
897053.0978;NotLabelled;16384;-0.2686981;0.2922437;-0.7758842;-0.4903047;43;4;-46;-1496;4138;1535;65536;0.6312813;-0.2243767;0.5955678;0.4432133;-43;-61;68;-1353;4162;-1387;8192;0.8249908;-0.5166205;-0.2216066;0.05817174;22;33;-20;1226;2857;1741;32768;0.8257624;-0.5083103;0.232687;-0.07479224;35;42;1;874;2805;-2246;256;0.4861496;-0.3102493;-0.6141;-0.5387812;2;56;24;-1041;3794;561;128;-0.367036;0.3614958;0.6038781;0.6082242;-14;61;-7;423;4033;166;4;-0.1108033;-0.02077562;-0.6869806;-0.7178779;0;48;22;785;4126;-602;16;0.501385;-0.4695291;0.4819945;0.5439089;20;13;0;-301;4176;168;2;0.7744141;-0.5900277;-0.0235457;-0.2271468;-65;11;74;-1173;3970;467;8;0.3268698;-0.7702824;0.2437673;0.4903047;-141;126;21;797;3469;2099;0.1868675;2.822196;0.2374191;0.1926314;3.347447;0.09011322;0.1976919;3.808598;-0.04131602;0.09379289;4.513614;-0.2162998;-0.207019;4.780285;-0.330958;-0.5269878;4.610751;-0.2359983;-0.8977213;3.761895;-0.2541651;-0.8698288;3.005284;-0.8238657;0.3077752;4.856078;-0.3312635;0.6113104;4.778341;-0.2366726;1.081127;3.987103;0.04879141;1.281179;3.219417;-0.4693053;-0.1253913;2.77974;0.2423351;-0.1345487;1.339403;-0.01496512;0;0;0;-0.1253913;2.77974;0.2423351;-0.1345487;1.339403;-0.01496512;0;0;0
897073.1065;NotLabelled;16384;-0.2590028;0.2977839;-0.775319;-0.4930748;40;-11;-56;-1646;3674;1433;65536;0.6190315;-0.2271468;0.601108;0.4515235;-32;-61;57;-2505;4286;-2097;8192;0.8246663;-0.5180055;-0.2216066;0.04986149;25;43;-25;1086;3061;1789;32768;0.8291889;-0.5041551;0.2271468;-0.08171745;39;55;-5;482;2903;-2108;256;0.4792244;-0.3074792;-0.6172688;-0.5429363;2;55;24;-1027;3772;583;128;-0.3601108;0.3573407;0.6052631;0.6134202;-17;63;-6;353;4021;338;4;-0.1177285;-0.01800554;-0.6869806;-0.7168497;-1;52;22;691;4042;-474;16;0.5041551;-0.468144;0.4833795;0.5413069;21;9;0;-393;4048;184;2;0.7786829;-0.5858725;-0.03601108;-0.2216066;-58;16;81;-1161;4068;527;8;0.3199446;-0.7820286;0.2229917;0.4861496;-121;118;14;735;3181;2027;0.1941535;2.818672;0.2821636;0.1999441;3.34636;0.1438398;0.2050285;3.809685;0.0202966;0.1030276;4.516618;-0.1479416;-0.1971026;4.785224;-0.2598369;-0.5174854;4.615722;-0.1662256;-0.8847119;3.765155;-0.1629722;-0.892638;2.996468;-0.7169156;0.3179076;4.859535;-0.259839;0.6212903;4.780037;-0.166229;1.08974;3.982259;0.1028072;1.276523;3.219764;-0.4277612;-0.1181061;2.776139;0.2862961;-0.132145;1.3397;0.008257672;0;0;0;-0.1181061;2.776139;0.2862961;-0.132145;1.3397;0.008257672;0;0;0
897094.0259;NotLabelled;16384;-0.2368421;0.3060942;-0.7756258;-0.4986149;35;-16;-63;-950;4430;1419;65536;0.601108;-0.2299169;0.6097582;0.4626039;-36;-33;36;-2177;3976;-1541;8192;0.8243243;-0.5193906;-0.2216066;0.0401662;29;49;-28;1114;3083;1921;32768;0.8316526;-0.501385;0.2216066;-0.08864266;43;57;-10;932;3013;-2152;256;0.4736842;-0.3047091;-0.6204677;-0.5457063;2;56;24;-1009;3748;667;128;-0.3531856;0.3531856;0.6066482;0.6184641;-19;64;-6;447;4027;274;4;-0.1260388;-0.01385042;-0.6855956;-0.716855;-2;56;22;673;4000;-446;16;0.5069252;-0.468144;0.4847645;0.5374676;22;18;2;-623;4074;158;2;0.7820188;-0.5831025;-0.04847645;-0.2146814;-54;21;87;-865;3938;695;8;0.3157895;-0.7910309;0.2022161;0.4833795;-100;116;9;521;3029;1853;0.2058095;2.817429;0.3022285;0.2116103;3.346034;0.167455;0.2167037;3.810179;0.04702932;0.1160137;4.51828;-0.1170336;-0.1836571;4.788141;-0.2271239;-0.5043096;4.618756;-0.1342276;-0.8681853;3.767325;-0.1027888;-0.895328;2.986479;-0.6388283;0.3315041;4.861399;-0.2271252;0.6348;4.78074;-0.134229;1.102894;3.977525;0.1187694;1.292488;3.220454;-0.4185257;-0.1064503;2.774869;0.306052;-0.1280494;1.339964;0.02067529;0;0;0;-0.1064503;2.774869;0.306052;-0.1280494;1.339964;0.02067529;0;0;0
897115.8008;NotLabelled;16384;-0.2257618;0.3102493;-0.7763872;-0.5;25;-8;-63;-666;4512;1621;65536;0.5941828;-0.234072;0.6107359;0.468144;-43;-24;29;-2289;3912;-1331;8192;0.8219997;-0.5235457;-0.2229917;0.02216066;29;51;-28;1146;3079;2203;32768;0.8387442;-0.4930748;0.2077562;-0.101108;47;52;-13;882;3333;-2284;256;0.466759;-0.300554;-0.6240638;-0.5498615;4;56;25;-1021;3688;749;128;-0.3462604;0.3490305;0.6080332;0.6233595;-19;64;-6;565;4025;254;4;-0.134349;-0.01108033;-0.6855956;-0.7153924;-2;58;22;645;4028;-524;16;0.5096953;-0.468144;0.4847645;0.5348414;25;16;2;-269;4072;158;2;0.7858741;-0.5789474;-0.06371191;-0.2077562;-51;21;94;-751;3790;869;8;0.3130194;-0.7985038;0.1828255;0.4806094;-77;109;8;613;2765;1791;0.2148159;2.816151;0.3215114;0.2206262;3.345625;0.1901889;0.2257281;3.810544;0.0727933;0.1263488;4.519292;-0.08926868;-0.1728404;4.790039;-0.1984931;-0.493785;4.621019;-0.1059396;-0.8509727;3.769943;-0.0258311;-0.9002762;2.973453;-0.536682;0.3424619;4.862296;-0.1984947;0.6456368;4.780792;-0.105942;1.11131;3.971564;0.1319121;1.302663;3.218556;-0.4104434;-0.09744422;2.773568;0.325035;-0.1205543;1.340463;0.03086691;0;0;0;-0.09744422;2.773568;0.325035;-0.1205543;1.340463;0.03086691;0;0;0
897136.9564;NotLabelled;16384;-0.2160665;0.3157895;-0.7778017;-0.4986149;19;7;-61;-576;4322;1503;65536;0.5886427;-0.2382271;0.6112947;0.4722992;-48;-9;22;-2681;3816;-1547;8192;0.821827;-0.5235457;-0.2243767;0.01246537;29;46;-25;1174;2999;2351;32768;0.8426415;-0.4875346;0.2022161;-0.1066482;46;54;-13;660;3293;-2256;256;0.4584487;-0.2977839;-0.6278655;-0.5540166;5;54;25;-1209;3682;761;128;-0.3393352;0.3448753;0.6080332;0.6294507;-18;62;-8;593;3973;216;4;-0.1426593;-0.005540166;-0.6855956;-0.7138462;-3;63;22;647;4042;-374;16;0.5124654;-0.466759;0.4861496;0.5321409;25;14;3;-295;4200;106;2;0.7873093;-0.5775623;-0.07894737;-0.200831;-43;27;99;-683;3856;803;8;0.3116343;-0.8051405;0.166205;0.4764543;-54;98;8;949;2551;1761;0.2279082;2.814055;0.3400882;0.2337275;3.344348;0.2121172;0.2388374;3.810002;0.09766436;0.1398543;4.51949;-0.06136312;-0.1592114;4.790899;-0.1692744;-0.4802186;4.621714;-0.07724196;-0.8342249;3.772497;0.03156519;-0.893976;2.967077;-0.4639403;0.3561409;4.862801;-0.1692759;0.6593134;4.780699;-0.0772444;1.114502;3.959582;0.1391904;1.323388;3.215624;-0.4091535;-0.08435218;2.77145;0.3433208;-0.1172419;1.340527;0.03961532;0;0;0;-0.08435218;2.77145;0.3433208;-0.1172419;1.340527;0.03961532;0;0;0
897158.051;NotLabelled;16384;-0.2091413;0.3213296;-0.7774255;-0.4986149;19;24;-57;-628;4050;1263;65536;0.5844875;-0.2437673;0.6098714;0.4764543;-48;2;15;-2749;3564;-1789;8192;0.821019;-0.5249307;-0.2243767;0.005540166;27;42;-23;1266;3095;2479;32768;0.844965;-0.4847645;0.1952908;-0.1135734;44;56;-14;530;3341;-2194;256;0.4459834;-0.2922437;-0.6332746;-0.5609418;9;47;25;-1173;3640;761;128;-0.3254848;0.3365651;0.6121883;0.6371884;-18;58;-10;619;3929;182;4;-0.1620499;0.002770083;-0.6842105;-0.7110472;-6;68;22;519;4026;-392;16;0.5180055;-0.466759;0.4889196;0.5241792;30;25;6;-335;4162;166;2;0.7883844;-0.5761772;-0.09418282;-0.1939058;-40;28;104;-525;3852;763;8;0.3130194;-0.8092282;0.1509695;0.4736842;-34;89;2;1041;2737;1739;0.2412542;2.813064;0.3568123;0.2470866;3.344549;0.2338845;0.2522083;3.811268;0.1238604;0.1560582;4.522125;-0.03073779;-0.1419602;4.795435;-0.1367309;-0.4635952;4.627031;-0.04546207;-0.8177254;3.781861;0.09095025;-0.8874978;2.968955;-0.3908308;0.3736877;4.865184;-0.136732;0.6765906;4.781257;-0.0454632;1.131854;3.956162;0.1551059;1.344226;3.21847;-0.4003184;-0.07100642;2.770431;0.3596075;-0.1118594;1.340567;0.05190839;0;0;0;-0.07100642;2.770431;0.3596075;-0.1118594;1.340567;0.05190839;0;0;0
897178.9955;NotLabelled;16384;-0.2049861;0.3296399;-0.7750493;-0.4986149;16;34;-49;-696;3936;969;65536;0.5817174;-0.2493075;0.6070133;0.4806094;-45;5;11;-2459;3334;-1781;8192;0.8197691;-0.5263157;-0.2257618;-0.001385042;25;40;-23;1412;3045;2541;32768;0.8483354;-0.4806094;0.1883656;-0.1177285;38;51;-13;506;3337;-2162;256;0.4404432;-0.2894737;-0.6359589;-0.5637119;10;45;25;-1101;3604;839;128;-0.3199446;0.33241;0.6135734;0.6408328;-18;58;-10;661;3977;76;4;-0.1717452;0.006925208;-0.6842105;-0.7087395;-7;71;24;505;4008;-376;16;0.5242525;-0.466759;0.4903047;0.5166205;31;22;7;-333;4108;56;2;0.789142;-0.5734072;-0.1246537;-0.1814404;-28;43;99;-755;3722;835;8;0.3213296;-0.813813;0.1288089;0.466759;5;69;0;879;3291;1173;0.2726091;2.808666;0.3964117;0.2784524;3.341151;0.2778889;0.2835838;3.808764;0.1717331;0.1900048;4.521382;0.02380532;-0.1070792;4.796807;-0.07929583;-0.4292544;4.628814;0.01081955;-0.7771008;3.785903;0.1746292;-0.8581201;2.965209;-0.2919484;0.408835;4.864558;-0.07929742;0.7115204;4.778622;0.01081741;1.167262;3.949155;0.1912552;1.3729;3.214914;-0.3712325;-0.03965189;2.766011;0.3988255;-0.09439833;1.341018;0.07132498;0;0;0;-0.03965189;2.766011;0.3988255;-0.09439833;1.341018;0.07132498;0;0;0
897200.1313;NotLabelled;16384;-0.199446;0.3421052;-0.7719765;-0.4972299;13;34;-34;-696;3700;675;65536;0.5789474;-0.2548476;0.6006914;0.4889196;-39;4;6;-2101;3100;-1631;8192;0.8197411;-0.5263157;-0.2257618;-0.006925208;22;36;-20;1302;3123;2499;32768;0.8508192;-0.4778393;0.1814404;-0.1218837;32;43;-12;490;3321;-2088;256;0.433518;-0.2867036;-0.6395009;-0.566482;7;42;25;-1109;3672;917;128;-0.3130194;0.3282548;0.6149584;0.6450533;-17;57;-10;557;3965;8;4;-0.1814404;0.01246537;-0.6842105;-0.7062436;-9;75;25;507;4034;-410;16;0.5270261;-0.466759;0.4916897;0.5124654;34;28;9;-397;4112;22;2;0.788225;-0.5720221;-0.1398892;-0.1786704;-20;47;94;-965;3652;771;8;0.3282548;-0.8132801;0.1246537;0.4639889;23;41;-1;1043;3253;1105;0.2954486;2.806048;0.4226882;0.3012968;3.338974;0.3061683;0.3064325;3.806984;0.2017712;0.214103;4.520229;0.0561045;-0.08251632;4.79652;-0.0460155;-0.404963;4.628839;0.04370785;-0.7468102;3.787449;0.226833;-0.8273752;2.95973;-0.2272447;0.4335215;4.863324;-0.04601741;0.7360849;4.776552;0.04370487;1.188303;3.943163;0.2146918;1.400168;3.212499;-0.3501366;-0.01681241;2.763384;0.4249288;-0.08126794;1.340845;0.08864541;0;0;0;-0.01681241;2.763384;0.4249288;-0.08126794;1.340845;0.08864541;0;0;0
897220.9491;NotLabelled;16384;-0.1966759;0.3476454;-0.7702101;-0.4972299;11;33;-27;-592;3626;577;65536;0.5775623;-0.2562327;0.5991725;0.4916897;-33;3;5;-2127;2986;-1615;8192;0.8192191;-0.5263157;-0.2271468;-0.0166205;14;24;-14;1428;3119;2411;32768;0.8540564;-0.4736842;0.1731302;-0.1274238;24;30;-10;752;3427;-2300;256;0.4279778;-0.2853186;-0.6413894;-0.5692521;7;40;24;-1009;3686;885;128;-0.3074792;0.3240997;0.6163435;0.648488;-12;53;-10;593;3843;30;4;-0.1925208;0.01939058;-0.6842105;-0.7031471;-10;80;29;471;3930;-354;16;0.5310745;-0.466759;0.4930748;0.5069252;36;41;12;-431;4104;-78;2;0.7859937;-0.5720221;-0.1551246;-0.1759003;-11;49;87;-847;3310;919;8;0.333795;-0.8120242;0.1232687;0.4626039;37;22;0;1161;3217;867;0.3149658;2.804111;0.4380332;0.3208208;3.337656;0.3243763;0.3259627;3.806219;0.2224939;0.2363892;4.52029;0.07917038;-0.059179;4.798077;-0.02193275;-0.3822485;4.631381;0.06738314;-0.7176247;3.793601;0.2770932;-0.7889081;2.957411;-0.1627956;0.4571183;4.862845;-0.02193439;0.7593732;4.774591;0.06738073;1.211907;3.93881;0.2253633;1.426167;3.210233;-0.3412558;0.00270471;2.761436;0.4400262;-0.07147159;1.340756;0.09793661;0;0;0;0.00270471;2.761436;0.4400262;-0.07147159;1.340756;0.09793661;0;0;0
897240.97;NotLabelled;16384;-0.1952908;0.3531856;-0.768039;-0.4972299;9;28;-22;-590;3444;505;65536;0.5761772;-0.2576177;0.5976307;0.4944598;-28;4;4;-2125;2924;-1671;8192;0.8187729;-0.5263157;-0.2285319;-0.01939058;10;22;-12;1638;3055;2329;32768;0.8554468;-0.4722992;0.1689751;-0.1288089;22;23;-8;742;3387;-2252;256;0.4224377;-0.2839335;-0.6432098;-0.5720221;8;38;24;-913;3592;779;128;-0.301939;0.3199446;0.6177285;0.651828;-10;51;-9;597;3887;-38;4;-0.2036011;0.02493075;-0.6842105;-0.6998436;-12;81;33;345;4142;-342;16;0.5364726;-0.4695291;0.4930748;0.4986149;38;48;14;-123;4084;-42;2;0.7824296;-0.5734072;-0.1689751;-0.1745152;0;55;82;-533;3216;797;8;0.3393352;-0.8100883;0.1260388;0.4612188;48;-11;2;1159;3275;835;0.3348629;2.801868;0.4557528;0.3407221;3.335803;0.3439475;0.3458678;3.804717;0.2436908;0.2585216;4.519765;0.1039048;-0.03620566;4.798996;0.004337888;-0.3597599;4.632911;0.09303766;-0.6897789;3.796502;0.316281;-0.7619056;2.957728;-0.1185199;0.4802985;4.862092;0.004336178;0.7823192;4.772426;0.09303516;1.231896;3.932899;0.2391443;1.454524;3.208013;-0.3289814;0.02260177;2.759186;0.457586;-0.06022595;1.3404;0.1096699;0;0;0;0.02260177;2.759186;0.457586;-0.06022595;1.3404;0.1096699;0;0;0
897261.9309;NotLabelled;16384;-0.1939058;0.3573407;-0.7664663;-0.4972299;5;25;-16;-730;3420;351;65536;0.5761772;-0.2590028;0.5947267;0.4972299;-20;7;2;-2143;2834;-1843;8192;0.8192038;-0.5249307;-0.2299169;-0.02216066;7;26;-10;1572;2985;2243;32768;0.8575119;-0.4695291;0.166205;-0.1288089;19;20;-6;590;3295;-2214;256;0.4168975;-0.2811634;-0.6467981;-0.5734072;8;40;23;-885;3520;855;128;-0.2963989;0.3157895;0.6191136;0.6550749;-12;48;-9;687;3869;-10;4;-0.2257618;0.03462604;-0.6842105;-0.6925956;-17;75;35;63;3954;-268;16;0.5465547;-0.4709141;0.4958449;0.4833795;44;35;14;-255;4032;10;2;0.7782887;-0.5747922;-0.1828255;-0.1745152;9;61;75;-239;3112;839;8;0.3448753;-0.8069636;0.1357341;0.4598338;60;-32;1;1347;3285;1283;0.3593669;2.798941;0.4736422;0.3652303;3.333247;0.3636202;0.3703796;3.802493;0.2649297;0.2852754;4.518498;0.1287056;-0.008601142;4.799169;0.03068617;-0.3326415;4.633703;0.118764;-0.6569239;3.798187;0.3534672;-0.7297014;2.956873;-0.07628912;0.5081053;4.860589;0.03068453;0.8098849;4.769508;0.1187616;1.259773;3.929165;0.2591172;1.482465;3.204718;-0.309541;0.04710561;2.756253;0.4753214;-0.04601339;1.340153;0.1191672;0;0;0;0.04710561;2.756253;0.4753214;-0.04601339;1.340153;0.1191672;0;0;0
897281.9457;NotLabelled;16384;-0.1939058;0.3614958;-0.7654144;-0.4958449;1;18;-10;-796;3392;379;65536;0.5775623;-0.2590028;0.5922182;0.4986149;-14;8;2;-2043;2796;-1669;8192;0.8187342;-0.5249307;-0.2313019;-0.02493075;3;29;-7;1578;2951;2179;32768;0.8585917;-0.468144;0.1634349;-0.1301939;18;21;-4;534;3259;-2026;256;0.4072022;-0.2770083;-0.6510565;-0.5775623;3;39;19;-1005;3452;959;128;-0.2867036;0.3088643;0.6218836;0.660049;-14;51;-7;651;3719;-56;4;-0.2354571;0.03878116;-0.6842105;-0.6891386;-19;68;36;75;3818;-216;16;0.5513562;-0.4709141;0.4972299;0.4764543;47;34;14;-559;3996;-114;2;0.7689838;-0.5775623;-0.2077562;-0.1786704;20;64;53;-879;3028;881;8;0.3614958;-0.795301;0.1592798;0.4598338;83;-46;-11;411;3925;-37;0.4069209;2.790619;0.5190134;0.4127879;3.325275;0.4107067;0.4179407;3.794835;0.3135228;0.3354575;4.511164;0.1773881;0.0426094;4.792922;0.07940765;-0.2820335;4.628632;0.1674699;-0.6006638;3.793985;0.4127607;-0.6720908;2.950758;-0.01345867;0.5595374;4.852448;0.07940596;0.8609827;4.760252;0.1674674;1.313994;3.920366;0.3003075;1.536691;3.197894;-0.2708583;0.09465937;2.747926;0.5205446;-0.01751086;1.338315;0.1446802;0;0;0;0.09465937;2.747926;0.5205446;-0.01751086;1.338315;0.1446802;0;0;0
897303.1376;NotLabelled;16384;-0.1939058;0.3642659;-0.764997;-0.4944598;-3;9;0;-644;3238;407;65536;0.5789474;-0.2603878;0.5902553;0.4986149;-4;6;0;-1779;2702;-1263;8192;0.8191394;-0.5235457;-0.232687;-0.02770083;1;28;-6;1502;2891;2115;32768;0.8589033;-0.468144;0.1606648;-0.1315789;16;20;-3;598;3201;-1968;256;0.4016621;-0.2742382;-0.6532038;-0.5803324;0;40;18;-905;3422;967;128;-0.2811634;0.3047091;0.6232687;0.6630502;-10;54;-5;571;3665;-322;4;-0.2451524;0.04293629;-0.6855019;-0.6842105;-22;57;36;229;3764;-310;16;0.5560265;-0.4709141;0.4986149;0.4695291;52;48;15;-801;4008;-352;2;0.7635499;-0.5803324;-0.2174515;-0.1814404;28;50;44;-635;2892;801;8;0.3711911;-0.7869816;0.1772853;0.4598338;98;-76;-14;1613;3473;103;0.4383198;2.786168;0.5388617;0.4441922;3.3213;0.43293;0.4493496;3.791287;0.337832;0.3701221;4.508686;0.2054496;0.07850876;4.792328;0.1092391;-0.2468141;4.629133;0.1968268;-0.5533192;3.797079;0.4652861;-0.6292935;2.953981;0.03959733;0.5957134;4.849398;0.1089591;0.8968139;4.755324;0.1962091;1.354393;3.915164;0.3103459;1.568424;3.193738;-0.2654357;0.1260584;2.743469;0.5401881;-0.001879975;1.336935;0.1578906;0;0;0;0.1260584;2.743469;0.5401881;-0.001879975;1.336935;0.1578906;0;0;0
897323.9495;NotLabelled;16384;-0.1952908;0.3642659;-0.7646446;-0.4944598;-6;14;7;-586;3202;379;65536;0.5789474;-0.2617728;0.5896423;0.4986149;-1;7;-1;-1801;2682;-1199;8192;0.8199621;-0.5207756;-0.2354571;-0.03185596;0;24;-4;1484;2725;1881;32768;0.8600194;-0.4653739;0.1592798;-0.1357341;10;21;0;642;2949;-1604;256;0.3975069;-0.2728532;-0.655091;-0.5817174;-1;41;17;-817;3340;957;128;-0.2756233;0.299169;0.6246537;0.6665865;-9;56;-5;543;3671;-226;4;-0.2548476;0.04432133;-0.6860124;-0.6800554;-23;57;37;575;3490;-322;16;0.5640709;-0.4709141;0.4986149;0.4598338;54;65;18;-811;3936;-126;2;0.7584352;-0.5844875;-0.2229917;-0.1828255;40;37;35;-389;2806;923;8;0.3795014;-0.776014;0.199446;0.4626039;106;-105;-17;1433;3629;-117;0.4697347;2.781373;0.5571716;0.4756104;3.316804;0.452765;0.4807708;3.78706;0.3590065;0.4028249;4.50505;0.2290877;0.111726;4.789534;0.1338104;-0.2138974;4.626609;0.2207832;-0.5246535;3.794759;0.4849498;-0.6027979;2.951316;0.06033772;0.6290302;4.845695;0.133809;0.9299505;4.750793;0.2207813;1.387303;3.910539;0.3351337;1.59665;3.188575;-0.2416945;0.1574732;2.73867;0.5583665;0.01247317;1.335336;0.1704395;0;0;0;0.1574732;2.73867;0.5583665;0.01247317;1.335336;0.1704395;0;0;0
897343.9583;NotLabelled;16384;-0.1980609;0.365651;-0.7641652;-0.4930748;-9;19;14;-616;3234;355;65536;0.5803324;-0.2617728;0.5894503;0.4972299;0;13;-1;-1941;2666;-1161;8192;0.820728;-0.5193906;-0.2354571;-0.03462604;0;23;-5;1494;2673;1835;32768;0.8598331;-0.4653739;0.1578947;-0.1385041;8;22;2;550;2879;-1584;256;0.3919668;-0.2700831;-0.6583378;-0.5831025;-2;44;17;-869;3274;977;128;-0.2686981;0.2950138;0.6274238;0.668661;-2;59;-5;489;3617;-306;4;-0.265928;0.04570637;-0.6871845;-0.6745152;-23;73;41;913;3636;-136;16;0.569424;-0.4736842;0.5;0.4487534;56;68;22;-271;4106;-324;2;0.7517944;-0.5900277;-0.2285319;-0.1855956;51;40;25;-447;2822;1251;8;0.3864266;-0.7669255;0.2202216;0.4626039;92;-76;0;1445;2827;2031;0.4989511;2.773491;0.5887783;0.5048298;3.309204;0.4858278;0.5099931;3.779713;0.3933481;0.4341475;4.498161;0.2647275;0.1438736;4.783676;0.1700151;-0.182214;4.62156;0.2567601;-0.4905005;3.789097;0.5218894;-0.5716108;2.944714;0.09970891;0.6613415;4.838306;0.1700135;0.9619963;4.742358;0.2567576;1.423425;3.903591;0.3655217;1.631551;3.186062;-0.2172489;0.1866896;2.730785;0.5898479;0.02651715;1.332519;0.1897778;0;0;0;0.1866896;2.730785;0.5898479;0.02651715;1.332519;0.1897778;0;0;0
897363.9598;NotLabelled;16384;-0.2022161;0.365651;-0.7630762;-0.4930748;-16;29;22;-578;3344;317;65536;0.5817174;-0.2631579;0.5886346;0.4958449;1;23;-2;-1835;2838;-1107;8192;0.8205422;-0.5193906;-0.2354571;-0.03878116;2;24;-8;1486;2701;1715;32768;0.8596357;-0.4653739;0.1565097;-0.1412742;6;25;3;642;2925;-1568;256;0.3864266;-0.265928;-0.6620659;-0.5844875;-4;45;17;-887;3282;1029;128;-0.2631579;0.2894737;0.6301939;0.6706777;0;62;-5;549;3637;-424;4;-0.2783934;0.04847645;-0.6861228;-0.6703601;-26;86;46;789;3862;-182;16;0.5768461;-0.4750692;0.5;0.4376731;56;66;23;67;4014;-266;2;0.7458356;-0.5941828;-0.232687;-0.1911357;51;46;10;-763;3166;1203;8;0.3919668;-0.765002;0.2285319;0.4570637;56;43;50;1567;2295;5001;0.5429578;2.765031;0.6118333;0.5488372;3.300806;0.509208;0.5540011;3.771371;0.4170139;0.4806691;4.490117;0.2886013;0.1913944;4.776674;0.1939794;-0.1352566;4.615676;0.2806877;-0.4421724;3.783235;0.5474711;-0.5298754;2.939894;0.124528;0.7090507;4.829491;0.1939778;1.00937;4.732465;0.2806855;1.473284;3.893849;0.3795842;1.673943;3.176955;-0.206579;0.2306964;2.722324;0.6128749;0.04913908;1.330352;0.2001905;0;0;0;0.2306964;2.722324;0.6128749;0.04913908;1.330352;0.2001905;0;0;0
897384.9556;NotLabelled;16384;-0.2091413;0.367036;-0.7623292;-0.4903047;-26;38;28;-618;3484;371;65536;0.5844875;-0.265928;0.5869702;0.4930748;1;35;-1;-1681;3046;-1149;8192;0.8212818;-0.5180055;-0.2354571;-0.04155125;4;25;-10;1408;2687;1641;32768;0.8599424;-0.4639889;0.1551246;-0.1454294;7;26;1;604;3049;-1522;256;0.3753462;-0.2590028;-0.6687012;-0.5872576;-7;49;19;-817;3644;1099;128;-0.2534626;0.2783934;0.6398892;0.6699222;27;48;-10;175;3973;-300;4;-0.3047091;0.05817174;-0.6862528;-0.6578947;-25;89;47;357;4014;428;16;0.585201;-0.4764543;0.5055401;0.4182825;56;17;22;631;4124;-234;2;0.7405596;-0.5969529;-0.2354571;-0.199446;38;57;-8;-1273;3846;1425;8;0.3864266;-0.7694227;0.234072;0.4515235;-42;-56;67;-635;5571;4189;0.5760262;2.755216;0.6426688;0.5819044;3.29088;0.5394666;0.5870672;3.761346;0.4467658;0.5151406;4.480076;0.3174699;0.2264371;4.76707;0.2224328;-0.1005419;4.606803;0.3092557;-0.3996334;3.772255;0.5783349;-0.4935628;2.929013;0.1565312;0.7441934;4.818899;0.2224934;1.044306;4.721403;0.3093907;1.508611;3.880987;0.3893723;1.70073;3.164726;-0.2004142;0.2637646;2.712511;0.64376;0.06782871;1.327052;0.2160054;0;0;0;0.2637646;2.712511;0.64376;0.06782871;1.327052;0.2160054;0;0;0
897406.1159;NotLabelled;16384;-0.2285319;0.3698061;-0.7580734;-0.4861496;-36;49;40;-894;4130;633;65536;0.5936531;-0.2728532;0.5803324;0.4861496;0;50;4;-1515;3772;-1329;8192;0.821061;-0.5180055;-0.2354571;-0.04570637;10;28;-13;1404;2941;1629;32768;0.8597182;-0.4639889;0.1537396;-0.1481994;6;30;-2;466;3207;-1450;256;0.3698061;-0.2548476;-0.6733681;-0.5872576;-6;44;22;-757;3998;1041;128;-0.2506925;0.2756233;0.6454294;0.6667878;32;22;-16;-321;4411;-112;4;-0.3157895;0.06232687;-0.6874817;-0.6509695;-30;73;47;145;3982;404;16;0.5863341;-0.4736842;0.5124654;0.4113573;55;-13;21;701;4212;-374;2;0.732687;-0.599723;-0.2396122;-0.2146814;26;51;3;573;6024;963;8;0.4072022;-0.771452;0.2437673;0.4238227;110;56;64;1847;3211;1737;0.6592532;2.735799;0.6851912;0.6651142;3.269896;0.5741613;0.6702615;3.738955;0.4745857;0.6020411;4.457956;0.3447895;0.3148186;4.746371;0.2495658;-0.01297913;4.587856;0.3365175;-0.31404;3.752957;0.6022914;-0.4196076;2.909911;0.1828557;0.8328356;4.795525;0.2495639;1.132445;4.696541;0.3365145;1.598716;3.8564;0.4074317;1.775383;3.142975;-0.1905663;0.3469919;2.693114;0.6869574;0.1145303;1.320057;0.2380347;0;0;0;0.3469919;2.693114;0.6869574;0.1145303;1.320057;0.2380347;0;0;0
897425.9342;NotLabelled;16384;-0.2396122;0.3698061;-0.7564216;-0.4833795;-37;53;49;-1146;4720;729;65536;0.5969352;-0.2783934;0.5789474;0.4806094;1;54;11;-1593;4534;-1431;8192;0.8178116;-0.5207756;-0.2382271;-0.0567867;21;47;-18;1176;3849;1585;32768;0.858442;-0.466759;0.1454294;-0.1551246;2;46;-21;266;3613;-1174;256;0.3642659;-0.2520775;-0.6762152;-0.5886427;-4;33;28;-539;4660;733;128;-0.2506925;0.2756233;0.6495845;0.6627406;34;1;-17;-537;5251;26;4;-0.3254848;0.06371191;-0.6880562;-0.6454294;-32;47;46;3;4148;538;16;0.5855189;-0.4695291;0.5193906;0.4085872;53;-39;18;103;4304;-450;2;0.7269951;-0.599723;-0.2479224;-0.2243767;26;106;12;-583;6226;499;8;0.4141274;-0.7743646;0.2465374;0.4099723;44;30;59;-515;7481;1845;0.7090477;2.725261;0.7011658;0.7148943;3.25805;0.5840224;0.7200288;3.725937;0.479078;0.6542639;4.444599;0.3461754;0.3680448;4.733562;0.2496002;0.03968465;4.576517;0.3370965;-0.2659293;3.736957;0.5821816;-0.37175;2.895319;0.1599912;0.8862233;4.780983;0.2495986;1.185466;4.681373;0.3370943;1.650286;3.839562;0.3968561;1.818308;3.12676;-0.2043667;0.3967867;2.682599;0.7034602;0.1423386;1.315381;0.2486747;0;0;0;0.3967867;2.682599;0.7034602;0.1423386;1.315381;0.2486747;0;0;0
897447.0798;NotLabelled;16384;-0.2506925;0.3711911;-0.7547943;-0.4792244;-31;49;54;-1386;5074;1023;65536;0.5987578;-0.2839335;0.5789474;0.4750692;6;48;17;-1475;5094;-1583;8192;0.8159024;-0.5221606;-0.2396122;-0.06509695;28;56;-17;706;4351;1431;32768;0.8570341;-0.4709141;0.1371191;-0.1578947;0;57;-38;474;3821;-1000;256;0.3587258;-0.2520775;-0.6791705;-0.5886427;-4;23;32;-163;5390;507;128;-0.2506925;0.2770083;0.6537396;0.658061;31;-7;-16;-825;5739;168;4;-0.33241;0.06232687;-0.6887571;-0.6412742;-30;12;47;361;4388;862;16;0.5846927;-0.4612188;0.5277008;0.4085872;50;-41;14;-1049;4532;-354;2;0.7202882;-0.5983379;-0.2590028;-0.2368421;28;118;8;-2251;5500;-793;8;0.4252077;-0.7755677;0.2465374;0.3961219;78;66;47;1131;5945;1059;0.7498463;2.714466;0.7170017;0.755679;3.245964;0.5941276;0.7608007;3.712694;0.4841506;0.6973412;4.431631;0.3516174;0.4120485;4.721562;0.2552029;0.08318903;4.565529;0.3426345;-0.2256499;3.72374;0.5757443;-0.3392829;2.881493;0.1568131;0.9303768;4.767317;0.2552012;1.229302;4.6667;0.3426322;1.683263;3.81845;0.3942806;1.847232;3.10184;-0.2035229;0.4375857;2.671832;0.7197922;0.1635006;1.311587;0.2556049;0;0;0;0.4375857;2.671832;0.7197922;0.1635006;1.311587;0.2556049;0;0;0
897468.0976;NotLabelled;16384;-0.2617728;0.3711911;-0.7519054;-0.4778393;-18;44;52;-1606;5144;1471;65536;0.6004646;-0.2867036;0.5803324;0.4695291;11;29;21;-1417;5414;-1635;8192;0.8137729;-0.5235457;-0.2409972;-0.07479224;35;58;-13;328;4553;1301;32768;0.8551564;-0.4764543;0.1260388;-0.1606648;0;70;-57;552;4093;-1018;256;0.3531856;-0.2534626;-0.6827482;-0.5872576;-5;25;36;153;5504;441;128;-0.2506925;0.2783934;0.6574762;0.6537396;17;-1;-16;-785;5749;602;4;-0.3365651;0.05401662;-0.6887293;-0.6398892;-20;-21;49;953;4590;1262;16;0.5859381;-0.4556787;0.533241;0.4058172;44;-11;13;-1705;5046;390;2;0.713361;-0.599723;-0.2645429;-0.2479224;49;68;-10;-3215;4552;101;8;0.432133;-0.7757457;0.2493075;0.3864266;52;10;50;593;5685;87;0.7847686;2.702341;0.7399366;0.7905861;3.232476;0.6113114;0.7956945;3.697988;0.4962843;0.7380164;4.417428;0.3638405;0.4550633;4.709656;0.2674648;0.1249607;4.556261;0.3548808;-0.189688;3.713501;0.5764234;-0.3119653;2.870085;0.1623065;0.9737427;4.751242;0.2674631;1.27185;4.648213;0.3548784;1.7186;3.79572;0.3989706;1.880773;3.071882;-0.1905606;0.4725083;2.65974;0.7432259;0.1810195;1.306602;0.2689783;0;0;0;0.4725083;2.65974;0.7432259;0.1810195;1.306602;0.2689783;0;0;0
897488.0485;NotLabelled;16384;-0.2714681;0.3725762;-0.7468842;-0.4792244;0;41;48;-1828;4888;2023;65536;0.5992767;-0.2880886;0.5831025;0.466759;15;3;20;-1133;5334;-1623;8192;0.8107629;-0.5263157;-0.2423823;-0.08310249;41;50;-7;38;5025;1061;32768;0.854235;-0.4806094;0.1121884;-0.1634349;-2;79;-78;770;4465;-996;256;0.3407202;-0.2520775;-0.6907387;-0.5858725;-11;31;36;991;5212;359;128;-0.2423823;0.2797784;0.6551247;0.6586248;-24;33;-19;-1749;4821;1792;4;-0.3379501;0.03739612;-0.6865714;-0.6426592;-5;-39;28;2885;4774;1936;16;0.5874699;-0.4487534;0.5415512;0.400277;29;-42;2;709;4658;928;2;0.7070621;-0.602493;-0.2645429;-0.2590028;60;43;-28;-2845;3720;-233;8;0.4362881;-0.7741218;0.2576177;0.3795014;47;-24;42;1075;4611;865;0.8173447;2.686961;0.7708783;0.8231481;3.21581;0.6370621;0.8282439;3.680171;0.5174767;0.7786621;4.399982;0.3837774;0.499019;4.695201;0.2868557;0.1672047;4.545673;0.3744914;-0.149048;3.699784;0.5813353;-0.2816767;2.857142;0.1688298;1.018133;4.730961;0.2868543;1.315054;4.624744;0.3744898;1.753396;3.767551;0.4112407;1.916514;3.033759;-0.165585;0.5050846;2.644394;0.7746187;0.197219;1.301527;0.2818869;0;0;0;0.5050846;2.644394;0.7746187;0.197219;1.301527;0.2818869;0;0;0
897508.0845;NotLabelled;16384;-0.2839335;0.3739612;-0.7379283;-0.4847645;20;29;38;-1962;4378;3051;65536;0.5965382;-0.2853186;0.5872576;0.466759;2;-21;2;-1681;4584;-1873;8192;0.8064713;-0.5304709;-0.2451524;-0.0900277;41;41;-2;-72;5399;977;32768;0.8532564;-0.4847645;0.09418282;-0.16759;-2;83;-99;1002;4739;-1082;256;0.333795;-0.2506925;-0.6946132;-0.5858725;-3;40;34;1605;4860;-263;128;-0.2354571;0.2811634;0.6537396;0.6619151;-39;26;-25;-1725;4495;1282;4;-0.33518;0.03185596;-0.6869108;-0.6440443;-4;-21;7;3969;3846;2150;16;0.5850682;-0.4418283;0.5457063;0.4058172;14;-46;-10;-511;4142;-652;2;0.6980472;-0.6066482;-0.2562327;-0.2811634;34;37;-42;-877;4766;-69;8;0.4404432;-0.7718982;0.2728532;0.368421;37;0;50;-123;4379;2137;0.8698978;2.664244;0.8102221;0.8757218;3.194963;0.6840302;0.880836;3.660997;0.5711397;0.8440722;4.380962;0.4341664;0.5697367;4.680655;0.3358214;0.2352997;4.537442;0.4240301;-0.07263917;3.686716;0.6234546;-0.2220524;2.843744;0.2174141;1.089403;4.707194;0.3358198;1.384372;4.596123;0.4240278;1.812929;3.733577;0.4491191;1.973661;2.990263;-0.1160686;0.5576373;2.621628;0.8133002;0.2282432;1.293454;0.2953116;0;0;0;0.5576373;2.621628;0.8133002;0.2282432;1.293454;0.2953116;0;0;0
897529.9724;NotLabelled;16384;-0.2880886;0.3753462;-0.733778;-0.4875346;17;32;32;-1624;4254;3359;65536;0.5950233;-0.2839335;0.5872576;0.4695291;-11;1;-12;-1939;4178;-2237;8192;0.7986575;-0.5373961;-0.2506925;-0.1024931;40;57;11;-30;5147;805;32768;0.8509917;-0.4944598;0.05263158;-0.1689751;0;88;-136;1010;5043;-876;256;0.3268698;-0.2493075;-0.6972305;-0.5872576;2;54;32;1379;4714;-595;128;-0.2299169;0.2825485;0.6523545;0.6646339;-26;15;-29;-1423;4835;1036;4;-0.3365651;0.03047091;-0.6875933;-0.6426592;-11;16;4;4741;3460;2176;16;0.5838554;-0.4404432;0.5470914;0.4072022;3;14;-3;513;4920;-1706;2;0.6945731;-0.6066482;-0.2548476;-0.2908587;23;46;-33;-989;5446;67;8;0.4432133;-0.7733979;0.2770083;0.3587258;36;22;46;-353;5175;2281;0.8837087;2.660765;0.8124835;0.8895465;3.192754;0.691752;0.8946731;3.659923;0.5836564;0.8637881;4.379979;0.4457124;0.5919107;4.681766;0.3469458;0.2563123;4.541401;0.4353241;-0.03631845;3.681724;0.6187679;-0.198699;2.839703;0.2157441;1.111777;4.704068;0.3469441;1.405824;4.590713;0.4353218;1.82272;3.722383;0.4571714;1.991021;2.968408;-0.09144855;0.571448;2.61812;0.8150886;0.2314732;1.292261;0.2980069;0;0;0;0.571448;2.61812;0.8150886;0.2314732;1.292261;0.2980069;0;0;0
897550.9496;NotLabelled;16384;-0.2936288;0.3781163;-0.7292241;-0.4889196;7;49;31;-1238;4276;3269;65536;0.597775;-0.2867036;0.5831025;0.4695291;-25;39;-26;-2061;4048;-2655;8192;0.7934584;-0.5401662;-0.2576177;-0.1108033;47;74;23;-226;5057;873;32768;0.8494664;-0.4986149;0.02770083;-0.1703601;1;102;-154;940;5245;-642;256;0.3185596;-0.2465374;-0.7008844;-0.5886427;0;43;29;863;5082;-467;128;-0.2257618;0.2853186;0.6537396;0.663513;6;6;-26;-1367;4993;758;4;-0.3407202;0.03185596;-0.6880674;-0.6398892;-9;39;16;4267;3838;1858;16;0.5868279;-0.4445983;0.5415512;0.4058172;-42;41;-9;-917;3090;1610;2;0.6928449;-0.6052631;-0.2548476;-0.2977839;19;44;-25;-1265;5098;-441;8;0.4459834;-0.7739892;0.2797784;0.3518005;29;-5;37;443;4973;2393;0.9016042;2.657984;0.8076137;0.9074537;3.191016;0.6915753;0.9125906;3.659119;0.5876013;0.8864455;4.379631;0.4510629;0.6165575;4.683396;0.3529068;0.2800468;4.545077;0.4410393;-0.003191203;3.681746;0.6220518;-0.1686908;2.839023;0.2217727;1.136559;4.702269;0.3529055;1.429859;4.586805;0.4410375;1.826151;3.708886;0.4630631;2.023821;2.928301;-0.03633785;0.5893431;2.615318;0.8098124;0.2363167;1.292195;0.2944725;0;0;0;0.5893431;2.615318;0.8098124;0.2363167;1.292195;0.2944725;0;0;0
897572.1304;NotLabelled;16384;-0.301939;0.3822715;-0.7245767;-0.4875346;-4;67;34;-1176;4290;2915;65536;0.6035207;-0.2936288;0.5747922;0.468144;-33;79;-39;-2013;4152;-2935;8192;0.7866439;-0.5443213;-0.265928;-0.1191136;55;82;36;-452;5133;1021;32768;0.8463635;-0.5041551;0;-0.1717452;-1;119;-170;912;5457;-262;256;0.3130194;-0.2451524;-0.7026994;-0.5900277;10;35;26;453;5160;-333;128;-0.2243767;0.2880886;0.6551247;0.6614165;11;1;-23;-963;4933;884;4;-0.3476454;0.03462604;-0.6870393;-0.6371191;-6;47;30;3539;4030;1720;16;0.5838948;-0.4570637;0.533241;0.4072022;-91;72;9;-127;3510;1034;2;0.6903373;-0.6052631;-0.2534626;-0.3047091;20;23;-25;-1465;4572;-681;8;0.4473684;-0.7725317;0.2867036;0.3476454;31;-36;27;933;4243;2381;0.9124275;2.657046;0.7991639;0.9182772;3.190101;0.6832323;0.9234143;3.658226;0.5793518;0.9021818;4.378975;0.4432187;0.6343702;4.684629;0.345239;0.2969254;4.548559;0.4333012;0.02215531;3.682114;0.612474;-0.143137;2.838469;0.214054;1.154488;4.699955;0.3452373;1.446996;4.582444;0.4332983;1.833565;3.700212;0.455788;2.044715;2.906459;-0.01660967;0.6001667;2.61438;0.8013536;0.2319754;1.294191;0.2891083;0;0;0;0.6001667;2.61438;0.8013536;0.2319754;1.294191;0.2891083;0;0;0
897592.9461;NotLabelled;16384;-0.3116343;0.3878116;-0.7184321;-0.4861496;-12;75;38;-1256;4246;2575;65536;0.6130058;-0.301939;0.5637119;0.4639889;-35;104;-49;-1573;4114;-2823;8192;0.7790819;-0.5484765;-0.2756233;-0.1274238;62;78;45;-692;5187;1243;32768;0.8429898;-0.5083103;-0.03185596;-0.1731302;-6;134;-186;1108;5549;-96;256;0.3074792;-0.2465374;-0.7034962;-0.5914127;21;18;23;163;4980;59;128;-0.2229917;0.2908587;0.6565097;0.6592958;-6;4;-22;-831;4743;1326;4;-0.3587258;0.033241;-0.6826808;-0.6357341;11;17;25;2299;3422;494;16;0.5744751;-0.5027701;0.501385;0.4072022;-142;141;22;421;4088;566;2;0.6889966;-0.6052631;-0.2520775;-0.3088643;21;13;-21;-1033;4586;-531;8;0.4487534;-0.7708923;0.2922437;0.3448753;32;-2;27;297;4147;1701;0.9064645;2.662005;0.7724404;0.9123111;3.194784;0.6552488;0.9174455;3.662662;0.5502619;0.8995258;4.383767;0.4155423;0.6331199;4.690843;0.318177;0.2950563;4.556156;0.4059916;0.02318501;3.687634;0.5794449;-0.1330037;2.84185;0.1818878;1.153303;4.703773;0.3181752;1.44527;4.584743;0.4059889;1.819288;3.69732;0.4354264;2.046845;2.888673;-0.002859831;0.5942035;2.619344;0.7747389;0.2174113;1.303186;0.2583923;0;0;0;0.5942035;2.619344;0.7747389;0.2174113;1.303186;0.2583923;0;0;0
897612.959;NotLabelled;16384;-0.333795;0.3961219;-0.7085283;-0.4792244;-20;66;40;-1384;3734;1865;65536;0.6350925;-0.3185596;0.5373961;0.4542936;-30;105;-64;-1305;3948;-2289;8192;0.7699461;-0.5540166;-0.2867036;-0.134349;65;67;52;-774;5105;1433;32768;0.8374155;-0.5138504;-0.06509695;-0.1745152;-11;133;-196;1670;5565;-128;256;0.300554;-0.2493075;-0.7031784;-0.5941828;9;2;16;421;4258;439;128;-0.2146814;0.2950138;0.6537396;0.6629505;-30;9;-17;-1145;4019;818;4;-0.3642659;0.033241;-0.6797408;-0.6357341;9;30;19;2113;3130;390;16;0.5681964;-0.5290859;0.4833795;0.4044321;-160;147;23;781;4204;724;2;0.6813827;-0.6094183;-0.2506925;-0.3185596;24;29;-12;-203;4134;-659;8;0.4570637;-0.7693641;0.2977839;0.33241;44;15;24;1429;3481;1727;0.8568169;2.674953;0.692917;0.8626604;3.207451;0.5744576;0.867792;3.675078;0.4683576;0.8556594;4.396935;0.337061;0.5917258;4.706598;0.2411673;0.252593;4.574214;0.3283594;-0.01438373;3.702631;0.4938799;-0.1577794;2.856184;0.09292789;1.111996;4.715352;0.2412002;1.402999;4.593567;0.3284332;1.76441;3.701157;0.3639504;2.014794;2.878646;-0.03425932;0.544556;2.632298;0.6953253;0.1627499;1.327364;0.1547422;0;0;0;0.544556;2.632298;0.6953253;0.1627499;1.327364;0.1547422;0;0;0
897633.9384;NotLabelled;16384;-0.3434903;0.3975069;-0.7059121;-0.4750692;-22;52;38;-1356;3474;1637;65536;0.6467106;-0.3240997;0.5235457;0.4501385;-25;98;-72;-1189;3680;-2043;8192;0.7525238;-0.566482;-0.3047091;-0.1412742;59;39;58;-348;4427;1233;32768;0.8228115;-0.5263157;-0.1301939;-0.1703601;-21;85;-193;2610;5101;-556;256;0.2963989;-0.2520775;-0.7027828;-0.5955678;10;-2;13;615;3958;83;128;-0.2091413;0.299169;0.6509695;0.6655799;-32;7;-15;-1165;3631;578;4;-0.3698061;0.03462604;-0.6779718;-0.634349;10;40;15;2189;2834;894;16;0.5591761;-0.5554016;0.4639889;0.4044321;-173;131;19;1555;4296;1102;2;0.677519;-0.6108033;-0.2506925;-0.3240997;27;28;-6;-347;3880;-457;8;0.4626039;-0.7684759;0.299169;0.3254848;49;26;21;831;3263;1775;0.8352153;2.678467;0.6417282;0.8410773;3.212646;0.5310951;0.8462255;3.681779;0.431868;0.8414872;4.404935;0.3074236;0.5807343;4.718186;0.2145293;0.2402715;4.588469;0.300539;-0.03109163;3.714224;0.4433284;-0.1404886;2.868148;0.03103581;1.101067;4.721598;0.2145277;1.390816;4.596012;0.3005368;1.737053;3.698651;0.3565736;2.006437;2.861644;0.00353241;0.522954;2.635781;0.6434599;0.1398479;1.335777;0.09202649;0;0;0;0.522954;2.635781;0.6434599;0.1398479;1.335777;0.09202649;0;0;0
897654.9692;NotLabelled;16384;-0.3518005;0.3975069;-0.7046024;-0.4709141;-22;38;37;-1328;3064;1531;65536;0.6591401;-0.3268698;0.5096953;0.4459834;-17;92;-80;-1133;3474;-1981;8192;0.7441348;-0.5734072;-0.3116343;-0.1426593;56;22;59;-32;4131;1117;32768;0.8154132;-0.533241;-0.1565097;-0.1620499;-26;51;-179;2772;4775;-588;256;0.2950138;-0.2562327;-0.7006845;-0.5969529;15;0;12;715;3588;-73;128;-0.2063712;0.301939;0.6481994;0.6678932;-25;8;-13;-1215;3309;556;4;-0.3753462;0.03878116;-0.6746944;-0.634349;14;35;9;1857;2570;1048;16;0.5457063;-0.5810279;0.4445983;0.4085872;-191;68;8;1837;3910;1822;2;0.6730006;-0.6135734;-0.2506925;-0.3282548;30;25;0;-297;3678;-299;8;0.468144;-0.7680227;0.299169;0.3185596;52;28;18;653;3255;1769;0.8080755;2.680139;0.5812178;0.8139516;3.215615;0.4770443;0.8191125;3.685912;0.3834905;0.8200256;4.409835;0.2635056;0.5617286;4.725681;0.1725543;0.2202621;4.598099;0.2577766;-0.05618958;3.723611;0.3888269;-0.1465763;2.879779;-0.03256787;1.082072;4.725028;0.1725529;1.370831;4.596653;0.2577746;1.687103;3.691234;0.3497567;1.990055;2.828514;0.1013196;0.495814;2.637435;0.5823926;0.1112351;1.341433;0.0226287;0;0;0;0.495814;2.637435;0.5823926;0.1112351;1.341433;0.0226287;0;0;0
897675.9468;NotLabelled;16384;-0.3587258;0.3975069;-0.7020303;-0.4695291;-21;32;36;-1094;2782;1311;65536;0.6716952;-0.3282548;0.4958449;0.4418283;-1;82;-94;-1277;3276;-2401;8192;0.7372469;-0.5803324;-0.3157895;-0.1412742;51;2;60;296;3835;837;32768;0.8082178;-0.5401662;-0.1759003;-0.1551246;-32;31;-130;4698;4409;-634;256;0.2922437;-0.2576177;-0.700156;-0.5983379;18;2;12;807;3416;-21;128;-0.2036011;0.301939;0.6468144;0.6700824;-18;12;-10;-1129;3103;532;4;-0.3781163;0.04155125;-0.6729806;-0.634349;16;37;4;1553;2674;1142;16;0.5277008;-0.5998893;0.4307479;0.4196676;-206;13;2;1439;4128;2102;2;0.6666771;-0.6163435;-0.2534626;-0.333795;39;66;-1;1001;3516;261;8;0.4736842;-0.7669255;0.300554;0.3116343;52;11;12;781;3115;1891;0.7639776;2.680558;0.5127262;0.7698645;3.217012;0.4137108;0.7750351;3.688188;0.3246873;0.7800065;4.412989;0.2102235;0.5234863;4.730958;0.1216796;0.1813066;4.604645;0.2059237;-0.1022294;3.730608;0.3242279;-0.1707538;2.891509;-0.1105292;1.043818;4.727393;0.1216782;1.331849;4.596759;0.2059218;1.632002;3.687924;0.3163952;1.946811;2.815855;0.121007;0.4517161;2.637846;0.5134572;0.07805673;1.342802;-0.05583958;0;0;0;0.4517161;2.637846;0.5134572;0.07805673;1.342802;-0.05583958;0;0;0
897697.1005;NotLabelled;16384;-0.365651;0.3961219;-0.7001628;-0.468144;-18;23;36;-1012;2404;1107;65536;0.6853801;-0.3240997;0.4833795;0.4376731;28;58;-109;-1527;3056;-3433;8192;0.7296119;-0.5886427;-0.3199446;-0.1371191;47;-15;63;770;3703;683;32768;0.8032453;-0.5470914;-0.1842105;-0.1468144;-39;-15;-66;6010;3885;-338;256;0.2894737;-0.2590028;-0.6996105;-0.599723;17;7;10;795;3168;45;128;-0.199446;0.301939;0.6454294;0.6726627;-18;21;-5;-1001;3061;528;4;-0.3878116;0.05124654;-0.6706948;-0.6301939;0;31;3;1049;2646;506;16;0.4806094;-0.6271318;0.4099723;0.4556787;-228;-62;8;847;4304;1838;2;0.6610204;-0.6163435;-0.2590028;-0.3407202;23;37;3;-567;4054;-769;8;0.4792244;-0.7640648;0.3033241;0.3074792;57;7;9;329;3221;1969;0.7238016;2.677004;0.4386073;0.7296948;3.214037;0.3427775;0.734871;3.685732;0.2565519;0.7428681;4.411045;0.145558;0.4876795;4.730502;0.05852836;0.1449722;4.605213;0.1421558;-0.1392638;3.730118;0.2505463;-0.188361;2.897088;-0.1982826;1.007992;4.724767;0.05852699;1.295472;4.592533;0.142154;1.58222;3.681245;0.2670637;1.900303;2.802195;0.1125219;0.41154;2.634288;0.4390645;0.04188669;1.339046;-0.1323928;0;0;0;0.41154;2.634288;0.4390645;0.04188669;1.339046;-0.1323928;0;0;0
897718.1127;NotLabelled;16384;-0.3767313;0.3919668;-0.6956853;-0.4695291;-7;-8;41;-634;2594;1095;65536;0.7088301;-0.299169;0.4639889;0.4390582;64;-13;-117;-1875;2602;-2855;8192;0.7222577;-0.5969529;-0.3240997;-0.1301939;43;-21;67;1264;3935;643;32768;0.7986684;-0.5540166;-0.1855956;-0.1440443;-49;-2;-10;5260;3513;-658;256;0.2853186;-0.2603878;-0.697225;-0.6038781;19;13;5;875;3232;205;128;-0.1925208;0.299169;0.6440443;0.6772301;-24;25;-1;-837;3203;658;4;-0.3891967;0.05263158;-0.6710852;-0.6288089;-6;21;0;659;2508;772;16;0.4515235;-0.6406382;0.4016621;0.4736842;-232;-75;16;635;3908;2166;2;0.6551598;-0.6191136;-0.2617728;-0.3448753;27;29;16;-1063;2990;-465;8;0.4861496;-0.7607926;0.3047091;0.3033241;58;16;6;585;3017;1927;0.6296498;2.652256;0.2877909;0.6355503;3.18995;0.1957456;0.640733;3.662241;0.1128442;0.6517628;4.388038;0.005330503;0.3979149;4.708971;-0.08017951;0.05468207;4.584713;0.002828151;-0.2313053;3.708872;0.1000134;-0.2632013;2.886968;-0.3703621;0.9181987;4.701066;-0.08018112;1.205118;4.567235;0.002825856;1.477675;3.654315;0.1462348;1.79336;2.770274;0.01738358;0.3173882;2.609538;0.2879231;-0.04856355;1.314513;-0.2864002;0;0;0;0.3173882;2.609538;0.2879231;-0.04856355;1.314513;-0.2864002;0;0;0
897739.3768;NotLabelled;16384;-0.3795014;0.3850415;-0.6961718;-0.4722992;-7;-24;48;-50;2968;1503;65536;0.7209671;-0.2825485;0.4542936;0.4404432;63;-2;-116;-1913;2558;-1645;8192;0.708872;-0.6080332;-0.3365651;-0.1204986;29;24;52;998;4121;373;32768;0.7920258;-0.5623268;-0.1800554;-0.1551246;-34;35;38;2950;3747;-1304;256;0.2825485;-0.2590028;-0.6964638;-0.6066482;20;17;1;889;3266;123;128;-0.1897507;0.299169;0.6412742;0.6806321;-34;18;0;-865;3281;518;4;-0.3905817;0.05401662;-0.6714666;-0.6274238;2;9;-2;567;2828;870;16;0.4196676;-0.653543;0.3919668;0.4930748;-240;-71;21;225;3966;2172;2;0.6453685;-0.6260388;-0.265928;-0.3476454;32;23;32;-905;3712;-441;8;0.501385;-0.7529927;0.3088643;0.2936288;59;6;1;883;4065;807;0.5898463;2.628625;0.2023093;0.5957556;3.167138;0.1151856;0.6009465;3.640167;0.03660703;0.6143999;4.367117;-0.06251591;0.3616333;4.689854;-0.1443586;0.01797349;4.565783;-0.06285162;-0.2646967;3.686803;0.0134505;-0.2637904;2.898846;-0.5127813;0.8818882;4.680228;-0.1443601;1.168346;4.544497;-0.06285393;1.429299;3.631667;0.1012132;1.734423;2.74248;-0.01725364;0.2775846;2.585907;0.2020196;-0.09304805;1.291097;-0.3697815;0;0;0;0.2775846;2.585907;0.2020196;-0.09304805;1.291097;-0.3697815;0;0;0
897760.1173;NotLabelled;16384;-0.3850415;0.3781163;-0.694091;-0.4764543;-12;-20;56;452;3162;1885;65536;0.7322182;-0.2686981;0.4445983;0.4404432;48;9;-112;-1585;2606;-1001;8192;0.7033407;-0.6108033;-0.3421052;-0.1232687;22;47;37;218;4089;261;32768;0.7897045;-0.5637119;-0.1772853;-0.1648199;-27;42;38;1762;3809;-1636;256;0.2797784;-0.2576177;-0.695677;-0.6094183;22;20;-3;823;3276;123;128;-0.1869806;0.299169;0.6385041;0.6839946;-34;7;2;-879;3543;552;4;-0.3891967;0.05540166;-0.6721576;-0.6274238;-1;15;-13;487;3104;598;16;0.3891967;-0.6660798;0.3808864;0.5096953;-243;-53;25;265;4144;2882;2;0.6393704;-0.6315789;-0.267313;-0.3476454;35;19;32;-1491;4070;-489;8;0.5096953;-0.7484391;0.3102493;0.2894737;56;13;4;247;4387;717;0.5424684;2.596129;0.1150931;0.5483866;3.135435;0.03301966;0.5535854;3.609179;-0.04112256;0.5666516;4.336653;-0.1363779;0.3137167;4.659683;-0.2165286;-0.02988319;4.534992;-0.1357163;-0.3115075;3.654868;-0.06939197;-0.2965038;2.889611;-0.6279196;0.8339767;4.650341;-0.2165298;1.120501;4.514335;-0.1357181;1.365211;3.605053;0.06823838;1.642371;2.708099;-0.05999374;0.2302069;2.553416;0.1143709;-0.1460549;1.25883;-0.4542509;0;0;0;0.2302069;2.553416;0.1143709;-0.1460549;1.25883;-0.4542509;0;0;0
897779.9649;NotLabelled;16384;-0.3919668;0.3698061;-0.69374;-0.4778393;-15;0;61;444;3248;2051;65536;0.7431068;-0.2590028;0.433518;0.4390582;32;26;-104;-1413;2668;-901;8192;0.6989316;-0.6108033;-0.3490305;-0.1288089;18;60;23;-308;4071;29;32768;0.7882372;-0.5637119;-0.1745152;-0.1745152;-22;41;27;784;3595;-1442;256;0.2770083;-0.2562327;-0.6936418;-0.6135734;26;19;-6;863;3672;237;128;-0.1842105;0.300554;0.6357341;0.6867139;-24;4;3;-953;3969;794;4;-0.3891967;0.05955679;-0.6730931;-0.6260388;4;24;-22;461;3530;408;16;0.3573407;-0.6782321;0.3698061;0.5249307;-245;-57;22;775;4030;2730;2;0.632964;-0.6368315;-0.2700831;-0.3476454;31;7;23;-2071;4232;-443;8;0.5166205;-0.7447481;0.3102493;0.2867036;46;17;7;-255;4329;475;0.493223;2.560602;0.02991134;0.4991493;3.100649;-0.0471316;0.5043553;3.575064;-0.1168547;0.5170491;4.303044;-0.2082154;0.2639524;4.626365;-0.286661;-0.07958953;4.501063;-0.2065501;-0.3563873;3.618401;-0.1553875;-0.3287243;2.874428;-0.7415069;0.7842172;4.617296;-0.2866622;1.070805;4.481009;-0.2065518;1.307135;3.57138;0.005569458;1.571543;2.672383;-0.1347203;0.1809615;2.517898;0.02875921;-0.1979913;1.220683;-0.5320329;0;0;0;0.1809615;2.517898;0.02875921;-0.1979913;1.220683;-0.5320329;0;0;0
897800.9802;NotLabelled;16384;-0.4030471;0.3642659;-0.6893529;-0.4792244;-13;29;67;334;3550;1811;65536;0.7526258;-0.2520775;0.4224377;0.4376731;17;41;-95;-1199;2924;-1585;8192;0.6952536;-0.6108033;-0.3531856;-0.1371191;20;63;12;-678;4213;-39;32768;0.7872959;-0.5637119;-0.1731302;-0.1800554;-16;31;14;846;3889;-1382;256;0.2742382;-0.2562327;-0.6910497;-0.6177285;30;21;-9;645;4090;225;128;-0.1828255;0.300554;0.6315789;0.6909053;-30;2;4;-979;4295;862;4;-0.3878116;0.06648199;-0.6745295;-0.6246537;11;18;-29;529;3746;918;16;0.3254848;-0.68962;0.3559557;0.5401662;-242;-52;18;261;3820;2742;2;0.6288089;-0.640764;-0.2686981;-0.3490305;28;3;13;-1627;3776;-549;8;0.5235457;-0.7409118;0.3116343;0.2825485;37;0;10;613;4067;47;0.4446938;2.518836;-0.05568868;0.4506277;3.059577;-0.1277034;0.4558406;3.53462;-0.1930093;0.4671661;4.2634;-0.2779531;0.2134674;4.586917;-0.3535869;-0.1298473;4.460266;-0.2746354;-0.4083929;3.577306;-0.2411029;-0.3664972;2.851827;-0.8491499;0.7337486;4.578836;-0.3535882;1.020583;4.442393;-0.2746372;1.251714;3.532593;-0.05756879;1.505787;2.632823;-0.2113427;0.1324324;2.476145;-0.05726995;-0.2491292;1.175209;-0.6075737;0;0;0;0.1324324;2.476145;-0.05726995;-0.2491292;1.175209;-0.6075737;0;0;0
897821.9574;NotLabelled;16384;-0.4155124;0.3614958;-0.6843535;-0.4778393;-11;56;74;184;4014;1659;65536;0.7612426;-0.2493075;0.4113573;0.434903;8;55;-85;-1313;3186;-1505;8192;0.6921453;-0.6108033;-0.3559557;-0.1454294;20;54;5;-494;4281;9;32768;0.7850132;-0.5650969;-0.1731302;-0.1855956;-8;33;4;738;3883;-1202;256;0.2714681;-0.2548476;-0.6889256;-0.6218836;33;18;-10;587;4328;131;128;-0.1814404;0.301939;0.6274238;0.6944433;-39;0;3;-961;4407;842;4;-0.3767313;0.07756232;-0.6783311;-0.6260388;19;-6;-54;717;3758;884;16;0.2686981;-0.7077847;0.3254848;0.566482;-217;-21;7;59;3006;2564;2;0.6260388;-0.6432948;-0.267313;-0.3504155;23;1;4;-1487;3902;-207;8;0.5277008;-0.737771;0.3157895;0.2783934;27;-5;13;461;3819;-197;0.3874103;2.473164;-0.1431063;0.3933532;3.01471;-0.2087848;0.3985742;3.490486;-0.2685241;0.4097608;4.220103;-0.3459582;0.1560064;4.54433;-0.4182977;-0.1872943;4.416801;-0.3407093;-0.4633626;3.532494;-0.3298482;-0.4058402;2.822546;-0.9547179;0.6762893;4.536355;-0.418299;0.96314;4.399168;-0.340711;1.186462;3.48702;-0.1253289;1.434535;2.586895;-0.2866405;0.07514921;2.430494;-0.1452274;-0.3048259;1.122043;-0.6785494;0;0;0;0.07514921;2.430494;-0.1452274;-0.3048259;1.122043;-0.6785494;0;0;0
897842.9674;NotLabelled;16384;-0.4432133;0.3614958;-0.6687241;-0.4750692;-15;62;77;-470;4114;1631;65536;0.7776722;-0.2506925;0.3878116;0.4265928;-13;62;-67;-1127;3534;-1265;8192;0.6889117;-0.6108033;-0.3587258;-0.1537396;23;50;3;-100;4043;223;32768;0.7843996;-0.5637119;-0.1759003;-0.1897507;-3;47;-2;614;3765;-938;256;0.267313;-0.2534626;-0.6822086;-0.6315789;31;11;-12;181;4088;59;128;-0.1786704;0.3060942;0.6177285;0.7019934;-40;-9;2;-667;4053;590;4;-0.368421;0.08587258;-0.6806109;-0.6274238;27;-2;-67;541;3710;794;16;0.2465374;-0.7160277;0.3074792;0.5761772;-196;1;1;79;2840;2256;2;0.6232687;-0.6452183;-0.2617728;-0.3559557;19;-4;-10;-1381;3958;-607;8;0.5318559;-0.7344574;0.3213296;0.2728532;13;-10;17;669;3925;543;0.2704487;2.379341;-0.2984804;0.2763995;2.921618;-0.357828;0.2816278;3.398059;-0.4120052;0.2914877;4.128358;-0.4829162;0.03714874;4.452754;-0.5523911;-0.3059272;4.323908;-0.4759921;-0.5817342;3.439509;-0.4859392;-0.510318;2.74079;-1.121933;0.5574453;4.445732;-0.5523921;0.8445373;4.308381;-0.4759936;1.060656;3.393469;-0.2650336;1.300477;2.491904;-0.4307263;-0.04181209;2.336699;-0.3011398;-0.4111624;1.00849;-0.7913416;0;0;0;-0.04181209;2.336699;-0.3011398;-0.4111624;1.00849;-0.7913416;0;0;0
897864.112;NotLabelled;16384;-0.4556787;0.3614958;-0.6612874;-0.4736842;-17;57;73;-752;3848;1431;65536;0.7844595;-0.2534626;0.3767313;0.4224377;-13;53;-66;-1391;3704;-2001;8192;0.6815052;-0.6121883;-0.3642659;-0.16759;31;47;0;266;3681;799;32768;0.7796726;-0.5623268;-0.1855956;-0.2036011;-8;68;-4;754;3541;-526;256;0.267313;-0.2534626;-0.6783382;-0.6357341;26;8;-14;55;4136;-151;128;-0.1786704;0.3074792;0.6135734;0.7050257;-31;-16;1;-739;3889;566;4;-0.3587258;0.09556787;-0.6819372;-0.6301939;37;9;-77;419;3796;606;16;0.2271468;-0.7220545;0.2894737;0.5858725;-173;23;-4;139;2696;2050;2;0.6218836;-0.6466913;-0.2576177;-0.3587258;18;-9;-13;-943;4002;-663;8;0.533241;-0.7327473;0.3240997;0.2714681;10;-10;18;505;3947;651;0.2102364;2.337067;-0.3702344;0.2162025;2.880735;-0.415076;0.2214448;3.358453;-0.4565077;0.2274245;4.090231;-0.5106124;-0.02862713;4.414779;-0.5726919;-0.3710255;4.282387;-0.4993807;-0.6376771;3.396694;-0.5520734;-0.5342382;2.713683;-1.200604;0.4916994;4.410531;-0.5726933;0.7795051;4.27299;-0.4993827;0.9886907;3.355373;-0.293233;1.227843;2.454165;-0.4618055;-0.1020233;2.294512;-0.3741232;-0.4628815;0.9522942;-0.831387;0;0;0;-0.1020233;2.294512;-0.3741232;-0.4628815;0.9522942;-0.831387;0;0;0
897886.0544;NotLabelled;16384;-0.466759;0.3614958;-0.6555125;-0.4709141;-13;49;66;-1112;3596;1197;65536;0.7914491;-0.2548476;0.365651;0.4182825;-8;63;-66;-1411;3616;-2069;8192;0.6782731;-0.6121883;-0.367036;-0.1745152;29;42;2;358;3701;941;32768;0.7761116;-0.5623268;-0.1911357;-0.2119114;-15;69;0;880;3507;-696;256;0.265928;-0.2520775;-0.6754858;-0.6398892;25;6;-13;77;3866;-277;128;-0.1800554;0.3116343;0.6094183;0.7064513;-27;-19;0;-685;3725;848;4;-0.3490305;0.1080332;-0.6825417;-0.632964;46;22;-82;333;3868;364;16;0.2132964;-0.7275991;0.2714681;0.5927978;-154;46;-8;-127;2234;1798;2;0.6218836;-0.6475629;-0.2534626;-0.3601108;16;-6;-14;-793;3922;-527;8;0.533241;-0.7325377;0.3268698;0.2686981;9;-12;18;807;3839;753;0.1467011;2.298655;-0.4361241;0.1526719;2.842762;-0.4752871;0.1579188;3.320886;-0.5117288;0.1608391;4.053213;-0.5581034;-0.0965656;4.377325;-0.616775;-0.4384102;4.242734;-0.5448955;-0.6998695;3.356932;-0.6178545;-0.5786866;2.678502;-1.26812;0.4237742;4.375253;-0.6167761;0.7121497;4.238151;-0.5448969;0.9031276;3.316107;-0.3408473;1.138655;2.413637;-0.507764;-0.1655583;2.256144;-0.4404926;-0.5069621;0.8982215;-0.8651676;0;0;0;-0.1655583;2.256144;-0.4404926;-0.5069621;0.8982215;-0.8651676;0;0;0
897906.9468;NotLabelled;16384;-0.4750692;0.3614958;-0.6505171;-0.4695291;-11;38;59;-1078;3724;1091;65536;0.7975832;-0.2562327;0.3559557;0.4141274;-4;51;-64;-1181;3518;-2125;8192;0.6753139;-0.6121883;-0.3698061;-0.1800554;29;29;5;304;3705;989;32768;0.7731051;-0.5623268;-0.1939058;-0.2202216;-20;49;6;1616;3577;-844;256;0.265928;-0.2520775;-0.6728509;-0.6426592;25;3;-12;13;3774;-201;128;-0.1800554;0.3144044;0.6052631;0.7087923;-26;-19;0;-765;3739;1012;4;-0.3393352;0.1232687;-0.6822746;-0.6357341;55;25;-88;235;3916;252;16;0.2036011;-0.7344025;0.2506925;0.5969529;-128;81;-15;-343;2392;1216;2;0.6204986;-0.6484229;-0.2506925;-0.3628809;16;-9;-13;-835;3980;-589;8;0.5318559;-0.7321854;0.3310249;0.267313;8;-14;18;839;3843;855;0.08483651;2.268197;-0.4967985;0.09081119;2.812648;-0.5308375;0.09606147;3.291094;-0.5627765;0.09622392;4.023823;-0.6023996;-0.1623994;4.34749;-0.6580908;-0.5037349;4.210957;-0.5874672;-0.7635397;3.326159;-0.6767237;-0.6275235;2.654045;-1.330602;0.3579445;4.347378;-0.6580923;0.6468343;4.210707;-0.5874692;0.8310128;3.286695;-0.3860871;1.061705;2.382872;-0.552436;-0.2274224;2.225729;-0.5015993;-0.5461612;0.8511382;-0.888594;0;0;0;-0.2274224;2.225729;-0.5015993;-0.5461612;0.8511382;-0.888594;0;0;0
897927.9522;NotLabelled;16384;-0.4833795;0.3614958;-0.6453729;-0.468144;-10;25;56;-1132;3584;995;65536;0.8033742;-0.2562327;0.3476454;0.4099723;-1;29;-60;-899;3426;-1991;8192;0.6725472;-0.6135734;-0.3711911;-0.1828255;26;15;8;396;3689;1015;32768;0.7700246;-0.5637119;-0.1925208;-0.2285319;-26;29;18;1950;3519;-968;256;0.265928;-0.2506925;-0.6693779;-0.6468144;24;0;-12;19;3742;-137;128;-0.1814404;0.3171745;0.601108;0.7107382;-24;-21;-1;-685;3653;1040;4;-0.3157895;0.1495845;-0.6805207;-0.6440443;65;-11;-93;297;3900;468;16;0.2036011;-0.7424883;0.2063712;0.6038781;-69;110;-32;243;2588;1916;2;0.6204986;-0.6492389;-0.2465374;-0.3642659;17;-16;-13;-969;3882;-677;8;0.5318559;-0.7307981;0.33518;0.265928;8;-19;17;889;3803;779;0.02628407;2.239625;-0.5602217;0.03226233;2.7844;-0.5886067;0.037516;3.263153;-0.6155772;0.03562486;3.996143;-0.6499866;-0.2239052;4.319472;-0.7033744;-0.5648556;4.181484;-0.6337246;-0.8212551;3.297145;-0.7363712;-0.6701792;2.630462;-1.3925;0.2964369;4.320817;-0.7033752;0.5857098;4.184457;-0.6337256;0.7634863;3.259067;-0.4329159;0.9884925;2.354282;-0.6018013;-0.2859743;2.19721;-0.5654987;-0.5752861;0.8055197;-0.9124207;0;0;0;-0.2859743;2.19721;-0.5654987;-0.5752861;0.8055197;-0.9124207;0;0;0
897948.0964;NotLabelled;16384;-0.4930748;0.3573407;-0.6393179;-0.4695291;-3;-4;46;-894;3570;939;65536;0.8079756;-0.2520775;0.3365651;0.4127424;3;-23;-47;-945;3324;-2025;8192;0.6709023;-0.6149584;-0.3711911;-0.1842105;21;7;10;546;3831;981;32768;0.7679478;-0.5650969;-0.1883656;-0.2354571;-29;17;28;1690;3513;-1178;256;0.267313;-0.2534626;-0.66237;-0.6523545;26;-13;-9;-23;3712;-187;128;-0.1842105;0.3254848;0.5914127;0.7143928;-28;-31;-4;-581;3779;908;4;-0.300554;0.1578947;-0.6802768;-0.6495845;58;-34;-89;329;4122;646;16;0.2077562;-0.7435119;0.1897507;0.6066482;-37;71;-43;373;3026;1250;2;0.6204986;-0.6513157;-0.2409972;-0.3642659;20;-29;-13;-899;3896;-643;8;0.5304709;-0.7298867;0.3393352;0.265928;9;-24;17;873;3883;873;-0.0908097;2.211771;-0.6375746;-0.08482888;2.756785;-0.6609211;-0.07957271;3.235765;-0.6834636;-0.08566892;3.969245;-0.704265;-0.3469686;4.292001;-0.7522154;-0.6872537;4.150768;-0.6858928;-0.9344813;3.26785;-0.8187967;-0.7708626;2.61374;-1.484504;0.1733558;4.296362;-0.7510412;0.4632723;4.16041;-0.6832955;0.6395891;3.231464;-0.4982291;0.854067;2.327153;-0.6826394;-0.4030674;2.169406;-0.6432753;-0.6278646;0.7511392;-0.9240692;0;0;0;-0.4030674;2.169406;-0.6432753;-0.6278646;0.7511392;-0.9240692;0;0;0
897968.1983;NotLabelled;16384;-0.4958449;0.3531856;-0.6374412;-0.4722992;2;-17;41;-868;3580;909;65536;0.8071347;-0.2493075;0.333795;0.4182825;4;-54;-36;-783;3228;-2077;8192;0.6668109;-0.6177285;-0.3725762;-0.1869806;11;1;5;290;3815;823;32768;0.7640296;-0.5692521;-0.1772853;-0.2465374;-36;7;36;1528;3597;-894;256;0.2686981;-0.2548476;-0.658533;-0.6551247;28;-18;-9;61;3692;-155;128;-0.1855956;0.3310249;0.5872576;0.7149163;-25;-36;-5;-513;3843;878;4;-0.2853186;0.1648199;-0.6798819;-0.6551247;48;-47;-84;101;4334;698;16;0.2119114;-0.7413454;0.1800554;0.6108033;-2;54;-49;335;3388;1014;2;0.6218836;-0.6552491;-0.2285319;-0.3628809;23;-48;-13;-1065;4044;-323;8;0.5290859;-0.7269753;0.3476454;0.265928;9;-31;17;701;3961;839;-0.1389063;2.200076;-0.6961628;-0.1329212;2.74547;-0.7076416;-0.127661;3.224828;-0.7197538;-0.137193;3.958413;-0.7347097;-0.4000928;4.280325;-0.7794852;-0.7395645;4.136994;-0.7134964;-0.9844356;3.254127;-0.8510237;-0.796819;2.604859;-1.515138;0.1202072;4.287088;-0.7794864;0.4109077;4.151949;-0.713498;0.5767529;3.224766;-0.5107596;0.7811616;2.318317;-0.6961144;-0.4511626;2.157846;-0.7028586;-0.6437961;0.7258353;-0.9332834;0;0;0;-0.4511626;2.157846;-0.7028586;-0.6437961;0.7258353;-0.9332834;0;0;0
897989.1307;NotLabelled;16384;-0.4958449;0.3504155;-0.6358759;-0.4764543;6;-27;37;-796;3624;907;65536;0.803897;-0.2437673;0.33518;0.4265928;6;-86;-25;-889;3208;-2071;8192;0.6668109;-0.6177285;-0.3725762;-0.1869806;6;-2;1;264;3929;781;32768;0.7627632;-0.5706371;-0.1703601;-0.2520775;-37;0;37;1756;3609;-994;256;0.2700831;-0.2576177;-0.6523545;-0.6596376;29;-19;-10;-7;3898;-99;128;-0.1897507;0.3365651;0.5831025;0.7146398;-18;-42;-4;-239;4047;744;4;-0.2686981;0.1689751;-0.681615;-0.6592798;43;-68;-77;109;4368;804;16;0.2243767;-0.7360385;0.1772853;0.6135734;33;46;-51;393;3924;1064;2;0.6232687;-0.6583;-0.2202216;-0.3601108;24;-62;-14;-959;4070;-439;8;0.5277008;-0.7253096;0.3531856;0.265928;9;-38;18;757;4103;845;-0.1848311;2.202287;-0.7255311;-0.1788452;2.747763;-0.7320182;-0.1735839;3.227211;-0.739743;-0.1856242;3.960862;-0.7483505;-0.4496287;4.282248;-0.7903096;-0.7885993;4.137193;-0.7255251;-1.028479;3.254667;-0.8736361;-0.8300762;2.6087;-1.537835;0.07064524;4.29079;-0.7903107;0.3618151;4.156078;-0.7255267;0.5169206;3.227739;-0.519604;0.6985553;2.320692;-0.7246917;-0.4970869;2.16012;-0.7326444;-0.6584307;0.7190942;-0.9282783;0;0;0;-0.4970869;2.16012;-0.7326444;-0.6584307;0.7190942;-0.9282783;0;0;0
898009.9625;NotLabelled;16384;-0.4958449;0.3462604;-0.633974;-0.4819945;10;-37;34;-546;3606;983;65536;0.7978333;-0.2396122;0.3365651;0.4390582;3;-100;-17;-1197;3152;-1737;8192;0.6659083;-0.6191136;-0.3711911;-0.1883656;3;-3;-1;296;3911;715;32768;0.7603462;-0.5734072;-0.1634349;-0.2576177;-35;-5;38;1670;3733;-896;256;0.2728532;-0.2590028;-0.6481994;-0.662047;29;-23;-10;-173;3946;-51;128;-0.1952908;0.3407202;0.5789474;0.7145566;-13;-48;-3;-211;4203;754;4;-0.2506925;0.16759;-0.6834335;-0.66482;31;-87;-68;171;4542;578;16;0.2368421;-0.7295936;0.1828255;0.6149584;64;10;-52;601;4326;912;2;0.6246537;-0.6616601;-0.2105263;-0.3573407;24;-67;-17;-991;4018;-461;8;0.5263157;-0.7235951;0.3587258;0.265928;8;-37;18;697;3901;681;-0.2137631;2.227541;-0.7426701;-0.2077769;2.773048;-0.7454468;-0.2025151;3.252538;-0.7499101;-0.2173356;3.986186;-0.7477247;-0.4825673;4.30715;-0.7848891;-0.820967;4.159874;-0.7221627;-1.053632;3.27637;-0.8758361;-0.8491856;2.633996;-1.541685;0.03767043;4.317663;-0.7848903;0.3293675;4.183118;-0.7221648;0.4832004;3.254779;-0.5152894;0.6548728;2.348542;-0.7322013;-0.5260182;2.185424;-0.7500932;-0.6636302;0.7375369;-0.9099238;0;0;0;-0.5260182;2.185424;-0.7500932;-0.6636302;0.7375369;-0.9099238;0;0;0
898031.22;NotLabelled;16384;-0.4944598;0.3407202;-0.6338211;-0.4875346;11;-45;32;-482;3652;983;65536;0.7917291;-0.232687;0.3393352;0.4515235;-1;-105;-9;-1157;3128;-1319;8192;0.6666785;-0.6191136;-0.3698061;-0.1883656;2;-7;-4;118;4021;631;32768;0.7582873;-0.5761772;-0.1565097;-0.2617728;-35;0;36;968;3815;-698;256;0.2756233;-0.2617728;-0.6426592;-0.6652036;25;-29;-14;-263;4088;41;128;-0.200831;0.3462604;0.5761772;0.7125942;-7;-54;-2;-3;4215;634;4;-0.2160665;0.1592798;-0.6890871;-0.6731302;16;-104;-48;695;4312;590;16;0.2603878;-0.710722;0.200831;0.6218836;130;-9;-44;1117;4578;28;2;0.6260388;-0.6660005;-0.199446;-0.3531856;24;-72;-16;-829;3940;-459;8;0.5249307;-0.7206184;0.365651;0.267313;6;-43;18;1149;3871;471;-0.2314184;2.262597;-0.7474391;-0.2254321;2.808111;-0.7472554;-0.2201701;3.287618;-0.7491167;-0.2388877;4.021137;-0.7412018;-0.5058359;4.340968;-0.7757665;-0.8434233;4.19141;-0.7140708;-1.066211;3.306034;-0.8715671;-0.8533908;2.663674;-1.5348;0.01433855;4.354246;-0.7758707;0.3067713;4.220768;-0.7143005;0.4539205;3.292378;-0.502845;0.612789;2.386355;-0.7301583;-0.5436731;2.22052;-0.7551092;-0.6595861;0.7679644;-0.8874144;0;0;0;-0.5436731;2.22052;-0.7551092;-0.6595861;0.7679644;-0.8874144;0;0;0
898052.1726;NotLabelled;16384;-0.4916897;0.3310249;-0.6324925;-0.4986149;9;-43;29;-374;3846;1143;65536;0.7763699;-0.2243767;0.3462604;0.4764543;-13;-97;13;-781;3322;-791;8192;0.6689665;-0.6191136;-0.365651;-0.1883656;3;-17;-7;34;4133;571;32768;0.7564216;-0.5775623;-0.1509695;-0.267313;-27;15;35;2056;4119;-734;256;0.2853186;-0.265928;-0.6357341;-0.6661215;13;-40;-20;-585;4178;161;128;-0.2174515;0.3573407;0.5706371;0.7066794;10;-70;0;25;4125;662;4;-0.199446;0.1537396;-0.6912814;-0.6772853;15;-122;-41;309;4008;386;16;0.2783934;-0.7034729;0.2105263;0.6191136;127;11;-23;537;3106;5034;2;0.6288089;-0.6684099;-0.1897507;-0.3490305;27;-73;-17;-643;3948;-667;8;0.5221606;-0.7185656;0.3725762;0.2686981;4;-48;17;1113;3937;333;-0.260896;2.334682;-0.7314822;-0.2549096;2.880195;-0.7302006;-0.2496478;3.359704;-0.7310967;-0.2718242;4.092991;-0.7149149;-0.5402831;4.411928;-0.7458496;-0.8771526;4.260093;-0.6858133;-1.094046;3.375172;-0.8537462;-0.874087;2.735653;-1.517396;-0.02017704;4.42766;-0.7458505;0.2728909;4.294879;-0.6858144;0.420051;3.364941;-0.4812782;0.5678415;2.459324;-0.7175037;-0.5731505;2.292621;-0.7392439;-0.6603312;0.8345445;-0.8245155;0;0;0;-0.5731505;2.292621;-0.7392439;-0.6603312;0.8345445;-0.8245155;0;0;0
898074.1077;NotLabelled;16384;-0.4889196;0.3254848;-0.6342236;-0.5027701;9;-42;26;-446;3800;1045;65536;0.7679803;-0.2229917;0.3504155;0.4875346;-13;-85;25;-669;3382;-737;8192;0.6711081;-0.6232687;-0.3559557;-0.1855956;4;-43;-11;192;4385;1001;32768;0.7560729;-0.5775623;-0.1398892;-0.2742382;-16;-22;33;1410;3855;-966;256;0.2922437;-0.267313;-0.6315789;-0.6665174;8;-45;-23;-647;4188;107;128;-0.2271468;0.3628809;0.567867;0.7030283;19;-75;0;-35;4365;538;4;-0.1814404;0.1426593;-0.6931645;-0.6828254;20;-123;-33;1621;4242;-410;16;0.2894737;-0.6996668;0.2202216;0.6149584;89;-5;10;1983;3588;5192;2;0.6315789;-0.6762848;-0.1634349;-0.3421052;32;-100;-32;-1225;4188;-853;8;0.5180055;-0.7124447;0.3878116;0.2714681;1;-50;15;1191;4011;485;-0.246773;2.380127;-0.7263306;-0.2407867;2.925641;-0.7259204;-0.2355246;3.405149;-0.7275826;-0.2663267;4.137995;-0.7063782;-0.5385301;4.453953;-0.7350738;-0.8735715;4.297757;-0.6760082;-1.074256;3.411633;-0.8572308;-0.8394303;2.768832;-1.512562;-0.01864541;4.475808;-0.7350746;0.2759823;4.346078;-0.6760093;0.4204718;3.414913;-0.4751903;0.5627352;2.51051;-0.7193289;-0.5590274;2.338054;-0.7340198;-0.6309619;0.8782296;-0.8018277;0;0;0;-0.5590274;2.338054;-0.7340198;-0.6309619;0.8782296;-0.8018277;0;0;0
898095.0125;NotLabelled;16384;-0.4875346;0.3213296;-0.6329913;-0.5083103;8;-43;22;-420;3908;869;65536;0.7600712;-0.2229917;0.3559557;0.4958449;-11;-65;34;-749;3586;-703;8192;0.6742109;-0.6246537;-0.3490305;-0.1828255;2;-49;-19;-320;4509;999;32768;0.7560183;-0.5789474;-0.134349;-0.2742382;-12;-34;21;932;4091;-932;256;0.300554;-0.2700831;-0.6274238;-0.6656289;1;-50;-25;-675;4450;133;128;-0.2382271;0.368421;0.567867;0.6964487;35;-78;3;-197;4413;752;4;-0.16759;0.134349;-0.6942057;-0.6869806;18;-85;-21;2163;4868;182;16;0.2894737;-0.6975964;0.234072;0.6121883;50;-110;46;2071;4106;4884;2;0.634349;-0.6799722;-0.1481994;-0.3365651;29;-100;-37;-455;4166;-1069;8;0.5152354;-0.7101172;0.3947368;0.2728532;0;-49;14;1217;4113;411;-0.2327225;2.412851;-0.7210814;-0.2267361;2.958365;-0.7220902;-0.2214742;3.437866;-0.7249997;-0.2595481;4.170314;-0.7019246;-0.5348789;4.483626;-0.7297859;-0.8683454;4.32396;-0.6710826;-1.06542;3.438072;-0.857347;-0.8234409;2.789746;-1.504583;-0.01523682;4.510641;-0.7297869;0.2806723;4.383694;-0.6710839;0.4188707;3.450043;-0.4775063;0.552471;2.549798;-0.7411291;-0.5449772;2.370758;-0.7286521;-0.6037643;0.9099479;-0.7872683;0;0;0;-0.5449772;2.370758;-0.7286521;-0.6037643;0.9099479;-0.7872683;0;0;0
898116.1134;NotLabelled;16384;-0.4847645;0.3171745;-0.6338635;-0.5124654;8;-45;18;-366;3968;791;65536;0.7518875;-0.2271468;0.3628809;0.501385;-4;-42;42;-879;3882;-757;8192;0.6769978;-0.6274238;-0.3407202;-0.1786704;-1;-77;-28;-592;4653;951;32768;0.7566828;-0.5803324;-0.1301939;-0.2714681;-8;-33;8;1000;4075;-1794;256;0.3088643;-0.2728532;-0.6246537;-0.6632962;-3;-56;-27;-725;4596;39;128;-0.2493075;0.3725762;0.567867;0.6903331;50;-70;7;-381;4473;892;4;-0.1578947;0.1288089;-0.6934039;-0.6911357;25;-67;-17;1225;5026;-140;16;0.2797784;-0.6947706;0.2534626;0.6121883;32;-67;28;-4111;3976;3508;2;0.6357341;-0.6838614;-0.132964;-0.33241;26;-97;-48;-789;4146;-1079;8;0.5124654;-0.708485;0.400277;0.2742382;-1;-40;15;1099;4489;325;-0.2107126;2.433167;-0.7302197;-0.2047268;2.978637;-0.7371366;-0.1994655;3.45808;-0.7452392;-0.2443516;4.190128;-0.721704;-0.5225866;4.500882;-0.7493601;-0.8545507;4.338084;-0.6907462;-1.04126;3.451437;-0.8839459;-0.7932189;2.795727;-1.521377;-0.003218412;4.532731;-0.7493609;0.2938613;4.408504;-0.690747;0.430635;3.473667;-0.5019419;0.5627473;2.574376;-0.7695415;-0.5229682;2.390995;-0.7372971;-0.570385;0.9295202;-0.7892908;0;0;0;-0.5229682;2.390995;-0.7372971;-0.570385;0.9295202;-0.7892908;0;0;0
898136.9437;NotLabelled;16384;-0.4806094;0.3130194;-0.6345894;-0.5180055;10;-49;12;-420;4222;625;65536;0.745182;-0.232687;0.3711911;0.5027701;3;-26;52;-901;4148;-753;8192;0.681073;-0.6315789;-0.3282548;-0.1717452;-2;-105;-33;-434;4693;987;32768;0.7582884;-0.5817174;-0.1260388;-0.265928;-6;-44;-9;664;4387;-1776;256;0.3171745;-0.2742382;-0.6218836;-0.6614034;-6;-59;-28;-659;4726;-69;128;-0.2617728;0.3753462;0.5692521;0.6830389;61;-62;10;-629;4815;1246;4;-0.1481994;0.1260388;-0.6911357;-0.6960478;26;-47;-21;695;5196;38;16;0.3047091;-0.7026408;0.2354571;0.5983379;56;345;1;-6769;2980;2996;2;0.6398892;-0.6843563;-0.1163435;-0.3296399;22;-95;-57;-941;4578;-1131;8;0.5110803;-0.7057911;0.4058172;0.2756233;0;-30;14;893;4855;501;-0.1906571;2.445315;-0.7425075;-0.1846726;2.990672;-0.7555963;-0.1794126;3.469992;-0.7691237;-0.2299199;4.201745;-0.7479241;-0.5105253;4.510266;-0.7766219;-0.8412433;4.345112;-0.7175553;-1.021803;3.458145;-0.9150866;-0.7712481;2.789658;-1.538099;0.008583277;4.5461;-0.7766229;0.3065945;4.424344;-0.7175566;0.4401408;3.488203;-0.5329416;0.5738382;2.58904;-0.8001832;-0.5029136;2.403066;-0.7490684;-0.5368416;0.9411435;-0.7989849;0;0;0;-0.5029136;2.403066;-0.7490684;-0.5368416;0.9411435;-0.7989849;0;0;0
898157.9562;NotLabelled;16384;-0.468144;0.3047091;-0.6376474;-0.5304709;19;-64;-7;-438;4746;521;65536;0.733876;-0.2368421;0.3905817;0.5027701;19;-48;76;-951;4882;-985;8192;0.6864038;-0.6357341;-0.3130194;-0.1634349;-7;-121;-33;-74;5123;1071;32768;0.7590104;-0.5844875;-0.1232687;-0.2590028;-4;-49;-22;576;4819;-1796;256;0.3268698;-0.2770083;-0.6177285;-0.6594194;-6;-59;-26;-645;4960;-313;128;-0.2714681;0.3767313;0.5720221;0.6761429;51;-50;10;-871;4815;1506;4;-0.1398892;0.1246537;-0.6842105;-0.7048039;41;3;-20;-7;4584;-356;16;0.3531856;-0.7102428;0.2049861;0.5734072;73;0;-3;2593;4770;1594;2;0.6426592;-0.6855089;-0.101108;-0.3268698;16;-72;-48;1547;5580;-739;8;0.5083103;-0.7061933;0.4085872;0.2756233;-3;-22;14;585;4895;643;-0.1841649;2.460543;-0.7484107;-0.1781835;3.00561;-0.7705005;-0.1729266;3.484641;-0.7919385;-0.2304901;4.215942;-0.7732991;-0.5140483;4.521642;-0.8031385;-0.8431752;4.353515;-0.743577;-1.015852;3.465489;-0.9433874;-0.7691042;2.783196;-1.552804;0.004690945;4.562477;-0.8031392;0.3038457;4.443807;-0.7435777;0.4346268;3.505974;-0.5656974;0.5714759;2.606515;-0.830338;-0.4964225;2.418191;-0.7542168;-0.5100673;0.9557781;-0.7991539;0;0;0;-0.4964225;2.418191;-0.7542168;-0.5100673;0.9557781;-0.7991539;0;0;0
898178.0734;NotLabelled;16384;-0.4598338;0.300554;-0.6398637;-0.5373961;28;-82;-24;-624;4740;633;65536;0.7234413;-0.2368421;0.4044321;0.5069252;28;-84;88;-837;4998;-991;8192;0.697995;-0.6426592;-0.2825485;-0.1412742;-20;-126;-32;724;5177;1015;32768;0.7610599;-0.5886427;-0.1246537;-0.2423823;4;-47;-45;620;4889;-1908;256;0.3462604;-0.2853186;-0.6108033;-0.6523929;-13;-71;-19;-465;4920;-601;128;-0.2853186;0.3808864;0.5720221;0.668064;6;-36;4;-1011;4665;1948;4;-0.1357341;0.1260388;-0.6800554;-0.7093766;48;5;-15;913;3824;-462;16;0.3531856;-0.7034075;0.2202216;0.5761772;75;-98;4;-429;2484;2998;2;0.6454294;-0.6831204;-0.0900277;-0.3296399;1;-44;-69;-1475;5578;-351;8;0.5055401;-0.7065735;0.4113573;0.2756233;-8;-17;16;679;5257;539;-0.1862353;2.496519;-0.7225993;-0.180259;3.041127;-0.7540352;-0.1750071;3.51972;-0.7836869;-0.2401919;4.250421;-0.7666427;-0.5269143;4.553082;-0.7971932;-0.8542829;4.381663;-0.7373235;-1.014513;3.490423;-0.9331424;-0.7898866;2.788863;-1.529089;-0.008628964;4.599321;-0.7971938;0.2917347;4.483904;-0.737324;0.420962;3.544153;-0.5686707;0.5608281;2.642929;-0.8256131;-0.498494;2.454075;-0.7276193;-0.4762294;0.9918678;-0.7757133;0;0;0;-0.498494;2.454075;-0.7276193;-0.4762294;0.9918678;-0.7757133;0;0;0
898199.0581;NotLabelled;16384;-0.4459834;0.2963989;-0.644555;-0.5457063;37;-99;-39;-438;4624;869;65536;0.709847;-0.234072;0.4210526;0.5138504;35;-127;98;-805;4894;-1055;8192;0.7040563;-0.6440443;-0.2686981;-0.1315789;-27;-117;-29;886;4893;771;32768;0.7627833;-0.5900277;-0.1260388;-0.232687;12;-42;-51;362;4707;-2016;256;0.3559557;-0.2894737;-0.6080332;-0.6479167;-17;-78;-14;-349;4712;-737;128;-0.2894737;0.3836565;0.5706371;0.6658723;3;-39;1;-831;4385;1618;4;-0.1357341;0.1301939;-0.6731302;-0.7152074;54;16;-14;99;3620;-646;16;0.3573407;-0.6968054;0.234072;0.5761772;87;-34;8;-2091;3484;2332;2;0.6551247;-0.6747839;-0.06371191;-0.333795;-20;-44;-78;-1403;5208;-87;8;0.5;-0.7086204;0.4155124;0.2742382;-13;3;23;123;5221;431;-0.1697196;2.514822;-0.7259259;-0.1637494;3.058863;-0.7659889;-0.1585032;3.536927;-0.8032215;-0.2342589;4.266731;-0.7928591;-0.5252971;4.564927;-0.8263859;-0.8502101;4.38934;-0.7652286;-0.9974685;3.495948;-0.9614289;-0.7690476;2.782691;-1.541847;-0.007734478;4.618654;-0.8263865;0.2942095;4.50814;-0.7652292;0.4250064;3.566544;-0.6084991;0.5795862;2.660305;-0.8378946;-0.481979;2.472303;-0.7302185;-0.4364429;1.010532;-0.7750294;0;0;0;-0.481979;2.472303;-0.7302185;-0.4364429;1.010532;-0.7750294;0;0;0
898220.6025;NotLabelled;16384;-0.4307479;0.2922437;-0.6485205;-0.5554016;43;-118;-56;-364;4552;1073;65536;0.6930469;-0.2271468;0.4404432;0.5235457;39;-163;105;-879;4586;-875;8192;0.709897;-0.6454294;-0.2548476;-0.1204986;-35;-107;-24;878;4593;565;32768;0.7649782;-0.5900277;-0.1301939;-0.2229917;22;-38;-51;426;4375;-1974;256;0.365651;-0.2950138;-0.6066482;-0.6412832;-19;-78;-9;-187;4502;-817;128;-0.2936288;0.3878116;0.566482;0.6651935;1;-38;1;-667;3997;1618;4;-0.132964;0.134349;-0.66759;-0.720135;55;0;-17;73;3764;-324;16;0.3711911;-0.6949763;0.2382271;0.567867;94;82;19;-1429;3272;2580;2;0.6606648;-0.6674248;-0.05401662;-0.3393352;-31;-27;-82;-1503;5058;311;8;0.4972299;-0.7116297;0.4155124;0.2714681;-18;8;24;121;4993;669;-0.1720242;2.536593;-0.7078483;-0.1660548;3.080567;-0.7488161;-0.1608094;3.558567;-0.7868438;-0.240968;4.287956;-0.7815576;-0.5337647;4.584155;-0.8173949;-0.8576725;4.407037;-0.7553309;-0.9935796;3.510514;-0.9453435;-0.7778971;2.785594;-1.516105;-0.01653504;4.641001;-0.8172919;0.2860106;4.53273;-0.7551023;0.4165026;3.590278;-0.6033412;0.5805393;2.681794;-0.816734;-0.4842838;2.494067;-0.7120644;-0.4100643;1.033535;-0.7589327;0;0;0;-0.4842838;2.494067;-0.7120644;-0.4100643;1.033535;-0.7589327;0;0;0
898240.126;NotLabelled;16384;-0.4099723;0.2880886;-0.6554335;-0.5650969;44;-137;-72;-200;4322;1153;65536;0.6719165;-0.2202216;0.4612188;0.536011;38;-185;108;-1109;4250;-787;8192;0.7168068;-0.6440443;-0.2437673;-0.1094183;-39;-98;-15;952;3993;445;32768;0.7683262;-0.5886427;-0.132964;-0.2132964;32;-50;-49;434;3955;-1898;256;0.3739612;-0.301939;-0.6038781;-0.6358594;-19;-77;-6;-201;4028;-855;128;-0.2977839;0.3919668;0.5637119;0.6632614;1;-33;2;-487;3789;1156;4;-0.1288089;0.1371191;-0.6620498;-0.7254631;46;0;-23;-75;3956;18;16;0.3905817;-0.6953667;0.2354571;0.5554016;101;128;24;481;3382;2344;2;0.667225;-0.6578947;-0.04570637;-0.3462604;-41;-27;-87;-1801;4654;549;8;0.4944598;-0.7140827;0.4155124;0.2700831;-21;3;23;3;4691;737;-0.163535;2.560438;-0.6973494;-0.1575635;3.104597;-0.7357842;-0.1523162;3.582769;-0.7715861;-0.2337905;4.312028;-0.7741296;-0.5270835;4.6073;-0.8133961;-0.8507335;4.430265;-0.7497665;-0.98124;3.529467;-0.9225656;-0.7808834;2.794121;-1.485523;-0.009957254;4.665077;-0.813397;0.292721;4.558021;-0.7497677;0.4301333;3.615617;-0.6039339;0.6075095;2.705239;-0.7976811;-0.4757943;2.517933;-0.7017794;-0.3748643;1.058808;-0.7421111;0;0;0;-0.4757943;2.517933;-0.7017794;-0.3748643;1.058808;-0.7421111;0;0;0
898260.9466;NotLabelled;16384;-0.3614958;0.2770083;-0.6739377;-0.5817174;35;-154;-96;286;3840;1093;65536;0.6240224;-0.2077562;0.5027701;0.5609418;35;-183;110;-1437;3696;-831;8192;0.721628;-0.6440443;-0.234072;-0.09833795;-41;-89;-6;940;3527;429;32768;0.7733024;-0.5858725;-0.1357341;-0.200831;39;-60;-45;408;3531;-1652;256;0.3822715;-0.3074792;-0.601108;-0.6308678;-21;-76;-4;-251;3728;-923;128;-0.300554;0.3947368;0.5623268;0.6615426;5;-28;1;-303;3393;1056;4;-0.1204986;0.1412742;-0.6592798;-0.7286096;14;-10;-26;279;3776;114;16;0.4196676;-0.6929002;0.2437673;0.533241;100;-2;18;2103;3584;1596;2;0.6743716;-0.6481994;-0.03601108;-0.3518005;-47;-27;-88;-1641;4056;555;8;0.4903047;-0.7164187;0.4155124;0.2714681;-25;-19;16;309;4091;877;-0.1563685;2.583046;-0.6854353;-0.1503964;3.127257;-0.7231322;-0.1451485;3.605477;-0.7582856;-0.2265265;4.334721;-0.7649538;-0.5197565;4.629805;-0.806052;-0.8434691;4.453171;-0.7416363;-0.9688587;3.547902;-0.8936095;-0.7851796;2.798964;-1.444201;-0.002622902;4.687516;-0.8060531;0.3000017;4.580778;-0.7416378;0.4469011;3.639438;-0.5982034;0.639272;2.728606;-0.7747443;-0.4686277;2.540547;-0.6899277;-0.3406112;1.083365;-0.7229331;0;0;0;-0.4686277;2.540547;-0.6899277;-0.3406112;1.083365;-0.7229331;0;0;0
898281.4723;NotLabelled;16384;-0.3365651;0.2714681;-0.6830292;-0.5886427;27;-145;-104;530;3704;925;65536;0.6011559;-0.200831;0.5221606;0.5706371;35;-163;112;-1585;3532;-721;8192;0.7333478;-0.6385041;-0.2202216;-0.07756232;-49;-72;6;824;3169;369;32768;0.7832444;-0.5803324;-0.1371191;-0.1759003;47;-59;-40;278;3257;-1218;256;0.398892;-0.3185596;-0.5969529;-0.6189122;-21;-71;-4;-73;3372;-811;128;-0.3088643;0.398892;0.5609418;0.6563782;16;-39;2;37;3127;1008;4;-0.1163435;0.1412742;-0.6592798;-0.7292846;3;-18;-22;295;3628;-288;16;0.4279778;-0.6870224;0.2576177;0.5277008;94;-32;11;419;3800;1376;2;0.6823632;-0.6371191;-0.02770083;-0.3573407;-47;-27;-86;-1481;3254;457;8;0.4861496;-0.7152409;0.4196676;0.2756233;-25;-62;6;623;3605;991;-0.1216268;2.630919;-0.6539769;-0.1156549;3.175122;-0.6917853;-0.1104071;3.653335;-0.7270367;-0.1930738;4.38238;-0.7380586;-0.486799;4.676696;-0.7810892;-0.8102409;4.499868;-0.7158464;-0.9384114;3.587791;-0.8159235;-0.8036069;2.807625;-1.336468;0.03023133;4.735325;-0.78109;0.3330016;4.629506;-0.7158473;0.4855687;3.68921;-0.5714827;0.6965586;2.778974;-0.728775;-0.433886;2.588418;-0.6584598;-0.2847038;1.132915;-0.6691585;0;0;0;-0.433886;2.588418;-0.6584598;-0.2847038;1.132915;-0.6691585;0;0;0
898301.0861;NotLabelled;16384;-0.3130194;0.267313;-0.6922091;-0.5927978;18;-131;-110;926;3574;733;65536;0.5775623;-0.1952908;0.5401662;0.5800894;35;-137;114;-1743;3432;-619;8192;0.7379374;-0.6357341;-0.2160665;-0.06786703;-53;-59;7;772;3035;373;32768;0.788461;-0.5761772;-0.1385041;-0.1648199;52;-62;-36;826;3119;-790;256;0.4058172;-0.3227147;-0.5941828;-0.6149101;-13;-58;-6;-15;3220;-703;128;-0.3157895;0.4016621;0.5595568;0.6525648;25;-50;3;53;3127;1074;4;-0.1108033;0.1412742;-0.6606648;-0.7288939;-3;-22;-17;745;3506;-418;16;0.434903;-0.6815868;0.2686981;0.5235457;87;-20;10;-465;3708;1266;2;0.6938754;-0.6177285;-0.01385042;-0.3698061;-43;-4;-72;-1717;2356;-55;8;0.4709141;-0.7054187;0.4390582;0.2963989;-34;-123;-14;1317;2371;1765;-0.07809761;2.655307;-0.6443095;-0.07212877;3.199225;-0.6860246;-0.06688392;3.677172;-0.724709;-0.1500764;4.405883;-0.7475568;-0.4439431;4.699243;-0.7958294;-0.7673711;4.523232;-0.7283499;-0.8948441;3.608851;-0.8057275;-0.766296;2.815373;-1.307389;0.07304239;4.758267;-0.7958304;0.3757721;4.653743;-0.7283514;0.5502645;3.7181;-0.5786863;0.7948665;2.811;-0.7016802;-0.3903571;2.612776;-0.6484625;-0.2368419;1.157689;-0.6449729;0;0;0;-0.3903571;2.612776;-0.6484625;-0.2368419;1.157689;-0.6449729;0;0;0
898321.9403;NotLabelled;16384;-0.2894737;0.2645429;-0.7010856;-0.5955678;11;-111;-114;926;3456;551;65536;0.5567867;-0.1939058;0.5567867;0.5851305;36;-109;120;-1683;3336;-619;8192;0.7434074;-0.6315789;-0.2119114;-0.05955679;-56;-48;6;632;3049;425;32768;0.7942148;-0.5720221;-0.1371191;-0.1523546;55;-73;-35;892;3229;-650;256;0.4127424;-0.3268698;-0.5927978;-0.6094183;-14;-56;-11;-201;3112;-425;128;-0.3240997;0.4058172;0.5595568;0.6458855;31;-55;6;163;3247;884;4;-0.1080332;0.1398892;-0.6620498;-0.7283199;-9;-22;-15;555;3642;-438;16;0.4432133;-0.6754943;0.2783934;0.5193906;82;-11;9;-93;3656;970;2;0.6975771;-0.6094183;-0.008310249;-0.3767313;-37;-1;-64;-1801;2326;-317;8;0.4626039;-0.70033;0.4473684;0.3088643;-50;-112;-22;1027;2247;2439;-0.05427328;2.674423;-0.6318295;-0.0483072;3.218094;-0.6766312;-0.0430648;3.695815;-0.7180278;-0.1278221;4.424232;-0.7442396;-0.422297;4.716731;-0.7940015;-0.7453792;4.540329;-0.7258892;-0.8781244;3.624868;-0.7772444;-0.7680843;2.817288;-1.260466;0.09455922;4.776875;-0.7940024;0.3974785;4.673315;-0.7258902;0.5821399;3.740593;-0.5703127;0.8442888;2.836412;-0.6776488;-0.3665331;2.631868;-0.6357217;-0.213154;1.176871;-0.6179536;0;0;0;-0.3665331;2.631868;-0.6357217;-0.213154;1.176871;-0.6179536;0;0;0
898342.0414;NotLabelled;16384;-0.267313;0.2645429;-0.7086663;-0.5969529;5;-91;-113;1098;3524;483;65536;0.5387812;-0.1925208;0.5734072;0.5863913;37;-84;129;-1689;3418;-631;8192;0.7494726;-0.6260388;-0.2091413;-0.05124654;-55;-45;5;338;3113;427;32768;0.8006954;-0.566482;-0.1371191;-0.1385041;57;-79;-35;736;3431;-538;256;0.4196676;-0.3296399;-0.5900277;-0.6058746;-15;-53;-13;-515;3210;-315;128;-0.333795;0.4085872;0.5581717;0.6403762;36;-59;7;157;3417;1020;4;-0.1038781;0.1371191;-0.6634349;-0.7281908;-8;-24;-17;525;3690;-542;16;0.4501385;-0.6700095;0.2880886;0.5152354;78;-23;10;-291;3584;1304;2;0.7013633;-0.602493;-0.004155125;-0.3808864;-33;-10;-57;-2227;2512;-865;8;0.4542936;-0.69595;0.4529086;0.3227147;-63;-79;-34;-119;2731;2313;-0.03116812;2.693254;-0.6088722;-0.02520768;3.236409;-0.6595483;-0.01997051;3.713654;-0.7061067;-0.1046645;4.441841;-0.7382646;-0.3990774;4.733943;-0.7906569;-0.7222326;4.558111;-0.7214285;-0.861344;3.642455;-0.7449265;-0.7703115;2.820436;-1.207308;0.117782;4.794061;-0.7906582;0.4206319;4.69104;-0.7214301;0.6177133;3.761464;-0.5623015;0.8969631;2.860926;-0.6563084;-0.3434284;2.65066;-0.6122671;-0.1934108;1.195403;-0.5881579;0;0;0;-0.3434284;2.65066;-0.6122671;-0.1934108;1.195403;-0.5881579;0;0;0
898362.9467;NotLabelled;16384;-0.2493075;0.2631579;-0.7157101;-0.5969529;0;-77;-108;1016;3704;337;65536;0.5207756;-0.1952908;0.5921535;0.5831025;41;-66;140;-1731;3620;-669;8192;0.7545045;-0.6218836;-0.2049861;-0.04432133;-50;-50;2;156;3283;491;32768;0.806118;-0.5623268;-0.1357341;-0.1246537;55;-81;-36;804;3639;-456;256;0.4265928;-0.33241;-0.5872576;-0.6022049;-12;-53;-16;-817;3470;-297;128;-0.3421052;0.4113573;0.5567867;0.6354036;37;-58;8;69;3587;1102;4;-0.09141274;0.134349;-0.666205;-0.7278495;-6;-34;-27;355;3704;-502;16;0.4639889;-0.6573259;0.3047091;0.5096953;80;-25;5;-457;3550;1678;2;0.7045942;-0.5969529;0.001385042;-0.3836565;-23;-39;-48;-2199;2906;-867;8;0.4473684;-0.6965672;0.4487534;0.3365651;-65;-24;-52;-1385;2993;2235;-0.009412408;2.709726;-0.5867294;-0.00345771;3.252357;-0.6427406;0.001774162;3.729123;-0.6939865;-0.08583783;4.456791;-0.7298378;-0.3813951;4.747436;-0.7838628;-0.70388;4.570649;-0.7139434;-0.849219;3.655677;-0.7080359;-0.7811884;2.821891;-1.152973;0.1352172;4.80964;-0.7838639;0.4384385;4.708189;-0.7139449;0.6509271;3.782848;-0.5500365;0.9503573;2.88729;-0.6281674;-0.321673;2.667101;-0.589672;-0.1741733;1.211686;-0.560185;0;0;0;-0.321673;2.667101;-0.589672;-0.1741733;1.211686;-0.560185;0;0;0
898403.9581;NotLabelled;16384;-0.2022161;0.2617728;-0.7331647;-0.5941828;-9;-69;-77;780;4678;-109;65536;0.4639889;-0.2132964;0.6467744;0.566482;59;-56;189;-1865;5036;-849;8192;0.7668604;-0.6135734;-0.1869806;-0.02216066;-31;-67;-5;670;4081;1011;32768;0.8167871;-0.5540166;-0.1315789;-0.09279778;39;-57;-25;1094;4099;-362;256;0.4556787;-0.3462604;-0.5720221;-0.587581;-5;-67;-8;-675;4180;-221;128;-0.3628809;0.4182825;0.5526316;0.6228608;29;-40;4;-129;4125;1164;4;-0.07756232;0.1315789;-0.6703601;-0.7261462;-5;-40;-25;223;4026;-502;16;0.4722992;-0.6405469;0.3268698;0.5096953;77;-62;-8;-643;4028;952;2;0.7130665;-0.5900277;0.02077562;-0.3781163;-9;-102;-35;-2185;3382;-485;8;0.4459834;-0.7037742;0.4196676;0.3601108;-64;55;-66;-215;3001;2641;0.00867112;2.736895;-0.5505078;0.01462054;3.279045;-0.6110007;0.01984757;3.75537;-0.6661839;-0.07054947;4.482497;-0.7058964;-0.3671915;4.771712;-0.761627;-0.6890366;4.594049;-0.6909865;-0.8422183;3.680756;-0.6634026;-0.8049081;2.833664;-1.086299;0.1491769;4.835911;-0.7616285;0.4527421;4.736;-0.690989;0.6762952;3.813735;-0.5244803;0.9920635;2.922629;-0.5877968;-0.3035897;2.694248;-0.5530699;-0.1571148;1.239338;-0.5016795;0;0;0;-0.3035897;2.694248;-0.5530699;-0.1571148;1.239338;-0.5016795;0;0;0
898425.1019;NotLabelled;16384;-0.1883656;0.2590028;-0.7400452;-0.5914127;-7;-74;-67;716;4782;-129;65536;0.4404432;-0.2188366;0.6694094;0.5567867;69;-71;202;-1949;5562;-773;8192;0.769814;-0.6121883;-0.1800554;-0.01385042;-27;-67;-4;948;4095;995;32768;0.8189216;-0.5526316;-0.1288089;-0.08587258;32;-54;-13;1074;4051;-348;256;0.4626039;-0.3504155;-0.567867;-0.583724;-6;-67;-6;-877;4432;-81;128;-0.368421;0.4210526;0.5526316;0.6177208;22;-31;0;73;4557;1102;4;-0.07202215;0.1274238;-0.6717451;-0.726178;-7;-47;-13;629;4486;-522;16;0.4764543;-0.6305378;0.3379501;0.5110803;69;-55;-7;-257;4316;486;2;0.7283107;-0.5844875;0.04709141;-0.3545706;-12;-135;-15;-2019;3258;75;8;0.4404432;-0.7115327;0.3891967;0.3850415;-76;7;-82;271;3315;2895;0.05837891;2.760155;-0.5343314;0.06431362;3.300966;-0.6058147;0.06952727;3.776073;-0.6706537;-0.03248006;4.50091;-0.7223071;-0.3336147;4.784362;-0.7833068;-0.6527163;4.602689;-0.7104492;-0.8317091;3.697339;-0.629001;-0.8857273;2.81545;-0.9712715;0.1816512;4.856879;-0.7833076;0.486625;4.763035;-0.7104499;0.7301303;3.847686;-0.5340531;1.079289;2.967;-0.5504175;-0.2538824;2.717465;-0.5359581;-0.1181354;1.263121;-0.4504409;0;0;0;-0.2538824;2.717465;-0.5359581;-0.1181354;1.263121;-0.4504409;0;0;0
898445.9892;NotLabelled;16384;-0.1731302;0.2562327;-0.7447159;-0.5914127;-3;-82;-59;522;4768;-105;65536;0.4127424;-0.2216066;0.6926094;0.5484765;79;-97;210;-2045;6024;-603;8192;0.7722908;-0.6108033;-0.1745152;-0.005540166;-22;-62;-6;1158;3987;1031;32768;0.8201259;-0.5526316;-0.1246537;-0.08033241;23;-57;-3;1038;4011;-462;256;0.468144;-0.3559557;-0.5637119;-0.5799704;-5;-62;-7;-1089;4880;-103;128;-0.3725762;0.4224377;0.5512465;0.6155166;15;-36;-1;495;4959;1168;4;-0.06509695;0.1218837;-0.6745152;-0.7252145;-15;-56;2;1155;5306;-364;16;0.4806094;-0.6231918;0.3476454;0.5096953;59;-46;-2;473;4944;36;2;0.7373874;-0.5803324;0.05817174;-0.3407202;-14;-123;-4;-2179;3202;697;8;0.434903;-0.7117699;0.3795014;0.400277;-81;-18;-95;211;3341;3207;0.06661701;2.770956;-0.5096522;0.0725451;3.311166;-0.5855486;0.07775283;3.785727;-0.6542647;-0.02622667;4.510108;-0.7083443;-0.3281124;4.792526;-0.7704129;-0.6467464;4.610214;-0.6971064;-0.8384234;3.70877;-0.6023015;-0.9393374;2.819774;-0.9142303;0.1869518;4.866463;-0.7704141;0.4921488;4.7737;-0.6971081;0.7403142;3.86008;-0.5182512;1.094991;2.98148;-0.5256112;-0.2456444;2.728254;-0.5109022;-0.113193;1.273913;-0.4203089;0;0;0;-0.2456444;2.728254;-0.5109022;-0.113193;1.273913;-0.4203089;0;0;0
898468.0995;NotLabelled;16384;-0.1592798;0.2506925;-0.749676;-0.5914127;3;-93;-53;296;5022;29;65536;0.3836565;-0.2216066;0.7165285;0.5387812;88;-125;211;-2233;6528;-415;8192;0.7749342;-0.6094183;-0.16759;0;-21;-56;-9;1104;4123;1115;32768;0.8214721;-0.5526316;-0.1191136;-0.07479224;14;-57;5;838;4255;-620;256;0.4750692;-0.3601108;-0.5609418;-0.5744334;-3;-57;-10;-1417;5292;-147;128;-0.3781163;0.4252077;0.5512465;0.6102079;16;-43;-1;573;5387;1128;4;-0.05955679;0.1135734;-0.6786703;-0.7231602;-28;-61;16;1811;5916;-98;16;0.4819945;-0.6182004;0.3545706;0.5096953;47;-31;4;1057;5760;-280;2;0.7450893;-0.5775623;0.06648199;-0.3268698;-15;-111;9;-2119;3580;939;8;0.4307479;-0.7082223;0.3698061;0.4196676;-83;-24;-105;-161;3737;3287;0.08518286;2.7809;-0.4880396;0.09110831;3.320869;-0.5656235;0.09631369;3.795215;-0.6358218;-0.007380128;4.519585;-0.6905724;-0.3091491;4.802063;-0.7529366;-0.6278627;4.619941;-0.6795062;-0.8259959;3.72158;-0.5698699;-0.9748337;2.828333;-0.8487173;0.2059434;4.875802;-0.7529378;0.511095;4.782988;-0.6795079;0.7630938;3.871443;-0.495501;1.119632;2.993567;-0.4969565;-0.2270786;2.738194;-0.4891455;-0.102634;1.283506;-0.3929439;0;0;0;-0.2270786;2.738194;-0.4891455;-0.102634;1.283506;-0.3929439;0;0;0
898488.9476;NotLabelled;16384;-0.1288089;0.2354571;-0.7582315;-0.5941828;6;-115;-43;-312;6014;401;65536;0.3185596;-0.2091413;0.7639192;0.5207756;94;-179;188;-2663;7056;129;8192;0.7774464;-0.6094183;-0.1551246;0.01108033;-7;-61;-16;936;4781;1425;32768;0.8238262;-0.5526316;-0.1080332;-0.06509695;-3;-50;18;654;4635;-788;256;0.4806094;-0.3642659;-0.5567867;-0.5712386;3;-57;-9;-1459;5294;-97;128;-0.3836565;0.4293629;0.5484765;0.606324;7;-50;-1;173;5315;1220;4;-0.0567867;0.09418282;-0.6855956;-0.7196274;-28;-39;32;1387;3754;-756;16;0.4861496;-0.6118718;0.365651;0.5055401;28;-10;11;-827;4142;94;2;0.751566;-0.5761772;0.07202215;-0.3130194;-13;-98;27;-2061;4110;923;8;0.4265928;-0.7056851;0.3601108;0.4362881;-81;-12;-109;-263;3979;3117;0.1092846;2.787571;-0.4708471;0.1152027;3.326873;-0.5529478;0.1204014;3.800614;-0.6271139;0.01670361;4.524583;-0.6869305;-0.2850265;4.806601;-0.7515259;-0.6037976;4.624959;-0.6771617;-0.8089162;3.729371;-0.5580851;-1.008306;2.836644;-0.8052264;0.2300599;4.880383;-0.7515269;0.5351466;4.788101;-0.6771629;0.7899483;3.877363;-0.4930212;1.148159;3.00017;-0.4904367;-0.2029769;2.744858;-0.4715669;-0.09312422;1.288857;-0.377497;0;0;0;-0.2029769;2.744858;-0.4715669;-0.09312422;1.288857;-0.377497;0;0;0
898509.5874;NotLabelled;16384;-0.1121884;0.2243767;-0.7631303;-0.5955678;0;-131;-46;-818;6000;649;65536;0.2867036;-0.1952908;0.7846147;0.5138504;88;-202;157;-3107;6286;429;8192;0.7778744;-0.6108033;-0.1468144;0.0166205;0;-64;-21;1192;4603;1579;32768;0.8228849;-0.5554016;-0.1024931;-0.06232687;-11;-40;27;522;4073;-870;256;0.4861496;-0.368421;-0.5512465;-0.5692555;11;-63;-4;-1011;4626;161;128;-0.3878116;0.434903;0.5443213;0.6034698;-16;-57;0;-365;4669;1484;4;-0.05817174;0.08587258;-0.6883656;-0.7179099;-22;-28;31;895;3592;-734;16;0.4889196;-0.6091397;0.368421;0.5041551;22;-14;14;-1041;3916;650;2;0.7579696;-0.5747922;0.07479224;-0.299169;-9;-87;45;-2149;4320;1189;8;0.4224377;-0.7030693;0.3476454;0.4542936;-77;-2;-108;-97;3969;2895;0.1530273;2.800745;-0.410051;0.1589433;3.339851;-0.4934255;0.1641401;3.813416;-0.5687106;0.05924007;4.53713;-0.629506;-0.2429501;4.818556;-0.6945321;-0.5614303;4.636477;-0.6199878;-0.7714738;3.745412;-0.477818;-1.07355;2.865226;-0.6561993;0.2720119;4.893201;-0.6945334;0.5772387;4.801529;-0.6199893;0.8350215;3.891156;-0.4382067;1.195898;3.015054;-0.4370499;-0.1592343;2.75803;-0.4106619;-0.07665746;1.298604;-0.346523;0;0;0;-0.1592343;2.75803;-0.4106619;-0.07665746;1.298604;-0.346523;0;0;0
898530.9638;NotLabelled;16384;-0.09279778;0.2132964;-0.7688902;-0.5955678;-7;-148;-55;-1222;5490;1049;65536;0.2562327;-0.1772853;0.8028296;0.5083103;73;-209;116;-3211;5186;575;8192;0.7781715;-0.6121883;-0.1385041;0.02216066;5;-60;-21;1316;3967;1519;32768;0.8220032;-0.5581717;-0.09418282;-0.06232687;-19;-34;37;446;3391;-1020;256;0.4958449;-0.3808864;-0.5429363;-0.5606101;-1;-57;10;-593;3866;-229;128;-0.3905817;0.4473684;0.534626;0.6012341;-17;-30;-7;-583;3843;868;4;-0.05955679;0.07894737;-0.6897507;-0.7172617;-16;-14;26;423;3862;-532;16;0.4889196;-0.6077556;0.3725762;0.5027701;20;-14;16;-541;3878;1012;2;0.7682625;-0.5761772;0.07479224;-0.2686981;-9;-82;67;-1711;3684;1037;8;0.4168975;-0.6988533;0.3227147;0.4833795;-77;20;-91;-313;3991;2389;0.1720409;2.805447;-0.3810819;0.1779594;3.344775;-0.4630085;0.1831582;3.81854;-0.5370218;0.07542428;4.541932;-0.5966906;-0.2278752;4.822276;-0.6612207;-0.5456265;4.638844;-0.5868834;-0.7596734;3.749977;-0.4371199;-1.102175;2.879815;-0.5897816;0.2867919;4.898929;-0.6612223;0.5923907;4.808333;-0.5868857;0.8468701;3.896784;-0.4063472;1.20257;3.018571;-0.4040009;-0.1402207;2.762735;-0.3818166;-0.07078451;1.301967;-0.3349585;0;0;0;-0.1402207;2.762735;-0.3818166;-0.07078451;1.301967;-0.3349585;0;0;0
898572.1246;NotLabelled;16384;-0.04847645;0.1855956;-0.7832211;-0.5914127;-21;-164;-69;-612;4124;995;65536;0.2105263;-0.1371191;0.8245628;0.5069252;34;-164;46;-2499;3654;-97;8192;0.7777696;-0.6149584;-0.1260388;0.03185596;0;-50;-18;1046;2731;1039;32768;0.8198499;-0.5637119;-0.07756232;-0.06371191;-29;-36;56;232;2537;-1308;256;0.5;-0.3933518;-0.5387812;-0.5522583;9;-33;18;-503;3314;-465;128;-0.3905817;0.4542936;0.5318559;0.5984918;-11;-17;-15;-75;3303;790;4;-0.05955679;0.06925207;-0.6925207;-0.7155922;-18;-27;16;-183;3930;-84;16;0.4875346;-0.6059996;0.3808864;0.5;23;-17;16;-65;3774;1230;2;0.7802076;-0.5747922;0.06925207;-0.2368421;-19;-70;79;-1223;3082;1615;8;0.4155124;-0.6989837;0.2908587;0.5041551;-78;52;-77;-177;3797;2051;0.199088;2.8086;-0.3601935;0.2050207;3.349222;-0.4330893;0.2102325;3.824159;-0.4991693;0.1061242;4.548032;-0.5594288;-0.1957622;4.829838;-0.6242192;-0.5144353;4.648057;-0.5497734;-0.7382033;3.762796;-0.3930229;-1.111701;2.903343;-0.5331559;0.3192818;4.903915;-0.6242204;0.6244152;4.811852;-0.5497749;0.8716768;3.899103;-0.3653182;1.221364;3.018483;-0.3614511;-0.1131733;2.765906;-0.3616996;-0.0517366;1.304396;-0.3289386;0;0;0;-0.1131733;2.765906;-0.3616996;-0.0517366;1.304396;-0.3289386;0;0;0
898593.0417;NotLabelled;16384;-0.01246537;0.1634349;-0.7946748;-0.5844875;-25;-90;-66;794;3728;409;65536;0.1925208;-0.1038781;0.8295196;0.5138504;9;-72;6;-2373;3324;-207;8192;0.7784796;-0.6163435;-0.1121884;0.03878116;-5;-43;-19;1000;2477;885;32768;0.8164206;-0.5706371;-0.0567867;-0.06786703;-28;-38;68;256;2767;-1370;256;0.5;-0.3975069;-0.5373961;-0.5506302;13;-26;19;-473;3092;-159;128;-0.3905817;0.4570637;0.5304709;0.5976114;-12;-14;-16;85;3173;890;4;-0.0567867;0.06094183;-0.6980609;-0.7111767;-21;-19;9;47;3790;-166;16;0.4875346;-0.6041306;0.3891967;0.4958449;26;-12;16;21;3652;1142;2;0.7861524;-0.5734072;0.06371191;-0.2216066;-27;-59;80;-1231;3126;1725;8;0.4141274;-0.7004792;0.2742382;0.5124654;-76;47;-71;69;3747;1893;0.2345746;2.813169;-0.3296279;0.2405119;3.354216;-0.3992958;0.2457279;3.829538;-0.4625401;0.151822;4.55486;-0.5221557;-0.1460714;4.840947;-0.5866625;-0.4672656;4.663609;-0.5123352;-0.7102073;3.788552;-0.3290756;-1.1176;2.941706;-0.450242;0.3699653;4.90776;-0.5866638;0.6737797;4.811343;-0.5123369;0.9139266;3.896768;-0.3275205;1.251663;3.011578;-0.3401548;-0.0776867;2.770485;-0.3314091;-0.02815814;1.308234;-0.3163209;0;0;0;-0.0776867;2.770485;-0.3314091;-0.02815814;1.308234;-0.3163209;0;0;0
