SEP=;
index;label;RightUpperArm_boneIndex;RightUpperArm_quat9x_w;RightUpperArm_quat9x_x;RightUpperArm_quat9x_y;RightUpperArm_quat9x_z;RightUpperArm_gyroscope_x;RightUpperArm_gyroscope_y;RightUpperArm_gyroscope_z;RightUpperArm_accelerometer_x;RightUpperArm_accelerometer_y;RightUpperArm_accelerometer_z;RightLowerArm_boneIndex;RightLowerArm_quat9x_w;RightLowerArm_quat9x_x;RightLowerArm_quat9x_y;RightLowerArm_quat9x_z;RightLowerArm_gyroscope_x;RightLowerArm_gyroscope_y;RightLowerArm_gyroscope_z;RightLowerArm_accelerometer_x;RightLowerArm_accelerometer_y;RightLowerArm_accelerometer_z;LeftUpperArm_boneIndex;LeftUpperArm_quat9x_w;LeftUpperArm_quat9x_x;LeftUpperArm_quat9x_y;LeftUpperArm_quat9x_z;LeftUpperArm_gyroscope_x;LeftUpperArm_gyroscope_y;LeftUpperArm_gyroscope_z;LeftUpperArm_accelerometer_x;LeftUpperArm_accelerometer_y;LeftUpperArm_accelerometer_z;LeftLowerArm_boneIndex;LeftLowerArm_quat9x_w;LeftLowerArm_quat9x_x;LeftLowerArm_quat9x_y;LeftLowerArm_quat9x_z;LeftLowerArm_gyroscope_x;LeftLowerArm_gyroscope_y;LeftLowerArm_gyroscope_z;LeftLowerArm_accelerometer_x;LeftLowerArm_accelerometer_y;LeftLowerArm_accelerometer_z;Chest_boneIndex;Chest_quat9x_w;Chest_quat9x_x;Chest_quat9x_y;Chest_quat9x_z;Chest_gyroscope_x;Chest_gyroscope_y;Chest_gyroscope_z;Chest_accelerometer_x;Chest_accelerometer_y;Chest_accelerometer_z;Spine_boneIndex;Spine_quat9x_w;Spine_quat9x_x;Spine_quat9x_y;Spine_quat9x_z;Spine_gyroscope_x;Spine_gyroscope_y;Spine_gyroscope_z;Spine_accelerometer_x;Spine_accelerometer_y;Spine_accelerometer_z;RightUpperLeg_boneIndex;RightUpperLeg_quat9x_w;RightUpperLeg_quat9x_x;RightUpperLeg_quat9x_y;RightUpperLeg_quat9x_z;RightUpperLeg_gyroscope_x;RightUpperLeg_gyroscope_y;RightUpperLeg_gyroscope_z;RightUpperLeg_accelerometer_x;RightUpperLeg_accelerometer_y;RightUpperLeg_accelerometer_z;RightLowerLeg_boneIndex;RightLowerLeg_quat9x_w;RightLowerLeg_quat9x_x;RightLowerLeg_quat9x_y;RightLowerLeg_quat9x_z;RightLowerLeg_gyroscope_x;RightLowerLeg_gyroscope_y;RightLowerLeg_gyroscope_z;RightLowerLeg_accelerometer_x;RightLowerLeg_accelerometer_y;RightLowerLeg_accelerometer_z;LeftUpperLeg_boneIndex;LeftUpperLeg_quat9x_w;LeftUpperLeg_quat9x_x;LeftUpperLeg_quat9x_y;LeftUpperLeg_quat9x_z;LeftUpperLeg_gyroscope_x;LeftUpperLeg_gyroscope_y;LeftUpperLeg_gyroscope_z;LeftUpperLeg_accelerometer_x;LeftUpperLeg_accelerometer_y;LeftUpperLeg_accelerometer_z;LeftLowerLeg_boneIndex;LeftLowerLeg_quat9x_w;LeftLowerLeg_quat9x_x;LeftLowerLeg_quat9x_y;LeftLowerLeg_quat9x_z;LeftLowerLeg_gyroscope_x;LeftLowerLeg_gyroscope_y;LeftLowerLeg_gyroscope_z;LeftLowerLeg_accelerometer_x;LeftLowerLeg_accelerometer_y;LeftLowerLeg_accelerometer_z;pelvis_x;pelvis_y;pelvis_z;lowerSpine_x;lowerSpine_y;lowerSpine_z;middleSpine_x;middleSpine_y;middleSpine_z;upperSpine_x;upperSpine_y;upperSpine_z;rightClavicle_x;rightClavicle_y;rightClavicle_z;rightShoulder_x;rightShoulder_y;rightShoulder_z;rightElbow_x;rightElbow_y;rightElbow_z;rightWrist_x;rightWrist_y;rightWrist_z;leftClavicle_x;leftClavicle_y;leftClavicle_z;leftShoulder_x;leftShoulder_y;leftShoulder_z;leftElbow_x;leftElbow_y;leftElbow_z;leftWrist_x;leftWrist_y;leftWrist_z;rightHip_x;rightHip_y;rightHip_z;rightKnee_x;rightKnee_y;rightKnee_z;rightAnkle_x;rightAnkle_y;rightAnkle_z;leftHip_x;leftHip_y;leftHip_z;leftKnee_x;leftKnee_y;leftKnee_z;leftAnkle_x;leftAnkle_y;leftAnkle_z;
218888.0306;NotLabelled;16384;0.7620989;-0.6398892;0.05540166;0.08171745;0;-12;0;176;4006;599;65536;0.7591481;-0.6108033;-0.1385041;0.1772853;6;-12;1;-1707;3680;-663;8192;0.2506925;-0.232687;-0.7032398;-0.6232687;0;-11;-2;76;4057;481;32768;-0.365651;0.09972299;0.6468144;0.661805;-5;-12;1;1467;3841;-534;256;-0.3102493;0.367036;-0.5761772;-0.6610974;3;-9;0;-131;3988;-527;128;0.3808864;-0.4279778;0.4376731;0.6929666;-1;-9;-2;-645;3913;1268;4;0.710884;-0.6745152;0.1177285;0.1606648;0;-9;-1;289;4046;100;16;0.566482;-0.6401485;-0.3199446;-0.4085872;-1;-2;-1;277;4036;588;2;0.1218837;-0.06786703;-0.7171386;-0.6828254;0;-6;2;-249;4082;233;8;0.5290859;-0.6388015;-0.367036;-0.4210526;-2;-1;-1;-99;4067;721;0.6831199;-0.1766503;0.3196856;0.6890885;0.3672428;0.3617097;0.6943365;0.8454804;0.396632;0.6846055;1.571799;0.5006995;0.4215361;1.89656;0.5092031;0.08224082;1.744239;0.5518224;-0.04526798;0.8321705;0.4508219;0;0;0;0.9418334;1.903533;0.5092022;1.232707;1.759658;0.5518211;1.338468;0.8020105;0.5523859;1.395743;-0.07828522;0.2065731;0.3708732;-0.2180047;0.3085483;0.3374601;-1.676563;0.197419;0.2495742;-3.004906;0.3976873;0.3708732;-0.2180047;0.3085483;0.3374601;-1.676563;0.197419;0.2495742;-3.004906;0.3976873
218908.0253;NotLabelled;16384;0.7618471;-0.6398892;0.0567867;0.08310249;0;-13;0;200;4024;647;65536;0.7590748;-0.6108033;-0.1371191;0.1786704;5;-13;1;-1723;3670;-657;8192;0.2520775;-0.234072;-0.7022844;-0.6232687;0;-11;-2;36;4095;515;32768;-0.367036;0.101108;0.6454294;0.6621802;-5;-11;1;1399;3877;-516;256;-0.3088643;0.367036;-0.5761772;-0.6617456;2;-10;0;-93;4076;-567;128;0.3795014;-0.4279778;0.4376731;0.6937261;-1;-9;-2;-671;3863;1304;4;0.710884;-0.6745152;0.1177285;0.1606648;0;-4;0;283;4082;130;16;0.566482;-0.6410304;-0.3199446;-0.4072022;0;-1;-1;199;4048;590;2;0.1232687;-0.06786703;-0.7169019;-0.6828254;0;-6;2;-249;4110;235;8;0.5290859;-0.6388015;-0.367036;-0.4210526;-3;-1;-1;-93;4029;703;0.6803576;-0.1763062;0.3156528;0.6863251;0.3674896;0.3589249;0.6915722;0.8456452;0.3949444;0.6823227;1.571787;0.5002757;0.4194658;1.896705;0.5093645;0.08007446;1.744532;0.5517451;-0.04557382;0.832207;0.4507229;0;0;0;0.9397675;1.90334;0.5093356;1.230551;1.759201;0.5516816;1.338501;0.8018057;0.5556551;1.397811;-0.07851911;0.2102584;0.3681111;-0.2176349;0.3044129;0.3300863;-1.676169;0.1944607;0.2413211;-3.004513;0.3943407;0.3681111;-0.2176349;0.3044129;0.3300863;-1.676169;0.1944607;0.2413211;-3.004513;0.3943407
218949.0195;NotLabelled;16384;0.7613283;-0.6398892;0.05955679;0.08587258;1;-13;0;238;4038;643;65536;0.7591569;-0.6108033;-0.132964;0.1814404;4;-13;2;-1737;3650;-665;8192;0.2562327;-0.2368421;-0.7010787;-0.6218836;0;-11;-4;126;4061;471;32768;-0.3711911;0.1052632;0.6440443;0.6605632;-2;-11;2;1413;3885;-538;256;-0.3060942;0.3642659;-0.5775623;-0.6633539;1;-9;0;-75;4050;-531;128;0.3781163;-0.4252077;0.4390582;0.6953088;0;-8;-2;-651;3925;1232;4;0.7103387;-0.6745152;0.1191136;0.1620499;0;-5;0;281;4052;144;16;0.566482;-0.6410304;-0.3199446;-0.4072022;-1;0;-1;193;4046;590;2;0.1232687;-0.07063711;-0.7166343;-0.6828254;0;-6;2;-221;4068;211;8;0.5290859;-0.640505;-0.365651;-0.4196676;-2;0;-1;-65;4019;741;0.6816669;-0.1751363;0.3132412;0.6876333;0.3685632;0.3577017;0.6928795;0.8466396;0.3947666;0.6825879;1.572584;0.501358;0.419266;1.897109;0.5110023;0.0800918;1.744377;0.5531076;-0.04569222;0.8322282;0.4506731;0;0;0;0.9395576;1.904488;0.5110015;1.230545;1.760692;0.5531065;1.337251;0.8031492;0.5541403;1.394295;-0.07712173;0.208227;0.3694207;-0.2164402;0.3019035;0.3316272;-1.674975;0.1918716;0.2457693;-3.00347;0.3920111;0.3694207;-0.2164402;0.3019035;0.3316272;-1.674975;0.1918716;0.2457693;-3.00347;0.3920111
218990.0392;NotLabelled;16384;0.7610611;-0.6398892;0.06094183;0.08725762;1;-13;-1;294;4056;653;65536;0.759066;-0.6108033;-0.1315789;0.1828255;4;-12;3;-1803;3666;-683;8192;0.2576177;-0.2368421;-0.7005709;-0.6218836;-2;-9;-3;138;4127;447;32768;-0.3725762;0.1066482;0.6440443;0.6595606;-1;-9;3;1455;3871;-526;256;-0.3047091;0.3642659;-0.5775623;-0.6639913;1;-9;0;-107;4040;-583;128;0.3767313;-0.4238227;0.4390582;0.6969044;0;-8;-2;-675;3907;1316;4;0.7103387;-0.6745152;0.1191136;0.1620499;1;-3;0;323;4074;156;16;0.566482;-0.6410304;-0.3199446;-0.4072022;-1;0;-1;203;4048;584;2;0.1232687;-0.07202215;-0.7164963;-0.6828254;0;-5;2;-223;4084;237;8;0.5277008;-0.6416466;-0.365651;-0.4196676;-2;-1;-1;-135;4019;681;0.6802851;-0.1739032;0.3121331;0.6862516;0.3698111;0.3564168;0.6914981;0.847899;0.3933262;0.6808447;1.573815;0.5000732;0.4173611;1.898207;0.5097878;0.07826328;1.745296;0.5518614;-0.04641308;0.8330312;0.4491117;0;0;0;0.9376491;1.905846;0.5097871;1.228709;1.762185;0.5518606;1.336069;0.8047152;0.5515187;1.394287;-0.07556295;0.2058196;0.368039;-0.2152107;0.30081;0.3320523;-1.673803;0.1909361;0.2444183;-3.002298;0.3903046;0.368039;-0.2152107;0.30081;0.3320523;-1.673803;0.1909361;0.2444183;-3.002298;0.3903046
219011.0739;NotLabelled;16384;0.7593439;-0.6412742;0.06371191;0.0900277;1;-11;-2;268;4084;629;65536;0.7592062;-0.6108033;-0.1288089;0.1842105;3;-11;4;-1845;3626;-681;8192;0.2590028;-0.2382271;-0.69959;-0.6218836;-1;-9;-3;138;4081;477;32768;-0.3725762;0.1066482;0.6440443;0.6595606;-1;-8;3;1399;3849;-530;256;-0.3033241;0.3628809;-0.5775623;-0.6653824;1;-7;0;-61;4084;-589;128;0.3767313;-0.4238227;0.4404432;0.69603;0;-8;-2;-619;3945;1340;4;0.7090209;-0.6759003;0.1191136;0.1620499;1;-3;0;287;4090;84;16;0.566482;-0.6410304;-0.3199446;-0.4072022;-1;0;-1;255;4038;660;2;0.1246537;-0.0734072;-0.7161161;-0.6828254;0;-4;1;-191;4120;255;8;0.5277008;-0.6416466;-0.365651;-0.4196676;-1;0;-1;-119;4063;711;0.6811528;-0.1724682;0.3080592;0.6871182;0.3711441;0.3535779;0.6923637;0.8491471;0.3915729;0.6806613;1.574863;0.4995638;0.4167081;1.898855;0.509841;0.07783332;1.745382;0.551661;-0.04652172;0.8330572;0.4490526;0;0;0;0.9369842;1.907248;0.5098404;1.228253;1.763938;0.5516603;1.33536;0.806442;0.5494447;1.394834;-0.07386708;0.2040378;0.368907;-0.2137499;0.2966344;0.3331443;-1.672342;0.1866876;0.2451041;-3.000837;0.3858768;0.368907;-0.2137499;0.2966344;0.3331443;-1.672342;0.1866876;0.2451041;-3.000837;0.3858768
219031.1266;NotLabelled;16384;0.7591784;-0.6412742;0.06371191;0.09141274;2;-10;-2;322;3994;639;65536;0.7593338;-0.6108033;-0.1260388;0.1855956;3;-10;4;-1859;3668;-721;8192;0.2603878;-0.2382271;-0.7003053;-0.6204986;-1;-8;-3;118;4069;505;32768;-0.3739612;0.1066482;0.6426592;0.6601275;0;-7;4;1433;3857;-556;256;-0.3033241;0.3628809;-0.5775623;-0.6653824;1;-8;0;-11;4044;-613;128;0.3753462;-0.4224377;0.4404432;0.6976184;1;-6;-2;-679;3935;1322;4;0.7090209;-0.6759003;0.1191136;0.1620499;1;-2;0;267;4056;152;16;0.566482;-0.6410304;-0.3199446;-0.4072022;-1;-1;-1;221;4066;626;2;0.1246537;-0.0734072;-0.7161161;-0.6828254;0;-3;1;-227;4064;267;8;0.5277008;-0.6416466;-0.365651;-0.4196676;-1;0;-1;-89;4055;711;0.6774392;-0.1713202;0.3060896;0.683406;0.3724132;0.3501323;0.6886526;0.8505182;0.3868296;0.6773918;1.576056;0.4960557;0.4136348;1.90019;0.5068914;0.07466844;1.74685;0.5484595;-0.04607259;0.8338408;0.4476422;0;0;0;0.933916;1.908268;0.5068908;1.225099;1.764711;0.5484587;1.330918;0.8070722;0.5461886;1.391919;-0.07323694;0.2010479;0.365193;-0.2126327;0.2947862;0.3350956;-1.671498;0.1867769;0.2461748;-2.999993;0.3855745;0.365193;-0.2126327;0.2947862;0.3350956;-1.671498;0.1867769;0.2461748;-2.999993;0.3855745
219051.11;NotLabelled;16384;0.7590609;-0.6412742;0.06509695;0.09141274;1;-9;-3;286;4008;621;65536;0.7595624;-0.6108033;-0.1246537;0.1855956;2;-8;4;-1893;3652;-663;8192;0.2617728;-0.2396122;-0.6993157;-0.6204986;-2;-7;-3;88;4091;493;32768;-0.3767313;0.1080332;0.6426592;0.6583248;0;-7;4;1421;3835;-514;256;-0.301939;0.3614958;-0.5789474;-0.6655626;1;-7;0;-49;4084;-559;128;0.3753462;-0.4210526;0.4418283;0.6975799;1;-5;-2;-651;3841;1300;4;0.7090209;-0.6759003;0.1191136;0.1620499;1;-2;0;327;4080;172;16;0.5650969;-0.6422517;-0.3199446;-0.4072022;-1;1;-1;175;4032;562;2;0.1246537;-0.07479224;-0.7172911;-0.6814404;-1;-2;1;-243;4052;251;8;0.5277008;-0.6416466;-0.365651;-0.4196676;-1;0;-1;-143;4045;755;0.6789589;-0.170155;0.3018388;0.6849245;0.3734777;0.3471112;0.6901702;0.8514979;0.3848897;0.6789159;1.577036;0.4941163;0.4151596;1.90117;0.5049677;0.07619572;1.747831;0.5465564;-0.04363133;0.8346245;0.446424;0;0;0;0.9354408;1.909248;0.5049359;1.226626;1.765691;0.5464864;1.33564;0.808409;0.5450622;1.394135;-0.07113934;0.1975566;0.366713;-0.2114422;0.2904342;0.3366092;-1.670307;0.1824273;0.2477004;-2.998802;0.3812309;0.366713;-0.2114422;0.2904342;0.3366092;-1.670307;0.1824273;0.2477004;-2.998802;0.3812309
219072.2014;NotLabelled;16384;0.7587728;-0.6412742;0.06648199;0.09279778;1;-8;-3;304;4042;649;65536;0.7592227;-0.6108033;-0.1246537;0.1869806;2;-8;4;-1837;3674;-733;8192;0.2631579;-0.2396122;-0.7000231;-0.6191136;-3;-6;-3;62;4051;457;32768;-0.3767313;0.1080332;0.6426592;0.6583248;0;-6;4;1395;3849;-494;256;-0.300554;0.3601108;-0.5789474;-0.6669389;1;-7;0;-33;4068;-541;128;0.3753462;-0.4196676;0.4418283;0.698414;0;-4;-2;-643;3921;1322;4;0.7084687;-0.6759003;0.1204986;0.1634349;0;-3;0;263;4118;126;16;0.5650969;-0.6422517;-0.3199446;-0.4072022;0;0;-1;271;4070;610;2;0.1246537;-0.07479224;-0.7172911;-0.6814404;-1;-1;1;-239;4072;239;8;0.5277008;-0.6416466;-0.365651;-0.4196676;-1;0;0;-107;4021;765;0.6799364;-0.1693017;0.3053281;0.6859034;0.3744478;0.3491753;0.6911501;0.8525653;0.3857007;0.6790622;1.578258;0.4938083;0.4149369;1.902108;0.5041379;0.07614371;1.748447;0.5459341;-0.04401423;0.8353763;0.4449785;0;0;0;0.9352086;1.910777;0.5041374;1.226553;1.767615;0.5459338;1.334271;0.8101921;0.5423212;1.395916;-0.06870961;0.1937257;0.3676901;-0.2106185;0.2940409;0.3380725;-1.669483;0.1858991;0.2503676;-2.997446;0.3887521;0.3676901;-0.2106185;0.2940409;0.3380725;-1.669483;0.1858991;0.2503676;-2.997446;0.3887521
219093.1892;NotLabelled;16384;0.7586501;-0.6412742;0.06786703;0.09279778;1;-7;-2;300;4084;643;65536;0.7594488;-0.6108033;-0.1232687;0.1869806;2;-7;4;-1851;3686;-735;8192;0.2645429;-0.2396122;-0.6995009;-0.6191136;-3;-5;-3;46;4075;455;32768;-0.3781163;0.1080332;0.6412742;0.6588811;0;-6;4;1339;3805;-504;256;-0.300554;0.3601108;-0.5789474;-0.6669389;1;-6;0;-65;4038;-597;128;0.3739612;-0.4196676;0.4418283;0.6991566;0;-4;-2;-665;3871;1304;4;0.7084687;-0.6759003;0.1204986;0.1634349;0;-3;0;279;4050;116;16;0.5650969;-0.6422517;-0.3199446;-0.4072022;0;0;-1;205;4026;672;2;0.1246537;-0.07479224;-0.7172911;-0.6814404;-1;-1;0;-241;4084;249;8;0.5277008;-0.6416466;-0.365651;-0.4196676;-1;0;-1;-169;4021;729;0.67601;-0.1700408;0.3048816;0.6819769;0.373704;0.3487839;0.6872236;0.8518181;0.3853579;0.6755651;1.577334;0.4946893;0.4116304;1.901321;0.5055726;0.0727483;1.74779;0.5471193;-0.0468311;0.8346562;0.4460417;0;0;0;0.9319072;1.909685;0.505572;1.223169;1.766282;0.5471185;1.334091;0.8092284;0.5426837;1.397274;-0.0696733;0.1943636;0.3637637;-0.2113566;0.2935898;0.3354622;-1.670274;0.1858121;0.2468627;-2.998237;0.3882759;0.3637637;-0.2113566;0.2935898;0.3354622;-1.670274;0.1858121;0.2468627;-2.998237;0.3882759
219114.0223;NotLabelled;16384;0.7583542;-0.6412742;0.06925207;0.09418282;0;-6;-3;352;4036;677;65536;0.7598932;-0.6108033;-0.1204986;0.1869806;1;-5;4;-1917;3690;-767;8192;0.2645429;-0.2396122;-0.6995009;-0.6191136;-3;-6;-3;58;4045;429;32768;-0.3795014;0.1094183;0.6412742;0.6578554;1;-6;4;1375;3843;-458;256;-0.299169;0.3587258;-0.5789474;-0.6683066;0;-5;1;-63;4044;-571;128;0.3739612;-0.4182825;0.4418283;0.6999861;0;-4;-1;-661;3849;1294;4;0.7084687;-0.6759003;0.1204986;0.1634349;0;-3;0;263;4076;74;16;0.5650969;-0.6422517;-0.3199446;-0.4072022;0;0;-1;155;4014;592;2;0.1246537;-0.07617728;-0.7171453;-0.6814404;0;-3;1;-253;4042;231;8;0.5263157;-0.6427832;-0.365651;-0.4196676;0;0;-1;-119;4045;761;0.6784327;-0.1690209;0.2996474;0.6843985;0.3746285;0.3447196;0.6896444;0.8526626;0.3823223;0.6779858;1.578179;0.4916535;0.4140511;1.902166;0.5025368;0.07516891;1.748635;0.5440835;-0.0452061;0.8354087;0.4447992;0;0;0;0.9343279;1.91053;0.5025362;1.22559;1.767127;0.5440829;1.336246;0.8100543;0.5375392;1.396962;-0.06807971;0.1868509;0.3661867;-0.2103119;0.2882594;0.3378851;-1.66923;0.1804817;0.2492856;-2.997193;0.3829457;0.3661867;-0.2103119;0.2882594;0.3378851;-1.66923;0.1804817;0.2492856;-2.997193;0.3829457
219135.0203;NotLabelled;16384;0.7583542;-0.6412742;0.06925207;0.09418282;0;-5;-2;334;4034;623;65536;0.7597694;-0.6108033;-0.1191136;0.1883656;2;-5;4;-1871;3634;-711;8192;0.265928;-0.2409972;-0.6997243;-0.6177285;-2;-5;-2;116;4073;429;32768;-0.3808864;0.1094183;0.6412742;0.6570544;0;-5;4;1339;3827;-458;256;-0.299169;0.3587258;-0.5789474;-0.6683066;1;-5;0;15;4014;-607;128;0.3739612;-0.4182825;0.4418283;0.6999861;0;-2;-2;-641;3865;1304;4;0.7079107;-0.6759003;0.1218837;0.1648199;0;-2;0;307;4062;120;16;0.5650969;-0.6422517;-0.3199446;-0.4072022;0;0;-1;191;4028;614;2;0.1246537;-0.07617728;-0.7171453;-0.6814404;-1;-2;1;-201;4106;299;8;0.5263157;-0.6427832;-0.365651;-0.4196676;0;0;-1;-89;4059;683;0.6781794;-0.1675229;0.2958791;0.6841452;0.3761218;0.3410068;0.689391;0.854152;0.3786582;0.6781526;1.57949;0.4892077;0.4144044;1.90361;0.5006427;0.07543522;1.750204;0.5419416;-0.04391858;0.8369038;0.4421081;0;0;0;0.9346859;1.911675;0.5006406;1.225867;1.768035;0.5419378;1.336575;0.810962;0.5364671;1.399402;-0.06720519;0.1862345;0.3659334;-0.208813;0.2844865;0.338107;-1.667731;0.1765851;0.2486161;-2.995694;0.3786565;0.3659334;-0.208813;0.2844865;0.338107;-1.667731;0.1765851;0.2486161;-2.995694;0.3786565
219157.0307;NotLabelled;16384;0.7580531;-0.6412742;0.07063711;0.09556787;0;-4;-2;284;4066;649;65536;0.7597694;-0.6108033;-0.1191136;0.1883656;2;-5;3;-1893;3648;-775;8192;0.267313;-0.2409972;-0.6991963;-0.6177285;-3;-4;-2;78;4019;421;32768;-0.3822715;0.1108033;0.6412742;0.6560172;0;-3;2;1295;3817;-396;256;-0.299169;0.3573407;-0.5803324;-0.6678472;0;-4;0;-15;4066;-543;128;0.3739612;-0.4182825;0.4418283;0.6999861;0;-2;-1;-641;3871;1282;4;0.7079107;-0.6759003;0.1218837;0.1648199;0;-2;0;305;4126;96;16;0.5650969;-0.6422517;-0.3199446;-0.4072022;0;0;-1;213;4034;624;2;0.1246537;-0.07617728;-0.7171453;-0.6814404;0;-3;0;-193;4082;273;8;0.5263157;-0.6436853;-0.365651;-0.4182825;0;0;-1;-115;4025;775;0.6793724;-0.1674984;0.2954558;0.6853383;0.3761463;0.3405834;0.6905841;0.8541765;0.3782347;0.6793453;1.579515;0.4887841;0.4155971;1.903635;0.5002185;0.07662785;1.750229;0.5415163;-0.04316446;0.8369384;0.4421161;0;0;0;0.9358786;1.9117;0.5002179;1.227059;1.76806;0.5415159;1.339856;0.8112316;0.5357351;1.403726;-0.06624842;0.1839751;0.3671265;-0.2087884;0.2840632;0.3401498;-1.667759;0.1766602;0.2506583;-2.995722;0.3787313;0.3671265;-0.2087884;0.2840632;0.3401498;-1.667759;0.1766602;0.2506583;-2.995722;0.3787313
219178.7631;NotLabelled;16384;0.7580531;-0.6412742;0.07063711;0.09556787;0;-4;-2;306;4022;635;65536;0.7599853;-0.6108033;-0.1177285;0.1883656;3;-2;2;-1995;3696;-733;8192;0.2686981;-0.2409972;-0.6998874;-0.6163435;-1;-2;-2;118;4093;483;32768;-0.3822715;0.1108033;0.6412742;0.6560172;0;-2;2;1311;3861;-402;256;-0.2977839;0.3573407;-0.5803324;-0.6684659;0;-3;1;-37;4052;-591;128;0.3739612;-0.4168975;0.4418283;0.7008119;1;-2;-1;-635;3907;1308;4;0.7079107;-0.6759003;0.1218837;0.1648199;0;-3;0;335;4052;88;16;0.5650969;-0.6422517;-0.3199446;-0.4072022;0;0;0;255;4010;654;2;0.1246537;-0.07617728;-0.7184589;-0.6800554;0;-2;0;-277;4076;265;8;0.5263157;-0.6436853;-0.365651;-0.4182825;0;0;-1;-119;4019;733;0.6776268;-0.1681669;0.298164;0.6835926;0.3754778;0.3432917;0.6888384;0.853508;0.380943;0.6778402;1.579205;0.4891351;0.4142014;1.90345;0.4995033;0.07517803;1.750294;0.5412823;-0.04422554;0.8369389;0.4420114;0;0;0;0.9344856;1.911338;0.4995025;1.225615;1.767735;0.5412815;1.338158;0.8108907;0.5336576;1.403449;-0.06662035;0.1822336;0.3653808;-0.2094569;0.2867714;0.3386619;-1.668427;0.1793039;0.2486857;-2.99639;0.3811599;0.3653808;-0.2094569;0.2867714;0.3386619;-1.668427;0.1793039;0.2486857;-2.99639;0.3811599
219198.2317;NotLabelled;16384;0.7580531;-0.6412742;0.07063711;0.09556787;0;-4;-1;290;4084;667;65536;0.7610964;-0.6094183;-0.1177285;0.1883656;2;-2;2;-1967;3722;-747;8192;0.2686981;-0.2409972;-0.6998874;-0.6163435;-1;-3;-2;136;4005;489;32768;-0.3822715;0.1108033;0.6412742;0.6560172;0;-2;1;1319;3787;-374;256;-0.2977839;0.3573407;-0.5803324;-0.6684659;0;-3;1;-69;4052;-661;128;0.3739612;-0.4168975;0.4432133;0.6999368;2;-2;-1;-597;3831;1280;4;0.7079107;-0.6759003;0.1218837;0.1648199;0;-3;0;299;4068;82;16;0.5650969;-0.6422517;-0.3199446;-0.4072022;0;-1;-1;165;4012;610;2;0.1246537;-0.07617728;-0.7184589;-0.6800554;-1;-2;0;-265;4148;229;8;0.5263157;-0.6436853;-0.365651;-0.4182825;0;0;0;-147;4009;703;0.679271;-0.1662233;0.2955853;0.6852368;0.3774171;0.3407693;0.6904825;0.8554435;0.3784701;0.6784124;1.58094;0.4878785;0.4142938;1.904777;0.4987974;0.07549912;1.751049;0.5403293;-0.0435026;0.8376837;0.4406713;0;0;0;0.9345657;1.913436;0.4987953;1.225909;1.770194;0.5403252;1.34165;0.8137374;0.5319648;1.407651;-0.06377316;0.1806731;0.3670251;-0.2075121;0.2841882;0.3405234;-1.666482;0.1766669;0.2501395;-2.994446;0.3783406;0.3670251;-0.2075121;0.2841882;0.3405234;-1.666482;0.1766669;0.2501395;-2.994446;0.3783406
219220.1157;NotLabelled;16384;0.7579228;-0.6412742;0.07202215;0.09556787;0;-4;-1;232;4060;669;65536;0.7610964;-0.6094183;-0.1177285;0.1883656;2;-3;1;-1923;3620;-823;8192;0.2686981;-0.2423823;-0.6994089;-0.6163435;0;-3;0;114;4005;459;32768;-0.3822715;0.1108033;0.6412742;0.6560172;0;-3;1;1375;3819;-400;256;-0.2977839;0.3559557;-0.5803324;-0.6692045;0;-2;0;-33;4076;-659;128;0.3739612;-0.4168975;0.4432133;0.6999368;0;-3;-2;-635;3919;1306;4;0.7075868;-0.6759003;0.1218837;0.166205;0;-4;0;263;4058;88;16;0.5650969;-0.6431278;-0.3199446;-0.4058172;0;0;-1;153;4006;622;2;0.1246537;-0.07756232;-0.7183107;-0.6800554;0;-2;0;-209;4072;249;8;0.5263157;-0.6427832;-0.365651;-0.4196676;0;0;-1;-139;3999;775;0.6822531;-0.1671684;0.2998401;0.6882202;0.3765931;0.343538;0.693467;0.8547206;0.3799321;0.6813965;1.580218;0.4893408;0.4172779;1.904054;0.5002591;0.07848313;1.750326;0.5417898;-0.04072675;0.8369718;0.4422855;0;0;0;0.9375498;1.912714;0.5002586;1.228893;1.769472;0.5417895;1.344616;0.8130164;0.5330869;1.410618;-0.06449461;0.1817954;0.3700068;-0.208488;0.2885652;0.3435055;-1.667459;0.1810429;0.2531211;-2.995422;0.3827155;0.3700068;-0.208488;0.2885652;0.3435055;-1.667459;0.1810429;0.2531211;-2.995422;0.3827155
219240.2482;NotLabelled;16384;0.7579228;-0.6412742;0.07202215;0.09556787;-1;-3;-1;274;4046;633;65536;0.7609653;-0.6094183;-0.1163435;0.1897507;3;-3;1;-1879;3680;-743;8192;0.2686981;-0.2423823;-0.6994089;-0.6163435;-1;-3;0;118;4057;413;32768;-0.3822715;0.1108033;0.6398892;0.6573682;0;-3;1;1363;3859;-372;256;-0.2977839;0.3559557;-0.5803324;-0.6692045;0;-2;1;-27;4032;-609;128;0.3739612;-0.4155124;0.4432133;0.7007599;0;-3;-1;-661;3913;1312;4;0.7070199;-0.6759003;0.1232687;0.16759;0;-5;0;325;4044;108;16;0.5650969;-0.6431278;-0.3199446;-0.4058172;0;-1;0;137;4030;604;2;0.1260388;-0.07756232;-0.7180689;-0.6800554;0;-1;0;-255;4100;287;8;0.5263157;-0.6427832;-0.365651;-0.4196676;0;0;0;-93;4019;719;0.6799173;-0.1683362;0.2982451;0.6858844;0.3754253;0.341943;0.6911312;0.8535528;0.3783371;0.6805463;1.579074;0.4877419;0.4170913;1.903451;0.4986584;0.07798257;1.750417;0.54019;-0.04177882;0.8369718;0.4421869;0;0;0;0.9373798;1.911045;0.4986578;1.228429;1.767207;0.5401895;1.343099;0.8106084;0.5333359;1.409937;-0.06690216;0.1822028;0.3676711;-0.2096558;0.2869702;0.3430511;-1.66848;0.177039;0.2554982;-2.996583;0.3790405;0.3676711;-0.2096558;0.2869702;0.3430511;-1.66848;0.177039;0.2554982;-2.996583;0.3790405
219261.0485;NotLabelled;16384;0.7579228;-0.6412742;0.07202215;0.09556787;-2;-2;0;262;4014;611;65536;0.7609653;-0.6094183;-0.1163435;0.1897507;2;-2;1;-1903;3648;-773;8192;0.2686981;-0.2423823;-0.6994089;-0.6163435;1;-2;0;68;4037;419;32768;-0.3822715;0.1121884;0.6398892;0.6571333;-1;-1;0;1319;3783;-336;256;-0.2977839;0.3559557;-0.5803324;-0.6692045;0;-2;1;-1;4022;-547;128;0.3739612;-0.4155124;0.4432133;0.7007599;0;-3;-1;-655;3897;1352;4;0.7070199;-0.6759003;0.1232687;0.16759;0;-3;0;327;4052;108;16;0.5650969;-0.6431278;-0.3199446;-0.4058172;0;-1;0;157;4034;592;2;0.1260388;-0.07756232;-0.7180689;-0.6800554;0;-1;0;-245;4068;281;8;0.5263157;-0.6427832;-0.365651;-0.4196676;0;0;0;-157;4059;737;0.6806651;-0.1682904;0.2981399;0.6866321;0.3754668;0.341894;0.6918789;0.8535905;0.3783376;0.6812941;1.579112;0.4877427;0.4178389;1.903488;0.4986592;0.07873002;1.750454;0.5401908;-0.04103106;0.837009;0.4421865;0;0;0;0.9381276;1.911082;0.4986587;1.229177;1.767244;0.5401906;1.343846;0.8106461;0.5333365;1.407187;-0.06678057;0.1813467;0.3684187;-0.209609;0.2868603;0.3446589;-1.668485;0.1774315;0.2571061;-2.996588;0.3794327;0.3684187;-0.209609;0.2868603;0.3446589;-1.668485;0.1774315;0.2571061;-2.996588;0.3794327
219281.0246;NotLabelled;16384;0.7589598;-0.6398892;0.0734072;0.09556787;-2;-1;-1;230;4006;635;65536;0.7620725;-0.6080332;-0.1163435;0.1897507;3;0;0;-1871;3602;-741;8192;0.2700831;-0.2423823;-0.6988753;-0.6163435;0;-2;0;98;4045;459;32768;-0.3822715;0.1121884;0.6398892;0.6571333;-1;-1;-1;1323;3797;-356;256;-0.2977839;0.3545706;-0.5803324;-0.6699393;0;-2;0;-81;4076;-583;128;0.3725762;-0.4141274;0.4432133;0.7023157;0;-2;-1;-631;3855;1332;4;0.7064472;-0.6759003;0.1246537;0.1689751;0;-1;0;319;4090;62;16;0.5650969;-0.6431278;-0.3199446;-0.4058172;0;0;0;151;4018;618;2;0.1260388;-0.07756232;-0.7180689;-0.6800554;0;0;0;-247;4084;299;8;0.5263157;-0.6427832;-0.365651;-0.4196676;0;0;0;-171;4045;755;0.6806655;-0.1682899;0.2981387;0.6866325;0.3754673;0.3418928;0.6918793;0.853591;0.3783363;0.6812944;1.579112;0.4877411;0.4178393;1.903489;0.4986575;0.07873031;1.750455;0.5401891;-0.041031;0.8370094;0.442186;0;0;0;0.9381281;1.911083;0.4986571;1.229177;1.767244;0.5401888;1.343847;0.8106465;0.5333352;1.406715;-0.06749916;0.1830566;0.3684191;-0.2096086;0.286859;0.3446593;-1.668484;0.1774309;0.2571064;-2.996587;0.3794327;0.3684191;-0.2096086;0.286859;0.3446593;-1.668484;0.1774309;0.2571064;-2.996587;0.3794327
219302.1717;NotLabelled;16384;0.7587841;-0.6398892;0.0734072;0.09695291;-2;-1;0;294;4038;585;65536;0.7620725;-0.6080332;-0.1163435;0.1897507;3;0;0;-1819;3710;-729;8192;0.2700831;-0.2437673;-0.6983934;-0.6163435;2;-2;0;84;4033;455;32768;-0.3822715;0.1135734;0.6398892;0.6568953;-1;-1;-1;1281;3819;-370;256;-0.2977839;0.3545706;-0.5803324;-0.6699393;0;-1;0;-43;4072;-543;128;0.3725762;-0.4141274;0.4432133;0.7023157;0;-2;-1;-643;3871;1368;4;0.7064472;-0.6759003;0.1246537;0.1689751;0;-1;0;345;4076;94;16;0.5650969;-0.6431278;-0.3199446;-0.4058172;0;0;0;191;4030;588;2;0.1260388;-0.07756232;-0.7180689;-0.6800554;0;-2;0;-267;4106;277;8;0.5263157;-0.6427832;-0.365651;-0.4196676;0;0;0;-117;4081;723;0.6840342;-0.1705501;0.2974105;0.6900002;0.3731074;0.3423849;0.695246;0.8511481;0.3799016;0.6861452;1.57669;0.4893035;0.4233541;1.901605;0.5002186;0.08393279;1.749265;0.5417508;-0.03931384;0.836288;0.4437044;0;0;0;0.9436572;1.908134;0.500218;1.234412;1.763701;0.5417503;1.348828;0.8070889;0.5330571;1.412529;-0.07105684;0.1829287;0.3717882;-0.2118433;0.2860304;0.3491606;-1.670771;0.1770522;0.2611278;-2.998874;0.3788453;0.3717882;-0.2118433;0.2860304;0.3491606;-1.670771;0.1770522;0.2611278;-2.998874;0.3788453
219322.1808;NotLabelled;16384;0.7587841;-0.6398892;0.0734072;0.09695291;-2;-1;0;288;4032;651;65536;0.7620725;-0.6080332;-0.1163435;0.1897507;3;0;0;-1797;3676;-743;8192;0.2700831;-0.2437673;-0.6983934;-0.6163435;2;-2;0;110;4027;491;32768;-0.3822715;0.1135734;0.6398892;0.6568953;-2;-1;-2;1327;3843;-432;256;-0.2977839;0.3545706;-0.5803324;-0.6699393;0;0;0;15;4078;-587;128;0.3725762;-0.4141274;0.4432133;0.7023157;0;-2;-1;-661;3851;1324;4;0.7064472;-0.6759003;0.1246537;0.1689751;0;0;0;295;4048;40;16;0.5650969;-0.6431278;-0.3199446;-0.4058172;0;0;0;171;4054;580;2;0.1260388;-0.07756232;-0.7180689;-0.6800554;0;-1;0;-267;4082;299;8;0.5263157;-0.6427832;-0.365651;-0.4196676;0;0;0;-101;4067;699;0.6830866;-0.1705701;0.2987726;0.6890525;0.3730874;0.3437472;0.6942984;0.8511281;0.3812639;0.6851975;1.57667;0.4906657;0.4224064;1.901585;0.5015808;0.08298513;1.749245;0.543113;-0.03931394;0.836288;0.4437044;0;0;0;0.9427096;1.908114;0.5015802;1.233464;1.763681;0.5431125;1.3468;0.8069267;0.535977;1.410032;-0.07193327;0.1875606;0.3708405;-0.2118633;0.2873926;0.348213;-1.670791;0.1784144;0.2601802;-2.998894;0.3802076;0.3708405;-0.2118633;0.2873926;0.348213;-1.670791;0.1784144;0.2601802;-2.998894;0.3802076
219343.0399;NotLabelled;16384;0.7587841;-0.6398892;0.0734072;0.09695291;-2;0;0;294;4026;661;65536;0.7631755;-0.6066482;-0.1163435;0.1897507;3;0;0;-1805;3700;-713;8192;0.2700831;-0.2437673;-0.6983934;-0.6163435;2;-2;0;76;4045;461;32768;-0.3808864;0.1135734;0.6398892;0.6576993;-3;-1;-1;1373;3815;-396;256;-0.2977839;0.3545706;-0.5803324;-0.6699393;0;-1;0;-49;4024;-597;128;0.3725762;-0.4141274;0.4445983;0.7014398;0;-1;0;-665;3875;1320;4;0.7064472;-0.6759003;0.1246537;0.1689751;0;0;0;321;4056;20;16;0.5650969;-0.6431278;-0.3199446;-0.4058172;0;0;0;247;3976;630;2;0.1260388;-0.07756232;-0.7180689;-0.6800554;0;-1;0;-275;4122;307;8;0.5263157;-0.6427832;-0.365651;-0.4196676;0;0;0;-129;4013;719;0.6830866;-0.1705701;0.2987726;0.6890525;0.3730874;0.3437472;0.6942984;0.8511281;0.3812639;0.6851975;1.57667;0.4906657;0.4224064;1.901585;0.5015808;0.08298513;1.749245;0.543113;-0.03931394;0.836288;0.4437044;0;0;0;0.9427096;1.908114;0.5015802;1.233464;1.763681;0.5431125;1.3468;0.8069267;0.535977;1.410032;-0.07193327;0.1875606;0.3708405;-0.2118633;0.2873926;0.348213;-1.670791;0.1784144;0.2601802;-2.998894;0.3802076;0.3708405;-0.2118633;0.2873926;0.348213;-1.670791;0.1784144;0.2601802;-2.998894;0.3802076
219363.363;NotLabelled;16384;0.7587841;-0.6398892;0.0734072;0.09695291;-2;0;0;308;4018;669;65536;0.7631755;-0.6066482;-0.1163435;0.1897507;2;0;0;-1789;3650;-669;8192;0.2700831;-0.2451524;-0.6979084;-0.6163435;3;-1;1;70;4009;465;32768;-0.3808864;0.1149584;0.6398892;0.6574587;-3;0;-1;1371;3849;-408;256;-0.2977839;0.3545706;-0.5803324;-0.6699393;0;0;1;-33;4022;-617;128;0.3725762;-0.4127424;0.4445983;0.7022557;0;0;0;-663;3863;1354;4;0.7064472;-0.6759003;0.1246537;0.1689751;0;0;0;351;4028;44;16;0.5650969;-0.6431278;-0.3199446;-0.4058172;0;0;0;205;4030;608;2;0.1260388;-0.07756232;-0.7180689;-0.6800554;0;-1;0;-273;4118;281;8;0.5263157;-0.6427832;-0.365651;-0.4196676;0;0;0;-117;4047;761;0.6858463;-0.1715243;0.303185;0.6918135;0.3722544;0.3466694;0.6970605;0.8503966;0.3828758;0.6879598;1.575938;0.4922777;0.4251687;1.900853;0.5031928;0.08574751;1.748513;0.5447252;-0.03655167;0.835556;0.4453165;0;0;0;0.9454719;1.907382;0.5031923;1.236226;1.762949;0.5447245;1.349562;0.8061948;0.5375886;1.411735;-0.07334185;0.1906933;0.3735999;-0.2128487;0.2919276;0.3509723;-1.671776;0.1829494;0.2629396;-2.999879;0.3847424;0.3735999;-0.2128487;0.2919276;0.3509723;-1.671776;0.1829494;0.2629396;-2.999879;0.3847424
219385.0235;NotLabelled;16384;0.7602578;-0.6385041;0.07202215;0.09556787;-1;0;0;224;3994;655;65536;0.7630397;-0.6066482;-0.1149584;0.1911357;2;1;0;-1829;3618;-643;8192;0.2686981;-0.2451524;-0.6972181;-0.6177285;3;0;1;64;4065;461;32768;-0.3795014;0.1149584;0.6398892;0.6582592;-3;0;-1;1383;3783;-436;256;-0.2977839;0.3545706;-0.5803324;-0.6699393;0;0;0;-27;4060;-585;128;0.3725762;-0.4127424;0.4445983;0.7022557;0;0;-1;-653;3819;1364;4;0.7064472;-0.6759003;0.1246537;0.1689751;0;0;0;343;4048;132;16;0.5650969;-0.6424369;-0.3213296;-0.4058172;-1;0;0;195;4058;578;2;0.1260388;-0.07756232;-0.7180689;-0.6800554;0;0;0;-293;4142;243;8;0.5263157;-0.6427832;-0.365651;-0.4196676;0;0;0;-159;4051;729;0.685846;-0.1715157;0.30308;0.6918132;0.3722587;0.3466204;0.6970602;0.8503966;0.3828762;0.6879593;1.575939;0.492278;0.4251683;1.900854;0.5031931;0.08574703;1.748513;0.5447253;-0.03655183;0.8355565;0.4453164;0;0;0;0.9454713;1.907383;0.5031924;1.236226;1.76295;0.5447248;1.348481;0.8060575;0.5391548;1.41019;-0.0741868;0.1939754;0.3735996;-0.2128389;0.2918179;0.3509721;-1.671766;0.1828398;0.2629393;-2.999869;0.3846327;0.3735996;-0.2128389;0.2918179;0.3509721;-1.671766;0.1828398;0.2629393;-2.999869;0.3846327
219405.1285;NotLabelled;16384;0.7602578;-0.6385041;0.07202215;0.09556787;-2;0;0;276;4018;641;65536;0.7630397;-0.6066482;-0.1149584;0.1911357;1;1;0;-1829;3618;-713;8192;0.2686981;-0.2451524;-0.6972181;-0.6177285;2;0;1;76;4079;475;32768;-0.3795014;0.1149584;0.6385041;0.6596027;-3;0;-1;1443;3829;-410;256;-0.2977839;0.3531856;-0.5803324;-0.6706705;0;1;1;-17;4056;-627;128;0.3725762;-0.4127424;0.4445983;0.7022557;1;0;0;-651;3873;1318;4;0.7061145;-0.6759003;0.1246537;0.1703601;0;0;1;283;4060;114;16;0.5650969;-0.6424369;-0.3213296;-0.4058172;0;1;0;191;4014;574;2;0.1260388;-0.07756232;-0.7193781;-0.6786703;0;0;0;-279;4080;285;8;0.5263157;-0.6427832;-0.365651;-0.4196676;0;0;0;-141;4047;709;0.6896752;-0.1721108;0.3050386;0.6956424;0.3716636;0.348579;0.7008894;0.8498015;0.3848348;0.6917886;1.575344;0.4942366;0.4289975;1.900259;0.5051517;0.0895763;1.747918;0.5466839;-0.03580196;0.8355961;0.4453019;0;0;0;0.9493006;1.906788;0.5051512;1.240055;1.762355;0.5466834;1.34914;0.805089;0.5424045;1.409789;-0.07582378;0.1987468;0.3774289;-0.213434;0.2937766;0.3548014;-1.672361;0.1847984;0.2684036;-3.000926;0.3842422;0.3774289;-0.213434;0.2937766;0.3548014;-1.672361;0.1847984;0.2684036;-3.000926;0.3842422
219426.0516;NotLabelled;16384;0.7602578;-0.6385041;0.07202215;0.09556787;-1;0;0;252;3958;625;65536;0.7630397;-0.6066482;-0.1149584;0.1911357;0;1;0;-1829;3666;-663;8192;0.267313;-0.2451524;-0.6977503;-0.6177285;4;0;1;50;4097;441;32768;-0.3795014;0.1163435;0.6385041;0.6593598;-3;0;-1;1475;3831;-420;256;-0.2977839;0.3531856;-0.5803324;-0.6706705;0;1;1;-71;4070;-623;128;0.3725762;-0.4127424;0.4445983;0.7022557;1;1;0;-657;3849;1334;4;0.7061145;-0.6759003;0.1246537;0.1703601;0;0;0;339;4084;94;16;0.5650969;-0.6424369;-0.3213296;-0.4058172;0;1;0;183;4064;628;2;0.1260388;-0.07756232;-0.7193781;-0.6786703;0;0;0;-251;4118;231;8;0.5263157;-0.6427832;-0.365651;-0.4196676;0;0;0;-171;3993;755;0.6865404;-0.1733582;0.305253;0.6925076;0.3704162;0.3487934;0.6977546;0.8485541;0.385049;0.6901362;1.574114;0.4944482;0.4280096;1.899564;0.5053622;0.08827785;1.747919;0.546895;-0.03685923;0.8355966;0.4452156;0;0;0;0.9483247;1.905031;0.5053614;1.238784;1.760005;0.5468943;1.347878;0.8027387;0.5428741;1.405855;-0.07807255;0.1984946;0.374294;-0.2146814;0.293991;0.353565;-1.673456;0.1826152;0.2666941;-3.002021;0.3818533;0.374294;-0.2146814;0.293991;0.353565;-1.673456;0.1826152;0.2666941;-3.002021;0.3818533
219447.0474;NotLabelled;16384;0.7602578;-0.6385041;0.07202215;0.09556787;0;1;0;278;4036;591;65536;0.7628298;-0.6066482;-0.1163435;0.1911357;0;2;0;-1837;3688;-701;8192;0.267313;-0.2465374;-0.6972622;-0.6177285;3;0;1;56;4085;465;32768;-0.3795014;0.1163435;0.6385041;0.6593598;-3;0;-1;1397;3831;-500;256;-0.2977839;0.3531856;-0.5803324;-0.6706705;0;1;0;-79;4068;-607;128;0.3739612;-0.4127424;0.4445983;0.7015191;1;0;0;-671;3879;1328;4;0.7063576;-0.6759003;0.1232687;0.1703601;0;1;0;329;4060;110;16;0.5650969;-0.6424369;-0.3213296;-0.4058172;0;1;0;169;4076;592;2;0.1260388;-0.07756232;-0.7193781;-0.6786703;0;0;-1;-285;4092;301;8;0.5263157;-0.6427832;-0.365651;-0.4196676;0;0;0;-99;4065;747;0.6865404;-0.1733582;0.305253;0.6925076;0.3704162;0.3487934;0.6977546;0.8485541;0.385049;0.6901362;1.574114;0.4944482;0.4280096;1.899564;0.5053622;0.08827785;1.747919;0.546895;-0.03685923;0.8355966;0.4452156;0;0;0;0.9483247;1.905031;0.5053614;1.238784;1.760005;0.5468943;1.348137;0.802762;0.5449874;1.40565;-0.07875109;0.2023304;0.374294;-0.2146814;0.293991;0.353565;-1.673456;0.1826152;0.2666941;-3.002021;0.3818533;0.374294;-0.2146814;0.293991;0.353565;-1.673456;0.1826152;0.2666941;-3.002021;0.3818533
219468.0241;NotLabelled;16384;0.7602578;-0.6385041;0.07202215;0.09556787;0;2;0;252;4062;697;65536;0.7631755;-0.6066482;-0.1163435;0.1897507;0;3;1;-1793;3652;-689;8192;0.267313;-0.2465374;-0.6960326;-0.6191136;3;0;1;100;4021;485;32768;-0.3781163;0.1163435;0.6385041;0.6601551;-3;1;-1;1437;3841;-488;256;-0.299169;0.3531856;-0.5803324;-0.6700538;0;1;1;-3;4098;-615;128;0.3739612;-0.4127424;0.4445983;0.7015191;0;0;0;-625;3855;1312;4;0.7066902;-0.6759003;0.1232687;0.1689751;0;1;0;293;4060;126;16;0.5650969;-0.6424369;-0.3213296;-0.4058172;0;1;0;203;4044;602;2;0.1260388;-0.07756232;-0.7193781;-0.6786703;0;1;0;-275;4110;249;8;0.5263157;-0.6427832;-0.365651;-0.4196676;0;0;0;-117;4037;719;0.6849245;-0.1742699;0.3086891;0.6908927;0.369596;0.3510659;0.6961405;0.8478107;0.3862984;0.6885222;1.57337;0.4956976;0.4263955;1.898821;0.5066115;0.08666372;1.747175;0.5481443;-0.03847808;0.8348536;0.4464706;0;0;0;0.9467109;1.904288;0.5066109;1.23717;1.759261;0.5481437;1.345437;0.8018932;0.5477966;1.40295;-0.07962084;0.2051396;0.3726778;-0.2156172;0.2975229;0.3527156;-1.674182;0.1832979;0.2658445;-3.002747;0.3825361;0.3726778;-0.2156172;0.2975229;0.3527156;-1.674182;0.1832979;0.2658445;-3.002747;0.3825361
219489.0297;NotLabelled;16384;0.7605606;-0.6385041;0.07063711;0.09418282;0;3;0;266;4074;639;65536;0.7631755;-0.6066482;-0.1163435;0.1897507;0;3;0;-1807;3612;-757;8192;0.265928;-0.2465374;-0.696563;-0.6191136;3;0;0;-10;4033;467;32768;-0.3781163;0.1163435;0.6385041;0.6601551;-2;1;-1;1477;3863;-504;256;-0.299169;0.3531856;-0.5803324;-0.6700538;-1;1;1;23;4064;-589;128;0.3739612;-0.4127424;0.4445983;0.7015191;0;0;0;-621;3879;1300;4;0.7066902;-0.6759003;0.1232687;0.1689751;0;0;0;277;4086;62;16;0.5650969;-0.6424369;-0.3213296;-0.4058172;0;0;0;169;4036;690;2;0.1260388;-0.07756232;-0.7193781;-0.6786703;-1;1;0;-315;4082;267;8;0.5263157;-0.6427832;-0.365651;-0.4196676;0;0;0;-161;4095;753;0.6855603;-0.1747429;0.3087907;0.6915286;0.369123;0.3511676;0.6967763;0.8473377;0.3864001;0.6902366;1.57309;0.4945843;0.4285947;1.898949;0.5049487;0.08863673;1.747879;0.5467294;-0.03670622;0.835556;0.4453038;0;0;0;0.9489176;1.90364;0.5049481;1.239159;1.758252;0.5467287;1.343978;0.8005004;0.5453396;1.399739;-0.08166981;0.2040859;0.3733137;-0.2160902;0.2976244;0.3514857;-1.674813;0.1857864;0.2650187;-3.003378;0.3852002;0.3733137;-0.2160902;0.2976244;0.3514857;-1.674813;0.1857864;0.2650187;-3.003378;0.3852002
219510.0247;NotLabelled;16384;0.7605606;-0.6385041;0.07063711;0.09418282;0;3;0;234;4022;695;65536;0.7631755;-0.6066482;-0.1163435;0.1897507;-1;4;0;-1845;3668;-701;8192;0.265928;-0.2465374;-0.696563;-0.6191136;2;1;0;82;4109;447;32768;-0.3781163;0.1177285;0.6385041;0.6599094;-2;2;-1;1477;3827;-496;256;-0.299169;0.3531856;-0.5803324;-0.6700538;-1;2;1;-43;4056;-567;128;0.3739612;-0.4127424;0.4445983;0.7015191;0;0;0;-653;3871;1360;4;0.7063576;-0.6759003;0.1232687;0.1703601;0;0;0;291;4020;92;16;0.5650969;-0.6424369;-0.3213296;-0.4058172;0;0;0;187;4052;640;2;0.1260388;-0.07756232;-0.7193781;-0.6786703;0;1;0;-271;4130;261;8;0.5263157;-0.6427832;-0.365651;-0.4196676;0;0;0;-177;4115;707;0.6857063;-0.1748114;0.3092221;0.6916745;0.3690546;0.3515989;0.6969224;0.8472693;0.3868314;0.6903827;1.573021;0.4950156;0.4287407;1.89888;0.50538;0.08878279;1.74781;0.5471607;-0.03670615;0.8355558;0.4453039;0;0;0;0.9490636;1.903572;0.5053794;1.239305;1.758183;0.5471599;1.344382;0.8004596;0.5478786;1.400142;-0.08171082;0.2066251;0.3734597;-0.2161586;0.2980558;0.3516317;-1.674882;0.1862178;0.2651647;-3.003447;0.3856316;0.3734597;-0.2161586;0.2980558;0.3516317;-1.674882;0.1862178;0.2651647;-3.003447;0.3856316
219530.0464;NotLabelled;16384;0.7605606;-0.6385041;0.07063711;0.09418282;0;3;0;234;4046;707;65536;0.7635185;-0.6066482;-0.1163435;0.1883656;0;4;0;-1803;3686;-713;8192;0.265928;-0.2465374;-0.6953295;-0.6204986;2;2;0;84;4079;457;32768;-0.3781163;0.1177285;0.6385041;0.6599094;-1;3;-1;1427;3807;-518;256;-0.300554;0.3531856;-0.5803324;-0.6694337;-1;2;1;-19;4076;-583;128;0.3739612;-0.4127424;0.4445983;0.7015191;-1;1;0;-683;3853;1332;4;0.7066902;-0.6759003;0.1232687;0.1689751;0;0;0;293;4094;122;16;0.5650969;-0.6424369;-0.3213296;-0.4058172;0;0;0;157;4070;652;2;0.1260388;-0.07756232;-0.7193781;-0.6786703;0;0;0;-331;4070;271;8;0.5263157;-0.6427832;-0.365651;-0.4196676;0;0;0;-119;4047;723;0.6857063;-0.1748114;0.3092221;0.6916745;0.3690546;0.3515989;0.6969224;0.8472693;0.3868314;0.6903827;1.573021;0.4950156;0.4287407;1.89888;0.50538;0.08878279;1.74781;0.5471607;-0.03670615;0.8355558;0.4453039;0;0;0;0.9490636;1.903572;0.5053794;1.239305;1.758183;0.5471599;1.344382;0.8004596;0.5478786;1.399688;-0.08240604;0.2083532;0.3734597;-0.2161586;0.2980558;0.3532659;-1.674724;0.1838714;0.2667989;-3.003289;0.3832852;0.3734597;-0.2161586;0.2980558;0.3532659;-1.674724;0.1838714;0.2667989;-3.003289;0.3832852
219551.0312;NotLabelled;16384;0.7607309;-0.6385041;0.07063711;0.09279778;-1;3;0;244;4008;673;65536;0.7636466;-0.6066482;-0.1177285;0.1869806;0;3;0;-1805;3706;-781;8192;0.2645429;-0.2465374;-0.6958576;-0.6204986;2;2;1;62;4085;441;32768;-0.3767313;0.1163435;0.6385041;0.6609464;-1;2;0;1465;3839;-496;256;-0.300554;0.3531856;-0.5803324;-0.6694337;0;2;1;-7;4046;-585;128;0.3739612;-0.4127424;0.4445983;0.7015191;-1;1;0;-625;3851;1324;4;0.7066902;-0.6759003;0.1232687;0.1689751;0;0;0;283;4076;90;16;0.5650969;-0.6424369;-0.3213296;-0.4058172;0;0;0;205;3984;628;2;0.1260388;-0.07756232;-0.7193781;-0.6786703;0;0;0;-253;4116;255;8;0.5263157;-0.6427832;-0.365651;-0.4196676;0;0;0;-109;4047;743;0.6863477;-0.1752808;0.309317;0.692316;0.3685851;0.351694;0.6975637;0.8467999;0.3869265;0.6920992;1.572742;0.4938901;0.4309408;1.899005;0.5037027;0.09075871;1.74851;0.5457321;-0.03493698;0.836256;0.4441306;0;0;0;0.9512701;1.902925;0.5037022;1.241295;1.757176;0.5457317;1.342918;0.7990804;0.5454111;1.397534;-0.0837853;0.2057738;0.3741011;-0.2166281;0.2981508;0.3520461;-1.675351;0.1863575;0.2659843;-3.003916;0.3859466;0.3741011;-0.2166281;0.2981508;0.3520461;-1.675351;0.1863575;0.2659843;-3.003916;0.3859466
219572.1474;NotLabelled;16384;0.7607309;-0.6385041;0.07063711;0.09279778;-1;3;0;242;4078;703;65536;0.7636466;-0.6066482;-0.1177285;0.1869806;0;4;1;-1789;3644;-823;8192;0.2645429;-0.2465374;-0.6958576;-0.6204986;2;2;1;38;4083;465;32768;-0.3767313;0.1163435;0.6385041;0.6609464;0;2;0;1447;3851;-518;256;-0.300554;0.3531856;-0.5803324;-0.6694337;0;3;1;-25;4036;-605;128;0.3739612;-0.4113573;0.4445983;0.7023322;0;0;0;-633;3875;1342;4;0.7066902;-0.6759003;0.1232687;0.1689751;0;0;0;309;4096;48;16;0.5650969;-0.6431278;-0.3199446;-0.4058172;0;0;0;171;4040;600;2;0.1260388;-0.07617728;-0.7195261;-0.6786703;0;0;0;-365;4090;247;8;0.5263157;-0.6427832;-0.365651;-0.4196676;0;0;0;-141;4047;723;0.6865392;-0.1752989;0.307963;0.6925074;0.368567;0.3503398;0.6977552;0.8467817;0.3855725;0.6922906;1.572723;0.4925361;0.4311322;1.898987;0.5023486;0.0909501;1.748492;0.544378;-0.03569268;0.8362179;0.4441424;0;0;0;0.9514616;1.902907;0.5023482;1.241487;1.757158;0.5443776;1.343365;0.7990909;0.5461606;1.397377;-0.08373165;0.2063149;0.3742925;-0.2166462;0.2967968;0.3522375;-1.675369;0.1850034;0.2661757;-3.003934;0.3845925;0.3742925;-0.2166462;0.2967968;0.3522375;-1.675369;0.1850034;0.2661757;-3.003934;0.3845925
219593.034;NotLabelled;16384;0.7607309;-0.6385041;0.07063711;0.09279778;-1;3;0;268;4040;675;65536;0.7634318;-0.6066482;-0.1191136;0.1869806;0;4;0;-1837;3678;-829;8192;0.2645429;-0.2465374;-0.6958576;-0.6204986;1;2;0;26;4105;459;32768;-0.3767313;0.1163435;0.6385041;0.6609464;0;1;0;1455;3851;-516;256;-0.301939;0.3531856;-0.5803324;-0.6688102;-1;3;1;-17;4070;-563;128;0.3739612;-0.4127424;0.4445983;0.7015191;0;1;0;-651;3895;1312;4;0.7066902;-0.6759003;0.1232687;0.1689751;0;0;0;335;4136;112;16;0.5650969;-0.6431278;-0.3199446;-0.4058172;0;0;0;189;4024;608;2;0.1260388;-0.07617728;-0.7195261;-0.6786703;0;1;0;-317;4112;241;8;0.5263157;-0.6427832;-0.365651;-0.4196676;0;0;0;-143;4025;675;0.6865389;-0.1752908;0.3078566;0.6925071;0.3685708;0.3502902;0.697755;0.8467817;0.3855727;0.6922904;1.572723;0.4925362;0.4311322;1.898987;0.5023489;0.09095019;1.748492;0.5443783;-0.03569262;0.8362179;0.4441423;0;0;0;0.9514611;1.902907;0.5023483;1.241487;1.757158;0.5443779;1.343364;0.7990909;0.5461607;1.397377;-0.08373165;0.2063152;0.3742924;-0.2166367;0.2966857;0.3522374;-1.67536;0.1848924;0.2645445;-3.003463;0.3868334;0.3742924;-0.2166367;0.2966857;0.3522374;-1.67536;0.1848924;0.2645445;-3.003463;0.3868334
219613.0624;NotLabelled;16384;0.7610258;-0.6385041;0.06925207;0.09141274;-1;4;0;282;4068;651;65536;0.7637697;-0.6066482;-0.1191136;0.1855956;0;4;0;-1767;3690;-837;8192;0.2631579;-0.2451524;-0.6956357;-0.6218836;1;2;0;52;4127;467;32768;-0.3767313;0.1163435;0.6385041;0.6609464;0;2;0;1483;3841;-556;256;-0.301939;0.3531856;-0.5803324;-0.6688102;0;2;0;-33;4042;-557;128;0.3739612;-0.4113573;0.4445983;0.7023322;0;2;0;-631;3887;1294;4;0.7069304;-0.6759003;0.1218837;0.1689751;0;0;0;349;4120;116;16;0.5650969;-0.6439997;-0.3199446;-0.4044321;0;0;0;177;4030;570;2;0.1260388;-0.07617728;-0.7195261;-0.6786703;0;0;0;-339;4092;279;8;0.5263157;-0.6427832;-0.365651;-0.4196676;0;0;0;-101;4011;681;0.6848958;-0.1772103;0.3104018;0.690864;0.3666556;0.3527786;0.6961118;0.8448703;0.388011;0.6917188;1.570999;0.493749;0.4310428;1.897664;0.503007;0.09063819;1.747743;0.5452855;-0.03641182;0.8354795;0.4454706;0;0;0;0.9513773;1.900815;0.5030074;1.241187;1.754709;0.5452871;1.343071;0.7966416;0.5465553;1.396392;-0.08618045;0.2066009;0.372649;-0.2185576;0.2992355;0.3503666;-1.677281;0.1874873;0.2630849;-3.005383;0.3896064;0.372649;-0.2185576;0.2992355;0.3503666;-1.677281;0.1874873;0.2630849;-3.005383;0.3896064
219633.185;NotLabelled;16384;0.7610258;-0.6385041;0.06925207;0.09141274;-1;4;0;284;3994;663;65536;0.7635524;-0.6066482;-0.1204986;0.1855956;0;4;0;-1749;3638;-793;8192;0.2631579;-0.2451524;-0.6956357;-0.6218836;0;2;0;48;4061;463;32768;-0.3767313;0.1163435;0.6385041;0.6609464;0;2;0;1461;3861;-446;256;-0.3033241;0.3531856;-0.5803324;-0.6681831;0;2;1;-41;4042;-607;128;0.3739612;-0.4127424;0.4432133;0.702395;0;1;0;-661;3863;1304;4;0.7069304;-0.6759003;0.1218837;0.1689751;0;1;0;331;4036;136;16;0.5650969;-0.6431278;-0.3199446;-0.4058172;0;0;0;183;4022;624;2;0.1260388;-0.07617728;-0.7195261;-0.6786703;0;1;0;-237;4078;281;8;0.5263157;-0.6427832;-0.365651;-0.4196676;0;0;0;-125;3999;793;0.6856952;-0.1765568;0.3096377;0.6916634;0.3673048;0.3520714;0.6969111;0.8455157;0.3873537;0.6925184;1.571644;0.4930917;0.4318424;1.898309;0.5023502;0.09143785;1.748388;0.5446295;-0.03554918;0.8361812;0.444223;0;0;0;0.9521769;1.901461;0.5023496;1.241986;1.755354;0.5446286;1.34174;0.7970624;0.5459013;1.395061;-0.08575964;0.2059464;0.3734485;-0.2179027;0.2984667;0.3519269;-1.676416;0.1838675;0.2679552;-3.004653;0.3865111;0.3734485;-0.2179027;0.2984667;0.3519269;-1.676416;0.1838675;0.2679552;-3.004653;0.3865111
219653.0295;NotLabelled;16384;0.7624751;-0.6371191;0.06786703;0.0900277;-1;4;0;228;4004;665;65536;0.7638878;-0.6066482;-0.1204986;0.1842105;0;4;0;-1799;3652;-823;8192;0.2631579;-0.2451524;-0.6956357;-0.6218836;0;2;0;86;4125;459;32768;-0.3753462;0.1149584;0.6385041;0.661976;0;1;0;1439;3871;-488;256;-0.3033241;0.3531856;-0.5789474;-0.6693836;0;2;0;-11;4028;-539;128;0.3739612;-0.4127424;0.4432133;0.702395;0;1;0;-675;3865;1312;4;0.7069304;-0.6759003;0.1218837;0.1689751;0;1;0;297;4074;150;16;0.5650969;-0.6424369;-0.3213296;-0.4058172;0;0;0;135;3976;584;2;0.1260388;-0.07617728;-0.7195261;-0.6786703;0;0;0;-305;4094;267;8;0.5249307;-0.6431263;-0.367036;-0.4196676;0;0;0;-141;4055;681;0.6840767;-0.1779799;0.3068441;0.6900436;0.3657677;0.3507117;0.6952903;0.8438842;0.3872551;0.6919702;1.570196;0.491762;0.4317757;1.89726;0.5004748;0.09115237;1.747913;0.5430185;-0.03624976;0.8354447;0.4455508;0;0;0;0.9521142;1.899646;0.5004526;1.241709;1.753184;0.5429704;1.341473;0.7948992;0.5463514;1.394085;-0.08792329;0.2062863;0.3718305;-0.2192962;0.2955552;0.3500702;-1.67781;0.181001;0.26321;-3.005912;0.3833016;0.3718305;-0.2192962;0.2955552;0.3500702;-1.67781;0.181001;0.26321;-3.005912;0.3833016
219674.1429;NotLabelled;16384;0.7624751;-0.6371191;0.06786703;0.0900277;-2;3;0;200;3976;647;65536;0.7638878;-0.6066482;-0.1204986;0.1842105;1;3;0;-1803;3674;-767;8192;0.2631579;-0.2451524;-0.6956357;-0.6218836;0;2;0;26;4133;471;32768;-0.3753462;0.1149584;0.6398892;0.6606373;1;1;0;1407;3869;-444;256;-0.3033241;0.3545706;-0.5789474;-0.668651;0;3;0;-65;4068;-539;128;0.3739612;-0.4127424;0.4432133;0.702395;-1;1;0;-613;3893;1348;4;0.7069304;-0.6759003;0.1218837;0.1689751;0;1;0;325;4068;82;16;0.5650969;-0.6424369;-0.3213296;-0.4058172;0;0;0;199;4040;674;2;0.1260388;-0.07617728;-0.7195261;-0.6786703;0;1;0;-307;4132;281;8;0.5249307;-0.6431263;-0.367036;-0.4196676;0;0;0;-129;4063;721;0.6862159;-0.1787069;0.3073275;0.6921829;0.3650408;0.351195;0.6974296;0.8431573;0.3877383;0.6953456;1.569132;0.4946011;0.4357094;1.896609;0.5043678;0.09483021;1.747705;0.5464177;-0.03540736;0.8361464;0.4443002;0;0;0;0.9560513;1.898106;0.5043674;1.245395;1.751014;0.5464176;1.345151;0.7927222;0.5474863;1.397181;-0.09005451;0.207215;0.3739696;-0.2200232;0.2960385;0.3522137;-1.678537;0.1814835;0.2669675;-3.007102;0.3814222;0.3739696;-0.2200232;0.2960385;0.3522137;-1.678537;0.1814835;0.2669675;-3.007102;0.3814222
219695.0358;NotLabelled;16384;0.7624751;-0.6371191;0.06786703;0.0900277;-1;2;0;210;3984;687;65536;0.7638878;-0.6066482;-0.1204986;0.1842105;0;3;-1;-1805;3652;-781;8192;0.2617728;-0.2437673;-0.6966442;-0.6218836;0;2;0;38;4055;439;32768;-0.3753462;0.1149584;0.6398892;0.6606373;1;1;0;1403;3869;-456;256;-0.3033241;0.3545706;-0.5789474;-0.668651;0;2;0;-37;4020;-613;128;0.3739612;-0.4127424;0.4432133;0.702395;-2;1;0;-647;3795;1352;4;0.7069304;-0.6759003;0.1218837;0.1689751;0;1;0;313;4048;100;16;0.5650969;-0.6424369;-0.3213296;-0.4058172;0;-1;0;135;4030;602;2;0.1260388;-0.07617728;-0.7195261;-0.6786703;0;1;0;-291;4108;287;8;0.5249307;-0.6431263;-0.367036;-0.4196676;0;1;0;-87;4081;699;0.6893631;-0.1774709;0.3070995;0.69533;0.3662767;0.350967;0.7005767;0.8443933;0.3875105;0.6970059;1.570362;0.4943739;0.4366995;1.897306;0.5041412;0.09612608;1.747705;0.5461913;-0.03435361;0.8361459;0.444383;0;0;0;0.9570372;1.899869;0.5041404;1.246681;1.75337;0.5461903;1.34644;0.7950783;0.5470225;1.401154;-0.08781362;0.2074695;0.3771169;-0.2187872;0.2958106;0.3550892;-1.677301;0.1813075;0.2703176;-3.005866;0.381448;0.3771169;-0.2187872;0.2958106;0.3550892;-1.677301;0.1813075;0.2703176;-3.005866;0.381448
219715.0405;NotLabelled;16384;0.7624751;-0.6371191;0.06786703;0.0900277;-1;2;0;240;4018;727;65536;0.7640008;-0.6066482;-0.1218837;0.1828255;1;3;-1;-1825;3682;-773;8192;0.2617728;-0.2437673;-0.6966442;-0.6218836;-1;2;0;40;4127;437;32768;-0.3753462;0.1149584;0.6398892;0.6606373;2;1;0;1409;3835;-444;256;-0.3047091;0.3545706;-0.5789474;-0.6680209;0;3;0;-47;4088;-635;128;0.3739612;-0.4127424;0.4432133;0.702395;-1;1;0;-639;3885;1398;4;0.7069304;-0.6759003;0.1218837;0.1689751;0;1;0;305;4050;70;16;0.5650969;-0.6424369;-0.3213296;-0.4058172;0;0;0;133;4030;588;2;0.1260388;-0.07617728;-0.7195261;-0.6786703;1;1;0;-287;4098;279;8;0.5249307;-0.6431263;-0.367036;-0.4196676;0;0;0;-171;4043;725;0.6893631;-0.1774709;0.3070995;0.69533;0.3662767;0.350967;0.7005767;0.8443933;0.3875105;0.6970059;1.570362;0.4943739;0.4366995;1.897306;0.5041412;0.09612608;1.747705;0.5461913;-0.03435361;0.8361459;0.444383;0;0;0;0.9570372;1.899869;0.5041404;1.246681;1.75337;0.5461903;1.347766;0.795218;0.5475411;1.40248;-0.08767343;0.207988;0.3771169;-0.2187872;0.2958106;0.3550892;-1.677301;0.1813075;0.2703176;-3.005866;0.381448;0.3771169;-0.2187872;0.2958106;0.3550892;-1.677301;0.1813075;0.2703176;-3.005866;0.381448
219736.1654;NotLabelled;16384;0.7626374;-0.6371191;0.06786703;0.08864266;-2;3;1;220;3996;709;65536;0.7640008;-0.6066482;-0.1218837;0.1828255;0;3;-1;-1751;3644;-761;8192;0.2617728;-0.2437673;-0.6966442;-0.6218836;-1;2;0;30;4099;433;32768;-0.3753462;0.1135734;0.6398892;0.6608768;2;1;0;1473;3867;-472;256;-0.3047091;0.3545706;-0.5789474;-0.6680209;0;2;0;-15;4008;-617;128;0.3739612;-0.4127424;0.4432133;0.702395;-1;1;1;-699;3867;1364;4;0.7069304;-0.6759003;0.1218837;0.1689751;0;1;0;333;4056;104;16;0.5650969;-0.6424369;-0.3213296;-0.4058172;0;0;0;195;4042;568;2;0.1260388;-0.07617728;-0.7195261;-0.6786703;0;1;0;-297;4116;289;8;0.5249307;-0.6431263;-0.367036;-0.4196676;0;0;0;-87;4035;737;0.6883807;-0.1786597;0.30845;0.6943476;0.365088;0.3523175;0.6995944;0.8432045;0.3888609;0.6970888;1.569358;0.4944876;0.4372627;1.896701;0.5036959;0.09646979;1.747672;0.5459977;-0.03421773;0.8361125;0.4444566;0;0;0;0.9576036;1.898499;0.5036952;1.247032;1.751647;0.545997;1.34812;0.7934957;0.5471418;1.402139;-0.08939648;0.2074777;0.3761344;-0.2199759;0.297161;0.3538728;-1.67849;0.1827032;0.2695103;-3.007055;0.3830163;0.3761344;-0.2199759;0.297161;0.3538728;-1.67849;0.1827032;0.2695103;-3.007055;0.3830163
219756.1973;NotLabelled;16384;0.7639142;-0.6357341;0.06648199;0.08864266;-1;2;1;232;4010;677;65536;0.7648766;-0.6052631;-0.1232687;0.1828255;0;3;-1;-1799;3632;-777;8192;0.2617728;-0.2437673;-0.6966442;-0.6218836;-1;2;0;32;4105;439;32768;-0.3753462;0.1135734;0.6412742;0.6595329;2;0;0;1417;3873;-422;256;-0.3047091;0.3559557;-0.5775623;-0.6684831;1;1;0;-13;4006;-581;128;0.3739612;-0.4127424;0.4418283;0.703267;-1;1;1;-739;3849;1332;4;0.7072601;-0.6759003;0.1218837;0.16759;0;2;0;349;4044;124;16;0.5650969;-0.6424369;-0.3213296;-0.4058172;0;0;0;201;4034;606;2;0.1260388;-0.07617728;-0.7195261;-0.6786703;0;0;0;-313;4118;275;8;0.5249307;-0.6431263;-0.367036;-0.4196676;0;0;0;-127;4037;715;0.6893129;-0.178643;0.3070818;0.6952798;0.3651047;0.3509493;0.7005265;0.8432212;0.3874927;0.6980209;1.569375;0.4931199;0.4381948;1.896718;0.5023281;0.09740177;1.747688;0.5446298;-0.03421815;0.836112;0.444457;0;0;0;0.9585357;1.898516;0.5023276;1.247964;1.751664;0.5446296;1.349052;0.7935119;0.5457731;1.403522;-0.08868456;0.2043799;0.3770666;-0.2199593;0.2957929;0.3548051;-1.678473;0.1813344;0.2704424;-3.007038;0.3816471;0.3770666;-0.2199593;0.2957929;0.3548051;-1.678473;0.1813344;0.2704424;-3.007038;0.3816471
219777.1551;NotLabelled;16384;0.7639142;-0.6357341;0.06648199;0.08864266;0;2;2;224;4004;679;65536;0.7648766;-0.6052631;-0.1232687;0.1828255;0;3;-1;-1769;3668;-757;8192;0.2617728;-0.2423823;-0.6971273;-0.6218836;-1;1;0;-2;4149;437;32768;-0.3753462;0.1135734;0.6412742;0.6595329;2;0;0;1455;3827;-458;256;-0.3047091;0.3559557;-0.5775623;-0.6684831;0;1;0;-5;4068;-653;128;0.3739612;-0.4141274;0.4418283;0.7024524;0;1;0;-695;3857;1306;4;0.7072601;-0.6759003;0.1218837;0.16759;0;1;0;343;4076;104;16;0.5650969;-0.6424369;-0.3213296;-0.4058172;0;0;0;193;4034;586;2;0.1260388;-0.07617728;-0.7195261;-0.6786703;0;1;0;-261;4142;269;8;0.5249307;-0.6431263;-0.367036;-0.4196676;0;0;0;-173;4033;683;0.6941526;-0.1798604;0.3072957;0.7001181;0.3637652;0.3526524;0.7053637;0.8417797;0.3905051;0.7026155;1.567586;0.4984825;0.4426795;1.894811;0.5087535;0.1019371;1.745531;0.5505764;-0.0320297;0.8346324;0.447392;0;0;0;0.9630197;1.896784;0.5087526;1.252498;1.749893;0.5505753;1.353588;0.7917414;0.5514803;1.410745;-0.09055781;0.2107904;0.3819066;-0.2211456;0.2958843;0.3577702;-1.679817;0.1838456;0.2738844;-3.008382;0.3843596;0.3819066;-0.2211456;0.2958843;0.3577702;-1.679817;0.1838456;0.2738844;-3.008382;0.3843596
219797.5074;NotLabelled;16384;0.7640334;-0.6357341;0.06509695;0.08864266;-1;3;1;192;3996;673;65536;0.7649819;-0.6052631;-0.1246537;0.1814404;0;3;-2;-1759;3666;-745;8192;0.2617728;-0.2423823;-0.6971273;-0.6218836;0;1;0;-2;4093;453;32768;-0.3753462;0.1135734;0.6412742;0.6595329;2;0;0;1447;3821;-414;256;-0.3060942;0.3559557;-0.5775623;-0.66785;1;1;0;-19;4066;-573;128;0.3739612;-0.4141274;0.4418283;0.7024524;0;0;0;-613;3851;1296;4;0.7074974;-0.6759003;0.1204986;0.16759;0;2;0;265;4042;102;16;0.5650969;-0.6424369;-0.3213296;-0.4058172;0;0;0;233;4010;592;2;0.1260388;-0.07479224;-0.7183627;-0.6800554;0;1;0;-335;4060;237;8;0.5249307;-0.6431263;-0.367036;-0.4196676;0;0;0;-135;4031;691;0.6941525;-0.1798699;0.3074062;0.7001181;0.3637605;0.3527045;0.7053638;0.8417788;0.3905059;0.7026154;1.567586;0.4984836;0.4426795;1.89481;0.5087547;0.1019371;1.74553;0.5505775;-0.03203027;0.8346319;0.4473925;0;0;0;0.9630197;1.896784;0.508754;1.252498;1.749892;0.5505767;1.354653;0.791853;0.5498972;1.41181;-0.09044576;0.2092068;0.3819066;-0.2211559;0.2959995;0.3577702;-1.679828;0.1839601;0.2738844;-3.008393;0.3844732;0.3819066;-0.2211559;0.2959995;0.3577702;-1.679828;0.1839601;0.2738844;-3.008393;0.3844732
219818.1979;NotLabelled;16384;0.7640334;-0.6357341;0.06509695;0.08864266;-1;2;1;250;4054;691;65536;0.7649819;-0.6052631;-0.1246537;0.1814404;0;3;-1;-1783;3682;-741;8192;0.2617728;-0.2423823;-0.6971273;-0.6218836;-1;1;0;4;4119;455;32768;-0.3753462;0.1135734;0.6412742;0.6595329;1;0;0;1433;3803;-414;256;-0.3060942;0.3559557;-0.5775623;-0.66785;1;1;0;-27;4058;-655;128;0.3739612;-0.4141274;0.4418283;0.7024524;0;0;1;-621;3899;1368;4;0.7074974;-0.6759003;0.1204986;0.16759;0;2;0;313;4036;96;16;0.5650969;-0.6424369;-0.3213296;-0.4058172;-1;0;1;189;4040;590;2;0.1260388;-0.07479224;-0.7183627;-0.6800554;0;1;0;-297;4096;221;8;0.5263157;-0.6419933;-0.367036;-0.4196676;0;0;0;-103;3997;729;0.6923593;-0.181143;0.3105529;0.6983249;0.3624873;0.3558511;0.7035706;0.8405056;0.3936524;0.7018846;1.5665;0.5003881;0.442428;1.894122;0.5100976;0.1014673;1.745412;0.5521734;-0.03190252;0.8346004;0.4474607;0;0;0;0.9627705;1.895333;0.5100971;1.252033;1.748089;0.552173;1.354187;0.7900505;0.5512846;1.410647;-0.0922482;0.2104783;0.3801134;-0.2224293;0.2991462;0.3564897;-1.680892;0.1843001;0.2730141;-3.009456;0.3849845;0.3801134;-0.2224293;0.2991462;0.3564897;-1.680892;0.1843001;0.2730141;-3.009456;0.3849845
219839.1698;NotLabelled;16384;0.7640334;-0.6357341;0.06509695;0.08864266;0;3;1;174;3964;661;65536;0.7649819;-0.6052631;-0.1246537;0.1814404;0;2;-1;-1801;3638;-783;8192;0.2617728;-0.2423823;-0.6983604;-0.6204986;-2;0;0;68;4059;447;32768;-0.3753462;0.1121884;0.6412742;0.65977;2;0;0;1469;3875;-404;256;-0.3060942;0.3573407;-0.5775623;-0.66711;1;1;0;5;4044;-661;128;0.3739612;-0.4141274;0.4418283;0.7024524;0;0;0;-673;3877;1326;4;0.7074974;-0.6759003;0.1204986;0.16759;0;1;0;239;4040;102;16;0.5650969;-0.6424369;-0.3213296;-0.4058172;0;0;1;231;4014;610;2;0.1260388;-0.07479224;-0.7183627;-0.6800554;0;1;0;-349;4112;271;8;0.5263157;-0.6419933;-0.367036;-0.4196676;0;0;1;-163;4007;745;0.6923593;-0.181143;0.3105529;0.6983249;0.3624873;0.3558511;0.7035706;0.8405056;0.3936524;0.7018846;1.5665;0.5003881;0.442428;1.894122;0.5100976;0.1014673;1.745412;0.5521734;-0.03190252;0.8346004;0.4474607;0;0;0;0.9627705;1.895333;0.5100971;1.252033;1.748089;0.552173;1.354187;0.7900505;0.5512846;1.410647;-0.0922482;0.2104783;0.3801134;-0.2224293;0.2991462;0.3564897;-1.680892;0.1843001;0.2730141;-3.009456;0.3849845;0.3801134;-0.2224293;0.2991462;0.3564897;-1.680892;0.1843001;0.2730141;-3.009456;0.3849845
219860.1561;NotLabelled;16384;0.7643095;-0.6357341;0.06371191;0.08725762;-1;2;1;234;4000;691;65536;0.764755;-0.6052631;-0.1260388;0.1814404;0;2;-1;-1765;3588;-747;8192;0.2617728;-0.2423823;-0.6983604;-0.6204986;-2;0;0;56;4075;423;32768;-0.3753462;0.1135734;0.6412742;0.6595329;2;0;0;1401;3815;-386;256;-0.3060942;0.3573407;-0.5775623;-0.66711;0;2;0;-41;4036;-577;128;0.3739612;-0.4141274;0.4418283;0.7024524;-1;0;0;-607;3867;1324;4;0.7074974;-0.6759003;0.1204986;0.16759;0;1;0;283;4062;116;16;0.5650969;-0.6415599;-0.3213296;-0.4072022;0;0;0;195;4052;656;2;0.1260388;-0.07479224;-0.7183627;-0.6800554;0;0;0;-327;4136;299;8;0.5263157;-0.6419933;-0.367036;-0.4196676;0;0;0;-117;4019;723;0.6955281;-0.1799054;0.3103092;0.7014937;0.3637249;0.3556073;0.7067394;0.8417437;0.3934088;0.7035629;1.567733;0.5001451;0.4434344;1.894821;0.509855;0.1027795;1.745411;0.5519307;-0.03083876;0.8346007;0.4475354;0;0;0;0.9637733;1.897101;0.5098543;1.253338;1.750451;0.5519301;1.35895;0.7927868;0.5515932;1.415045;-0.0888145;0.2089278;0.3832822;-0.2211916;0.2989026;0.3593856;-1.679654;0.1841128;0.2763873;-3.008219;0.3849949;0.3832822;-0.2211916;0.2989026;0.3593856;-1.679654;0.1841128;0.2763873;-3.008219;0.3849949
219881.054;NotLabelled;16384;0.7643095;-0.6357341;0.06371191;0.08725762;-1;2;0;230;4018;665;65536;0.764755;-0.6052631;-0.1260388;0.1814404;0;2;-1;-1763;3648;-789;8192;0.2617728;-0.2409972;-0.6988396;-0.6204986;-1;2;0;-8;4111;467;32768;-0.3753462;0.1121884;0.6426592;0.6584209;1;1;0;1407;3869;-390;256;-0.3060942;0.3573407;-0.5775623;-0.66711;0;1;0;-27;4036;-583;128;0.3739612;-0.4141274;0.4418283;0.7024524;0;0;0;-675;3889;1400;4;0.7074974;-0.6759003;0.1204986;0.16759;0;1;0;307;4056;144;16;0.5650969;-0.6415599;-0.3213296;-0.4072022;0;0;0;227;4016;566;2;0.1246537;-0.0734072;-0.7187472;-0.6800554;0;1;0;-273;4092;261;8;0.5249307;-0.6431263;-0.367036;-0.4196676;0;0;0;-125;4031;723;0.6940038;-0.1807072;0.311993;0.6999695;0.3629231;0.3572912;0.7052151;0.8409419;0.3950926;0.7020386;1.566931;0.5018289;0.4419101;1.894019;0.5115387;0.1012552;1.744609;0.5536145;-0.03247374;0.8338642;0.4487908;0;0;0;0.962249;1.896299;0.5115383;1.251813;1.74965;0.553614;1.357426;0.791985;0.5532771;1.413076;-0.0903132;0.2123377;0.3817579;-0.2219934;0.3005864;0.3578614;-1.680455;0.1857966;0.2715463;-3.008884;0.3861801;0.3817579;-0.2219934;0.3005864;0.3578614;-1.680455;0.1857966;0.2715463;-3.008884;0.3861801
219902.1578;NotLabelled;16384;0.7643095;-0.6357341;0.06371191;0.08725762;0;2;0;252;4000;687;65536;0.7650822;-0.6052631;-0.1260388;0.1800554;0;3;0;-1767;3714;-789;8192;0.2617728;-0.2409972;-0.6988396;-0.6204986;0;1;0;70;4067;457;32768;-0.3753462;0.1121884;0.6426592;0.6584209;1;0;1;1537;3785;-358;256;-0.3060942;0.3573407;-0.5761772;-0.6683066;1;1;0;-57;4014;-565;128;0.3753462;-0.4141274;0.4418283;0.7017133;2;0;0;-627;3863;1384;4;0.7080584;-0.6759003;0.1191136;0.166205;0;2;0;265;4132;108;16;0.5650969;-0.6415599;-0.3213296;-0.4072022;0;1;0;187;4030;628;2;0.1246537;-0.0734072;-0.7187472;-0.6800554;0;1;0;-223;4070;281;8;0.5263157;-0.6419933;-0.367036;-0.4196676;0;0;0;-133;3989;745;0.6940038;-0.1807072;0.311993;0.6999695;0.3629231;0.3572912;0.7052151;0.8409419;0.3950926;0.7020386;1.566931;0.5018289;0.4419101;1.894019;0.5115387;0.1012552;1.744609;0.5536145;-0.03247374;0.8338642;0.4487908;0;0;0;0.962249;1.896299;0.5115383;1.251813;1.74965;0.553614;1.358481;0.7921038;0.5516934;1.418082;-0.08958673;0.2098496;0.3817579;-0.2219934;0.3005864;0.3578614;-1.680455;0.1857966;0.2715463;-3.008884;0.3861801;0.3817579;-0.2219934;0.3005864;0.3578614;-1.680455;0.1857966;0.2715463;-3.008884;0.3861801
219923.2948;NotLabelled;16384;0.7643095;-0.6357341;0.06371191;0.08725762;0;2;1;192;4018;691;65536;0.7648528;-0.6052631;-0.1274238;0.1800554;0;2;0;-1789;3678;-801;8192;0.2631579;-0.2409972;-0.6983193;-0.6204986;-1;0;0;20;4037;437;32768;-0.3753462;0.1121884;0.6426592;0.6584209;0;0;1;1405;3851;-414;256;-0.3060942;0.3573407;-0.5761772;-0.6683066;1;0;0;7;4042;-633;128;0.3739612;-0.4141274;0.4418283;0.7024524;0;0;0;-657;3873;1346;4;0.7080584;-0.6759003;0.1191136;0.166205;0;0;0;283;4022;124;16;0.5650969;-0.6415599;-0.3213296;-0.4072022;0;0;0;217;4036;642;2;0.1246537;-0.0734072;-0.7187472;-0.6800554;0;1;0;-253;4086;255;8;0.5263157;-0.6419933;-0.367036;-0.4196676;0;0;0;-151;4093;711;0.6932908;-0.1806996;0.3100036;0.6992575;0.3630271;0.3541335;0.704504;0.841126;0.3909073;0.702579;1.56677;0.4999884;0.4430142;1.894273;0.5107585;0.1021028;1.745316;0.5523562;-0.0316298;0.8345704;0.4475369;0;0;0;0.9633563;1.895656;0.5107578;1.252668;1.748374;0.5523555;1.359335;0.7908282;0.5504317;1.418935;-0.09086204;0.2085876;0.3810445;-0.2220101;0.2986931;0.3563036;-1.68042;0.1834184;0.2699893;-3.008849;0.3838024;0.3810445;-0.2220101;0.2986931;0.3563036;-1.68042;0.1834184;0.2699893;-3.008849;0.3838024
219945.2097;NotLabelled;16384;0.7644237;-0.6357341;0.06232687;0.08725762;0;2;1;136;4024;725;65536;0.7648528;-0.6052631;-0.1274238;0.1800554;0;0;0;-1767;3686;-739;8192;0.2631579;-0.2409972;-0.6983193;-0.6204986;0;0;0;10;4049;433;32768;-0.3753462;0.1121884;0.6426592;0.6584209;0;-1;1;1405;3847;-416;256;-0.3060942;0.3573407;-0.5761772;-0.6683066;1;1;0;-27;3982;-605;128;0.3753462;-0.4141274;0.4418283;0.7017133;0;0;0;-663;3927;1316;4;0.7080584;-0.6759003;0.1191136;0.166205;0;0;0;247;4058;136;16;0.5650969;-0.6415599;-0.3213296;-0.4072022;0;0;0;271;4018;644;2;0.1246537;-0.0734072;-0.7187472;-0.6800554;0;1;0;-343;4064;289;8;0.5263157;-0.6419933;-0.367036;-0.4196676;0;0;0;-111;4031;705;0.6916487;-0.1812589;0.3090624;0.6976144;0.3623714;0.3543606;0.70286;0.8403897;0.392162;0.700935;1.566035;0.5012431;0.4413703;1.893538;0.5120131;0.1004589;1.74458;0.5536109;-0.03327052;0.8338346;0.4487876;0;0;0;0.9617124;1.894921;0.5120125;1.251024;1.747638;0.5536102;1.357424;0.7900691;0.5495859;1.417024;-0.09162164;0.207742;0.3794027;-0.2225451;0.2976558;0.3546618;-1.680955;0.1823811;0.2683475;-3.009384;0.3827649;0.3794027;-0.2225451;0.2976558;0.3546618;-1.680955;0.1823811;0.2683475;-3.009384;0.3827649
219967.033;NotLabelled;16384;0.7644237;-0.6357341;0.06232687;0.08725762;0;1;0;140;4040;699;65536;0.7648528;-0.6052631;-0.1274238;0.1800554;0;1;0;-1787;3632;-799;8192;0.2631579;-0.2409972;-0.6983193;-0.6204986;0;0;0;60;4073;413;32768;-0.3753462;0.1108033;0.6426592;0.6586554;0;0;1;1453;3825;-460;256;-0.3060942;0.3573407;-0.5761772;-0.6683066;0;1;0;-33;4034;-619;128;0.3753462;-0.4141274;0.4418283;0.7017133;0;1;0;-701;3873;1314;4;0.7080584;-0.6759003;0.1191136;0.166205;0;0;0;313;4036;126;16;0.5650969;-0.6415599;-0.3213296;-0.4072022;0;0;0;207;4066;624;2;0.1246537;-0.0734072;-0.7187472;-0.6800554;0;0;0;-289;4096;265;8;0.5263157;-0.6419933;-0.367036;-0.4196676;0;0;0;-145;3971;741;0.6908337;-0.181524;0.3130515;0.6968005;0.3622026;0.3571813;0.702047;0.8403015;0.3939552;0.700122;1.565946;0.5030363;0.4405572;1.893449;0.5138064;0.09964579;1.744492;0.5554041;-0.0332702;0.8338346;0.4487876;0;0;0;0.9608992;1.894832;0.5138056;1.250211;1.747549;0.5554034;1.356611;0.7899799;0.5513759;1.416211;-0.09171009;0.209532;0.3785875;-0.2228346;0.3017409;0.3538465;-1.681244;0.1864662;0.2675323;-3.009673;0.3868502;0.3785875;-0.2228346;0.3017409;0.3538465;-1.681244;0.1864662;0.2675323;-3.009673;0.3868502
219987.1373;NotLabelled;16384;0.7644237;-0.6357341;0.06232687;0.08725762;-1;1;0;206;4000;711;65536;0.7648528;-0.6052631;-0.1274238;0.1800554;0;2;-1;-1831;3702;-805;8192;0.2617728;-0.2409972;-0.6988396;-0.6204986;0;1;0;48;4039;471;32768;-0.3753462;0.1108033;0.6426592;0.6586554;1;2;0;1393;3797;-446;256;-0.3060942;0.3573407;-0.5761772;-0.6683066;0;1;0;-5;4016;-591;128;0.3753462;-0.4141274;0.4418283;0.7017133;0;0;0;-663;3893;1326;4;0.7080584;-0.6759003;0.1191136;0.166205;0;0;0;277;4068;86;16;0.5650969;-0.6415599;-0.3213296;-0.4072022;0;0;0;249;4036;632;2;0.1246537;-0.0734072;-0.7187472;-0.6800554;0;1;0;-283;4062;225;8;0.5263157;-0.6419933;-0.367036;-0.4196676;0;0;0;-79;4011;707;0.6908309;-0.181524;0.3130554;0.6967977;0.3622026;0.3571851;0.7020441;0.8403015;0.393959;0.7001191;1.565946;0.5030402;0.4405543;1.893449;0.5138102;0.09964296;1.744492;0.5554079;-0.03327009;0.8338351;0.4487875;0;0;0;0.9608966;1.894832;0.5138096;1.250208;1.747549;0.5554073;1.356608;0.7899804;0.5513831;1.416658;-0.09101105;0.2078187;0.3785847;-0.2228346;0.3017448;0.3538437;-1.681244;0.1864701;0.2675295;-3.009673;0.3868541;0.3785847;-0.2228346;0.3017448;0.3538437;-1.681244;0.1864701;0.2675295;-3.009673;0.3868541
220009.1133;NotLabelled;16384;0.7644237;-0.6357341;0.06232687;0.08725762;-1;1;0;234;4060;723;65536;0.7646208;-0.6052631;-0.1288089;0.1800554;0;2;0;-1733;3626;-807;8192;0.2617728;-0.2396122;-0.6993157;-0.6204986;0;2;0;62;4001;479;32768;-0.3753462;0.1108033;0.6426592;0.6586554;0;0;1;1503;3765;-410;256;-0.3060942;0.3573407;-0.5761772;-0.6683066;0;1;1;-15;4020;-579;128;0.3753462;-0.4141274;0.4418283;0.7017133;0;0;0;-703;3891;1314;4;0.7080584;-0.6759003;0.1191136;0.166205;0;0;0;303;4074;106;16;0.5650969;-0.6424369;-0.3213296;-0.4058172;0;0;0;171;4016;590;2;0.1246537;-0.0734072;-0.7187472;-0.6800554;0;0;0;-269;4076;261;8;0.5263157;-0.6419933;-0.367036;-0.4196676;0;0;0;-147;4049;711;0.6908309;-0.181524;0.3130554;0.6967977;0.3622026;0.3571851;0.7020441;0.8403015;0.393959;0.7001191;1.565946;0.5030402;0.4405543;1.893449;0.5138102;0.09964296;1.744492;0.5554079;-0.03327009;0.8338351;0.4487875;0;0;0;0.9608966;1.894832;0.5138096;1.250208;1.747549;0.5554073;1.356876;0.7900038;0.5534865;1.416925;-0.09098768;0.2099221;0.3785847;-0.2228346;0.3017448;0.3538437;-1.681244;0.1864701;0.2675295;-3.009673;0.3868541;0.3785847;-0.2228346;0.3017448;0.3538437;-1.681244;0.1864701;0.2675295;-3.009673;0.3868541
220029.2164;NotLabelled;16384;0.7644237;-0.6357341;0.06232687;0.08725762;-1;2;0;180;4052;755;65536;0.7649456;-0.6052631;-0.1288089;0.1786704;0;2;0;-1745;3672;-815;8192;0.2617728;-0.2396122;-0.6993157;-0.6204986;0;0;-1;2;4047;445;32768;-0.3753462;0.1108033;0.6426592;0.6586554;0;0;1;1429;3837;-362;256;-0.3060942;0.3573407;-0.5761772;-0.6683066;0;1;0;-7;4034;-593;128;0.3753462;-0.4141274;0.4418283;0.7017133;0;2;0;-689;3859;1358;4;0.7080584;-0.6759003;0.1191136;0.166205;0;0;0;349;4076;126;16;0.5650969;-0.6424369;-0.3213296;-0.4058172;0;0;0;197;4020;612;2;0.1246537;-0.0734072;-0.7187472;-0.6800554;0;1;0;-261;4076;319;8;0.5263157;-0.6436853;-0.365651;-0.4182825;0;0;0;-113;3991;683;0.6891852;-0.1822629;0.3143005;0.6951519;0.3614638;0.3584302;0.7003984;0.8395627;0.3952041;0.6984734;1.565207;0.5042852;0.4389086;1.89271;0.5150553;0.09799719;1.743753;0.556653;-0.03491579;0.8330963;0.4500326;0;0;0;0.9592508;1.894093;0.5150547;1.248563;1.74681;0.5566523;1.356284;0.789387;0.5531495;1.416334;-0.09160423;0.2095852;0.3769389;-0.2235734;0.3029899;0.3521979;-1.681983;0.1877152;0.2692004;-3.010548;0.3885978;0.3769389;-0.2235734;0.3029899;0.3521979;-1.681983;0.1877152;0.2692004;-3.010548;0.3885978
220051.1659;NotLabelled;16384;0.7645806;-0.6357341;0.06232687;0.08587258;-1;1;0;246;4018;719;65536;0.7649456;-0.6052631;-0.1288089;0.1786704;0;3;0;-1805;3682;-811;8192;0.2617728;-0.2396122;-0.6993157;-0.6204986;0;0;0;-14;4027;445;32768;-0.3739612;0.1108033;0.6426592;0.6594428;0;0;1;1437;3791;-404;256;-0.3060942;0.3573407;-0.5761772;-0.6683066;0;1;2;-31;4022;-635;128;0.3753462;-0.4141274;0.4418283;0.7017133;0;2;-1;-681;3869;1342;4;0.7080584;-0.6759003;0.1191136;0.166205;0;0;0;257;4004;124;16;0.5650969;-0.6415599;-0.3213296;-0.4072022;0;0;0;135;4052;612;2;0.1246537;-0.0734072;-0.7187472;-0.6800554;0;1;0;-285;4072;275;8;0.5263157;-0.6436853;-0.365651;-0.4182825;0;0;1;-103;4033;721;0.6900265;-0.1815522;0.3130471;0.6959932;0.3621745;0.3571768;0.7012397;0.8402734;0.3939508;0.6993147;1.565917;0.5030319;0.4397499;1.893421;0.5138019;0.09883854;1.744463;0.5553997;-0.0340745;0.833807;0.4487792;0;0;0;0.9600921;1.894804;0.5138013;1.249404;1.747521;0.5553991;1.357125;0.7900977;0.551896;1.417175;-0.09089351;0.2083316;0.3777802;-0.2228627;0.3017365;0.3530393;-1.681272;0.1864618;0.2700417;-3.009837;0.3873444;0.3777802;-0.2228627;0.3017365;0.3530393;-1.681272;0.1864618;0.2700417;-3.009837;0.3873444
220072.0308;NotLabelled;16384;0.7658416;-0.634349;0.06094183;0.08587258;-1;1;0;238;3984;733;65536;0.7649456;-0.6052631;-0.1288089;0.1786704;0;2;0;-1803;3652;-845;8192;0.2617728;-0.2396122;-0.6993157;-0.6204986;0;0;0;30;4103;451;32768;-0.3739612;0.1094183;0.6426592;0.659674;0;0;0;1395;3785;-434;256;-0.3060942;0.3573407;-0.5761772;-0.6683066;0;0;1;53;4012;-557;128;0.3767313;-0.4155124;0.4418283;0.7001505;0;3;0;-637;3873;1326;4;0.7080584;-0.6759003;0.1191136;0.166205;-1;0;0;289;4112;158;16;0.5650969;-0.6415599;-0.3213296;-0.4072022;0;0;0;225;4048;628;2;0.1246537;-0.0734072;-0.7187472;-0.6800554;0;1;0;-287;4044;237;8;0.5263157;-0.6436853;-0.365651;-0.4182825;0;0;1;-143;4039;713;0.6909467;-0.1815279;0.3116761;0.6969134;0.3621988;0.3558061;0.7021599;0.8402977;0.3925799;0.7002349;1.565942;0.501661;0.4406701;1.893445;0.5124311;0.09975868;1.744488;0.5540288;-0.03407446;0.833806;0.4487793;0;0;0;0.9610122;1.894828;0.5124304;1.250324;1.747545;0.554028;1.358045;0.790122;0.5505252;1.417063;-0.09153652;0.2084987;0.3787004;-0.2228384;0.3003657;0.3539594;-1.681248;0.185091;0.2676452;-3.009677;0.3854749;0.3787004;-0.2228384;0.3003657;0.3539594;-1.681248;0.185091;0.2676452;-3.009677;0.3854749
220093.1098;NotLabelled;16384;0.7658416;-0.634349;0.06094183;0.08587258;-1;0;0;194;4018;685;65536;0.7650334;-0.6052631;-0.1301939;0.1772853;1;1;0;-1807;3644;-861;8192;0.2617728;-0.2396122;-0.6993157;-0.6204986;0;0;0;68;4059;445;32768;-0.3739612;0.1094183;0.6426592;0.659674;0;1;0;1403;3807;-398;256;-0.3074792;0.3573407;-0.5747922;-0.6688633;1;1;1;-103;4044;-597;128;0.3767313;-0.4155124;0.4404432;0.7010226;-1;2;0;-655;3875;1336;4;0.7080584;-0.6759003;0.1191136;0.166205;-1;0;0;287;4078;98;16;0.5650969;-0.6415599;-0.3213296;-0.4072022;0;-1;0;211;4032;614;2;0.1246537;-0.0734072;-0.7187472;-0.6800554;0;0;0;-317;4120;241;8;0.5263157;-0.6436853;-0.365651;-0.4182825;0;0;1;-139;4067;695;0.6930271;-0.1824062;0.3173048;0.6989949;0.3614187;0.360204;0.7042423;0.8395996;0.3958957;0.7023173;1.565244;0.5049769;0.4427525;1.892747;0.515747;0.1018412;1.74379;0.5573447;-0.03407459;0.833806;0.448779;0;0;0;0.9630947;1.894131;0.5157464;1.252407;1.746847;0.5573442;1.360128;0.7894239;0.553838;1.419603;-0.09153438;0.2100911;0.3807805;-0.2237425;0.3060956;0.3560395;-1.682152;0.1908208;0.2697253;-3.010581;0.3912048;0.3807805;-0.2237425;0.3060956;0.3560395;-1.682152;0.1908208;0.2697253;-3.010581;0.3912048
220113.2891;NotLabelled;16384;0.7658416;-0.634349;0.06094183;0.08587258;-2;0;0;212;4000;717;65536;0.7650334;-0.6052631;-0.1301939;0.1772853;0;2;0;-1757;3654;-841;8192;0.2617728;-0.2396122;-0.6980844;-0.6218836;0;1;0;50;4089;499;32768;-0.3739612;0.1094183;0.6426592;0.659674;0;2;1;1437;3865;-398;256;-0.3074792;0.3573407;-0.5747922;-0.6688633;0;1;1;-21;4018;-623;128;0.3767313;-0.4155124;0.4404432;0.7010226;0;2;0;-667;3829;1372;4;0.7080584;-0.6759003;0.1191136;0.166205;-1;-1;0;323;4082;74;16;0.5650969;-0.6415599;-0.3213296;-0.4072022;0;0;1;225;4058;648;2;0.1246537;-0.0734072;-0.7187472;-0.6800554;0;0;0;-315;4094;267;8;0.5263157;-0.6436853;-0.365651;-0.4182825;0;0;1;-89;3957;697;0.6904725;-0.1838834;0.3129398;0.696439;0.3598223;0.3573231;0.7016853;0.837904;0.3943199;0.7020704;1.563386;0.5044932;0.4435494;1.891697;0.5157571;0.1021655;1.743763;0.5571319;-0.03396566;0.8337793;0.4488368;0;0;0;0.9638933;1.891424;0.5157565;1.252735;1.743158;0.5571314;1.360449;0.7857347;0.553411;1.41922;-0.0952239;0.2095436;0.3782263;-0.2251892;0.3016083;0.3532494;-1.683598;0.1863845;0.2673455;-3.012027;0.3869447;0.3782263;-0.2251892;0.3016083;0.3532494;-1.683598;0.1863845;0.2673455;-3.012027;0.3869447
220134.0399;NotLabelled;16384;0.7658416;-0.634349;0.06094183;0.08587258;-2;1;0;208;4022;729;65536;0.7650334;-0.6052631;-0.1301939;0.1772853;1;2;0;-1743;3682;-821;8192;0.2617728;-0.2396122;-0.6980844;-0.6218836;1;1;-1;6;4051;441;32768;-0.3739612;0.1094183;0.6412742;0.6610205;0;2;1;1455;3817;-406;256;-0.3074792;0.3573407;-0.5747922;-0.6688633;1;1;1;25;4030;-557;128;0.3767313;-0.4155124;0.4404432;0.7010226;0;2;-1;-663;3859;1402;4;0.7080584;-0.6759003;0.1191136;0.166205;-1;0;0;305;4086;86;16;0.5650969;-0.6415599;-0.3213296;-0.4072022;0;0;0;163;3994;644;2;0.1246537;-0.07202215;-0.7188873;-0.6800554;0;0;0;-311;4110;269;8;0.5263157;-0.6427832;-0.365651;-0.4196676;0;0;0;-115;4073;725;0.6904756;-0.1838837;0.3129358;0.6964421;0.359822;0.3573192;0.7016884;0.8379037;0.3943161;0.7020734;1.563386;0.5044892;0.4435525;1.891697;0.5157531;0.1021686;1.743763;0.5571281;-0.03396571;0.8337796;0.4488367;0;0;0;0.9638965;1.891424;0.5157527;1.252738;1.743158;0.5571275;1.356993;0.7853558;0.5526099;1.415764;-0.09560275;0.2087424;0.3782294;-0.2251894;0.3016044;0.3532525;-1.683599;0.1863806;0.2673486;-3.012028;0.3869408;0.3782294;-0.2251894;0.3016044;0.3532525;-1.683599;0.1863806;0.2673486;-3.012028;0.3869408
220154.0376;NotLabelled;16384;0.7658416;-0.634349;0.06094183;0.08587258;-2;1;0;274;3992;669;65536;0.7647963;-0.6052631;-0.1315789;0.1772853;1;3;0;-1791;3622;-839;8192;0.2617728;-0.2396122;-0.6980844;-0.6218836;1;2;0;22;4031;455;32768;-0.3739612;0.1080332;0.6412742;0.6612482;-1;1;1;1471;3793;-382;256;-0.3074792;0.3573407;-0.5747922;-0.6688633;0;1;1;29;4024;-593;128;0.3767313;-0.4155124;0.4404432;0.7010226;0;0;0;-665;3825;1352;4;0.7080584;-0.6759003;0.1191136;0.166205;0;0;0;313;4106;134;16;0.5650969;-0.6415599;-0.3213296;-0.4072022;0;0;1;203;4062;664;2;0.1246537;-0.07202215;-0.7188873;-0.6800554;1;0;0;-331;4110;267;8;0.5263157;-0.6427832;-0.365651;-0.4196676;0;0;1;-149;4023;689;0.6904756;-0.1838837;0.3129358;0.6964421;0.359822;0.3573192;0.7016884;0.8379037;0.3943161;0.7020734;1.563386;0.5044892;0.4435525;1.891697;0.5157531;0.1021686;1.743763;0.5571281;-0.03396571;0.8337796;0.4488367;0;0;0;0.9638965;1.891424;0.5157527;1.252738;1.743158;0.5571275;1.356993;0.7853558;0.5526099;1.412261;-0.0955081;0.2079186;0.3782294;-0.2251894;0.3016044;0.3532525;-1.683599;0.1863806;0.2673486;-3.012028;0.3869408;0.3782294;-0.2251894;0.3016044;0.3532525;-1.683599;0.1863806;0.2673486;-3.012028;0.3869408
220174.1587;NotLabelled;16384;0.7669867;-0.632964;0.06094183;0.08587258;-2;1;0;268;4004;711;65536;0.7662097;-0.6038781;-0.1315789;0.1759003;2;2;0;-1765;3622;-831;8192;0.2617728;-0.2396122;-0.6980844;-0.6218836;1;1;0;40;4069;463;32768;-0.3739612;0.1080332;0.6412742;0.6612482;-1;2;0;1449;3769;-400;256;-0.3074792;0.3573407;-0.5747922;-0.6688633;1;1;1;5;4034;-593;128;0.3767313;-0.4155124;0.4390582;0.7018909;-1;0;-1;-673;3845;1362;4;0.7080584;-0.6759003;0.1191136;0.166205;-1;0;0;315;4050;120;16;0.5650969;-0.6415599;-0.3213296;-0.4072022;0;-1;1;241;4032;578;2;0.1246537;-0.07202215;-0.7188873;-0.6800554;1;0;0;-355;4088;219;8;0.5263157;-0.6427832;-0.365651;-0.4196676;0;0;1;-99;4025;727;0.6888216;-0.1846204;0.3141745;0.694788;0.3590853;0.3585579;0.7000344;0.837167;0.3955548;0.7004193;1.562649;0.5057279;0.4418984;1.89096;0.5169919;0.1005146;1.743026;0.5583668;-0.03561977;0.8330429;0.4500755;0;0;0;0.9622424;1.890687;0.5169915;1.251084;1.742421;0.5583662;1.355339;0.7846191;0.5538486;1.41107;-0.09553957;0.207436;0.3765754;-0.2259262;0.3028432;0.3515984;-1.684335;0.1876194;0.2656946;-3.012764;0.3881796;0.3765754;-0.2259262;0.3028432;0.3515984;-1.684335;0.1876194;0.2656946;-3.012764;0.3881796
220196.4814;NotLabelled;16384;0.7669867;-0.632964;0.06094183;0.08587258;-2;1;0;180;4016;719;65536;0.7662097;-0.6038781;-0.1315789;0.1759003;3;1;0;-1825;3688;-837;8192;0.2617728;-0.2396122;-0.6980844;-0.6218836;2;1;0;60;4087;487;32768;-0.3739612;0.1080332;0.6412742;0.6612482;0;2;1;1415;3825;-440;256;-0.3088643;0.3573407;-0.5734072;-0.6694137;1;1;1;-19;4066;-589;128;0.3767313;-0.4155124;0.4390582;0.7018909;-1;0;-1;-691;3857;1350;4;0.707824;-0.6759003;0.1204986;0.166205;-1;-1;0;333;4046;106;16;0.5650969;-0.6415599;-0.3213296;-0.4072022;0;-1;0;227;4058;606;2;0.1246537;-0.07202215;-0.7188873;-0.6800554;1;0;0;-307;4148;287;8;0.5263157;-0.6427832;-0.365651;-0.4196676;0;0;0;-75;3973;731;0.6953024;-0.1850595;0.3132597;0.7012675;0.3585231;0.3591255;0.7065127;0.8365018;0.3974258;0.7068977;1.561984;0.507599;0.4483769;1.890295;0.5188629;0.106993;1.742362;0.5602378;-0.03203708;0.832998;0.4504263;0;0;0;0.9687207;1.890022;0.5188624;1.257562;1.741756;0.5602372;1.361817;0.7839534;0.5557224;1.417549;-0.096205;0.2093101;0.3830566;-0.2263341;0.3018064;0.3580796;-1.684744;0.1865826;0.2721758;-3.013172;0.3871428;0.3830566;-0.2263341;0.3018064;0.3580796;-1.684744;0.1865826;0.2721758;-3.013172;0.3871428
220217.0191;NotLabelled;16384;0.7669867;-0.632964;0.06094183;0.08587258;-2;0;0;124;3978;697;65536;0.7662097;-0.6038781;-0.1315789;0.1759003;3;1;0;-1793;3680;-825;8192;0.2617728;-0.2396122;-0.6980844;-0.6218836;2;1;0;22;4065;457;32768;-0.3739612;0.1080332;0.6412742;0.6612482;-1;2;1;1423;3795;-402;256;-0.3088643;0.3573407;-0.5734072;-0.6694137;1;1;1;-11;4048;-599;128;0.3767313;-0.4155124;0.4390582;0.7018909;-2;0;0;-663;3853;1358;4;0.707824;-0.6759003;0.1204986;0.166205;0;-1;0;373;4082;86;16;0.5650969;-0.6422517;-0.3199446;-0.4072022;0;0;1;213;4008;586;2;0.1246537;-0.07202215;-0.7188873;-0.6800554;1;0;0;-291;4118;271;8;0.5263157;-0.6427832;-0.365651;-0.4196676;0;0;0;-125;4035;707;0.693567;-0.1867189;0.3116856;0.6995322;0.3568642;0.3575513;0.7047774;0.8348424;0.3958517;0.7074708;1.560155;0.5071065;0.449996;1.88927;0.5188599;0.108143;1.742362;0.5600139;-0.03111468;0.832998;0.4504914;0;0;0;0.9703363;1.887341;0.5188593;1.258704;1.738095;0.5600132;1.362949;0.7802923;0.5552819;1.417972;-0.09986711;0.2087564;0.3813213;-0.2279935;0.3002323;0.3553733;-1.686613;0.1879184;0.2698804;-3.015042;0.3886541;0.3813213;-0.2279935;0.3002323;0.3553733;-1.686613;0.1879184;0.2698804;-3.015042;0.3886541
220238.1827;NotLabelled;16384;0.7669867;-0.632964;0.06094183;0.08587258;-2;0;0;242;4034;747;65536;0.7662097;-0.6038781;-0.1315789;0.1759003;3;0;0;-1805;3646;-783;8192;0.2617728;-0.2396122;-0.696848;-0.6232687;2;1;0;4;4053;463;32768;-0.3725762;0.1080332;0.6412742;0.6620296;-1;1;0;1463;3813;-406;256;-0.3088643;0.3573407;-0.5734072;-0.6694137;0;1;1;-37;4030;-603;128;0.3767313;-0.4155124;0.4390582;0.7018909;-1;0;-1;-671;3853;1360;4;0.7080584;-0.6759003;0.1191136;0.166205;-1;0;0;305;4128;96;16;0.566482;-0.6410304;-0.3199446;-0.4072022;0;0;1;165;4000;630;2;0.1246537;-0.07202215;-0.7175745;-0.6814404;1;0;0;-255;4108;299;8;0.5263157;-0.6427832;-0.365651;-0.4196676;0;0;1;-111;3991;729;0.693567;-0.1867189;0.3116856;0.6995322;0.3568642;0.3575513;0.7047774;0.8348424;0.3958517;0.7074708;1.560155;0.5071065;0.449996;1.88927;0.5188599;0.108143;1.742362;0.5600139;-0.03111468;0.832998;0.4504914;0;0;0;0.9703363;1.887341;0.5188593;1.258704;1.738095;0.5600132;1.362949;0.7802923;0.5552819;1.417972;-0.09986711;0.2087564;0.3813213;-0.2279935;0.3002323;0.3553733;-1.686613;0.1879184;0.2682931;-3.014575;0.3910404;0.3813213;-0.2279935;0.3002323;0.3553733;-1.686613;0.1879184;0.2682931;-3.014575;0.3910404
220260.3183;NotLabelled;16384;0.7669867;-0.632964;0.06094183;0.08587258;-2;0;0;248;4042;717;65536;0.7672993;-0.602493;-0.1315789;0.1759003;2;0;-1;-1825;3712;-743;8192;0.2617728;-0.2396122;-0.696848;-0.6232687;2;0;0;2;4045;479;32768;-0.3725762;0.1080332;0.6412742;0.6620296;-2;0;0;1465;3773;-406;256;-0.3088643;0.3573407;-0.5734072;-0.6694137;1;0;1;-9;4018;-637;128;0.3767313;-0.4155124;0.4376731;0.7027555;-1;1;-1;-689;3903;1376;4;0.707824;-0.6759003;0.1204986;0.166205;-1;0;0;349;4046;108;16;0.566482;-0.6410304;-0.3199446;-0.4072022;0;-1;1;235;4012;644;2;0.1246537;-0.07202215;-0.7175745;-0.6814404;1;0;0;-323;4034;229;8;0.5263157;-0.6427832;-0.365651;-0.4196676;0;0;1;-107;4031;717;0.693567;-0.1867189;0.3116856;0.6995322;0.3568637;0.3575513;0.7047774;0.8348424;0.3958517;0.7074708;1.560155;0.5071065;0.449996;1.88927;0.5188599;0.108143;1.742362;0.5600139;-0.03111468;0.832998;0.4504914;0;0;0;0.9703363;1.887341;0.5188593;1.258704;1.738095;0.5600132;1.359482;0.7799251;0.5544928;1.413483;-0.1008997;0.2095017;0.3813213;-0.2279935;0.3002323;0.3561084;-1.686403;0.1850599;0.266917;-3.014898;0.3837363;0.3813213;-0.2279935;0.3002323;0.3561084;-1.686403;0.1850599;0.266917;-3.014898;0.3837363
220280.1833;NotLabelled;16384;0.7681276;-0.6315789;0.06094183;0.08587258;-2;0;0;232;4026;711;65536;0.7672993;-0.602493;-0.1315789;0.1759003;2;0;-1;-1799;3610;-781;8192;0.2617728;-0.2396122;-0.696848;-0.6232687;2;0;0;8;4061;483;32768;-0.3725762;0.1080332;0.6398892;0.6633684;-1;1;1;1443;3827;-406;256;-0.3088643;0.3573407;-0.5734072;-0.6694137;1;1;1;21;4040;-623;128;0.3767313;-0.4155124;0.4376731;0.7027555;-1;1;-1;-703;3853;1386;4;0.709144;-0.6745152;0.1204986;0.166205;-1;0;0;335;4064;98;16;0.566482;-0.6410304;-0.3199446;-0.4072022;0;0;1;229;4024;580;2;0.1246537;-0.07202215;-0.7175745;-0.6814404;1;0;0;-327;4114;213;8;0.5263157;-0.6427832;-0.365651;-0.4196676;0;-1;1;-77;4065;713;0.6963115;-0.1872528;0.3104984;0.7022753;0.3562031;0.3578449;0.7075192;0.8340759;0.3974473;0.7102126;1.559388;0.5087022;0.4527378;1.888503;0.5204555;0.1108847;1.741594;0.5616095;-0.02837309;0.8322315;0.4520869;0;0;0;0.9730783;1.886574;0.520455;1.261446;1.737328;0.5616088;1.362224;0.7791581;0.5560884;1.416225;-0.1016665;0.2110976;0.384066;-0.2284958;0.2989233;0.358118;-1.687115;0.1866095;0.2689266;-3.015611;0.3852859;0.384066;-0.2284958;0.2989233;0.358118;-1.687115;0.1866095;0.2689266;-3.015611;0.3852859
220301.5686;NotLabelled;16384;0.7681276;-0.6315789;0.06094183;0.08587258;-2;0;0;240;4002;703;65536;0.7672993;-0.602493;-0.1315789;0.1759003;2;1;0;-1727;3664;-803;8192;0.2617728;-0.2396122;-0.696848;-0.6232687;2;0;0;104;4111;451;32768;-0.3725762;0.1080332;0.6398892;0.6633684;-2;0;0;1489;3831;-420;256;-0.3088643;0.3573407;-0.5720221;-0.6705976;1;0;1;3;4000;-581;128;0.3781163;-0.4155124;0.4376731;0.7020112;-1;0;-1;-675;3865;1326;4;0.709144;-0.6745152;0.1204986;0.166205;-1;0;0;277;4082;126;16;0.566482;-0.6410304;-0.3199446;-0.4072022;0;0;1;245;4018;604;2;0.1246537;-0.07202215;-0.7175745;-0.6814404;1;0;0;-317;4064;269;8;0.5263157;-0.6435691;-0.3642659;-0.4196676;0;0;1;-113;3979;691;0.6992074;-0.1878841;0.312005;0.705171;0.3555717;0.3593515;0.7104151;0.8334446;0.398954;0.7131085;1.558757;0.5102088;0.4556337;1.887872;0.5219622;0.1137805;1.740963;0.5631162;-0.02837314;0.8322306;0.4520868;0;0;0;0.9759742;1.885942;0.5219617;1.264342;1.736697;0.5631154;1.365119;0.7785268;0.5575954;1.415628;-0.1021836;0.2117844;0.3869618;-0.2291272;0.3004301;0.3558257;-1.687483;0.1860332;0.2666343;-3.015978;0.3847095;0.3869618;-0.2291272;0.3004301;0.3558257;-1.687483;0.1860332;0.2666343;-3.015978;0.3847095
220323.1176;NotLabelled;16384;0.7681276;-0.6315789;0.06094183;0.08587258;-2;0;0;208;3928;731;65536;0.7672993;-0.602493;-0.1315789;0.1759003;1;0;0;-1765;3678;-759;8192;0.2617728;-0.2396122;-0.6956068;-0.6246537;2;0;0;-50;4075;465;32768;-0.3725762;0.1080332;0.6398892;0.6633684;-1;1;0;1445;3797;-410;256;-0.3088643;0.3573407;-0.5720221;-0.6705976;1;1;1;17;4052;-597;128;0.3781163;-0.4155124;0.4376731;0.7020112;-2;0;-1;-675;3833;1322;4;0.709144;-0.6745152;0.1204986;0.166205;-1;0;0;325;4094;110;16;0.566482;-0.6410304;-0.3199446;-0.4072022;0;0;1;235;4042;596;2;0.1246537;-0.07202215;-0.7175745;-0.6814404;1;0;0;-305;4104;181;8;0.5277008;-0.6424339;-0.3642659;-0.4196676;0;0;1;-123;4059;697;0.6976422;-0.1885631;0.3113135;0.7036071;0.3549938;0.3574817;0.7088521;0.8329515;0.3960479;0.7127918;1.557897;0.5096321;0.4558837;1.887414;0.5224395;0.1137775;1.740964;0.5631173;-0.02837545;0.832232;0.4520868;0;0;0;0.97622;1.88459;0.5224389;1.26433;1.734716;0.5631166;1.365108;0.7765474;0.5575963;1.415617;-0.1041632;0.2117857;0.3853964;-0.2298312;0.2998354;0.3542609;-1.688187;0.1854384;0.2650685;-3.016682;0.3841143;0.3853964;-0.2298312;0.2998354;0.3542609;-1.688187;0.1854384;0.2650685;-3.016682;0.3841143
220344.1183;NotLabelled;16384;0.7681276;-0.6315789;0.06094183;0.08587258;-1;0;0;220;3984;741;65536;0.7672993;-0.602493;-0.1315789;0.1759003;2;1;0;-1731;3668;-755;8192;0.2617728;-0.2396122;-0.6956068;-0.6246537;2;0;0;46;4051;389;32768;-0.3725762;0.1066482;0.6398892;0.6635925;-1;1;1;1479;3807;-424;256;-0.3088643;0.3573407;-0.5720221;-0.6705976;1;0;1;21;4010;-575;128;0.3781163;-0.4155124;0.4362881;0.7028728;-1;0;-1;-719;3879;1376;4;0.7093779;-0.6745152;0.1191136;0.166205;-1;0;0;255;4118;180;16;0.566482;-0.6417198;-0.3185596;-0.4072022;0;0;1;181;4010;604;2;0.1246537;-0.07202215;-0.7175745;-0.6814404;0;0;0;-363;4054;257;8;0.5277008;-0.6424339;-0.3642659;-0.4196676;0;0;1;-87;4039;741;0.6976424;-0.1885631;0.3113129;0.7036074;0.3549943;0.357481;0.7088524;0.8329515;0.3960473;0.7127921;1.557897;0.5096314;0.455884;1.887414;0.5224389;0.1137778;1.740964;0.5631167;-0.02837516;0.8322325;0.4520867;0;0;0;0.9762203;1.88459;0.5224382;1.26433;1.734716;0.5631161;1.361632;0.7761931;0.556805;1.412142;-0.1045175;0.2109944;0.3853967;-0.2298312;0.2998347;0.3542612;-1.688187;0.1854378;0.2650688;-3.016682;0.3841137;0.3853967;-0.2298312;0.2998347;0.3542612;-1.688187;0.1854378;0.2650688;-3.016682;0.3841137
220364.3184;NotLabelled;16384;0.7681276;-0.6315789;0.06094183;0.08587258;-1;0;0;248;3926;727;65536;0.7672993;-0.602493;-0.1315789;0.1759003;1;0;0;-1789;3660;-795;8192;0.2617728;-0.2396122;-0.6956068;-0.6246537;2;1;-1;26;4103;467;32768;-0.3725762;0.1066482;0.6398892;0.6635925;0;2;1;1429;3843;-412;256;-0.3088643;0.3573407;-0.5720221;-0.6705976;1;0;0;-11;4060;-601;128;0.3781163;-0.4168975;0.4362881;0.7020521;-2;0;-1;-731;3849;1346;4;0.7093779;-0.6745152;0.1191136;0.166205;-1;0;0;313;4018;114;16;0.566482;-0.6417198;-0.3185596;-0.4072022;0;0;0;209;4002;596;2;0.1232687;-0.07202215;-0.7164963;-0.6828254;1;0;0;-341;4098;181;8;0.5277008;-0.6415269;-0.3642659;-0.4210526;0;0;1;-59;3983;695;0.6976432;-0.1883295;0.3085358;0.7036067;0.3551006;0.3561827;0.7088504;0.8329511;0.3960491;0.7127902;1.557897;0.5096332;0.4558821;1.887414;0.5224408;0.1137759;1.740963;0.5631185;-0.02837536;0.8322315;0.4520864;0;0;0;0.9762184;1.88459;0.5224402;1.264328;1.734716;0.5631177;1.36163;0.7761927;0.5568082;1.41261;-0.103812;0.2092736;0.3853979;-0.2295661;0.2969362;0.3550002;-1.68771;0.1796761;0.2642192;-3.015738;0.3807405;0.3853979;-0.2295661;0.2969362;0.3550002;-1.68771;0.1796761;0.2642192;-3.015738;0.3807405
220385.2957;NotLabelled;16384;0.7681276;-0.6315789;0.06094183;0.08587258;-1;0;0;220;3938;757;65536;0.7672993;-0.602493;-0.1315789;0.1759003;0;0;0;-1815;3614;-835;8192;0.2603878;-0.2382271;-0.6953571;-0.6260388;2;1;0;32;4125;393;32768;-0.3725762;0.1066482;0.6398892;0.6635925;-1;1;1;1493;3871;-422;256;-0.3102493;0.3573407;-0.5720221;-0.6699579;1;0;1;11;4042;-613;128;0.3781163;-0.4168975;0.4362881;0.7020521;-2;0;-1;-641;3885;1372;4;0.7093779;-0.6745152;0.1191136;0.166205;-1;0;0;299;4034;166;16;0.566482;-0.6417198;-0.3185596;-0.4072022;0;0;1;243;3994;612;2;0.1246537;-0.07202215;-0.7162567;-0.6828254;2;-1;0;-359;4120;217;8;0.5277008;-0.6415269;-0.3642659;-0.4210526;0;-1;1;-65;4059;735;0.697645;-0.188339;0.3086501;0.7036085;0.3550963;0.3562351;0.7088524;0.8329515;0.3960471;0.7127922;1.557897;0.5096313;0.4558841;1.887415;0.5224389;0.1137779;1.740964;0.5631168;-0.02837524;0.832232;0.4520868;0;0;0;0.9762204;1.88459;0.5224379;1.26433;1.734716;0.5631157;1.361632;0.7761931;0.5568047;1.412612;-0.1038115;0.20927;0.3853996;-0.2295771;0.2970556;0.3550018;-1.687721;0.1797956;0.2642208;-3.015749;0.3808598;0.3853996;-0.2295771;0.2970556;0.3550018;-1.687721;0.1797956;0.2642208;-3.015749;0.3808598
220406.0049;NotLabelled;16384;0.7682363;-0.6315789;0.05955679;0.08587258;0;0;0;240;4002;739;65536;0.7672993;-0.602493;-0.1315789;0.1759003;1;1;0;-1789;3678;-803;8192;0.2603878;-0.2382271;-0.6953571;-0.6260388;1;0;0;-2;4101;391;32768;-0.3725762;0.1066482;0.6385041;0.6649253;-1;1;1;1421;3817;-458;256;-0.3102493;0.3573407;-0.5706371;-0.671138;0;0;0;81;4074;-655;128;0.3781163;-0.4168975;0.4362881;0.7020521;-1;0;0;-699;3861;1388;4;0.7093779;-0.6745152;0.1191136;0.166205;-1;0;0;305;4054;114;16;0.566482;-0.6408388;-0.3185596;-0.4085872;0;0;1;255;4040;632;2;0.1246537;-0.07202215;-0.7162567;-0.6828254;2;0;0;-301;4084;239;8;0.5277008;-0.6423114;-0.3628809;-0.4210526;0;0;1;-83;4005;703;0.6974715;-0.1894958;0.3099849;0.703435;0.3539395;0.3575697;0.7086789;0.8317947;0.3973817;0.7136789;1.556929;0.5097083;0.4572526;1.886844;0.5219467;0.1149334;1.740964;0.5628817;-0.02744728;0.8322315;0.4521438;0;0;0;0.9775842;1.883259;0.521946;1.265475;1.733036;0.5628809;1.36061;0.7742982;0.5560739;1.410877;-0.1057065;0.2084352;0.3852261;-0.2307339;0.2983902;0.3545879;-1.688878;0.1811929;0.2642198;-3.016906;0.382443;0.3852261;-0.2307339;0.2983902;0.3545879;-1.688878;0.1811929;0.2642198;-3.016906;0.382443
220427.288;NotLabelled;16384;0.7682363;-0.6315789;0.05955679;0.08587258;0;0;0;232;3962;769;65536;0.7672993;-0.602493;-0.1315789;0.1759003;0;0;0;-1791;3630;-803;8192;0.2603878;-0.2382271;-0.6953571;-0.6260388;1;1;0;26;4059;421;32768;-0.3725762;0.1066482;0.6385041;0.6649253;-1;0;1;1459;3787;-370;256;-0.3102493;0.3587258;-0.5706371;-0.6703988;1;0;1;21;4042;-611;128;0.3781163;-0.4168975;0.434903;0.702911;-1;0;-1;-703;3845;1374;4;0.7106924;-0.6731302;0.1191136;0.166205;-1;0;0;289;4040;112;16;0.567867;-0.6396118;-0.3185596;-0.4085872;0;-1;1;227;4016;614;2;0.1246537;-0.07202215;-0.7162567;-0.6828254;2;0;0;-267;4128;219;8;0.5277008;-0.6423114;-0.3628809;-0.4210526;0;-1;2;-47;4003;737;0.6950804;-0.1900747;0.3088903;0.7010439;0.3533607;0.3564751;0.7062877;0.8312159;0.3962871;0.7125335;1.555977;0.510938;0.4566754;1.886292;0.5242283;0.1141042;1.740871;0.5646878;-0.02745135;0.8322315;0.4521437;0;0;0;0.977;1.881811;0.5242276;1.264631;1.730961;0.564687;1.359766;0.7722235;0.557882;1.406549;-0.1076517;0.2094313;0.382835;-0.2313128;0.2972956;0.3521978;-1.689457;0.180098;0.2585051;-3.01733;0.3808547;0.382835;-0.2313128;0.2972956;0.3521978;-1.689457;0.180098;0.2585051;-3.01733;0.3808547
220449.1607;NotLabelled;16384;0.7682363;-0.6315789;0.05955679;0.08587258;0;0;0;258;4004;811;65536;0.7672993;-0.602493;-0.1315789;0.1759003;0;0;0;-1813;3604;-803;8192;0.2603878;-0.2382271;-0.6941076;-0.6274238;1;0;-1;8;4081;361;32768;-0.3725762;0.1066482;0.6385041;0.6649253;-1;1;1;1421;3837;-402;256;-0.3102493;0.3587258;-0.5706371;-0.6703988;1;0;1;-7;4022;-589;128;0.3781163;-0.4168975;0.434903;0.702911;-1;0;0;-691;3853;1380;4;0.7106924;-0.6731302;0.1191136;0.166205;-1;0;0;293;4030;110;16;0.567867;-0.6402998;-0.3171745;-0.4085872;0;0;1;187;4038;576;2;0.1246537;-0.07202215;-0.7162567;-0.6828254;1;0;0;-309;4048;207;8;0.5277008;-0.6423114;-0.3628809;-0.4210526;0;-2;1;-117;4031;723;0.6982859;-0.1886241;0.3058429;0.704248;0.3546796;0.3549035;0.7094906;0.8324251;0.3960131;0.7142583;1.557198;0.5106618;0.457727;1.88699;0.5239512;0.1154532;1.740871;0.5644112;-0.02637172;0.8322315;0.4522074;0;0;0;0.9780596;1.883571;0.5239506;1.265997;1.733309;0.5644102;1.361116;0.7745705;0.5573784;1.407067;-0.1053054;0.2088171;0.3860409;-0.2298303;0.294127;0.34994;-1.687689;0.1749438;0.2545907;-3.016075;0.3714781;0.3860409;-0.2298303;0.294127;0.34994;-1.687689;0.1749438;0.2545907;-3.016075;0.3714781
220470.0353;NotLabelled;16384;0.7682363;-0.6315789;0.05955679;0.08587258;0;0;0;226;3988;735;65536;0.7672993;-0.602493;-0.1315789;0.1759003;0;0;0;-1793;3668;-811;8192;0.2603878;-0.2382271;-0.6941076;-0.6274238;0;0;0;14;4051;341;32768;-0.3725762;0.1066482;0.6385041;0.6649253;0;1;1;1463;3827;-426;256;-0.3102493;0.3587258;-0.5706371;-0.6703988;0;0;0;5;4014;-653;128;0.3781163;-0.4168975;0.434903;0.702911;-1;-1;-1;-687;3871;1358;4;0.7106924;-0.6731302;0.1191136;0.166205;-1;0;0;277;4116;174;16;0.567867;-0.6402998;-0.3171745;-0.4085872;0;0;2;219;4072;630;2;0.1246537;-0.07202215;-0.7162567;-0.6828254;1;-1;0;-321;4086;203;8;0.5277008;-0.6423114;-0.3628809;-0.4210526;0;-1;2;-89;3991;691;0.6982859;-0.1886244;0.3058435;0.704248;0.3546793;0.3549041;0.7094907;0.8324249;0.3960138;0.7142583;1.557197;0.5106625;0.457727;1.88699;0.5239518;0.1154532;1.740871;0.5644118;-0.0263716;0.8322318;0.4522076;0;0;0;0.9780597;1.88357;0.5239511;1.265997;1.733309;0.5644109;1.357626;0.7742369;0.556592;1.403577;-0.1056387;0.2080308;0.3860409;-0.2298305;0.2941276;0.3499401;-1.687689;0.1749444;0.2530093;-3.015603;0.373879;0.3860409;-0.2298305;0.2941276;0.3499401;-1.687689;0.1749444;0.2530093;-3.015603;0.373879
220490.1627;NotLabelled;16384;0.7682363;-0.6315789;0.05955679;0.08587258;0;0;0;210;3974;759;65536;0.7672993;-0.602493;-0.1315789;0.1759003;0;0;-1;-1781;3622;-855;8192;0.2603878;-0.2382271;-0.6941076;-0.6274238;0;1;0;0;4105;381;32768;-0.3725762;0.1066482;0.6385041;0.6649253;0;1;0;1407;3817;-448;256;-0.3102493;0.3587258;-0.5706371;-0.6703988;0;0;0;-5;4072;-613;128;0.3781163;-0.4168975;0.434903;0.702911;0;-1;-1;-667;3859;1368;4;0.7106924;-0.6731302;0.1191136;0.166205;-2;-1;0;255;4098;154;16;0.567867;-0.6402998;-0.3171745;-0.4085872;0;0;2;307;3996;578;2;0.1246537;-0.07202215;-0.7149338;-0.6842105;2;-1;0;-307;4116;259;8;0.5290859;-0.6419529;-0.3614958;-0.4210526;0;-1;1;-39;4037;729;0.6982859;-0.1886244;0.3058435;0.704248;0.3546793;0.3549041;0.7094907;0.8324249;0.3960138;0.7142583;1.557197;0.5106625;0.457727;1.88699;0.5239518;0.1154532;1.740871;0.5644118;-0.0263716;0.8322318;0.4522076;0;0;0;0.9780597;1.88357;0.5239511;1.265997;1.733309;0.5644109;1.357626;0.7742369;0.556592;1.403577;-0.1056387;0.2080308;0.3860409;-0.2298305;0.2941276;0.3499401;-1.687689;0.1749444;0.2530093;-3.015603;0.373879;0.3860409;-0.2298305;0.2941276;0.3499401;-1.687689;0.1749444;0.2530093;-3.015603;0.373879
220511.2849;NotLabelled;16384;0.7682363;-0.6315789;0.05955679;0.08587258;0;0;0;220;4002;735;65536;0.7672993;-0.602493;-0.1315789;0.1759003;0;-1;0;-1817;3710;-809;8192;0.2603878;-0.2368421;-0.6945814;-0.6274238;1;0;0;-54;4093;425;32768;-0.3725762;0.1066482;0.6385041;0.6649253;0;0;0;1485;3835;-424;256;-0.3102493;0.3573407;-0.5706371;-0.671138;0;-1;1;43;3998;-677;128;0.3781163;-0.4168975;0.434903;0.702911;0;-1;-1;-649;3871;1356;4;0.7106924;-0.6731302;0.1191136;0.166205;-3;-2;0;315;4086;164;16;0.567867;-0.6402998;-0.3171745;-0.4085872;0;-2;1;217;4078;620;2;0.1246537;-0.07202215;-0.7149338;-0.6842105;1;-1;0;-263;4120;225;8;0.5290859;-0.6419529;-0.3614958;-0.4210526;0;-2;2;-43;3975;743;0.6982859;-0.1886244;0.3058435;0.704248;0.3546793;0.3549041;0.7094907;0.8324249;0.3960138;0.7142583;1.557197;0.5106625;0.457727;1.88699;0.5239518;0.1154532;1.740871;0.5644118;-0.0263716;0.8322318;0.4522076;0;0;0;0.9780597;1.88357;0.5239511;1.265997;1.733309;0.5644109;1.357626;0.7742369;0.556592;1.403577;-0.1056387;0.2080308;0.3860409;-0.2298305;0.2941276;0.3499401;-1.687689;0.1749444;0.2530093;-3.015603;0.373879;0.3860409;-0.2298305;0.2941276;0.3499401;-1.687689;0.1749444;0.2530093;-3.015603;0.373879
220531.097;NotLabelled;16384;0.7682363;-0.6315789;0.05955679;0.08587258;0;-1;0;260;4062;705;65536;0.7669805;-0.602493;-0.1315789;0.1772853;0;-1;-1;-1757;3688;-877;8192;0.2603878;-0.2368421;-0.6945814;-0.6274238;1;-1;0;-42;4103;433;32768;-0.3725762;0.1052632;0.6385041;0.6651459;0;0;0;1477;3839;-398;256;-0.3102493;0.3573407;-0.5692521;-0.6723132;1;-1;0;91;4056;-619;128;0.3781163;-0.4168975;0.434903;0.702911;0;0;-1;-701;3837;1378;4;0.7117685;-0.6717451;0.1204986;0.166205;-2;-3;0;279;4050;134;16;0.567867;-0.6402998;-0.3171745;-0.4085872;0;-2;1;245;3974;666;2;0.1246537;-0.0734072;-0.7147929;-0.6842105;2;-1;0;-279;4088;211;8;0.5290859;-0.6419529;-0.3614958;-0.4210526;0;-1;2;-39;4043;753;0.695084;-0.1898334;0.3061151;0.701046;0.3534708;0.3551756;0.7062887;0.8312159;0.3962851;0.7125344;1.555977;0.5109357;0.4566762;1.886292;0.5242258;0.1141052;1.740871;0.5646853;-0.02745122;0.832232;0.452143;0;0;0;0.977001;1.881811;0.5242252;1.264632;1.730962;0.5646846;1.357332;0.7720056;0.5554827;1.404115;-0.1078701;0.2070323;0.382839;-0.2310395;0.2943993;0.3470228;-1.688898;0.1751302;0.2496174;-3.016812;0.373833;0.382839;-0.2310395;0.2943993;0.3470228;-1.688898;0.1751302;0.2496174;-3.016812;0.373833
220552.2204;NotLabelled;16384;0.7682363;-0.6315789;0.05955679;0.08587258;0;0;0;198;4000;727;65536;0.7669805;-0.602493;-0.1315789;0.1772853;0;0;-1;-1791;3656;-833;8192;0.2603878;-0.2368421;-0.6945814;-0.6274238;1;-1;0;-44;4111;451;32768;-0.3725762;0.1052632;0.6385041;0.6651459;-1;0;0;1497;3845;-396;256;-0.3102493;0.3573407;-0.5692521;-0.6723132;0;-1;0;-19;4070;-619;128;0.3781163;-0.4168975;0.434903;0.702911;0;-2;-1;-645;3847;1370;4;0.7117685;-0.6717451;0.1204986;0.166205;-2;-1;0;237;4012;156;16;0.5692521;-0.6397543;-0.3157895;-0.4085872;0;-2;2;185;4046;616;2;0.1260388;-0.0734072;-0.71455;-0.6842105;2;-1;0;-293;4150;177;8;0.5290859;-0.6427309;-0.3601108;-0.4210526;0;-1;2;-25;4055;747;0.6926893;-0.1910162;0.3044758;0.6986514;0.352288;0.3535364;0.703894;0.8300331;0.3946459;0.7113819;1.554412;0.5116159;0.4560915;1.885122;0.525956;0.1132697;1.740162;0.5659404;-0.02828558;0.8315217;0.4533954;0;0;0;0.9764076;1.879747;0.5259556;1.263777;1.728275;0.5659398;1.356478;0.7693179;0.5567377;1.40374;-0.1098464;0.2065616;0.3804443;-0.2322223;0.29276;0.3387228;-1.689989;0.1742961;0.2413152;-3.017904;0.372997;0.3804443;-0.2322223;0.29276;0.3387228;-1.689989;0.1742961;0.2413152;-3.017904;0.372997
220574.1245;NotLabelled;16384;0.7682363;-0.6315789;0.05955679;0.08587258;0;-1;0;178;3998;741;65536;0.7667416;-0.602493;-0.132964;0.1772853;0;0;-1;-1749;3700;-895;8192;0.2603878;-0.2368421;-0.6945814;-0.6274238;1;-1;0;-36;4079;383;32768;-0.3725762;0.1066482;0.6385041;0.6649253;-1;0;0;1529;3761;-406;256;-0.3102493;0.3573407;-0.5706371;-0.671138;0;-1;0;53;4034;-679;128;0.3767313;-0.4155124;0.434903;0.7044731;0;-2;0;-663;3835;1330;4;0.7114437;-0.6717451;0.1204986;0.16759;-2;-1;1;325;4078;154;16;0.5692521;-0.6397543;-0.3157895;-0.4085872;0;-1;3;255;4030;558;2;0.1260388;-0.0734072;-0.71455;-0.6842105;2;-1;0;-293;4124;167;8;0.5290859;-0.6427309;-0.3601108;-0.4210526;0;-1;2;-105;4005;695;0.6926892;-0.1910162;0.3044753;0.6986513;0.352288;0.3535358;0.703894;0.8300331;0.3946454;0.7113817;1.554412;0.5116153;0.4560914;1.885122;0.5259555;0.1132696;1.740162;0.5659399;-0.02828567;0.8315217;0.4533955;0;0;0;0.9764075;1.879747;0.525955;1.263777;1.728275;0.5659393;1.356478;0.7693174;0.5567378;1.40374;-0.1098468;0.2065617;0.3804442;-0.2322223;0.2927594;0.3387227;-1.689989;0.1742956;0.2375921;-3.017931;0.3709386;0.3804442;-0.2322223;0.2927594;0.3387227;-1.689989;0.1742956;0.2375921;-3.017931;0.3709386
220595.0908;NotLabelled;16384;0.7682363;-0.6315789;0.05955679;0.08587258;0;-1;0;238;4006;747;65536;0.7670605;-0.602493;-0.132964;0.1759003;0;0;-1;-1741;3692;-831;8192;0.2603878;-0.2368421;-0.6945814;-0.6274238;0;-2;0;-36;4075;487;32768;-0.3725762;0.1066482;0.6385041;0.6649253;-1;-1;0;1463;3783;-358;256;-0.3102493;0.3573407;-0.5692521;-0.6723132;1;-2;0;45;4022;-637;128;0.3767313;-0.4155124;0.434903;0.7044731;2;-2;-1;-663;3841;1384;4;0.7127489;-0.6703601;0.1204986;0.16759;-2;-1;1;331;4098;144;16;0.5692521;-0.6397543;-0.3157895;-0.4085872;0;-1;2;239;4040;584;2;0.1260388;-0.07479224;-0.7130772;-0.6855956;3;-2;0;-345;4090;229;8;0.5304709;-0.6415883;-0.3601108;-0.4210526;0;-1;2;-55;4045;749;0.6925989;-0.1910727;0.3062814;0.6985598;0.352118;0.3565833;0.7038014;0.8297677;0.3987845;0.7100471;1.554529;0.5134354;0.4541889;1.884844;0.5267256;0.1116179;1.739423;0.5671852;-0.02993788;0.8307838;0.4546408;0;0;0;0.9745136;1.880363;0.5267251;1.262144;1.729514;0.5671844;1.354845;0.7705574;0.5579817;1.401628;-0.1093178;0.2095307;0.3803542;-0.2322521;0.2944637;0.3401978;-1.689869;0.1736346;0.2390692;-3.017811;0.3702788;0.3803542;-0.2322521;0.2944637;0.3401978;-1.689869;0.1736346;0.2390692;-3.017811;0.3702788
220615.0605;NotLabelled;16384;0.7682363;-0.6315789;0.05955679;0.08587258;0;-2;0;148;3994;751;65536;0.7667416;-0.602493;-0.132964;0.1772853;1;-2;0;-1745;3664;-887;8192;0.2603878;-0.2368421;-0.6945814;-0.6274238;0;-1;0;36;4049;403;32768;-0.3725762;0.1066482;0.6371191;0.6662525;-1;-1;1;1473;3811;-392;256;-0.3102493;0.3573407;-0.5692521;-0.6723132;0;-2;0;37;4012;-637;128;0.3767313;-0.4155124;0.434903;0.7044731;0;-3;-1;-717;3827;1330;4;0.7127489;-0.6703601;0.1204986;0.16759;-2;-1;2;249;4006;174;16;0.5692521;-0.6397543;-0.3157895;-0.4085872;0;-1;2;229;3962;564;2;0.1260388;-0.07479224;-0.7130772;-0.6855956;3;-1;0;-323;4078;157;8;0.5304709;-0.6406772;-0.3601108;-0.4224377;0;-1;2;-87;4067;765;0.6918621;-0.1908329;0.3021374;0.6978229;0.3523579;0.3524393;0.7030645;0.8300076;0.3946405;0.7105523;1.554387;0.5116103;0.4552619;1.885097;0.5259505;0.11244;1.740136;0.565935;-0.02911402;0.8314967;0.4533889;0;0;0;0.9755782;1.879722;0.5259501;1.262948;1.728249;0.5659345;1.355649;0.7692924;0.5567337;1.402436;-0.1105826;0.2082835;0.3796173;-0.2320123;0.2903196;0.3342977;-1.689306;0.1674368;0.233167;-3.017248;0.3640799;0.3796173;-0.2320123;0.2903196;0.3342977;-1.689306;0.1674368;0.233167;-3.017248;0.3640799
220656.3167;NotLabelled;16384;0.7681276;-0.6315789;0.06094183;0.08587258;0;-3;0;228;4010;721;65536;0.766659;-0.602493;-0.1315789;0.1786704;1;-3;0;-1765;3612;-855;8192;0.2617728;-0.2382271;-0.6935864;-0.6274238;0;-1;0;30;4047;329;32768;-0.3739612;0.1066482;0.6371191;0.6654761;0;0;0;1483;3811;-432;256;-0.3088643;0.3559557;-0.5706371;-0.6725115;0;-3;0;1;4058;-621;128;0.3753462;-0.4141274;0.4362881;0.7051712;1;-4;0;-689;3879;1366;4;0.7121862;-0.6703601;0.1218837;0.1689751;-1;0;2;333;4062;220;16;0.5706371;-0.6392024;-0.3144044;-0.4085872;0;-1;2;197;4050;552;2;0.1274238;-0.07479224;-0.712831;-0.6855956;3;-3;0;-313;4060;175;8;0.5304709;-0.6414537;-0.3587258;-0.4224377;0;-2;2;-67;4021;713;0.6910347;-0.1915455;0.3033869;0.6969955;0.3516452;0.3536889;0.7022371;0.8292949;0.39589;0.7097249;1.553674;0.5128595;0.4544345;1.884384;0.5271995;0.1116125;1.739424;0.567184;-0.02994272;0.8307841;0.4546402;0;0;0;0.9747508;1.879009;0.5271991;1.26212;1.727536;0.5671835;1.354821;0.7685797;0.5579826;1.398128;-0.1111522;0.2087229;0.3787899;-0.2327249;0.2915691;0.3334704;-1.690019;0.1686871;0.2323396;-3.017961;0.3653309;0.3787899;-0.2327249;0.2915691;0.3334704;-1.690019;0.1686871;0.2323396;-3.017961;0.3653309
220677.0465;NotLabelled;16384;0.7679715;-0.6315789;0.06094183;0.08725762;0;-3;0;266;3936;775;65536;0.766659;-0.602493;-0.1315789;0.1786704;2;-2;0;-1733;3620;-845;8192;0.2617728;-0.2382271;-0.6935864;-0.6274238;0;0;0;-76;4085;413;32768;-0.3739612;0.1066482;0.6371191;0.6654761;0;0;0;1501;3789;-376;256;-0.3088643;0.3559557;-0.5706371;-0.6725115;0;-3;0;43;4034;-655;128;0.3753462;-0.4127424;0.4362881;0.7059827;0;-4;-1;-665;3869;1358;4;0.7134873;-0.6689751;0.1218837;0.1689751;-2;0;1;301;4104;182;16;0.5706371;-0.6398817;-0.3130194;-0.4085872;0;-1;2;247;4046;608;2;0.1274238;-0.07479224;-0.7114962;-0.6869806;3;-3;0;-341;4080;203;8;0.5318559;-0.6403058;-0.3587258;-0.4224377;0;-3;2;-33;4051;773;0.6907281;-0.1910877;0.304893;0.6966891;0.3521249;0.354954;0.7019309;0.8297937;0.3969433;0.7085879;1.554351;0.5128533;0.4529179;1.884787;0.5267136;0.1102633;1.739493;0.5669151;-0.0311268;0.8308094;0.454514;0;0;0;0.97324;1.880011;0.5267133;1.260784;1.728927;0.5669148;1.352235;0.7698524;0.5576116;1.398105;-0.1092231;0.2070261;0.3784832;-0.2322724;0.293095;0.3345408;-1.689636;0.1705347;0.2288163;-3.017592;0.364651;0.3784832;-0.2322724;0.293095;0.3345408;-1.689636;0.1705347;0.2288163;-3.017592;0.364651
220697.1539;NotLabelled;16384;0.7678604;-0.6315789;0.06232687;0.08725762;0;-3;0;210;3966;733;65536;0.7668954;-0.602493;-0.1301939;0.1786704;2;-3;0;-1723;3632;-839;8192;0.2617728;-0.2382271;-0.6935864;-0.6274238;0;-2;0;4;4079;431;32768;-0.3739612;0.1080332;0.6371191;0.6652526;0;-1;0;1501;3851;-360;256;-0.3074792;0.3545706;-0.5706371;-0.6738765;0;-3;0;33;4000;-635;128;0.3753462;-0.4127424;0.4362881;0.7059827;0;-4;-1;-717;3811;1370;4;0.7137226;-0.6689751;0.1204986;0.1689751;-2;0;1;297;4086;188;16;0.5706371;-0.6398817;-0.3130194;-0.4085872;0;0;2;293;4026;610;2;0.1274238;-0.07617728;-0.7113493;-0.6869806;3;-3;0;-333;4078;175;8;0.5318559;-0.6410798;-0.3573407;-0.4224377;0;-4;2;-23;4029;729;0.6903139;-0.1910536;0.3051068;0.6962749;0.3521533;0.3552305;0.7015166;0.8298173;0.397275;0.7081736;1.554375;0.5131847;0.4525037;1.884812;0.5270449;0.109849;1.739516;0.5672468;-0.03112641;0.8308096;0.4545138;0;0;0;0.9728256;1.880034;0.5270443;1.26037;1.728951;0.5672461;1.351779;0.7698712;0.5579636;1.397648;-0.1092041;0.2073784;0.3780691;-0.2322369;0.2933035;0.3289752;-1.68926;0.1686817;0.2216524;-3.016737;0.3651888;0.3780691;-0.2322369;0.2933035;0.3289752;-1.68926;0.1686817;0.2216524;-3.016737;0.3651888
220718.1569;NotLabelled;16384;0.7678604;-0.6315789;0.06232687;0.08725762;0;-3;0;228;4038;715;65536;0.7668954;-0.602493;-0.1301939;0.1786704;1;-4;0;-1713;3608;-833;8192;0.2617728;-0.2382271;-0.6935864;-0.6274238;0;-4;0;-72;4041;435;32768;-0.3739612;0.1080332;0.6371191;0.6652526;-1;-3;0;1521;3807;-426;256;-0.3074792;0.3545706;-0.5706371;-0.6738765;0;-3;0;23;4034;-651;128;0.3753462;-0.4127424;0.4362881;0.7059827;0;-4;0;-717;3899;1364;4;0.7146895;-0.66759;0.1204986;0.1703601;-3;-2;2;391;4036;164;16;0.5720221;-0.6386439;-0.3130194;-0.4085872;0;-1;1;303;4054;644;2;0.1288089;-0.07617728;-0.7110998;-0.6869806;4;-4;0;-321;4120;175;8;0.533241;-0.6416107;-0.3559557;-0.4210526;0;-5;2;-57;4021;689;0.6897897;-0.1902554;0.3009903;0.6957507;0.3529515;0.351114;0.7009925;0.8306155;0.3931586;0.7080512;1.554967;0.5103219;0.452565;1.885522;0.5247495;0.1098287;1.740348;0.564694;-0.03147835;0.8315492;0.4531365;0;0;0;0.9728844;1.880455;0.5247492;1.260344;1.729142;0.564694;1.351793;0.7700629;0.5558168;1.398731;-0.1097245;0.2071636;0.3775448;-0.2314386;0.2891871;0.3297611;-1.688238;0.1614711;0.2215684;-3.015715;0.3575004;0.3775448;-0.2314386;0.2891871;0.3297611;-1.688238;0.1614711;0.2215684;-3.015715;0.3575004
220738.06;NotLabelled;16384;0.767588;-0.6315789;0.06371191;0.08864266;0;-5;-1;210;3994;751;65536;0.7678916;-0.601108;-0.1288089;0.1800554;2;-5;1;-1739;3632;-831;8192;0.2631579;-0.2382271;-0.6930621;-0.6274238;1;-4;0;-22;4115;391;32768;-0.3739612;0.1080332;0.6371191;0.6652526;-2;-4;0;1471;3849;-376;256;-0.3074792;0.3545706;-0.5720221;-0.6727012;0;-4;0;69;4116;-667;128;0.3753462;-0.4113573;0.4376731;0.7059338;1;-4;-1;-729;3819;1386;4;0.7144546;-0.66759;0.1218837;0.1703601;-2;-3;2;365;4038;220;16;0.5720221;-0.6386439;-0.3130194;-0.4085872;1;-2;2;273;4040;600;2;0.1288089;-0.07756232;-0.7096092;-0.6883656;3;-4;0;-261;4134;171;8;0.533241;-0.6416107;-0.3559557;-0.4210526;0;-5;1;9;4021;691;0.6897897;-0.1902554;0.3009903;0.6957507;0.3529515;0.351114;0.7009925;0.8306155;0.3931586;0.7080512;1.554967;0.5103219;0.452565;1.885522;0.5247495;0.1098287;1.740348;0.564694;-0.03147835;0.8315492;0.4531365;0;0;0;0.9728844;1.880455;0.5247492;1.260344;1.729142;0.564694;1.351793;0.7700629;0.5558168;1.398731;-0.1097245;0.2071636;0.3775448;-0.2314386;0.2891871;0.3262112;-1.687722;0.1570478;0.2159016;-3.015679;0.3485968;0.3775448;-0.2314386;0.2891871;0.3262112;-1.687722;0.1570478;0.2159016;-3.015679;0.3485968
220779.1262;NotLabelled;16384;0.7674718;-0.6315789;0.06509695;0.08864266;0;-6;-2;182;4038;783;65536;0.7681226;-0.601108;-0.1274238;0.1800554;1;-6;1;-1769;3660;-833;8192;0.2645429;-0.2409972;-0.6915755;-0.6274238;0;-4;0;-54;4095;415;32768;-0.3753462;0.1094183;0.6357341;0.6655712;-1;-3;0;1465;3853;-434;256;-0.3060942;0.3531856;-0.5720221;-0.67406;0;-4;1;63;4044;-663;128;0.3739612;-0.4099723;0.4376731;0.7074729;1;-2;0;-739;3835;1354;4;0.7154152;-0.666205;0.1218837;0.1717452;-2;-2;2;329;4094;250;16;0.5734072;-0.6380789;-0.3116343;-0.4085872;1;-1;2;347;4038;572;2;0.1288089;-0.07756232;-0.7096092;-0.6883656;3;-3;0;-219;4084;127;8;0.534626;-0.6419888;-0.3531856;-0.4210526;0;-2;3;-3;4035;697;0.6947985;-0.1907074;0.3077139;0.7007609;0.3526282;0.3564186;0.7060038;0.8304005;0.3972153;0.7118306;1.555136;0.5120544;0.4557816;1.885299;0.52543;0.1132945;1.73967;0.565851;-0.02792192;0.830802;0.4547371;0;0;0;0.9761088;1.881119;0.5254292;1.263827;1.730425;0.5658499;1.355005;0.7713413;0.554881;1.40194;-0.1084456;0.2062266;0.3825533;-0.2319217;0.2960272;0.3304586;-1.688437;0.166769;0.2201511;-3.016393;0.3583187;0.3825533;-0.2319217;0.2960272;0.3304586;-1.688437;0.166769;0.2201511;-3.016393;0.3583187
220799.4971;NotLabelled;16384;0.7673106;-0.6315789;0.06509695;0.0900277;0;-7;-2;192;4054;741;65536;0.7680252;-0.601108;-0.1260388;0.1814404;1;-6;1;-1751;3690;-783;8192;0.2645429;-0.2409972;-0.6915755;-0.6274238;0;-4;0;-2;4085;375;32768;-0.3753462;0.1108033;0.6357341;0.665342;-2;-3;0;1477;3861;-362;256;-0.3060942;0.3518005;-0.5720221;-0.6747839;0;-4;1;75;4056;-669;128;0.3739612;-0.4099723;0.4390582;0.7066143;2;-2;-1;-705;3833;1366;4;0.7150813;-0.666205;0.1218837;0.1731302;-3;-2;1;375;4060;212;16;0.5734072;-0.6380789;-0.3116343;-0.4085872;1;-1;2;315;4092;590;2;0.1288089;-0.07894737;-0.7081099;-0.6897507;3;-1;0;-253;4114;149;8;0.534626;-0.6419888;-0.3531856;-0.4210526;0;-2;2;9;4025;707;0.6942804;-0.1897113;0.3012969;0.7002416;0.3535128;0.3512334;0.7054834;0.8311915;0.3931132;0.7117093;1.555724;0.5091999;0.4558428;1.886005;0.5231402;0.1132746;1.740497;0.5633056;-0.02827533;0.8315368;0.4533686;0;0;0;0.9761676;1.881537;0.5231397;1.263801;1.730616;0.5633053;1.352601;0.7712922;0.5538346;1.398156;-0.1084003;0.2047614;0.3820356;-0.2308986;0.2895091;0.3269852;-1.686885;0.1555997;0.2121045;-3.014827;0.3445427;0.3820356;-0.2308986;0.2895091;0.3269852;-1.686885;0.1555997;0.2121045;-3.014827;0.3445427
220820.0669;NotLabelled;16384;0.7671918;-0.6315789;0.06648199;0.0900277;0;-7;-2;200;4048;717;65536;0.7669392;-0.602493;-0.1260388;0.1814404;1;-6;2;-1691;3662;-813;8192;0.265928;-0.2423823;-0.6905596;-0.6274238;1;-5;0;0;4067;395;32768;-0.3767313;0.1108033;0.6357341;0.6645588;-1;-3;0;1485;3809;-366;256;-0.3060942;0.3518005;-0.5720221;-0.6747839;0;-4;0;65;4070;-665;128;0.3739612;-0.4099723;0.4390582;0.7066143;3;-1;-1;-777;3861;1366;4;0.7163692;-0.66482;0.1218837;0.1731302;-3;-1;2;365;4030;200;16;0.5734072;-0.6387535;-0.3102493;-0.4085872;0;-2;2;307;4060;580;2;0.1301939;-0.07894737;-0.7078565;-0.6897507;3;0;0;-319;4116;177;8;0.536011;-0.6415943;-0.3518005;-0.4210526;0;-2;3;65;4045;733;0.6909754;-0.1911478;0.3057019;0.696938;0.3522108;0.3541528;0.7021812;0.8300021;0.3947263;0.7098762;1.55452;0.5108152;0.45468;1.885319;0.5247567;0.1118175;1.740506;0.5649219;-0.02854401;0.831568;0.4532954;0;0;0;0.9749947;1.879797;0.5247558;1.262322;1.728292;0.5649207;1.351144;0.7689688;0.5556612;1.397046;-0.1114337;0.2084256;0.3787302;-0.2323673;0.2940361;0.3255914;-1.688196;0.1576701;0.2102617;-3.016139;0.3463395;0.3787302;-0.2323673;0.2940361;0.3255914;-1.688196;0.1576701;0.2102617;-3.016139;0.3463395
220841.4539;NotLabelled;16384;0.7669067;-0.6315789;0.06786703;0.09141274;0;-5;-3;266;4010;779;65536;0.7673893;-0.602493;-0.1232687;0.1814404;1;-4;3;-1783;3626;-867;8192;0.265928;-0.2423823;-0.6918154;-0.6260388;0;-5;0;-50;4119;463;32768;-0.3767313;0.1108033;0.6357341;0.6645588;-2;-3;0;1461;3847;-366;256;-0.3060942;0.3518005;-0.5720221;-0.6747839;0;-3;0;41;4062;-639;128;0.3739612;-0.4085872;0.4390582;0.7074161;2;-3;-1;-671;3857;1322;4;0.7163692;-0.66482;0.1218837;0.1731302;-2;-2;2;351;4018;204;16;0.5734072;-0.6387535;-0.3102493;-0.4085872;0;-1;2;311;4010;536;2;0.1301939;-0.07894737;-0.7078565;-0.6897507;3;1;0;-301;4066;121;8;0.536011;-0.6415943;-0.3518005;-0.4210526;0;-1;3;3;4071;709;0.6890715;-0.1902807;0.3022939;0.6950342;0.3530779;0.3507448;0.7002774;0.8308692;0.3913182;0.7079724;1.555387;0.5074072;0.4527761;1.886187;0.5213485;0.1099136;1.741373;0.5615135;-0.03127277;0.8323436;0.4516889;0;0;0;0.9730908;1.880664;0.521348;1.260418;1.729159;0.5615128;1.347881;0.7697158;0.5517561;1.394819;-0.1100335;0.2030084;0.3768263;-0.2315001;0.2906282;0.3185808;-1.686937;0.1521715;0.2016234;-3.014397;0.3432171;0.3768263;-0.2315001;0.2906282;0.3185808;-1.686937;0.1521715;0.2016234;-3.014397;0.3432171
220862.062;NotLabelled;16384;0.7667829;-0.6315789;0.06925207;0.09141274;0;-4;-3;288;3984;761;65536;0.7670605;-0.602493;-0.1232687;0.1828255;1;-4;4;-1783;3622;-883;8192;0.267313;-0.2437673;-0.6907942;-0.6260388;1;-4;0;12;4093;359;32768;-0.3781163;0.1121884;0.634349;0.6648633;-3;-4;0;1465;3845;-352;256;-0.3047091;0.3504155;-0.5734072;-0.6749559;0;-3;0;55;4074;-573;128;0.3739612;-0.4085872;0.4404432;0.7065545;3;-3;-1;-705;3871;1352;4;0.7163692;-0.66482;0.1218837;0.1731302;-2;-1;2;351;4034;224;16;0.5747922;-0.6375074;-0.3102493;-0.4085872;0;-1;2;283;4008;530;2;0.1301939;-0.07894737;-0.7065043;-0.6911357;3;0;0;-319;4076;129;8;0.536011;-0.6415943;-0.3518005;-0.4210526;0;-2;2;63;4013;695;0.6922575;-0.1887329;0.2992311;0.6982201;0.35462;0.3477441;0.7034633;0.8324065;0.3883723;0.7111583;1.556925;0.5044613;0.4559619;1.887725;0.5184026;0.1130994;1.74291;0.5585676;-0.02797739;0.8338099;0.4491936;0;0;0;0.9762766;1.882202;0.5184021;1.263604;1.730697;0.5585669;1.354557;0.7715702;0.5496365;1.401495;-0.1081791;0.200889;0.3800122;-0.2299509;0.2875601;0.3217667;-1.685388;0.1491036;0.2048092;-3.012847;0.340149;0.3800122;-0.2299509;0.2875601;0.3217667;-1.685388;0.1491036;0.2048092;-3.012847;0.340149
220883.0228;NotLabelled;16384;0.7667829;-0.6315789;0.06925207;0.09141274;0;-3;-3;232;4036;779;65536;0.7672818;-0.602493;-0.1218837;0.1828255;0;-3;4;-1811;3660;-853;8192;0.267313;-0.2437673;-0.6907942;-0.6260388;0;-4;0;16;4127;355;32768;-0.3781163;0.1135734;0.632964;0.6659473;-2;-3;0;1487;3825;-384;256;-0.3047091;0.3504155;-0.5734072;-0.6749559;-1;-4;0;75;4002;-611;128;0.3739612;-0.4072022;0.4404432;0.7073537;2;-3;-1;-715;3889;1362;4;0.7173165;-0.6634349;0.1218837;0.1745152;-3;-2;3;353;4074;228;16;0.5747922;-0.6375074;-0.3102493;-0.4085872;0;-1;2;359;4026;602;2;0.1301939;-0.07894737;-0.7065043;-0.6911357;3;0;0;-373;4086;91;8;0.536011;-0.6423518;-0.3504155;-0.4210526;0;-2;2;65;4049;685;0.6908008;-0.1891572;0.3033116;0.6967649;0.3543267;0.3503368;0.7020091;0.8322225;0.3896567;0.7088723;1.556923;0.5046575;0.4532957;1.887449;0.5181062;0.1106005;1.742301;0.5584941;-0.03081307;0.8331108;0.4503039;0;0;0;0.9736165;1.882524;0.5181055;1.261118;1.731411;0.5584933;1.350747;0.7721605;0.5494568;1.396317;-0.1074944;0.2002884;0.3785552;-0.2304072;0.2917631;0.3209204;-1.685844;0.153051;0.2010378;-3.013757;0.339065;0.3785552;-0.2304072;0.2917631;0.3209204;-1.685844;0.153051;0.2010378;-3.013757;0.339065
220903.1094;NotLabelled;16384;0.7667829;-0.6315789;0.06925207;0.09141274;0;-3;-3;230;4058;803;65536;0.7672818;-0.602493;-0.1218837;0.1828255;1;-2;3;-1775;3666;-893;8192;0.267313;-0.2451524;-0.6903039;-0.6260388;0;-4;0;-6;4087;377;32768;-0.3781163;0.1135734;0.632964;0.6659473;-3;-3;1;1463;3903;-402;256;-0.3047091;0.3490305;-0.5734072;-0.6756732;-1;-4;0;73;4014;-633;128;0.3739612;-0.4058172;0.4418283;0.7072858;2;-3;0;-739;3783;1340;4;0.7182573;-0.6620498;0.1218837;0.1759003;-4;-4;3;355;4044;246;16;0.5747922;-0.6381797;-0.3088643;-0.4085872;0;-2;2;367;4030;566;2;0.1301939;-0.07894737;-0.7065043;-0.6911357;3;-1;0;-335;4066;139;8;0.5373961;-0.6411934;-0.3504155;-0.4210526;0;-3;3;-17;4053;675;0.692446;-0.1884148;0.3019476;0.6984099;0.3550639;0.3490344;0.7036542;0.8329554;0.3884082;0.7105173;1.557655;0.5034091;0.4549408;1.888182;0.5168579;0.1122456;1.743033;0.5572456;-0.02916797;0.8338437;0.4490559;0;0;0;0.9752616;1.883257;0.5168574;1.262764;1.732143;0.557245;1.352392;0.7728934;0.5482092;1.394024;-0.1073089;0.1999292;0.3802004;-0.2296634;0.2903939;0.3190756;-1.68453;0.1472632;0.1991928;-3.012443;0.3332771;0.3802004;-0.2296634;0.2903939;0.3190756;-1.68453;0.1472632;0.1991928;-3.012443;0.3332771
220945.1691;NotLabelled;16384;0.7665276;-0.6315789;0.07202215;0.09141274;0;-4;-3;184;4026;775;65536;0.7688016;-0.601108;-0.1191136;0.1828255;2;-3;3;-1817;3624;-899;8192;0.2686981;-0.2451524;-0.689766;-0.6260388;1;-4;0;26;4075;325;32768;-0.3795014;0.1149584;0.632964;0.664921;-2;-3;1;1473;3831;-354;256;-0.3047091;0.3476454;-0.5747922;-0.6752103;-1;-3;0;45;4000;-609;128;0.3725762;-0.4044321;0.4432133;0.7079433;2;-3;-1;-727;3859;1364;4;0.7176802;-0.6620498;0.1232687;0.1772853;-3;-3;2;391;4048;266;16;0.5761772;-0.6375993;-0.3074792;-0.4085872;1;-2;2;325;4042;622;2;0.1301939;-0.07894737;-0.7051467;-0.6925207;4;-2;0;-313;4110;59;8;0.5387812;-0.6407865;-0.3490305;-0.4210526;0;-5;3;37;4093;735;0.6892763;-0.1898346;0.3048965;0.6952416;0.3537657;0.3505533;0.700487;0.8317592;0.38867;0.708818;1.556444;0.5036733;0.4539115;1.887487;0.5171229;0.1109231;1.743033;0.5575101;-0.03023334;0.833843;0.4489852;0;0;0;0.9742211;1.881509;0.5171224;1.261416;1.729812;0.5575097;1.349971;0.7704475;0.5502739;1.392429;-0.1097543;0.2020938;0.3770304;-0.2311134;0.2934604;0.3127701;-1.685389;0.1457721;0.1908013;-3.012819;0.3338683;0.3770304;-0.2311134;0.2934604;0.3127701;-1.685389;0.1457721;0.1908013;-3.012819;0.3338683
220987.0482;NotLabelled;16384;0.7662297;-0.6315789;0.0734072;0.09279778;0;-3;-2;276;3914;791;65536;0.769015;-0.601108;-0.1177285;0.1828255;2;-3;2;-1865;3692;-839;8192;0.2700831;-0.2465374;-0.6887307;-0.6260388;0;-4;0;-20;4097;403;32768;-0.3808864;0.1163435;0.6315789;0.6652051;-1;-4;0;1443;3871;-360;256;-0.3033241;0.3462604;-0.5747922;-0.6765443;-1;-2;0;105;4080;-585;128;0.3725762;-0.4030471;0.4432133;0.7087327;2;-2;0;-735;3849;1344;4;0.7186124;-0.6606648;0.1232687;0.1786704;-3;-2;1;443;4040;266;16;0.5761772;-0.6375993;-0.3074792;-0.4085872;0;-2;3;315;4018;590;2;0.1315789;-0.08033241;-0.7033694;-0.6939058;4;-1;0;-243;4156;85;8;0.5401662;-0.6411232;-0.3462604;-0.4210526;0;-3;2;45;4029;759;0.6952935;-0.18977;0.3040838;0.7012591;0.3538532;0.3494702;0.7065047;0.8318658;0.3873491;0.7150888;1.556913;0.5000188;0.4602966;1.888086;0.5124125;0.11726;1.74388;0.5532774;-0.02527884;0.8345208;0.4480323;0;0;0;0.9806041;1.881929;0.512412;1.267749;1.730265;0.5532768;1.356046;0.7708926;0.5441549;1.399895;-0.1093724;0.1963073;0.3830476;-0.2310545;0.2926698;0.3199386;-1.685424;0.1454156;0.1938032;-3.01281;0.3310602;0.3830476;-0.2310545;0.2926698;0.3199386;-1.685424;0.1454156;0.1938032;-3.01281;0.3310602
221028.2305;NotLabelled;16384;0.7662297;-0.6315789;0.0734072;0.09279778;-1;-3;-2;220;4024;773;65536;0.769015;-0.601108;-0.1177285;0.1828255;2;-2;2;-1821;3646;-853;8192;0.2700831;-0.2479224;-0.6882333;-0.6260388;0;-4;0;32;4137;389;32768;-0.3808864;0.1163435;0.6315789;0.6652051;-2;-4;0;1493;3903;-382;256;-0.3033241;0.3462604;-0.5761772;-0.6753651;-1;-3;0;113;4072;-607;128;0.3725762;-0.4030471;0.4445983;0.7078647;1;-2;0;-743;3829;1330;4;0.7198833;-0.6592798;0.1232687;0.1786704;-3;-2;2;359;4012;252;16;0.5775623;-0.6370122;-0.3060942;-0.4085872;2;-2;3;411;4040;588;2;0.1315789;-0.08033241;-0.7033694;-0.6939058;4;0;0;-287;4116;117;8;0.5401662;-0.6411232;-0.3462604;-0.4210526;0;-3;2;59;4031;715;0.6938843;-0.188992;0.3012223;0.6998497;0.3546259;0.3466696;0.7050952;0.8326342;0.384602;0.7140622;1.557484;0.4985086;0.4594455;1.88877;0.5114619;0.1163317;1.744678;0.5520738;-0.02561143;0.835243;0.4466643;0;0;0;0.9797497;1.882337;0.5114611;1.266813;1.730451;0.5520728;1.353769;0.7709572;0.5428281;1.396275;-0.109205;0.1945516;0.3816383;-0.2302752;0.2898034;0.3157331;-1.684038;0.1378567;0.1887802;-3.011424;0.3229433;0.3816383;-0.2302752;0.2898034;0.3157331;-1.684038;0.1378567;0.1887802;-3.011424;0.3229433
