SEP=;
index;label;RightUpperArm_boneIndex;RightUpperArm_quat9x_w;RightUpperArm_quat9x_x;RightUpperArm_quat9x_y;RightUpperArm_quat9x_z;RightUpperArm_gyroscope_x;RightUpperArm_gyroscope_y;RightUpperArm_gyroscope_z;RightUpperArm_accelerometer_x;RightUpperArm_accelerometer_y;RightUpperArm_accelerometer_z;RightLowerArm_boneIndex;RightLowerArm_quat9x_w;RightLowerArm_quat9x_x;RightLowerArm_quat9x_y;RightLowerArm_quat9x_z;RightLowerArm_gyroscope_x;RightLowerArm_gyroscope_y;RightLowerArm_gyroscope_z;RightLowerArm_accelerometer_x;RightLowerArm_accelerometer_y;RightLowerArm_accelerometer_z;LeftUpperArm_boneIndex;LeftUpperArm_quat9x_w;LeftUpperArm_quat9x_x;LeftUpperArm_quat9x_y;LeftUpperArm_quat9x_z;LeftUpperArm_gyroscope_x;LeftUpperArm_gyroscope_y;LeftUpperArm_gyroscope_z;LeftUpperArm_accelerometer_x;LeftUpperArm_accelerometer_y;LeftUpperArm_accelerometer_z;LeftLowerArm_boneIndex;LeftLowerArm_quat9x_w;LeftLowerArm_quat9x_x;LeftLowerArm_quat9x_y;LeftLowerArm_quat9x_z;LeftLowerArm_gyroscope_x;LeftLowerArm_gyroscope_y;LeftLowerArm_gyroscope_z;LeftLowerArm_accelerometer_x;LeftLowerArm_accelerometer_y;LeftLowerArm_accelerometer_z;Chest_boneIndex;Chest_quat9x_w;Chest_quat9x_x;Chest_quat9x_y;Chest_quat9x_z;Chest_gyroscope_x;Chest_gyroscope_y;Chest_gyroscope_z;Chest_accelerometer_x;Chest_accelerometer_y;Chest_accelerometer_z;Spine_boneIndex;Spine_quat9x_w;Spine_quat9x_x;Spine_quat9x_y;Spine_quat9x_z;Spine_gyroscope_x;Spine_gyroscope_y;Spine_gyroscope_z;Spine_accelerometer_x;Spine_accelerometer_y;Spine_accelerometer_z;RightUpperLeg_boneIndex;RightUpperLeg_quat9x_w;RightUpperLeg_quat9x_x;RightUpperLeg_quat9x_y;RightUpperLeg_quat9x_z;RightUpperLeg_gyroscope_x;RightUpperLeg_gyroscope_y;RightUpperLeg_gyroscope_z;RightUpperLeg_accelerometer_x;RightUpperLeg_accelerometer_y;RightUpperLeg_accelerometer_z;RightLowerLeg_boneIndex;RightLowerLeg_quat9x_w;RightLowerLeg_quat9x_x;RightLowerLeg_quat9x_y;RightLowerLeg_quat9x_z;RightLowerLeg_gyroscope_x;RightLowerLeg_gyroscope_y;RightLowerLeg_gyroscope_z;RightLowerLeg_accelerometer_x;RightLowerLeg_accelerometer_y;RightLowerLeg_accelerometer_z;LeftUpperLeg_boneIndex;LeftUpperLeg_quat9x_w;LeftUpperLeg_quat9x_x;LeftUpperLeg_quat9x_y;LeftUpperLeg_quat9x_z;LeftUpperLeg_gyroscope_x;LeftUpperLeg_gyroscope_y;LeftUpperLeg_gyroscope_z;LeftUpperLeg_accelerometer_x;LeftUpperLeg_accelerometer_y;LeftUpperLeg_accelerometer_z;LeftLowerLeg_boneIndex;LeftLowerLeg_quat9x_w;LeftLowerLeg_quat9x_x;LeftLowerLeg_quat9x_y;LeftLowerLeg_quat9x_z;LeftLowerLeg_gyroscope_x;LeftLowerLeg_gyroscope_y;LeftLowerLeg_gyroscope_z;LeftLowerLeg_accelerometer_x;LeftLowerLeg_accelerometer_y;LeftLowerLeg_accelerometer_z;pelvis_x;pelvis_y;pelvis_z;lowerSpine_x;lowerSpine_y;lowerSpine_z;middleSpine_x;middleSpine_y;middleSpine_z;upperSpine_x;upperSpine_y;upperSpine_z;rightClavicle_x;rightClavicle_y;rightClavicle_z;rightShoulder_x;rightShoulder_y;rightShoulder_z;rightElbow_x;rightElbow_y;rightElbow_z;rightWrist_x;rightWrist_y;rightWrist_z;leftClavicle_x;leftClavicle_y;leftClavicle_z;leftShoulder_x;leftShoulder_y;leftShoulder_z;leftElbow_x;leftElbow_y;leftElbow_z;leftWrist_x;leftWrist_y;leftWrist_z;rightHip_x;rightHip_y;rightHip_z;rightKnee_x;rightKnee_y;rightKnee_z;rightAnkle_x;rightAnkle_y;rightAnkle_z;leftHip_x;leftHip_y;leftHip_z;leftKnee_x;leftKnee_y;leftKnee_z;leftAnkle_x;leftAnkle_y;leftAnkle_z;
645621.9567;NotLabelled;16384;0.7763291;-0.6204986;0.1108033;-0.004155125;-4;30;0;-698;4006;565;65536;0.7779682;-0.6038781;-0.1274238;0.1177285;-22;34;-26;-1245;3872;-293;8192;0.1606648;-0.3033241;-0.7907011;-0.5069252;31;34;-3;1158;3361;1609;32768;-0.4058172;0.1232687;0.6834209;0.5941828;23;49;-110;1490;3837;-818;256;-0.3767313;0.4085872;-0.6535195;-0.5138504;7;45;21;-1101;3756;287;128;0.3933518;-0.4265928;0.5526316;0.5982402;-14;47;-10;413;3909;602;4;0.6717451;-0.6750696;0.1717452;0.2520775;3;60;-8;591;4068;-532;16;0.6149584;-0.7062572;-0.2409972;-0.2548476;-3;25;8;-391;4060;508;2;0.2576177;0.004155125;-0.7165566;-0.6481994;-65;97;52;-1225;3684;537;8;0.4986149;-0.6625568;-0.3116343;-0.4639889;-23;142;23;1211;3811;417;1.049722;-0.06803441;0.6049713;1.055609;0.4684062;0.5058849;1.060779;0.93957;0.4167988;0.9521039;1.657279;0.3093442;0.6488587;1.93202;0.22386;0.3307827;1.752916;0.306857;0.08869267;0.8619275;0.3834215;0;0;0;1.163338;2.009925;0.2238588;1.468384;1.925176;0.3068552;1.835082;1.060526;0.5217693;1.939929;0.2043104;0.1297383;0.7374602;-0.1107469;0.6057084;0.7443833;-1.564121;0.4368483;0.8519689;-2.899513;0.5690687;0.7374602;-0.1107469;0.6057084;0.7443833;-1.564121;0.4368483;0.8519689;-2.899513;0.5690687
645644.076;NotLabelled;16384;0.7768219;-0.6204986;0.1066482;-0.01246537;-7;33;-2;-638;3998;515;65536;0.7720523;-0.6094183;-0.1412742;0.1121884;-25;43;-21;-1241;3850;-441;8192;0.1565097;-0.299169;-0.7904426;-0.5110803;31;36;-2;1250;3433;1617;32768;-0.3905817;0.1260388;0.6929293;0.5927978;19;48;-105;1522;3979;-818;256;-0.3808864;0.4113573;-0.6504536;-0.5124654;9;45;22;-1113;3774;173;128;0.3975069;-0.4307479;0.5470914;0.5976081;-13;48;-11;383;4001;686;4;0.6731302;-0.6771197;0.166205;0.2465374;2;61;-8;587;4056;-620;16;0.6135734;-0.7049984;-0.2437673;-0.2590028;-4;30;10;-349;4032;500;2;0.2409972;0.01246537;-0.7246971;-0.6454294;-61;97;55;-1293;3624;415;8;0.4903047;-0.6559177;-0.3199446;-0.4764543;-11;114;19;1517;3805;349;1.038577;-0.07096791;0.5933279;1.044469;0.4659514;0.4968663;1.049644;0.9375448;0.410086;0.942924;1.656286;0.3076899;0.6403833;1.932478;0.2244162;0.3218786;1.75372;0.3065094;0.08344665;0.861886;0.3846904;0;0;0;1.155084;2.008905;0.2244148;1.45997;1.922711;0.3065073;1.823;1.055674;0.5180006;1.941441;0.1913133;0.1483512;0.7263153;-0.1136832;0.5938393;0.7483851;-1.567393;0.429213;0.8565591;-2.90214;0.5673263;0.7263153;-0.1136832;0.5938393;0.7483851;-1.567393;0.429213;0.8565591;-2.90214;0.5673263
645663.9606;NotLabelled;16384;0.7773033;-0.6204986;0.1024931;-0.0166205;-8;35;-4;-498;4020;499;65536;0.7705152;-0.6108033;-0.1468144;0.1080332;-25;45;-16;-1229;3760;-479;8192;0.1523546;-0.2950138;-0.7901186;-0.5152354;31;38;-1;1404;3509;1509;32768;-0.3753462;0.1288089;0.7007955;0.5927978;14;49;-99;1562;4125;-820;256;-0.3891967;0.4196676;-0.640144;-0.5124654;12;46;24;-1011;3848;287;128;0.4058172;-0.4404432;0.534626;0.5962359;-20;53;-10;443;4033;798;4;0.6745152;-0.6798862;0.1592798;0.2396122;0;64;-8;533;4118;-718;16;0.6121883;-0.704183;-0.2451524;-0.2631579;-5;31;12;-259;4036;472;2;0.2257618;0.02077562;-0.7318395;-0.6426592;-54;96;56;-1519;3588;353;8;0.4861496;-0.6473984;-0.3268698;-0.4875346;-2;92;12;1689;3821;371;1.020029;-0.07503748;0.5848076;1.025927;0.4624164;0.4913722;1.031107;0.9344909;0.4072497;0.9258993;1.653638;0.3061464;0.6239287;1.930623;0.223438;0.3050633;1.752403;0.3052999;0.06457438;0.861614;0.3889065;0;0;0;1.138792;2.005949;0.2234365;1.443514;1.918958;0.3052975;1.801851;1.049535;0.5149925;1.934241;0.1777966;0.1681006;0.7077674;-0.1177552;0.5850592;0.7305859;-1.571457;0.4204721;0.8380687;-2.906119;0.5599426;0.7077674;-0.1177552;0.5850592;0.7305859;-1.571457;0.4204721;0.8380687;-2.906119;0.5599426
645685.9466;NotLabelled;16384;0.7775254;-0.6204986;0.09972299;-0.02216066;-7;36;-5;-468;3974;461;65536;0.7679915;-0.6135734;-0.1523546;0.1024931;-25;44;-10;-1181;3690;-531;8192;0.1481994;-0.2908587;-0.7897288;-0.5193906;32;41;0;1476;3539;1493;32768;-0.3601108;0.1301939;0.7084917;0.5927978;11;52;-88;1568;4153;-828;256;-0.3933518;0.4238227;-0.6348448;-0.5124654;13;46;23;-1023;3828;311;128;0.4085872;-0.4473684;0.5290859;0.5941263;-23;57;-9;577;4049;710;4;0.6759003;-0.6826583;0.1537396;0.2313019;-1;69;-7;527;4192;-698;16;0.6108033;-0.7028496;-0.2479224;-0.267313;-5;35;14;-387;4070;518;2;0.2105263;0.02770083;-0.7373457;-0.6412742;-40;88;55;-1539;3382;207;8;0.4819945;-0.6416944;-0.333795;-0.4944598;3;71;4;1671;3905;347;1.017993;-0.08327651;0.5516289;1.023904;0.4554057;0.4655561;1.029097;0.928587;0.3879008;0.9283225;1.649744;0.2971244;0.6279798;1.929794;0.218935;0.3081349;1.752488;0.2989405;0.0689601;0.8618393;0.3876522;0;0;0;1.143316;2.001811;0.2189337;1.447632;1.911726;0.2989386;1.804644;1.03992;0.5008557;1.941481;0.1610155;0.1743722;0.7057312;-0.1259933;0.551249;0.7282734;-1.579676;0.3864564;0.8365239;-2.914073;0.527851;0.7057312;-0.1259933;0.551249;0.7282734;-1.579676;0.3864564;0.8365239;-2.914073;0.527851
645706.0738;NotLabelled;16384;0.7768108;-0.6218836;0.09556787;-0.02631579;-7;37;-5;-452;3958;425;65536;0.7651925;-0.6163435;-0.1578947;0.09833795;-24;42;-6;-1171;3644;-499;8192;0.1412742;-0.2867036;-0.7888538;-0.5249307;33;45;4;1638;3633;1447;32768;-0.3476454;0.1315789;0.7132857;0.5941828;8;55;-76;1666;4115;-816;256;-0.3975069;0.4279778;-0.6294461;-0.5124654;12;49;21;-1021;3854;227;128;0.4127424;-0.4529086;0.5221606;0.5931828;-26;59;-7;599;3975;672;4;0.6800554;-0.6862081;0.1412742;0.2160665;-4;67;-6;177;4102;-582;16;0.6066482;-0.7006654;-0.2520775;-0.2783934;-6;34;18;-157;4036;660;2;0.1952908;0.033241;-0.7412988;-0.6412742;-22;81;54;-1523;3304;-49;8;0.4806094;-0.636592;-0.3393352;-0.4986149;11;54;0;1527;3849;399;1.011751;-0.08665729;0.5291126;1.017669;0.4526396;0.4469813;1.022867;0.9263759;0.3727883;0.9245059;1.648506;0.2872458;0.6250601;1.930143;0.2113499;0.3046804;1.753379;0.2904097;0.06513177;0.8634143;0.3847979;0;0;0;1.140643;2.000374;0.2113484;1.444722;1.90867;0.2904077;1.797726;1.034486;0.4890653;1.944234;0.1497111;0.1832936;0.6994891;-0.1293702;0.5283954;0.7237905;-1.583668;0.3693845;0.8317151;-2.917983;0.5118042;0.6994891;-0.1293702;0.5283954;0.7237905;-1.583668;0.3693845;0.8317151;-2.917983;0.5118042
645726.9656;NotLabelled;16384;0.7769392;-0.6218836;0.09279778;-0.03185596;-7;37;-6;-422;3888;439;65536;0.7638978;-0.6177285;-0.1620499;0.09279778;-23;39;0;-1185;3504;-529;8192;0.1274238;-0.2783934;-0.7886155;-0.533241;35;55;10;1686;3613;1401;32768;-0.3254848;0.1274238;0.7209817;0.5983379;0;57;-46;1588;3977;-782;256;-0.4016621;0.432133;-0.6239455;-0.5124654;12;52;19;-1003;3864;229;128;0.4155124;-0.4598338;0.5152354;0.5919753;-27;57;-7;623;3953;712;4;0.6814404;-0.6880953;0.1357341;0.2091413;-5;63;-6;59;4096;-490;16;0.6052631;-0.6986351;-0.2548476;-0.2839335;-6;33;20;-241;4048;584;2;0.16759;0.0401662;-0.7441245;-0.6454294;2;65;55;-1627;3272;-139;8;0.4806094;-0.6261399;-0.3504155;-0.5041551;28;29;0;1111;4319;-639;1.000921;-0.08948445;0.5103573;1.006846;0.4504356;0.4324298;1.012051;0.924736;0.3619297;0.9162371;1.647813;0.281669;0.6177463;1.931075;0.2080893;0.2968006;1.754913;0.2861916;0.06066556;0.8643441;0.3834398;0;0;0;1.133581;1.99943;0.2080879;1.437399;1.906057;0.2861896;1.783229;1.029363;0.4864022;1.933137;0.1394949;0.1975248;0.6886595;-0.1321898;0.5092807;0.7122059;-1.587117;0.3560128;0.8147908;-2.920513;0.5104834;0.6886595;-0.1321898;0.5092807;0.7122059;-1.587117;0.3560128;0.8147908;-2.920513;0.5104834
645747.9624;NotLabelled;16384;0.7772774;-0.6218836;0.08587258;-0.04155125;-6;37;-6;-358;3852;413;65536;0.7605896;-0.6218836;-0.16759;0.08171745;-19;40;10;-1311;3552;-663;8192;0.1191136;-0.2728532;-0.7890301;-0.5373961;35;61;14;1608;3603;1423;32768;-0.3157895;0.1232687;0.7237064;0.601108;-3;59;-31;1690;3905;-858;256;-0.4058172;0.4362881;-0.6194853;-0.5110803;11;53;18;-1053;3810;195;128;0.4182825;-0.466759;0.5083103;0.5905899;-25;52;-7;531;4009;626;4;0.6842105;-0.6888922;0.1301939;0.200831;-6;58;-5;-73;4102;-424;16;0.6038781;-0.6970517;-0.2562327;-0.2894737;-6;32;21;-75;4058;658;2;0.1565097;0.04155125;-0.7440535;-0.6481994;11;48;55;-1687;3504;43;8;0.4847645;-0.6209036;-0.3559557;-0.5027701;61;15;-4;421;4239;-497;0.9984031;-0.09339547;0.484946;1.004336;0.4472661;0.4123431;1.009548;0.9222383;0.3465205;0.9164208;1.646238;0.271588;0.6189451;1.93116;0.2003472;0.2974023;1.755661;0.2774801;0.06103984;0.8657641;0.3801638;0;0;0;1.135036;1.997548;0.2003458;1.438569;1.902454;0.2774781;1.772609;1.023095;0.4858533;1.929593;0.1269746;0.2210681;0.6861418;-0.1360884;0.4834149;0.7096686;-1.591306;0.3329313;0.8092158;-2.924658;0.48975;0.6861418;-0.1360884;0.4834149;0.7096686;-1.591306;0.3329313;0.8092158;-2.924658;0.48975
645791.8137;NotLabelled;16384;0.7763229;-0.6232687;0.07894737;-0.05124654;-7;41;-3;-454;3882;385;65536;0.7584377;-0.6246537;-0.1731302;0.06786703;-13;43;18;-1407;3730;-715;8192;0.09972299;-0.2603878;-0.7902266;-0.5457063;34;69;18;1334;3615;1351;32768;-0.301939;0.1108033;0.7246825;0.6094183;-11;64;-5;1644;3731;-868;256;-0.4168975;0.4515235;-0.6032774;-0.5083103;13;50;14;-987;3858;131;128;0.4252077;-0.4806094;0.4930748;0.5874438;-21;39;-8;457;3971;754;4;0.6883656;-0.6897938;0.1218837;0.1883656;-9;47;-5;-27;4070;-240;16;0.602493;-0.6941504;-0.2562327;-0.299169;-7;18;22;-13;4006;596;2;0.1371191;0.03878116;-0.7407357;-0.6565097;30;32;61;-1341;3604;391;8;0.4944598;-0.6035525;-0.3739612;-0.501385;64;66;19;727;4297;1151;0.9922923;-0.09238505;0.4567655;0.9982328;0.4489517;0.3893792;1.003452;0.9245362;0.3281397;0.9116271;1.649032;0.2564659;0.614641;1.934818;0.1866562;0.2928159;1.759576;0.2631947;0.05557731;0.8704243;0.3702298;0;0;0;1.130855;2.000247;0.1866548;1.434253;1.904251;0.2631925;1.764508;1.023887;0.473354;1.920598;0.1257062;0.2151005;0.6800311;-0.1350613;0.4547898;0.6984443;-1.590896;0.309652;0.7941275;-2.923948;0.4713407;0.6800311;-0.1350613;0.4547898;0.6984443;-1.590896;0.309652;0.7941275;-2.923948;0.4713407
645813.0588;NotLabelled;16384;0.776449;-0.6232687;0.07479224;-0.05540166;-7;44;-1;-586;3936;403;65536;0.7587083;-0.6246537;-0.1745152;0.06094183;-10;43;20;-1437;3758;-787;8192;0.08033241;-0.2465374;-0.7910953;-0.5540166;36;73;19;950;3439;1267;32768;-0.2908587;0.09556787;0.7231641;0.6191136;-16;69;9;1530;3465;-888;256;-0.4210526;0.4556787;-0.5984133;-0.5069252;13;48;14;-973;3848;169;128;0.4265928;-0.4847645;0.4875346;0.5876495;-21;36;-9;311;4013;746;4;0.6917655;-0.6883656;0.1191136;0.1828255;-10;44;-3;107;4114;-154;16;0.601108;-0.6935477;-0.2562327;-0.3033241;-7;16;22;-53;4064;572;2;0.1260388;0.03739612;-0.7390791;-0.6606648;29;34;61;-1333;4080;735;8;0.4958449;-0.5945524;-0.3808864;-0.5055401;47;44;29;951;4421;1515;0.992151;-0.09411192;0.3908717;0.9981046;0.4484103;0.3338106;1.003335;0.9250748;0.2816423;0.9148315;1.651377;0.2258343;0.6190504;1.940018;0.1630045;0.2965827;1.764711;0.2366297;0.06544854;0.8755553;0.3562541;0;0;0;1.135573;2.002963;0.1630034;1.438703;1.903889;0.2366287;1.764521;1.02224;0.4483225;1.903918;0.1219037;0.1880348;0.6798903;-0.1367419;0.3880181;0.6866322;-1.593439;0.2507378;0.7752176;-2.925875;0.4213126;0.6798903;-0.1367419;0.3880181;0.6866322;-1.593439;0.2507378;0.7752176;-2.925875;0.4213126
645833.9561;NotLabelled;16384;0.776423;-0.6232687;0.07063711;-0.06094183;-7;43;0;-732;4000;365;65536;0.7585908;-0.6246537;-0.1772853;0.05401662;-6;40;21;-1489;3868;-731;8192;0.07063711;-0.2396122;-0.7912273;-0.5581717;37;71;18;698;3531;1229;32768;-0.2867036;0.08587258;0.7224702;0.6232687;-17;68;12;1568;3423;-938;256;-0.4238227;0.4598338;-0.5944379;-0.5055401;11;45;15;-987;3906;233;128;0.4293629;-0.4875346;0.4819945;0.5879106;-17;32;-10;141;4111;716;4;0.6959734;-0.6883656;0.1108033;0.1717452;-13;50;0;307;4024;-202;16;0.599723;-0.6920788;-0.2534626;-0.3116343;-10;10;24;-147;3996;518;2;0.1052632;0.03601108;-0.7361701;-0.66759;19;48;56;-963;3812;153;8;0.4986149;-0.578785;-0.3975069;-0.5083103;48;61;1;-835;3793;833;0.9951656;-0.09458613;0.3686466;1.001124;0.4484081;0.3162689;1.00636;0.9255052;0.2682157;0.9196378;1.652284;0.2159174;0.6245426;1.941957;0.1546342;0.3016802;1.767105;0.2276113;0.0713584;0.8779869;0.3490605;0;0;0;1.141221;2.003613;0.154633;1.444144;1.903434;0.2276096;1.757825;1.020091;0.4502873;1.88337;0.1189451;0.1857831;0.6829051;-0.1371899;0.3653958;0.678317;-1.594401;0.2335883;0.7653729;-2.926139;0.4102873;0.6829051;-0.1371899;0.3653958;0.678317;-1.594401;0.2335883;0.7653729;-2.926139;0.4102873
645853.9934;NotLabelled;16384;0.7763353;-0.6232687;0.06648199;-0.06648199;-9;40;1;-862;4068;433;65536;0.7589649;-0.6246537;-0.1772853;0.04847645;-3;37;21;-1583;4036;-841;8192;0.06232687;-0.2313019;-0.7904705;-0.5637119;39;67;15;524;3621;1187;32768;-0.2825485;0.07756232;0.7202429;0.6288089;-19;66;13;1480;3425;-964;256;-0.4265928;0.4639889;-0.5892046;-0.5055401;11;43;16;-1007;4040;141;128;0.432133;-0.4903047;0.4778393;0.5869685;-12;31;-12;55;4183;642;4;0.6985033;-0.6883656;0.1052632;0.1648199;-12;59;4;371;4004;-16;16;0.5983379;-0.6925305;-0.2520775;-0.3144044;-12;11;25;-121;4004;412;2;0.09279778;0.03601108;-0.7327944;-0.6731302;41;61;58;-841;3936;-53;8;0.5;-0.5739874;-0.4044321;-0.5069252;40;4;-2;499;5019;949;0.9963719;-0.09483504;0.3397639;1.002334;0.4484692;0.2907099;1.007573;0.9258518;0.2455767;0.9210153;1.652901;0.1968991;0.6259307;1.942961;0.1374164;0.3031117;1.767862;0.2099925;0.07519542;0.8798542;0.3435092;0;0;0;1.142628;2.004451;0.1370043;1.445619;1.903825;0.2090825;1.757611;1.020961;0.4359887;1.875473;0.1209598;0.1641521;0.6841118;-0.1374183;0.3362316;0.6707876;-1.595067;0.2099714;0.7468556;-2.925255;0.4026867;0.6841118;-0.1374183;0.3362316;0.6707876;-1.595067;0.2099714;0.7468556;-2.925255;0.4026867
645874.9473;NotLabelled;16384;0.7761413;-0.6232687;0.05955679;-0.07479224;-9;30;5;-1066;4342;495;65536;0.7604042;-0.6232687;-0.1786704;0.03739612;5;24;18;-1513;4504;-961;8192;0.05401662;-0.2243767;-0.790104;-0.567867;39;61;11;338;3667;1173;32768;-0.2783934;0.06925207;0.7190674;0.632964;-19;63;11;1512;3355;-960;256;-0.4293629;0.468144;-0.5838817;-0.5055401;13;40;18;-907;4154;47;128;0.434903;-0.4916897;0.4736842;0.5871319;-11;31;-14;-147;4311;640;4;0.7023444;-0.6869806;0.09695291;0.1592798;-14;63;9;385;4066;12;16;0.5983379;-0.691133;-0.2506925;-0.3185596;-15;7;25;83;3972;392;2;0.08033241;0.03601108;-0.7278562;-0.6800554;41;57;55;-1495;4940;381;8;0.5055401;-0.572788;-0.4044321;-0.5027701;38;-32;-2;-503;4965;435;1.000969;-0.09454393;0.3283035;1.006933;0.4489186;0.2810298;1.012173;0.9264457;0.2374612;0.9276028;1.654083;0.1944019;0.6333079;1.9454;0.1371939;0.3100178;1.770631;0.2084574;0.08065742;0.882159;0.3362848;0;0;0;1.150172;2.005476;0.1371925;1.452893;1.903468;0.2084553;1.753388;1.016428;0.4345938;1.859929;0.1166227;0.1574914;0.6887089;-0.1371152;0.3246205;0.6697254;-1.594942;0.2011767;0.7461076;-2.923995;0.4014521;0.6887089;-0.1371152;0.3246205;0.6697254;-1.594942;0.2011767;0.7461076;-2.923995;0.4014521
645895.0674;NotLabelled;16384;0.7772873;-0.6218836;0.05540166;-0.07756232;-7;24;5;-1190;4440;633;65536;0.7616684;-0.6218836;-0.1786704;0.03462604;8;13;13;-1557;4650;-907;8192;0.04847645;-0.2174515;-0.7883965;-0.5734072;39;52;7;86;3817;1137;32768;-0.2742382;0.06094183;0.7165137;0.6385041;-19;58;8;1546;3463;-904;256;-0.4362881;0.4722992;-0.5753394;-0.5055401;10;35;25;-601;4472;105;128;0.4418283;-0.4944598;0.466759;0.585178;0;26;-16;-367;4537;580;4;0.7058455;-0.6855956;0.0900277;0.1537396;-17;59;16;185;4144;130;16;0.5969529;-0.6914021;-0.2479224;-0.3227147;-19;0;26;181;4064;394;2;0.07063711;0.03601108;-0.7249618;-0.6842105;23;33;49;-1563;4774;901;8;0.5096953;-0.5717572;-0.4058172;-0.4986149;34;-3;2;-773;4645;107;1.00704;-0.09402251;0.3043327;1.013006;0.4495883;0.2587974;1.018247;0.9272528;0.2167562;0.9357575;1.655446;0.1794322;0.6422613;1.948052;0.1247567;0.3185266;1.773674;0.1949511;0.08937091;0.8854909;0.3251398;0;0;0;1.159298;2.006625;0.1247556;1.461783;1.903187;0.1949497;1.756801;1.014653;0.4224303;1.85494;0.1155806;0.1398966;0.6947802;-0.1365817;0.3005025;0.6647084;-1.59372;0.1712624;0.7350158;-2.922154;0.3777733;0.6947802;-0.1365817;0.3005025;0.6647084;-1.59372;0.1712624;0.7350158;-2.922154;0.3777733
645917.0752;NotLabelled;16384;0.7773404;-0.6218836;0.05263158;-0.07894737;-5;19;3;-1238;4434;835;65536;0.7631818;-0.6204986;-0.1772853;0.033241;10;2;7;-1597;4510;-1003;8192;0.04432133;-0.2119114;-0.7860974;-0.5789474;39;42;1;82;3893;1007;32768;-0.2686981;0.05401662;0.7154527;0.6426592;-17;53;2;1590;3543;-892;256;-0.4404432;0.4736842;-0.5697894;-0.5069252;7;37;28;-493;4520;47;128;0.4445983;-0.4944598;0.4626039;0.5863783;-7;26;-18;-379;4455;730;4;0.7089249;-0.6842105;0.08310249;0.1495845;-22;48;23;241;4142;164;16;0.5969529;-0.6915811;-0.2437673;-0.3254848;-24;-6;26;273;3964;342;2;0.06232687;0.033241;-0.7232344;-0.6869806;29;21;44;-1327;4306;723;8;0.5124654;-0.5662907;-0.4099723;-0.4986149;31;18;9;-221;4291;-7;1.00951;-0.1013453;0.2906938;1.015476;0.4423103;0.2456975;1.020718;0.9200158;0.2041299;0.945689;1.64929;0.1726122;0.6551726;1.945318;0.1205032;0.3297195;1.773727;0.1896117;0.09973866;0.8859229;0.32092;0;0;0;1.172784;1.998574;0.120502;1.474247;1.891484;0.1896099;1.762291;0.9994617;0.4123259;1.84617;0.1007934;0.1239719;0.6972501;-0.1439004;0.286818;0.6555985;-1.600529;0.1550664;0.7251196;-2.927216;0.3727713;0.6972501;-0.1439004;0.286818;0.6555985;-1.600529;0.1550664;0.7251196;-2.927216;0.3727713
645939.0922;NotLabelled;16384;0.7772909;-0.6218836;0.05124654;-0.08033241;-4;15;0;-1286;4288;947;65536;0.7643058;-0.6191136;-0.1772853;0.033241;10;-4;-1;-1665;4296;-1021;8192;0.03878116;-0.200831;-0.7820887;-0.5886427;38;24;-6;42;3865;931;32768;-0.2603878;0.04432133;0.7129332;0.6495845;-14;43;-5;1592;3331;-744;256;-0.4445983;0.4750692;-0.5653923;-0.5069252;5;38;30;-505;4286;99;128;0.4487534;-0.4958449;0.4584487;0.5853059;-14;31;-20;-367;4235;636;4;0.7187592;-0.6759003;0.07063711;0.1468144;-29;32;38;429;3926;552;16;0.5941828;-0.6940178;-0.234072;-0.33241;-38;-9;26;359;3986;114;2;0.05263158;0.033241;-0.7160276;-0.6952909;32;18;22;-1065;3994;-51;8;0.5180055;-0.5604252;-0.4127424;-0.4972299;14;-7;15;-217;3781;-193;1.008425;-0.1072738;0.2791748;1.014392;0.4365125;0.2357838;1.019636;0.9143386;0.1956267;0.9512522;1.644428;0.1681355;0.6634241;1.943376;0.1178076;0.3364532;1.774388;0.1861605;0.1076886;0.8862591;0.3174017;0;0;0;1.1815;1.991904;0.1178066;1.482008;1.881691;0.186159;1.760472;0.9860549;0.4065433;1.837043;0.08720398;0.1167319;0.6961651;-0.1498175;0.2751635;0.6449832;-1.605624;0.1378099;0.7099971;-2.930807;0.3658273;0.6961651;-0.1498175;0.2751635;0.6449832;-1.605624;0.1378099;0.7099971;-2.930807;0.3658273
645960.1028;NotLabelled;16384;0.7781062;-0.6204986;0.05124654;-0.08310249;-4;11;-4;-1312;4026;1149;65536;0.7653003;-0.6177285;-0.1772853;0.03601108;9;-7;-11;-1597;4024;-1061;8192;0.03878116;-0.1966759;-0.778949;-0.5941828;37;16;-10;-26;3735;919;32768;-0.2562327;0.04155125;0.7120758;0.6523545;-15;37;-8;1610;3245;-626;256;-0.4501385;0.4750692;-0.5609915;-0.5069252;0;35;32;-487;4128;139;128;0.4529086;-0.4958449;0.4529086;0.5864175;-10;32;-22;-375;4013;280;4;0.7231257;-0.6717451;0.06232687;0.1481994;-32;29;49;507;3882;640;16;0.5914127;-0.6964363;-0.2299169;-0.33518;-46;-3;26;171;4014;78;2;0.04986149;0.033241;-0.7135263;-0.6980609;18;10;10;-839;4226;487;8;0.5207756;-0.5590835;-0.4127424;-0.4958449;6;-12;17;-279;3907;-243;1.007791;-0.1126449;0.2741678;1.013758;0.4311547;0.2309489;1.019002;0.9089937;0.1909431;0.9556077;1.639605;0.1654047;0.6698196;1.940647;0.115941;0.341716;1.773718;0.1839268;0.1141068;0.8855753;0.3170688;0;0;0;1.188215;1.98563;0.11594;1.487978;1.873182;0.1839253;1.74794;0.9705338;0.3982141;1.812812;0.0710299;0.1075737;0.695531;-0.1551871;0.2701418;0.6069839;-1.607176;0.1128328;0.6660037;-2.926967;0.3716702;0.695531;-0.1551871;0.2701418;0.6069839;-1.607176;0.1128328;0.6660037;-2.926967;0.3716702
645979.958;NotLabelled;16384;0.7797611;-0.6177285;0.05263158;-0.08725762;-9;11;-12;-1100;3694;1297;65536;0.7648327;-0.6163435;-0.1828255;0.04155125;2;7;-30;-1693;3628;-1111;8192;0.0401662;-0.1939058;-0.775319;-0.599723;36;7;-14;-18;3623;879;32768;-0.2520775;0.03878116;0.7111713;0.6551247;-17;28;-10;1594;3159;-576;256;-0.4556787;0.4750692;-0.5565007;-0.5069252;-7;34;34;-405;4044;171;128;0.4570637;-0.4958449;0.4501385;0.5853255;8;25;-22;-547;4035;64;4;0.7283278;-0.666205;0.05401662;0.1509695;-35;35;58;699;3900;604;16;0.5872576;-0.6992937;-0.2257618;-0.3393352;-54;3;26;219;4108;202;2;0.04847645;0.033241;-0.7122643;-0.699446;12;11;0;-941;4042;281;8;0.5249307;-0.5562111;-0.4113573;-0.4958449;2;-18;19;115;3983;85;1.007416;-0.1225836;0.26913;1.013385;0.4213357;0.2274415;1.01863;0.8992853;0.1887805;0.9624215;1.630485;0.1632627;0.6796066;1.934323;0.1138085;0.349878;1.770626;0.1817905;0.1200398;0.8838029;0.3198111;0;0;0;1.19842;1.974208;0.1138071;1.497062;1.858817;0.1817884;1.747019;0.9517517;0.3892231;1.805782;0.05125999;0.1003481;0.6951569;-0.1651144;0.2649747;0.5881305;-1.61363;0.08831692;0.6513448;-2.930091;0.3626533;0.6951569;-0.1651144;0.2649747;0.5881305;-1.61363;0.08831692;0.6513448;-2.930091;0.3626533
646000.9607;NotLabelled;16384;0.7803808;-0.6163435;0.05263158;-0.09141274;-14;16;-14;-1066;3474;1351;65536;0.764105;-0.6149584;-0.1897507;0.04432133;0;20;-37;-1659;3502;-1161;8192;0.04155125;-0.1911357;-0.7727042;-0.6038781;35;-2;-18;48;3675;793;32768;-0.2493075;0.03878116;0.7095888;0.6578947;-18;18;-12;1680;3253;-544;256;-0.468144;0.4736842;-0.5485377;-0.5055401;-12;30;35;-57;3918;-35;128;0.4695291;-0.4903047;0.4487534;0.5811747;31;17;-22;-585;3903;536;4;0.7337205;-0.6606648;0.04432133;0.1523546;-36;34;67;809;3980;680;16;0.5817174;-0.7025356;-0.2216066;-0.3448753;-63;7;27;327;4386;300;2;0.04847645;0.03601108;-0.7107666;-0.700831;11;19;-4;-603;3940;-57;8;0.5277008;-0.5556313;-0.4085872;-0.4958449;1;-10;19;139;3995;433;1.005032;-0.1365311;0.2764537;1.011;0.4072819;0.233402;1.016243;0.8851333;0.193543;0.9672828;1.616854;0.1680429;0.6874926;1.923481;0.1185963;0.3561583;1.763058;0.186575;0.120874;0.8789515;0.3326116;0;0;0;1.206675;1.958223;0.1185951;1.50416;1.839878;0.1865734;1.743806;0.9284134;0.3867681;1.796389;0.02695704;0.09971619;0.6927722;-0.1790724;0.2724136;0.5622789;-1.622839;0.07400364;0.6312827;-2.934803;0.3677998;0.6927722;-0.1790724;0.2724136;0.5622789;-1.622839;0.07400364;0.6312827;-2.934803;0.3677998
646020.9522;NotLabelled;16384;0.7831489;-0.6121883;0.05263158;-0.09556787;-18;21;-13;-1076;3442;1415;65536;0.7633854;-0.6135734;-0.1966759;0.04570637;-3;33;-42;-1595;3594;-1189;8192;0.04570637;-0.1897507;-0.7684497;-0.6094183;32;-13;-22;80;3787;569;32768;-0.2479224;0.03878116;0.7087882;0.6592798;-16;4;-13;1804;3751;-634;256;-0.4736842;0.4722992;-0.5449642;-0.5055401;-6;25;35;217;3918;-51;128;0.4750692;-0.4875346;0.4487534;0.5789988;25;14;-22;-613;3967;702;4;0.7383844;-0.6551247;0.033241;0.1565097;-35;37;74;817;4212;490;16;0.5761772;-0.7053875;-0.2160665;-0.3518005;-67;17;32;189;4556;600;2;0.04570637;0.03878116;-0.7094361;-0.702216;11;20;-3;-241;3984;-315;8;0.5290859;-0.5551063;-0.4058172;-0.4972299;3;-4;19;253;4117;713;0.9911508;-0.1539586;0.3033428;0.9971073;0.3888459;0.249031;1.002341;0.8657684;0.1992784;0.9683675;1.59819;0.1698173;0.6949214;1.910205;0.118618;0.3603573;1.756963;0.1873407;0.124641;0.8745546;0.3426586;0;0;0;1.214706;1.934319;0.1186167;1.509691;1.81028;0.1873392;1.744223;0.8953757;0.3776553;1.786079;-0.00763607;0.09374678;0.6788903;-0.1965735;0.300256;0.5224473;-1.634855;0.08178169;0.6020778;-2.940975;0.3980681;0.6788903;-0.1965735;0.300256;0.5224473;-1.634855;0.08178169;0.6020778;-2.940975;0.3980681
646062.9561;NotLabelled;16384;0.7864866;-0.6066482;0.05124654;-0.1038781;-22;25;-3;-1150;3680;1617;65536;0.760833;-0.6108033;-0.2146814;0.04432133;-9;47;-45;-1397;3704;-1331;8192;0.05955679;-0.1897507;-0.7597013;-0.6191136;15;-21;-25;594;4727;199;32768;-0.2465374;0.04709141;0.7061811;0.6620498;-6;-13;-12;1616;4607;-500;256;-0.4875346;0.466759;-0.534852;-0.5083103;-9;16;28;285;4516;303;128;0.4819945;-0.4819945;0.4459834;0.580053;19;8;-18;-705;4417;814;4;0.7511498;-0.6385041;0;0.16759;-24;31;75;1095;4708;522;16;0.5512465;-0.7138045;-0.2063712;-0.3795014;-64;41;40;425;5026;1354;2;0.0401662;0.04155125;-0.702216;-0.7096145;13;4;11;-731;4202;-551;8;0.533241;-0.5516536;-0.4016621;-0.5;4;-4;12;415;4277;345;0.9902629;-0.1666753;0.3216329;0.996213;0.3755264;0.2616047;1.00144;0.8518987;0.2068294;0.975166;1.584557;0.1754566;0.7050176;1.899293;0.1234118;0.3688556;1.749754;0.192493;0.1243297;0.8706155;0.3526575;0;0;0;1.225027;1.917945;0.1234106;1.518686;1.790994;0.1924912;1.741484;0.8714643;0.3744297;1.778705;-0.03230762;0.09230065;0.6780021;-0.2093203;0.3190313;0.4991523;-1.640112;0.07062179;0.5826286;-2.93906;0.4142663;0.6780021;-0.2093203;0.3190313;0.4991523;-1.640112;0.07062179;0.5826286;-2.93906;0.4142663
646105.058;NotLabelled;16384;0.7943911;-0.5955678;0.04432133;-0.1108033;-22;17;6;-1240;3930;1533;65536;0.7548642;-0.6080332;-0.2423823;0.04155125;-10;36;-43;-1163;4146;-1479;8192;0.06925207;-0.1883656;-0.7558166;-0.6232687;13;-14;-31;666;4955;201;32768;-0.2451524;0.05124654;0.7063739;0.6620498;1;0;-11;1556;4869;-378;256;-0.4944598;0.4626039;-0.530771;-0.5096953;-5;9;22;401;4470;5;128;0.4889196;-0.4778393;0.4445983;0.5787569;6;5;-18;-1031;4415;864;4;0.7566043;-0.6301939;-0.02077562;0.1731302;-12;43;64;1107;4068;760;16;0.536011;-0.7156283;-0.2036011;-0.398892;-45;51;37;321;4104;1654;2;0.04155125;0.03878116;-0.6966759;-0.7151309;15;-7;5;-903;4124;-675;8;0.536011;-0.5499732;-0.400277;-0.5;0;-6;8;469;4043;163;0.9678378;-0.1983058;0.345138;0.9737822;0.3433886;0.2806917;0.9790047;0.8192987;0.2220351;0.9763252;1.552265;0.187169;0.7164477;1.875281;0.1335796;0.3756458;1.736969;0.2033147;0.1204481;0.8626585;0.3729728;0;0;0;1.236788;1.877187;0.1335784;1.526207;1.741181;0.2033134;1.72774;0.8127327;0.3634485;1.753505;-0.09526968;0.09390092;0.6555768;-0.2409706;0.342912;0.4143445;-1.644477;0.007001221;0.5164753;-2.914777;0.4408594;0.6555768;-0.2409706;0.342912;0.4143445;-1.644477;0.007001221;0.5164753;-2.914777;0.4408594
646125.954;NotLabelled;16384;0.7962195;-0.5927978;0.04155125;-0.1135734;-23;17;4;-1264;3912;1475;65536;0.7537223;-0.6066482;-0.2493075;0.04155125;-9;33;-42;-1167;4090;-1475;8192;0.07479224;-0.1883656;-0.752994;-0.6260388;15;-12;-31;756;4937;209;32768;-0.2437673;0.05124654;0.7068531;0.6620498;4;11;-8;1566;4803;-364;256;-0.5;0.4584487;-0.5265017;-0.5124654;-7;0;22;605;4066;39;128;0.4930748;-0.4764543;0.4390582;0.5806001;-1;9;-20;-1257;3947;666;4;0.7585186;-0.6274238;-0.03185596;0.1731302;-2;47;54;809;3808;996;16;0.5290859;-0.714519;-0.2036011;-0.4099723;-35;62;39;221;3524;1982;2;0.04155125;0.03739612;-0.6952909;-0.7165512;11;-5;1;-745;4054;-561;8;0.5373961;-0.5496277;-0.398892;-0.5;-2;-5;7;347;4101;219;0.958871;-0.22527;0.3968506;0.9648073;0.3156853;0.3264688;0.9700224;0.7909236;0.2625973;0.9795303;1.523653;0.2241303;0.725057;1.850679;0.1689497;0.3820066;1.718399;0.2393575;0.1023077;0.8507338;0.4044516;0;0;0;1.245357;1.843931;0.1689488;1.532479;1.703475;0.2393562;1.723806;0.7702661;0.3835424;1.748688;-0.1397839;0.1209075;0.6466097;-0.2679565;0.3951302;0.3782432;-1.652729;0.00622952;0.4825855;-2.90418;0.4913167;0.6466097;-0.2679565;0.3951302;0.3782432;-1.652729;0.00622952;0.4825855;-2.90418;0.4913167
646146.0825;NotLabelled;16384;0.7979463;-0.5900277;0.0401662;-0.1163435;-22;17;1;-1304;3778;1475;65536;0.7509978;-0.6066482;-0.2576177;0.0401662;-8;31;-42;-1149;3946;-1451;8192;0.08310249;-0.1855956;-0.7493356;-0.6301939;13;-7;-25;900;4503;357;32768;-0.2409972;0.04709141;0.708091;0.6620498;1;20;7;1620;4269;-268;256;-0.5027701;0.4556787;-0.5235568;-0.5152354;-8;-2;22;681;4016;-99;128;0.4958449;-0.4736842;0.4362881;0.5825924;5;10;-21;-1201;3909;392;4;0.7595081;-0.6260388;-0.04155125;0.1717452;9;48;46;763;3754;820;16;0.5221606;-0.7131888;-0.2063712;-0.4196676;-23;73;43;-45;3486;1346;2;0.04293629;0.03739612;-0.6939058;-0.7178111;7;-1;0;-483;4168;-499;8;0.5373961;-0.5506302;-0.3975069;-0.5;-4;-2;6;337;4055;423;0.9464662;-0.2407439;0.4064063;0.952404;0.3003454;0.3370633;0.9576204;0.7757058;0.2741047;0.9793952;1.508094;0.2341619;0.7304307;1.839225;0.1783295;0.3852171;1.712849;0.2490125;0.09967011;0.8468957;0.4130746;0;0;0;1.250545;1.823763;0.1783284;1.535279;1.678661;0.2490109;1.719454;0.7428288;0.385286;1.744607;-0.1676884;0.1242998;0.634205;-0.2834268;0.4045973;0.3579341;-1.659967;-0.007312119;0.4577359;-2.902569;0.5009285;0.634205;-0.2834268;0.4045973;0.3579341;-1.659967;-0.007312119;0.4577359;-2.902569;0.5009285
646166.9641;NotLabelled;16384;0.8009338;-0.5858725;0.03739612;-0.1177285;-21;14;-1;-1352;3586;1587;65536;0.7497068;-0.6052631;-0.2645429;0.0401662;-8;29;-42;-1041;3710;-1479;8192;0.08587258;-0.1842105;-0.7470268;-0.632964;10;-3;-22;966;4249;373;32768;-0.2409972;0.04432133;0.7069725;0.6634349;-1;17;20;1672;4193;-224;256;-0.5041551;0.4529086;-0.5232636;-0.5166205;-5;-2;21;629;3982;-155;128;0.5;-0.4709141;0.434903;0.5823223;13;7;-20;-1147;3887;534;4;0.7587778;-0.6274238;-0.06232687;0.1634349;28;65;32;731;3608;396;16;0.5069252;-0.700019;-0.2299169;-0.4473684;18;173;44;-1245;3390;872;2;0.04155125;0.03739612;-0.6911357;-0.7205598;1;7;2;-349;4048;-571;8;0.5373961;-0.5503689;-0.3961219;-0.501385;-5;7;3;487;4015;475;0.9336603;-0.2522938;0.4143548;0.9395977;0.2887664;0.3447825;0.9448139;0.7640996;0.2816223;0.9748144;1.496222;0.2421259;0.7295864;1.830162;0.1864909;0.3829736;1.707629;0.2570908;0.09119453;0.8437853;0.4213151;0;0;0;1.249494;1.80886;0.1864896;1.532578;1.660525;0.2570889;1.705338;0.7205453;0.3790187;1.733069;-0.1893582;0.1161602;0.621399;-0.2949774;0.4125654;0.3434077;-1.665513;-0.01779833;0.4400438;-2.901366;0.5072297;0.621399;-0.2949774;0.4125654;0.3434077;-1.665513;-0.01779833;0.4400438;-2.901366;0.5072297
646186.9633;NotLabelled;16384;0.8051251;-0.5789474;0.03739612;-0.1232687;-22;8;-7;-1152;3412;1633;65536;0.7458716;-0.6038781;-0.2783934;0.03878116;-9;28;-39;-969;3502;-1371;8192;0.08725762;-0.1842105;-0.7456902;-0.634349;4;2;-15;988;4127;353;32768;-0.2423823;0.03878116;0.705522;0.66482;-5;12;31;1506;4063;-218;256;-0.5055401;0.4501385;-0.5215726;-0.5193906;-1;-6;21;555;3940;-137;128;0.5027701;-0.468144;0.432133;0.5842299;13;4;-21;-1131;3861;580;4;0.7567943;-0.6301939;-0.07202215;0.1578947;33;62;27;827;3596;534;16;0.4986149;-0.6874998;-0.2493075;-0.4653739;40;198;38;-209;3484;1050;2;0.0401662;0.03739612;-0.6911357;-0.7206384;0;10;4;-505;3980;-483;8;0.536011;-0.5504561;-0.3961219;-0.5027701;-4;7;2;423;4035;511;0.9325627;-0.2602603;0.4414114;0.9384956;0.2803864;0.3686954;0.9437077;0.7553444;0.3027733;0.9780847;1.487185;0.2616612;0.7348456;1.822466;0.2053667;0.3875263;1.702169;0.2763389;0.08592498;0.8398066;0.4302772;0;0;0;1.254616;1.798048;0.2052566;1.536828;1.648174;0.2760967;1.701832;0.7055969;0.3883367;1.72687;-0.2034936;0.1224144;0.6203012;-0.3029537;0.4398901;0.3571166;-1.6663;-0.02149713;0.4291798;-2.898676;0.5155168;0.6203012;-0.3029537;0.4398901;0.3571166;-1.6663;-0.02149713;0.4291798;-2.898676;0.5155168
646227.9678;NotLabelled;16384;0.8068316;-0.5761772;0.03878116;-0.1246537;-21;5;-8;-1136;3422;1569;65536;0.7449734;-0.602493;-0.2839335;0.03739612;-9;28;-34;-955;3382;-1381;8192;0.08725762;-0.1828255;-0.746031;-0.634349;0;10;-6;868;4037;353;32768;-0.2465374;0.03462604;0.7029874;0.666205;-8;6;39;1462;4013;-188;256;-0.5055401;0.4473684;-0.5180055;-0.5253198;0;-7;20;619;3960;-33;128;0.5055401;-0.4653739;0.432133;0.5840526;15;2;-20;-1089;3881;670;4;0.754779;-0.632964;-0.08033241;0.1523546;34;58;23;863;3620;650;16;0.4930748;-0.6745536;-0.2686981;-0.4792244;60;159;32;829;3524;1136;2;0.03878116;0.03878116;-0.6897507;-0.7219668;0;9;4;-573;4068;-455;8;0.534626;-0.5505362;-0.3961219;-0.5041551;-5;7;1;309;4073;517;0.9262568;-0.2787387;0.448238;0.9321892;0.2618685;0.3752306;0.9374009;0.7367916;0.3090526;0.9781278;1.468336;0.2684708;0.737817;1.805752;0.2123566;0.389451;1.688417;0.2831589;0.07249182;0.833127;0.4454668;0;0;0;1.257356;1.776831;0.2123551;1.538241;1.624467;0.2831566;1.699473;0.681715;0.3993386;1.721102;-0.2249761;0.1250557;0.6139954;-0.3214326;0.4467414;0.3669278;-1.683803;-0.02629417;0.4162156;-2.919152;0.5064458;0.6139954;-0.3214326;0.4467414;0.3669278;-1.683803;-0.02629417;0.4162156;-2.919152;0.5064458
646249.0107;NotLabelled;16384;0.8095683;-0.5720221;0.03878116;-0.1260388;-21;5;-7;-1046;3364;1623;65536;0.7439595;-0.601108;-0.2894737;0.03739612;-8;26;-28;-969;3416;-1465;8192;0.08725762;-0.1814404;-0.7463691;-0.634349;-2;12;-1;702;4059;339;32768;-0.2506925;0.03047091;0.6990688;0.6689751;-10;2;45;1440;3993;-152;256;-0.5083103;0.4404432;-0.5166205;-0.5298432;-5;-8;18;717;3938;101;128;0.5110803;-0.4598338;0.4293629;0.5856597;9;0;-17;-1193;3849;584;4;0.7526156;-0.6357341;-0.08864266;0.1468144;33;52;20;813;3706;828;16;0.4930748;-0.6612236;-0.2839335;-0.4889196;75;101;26;1039;3678;986;2;0.03739612;0.03878116;-0.6897507;-0.7220399;0;6;6;-605;4068;-409;8;0.534626;-0.5492647;-0.3961219;-0.5055401;-5;6;1;311;4049;531;0.9160653;-0.2900374;0.4520715;0.9219931;0.2501526;0.3760378;0.9272006;0.7246976;0.3072012;0.9767944;1.455975;0.2720438;0.7406111;1.79668;0.2183258;0.3908156;1.68305;0.2881156;0.06700493;0.8304825;0.4512274;0;0;0;1.259763;1.761475;0.2183244;1.538749;1.605204;0.2881136;1.699504;0.6622624;0.403412;1.716053;-0.2414451;0.1191124;0.6038036;-0.3327394;0.4508333;0.3738191;-1.694974;-0.0311228;0.4012177;-2.937197;0.4870071;0.6038036;-0.3327394;0.4508333;0.3738191;-1.694974;-0.0311228;0.4012177;-2.937197;0.4870071
646270.695;NotLabelled;16384;0.8113022;-0.5692521;0.03878116;-0.1274238;-20;5;-7;-994;3410;1583;65536;0.7424636;-0.601108;-0.2936288;0.03462604;-6;25;-22;-995;3450;-1495;8192;0.08725762;-0.1800554;-0.7467045;-0.634349;-7;2;5;460;4199;123;32768;-0.2617728;0.02216066;0.6926343;0.6717451;-8;-3;50;1430;4197;-176;256;-0.5096953;0.4376731;-0.5166205;-0.5308072;-6;-9;17;807;3958;19;128;0.5124654;-0.4584487;0.4279778;0.5865483;7;0;-15;-1251;3857;618;4;0.7502183;-0.6385041;-0.09556787;0.1426593;32;43;14;701;3610;762;16;0.4986149;-0.6490202;-0.2950138;-0.4930748;86;52;19;731;3666;1058;2;0.03739612;0.03878116;-0.6897507;-0.7220399;-1;5;5;-693;4084;-297;8;0.533241;-0.5506094;-0.3961219;-0.5055401;-5;3;0;303;4071;515;0.9041071;-0.3043883;0.4707775;0.9100296;0.235312;0.3913411;0.9152323;0.7094135;0.3195154;0.9764742;1.439705;0.2822897;0.7457419;1.783981;0.2276578;0.3941953;1.676142;0.2978339;0.06038482;0.8269801;0.4585351;0;0;0;1.264266;1.740501;0.2276566;1.54074;1.579998;0.2978321;1.700852;0.6368699;0.4125016;1.709307;-0.263859;0.1185575;0.5918456;-0.3470969;0.4698299;0.3803244;-1.709157;-0.02099416;0.3809493;-2.960753;0.4748222;0.5918456;-0.3470969;0.4698299;0.3803244;-1.709157;-0.02099416;0.3809493;-2.960753;0.4748222
646291.1471;NotLabelled;16384;0.8172942;-0.5595568;0.0401662;-0.1315789;-15;1;-8;-1052;3208;1777;65536;0.7416054;-0.5983379;-0.301939;0.02908587;-5;15;-7;-885;3290;-1469;8192;0.08587258;-0.1814404;-0.7477044;-0.632964;-11;2;7;582;4241;83;32768;-0.2742382;0.01385042;0.6866567;0.6731302;-4;-8;47;1282;3967;-110;256;-0.5110803;0.432133;-0.5152354;-0.5353414;-5;-4;12;877;3898;-33;128;0.5166205;-0.4529086;0.4265928;0.588214;8;1;-11;-1241;3839;424;4;0.7460027;-0.6440443;-0.1066482;0.1315789;16;13;2;803;3784;978;16;0.5277008;-0.6241084;-0.3199446;-0.4792244;118;-12;-13;255;4042;1172;2;0.03601108;0.03601108;-0.6897507;-0.7222537;0;-5;7;-625;4048;-139;8;0.5304709;-0.5530012;-0.3947368;-0.5069252;-7;-1;0;237;4055;511;0.8994255;-0.3099144;0.4754999;0.9053477;0.2297578;0.395873;0.9105501;0.7038336;0.3238799;0.9756756;1.43368;0.2845595;0.7467685;1.779024;0.2290022;0.3946696;1.673261;0.2995692;0.05466687;0.8265228;0.4600736;0;0;0;1.265053;1.73278;0.2290009;1.540686;1.571005;0.2995675;1.700772;0.6276941;0.4127574;1.694274;-0.2650328;0.09529197;0.587164;-0.3526235;0.4745685;0.3914548;-1.714492;-0.02329612;0.3681063;-2.977455;0.4422218;0.587164;-0.3526235;0.4745685;0.3914548;-1.714492;-0.02329612;0.3681063;-2.977455;0.4422218
646332.9789;NotLabelled;16384;0.8191148;-0.5567867;0.04155125;-0.1315789;-12;-1;-9;-1026;3216;1791;65536;0.7422091;-0.5969529;-0.3033241;0.02770083;-5;11;-1;-871;3196;-1463;8192;0.08587258;-0.1814404;-0.7488747;-0.6315789;-12;3;6;506;4227;49;32768;-0.2797784;0.01108033;0.6831036;0.6745152;-3;-9;42;1240;3889;-86;256;-0.5124654;0.4307479;-0.5138504;-0.5364637;-5;-1;10;889;4010;13;128;0.5180055;-0.4515235;0.4265928;0.5880607;8;2;-8;-1173;3901;486;4;0.7452888;-0.6454294;-0.1066482;0.1288089;8;-1;-1;673;3740;900;16;0.5387812;-0.6158671;-0.3296399;-0.4709141;122;-10;-23;261;4042;1082;2;0.03601108;0.03462604;-0.6897507;-0.7223215;0;-8;8;-663;4052;-107;8;0.5304709;-0.5530012;-0.3947368;-0.5069252;-7;-1;0;331;4111;527;0.9014795;-0.3268764;0.4863871;0.9073963;0.2123032;0.4034901;0.9125938;0.6859341;0.3286245;0.9872643;1.414865;0.2892774;0.7628957;1.763172;0.2337084;0.4094434;1.662028;0.3042803;0.04788253;0.8242784;0.4648335;0;0;0;1.280531;1.71015;0.2337071;1.554023;1.544785;0.3042787;1.716823;0.6024938;0.422006;1.698936;-0.280632;0.0791409;0.589218;-0.36959;0.4857354;0.4246652;-1.734509;-0.01504087;0.3662069;-3.03407;0.331444;0.589218;-0.36959;0.4857354;0.4246652;-1.734509;-0.01504087;0.3662069;-3.03407;0.331444
646353.136;NotLabelled;16384;0.8207678;-0.5540166;0.04155125;-0.132964;-11;0;-10;-880;3202;1807;65536;0.741692;-0.5969529;-0.3047091;0.02631579;-6;9;4;-979;3052;-1433;8192;0.08448754;-0.1814404;-0.7490323;-0.6315789;-13;3;4;338;4225;13;32768;-0.2839335;0.008310249;0.6814264;0.6745152;0;-9;36;1186;3901;-82;256;-0.5138504;0.4279778;-0.5138504;-0.5373551;-6;0;6;1013;3968;3;128;0.5193906;-0.4501385;0.4252077;0.5889034;7;2;-5;-1179;3869;504;4;0.7456799;-0.6454294;-0.1038781;0.1288089;2;-21;-5;627;3612;926;16;0.5498615;-0.6091444;-0.3393352;-0.4598338;123;-6;-31;269;4106;1040;2;0.03601108;0.033241;-0.6897507;-0.7223865;0;-7;8;-503;4076;-175;8;0.5304709;-0.5539873;-0.3933518;-0.5069252;-8;2;0;223;4069;517;0.9036119;-0.3322542;0.4891011;0.909526;0.2066836;0.4046455;0.9147211;0.6800961;0.3284107;0.9932411;1.408621;0.2890529;0.7707155;1.758109;0.2334791;0.4167338;1.658834;0.304053;0.04953662;0.8237352;0.4656229;0;0;0;1.288064;1.702353;0.233478;1.560678;1.535545;0.3040514;1.72692;0.5938134;0.4214402;1.700518;-0.2852504;0.06882524;0.5913502;-0.3749695;0.4885828;0.4312862;-1.742429;-0.006689191;0.3674714;-3.053787;0.2909572;0.5913502;-0.3749695;0.4885828;0.4312862;-1.742429;-0.006689191;0.3674714;-3.053787;0.2909572
646373.9525;NotLabelled;16384;0.8214044;-0.5526316;0.04293629;-0.134349;-8;4;-9;-780;3172;1781;65536;0.7406684;-0.5983379;-0.3047091;0.0235457;-6;10;11;-1015;2984;-1475;8192;0.08587258;-0.1800554;-0.7503743;-0.6301939;-14;0;0;290;4369;-105;32768;-0.2908587;0.005540166;0.6799017;0.6731302;7;-4;20;1136;4015;-102;256;-0.5152354;0.4252077;-0.5124654;-0.5395462;-5;3;1;827;3958;123;128;0.5207756;-0.4487534;0.4252077;0.5887372;4;1;0;-1135;3865;520;4;0.7457635;-0.6454294;-0.09972299;0.1315789;-1;-42;-9;929;3544;852;16;0.5581717;-0.6014813;-0.3504155;-0.4515235;120;5;-32;155;4062;1116;2;0.03601108;0.03185596;-0.6897507;-0.7224489;-1;-4;9;-487;4080;-291;8;0.5290859;-0.5553102;-0.3933518;-0.5069252;-9;3;0;333;4065;561;0.9019676;-0.3371999;0.4925737;0.9078814;0.2017031;0.4078971;0.9130762;0.6750841;0.3314682;0.995429;1.403068;0.2899882;0.7747339;1.753564;0.2334772;0.4202559;1.656364;0.3044466;0.04701098;0.8238769;0.4656336;0;0;0;1.29178;1.695077;0.2334758;1.563534;1.527037;0.3044447;1.729806;0.5855994;0.4241292;1.700547;-0.2899179;0.06301856;0.589706;-0.3799157;0.4920743;0.4283058;-1.749157;0.002190888;0.3646193;-3.071106;0.2486115;0.589706;-0.3799157;0.4920743;0.4283058;-1.749157;0.002190888;0.3646193;-3.071106;0.2486115
646395.0258;NotLabelled;16384;0.822107;-0.5512465;0.04293629;-0.1357341;-6;8;-6;-730;3174;1755;65536;0.7413195;-0.5983379;-0.3033241;0.02077562;-5;12;18;-1099;3082;-1447;8192;0.08725762;-0.1800554;-0.7513758;-0.6288089;-12;0;0;376;4401;-125;32768;-0.2908587;0.004155125;0.6799116;0.6731302;11;0;13;1078;4013;-54;256;-0.5152354;0.4252077;-0.5138504;-0.5382273;-6;1;-2;775;3894;103;128;0.5207756;-0.4487534;0.4252077;0.5887372;4;-1;1;-1183;3861;574;4;0.7442482;-0.6468144;-0.08587258;0.1426593;0;-73;-14;1695;3404;558;16;0.5720221;-0.5851666;-0.3725762;-0.4376731;106;32;-19;201;4240;1016;2;0.03601108;0.03047091;-0.6897507;-0.7225086;-1;-2;10;-505;4078;-315;8;0.5277008;-0.5553619;-0.3933518;-0.5083103;-9;3;0;297;4093;543;0.8939527;-0.3400714;0.489607;0.8998637;0.1985831;0.4033617;0.905056;0.6717396;0.3255546;0.993102;1.399054;0.2840309;0.7751555;1.751264;0.2275007;0.4199284;1.656844;0.2984782;0.043358;0.8262615;0.4617452;0;0;0;1.291728;1.688732;0.2274994;1.562159;1.518575;0.2984763;1.731533;0.5772314;0.4144949;1.700275;-0.2931349;0.04130328;0.5816911;-0.3827882;0.489242;0.4183968;-1.752946;0.002557099;0.3549513;-3.082886;0.2014606;0.5816911;-0.3827882;0.489242;0.4183968;-1.752946;0.002557099;0.3549513;-3.082886;0.2014606
646415.4911;NotLabelled;16384;0.8226436;-0.5498615;0.04155125;-0.1385041;0;15;0;-830;3182;1623;65536;0.743192;-0.5983379;-0.299169;0.01246537;-3;7;31;-1115;3128;-1449;8192;0.08864266;-0.1800554;-0.7512137;-0.6288089;-9;2;0;444;4371;-33;32768;-0.2908587;0.004155125;0.68128;0.6717451;14;6;6;1064;3961;-32;256;-0.5166205;0.4252077;-0.5138504;-0.536898;-6;0;-4;837;3890;95;128;0.5207756;-0.4487534;0.4252077;0.5887372;4;-1;3;-1209;3829;522;4;0.7421743;-0.6481994;-0.07617728;0.1523546;2;-86;-16;1869;3408;418;16;0.5786806;-0.5734072;-0.3836565;-0.434903;100;46;-8;497;4054;1086;2;0.03462604;0.02770083;-0.6897507;-0.7226878;-1;-6;11;-815;4068;-269;8;0.5249307;-0.5576921;-0.3919668;-0.5096953;-13;-1;-1;257;4025;477;0.9014655;-0.3378551;0.4867572;0.9073765;0.2007995;0.4005117;0.9125688;0.6739559;0.3227047;0.9987418;1.401372;0.279093;0.7798769;1.752862;0.2216408;0.424916;1.657737;0.2930069;0.0454694;0.8286543;0.4572336;0;0;0;1.296608;1.691651;0.2216398;1.567497;1.522387;0.2930056;1.74009;0.5813379;0.4066435;1.709011;-0.2882786;0.03169096;0.5892038;-0.3805718;0.4863921;0.4226371;-1.753433;0.008513033;0.3598791;-3.093722;0.1181142;0.5892038;-0.3805718;0.4863921;0.4226371;-1.753433;0.008513033;0.3598791;-3.093722;0.1181142
646436.9739;NotLabelled;16384;0.822478;-0.5498615;0.0401662;-0.1398892;3;14;3;-968;3248;1587;65536;0.744359;-0.5983379;-0.2963989;0.008310249;-1;3;34;-1173;3284;-1409;8192;0.08864266;-0.1800554;-0.7512137;-0.6288089;-6;5;0;440;4199;49;32768;-0.2894737;0.002770083;0.6818767;0.6717451;17;11;0;1020;3887;-56;256;-0.5152354;0.4238227;-0.5138504;-0.5393186;-4;0;-6;865;3870;61;128;0.5207756;-0.4487534;0.4265928;0.5877343;3;-1;6;-1305;3841;420;4;0.7390453;-0.6509695;-0.06509695;0.1606648;10;-90;-19;1877;3336;108;16;0.5827224;-0.5637119;-0.3933518;-0.433518;89;46;-1;717;3728;1108;2;0.03601108;0.02631579;-0.6911357;-0.7213475;-2;-8;10;-767;4092;-249;8;0.5235457;-0.5599612;-0.3905817;-0.5096953;-16;0;-1;241;4029;461;0.9114959;-0.3322542;0.4744843;0.9174069;0.2064004;0.3882388;0.9225993;0.6795568;0.3104318;1.008843;1.406835;0.2647073;0.7900001;1.758185;0.2063229;0.4350523;1.663307;0.2780817;0.05300625;0.8356514;0.4434793;0;0;0;1.306724;1.696913;0.2063216;1.577617;1.527822;0.27808;1.75028;0.5864863;0.389214;1.721708;-0.2830873;0.01396406;0.5992342;-0.3749709;0.4741192;0.4316582;-1.748801;-0.0006128252;0.3596069;-3.091454;0.06583861;0.5992342;-0.3749709;0.4741192;0.4316582;-1.748801;-0.0006128252;0.3596069;-3.091454;0.06583861
646456.974;NotLabelled;16384;0.8223077;-0.5498615;0.03878116;-0.1412742;6;12;4;-1088;3244;1651;65536;0.7476749;-0.5969529;-0.2908587;0.005540166;0;-2;37;-1223;3322;-1371;8192;0.08864266;-0.1800554;-0.7512137;-0.6288089;-6;7;1;582;4261;55;32768;-0.2880886;0.001385042;0.6838278;0.6703601;20;14;-6;1126;3943;-66;256;-0.5152354;0.4238227;-0.5152354;-0.5379955;0;0;-8;969;3816;55;128;0.5207756;-0.4487534;0.4265928;0.5877343;0;0;8;-1381;3759;572;4;0.7356318;-0.6537396;-0.05817174;0.16759;14;-49;-24;1935;3376;134;16;0.5863407;-0.5540166;-0.4016621;-0.433518;69;46;0;521;3340;1192;2;0.03601108;0.02493075;-0.6911357;-0.7213966;-2;-7;9;-667;4046;-245;8;0.5221606;-0.5622143;-0.3891967;-0.5096953;-18;0;-1;395;4021;439;0.9117602;-0.3293159;0.4699465;0.9176689;0.2091217;0.3823595;0.922859;0.6820831;0.3033742;1.010898;1.409276;0.2597489;0.792936;1.761325;0.2022909;0.4377324;1.667112;0.2736595;0.05463815;0.8393736;0.4361919;0;0;0;1.309508;1.698788;0.2022898;1.579962;1.528831;0.2736582;1.752002;0.5874953;0.3857547;1.726969;-0.2820675;0.01022637;0.5994985;-0.3720336;0.4696964;0.4395197;-1.749276;0.002288282;0.3614067;-3.092844;0.03467628;0.5994985;-0.3720336;0.4696964;0.4395197;-1.749276;0.002288282;0.3614067;-3.092844;0.03467628
646478.0482;NotLabelled;16384;0.8212047;-0.5512465;0.03739612;-0.1426593;11;9;7;-1156;3144;1625;65536;0.7492934;-0.5969529;-0.2867036;0.002770083;1;-7;36;-1223;3422;-1319;8192;0.08725762;-0.1786704;-0.7517063;-0.6288089;-8;11;1;642;4087;121;32768;-0.2811634;0.001385042;0.6893974;0.66759;21;9;-13;1294;3837;-114;256;-0.5138504;0.4252077;-0.5152354;-0.5382273;0;5;-12;925;3734;207;128;0.5207756;-0.4515235;0.4252077;0.5866154;-7;10;12;-1423;3599;726;4;0.7331607;-0.6565097;-0.05401662;0.1689751;13;-13;-24;1939;3452;190;16;0.5873557;-0.5457063;-0.4099723;-0.434903;46;48;-2;565;3168;1216;2;0.03601108;0.0235457;-0.6911357;-0.7214432;-2;-2;7;-541;4122;-293;8;0.5207756;-0.5631978;-0.3878116;-0.5110803;-19;0;0;315;4051;549;0.924631;-0.3244884;0.4651242;0.9305397;0.2139492;0.3775373;0.9357299;0.6869106;0.2985518;1.021896;1.414199;0.2528334;0.8030148;1.765525;0.1944519;0.4480773;1.670609;0.2662095;0.06490939;0.8427849;0.428132;0;0;0;1.319745;1.704309;0.1944506;1.590656;1.535247;0.2662078;1.76273;0.5939112;0.3782511;1.742808;-0.2755766;0.002244949;0.6123694;-0.3672061;0.4648741;0.4602917;-1.745986;-0.0006338358;0.3739867;-3.08944;0.002402723;0.6123694;-0.3672061;0.4648741;0.4602917;-1.745986;-0.0006338358;0.3739867;-3.08944;0.002402723
646498.9537;NotLabelled;16384;0.8203353;-0.5526316;0.03601108;-0.1426593;14;7;8;-1218;3164;1617;65536;0.7513937;-0.5969529;-0.2811634;0.001385042;1;-13;36;-1267;3368;-1309;8192;0.08587258;-0.1772853;-0.7521936;-0.6288089;-10;10;0;676;4141;83;32768;-0.2783934;0.001385042;0.691857;0.666205;23;5;-15;1330;3877;-104;256;-0.5138504;0.4265928;-0.5152354;-0.5371302;3;8;-13;969;3628;33;128;0.5193906;-0.4542936;0.4238227;0.586707;-11;12;14;-1329;3571;592;4;0.732653;-0.6578947;-0.05263158;0.166205;12;7;-20;1949;3564;224;16;0.5862801;-0.5415512;-0.4155124;-0.4362881;22;37;-5;739;3064;1322;2;0.03601108;0.02216066;-0.6911357;-0.721487;-4;0;7;-503;4104;-235;8;0.5193906;-0.5632183;-0.3878116;-0.5124654;-21;5;-1;165;4009;701;0.9298674;-0.3190248;0.4526961;0.9357783;0.2196198;0.3663917;0.9409704;0.6927681;0.2885328;1.025189;1.420414;0.2449347;0.8053803;1.771316;0.1874887;0.4506761;1.675236;0.2588523;0.07013182;0.8461642;0.4205763;0;0;0;1.322274;1.711493;0.1874875;1.593616;1.542957;0.2588506;1.766097;0.6017342;0.371213;1.760089;-0.2711926;0.002769232;0.6176057;-0.3617415;0.4523361;0.4743564;-1.743556;-0.006932259;0.3840762;-3.086611;-0.02642116;0.6176057;-0.3617415;0.4523361;0.4743564;-1.743556;-0.006932259;0.3840762;-3.086611;-0.02642116
646519.9674;NotLabelled;16384;0.8194005;-0.5540166;0.03601108;-0.1426593;17;2;8;-1314;3174;1653;65536;0.7534448;-0.5969529;-0.2756233;0;1;-17;35;-1309;3442;-1291;8192;0.08587258;-0.1759003;-0.7536739;-0.6274238;-12;9;0;726;4051;71;32768;-0.2770083;0.001385042;0.6937427;0.66482;24;3;-16;1252;3971;-128;256;-0.5124654;0.4279778;-0.5152354;-0.5373515;8;11;-13;1013;3716;-11;128;0.5193906;-0.4570637;0.4210526;0.58655;-15;13;15;-1395;3597;652;4;0.7297342;-0.6620498;-0.05401662;0.1620499;14;8;-17;1405;3468;102;16;0.5825183;-0.5401662;-0.4196676;-0.4390582;-19;7;-5;811;3158;1420;2;0.03462604;0.02216066;-0.6911357;-0.7215548;-5;6;9;-477;4070;-157;8;0.5166205;-0.5654517;-0.3864266;-0.5138504;-22;8;-1;263;4003;647;0.9370547;-0.3138988;0.4401636;0.9429706;0.2251987;0.3567345;0.9481673;0.6987557;0.2814015;1.030514;1.426617;0.2378163;0.8098043;1.776953;0.1803761;0.4553483;1.67996;0.2517374;0.07798029;0.8493066;0.4127877;0;0;0;1.32685;1.71846;0.1803747;1.598625;1.550621;0.2517353;1.771774;0.609509;0.3640062;1.771022;-0.2647057;-0.001418829;0.6247931;-0.3566132;0.4395574;0.4844615;-1.741533;-0.01117861;0.3954133;-3.084485;-0.04077512;0.6247931;-0.3566132;0.4395574;0.4844615;-1.741533;-0.01117861;0.3954133;-3.084485;-0.04077512
646540.0807;NotLabelled;16384;0.8168764;-0.5581717;0.03462604;-0.1412742;21;-2;8;-1168;3240;1735;65536;0.7563126;-0.5983379;-0.2645429;0;-2;-20;30;-1439;3434;-1213;8192;0.08448754;-0.1759003;-0.754981;-0.6260388;-14;10;1;814;4015;115;32768;-0.2742382;0.001385042;0.6974823;0.6620498;25;4;-15;1236;3901;-126;256;-0.5124654;0.4307479;-0.5138504;-0.5364637;12;13;-15;939;3708;3;128;0.5180055;-0.4612188;0.4196676;0.5855139;-17;15;17;-1301;3631;770;4;0.7294884;-0.6634349;-0.05263158;0.1578947;12;9;-23;961;3500;366;16;0.5798877;-0.5429363;-0.4182825;-0.4404432;-34;-5;-4;525;3162;1544;2;0.03047091;0.02216066;-0.6925207;-0.7204134;-7;11;11;-603;4076;-263;8;0.5096953;-0.5701377;-0.3850415;-0.5166205;-26;10;-2;233;3977;601;0.9434335;-0.3091962;0.4243346;0.9493537;0.230298;0.343511;0.9545543;0.7042131;0.2704667;1.034946;1.432416;0.2289938;0.8133068;1.782318;0.172486;0.4590921;1.684163;0.2434542;0.08452033;0.8523645;0.4051264;0;0;0;1.330509;1.725224;0.1724848;1.602714;1.557915;0.2434522;1.779458;0.6172333;0.3536971;1.783701;-0.2575369;-0.01037145;0.6311719;-0.3519073;0.4235056;0.5070419;-1.740064;-0.0219962;0.4232752;-3.08337;-0.05096135;0.6311719;-0.3519073;0.4235056;0.5070419;-1.740064;-0.0219962;0.4232752;-3.08337;-0.05096135
646560.9525;NotLabelled;16384;0.8152155;-0.5609418;0.03462604;-0.1398892;22;-4;9;-1068;3296;1705;65536;0.7566575;-0.599723;-0.2603878;0;-4;-21;28;-1525;3478;-1239;8192;0.08310249;-0.1745152;-0.7554561;-0.6260388;-15;15;3;958;3971;49;32768;-0.2714681;0.001385042;0.6998751;0.6606648;27;6;-14;1204;3957;-68;256;-0.5110803;0.433518;-0.5124654;-0.5368783;15;15;-17;927;3828;63;128;0.5180055;-0.4653739;0.4168975;0.5842036;-21;19;19;-1351;3671;730;4;0.7280446;-0.666205;-0.04986149;0.1537396;10;3;-33;699;3818;674;16;0.5779077;-0.5470914;-0.4141274;-0.4418283;-35;-31;-3;1135;4408;-108;2;0.02908587;0.02216066;-0.6939058;-0.7191368;-8;11;12;-647;4058;-349;8;0.5069252;-0.5710236;-0.3836565;-0.5193906;-29;12;-2;355;4065;519;0.9482523;-0.2994006;0.4025817;0.9541771;0.24051;0.3245867;0.9593819;0.7148013;0.2540273;1.037902;1.443326;0.2146697;0.8153763;1.792814;0.1590959;0.4613947;1.693539;0.2296698;0.09614076;0.8575931;0.3912632;0;0;0;1.332724;1.737057;0.1590947;1.605339;1.570251;0.2296683;1.786201;0.6304622;0.340854;1.79831;-0.2453513;-0.02051973;0.635991;-0.3421068;0.4015108;0.5135329;-1.73404;-0.0325197;0.4334651;-3.077768;-0.05018431;0.635991;-0.3421068;0.4015108;0.5135329;-1.73404;-0.0325197;0.4334651;-3.077768;-0.05018431
646580.9666;NotLabelled;16384;0.8144975;-0.5623268;0.03462604;-0.1385041;24;-4;10;-1024;3418;1673;65536;0.7574443;-0.601108;-0.2548476;0;-7;-20;26;-1511;3534;-1129;8192;0.07894737;-0.1717452;-0.7588195;-0.6232687;-17;25;6;898;4173;61;32768;-0.2645429;0;0.7064078;0.6565097;32;18;-14;1168;4307;-96;256;-0.5096953;0.4362881;-0.5110803;-0.5372711;14;21;-18;931;3958;53;128;0.5166205;-0.4695291;0.4141274;0.5840756;-24;22;21;-1233;3827;704;4;0.728283;-0.66759;-0.04432133;0.1481994;11;-3;-46;343;4284;742;16;0.5780488;-0.5512465;-0.4113573;-0.4390582;-1;-29;-12;187;5002;-1312;2;0.02770083;0.02216066;-0.6939058;-0.7191914;-9;10;11;-721;4100;-323;8;0.5027701;-0.573096;-0.3822715;-0.5221606;-33;11;-2;365;4143;477;0.9467543;-0.2946985;0.3820603;0.9526832;0.245574;0.3066152;0.9578915;0.7201934;0.2382957;1.034465;1.449142;0.2031728;0.811045;1.798334;0.1493558;0.4572619;1.697695;0.2189883;0.09832865;0.8599706;0.3854597;0;0;0;1.328543;1.743986;0.1495844;1.601538;1.577523;0.2194948;1.783169;0.6383843;0.3348405;1.800767;-0.2385869;-0.02348697;0.6344929;-0.337399;0.3807717;0.519923;-1.734318;-0.03916854;0.4410857;-3.078233;-0.04083142;0.6344929;-0.337399;0.3807717;0.519923;-1.734318;-0.03916854;0.4410857;-3.078233;-0.04083142
646602.0744;NotLabelled;16384;0.8130454;-0.5650969;0.03462604;-0.1357341;25;-5;11;-922;3632;1693;65536;0.7566271;-0.6038781;-0.2506925;0;-10;-18;27;-1553;3786;-1171;8192;0.07479224;-0.1703601;-0.7606867;-0.6218836;-14;33;7;936;4289;81;32768;-0.2590028;0;0.7110149;0.6537396;34;29;-15;1160;4393;-26;256;-0.5083103;0.4445983;-0.5083103;-0.534391;14;24;-20;485;4630;-81;128;0.5152354;-0.4792244;0.4099723;0.580344;-18;21;20;-953;4683;426;4;0.7269595;-0.6703601;-0.03739612;0.1440443;12;-24;-49;825;4868;794;16;0.5788231;-0.5526316;-0.4113573;-0.4362881;0;-2;-11;-307;4736;-360;2;0.02631579;0.02216066;-0.6952909;-0.7179046;-10;6;7;-759;4164;-367;8;0.5;-0.5751743;-0.3808864;-0.5235457;-36;6;-4;395;4229;549;0.9502536;-0.2894013;0.3657655;0.9561885;0.2514315;0.2944481;0.9614024;0.7265587;0.2297547;1.035988;1.455902;0.1987852;0.8116214;1.804781;0.1469188;0.4581053;1.702783;0.2159244;0.1022899;0.8628521;0.3779151;0;0;0;1.329266;1.751849;0.1469175;1.602706;1.585737;0.2159227;1.792208;0.6478443;0.3287147;1.825815;-0.2310307;-0.02375638;0.6379923;-0.3320906;0.3641248;0.5240358;-1.735637;-0.03327936;0.450795;-3.079864;-0.02917191;0.6379923;-0.3320906;0.3641248;0.5240358;-1.735637;-0.03327936;0.450795;-3.079864;-0.02917191
646622.1052;NotLabelled;16384;0.8104304;-0.5692521;0.033241;-0.134349;26;-3;12;-780;3922;1625;65536;0.7573341;-0.6052631;-0.2451524;-0.001385042;-11;-15;29;-1645;4102;-1211;8192;0.07063711;-0.166205;-0.762002;-0.6218836;-10;41;8;962;4463;229;32768;-0.2534626;-0.004155125;0.7155265;0.6509695;36;40;-18;1042;4601;74;256;-0.5069252;0.4487534;-0.5083103;-0.5322292;14;22;-22;183;4980;-49;128;0.5138504;-0.4833795;0.4085872;0.5791014;-11;17;19;-703;5061;506;4;0.7249314;-0.6731302;-0.02493075;0.1440443;10;-17;-21;1793;4460;-84;16;0.5683719;-0.5526316;-0.4155124;-0.4459834;-24;60;-1;957;5594;-168;2;0.02631579;0.02216066;-0.6966759;-0.7165606;-10;-3;3;-753;4278;-499;8;0.4958449;-0.5793217;-0.3781163;-0.5249307;-41;2;-5;313;4267;661;0.9552711;-0.2795494;0.3377029;0.9612135;0.2619524;0.2716563;0.9664339;0.7376871;0.2115934;1.033381;1.468009;0.186895;0.8054048;1.814945;0.1378033;0.4529255;1.708659;0.2056312;0.1050518;0.8658924;0.370123;0;0;0;1.323576;1.767448;0.1378021;1.598691;1.603633;0.2056295;1.793733;0.6670914;0.3201855;1.834969;-0.2137833;-0.02643716;0.6430099;-0.3222203;0.3356133;0.5315074;-1.732533;-0.03781217;0.4627165;-3.076999;-0.03578985;0.6430099;-0.3222203;0.3356133;0.5315074;-1.732533;-0.03781217;0.4627165;-3.076999;-0.03578985
646643.0723;NotLabelled;16384;0.8060883;-0.5761772;0.03047091;-0.1315789;28;7;16;-710;4488;1383;65536;0.7581809;-0.6080332;-0.2354571;-0.004155125;-9;-10;35;-1691;4360;-1263;8192;0.06509695;-0.1620499;-0.7645153;-0.6204986;-4;49;11;848;4585;433;32768;-0.2465374;-0.009695291;0.7191421;0.6495845;34;54;-20;1044;4515;128;256;-0.5055401;0.4529086;-0.5083103;-0.5300223;15;16;-23;-5;4736;-7;128;0.5138504;-0.4875346;0.4085872;0.5756077;-13;15;20;-661;4855;720;4;0.7219149;-0.6772853;-0.0235457;0.1398892;19;18;-24;353;4346;-406;16;0.5633664;-0.5512465;-0.4196676;-0.4501385;-16;29;-8;1807;4154;448;2;0.02908587;0.02077562;-0.6980609;-0.7151456;-13;-8;-8;-267;4440;-73;8;0.4875346;-0.5861443;-0.3725762;-0.5290859;-45;0;-1;75;4201;1025;0.9578848;-0.2687247;0.3205396;0.9638307;0.2731085;0.2572723;0.9690546;0.7491455;0.1996514;1.030217;1.480042;0.1770409;0.7995089;1.825298;0.1288739;0.4478669;1.71603;0.1963084;0.1095863;0.8693323;0.3606226;0;0;0;1.318041;1.78191;0.1288728;1.594429;1.620089;0.1963068;1.791109;0.6838894;0.3108587;1.842885;-0.1968229;-0.03476107;0.6456238;-0.3113842;0.3182133;0.5388203;-1.728848;-0.02855378;0.4776162;-3.073492;-0.005860627;0.6456238;-0.3113842;0.3182133;0.5388203;-1.728848;-0.02855378;0.4776162;-3.073492;-0.005860627
646663.9512;NotLabelled;16384;0.8034279;-0.5803324;0.02770083;-0.1301939;29;13;16;-756;4356;1247;65536;0.7587487;-0.6094183;-0.2299169;-0.006925208;-9;-11;33;-1741;4196;-1171;8192;0.05955679;-0.1578947;-0.7658353;-0.6204986;2;54;18;720;4529;629;32768;-0.2368421;-0.01523546;0.7222975;0.6495845;29;65;-22;1192;4215;196;256;-0.5041551;0.4570637;-0.5083103;-0.5277699;11;10;-24;-15;4516;259;128;0.5110803;-0.4916897;0.4072022;0.575521;-24;10;20;-809;4429;510;4;0.7219668;-0.6786703;-0.02216066;0.132964;10;29;-24;51;4100;514;16;0.5604783;-0.5540166;-0.4168975;-0.4529086;-22;-14;-10;1059;3992;478;2;0.03185596;0.02216066;-0.699446;-0.7136312;-16;1;-15;61;4592;159;8;0.4833795;-0.5888268;-0.3698061;-0.5318559;-46;6;1;-209;4187;1113;0.9555521;-0.251766;0.3041259;0.9614979;0.2900543;0.2407484;0.9667217;0.7660794;0.1830307;1.022072;1.4975;0.1624984;0.7886354;1.841045;0.1152519;0.4378595;1.728793;0.1822947;0.1150781;0.8754935;0.3436058;0;0;0;1.307496;1.801784;0.1152507;1.585149;1.641976;0.1822929;1.786866;0.7070794;0.29871;1.846865;-0.1736715;-0.04547763;0.6432911;-0.2944264;0.301809;0.5502487;-1.715597;-0.03356582;0.4940648;-3.060376;-0.006379485;0.6432911;-0.2944264;0.301809;0.5502487;-1.715597;-0.03356582;0.4940648;-3.060376;-0.006379485
646686.1299;NotLabelled;16384;0.8005013;-0.5844875;0.02493075;-0.1301939;30;16;15;-880;4160;1225;65536;0.7577519;-0.6121883;-0.2257618;-0.008310249;-10;-14;28;-1701;4030;-1007;8192;0.04432133;-0.1495845;-0.7662873;-0.6232687;12;47;27;472;4189;989;32768;-0.2188366;-0.02493075;0.7264487;0.6509695;13;56;-22;1518;3661;50;256;-0.5027701;0.4598338;-0.5096953;-0.5253436;-3;9;-21;291;4362;385;128;0.5096953;-0.4958449;0.4058172;0.5741611;-22;15;22;-967;4257;144;4;0.7219056;-0.6800554;-0.02216066;0.1260388;3;17;-26;95;3818;686;16;0.5567867;-0.5577265;-0.4168975;-0.4529086;-17;3;-10;-419;4162;278;2;0.033241;0.02493075;-0.702216;-0.7107504;-21;15;-18;275;4630;297;8;0.4778393;-0.5925615;-0.367036;-0.534626;-47;12;4;-187;4239;1243;0.9568264;-0.2418525;0.2767513;0.9627776;0.3004589;0.2177207;0.9680063;0.7769308;0.1638221;1.017528;1.508826;0.1453809;0.7813855;1.850627;0.09894347;0.4314738;1.73539;0.1654364;0.1190809;0.8793025;0.3323319;0;0;0;1.300543;1.815509;0.09917843;1.57942;1.657736;0.165957;1.78328;0.7244401;0.2911549;1.850256;-0.157887;-0.04766846;0.6445656;-0.284493;0.274065;0.5541515;-1.709708;-0.0444386;0.4989735;-3.054133;-0.001964927;0.6445656;-0.284493;0.274065;0.5541515;-1.709708;-0.0444386;0.4989735;-3.054133;-0.001964927
646707.0794;NotLabelled;16384;0.7972656;-0.5886427;0.0235457;-0.1315789;30;16;12;-1006;3998;1273;65536;0.7578583;-0.6135734;-0.2216066;-0.008310249;-12;-13;22;-1731;3928;-929;8192;0.03739612;-0.1468144;-0.7671918;-0.6232687;9;37;27;460;3955;989;32768;-0.2119114;-0.02908587;0.7271047;0.6523545;4;33;-23;1726;3521;-156;256;-0.5027701;0.4626039;-0.5124654;-0.5201915;-8;22;-18;309;4212;-77;128;0.5124654;-0.5027701;0.4058172;0.5656094;6;38;24;-931;4187;-52;4;0.7216253;-0.6814404;-0.01939058;0.1204986;7;10;-31;251;3758;-104;16;0.5526316;-0.5596923;-0.4182825;-0.4542936;-16;22;-8;-617;3918;642;2;0.03185596;0.02908587;-0.7049862;-0.707908;-27;29;-21;237;4478;431;8;0.4722992;-0.5949443;-0.3642659;-0.5387812;-47;11;7;-89;4215;1099;0.9545525;-0.2297437;0.2728011;0.9605069;0.3128605;0.2165278;0.9657385;0.7896004;0.1650516;1.009389;1.521868;0.1465752;0.7704962;1.861767;0.1002395;0.4215491;1.743732;0.1668941;0.1177676;0.8826661;0.3237725;0;0;0;1.289918;1.830807;0.1002383;1.57008;1.675273;0.1668924;1.769108;0.741724;0.2978462;1.846454;-0.1441174;-0.02939904;0.6422918;-0.2723699;0.2698808;0.5555317;-1.700839;-0.03476214;0.5109277;-3.045319;0.01730615;0.6422918;-0.2723699;0.2698808;0.5555317;-1.700839;-0.03476214;0.5109277;-3.045319;0.01730615
646727.0784;NotLabelled;16384;0.7952901;-0.5914127;0.02077562;-0.1315789;28;14;8;-1000;3882;1247;65536;0.7564141;-0.6163435;-0.2188366;-0.008310249;-17;-10;15;-1637;3838;-871;8192;0.03185596;-0.1468144;-0.7674418;-0.6232687;4;23;24;522;3851;937;32768;-0.2077562;-0.02908587;0.7270598;0.6537396;0;6;-20;1754;3587;-258;256;-0.5041551;0.4653739;-0.5110803;-0.517737;-2;28;-17;317;4194;-123;128;0.5152354;-0.5055401;0.4058172;0.5606015;6;40;25;-763;4099;136;4;0.7196047;-0.6855956;-0.01246537;0.1094183;16;17;-33;135;3936;-326;16;0.5457063;-0.5631842;-0.4196676;-0.4570637;-10;-2;-9;-3;3916;558;2;0.03047091;0.03462604;-0.7090967;-0.7036011;-32;36;-26;-5;4376;469;8;0.466759;-0.5972244;-0.3614958;-0.5429363;-51;18;11;-281;3965;1155;0.9573536;-0.2182987;0.2753211;0.963304;0.3239503;0.2157212;0.9685321;0.8003654;0.1613222;1.004425;1.532938;0.138696;0.7619355;1.870023;0.09052175;0.4142756;1.74868;0.1579595;0.1201398;0.8847132;0.3172491;0;0;0;1.281656;1.844561;0.0905205;1.563467;1.69238;0.1579577;1.763745;0.7599392;0.2947724;1.841354;-0.1272781;-0.02866149;0.6450928;-0.2609415;0.2726832;0.5608374;-1.693114;-0.01479393;0.5250405;-3.037528;0.04517639;0.6450928;-0.2609415;0.2726832;0.5608374;-1.693114;-0.01479393;0.5250405;-3.037528;0.04517639
646749.1102;NotLabelled;16384;0.7897251;-0.5983379;0.0166205;-0.134349;23;20;4;-740;3978;1177;65536;0.752251;-0.6218836;-0.2174515;-0.009695291;-24;7;3;-1939;3866;-885;8192;0.02770083;-0.1468144;-0.767603;-0.6232687;1;10;22;678;3773;863;32768;-0.2077562;-0.02770083;0.7271138;0.6537396;-4;-13;-17;1672;3627;-304;256;-0.5041551;0.4695291;-0.5110803;-0.5139718;-3;33;-16;125;4092;211;128;0.5180055;-0.5110803;0.4044321;0.5539872;1;45;26;-635;4163;264;4;0.7166476;-0.6897507;-0.01246537;0.1024931;15;27;-29;415;4110;-420;16;0.5443213;-0.564523;-0.4196676;-0.4570637;-8;7;-8;-233;4124;298;2;0.03047091;0.04155125;-0.7128256;-0.699446;-36;39;-33;-191;4260;545;8;0.4612188;-0.5981359;-0.3587258;-0.5484765;-54;25;16;-317;4145;887;0.9511293;-0.2113197;0.2762483;0.9570758;0.3305655;0.2134243;0.9623002;0.8066487;0.1561928;0.996298;1.539313;0.1336032;0.7529374;1.875771;0.08544517;0.4055923;1.753527;0.1528758;0.1187951;0.88696;0.3114269;0;0;0;1.272722;1.851655;0.08544397;1.554925;1.7002;0.1528742;1.756562;0.7690339;0.2962216;1.831137;-0.120265;-0.02217019;0.6388682;-0.2539775;0.2738844;0.5661985;-1.693716;0.0234248;0.5437052;-3.037649;0.09869143;0.6388682;-0.2539775;0.2738844;0.5661985;-1.693716;0.0234248;0.5437052;-3.037649;0.09869143
646770.0365;NotLabelled;16384;0.7871692;-0.601108;0.01523546;-0.1371191;20;28;4;-692;3964;1097;65536;0.7491245;-0.6246537;-0.2202216;-0.01108033;-27;20;0;-1869;3844;-793;8192;0.0235457;-0.1481994;-0.7685983;-0.6218836;-2;1;22;822;3697;819;32768;-0.2077562;-0.0235457;0.7260128;0.6551247;-6;-23;-13;1410;3649;-424;256;-0.5069252;0.4722992;-0.5128228;-0.5069252;-9;37;-17;-19;4138;431;128;0.5207756;-0.5152354;0.4030471;0.5485237;2;47;27;-391;4257;322;4;0.7160839;-0.6911357;-0.01246537;0.09695291;13;28;-25;563;4094;-86;16;0.5415512;-0.5639977;-0.4224377;-0.4584487;-8;12;-7;199;4064;202;2;0.03047091;0.05955679;-0.7222723;-0.6883656;-44;47;-52;-451;4118;699;8;0.4487534;-0.6001675;-0.3518005;-0.5609418;-59;22;25;-439;4335;1329;0.9333346;-0.1978168;0.2716398;0.9392785;0.3438303;0.2067972;0.9445006;0.8196971;0.1477922;0.9725988;1.552612;0.1252102;0.7265373;1.8871;0.07705563;0.3801878;1.762063;0.144485;0.1096583;0.8905432;0.3044744;0;0;0;1.246499;1.867169;0.07705438;1.529912;1.71799;0.1444832;1.7328;0.787812;0.2924055;1.804802;-0.1020992;-0.0248661;0.6210736;-0.2404833;0.2694476;0.5625048;-1.683256;0.03315127;0.5444961;-3.02705;0.1120059;0.6210736;-0.2404833;0.2694476;0.5625048;-1.683256;0.03315127;0.5444961;-3.02705;0.1120059
646790.9646;NotLabelled;16384;0.785691;-0.602493;0.01108033;-0.1398892;17;36;3;-582;3986;957;65536;0.7459615;-0.6274238;-0.2229917;-0.01246537;-30;33;-3;-1795;3854;-733;8192;0.02077562;-0.1495845;-0.7695286;-0.6204986;-3;0;21;956;3695;769;32768;-0.2091413;-0.02077562;0.7256997;0.6551247;-7;-22;-9;1148;3693;-470;256;-0.5096953;0.4750692;-0.5129649;-0.501385;-15;43;-17;-137;4250;485;128;0.5235457;-0.5207756;0.4030471;0.5405976;6;49;29;-233;4329;276;4;0.7154742;-0.6925207;-0.01246537;0.09141274;8;29;-20;657;4172;102;16;0.5387812;-0.5644839;-0.4238227;-0.4598338;-8;13;-7;5;4124;0;2;0.03047091;0.07063711;-0.72652;-0.6828254;-45;56;-60;-561;4134;797;8;0.4418283;-0.6007026;-0.3462604;-0.5692521;-65;30;29;-661;4389;1305;0.9282478;-0.1899478;0.278357;0.934189;0.3514562;0.2115117;0.9394085;0.8271017;0.1507472;0.9610643;1.559996;0.1214402;0.7120622;1.891857;0.0703091;0.3668422;1.764408;0.139003;0.1040834;0.8914199;0.3038661;0;0;0;1.232179;1.876491;0.07030785;1.51691;1.73043;0.1390013;1.724835;0.8022194;0.2921934;1.789737;-0.08986855;-0.02046275;0.6159867;-0.2326217;0.2763353;0.5600178;-1.677361;0.05171335;0.5475248;-3.021164;0.1314932;0.6159867;-0.2326217;0.2763353;0.5600178;-1.677361;0.05171335;0.5475248;-3.021164;0.1314932
646813.0638;NotLabelled;16384;0.7831072;-0.6052631;0.006925208;-0.1426593;13;44;4;-552;4004;841;65536;0.7430319;-0.6288089;-0.2285319;-0.0166205;-31;45;-7;-1773;3836;-709;8192;0.01523546;-0.1537396;-0.7688391;-0.6204986;2;5;19;1212;3665;741;32768;-0.2091413;-0.0166205;0.7245541;0.6565097;-6;3;-2;1072;3813;-578;256;0.5184479;-0.4819945;0.5110803;0.4875346;-19;45;-19;-463;3830;417;128;0.5290859;-0.5348682;0.4016621;0.5221606;0;50;29;-9;4039;220;4;0.7147647;-0.6939058;-0.01523546;0.08587258;6;32;-14;723;4050;-44;16;0.536011;-0.5649493;-0.4252077;-0.4612188;-10;28;-5;-269;4118;-46;2;0.03185596;0.08448754;-0.731441;-0.6759003;-46;63;-68;-635;4038;861;8;0.434903;-0.6009915;-0.3407202;-0.5775623;-70;25;29;-401;4381;1255;0.9233257;-0.1835363;0.289215;0.9292623;0.3574495;0.2190663;0.9344778;0.832715;0.1553997;0.9518653;1.565537;0.1217487;0.7009296;1.895635;0.06869656;0.3564664;1.766589;0.1382045;0.0984669;0.8922353;0.3033452;0;0;0;1.221127;1.883295;0.06869531;1.506712;1.739302;0.1382027;1.719676;0.8127632;0.2945591;1.780026;-0.07997179;-0.01715994;0.6110644;-0.226222;0.2874746;0.557942;-1.67283;0.07449168;0.5508384;-3.016422;0.1583831;0.6110644;-0.226222;0.2874746;0.557942;-1.67283;0.07449168;0.5508384;-3.016422;0.1583831
646834.0675;NotLabelled;16384;0.7810333;-0.6066482;0.001385042;-0.1481994;9;52;5;-608;4018;725;65536;0.7388012;-0.6315789;-0.234072;-0.02216066;-33;53;-10;-1723;3782;-721;8192;0.01246537;-0.1565097;-0.7694464;-0.6191136;4;9;18;1262;3593;769;32768;-0.2077562;-0.0166205;0.7249525;0.6565097;-7;16;3;1100;3739;-714;256;0.5209432;-0.4861496;0.5124654;0.4792244;-23;48;-19;-603;3750;369;128;0.5318559;-0.5398518;0.400277;0.5152354;-1;50;28;19;3935;296;4;0.713998;-0.6952909;-0.01800554;0.08033241;6;39;-10;511;4068;-234;16;0.533241;-0.5632081;-0.4279778;-0.4639889;-11;27;-4;-59;4040;198;2;0.033241;0.09833795;-0.7360007;-0.6689751;-46;67;-76;-675;4016;915;8;0.4279778;-0.6031502;-0.333795;-0.5844875;-70;10;29;-125;4477;1477;0.9235152;-0.1729038;0.3050147;0.9294438;0.3673539;0.2294629;0.9346521;0.84196;0.1610497;0.9440625;1.574378;0.1170304;0.689542;1.900945;0.05939871;0.3465153;1.769157;0.1308407;0.09986847;0.892632;0.3017151;0;0;0;1.209843;1.894262;0.0593971;1.49699;1.754381;0.1308384;1.715154;0.8301654;0.2936447;1.762299;-0.06469584;-0.0142324;0.6112537;-0.2156045;0.3037352;0.557354;-1.663177;0.09761435;0.5574663;-3.006531;0.1855211;0.6112537;-0.2156045;0.3037352;0.557354;-1.663177;0.09761435;0.5574663;-3.006531;0.1855211
646855.0414;NotLabelled;16384;0.776339;-0.6094183;-0.009695291;-0.1606648;-2;65;7;-736;3864;357;65536;0.7309871;-0.634349;-0.2493075;-0.033241;-32;67;-17;-1509;3764;-587;8192;0.008310249;-0.1565097;-0.7695025;-0.6191136;6;12;19;1362;3465;915;32768;-0.2063712;-0.01939058;0.7240231;0.6578947;-7;25;9;1104;3627;-682;256;0.523368;-0.4903047;0.5124654;0.4722992;-24;45;-19;-779;3710;421;128;0.533241;-0.5460402;0.398892;0.5083103;8;49;27;141;3861;202;4;0.7123787;-0.6980609;-0.02493075;0.06786703;8;46;-9;243;4030;-212;16;0.5249307;-0.5632507;-0.432133;-0.4695291;-9;25;-2;-229;4036;494;2;0.03462604;0.1149584;-0.7397808;-0.6620498;-48;66;-84;-885;4004;773;8;0.4238227;-0.6052283;-0.3254848;-0.5900277;-64;-11;29;73;4521;1565;0.9216489;-0.1624668;0.3125271;0.9275742;0.3774996;0.2349189;0.9327796;0.8518414;0.1646993;0.9335324;1.583942;0.1147967;0.6751695;1.907005;0.05456942;0.3337248;1.77175;0.1271032;0.09236881;0.8941002;0.2997501;0;0;0;1.195513;1.906473;0.05456805;1.484294;1.770572;0.1271013;1.708167;0.8484406;0.293925;1.752355;-0.04695988;-0.0128212;0.6093873;-0.2051718;0.3114232;0.5587443;-1.653678;0.1111125;0.5611131;-2.99695;0.2002262;0.6093873;-0.2051718;0.3114232;0.5587443;-1.653678;0.1111125;0.5611131;-2.99695;0.2002262
646876.1225;NotLabelled;16384;0.774725;-0.6094183;-0.01800554;-0.16759;-7;69;9;-840;3870;235;65536;0.7260485;-0.6357341;-0.2590028;-0.0401662;-28;73;-19;-1521;3848;-529;8192;0.004155125;-0.1578947;-0.7692531;-0.6191136;11;18;20;1436;3319;1119;32768;-0.2063712;-0.0235457;0.7226387;0.6592798;-10;27;16;1108;3601;-692;256;0.5268295;-0.4930748;0.5138504;0.4639889;-22;44;-17;-911;3756;355;128;0.536011;-0.5509785;0.398892;0.5;17;44;25;129;3895;318;4;0.7127826;-0.6980609;-0.02770083;0.06232687;8;44;-9;73;4088;-146;16;0.5221606;-0.5613743;-0.434903;-0.4722992;-7;28;-2;-21;4112;540;2;0.04293629;0.1454294;-0.7474208;-0.6468144;-55;58;-94;-1069;4184;761;8;0.4196676;-0.6086655;-0.3088643;-0.5983379;-46;-11;27;769;3323;1963;0.9048812;-0.1542709;0.3197384;0.9108058;0.3856277;0.2416616;0.9160105;0.8599086;0.1710303;0.9100421;1.591722;0.1174096;0.6487258;1.912088;0.05554384;0.3085347;1.774075;0.1287657;0.07584167;0.8944592;0.303295;0;0;0;1.169052;1.916335;0.05554211;1.459066;1.783463;0.128763;1.685445;0.862524;0.2987598;1.723188;-0.03258085;-0.009704947;0.5926197;-0.1969771;0.3186746;0.5517996;-1.647244;0.1291576;0.5654387;-2.989612;0.2301065;0.5926197;-0.1969771;0.3186746;0.5517996;-1.647244;0.1291576;0.5654387;-2.989612;0.2301065
646896.9615;NotLabelled;16384;0.7729562;-0.6094183;-0.02631579;-0.1745152;-12;72;12;-968;3994;-31;65536;0.7226121;-0.6357341;-0.267313;-0.04709141;-23;77;-21;-1439;4048;-567;8192;0;-0.1578947;-0.7692643;-0.6191136;16;24;20;1382;3357;1315;32768;-0.2049861;-0.02770083;0.7203495;0.6620498;-12;26;20;1114;3659;-778;256;0.5289735;-0.4972299;0.5138504;0.4570637;-14;43;-16;-1025;3734;277;128;0.5387812;-0.5535074;0.400277;0.4930748;15;38;23;281;3905;618;4;0.7118831;-0.699446;-0.03047091;0.05540166;7;37;-12;9;4224;-156;16;0.5193906;-0.5605313;-0.4362881;-0.4750692;-6;22;-2;179;4176;598;2;0.04709141;0.1606648;-0.7500074;-0.6398892;-47;55;-91;-911;3784;551;8;0.4182825;-0.6083077;-0.300554;-0.6038781;-42;-6;26;1351;2617;2421;0.9025258;-0.1460788;0.3385052;0.9084451;0.393333;0.2571335;0.9136449;0.8671737;0.1836078;0.9005945;1.598314;0.1225579;0.6361969;1.915487;0.0574199;0.2973461;1.774933;0.1320108;0.06714205;0.8944378;0.3054016;0;0;0;1.156458;1.924776;0.05741894;1.447732;1.795471;0.1320097;1.676667;0.8760834;0.3069077;1.706831;-0.0175674;-0.006566763;0.5902641;-0.1887908;0.337723;0.5476888;-1.639782;0.1542284;0.5634435;-2.982056;0.2561054;0.5902641;-0.1887908;0.337723;0.5476888;-1.639782;0.1542284;0.5634435;-2.982056;0.2561054
646918.1337;NotLabelled;16384;0.7710316;-0.6094183;-0.03462604;-0.1814404;-17;70;15;-1120;4120;-215;65536;0.718567;-0.6357341;-0.2770083;-0.05263158;-15;73;-22;-1325;4224;-489;8192;-0.01108033;-0.1551246;-0.768632;-0.6204986;18;27;17;1318;3577;1415;32768;-0.2049861;-0.03739612;0.7173539;0.66482;-18;19;24;1154;3775;-934;256;0.5323229;-0.501385;0.5124654;0.4501385;-8;40;-14;-1089;3722;331;128;0.5401662;-0.5580463;0.398892;0.4875346;6;36;20;407;4007;724;4;0.7108691;-0.700831;-0.03185596;0.04986149;4;27;-15;-1;4200;-230;16;0.5166205;-0.5608358;-0.4376731;-0.4764543;-5;14;-1;205;4148;550;2;0.04986149;0.1759003;-0.7522829;-0.632964;-32;54;-81;-781;3492;643;8;0.4168975;-0.6098824;-0.2936288;-0.6066482;-20;-1;18;1271;2739;1991;0.9041767;-0.1376264;0.3530835;0.9100884;0.4010892;0.267222;0.9152813;0.8743014;0.1897524;0.8952134;1.604996;0.1253658;0.6277885;1.919313;0.05875981;0.2902945;1.775851;0.1339639;0.06283917;0.8944378;0.306314;0;0;0;1.147936;1.933601;0.05875862;1.44043;1.807444;0.1339622;1.671993;0.8893118;0.3119739;1.69216;-0.003707647;-0.004090905;0.5919151;-0.1803432;0.3526856;0.5535691;-1.632495;0.1776306;0.5715654;-2.974418;0.2836686;0.5919151;-0.1803432;0.3526856;0.5535691;-1.632495;0.1776306;0.5715654;-2.974418;0.2836686
646938.9539;NotLabelled;16384;0.7700458;-0.6080332;-0.04293629;-0.1883656;-21;64;19;-1292;4202;-341;65536;0.716108;-0.634349;-0.2853186;-0.05817174;-7;64;-21;-1127;4384;-431;8192;-0.0166205;-0.1537396;-0.7676904;-0.6218836;19;29;15;1282;3663;1445;32768;-0.2063712;-0.0401662;0.7155197;0.666205;-19;18;23;1178;3701;-1076;256;0.5336834;-0.5096953;0.5124654;0.4390582;-6;32;-12;-1321;3984;569;128;0.5415512;-0.5660213;0.3975069;0.4778393;-3;30;16;609;4271;674;4;0.7098686;-0.702216;-0.03185596;0.04432133;2;19;-15;239;4064;-284;16;0.5152354;-0.5609316;-0.4376731;-0.4778393;-5;11;-1;-153;4068;316;2;0.05401662;0.1952908;-0.7541561;-0.6246537;-15;15;-37;-663;3926;181;8;-0.4155124;0.6052631;0.2950138;0.6115332;16;30;14;147;2455;1181;0.8997452;-0.1327202;0.35996;0.9056562;0.4059229;0.2736468;0.9108484;0.8790703;0.1957803;0.8855354;1.609317;0.1282459;0.6158682;1.921412;0.06024569;0.2794011;1.775851;0.1360138;0.05789117;0.8933387;0.3104703;0;0;0;1.1359;1.939444;0.06026423;1.429279;1.815719;0.1360561;1.663723;0.8994613;0.3198625;1.671286;0.01020002;-0.007161379;0.5874836;-0.175437;0.3596008;0.5529367;-1.628686;0.1930725;0.5769993;-2.970257;0.3023292;0.5874836;-0.175437;0.3596008;0.5529367;-1.628686;0.1930725;0.5769993;-2.970257;0.3023292
646958.9538;NotLabelled;16384;0.7691497;-0.6052631;-0.05817174;-0.1966759;-20;40;25;-1424;4346;-353;65536;0.7142277;-0.6301939;-0.2977839;-0.06371191;9;31;-18;-1061;4604;-347;8192;-0.0235457;-0.1509695;-0.768059;-0.6218836;19;32;15;1156;3725;1527;32768;-0.2063712;-0.04432133;0.7126843;0.6689751;-20;14;20;1108;3709;-1354;256;0.5344323;-0.5124654;0.5124654;0.434903;-5;26;-11;-1321;4164;425;128;0.5401662;-0.570817;0.3975069;0.4736842;-3;25;16;543;4367;602;4;0.7088315;-0.7036011;-0.033241;0.03739612;0;18;-10;525;4166;-396;16;0.5124654;-0.5589308;-0.4404432;-0.4806094;-7;14;3;-175;4160;216;2;0.05540166;0.1966759;-0.7536955;-0.6246537;-2;-3;-16;-931;3962;295;8;-0.4141274;0.5983379;0.3033241;0.6152111;53;84;0;-759;2355;1065;0.9192792;-0.1210477;0.3688379;0.9251892;0.4175181;0.2820402;0.9303806;0.8905945;0.2037482;0.8911059;1.620018;0.1340261;0.6155238;1.926691;0.065074;0.2818946;1.774943;0.1412555;0.05886636;0.8923206;0.3132008;0;0;0;1.135115;1.95467;0.06507266;1.430799;1.83681;0.1412537;1.663089;0.9214134;0.3319541;1.659165;0.03376579;0.0005110502;0.6070175;-0.163765;0.3685201;0.575836;-1.618356;0.2134345;0.602699;-2.9596;0.3259964;0.6070175;-0.163765;0.3685201;0.575836;-1.618356;0.2134345;0.602699;-2.9596;0.3259964
646979.9429;NotLabelled;16384;0.7705289;-0.602493;-0.06371191;-0.1980609;-18;29;26;-1458;4388;-399;65536;0.7150437;-0.6274238;-0.301939;-0.06232687;16;14;-18;-1059;4558;-199;8192;-0.02908587;-0.1481994;-0.7672855;-0.6232687;20;33;15;950;3781;1587;32768;-0.2077562;-0.04570637;0.7121943;0.6689751;-11;-2;15;1210;3719;-1598;256;0.5337966;-0.5166205;0.5124654;0.4307479;-1;22;-9;-1237;4062;313;128;0.5401662;-0.575196;0.3961219;0.4695291;-13;20;12;453;4271;698;4;0.7089059;-0.7036011;-0.03462604;0.03462604;1;15;-8;589;4174;-302;16;0.5110803;-0.5579122;-0.4418283;-0.4819945;-9;10;4;-59;4122;272;2;0.05955679;0.1911357;-0.7559473;-0.6232687;3;-45;1;-745;3214;-191;8;-0.4113573;0.5914127;0.3213296;0.6146246;81;108;-18;-135;2351;1395;0.9279513;-0.1192324;0.3881993;0.9338642;0.4195871;0.3029943;0.9390582;0.8928933;0.2261014;0.8949525;1.621925;0.1551765;0.6173491;1.926649;0.08569598;0.2847264;1.772818;0.1620974;0.05830326;0.8889375;0.32278;0;0;0;1.136743;1.958075;0.08569473;1.433195;1.842304;0.1620957;1.666976;0.9283905;0.3580164;1.653219;0.04220676;0.02293909;0.6156896;-0.1619487;0.3877451;0.5903968;-1.617775;0.2435663;0.6186997;-2.958924;0.35691;0.6156896;-0.1619487;0.3877451;0.5903968;-1.617775;0.2435663;0.6186997;-2.958924;0.35691
647001.0772;NotLabelled;16384;0.7711324;-0.601108;-0.06925207;-0.1980609;-15;17;26;-1514;4344;-323;65536;0.7159071;-0.6260388;-0.3033241;-0.05955679;21;0;-21;-1117;4470;-95;8192;-0.033241;-0.1454294;-0.7676467;-0.6232687;18;29;14;702;3875;1585;32768;-0.2105263;-0.04570637;0.7126803;0.66759;-4;-4;9;938;3575;-2012;256;0.5333363;-0.5193906;0.5124654;0.4279778;1;18;-7;-1265;3836;373;128;0.5387812;-0.5795087;0.3933518;0.468144;-24;18;7;331;3997;710;4;0.7089033;-0.7036011;-0.03601108;0.033241;1;9;-7;537;4020;-190;16;0.5096953;-0.5567781;-0.4418283;-0.4847645;-10;9;5;-191;4000;214;2;0.05263158;0.1883656;-0.7525608;-0.6288089;18;2;34;-1001;3144;803;8;-0.4113573;0.5775623;0.3601108;0.6062402;122;35;-48;973;2965;1837;0.9456992;-0.1168549;0.3975434;0.951614;0.4221492;0.3135123;0.9568099;0.8956213;0.2376505;0.9059438;1.624305;0.1676818;0.625522;1.926534;0.09862125;0.2943461;1.769527;0.1748478;0.06336889;0.885869;0.3301782;0;0;0;1.144603;1.962771;0.09862018;1.442122;1.849653;0.1748464;1.673945;0.9360847;0.3746634;1.656302;0.05118418;0.03639376;0.6334376;-0.15957;0.3969887;0.6076588;-1.615679;0.2557778;0.637067;-2.956781;0.3693844;0.6334376;-0.15957;0.3969887;0.6076588;-1.615679;0.2557778;0.637067;-2.956781;0.3693844
647022.0084;NotLabelled;16384;0.7714545;-0.601108;-0.0734072;-0.1952908;-12;6;25;-1600;4240;-197;65536;0.7168617;-0.6246537;-0.3047091;-0.05540166;23;-11;-24;-1127;4336;-37;8192;-0.0401662;-0.1398892;-0.7672193;-0.6246537;18;12;8;340;3445;1581;32768;-0.2105263;-0.04570637;0.7165499;0.6634349;-1;15;-3;802;2997;-2070;256;0.532847;-0.5221606;0.5124654;0.4252077;2;11;-4;-1323;3680;431;128;0.536011;-0.585042;0.3905817;0.466759;-25;16;3;389;3801;582;4;0.7089668;-0.7036011;-0.03601108;0.03185596;0;8;-8;677;3992;-42;16;0.5083103;-0.5568367;-0.4418283;-0.4861496;-11;10;5;-49;3974;352;2;0.04847645;0.1855956;-0.7512073;-0.6315789;18;-4;42;-1061;3064;383;8;-0.4210526;0.5747922;0.3725762;0.5945718;128;-42;-61;1245;3397;2133;0.9569787;-0.1154902;0.4017182;0.9629002;0.4241209;0.321677;0.968102;0.8981414;0.24932;0.9127089;1.626561;0.1800426;0.6304118;1.927108;0.1112861;0.3002223;1.767977;0.1873863;0.06729262;0.8835878;0.3354708;0;0;0;1.149257;1.966567;0.1112849;1.447479;1.855225;0.1873846;1.679965;0.9422274;0.3890293;1.661574;0.05882049;0.04691637;0.6447171;-0.1581998;0.4008222;0.6185365;-1.614309;0.2596859;0.645582;-2.95507;0.3778215;0.6447171;-0.1581998;0.4008222;0.6185365;-1.614309;0.2596859;0.645582;-2.95507;0.3778215
647043.4221;NotLabelled;16384;0.7711859;-0.601108;-0.07617728;-0.1952908;-11;-2;23;-1558;4078;-93;65536;0.7166784;-0.6246537;-0.3060942;-0.04986149;24;-16;-28;-1149;4228;15;8192;-0.0401662;-0.1385041;-0.7663411;-0.6260388;14;4;4;348;3301;1643;32768;-0.2063712;-0.04709141;0.7163852;0.66482;-3;28;-8;1072;2813;-1826;256;0.5325913;-0.5235457;0.5124654;0.4238227;9;6;3;-1303;3386;299;128;0.533241;-0.5892111;0.3864266;0.468144;-18;7;-4;383;3553;624;4;0.7090859;-0.7036011;-0.03601108;0.02908587;0;11;-10;571;3952;-60;16;0.5055401;-0.5569332;-0.4418283;-0.4889196;-11;12;6;-35;4058;456;2;0.04570637;0.1786704;-0.7507257;-0.634349;21;-20;49;-1365;3176;651;8;0.4376731;-0.5802366;-0.3781163;-0.5734072;129;-115;-74;937;3583;2249;0.9656445;-0.1143792;0.4050921;0.9715749;0.4260311;0.3306405;0.9767846;0.9007754;0.2631938;0.9168493;1.628905;0.1946505;0.6326799;1.927756;0.1262165;0.3034943;1.766495;0.2021824;0.07143876;0.8805962;0.3424076;0;0;0;1.15127;1.970446;0.1262156;1.450185;1.860888;0.2021811;1.679896;0.9478698;0.4068871;1.670132;0.06520891;0.06250072;0.6533832;-0.1570771;0.4037186;0.626845;-1.613463;0.2655369;0.655066;-2.953875;0.3872967;0.6533832;-0.1570771;0.4037186;0.626845;-1.613463;0.2655369;0.655066;-2.953875;0.3872967
647063.9473;NotLabelled;16384;0.7717441;-0.601108;-0.07756232;-0.1925208;-13;-8;22;-1476;4046;-49;65536;0.7182466;-0.6232687;-0.3060942;-0.04432133;23;-14;-33;-1213;4124;11;8192;-0.04155125;-0.1357341;-0.7678916;-0.6246537;4;9;-6;594;3257;1775;32768;-0.2022161;-0.04986149;0.716096;0.666205;-6;28;-11;1286;2831;-1570;256;0.5314537;-0.5249307;0.5110803;0.4252077;18;0;6;-1355;3374;301;128;0.5318559;-0.5922652;0.3836565;0.468144;-20;3;-8;525;3617;738;4;0.7092198;-0.7036011;-0.03739612;0.0235457;0;14;-13;287;4098;-58;16;0.5027701;-0.5568746;-0.4404432;-0.4930748;-11;10;6;23;4058;462;2;0.04293629;0.1703601;-0.7492973;-0.6385041;17;-32;54;-1419;3150;635;8;0.4542936;-0.5883836;-0.3808864;-0.5498615;121;-132;-80;217;3617;2049;0.968047;-0.1165783;0.4039072;0.973987;0.4247203;0.3362147;0.9792055;0.90027;0.2747059;0.9169934;1.628244;0.2065459;0.6318887;1.926242;0.1382807;0.3032117;1.763915;0.2141765;0.07163616;0.8773117;0.3506985;0;0;0;1.150343;1.970552;0.1382793;1.449602;1.861889;0.2141745;1.676081;0.947782;0.4176233;1.665732;0.0636301;0.07710052;0.6557857;-0.1592555;0.4019577;0.6295745;-1.616178;0.2694927;0.6592544;-2.955864;0.3986752;0.6557857;-0.1592555;0.4019577;0.6295745;-1.616178;0.2694927;0.6592544;-2.955864;0.3986752
647084.1031;NotLabelled;16384;0.7724857;-0.601108;-0.08033241;-0.1883656;-18;-13;22;-1374;3956;-107;65536;0.7170611;-0.6232687;-0.3102493;-0.033241;23;-4;-39;-1225;4232;-35;8192;-0.0401662;-0.132964;-0.7695736;-0.6232687;0;7;-13;404;3317;1627;32768;-0.1980609;-0.04986149;0.7159674;0.66759;-7;18;-14;1512;2917;-1450;256;0.5291856;-0.5263157;0.5096953;0.4279778;22;-7;8;-1377;3498;367;128;0.5304709;-0.5930987;0.3808864;0.4709141;-26;0;-13;607;3747;734;4;0.7080014;-0.7049862;-0.03601108;0.02077562;0;9;-13;279;4084;-172;16;0.501385;-0.5556624;-0.4404432;-0.4958449;-12;8;6;-43;3996;462;2;0.03878116;0.1620499;-0.7490015;-0.6412742;19;-30;57;-1407;3116;519;8;0.4695291;-0.5930841;-0.3864266;-0.5277008;109;-98;-81;-199;4043;1759;0.9718733;-0.1206825;0.403507;0.9778185;0.4210949;0.3397622;0.9830418;0.8970804;0.2817218;0.9211963;1.625439;0.2174358;0.6362238;1.923947;0.150874;0.3074924;1.7614;0.2260596;0.07594106;0.8740702;0.3578153;0;0;0;1.154702;1.967975;0.1508729;1.453936;1.85875;0.2260581;1.683668;0.9449492;0.4272192;1.673127;0.05997324;0.08885002;0.6596123;-0.1633444;0.4012215;0.6346244;-1.621031;0.277195;0.6622425;-2.959588;0.4180126;0.6596123;-0.1633444;0.4012215;0.6346244;-1.621031;0.277195;0.6622425;-2.959588;0.4180126
647104.9552;NotLabelled;16384;0.7742308;-0.599723;-0.08033241;-0.1855956;-21;-17;20;-1306;4012;-165;65536;0.7166891;-0.6218836;-0.3144044;-0.02770083;24;-3;-40;-1083;4212;-65;8192;-0.03739612;-0.1315789;-0.7699511;-0.6232687;-1;-2;-18;282;3275;1479;32768;-0.1952908;-0.04986149;0.7154353;0.6689751;-8;3;-17;1652;2993;-1286;256;0.5235457;-0.5308089;0.5096953;0.4293629;22;-10;11;-1489;3570;423;128;0.5277008;-0.5942506;0.3795014;0.4736842;-32;-3;-17;615;3763;852;4;0.7080774;-0.7049862;-0.03601108;0.01800554;0;9;-13;157;4070;-208;16;0.5;-0.5556728;-0.4404432;-0.4972299;-12;10;7;-129;4018;442;2;0.03739612;0.1412742;-0.7485147;-0.6468144;16;-55;50;-1683;3654;919;8;0.4875346;-0.6000604;-0.398892;-0.4930748;81;-12;-50;1117;3763;3297;0.9680734;-0.1290171;0.4169835;0.9740236;0.4132109;0.3571901;0.9792514;0.8896065;0.3026212;0.9181303;1.618501;0.243966;0.633429;1.91781;0.1798823;0.3045754;1.755034;0.2540327;0.07249525;0.8665047;0.3764448;0;0;0;1.151953;1.961294;0.179881;1.45112;1.851182;0.2540309;1.683212;0.9368086;0.4498116;1.673612;0.0497241;0.1169822;0.6558125;-0.1716609;0.414362;0.6374274;-1.630097;0.2982334;0.6616448;-2.968225;0.4436699;0.6558125;-0.1716609;0.414362;0.6374274;-1.630097;0.2982334;0.6616448;-2.968225;0.4436699
647126.9492;NotLabelled;16384;0.7747447;-0.599723;-0.08171745;-0.1828255;-23;-19;18;-1334;4074;-177;65536;0.7174288;-0.6204986;-0.3157895;-0.0235457;25;-5;-38;-1067;4256;-111;8192;-0.02908587;-0.1301939;-0.7705451;-0.6232687;0;-22;-26;440;3485;1481;32768;-0.1952908;-0.04293629;0.7158843;0.6689751;-8;-23;-18;1652;3271;-874;256;0.5207756;-0.5312858;0.5096953;0.432133;23;-17;13;-1475;3586;407;128;0.5235457;-0.5963581;0.3767313;0.4778393;-31;-11;-22;613;3821;784;4;0.7081424;-0.7049862;-0.03601108;0.01523546;0;5;-10;145;4208;-170;16;0.4986149;-0.5555277;-0.4390582;-0.5;-13;6;8;-55;4112;478;2;0.03601108;0.132964;-0.7489067;-0.6481994;6;-28;40;-1479;3798;655;8;0.4916897;-0.5972871;-0.4030471;-0.4889196;8;-9;-2;603;2325;5119;0.9779609;-0.1318014;0.4063006;0.9839163;0.4108915;0.3508898;0.9891489;0.887713;0.3001715;0.9221064;1.616739;0.250281;0.6349056;1.914502;0.1902732;0.3075031;1.748234;0.263087;0.07165549;0.8611455;0.3887034;0;0;0;1.153065;1.962126;0.1898415;1.453243;1.853538;0.2621333;1.684669;0.9394588;0.4600664;1.674563;0.05090785;0.1311859;0.6657004;-0.1744227;0.403307;0.648133;-1.633307;0.2928215;0.6725861;-2.97102;0.441995;0.6657004;-0.1744227;0.403307;0.648133;-1.633307;0.2928215;0.6725861;-2.97102;0.441995
647147.1156;NotLabelled;16384;0.7767824;-0.5983379;-0.08171745;-0.1786704;-24;-23;18;-1232;4136;-199;65536;0.7175611;-0.6191136;-0.3185596;-0.01800554;28;-8;-37;-1007;4288;-229;8192;-0.02216066;-0.1301939;-0.7707753;-0.6232687;1;-28;-29;504;3683;1389;32768;-0.1966759;-0.03878116;0.7157423;0.6689751;-9;-29;-17;1556;3451;-828;256;0.5180055;-0.5305974;0.5096953;0.4362881;26;-22;15;-1425;3816;273;128;0.5207756;-0.5971826;0.3739612;0.4819945;-26;-17;-25;497;4057;632;4;0.7082399;-0.7049862;-0.03462604;0.01385042;0;0;-9;75;4274;-256;16;0.4972299;-0.555362;-0.4376731;-0.5027701;-13;0;8;1;4272;504;2;0.033241;0.1288089;-0.7485608;-0.6495845;6;0;31;-1237;4140;541;8;0.4875346;-0.5942491;-0.4058172;-0.4944598;-22;100;26;-605;3175;3483;0.9795663;-0.1366851;0.3967049;0.9855292;0.4066892;0.3484259;0.9907686;0.8841348;0.3039739;0.9236955;1.61344;0.258382;0.6364405;1.911552;0.2004041;0.3091097;1.744873;0.2725974;0.07237139;0.8577209;0.3960728;0;0;0;1.154601;1.959166;0.1997027;1.454851;1.850153;0.2710477;1.684664;0.934;0.4611118;1.67691;0.04231691;0.1407536;0.6673062;-0.1792631;0.3931069;0.6508349;-1.638573;0.2882208;0.6717644;-2.97544;0.445309;0.6673062;-0.1792631;0.3931069;0.6508349;-1.638573;0.2882208;0.6717644;-2.97544;0.445309
647166.9664;NotLabelled;16384;0.7777264;-0.5983379;-0.08171745;-0.1745152;-26;-28;19;-1242;4216;-163;65536;0.7182559;-0.6177285;-0.3199446;-0.01246537;32;-14;-33;-991;4292;-321;8192;-0.01523546;-0.1301939;-0.7709433;-0.6232687;1;-33;-31;464;3935;1269;32768;-0.199446;-0.033241;0.7165472;0.66759;-10;-34;-18;1590;3679;-790;256;0.5096953;-0.5294175;0.5096953;0.4473684;30;-36;20;-969;4248;87;128;0.5166205;-0.5928723;0.3739612;0.4916897;-11;-36;-30;-113;4413;644;4;0.7083319;-0.7049862;-0.033241;0.01246537;-1;-4;-9;-117;4184;-172;16;0.4972299;-0.5551962;-0.4362881;-0.5041551;-14;-5;9;61;4086;536;2;0.02770083;0.1288089;-0.7475825;-0.6509695;1;29;37;-507;4522;329;8;0.4778393;-0.5858284;-0.4141274;-0.5069252;8;105;11;-827;5457;-371;0.9789518;-0.1432757;0.4108716;0.9849197;0.4005601;0.368112;0.9901638;0.878433;0.32851;0.9250431;1.608163;0.2870778;0.6386199;1.907359;0.230588;0.3107927;1.741127;0.3015486;0.06990366;0.8527739;0.4070477;0;0;0;1.156904;1.953614;0.2305865;1.456807;1.843402;0.3015466;1.685381;0.9228184;0.4705305;1.679724;0.02988029;0.1536447;0.666692;-0.1858149;0.4068067;0.6514177;-1.645528;0.3075001;0.6679816;-2.981501;0.4725142;0.666692;-0.1858149;0.4068067;0.6514177;-1.645528;0.3075001;0.6679816;-2.981501;0.4725142
647187.9508;NotLabelled;16384;0.7813341;-0.5969529;-0.08033241;-0.1634349;-23;-46;20;-1122;4222;-3;65536;0.7219163;-0.6135734;-0.3199446;0;41;-34;-24;-985;4446;-441;8192;-0.006925208;-0.1301939;-0.7699411;-0.6246537;2;-37;-34;526;4191;1125;32768;-0.200831;-0.02770083;0.7163959;0.66759;-9;-42;-19;1576;3893;-878;256;0.5055401;-0.5275009;0.5096953;0.4542936;30;-40;23;-697;4598;45;128;0.5152354;-0.5873932;0.3753462;0.4986149;0;-47;-33;-349;4639;710;4;0.708558;-0.7049862;-0.02908587;0.009695291;-3;-10;-5;-243;4160;-94;16;0.4972299;-0.5582543;-0.4307479;-0.5055401;-13;-20;11;-9;4068;564;2;0.01800554;0.1274238;-0.7469087;-0.6523545;11;35;58;-219;4684;607;8;0.4736842;-0.5786143;-0.4238227;-0.5110803;37;85;0;59;5337;3;0.9711319;-0.1518209;0.4056927;0.9771038;0.3923736;0.3677685;0.9823514;0.8705797;0.3324152;0.9210242;1.601244;0.3035803;0.6361035;1.902864;0.2526579;0.3075058;1.737165;0.3212632;0.06411633;0.8483915;0.4170341;0;0;0;1.154624;1.946388;0.2526569;1.454043;1.833404;0.3212618;1.678783;0.9108715;0.4846662;1.681064;0.0169034;0.1706554;0.6588726;-0.1943221;0.4012195;0.6457509;-1.654416;0.3073521;0.6556029;-2.989919;0.4766511;0.6588726;-0.1943221;0.4012195;0.6457509;-1.654416;0.3073521;0.6556029;-2.989919;0.4766511
647207.9592;NotLabelled;16384;0.784084;-0.5955678;-0.07756232;-0.1565097;-19;-53;18;-1014;4394;165;65536;0.7248241;-0.6108033;-0.3185596;0.008310249;45;-47;-19;-1027;4538;-477;8192;0;-0.1315789;-0.7697368;-0.6246537;1;-41;-36;500;4503;891;32768;-0.2036011;-0.02077562;0.7171373;0.666205;-7;-41;-21;1528;4253;-952;256;0.5027701;-0.5242524;0.5083103;0.4626039;32;-46;26;-415;4708;3;128;0.5124654;-0.582994;0.3767313;0.5055401;-4;-50;-34;-437;4725;978;4;0.7086461;-0.7049862;-0.02631579;0.01108033;-7;-21;-1;-221;4240;-102;16;0.4986149;-0.5602061;-0.4265928;-0.5055401;-14;-31;12;113;4076;624;2;0;0.1191136;-0.742403;-0.6592798;10;1;55;-1883;5166;1879;8;0.4750692;-0.5778828;-0.4265928;-0.5083103;16;-6;-4;-1573;5351;677;0.9774773;-0.1645329;0.4277283;0.9834495;0.3796959;0.390298;0.9886975;0.8579335;0.3553787;0.9311938;1.589128;0.3327662;0.6478292;1.892661;0.284598;0.3184104;1.728116;0.352033;0.06967172;0.8394356;0.4339244;0;0;0;1.166571;1.933459;0.2845969;1.465438;1.818327;0.3520316;1.684468;0.8928595;0.5063387;1.690008;-0.002938271;0.1976271;0.6652181;-0.2070298;0.4232134;0.6534947;-1.667978;0.343515;0.6583833;-3.001661;0.5267988;0.6652181;-0.2070298;0.4232134;0.6534947;-1.667978;0.343515;0.6583833;-3.001661;0.5267988
647227.9627;NotLabelled;16384;0.7859656;-0.5955678;-0.07479224;-0.1481994;-12;-59;16;-956;4404;501;65536;0.7287807;-0.6080332;-0.3144044;0.01800554;47;-61;-15;-1007;4406;-517;8192;0.01800554;-0.1357341;-0.7676767;-0.6260388;0;-43;-35;596;4535;645;32768;-0.2077562;-0.006925208;0.7174983;0.66482;0;-37;-20;1608;4331;-812;256;0.4986149;-0.5208107;0.5083103;0.4709141;33;-52;28;-169;4570;-47;128;0.5096953;-0.5781367;0.3767313;0.5138504;-26;-47;-36;-379;4425;1094;4;0.7100956;-0.7036011;-0.0235457;0.01246537;-11;-34;2;-303;4222;-216;16;0.5;-0.5631553;-0.4210526;-0.5055401;-14;-35;12;117;4074;604;2;0;0.1108033;-0.7436886;-0.6592798;0;-61;47;-1285;3744;1507;8;0.4764543;-0.5757143;-0.4279778;-0.5083103;13;14;2;-485;3579;1239;0.9775071;-0.1783984;0.4327329;0.9834809;0.3659678;0.397358;0.9887303;0.8443341;0.3642449;0.9389874;1.576263;0.3478475;0.6588254;1.883185;0.3025102;0.3277341;1.721589;0.3688731;0.07297836;0.8339958;0.4437593;0;0;0;1.177972;1.918467;0.3023543;1.475655;1.7996;0.3685297;1.690566;0.8732038;0.5230539;1.701522;-0.02417636;0.2191182;0.6652482;-0.2208781;0.4280446;0.6542118;-1.681979;0.3511091;0.65352;-3.014709;0.5412639;0.6652482;-0.2208781;0.4280446;0.6542118;-1.681979;0.3511091;0.65352;-3.014709;0.5412639
647248.9571;NotLabelled;16384;0.7881154;-0.5955678;-0.07063711;-0.1385041;-2;-66;12;-962;4260;803;65536;0.7319391;-0.6066482;-0.3088643;0.02908587;44;-73;-13;-1047;4060;-551;8192;0.02631579;-0.1371191;-0.7660582;-0.6274238;-2;-40;-32;620;4181;687;32768;-0.2091413;-0.001385042;0.7184095;0.6634349;1;-37;-17;1636;4011;-708;256;0.4944598;-0.5158922;0.5083103;0.4806094;27;-52;28;-83;4178;39;128;0.5041551;-0.5751893;0.3753462;0.5235457;-53;-46;-34;-365;4201;1008;4;0.7115421;-0.702216;-0.01800554;0.0166205;-16;-44;5;-347;4210;-182;16;0.5027701;-0.565019;-0.4168975;-0.5041551;-12;-37;12;187;4148;748;2;0.001385042;0.09695291;-0.7419248;-0.6634349;43;-70;42;-463;3474;-1039;8;0.4764543;-0.5736447;-0.4307479;-0.5083103;15;12;4;221;4025;743;0.9763347;-0.1884928;0.4372612;0.9823107;0.3560741;0.4051256;0.9875621;0.8346288;0.3748592;0.9436437;1.567042;0.3645728;0.6659245;1.876551;0.3218689;0.3335709;1.717047;0.3869721;0.07760109;0.8290398;0.4521824;0;0;0;1.185335;1.9077;0.3218679;1.482077;1.785921;0.3869709;1.691724;0.8546808;0.5177947;1.70823;-0.04656005;0.2257686;0.664076;-0.2309434;0.4323001;0.6482674;-1.692152;0.3582776;0.6412269;-3.0234;0.5584195;0.664076;-0.2309434;0.4323001;0.6482674;-1.692152;0.3582776;0.6412269;-3.0234;0.5584195
647268.9437;NotLabelled;16384;0.7894616;-0.5983379;-0.05955679;-0.1232687;8;-69;3;-912;3658;1285;65536;0.7343007;-0.6066482;-0.301939;0.0401662;39;-80;-14;-1201;3636;-531;8192;0.033241;-0.1385041;-0.7655396;-0.6274238;-4;-40;-30;528;3937;645;32768;-0.2119114;0.001385042;0.7188753;0.6620498;3;-30;-11;1600;3801;-650;256;-0.4889196;0.5055401;-0.51078;-0.4944598;9;-48;23;-141;3846;-173;128;0.4903047;-0.5740793;0.3698061;0.5415512;-40;-42;-29;-219;3783;722;4;0.7128485;-0.700831;-0.01385042;0.02216066;-18;-46;4;-263;4066;10;16;0.5055401;-0.5666056;-0.4113573;-0.5041551;-9;-36;12;143;4042;866;2;0.001385042;0.08725762;-0.738144;-0.6689751;29;-41;39;-405;3656;-59;8;0.4778393;-0.5724915;-0.4307479;-0.5083103;15;-7;4;491;3751;757;0.9707714;-0.2006779;0.4334283;0.9767516;0.344281;0.4088191;0.9820073;0.8232081;0.3851669;0.9459181;1.556108;0.3809497;0.6715069;1.868911;0.3409403;0.3374932;1.712435;0.404889;0.07909592;0.8244607;0.4602218;0;0;0;1.191221;1.894505;0.340939;1.48667;1.769027;0.4048873;1.689512;0.8354576;0.529695;1.713913;-0.06722283;0.2427117;0.6585135;-0.2430561;0.4278341;0.6377702;-1.704342;0.3566148;0.6233769;-3.035102;0.5595847;0.6585135;-0.2430561;0.4278341;0.6377702;-1.704342;0.3566148;0.6233769;-3.035102;0.5595847
647291.0633;NotLabelled;16384;0.7925294;-0.5983379;-0.04709141;-0.1080332;2;-65;-7;-530;3502;1363;65536;0.7373366;-0.6066482;-0.2908587;0.06094183;21;-58;-18;-1493;3282;-677;8192;0.04155125;-0.1412742;-0.764627;-0.6274238;-7;-42;-28;546;3837;517;32768;-0.2146814;0.004155125;0.7193168;0.6606648;2;-33;-4;1670;3713;-540;256;-0.4847645;0.5;-0.5147848;-0.5;10;-47;19;-133;3836;-265;128;0.4861496;-0.5710303;0.3698061;0.5484765;-21;-50;-29;-421;3827;526;4;0.7153776;-0.6980609;-0.004155125;0.03047091;-17;-37;0;-159;3830;144;16;0.5110803;-0.571032;-0.4016621;-0.501385;-3;-35;10;189;3850;930;2;0.002770083;0.07894737;-0.7352927;-0.6731302;30;-47;39;-445;3842;587;8;0.4806094;-0.5736648;-0.4293629;-0.5055401;13;-15;4;-261;3899;489;0.9475889;-0.2142222;0.4054169;0.953575;0.331275;0.4011065;0.9588367;0.8107505;0.3952949;0.9346677;1.544153;0.3953846;0.6653707;1.861604;0.3572885;0.3288693;1.710207;0.4204154;0.07226084;0.821218;0.4670932;0;0;0;1.185432;1.878747;0.3572876;1.478814;1.748108;0.4204139;1.676776;0.8132424;0.5433412;1.711643;-0.0892427;0.2568226;0.6353335;-0.2563605;0.3981218;0.6108406;-1.717419;0.3235129;0.5823541;-3.047033;0.5324207;0.6353335;-0.2563605;0.3981218;0.6108406;-1.717419;0.3235129;0.5823541;-3.047033;0.5324207
647311.0887;NotLabelled;16384;0.7938234;-0.5983379;-0.0401662;-0.101108;-3;-57;-10;-392;3518;1239;65536;0.7372767;-0.6066482;-0.2894737;0.06786703;14;-34;-19;-1587;3218;-821;8192;0.04986149;-0.1426593;-0.7650083;-0.6260388;-10;-43;-26;492;3831;539;32768;-0.2188366;0.008310249;0.7192994;0.6592798;2;-36;1;1662;3701;-456;256;-0.4819945;0.4972299;-0.5132939;-0.5069252;17;-48;17;9;3876;-375;128;0.4833795;-0.5657654;0.3711911;0.5554016;-5;-58;-28;-587;3845;588;4;0.7179594;-0.6952909;0;0.033241;-14;-32;0;-55;3976;252;16;0.5124654;-0.5726959;-0.3975069;-0.501385;0;-30;10;225;3934;946;2;0.002770083;0.06925207;-0.733727;-0.6759003;27;-42;34;-287;4024;559;8;0.4833795;-0.5725552;-0.4293629;-0.5041551;9;-17;6;-343;3913;395;0.9513721;-0.223995;0.4122004;0.9573584;0.3215189;0.4125607;0.9626204;0.8010268;0.4108546;0.9405919;1.534496;0.4108542;0.6722229;1.852728;0.3727181;0.3352808;1.702322;0.435862;0.07539335;0.8141012;0.4789079;0;0;0;1.192332;1.868351;0.3727173;1.485331;1.736866;0.4358609;1.680158;0.800662;0.5535026;1.721779;-0.1016231;0.2672566;0.6391176;-0.2660689;0.4045154;0.6041178;-1.727043;0.3324896;0.5636859;-3.055044;0.5495312;0.6391176;-0.2660689;0.4045154;0.6041178;-1.727043;0.3324896;0.5636859;-3.055044;0.5495312
647331.1518;NotLabelled;16384;0.7956434;-0.5969529;-0.03462604;-0.09695291;-7;-45;-10;-376;3684;1255;65536;0.7368824;-0.6066482;-0.2894737;0.07202215;9;-14;-15;-1487;3370;-949;8192;0.06648199;-0.1481994;-0.7638225;-0.6246537;-12;-44;-30;404;4197;487;32768;-0.2285319;0.01385042;0.7187325;0.6565097;2;-41;9;1716;4043;-326;256;-0.4778393;0.4930748;-0.5124654;-0.5156803;19;-50;16;39;3990;-213;128;0.4806094;-0.5567867;0.3753462;0.5640198;4;-61;-28;-731;4035;728;4;0.7191634;-0.6939058;0.001385042;0.03601108;-15;-32;-1;-115;4012;64;16;0.5152354;-0.573337;-0.3947368;-0.5;1;-26;9;293;3952;900;2;0.005540166;0.05401662;-0.7298565;-0.6814404;22;-38;22;-421;4250;701;8;0.4889196;-0.5723541;-0.4265928;-0.501385;0;-18;10;-297;3991;129;0.9416304;-0.2330635;0.4079993;0.9476167;0.3124456;0.4103457;0.9528787;0.7919564;0.4103855;0.9368976;1.525557;0.4165661;0.6711541;1.846299;0.3811787;0.3329952;1.698149;0.4431391;0.0714528;0.8103933;0.4857512;0;0;0;1.191374;1.857635;0.3811779;1.483291;1.723212;0.4431382;1.679214;0.7861743;0.5519928;1.724019;-0.1159573;0.2657433;0.6293762;-0.2751091;0.4001488;0.5836911;-1.735908;0.3305887;0.5368207;-3.062724;0.5534973;0.6293762;-0.2751091;0.4001488;0.5836911;-1.735908;0.3305887;0.5368207;-3.062724;0.5534973
647352.108;NotLabelled;16384;0.797345;-0.5955678;-0.03047091;-0.09279778;-8;-38;-9;-350;3848;1147;65536;0.7378841;-0.6052631;-0.2894737;0.0734072;8;0;-10;-1379;3524;-1127;8192;0.07479224;-0.1495845;-0.7639154;-0.6232687;-13;-45;-32;420;4355;433;32768;-0.234072;0.0166205;0.7181544;0.6551247;3;-41;11;1730;4171;-320;256;-0.4736842;0.4889196;-0.5138504;-0.5220523;17;-52;16;45;4182;31;128;0.4778393;-0.5498615;0.3781163;0.5712705;13;-59;-27;-783;4157;850;4;0.7203335;-0.6925207;0.005540166;0.03878116;-15;-30;-2;-85;4078;208;16;0.5180055;-0.572741;-0.3919668;-0.5;3;-22;9;401;4032;790;2;0.006925208;0.04986149;-0.7275451;-0.6842105;16;-22;16;-451;4228;179;8;0.4903047;-0.5734106;-0.4252077;-0.5;-5;-16;12;-189;4069;155;0.9297378;-0.2424514;0.4066981;0.935724;0.3030591;0.4086827;0.9409861;0.7825699;0.4084044;0.9317841;1.516192;0.4216852;0.6690109;1.839703;0.3894584;0.3295051;1.69409;0.4500542;0.06330402;0.8076606;0.4913999;0;0;0;1.189314;1.846232;0.3894573;1.479984;1.708526;0.4500526;1.674838;0.7696633;0.5440944;1.723321;-0.1305394;0.2524235;0.6174834;-0.2845025;0.3988778;0.5674639;-1.744982;0.3256934;0.5130826;-3.071748;0.5471944;0.6174834;-0.2845025;0.3988778;0.5674639;-1.744982;0.3256934;0.5130826;-3.071748;0.5471944
647371.9512;NotLabelled;16384;0.7979186;-0.5955678;-0.02770083;-0.08864266;-7;-34;-8;-454;3952;1045;65536;0.739018;-0.6038781;-0.2894737;0.0734072;10;2;-3;-1227;3688;-1145;8192;0.08448754;-0.1523546;-0.7623556;-0.6232687;-13;-48;-35;380;4477;425;32768;-0.2396122;0.01939058;0.7175198;0.6537396;3;-42;13;1778;4247;-272;256;-0.4653739;0.4792244;-0.5166205;-0.5356066;12;-54;17;197;4324;103;128;0.4736842;-0.5373961;0.3864266;0.5809503;7;-49;-25;-745;4279;886;4;0.7214644;-0.6911357;0.009695291;0.04155125;-16;-34;-1;-9;4306;212;16;0.5207756;-0.5733253;-0.3891967;-0.4986149;5;-26;8;655;4166;640;2;0.008310249;0.04570637;-0.7264989;-0.6855956;11;-20;11;-641;4188;179;8;0.4930748;-0.5730826;-0.4224377;-0.5;-10;-18;13;-43;4099;267;0.9248639;-0.2477496;0.4071195;0.9308501;0.2977576;0.4098633;0.9361122;0.7772684;0.4102525;0.9303265;1.510849;0.427249;0.6690612;1.835739;0.3966777;0.3288835;1.691403;0.4565567;0.0584145;0.8061156;0.4945325;0;0;0;1.189389;1.839846;0.3966767;1.479417;1.700482;0.4565555;1.674629;0.7609549;0.5429009;1.726676;-0.1380186;0.2480688;0.6126096;-0.2897894;0.3992358;0.5580133;-1.750208;0.3281376;0.4923785;-3.07669;0.5482872;0.6126096;-0.2897894;0.3992358;0.5580133;-1.750208;0.3281376;0.4923785;-3.07669;0.5482872
647393.108;NotLabelled;16384;0.7997904;-0.5941828;-0.01939058;-0.08310249;-1;-41;-10;-636;4054;977;65536;0.7417593;-0.602493;-0.2853186;0.0734072;17;-19;11;-1073;3866;-1173;8192;0.09418282;-0.1551246;-0.7617918;-0.6218836;-13;-53;-36;400;4475;425;32768;-0.2465374;0.02216066;0.717612;0.6509695;5;-43;18;1756;4249;-262;256;-0.4612188;0.4736842;-0.5193906;-0.5414184;8;-51;16;153;4330;3;128;0.4722992;-0.5318559;0.3891967;0.5853108;5;-43;-24;-637;4215;852;4;0.7261436;-0.6855956;0.01800554;0.04847645;-18;-35;2;295;4122;278;16;0.5263157;-0.5755944;-0.3836565;-0.4944598;4;-25;9;195;4098;430;2;0.009695291;0.04293629;-0.7253414;-0.6869806;14;-26;7;-769;4118;221;8;0.4944598;-0.5749341;-0.4182825;-0.5;-11;-19;13;-19;4209;569;0.9019386;-0.2547157;0.4153824;0.9079249;0.2907982;0.415489;0.9131869;0.7703056;0.41356;0.9156519;1.5037;0.4378197;0.6580582;1.831795;0.4104871;0.3162768;1.690708;0.4689606;0.04442019;0.8054762;0.497022;0;0;0;1.178399;1.830049;0.4104863;1.46684;1.686846;0.4689597;1.657181;0.7459435;0.5511007;1.718261;-0.1517906;0.2542347;0.5896839;-0.296793;0.4077187;0.5318231;-1.75713;0.3375213;0.454671;-3.083522;0.5544532;0.5896839;-0.296793;0.4077187;0.5318231;-1.75713;0.3375213;0.454671;-3.083522;0.5544532
647413.9611;NotLabelled;16384;0.8003263;-0.5941828;-0.01385042;-0.07894737;1;-46;-13;-598;3952;1037;65536;0.7444647;-0.601108;-0.2811634;0.0734072;20;-34;17;-1063;3842;-1195;8192;0.1038781;-0.1578947;-0.7610914;-0.6204986;-15;-54;-35;610;4333;429;32768;-0.2534626;0.02493075;0.7163625;0.6495845;3;-44;23;1646;4201;-152;256;-0.4584487;0.468144;-0.5207756;-0.5472282;3;-51;16;223;4296;-167;128;0.4709141;-0.5263157;0.3905817;0.5904893;2;-45;-24;-671;4077;840;4;0.7269846;-0.6842105;0.02077562;0.05401662;-16;-36;5;373;4076;152;16;0.5290859;-0.5751643;-0.3822715;-0.4930748;4;-24;8;263;4040;394;2;0.01246537;0.0401662;-0.7228245;-0.6897507;18;-28;4;-605;4142;-43;8;0.4958449;-0.5745436;-0.4155124;-0.501385;-11;-18;12;11;4113;885;0.9022526;-0.256767;0.4120791;0.9082389;0.2887468;0.4113077;0.9135008;0.76825;0.4086066;0.9189065;1.50158;0.4343056;0.6626309;1.830758;0.4076152;0.3202856;1.690928;0.4658094;0.04347529;0.8072443;0.494229;0;0;0;1.182961;1.826925;0.4076145;1.470824;1.682453;0.4658085;1.661057;0.7408957;0.5403528;1.728825;-0.1547351;0.238624;0.5899978;-0.298857;0.4044887;0.511388;-1.75826;0.3350512;0.4259566;-3.08469;0.5486233;0.5899978;-0.298857;0.4044887;0.511388;-1.75826;0.3350512;0.4259566;-3.08469;0.5486233
647434.9576;NotLabelled;16384;0.7997857;-0.5955678;-0.006925208;-0.07479224;4;-47;-16;-588;3928;1059;65536;0.7467661;-0.601108;-0.2742382;0.07617728;23;-45;22;-1193;3816;-1231;8192;0.1218837;-0.1648199;-0.7603285;-0.6163435;-16;-45;-27;794;4117;511;32768;-0.2686981;0.02770083;0.7132077;0.6468144;-2;-41;39;1404;4023;72;256;-0.4556787;0.4626039;-0.5235457;-0.5515927;-1;-51;17;123;4192;-323;128;0.468144;-0.5207756;0.3933518;0.5957418;4;-51;-25;-649;3973;912;4;0.729178;-0.6814404;0.0235457;0.05817174;-15;-35;7;213;4052;198;16;0.533241;-0.5743465;-0.3795014;-0.4916897;2;-28;8;221;4076;294;2;0.01939058;0.02908587;-0.7192168;-0.6939058;23;-41;10;95;3998;-27;8;0.4972299;-0.579277;-0.4072022;-0.501385;-9;-19;12;85;3929;925;0.8976732;-0.2593;0.4072868;0.9036596;0.2862139;0.4069;0.9089215;0.7657189;0.4045374;0.9193026;1.498937;0.4318627;0.6652676;1.829905;0.4058985;0.3219795;1.692273;0.4637771;0.04391193;0.8089576;0.4913813;0;0;0;1.185559;1.822542;0.4058974;1.472434;1.67599;0.4637754;1.662713;0.7338357;0.5302174;1.73286;-0.1599953;0.2237331;0.5854186;-0.3013844;0.3996642;0.5034227;-1.760258;0.3233531;0.4110157;-3.087099;0.5313975;0.5854186;-0.3013844;0.3996642;0.5034227;-1.760258;0.3233531;0.4110157;-3.087099;0.5313975
647455.1007;NotLabelled;16384;0.8001921;-0.5955678;-0.001385042;-0.07063711;4;-49;-18;-698;3830;1075;65536;0.7505878;-0.599723;-0.265928;0.07894737;26;-47;25;-1269;3654;-1193;8192;0.1288089;-0.16759;-0.7597026;-0.6149584;-14;-41;-22;616;3993;639;32768;-0.2770083;0.02770083;0.708757;0.6481994;-7;-38;47;1278;3929;144;256;-0.4529086;0.4570637;-0.5263157;-0.5558402;-3;-52;16;13;4012;-407;128;0.4653739;-0.5138504;0.3961219;0.6020567;7;-58;-27;-583;3905;984;4;0.7300326;-0.6800554;0.02631579;0.06232687;-15;-38;10;227;4062;328;16;0.536011;-0.5747756;-0.3767313;-0.4903047;0;-30;7;233;4056;422;2;0.02216066;0.0235457;-0.716657;-0.6966759;23;-43;10;-59;4034;-13;8;0.4986149;-0.5800266;-0.4044321;-0.501385;-8;-25;11;197;3937;961;0.8927746;-0.2592399;0.4013951;0.8987609;0.286274;0.4015651;0.9040228;0.7657814;0.3996919;0.91745;1.498969;0.4264895;0.6647916;1.830971;0.4002897;0.3209354;1.694808;0.4582707;0.04430633;0.8111029;0.4877963;0;0;0;1.185048;1.821446;0.4002886;1.471312;1.673746;0.4582694;1.665675;0.7314525;0.5090771;1.734896;-0.1568832;0.1868097;0.5805199;-0.3013167;0.393726;0.489426;-1.759395;0.3126885;0.3862341;-3.086403;0.5144995;0.5805199;-0.3013167;0.393726;0.489426;-1.759395;0.3126885;0.3862341;-3.086403;0.5144995
647476.0752;NotLabelled;16384;0.8004223;-0.5955678;0.004155125;-0.06786703;3;-51;-19;-754;3814;1047;65536;0.7530335;-0.599723;-0.2576177;0.08310249;28;-45;27;-1395;3716;-1231;8192;0.134349;-0.1703601;-0.7592466;-0.6135734;-13;-39;-18;426;3999;591;32768;-0.2867036;0.02770083;0.7048909;0.6481994;-13;-37;50;1280;4023;140;256;-0.4487534;0.4515235;-0.5290859;-0.5610837;0;-57;14;-133;4028;-425;128;0.4626039;-0.5069252;0.400277;0.6072914;11;-63;-26;-565;3909;1140;4;0.730722;-0.6786703;0.02908587;0.06786703;-16;-43;13;251;4110;354;16;0.5387812;-0.5763487;-0.3739612;-0.4875346;0;-29;7;359;4100;474;2;0.02631579;0.0166205;-0.7140074;-0.699446;22;-46;9;-105;4000;75;8;0.501385;-0.5805209;-0.400277;-0.501385;-7;-27;11;87;3941;967;0.8952482;-0.2597897;0.3976201;0.9012345;0.2857242;0.3983608;0.9064966;0.765233;0.396989;0.9229016;1.49838;0.4232147;0.6715931;1.831385;0.3967595;0.3271878;1.696665;0.4548515;0.04943219;0.8132896;0.483645;0;0;0;1.191807;1.819747;0.3967586;1.47747;1.670931;0.4548503;1.672225;0.7285109;0.5016497;1.73612;-0.1566658;0.1697364;0.5829936;-0.3018582;0.3899036;0.4884785;-1.759474;0.3045623;0.3780026;-3.086313;0.5036107;0.5829936;-0.3018582;0.3899036;0.4884785;-1.759474;0.3045623;0.3780026;-3.086313;0.5036107
647497.4421;NotLabelled;16384;0.8009613;-0.5955678;0.01939058;-0.05817174;0;-61;-17;-894;3764;989;65536;0.7607182;-0.5955678;-0.2423823;0.08864266;34;-45;29;-1375;3668;-1349;8192;0.1412742;-0.1745152;-0.7592795;-0.6108033;-13;-43;-15;182;4121;533;32768;-0.2950138;0.02770083;0.7001711;0.6495845;-18;-38;50;1286;3937;154;256;-0.4390582;0.4404432;-0.534626;-0.5721999;4;-66;12;41;3964;-253;128;0.4556787;-0.4944598;0.4072022;0.6181042;9;-61;-24;-631;3873;1156;4;0.7324958;-0.6759003;0.03185596;0.07479224;-17;-44;14;265;4062;410;16;0.5401662;-0.5780106;-0.3711911;-0.4861496;0;-29;7;531;4106;566;2;0.02908587;0.009695291;-0.7113035;-0.702216;22;-46;10;-45;4078;-5;8;0.5027701;-0.5833607;-0.3961219;-0.5;-6;-23;11;11;3993;935;0.8940411;-0.2601211;0.3940472;0.9000275;0.2853932;0.3940077;0.9052894;0.7648993;0.3919501;0.9241992;1.497942;0.4193861;0.6740316;1.831847;0.3934711;0.3291655;1.69821;0.4513281;0.04999383;0.8152838;0.4802178;0;0;0;1.194203;1.818432;0.3934703;1.479352;1.668545;0.451327;1.674705;0.7261763;0.4966574;1.736425;-0.1547613;0.1532526;0.5817864;-0.3022008;0.3863956;0.4847506;-1.759203;0.2937325;0.3702164;-3.086165;0.4896424;0.5817864;-0.3022008;0.3863956;0.4847506;-1.759203;0.2937325;0.3702164;-3.086165;0.4896424
647517.9907;NotLabelled;16384;0.802128;-0.5941828;0.02770083;-0.05263158;-3;-69;-17;-818;3748;983;65536;0.7640686;-0.5941828;-0.234072;0.09141274;37;-51;29;-1391;3700;-1237;8192;0.1481994;-0.1772853;-0.7584301;-0.6094183;-12;-52;-14;-44;4219;565;32768;-0.3047091;0.02908587;0.6946546;0.6509695;-23;-45;47;1342;3897;86;256;-0.433518;0.433518;-0.5373961;-0.5790766;5;-70;12;69;3994;-213;128;0.4515235;-0.4875346;0.4113573;0.6238763;10;-63;-24;-751;3845;1092;4;0.7361011;-0.6703601;0.03739612;0.08587258;-19;-35;13;217;4092;502;16;0.5457063;-0.5795336;-0.3642659;-0.4833795;1;-25;7;529;4064;722;2;0.033241;0.004155125;-0.7098051;-0.7036011;20;-42;10;-75;4228;81;8;0.5041551;-0.5849698;-0.3919668;-0.5;-5;-21;10;79;4059;825;0.8994995;-0.2614443;0.3807083;0.9054858;0.2840691;0.3816532;0.9107478;0.7635784;0.380461;0.9338515;1.496341;0.4118868;0.6856053;1.83181;0.3877535;0.3399694;1.699837;0.4448343;0.0578642;0.817883;0.4748853;0;0;0;1.205691;1.815414;0.3877527;1.489967;1.663583;0.4448329;1.687679;0.7218084;0.4922211;1.752015;-0.1556063;0.1403806;0.587245;-0.30351;0.3729746;0.4851722;-1.759294;0.2674545;0.3623191;-3.085801;0.4613909;0.587245;-0.30351;0.3729746;0.4851722;-1.759294;0.2674545;0.3623191;-3.085801;0.4613909
647539.0776;NotLabelled;16384;0.8021591;-0.5941828;0.03739612;-0.04570637;-3;-75;-19;-834;3724;975;65536;0.7681988;-0.5914127;-0.2257618;0.09556787;41;-58;29;-1371;3814;-1245;8192;0.166205;-0.1883656;-0.7542362;-0.6066482;-11;-70;-18;-190;4263;489;32768;-0.3240997;0.03739612;0.6827778;0.6537396;-28;-69;34;1438;3807;30;256;-0.4279778;0.4279778;-0.5415512;-0.5834314;5;-73;11;91;3974;-283;128;0.4473684;-0.4792244;0.4155124;0.6305196;12;-64;-23;-737;3893;1032;4;0.7378035;-0.66759;0.0401662;0.09141274;-17;-43;13;169;4168;344;16;0.5484765;-0.5798066;-0.3614958;-0.4819945;3;-27;8;571;4056;746;2;0.03601108;0;-0.706925;-0.7063712;19;-41;9;-137;4138;-107;8;0.5055401;-0.5856237;-0.3891967;-0.5;-6;-22;10;91;4049;839;0.9010493;-0.2632654;0.3738515;0.9070355;0.2822471;0.3752573;0.9122976;0.7617574;0.3744702;0.9387877;1.494283;0.4086396;0.6920998;1.830984;0.3857321;0.3458491;1.7004;0.4422781;0.05936357;0.8198261;0.4713371;0;0;0;1.212104;1.812183;0.3857311;1.495667;1.658825;0.4422766;1.693467;0.7169437;0.4871171;1.753673;-0.1568122;0.1255753;0.5887949;-0.3053246;0.3660794;0.4711141;-1.75873;0.2451545;0.3346765;-3.084316;0.4362913;0.5887949;-0.3053246;0.3660794;0.4711141;-1.75873;0.2451545;0.3346765;-3.084316;0.4362913
647560.1122;NotLabelled;16384;0.8030375;-0.5927978;0.04709141;-0.03878116;-1;-79;-20;-752;3756;981;65536;0.7723938;-0.5886427;-0.2160665;0.101108;46;-66;29;-1345;3752;-1169;8192;0.1759003;-0.1939058;-0.7528551;-0.6038781;-11;-77;-22;-170;4167;393;32768;-0.333795;0.04293629;0.6777624;0.6537396;-29;-80;28;1498;3711;-36;256;-0.4224377;0.4210526;-0.5443213;-0.5898944;6;-75;10;145;4050;-331;128;0.4445983;-0.4722992;0.4196676;0.634937;13;-62;-22;-891;3977;920;4;0.7381921;-0.666205;0.04293629;0.09695291;-18;-46;11;175;4094;232;16;0.5512465;-0.5800497;-0.3587258;-0.4806094;5;-28;7;421;4058;702;2;0.04432133;-0.01246537;-0.700831;-0.71184;20;-45;7;-301;4056;-95;8;0.5096953;-0.5877605;-0.3822715;-0.4986149;-6;-23;9;203;3969;777;0.907796;-0.263211;0.3701487;0.9137823;0.2823;0.3719859;0.9190444;0.7618103;0.3715783;0.9453205;1.494324;0.4061727;0.698535;1.830967;0.3834552;0.3523211;1.70025;0.4399182;0.06463642;0.820106;0.4701546;0;0;0;1.218545;1.812317;0.3834543;1.502151;1.659009;0.439917;1.69832;0.7163773;0.475122;1.738884;-0.1524851;0.09932947;0.5955417;-0.305264;0.3623405;0.4714892;-1.757375;0.2325637;0.3270207;-3.082734;0.4193286;0.5955417;-0.305264;0.3623405;0.4714892;-1.757375;0.2325637;0.3270207;-3.082734;0.4193286
647579.962;NotLabelled;16384;0.8027149;-0.5927978;0.0567867;-0.03185596;0;-83;-22;-636;3810;1039;65536;0.7765712;-0.5858725;-0.2049861;0.1080332;50;-74;29;-1375;3800;-1115;8192;0.1869806;-0.200831;-0.7494714;-0.602493;-11;-81;-25;0;4107;397;32768;-0.3448753;0.05124654;0.6716095;0.6537396;-30;-87;23;1372;3643;-16;256;-0.4155124;0.4141274;-0.5484765;-0.5958368;7;-76;10;333;4126;-357;128;0.4404432;-0.4653739;0.4238227;0.640165;13;-60;-23;-877;3995;914;4;0.7396836;-0.6634349;0.04709141;0.1024931;-17;-44;11;327;4004;264;16;0.5540166;-0.5814041;-0.3559557;-0.4778393;5;-29;6;283;4060;654;2;0.04847645;-0.01800554;-0.699446;-0.7128121;20;-47;5;-221;4096;-243;8;0.5110803;-0.5895236;-0.3795014;-0.4972299;-7;-26;8;299;4011;833;0.9131271;-0.2664998;0.3684237;0.9191134;0.2790141;0.3691728;0.9243754;0.758523;0.3678086;0.9536987;1.490798;0.4049104;0.7083211;1.828541;0.3833138;0.3615581;1.699076;0.4392871;0.06986563;0.82024;0.4691705;0;0;0;1.228248;1.807725;0.3833129;1.511206;1.653044;0.4392859;1.709024;0.7106366;0.4710852;1.74704;-0.1562045;0.09039021;0.6008726;-0.3085682;0.3607063;0.4764604;-1.759884;0.2226385;0.3236064;-3.084995;0.4044172;0.6008726;-0.3085682;0.3607063;0.4764604;-1.759884;0.2226385;0.3236064;-3.084995;0.4044172
647600.9503;NotLabelled;16384;0.8022572;-0.5927978;0.06648199;-0.0235457;2;-87;-23;-582;3806;1053;65536;0.7806353;-0.5831025;-0.1925208;0.1163435;52;-80;30;-1407;3676;-1049;8192;0.1980609;-0.2063712;-0.7473387;-0.599723;-11;-84;-28;50;3989;337;32768;-0.3545706;0.05955679;0.6672078;0.6523545;-30;-90;18;1366;3619;-42;256;-0.4085872;0.4058172;-0.5512465;-0.6037352;7;-75;10;387;4082;-319;128;0.4376731;-0.4584487;0.4279778;0.6442841;13;-58;-22;-879;3953;988;4;0.7411914;-0.6606648;0.04986149;0.1080332;-15;-43;12;373;3954;344;16;0.5567867;-0.5827158;-0.3531856;-0.4750692;6;-32;4;307;4080;566;2;0.05401662;-0.02493075;-0.6966759;-0.7149149;21;-48;4;-79;4188;-211;8;0.5124654;-0.5909796;-0.3753462;-0.4972299;-6;-25;9;241;4017;899;0.9184396;-0.2671082;0.3649304;0.9244259;0.2784052;0.3659093;0.9296879;0.7579145;0.364747;0.9596415;1.490067;0.4037043;0.7145587;1.828078;0.3829373;0.3676777;1.698771;0.4385476;0.07500918;0.8202567;0.4683476;0;0;0;1.234468;1.80681;0.3829365;1.517286;1.651743;0.4385468;1.712308;0.708642;0.4668534;1.74601;-0.1569095;0.08283186;0.6061851;-0.3091736;0.3571939;0.4762136;-1.759343;0.2123703;0.3182944;-3.084561;0.3889649;0.6061851;-0.3091736;0.3571939;0.4762136;-1.759343;0.2123703;0.3182944;-3.084561;0.3889649
647642.0505;NotLabelled;16384;0.8015407;-0.5900277;0.09695291;0;2;-88;-24;-250;3948;1179;65536;0.790917;-0.5747922;-0.1565097;0.1398892;51;-84;35;-1517;3690;-919;8192;0.2354571;-0.2271468;-0.7359043;-0.5927978;-11;-87;-34;236;3871;217;32768;-0.3836565;0.08864266;0.6517574;0.6481994;-27;-91;14;1440;3631;-120;256;-0.3905817;0.3850415;-0.5595568;-0.6213575;5;-71;11;331;3992;-351;128;0.4293629;-0.4376731;0.4362881;0.6585913;10;-55;-22;-1029;3911;976;4;0.7422001;-0.6551247;0.06094183;0.1274238;-12;-51;15;297;3978;406;16;0.566482;-0.5872592;-0.3448753;-0.4639889;5;-44;-1;427;3916;448;2;0.06232687;-0.03601108;-0.6911357;-0.7191314;20;-47;3;141;4142;-279;8;0.5166205;-0.5928804;-0.368421;-0.4958449;-4;-27;7;279;4021;1109;0.9189613;-0.269654;0.3637367;0.9249475;0.2758603;0.3635015;0.9302096;0.7553658;0.3612721;0.963868;1.487139;0.404147;0.7205083;1.826494;0.3851325;0.3729622;1.698655;0.4399755;0.07993299;0.8201914;0.4676471;0;0;0;1.240303;1.802589;0.3851317;1.522317;1.645794;0.4399743;1.718192;0.7027416;0.4636476;1.752962;-0.1621308;0.07819462;0.6067066;-0.3117366;0.3561015;0.4724992;-1.760464;0.2010724;0.3092256;-3.085787;0.3719181;0.6067066;-0.3117366;0.3561015;0.4724992;-1.760464;0.2010724;0.3092256;-3.085787;0.3719181
647661.9509;NotLabelled;16384;0.8012846;-0.5886427;0.1066482;0.008310249;1;-86;-25;-184;3974;1163;65536;0.7940324;-0.5720221;-0.1440443;0.1468144;49;-78;38;-1577;3720;-879;8192;0.2465374;-0.234072;-0.732323;-0.5900277;-10;-84;-35;294;3871;255;32768;-0.3933518;0.09833795;0.6440443;0.6486995;-25;-87;15;1370;3733;-158;256;-0.3850415;0.3781163;-0.5623268;-0.6265457;5;-70;12;401;4024;-401;128;0.4252077;-0.4307479;0.4404432;0.6630719;12;-54;-21;-995;3941;964;4;0.7431855;-0.6523545;0.06371191;0.134349;-13;-52;16;359;3968;542;16;0.5706371;-0.5881243;-0.3421052;-0.4598338;5;-40;0;437;3988;420;2;0.07063711;-0.04847645;-0.6869806;-0.7216079;17;-43;4;235;4184;-175;8;0.5193906;-0.5970188;-0.3614958;-0.4930748;-2;-22;7;199;3941;999;0.9347153;-0.2756484;0.3510586;0.9407016;0.2698655;0.3511682;0.9459636;0.749373;0.3492417;0.9858443;1.480347;0.399717;0.7454018;1.821949;0.3841054;0.3967458;1.696521;0.4374542;0.09774292;0.8200536;0.4644949;0;0;0;1.264973;1.793605;0.384105;1.545607;1.633847;0.4374539;1.736633;0.6895194;0.4428854;1.765173;-0.1755505;0.05736303;0.6224607;-0.3177257;0.3433946;0.4870686;-1.763332;0.1624258;0.3148868;-3.089878;0.3139437;0.6224607;-0.3177257;0.3433946;0.4870686;-1.763332;0.1624258;0.3148868;-3.089878;0.3139437
647682.2717;NotLabelled;16384;0.7998049;-0.5886427;0.1163435;0.0166205;0;-82;-26;-130;4042;1285;65536;0.7969069;-0.5692521;-0.132964;0.1523546;47;-73;41;-1601;3726;-927;8192;0.2590028;-0.2396122;-0.7284449;-0.5872576;-8;-79;-36;304;3879;249;32768;-0.4030471;0.1066482;0.6398892;0.6455393;-24;-82;16;1348;3711;-64;256;-0.3781163;0.3711911;-0.5650969;-0.6323849;5;-69;13;423;4036;-427;128;0.4224377;-0.4238227;0.4432133;0.6674449;12;-55;-22;-1053;3999;884;4;0.7436951;-0.6495845;0.06786703;0.1426593;-12;-50;17;517;3984;592;16;0.5734072;-0.5891932;-0.3393352;-0.4570637;6;-36;0;635;4058;400;2;0.07479224;-0.05401662;-0.6842105;-0.7234254;16;-41;3;157;4136;-193;8;0.5207756;-0.5986233;-0.3587258;-0.4916897;0;-25;7;291;3903;953;0.9409537;-0.2770045;0.3476837;0.94694;0.2685094;0.3477097;0.952202;0.7480164;0.3457098;0.9941004;1.478755;0.3979409;0.7546071;1.821057;0.3831162;0.4055977;1.696469;0.4361189;0.1044632;0.820693;0.4618951;0;0;0;1.274098;1.791275;0.3831156;1.554281;1.630612;0.4361184;1.744666;0.6861405;0.4373288;1.764837;-0.1789212;0.05125928;0.6286991;-0.3190832;0.3400266;0.4909498;-1.762878;0.1467935;0.3155757;-3.090035;0.2890139;0.6286991;-0.3190832;0.3400266;0.4909498;-1.762878;0.1467935;0.3155757;-3.090035;0.2890139
