SEP=;
index;label;RightUpperArm_boneIndex;RightUpperArm_quat9x_w;RightUpperArm_quat9x_x;RightUpperArm_quat9x_y;RightUpperArm_quat9x_z;RightUpperArm_gyroscope_x;RightUpperArm_gyroscope_y;RightUpperArm_gyroscope_z;RightUpperArm_accelerometer_x;RightUpperArm_accelerometer_y;RightUpperArm_accelerometer_z;RightLowerArm_boneIndex;RightLowerArm_quat9x_w;RightLowerArm_quat9x_x;RightLowerArm_quat9x_y;RightLowerArm_quat9x_z;RightLowerArm_gyroscope_x;RightLowerArm_gyroscope_y;RightLowerArm_gyroscope_z;RightLowerArm_accelerometer_x;RightLowerArm_accelerometer_y;RightLowerArm_accelerometer_z;LeftUpperArm_boneIndex;LeftUpperArm_quat9x_w;LeftUpperArm_quat9x_x;LeftUpperArm_quat9x_y;LeftUpperArm_quat9x_z;LeftUpperArm_gyroscope_x;LeftUpperArm_gyroscope_y;LeftUpperArm_gyroscope_z;LeftUpperArm_accelerometer_x;LeftUpperArm_accelerometer_y;LeftUpperArm_accelerometer_z;LeftLowerArm_boneIndex;LeftLowerArm_quat9x_w;LeftLowerArm_quat9x_x;LeftLowerArm_quat9x_y;LeftLowerArm_quat9x_z;LeftLowerArm_gyroscope_x;LeftLowerArm_gyroscope_y;LeftLowerArm_gyroscope_z;LeftLowerArm_accelerometer_x;LeftLowerArm_accelerometer_y;LeftLowerArm_accelerometer_z;Chest_boneIndex;Chest_quat9x_w;Chest_quat9x_x;Chest_quat9x_y;Chest_quat9x_z;Chest_gyroscope_x;Chest_gyroscope_y;Chest_gyroscope_z;Chest_accelerometer_x;Chest_accelerometer_y;Chest_accelerometer_z;Spine_boneIndex;Spine_quat9x_w;Spine_quat9x_x;Spine_quat9x_y;Spine_quat9x_z;Spine_gyroscope_x;Spine_gyroscope_y;Spine_gyroscope_z;Spine_accelerometer_x;Spine_accelerometer_y;Spine_accelerometer_z;RightUpperLeg_boneIndex;RightUpperLeg_quat9x_w;RightUpperLeg_quat9x_x;RightUpperLeg_quat9x_y;RightUpperLeg_quat9x_z;RightUpperLeg_gyroscope_x;RightUpperLeg_gyroscope_y;RightUpperLeg_gyroscope_z;RightUpperLeg_accelerometer_x;RightUpperLeg_accelerometer_y;RightUpperLeg_accelerometer_z;RightLowerLeg_boneIndex;RightLowerLeg_quat9x_w;RightLowerLeg_quat9x_x;RightLowerLeg_quat9x_y;RightLowerLeg_quat9x_z;RightLowerLeg_gyroscope_x;RightLowerLeg_gyroscope_y;RightLowerLeg_gyroscope_z;RightLowerLeg_accelerometer_x;RightLowerLeg_accelerometer_y;RightLowerLeg_accelerometer_z;LeftUpperLeg_boneIndex;LeftUpperLeg_quat9x_w;LeftUpperLeg_quat9x_x;LeftUpperLeg_quat9x_y;LeftUpperLeg_quat9x_z;LeftUpperLeg_gyroscope_x;LeftUpperLeg_gyroscope_y;LeftUpperLeg_gyroscope_z;LeftUpperLeg_accelerometer_x;LeftUpperLeg_accelerometer_y;LeftUpperLeg_accelerometer_z;LeftLowerLeg_boneIndex;LeftLowerLeg_quat9x_w;LeftLowerLeg_quat9x_x;LeftLowerLeg_quat9x_y;LeftLowerLeg_quat9x_z;LeftLowerLeg_gyroscope_x;LeftLowerLeg_gyroscope_y;LeftLowerLeg_gyroscope_z;LeftLowerLeg_accelerometer_x;LeftLowerLeg_accelerometer_y;LeftLowerLeg_accelerometer_z;pelvis_x;pelvis_y;pelvis_z;lowerSpine_x;lowerSpine_y;lowerSpine_z;middleSpine_x;middleSpine_y;middleSpine_z;upperSpine_x;upperSpine_y;upperSpine_z;rightClavicle_x;rightClavicle_y;rightClavicle_z;rightShoulder_x;rightShoulder_y;rightShoulder_z;rightElbow_x;rightElbow_y;rightElbow_z;rightWrist_x;rightWrist_y;rightWrist_z;leftClavicle_x;leftClavicle_y;leftClavicle_z;leftShoulder_x;leftShoulder_y;leftShoulder_z;leftElbow_x;leftElbow_y;leftElbow_z;leftWrist_x;leftWrist_y;leftWrist_z;rightHip_x;rightHip_y;rightHip_z;rightKnee_x;rightKnee_y;rightKnee_z;rightAnkle_x;rightAnkle_y;rightAnkle_z;leftHip_x;leftHip_y;leftHip_z;leftKnee_x;leftKnee_y;leftKnee_z;leftAnkle_x;leftAnkle_y;leftAnkle_z;
1284299.3804;NotLabelled;16384;-0.5235457;0.4432133;-0.5954004;-0.4182825;4;51;30;-682;3874;1085;65536;0.7001848;-0.3407202;0.4016621;0.4819945;-32;50;-32;-1445;3758;-1177;8192;0.680935;-0.599723;-0.3310249;-0.2590028;-3;63;45;-158;4247;135;32768;0.7433519;-0.5484765;-0.2423823;-0.2963989;22;66;-65;972;4205;-316;256;0.05817174;-0.1260388;-0.6952909;-0.7051957;15;61;-17;459;4054;-247;128;-0.01939058;0.1814404;0.6357341;0.7500303;-24;53;24;-899;3949;792;4;-0.533241;0.299169;-0.5387812;-0.5795402;30;63;-17;-259;4050;1020;16;0.4418283;-0.8924667;0.08171745;0.0401662;2;46;30;-279;2096;3066;2;0.5952682;-0.5540166;-0.3476454;-0.466759;-21;45;-7;-601;4134;-389;8;0.6357341;-0.7112603;0.2202216;0.2036011;-9;28;-10;333;4145;175;0.7626992;2.491136;-0.3323767;0.7686727;3.035491;-0.3679327;0.773922;3.513846;-0.4012049;0.8452413;4.243939;-0.3827558;0.6195635;4.594541;-0.4126797;0.2660922;4.486628;-0.3530811;0.01321233;3.595914;-0.3212731;-0.09315121;2.775699;-0.7835836;1.137443;4.543955;-0.4126809;1.411212;4.374773;-0.3530828;1.549898;3.421731;-0.3805099;1.643675;2.514967;-0.6389173;0.45044;2.448655;-0.3370495;0.2177725;1.074221;-0.781634;0;0;0;0.45044;2.448655;-0.3370495;0.2177725;1.074221;-0.781634;0;0;0
1284320.313;NotLabelled;16384;-0.5290859;0.4459834;-0.5893754;-0.4168975;5;48;31;-666;3888;1037;65536;0.703811;-0.3448753;0.3933518;0.4806094;-32;46;-32;-1439;3728;-1239;8192;0.6762961;-0.5983379;-0.3407202;-0.2617728;-1;65;44;-76;4331;97;32768;0.7391621;-0.5470914;-0.2562327;-0.2977839;23;70;-68;996;4265;-308;256;0.04709141;-0.1080332;-0.6925207;-0.7117066;17;60;-20;439;4058;-263;128;-0.009695291;0.1648199;0.6315789;0.7575279;-37;55;26;-917;4031;858;4;-0.534626;0.3102493;-0.536011;-0.5749892;25;62;-31;-235;4100;894;16;0.4418283;-0.8932412;0.07617728;0.033241;16;44;24;-101;1968;3618;2;0.592581;-0.5498615;-0.3531856;-0.4709141;-21;46;-7;-745;4072;-363;8;0.6357341;-0.7129279;0.2160665;0.2022161;-9;29;-11;367;4081;247;0.7555239;2.49355;-0.3569199;0.7614988;3.038037;-0.3903897;0.7667496;3.516516;-0.4218285;0.835133;4.246864;-0.4023914;0.6080521;4.596597;-0.4318749;0.2550097;4.487185;-0.3724673;0.004986688;3.595628;-0.341759;-0.09952302;2.776621;-0.8066285;1.12613;4.548092;-0.4318761;1.400569;4.37993;-0.3724687;1.543504;3.427322;-0.3920332;1.644844;2.518532;-0.6402617;0.4432649;2.451087;-0.3617686;0.2127315;1.070517;-0.7880772;0;0;0;0.4432649;2.451087;-0.3617686;0.2127315;1.070517;-0.7880772;0;0;0
1284341.2496;NotLabelled;16384;-0.533241;0.4487534;-0.5844859;-0.4155124;6;44;30;-514;4004;1037;65536;0.7065382;-0.3490305;0.3864266;0.4792244;-31;41;-32;-1359;3806;-1231;8192;0.6709237;-0.5969529;-0.3504155;-0.265928;0;70;43;-26;4307;151;32768;0.7341165;-0.5457063;-0.2700831;-0.300554;24;76;-69;1036;4253;-242;256;0.04293629;-0.09972299;-0.6911357;-0.7145231;14;59;-20;355;4064;-215;128;-0.005540166;0.1565097;0.6274238;0.7627669;-36;55;26;-809;4117;834;4;-0.533241;0.3213296;-0.536011;-0.5701697;28;46;-42;227;4238;914;16;0.4418283;-0.8937308;0.07202215;0.02908587;10;30;11;-403;1474;4914;2;0.5918878;-0.5443213;-0.3573407;-0.4750692;-23;46;-7;-743;4076;-471;8;0.6357341;-0.7149525;0.2119114;0.199446;-10;32;-12;275;4141;201;0.7362953;2.499106;-0.3879876;0.742274;3.043934;-0.4153501;0.7475283;3.522735;-0.441422;0.8081005;4.25354;-0.4146238;0.5773262;4.60111;-0.4408236;0.225422;4.487353;-0.3828425;-0.02045795;3.594712;-0.3501975;-0.1315423;2.776446;-0.8148453;1.095892;4.558132;-0.4408248;1.37206;4.392321;-0.3828443;1.518964;3.440229;-0.3975934;1.624145;2.529283;-0.6361315;0.4240371;2.4567;-0.3933506;0.1900934;1.069419;-0.7953202;0;0;0;0.4240371;2.4567;-0.3933506;0.1900934;1.069419;-0.7953202;0;0;0
1284361.1654;NotLabelled;16384;-0.5443213;0.4542936;-0.5718176;-0.4127424;7;45;30;-336;4092;1027;65536;0.7121673;-0.3559557;0.3711911;0.4778393;-29;38;-30;-1467;3842;-1171;8192;0.6645862;-0.5955678;-0.3614958;-0.2700831;1;75;42;-32;4295;225;32768;0.7292517;-0.5429363;-0.2853186;-0.3033241;24;82;-68;1136;4305;-248;256;0.03878116;-0.09141274;-0.6911357;-0.7158709;12;58;-20;291;4210;-225;128;0;0.1481994;0.6260388;0.7655798;-29;52;26;-779;4163;756;4;-0.5318559;0.33241;-0.534626;-0.5663991;26;50;-46;259;4680;786;16;0.4418283;-0.8940355;0.06925207;0.02631579;4;26;0;-173;2802;4286;2;0.5909407;-0.5401662;-0.3614958;-0.4778393;-24;45;-7;-769;4014;-533;8;0.6371191;-0.7157248;0.2063712;0.1980609;-11;29;-12;375;4039;205;0.7225152;2.506924;-0.4179549;0.7284968;3.052015;-0.4394323;0.7337538;3.53107;-0.4603321;0.7898328;4.262103;-0.4301758;0.5569402;4.608366;-0.4548762;0.20572;4.49219;-0.3975483;-0.03704623;3.598657;-0.3660356;-0.145473;2.780366;-0.8312683;1.07576;4.56857;-0.4548773;1.352919;4.404191;-0.3975495;1.502331;3.452403;-0.404543;1.615486;2.53938;-0.6312031;0.4102576;2.464578;-0.4238125;0.1810384;1.068824;-0.7982276;0;0;0;0.4102576;2.464578;-0.4238125;0.1810384;1.068824;-0.7982276;0;0;0
1284381.5133;NotLabelled;16384;-0.5484765;0.4570637;-0.566614;-0.4113573;6;48;30;-394;4156;949;65536;0.7145782;-0.3601108;0.3642659;0.4764543;-28;41;-29;-1489;3856;-1239;8192;0.651956;-0.5914127;-0.3822715;-0.2811634;5;86;38;-4;4287;299;32768;0.7178017;-0.5373961;-0.3144044;-0.3116343;24;93;-66;1270;4237;-250;256;0.03462604;-0.08310249;-0.6897507;-0.7184282;14;57;-21;203;4214;-289;128;0.002770083;0.1398892;0.6232687;0.7693891;-27;49;24;-681;4131;758;4;-0.5290859;0.3531856;-0.534626;-0.55633;23;45;-55;-215;4380;714;16;0.4445983;-0.8931811;0.06094183;0.02908587;24;-1;-29;285;2444;3462;2;0.5901821;-0.5290859;-0.3698061;-0.4847645;-24;35;-10;-1037;3970;-473;8;0.6357341;-0.7189126;0.199446;0.1980609;-13;21;-15;303;4161;293;0.7025576;2.514264;-0.4449369;0.70854;3.059429;-0.4644613;0.7137978;3.538556;-0.4836447;0.7657303;4.269875;-0.4530014;0.5308796;4.614829;-0.4774844;0.180321;4.496625;-0.4202513;-0.05590893;3.600981;-0.4016309;-0.148866;2.784432;-0.8732277;1.049917;4.577974;-0.4774852;1.328001;4.415132;-0.4202522;1.480733;3.46385;-0.4169769;1.604909;2.549512;-0.6322786;0.3903002;2.471941;-0.4509584;0.1701382;1.068453;-0.8011165;0;0;0;0.3903002;2.471941;-0.4509584;0.1701382;1.068453;-0.8011165;0;0;0
1284402.3822;NotLabelled;16384;-0.5540166;0.4612188;-0.5588073;-0.4099723;6;50;30;-364;4198;907;65536;0.7178031;-0.3642659;0.3573407;0.4736842;-27;43;-27;-1521;3894;-1255;8192;0.6454264;-0.5886427;-0.3933518;-0.2867036;6;89;36;-18;4231;409;32768;0.7116122;-0.533241;-0.3296399;-0.3171745;23;97;-64;1234;4223;-226;256;0.03047091;-0.07479224;-0.6883656;-0.720854;15;55;-21;73;4252;-269;128;0.006925208;0.1315789;0.6218836;0.7719454;-32;45;22;-609;4179;852;4;-0.5263157;0.3642659;-0.536011;-0.5504491;21;26;-56;-41;4434;496;16;0.4487534;-0.8908068;0.06232687;0.03462604;29;-27;-35;387;3566;2990;2;0.5887209;-0.5249307;-0.3725762;-0.4889196;-24;29;-11;-965;3940;-411;8;0.6357341;-0.7200525;0.1952908;0.1980609;-13;18;-16;289;4065;443;0.6565527;2.533452;-0.4930639;0.6625366;3.078738;-0.5088218;0.6677957;3.557986;-0.5246949;0.71536;4.289458;-0.4908025;0.4784648;4.633113;-0.5138341;0.1286005;4.512569;-0.4572342;-0.1043993;3.616048;-0.440244;-0.1946664;2.799473;-0.9123187;0.9977123;4.599352;-0.5138348;1.276745;4.437917;-0.457235;1.432728;3.4874;-0.4357338;1.57713;2.570711;-0.6270865;0.3442959;2.491171;-0.4994012;0.138949;1.073964;-0.7997634;0;0;0;0.3442959;2.491171;-0.4994012;0.138949;1.073964;-0.7997634;0;0;0
1284423.1779;NotLabelled;16384;0.5616254;-0.4639889;0.5498615;0.4085872;5;51;31;-396;4138;815;65536;0.7213846;-0.367036;0.3490305;0.4722992;-26;44;-26;-1475;3922;-1163;8192;0.6400856;-0.5844875;-0.4030471;-0.2936288;8;89;33;-58;4147;481;32768;0.7056471;-0.5290859;-0.3434903;-0.3227147;21;96;-61;1350;4085;-250;256;0.02631579;-0.06648199;-0.6869806;-0.7231495;15;50;-22;-19;4146;-277;128;0.009695291;0.1246537;0.6177285;0.7763883;-34;39;21;-561;4183;808;4;-0.5207756;0.3725762;-0.5387812;-0.5474437;21;17;-55;153;4266;614;16;0.4529086;-0.88814;0.06509695;0.04293629;34;-51;-37;645;3520;2624;2;0.5894992;-0.5207756;-0.3753462;-0.4903047;-24;24;-12;-827;4054;-353;8;0.6357341;-0.7211666;0.1911357;0.1980609;-12;14;-16;235;4059;467;0.6257161;2.548825;-0.5191095;0.6317005;3.094161;-0.5330505;0.6369601;3.573459;-0.5473267;0.6802282;4.305043;-0.5102431;0.4413289;4.6474;-0.5318483;0.09216246;4.524564;-0.4758715;-0.1349949;3.626472;-0.4632759;-0.2241123;2.810173;-0.9360451;0.9607654;4.616683;-0.5318489;1.240725;4.456641;-0.4758722;1.399592;3.506815;-0.4464061;1.552614;2.589575;-0.6281794;0.3134595;2.506565;-0.5255989;0.1124966;1.082125;-0.7928908;0;0;0;0.3134595;2.506565;-0.5255989;0.1124966;1.082125;-0.7928908;0;0;0
1284443.1671;NotLabelled;16384;0.5680394;-0.466759;0.5429363;0.4058172;4;51;31;-514;4092;803;65536;0.7243781;-0.3711911;0.3421052;0.4695291;-24;45;-25;-1493;3878;-1125;8192;0.6322742;-0.5817174;-0.4141274;-0.300554;10;86;32;-126;4049;539;32768;0.6986365;-0.5249307;-0.3573407;-0.3296399;18;94;-57;1384;3923;-264;256;0.02077562;-0.05124654;-0.6842105;-0.7271851;14;42;-20;-97;4104;-189;128;0.01523546;0.1121884;0.6121883;0.7825644;-32;29;18;-489;4121;824;4;-0.5152354;0.3808864;-0.5415512;-0.5442244;20;6;-50;315;4092;358;16;0.4584487;-0.8844258;0.07063711;0.05124654;37;-53;-36;449;3660;2254;2;0.591116;-0.5166205;-0.3767313;-0.4916897;-25;17;-11;-775;4014;-243;8;0.6357341;-0.7215136;0.1883656;0.199446;-11;11;-17;221;4051;535;0.5886979;2.563666;-0.5426522;0.5946836;3.109118;-0.5509016;0.5999445;3.588539;-0.5601753;0.6389678;4.320196;-0.51994;0.3981127;4.661258;-0.54025;0.04962297;4.536174;-0.4850409;-0.172902;3.636987;-0.4684887;-0.2588407;2.822804;-0.9454774;0.9177177;4.633536;-0.5400206;1.198558;4.474873;-0.4845327;1.360204;3.525882;-0.4450142;1.520456;2.608294;-0.6186244;0.276442;2.521477;-0.549618;0.0817993;1.090554;-0.7850652;0;0;0;0.276442;2.521477;-0.549618;0.0817993;1.090554;-0.7850652;0;0;0
1284464.3405;NotLabelled;16384;0.5769675;-0.4736842;0.5304709;0.4016621;1;46;32;-626;4016;617;65536;0.7301232;-0.3781163;0.3296399;0.4639889;-19;41;-25;-1463;3854;-1039;8192;0.6259576;-0.5789474;-0.4224377;-0.3074792;12;77;30;-238;3989;601;32768;0.6915534;-0.5221606;-0.3698061;-0.33518;13;90;-53;1380;3863;-274;256;0.01939058;-0.04293629;-0.6828254;-0.7290609;13;37;-20;-221;4160;-165;128;0.01800554;0.1080332;0.6080332;0.7863207;-33;27;17;-485;4041;800;4;-0.5110803;0.3864266;-0.5442368;-0.5415512;22;0;-44;527;4012;296;16;0.4639889;-0.880759;0.07479224;0.05817174;38;-35;-32;133;3740;1918;2;0.5918068;-0.5124654;-0.3795014;-0.4930748;-25;11;-12;-597;4010;-107;8;0.634349;-0.7230647;0.1855956;0.200831;-9;9;-20;217;4017;637;0.5475043;2.580276;-0.5640827;0.5534906;3.125791;-0.5648963;0.5587525;3.605293;-0.5676342;0.5879824;4.337056;-0.5214791;0.3425804;4.675018;-0.5390252;-0.004196916;4.544837;-0.484826;-0.2253745;3.645165;-0.4838762;-0.3160504;2.831191;-0.9603428;0.8625099;4.654253;-0.5390263;1.145456;4.49892;-0.4848276;1.307307;3.549932;-0.4461268;1.470593;2.631715;-0.6134695;0.2352495;2.538186;-0.5716696;0.04502409;1.101439;-0.7727431;0;0;0;0.2352495;2.538186;-0.5716696;0.04502409;1.101439;-0.7727431;0;0;0
1284485.2208;NotLabelled;16384;0.5819532;-0.4764543;0.5235457;0.400277;1;41;32;-652;3976;597;65536;0.73204;-0.3808864;0.3240997;0.4626039;-16;36;-26;-1459;3882;-1079;8192;0.6149523;-0.5734072;-0.4376731;-0.3185596;16;58;27;-292;3859;673;32768;0.6790589;-0.5152354;-0.3905817;-0.3476454;7;76;-45;1406;3731;-374;256;0.01800554;-0.03739612;-0.6828254;-0.7294016;13;33;-19;-305;4032;-221;128;0.01939058;0.1024931;0.6052631;0.7891614;-34;27;16;-531;3891;918;4;-0.501385;0.3961219;-0.5462809;-0.5415512;27;4;-34;875;3854;160;16;0.4764543;-0.8734859;0.07479224;0.06648199;37;3;-18;473;3802;1694;2;0.5933428;-0.5083103;-0.3808864;-0.4944598;-26;10;-12;-461;4014;-89;8;0.634349;-0.7237329;0.1814404;0.2022161;-7;8;-20;99;4025;717;0.5219812;2.594449;-0.5736038;0.5279673;3.139942;-0.5687575;0.5332291;3.619447;-0.5665202;0.55546;4.351272;-0.5175189;0.3068421;4.686939;-0.5337905;-0.03868202;4.553242;-0.4801514;-0.2528204;3.651904;-0.4882856;-0.3339592;2.838859;-0.968047;0.8269464;4.671144;-0.5337913;1.111357;4.518312;-0.4801522;1.271887;3.569304;-0.4366888;1.439532;2.650095;-0.5939705;0.2097272;2.55244;-0.5816626;0.02317603;1.112019;-0.7584222;0;0;0;0.2097272;2.55244;-0.5816626;0.02317603;1.112019;-0.7584222;0;0;0
1284505.2243;NotLabelled;16384;0.5867069;-0.4778393;0.5180055;0.398892;1;35;31;-760;4002;529;65536;0.7346193;-0.3822715;0.3185596;0.4612188;-13;30;-27;-1379;3920;-1049;8192;0.6093538;-0.5720221;-0.4432133;-0.3240997;18;47;24;-190;3853;653;32768;0.6736729;-0.5110803;-0.400277;-0.3531856;3;72;-41;1280;3661;-556;256;0.0166205;-0.03047091;-0.6814404;-0.7310501;14;30;-18;-243;3970;-291;128;0.02216066;0.09695291;0.602493;0.7919036;-32;28;16;-565;3931;914;4;-0.4972299;0.4016621;-0.5460332;-0.5415512;29;7;-30;939;3830;192;16;0.4833795;-0.8696837;0.0734072;0.06786703;34;4;-13;313;3702;1736;2;0.5968115;-0.5;-0.3864266;-0.4944598;-28;9;-12;-267;4084;29;8;0.634349;-0.7239277;0.1759003;0.2063712;-2;11;-22;-11;4053;719;0.4722006;2.622799;-0.5732013;0.4781862;3.168247;-0.564684;0.4834478;3.647726;-0.5592197;0.5016041;4.379658;-0.5101482;0.2511251;4.713939;-0.5264126;-0.09365536;4.578317;-0.4728192;-0.3038589;3.676039;-0.4790501;-0.3816179;2.8635;-0.9602264;0.7713091;4.701036;-0.5263648;1.05656;4.549783;-0.4727126;1.217105;3.601646;-0.4132394;1.392061;2.68129;-0.5550945;0.1599472;2.580845;-0.5815656;-0.002903394;1.133923;-0.72563;0;0;0;0.1599472;2.580845;-0.5815656;-0.002903394;1.133923;-0.72563;0;0;0
1284526.4083;NotLabelled;16384;0.5880966;-0.4806094;0.5138504;0.398892;1;27;29;-768;3922;553;65536;0.7364202;-0.3850415;0.3130194;0.4598338;-11;22;-29;-1321;3942;-987;8192;0.6040703;-0.5720221;-0.4473684;-0.3282548;19;41;23;-146;3773;641;32768;0.6678271;-0.5083103;-0.4085872;-0.3587258;1;69;-37;1374;3637;-652;256;0.01523546;-0.02631579;-0.6800554;-0.7325299;12;27;-16;-241;3884;-217;128;0.02493075;0.09279778;0.5983379;0.7954614;-34;29;16;-639;3831;876;4;-0.4944598;0.4058172;-0.5415512;-0.5454761;31;13;-24;807;3720;108;16;0.4875346;-0.8674773;0.07202215;0.06786703;32;7;-11;155;3656;1736;2;0.5975728;-0.4958449;-0.3905817;-0.4944598;-29;15;-13;-143;4124;173;8;0.6357341;-0.7237104;0.1717452;0.2063712;0;17;-23;-19;4033;671;0.446032;2.636958;-0.5698071;0.4520168;3.182338;-0.5576496;0.457278;3.66177;-0.5489854;0.4698885;4.393623;-0.4970793;0.2168831;4.726057;-0.5120495;-0.1268582;4.587619;-0.4589826;-0.3353878;3.685153;-0.4789785;-0.4123099;2.874516;-0.9634871;0.7371499;4.717095;-0.5120504;1.023541;4.567802;-0.4589837;1.180195;3.618972;-0.4001868;1.358738;2.69859;-0.5373236;0.1337793;2.595061;-0.578474;-0.01586889;1.145287;-0.707385;0;0;0;0.1337793;2.595061;-0.578474;-0.01586889;1.145287;-0.707385;0;0;0
1284547.2007;NotLabelled;16384;0.5917014;-0.4806094;0.5096953;0.398892;1;19;27;-660;3940;603;65536;0.7381726;-0.3850415;0.3088643;0.4598338;-9;14;-30;-1309;3904;-967;8192;0.5984037;-0.5720221;-0.4529086;-0.3310249;20;38;20;-82;3721;637;32768;0.6617674;-0.5055401;-0.4168975;-0.3642659;0;68;-33;1320;3489;-730;256;0.01246537;-0.0166205;-0.6772853;-0.7354271;5;25;-12;-113;3988;-237;128;0.03047091;0.08171745;0.5927978;0.8006151;-26;37;17;-645;3873;822;4;-0.4916897;0.4113573;-0.5387812;-0.5465722;33;21;-22;593;3920;166;16;0.4930748;-0.8644546;0.07063711;0.06786703;31;11;-10;185;3578;1926;2;0.597128;-0.4916897;-0.3947368;-0.4958449;-30;25;-13;-131;4200;205;8;0.6371191;-0.7233896;0.166205;0.2077562;2;22;-22;-161;4013;617;0.4178108;2.645321;-0.5564582;0.423794;3.190548;-0.5387439;0.4290538;3.669868;-0.5251947;0.4389125;4.401557;-0.4704592;0.184661;4.733092;-0.4841613;-0.1585607;4.593161;-0.4316529;-0.3618328;3.68952;-0.4526958;-0.4344088;2.879377;-0.9386977;0.7049577;4.726086;-0.4841619;0.9919043;4.577665;-0.4316535;1.144314;3.628506;-0.3672811;1.323918;2.707441;-0.4983051;0.1055592;2.603515;-0.5655865;-0.02272679;1.151867;-0.6964289;0;0;0;0.1055592;2.603515;-0.5655865;-0.02272679;1.151867;-0.6964289;0;0;0
1284568.1976;NotLabelled;16384;0.5953102;-0.4819945;0.5041551;0.398892;2;9;18;-416;3900;689;65536;0.7407345;-0.3850415;0.300554;0.4612188;-8;4;-31;-1311;3764;-883;8192;0.5953021;-0.5706371;-0.4556787;-0.33518;18;37;16;16;3665;551;32768;0.6574426;-0.501385;-0.4238227;-0.3698061;0;68;-28;1278;3425;-818;256;0.01108033;-0.01246537;-0.6772853;-0.7355314;1;26;-10;-117;4064;-303;128;0.03462604;0.07479224;0.5914127;0.802146;-16;44;18;-615;3875;754;4;-0.4903047;0.4182825;-0.536011;-0.5452827;33;30;-23;447;3950;86;16;0.4972299;-0.8620735;0.06925207;0.06925207;29;5;-12;343;3550;1910;2;0.5988747;-0.4847645;-0.398892;-0.4972299;-31;33;-14;-205;4032;281;8;0.6385041;-0.7231111;0.1620499;0.2077562;3;24;-23;-199;4009;561;0.3884747;2.65586;-0.5483212;0.3944549;3.200809;-0.5234806;0.3997124;3.67991;-0.5036662;0.4027693;4.411217;-0.4433046;0.1454481;4.740472;-0.4544833;-0.19646;4.596958;-0.403088;-0.3986297;3.693176;-0.428315;-0.4749566;2.885375;-0.9176291;0.6657876;4.738301;-0.4544837;0.9540995;4.592153;-0.4030885;1.105653;3.64334;-0.3319563;1.284858;2.721559;-0.4584205;0.07622437;2.614177;-0.5580401;-0.03605512;1.160541;-0.6813022;0;0;0;0.07622437;2.614177;-0.5580401;-0.03605512;1.160541;-0.6813022;0;0;0
1284589.1963;NotLabelled;16384;0.597645;-0.4819945;0.501385;0.398892;3;8;14;-240;3962;731;65536;0.7415446;-0.3850415;0.2963989;0.4626039;-8;3;-28;-1263;3702;-795;8192;0.5872936;-0.5692521;-0.4626039;-0.3421052;16;36;9;76;3679;607;32768;0.6483815;-0.4930748;-0.4362881;-0.3822715;-1;66;-16;1394;3469;-916;256;0.009695291;-0.008310249;-0.6772853;-0.7356097;1;29;-8;-139;4048;-365;128;0.03878116;0.06786703;0.5914127;0.8025715;-9;49;18;-613;3885;772;4;-0.4889196;0.433518;-0.5277008;-0.542726;36;51;-22;371;3810;74;16;0.5055401;-0.8573329;0.06648199;0.07063711;27;7;-13;-5;3414;1882;2;0.5984181;-0.4778393;-0.4044321;-0.5;-33;41;-16;-361;4062;357;8;0.6398892;-0.7231071;0.1565097;0.2077562;3;24;-23;-257;4029;521;0.3644068;2.664137;-0.5459467;0.3703861;3.209013;-0.5195666;0.375643;3.688056;-0.498399;0.3760719;4.419366;-0.43799;0.1175693;4.747694;-0.4491472;-0.223821;4.602949;-0.3977614;-0.4222002;3.698522;-0.4291633;-0.4909454;2.895303;-0.9270711;0.6379132;4.747393;-0.4491478;0.9267484;4.602279;-0.3977619;1.075568;3.653066;-0.3261969;1.256465;2.731375;-0.450893;0.05215671;2.622481;-0.555793;-0.04572671;1.16703;-0.6695361;0;0;0;0.05215671;2.622481;-0.555793;-0.04572671;1.16703;-0.6695361;0;0;0
1284609.1953;NotLabelled;16384;0.5967601;-0.4833795;0.5;0.400277;3;11;11;-46;4028;719;65536;0.741608;-0.3864266;0.2922437;0.4639889;-10;4;-24;-1273;3636;-807;8192;0.5826516;-0.5692521;-0.4653739;-0.3462604;13;31;5;126;3739;577;32768;0.6436391;-0.4889196;-0.4418283;-0.3891967;-2;60;-10;1426;3513;-952;256;0.006925208;-0.002770083;-0.6772853;-0.7356827;-1;31;-7;-127;4008;-349;128;0.04293629;0.06094183;0.5914127;0.8029157;-4;50;17;-575;3879;894;4;-0.4889196;0.4432133;-0.5221606;-0.540248;38;56;-20;267;3718;102;16;0.5096953;-0.8549645;0.06371191;0.07202215;28;11;-12;147;3504;1884;2;0.5969707;-0.4626039;-0.4155124;-0.5069252;-35;51;-19;-727;3996;307;8;0.6440443;-0.7214498;0.1468144;0.2077562;4;26;-23;-355;4081;455;0.3200375;2.679606;-0.5365376;0.326017;3.2245;-0.5105474;0.331274;3.703559;-0.4897223;0.3290758;4.434861;-0.4292707;0.0693953;4.76226;-0.4404089;-0.2714727;4.616285;-0.3890316;-0.4690823;3.71182;-0.4239743;-0.5352983;2.910864;-0.9258538;0.5897369;4.763827;-0.4404095;0.8790914;4.61975;-0.389032;1.022294;3.670291;-0.3096793;1.204282;2.748378;-0.4311069;0.0077874;2.637944;-0.5463517;-0.05619027;1.179597;-0.6463133;0;0;0;0.0077874;2.637944;-0.5463517;-0.05619027;1.179597;-0.6463133;0;0;0
1284629.1958;NotLabelled;16384;0.5999932;-0.4833795;0.4972299;0.398892;4;16;7;112;3992;787;65536;0.7426936;-0.3864266;0.2894737;0.4639889;-12;9;-18;-1347;3538;-781;8192;0.5804068;-0.567867;-0.466759;-0.3504155;12;26;0;236;3779;611;32768;0.6407266;-0.4833795;-0.4459834;-0.3961219;-2;55;-3;1338;3583;-988;256;0.002770083;0;-0.6772853;-0.7357153;-2;33;-6;-57;3960;-351;128;0.04847645;0.05401662;0.5927978;0.8020743;-1;50;17;-573;3787;970;4;-0.4889196;0.4529086;-0.5180055;-0.5361918;37;56;-20;23;3820;-110;16;0.5124654;-0.8534093;0.06232687;0.07202215;27;11;-12;207;3338;1692;2;0.5945202;-0.4445983;-0.4265928;-0.5166205;-34;51;-23;-1035;3926;337;8;0.6468144;-0.7200764;0.1412742;0.2077562;5;24;-23;-277;4133;423;0.2875752;2.686952;-0.5329395;0.2935548;3.231867;-0.5073781;0.2988121;3.710941;-0.4869303;0.2941053;4.442226;-0.4264102;0.03330332;4.768733;-0.4375175;-0.3070619;4.621586;-0.3861538;-0.5004537;3.716122;-0.4187734;-0.564573;2.916049;-0.9223308;0.5536364;4.772085;-0.4375181;0.8434834;4.628997;-0.3861543;0.9819385;3.679101;-0.3036705;1.161877;2.756876;-0.4257773;-0.02467495;2.645282;-0.5427179;-0.06983504;1.185649;-0.6337874;0;0;0;-0.02467495;2.645282;-0.5427179;-0.06983504;1.185649;-0.6337874;0;0;0
1284650.5093;NotLabelled;16384;0.6011639;-0.4847645;0.4944598;0.398892;4;22;5;140;3934;765;65536;0.7423216;-0.3891967;0.2867036;0.4639889;-13;15;-12;-1351;3498;-763;8192;0.5778412;-0.566482;-0.4695291;-0.3531856;10;25;-3;314;3757;561;32768;0.6384606;-0.4792244;-0.4487534;-0.4016621;-1;53;4;1364;3607;-976;256;0;0.004155125;-0.6772853;-0.7357087;-3;37;-4;-53;3932;-369;128;0.05263158;0.04709141;0.5941828;0.8012235;2;49;16;-627;3749;1016;4;-0.4889196;0.4612188;-0.5124654;-0.5344287;36;47;-20;-309;3888;-216;16;0.5166205;-0.8509805;0.05955679;0.0734072;28;21;-11;115;3348;1884;2;0.5950701;-0.434903;-0.4307479;-0.5207756;-35;51;-25;-1071;3982;275;8;0.6481994;-0.7196341;0.1371191;0.2077562;5;22;-24;-311;4147;433;0.2652981;2.692111;-0.5380952;0.2712791;3.237136;-0.5149904;0.2765373;3.716298;-0.4967023;0.2735573;4.447587;-0.4361237;0.01352699;4.77471;-0.4472049;-0.3271848;4.628363;-0.3958527;-0.5220259;3.723331;-0.4316999;-0.5877202;2.9249;-0.9376526;0.5338667;4.776834;-0.4472055;0.823375;4.633057;-0.3958532;0.9585227;3.682517;-0.3153183;1.137627;2.7608;-0.4423825;-0.04695256;2.650398;-0.5476702;-0.0771456;1.189612;-0.6254607;0;0;0;-0.04695256;2.650398;-0.5476702;-0.0771456;1.189612;-0.6254607;0;0;0
1284671.2419;NotLabelled;16384;0.6039385;-0.4903047;0.4889196;0.3947368;4;32;1;248;3838;791;65536;0.7437634;-0.3947368;0.2797784;0.4612188;-18;26;1;-1323;3328;-691;8192;0.5768678;-0.5637119;-0.4709141;-0.3573407;8;26;-7;474;3791;619;32768;0.6372245;-0.4736842;-0.4501385;-0.4085872;-3;54;11;1238;3599;-918;256;-0.008310249;0.01385042;-0.6786703;-0.7342654;-5;40;-2;-11;4028;-419;128;0.06232687;0.03462604;0.5955678;0.8001346;3;48;15;-559;3823;1134;4;-0.4875346;0.4695291;-0.5083103;-0.5324219;34;43;-21;-309;4052;-28;16;0.5207756;-0.8488441;0.05540166;0.07202215;30;26;-11;351;3472;2000;2;0.594412;-0.4265928;-0.434903;-0.5249307;-34;50;-26;-1137;3798;239;8;0.6495845;-0.7187632;0.132964;0.2091413;6;22;-23;-339;4043;339;0.2354932;2.69856;-0.5311245;0.2414752;3.243681;-0.5104339;0.2467342;3.72292;-0.494268;0.242619;4.454202;-0.4336778;-0.0179188;4.780921;-0.4447536;-0.358403;4.634044;-0.3934036;-0.5505725;3.72847;-0.4299609;-0.614713;2.928851;-0.9342335;0.502417;4.783853;-0.4447544;0.7921483;4.640524;-0.3934046;0.926756;3.689962;-0.3122503;1.104103;2.768556;-0.4439558;-0.07675796;2.656804;-0.5404997;-0.08909738;1.195465;-0.6125783;0;0;0;-0.07675796;2.656804;-0.5404997;-0.08909738;1.195465;-0.6125783;0;0;0
1284692.1937;NotLabelled;16384;0.605721;-0.4930748;0.4861496;0.3919668;5;37;0;222;3884;785;65536;0.7437789;-0.398892;0.2783934;0.4584487;-20;31;8;-1385;3406;-711;8192;0.5747756;-0.5581717;-0.4736842;-0.365651;3;33;-12;388;3885;571;32768;0.6334397;-0.4626039;-0.4529086;-0.4238227;-4;50;23;1164;3733;-940;256;-0.01246537;0.01939058;-0.6786703;-0.7340811;-6;46;-2;-35;4004;-447;128;0.06648199;0.02770083;0.5955678;0.8000698;1;49;16;-397;3921;1192;4;-0.4861496;0.4778393;-0.5041551;-0.5302413;33;41;-23;-383;4018;-182;16;0.5249307;-0.8464576;0.05263158;0.07202215;31;18;-12;369;3506;1864;2;0.5945524;-0.4168975;-0.4390582;-0.5290859;-32;45;-26;-1123;3812;357;8;0.6523545;-0.7170089;0.1288089;0.2091413;5;19;-22;-281;4107;311;0.2019513;2.704614;-0.5277857;0.2079345;3.249847;-0.5102564;0.2131944;3.72917;-0.4968696;0.2083701;4.46068;-0.4391368;-0.0524834;4.787101;-0.4514947;-0.3928266;4.640096;-0.399579;-0.5818973;3.733692;-0.4314233;-0.6470852;2.932758;-0.9334708;0.4678492;4.790536;-0.4514952;0.7577177;4.647689;-0.3995793;0.8922499;3.696548;-0.3253737;1.06456;2.775993;-0.4691585;-0.1103004;2.662805;-0.5368989;-0.105916;1.200962;-0.5989986;0;0;0;-0.1103004;2.662805;-0.5368989;-0.105916;1.200962;-0.5989986;0;0;0
1284713.1941;NotLabelled;16384;0.6085599;-0.4958449;0.4819945;0.3891967;6;41;-1;250;3928;805;65536;0.7443681;-0.4044321;0.2756233;0.4542936;-21;35;14;-1443;3400;-727;8192;0.5725066;-0.5554016;-0.4764543;-0.3698061;1;33;-13;392;3973;477;32768;0.6308405;-0.4584487;-0.4529086;-0.432133;-5;46;28;968;3837;-936;256;-0.01800554;0.02493075;-0.6800554;-0.7325155;-6;49;-3;-67;3998;-463;128;0.07202215;0.02077562;0.5969529;0.7987668;0;49;16;-409;3885;1270;4;-0.4833795;0.4944598;-0.4972299;-0.5240383;28;40;-25;-473;4132;-190;16;0.534626;-0.8408902;0.04570637;0.07063711;37;33;-11;113;3662;1948;2;0.5945573;-0.4085872;-0.4418283;-0.533241;-30;40;-28;-1109;3846;425;8;0.6537396;-0.7164816;0.1246537;0.2091413;5;13;-21;-417;4063;395;0.1739268;2.71044;-0.524359;0.1799102;3.255693;-0.5074822;0.1851704;3.735033;-0.4946693;0.1793053;4.466544;-0.4370625;-0.08201225;4.792592;-0.4494768;-0.4221461;4.645112;-0.397536;-0.6106499;3.738502;-0.4267686;-0.6790546;2.934372;-0.9232487;0.438315;4.796767;-0.4494776;0.7283862;4.654342;-0.3975369;0.8596191;3.702103;-0.3320001;1.024576;2.783024;-0.4928383;-0.1383251;2.668619;-0.5334178;-0.1164581;1.206548;-0.5856667;0;0;0;-0.1383251;2.668619;-0.5334178;-0.1164581;1.206548;-0.5856667;0;0;0
1284733.1664;NotLabelled;16384;0.6102;-0.5;0.4778393;0.3864266;7;46;-3;258;3924;703;65536;0.7444453;-0.4113573;0.2742382;0.4487534;-23;38;20;-1547;3508;-723;8192;0.5726691;-0.5512465;-0.4778393;-0.3739612;1;34;-15;296;4045;523;32768;0.63006;-0.4529086;-0.4529086;-0.4390582;-6;43;31;966;3913;-870;256;-0.0235457;0.03047091;-0.6800554;-0.7321488;-6;49;-4;-89;4032;-425;128;0.07617728;0.01385042;0.5955678;0.799565;-5;48;15;-379;4029;1300;4;-0.4819945;0.501385;-0.4958449;-0.520031;26;36;-26;-693;4180;-316;16;0.5387812;-0.8384502;0.04155125;0.07063711;39;19;-15;431;3700;1820;2;0.595352;-0.3919668;-0.4473684;-0.5401662;-27;33;-30;-1161;3874;599;8;0.6565097;-0.7143028;0.1177285;0.2119114;5;10;-21;-513;4083;409;0.1305947;2.722919;-0.5200885;0.1365791;3.268251;-0.5059776;0.1418399;3.747649;-0.4955963;0.1363305;4.479394;-0.4409994;-0.1248273;4.805516;-0.4547634;-0.4650347;4.658417;-0.4022276;-0.6525319;3.751582;-0.430953;-0.7231448;2.943769;-0.9211047;0.3955018;4.809436;-0.4547643;0.6855018;4.667085;-0.4022287;0.8161609;3.714573;-0.3395824;0.9720359;2.795606;-0.5098487;-0.1816575;2.681054;-0.5289177;-0.1283243;1.219117;-0.5564293;0;0;0;-0.1816575;2.681054;-0.5289177;-0.1283243;1.219117;-0.5564293;0;0;0
1284754.4384;NotLabelled;16384;0.6126332;-0.5041551;0.4736842;0.3822715;8;48;-3;140;4012;663;65536;0.7443655;-0.4168975;0.2728532;0.4445983;-25;42;24;-1659;3494;-709;8192;0.5705228;-0.5484765;-0.4792244;-0.3795014;2;34;-17;226;4109;579;32768;0.6301482;-0.4473684;-0.4515235;-0.4459834;-6;39;33;966;4043;-788;256;-0.02770083;0.03601108;-0.6800554;-0.7317517;-8;52;-5;-197;4050;-461;128;0.08033241;0.006925208;0.5955678;0.7992482;-7;46;16;-373;3935;1302;4;-0.4792244;0.5083103;-0.4930748;-0.5184997;22;28;-26;-593;4040;-330;16;0.5443213;-0.834932;0.0401662;0.07063711;42;14;-15;85;3730;1728;2;0.5963083;-0.3850415;-0.4487534;-0.5429363;-26;31;-32;-1171;3904;635;8;0.6578947;-0.7130665;0.1149584;0.2132964;5;11;-20;-565;4117;381;0.1082917;2.727803;-0.5201627;0.1142757;3.273104;-0.5048981;0.1195363;3.752479;-0.4935024;0.1144395;4.484252;-0.4392436;-0.1465343;4.810514;-0.4531592;-0.4868248;4.663631;-0.4005565;-0.6710746;3.756044;-0.4263628;-0.7451026;2.942474;-0.9063838;0.373797;4.814141;-0.4531601;0.6637166;4.671651;-0.4005577;0.7950523;3.718718;-0.3462915;0.9454359;2.801099;-0.5283604;-0.2039604;2.685956;-0.5290877;-0.1411427;1.224195;-0.5419903;0;0;0;-0.2039604;2.685956;-0.5290877;-0.1411427;1.224195;-0.5419903;0;0;0
1284775.2032;NotLabelled;16384;0.6149725;-0.5083103;0.4695291;0.3781163;8;50;-3;24;4012;571;65536;0.743459;-0.4252077;0.2714681;0.4390582;-25;43;27;-1761;3556;-765;8192;0.5705581;-0.5443213;-0.4806094;-0.3836565;2;32;-18;282;4081;641;32768;0.6291353;-0.4432133;-0.4501385;-0.4529086;-8;37;34;886;3929;-776;256;-0.03878116;0.04986149;-0.6814404;-0.7291425;-7;50;-7;-327;4018;-647;128;0.08725762;-0.004155125;0.5927978;0.8005996;-8;41;15;-229;3869;1372;4;0.4778393;-0.517001;0.4916897;0.5124654;19;27;-26;-537;3908;-294;16;0.5498615;-0.8314842;0.03601108;0.07063711;44;26;-13;-73;3676;1730;2;0.5980414;-0.3767313;-0.4501385;-0.5457063;-24;31;-32;-1215;3924;671;8;0.6592798;-0.7118117;0.1121884;0.2146814;5;14;-19;-535;4073;413;0.08451727;2.734125;-0.5121428;0.09050149;3.279447;-0.4976614;0.09576219;3.758838;-0.4869543;0.08958729;4.490627;-0.4330074;-0.1718668;4.816498;-0.447063;-0.5119409;4.669137;-0.394399;-0.6948477;3.761202;-0.4173937;-0.7714191;2.943205;-0.8894274;0.3484587;4.820892;-0.4470636;0.6385877;4.678851;-0.3943994;0.7660364;3.725131;-0.3449036;0.9099983;2.809279;-0.5405491;-0.227735;2.692266;-0.5210028;-0.1478776;1.231282;-0.5238362;0;0;0;-0.227735;2.692266;-0.5210028;-0.1478776;1.231282;-0.5238362;0;0;0
1284795.3092;NotLabelled;16384;0.6182159;-0.5180055;0.4612188;0.3698061;10;47;-3;-96;3926;511;65536;0.7433752;-0.4390582;0.267313;0.4279778;-26;43;27;-1833;3636;-783;8192;0.5693515;-0.5373961;-0.4819945;-0.3933518;5;28;-18;120;4117;695;32768;0.626783;-0.434903;-0.4473684;-0.466759;-12;32;33;896;3997;-710;256;-0.04293629;0.0567867;-0.6814404;-0.7284029;-7;50;-8;-331;4018;-615;128;0.0900277;-0.01108033;0.5914127;0.8012511;-11;36;15;-193;3945;1312;4;0.4750692;-0.5235659;0.4903047;0.5096953;21;27;-25;-313;4006;-372;16;0.5567867;-0.8271505;0.03185596;0.06925207;48;25;-13;147;3732;1762;2;0.5998269;-0.3698061;-0.4501385;-0.5484765;-22;30;-32;-1327;3774;679;8;0.6606648;-0.71117;0.1080332;0.2146814;5;17;-18;-529;4049;395;0.05270853;2.739954;-0.5076544;0.058692;3.285206;-0.4907687;0.06395216;3.764546;-0.4779479;0.05560629;4.496586;-0.4278481;-0.2068111;4.821602;-0.4436277;-0.5464503;4.673514;-0.3902047;-0.7282936;3.765218;-0.4064061;-0.8151211;2.940248;-0.8643162;0.313499;4.827538;-0.4436286;0.6040444;4.686635;-0.390206;0.7325953;3.732567;-0.3514389;0.8635787;2.817791;-0.5607571;-0.2595434;2.698133;-0.516714;-0.1691343;1.237841;-0.5014664;0;0;0;-0.2595434;2.698133;-0.516714;-0.1691343;1.237841;-0.5014664;0;0;0
1284816.224;NotLabelled;16384;0.6191059;-0.5235457;0.4570637;0.365651;11;44;-3;-82;3916;471;65536;0.7434126;-0.4459834;0.2645429;0.4224377;-26;41;25;-1885;3606;-747;8192;0.5690735;-0.534626;-0.4819945;-0.3975069;7;26;-15;60;4131;801;32768;0.6265197;-0.432133;-0.4445983;-0.4722992;-15;28;33;860;3983;-700;256;-0.04709141;0.06371191;-0.6814404;-0.7275728;-7;47;-9;-463;4054;-475;128;0.09279778;-0.0166205;0.5914127;0.8008392;-9;33;16;-105;4083;1266;4;0.4709141;-0.5364011;0.4861496;0.5041551;19;23;-20;-515;4268;-664;16;0.5692521;-0.8188618;0.02493075;0.06925207;52;20;-17;-149;3896;1560;2;0.6004758;-0.3628809;-0.4515235;-0.5512465;-18;27;-33;-1439;3728;683;8;0.6634349;-0.7090033;0.1052632;0.2146814;6;19;-17;-509;4193;365;0.03211361;2.746915;-0.4974589;0.03809661;3.292128;-0.4793338;0.04335638;3.771437;-0.4654235;0.03248978;4.503478;-0.41582;-0.2310449;4.827579;-0.431822;-0.5701726;4.678357;-0.3783015;-0.7462186;3.768831;-0.388313;-0.8295591;2.933488;-0.8276905;0.2892417;4.835305;-0.4318226;0.5802697;4.69544;-0.3783022;0.7032237;3.740189;-0.3527493;0.8187747;2.827893;-0.581116;-0.280138;2.705116;-0.5066214;-0.1758403;1.245939;-0.4785828;0;0;0;-0.280138;2.705116;-0.5066214;-0.1758403;1.245939;-0.4785828;0;0;0
1284837.1609;NotLabelled;16384;0.6202605;-0.5277008;0.4529086;0.3628809;12;42;-2;-120;3954;439;65536;0.7436874;-0.4515235;0.2631579;0.4168975;-25;39;24;-1901;3670;-773;8192;0.5687515;-0.5318559;-0.4819945;-0.4016621;8;25;-12;18;4221;805;32768;0.6241422;-0.4293629;-0.4432133;-0.4792244;-17;24;31;812;4137;-748;256;-0.05124654;0.06925207;-0.6814404;-0.7267853;-9;42;-11;-545;4166;-517;128;0.09418282;-0.02216066;0.5900277;0.8015646;0;32;18;-21;4117;1186;4;0.4695291;-0.5401556;0.4847645;0.5027701;13;10;-12;37;4578;-532;16;0.5761772;-0.8139262;0.0235457;0.07063711;49;3;-18;-97;3996;1142;2;0.6020695;-0.3559557;-0.4515235;-0.5540166;-14;22;-33;-1541;3796;759;8;0.66482;-0.7083103;0.101108;0.2146814;8;22;-16;-687;4139;441;-0.004088312;2.757934;-0.4785523;0.001894914;3.303167;-0.4610558;0.007154882;3.782492;-0.447698;-0.006247897;4.514527;-0.3986406;-0.2709033;4.837702;-0.4148872;-0.609513;4.687346;-0.361259;-0.7814062;3.776981;-0.3654719;-0.8655507;2.936875;-0.7955163;0.2493533;4.847231;-0.414888;0.5408635;4.708415;-0.3612602;0.6608837;3.752624;-0.3429602;0.7658255;2.841616;-0.5813692;-0.31634;2.716124;-0.4876627;-0.1853662;1.259705;-0.4371591;0;0;0;-0.31634;2.716124;-0.4876627;-0.1853662;1.259705;-0.4371591;0;0;0
1284857.1623;NotLabelled;16384;0.6201569;-0.533241;0.4487534;0.3601108;13;42;0;-68;4066;363;65536;0.7431093;-0.4570637;0.2617728;0.4127424;-23;36;22;-1935;3760;-767;8192;0.5659128;-0.5304709;-0.4833795;-0.4058172;9;21;-8;-152;4317;827;32768;0.6238502;-0.4279778;-0.4404432;-0.4833795;-12;9;29;914;4511;-1464;256;-0.05401662;0.07617728;-0.6828254;-0.7245886;-13;39;-12;-653;4366;-421;128;0.09556787;-0.02770083;0.5914127;0.8002065;9;31;20;127;4411;1076;4;0.4695291;-0.5413954;0.4833795;0.5027701;9;7;0;565;4914;-564;16;0.5831025;-0.8088963;0.02216066;0.07202215;44;7;-17;-213;4372;624;2;0.6125987;-0.3587258;-0.4418283;-0.5484765;-1;-54;-21;-1677;3982;1079;8;0.6689751;-0.7057667;0.09418282;0.2132964;15;21;-15;-461;4277;627;-0.01926853;2.764326;-0.4583539;-0.01328582;3.30951;-0.4393636;-0.008026272;3.788796;-0.4246926;-0.02259029;4.52085;-0.376234;-0.2877575;4.84359;-0.3927486;-0.6261292;4.692742;-0.3390026;-0.7940337;3.781624;-0.3404477;-0.8812522;2.93735;-0.7616253;0.2324834;4.853943;-0.3927495;0.5242124;4.715633;-0.3390038;0.6410831;3.759346;-0.3275656;0.7348559;2.848984;-0.5729942;-0.33152;2.722541;-0.4675881;-0.1913972;1.267146;-0.412352;0;0;0;-0.33152;2.722541;-0.4675881;-0.1913972;1.267146;-0.412352;0;0;0
1284877.4209;NotLabelled;16384;0.6221535;-0.5373961;0.4432133;0.3573407;13;40;3;-102;4308;315;65536;0.7429479;-0.4626039;0.2590028;0.4085872;-21;34;20;-1975;3988;-825;8192;0.5652158;-0.5290859;-0.4833795;-0.4085872;10;16;-3;-266;4693;951;32768;0.6255391;-0.4252077;-0.4376731;-0.4861496;-3;-1;25;852;4487;-2084;256;-0.05540166;0.08171745;-0.6828254;-0.7238801;-16;35;-15;-705;4522;-469;128;0.09695291;-0.033241;0.5941828;0.7977732;20;24;22;233;4591;1040;4;0.4709141;-0.5401378;0.4819945;0.5041551;3;8;14;767;4630;-574;16;0.5886427;-0.8048199;0.01939058;0.0734072;35;14;-13;57;4510;166;2;0.6161957;-0.3559557;-0.4390582;-0.5484765;-12;-14;-25;-2309;4192;2179;8;0.6717451;-0.7034962;0.09141274;0.2132964;20;19;-14;-433;4409;731;-0.02898334;2.771129;-0.4307845;-0.02299985;3.316387;-0.4140666;-0.01773969;3.79573;-0.4013934;-0.03660661;4.52789;-0.3561328;-0.3036563;4.848995;-0.3741193;-0.6411524;4.696403;-0.3197969;-0.8025733;3.784115;-0.3176968;-0.8911083;2.93569;-0.7301683;0.216515;4.862398;-0.3740404;0.5090352;4.726036;-0.3196215;0.6218275;3.769202;-0.3148266;0.7054125;2.859763;-0.5672565;-0.3412352;2.729306;-0.4398301;-0.1967028;1.274245;-0.3872127;0;0;0;-0.3412352;2.729306;-0.4398301;-0.1967028;1.274245;-0.3872127;0;0;0
1284898.2349;NotLabelled;16384;0.6231564;-0.5457063;0.434903;0.3531856;14;33;7;-298;4486;217;65536;0.7419842;-0.4709141;0.2576177;0.4016621;-15;23;15;-1967;4208;-789;8192;0.5622979;-0.5277008;-0.4847645;-0.4127424;2;16;1;-100;5143;1717;32768;0.6272113;-0.4238227;-0.433518;-0.4889196;-3;0;10;784;4579;-2136;256;-0.05817174;0.09141274;-0.6869806;-0.7185523;-11;23;-21;-905;4568;-435;128;0.09695291;-0.0401662;0.601108;0.7922474;28;0;23;279;4571;1586;4;0.4722992;-0.5400988;0.4792244;0.5055401;0;11;25;677;4470;-678;16;0.5941828;-0.8009266;0.0166205;0.07202215;26;21;-10;-25;4394;30;2;0.6199945;-0.3531856;-0.4376731;-0.5470914;-11;-18;-22;-2241;4160;1241;8;0.6745152;-0.7016162;0.08864266;0.2119114;26;19;-12;-529;4535;671;-0.03484448;2.776714;-0.4009416;-0.02885975;3.322084;-0.3883817;-0.02359866;3.801509;-0.3793638;-0.04658774;4.533565;-0.3343157;-0.3154467;4.853154;-0.3523576;-0.6520691;4.698677;-0.2979411;-0.8089863;3.785608;-0.2943666;-0.8957882;2.933729;-0.7000319;0.2046409;4.869489;-0.3523584;0.4979333;4.734796;-0.297942;0.6078442;3.77764;-0.2911223;0.6855541;2.870354;-0.5530008;-0.3470971;2.734824;-0.409642;-0.203286;1.279386;-0.3662964;0;0;0;-0.3470971;2.734824;-0.409642;-0.203286;1.279386;-0.3662964;0;0;0
1284919.2599;NotLabelled;16384;0.6236103;-0.5484765;0.4307479;0.3531856;14;27;7;-434;4326;227;65536;0.7413092;-0.4750692;0.2562327;0.398892;-13;14;11;-1917;4080;-755;8192;0.5601788;-0.5263157;-0.4875346;-0.4141274;-3;23;6;-18;5049;1901;32768;0.6280198;-0.4224377;-0.432133;-0.4903047;-8;10;7;910;4443;-2092;256;-0.05817174;0.09556787;-0.6869806;-0.7180115;-8;14;-24;-1191;4422;-371;128;0.09418282;-0.04155125;0.6038781;0.7904014;25;-14;21;185;4271;1866;4;0.4792244;-0.5360791;0.4709141;0.5110803;4;7;30;383;3796;-906;16;0.601108;-0.7959809;0.009695291;0.07063711;13;16;-5;-897;4002;644;2;0.6217557;-0.3518005;-0.4362881;-0.5470914;-2;5;-12;-1645;3888;853;8;0.6786703;-0.6977724;0.08725762;0.2119114;32;10;-7;-505;4689;547;-0.04107738;2.782018;-0.3701217;-0.03509109;3.327524;-0.3671619;-0.02982902;3.807034;-0.366583;-0.06060923;4.539292;-0.3303401;-0.3328358;4.855769;-0.3523211;-0.6678271;4.69839;-0.2961802;-0.81415;3.783587;-0.2888982;-0.9027182;2.925321;-0.680476;0.187049;4.877625;-0.3523216;0.4817269;4.746716;-0.2961806;0.5874102;3.789076;-0.2906219;0.6541286;2.88364;-0.5617723;-0.3533316;2.739981;-0.3780233;-0.2065302;1.284553;-0.3458262;0;0;0;-0.3533316;2.739981;-0.3780233;-0.2065302;1.284553;-0.3458262;0;0;0
1284940.1889;NotLabelled;16384;0.6235811;-0.5526316;0.4265928;0.3518005;13;20;6;-512;4230;197;65536;0.7416416;-0.4764543;0.2548476;0.3975069;-11;8;4;-1899;3986;-693;8192;0.5590595;-0.5249307;-0.4903047;-0.4141274;-6;8;15;46;4725;1811;32768;0.6258473;-0.4224377;-0.432133;-0.4930748;-19;27;8;704;4209;-1646;256;-0.05540166;0.101108;-0.6883656;-0.7161428;-11;5;-25;-1311;4254;-317;128;0.0900277;-0.04293629;0.6080332;0.7876211;28;-12;22;-25;4103;1812;4;0.4806094;-0.535825;0.466759;0.5138504;6;7;26;323;4004;-890;16;0.6038781;-0.7937726;0.008310249;0.07202215;11;9;-5;-759;3934;958;2;0.6125737;-0.3434903;-0.4418283;-0.5581717;-12;205;-13;-2483;4060;4509;8;0.6828254;-0.6945469;0.08725762;0.2091413;34;32;3;-441;4345;565;-0.04223899;2.788264;-0.3095632;-0.03625266;3.333778;-0.3098902;-0.0309907;3.813283;-0.3122004;-0.06600111;4.545351;-0.2759476;-0.3400517;4.860249;-0.297924;-0.6741281;4.700937;-0.2417848;-0.8145326;3.785196;-0.2359433;-0.9012765;2.924096;-0.6216621;0.1796981;4.885109;-0.297925;0.4751276;4.755905;-0.2417861;0.5820333;3.79841;-0.2347642;0.6453369;2.894122;-0.5105249;-0.3544937;2.746181;-0.3171907;-0.2107005;1.290104;-0.3218148;0;0;0;-0.3544937;2.746181;-0.3171907;-0.2107005;1.290104;-0.3218148;0;0;0
1284961.3033;NotLabelled;16384;0.623298;-0.5540166;0.4252077;0.3518005;11;10;7;-552;4156;113;65536;0.739585;-0.4792244;0.2534626;0.398892;-11;2;-1;-1869;3976;-705;8192;0.5576457;-0.5249307;-0.4930748;-0.4127424;-10;-1;25;38;4493;1839;32768;0.6246123;-0.4224377;-0.4307479;-0.4958449;-17;-3;6;1324;4255;-1448;256;-0.05124654;0.1038781;-0.6911357;-0.7133825;-19;-3;-24;-1281;4270;-251;128;0.08587258;-0.04570637;0.6121883;0.7847052;40;0;25;-175;3999;1456;4;0.4819945;-0.534321;0.4639889;0.5166205;5;6;21;179;4054;-754;16;0.6052631;-0.7927412;0.005540166;0.07202215;11;9;-2;-521;3984;1190;2;0.6274025;-0.3393352;-0.4432133;-0.5429363;-9;-8;-7;-1401;3044;1121;8;0.6934606;-0.6925207;0.07479224;0.1842105;21;121;38;-461;3907;799;-0.0510544;2.78983;-0.2845219;-0.04506836;3.335319;-0.2898037;-0.03980687;3.814783;-0.296469;-0.08367524;4.546484;-0.2625311;-0.36151;4.857975;-0.2855421;-0.6936457;4.69481;-0.2289509;-0.8276356;3.778117;-0.2220068;-0.914192;2.916486;-0.606582;0.1579011;4.889119;-0.2855431;0.4548609;4.763674;-0.2289524;0.5652828;3.806587;-0.2207442;0.6235368;2.901771;-0.4958811;-0.3633098;2.747679;-0.2917359;-0.2145367;1.292217;-0.3106047;0;0;0;-0.3633098;2.747679;-0.2917359;-0.2145367;1.292217;-0.3106047;0;0;0
1285001.3858;NotLabelled;16384;0.6186036;-0.5567867;0.4238227;0.3573407;8;-21;4;-338;4008;133;65536;0.7372261;-0.4792244;0.2493075;0.4058172;-6;-22;-15;-1547;3794;-505;8192;0.5594299;-0.5277008;-0.4972299;-0.4016621;-12;-42;30;-356;3995;881;32768;0.6310047;-0.4279778;-0.4238227;-0.4889196;-2;-48;4;996;3575;-2124;256;-0.03878116;0.1094183;-0.6952909;-0.7092914;-12;-14;-19;-623;3774;-607;128;0.08171745;-0.05540166;0.6218836;0.7768614;17;7;22;121;3751;1298;4;0.4847645;-0.5339115;0.4584487;0.5193906;1;7;15;13;4062;-678;16;0.6080332;-0.7908806;0.002770083;0.06925207;14;19;0;-419;3918;1202;2;0.6221212;-0.3296399;-0.4459834;-0.5526316;9;77;-11;-2103;3340;533;8;0.700282;-0.6952909;0.05817174;0.1509695;-6;102;30;-385;3433;817;-0.05496993;2.790283;-0.2674541;-0.0489847;3.3357;-0.2777549;-0.04372412;3.815083;-0.2888318;-0.0953946;4.546487;-0.2598404;-0.3765182;4.854839;-0.2850612;-0.7069253;4.688533;-0.2275066;-0.8381297;3.771434;-0.2208685;-0.9170041;2.908157;-0.6033974;0.1425319;4.891511;-0.2850619;0.4407832;4.769619;-0.2275075;0.5552977;3.813066;-0.2145683;0.6088387;2.908271;-0.4907324;-0.3672261;2.748067;-0.2742484;-0.2171218;1.29296;-0.305681;0;0;0;-0.3672261;2.748067;-0.2742484;-0.2171218;1.29296;-0.305681;0;0;0
1285023.2071;NotLabelled;16384;0.6152298;-0.5567867;0.4252077;0.3614958;13;-28;0;-144;3982;245;65536;0.7350513;-0.4778393;0.2493075;0.4113573;-6;-35;-16;-1449;3706;-413;8192;0.5640164;-0.5318559;-0.4986149;-0.3878116;-26;-17;26;324;3743;1261;32768;0.6392804;-0.4307479;-0.4196676;-0.4792244;0;-36;-5;1034;3285;-1554;256;-0.03462604;0.1108033;-0.6966759;-0.707931;-9;-10;-19;-627;3642;-511;128;0.07894737;-0.05817174;0.6232687;0.7758347;12;2;19;235;3827;1284;4;0.4861496;-0.5338396;0.4570637;0.5193906;0;8;14;-33;4100;-524;16;0.6094183;-0.7899389;0;0.06786703;15;15;0;-133;3920;1296;2;0.6175779;-0.3240997;-0.4459834;-0.5609418;14;56;-14;-2385;3470;465;8;0.6980609;-0.7006435;0.05124654;0.1385041;-20;91;32;-607;3637;689;-0.05311117;2.79183;-0.2471113;-0.04713025;3.336854;-0.2702344;-0.04187398;3.815844;-0.2925805;-0.1131224;4.545838;-0.2703638;-0.4023733;4.846312;-0.2986079;-0.7282637;4.671758;-0.2397385;-0.8462617;3.752862;-0.2336214;-0.9093305;2.891597;-0.6235455;0.1155095;4.89686;-0.2986085;0.4168637;4.783529;-0.2397392;0.549026;3.829471;-0.215612;0.6021653;2.925004;-0.4929227;-0.3653689;2.749467;-0.2528305;-0.2107468;1.295268;-0.3003219;0;0;0;-0.3653689;2.749467;-0.2528305;-0.2107468;1.295268;-0.3003219;0;0;0
1285043.1756;NotLabelled;16384;0.6130636;-0.5554016;0.4265928;0.365651;16;-30;-1;50;3892;287;65536;0.7328258;-0.4764543;0.2493075;0.4168975;-6;-41;-15;-1427;3582;-387;8192;0.5666412;-0.5304709;-0.501385;-0.3822715;-29;-9;19;26;3613;1009;32768;0.6424369;-0.433518;-0.4182825;-0.4736842;4;-35;-10;1222;3373;-1434;256;-0.03185596;0.1121884;-0.6980609;-0.7064771;-11;-11;-20;-713;3644;-371;128;0.07617728;-0.06094183;0.6232687;0.7758991;5;-1;19;301;3827;1188;4;0.4889196;-0.5323229;0.4542936;0.5207756;-3;1;15;29;3976;-496;16;0.6135734;-0.7868341;0;0.06648199;16;10;0;-293;3880;992;2;0.6134014;-0.3199446;-0.4459834;-0.567867;6;40;-13;-2141;3304;941;8;0.6952909;-0.7062014;0.04432133;0.1260388;-34;74;33;-757;3675;625;-0.05185264;2.792689;-0.2405925;-0.04587245;3.337648;-0.2651967;-0.04061686;3.816576;-0.2888445;-0.1179028;4.546025;-0.2690042;-0.4096172;4.844004;-0.298308;-0.7340741;4.666955;-0.2389786;-0.8463985;3.747352;-0.2322697;-0.9035718;2.887373;-0.6259259;0.1078303;4.898832;-0.2983089;0.4100907;4.788185;-0.2389797;0.5610411;3.837154;-0.2068922;0.6216481;2.934178;-0.4875139;-0.3641106;2.750312;-0.2461874;-0.2101107;1.296156;-0.2969187;0;0;0;-0.3641106;2.750312;-0.2461874;-0.2101107;1.296156;-0.2969187;0;0;0
1285063.3516;NotLabelled;16384;0.6104342;-0.5554016;0.4279778;0.368421;18;-26;-3;254;3954;337;65536;0.7292714;-0.4750692;0.2506925;0.4238227;-9;-42;-13;-1563;3568;-355;8192;0.5682638;-0.5290859;-0.5041551;-0.3781163;-27;-15;15;-282;3653;759;32768;0.6464495;-0.434903;-0.4168975;-0.468144;8;-38;-13;1190;3419;-1148;256;-0.02770083;0.1135734;-0.699446;-0.7050596;-14;-10;-21;-833;3764;-265;128;0.0734072;-0.06371191;0.6246537;0.774829;8;0;18;183;3907;1008;4;0.4903047;-0.5308704;0.4529086;0.5221606;-2;-1;15;139;4078;-538;16;0.6163435;-0.784781;-0.001385042;0.06509695;15;11;0;-341;3856;928;2;0.6125252;-0.3116343;-0.4459834;-0.5734072;-4;11;-16;-2097;3264;739;8;0.6842105;-0.718886;0.04293629;0.1149584;-57;2;28;-327;3733;659;-0.04285906;2.796181;-0.2172272;-0.03687863;3.34116;-0.2413939;-0.03162282;3.820106;-0.2646571;-0.1135044;4.549119;-0.247384;-0.4070764;4.845153;-0.2778321;-0.7304361;4.666272;-0.2180063;-0.8395022;3.746267;-0.2129456;-0.8915094;2.88761;-0.6101864;0.1100159;4.903235;-0.2778332;0.4129433;4.7947;-0.2180078;0.5763279;3.845737;-0.1855853;0.6407885;2.942462;-0.4643777;-0.355117;2.753808;-0.2228588;-0.2033809;1.299864;-0.2851611;0;0;0;-0.355117;2.753808;-0.2228588;-0.2033809;1.299864;-0.2851611;0;0;0
1285084.3072;NotLabelled;16384;0.6069296;-0.5554016;0.4293629;0.3725762;17;-19;-4;424;3988;277;65536;0.7260234;-0.4750692;0.2506925;0.4293629;-10;-33;-9;-1657;3550;-377;8192;0.5710068;-0.5290859;-0.5041551;-0.3739612;-24;-21;11;-272;3757;831;32768;0.6494974;-0.4362881;-0.4168975;-0.4626039;11;-40;-17;1094;3517;-932;256;-0.0235457;0.1149584;-0.700831;-0.7036093;-12;-9;-21;-857;3940;-265;128;0.07202215;-0.06509695;0.6260388;0.7737252;11;0;17;149;3997;894;4;0.4916897;-0.5282186;0.4529086;0.5235457;-2;-3;14;299;4140;-464;16;0.6177285;-0.783805;-0.001385042;0.06371191;16;5;0;-159;4000;1008;2;0.613636;-0.3088643;-0.4445983;-0.5747922;-3;3;-17;-2189;3340;603;8;0.6759003;-0.7267536;0.04570637;0.1135734;-66;-20;26;-581;3933;881;-0.03768878;2.798214;-0.2024221;-0.03170906;3.343124;-0.228091;-0.02645394;3.822004;-0.2526745;-0.1143559;4.55037;-0.2378806;-0.4103484;4.843867;-0.2694337;-0.7322451;4.662525;-0.2091299;-0.8375943;3.742094;-0.2030236;-0.8834406;2.884176;-0.6026139;0.1062468;4.906216;-0.2694344;0.4100353;4.800385;-0.2091304;0.5834675;3.853247;-0.1755503;0.6537724;2.950599;-0.4549587;-0.3499469;2.755825;-0.2079275;-0.199522;1.302082;-0.2776673;0;0;0;-0.3499469;2.755825;-0.2079275;-0.199522;1.302082;-0.2776673;0;0;0
1285105.1859;NotLabelled;16384;0.6032011;-0.5567867;0.4279778;0.3781163;13;-3;0;362;4108;141;65536;0.721806;-0.4764543;0.2506925;0.434903;-11;-6;1;-1751;3628;-497;8192;0.5749808;-0.5277008;-0.5041551;-0.3698061;-21;-25;11;-108;3723;1031;32768;0.6515498;-0.4390582;-0.4168975;-0.4570637;11;-39;-20;1194;3589;-760;256;-0.01939058;0.1163435;-0.7035084;-0.700831;-10;-11;-20;-981;3954;-335;128;0.06925207;-0.06786703;0.6274238;0.7726173;14;0;16;139;4007;920;4;-0.4930748;0.5249307;-0.4515235;-0.5267367;-4;-4;15;421;4064;-420;16;0.6191136;-0.7827115;-0.001385042;0.06371191;15;0;0;-247;4018;876;2;0.6160213;-0.3060942;-0.4432133;-0.5747922;-2;-5;-16;-2157;3578;593;8;0.66759;-0.7339087;0.04986149;0.1149584;-71;-27;24;-833;4093;999;-0.02772072;2.799711;-0.1932184;-0.02174192;3.344537;-0.2206093;-0.01648767;3.823338;-0.246706;-0.1103994;4.551001;-0.2344513;-0.4087881;4.841936;-0.2671353;-0.7292053;4.658154;-0.206342;-0.8287495;3.737081;-0.199545;-0.8665788;2.879456;-0.6006005;0.1072753;4.908543;-0.2671362;0.4118994;4.805429;-0.2063431;0.5919971;3.859511;-0.173478;0.6695262;2.957023;-0.4514902;-0.339979;2.757305;-0.198579;-0.1945617;1.303391;-0.2750347;0;0;0;-0.339979;2.757305;-0.198579;-0.1945617;1.303391;-0.2750347;0;0;0
1285126.2515;NotLabelled;16384;0.6020312;-0.5581717;0.4265928;0.3795014;12;1;2;244;4244;97;65536;0.7200525;-0.4778393;0.2506925;0.4362881;-9;2;6;-1657;3772;-529;8192;0.5810427;-0.5290859;-0.5027701;-0.3601108;-16;-34;8;134;3795;1171;32768;0.6572778;-0.4445983;-0.4155124;-0.4445983;7;-44;-20;1284;3579;-792;256;-0.01246537;0.1191136;-0.7045792;-0.699446;-7;-16;-17;-1067;4016;-311;128;0.06648199;-0.07063711;0.6315789;0.7692195;18;-8;12;207;3965;1088;4;-0.4944598;0.5221606;-0.4501385;-0.5293705;-4;-3;15;445;4002;-454;16;0.6218836;-0.7805125;-0.001385042;0.06371191;14;5;2;-389;3996;702;2;0.6180049;-0.3060942;-0.4404432;-0.5747922;-3;-14;-13;-1873;3656;789;8;0.6578947;-0.7422053;0.05263158;0.1163435;-74;-20;25;-835;4151;1159;-0.02309404;2.800317;-0.1769138;-0.01711611;3.345065;-0.2058263;-0.01186269;3.823791;-0.2332602;-0.1120373;4.550688;-0.2263393;-0.4128676;4.838806;-0.2615041;-0.7317792;4.652714;-0.1998261;-0.8202605;3.73049;-0.1980481;-0.8477301;2.872136;-0.5983865;0.1026042;4.909845;-0.2612907;0.4080172;4.809792;-0.1993534;0.596211;3.865282;-0.1717883;0.679669;2.962054;-0.4456491;-0.3353524;2.757897;-0.1821463;-0.1921945;1.304491;-0.2714607;0;0;0;-0.3353524;2.757897;-0.1821463;-0.1921945;1.304491;-0.2714607;0;0;0
1285167.1809;NotLabelled;16384;0.6009485;-0.5595568;0.4238227;0.3822715;10;-1;5;-56;4422;-79;65536;0.7184709;-0.4819945;0.2520775;0.433518;-5;1;15;-1543;4100;-577;8192;0.5868034;-0.5318559;-0.5;-0.3504155;-12;-38;5;306;3789;1103;32768;0.662551;-0.4515235;-0.4113573;-0.433518;2;-49;-15;1426;3647;-912;256;-0.002770083;0.1177285;-0.7076545;-0.6966759;-7;-24;-12;-1101;3970;-205;128;0.06094183;-0.07063711;0.634349;0.7673968;10;-13;8;25;4063;1166;4;-0.4972299;0.5166205;-0.4487534;-0.5333723;-5;-6;14;403;4086;-442;16;0.6274238;-0.7762883;-0.001385042;0.06094183;10;3;3;-305;4052;774;2;0.6240884;-0.3060942;-0.4390582;-0.5692521;-7;-24;-3;-1607;3682;1129;8;0.6371191;-0.7600257;0.0567867;0.1149584;-76;3;25;-989;4203;1255;-0.01766289;2.801977;-0.1582811;-0.01168844;3.34641;-0.1926072;-0.006438307;3.824839;-0.2247985;-0.1168073;4.550273;-0.2197325;-0.4216535;4.83405;-0.2556159;-0.7379197;4.643657;-0.1934416;-0.8215016;3.720984;-0.1894081;-0.8431156;2.861665;-0.5880328;0.0927702;4.912319;-0.2556168;0.3995594;4.816721;-0.1934427;0.6008022;3.87492;-0.1653742;0.6954532;2.97104;-0.4333846;-0.3299218;2.759506;-0.1630577;-0.1886038;1.306647;-0.2634949;0;0;0;-0.3299218;2.759506;-0.1630577;-0.1886038;1.306647;-0.2634949;0;0;0
1285207.2619;NotLabelled;16384;0.5988603;-0.5609418;0.4224377;0.3850415;10;-7;5;-196;4432;-49;65536;0.7178872;-0.4833795;0.2534626;0.432133;0;-6;18;-1551;4228;-559;8192;0.5891867;-0.533241;-0.4986149;-0.3462604;-11;-37;4;348;3759;1109;32768;0.6651128;-0.4542936;-0.4099723;-0.4279778;1;-48;-12;1240;3579;-956;256;0;0.1177285;-0.70766;-0.6966759;-4;-25;-8;-969;4002;-221;128;0.05817174;-0.07063711;0.6357341;0.766465;8;-11;6;-31;3929;1198;4;-0.4986149;0.5138504;-0.4487534;-0.5347534;-6;-9;13;341;4016;-494;16;0.6288089;-0.7751681;0;0.06094183;10;0;4;-223;4088;826;2;0.6299291;-0.3074792;-0.4404432;-0.5609418;-15;-20;8;-1561;3570;1079;8;0.6191136;-0.7759509;0.05124654;0.1094183;-73;34;19;-1063;4089;1289;0.002051836;2.805802;-0.1280964;0.008024015;3.35003;-0.165537;0.01327202;3.828267;-0.2004653;-0.1061622;4.552281;-0.2016296;-0.4144816;4.831912;-0.2402829;-0.7284289;4.638105;-0.1769167;-0.8046474;3.714785;-0.1770498;-0.8184577;2.85142;-0.5671871;0.09892319;4.916606;-0.240284;0.406797;4.825379;-0.176918;0.6179783;3.885814;-0.1469762;0.7204372;2.980935;-0.4086693;-0.3102074;2.763304;-0.1326104;-0.1748587;1.311164;-0.2502005;0;0;0;-0.3102074;2.763304;-0.1326104;-0.1748587;1.311164;-0.2502005;0;0;0
1285228.1793;NotLabelled;16384;0.5951845;-0.5609418;0.4238227;0.3891967;12;-24;-1;-256;4340;55;65536;0.7145661;-0.4833795;0.2603878;0.433518;4;-30;18;-1485;4228;-527;8192;0.5934835;-0.534626;-0.4958449;-0.3407202;-9;-36;1;454;3647;1111;32768;0.6684501;-0.4570637;-0.4072022;-0.4224377;1;-45;-9;1200;3513;-1124;256;0.004155125;0.1149584;-0.7081031;-0.6966759;-2;-25;-6;-985;3918;-291;128;0.0567867;-0.06925207;0.6357341;0.7666953;6;-7;2;33;3903;1140;4;-0.4986149;0.5124654;-0.4487534;-0.5360809;-7;-11;11;335;4128;-374;16;0.6301939;-0.7740424;0;0.06094183;10;0;4;-191;3986;828;2;0.6304465;-0.3074792;-0.4432133;-0.5581717;-19;-11;14;-1475;3616;1021;8;0.6108033;-0.7836068;0.04570637;0.1038781;-71;54;17;-1147;3941;1275;0.01124077;2.806906;-0.1176853;0.0172118;3.351023;-0.15671;0.02245876;3.829156;-0.1930302;-0.0998086;4.552697;-0.1941953;-0.4092202;4.831119;-0.232849;-0.7224066;4.636085;-0.1694824;-0.7915674;3.712209;-0.1703561;-0.8049178;2.84702;-0.5564492;0.1038492;4.917822;-0.23285;0.4120777;4.827801;-0.169484;0.6272137;3.889141;-0.1392998;0.7338382;2.984021;-0.3984831;-0.3010187;2.764395;-0.1220656;-0.1706087;1.312389;-0.2466846;0;0;0;-0.3010187;2.764395;-0.1220656;-0.1706087;1.312389;-0.2466846;0;0;0
1285248.3802;NotLabelled;16384;0.5904551;-0.5609418;0.4265928;0.3933518;13;-29;-6;-174;4284;217;65536;0.71083;-0.4833795;0.265928;0.4362881;5;-39;16;-1531;4094;-505;8192;0.598354;-0.5373961;-0.4916897;-0.333795;-7;-28;-4;498;3559;1043;32768;0.6732969;-0.4612188;-0.4030471;-0.4141274;4;-43;-3;1078;3479;-1214;256;0.01108033;0.1121884;-0.7084728;-0.6966759;0;-20;0;-879;3818;-297;128;0.05540166;-0.06925207;0.6357341;0.7667966;2;-2;-1;109;3957;932;4;-0.5;0.5096953;-0.4501385;-0.5362705;-8;-11;8;341;4088;-348;16;0.6301939;-0.7741503;0;0.05955679;11;0;4;-123;4060;878;2;0.6311764;-0.3074792;-0.4473684;-0.5540166;-25;3;19;-1427;3740;1327;8;0.602493;-0.7912237;0.03601108;0.09833795;-67;72;12;-1045;3927;1305;0.01421423;2.807607;-0.1119735;0.02018537;3.351737;-0.1508218;0.02543242;3.829882;-0.1869869;-0.09828085;4.553175;-0.1891121;-0.40824;4.830926;-0.2281924;-0.7210498;4.635348;-0.1646427;-0.7842559;3.711046;-0.1649927;-0.7991375;2.842547;-0.5435199;0.1046551;4.918655;-0.2281933;0.4130491;4.829332;-0.1646438;0.6331847;3.891802;-0.1354792;0.7440791;2.986821;-0.393355;-0.2980452;2.765099;-0.1163687;-0.1672259;1.31337;-0.2437635;0;0;0;-0.2980452;2.765099;-0.1163687;-0.1672259;1.31337;-0.2437635;0;0;0
1285269.2303;NotLabelled;16384;0.5865827;-0.5609418;0.4293629;0.3961219;12;-31;-9;-86;4354;261;65536;0.7071041;-0.4819945;0.2714681;0.4404432;4;-40;14;-1697;4024;-475;8192;0.6021507;-0.5373961;-0.4889196;-0.3310249;-6;-24;-8;414;3591;1069;32768;0.6773717;-0.4626039;-0.400277;-0.4085872;6;-46;-3;960;3471;-1252;256;0.01246537;0.1094183;-0.7088829;-0.6966759;0;-17;2;-979;3826;-229;128;0.05540166;-0.06786703;0.6357341;0.7669204;3;-3;-3;103;3879;932;4;-0.5;0.5055401;-0.4515235;-0.5390322;-7;-5;4;633;4006;-390;16;0.632964;-0.7718858;0.001385042;0.05955679;12;-3;5;-307;4046;808;2;0.630994;-0.3047091;-0.4529086;-0.5512465;-30;13;23;-1455;3768;1133;8;0.5955678;-0.7976529;0.02631579;0.09141274;-64;80;8;-841;3927;1365;0.02712413;2.808235;-0.1134747;0.03309539;3.352377;-0.1521503;0.03834254;3.830533;-0.1881638;-0.08963298;4.553082;-0.1912289;-0.4012156;4.828952;-0.2307268;-0.712881;4.631613;-0.1669977;-0.7704988;3.706949;-0.1646255;-0.7823842;2.835924;-0.5374141;0.1111531;4.919703;-0.2307279;0.4200542;4.83228;-0.1669992;0.6446667;3.895818;-0.1376334;0.7616051;2.991012;-0.3934414;-0.2851352;2.765728;-0.1178845;-0.16105;1.313553;-0.2469163;0;0;0;-0.2851352;2.765728;-0.1178845;-0.16105;1.313553;-0.2469163;0;0;0
1285290.2038;NotLabelled;16384;0.5839884;-0.5595568;0.432133;0.398892;9;-30;-12;66;4326;259;65536;0.7047045;-0.4806094;0.2756233;0.4432133;2;-34;12;-1779;3942;-507;8192;0.6039131;-0.5387812;-0.4861496;-0.3296399;-5;-26;-13;380;3587;1079;32768;0.681363;-0.4639889;-0.3975069;-0.4030471;7;-41;-3;794;3375;-1318;256;0.01523546;0.1080332;-0.7076777;-0.6980609;4;-16;4;-1039;3802;-247;128;0.05540166;-0.06786703;0.6357341;0.7669204;3;-1;-6;147;3843;946;4;-0.501385;0.5041551;-0.4515235;-0.5390428;-7;-2;3;621;4022;-416;16;0.634349;-0.7707442;0.002770083;0.05955679;12;-2;4;-189;3954;824;2;0.6278533;-0.3033241;-0.4598338;-0.5498615;-34;21;27;-1483;3628;967;8;0.5886427;-0.8038219;0.01523546;0.08448754;-61;85;2;-885;3823;1423;0.03743613;2.810115;-0.09823539;0.0434074;3.354257;-0.1369113;0.04865457;3.832413;-0.172925;-0.07792197;4.555204;-0.176904;-0.3889618;4.831626;-0.2168079;-0.7010222;4.63497;-0.1529047;-0.7551472;3.710111;-0.14693;-0.7672268;2.837637;-0.5163084;0.1235817;4.921387;-0.2168089;0.4322993;4.833445;-0.1529059;0.6592656;3.897426;-0.1278035;0.7807955;2.993656;-0.3851316;-0.2748233;2.767608;-0.1026451;-0.1555712;1.31569;-0.2389235;0;0;0;-0.2748233;2.767608;-0.1026451;-0.1555712;1.31569;-0.2389235;0;0;0
1285310.3596;NotLabelled;16384;0.5809767;-0.5595568;0.434903;0.400277;6;-26;-14;210;4330;249;65536;0.7018622;-0.4806094;0.2783934;0.4459834;1;-24;11;-1881;3916;-555;8192;0.6076308;-0.5387812;-0.4833795;-0.3268698;-5;-29;-16;380;3487;1145;32768;0.6835289;-0.466759;-0.3961219;-0.3975069;7;-39;-4;812;3387;-1248;256;0.0166205;0.1052632;-0.7080638;-0.6980609;9;-14;6;-939;3810;-135;128;0.05540166;-0.06648199;0.6357341;0.7670417;4;-1;-8;157;3911;860;4;-0.5027701;0.5041551;-0.4515235;-0.5377513;-7;2;2;711;4002;-366;16;0.6357341;-0.7697018;0.004155125;0.05817174;11;-1;4;-299;3974;684;2;0.6233149;-0.299169;-0.4750692;-0.5443213;-38;13;36;-1407;3530;1063;8;0.5761772;-0.8142242;-0.008310249;0.07063711;-51;86;-6;-685;3743;1301;0.04567041;2.811297;-0.09189563;0.05164161;3.355438;-0.1305715;0.05688873;3.833595;-0.1665853;-0.07092068;4.556177;-0.1681354;-0.3824537;4.832198;-0.2069601;-0.6941418;4.634803;-0.14352;-0.7471799;3.709888;-0.1364427;-0.7598728;2.836542;-0.5037305;0.1299361;4.922832;-0.2069613;0.4388398;4.835209;-0.1435218;0.6643746;3.898821;-0.1193044;0.7903399;2.996082;-0.3781129;-0.266589;2.76879;-0.09630536;-0.151075;1.316841;-0.2354437;0;0;0;-0.266589;2.76879;-0.09630536;-0.151075;1.316841;-0.2354437;0;0;0
1285331.29;NotLabelled;16384;0.5762006;-0.5581717;0.4404432;0.4030471;0;-14;-14;344;4276;177;65536;0.7002656;-0.4792244;0.2825485;0.4473684;2;-4;14;-1823;3892;-561;8192;0.6116523;-0.5387812;-0.4792244;-0.3254848;-5;-28;-19;384;3563;1099;32768;0.6865784;-0.468144;-0.3933518;-0.3933518;6;-41;-3;722;3407;-1152;256;0.01800554;0.1024931;-0.7070688;-0.699446;6;-12;9;-881;3842;-91;128;0.0567867;-0.06509695;0.6371191;0.7659092;4;-2;-9;107;3955;740;4;-0.5041551;0.5027701;-0.4515235;-0.5377513;-7;4;4;657;4018;-458;16;0.6385041;-0.7674055;0.004155125;0.05817174;10;3;5;-377;4020;566;2;0.6222754;-0.2977839;-0.4819945;-0.5401662;-39;14;39;-1459;3620;975;8;0.5720221;-0.8174961;-0.02077562;0.06371191;-46;87;-5;-453;3773;1469;0.05587595;2.812931;-0.0903831;0.06184721;3.357072;-0.129059;0.06709435;3.835228;-0.1650728;-0.05931611;4.558054;-0.1675026;-0.3703063;4.834631;-0.2067184;-0.6823889;4.637915;-0.1431104;-0.7341163;3.712962;-0.1323615;-0.7439111;2.838415;-0.4968747;0.1422578;4.924274;-0.2067194;0.4509782;4.836128;-0.1431119;0.6787084;3.900204;-0.1216637;0.8091838;2.997189;-0.3772564;-0.2563834;2.770423;-0.09479275;-0.1437395;1.318138;-0.2327649;0;0;0;-0.2563834;2.770423;-0.09479275;-0.1437395;1.318138;-0.2327649;0;0;0
1285351.323;NotLabelled;16384;0.5751392;-0.5581717;0.4418283;0.4030471;-3;-9;-14;292;4258;173;65536;0.6996393;-0.4806094;0.2839335;0.4459834;3;0;16;-1773;3882;-693;8192;0.6183168;-0.5401662;-0.4709141;-0.3227147;-3;-30;-23;554;3657;1063;32768;0.693289;-0.4709141;-0.3878116;-0.3836565;0;-39;0;732;3577;-972;256;0.01800554;0.101108;-0.7058958;-0.700831;6;-11;12;-919;3870;-23;128;0.0567867;-0.06371191;0.6371191;0.7660257;0;-2;-11;153;3901;812;4;-0.5055401;0.5027701;-0.4501385;-0.5376121;-7;3;4;653;4022;-498;16;0.6398892;-0.7663549;0.004155125;0.0567867;8;1;6;-281;3970;552;2;0.6188331;-0.2963989;-0.4903047;-0.5373961;-39;14;42;-1419;3666;1205;8;0.566482;-0.8214009;-0.03185596;0.05817174;-40;85;-5;-455;3891;1329;0.06241298;2.81474;-0.07905619;0.06838256;3.358726;-0.1198552;0.07362814;3.836739;-0.1577345;-0.05121035;4.559842;-0.1581378;-0.3616165;4.837201;-0.1964531;-0.6740966;4.64099;-0.1332321;-0.7252987;3.7161;-0.1163365;-0.7373468;2.840593;-0.4784675;0.1511416;4.925728;-0.1964539;0.4596994;4.836738;-0.1332332;0.6868365;3.900521;-0.1196866;0.8198792;2.99819;-0.3763711;-0.2498466;2.772216;-0.08328672;-0.14089;1.31993;-0.224189;0;0;0;-0.2498466;2.772216;-0.08328672;-0.14089;1.31993;-0.224189;0;0;0
1285372.1663;NotLabelled;16384;0.5730006;-0.5581717;0.4445983;0.4030471;-4;-6;-13;202;4228;99;65536;0.6999573;-0.4806094;0.2853186;0.4445983;5;4;17;-1765;3880;-715;8192;0.62289;-0.5401662;-0.466759;-0.3199446;-2;-31;-23;606;3711;1119;32768;0.6944724;-0.4736842;-0.3850415;-0.3808864;-2;-33;5;716;3639;-794;256;0.01939058;0.09556787;-0.7052542;-0.702216;7;-6;15;-1013;3848;-127;128;0.05817174;-0.06232687;0.6357341;0.7671855;0;3;-13;297;3893;688;4;-0.5069252;0.501385;-0.4501385;-0.5376014;-8;4;5;693;4040;-484;16;0.6398892;-0.7664475;0.005540166;0.05540166;5;0;6;-357;3934;528;2;0.6164447;-0.2950138;-0.4986149;-0.533241;-40;13;43;-1461;3642;1197;8;0.5637119;-0.8232613;-0.04293629;0.05124654;-33;80;-6;-311;3867;1345;0.06650013;2.815451;-0.07189783;0.07246969;3.359437;-0.1126958;0.07771525;3.837451;-0.1505742;-0.04554807;4.56082;-0.1485095;-0.3553709;4.83898;-0.1857275;-0.6682419;4.643241;-0.1229784;-0.7198226;3.718415;-0.1038875;-0.7323614;2.841211;-0.4618732;0.1575786;4.92639;-0.1857286;0.4659776;4.83652;-0.12298;0.689959;3.899448;-0.1208804;0.8273331;2.99878;-0.3810965;-0.2457594;2.772927;-0.07612833;-0.1369811;1.320967;-0.220477;0;0;0;-0.2457594;2.772927;-0.07612833;-0.1369811;1.320967;-0.220477;0;0;0
1285393.1909;NotLabelled;16384;0.5728968;-0.5581717;0.4459834;0.4016621;-6;-5;-12;214;4224;101;65536;0.699701;-0.4806094;0.2880886;0.4432133;7;4;19;-1783;3868;-755;8192;0.6254916;-0.5415512;-0.4626039;-0.3185596;-1;-28;-23;824;3719;1057;32768;0.6963798;-0.4764543;-0.3808864;-0.3781163;-6;-30;10;656;3799;-816;256;0.01800554;0.09418282;-0.702216;-0.7054772;8;-5;16;-967;3938;-91;128;0.06094183;-0.06094183;0.6357341;0.7670817;-1;4;-13;173;3979;800;4;-0.5096953;0.5;-0.4487534;-0.53743;-8;10;5;569;3958;-526;16;0.6426592;-0.7643222;0.005540166;0.05263158;4;7;9;-237;3966;614;2;0.6150442;-0.2936288;-0.5055401;-0.5290859;-39;11;44;-1523;3660;1061;8;0.5595568;-0.8258554;-0.05263158;0.04570637;-30;81;-5;-237;3869;1341;0.07684371;2.815757;-0.07150925;0.08281474;3.359874;-0.1105287;0.08806169;3.838008;-0.1468444;-0.03083538;4.562104;-0.1435122;-0.338985;4.84219;-0.1801668;-0.6530134;4.648235;-0.1176603;-0.7054799;3.723553;-0.09445366;-0.7176208;2.845638;-0.4507049;0.1744824;4.926504;-0.1801677;0.4823511;4.834668;-0.1176614;0.707559;3.897894;-0.1209064;0.8452691;2.99656;-0.3786264;-0.2354157;2.773247;-0.07589;-0.1296731;1.321317;-0.222783;0;0;0;-0.2354157;2.773247;-0.07589;-0.1296731;1.321317;-0.222783;0;0;0
1285414.2051;NotLabelled;16384;0.5731646;-0.5567867;0.4473684;0.4016621;-9;-6;-12;236;4108;11;65536;0.7008775;-0.4806094;0.2894737;0.4404432;10;4;19;-1773;3822;-745;8192;0.6292435;-0.5415512;-0.4584487;-0.3171745;1;-24;-23;838;3777;1007;32768;0.6976899;-0.4778393;-0.3781163;-0.3767313;-9;-28;16;678;3761;-866;256;0.01800554;0.09279778;-0.700831;-0.7070363;8;-2;17;-889;3872;-97;128;0.06232687;-0.06094183;0.634349;0.7681164;-3;6;-14;215;3929;866;4;-0.5110803;0.5;-0.4473684;-0.5372694;-10;13;4;545;4020;-570;16;0.6426592;-0.7644163;0.005540166;0.05124654;3;7;10;-347;4012;608;2;0.6123717;-0.2922437;-0.5138504;-0.5249307;-37;13;45;-1441;3554;1117;8;0.5567867;-0.8274056;-0.06232687;0.03878116;-27;79;-7;-257;3861;1179;0.08859839;2.817352;-0.05611559;0.09456916;3.361444;-0.09549233;0.09981587;3.839553;-0.1321219;-0.01587746;4.56411;-0.1223601;-0.3228375;4.845857;-0.156154;-0.6376327;4.652754;-0.09488127;-0.6926218;3.728288;-0.06903109;-0.7094395;2.849029;-0.4217594;0.1909968;4.927906;-0.1561548;0.498543;4.834178;-0.09488206;0.7212121;3.896823;-0.1026822;0.8550691;2.99512;-0.36114;-0.2236611;2.774839;-0.06046619;-0.1228447;1.323315;-0.2146488;0;0;0;-0.2236611;2.774839;-0.06046619;-0.1228447;1.323315;-0.2146488;0;0;0
1285435.2248;NotLabelled;16384;0.5722184;-0.5554016;0.4515235;0.400277;-13;-5;-11;168;4184;119;65536;0.7021136;-0.4792244;0.2950138;0.4362881;17;3;19;-1851;3816;-815;8192;0.6317551;-0.5429363;-0.4542936;-0.3157895;2;-22;-22;858;3801;997;32768;0.6997175;-0.4792244;-0.3725762;-0.3767313;-11;-26;21;608;3831;-906;256;0.0166205;0.0900277;-0.700831;-0.7074282;7;0;17;-953;3832;-165;128;0.06371191;-0.05955679;0.634349;0.7681114;-4;8;-14;237;3963;880;4;-0.5138504;0.5;-0.4473684;-0.5346207;-10;15;3;439;4090;-598;16;0.6426592;-0.7645078;0.005540166;0.04986149;3;11;11;-359;4026;676;2;0.6059204;-0.2908587;-0.5290859;-0.5180055;-28;14;43;-1297;3452;1201;8;0.5526316;-0.8291681;-0.07894737;0.02908587;-22;52;-7;157;3715;1259;0.09182037;2.817118;-0.05329933;0.09779244;3.361334;-0.09091207;0.1030403;3.83956;-0.1259916;-0.0110646;4.564322;-0.1132837;-0.3174497;4.846865;-0.1456265;-0.6325932;4.654209;-0.08473635;-0.6904113;3.729992;-0.05628896;-0.7116406;2.850018;-0.4069893;0.1965616;4.927797;-0.1459079;0.5039737;4.833164;-0.08535792;0.7256504;3.895614;-0.09690322;0.8572007;2.993873;-0.3564148;-0.2204389;2.774619;-0.05779883;-0.1198217;1.323457;-0.2154793;0;0;0;-0.2204389;2.774619;-0.05779883;-0.1198217;1.323457;-0.2154793;0;0;0
1285456.1938;NotLabelled;16384;0.5734323;-0.5540166;0.4529086;0.398892;-15;-4;-11;158;4074;95;65536;0.7033325;-0.4778393;0.2963989;0.434903;18;2;19;-1881;3752;-745;8192;0.6361805;-0.5443213;-0.4473684;-0.3144044;4;-10;-24;1034;3827;1023;32768;0.7036161;-0.4819945;-0.3614958;-0.3767313;-14;-22;31;484;3855;-966;256;0.01523546;0.08864266;-0.699446;-0.7090033;10;2;17;-861;3848;-177;128;0.06648199;-0.05955679;0.632964;0.7690187;-3;14;-13;213;4045;724;4;-0.5152354;0.5;-0.4459834;-0.5344448;-12;14;2;337;4102;-584;16;0.6440443;-0.7635173;0.005540166;0.04709141;3;8;12;-221;4044;782;2;0.6034142;-0.2908587;-0.534626;-0.5152354;-25;15;42;-1299;3474;1221;8;0.5512465;-0.8298191;-0.08310249;0.02493075;-23;42;-3;243;3757;1089;0.1022133;2.817842;-0.05534727;0.1081853;3.362046;-0.09314533;0.113433;3.84026;-0.1283877;0.003597489;4.565682;-0.1156824;-0.3010988;4.850029;-0.1481656;-0.6174054;4.659231;-0.08745894;-0.6808719;3.735434;-0.05741242;-0.7137219;2.853875;-0.4032032;0.213381;4.927928;-0.1481667;0.5201973;4.83148;-0.08746046;0.7392357;3.893418;-0.1058456;0.8640476;2.991959;-0.3696319;-0.210046;2.775342;-0.05983105;-0.1164821;1.323595;-0.2164617;0;0;0;-0.210046;2.775342;-0.05983105;-0.1164821;1.323595;-0.2164617;0;0;0
1285476.599;NotLabelled;16384;0.5746338;-0.5526316;0.4542936;0.3975069;-17;-3;-10;264;4080;133;65536;0.7048052;-0.4764543;0.299169;0.432133;21;4;17;-1831;3746;-699;8192;0.6374353;-0.5443213;-0.4445983;-0.3157895;6;-5;-25;948;3767;987;32768;0.7047467;-0.4833795;-0.3559557;-0.3781163;-15;-16;36;436;3877;-998;256;0.01108033;0.08587258;-0.6966759;-0.7121417;11;11;18;-829;3896;-37;128;0.07202215;-0.05955679;0.6315789;0.7696583;-7;20;-13;179;4035;848;4;-0.5180055;0.5;-0.4459834;-0.5317603;-14;14;0;453;4090;-542;16;0.6440443;-0.7636831;0.005540166;0.04432133;3;3;13;-165;4036;760;2;0.5995855;-0.2908587;-0.5415512;-0.5124654;-21;18;41;-1417;3402;1317;8;0.5484765;-0.8313053;-0.08725762;0.02216066;-22;33;-2;261;3775;963;0.1088088;2.818552;-0.04812689;0.1147819;3.362861;-0.08436693;0.1200307;3.841174;-0.1182402;0.01321048;4.566989;-0.1026004;-0.2903233;4.852721;-0.1337764;-0.6073827;4.662997;-0.07363558;-0.6758199;3.739555;-0.04360734;-0.7137545;2.858368;-0.3898249;0.2244748;4.928489;-0.1337772;0.5309241;4.83053;-0.07363655;0.7450632;3.891545;-0.100599;0.8547972;2.990763;-0.3732484;-0.2034504;2.776065;-0.05274221;-0.1102889;1.324687;-0.2129979;0;0;0;-0.2034504;2.776065;-0.05274221;-0.1102889;1.324687;-0.2129979;0;0;0
1285497.5157;NotLabelled;16384;0.5737668;-0.5512465;0.4570637;0.3975069;-20;-2;-10;218;4034;151;65536;0.7062504;-0.4750692;0.301939;0.4293629;23;5;17;-1933;3718;-705;8192;0.6377121;-0.5443213;-0.4432133;-0.3171745;7;1;-24;928;3771;1021;32768;0.7067758;-0.4833795;-0.3504155;-0.3795014;-16;-9;40;396;3887;-992;256;0.008310249;0.08587258;-0.6952909;-0.7135317;8;14;18;-775;3904;-23;128;0.07479224;-0.06094183;0.6301939;0.7704206;-9;21;-13;265;3979;798;4;-0.5221606;0.5;-0.4445983;-0.5288484;-15;22;0;461;4060;-650;16;0.6440443;-0.7639016;0.006925208;0.0401662;4;9;17;-281;4054;700;2;0.5957257;-0.2908587;-0.5470914;-0.5110803;-13;21;39;-1327;3242;1293;8;0.5470914;-0.8321403;-0.08864266;0.01939058;-22;19;-2;457;3681;905;0.1217517;2.819338;-0.04965417;0.1277256;3.363721;-0.08477309;0.1329752;3.842103;-0.1176612;0.03363855;4.56883;-0.09615364;-0.2669757;4.857903;-0.1247139;-0.5859033;4.670974;-0.065707;-0.6592073;3.747912;-0.03546315;-0.7060165;2.866529;-0.3800907;0.2485738;4.928377;-0.1247149;0.5540648;4.826802;-0.06570844;0.7638679;3.886992;-0.09759562;0.8635873;2.986349;-0.3745154;-0.1905074;2.776861;-0.05436401;-0.1052248;1.324933;-0.2140263;0;0;0;-0.1905074;2.776861;-0.05436401;-0.1052248;1.324933;-0.2140263;0;0;0
1285517.3346;NotLabelled;16384;0.5758992;-0.5498615;0.4584487;0.3947368;-21;1;-8;290;4090;151;65536;0.7082629;-0.4736842;0.3033241;0.4265928;24;8;16;-1931;3690;-631;8192;0.6379827;-0.5443213;-0.4418283;-0.3185596;8;9;-24;934;3801;995;32768;0.7065803;-0.4833795;-0.3462604;-0.3836565;-15;-6;43;428;3927;-1000;256;0.005540166;0.08587258;-0.6939058;-0.7149056;8;17;17;-801;3846;-97;128;0.07756232;-0.06232687;0.6274238;0.7722945;-14;22;-13;323;3869;818;4;0.5275354;-0.501385;0.4445983;0.5221606;-16;23;0;325;4072;-626;16;0.6454294;-0.7628587;0.008310249;0.03739612;4;8;19;-299;3998;734;2;0.5905899;-0.2908587;-0.5526316;-0.5110803;-4;25;39;-1089;3254;1321;8;0.5457063;-0.8331091;-0.08864266;0.0166205;-22;5;-2;527;3663;759;0.140179;2.819927;-0.04809616;0.146154;3.364405;-0.08171472;0.1514046;3.842875;-0.1132843;0.05514091;4.569922;-0.08881722;-0.2442826;4.860365;-0.115956;-0.563938;4.674544;-0.05738901;-0.6399497;3.751896;-0.02173221;-0.6963443;2.870377;-0.3645748;0.271558;4.928674;-0.1161607;0.5766737;4.825586;-0.05784078;0.7830158;3.885056;-0.09104912;0.8733765;2.985603;-0.374963;-0.1720798;2.777463;-0.05293241;-0.09544402;1.3254;-0.215715;0;0;0;-0.1720798;2.777463;-0.05293241;-0.09544402;1.3254;-0.215715;0;0;0
1285538.2697;NotLabelled;16384;0.5770622;-0.5484765;0.4598338;0.3933518;-23;5;-7;284;4088;145;65536;0.7102536;-0.4722992;0.3047091;0.4238227;26;12;16;-1971;3704;-631;8192;0.638731;-0.5429363;-0.4404432;-0.3213296;10;15;-24;906;3773;989;32768;0.7084281;-0.4833795;-0.3393352;-0.3864266;-15;-6;47;576;3925;-978;256;0.002770083;0.08587258;-0.6939058;-0.7149217;7;21;16;-823;3830;-127;128;0.08033241;-0.06371191;0.6260388;0.7730219;-16;23;-12;311;4035;736;4;0.5314212;-0.501385;0.4432133;0.5193906;-19;22;0;321;4020;-672;16;0.6454294;-0.7629731;0.009695291;0.03462604;5;6;20;-187;4004;652;2;0.5788646;-0.2936288;-0.5609418;-0.5138504;14;25;38;-999;3180;1335;8;0.5443213;-0.8345562;-0.08310249;0.01800554;-10;-23;-4;675;3727;697;0.1627461;2.822321;-0.04965616;0.1687232;3.366999;-0.07985615;0.1739759;3.845658;-0.1084216;0.08077804;4.573003;-0.08110218;-0.2174224;4.864808;-0.1070693;-0.5378518;4.680108;-0.04918954;-0.6210368;3.757994;-0.01578431;-0.6853863;2.876987;-0.3585426;0.2987015;4.930944;-0.1070702;0.6033865;4.826345;-0.04919096;0.8065671;3.885294;-0.08682505;0.8858023;2.986282;-0.3754189;-0.1495125;2.779888;-0.05478037;-0.08757254;1.326524;-0.2121135;0;0;0;-0.1495125;2.779888;-0.05478037;-0.08757254;1.326524;-0.2121135;0;0;0
1285565.1344;NotLabelled;16384;0.5824804;-0.5457063;0.4598338;0.3891967;-26;14;-2;308;4058;117;65536;0.71417;-0.4695291;0.3074792;0.4182825;27;23;14;-2013;3732;-591;8192;0.6375751;-0.5415512;-0.4376731;-0.3296399;13;22;-22;800;3855;985;32768;0.7109474;-0.4806094;-0.3282548;-0.3947368;-16;6;53;478;4003;-974;256;0;0.08725762;-0.6925207;-0.7161013;6;24;15;-855;3898;-123;128;0.08310249;-0.06509695;0.6232687;0.77485;-13;23;-11;257;4051;702;4;0.5341145;-0.501385;0.4432133;0.5166205;-22;23;0;397;4108;-754;16;0.6468144;-0.7619768;0.009695291;0.03047091;5;8;22;-307;3984;680;2;0.5735059;-0.2963989;-0.5637119;-0.5152354;21;24;39;-1083;3100;1067;8;0.5429363;-0.8357965;-0.07894737;0.02077562;-4;-29;-4;617;3447;433;0.1780524;2.822699;-0.04079225;0.1840304;3.367456;-0.06953218;0.1892839;3.84619;-0.09681448;0.09888514;4.573825;-0.06787466;-0.1980453;4.86689;-0.09419806;-0.5194309;4.683319;-0.03805892;-0.6113341;3.761937;-0.007394984;-0.6823395;2.882409;-0.3526278;0.3183345;4.93096;-0.0920265;0.6223733;4.824986;-0.03325649;0.8182455;3.882677;-0.07755035;0.8858958;2.986022;-0.3762505;-0.134206;2.78028;-0.04603927;-0.07959752;1.327358;-0.2100311;0;0;0;-0.134206;2.78028;-0.04603927;-0.07959752;1.327358;-0.2100311;0;0;0
1285585.1805;NotLabelled;16384;0.5856123;-0.5443213;0.4598338;0.3864266;-28;17;0;284;4066;127;65536;0.7168978;-0.468144;0.3088643;0.4141274;27;24;12;-1973;3748;-591;8192;0.6365874;-0.5401662;-0.4376731;-0.333795;14;25;-21;734;3985;973;32768;0.711321;-0.4792244;-0.3227147;-0.400277;-18;13;54;388;4079;-866;256;-0.004155125;0.08864266;-0.6911357;-0.7172564;6;25;14;-829;4004;-163;128;0.08587258;-0.06648199;0.6218836;0.7755429;-13;25;-9;299;4093;722;4;0.5367801;-0.501385;0.4432133;0.5138504;-23;24;0;389;4040;-754;16;0.6468144;-0.7620636;0.01108033;0.02770083;5;8;25;-345;4096;616;2;0.5650969;-0.300554;-0.5674531;-0.5180055;33;22;38;-1087;3100;1003;8;0.5470914;-0.8335155;-0.0734072;0.0235457;23;-46;-3;-59;4549;-811;0.1941232;2.823893;-0.04460448;0.200103;3.368817;-0.0699738;0.2053583;3.84771;-0.09429397;0.1167504;4.575515;-0.06411214;-0.1796208;4.869288;-0.08880122;-0.5011782;4.686384;-0.03147824;-0.6004216;3.765746;-0.001375109;-0.6881171;2.886543;-0.3435842;0.3369088;4.932177;-0.08880206;0.6409572;4.825441;-0.03147936;0.8269488;3.881434;-0.08181524;0.8705439;2.98835;-0.3953238;-0.1181348;2.781507;-0.05013505;-0.07262142;1.327791;-0.209816;0;0;0;-0.1181348;2.781507;-0.05013505;-0.07262142;1.327791;-0.209816;0;0;0
1285606.2572;NotLabelled;16384;0.5887111;-0.5429363;0.4598338;0.3836565;-30;18;2;204;4128;101;65536;0.7201816;-0.466759;0.3088643;0.4099723;28;26;11;-1981;3826;-545;8192;0.6355681;-0.5387812;-0.4376731;-0.3379501;15;29;-20;616;4003;993;32768;0.7116055;-0.4778393;-0.3171745;-0.4058172;-19;9;54;560;4195;-866;256;-0.01246537;0.09279778;-0.6897507;-0.7179674;4;32;11;-821;4080;-129;128;0.09141274;-0.07063711;0.6177285;0.7778596;-16;24;-8;149;4059;836;4;0.5431588;-0.501385;0.4418283;0.5083103;-25;22;2;321;4088;-436;16;0.6481994;-0.7610977;0.01385042;0.01939058;4;5;29;-175;4012;552;2;0.5581717;-0.3060942;-0.5688087;-0.5207756;43;11;41;-965;3392;909;8;0.5526316;-0.8303079;-0.06648199;0.02770083;50;-44;3;-101;3627;121;0.2091382;2.824379;-0.04605845;0.2151187;3.369367;-0.0700083;0.2203746;3.848322;-0.093081;0.1349245;4.576384;-0.06010839;-0.160186;4.871525;-0.08355094;-0.4825048;4.689795;-0.02677181;-0.5882583;3.769848;0.002299264;-0.6869792;2.891433;-0.3389292;0.3566102;4.932183;-0.08355152;0.6602202;4.823919;-0.02677235;0.8411134;3.879139;-0.08105168;0.8698211;2.988338;-0.4026652;-0.1031197;2.782008;-0.05170831;-0.06633727;1.327974;-0.2107414;0;0;0;-0.1031197;2.782008;-0.05170831;-0.06633727;1.327974;-0.2107414;0;0;0
1285627.169;NotLabelled;16384;0.5928512;-0.5415512;0.4584487;0.3808864;-29;19;2;136;4072;117;65536;0.7234241;-0.4653739;0.3088643;0.4058172;28;25;8;-1917;3862;-505;8192;0.6345168;-0.5373961;-0.4376731;-0.3421052;17;31;-18;584;4041;1007;32768;0.7125995;-0.4764543;-0.3116343;-0.4099723;-19;1;54;508;4165;-994;256;-0.0166205;0.09556787;-0.6883656;-0.7188486;2;33;11;-745;4048;-179;128;0.09418282;-0.07202215;0.6163435;0.7785006;-18;23;-8;107;4087;806;4;0.5458857;-0.5;0.4432133;0.5055401;-26;19;4;301;4060;-280;16;0.6495845;-0.759955;0.0166205;0.01523546;4;5;31;-95;4094;606;2;0.5526316;-0.3130194;-0.567906;-0.5235457;49;1;40;-923;3612;1053;8;0.5595568;-0.8258751;-0.06371191;0.02770083;47;7;19;-147;3907;1577;0.2451122;2.825494;-0.04202618;0.2510948;3.370668;-0.06128638;0.2563528;3.849804;-0.08023757;0.1756459;4.578285;-0.04466926;-0.1175506;4.875416;-0.06695168;-0.4410208;4.695585;-0.01067893;-0.553041;3.77638;0.01836233;-0.6647768;2.899373;-0.3224751;0.3996288;4.932717;-0.06695253;0.7025512;4.822284;-0.01067989;0.8778248;3.876762;-0.07019112;0.8882935;2.988441;-0.3996825;-0.06714508;2.783173;-0.04806981;-0.04776857;1.329026;-0.2091265;0;0;0;-0.06714508;2.783173;-0.04806981;-0.04776857;1.329026;-0.2091265;0;0;0
1285648.2102;NotLabelled;16384;0.5967569;-0.5401662;0.4584487;0.3767313;-29;19;2;14;4042;251;65536;0.7267418;-0.4626039;0.3088643;0.4030471;28;22;4;-1949;3804;-439;8192;0.6334336;-0.536011;-0.4376731;-0.3462604;17;31;-15;608;3975;925;32768;0.7135223;-0.4750692;-0.3060942;-0.4141274;-19;1;53;516;4055;-1108;256;-0.02077562;0.09695291;-0.6869806;-0.7198793;1;34;12;-707;4036;-205;128;0.09695291;-0.0734072;0.6135734;0.7802174;-15;21;-7;-59;4075;714;4;0.5496976;-0.4986149;0.4432133;0.5027701;-28;15;4;251;4078;-100;16;0.6495845;-0.7599613;0.01939058;0.01108033;3;2;33;53;3988;606;2;0.5470914;-0.3199446;-0.5668494;-0.5263157;50;4;35;-1049;3944;1273;8;0.5650969;-0.8222984;-0.06371191;0.02077562;27;24;44;167;4211;2159;0.2704084;2.826533;-0.04045976;0.2763915;3.371754;-0.05836097;0.2816499;3.850935;-0.07611778;0.2027451;4.579481;-0.03791939;-0.08972976;4.877408;-0.059026;-0.4136187;4.698171;-0.003267139;-0.5318382;3.779655;0.02286743;-0.6539137;2.90411;-0.3181836;0.4275887;4.933439;-0.05902682;0.730261;4.822064;-0.003268123;0.9001517;3.875825;-0.0668692;0.896421;2.990281;-0.4038936;-0.04184888;2.784228;-0.04661747;-0.0358517;1.329825;-0.2064149;0;0;0;-0.04184888;2.784228;-0.04661747;-0.0358517;1.329825;-0.2064149;0;0;0
1285669.1813;NotLabelled;16384;0.603751;-0.5373961;0.4570637;0.3711911;-28;21;4;-124;4140;287;65536;0.7322339;-0.4584487;0.3074792;0.398892;25;18;-5;-1879;3944;-363;8192;0.6272802;-0.534626;-0.4404432;-0.3559557;17;36;-7;606;4067;867;32768;0.7151551;-0.4722992;-0.2950138;-0.4224377;-16;14;51;566;4093;-1316;256;-0.02493075;0.09972299;-0.6869806;-0.7193688;-1;35;11;-667;4114;-185;128;0.101108;-0.07479224;0.6121883;0.7806464;-6;21;-7;-253;4179;708;4;0.5523539;-0.4972299;0.4445983;0.5;-30;14;5;297;4000;-60;16;0.6495845;-0.7599348;0.02216066;0.006925208;3;0;34;103;4008;592;2;0.5373961;-0.3282548;-0.5662009;-0.5318559;32;14;19;-1149;4316;1313;8;0.5761772;-0.8148331;-0.06371191;0.002770083;51;47;49;-559;3835;919;0.2947046;2.82616;-0.04027715;0.3006887;3.371478;-0.05492579;0.3059483;3.850757;-0.06982397;0.2302662;4.579505;-0.02906241;-0.06090156;4.878788;-0.04902274;-0.3855565;4.700786;0.006234325;-0.5123687;3.783407;0.03200299;-0.6443756;2.910372;-0.3117716;0.4566587;4.932541;-0.04902336;0.7588577;4.819642;0.006233752;0.923502;3.872715;-0.06082827;0.9061078;2.990103;-0.4050414;-0.01755218;2.783892;-0.04670752;-0.02438258;1.329733;-0.2086708;0;0;0;-0.01755218;2.783892;-0.04670752;-0.02438258;1.329733;-0.2086708;0;0;0
1285690.27;NotLabelled;16384;0.606672;-0.536011;0.4570637;0.368421;-26;22;5;-200;4182;323;65536;0.73443;-0.4570637;0.3060942;0.3975069;22;17;-10;-1859;3972;-369;8192;0.6251097;-0.533241;-0.4418283;-0.3601108;16;39;-4;470;4037;845;32768;0.714476;-0.4709141;-0.2908587;-0.4279778;-15;21;47;614;4065;-1364;256;-0.03047091;0.1024931;-0.6869806;-0.7187659;-2;36;12;-495;4108;-265;128;0.1038781;-0.07617728;0.6121883;0.7801486;0;22;-7;-411;4139;800;4;0.5562111;-0.4944598;0.4459834;0.4972299;-30;14;7;309;3956;78;16;0.6495845;-0.7598288;0.02631579;0.002770083;2;-2;34;137;3972;534;2;0.533241;-0.33241;-0.5650953;-0.534626;28;11;19;-723;4162;1009;8;0.5817174;-0.810873;-0.06371191;-0.005540166;41;30;48;-75;4101;1905;0.3189878;2.826007;-0.04426817;0.3249723;3.371351;-0.05789272;0.3302321;3.850657;-0.07189081;0.2561244;4.579583;-0.03141819;-0.03439475;4.879488;-0.05150757;-0.3594359;4.702209;0.003806308;-0.4990585;3.786578;0.02514935;-0.6439446;2.917973;-0.3246058;0.4832804;4.932122;-0.05150855;0.7852323;4.81859;0.003804922;0.9387581;3.86965;-0.06113045;0.8958408;2.993371;-0.4190164;0.006731137;2.783751;-0.0507842;-0.01332057;1.329521;-0.211005;0;0;0;0.006731137;2.783751;-0.0507842;-0.01332057;1.329521;-0.211005;0;0;0
1285710.1718;NotLabelled;16384;0.6105992;-0.534626;0.4556787;0.365651;-24;22;6;-184;4292;491;65536;0.736721;-0.4542936;0.3047091;0.3975069;19;15;-16;-1881;4040;-367;8192;0.6219099;-0.5318559;-0.4445983;-0.3642659;14;41;0;346;4151;743;32768;0.7140786;-0.468144;-0.2880886;-0.433518;-14;27;41;492;3999;-1242;256;-0.0401662;0.1066482;-0.6855956;-0.7190074;-2;37;16;-269;4222;-255;128;0.1108033;-0.07617728;0.6121883;0.7791951;4;21;-8;-545;4219;852;4;0.5598978;-0.4930748;0.4459834;0.4944598;-31;16;7;295;3996;158;16;0.6509695;-0.7585465;0.02908587;0;3;-3;35;173;3948;588;2;0.5304709;-0.33518;-0.5647541;-0.536011;25;11;18;-561;4192;923;8;0.5872576;-0.8069006;-0.06232687;-0.01246537;41;13;38;-1025;4937;1613;0.3497537;2.825128;-0.04606574;0.355738;3.370456;-0.06030612;0.3609976;3.849746;-0.07484545;0.289912;4.578999;-0.0348421;0.0006408952;4.880094;-0.05514143;-0.3251365;4.7042;0.0002642497;-0.4710842;3.789559;0.02175269;-0.6223688;2.922823;-0.3299265;0.5185298;4.930579;-0.0551423;0.8200047;4.815831;0.0002631247;0.9691882;3.866314;-0.06635338;0.9110936;2.992791;-0.4288039;0.03749697;2.782864;-0.05253017;-0.0003169551;1.329119;-0.2139398;0;0;0;0.03749697;2.782864;-0.05253017;-0.0003169551;1.329119;-0.2139398;0;0;0
1285731.1742;NotLabelled;16384;0.6122495;-0.534626;0.4556787;0.3628809;-22;23;6;-172;4302;609;65536;0.739559;-0.4515235;0.301939;0.3975069;14;16;-21;-1837;4158;-375;8192;0.6186502;-0.5304709;-0.4473684;-0.368421;13;43;0;132;4185;639;32768;0.7124487;-0.466759;-0.2880886;-0.4376731;-12;30;32;412;3943;-1174;256;-0.04570637;0.1080332;-0.6855956;-0.7184695;-4;37;17;-223;4276;-247;128;0.1149584;-0.07617728;0.6135734;0.7775019;10;16;-10;-679;4343;892;4;0.5684444;-0.4889196;0.4473684;0.4875346;-31;20;9;81;3936;250;16;0.6509695;-0.7581366;0.03739612;-0.008310249;2;-8;35;221;3962;620;2;0.5263157;-0.3379501;-0.5643548;-0.5387812;26;14;21;-587;4594;1093;8;0.5927978;-0.8028404;-0.06094183;-0.01800554;44;15;34;-1117;4467;1997;0.3715371;2.824986;-0.04277132;0.3775209;3.370271;-0.05858107;0.38278;3.849517;-0.07449973;0.3179628;4.579255;-0.03273643;0.03128137;4.882867;-0.05224844;-0.2959814;4.709644;0.00281249;-0.4478733;3.795949;0.02334242;-0.6087907;2.932139;-0.3312477;0.5495846;4.928908;-0.05224925;0.8500754;4.811446;0.002811462;0.9956341;3.861404;-0.06434914;0.9223071;2.991207;-0.4319983;0.05928018;2.782704;-0.04910439;0.006895941;1.329508;-0.2113928;0;0;0;0.05928018;2.782704;-0.04910439;0.006895941;1.329508;-0.2113928;0;0;0
1285752.2462;NotLabelled;16384;0.6161101;-0.533241;0.4542936;0.3601108;-19;28;7;-214;4418;697;65536;0.7422673;-0.4501385;0.299169;0.3961219;8;18;-25;-1773;4252;-381;8192;0.6143078;-0.5304709;-0.4487534;-0.3739612;12;42;0;-46;4211;473;32768;0.711348;-0.4653739;-0.2867036;-0.4418283;-7;28;20;406;3987;-984;256;-0.05263158;0.1094183;-0.6855956;-0.7177857;-3;37;20;-143;4430;-295;128;0.1163435;-0.07479224;0.6149584;0.7763353;15;7;-11;-713;4427;862;4;0.573163;-0.4875346;0.4473684;0.4833795;-33;20;11;31;3958;302;16;0.6509695;-0.7578076;0.04293629;-0.01108033;3;-13;36;331;3992;592;2;0.5221606;-0.3407202;-0.5652243;-0.5401662;23;15;28;-799;5138;955;8;0.5983379;-0.7987199;-0.05955679;-0.02216066;35;6;26;-993;4911;1735;0.4323557;2.821821;-0.04860014;0.4383385;3.367015;-0.06730819;0.4435967;3.84617;-0.08577409;0.3831852;4.576326;-0.04473301;0.09834471;4.881646;-0.06456821;-0.229963;4.710457;-0.009365931;-0.3856841;3.797464;0.01356564;-0.5515881;2.93718;-0.3472421;0.6169164;4.924556;-0.06456886;0.9166879;4.805334;-0.009366482;1.059266;3.854769;-0.07549858;0.9785253;2.985618;-0.4440706;0.1200985;2.779507;-0.05469015;0.03566878;1.327953;-0.2181617;0;0;0;0.1200985;2.779507;-0.05469015;0.03566878;1.327953;-0.2181617;0;0;0
1285773.2862;NotLabelled;16384;0.6249086;-0.533241;0.4487534;0.3518005;-16;42;9;-366;4544;917;65536;0.747766;-0.4473684;0.2894737;0.3961219;-3;30;-33;-1863;4310;-541;8192;0.6086591;-0.5277008;-0.4515235;-0.3836565;15;37;-1;-256;4323;315;32768;0.7059746;-0.4626039;-0.2936288;-0.4487534;5;45;0;680;4047;-1140;256;-0.05817174;0.1094183;-0.6842105;-0.7186791;-1;36;22;-55;4544;-385;128;0.1191136;-0.0734072;0.6163435;0.7749478;13;1;-13;-861;4575;976;4;0.576748;-0.4847645;0.4487534;0.4806094;-35;18;13;69;3966;274;16;0.6509695;-0.7574278;0.04847645;-0.01385042;2;-19;36;389;3982;468;2;0.5166205;-0.3448753;-0.5664685;-0.5415512;23;18;30;-927;5100;627;8;0.602493;-0.7956108;-0.05817174;-0.02493075;36;-5;21;155;4963;987;0.4613088;2.819813;-0.05294231;0.4672907;3.364925;-0.07388236;0.4725479;3.844001;-0.09430991;0.4179788;4.574675;-0.05429688;0.1355935;4.882236;-0.07459202;-0.1940796;4.713758;-0.01918843;-0.355904;3.801781;0.001808181;-0.5271057;2.943999;-0.362466;0.654492;4.920993;-0.07459259;0.9532937;4.799453;-0.01918885;1.088065;3.847582;-0.08285046;0.9973214;2.980163;-0.4531716;0.1490513;2.777474;-0.05884496;0.04812948;1.326933;-0.2219475;0;0;0;0.1490513;2.777474;-0.05884496;0.04812948;1.326933;-0.2219475;0;0;0
1285795.2945;NotLabelled;16384;0.6290072;-0.534626;0.4445983;0.3476454;-12;46;9;-496;4388;1033;65536;0.7511396;-0.4473684;0.2825485;0.3947368;-9;36;-38;-1845;4212;-647;8192;0.6061912;-0.5263157;-0.4529086;-0.3878116;17;36;1;-118;4203;351;32768;0.7036884;-0.4598338;-0.299169;-0.4515235;13;58;-6;1092;3801;-1228;256;-0.06509695;0.1108033;-0.6842105;-0.7178726;1;34;25;-57;4526;-371;128;0.1191136;-0.07202215;0.6163435;0.7750778;-8;-4;-17;-793;4289;1242;4;0.5824887;-0.4819945;0.4487534;0.4764543;-40;13;16;111;4018;244;16;0.6509695;-0.7570263;0.05401662;-0.01523546;0;-20;35;375;3936;410;2;0.5027701;-0.3490305;-0.5697136;-0.5484765;35;28;29;-731;3926;69;8;0.6135734;-0.787486;-0.05124654;-0.02770083;46;6;23;-163;4047;961;0.4912662;2.81741;-0.05717606;0.4972469;3.362417;-0.08069867;0.5025029;3.841389;-0.1033959;0.4540663;4.572391;-0.06151882;0.1742652;4.882359;-0.08097996;-0.1567992;4.716509;-0.02594131;-0.3296053;3.806438;-0.01049601;-0.4990054;2.955167;-0.3905466;0.6934705;4.916766;-0.08098072;0.9912525;4.792585;-0.02594236;1.116033;3.83933;-0.08925992;1.025602;2.970705;-0.4568184;0.1790083;2.775043;-0.0628619;0.06136685;1.32574;-0.2257756;0;0;0;0.1790083;2.775043;-0.0628619;0.06136685;1.32574;-0.2257756;0;0;0
1285816.2796;NotLabelled;16384;0.6320557;-0.536011;0.4418283;0.3434903;-12;49;6;-654;4012;1051;65536;0.75339;-0.4487534;0.2742382;0.3947368;-15;39;-47;-1751;3904;-747;8192;0.600519;-0.5263157;-0.4556787;-0.3933518;18;43;3;-60;4027;521;32768;0.7004299;-0.4556787;-0.3047091;-0.4570637;18;57;-9;998;3313;-1220;256;-0.07202215;0.1108033;-0.6828254;-0.7185296;3;32;28;-103;4254;-209;128;0.1218837;-0.06925207;0.6121883;0.7781863;-38;5;-18;-583;3939;1446;4;0.5859643;-0.4778393;0.4501385;0.4750692;-43;4;20;223;4040;290;16;0.6509695;-0.7565497;0.05955679;-0.01800554;-1;-24;35;625;4012;386;2;0.4972299;-0.3531856;-0.5679972;-0.5526316;47;24;26;-489;3512;-275;8;0.6191136;-0.7828879;-0.05263158;-0.03185596;46;25;24;-327;3709;1133;0.5213816;2.814263;-0.05895069;0.5273624;3.359271;-0.08245367;0.5326186;3.838244;-0.1051336;0.4900049;4.56968;-0.0645323;0.2126848;4.881834;-0.08456406;-0.1196963;4.718723;-0.02927534;-0.2950739;3.809118;-0.01545812;-0.4640949;2.960927;-0.4024985;0.7321477;4.912102;-0.08456503;1.028925;4.785648;-0.02927679;1.149259;3.831881;-0.09347025;1.060803;2.962671;-0.4601288;0.2091238;2.771897;-0.064638;0.07091044;1.324628;-0.2294753;0;0;0;0.2091238;2.771897;-0.064638;0.07091044;1.324628;-0.2294753;0;0;0
1285837.1791;NotLabelled;16384;0.6365197;-0.5373961;0.4390582;0.3365651;-13;45;0;-760;3604;1067;65536;0.7568489;-0.4487534;0.2645429;0.3947368;-20;42;-57;-1631;3542;-835;8192;0.5968758;-0.5249307;-0.4584487;-0.3975069;15;46;5;-102;3647;607;32768;0.6973433;-0.4515235;-0.3116343;-0.4612188;19;62;-9;1322;3055;-796;256;-0.08310249;0.1094183;-0.6814404;-0.7188606;-7;28;29;31;3642;-67;128;0.1274238;-0.07063711;0.5983379;0.7878866;-47;36;-12;-389;3653;778;4;0.5949411;-0.4639889;0.4542936;0.4736842;-42;-24;30;415;4104;596;16;0.6509695;-0.7551246;0.07479224;-0.02077562;-5;-27;35;771;4078;254;2;0.4889196;-0.3587258;-0.5663194;-0.5581717;60;26;29;-483;3602;-245;8;0.6246537;-0.778386;-0.05124654;-0.03601108;46;-6;23;7;3697;1165;0.5518724;2.810585;-0.06027167;0.5578552;3.355789;-0.07868171;0.5631136;3.834953;-0.0968857;0.5280825;4.566715;-0.05491994;0.254009;4.881762;-0.07434127;-0.08003882;4.722;-0.01931993;-0.2581685;3.812938;-0.005004883;-0.4212567;2.967077;-0.3996181;0.7737578;4.906647;-0.07434228;1.069214;4.777022;-0.01932138;1.183049;3.822105;-0.07805517;1.094981;2.953311;-0.4457892;0.2396152;2.768274;-0.06638649;0.08358066;1.323122;-0.2338609;0;0;0;0.2396152;2.768274;-0.06638649;0.08358066;1.323122;-0.2338609;0;0;0
1285857.3007;NotLabelled;16384;0.6384831;-0.5387812;0.4376731;0.33241;-14;38;-5;-654;3328;1121;65536;0.7599109;-0.4487534;0.2534626;0.3961219;-26;44;-66;-1543;3320;-859;8192;0.5922248;-0.5235457;-0.4612188;-0.4030471;10;51;7;-256;3301;603;32768;0.6947582;-0.4473684;-0.3171745;-0.4653739;16;53;-9;1340;2815;-530;256;-0.0900277;0.1094183;-0.6814404;-0.7180262;-15;34;29;103;3618;-273;128;0.132964;-0.0734072;0.5927978;0.7909;-33;37;-8;-511;3601;428;4;0.5981295;-0.4556787;0.4570637;0.4750692;-38;-26;34;541;4060;888;16;0.6495845;-0.7555602;0.08171745;-0.02216066;-6;-20;34;697;4126;334;2;0.4806094;-0.3628809;-0.5623268;-0.566675;63;35;28;-895;3792;279;8;0.6301939;-0.7743175;-0.04570637;-0.03462604;43;-41;19;-323;3667;1147;0.628157;2.798944;-0.05515344;0.6341433;3.344458;-0.05600798;0.6394053;3.82396;-0.05878182;0.6176879;4.556224;-0.01659486;0.3493889;4.876209;-0.03591714;0.01249117;4.722533;0.01906091;-0.1720904;3.814797;0.03563959;-0.3314289;2.973248;-0.3695797;0.8695042;4.891638;-0.03591833;1.162555;4.756647;0.01905918;1.273118;3.80126;-0.03827685;1.187565;2.93217;-0.4059056;0.3159021;2.756854;-0.06273702;0.1116075;1.319327;-0.2434058;0;0;0;0.3159021;2.756854;-0.06273702;0.1116075;1.319327;-0.2434058;0;0;0
1285877.2751;NotLabelled;16384;0.6420516;-0.5415512;0.4362881;0.3227147;-18;32;-11;-282;3310;1179;65536;0.7666603;-0.4501385;0.2271468;0.3975069;-32;55;-76;-1419;3334;-1167;8192;0.5885628;-0.5207756;-0.4653739;-0.4072022;5;51;7;-452;3335;525;32768;0.6921191;-0.4445983;-0.3227147;-0.468144;13;37;-14;1138;2917;-498;256;-0.09695291;0.1094183;-0.6828254;-0.7158053;-15;34;27;181;3614;-535;128;0.1371191;-0.07479224;0.5900277;0.7921312;-9;20;-9;-757;3621;504;4;0.6011288;-0.4473684;0.4584487;0.4778393;-37;-19;38;791;4176;968;16;0.6481994;-0.7560881;0.08725762;-0.0235457;-6;-17;32;769;4232;520;2;0.4722992;-0.365651;-0.5609418;-0.5732165;48;31;24;-1085;3848;413;8;0.634349;-0.7714159;-0.03878116;-0.03185596;42;-46;20;-583;3971;985;0.6625195;2.791588;-0.05715308;0.6685056;3.337078;-0.05201623;0.6737674;3.816582;-0.04952356;0.6592321;4.549125;-0.009106934;0.3940858;4.871677;-0.0292214;0.0556942;4.721446;0.02610331;-0.1316759;3.814349;0.04602686;-0.28295;2.977818;-0.3724583;0.9143273;4.882004;-0.02922222;1.206037;4.744277;0.0261023;1.311279;3.788151;-0.02887303;1.227722;2.919403;-0.397769;0.3502656;2.749583;-0.06523605;0.1220511;1.316581;-0.2530714;0;0;0;0.3502656;2.749583;-0.06523605;0.1220511;1.316581;-0.2530714;0;0;0
1285898.1727;NotLabelled;16384;0.6448064;-0.5415512;0.4362881;0.3171745;-17;35;-8;-134;3618;1241;65536;0.7702002;-0.4515235;0.2119114;0.3975069;-31;61;-74;-1363;3456;-1247;8192;0.5830647;-0.5152354;-0.4722992;-0.4141274;-2;34;7;-848;3987;171;32768;0.6884089;-0.4432133;-0.33241;-0.468144;10;17;-36;790;3697;-540;256;-0.1038781;0.1094183;-0.6828254;-0.7148331;-13;32;26;331;3842;-651;128;0.1398892;-0.0734072;0.5914127;0.7907423;21;2;-10;-979;3887;560;4;0.6051269;-0.4404432;0.4584487;0.4792244;-36;-9;40;1029;4274;1178;16;0.6468144;-0.7565231;0.09279778;-0.02631579;-5;-20;30;907;4236;738;2;0.4639889;-0.3753462;-0.5554016;-0.5791015;46;-21;26;-551;4034;-169;8;0.6454294;-0.7627091;-0.02770083;-0.03047091;41;-18;24;79;4125;383;0.6912584;2.784019;-0.05497721;0.697244;3.329479;-0.04727277;0.7025058;3.808967;-0.04252309;0.6947168;4.541854;-0.006786257;0.4325546;4.866702;-0.02899338;0.09278972;4.71995;0.02724646;-0.1023003;3.814684;0.05485917;-0.2281994;2.989559;-0.3935989;0.9528691;4.872234;-0.02899414;1.243294;4.732183;0.02724564;1.347944;3.775943;-0.02686965;1.266987;2.906487;-0.3946724;0.379005;2.742053;-0.06327393;0.1299656;1.314028;-0.2622302;0;0;0;0.379005;2.742053;-0.06327393;0.1299656;1.314028;-0.2622302;0;0;0
1285919.1869;NotLabelled;16384;0.6484332;-0.5415512;0.434903;0.3116343;-14;40;-1;-98;4004;1401;65536;0.774486;-0.4529086;0.1980609;0.3947368;-31;66;-67;-1325;3752;-1419;8192;0.5811864;-0.5138504;-0.4736842;-0.4168975;-2;27;6;-966;4469;27;32768;0.6841685;-0.4459834;-0.3393352;-0.466759;13;25;-53;806;4261;-528;256;-0.1108033;0.1094183;-0.6828254;-0.7137924;-9;32;25;375;4120;-653;128;0.1412742;-0.07063711;0.5955678;0.7876236;36;-12;-11;-955;4285;862;4;0.6111456;-0.433518;0.4570637;0.4792244;-31;-6;39;1087;4498;1362;16;0.6468144;-0.7558229;0.09833795;-0.02631579;0;-25;27;707;4546;720;2;0.4612188;-0.3850415;-0.5512465;-0.5789192;41;-27;25;-325;4140;-343;8;0.6509695;-0.7580696;-0.0235457;-0.03185596;36;-13;23;441;4141;-239;0.721637;2.775783;-0.05436137;0.7276231;3.321274;-0.04929224;0.7328851;3.800778;-0.04685915;0.7322143;4.533804;-0.01316488;0.4732195;4.861118;-0.03628479;0.1320451;4.717831;0.02035388;-0.07020115;3.814276;0.05219543;-0.1827343;2.995587;-0.4113564;0.9935634;4.861598;-0.03628582;1.282614;4.718889;0.02035248;1.387401;3.762653;-0.03355789;1.31687;2.889529;-0.3947607;0.4093831;2.733777;-0.06243867;0.1404091;1.310923;-0.272199;0;0;0;0.4093831;2.733777;-0.06243867;0.1404091;1.310923;-0.272199;0;0;0
1285940.359;NotLabelled;16384;0.6511051;-0.5429363;0.432133;0.3074792;-11;48;7;-106;4352;1407;65536;0.7781605;-0.4542936;0.1855956;0.3919668;-29;69;-56;-1407;3998;-1583;8192;0.5791462;-0.5124654;-0.4764543;-0.4182825;0;28;6;-904;4937;-31;32768;0.6802599;-0.4473684;-0.3490305;-0.4639889;16;34;-70;1076;4741;-420;256;-0.1218837;0.1094183;-0.6814404;-0.7133099;0;23;21;467;4736;-287;128;0.1398892;-0.06232687;0.6066482;0.7800797;41;-11;-12;-1055;4705;1262;4;0.6188036;-0.4224377;0.4556787;0.4806094;-21;11;32;1535;3988;1396;16;0.6468144;-0.7546456;0.1066482;-0.02770083;3;-8;16;51;4396;694;2;0.4598338;-0.3919668;-0.5484765;-0.5780039;33;-16;17;-571;4122;-343;8;0.6565097;-0.7533353;-0.01939058;-0.033241;28;-10;22;371;3991;-719;0.7513018;2.767687;-0.04610324;0.757288;3.3132;-0.04701975;0.7625499;3.792702;-0.04984808;0.7689683;4.525798;-0.01833466;0.5131504;4.855532;-0.04242902;0.1706079;4.715719;0.01463461;-0.03850752;3.813799;0.04841428;-0.1416747;3.000882;-0.427316;1.033474;4.85098;-0.04242975;1.321133;4.705651;0.01463383;1.423593;3.749202;-0.03996873;1.358487;2.870795;-0.3891842;0.4390469;2.725595;-0.0536816;0.1468965;1.309311;-0.2764994;0;0;0;0.4390469;2.725595;-0.0536816;0.1468965;1.309311;-0.2764994;0;0;0
1285961.3176;NotLabelled;16384;0.6555359;-0.5443213;0.4265928;0.3033241;-8;52;12;-488;4380;1417;65536;0.7819869;-0.4556787;0.1745152;0.3878116;-25;64;-48;-1371;4062;-1713;8192;0.5770789;-0.5110803;-0.4792244;-0.4196676;4;30;9;-896;5205;-5;32768;0.6737754;-0.4501385;-0.3614958;-0.4612188;17;38;-85;1068;4985;-338;256;-0.1260388;0.1080332;-0.6800554;-0.7141203;-1;17;19;241;4750;1;128;0.1412742;-0.05955679;0.6094183;0.7778843;14;4;-13;-1247;4457;1518;4;0.6247796;-0.4196676;0.4515235;0.4792244;-11;31;30;1725;4012;1418;16;0.6468144;-0.7544485;0.1080332;-0.02770083;2;-8;7;137;4608;574;2;0.4570637;-0.3947368;-0.5457063;-0.5809305;22;4;7;-913;4388;-743;8;0.6606648;-0.7496326;-0.0166205;-0.03601108;17;0;22;213;4009;-889;0.7973131;2.754392;-0.03668091;0.803297;3.299685;-0.05219471;0.8085562;3.77894;-0.06785333;0.8267083;4.511881;-0.03734249;0.5761996;4.845634;-0.06188463;0.2314652;4.7114;-0.004625767;0.02027293;3.810054;0.03146326;-0.07762341;3.002239;-0.4539732;1.096384;4.832753;-0.06188542;1.381682;4.68292;-0.004626691;1.484951;3.726539;-0.05890596;1.429764;2.842907;-0.3964535;0.4850563;2.712113;-0.0430387;0.1589242;1.306274;-0.284107;0;0;0;0.4850563;2.712113;-0.0430387;0.1589242;1.306274;-0.284107;0;0;0
1285981.3006;NotLabelled;16384;0.6620817;-0.5470914;0.4196676;0.2936288;-5;38;13;-1044;3820;1557;65536;0.7871656;-0.4584487;0.1551246;0.3822715;-19;43;-41;-1059;3808;-1821;8192;0.574914;-0.5110803;-0.4806094;-0.4210526;9;26;11;-900;5299;77;32768;0.6688589;-0.4515235;-0.3739612;-0.4570637;20;45;-96;1192;5099;-296;256;-0.1288089;0.1080332;-0.6800554;-0.7136258;-7;8;18;347;4786;191;128;0.1440443;-0.05955679;0.6094183;0.7773761;3;15;-14;-1423;4265;1216;4;0.6307873;-0.4182825;0.4473684;0.4764543;0;45;30;1483;3736;1366;16;0.6468144;-0.7545452;0.1080332;-0.02493075;1;-11;-11;-537;4168;890;2;0.4542936;-0.3947368;-0.5443213;-0.5843924;18;23;-8;-951;4198;-807;8;0.6634349;-0.7470999;-0.01385042;-0.03878116;9;2;22;469;3955;-565;0.8108762;2.748641;-0.02471593;0.8168586;3.293801;-0.0443944;0.8221163;3.772922;-0.06371316;0.8463659;4.505632;-0.03193867;0.5986449;4.8415;-0.05591631;0.252802;4.710041;0.001096413;0.03958573;3.808995;0.03244881;-0.050009;3.005438;-0.461581;1.118704;4.824292;-0.0559172;1.402742;4.671989;0.001095355;1.507419;3.715678;-0.05169749;1.468878;2.824947;-0.3724765;0.4986188;2.706316;-0.03072441;0.1601108;1.305828;-0.2854896;0;0;0;0.4986188;2.706316;-0.03072441;0.1601108;1.305828;-0.2854896;0;0;0
1286001.5415;NotLabelled;16384;0.6645111;-0.5484765;0.4168975;0.2894737;-5;25;8;-1166;3630;1577;65536;0.7890301;-0.4598338;0.1481994;0.3795014;-19;31;-43;-963;3724;-1721;8192;0.5690769;-0.5138504;-0.4833795;-0.4224377;14;4;18;-402;4715;315;32768;0.652703;-0.4570637;-0.4030471;-0.4501385;20;45;-97;1640;4627;-166;256;-0.1315789;0.1052632;-0.6814404;-0.7122118;-16;2;17;635;4480;49;128;0.1481994;-0.05817174;0.6094183;0.7766996;7;21;-15;-1395;3959;724;4;0.6366779;-0.4182825;0.4404432;0.4750692;11;45;31;1171;3638;1532;16;0.6454294;-0.7558927;0.1080332;-0.01939058;-9;-31;-23;457;3728;1584;2;0.4515235;-0.3919668;-0.5415512;-0.5909406;15;32;-18;-1053;4066;-825;8;0.66482;-0.7457648;-0.01108033;-0.04155125;2;0;20;451;3995;15;0.8153262;2.744992;-0.01357943;0.8213083;3.290121;-0.0340732;0.8265658;3.769213;-0.05410856;0.8536239;4.50187;-0.02336651;0.6071903;4.83865;-0.04780528;0.2608493;4.708598;0.009408742;0.04134299;3.808979;0.03827205;-0.02953257;3.012696;-0.4703604;1.12718;4.819448;-0.04780632;1.410635;4.666139;0.009407282;1.514209;3.709569;-0.04078293;1.494867;2.813326;-0.3476413;0.5030687;2.702657;-0.01951942;0.1535536;1.306802;-0.2846339;0;0;0;0.5030687;2.702657;-0.01951942;0.1535536;1.306802;-0.2846339;0;0;0
1286022.1652;NotLabelled;16384;0.665711;-0.5484765;0.4168975;0.2867036;-6;19;3;-1134;3444;1529;65536;0.7909631;-0.4598338;0.1412742;0.3781163;-19;22;-45;-959;3612;-1713;8192;0.5653787;-0.5166205;-0.4847645;-0.4224377;14;-2;23;-58;4455;405;32768;0.6467403;-0.4584487;-0.4155124;-0.4459834;15;36;-90;1626;4311;-124;256;-0.134349;0.1024931;-0.6828254;-0.7107707;-21;-2;17;811;4268;-237;128;0.1537396;-0.0567867;0.6108033;0.7746346;17;18;-17;-1213;3791;580;4;0.641533;-0.4196676;0.433518;0.4736842;21;41;31;1127;3642;1270;16;0.6426592;-0.7578127;0.1121884;-0.01108033;-23;-70;-31;751;4016;1254;2;0.4473684;-0.3850415;-0.5387812;-0.6010985;11;27;-17;-655;4044;-563;8;0.666205;-0.744234;-0.008310249;-0.04709141;1;2;15;339;4081;777;0.8052099;2.741914;0.003115714;0.8111915;3.286996;-0.01859787;0.8164483;3.766042;-0.03970528;0.8486875;4.49864;-0.01278418;0.6046329;4.83702;-0.03892908;0.2573952;4.709717;0.0190279;0.03555856;3.810647;0.04714267;-0.02789462;3.016468;-0.4657411;1.124474;4.814147;-0.03893006;1.406852;4.659139;0.01902664;1.508248;3.701782;-0.01918435;1.53046;2.79261;-0.285081;0.4929524;2.699567;-0.002721906;0.1408148;1.307942;-0.2859845;0;0;0;0.4929524;2.699567;-0.002721906;0.1408148;1.307942;-0.2859845;0;0;0
1286042.1656;NotLabelled;16384;0.6674851;-0.5484765;0.4168975;0.2825485;-7;17;-1;-1088;3376;1525;65536;0.7921687;-0.4598338;0.134349;0.3781163;-18;18;-47;-953;3524;-1741;8192;0.5638719;-0.5193906;-0.4847645;-0.4210526;9;0;29;266;4227;371;32768;0.6394199;-0.4612188;-0.4265928;-0.4432133;12;31;-79;1738;4127;-192;256;-0.1357341;0.09972299;-0.6842105;-0.7095686;-21;-1;16;763;3878;-527;128;0.1578947;-0.05540166;0.6135734;0.7717043;26;13;-16;-1119;3633;708;4;0.6443511;-0.4224377;0.4265928;0.4736842;25;40;29;899;3150;1112;16;0.6398892;-0.7596079;0.1163435;0.001385042;-31;-68;-40;-627;3844;858;2;0.4459834;-0.3836565;-0.5373961;-0.6042449;11;17;-11;-543;4110;-465;8;0.66482;-0.7453969;-0.006925208;-0.04847645;4;2;13;353;4089;879;0.7900722;2.739088;0.01235294;0.796052;3.284014;-0.01297352;0.8013073;3.762909;-0.03725594;0.838723;4.495392;-0.01418513;0.5970555;4.835345;-0.0420481;0.2489436;4.710802;0.01665591;0.02356527;3.812651;0.0459506;-0.03300174;3.022138;-0.473363;1.116722;4.808804;-0.04204899;1.398015;4.652112;0.01665461;1.498118;3.694301;-0.0125218;1.539907;2.781235;-0.2622288;0.4778142;2.696703;0.006818742;0.1275318;1.30792;-0.2922492;0;0;0;0.4778142;2.696703;0.006818742;0.1275318;1.30792;-0.2922492;0;0;0
1286063.1612;NotLabelled;16384;0.6686509;-0.5484765;0.4168975;0.2797784;-6;16;-4;-1052;3304;1437;65536;0.7933121;-0.4598338;0.1274238;0.3781163;-15;19;-48;-1065;3486;-1701;8192;0.5609795;-0.5221606;-0.4875346;-0.4182825;5;2;34;396;4057;285;32768;0.6337546;-0.4626039;-0.434903;-0.4418283;9;22;-65;1670;3921;-264;256;-0.1398892;0.09418282;-0.6855956;-0.7081803;-9;-7;12;625;3538;-517;128;0.1648199;-0.04986149;0.6191136;0.7661897;28;7;-13;-1233;3467;900;4;0.6477184;-0.4252077;0.4155124;0.4764543;25;10;25;751;3014;866;16;0.632964;-0.7659656;0.1108033;0.01939058;-39;4;-37;-421;3406;396;2;0.4445983;-0.3822715;-0.536011;-0.6073657;11;11;-6;-519;4050;-419;8;0.666205;-0.7440794;-0.005540166;-0.04986149;5;3;12;185;4113;837;0.759643;2.739445;0.02414793;0.7656199;3.284107;-0.006335646;0.7708724;3.762751;-0.03515026;0.8120701;4.495127;-0.01540592;0.5721517;4.836194;-0.04475245;0.2234171;4.713714;0.01459567;-0.007309592;3.816967;0.04525393;-0.05454424;3.030366;-0.4808868;1.091675;4.806972;-0.04475355;1.372171;4.649099;0.01459432;1.472;3.69109;-0.008393586;1.528962;2.773905;-0.2392907;0.4473843;2.697009;0.01904768;0.1067903;1.309141;-0.2950807;0;0;0;0.4473843;2.697009;0.01904768;0.1067903;1.309141;-0.2950807;0;0;0
1286083.1713;NotLabelled;16384;0.6695111;-0.5484765;0.4182825;0.2756233;-8;11;-6;-996;3324;1377;65536;0.7951936;-0.4584487;0.1204986;0.3781163;-14;20;-46;-1007;3388;-1753;8192;0.5568109;-0.5249307;-0.4916897;-0.4155124;0;8;40;442;3935;257;32768;0.6298681;-0.4639889;-0.4404432;-0.4404432;7;19;-53;1622;3799;-324;256;-0.1398892;0.09141274;-0.6869806;-0.7072004;-4;-9;12;781;3472;-255;128;0.16759;-0.04847645;0.6204986;0.7645555;19;5;-12;-1255;3375;1008;4;0.6474162;-0.4265928;0.4113573;0.4792244;21;1;24;1029;3266;816;16;0.6288089;-0.7698514;0.1066482;0.0235457;-42;15;-34;383;3444;736;2;0.4418283;-0.3822715;-0.534626;-0.6105992;12;8;-1;-441;4092;-327;8;0.666205;-0.7438976;-0.004155125;-0.05263158;7;3;11;299;4061;697;0.69003;2.738975;0.04534045;0.6959998;3.28299;0.00493297;0.7012457;3.76103;-0.03260237;0.7518772;4.492923;-0.0173718;0.5163166;4.83686;-0.04845637;0.1661257;4.719236;0.01212463;-0.06814381;3.823012;0.02733102;-0.1064993;3.040378;-0.5054046;1.035421;4.800963;-0.04900801;1.313953;4.639861;0.01090574;1.418123;3.682522;-0.01950067;1.485658;2.762787;-0.23702;0.3777705;2.696454;0.04107696;0.0535182;1.311163;-0.3005216;0;0;0;0.3777705;2.696454;0.04107696;0.0535182;1.311163;-0.3005216;0;0;0
1286104.3382;NotLabelled;16384;0.6702929;-0.5470914;0.4224377;0.2700831;-7;-2;-7;-858;3340;1441;65536;0.7982443;-0.4570637;0.1094183;0.3767313;-10;15;-36;-823;3256;-1691;8192;0.5495369;-0.5290859;-0.5;-0.4099723;-6;18;44;154;3837;-43;32768;0.6229209;-0.4653739;-0.4501385;-0.4390582;8;22;-37;1320;3713;-486;256;-0.1398892;0.08864266;-0.6869806;-0.7075529;-3;-9;12;923;3436;-45;128;0.1689751;-0.04570637;0.6218836;0.7632949;9;7;-10;-1389;3503;1006;4;0.6480249;-0.4252077;0.4085872;0.4819945;22;-9;20;1019;3184;658;16;0.6246537;-0.7736508;0.1024931;0.02770083;-41;7;-33;809;3584;694;2;0.4404432;-0.3822715;-0.534626;-0.611599;12;7;0;-427;4042;-331;8;0.666205;-0.7437983;-0.004155125;-0.05401662;7;0;11;255;4023;607;0.6584777;2.737772;0.05019921;0.6644452;3.281568;0.006923854;0.6696887;3.759402;-0.03313154;0.7227076;4.491178;-0.02064106;0.4883004;4.835764;-0.05321997;0.1376783;4.719519;0.007527895;-0.1023025;3.825353;0.04224012;-0.1313538;3.048126;-0.4989364;1.007284;4.798166;-0.05322081;1.28524;4.636381;0.007526934;1.394816;3.679162;0.007364452;1.470448;2.757699;-0.199936;0.3462179;2.695229;0.04617801;0.03442294;1.310149;-0.3076538;0;0;0;0.3462179;2.695229;0.04617801;0.03442294;1.310149;-0.3076538;0;0;0
1286125.4072;NotLabelled;16384;0.6711038;-0.5457063;0.4238227;0.2686981;-6;-8;-8;-656;3504;1533;65536;0.7994546;-0.4570637;0.1052632;0.3753462;-8;10;-27;-805;3214;-1653;8192;0.5441381;-0.5304709;-0.5055401;-0.4085872;-9;20;42;104;3843;-233;32768;0.6198971;-0.4653739;-0.4542936;-0.4390582;11;24;-34;1212;3791;-574;256;-0.1398892;0.08587258;-0.6869806;-0.7078944;-5;-8;12;1025;3572;85;128;0.1717452;-0.04432133;0.6204986;0.7638853;5;10;-9;-1385;3589;910;4;0.6447439;-0.4252077;0.4072022;0.4875346;26;-14;14;1221;3356;588;16;0.6191136;-0.7782923;0.09972299;0.03185596;-39;-5;-33;641;3562;772;2;0.4362881;-0.3822715;-0.533241;-0.6157721;11;5;2;-741;4018;-315;8;0.66759;-0.742359;-0.001385042;-0.0567867;7;-2;11;473;4011;423;0.635325;2.73401;0.05556092;0.6412903;3.277611;0.009920955;0.6465321;3.755268;-0.03221217;0.7024156;4.486831;-0.01971811;0.4693595;4.832333;-0.05229524;0.1182849;4.717461;0.008452207;-0.1321284;3.82643;0.0495385;-0.1481794;3.056875;-0.5030224;0.988192;4.792703;-0.05229652;1.265512;4.62983;0.008450329;1.386822;3.67428;0.03041548;1.474682;2.750381;-0.1605796;0.3230651;2.69145;0.05173969;0.01517517;1.30881;-0.3148232;0;0;0;0.3230651;2.69145;0.05173969;0.01517517;1.30881;-0.3148232;0;0;0
1286146.3019;NotLabelled;16384;0.6704732;-0.5443213;0.4265928;0.2686981;-4;-9;-7;-446;3614;1635;65536;0.7996357;-0.4570637;0.1038781;0.3753462;-8;5;-15;-761;3234;-1663;8192;0.5412926;-0.5304709;-0.5096953;-0.4072022;-11;19;37;-40;3939;-311;32768;0.6168429;-0.4639889;-0.4598338;-0.4390582;17;27;-35;1150;3933;-568;256;-0.1426593;0.08310249;-0.6883656;-0.7063251;-6;-3;12;1101;3724;5;128;0.1759003;-0.04432133;0.6204986;0.7629392;5;13;-7;-1385;3717;744;4;0.642413;-0.4265928;0.4044321;0.4916897;27;-17;11;1191;3448;558;16;0.6163435;-0.7806562;0.09695291;0.03601108;-34;4;-30;307;3698;814;2;0.434903;-0.3822715;-0.533241;-0.6167511;12;2;2;-721;4082;-289;8;0.6689751;-0.741005;0;-0.05817174;6;2;11;195;4075;257;0.6033528;2.731675;0.05210534;0.6093191;3.27536;0.007469863;0.6145616;3.753093;-0.0337806;0.6733079;4.484431;-0.02128264;0.4416056;4.830842;-0.05385825;0.090084;4.717345;0.006888166;-0.1649036;3.827607;0.04784872;-0.1746884;3.060246;-0.5079016;0.9602793;4.789182;-0.05385903;1.23696;4.625225;0.006887197;1.363316;3.670717;0.04185998;1.456361;2.746028;-0.1427487;0.2910929;2.689122;0.04819913;-0.003628887;1.305916;-0.3269526;0;0;0;0.2910929;2.689122;0.04819913;-0.003628887;1.305916;-0.3269526;0;0;0
1286166.6909;NotLabelled;16384;0.6707135;-0.5429363;0.4279778;0.2686981;-3;-6;-6;-286;3790;1621;65536;0.7996705;-0.4584487;0.1024931;0.3739612;-8;5;-1;-885;3194;-1677;8192;0.5383965;-0.5304709;-0.5138504;-0.4058172;-13;22;31;12;4039;-419;32768;0.6157488;-0.4612188;-0.4653739;-0.4376731;25;33;-35;1162;4103;-542;256;-0.1440443;0.08033241;-0.6883656;-0.7063644;-3;1;12;1091;3818;-155;128;0.1786704;-0.04293629;0.6204986;0.7623745;1;14;-6;-1331;3805;712;4;0.6370017;-0.4279778;0.4030471;0.4986149;30;-2;-1;1205;3784;454;16;0.6108033;-0.7860035;0.08725762;0.03878116;-17;25;-25;945;3784;910;2;0.433518;-0.3822715;-0.5318559;-0.6189184;12;5;1;-617;4118;-151;8;0.6703601;-0.739642;0;-0.05955679;4;7;12;297;4065;175;0.5737577;2.731319;0.05612689;0.5797226;3.274879;0.009986877;0.5849639;3.752496;-0.03258562;0.6488873;4.483457;-0.02403966;0.419626;4.831319;-0.05837451;0.06733906;4.720639;0.003132146;-0.1906047;3.831879;0.04672401;-0.1987258;3.065346;-0.5101946;0.9379919;4.785991;-0.05837566;1.213534;4.620408;0.003130436;1.345261;3.666899;0.04486591;1.445266;2.741913;-0.1345442;0.2614978;2.688756;0.05234791;-0.01991329;1.30488;-0.330479;0;0;0;0.2614978;2.688756;0.05234791;-0.01991329;1.30488;-0.330479;0;0;0
1286187.1743;NotLabelled;16384;0.671501;-0.5415512;0.4293629;0.267313;-1;0;-4;-194;3802;1697;65536;0.7999871;-0.4598338;0.1038781;0.3711911;-8;8;10;-981;3170;-1739;8192;0.5344;-0.5304709;-0.5180055;-0.4058172;-15;28;23;4;4107;-457;32768;0.6125361;-0.4584487;-0.4722992;-0.4376731;32;41;-36;1182;4151;-502;256;-0.1537396;0.07894737;-0.6842105;-0.7085108;8;21;7;1069;3890;-35;128;0.1842105;-0.04570637;0.6177285;0.7631441;-15;20;-3;-1349;3785;896;4;0.6348539;-0.432133;0.400277;0.5;34;16;-6;1347;3654;330;16;0.6094183;-0.7872387;0.08448754;0.04155125;-13;8;-26;937;3616;1098;2;0.432133;-0.3822715;-0.5318559;-0.6198862;10;16;1;-637;4106;-143;8;0.6703601;-0.7394138;0;-0.06232687;2;5;11;255;4051;119;0.5267985;2.730187;0.05311334;0.5327625;3.273662;0.005986601;0.5380028;3.751202;-0.03745291;0.6061691;4.481785;-0.02948773;0.3789284;4.830945;-0.06408128;0.02600923;4.722361;-0.002463233;-0.2346666;3.834389;0.04092792;-0.2393436;3.066981;-0.5148243;0.8970226;4.782609;-0.06408215;1.171604;4.615478;-0.002464294;1.308547;3.663041;0.04636472;1.418993;2.738862;-0.1310652;0.2145385;2.687617;0.0494179;-0.04740523;1.301741;-0.3399279;0;0;0;0.2145385;2.687617;0.0494179;-0.04740523;1.301741;-0.3399279;0;0;0
1286207.3296;NotLabelled;16384;0.6731644;-0.5401662;0.4293629;0.265928;-2;14;-3;-60;3706;1717;65536;0.8014761;-0.4639889;0.1080332;0.3614958;-9;16;33;-1223;3130;-1791;8192;0.5296187;-0.5249307;-0.5263157;-0.4085872;-15;44;8;168;4247;-285;32768;0.6066688;-0.4473684;-0.4889196;-0.4390582;43;61;-32;1210;4217;-330;256;-0.1578947;0.08033241;-0.6828254;-0.7087774;6;26;6;1081;3888;-25;128;0.1883656;-0.04709141;0.6149584;0.764282;-19;20;-2;-1313;3851;900;4;0.6336637;-0.4376731;0.3961219;0.5;38;27;-9;1373;3748;482;16;0.6080332;-0.78845;0.08171745;0.04432133;-7;4;-24;443;3714;1012;2;0.4293629;-0.3808864;-0.5318559;-0.6226575;8;22;0;-841;4106;-307;8;0.6717451;-0.7380374;0;-0.06371191;0;4;12;421;4037;135;0.4998595;2.732222;0.05183008;0.5058249;3.275845;0.006432801;0.5110668;3.753519;-0.03548706;0.5916418;4.482781;-0.02334982;0.3703931;4.835946;-0.05608614;0.01564025;4.733033;0.004729733;-0.2488742;3.846402;0.052127;-0.2624775;3.076183;-0.4995749;0.8875901;4.778805;-0.0560869;1.159251;4.606683;0.004728794;1.299732;3.65509;0.05960143;1.417621;2.731191;-0.1144637;0.1875995;2.689664;0.04798827;-0.06293242;1.301178;-0.3395648;0;0;0;0.1875995;2.689664;0.04798827;-0.06293242;1.301178;-0.3395648;0;0;0
1286228.3083;NotLabelled;16384;0.6751322;-0.5401662;0.4279778;0.2631579;-3;19;-2;-98;3662;1625;65536;0.8009685;-0.468144;0.1121884;0.3559557;-9;22;43;-1205;3058;-1781;8192;0.5249307;-0.5193906;-0.5332212;-0.4127424;-15;55;2;254;4211;-219;32768;0.6039719;-0.4404432;-0.4972299;-0.4404432;45;70;-28;1268;4165;-198;256;-0.1620499;0.08171745;-0.6814404;-0.7090141;6;29;4;927;3902;-101;128;0.1911357;-0.04847645;0.6121883;0.7657301;-18;20;0;-1217;3825;776;4;0.6325168;-0.4445983;0.3919668;0.4986149;44;47;-11;1441;3906;400;16;0.6080332;-0.7886531;0.07894737;0.04570637;0;18;-18;535;3974;928;2;0.4279778;-0.3781163;-0.5318559;-0.6252937;7;21;-2;-957;3982;-435;8;0.6717451;-0.7379153;0.001385042;-0.06509695;-2;1;12;427;4037;173;0.4709912;2.734241;0.05200061;0.4769587;3.278046;0.008843988;0.4822024;3.75589;-0.03110701;0.56593;4.484781;-0.01807973;0.3462158;4.838939;-0.05041964;-0.008987501;4.737489;0.01022478;-0.2772605;3.852015;0.0581338;-0.3037696;3.07325;-0.4809577;0.8631608;4.77956;-0.05042052;1.134066;4.606193;0.01022393;1.281656;3.65581;0.06737989;1.422532;2.734678;-0.1042477;0.1587314;2.6917;0.04796936;-0.07715631;1.300525;-0.339132;0;0;0;0.1587314;2.6917;0.04796936;-0.07715631;1.300525;-0.339132;0;0;0
1286248.3109;NotLabelled;16384;0.67708;-0.5401662;0.4265928;0.2603878;-5;27;0;-132;3650;1537;65536;0.8017859;-0.4722992;0.1149584;0.3476454;-9;30;53;-1283;3140;-1739;8192;0.5221606;-0.5138504;-0.5380543;-0.4168975;-15;63;-3;244;4217;37;32768;0.6000189;-0.432133;-0.5055401;-0.4445983;44;74;-22;1334;4129;-70;256;-0.166205;0.08448754;-0.6800554;-0.7090575;8;30;2;849;3960;-245;128;0.1925208;-0.05124654;0.6094183;0.7674105;-21;20;0;-1091;3881;780;4;0.6330519;-0.4529086;0.3850415;0.4958449;46;59;-10;1395;4018;608;16;0.6080332;-0.7889255;0.07617728;0.04570637;5;17;-13;655;3950;974;2;0.4238227;-0.3753462;-0.5318559;-0.6297768;9;14;-4;-809;3998;-539;8;0.6703601;-0.7389142;0.004155125;-0.06786703;-4;0;11;509;4045;367;0.4452869;2.738198;0.05191562;0.4512568;3.282214;0.0115099;0.4565026;3.760253;-0.02602389;0.5433846;4.48876;-0.01216185;0.3252107;4.843902;-0.04412982;-0.03043674;4.743923;0.016354;-0.3014951;3.859358;0.06534757;-0.3369702;3.073064;-0.4621756;0.8418936;4.782286;-0.04413092;1.112037;4.607677;0.01635242;1.263341;3.657918;0.07414621;1.415099;2.738778;-0.09888178;0.1330274;2.695677;0.04765193;-0.08677675;1.300821;-0.3356518;0;0;0;0.1330274;2.695677;0.04765193;-0.08677675;1.300821;-0.3356518;0;0;0
1286269.1779;NotLabelled;16384;0.6792948;-0.5415512;0.4238227;0.2562327;-6;34;4;-206;3726;1437;65536;0.8028655;-0.4764543;0.1191136;0.3379501;-8;36;60;-1393;3310;-1825;8192;0.5193906;-0.5069252;-0.5440358;-0.4210526;-14;70;-6;258;4239;169;32768;0.5957789;-0.4238227;-0.5138504;-0.4487534;40;75;-16;1432;4129;0;256;-0.1689751;0.08725762;-0.6786703;-0.7093942;11;30;0;707;3956;-269;128;0.1952908;-0.05401662;0.6066482;0.7687142;-23;17;0;-1055;3897;804;4;0.6358306;-0.466759;0.3725762;0.4889196;40;52;-5;1483;4140;1012;16;0.6108033;-0.78733;0.07202215;0.04293629;9;9;3;2293;4388;502;2;0.4224377;-0.3739612;-0.5304709;-0.6326928;9;10;-3;-603;4052;-491;8;0.6703601;-0.7387766;0.005540166;-0.06925207;-4;-1;11;463;4029;467;0.4199446;2.741142;0.05403233;0.425917;3.285388;0.01686725;0.4311652;3.763643;-0.01781887;0.519771;4.491926;-0.003123611;0.3024687;4.84762;-0.0348898;-0.05346335;4.748426;0.0252097;-0.3267405;3.865089;0.08321409;-0.3725573;3.071698;-0.4327599;0.8190032;4.784773;-0.03454995;1.088682;4.609458;0.02596188;1.242792;3.660216;0.08481956;1.402336;2.742907;-0.09090149;0.1076854;2.698647;0.04949521;-0.09415989;1.300925;-0.3332472;0;0;0;0.1076854;2.698647;0.04949521;-0.09415989;1.300925;-0.3332472;0;0;0
1286290.1669;NotLabelled;16384;0.6829042;-0.5415512;0.4196676;0.2534626;-6;38;8;-364;3734;1301;65536;0.8041344;-0.4806094;0.1246537;0.3268698;-4;40;66;-1437;3486;-1873;8192;0.5166205;-0.5;-0.5487458;-0.4265928;-13;71;-8;190;4263;283;32768;0.5936806;-0.4155124;-0.5193906;-0.4529086;33;74;-7;1458;4053;52;256;-0.1745152;0.09279778;-0.6731302;-0.7126211;18;24;-2;475;3974;-115;128;0.1980609;-0.05817174;0.599723;0.7731237;-25;17;2;-997;3899;926;4;0.6360554;-0.4736842;0.367036;0.4861496;30;47;1;1529;4214;1262;16;0.6121883;-0.7861255;0.0734072;0.04293629;2;-7;15;2631;4464;380;2;0.4210526;-0.3739612;-0.5304709;-0.6336153;10;9;-2;-431;4062;-437;8;0.6689751;-0.7398884;0.006925208;-0.07063711;-4;2;11;315;4045;507;0.3910567;2.747147;0.06319925;0.397031;3.291569;0.02869532;0.402281;3.769987;-0.003652245;0.4912716;4.498194;0.01239508;0.2741407;4.854062;-0.01859939;-0.08181727;4.754937;0.04146288;-0.3574033;3.871925;0.09313992;-0.4160553;3.070697;-0.4092462;0.7906427;4.790946;-0.01860017;1.060257;4.615376;0.04146188;1.218131;3.666273;0.09201092;1.385481;2.750771;-0.08585608;0.07879762;2.704674;0.05843757;-0.09418233;1.303137;-0.3244846;0;0;0;0.07879762;2.704674;0.05843757;-0.09418233;1.303137;-0.3244846;0;0;0
1286311.2116;NotLabelled;16384;0.6874426;-0.5443213;0.4127424;0.2465374;-6;33;15;-748;3686;1083;65536;0.8063452;-0.4875346;0.1357341;0.3060942;7;34;71;-1505;3782;-1879;8192;0.5124654;-0.4861496;-0.5563093;-0.4376731;-7;64;-10;2;4135;409;32768;0.5847927;-0.400277;-0.5290859;-0.466759;18;67;2;1150;3999;128;256;-0.1759003;0.09695291;-0.6717451;-0.7130342;18;22;-2;433;4002;-101;128;0.200831;-0.06094183;0.5969529;0.7743385;-28;17;3;-1055;3905;844;4;0.6382277;-0.4778393;0.3614958;0.4833795;17;48;8;1511;4128;1272;16;0.6108033;-0.7870851;0.07617728;0.0401662;-10;17;26;1417;4472;104;2;0.4182825;-0.3739612;-0.5304709;-0.6354474;8;13;-2;-301;4126;-323;8;0.6689751;-0.7396187;0.006925208;-0.0734072;-4;8;11;337;4119;595;0.3785227;2.750474;0.06533736;0.3845021;3.295361;0.03919518;0.389757;3.77422;0.01419583;0.4805497;4.501976;0.03851032;0.2643548;4.858713;0.01120231;-0.09193379;4.759822;0.06966542;-0.3694341;3.877311;0.1196596;-0.4470473;3.067676;-0.3664109;0.7806963;4.794299;0.01120108;1.049785;4.61739;0.0696637;1.208982;3.668182;0.1136972;1.38013;2.754913;-0.07186842;0.06626455;2.70808;0.05987173;-0.09495157;1.304248;-0.3197631;0;0;0;0.06626455;2.70808;0.05987173;-0.09495157;1.304248;-0.3197631;0;0;0
