SEP=;
index;label;segment;RightUpperArm_boneIndex;RightUpperArm_quat9x_w;RightUpperArm_quat9x_x;RightUpperArm_quat9x_y;RightUpperArm_quat9x_z;RightUpperArm_gyroscope_x;RightUpperArm_gyroscope_y;RightUpperArm_gyroscope_z;RightUpperArm_accelerometer_x;RightUpperArm_accelerometer_y;RightUpperArm_accelerometer_z;RightLowerArm_boneIndex;RightLowerArm_quat9x_w;RightLowerArm_quat9x_x;RightLowerArm_quat9x_y;RightLowerArm_quat9x_z;RightLowerArm_gyroscope_x;RightLowerArm_gyroscope_y;RightLowerArm_gyroscope_z;RightLowerArm_accelerometer_x;RightLowerArm_accelerometer_y;RightLowerArm_accelerometer_z;LeftUpperArm_boneIndex;LeftUpperArm_quat9x_w;LeftUpperArm_quat9x_x;LeftUpperArm_quat9x_y;LeftUpperArm_quat9x_z;LeftUpperArm_gyroscope_x;LeftUpperArm_gyroscope_y;LeftUpperArm_gyroscope_z;LeftUpperArm_accelerometer_x;LeftUpperArm_accelerometer_y;LeftUpperArm_accelerometer_z;LeftLowerArm_boneIndex;LeftLowerArm_quat9x_w;LeftLowerArm_quat9x_x;LeftLowerArm_quat9x_y;LeftLowerArm_quat9x_z;LeftLowerArm_gyroscope_x;LeftLowerArm_gyroscope_y;LeftLowerArm_gyroscope_z;LeftLowerArm_accelerometer_x;LeftLowerArm_accelerometer_y;LeftLowerArm_accelerometer_z;Chest_boneIndex;Chest_quat9x_w;Chest_quat9x_x;Chest_quat9x_y;Chest_quat9x_z;Chest_gyroscope_x;Chest_gyroscope_y;Chest_gyroscope_z;Chest_accelerometer_x;Chest_accelerometer_y;Chest_accelerometer_z;Spine_boneIndex;Spine_quat9x_w;Spine_quat9x_x;Spine_quat9x_y;Spine_quat9x_z;Spine_gyroscope_x;Spine_gyroscope_y;Spine_gyroscope_z;Spine_accelerometer_x;Spine_accelerometer_y;Spine_accelerometer_z;RightUpperLeg_boneIndex;RightUpperLeg_quat9x_w;RightUpperLeg_quat9x_x;RightUpperLeg_quat9x_y;RightUpperLeg_quat9x_z;RightUpperLeg_gyroscope_x;RightUpperLeg_gyroscope_y;RightUpperLeg_gyroscope_z;RightUpperLeg_accelerometer_x;RightUpperLeg_accelerometer_y;RightUpperLeg_accelerometer_z;RightLowerLeg_boneIndex;RightLowerLeg_quat9x_w;RightLowerLeg_quat9x_x;RightLowerLeg_quat9x_y;RightLowerLeg_quat9x_z;RightLowerLeg_gyroscope_x;RightLowerLeg_gyroscope_y;RightLowerLeg_gyroscope_z;RightLowerLeg_accelerometer_x;RightLowerLeg_accelerometer_y;RightLowerLeg_accelerometer_z;LeftUpperLeg_boneIndex;LeftUpperLeg_quat9x_w;LeftUpperLeg_quat9x_x;LeftUpperLeg_quat9x_y;LeftUpperLeg_quat9x_z;LeftUpperLeg_gyroscope_x;LeftUpperLeg_gyroscope_y;LeftUpperLeg_gyroscope_z;LeftUpperLeg_accelerometer_x;LeftUpperLeg_accelerometer_y;LeftUpperLeg_accelerometer_z;LeftLowerLeg_boneIndex;LeftLowerLeg_quat9x_w;LeftLowerLeg_quat9x_x;LeftLowerLeg_quat9x_y;LeftLowerLeg_quat9x_z;LeftLowerLeg_gyroscope_x;LeftLowerLeg_gyroscope_y;LeftLowerLeg_gyroscope_z;LeftLowerLeg_accelerometer_x;LeftLowerLeg_accelerometer_y;LeftLowerLeg_accelerometer_z;pelvis_x;pelvis_y;pelvis_z;lowerSpine_x;lowerSpine_y;lowerSpine_z;middleSpine_x;middleSpine_y;middleSpine_z;upperSpine_x;upperSpine_y;upperSpine_z;rightClavicle_x;rightClavicle_y;rightClavicle_z;rightShoulder_x;rightShoulder_y;rightShoulder_z;rightElbow_x;rightElbow_y;rightElbow_z;rightWrist_x;rightWrist_y;rightWrist_z;leftClavicle_x;leftClavicle_y;leftClavicle_z;leftShoulder_x;leftShoulder_y;leftShoulder_z;leftElbow_x;leftElbow_y;leftElbow_z;leftWrist_x;leftWrist_y;leftWrist_z;rightHip_x;rightHip_y;rightHip_z;rightKnee_x;rightKnee_y;rightKnee_z;rightAnkle_x;rightAnkle_y;rightAnkle_z;leftHip_x;leftHip_y;leftHip_z;leftKnee_x;leftKnee_y;leftKnee_z;leftAnkle_x;leftAnkle_y;leftAnkle_z;
1311530.6815;NotLabelled;NONE;16384;-0.4653739;0.2908587;-0.670978;-0.4986149;-10;0;-12;660;3692;1607;65536;0.6786703;0;0.265928;0.6846086;-11;8;-15;-3536;1073;-360;8192;0.6326139;-0.5831025;-0.4085872;-0.3047091;-3;24;6;225;3912;231;32768;0.6354957;-0.5623268;-0.2022161;-0.4889196;14;17;-3;1486;3585;785;256;0.1689751;-0.2077562;-0.6426592;-0.7178258;16;8;6;355;3922;-741;128;-0.05124654;0.2077562;0.534626;0.8175489;-14;17;0;-875;3559;1956;4;-0.5318559;0.1980609;-0.4584487;-0.6839049;12;41;10;1633;3404;290;16;0.5886427;-0.8003203;0.0401662;0.1066482;177;34;106;455;4070;1360;2;0.534626;-0.6066277;-0.3545706;-0.4695291;0;3;11;-335;3918;-961;8;0.5443213;-0.7577064;0.2770083;0.2299169;-16;17;13;679;3813;983;0.2457706;2.521865;0.3087856;0.2516612;3.058679;0.405829;0.2568429;3.530898;0.4891394;0.2692819;4.260463;0.5668829;0.01622197;4.593174;0.5635151;-0.3275248;4.452889;0.6114473;-0.6204141;3.5807;0.5026722;-0.497773;3.224896;-0.3669019;0.5364903;4.584307;0.5635148;0.8228775;4.43328;0.6114472;0.9460862;3.48222;0.7040662;0.8470351;2.618305;0.3277342;-0.06646109;2.481873;0.2931586;0.03727493;1.252178;-0.4929377;0;0;0;-0.06646109;2.481873;0.2931586;0.03727493;1.252178;-0.4929377;0;0;0
1311552.0205;NotLabelled;NONE;16384;-0.4639889;0.2908587;-0.6739832;-0.4958449;-11;0;-13;580;3678;1751;65536;0.6800554;0;0.2631579;0.6843045;-13;9;-12;-3606;1009;-334;8192;0.6307508;-0.5817174;-0.4113573;-0.3074792;-1;23;7;161;3934;213;32768;0.6347647;-0.5609418;-0.2049861;-0.4903047;15;19;-4;1494;3567;777;256;0.166205;-0.2077562;-0.6412742;-0.7197087;13;11;6;365;3934;-769;128;-0.04847645;0.2063712;0.5318559;0.8198721;-12;18;1;-829;3555;1880;4;-0.536011;0.2036011;-0.4556787;-0.6808786;11;42;2;1599;3324;240;16;0.6108033;-0.78531;0.04847645;0.08864266;188;29;112;511;4522;1330;2;0.533241;-0.6081043;-0.3559557;-0.468144;1;4;11;-235;3972;-857;8;0.5429363;-0.7600371;0.2756233;0.2271468;-17;17;12;729;3881;1019;0.2607987;2.545638;0.3941497;0.2666839;3.081962;0.493868;0.271861;3.55376;0.5795316;0.2896755;4.28231;0.6653187;0.0390844;4.616902;0.665573;-0.3057036;4.478644;0.7118905;-0.6039237;3.607712;0.6076333;-0.4774581;3.262673;-0.2657231;0.559273;4.604186;0.6655727;0.8445222;4.450525;0.7118906;0.9672784;3.499422;0.8046737;0.8690968;2.634846;0.4296349;-0.05143221;2.505725;0.3783065;0.05494514;1.279956;-0.4135473;0;0;0;-0.05143221;2.505725;0.3783065;0.05494514;1.279956;-0.4135473;0;0;0
1311572.0953;NotLabelled;NONE;16384;-0.4639889;0.2894737;-0.6755951;-0.4944598;-11;-1;-12;700;3726;1781;65536;0.6814404;0;0.2590028;0.6845119;-17;8;-10;-3788;997;-322;8192;0.629536;-0.5803324;-0.4141274;-0.3088643;0;23;7;195;3974;229;32768;0.6335592;-0.5595568;-0.2091413;-0.4916897;16;21;-5;1604;3599;793;256;0.1634349;-0.2077562;-0.6398892;-0.7215734;12;12;6;459;3968;-831;128;-0.04570637;0.2049861;0.5318559;0.8203785;-9;18;1;-851;3509;1950;4;-0.5401662;0.2077562;-0.4542936;-0.6772556;6;39;-4;1595;3360;306;16;0.632964;-0.7688802;0.05817174;0.06925207;196;26;115;393;4856;1352;2;0.5304709;-0.6088987;-0.3587258;-0.468144;2;4;10;-351;3992;-865;8;0.5387812;-0.7652063;0.2728532;0.2229917;-16;13;9;767;3955;1171;0.2732013;2.570143;0.4745754;0.2790783;3.105721;0.5782291;0.2842484;3.576877;0.6673545;0.3040724;4.304895;0.7571219;0.05441117;4.640176;0.7591701;-0.2907662;4.502625;0.8046857;-0.5952384;3.633119;0.7067832;-0.468145;3.291825;-0.1679526;0.5745623;4.626016;0.7591699;0.859377;4.471313;0.804686;0.9814879;3.520164;0.8978577;0.8847802;2.654928;0.5239585;-0.03902821;2.530347;0.4584143;0.07176982;1.303059;-0.3304748;0;0;0;-0.03902821;2.530347;0.4584143;0.07176982;1.303059;-0.3304748;0;0;0
1311593.6238;NotLabelled;NONE;16384;-0.4639889;0.2894737;-0.6766067;-0.4930748;-11;1;-12;730;3706;1709;65536;0.6855536;0;0.2562327;0.6814404;-20;7;-10;-3954;1075;-488;8192;0.6250743;-0.5789474;-0.4196676;-0.3130194;0;30;8;315;3984;223;32768;0.6315167;-0.5567867;-0.2160665;-0.4944598;17;28;-5;1510;3557;755;256;0.1606648;-0.2077562;-0.6385041;-0.7234201;13;15;5;511;3886;-921;128;-0.04293629;0.2036011;0.5304709;0.8217686;-8;16;2;-899;3387;1972;4;-0.5457063;0.2160665;-0.4542936;-0.670177;0;20;-13;1725;3274;438;16;0.6772853;-0.7310724;0.07617728;0.03185596;197;27;110;259;5090;970;2;0.5290859;-0.6092861;-0.3601108;-0.468144;3;3;12;-325;4058;-903;8;0.5373961;-0.7675617;0.2700831;0.2216066;-15;17;9;643;3943;1253;0.294268;2.589731;0.5613322;0.3001442;3.125226;0.6654121;0.3053135;3.596311;0.7549125;0.3271635;4.323773;0.8486332;0.07844272;4.659737;0.8524646;-0.2671262;4.522909;0.8971821;-0.5761718;3.654844;0.8008337;-0.4462094;3.318836;-0.0755257;0.5985522;4.644117;0.8524638;0.8829245;4.488372;0.8971812;1.006137;3.537515;0.9918587;0.9116126;2.670813;0.6208054;-0.01796135;2.549948;0.5451369;0.09158306;1.321193;-0.2416402;0;0;0;-0.01796135;2.549948;0.5451369;0.09158306;1.321193;-0.2416402;0;0;0
1311613.625;NotLabelled;NONE;16384;-0.4639889;0.2880886;-0.6792058;-0.4903047;-11;6;-13;822;3662;1725;65536;0.6870924;0;0.2520775;0.6814404;-21;7;-9;-4008;949;-646;8192;0.6230932;-0.5775623;-0.4224377;-0.3157895;0;35;8;321;3932;203;32768;0.6303416;-0.5540166;-0.2202216;-0.4972299;18;31;-5;1464;3511;725;256;0.1565097;-0.2077562;-0.6371191;-0.725549;12;18;6;533;3848;-961;128;-0.03878116;0.2022161;0.5304709;0.8223171;-7;19;3;-961;3445;1940;4;-0.5457063;0.2188366;-0.4556787;-0.6683353;1;3;-14;2079;3188;436;16;0.6980609;-0.7109271;0.08448754;0.01246537;191;25;106;27;5232;868;2;0.5277008;-0.6115456;-0.3601108;-0.466759;3;3;15;-337;4148;-873;8;0.536011;-0.7698078;0.2686981;0.2188366;-15;18;8;587;3929;1349;0.3273452;2.61539;0.7373592;0.3332167;3.150461;0.843595;0.338382;3.621182;0.9349921;0.3622651;4.348063;1.032641;0.1144948;4.684704;1.038222;-0.2314717;4.548616;1.082114;-0.5438625;3.680989;0.9928771;-0.4143261;3.350065;0.1145226;0.6345578;4.667613;1.038268;0.9184766;4.510824;1.082216;1.038843;3.560383;1.184437;0.9492787;2.691576;0.8170969;0.01511651;2.575673;0.7209899;0.1206031;1.339688;-0.05494361;0;0;0;0.01511651;2.575673;0.7209899;0.1206031;1.339688;-0.05494361;0;0;0
1311634.8309;NotLabelled;NONE;16384;-0.4639889;0.2880886;-0.6821861;-0.4861496;-12;11;-13;892;3626;1669;65536;0.6918224;-0.002770083;0.2465374;0.6786703;-19;17;-5;-3978;751;-542;8192;0.6194141;-0.5761772;-0.4265928;-0.3199446;0;39;8;235;3898;177;32768;0.6289965;-0.5526316;-0.2243767;-0.4986149;18;33;-5;1552;3445;797;256;0.1495845;-0.2077562;-0.6357341;-0.7282197;9;20;6;547;3960;-1069;128;-0.033241;0.199446;0.5290859;0.8241265;0;24;3;-843;3499;2074;4;-0.5457063;0.2202216;-0.4556787;-0.6678802;0;-1;-14;2499;3256;426;16;0.7180703;-0.6897507;0.09279778;-0.002770083;180;22;103;-159;5294;836;2;0.5263157;-0.612976;-0.3614958;-0.4653739;2;1;18;-367;4060;-793;8;0.533241;-0.773079;0.265928;0.2174515;-15;16;6;849;3807;1389;0.3466512;2.619388;0.8240536;0.3525212;3.154336;0.9309087;0.3576854;3.62495;1.022851;0.3850226;4.351086;1.125044;0.1388607;4.688863;1.132701;-0.2077578;4.554156;1.175701;-0.5271853;3.689197;1.085464;-0.3965395;3.36364;0.2052709;0.6588364;4.669291;1.132701;0.9419974;4.510876;1.175701;1.061378;3.559977;1.274774;0.9745612;2.69067;0.9079581;0.03442267;2.57969;0.8076344;0.1337028;1.339021;0.03838521;0;0;0;0.03442267;2.57969;0.8076344;0.1337028;1.339021;0.03838521;0;0;0
1311655.9605;NotLabelled;NONE;16384;-0.4653739;0.2894737;-0.6826246;-0.4833795;-11;13;-11;862;3700;1673;65536;0.6946353;-0.004155125;0.2423823;0.6772853;-19;20;-3;-3996;697;-484;8192;0.6176696;-0.5734072;-0.4307479;-0.3227147;1;41;9;189;3928;181;32768;0.6277249;-0.5498615;-0.2285319;-0.501385;18;33;-6;1618;3509;811;256;0.1454294;-0.2063712;-0.634349;-0.730659;9;23;6;505;4018;-1099;128;-0.03047091;0.1966759;0.5290859;0.824899;-1;23;2;-853;3469;2232;4;-0.5457063;0.2216066;-0.4556787;-0.6674219;5;3;-9;2813;3244;180;16;0.7348595;-0.6703601;0.101108;-0.01939058;167;18;96;205;5098;912;2;0.5249307;-0.6135735;-0.3642659;-0.4639889;0;0;22;-265;4008;-857;8;0.5318559;-0.7757506;0.2631579;0.2146814;-12;17;5;879;3851;1373;0.3584103;2.614747;0.9116688;0.3642749;3.149194;1.021002;0.3694343;3.619377;1.115124;0.4030187;4.344418;1.223066;0.1597939;4.684249;1.233277;-0.1880034;4.552222;1.275052;-0.5168009;3.689428;1.198839;-0.3840611;3.368687;0.3171923;0.6795801;4.660163;1.233362;0.9613325;4.498961;1.27524;1.079121;3.54835;1.378872;0.9924027;2.677602;1.015466;0.0461826;2.575125;0.8950499;0.1397538;1.332852;0.1276777;0;0;0;0.0461826;2.575125;0.8950499;0.1397538;1.332852;0.1276777;0;0;0
1311677.3234;NotLabelled;NONE;16384;-0.466759;0.2894737;-0.6836341;-0.4806094;-12;16;-8;908;3826;1735;65536;0.6969319;-0.005540166;0.2396122;0.6759003;-21;19;-1;-4068;727;-516;8192;0.6138454;-0.5720221;-0.434903;-0.3268698;1;40;9;47;4006;203;32768;0.6258825;-0.5470914;-0.234072;-0.5041551;18;34;-8;1570;3577;843;256;0.1412742;-0.2049861;-0.632964;-0.7330613;8;24;4;297;3946;-1157;128;-0.02770083;0.1952908;0.5290859;0.8253255;-3;21;2;-783;3475;2118;4;-0.5470914;0.2229917;-0.4542936;-0.6667706;9;15;0;3507;3780;144;16;0.749438;-0.6523545;0.1080332;-0.033241;150;4;84;533;4712;804;2;0.5221606;-0.616577;-0.368421;-0.4598338;-3;0;28;45;4112;-907;8;0.5304709;-0.7793121;0.2576177;0.2119114;-13;24;3;661;3841;1245;0.3757955;2.604567;0.9913836;0.3816595;3.138956;1.100998;0.3868184;3.60909;1.195367;0.4225722;4.333358;1.307704;0.1803706;4.673852;1.319947;-0.1678285;4.542623;1.36088;-0.4998915;3.681379;1.281371;-0.3669687;3.364779;0.3982552;0.7000818;4.648201;1.319947;0.981342;4.4859;1.360879;1.100486;3.535177;1.461896;1.015637;2.663929;1.099246;0.06356791;2.564953;0.9747421;0.1524042;1.321079;0.2094026;0;0;0;0.06356791;2.564953;0.9747421;0.1524042;1.321079;0.2094026;0;0;0
1311697.0531;NotLabelled;NONE;16384;-0.468144;0.2894737;-0.6836594;-0.4792244;-11;15;-6;896;3762;1751;65536;0.6992046;-0.006925208;0.2368421;0.6745152;-20;14;-2;-4160;707;-650;8192;0.6112303;-0.5692521;-0.4390582;-0.3310249;2;38;10;-39;4098;183;32768;0.6232811;-0.5457063;-0.2382271;-0.5069252;19;35;-9;1620;3609;871;256;0.1371191;-0.2036011;-0.632964;-0.7342353;7;25;3;429;4058;-1117;128;-0.02493075;0.1925208;0.5290859;0.8260643;-1;15;2;-827;3617;2084;4;-0.5554016;0.2285319;-0.4487534;-0.6617572;3;51;8;2775;3126;390;16;0.7719579;-0.6218836;0.1218837;-0.04986149;109;-20;54;455;4414;100;2;0.5207756;-0.6181445;-0.3711911;-0.4570637;-3;5;31;23;4106;-1021;8;0.5290859;-0.7819084;0.2548476;0.2091413;-14;21;2;931;3853;1051;0.3872702;2.589692;1.063955;0.3931334;3.124014;1.173897;0.3982916;3.59409;1.268555;0.4362311;4.317559;1.385241;0.1950724;4.658717;1.399446;-0.153542;4.528316;1.439479;-0.4915959;3.668882;1.365826;-0.3603143;3.35462;0.481631;0.7147025;4.631468;1.399459;0.9954488;4.468062;1.439509;1.112518;3.517209;1.541724;1.030218;2.644674;1.181591;0.07504261;2.550089;1.047287;0.1613264;1.30667;0.2809168;0;0;0;0.07504261;2.550089;1.047287;0.1613264;1.30667;0.2809168;0;0;0
1311717.6811;NotLabelled;NONE;16384;-0.4695291;0.2894737;-0.684645;-0.4764543;-9;15;-4;858;3774;1661;65536;0.7014535;-0.008310249;0.234072;0.6731302;-19;11;-3;-4210;715;-730;8192;0.605987;-0.566482;-0.4445983;-0.3379501;5;32;10;-141;4222;135;32768;0.6191647;-0.5415512;-0.2493075;-0.5110803;20;32;-17;1764;3705;959;256;0.132964;-0.2022161;-0.632964;-0.7353814;4;27;3;595;4184;-1027;128;-0.02216066;0.1911357;0.5290859;0.8264648;-3;14;2;-947;3759;2210;4;-0.5623268;0.232687;-0.4445983;-0.65725;11;51;11;3017;3226;78;16;0.7797206;-0.6108033;0.1260388;-0.05540166;92;0;49;197;4032;56;2;0.5180055;-0.6208386;-0.3739612;-0.4542936;-3;8;29;-129;3948;-1003;8;0.5277008;-0.7836618;0.2534626;0.2077562;-17;14;1;901;3903;891;0.3948821;2.556246;1.180399;0.4007448;3.090517;1.290588;0.4059025;3.560549;1.385463;0.4467392;4.28358;1.503874;0.2069529;4.62567;1.518867;-0.1421875;4.496577;1.558556;-0.4825055;3.638179;1.483282;-0.3529682;3.326227;0.598012;0.7264693;4.596331;1.518867;1.006552;4.431702;1.558556;1.123092;3.480794;1.660864;1.039578;2.607372;1.303167;0.08265474;2.51665;1.163711;0.1712938;1.276198;0.3928154;0;0;0;0.08265474;2.51665;1.163711;0.1712938;1.276198;0.3928154;0;0;0
1311738.0106;NotLabelled;NONE;16384;-0.4736842;0.2908587;-0.6831163;-0.4736842;-5;16;0;868;3778;1773;65536;0.7050107;-0.01108033;0.2271468;0.6717451;-16;14;-4;-4298;709;-604;8192;0.6023864;-0.566482;-0.4473684;-0.3407202;5;29;9;-137;4272;105;32768;0.6169704;-0.5401662;-0.2548476;-0.5124654;21;31;-20;1746;3783;989;256;0.1288089;-0.199446;-0.632964;-0.736876;4;29;3;561;4208;-1161;128;-0.01939058;0.1897507;0.5290859;0.8268536;1;20;4;-1135;3745;2080;4;-0.5692521;0.234072;-0.4390582;-0.6545153;7;49;12;2943;2962;208;16;0.7854163;-0.602493;0.1260388;-0.06509695;73;41;49;67;3648;6;2;0.5138504;-0.6210935;-0.3808864;-0.4529086;-4;17;22;-115;4060;-971;8;0.5263157;-0.7850388;0.2520775;0.2077562;-20;11;0;631;3845;855;0.3997421;2.541093;1.222025;0.405604;3.075303;1.332511;0.4107613;3.545282;1.427647;0.4545094;4.267866;1.547736;0.2161086;4.610889;1.563489;-0.1335572;4.48312;1.602833;-0.479232;3.626616;1.530459;-0.3514039;3.316947;0.6441394;0.7355016;4.579446;1.563488;1.014909;4.413593;1.602833;1.12731;3.462214;1.705396;1.049902;2.585317;1.3549;0.08751479;2.501507;1.205314;0.1751311;1.263496;0.4303869;0;0;0;0.08751479;2.501507;1.205314;0.1751311;1.263496;0.4303869;0;0;0
1311758.1344;NotLabelled;NONE;16384;-0.4750692;0.2908587;-0.6831134;-0.4722992;-5;16;2;816;3818;1767;65536;0.7072126;-0.01108033;0.2243767;0.6703601;-17;13;-6;-4238;797;-664;8192;0.599251;-0.5650969;-0.4501385;-0.3448753;7;27;9;-169;4440;117;32768;0.6141235;-0.5387812;-0.2617728;-0.5138504;20;33;-23;1728;3921;973;256;0.1204986;-0.1966759;-0.632964;-0.7390232;0;30;3;631;4184;-1185;128;-0.01246537;0.1842105;0.5290859;0.8282387;0;26;7;-1089;3595;2072;4;-0.5761772;0.2354571;-0.434903;-0.650722;0;40;17;2645;3118;614;16;0.7896377;-0.5955678;0.1246537;-0.07894737;51;75;43;9;3196;106;2;0.5110803;-0.6208169;-0.3850415;-0.4529086;-3;22;17;-43;4026;-1013;8;0.5249307;-0.7868487;0.2493075;0.2077562;-25;14;0;601;3947;909;0.4071283;2.522441;1.263378;0.4129897;3.056593;1.374144;0.4181463;3.526523;1.469527;0.4634844;4.248738;1.591232;0.2258447;4.592254;1.607717;-0.1241099;4.465176;1.64673;-0.4731218;3.610081;1.57371;-0.341325;3.306085;0.6860092;0.7451667;4.559656;1.607717;1.024199;4.393094;1.646729;1.132838;3.441471;1.751058;1.055644;2.562411;1.405974;0.09490106;2.482864;1.246644;0.1815085;1.252;0.460303;0;0;0;0.09490106;2.482864;1.246644;0.1815085;1.252;0.460303;0;0;0
1311778.0706;NotLabelled;NONE;16384;-0.4778393;0.2908587;-0.6821368;-0.4709141;-3;15;3;818;3684;1817;65536;0.7098024;-0.01246537;0.2202216;0.6689751;-18;9;-9;-4164;793;-618;8192;0.5979114;-0.5637119;-0.4515235;-0.3476454;8;27;11;-133;4460;133;32768;0.6117856;-0.5373961;-0.267313;-0.5152354;20;34;-25;1734;3953;1043;256;0.1149584;-0.1939058;-0.634349;-0.7394501;-4;32;3;607;4102;-1237;128;-0.009695291;0.1814404;0.5290859;0.8288869;0;29;8;-1053;3523;2186;4;-0.5817174;0.2354571;-0.4307479;-0.648553;-4;33;19;2477;3052;586;16;0.7909061;-0.5927978;0.1191136;-0.09418282;31;90;36;293;3252;-30;2;0.5083103;-0.6205001;-0.3891967;-0.4529086;-5;29;14;-153;4074;-1093;8;0.5235457;-0.7890058;0.2465374;0.2063712;-27;17;0;741;4009;1079;0.430927;2.504436;1.299983;0.4367872;3.038478;1.411278;0.4419429;3.508312;1.507127;0.4931939;4.2296;1.631947;0.258388;4.574989;1.649845;-0.09261388;4.450633;1.688216;-0.4449308;3.596545;1.619396;-0.3231134;3.296618;0.7288901;0.7774236;4.538114;1.649844;1.055062;4.369091;1.688215;1.161683;3.417075;1.791034;1.083434;2.53513;1.453638;0.1186999;2.464875;1.283206;0.195584;1.239718;0.4870037;0;0;0;0.1186999;2.464875;1.283206;0.195584;1.239718;0.4870037;0;0;0
1311799.6648;NotLabelled;NONE;16384;-0.4806094;0.2908587;-0.6811448;-0.4695291;-3;18;1;900;3620;1851;65536;0.7106559;-0.01246537;0.2174515;0.6689751;-20;8;-11;-4120;707;-644;8192;0.5941845;-0.5637119;-0.4542936;-0.3504155;10;26;12;17;4480;251;32768;0.6087601;-0.536011;-0.2742382;-0.5166205;18;34;-26;1862;3923;1079;256;0.1108033;-0.1911357;-0.634349;-0.7408044;-7;35;2;683;3992;-1275;128;-0.005540166;0.1786704;0.5304709;0.8286415;2;28;9;-1071;3395;2196;4;-0.5872576;0.2368421;-0.4279778;-0.6448793;-4;33;18;2273;3056;242;16;0.7918308;-0.5900277;0.1135734;-0.1094183;19;86;29;739;3292;-126;2;0.5055401;-0.6191291;-0.3933518;-0.4542936;-6;33;14;-137;4064;-915;8;0.5207756;-0.7916951;0.2437673;0.2063712;-28;19;0;805;3883;1245;0.4483398;2.490029;1.32527;0.4541995;3.024039;1.436719;0.459355;3.493846;1.532702;0.5143145;4.214967;1.656907;0.2812861;4.561572;1.674521;-0.07034779;4.439053;1.713012;-0.426192;3.586055;1.648977;-0.3076683;3.290067;0.7567098;0.8001255;4.522031;1.67453;1.076894;4.351619;1.713034;1.184631;3.399355;1.812343;1.105956;2.515306;1.480597;0.1361128;2.450473;1.308481;0.2069546;1.232145;0.5013143;0;0;0;0.1361128;2.450473;1.308481;0.2069546;1.232145;0.5013143;0;0;0
1311819.6225;NotLabelled;NONE;16384;-0.4819945;0.2922437;-0.6814771;-0.466759;-3;22;0;872;3382;1837;65536;0.7136002;-0.01385042;0.2119114;0.66759;-22;9;-13;-4012;673;-712;8192;0.5865811;-0.5637119;-0.4598338;-0.3559557;10;27;14;109;4142;331;32768;0.6037225;-0.533241;-0.2853186;-0.5193906;12;34;-22;1806;3643;973;256;0.1066482;-0.1883656;-0.6357341;-0.7409364;-8;36;1;709;3890;-1331;128;-0.002770083;0.1745152;0.5304709;0.8295405;1;32;11;-1085;3283;2222;4;-0.5969529;0.2396122;-0.4224377;-0.6385763;1;35;8;1959;2878;98;16;0.7908199;-0.5886427;0.1038781;-0.1315789;3;47;15;831;3030;96;2;0.5;-0.615342;-0.4030471;-0.4570637;-12;35;18;-63;3850;-813;8;0.5152354;-0.7977587;0.2368421;0.2049861;-27;21;-1;571;3699;1583;0.4665247;2.47873;1.345459;0.472388;3.013048;1.455423;0.4775462;3.48312;1.550099;0.5341746;4.203869;1.675707;0.3019546;4.550983;1.693961;-0.04996997;4.429212;1.73217;-0.4076635;3.577354;1.663453;-0.2938255;3.284857;0.7694265;0.8207001;4.51023;1.69396;1.097065;4.339096;1.73217;1.199739;3.386589;1.83446;1.121799;2.499738;1.510101;0.1542972;2.439128;1.328789;0.2174631;1.224461;0.515492;0;0;0;0.1542972;2.439128;1.328789;0.2174631;1.224461;0.515492;0;0;0
1311840.7744;NotLabelled;NONE;16384;-0.4847645;0.2936288;-0.6798622;-0.4653739;-5;24;-1;874;3302;1903;65536;0.714821;-0.01385042;0.2077562;0.66759;-24;15;-14;-3932;599;-732;8192;0.5840394;-0.5623268;-0.4626039;-0.3587258;8;29;17;145;3982;299;32768;0.5993391;-0.533241;-0.2894737;-0.5221606;7;33;-17;1746;3507;919;256;0.101108;-0.1855956;-0.6371191;-0.7412224;-8;36;1;739;3750;-1343;128;0;0.1703601;0.5304709;0.8304084;1;33;12;-983;3125;2374;4;-0.601108;0.2423823;-0.4182825;-0.6363645;8;42;0;1787;2804;358;16;0.7902375;-0.5886427;0.101108;-0.1371191;0;27;8;441;3142;-112;2;0.4972299;-0.6139313;-0.4085872;-0.4570637;-14;34;23;291;3814;-895;8;0.5124654;-0.8011134;0.232687;0.2036011;-26;22;0;561;3433;1733;0.4853227;2.464144;1.368474;0.4911858;2.998455;1.478475;0.496344;3.46852;1.573184;0.5552559;4.189299;1.697563;0.3241315;4.537173;1.715259;-0.02816921;4.416573;1.75372;-0.3902493;3.565935;1.693381;-0.2761157;3.279075;0.7975677;0.8427462;4.494787;1.715262;1.118577;4.32285;1.753725;1.213418;3.369995;1.860245;1.138795;2.479085;1.546399;0.1730953;2.424543;1.351802;0.2308597;1.216564;0.5282067;0;0;0;0.1730953;2.424543;1.351802;0.2308597;1.216564;0.5282067;0;0;0
1311861.6145;NotLabelled;NONE;16384;-0.4903047;0.2963989;-0.6784555;-0.4598338;-7;28;-2;878;3348;1787;65536;0.7200764;-0.0166205;0.1980609;0.66482;-25;17;-14;-3786;455;-762;8192;0.5790038;-0.5623268;-0.466759;-0.3614958;6;31;20;79;3952;303;32768;0.5973368;-0.5318559;-0.2936288;-0.5235457;3;32;-14;1670;3515;917;256;0.09141274;-0.1786704;-0.6398892;-0.7417968;-8;37;0;479;3576;-1449;128;0.006925208;0.1634349;0.5318559;0.8308853;9;30;13;-861;3129;2260;4;-0.6066482;0.2479224;-0.4155124;-0.6307629;10;50;-6;1617;2652;182;16;0.7886471;-0.5900277;0.09972299;-0.1412742;-1;26;4;79;3016;-280;2;0.4930748;-0.6126332;-0.4155124;-0.4570637;-15;37;28;257;3876;-1013;8;0.5096953;-0.8040712;0.2285319;0.2036011;-25;20;-4;799;3571;1795;0.4950914;2.460008;1.372297;0.5009547;2.994314;1.482317;0.5061125;3.464376;1.577042;0.5687578;4.184986;1.700574;0.3394338;4.534069;1.717887;-0.01348048;4.415335;1.756524;-0.3760936;3.565097;1.693782;-0.2663717;3.283462;0.7957618;0.8578231;4.489007;1.717887;1.132766;4.315693;1.756524;1.225927;3.362784;1.864043;1.145405;2.470695;1.555043;0.1828641;2.420407;1.355623;0.23887;1.215114;0.527982;0;0;0;0.1828641;2.420407;1.355623;0.23887;1.215114;0.527982;0;0;0
1311881.6217;NotLabelled;NONE;16384;-0.4930748;0.2977839;-0.6777129;-0.4570637;-7;28;-2;824;3302;1739;65536;0.7241198;-0.0166205;0.1925208;0.6620498;-25;16;-15;-3698;559;-718;8192;0.5761091;-0.5609418;-0.4709141;-0.3628809;5;32;24;-7;3948;225;32768;0.5935223;-0.5318559;-0.2963989;-0.5263157;0;29;-13;1684;3531;879;256;0.08725762;-0.1745152;-0.6398892;-0.7432848;-8;37;-2;557;3642;-1441;128;0.009695291;0.1592798;0.533241;0.8307768;12;28;15;-955;3155;2182;4;-0.6108033;0.2534626;-0.4127424;-0.6263543;7;44;-8;1495;2670;410;16;0.7884063;-0.5900277;0.09556787;-0.1454294;-1;33;0;51;2976;-368;2;0.4903047;-0.6111503;-0.4224377;-0.4556787;-15;35;33;67;3928;-863;8;0.5069252;-0.8069873;0.2243767;0.2036011;-23;18;-4;833;3617;1831;0.5287444;2.46167;1.362684;0.5346112;2.996305;1.471092;0.5397723;3.466652;1.564399;0.6071385;4.187244;1.685523;0.3800836;4.537856;1.701808;0.02643132;4.421532;1.741025;-0.3445739;3.574113;1.690378;-0.2401194;3.301865;0.7888421;0.8981708;4.489447;1.701679;1.17201;4.314488;1.74074;1.264775;3.361363;1.846669;1.179495;2.467983;1.542716;0.2165165;2.422019;1.34614;0.2562914;1.214931;0.520178;0;0;0;0.2165165;2.422019;1.34614;0.2562914;1.214931;0.520178;0;0;0
1311901.5983;NotLabelled;NONE;16384;-0.4958449;0.299169;-0.676944;-0.4542936;-6;26;-2;816;3246;1689;65536;0.7255371;-0.01800554;0.1869806;0.6620498;-25;13;-15;-3680;453;-782;8192;0.5679126;-0.5595568;-0.4792244;-0.367036;2;29;31;-265;4022;43;32768;0.5869946;-0.5304709;-0.301939;-0.5318559;-3;26;-13;1610;3493;915;256;0.08171745;-0.1703601;-0.6412742;-0.7436848;-7;36;-2;575;3628;-1421;128;0.01246537;0.1551246;0.534626;0.8306359;15;27;15;-1003;3155;2138;4;-0.6135734;0.2576177;-0.4113573;-0.6228531;5;32;-7;1529;2624;446;16;0.7878574;-0.5900277;0.09141274;-0.1509695;-5;46;-5;-259;2840;-530;2;0.4875346;-0.6105426;-0.4279778;-0.4542936;-15;26;37;133;3772;-767;8;0.5041551;-0.8094842;0.2216066;0.2036011;-21;18;-6;751;3561;1769;0.5359862;2.464333;1.357177;0.5418569;2.999333;1.463771;0.5470216;3.469993;1.555483;0.6147998;4.190361;1.677706;0.3879498;4.54108;1.694499;0.03422463;4.424907;1.733501;-0.3395777;3.578823;1.681129;-0.2387701;3.314437;0.7768429;0.9060083;4.492366;1.694353;1.17974;4.317188;1.733178;1.272286;3.364533;1.843442;1.180571;2.470694;1.542729;0.2237576;2.424627;1.340779;0.2595322;1.215059;0.5182678;0;0;0;0.2237576;2.424627;1.340779;0.2595322;1.215059;0.5182678;0;0;0
1311922.7493;NotLabelled;NONE;16384;-0.4986149;0.300554;-0.6761486;-0.4515235;-6;23;-3;734;3168;1739;65536;0.7281657;-0.01939058;0.1814404;0.6606648;-25;9;-17;-3678;519;-734;8192;0.5634771;-0.5595568;-0.4833795;-0.368421;1;27;35;-321;3970;21;32768;0.5843005;-0.5304709;-0.3047091;-0.533241;-4;27;-15;1590;3513;997;256;0.07756232;-0.16759;-0.6412742;-0.7447584;-10;34;-3;629;3592;-1467;128;0.01385042;0.1509695;0.536011;0.830487;19;25;14;-983;3105;2044;4;0.619346;-0.265928;0.4072022;0.6163435;14;20;0;2275;2558;96;16;0.7820384;-0.5969529;0.07617728;-0.1620499;-28;46;-25;-101;2864;122;2;0.4806094;-0.6102645;-0.4418283;-0.4487534;-18;24;46;327;3738;-793;8;0.5;-0.8142796;0.2132964;0.2036011;-20;21;-7;677;3491;1741;0.5503962;2.466543;1.351613;0.5562707;3.001905;1.456371;0.561439;3.472876;1.546468;0.6316079;4.193215;1.667513;0.4059286;4.544718;1.683699;0.05181253;4.42979;1.722847;-0.3247932;3.584841;1.672264;-0.226578;3.325457;0.7662451;0.9238216;4.494273;1.683698;1.196962;4.318245;1.722846;1.283518;3.366723;1.846887;1.184908;2.472309;1.550092;0.238167;2.42678;1.335363;0.2656213;1.214451;0.5166064;0;0;0;0.238167;2.42678;1.335363;0.2656213;1.214451;0.5166064;0;0;0
1311942.7063;NotLabelled;NONE;16384;-0.501385;0.301939;-0.6753268;-0.4487534;-5;21;-5;700;3120;1693;65536;0.7291504;-0.02077562;0.1772853;0.6606648;-26;8;-18;-3554;583;-784;8192;0.5567867;-0.5626407;-0.4875346;-0.368421;1;25;39;-507;3930;19;32768;0.5803011;-0.5304709;-0.3074792;-0.536011;-4;27;-18;1526;3409;977;256;0.0734072;-0.1634349;-0.6426592;-0.744909;-15;34;-3;653;3576;-1491;128;0.0166205;0.1468144;0.5387812;0.8293878;21;25;15;-969;3075;2084;4;0.6216384;-0.2700831;0.4030471;0.6149584;26;24;1;2089;2668;82;16;0.7781358;-0.602493;0.06925207;-0.1634349;-42;19;-37;305;2880;242;2;0.4764543;-0.6115096;-0.4487534;-0.4445983;-21;24;50;317;3654;-845;8;0.4986149;-0.8165487;0.2091413;0.2022161;-20;22;-7;503;3399;1703;0.5475828;2.479941;1.323937;0.5534616;3.015676;1.426771;0.5586333;3.486969;1.515175;0.6305665;4.206963;1.637226;0.4057546;4.559;1.653868;0.05135024;4.444895;1.692809;-0.3284866;3.601269;1.644349;-0.2298557;3.347311;0.7368386;0.9235214;4.507275;1.653868;1.196221;4.330518;1.692809;1.280246;3.379564;1.822808;1.177775;2.484267;1.53001;0.2353529;2.440121;1.307842;0.2638929;1.223709;0.4952019;0;0;0;0.2353529;2.440121;1.307842;0.2638929;1.223709;0.4952019;0;0;0
1311962.6433;NotLabelled;NONE;16384;-0.5027701;0.3074792;-0.675456;-0.4432133;-6;25;-12;732;3030;1873;65536;0.73292;-0.0235457;0.166205;0.6592798;-28;12;-18;-3532;597;-774;8192;0.5526316;-0.5619089;-0.4930748;-0.368421;1;23;43;-515;3962;1;32768;0.5749691;-0.5318559;-0.3102493;-0.5387812;-4;27;-22;1516;3403;935;256;0.06648199;-0.1551246;-0.6468144;-0.7437389;-25;31;-5;675;3538;-1413;128;0.02077562;0.1371191;0.5457063;0.8264208;33;40;23;-975;3409;1924;4;0.6241376;-0.2756233;0.3975069;0.6135734;28;36;-5;1613;3082;532;16;0.7742357;-0.6094183;0.06509695;-0.1578947;-57;-27;-52;219;2948;1708;2;0.4736842;-0.6115473;-0.4556787;-0.4404432;-22;24;51;591;3640;-727;8;0.4958449;-0.8192846;0.2049861;0.2022161;-24;22;-8;455;3507;1459;0.5467329;2.488363;1.302151;0.5526192;3.024786;1.401331;0.5577974;3.49667;1.486521;0.6306926;4.216851;1.606889;0.4063416;4.569218;1.622769;0.05179858;4.455662;1.662056;-0.3313217;3.613359;1.616521;-0.2359674;3.362653;0.7077579;0.9240408;4.51682;1.622768;1.196519;4.339801;1.662055;1.273414;3.389841;1.803262;1.164414;2.494153;1.514043;0.234502;2.448433;1.286352;0.264966;1.231806;0.4741024;0;0;0;0.234502;2.448433;1.286352;0.264966;1.231806;0.4741024;0;0;0
1311983.6022;NotLabelled;NONE;16384;-0.5041551;0.3102493;-0.6758705;-0.4390582;-6;25;-15;622;3214;2011;65536;0.7353501;-0.02493075;0.1606648;0.6578947;-29;14;-14;-3650;657;-648;8192;0.5484765;-0.5623183;-0.4972299;-0.368421;2;20;46;-495;4106;-115;32768;0.5714014;-0.5318559;-0.3144044;-0.5401662;-3;25;-29;1636;3561;979;256;0.06371191;-0.1523546;-0.6495845;-0.742138;-33;32;-6;693;4020;-1273;128;0.0235457;0.1315789;0.5512465;0.8235653;46;40;24;-1019;4119;1764;4;0.6268641;-0.2825485;0.3947368;0.6094183;16;39;-20;585;3584;702;16;0.7688203;-0.6191136;0.06371191;-0.1468144;-60;-57;-56;1887;3830;850;2;0.4695291;-0.6104908;-0.4639889;-0.4376731;-22;39;47;719;4008;-621;8;0.4944598;-0.8208063;0.200831;0.2036011;-28;17;-9;691;3795;1237;0.5510876;2.500052;1.269724;0.5569919;3.038115;1.35959;0.5621854;3.511404;1.436588;0.6359693;4.232544;1.550495;0.4120143;4.585282;1.563448;0.05738443;4.472466;1.60406;-0.3291132;3.631054;1.572864;-0.2353098;3.39066;0.6611575;0.9296563;4.532323;1.563448;1.201979;4.355362;1.604059;1.281417;3.406757;1.752766;1.159977;2.510478;1.470413;0.2388535;2.459856;1.254678;0.2676123;1.242716;0.4431353;0;0;0;0.2388535;2.459856;1.254678;0.2676123;1.242716;0.4431353;0;0;0
1312003.6806;NotLabelled;NONE;16384;-0.5055401;0.3130194;-0.6753523;-0.4362881;-6;25;-18;474;3806;2029;65536;0.7373821;-0.02770083;0.1565097;0.6565097;-30;17;-4;-3838;911;-642;8192;0.5429363;-0.5640028;-0.501385;-0.368421;3;16;44;-399;4618;-167;32768;0.5677978;-0.533241;-0.3185596;-0.5401662;0;20;-37;1820;4085;1041;256;0.06094183;-0.1468144;-0.6551247;-0.738609;-42;29;-6;675;4884;-887;128;0.02493075;0.1260388;0.5581717;0.8197176;38;19;16;-625;5381;1110;4;0.6259791;-0.2894737;0.3975069;0.6052631;2;-10;-27;597;4342;754;16;0.7636932;-0.6288089;0.06371191;-0.1315789;-73;-81;-74;-205;4076;686;2;0.4653739;-0.6082021;-0.4736842;-0.434903;-30;49;39;295;4368;-567;8;0.4916897;-0.8231401;0.1980609;0.2036011;-33;12;-6;459;4051;1059;0.5466722;2.519058;1.223104;0.5525895;3.05831;1.305534;0.5577942;3.532616;1.37599;0.6329426;4.254364;1.485053;0.409572;4.607537;1.496144;0.05484402;4.495553;1.538181;-0.3357188;3.656032;1.506665;-0.2413883;3.420943;0.5936307;0.9271286;4.553751;1.49548;1.19925;4.376626;1.536713;1.279082;3.427083;1.679092;1.154392;2.529333;1.402898;0.234436;2.478658;1.208662;0.2643213;1.256388;0.4049063;0;0;0;0.234436;2.478658;1.208662;0.2643213;1.256388;0.4049063;0;0;0
1312044.6992;NotLabelled;NONE;16384;-0.5055401;0.3213296;-0.6767654;-0.4279778;-10;34;-23;294;5552;2155;65536;0.7389089;-0.0401662;0.1523546;0.6551247;-37;9;33;-3972;1455;-130;8192;0.5290859;-0.5686266;-0.5138504;-0.3642659;18;6;36;89;5904;415;32768;0.555583;-0.5429363;-0.3393352;-0.5304709;4;26;-61;1530;5689;1779;256;0.05955679;-0.1385041;-0.6689751;-0.7278337;-76;15;-11;-181;6984;-323;128;0.02493075;0.1232687;0.5706371;0.811515;78;17;4;889;7413;688;4;-0.6066482;0.2811634;-0.398892;-0.627543;27;-83;52;3833;7528;1010;16;0.7478532;-0.6523545;0.0401662;-0.1163435;-39;-37;-57;6105;9480;-1908;2;0.4639889;-0.603589;-0.4833795;-0.432133;-11;-21;0;365;4424;-491;8;0.4806094;-0.8302524;0.1911357;0.2077562;-52;-1;-2;219;4261;1229;0.5494205;2.545364;1.163014;0.5553526;3.085961;1.2361;0.5605698;3.561416;1.298339;0.6349808;4.284691;1.397331;0.4112431;4.63775;1.403542;0.05663869;4.525993;1.447192;-0.3350018;3.686563;1.429781;-0.2424377;3.453097;0.5161495;0.9288553;4.584501;1.403541;1.201167;4.408249;1.447191;1.275927;3.46209;1.612931;1.146583;2.562228;1.345899;0.2371815;2.504721;1.149332;0.2569201;1.270391;0.3639033;0;0;0;0.2371815;2.504721;1.149332;0.2569201;1.270391;0.3639033;0;0;0
1312064.6207;NotLabelled;NONE;16384;-0.5069252;0.33241;-0.6789911;-0.4141274;-17;52;-32;196;5768;2503;65536;0.7355588;-0.06232687;0.1551246;0.6565097;-59;-2;51;-6102;1923;942;8192;0.5235457;-0.5733671;-0.5152354;-0.3628809;34;-11;45;39;6388;943;32768;0.5490131;-0.5457063;-0.3476454;-0.5290859;-6;39;-65;1396;5999;1959;256;0.06232687;-0.1357341;-0.6800554;-0.7177857;-101;3;-16;-689;7478;-135;128;0.0235457;0.1204986;0.5831025;0.8030674;118;-13;9;847;7605;154;4;-0.602493;0.2714681;-0.3933518;-0.6392038;26;-66;71;3809;7078;-10;16;0.74329;-0.6592798;0.03462604;-0.1080332;-57;0;-58;1929;4832;1154;2;0.468144;-0.6045687;-0.4806094;-0.4293629;-6;-37;-15;889;5072;-73;8;0.4736842;-0.834193;0.1897507;0.2091413;-52;1;2;231;4739;1807;0.5006697;2.57368;1.069686;0.5066237;3.116271;1.126086;0.5118595;3.593417;1.17365;0.5840696;4.320102;1.245609;0.3589981;4.672327;1.240337;0.00511682;4.560944;1.290345;-0.390448;3.723316;1.274878;-0.2951117;3.477886;0.3646735;0.876804;4.621016;1.238935;1.150074;4.447483;1.287245;1.222001;3.501345;1.454353;1.088775;2.58859;1.237751;0.1884264;2.532636;1.057368;0.2188971;1.300973;0.2681043;0;0;0;0.1884264;2.532636;1.057368;0.2188971;1.300973;0.2681043;0;0;0
1312085.6186;NotLabelled;NONE;16384;-0.5096953;0.3393352;-0.6785092;-0.4058172;-20;65;-26;72;4640;2405;65536;0.7325639;-0.07479224;0.1578947;0.6578947;-47;4;68;-3140;2043;-1030;8192;0.5166205;-0.5821955;-0.5152354;-0.3587258;42;-47;61;-23;5684;1763;32768;0.5387812;-0.5527443;-0.3545706;-0.5277008;-30;27;-64;1414;5001;1949;256;0.06925207;-0.1246537;-0.7030706;-0.6966759;-89;22;-27;-983;3500;-351;128;0.005540166;0.1260388;0.6108033;0.7816667;97;18;21;-1271;3663;2836;4;-0.602493;0.265928;-0.3878116;-0.6448927;-1;-12;41;1171;4216;1162;16;0.7378697;-0.666205;0.03047091;-0.1038781;-50;-14;-48;1091;3224;1270;2;0.4722992;-0.6046258;-0.4764543;-0.4293629;-10;-30;-27;1863;5492;215;8;0.468144;-0.8382454;0.1855956;0.2091413;-46;20;6;-357;4587;2571;0.4692914;2.565133;1.064935;0.4752617;3.109216;1.104424;0.4805112;3.587611;1.137117;0.5501651;4.316412;1.186712;0.323847;4.667513;1.170706;-0.02962643;4.556468;1.224229;-0.4336563;3.72296;1.243045;-0.3154209;3.443049;0.3455659;0.841831;4.618011;1.170705;1.115724;4.447009;1.224228;1.174451;3.508245;1.432912;1.039711;2.591928;1.232926;0.1570442;2.523727;1.054007;0.202034;1.309328;0.2391019;0;0;0;0.1570442;2.523727;1.054007;0.202034;1.309328;0.2391019;0;0;0
1312105.6166;NotLabelled;NONE;16384;-0.5124654;0.3462604;-0.6786534;-0.3961219;-13;85;-25;-612;3054;1933;65536;0.7315196;-0.08725762;0.1620499;0.6565097;-43;14;69;-3532;2551;-1142;8192;0.5110803;-0.5956532;-0.5110803;-0.3504155;40;-93;70;-79;4622;2253;32768;0.5304709;-0.5611488;-0.3559557;-0.5263157;-60;-12;-64;1630;4183;1769;256;0.0734072;-0.1218837;-0.7139429;-0.6855956;-113;-15;-14;-439;3318;643;128;0.005540166;0.1218837;0.6191136;0.7757655;72;7;27;-1713;3673;1026;4;-0.601108;0.2631579;-0.3864266;-0.6481447;1;-44;3;153;1606;500;16;0.7336159;-0.6717451;0.02493075;-0.09972299;-36;11;-40;-371;2984;1188;2;0.4792244;-0.6023307;-0.4736842;-0.4279778;-43;-41;-25;2055;5844;-17;8;0.4626039;-0.8429045;0.1814404;0.2063712;-41;37;3;-543;4339;3095;0.467453;2.557797;1.052127;0.473439;3.10331;1.053515;0.4787008;3.58282;1.052712;0.5365219;4.314338;1.053757;0.3041581;4.659918;1.017306;-0.0468418;4.546908;1.081859;-0.4556544;3.715782;1.061121;-0.3391016;3.41506;0.1701778;0.8228788;4.618923;1.014852;1.100138;4.456262;1.076432;1.151093;3.507173;1.234258;1.002084;2.58824;1.057775;0.1551986;2.515738;1.044356;0.1981128;1.315014;0.2093237;0;0;0;0.1551986;2.515738;1.044356;0.1981128;1.315014;0.2093237;0;0;0
1312126.6365;NotLabelled;NONE;16384;-0.5152354;0.3573407;-0.6771876;-0.3850415;-18;93;-25;-1410;3332;1963;65536;0.7305487;-0.09972299;0.1648199;0.6551247;-47;20;61;-3808;1991;-170;8192;0.5110803;-0.6238548;-0.4972299;-0.3199446;12;-163;73;1119;3562;1395;32768;0.5235457;-0.5924207;-0.3393352;-0.5096953;-73;-137;-59;1550;4747;-1607;256;0.07894737;-0.1218837;-0.7264091;-0.6717451;-130;-14;0;913;3784;1059;128;0.005540166;0.1191136;0.6301939;0.7672268;73;26;22;-1933;3907;1030;4;-0.5941828;0.2617728;-0.3891967;-0.6534124;19;-68;-24;1071;922;-628;16;0.7301455;-0.6759003;0.01939058;-0.09833795;-29;13;-33;-487;3060;558;2;0.5055401;-0.600626;-0.466759;-0.4072022;-88;-108;0;1079;4728;-799;8;0.4570637;-0.8491683;0.1689751;0.2036011;-28;26;-9;527;3709;2787;0.4470299;2.558209;1.035671;0.4530149;3.103625;1.025327;0.4582753;3.583007;1.014213;0.512098;4.314493;0.9919872;0.2779377;4.65744;0.9439903;-0.07259217;4.544612;1.011352;-0.4882498;3.717441;1.048028;-0.359014;3.394831;0.1665411;0.7968792;4.61926;0.9439893;1.074876;4.460187;1.011351;1.107108;3.528603;1.255047;0.9430296;2.609477;1.093574;0.1347738;2.515993;1.02888;0.1855655;1.320155;0.1873029;0;0;0;0.1347738;2.515993;1.02888;0.1855655;1.320155;0.1873029;0;0;0
1312146.8006;NotLabelled;NONE;16384;-0.5193906;0.367036;-0.6757995;-0.3725762;-30;77;-21;-1814;3038;1975;65536;0.7306919;-0.1135734;0.166205;0.6523545;-56;36;56;-4066;2755;62;8192;0.5138504;-0.6386979;-0.4875346;-0.300554;-14;-166;65;1871;3494;263;32768;0.5290859;-0.607978;-0.3254848;-0.4944598;-31;-167;-65;-574;5741;-4571;256;0.07756232;-0.1218837;-0.7391231;-0.6578947;-96;14;4;1707;3824;407;128;0.005540166;0.1149584;0.6357341;0.7632798;55;2;16;-1243;3599;1682;4;-0.5858725;0.2700831;-0.3933518;-0.6550442;6;28;-34;2435;3790;-732;16;0.7253586;-0.6814404;0.009695291;-0.09695291;-15;11;-22;347;3460;864;2;0.5124654;-0.601408;-0.4653739;-0.398892;-45;-24;7;-221;4738;4951;8;0.4542936;-0.8514029;0.1634349;0.2049861;-21;20;-14;393;3317;2603;0.4307568;2.565349;1.012465;0.436736;3.110241;0.9864206;0.4419909;3.589105;0.9615077;0.4938913;4.319359;0.9115355;0.2586672;4.659712;0.8517255;-0.09127963;4.548684;0.9248632;-0.5114092;3.723182;0.9440317;-0.3682222;3.380463;0.07234487;0.777697;4.622765;0.850823;1.056384;4.466987;0.9228689;1.079315;3.538564;1.179347;0.8707875;2.623045;1.052348;0.1184987;2.522956;1.006991;0.1765902;1.323607;0.1709017;0;0;0;0.1184987;2.522956;1.006991;0.1765902;1.323607;0.1709017;0;0;0
1312167.6484;NotLabelled;NONE;16384;-0.5207756;0.3781163;-0.6804629;-0.3504155;-34;36;-35;-1822;3318;1589;65536;0.7283251;-0.1412742;0.166205;0.6495845;-63;4;46;-2686;3207;556;8192;0.5166205;-0.6504345;-0.4806094;-0.2811634;-26;-127;51;3121;3400;-777;32768;0.536011;-0.6205512;-0.3171745;-0.4764543;1;-133;-70;-1350;4927;-3701;256;0.07617728;-0.1218837;-0.7465798;-0.6495845;-59;1;0;1323;3354;171;128;0.004155125;0.1121884;0.6440443;0.7567056;74;10;16;-259;3453;-140;4;-0.5872576;0.2756233;-0.3933518;-0.6514865;6;45;-33;2051;4226;-1082;16;0.7227901;-0.6842105;0.005540166;-0.09695291;-12;22;-17;439;3936;242;2;0.5055401;-0.5927994;-0.4778393;-0.4058172;-10;159;14;2357;3458;1815;8;0.4529086;-0.852927;0.1592798;0.2049861;-15;18;-15;165;3233;2387;0.4057777;2.587841;0.9603113;0.4117521;3.132293;0.9262974;0.4170023;3.610741;0.8943805;0.4740096;4.338258;0.817362;0.2411298;4.677828;0.745205;-0.1095083;4.572075;0.8227178;-0.5373675;3.752049;0.8758378;-0.3833578;3.389277;0.0141679;0.7598838;4.637183;0.7452037;1.037545;4.482199;0.8227159;1.064664;3.567782;1.125009;0.843484;2.65322;1.013456;0.09351882;2.545373;0.9555084;0.1627793;1.328319;0.146286;0;0;0;0.09351882;2.545373;0.9555084;0.1627793;1.328319;0.146286;0;0;0
1312187.6188;NotLabelled;NONE;16384;-0.5193906;0.3836565;-0.683338;-0.3407202;-28;43;-47;-1564;3208;1321;65536;0.7242589;-0.1551246;0.166205;0.6509695;-60;0;44;-2574;2965;514;8192;0.5193906;-0.657091;-0.4764543;-0.267313;-27;-57;40;3797;2948;-687;32768;0.5401662;-0.6297996;-0.3144044;-0.4612188;12;-58;-65;-2388;3839;-1795;256;0.07894737;-0.1163435;-0.7601532;-0.634349;-81;16;-13;209;3170;1343;128;0.002770083;0.09695291;0.6620498;0.7431571;72;43;32;235;4029;-116;4;-0.5886427;0.2825485;-0.3933518;-0.6472562;9;38;-31;2179;4114;-928;16;0.7226242;-0.6842105;0;-0.09833795;-8;28;-15;409;4426;-322;2;0.4944598;-0.5816944;-0.4944598;-0.4155124;-9;135;7;961;4302;-51;8;0.4515235;-0.8540924;0.1551246;0.2063712;-10;14;-16;101;3459;2473;0.4021621;2.596218;0.937025;0.4081269;3.139793;0.8910537;0.413368;3.617423;0.8486295;0.4736524;4.342786;0.755483;0.2421831;4.68184;0.6766655;-0.1086988;4.579545;0.7576388;-0.5569266;3.771094;0.8194916;-0.3775019;3.371472;-0.02069075;0.7607301;4.638641;0.6758398;1.037897;4.484023;0.7558142;1.076354;3.569689;1.057125;0.8544991;2.652987;0.9664279;0.08990218;2.553656;0.9332317;0.1590101;1.330081;0.1338893;0;0;0;0.08990218;2.553656;0.9332317;0.1590101;1.330081;0.1338893;0;0;0
1312227.762;NotLabelled;NONE;16384;-0.5180055;0.3905817;-0.6852289;-0.3310249;-17;58;-57;-1468;2960;965;65536;0.7199033;-0.16759;0.16759;0.6523545;-53;1;43;-2740;2669;548;8192;0.5193906;-0.6568456;-0.4806094;-0.2603878;-35;17;40;4247;3014;431;32768;0.5387812;-0.6328064;-0.3227147;-0.4529086;8;15;-47;-1218;3861;151;256;0.08033241;-0.1108033;-0.7688154;-0.6246537;-77;19;-17;-139;3312;1683;128;0.002770083;0.08864266;0.6703601;0.7367172;64;38;35;35;3947;72;4;-0.5900277;0.2894737;-0.3933518;-0.6429204;13;26;-20;2205;3736;-772;16;0.7209151;-0.6855956;-0.004155125;-0.101108;-11;25;-14;455;4412;-284;2;0.4889196;-0.5728014;-0.5055401;-0.4210526;-21;93;0;1377;4612;13;8;0.4515235;-0.8545011;0.1509695;0.2077562;-2;14;-15;181;3327;2793;0.392426;2.605665;0.9192979;0.3983593;3.146377;0.8470645;0.4035717;3.621393;0.7815665;0.4590616;4.342554;0.6578274;0.2252985;4.676516;0.5652403;-0.1247878;4.575508;0.6511254;-0.5812345;3.774614;0.7436202;-0.3885414;3.356637;-0.08460726;0.7441091;4.636599;0.565239;1.022391;4.487244;0.6511238;1.070072;3.584612;0.9846762;0.8520838;2.665136;0.9151565;0.08016445;2.562973;0.9177353;0.1514879;1.331222;0.1312492;0;0;0;0.08016445;2.562973;0.9177353;0.1514879;1.331222;0.1312492;0;0;0
1312248.6909;NotLabelled;NONE;16384;-0.5166205;0.398892;-0.6861019;-0.3213296;-7;67;-60;-1652;2922;701;65536;0.7159714;-0.1786704;0.16759;0.6537396;-48;-3;40;-2826;2333;572;8192;0.5152354;-0.6417976;-0.5069252;-0.2562327;-45;91;53;2991;2764;675;32768;0.5304709;-0.6360478;-0.333795;-0.4501385;-2;26;-19;-746;3721;1723;256;0.08171745;-0.1038781;-0.7763069;-0.6163435;-66;25;-18;-269;3426;1915;128;0.001385042;0.08033241;0.6786703;0.7300352;51;31;35;15;3945;-218;4;-0.5900277;0.2950138;-0.3919668;-0.6412458;9;23;-15;1649;3590;-210;16;0.7195594;-0.6869806;-0.008310249;-0.101108;-14;13;-15;459;4180;-430;2;0.4847645;-0.5645655;-0.5152354;-0.4252077;-27;74;3;1397;4648;689;8;0.4515235;-0.8546481;0.1481994;0.2091413;6;0;-17;-73;3465;2989;0.3923002;2.614472;0.8988545;0.3982142;3.153412;0.8144118;0.403409;3.626826;0.7381884;0.4537949;4.344695;0.5947007;0.217607;4.674432;0.4935263;-0.1316246;4.573466;0.5828704;-0.5939868;3.778029;0.6916344;-0.3937721;3.342178;-0.1255224;0.7366741;4.638003;0.4935249;1.016122;4.492913;0.5828687;1.076563;3.594784;0.9263599;0.8681071;2.671712;0.8787199;0.08003858;2.571756;0.8983351;0.1511377;1.331894;0.1246789;0;0;0;0.08003858;2.571756;0.8983351;0.1511377;1.331894;0.1246789;0;0;0
1312269.6224;NotLabelled;NONE;16384;-0.5138504;0.4099723;-0.6861228;-0.3116343;-1;62;-56;-2000;3122;425;65536;0.7125753;-0.1869806;0.16759;0.6551247;-42;-15;37;-2798;2297;530;8192;0.5110803;-0.6356466;-0.5207756;-0.2520775;-35;48;56;2135;2620;381;32768;0.5249307;-0.6384456;-0.3379501;-0.4501385;-10;35;-13;-1226;3543;1961;256;0.08310249;-0.09695291;-0.7846477;-0.6066482;-66;26;-16;-431;3254;2005;128;0;0.07202215;0.6855956;0.7244111;51;32;33;223;3675;-824;4;-0.5886427;0.300554;-0.3919668;-0.6399447;6;-10;-13;1403;3218;-560;16;0.7154554;-0.6911357;-0.01523546;-0.101108;-17;16;-16;449;3998;-428;2;0.4792244;-0.5492228;-0.533241;-0.4293629;-26;80;7;975;3234;569;8;0.4529086;-0.8525389;0.1481994;0.2146814;8;-21;-20;577;2313;2661;0.3835489;2.620823;0.8811538;0.38944;3.157699;0.7844521;0.3946145;3.629253;0.6974608;0.4379679;4.343917;0.536713;0.1985106;4.668881;0.4280573;-0.1496153;4.566788;0.5203854;-0.6160786;3.776192;0.6456823;-0.4089136;3.326118;-0.1619763;0.7178999;4.637377;0.4280556;0.9988431;4.497125;0.5203828;1.091996;3.609917;0.884333;0.8840724;2.685795;0.8608005;0.0712872;2.578108;0.8816859;0.1460018;1.333205;0.1165094;0;0;0;0.0712872;2.578108;0.8816859;0.1460018;1.333205;0.1165094;0;0;0
1312289.6316;NotLabelled;NONE;16384;-0.5041551;0.4293629;-0.6876045;-0.2977839;0;36;-39;-2286;3070;131;65536;0.7025725;-0.2022161;0.1703601;0.6606648;-30;-19;31;-3002;2465;782;8192;0.5096953;-0.633753;-0.5277008;-0.2451524;-24;-7;53;1827;2470;223;32768;0.5180055;-0.6399282;-0.3421052;-0.4529086;-19;37;-9;-1080;3255;1801;256;0.08310249;-0.09141274;-0.7906137;-0.599723;-63;19;-13;-677;2900;2051;128;0;0.06232687;0.6939058;0.7173634;50;31;30;635;3439;-1282;4;-0.5872576;0.301939;-0.3933518;-0.6397153;6;1;-9;1769;3350;-798;16;0.7140142;-0.6925207;-0.01939058;-0.101108;-17;20;-12;99;4084;48;2;0.4764543;-0.5437537;-0.5401662;-0.4307479;-19;52;10;431;2394;183;8;0.4529086;-0.8509951;0.1509695;0.2188366;4;-25;-17;1193;2283;2655;0.3746983;2.629957;0.8492694;0.3805683;3.164884;0.7423123;0.3857234;3.634688;0.6463137;0.4220913;4.345098;0.466153;0.1793922;4.664773;0.3493096;-0.16757;4.562016;0.4452114;-0.6333073;3.772584;0.5801691;-0.422563;3.311998;-0.2206086;0.6990504;4.638072;0.3489066;0.9814829;4.502973;0.4443215;1.094875;3.617141;0.8058727;0.8826518;2.693769;0.7943941;0.062437;2.58726;0.8506841;0.1391189;1.335504;0.0969708;0;0;0;0.062437;2.58726;0.8506841;0.1391189;1.335504;0.0969708;0;0;0
1312310.6146;NotLabelled;NONE;16384;-0.501385;0.4376731;-0.686767;-0.2922437;2;34;-31;-2318;2836;199;65536;0.6975799;-0.2091413;0.1717452;0.6634349;-23;-13;25;-3032;2499;804;8192;0.5083103;-0.6373765;-0.5290859;-0.2354571;-15;-44;51;2223;2214;329;32768;0.5110803;-0.6420396;-0.3448753;-0.4556787;-23;21;-10;-906;3049;1487;256;0.08448754;-0.08725762;-0.7971693;-0.5914127;-61;13;-11;-919;2538;2351;128;0;0.0567867;0.699446;0.7124259;49;21;24;971;3235;-1202;4;-0.5872576;0.3047091;-0.3919668;-0.6392518;6;19;0;1979;3632;-462;16;0.7109932;-0.6952909;-0.0235457;-0.1024931;-19;19;-13;839;4152;-98;2;0.4750692;-0.5373961;-0.5476959;-0.4307479;-14;24;12;187;2506;359;8;0.4515235;-0.8511269;0.1523546;0.2202216;-3;-13;-11;889;2413;2597;0.3747218;2.634516;0.8346782;0.3805631;3.166829;0.7153874;0.3856927;3.634289;0.6085572;0.4172956;4.3413;0.4146492;0.1724265;4.657078;0.2918865;-0.1737779;4.553955;0.3901067;-0.6355181;3.769162;0.5610636;-0.4138404;3.286612;-0.2236657;0.6922463;4.633735;0.2914784;0.9756326;4.502335;0.3892057;1.103964;3.622002;0.7590963;0.8846765;2.700213;0.7566551;0.06246084;2.591864;0.8371583;0.1338289;1.336615;0.0887497;0;0;0;0.06246084;2.591864;0.8371583;0.1338289;1.336615;0.0887497;0;0;0
1312330.7608;NotLabelled;NONE;16384;-0.4986149;0.4445983;-0.6860907;-0.2880886;4;34;-23;-2422;2920;247;65536;0.6946546;-0.2132964;0.1731302;0.66482;-18;-5;22;-2820;2473;842;8192;0.5069252;-0.6431099;-0.5277008;-0.2257618;-9;-50;47;2685;1934;305;32768;0.5083103;-0.644235;-0.3448753;-0.4556787;-21;-19;-20;-964;2897;841;256;0.08864266;-0.07756232;-0.8107594;-0.5734072;-52;4;-13;-1253;2372;2781;128;-0.002770083;0.04986149;0.7115772;0.700831;37;0;17;1337;3227;-1076;4;-0.5886427;0.3074792;-0.3891967;-0.6383434;6;19;4;1661;3722;-180;16;0.7093374;-0.6966759;-0.02631579;-0.1038781;-18;12;-12;351;3920;198;2;0.4750692;-0.5401662;-0.5460561;-0.4293629;14;-44;20;655;2832;-1077;8;0.4501385;-0.851501;0.1523546;0.2216066;-4;5;-8;-639;2737;1595;0.3689063;2.636997;0.8188126;0.3747265;3.167395;0.6912763;0.3798372;3.633142;0.5772051;0.4073032;4.33587;0.3677273;0.1605716;4.647464;0.238187;-0.1849872;4.544563;0.3388824;-0.6452282;3.76286;0.5271568;-0.4180866;3.270432;-0.2498367;0.6805161;4.627078;0.2379575;0.9646986;4.499483;0.3383761;1.099767;3.629172;0.7290052;0.8716074;2.70955;0.7340345;0.05664583;2.594389;0.8220074;0.1323419;1.337505;0.07677621;0;0;0;0.05664583;2.594389;0.8220074;0.1323419;1.337505;0.07677621;0;0;0
1312351.6242;NotLabelled;NONE;16384;-0.4958449;0.4529086;-0.6843928;-0.2839335;4;32;-13;-2562;2918;223;65536;0.6925817;-0.2188366;0.1745152;0.66482;-13;1;20;-2784;2389;772;8192;0.5041551;-0.6495107;-0.5277008;-0.2132964;1;-22;24;2805;1862;275;32768;0.5096953;-0.6563446;-0.3379501;-0.4418283;-2;-58;-33;-994;3143;-581;256;0.09279778;-0.0734072;-0.8155354;-0.566482;-42;1;-16;-1333;2306;2715;128;-0.006925208;0.04570637;0.715895;0.6966759;31;-5;12;1197;3371;-1132;4;-0.5900277;0.3088643;-0.3878116;-0.637238;5;14;3;1441;3422;-202;16;0.706234;-0.699446;-0.03047091;-0.1052632;-19;12;-12;299;3884;126;2;0.4750692;-0.5415512;-0.5479324;-0.4252077;-3;-2;11;1171;3064;817;8;0.4515235;-0.8518602;0.1481994;0.2202216;-4;46;0;-237;2345;1851;0.3649186;2.637059;0.8105635;0.3706874;3.162765;0.6648865;0.3757521;3.624319;0.5348872;0.3923435;4.316689;0.2923786;0.1407777;4.618059;0.148716;-0.2030688;4.514844;0.2548064;-0.6597207;3.730826;0.442198;-0.4330656;3.231893;-0.330777;0.6609704;4.605515;0.1484808;0.947166;4.487104;0.254288;1.089077;3.615798;0.6402432;0.8561001;2.697432;0.6508733;0.05265971;2.594588;0.8153373;0.1319102;1.337913;0.0701225;0;0;0;0.05265971;2.594588;0.8153373;0.1319102;1.337913;0.0701225;0;0;0
1312372.6197;NotLabelled;NONE;16384;-0.4944598;0.4584487;-0.682848;-0.2811634;2;25;-1;-2656;3126;305;65536;0.6909039;-0.2229917;0.1759003;0.66482;-6;9;21;-3114;2443;864;8192;0.5027701;-0.6526045;-0.5263157;-0.2105263;6;-18;15;2917;1920;385;32768;0.5110803;-0.6591721;-0.3393352;-0.434903;10;-9;-28;-1828;3609;-959;256;0.09695291;-0.06925207;-0.8201832;-0.5595568;-33;-5;-15;-1341;2416;2787;128;-0.009695291;0.04432133;0.7199699;0.6925207;23;-10;6;871;3445;-1030;4;-0.5886427;0.3102493;-0.3864266;-0.6386859;8;-13;6;1613;3654;104;16;0.699446;-0.7059733;-0.03601108;-0.1052632;-15;8;-11;103;3856;428;2;0.4736842;-0.5429363;-0.5509611;-0.4210526;-9;0;16;467;3360;757;8;0.4529086;-0.8553941;0.132964;0.2132964;-1;42;-8;-685;2791;1761;0.3589678;2.637513;0.7984356;0.3647162;3.161369;0.6462398;0.3697629;3.621274;0.5105174;0.3798069;4.309282;0.2555543;0.1254101;4.605601;0.1064731;-0.2174579;4.501048;0.2144043;-0.6719948;3.724667;0.4356745;-0.4391621;3.217557;-0.3301089;0.6456987;4.598009;0.1064715;0.9329889;4.484258;0.2144022;1.077805;3.636679;0.6490464;0.8408675;2.719778;0.679675;0.04670955;2.595105;0.803779;0.1301615;1.338634;0.05867835;0;0;0;0.04670955;2.595105;0.803779;0.1301615;1.338634;0.05867835;0;0;0
1312393.6192;NotLabelled;NONE;16384;-0.4930748;0.4639889;-0.6806729;-0.2797784;1;17;10;-2636;3302;363;65536;0.6909817;-0.2257618;0.1772853;0.6634349;-2;14;17;-3476;2827;924;8192;0.5;-0.6560508;-0.5263157;-0.2063712;10;-14;11;3055;2298;653;32768;0.5096953;-0.6579093;-0.3490305;-0.4307479;15;43;-24;-1562;3481;-421;256;0.101108;-0.06648199;-0.8236643;-0.5540166;-26;-7;-12;-1203;2546;2729;128;-0.01385042;0.04432133;0.7225565;0.6897507;18;-14;3;651;3665;-1168;4;-0.5872576;0.3088643;-0.3864266;-0.6406292;0;-20;10;1349;3734;-152;16;0.6980609;-0.7072709;-0.03739612;-0.1052632;-17;0;-12;929;3966;188;2;0.4736842;-0.5415512;-0.5533757;-0.4196676;-12;5;15;1057;3496;903;8;0.4542936;-0.8550857;0.1301939;0.2132964;2;0;-9;963;2773;1765;0.3478198;2.638715;0.7698811;0.353548;3.160737;0.6115103;0.3585767;3.619007;0.4703668;0.362061;4.3024;0.2031129;0.104847;4.59357;0.04881245;-0.2370025;4.487716;0.1586898;-0.6896363;3.711746;0.3852364;-0.4524137;3.198146;-0.3748541;0.6251843;4.590919;0.04881044;0.9135521;4.481854;0.1586867;1.055825;3.636419;0.5983132;0.8250085;2.718349;0.6390467;0.03556216;2.596373;0.7757653;0.1283197;1.339713;0.03208399;0;0;0;0.03556216;2.596373;0.7757653;0.1283197;1.339713;0.03208399;0;0;0
1312414.613;NotLabelled;NONE;16384;-0.4944598;0.468144;-0.676238;-0.2811634;3;2;21;-2756;3552;411;65536;0.6928227;-0.2271468;0.1786704;0.6606648;9;3;-5;-3932;3455;818;8192;0.4972299;-0.6574762;-0.5277008;-0.2049861;10;-1;5;2969;2578;1063;32768;0.5055401;-0.6557422;-0.3573407;-0.432133;13;56;-21;-948;3449;125;256;0.1038781;-0.06371191;-0.8272386;-0.5484765;-20;-7;-10;-939;2758;2583;128;-0.01523546;0.04432133;0.7264724;0.6855956;15;-15;1;563;3779;-1084;4;-0.5844875;0.3060942;-0.3878116;-0.6436481;-6;-31;18;1705;3912;-484;16;0.6952909;-0.7101982;-0.03739612;-0.1038781;-17;-14;-14;1093;4792;-158;2;0.4736842;-0.5429363;-0.5541119;-0.4168975;-6;0;13;949;3090;577;8;0.4542936;-0.8537464;0.134349;0.2160665;15;-51;-16;1131;3073;1631;0.3427755;2.637427;0.7663552;0.3484901;3.158221;0.6039888;0.3535068;3.615396;0.4593379;0.3517995;4.294962;0.1824802;0.09238262;4.581964;0.02411058;-0.2486552;4.47507;0.135493;-0.6978155;3.698102;0.3655049;-0.4574754;3.179561;-0.3902394;0.6127248;4.583274;0.02410857;0.9019106;4.477965;0.1354901;1.041467;3.636937;0.5843459;0.8224804;2.716576;0.6369516;0.03051843;2.595132;0.7725899;0.1274093;1.339912;0.02700647;0;0;0;0.03051843;2.595132;0.7725899;0.1274093;1.339912;0.02700647;0;0;0
1312435.7095;NotLabelled;NONE;16384;-0.4944598;0.4695291;-0.674117;-0.2839335;5;0;19;-2790;3528;431;65536;0.6937248;-0.2243767;0.1786704;0.6606648;14;-2;-17;-3704;3535;800;8192;0.4958449;-0.656723;-0.5304709;-0.2036011;5;6;0;2779;2572;1267;32768;0.5027701;-0.6531422;-0.3642659;-0.433518;8;37;-19;-584;3671;345;256;0.1108033;-0.06232687;-0.8319005;-0.5401662;-13;-12;-6;-545;3032;2633;128;-0.02077562;0.04570637;0.7301494;0.6814404;11;-15;-1;545;3563;-990;4;-0.5831025;0.3033241;-0.3864266;-0.6470398;-5;-14;28;1923;3790;-774;16;0.6939058;-0.7118764;-0.03878116;-0.101108;-23;-12;-13;267;4296;-128;2;0.4736842;-0.5429363;-0.5551512;-0.4155124;-3;-10;10;877;3250;743;8;0.4556787;-0.8498706;0.1426593;0.2229917;19;-61;-17;-9;2741;1295;0.3439845;2.636199;0.7568766;0.3496785;3.155099;0.5885564;0.3546767;3.610587;0.4386791;0.348908;4.286182;0.1523189;0.08778545;4.569366;-0.01006905;-0.2526154;4.461991;0.1027895;-0.6956486;3.680594;0.3296602;-0.4564567;3.158645;-0.4240989;0.6081104;4.573811;-0.01007116;0.8979118;4.471819;0.1027865;1.034971;3.633802;0.5579962;0.81962;2.712976;0.6170848;0.03172833;2.593977;0.7636343;0.128573;1.339978;0.01599583;0;0;0;0.03172833;2.593977;0.7636343;0.128573;1.339978;0.01599583;0;0;0
1312455.6124;NotLabelled;NONE;16384;-0.4958449;0.4695291;-0.6725129;-0.2853186;8;-4;16;-2874;3504;557;65536;0.6937358;-0.2202216;0.1786704;0.6620498;16;-2;-24;-3470;3381;910;8192;0.4972299;-0.6551247;-0.533241;-0.1980609;-7;-21;-1;2817;2634;1065;32768;0.5027701;-0.6535562;-0.368421;-0.4293629;-4;-25;-11;-262;3703;427;256;0.1121884;-0.06232687;-0.8335074;-0.5373961;-10;-11;-5;-557;2740;2567;128;-0.0235457;0.04709141;0.7325535;0.6786703;8;-19;-1;611;3487;-1274;4;-0.5844875;0.300554;-0.3836565;-0.648729;-2;4;30;2007;3316;-918;16;0.6911357;-0.7149525;-0.03878116;-0.09833795;-24;-8;-9;-295;4004;-162;2;0.4736842;-0.5443213;-0.5548298;-0.4141274;1;-13;1;659;3320;539;8;0.4570637;-0.847685;0.1468144;0.2257618;14;-29;-11;-795;2653;1273;0.3268352;2.631965;0.7557142;0.3325083;3.14896;0.5816294;0.3374879;3.602753;0.4266921;0.32686;4.272376;0.1267674;0.06373424;4.550271;-0.04141979;-0.2759268;4.442655;0.07341987;-0.7179823;3.655231;0.280498;-0.4738861;3.136534;-0.4739343;0.5840115;4.558601;-0.04126599;0.8744951;4.461072;0.07376155;1.004022;3.620765;0.5269516;0.7922679;2.699232;0.5879765;0.01457983;2.589822;0.7629795;0.1230346;1.340563;0.009025041;0;0;0;0.01457983;2.589822;0.7629795;0.1230346;1.340563;0.009025041;0;0;0
1312476.6446;NotLabelled;NONE;16384;-0.4958449;0.468144;-0.6722975;-0.2880886;8;-8;17;-2762;3456;733;65536;0.6958246;-0.2146814;0.1772853;0.6620498;16;2;-28;-3200;3273;972;8192;0.4986149;-0.6564396;-0.5318559;-0.1939058;-10;-34;-1;2899;2500;887;32768;0.5027701;-0.6569172;-0.365651;-0.4265928;-9;-33;-1;-442;3619;305;256;0.1149584;-0.06232687;-0.8349102;-0.534626;-5;-16;-4;-727;2630;2421;128;-0.02631579;0.04847645;0.7336498;0.6772853;4;-17;-3;711;3447;-1072;4;-0.5872576;0.2977839;-0.3795014;-0.6499476;-3;2;36;1413;3250;-746;16;0.6897507;-0.7163223;-0.04155125;-0.09695291;-23;3;-5;-913;4124;-52;2;0.4750692;-0.5470914;-0.5519456;-0.4127424;10;-32;-9;429;3050;647;8;0.4584487;-0.8457083;0.1495845;0.2285319;10;-19;-6;-461;2609;1423;0.3219048;2.625179;0.7538338;0.3275638;3.14089;0.5759808;0.3325308;3.59354;0.4177359;0.3213944;4.261175;0.1134298;0.05804927;4.537785;-0.05652425;-0.2815171;4.430695;0.05908456;-0.7198161;3.64359;0.2751637;-0.477722;3.129882;-0.4833162;0.5783207;4.546466;-0.0565266;0.868892;4.449888;0.05908123;1.013282;3.61902;0.5250043;0.8081515;2.69658;0.5943825;0.009650096;2.583091;0.7614315;0.1219496;1.340688;-0.003214695;0;0;0;0.009650096;2.583091;0.7614315;0.1219496;1.340688;-0.003214695;0;0;0
1312497.6225;NotLabelled;NONE;16384;-0.4972299;0.466759;-0.6710438;-0.2908587;5;-14;17;-2784;3502;919;65536;0.6970242;-0.2119114;0.1759003;0.6620498;12;8;-28;-2938;3211;960;8192;0.5;-0.6581178;-0.5304709;-0.1883656;-10;-33;-2;3043;2504;659;32768;0.5041551;-0.6590499;-0.3614958;-0.4252077;-10;-33;8;-482;3531;223;256;0.1177285;-0.06232687;-0.8362922;-0.5318559;-1;-16;-2;-875;2642;2507;128;-0.02908587;0.04986149;0.7347289;0.6759003;-1;-20;-3;869;3507;-1038;4;-0.5886427;0.2853186;-0.3767313;-0.6558709;-18;-25;46;1393;3352;-204;16;0.6842105;-0.7214512;-0.04432133;-0.09695291;-21;-7;-6;815;4036;368;2;0.4792244;-0.5565093;-0.5387812;-0.4127424;18;-22;-14;1027;3390;723;8;0.4556787;-0.8479463;0.1495845;0.2257618;-24;-29;16;1231;2275;5059;0.3091627;2.61675;0.7598352;0.3148148;3.131835;0.5801783;0.3197758;3.583929;0.4203502;0.3072634;4.249529;0.111672;0.04335885;4.524448;-0.06014787;-0.2960014;4.417382;0.05608788;-0.7338415;3.627477;0.2626703;-0.4922664;3.121941;-0.5014442;0.5636104;4.534256;-0.06009585;0.8543637;4.439067;0.05620483;0.9986752;3.608345;0.5224124;0.7901869;2.686876;0.5946335;-0.003091782;2.574688;0.7675921;0.1164254;1.341144;-0.01018957;0;0;0;-0.003091782;2.574688;0.7675921;0.1164254;1.341144;-0.01018957;0;0;0
1312518.7797;NotLabelled;NONE;16384;-0.4986149;0.4626039;-0.6704689;-0.2963989;-2;-21;18;-2662;3454;1105;65536;0.7008666;-0.2036011;0.1703601;0.6620498;5;12;-31;-3232;3275;812;8192;0.501385;-0.660463;-0.5277008;-0.1842105;-9;-25;-6;2935;2452;583;32768;0.5055401;-0.6610016;-0.3559557;-0.4252077;-8;-33;13;-566;3509;147;256;0.1204986;-0.06371191;-0.8366729;-0.5304709;1;-19;-2;-839;2714;2681;128;-0.03185596;0.05124654;0.7345187;0.6759003;-4;-28;-6;775;3479;-934;4;-0.5900277;0.2770083;-0.3753462;-0.6589757;-19;-28;52;2367;3368;-220;16;0.6814404;-0.7241516;-0.04293629;-0.09695291;-22;-11;-8;603;4322;286;2;0.4792244;-0.5591779;-0.536011;-0.4127424;14;-24;-6;1293;3464;581;8;0.4487534;-0.8502712;0.1551246;0.2271468;-30;-45;10;-401;3193;3417;0.3157014;2.597205;0.7695765;0.3213467;3.111661;0.5881252;0.3263015;3.563195;0.4267222;0.3123766;4.226733;0.1136956;0.04789063;4.499957;-0.05992413;-0.2912437;4.392929;0.05700335;-0.7265248;3.601059;0.261457;-0.4825206;3.10043;-0.5051135;0.5681201;4.510877;-0.05992666;0.8590721;4.417074;0.05699962;1.00943;3.590803;0.5291696;0.7978158;2.669881;0.5992312;0.00344725;2.555171;0.7774919;0.118834;1.340631;-0.03024459;0;0;0;0.00344725;2.555171;0.7774919;0.118834;1.340631;-0.03024459;0;0;0
1312540.6489;NotLabelled;NONE;16384;-0.4986149;0.4598338;-0.6717595;-0.2977839;-5;-21;18;-2584;3542;1031;65536;0.7040291;-0.199446;0.16759;0.6606648;5;18;-32;-3474;3333;580;8192;0.5027701;-0.6612816;-0.5263157;-0.1814404;-9;-17;-13;2861;2616;521;32768;0.5083103;-0.6611017;-0.3518005;-0.4252077;-8;-32;14;-664;3513;387;256;0.1232687;-0.06509695;-0.8370396;-0.5290859;7;-23;-4;-817;2836;2497;128;-0.03462604;0.05540166;0.7340916;0.6759003;-9;-39;-11;625;3621;-1038;4;-0.5927978;0.2686981;-0.3739612;-0.6607156;-24;1;55;2151;3558;392;16;0.6800554;-0.7257341;-0.04432133;-0.09418282;-20;-7;-12;123;4334;274;2;0.4792244;-0.5638447;-0.533241;-0.4099723;13;-41;12;1941;3340;613;8;0.4445983;-0.8519425;0.1578947;0.2271468;-7;-13;9;687;2537;3081;0.3246299;2.583979;0.7802407;0.3302758;3.098487;0.5989368;0.3352311;3.550067;0.4376631;0.3211609;4.2127;0.1227311;0.05661798;4.485359;-0.05168872;-0.282497;4.378583;0.06552517;-0.715488;3.582778;0.2592844;-0.4681438;3.098594;-0.5167207;0.5768446;4.496407;-0.05169085;0.8678129;4.403013;0.06552196;1.018154;3.577964;0.5398305;0.801108;2.657907;0.604419;0.0123758;2.541942;0.788143;0.125208;1.339843;-0.03834675;0;0;0;0.0123758;2.541942;0.788143;0.125208;1.339843;-0.03834675;0;0;0
1312561.6501;NotLabelled;NONE;16384;-0.5;0.4570637;-0.6713867;-0.300554;-8;-19;19;-2610;3634;1025;65536;0.707077;-0.1966759;0.1634349;0.6592798;8;24;-34;-3746;3263;306;8192;0.5083103;-0.6596216;-0.5235457;-0.1800554;-7;-9;-25;2465;2726;641;32768;0.5110803;-0.6649325;-0.3421052;-0.4238227;-9;-32;11;-666;3531;643;256;0.1315789;-0.07063711;-0.8353236;-0.5290859;19;-39;-2;-837;2848;2421;128;-0.04293629;0.06786703;0.7313243;0.6772853;-20;-51;-17;353;3795;-648;4;-0.5969529;0.2617728;-0.3725762;-0.6605371;-24;0;54;1911;3594;398;16;0.6772853;-0.7284976;-0.04432133;-0.09279778;-16;-9;-13;159;4384;96;2;0.4792244;-0.5691291;-0.5318559;-0.4044321;14;-52;25;1865;3462;689;8;0.4418283;-0.8526031;0.1620499;0.2271468;8;-22;5;867;2649;2899;0.3246169;2.571277;0.7919493;0.3302644;3.085945;0.6111;0.3352212;3.537667;0.4502252;0.3210168;4.199394;0.1333994;0.05642135;4.47149;-0.04181522;-0.2826762;4.364972;0.07568276;-0.7179277;3.569291;0.2648309;-0.4673165;3.093344;-0.5152116;0.5766454;4.48266;-0.0418174;0.8676281;4.389668;0.07567963;1.018381;3.565368;0.5511551;0.8002719;2.645092;0.6086591;0.01236263;2.529233;0.7998117;0.1201452;1.340071;-0.04584512;0;0;0;0.01236263;2.529233;0.7998117;0.1201452;1.340071;-0.04584512;0;0;0
1312581.6659;NotLabelled;NONE;16384;-0.5027701;0.4529086;-0.6715124;-0.301939;-13;-21;21;-2486;3816;1001;65536;0.7101388;-0.1925208;0.1606648;0.6578947;13;30;-37;-3966;3109;80;8192;0.5110803;-0.6592943;-0.5207756;-0.1814404;-4;-14;-26;2287;2836;567;32768;0.5124654;-0.6659905;-0.3379501;-0.4238227;-8;-33;13;-474;3789;793;256;0.1357341;-0.07479224;-0.8342964;-0.5290859;24;-36;0;-719;3108;2271;128;-0.04709141;0.07617728;0.7289623;0.6786703;-26;-50;-15;139;4143;-456;4;-0.599723;0.2534626;-0.3698061;-0.6628217;-26;-10;52;2353;3644;-564;16;0.6759003;-0.7301298;-0.04432133;-0.0900277;-11;-18;-15;61;3972;830;2;0.4792244;-0.5765417;-0.5290859;-0.3975069;20;-69;28;1375;3982;571;8;0.4418283;-0.8520719;0.1648199;0.2271468;9;-18;6;525;3861;2829;0.3209681;2.559088;0.7992864;0.3266291;3.074978;0.6219553;0.3315979;3.527789;0.4641685;0.3175399;4.190047;0.1484482;0.05300316;4.462499;-0.02630236;-0.2861155;4.355864;0.09103;-0.7240003;3.558326;0.2657294;-0.4557462;3.090571;-0.5133995;0.5732298;4.473544;-0.02630478;0.8641946;4.380287;0.09102613;1.013166;3.552891;0.5616633;0.7863733;2.634144;0.6091574;0.00871332;2.516991;0.806838;0.1226225;1.339532;-0.05425089;0;0;0;0.00871332;2.516991;0.806838;0.1226225;1.339532;-0.05425089;0;0;0
1312602.4655;NotLabelled;NONE;16384;-0.5041551;0.4473684;-0.672935;-0.3047091;-15;-27;24;-2386;3918;1161;65536;0.7150907;-0.1869806;0.1565097;0.6551247;18;32;-39;-4026;2929;-160;8192;0.5138504;-0.6593235;-0.5180055;-0.1814404;-1;-25;-26;2207;3230;405;32768;0.5138504;-0.667896;-0.333795;-0.4224377;-7;-36;13;-414;4129;899;256;0.1385041;-0.07894737;-0.8316929;-0.5318559;27;-34;2;-451;3602;1899;128;-0.04986149;0.08310249;0.7254287;0.6814404;-30;-46;-14;-227;4439;-534;4;-0.6038781;0.2382271;-0.367036;-0.6662309;-23;-19;53;2575;3580;-524;16;0.6731302;-0.7338198;-0.04155125;-0.08171745;-10;-33;-16;-43;4740;318;2;0.4792244;-0.5971763;-0.5152354;-0.3850415;28;-81;25;1849;4580;-9;8;0.4473684;-0.8499123;0.1648199;0.2243767;19;22;4;-167;3497;2065;0.3152022;2.543712;0.8135102;0.3208751;3.060684;0.6393569;0.3258543;3.514456;0.4843594;0.3133722;4.177175;0.1695412;0.04948325;4.450497;-0.00483067;-0.2898865;4.344514;0.1123663;-0.7321717;3.546704;0.2742639;-0.4562326;3.087281;-0.5071357;0.5697349;4.460298;-0.004833251;0.8604789;4.366185;0.1123624;1.004555;3.535156;0.5780951;0.774253;2.616973;0.6191826;0.002946898;2.50157;0.8207816;0.1205627;1.339455;-0.06041973;0;0;0;0.002946898;2.50157;0.8207816;0.1205627;1.339455;-0.06041973;0;0;0
1312623.9206;NotLabelled;NONE;16384;-0.5083103;0.433518;-0.6756973;-0.3116343;-19;-50;27;-2002;3786;1639;65536;0.7238005;-0.1759003;0.1523546;0.6495845;25;16;-42;-3514;2605;-258;8192;0.5166205;-0.6614847;-0.5124654;-0.1814404;-1;-28;-27;2279;3700;227;32768;0.5166205;-0.6686969;-0.3296399;-0.4210526;-8;-38;11;-420;4349;1053;256;0.1412742;-0.08448754;-0.8289019;-0.534626;32;-41;4;-297;3844;1869;128;-0.05263158;0.0900277;0.7217901;0.6842105;-30;-46;-17;-311;4665;-280;4;-0.6080332;0.2299169;-0.3642659;-0.6668914;-24;2;59;3169;3824;-28;16;0.6731302;-0.7344927;-0.0401662;-0.07617728;0;-41;-18;-475;5198;184;2;0.4792244;-0.6054201;-0.5096953;-0.3795014;25;-66;22;2217;4476;181;8;0.4515235;-0.8493343;0.1620499;0.2202216;22;32;8;275;3667;1939;0.3192564;2.517869;0.8324464;0.3249476;3.036515;0.6633448;0.3299434;3.491778;0.5127816;0.3192117;4.157005;0.2032331;0.05602834;4.432446;0.03114277;-0.2835937;4.326495;0.1476357;-0.7305568;3.529956;0.3028092;-0.449205;3.082235;-0.483438;0.5763056;4.440777;0.03100315;0.8668281;4.344918;0.1473289;1.004361;3.515848;0.6185013;0.7710621;2.598275;0.6561648;0.007000268;2.475658;0.839273;0.1158058;1.339097;-0.07573922;0;0;0;0.007000268;2.475658;0.839273;0.1158058;1.339097;-0.07573922;0;0;0
1312644.6116;NotLabelled;NONE;16384;-0.5096953;0.4252077;-0.6780015;-0.3157895;-17;-59;26;-1726;3834;1713;65536;0.7254141;-0.1703601;0.1509695;0.6495845;28;9;-39;-3416;2555;-194;8192;0.5207756;-0.6614324;-0.5083103;-0.1814404;0;-25;-27;2323;4042;307;32768;0.5180055;-0.6711995;-0.3240997;-0.4196676;-10;-33;12;-244;4521;1233;256;0.1440443;-0.09141274;-0.8258937;-0.5373961;33;-41;5;49;4108;1877;128;-0.05401662;0.09695291;0.7181504;0.6869806;-33;-50;-20;-217;4855;-224;4;-0.6135734;0.2229917;-0.3601108;-0.6664252;-28;17;51;2531;4156;310;16;0.6745152;-0.7340538;-0.03739612;-0.06925207;9;-53;-20;-167;3900;1146;2;0.4778393;-0.6125471;-0.5055401;-0.3753462;18;-27;22;2287;4550;135;8;0.4556787;-0.8487062;0.1592798;0.2160665;24;40;10;921;3989;1923;0.3117974;2.501664;0.8493456;0.3175069;3.021971;0.6854275;0.3225188;3.478714;0.5394145;0.3151764;4.146602;0.235549;0.05340711;4.424816;0.06578019;-0.286762;4.319582;0.1813222;-0.7384019;3.520885;0.3095189;-0.4569794;3.092033;-0.4871514;0.5737196;4.430539;0.06577803;0.8637378;4.332234;0.1813191;0.998717;3.494901;0.638406;0.76492;2.577229;0.6700923;-0.0004593134;2.459388;0.8557165;0.1095465;1.339412;-0.07938372;0;0;0;-0.0004593134;2.459388;0.8557165;0.1095465;1.339412;-0.07938372;0;0;0
1312665.6174;NotLabelled;NONE;16384;-0.5096953;0.4168975;-0.6812068;-0.3199446;-12;-58;22;-1380;3902;1793;65536;0.7285266;-0.1634349;0.1495845;0.6481994;31;11;-32;-3376;2565;-198;8192;0.5263157;-0.6640404;-0.4986149;-0.1828255;-1;-26;-27;2201;4408;243;32768;0.5207756;-0.6730148;-0.3157895;-0.4196676;-9;-29;11;52;4867;1097;256;0.1495845;-0.1038781;-0.8188701;-0.5443213;32;-42;3;81;4530;1641;128;-0.05817174;0.1108033;0.7104602;0.6925207;-31;-35;-15;-295;4799;252;4;-0.6163435;0.2174515;-0.3601108;-0.6656995;-32;-11;34;1719;3740;474;16;0.6745152;-0.7350514;-0.03185596;-0.06094183;14;-82;-24;945;3688;1308;2;0.4750692;-0.6155416;-0.5055401;-0.3739612;15;7;23;1711;4538;-289;8;0.4598338;-0.8486271;0.1551246;0.2105263;24;44;12;543;4181;1627;0.2977436;2.485096;0.8699943;0.3034711;3.007049;0.7113903;0.3084991;3.465255;0.570042;0.3058904;4.135947;0.272339;0.04609159;4.417583;0.1052046;-0.2948018;4.313731;0.2198589;-0.751994;3.516416;0.3364457;-0.4644845;3.096345;-0.4627267;0.5664316;4.419575;0.1051235;0.855759;4.318133;0.2196814;0.9824875;3.481641;0.6806532;0.7439659;2.565028;0.7073998;-0.01451385;2.442757;0.875899;0.1013472;1.340089;-0.07885605;0;0;0;-0.01451385;2.442757;0.875899;0.1013472;1.340089;-0.07885605;0;0;0
1312686.6296;NotLabelled;NONE;16384;-0.5096953;0.4099723;-0.6834419;-0.3240997;-7;-50;18;-1118;4066;1975;65536;0.7303898;-0.1592798;0.1509695;0.6468144;34;12;-24;-3358;2447;-264;8192;0.5290859;-0.6659732;-0.4930748;-0.1828255;-2;-31;-29;2253;4448;203;32768;0.5221606;-0.6738779;-0.3116343;-0.4196676;-6;-30;10;340;4849;981;256;0.1509695;-0.1108033;-0.8158565;-0.5470914;29;-33;3;219;4440;1405;128;-0.05955679;0.1163435;0.7053792;0.6966759;-32;-25;-9;-581;4727;286;4;-0.6163435;0.2105263;-0.3642659;-0.6656649;-36;-34;22;1881;3236;278;16;0.6759003;-0.7349274;-0.0235457;-0.04986149;14;-94;-25;819;3310;1264;2;0.4709141;-0.6156101;-0.5083103;-0.3753462;19;16;17;967;4416;-623;8;0.4653739;-0.8480459;0.1509695;0.2036011;23;44;16;489;4075;1287;0.3035023;2.457185;0.9287248;0.3092653;2.982364;0.7811583;0.3143249;3.443448;0.6495001;0.3127077;4.126222;0.3806506;0.05244964;4.417474;0.2317019;-0.2869227;4.312449;0.3497508;-0.7520998;3.515696;0.4341503;-0.4700143;3.123371;-0.3808995;0.5726407;4.413942;0.2195965;0.8633086;4.304641;0.322985;0.9930292;3.436669;0.7205693;0.748854;2.521155;0.720122;-0.008756369;2.414731;0.9336634;0.09651627;1.34162;-0.05538107;0;0;0;-0.008756369;2.414731;0.9336634;0.09651627;1.34162;-0.05538107;0;0;0
1312706.6626;NotLabelled;NONE;16384;-0.5096953;0.4044321;-0.6847584;-0.3282548;-3;-43;14;-950;4120;2169;65536;0.7325116;-0.1537396;0.1523546;0.6454294;36;9;-18;-3494;2335;-436;8192;0.533241;-0.6663561;-0.4875346;-0.1842105;-3;-32;-32;2265;4428;101;32768;0.5235457;-0.675571;-0.3074792;-0.4182825;-3;-34;13;416;4887;947;256;0.1523546;-0.1149584;-0.8131574;-0.5498615;31;-26;2;495;4364;1319;128;-0.06094183;0.1191136;0.7020494;0.699446;-31;-16;-6;-833;4695;450;4;-0.6149584;0.199446;-0.368421;-0.6680669;-30;-11;11;2997;2916;-360;16;0.6800554;-0.7324435;-0.01108033;-0.03047091;21;-63;-8;-347;3350;1250;2;0.466759;-0.6167822;-0.5096953;-0.3767313;18;21;10;781;4444;-365;8;0.4709141;-0.8467873;0.1481994;0.1980609;18;33;18;35;3819;1305;0.3035023;2.457185;0.9287248;0.3092653;2.982364;0.7811583;0.3143249;3.443448;0.6495001;0.3127077;4.126222;0.3806506;0.05244964;4.417474;0.2317019;-0.2869227;4.312449;0.3497508;-0.7520998;3.515696;0.4341503;-0.4700143;3.123371;-0.3808995;0.5726407;4.413942;0.2195965;0.8633086;4.304641;0.322985;0.9930292;3.436669;0.7205693;0.748854;2.521155;0.720122;-0.008756369;2.414731;0.9336634;0.09651627;1.34162;-0.05538107;0;0;0;-0.008756369;2.414731;0.9336634;0.09651627;1.34162;-0.05538107;0;0;0
1312727.7108;NotLabelled;NONE;16384;-0.5069252;0.3933518;-0.6892207;-0.3365651;4;-42;3;-872;3664;2189;65536;0.7348217;-0.1440443;0.1565097;0.6440443;38;-2;-13;-3620;2069;-638;8192;0.536011;-0.6681617;-0.4819945;-0.1842105;-5;-30;-34;2263;4462;5;32768;0.5263157;-0.6759173;-0.301939;-0.4182825;1;-34;17;462;4913;1015;256;0.1537396;-0.1191136;-0.8104162;-0.5526316;32;-20;1;731;4494;1105;128;-0.06094183;0.1218837;0.6966759;0.7043246;-31;-13;-7;-1137;4639;576;4;-0.6149584;0.1952908;-0.3711911;-0.667761;-23;0;1;2613;2688;-240;16;0.6828254;-0.730135;-0.005540166;-0.02493075;25;-51;2;-469;3060;1300;2;0.4626039;-0.6167869;-0.5083103;-0.3836565;19;-4;-7;215;4034;-425;8;0.4750692;-0.8454995;0.1495845;0.1925208;9;-15;12;97;3831;1893;0.2838969;2.463758;0.9024024;0.2896958;2.992214;0.7670448;0.2947875;3.456225;0.6461061;0.308027;4.138128;0.3753756;0.05499191;4.432161;0.2196012;-0.2883269;4.331772;0.330025;-0.7512956;3.533087;0.4080747;-0.4515882;3.133291;-0.3969936;0.5752378;4.422064;0.219599;0.8620259;4.309443;0.3300217;0.9727314;3.452046;0.7553349;0.722871;2.538074;0.7586719;-0.02836299;2.421202;0.9062768;0.07378796;1.342026;-0.07647543;0;0;0;-0.02836299;2.421202;0.9062768;0.07378796;1.342026;-0.07647543;0;0;0
1312748.6131;NotLabelled;NONE;16384;-0.5041551;0.3891967;-0.6922465;-0.3393352;5;-43;-3;-808;3632;2261;65536;0.7362014;-0.1385041;0.1606648;0.6426592;37;-6;-12;-3588;1885;-626;8192;0.5401662;-0.6693907;-0.4750692;-0.1855956;-5;-23;-36;2253;4348;-3;32768;0.5290859;-0.675598;-0.2977839;-0.4182825;2;-28;25;528;4717;1205;256;0.1551246;-0.1218837;-0.8068886;-0.5567867;33;-14;2;743;4450;891;128;-0.06094183;0.1246537;0.6939058;0.7065708;-29;-10;-8;-1165;4519;480;4;-0.6163435;0.1952908;-0.3725762;-0.6657096;-14;-1;-13;2445;2428;-174;16;0.6855956;-0.7276453;0;-0.02216066;24;-37;12;-505;2756;1130;2;0.4626039;-0.6184657;-0.5041551;-0.3864266;20;-16;-12;509;4262;-419;8;0.4750692;-0.8450048;0.1523546;0.1925208;4;-22;10;-539;3677;2079;0.2856447;2.462099;0.915085;0.2914653;2.992537;0.7877166;0.2965765;3.45832;0.673793;0.3124131;4.142478;0.4089519;0.06050753;4.438784;0.2556752;-0.2832052;4.338728;0.3651722;-0.7460634;3.539193;0.4347075;-0.4566863;3.147552;-0.3781119;0.5807121;4.426745;0.2556731;0.867056;4.312107;0.3651691;0.9734038;3.451266;0.7845951;0.7217554;2.537793;0.7794418;-0.0266158;2.41949;0.9182651;0.06987575;1.342708;-0.06768019;0;0;0;-0.0266158;2.41949;0.9182651;0.06987575;1.342708;-0.06768019;0;0;0
1312768.7434;NotLabelled;NONE;16384;-0.501385;0.3850415;-0.694529;-0.3434903;5;-43;-9;-512;3480;2269;65536;0.7366677;-0.134349;0.1620499;0.6426592;35;-8;-11;-3474;1593;-670;8192;0.5443213;-0.6685749;-0.4709141;-0.1869806;-5;-11;-36;2389;4170;45;32768;0.5318559;-0.6743816;-0.2936288;-0.4196676;1;-15;36;522;4475;1257;256;0.1551246;-0.1260388;-0.8033647;-0.5609418;35;-11;4;859;4266;781;128;-0.05955679;0.1274238;0.6897507;0.7102536;-26;-3;-9;-1011;4289;544;4;-0.6149584;0.1966759;-0.3753462;-0.6650263;-3;0;-26;2617;1888;-168;16;0.6883656;-0.72502;0.002770083;-0.02216066;21;-13;21;-679;2448;534;2;0.4639889;-0.6199326;-0.5;-0.3878116;16;-21;-15;645;4196;-239;8;0.4764543;-0.8439735;0.1537396;0.1925208;2;-17;7;-653;3731;2241;0.2868083;2.463861;0.925357;0.2926397;2.99527;0.8020988;0.2977603;3.46192;0.6917847;0.3142218;4.14901;0.4346859;0.0625973;4.447231;0.2846972;-0.2812258;4.346226;0.3929682;-0.7450286;3.547148;0.4614658;-0.4631654;3.15821;-0.3552821;0.5827921;4.434771;0.2846952;0.8690135;4.318673;0.3929653;0.9715352;3.452396;0.8020251;0.7199124;2.538988;0.7894366;-0.02545232;2.421229;0.9281806;0.07068756;1.343186;-0.05641978;0;0;0;-0.02545232;2.421229;0.9281806;0.07068756;1.343186;-0.05641978;0;0;0
1312788.6205;NotLabelled;NONE;16384;-0.4972299;0.3808864;-0.6984209;-0.3462604;6;-40;-15;-372;3258;2217;65536;0.7358326;-0.1288089;0.1648199;0.6440443;32;-7;-10;-3506;1381;-608;8192;0.5498615;-0.6649728;-0.466759;-0.1939058;-6;13;-31;1981;3964;119;32768;0.536011;-0.667639;-0.2853186;-0.4307479;-2;5;53;616;4229;1167;256;0.1523546;-0.132964;-0.7959158;-0.5706371;31;-6;5;759;4108;805;128;-0.0567867;0.1315789;0.6842105;0.7150652;-26;-4;-11;-813;4051;604;4;-0.6135734;0.199446;-0.3781163;-0.6639104;6;5;-32;2937;1886;-286;16;0.6911357;-0.7222338;0.004155125;-0.02631579;24;16;25;-1969;3116;-28;2;0.4653739;-0.6204925;-0.4958449;-0.3905817;12;-17;-13;1015;4240;-235;8;0.4750692;-0.8445007;0.1551246;0.1925208;2;-14;4;35;4005;2401;0.2867899;2.470634;0.9305578;0.2926368;3.003472;0.8136327;0.2977715;3.471402;0.7088798;0.317432;4.161457;0.4600818;0.06721186;4.462601;0.3136238;-0.2771022;4.361857;0.4205708;-0.7395518;3.561854;0.4873886;-0.4596484;3.176906;-0.3319204;0.5873449;4.447784;0.3136221;0.8730006;4.329094;0.4205684;0.9754161;3.458528;0.8204449;0.7237384;2.545321;0.7981013;-0.02547124;2.427971;0.9328334;0.07154683;1.343581;-0.04468596;0;0;0;-0.02547124;2.427971;0.9328334;0.07154683;1.343581;-0.04468596;0;0;0
1312808.8556;NotLabelled;NONE;16384;-0.4930748;0.3767313;-0.7022311;-0.3490305;5;-34;-19;-212;3326;2265;65536;0.7364697;-0.1232687;0.166205;0.6440443;28;-6;-9;-3562;1199;-626;8192;0.5526316;-0.6614426;-0.466759;-0.1980609;-8;19;-30;1741;3892;99;32768;0.5387812;-0.6626494;-0.2811634;-0.4376731;-3;6;57;696;4067;1121;256;0.1509695;-0.1357341;-0.7927158;-0.5747922;32;-8;4;615;3876;723;128;-0.05540166;0.134349;0.6800554;0.7186137;-29;-3;-11;-735;4181;504;4;-0.6121883;0.2049861;-0.3795014;-0.6627102;16;11;-31;3067;2252;-278;16;0.6939058;-0.7194781;0;-0.02908587;30;34;27;-1551;3968;-410;2;0.4653739;-0.622696;-0.4930748;-0.3905817;5;-6;-9;1209;4572;-377;8;0.4750692;-0.84367;0.1578947;0.1939058;3;-17;3;369;4101;2291;0.2904654;2.479091;0.9362034;0.2963321;3.013731;0.8278171;0.3014846;3.483276;0.7305633;0.3279068;4.17956;0.5004465;0.08070369;4.486852;0.3618459;-0.2646845;4.38648;0.4656323;-0.7284433;3.588409;0.5452655;-0.4536393;3.207595;-0.2776923;0.6006761;4.467196;0.3620666;0.8850634;4.343018;0.4661216;0.984109;3.470587;0.8627719;0.7293234;2.559536;0.8093249;-0.02179593;2.436398;0.9377413;0.07712667;1.343675;-0.03026149;0;0;0;-0.02179593;2.436398;0.9377413;0.07712667;1.343675;-0.03026149;0;0;0
1312829.8399;NotLabelled;NONE;16384;-0.4861496;0.3711911;-0.7085987;-0.3518005;4;-28;-17;-216;3552;2285;65536;0.7361857;-0.1135734;0.1689751;0.6454294;20;-12;-7;-3988;947;-710;8192;0.5540166;-0.660001;-0.4653739;-0.2022161;-8;22;-30;1543;3796;63;32768;0.5401662;-0.6586496;-0.2770083;-0.4445983;-2;3;59;748;4025;1111;256;0.1509695;-0.1385041;-0.7892051;-0.5789474;33;-10;3;477;4012;715;128;-0.05401662;0.1371191;0.6772853;0.7208087;-27;-6;-13;-561;4369;418;4;-0.6066482;0.2132964;-0.3767313;-0.6667504;34;-13;-12;3781;3036;-344;16;0.699446;-0.7132978;-0.004155125;-0.04432133;21;48;30;1021;5866;-1258;2;0.4653739;-0.6218251;-0.4930748;-0.3919668;5;-3;-6;1021;4492;-499;8;0.4750692;-0.8431469;0.1606648;0.1939058;5;-17;2;557;3923;1939;0.2785162;2.490114;0.9331374;0.2843965;3.025991;0.8310461;0.2895611;3.496648;0.7393209;0.3186877;4.195429;0.5172411;0.07268195;4.505251;0.382188;-0.2730973;4.405026;0.4848086;-0.7370968;3.606429;0.5574546;-0.4690518;3.2315;-0.27042;0.5925747;4.483583;0.3821861;0.8764743;4.357115;0.4848056;0.9791086;3.4749;0.8582188;0.7243448;2.565138;0.7859906;-0.03374538;2.447406;0.934133;0.0705491;1.344208;-0.02134348;0;0;0;-0.03374538;2.447406;0.934133;0.0705491;1.344208;-0.02134348;0;0;0
1312850.711;NotLabelled;NONE;16384;-0.4833795;0.368421;-0.710556;-0.3545706;2;-31;-13;-378;3708;2291;65536;0.7368147;-0.1094183;0.1689751;0.6454294;17;-12;-6;-4276;977;-756;8192;0.5567867;-0.6563739;-0.4653739;-0.2063712;-8;21;-31;1333;3876;53;32768;0.5429363;-0.6539509;-0.2714681;-0.4515235;-1;0;58;854;4029;1053;256;0.1509695;-0.1426593;-0.7853968;-0.5831025;33;-13;3;315;4184;755;128;-0.05263158;0.1398892;0.6745152;0.7229732;-23;-12;-13;-367;4289;546;4;-0.6038781;0.2160665;-0.3739612;-0.669925;34;-14;3;4175;3988;-254;16;0.700831;-0.7112576;-0.005540166;-0.05401662;12;46;36;1223;6346;-504;2;0.4653739;-0.6244357;-0.4875346;-0.3947368;13;-13;-8;573;3824;-659;8;0.4764543;-0.8412893;0.166205;0.1939058;4;-11;3;533;3605;1765;0.2589825;2.50022;0.9479808;0.2648716;3.03689;0.85014;0.2700439;3.508258;0.7621483;0.3008511;4.209505;0.5482147;0.05561924;4.521406;0.4165834;-0.2904545;4.420748;0.5177767;-0.7571651;3.624876;0.6020166;-0.4989173;3.259713;-0.2333049;0.5754637;4.498613;0.4167166;0.8590103;4.370346;0.5180726;0.9566835;3.487625;0.891621;0.6998485;2.580029;0.8016635;-0.05327916;2.457507;0.9486107;0.08033846;1.343797;0.009112611;0;0;0;-0.05327916;2.457507;0.9486107;0.08033846;1.343797;0.009112611;0;0;0
1312871.7405;NotLabelled;NONE;16384;-0.4806094;0.3642659;-0.7138771;-0.3559557;0;-34;-9;-314;3650;2281;65536;0.7360059;-0.1066482;0.1689751;0.6468144;15;-11;-10;-4502;1027;-874;8192;0.5595568;-0.6536736;-0.4639889;-0.2105263;-9;17;-30;1061;3898;73;32768;0.5457063;-0.649493;-0.267313;-0.4570637;0;-2;58;830;3961;1061;256;0.1509695;-0.1454294;-0.7817845;-0.5872576;30;-14;3;207;4170;717;128;-0.05263158;0.1426593;0.6703601;0.7262889;-24;-2;-8;-233;3829;972;4;-0.602493;0.2174515;-0.3711911;-0.6722605;25;-1;4;3651;3746;432;16;0.700831;-0.7104427;-0.006925208;-0.06371191;5;42;32;1145;4250;76;2;0.466759;-0.6246814;-0.4847645;-0.3961219;14;-23;-10;931;3922;-275;8;0.4778393;-0.8402284;0.16759;0.1939058;4;-1;7;147;3593;1913;0.2502294;2.500579;0.9577032;0.2561268;3.038005;0.8641058;0.2613066;3.510054;0.7798411;0.295144;4.213775;0.5746693;0.05127449;4.528324;0.4468636;-0.295255;4.427876;0.5466958;-0.7607633;3.630808;0.6261631;-0.5023631;3.271312;-0.2115656;0.5710182;4.503336;0.4468619;0.8539869;4.372621;0.5466934;0.9537678;3.483578;0.9043573;0.6963305;2.578463;0.7935424;-0.06203225;2.457861;0.9579686;0.09150082;1.342917;0.02298968;0;0;0;-0.06203225;2.457861;0.9579686;0.09150082;1.342917;0.02298968;0;0;0
1312891.6342;NotLabelled;NONE;16384;-0.4778393;0.3601108;-0.7164536;-0.3587258;0;-32;-3;-222;3550;2309;65536;0.7348635;-0.1038781;0.1703601;0.6481994;13;-9;-14;-4490;1009;-1088;8192;0.5650969;-0.6481151;-0.4612188;-0.2188366;-5;6;-28;771;3816;229;32768;0.5498615;-0.6415135;-0.2562327;-0.4695291;0;-4;54;1024;3751;1101;256;0.1509695;-0.1495845;-0.7757445;-0.5941828;28;0;1;277;3796;609;128;-0.04986149;0.1426593;0.6634349;0.732814;-30;6;-1;-815;3865;796;4;-0.6038781;0.2188366;-0.368421;-0.6720921;10;16;-1;3091;2678;1158;16;0.702216;-0.7082778;-0.006925208;-0.07202215;1;40;24;1789;3564;-216;2;0.466759;-0.6268212;-0.4819945;-0.3961219;13;-16;-10;1263;4088;-97;8;0.4778393;-0.8408217;0.166205;0.1925208;4;9;6;143;3683;2179;0.2484371;2.498096;0.9668294;0.2543457;3.036546;0.8793218;0.2595358;3.50952;0.8004061;0.294933;4.21553;0.6035321;0.05178268;4.532059;0.4792916;-0.2950103;4.431155;0.5777414;-0.7630779;3.635663;0.6579478;-0.5037087;3.279754;-0.1810126;0.571474;4.506006;0.4792899;0.8541159;4.373548;0.5777392;0.9535059;3.480724;0.9259689;0.697329;2.577534;0.7978752;-0.0638245;2.455378;0.9665724;0.1046049;1.341761;0.03257738;0;0;0;-0.0638245;2.455378;0.9665724;0.1046049;1.341761;0.03257738;0;0;0
1312911.6491;NotLabelled;NONE;16384;-0.4778393;0.3559557;-0.7171373;-0.3614958;-1;-32;1;-194;3350;2351;65536;0.7357582;-0.09972299;0.1689751;0.6481994;11;-5;-19;-4492;881;-1012;8192;0.567867;-0.6462402;-0.4584487;-0.2229917;-5;-5;-32;755;3910;235;32768;0.5526316;-0.6382593;-0.2506925;-0.4736842;0;-11;48;1152;3769;1031;256;0.1495845;-0.1509695;-0.7725441;-0.5983379;34;0;1;475;3742;413;128;-0.04709141;0.1440443;0.6592798;0.7364671;-36;2;-4;-1157;3917;962;4;-0.6080332;0.2202216;-0.367036;-0.6686423;3;19;-3;2979;2380;1130;16;0.702216;-0.7073686;-0.008310249;-0.08033241;3;31;17;701;3918;208;2;0.466759;-0.6280671;-0.4792244;-0.3975069;10;-4;-8;1285;4436;-177;8;0.4792244;-0.8409358;0.1648199;0.1897507;5;13;6;7;3895;2233;0.2463846;2.494492;0.9826205;0.2523106;3.034531;0.9055189;0.2575164;3.508938;0.8357442;0.2949452;4.218547;0.6526694;0.05274384;4.538065;0.5343701;-0.2944102;4.436174;0.6305014;-0.7629633;3.640851;0.7095486;-0.5030051;3.286887;-0.1300518;0.5723656;4.51066;0.5343682;0.8545622;4.375575;0.6304986;0.9542258;3.475514;0.9594852;0.6952621;2.579066;0.7948427;-0.06587693;2.451788;0.9814732;0.1150804;1.340473;0.0470791;0;0;0;-0.06587693;2.451788;0.9814732;0.1150804;1.340473;0.0470791;0;0;0
1312932.6191;NotLabelled;NONE;16384;-0.4764543;0.3504155;-0.7200817;-0.3628809;-4;-29;5;-130;3308;2419;65536;0.7354049;-0.09556787;0.16759;0.6495845;7;-10;-26;-4532;771;-950;8192;0.5720221;-0.64552;-0.4529086;-0.2257618;-7;-9;-41;925;3942;235;32768;0.5567867;-0.6347284;-0.2451524;-0.4764543;3;-20;43;1238;3783;979;256;0.1481994;-0.1523546;-0.769303;-0.602493;36;-3;2;633;3864;473;128;-0.04432133;0.1468144;0.6537396;0.7410167;-42;-2;-8;-1043;4011;950;4;-0.6149584;0.2216066;-0.367036;-0.6618166;-5;15;-1;2667;3138;690;16;0.700831;-0.707557;-0.009695291;-0.0900277;3;7;9;1503;3914;362;2;0.4653739;-0.6282168;-0.4792244;-0.398892;4;14;-4;1249;4502;-431;8;0.4806094;-0.840727;0.1634349;0.1883656;5;9;5;199;3719;2137;0.25792;2.491907;0.9933736;0.2638554;3.032815;0.922629;0.2690697;3.508011;0.858439;0.307733;4.219541;0.6832432;0.06610908;4.54073;0.5683426;-0.2812636;4.438334;0.6631391;-0.7497045;3.642553;0.7381285;-0.4920287;3.295907;-0.1052203;0.5856867;4.512501;0.5683407;0.867611;4.375913;0.6631363;0.966674;3.471924;0.9813592;0.7071278;2.578471;0.802011;-0.05434141;2.449219;0.991684;0.1255561;1.339208;0.05553728;0;0;0;-0.05434141;2.449219;0.991684;0.1255561;1.339208;0.05553728;0;0;0
1312953.6127;NotLabelled;NONE;16384;-0.4778393;0.3393352;-0.7230633;-0.365651;-15;-29;12;-44;3362;2451;65536;0.7330652;-0.08725762;0.1606648;0.6551247;1;-28;-43;-4556;779;-1380;8192;0.5761772;-0.6432561;-0.4487534;-0.2299169;-7;-3;-48;1145;3918;139;32768;0.5595568;-0.6323181;-0.2396122;-0.4792244;7;-22;40;1214;3885;853;256;0.1468144;-0.1551246;-0.7646421;-0.6080332;39;-8;4;703;3954;455;128;-0.04293629;0.1481994;0.6495845;0.7444686;-39;-3;-10;-669;4049;866;4;-0.6163435;0.2229917;-0.367036;-0.6600606;-5;10;-2;2337;3290;312;16;0.700831;-0.7072167;-0.008310249;-0.09279778;0;5;7;817;3990;140;2;0.4626039;-0.6235195;-0.4833795;-0.4044321;0;20;-4;517;3862;-513;8;0.4806094;-0.8413042;0.1620499;0.1869806;1;-1;3;183;3607;1831;0.2812949;2.48977;1.002065;0.2872417;3.031704;0.939664;0.2924664;3.507832;0.882804;0.3324766;4.221201;0.7155724;0.09150827;4.54403;0.6039331;-0.256149;4.441138;0.6971359;-0.7281955;3.648564;0.7827383;-0.4716251;3.309038;-0.06383753;0.6110406;4.514979;0.6042914;0.8926253;4.3769;0.6979296;0.9909275;3.473296;1.017482;0.7334697;2.582229;0.8238292;-0.03096607;2.447114;0.9996652;0.1403578;1.337479;0.06146649;0;0;0;-0.03096607;2.447114;0.9996652;0.1403578;1.337479;0.06146649;0;0;0
1312974.7446;NotLabelled;NONE;16384;-0.4792244;0.33241;-0.72466;-0.367036;-20;-29;14;102;3470;2467;65536;0.7308742;-0.08171745;0.1565097;0.6592798;1;-18;-42;-4326;639;-1114;8192;0.5803324;-0.6403956;-0.4445983;-0.2354571;-6;4;-51;1247;3956;97;32768;0.5637119;-0.6280687;-0.2354571;-0.4819945;12;-14;41;1110;3975;873;256;0.1468144;-0.1592798;-0.760461;-0.6121883;41;-9;5;601;3968;389;128;-0.04155125;0.1495845;0.6440443;0.7490694;-35;-2;-9;-495;4077;732;4;-0.6163435;0.2229917;-0.368421;-0.6592885;-2;3;-2;2329;3332;150;16;0.700831;-0.7070159;-0.009695291;-0.09418282;2;9;6;161;4364;0;2;0.4626039;-0.622619;-0.4833795;-0.4058172;0;7;-5;235;3946;-613;8;0.4806094;-0.8410362;0.1634349;0.1869806;-1;-7;2;373;3587;1709;0.2874441;2.490334;1.005362;0.2933983;3.03294;0.9491073;0.2986298;3.509682;0.8976473;0.340713;4.225434;0.7414719;0.1006918;4.550638;0.634796;-0.247278;4.447312;0.7263374;-0.7260578;3.656696;0.7897718;-0.4646313;3.335975;-0.06263149;0.6201387;4.5201;0.6347941;0.9013079;4.379785;0.7263343;1.000181;3.466903;1.018131;0.7422202;2.578803;0.8119242;-0.02481639;2.447709;1.00244;0.146832;1.336562;0.06609078;0;0;0;-0.02481639;2.447709;1.00244;0.146832;1.336562;0.06609078;0;0;0
1312995.6256;NotLabelled;NONE;16384;-0.4819945;0.3254848;-0.7252634;-0.368421;-22;-28;20;362;3608;2401;65536;0.732636;-0.07617728;0.1509695;0.6592798;0;3;-38;-4370;483;-820;8192;0.5858725;-0.6344413;-0.4390582;-0.2479224;-1;17;-48;1005;3924;187;32768;0.5706371;-0.6179242;-0.2313019;-0.4889196;18;3;45;1040;4001;851;256;0.1454294;-0.1620499;-0.7556465;-0.6177285;40;-10;4;345;4024;283;128;-0.0401662;0.1509695;0.6398892;0.7524205;-32;-3;-9;-315;4041;828;4;-0.6149584;0.2229917;-0.368421;-0.6605806;-1;-14;1;2483;3410;58;16;0.700831;-0.706621;-0.01108033;-0.09695291;6;10;7;169;4266;312;2;0.4639889;-0.6217572;-0.4819945;-0.4072022;2;-5;-6;401;3916;-729;8;0.4806094;-0.8407659;0.1648199;0.1869806;-3;-15;1;725;3525;1673;0.2853075;2.492131;1.005064;0.2912702;3.035517;0.9569137;0.2965094;3.512973;0.9125748;0.3414422;4.230527;0.7657402;0.1027467;4.558002;0.6631134;-0.2456879;4.454824;0.7530392;-0.7294586;3.666538;0.8068924;-0.4611481;3.35778;-0.04778576;0.6220735;4.525485;0.6631116;0.9026323;4.382922;0.7530367;0.9998219;3.465156;1.029686;0.7470725;2.579153;0.8085451;-0.02695253;2.449554;1.001455;0.1461304;1.336566;0.06756102;0;0;0;-0.02695253;2.449554;1.001455;0.1461304;1.336566;0.06756102;0;0;0
1313016.8309;NotLabelled;NONE;16384;-0.4847645;0.3185596;-0.7257869;-0.3698061;-24;-27;24;404;3622;2525;65536;0.7352797;-0.0734072;0.1454294;0.6578947;-2;20;-37;-4542;527;-850;8192;0.5872576;-0.6328806;-0.4362881;-0.2534626;0;20;-44;917;3952;241;32768;0.5734072;-0.6125518;-0.2299169;-0.4930748;19;8;44;978;3945;881;256;0.1454294;-0.166205;-0.7478647;-0.6260388;32;-6;1;197;4066;387;128;-0.03878116;0.1551246;0.632964;0.7574886;-28;-5;-8;-543;3993;1034;4;-0.6135734;0.2229917;-0.3698061;-0.6610944;2;-25;0;2339;3306;-66;16;0.702216;-0.7050529;-0.01108033;-0.09833795;6;3;7;739;3870;316;2;0.4639889;-0.6229886;-0.4792244;-0.4085872;6;-16;-7;559;3822;-711;8;0.4792244;-0.8410088;0.16759;0.1869806;-3;-23;2;813;3519;1693;0.2829671;2.492266;1.006912;0.2889352;3.036157;0.9648602;0.2941796;3.514081;0.9258802;0.3412248;4.233721;0.7903503;0.103531;4.563418;0.6926328;-0.2452765;4.459803;0.7805891;-0.7336984;3.673717;0.8235174;-0.4614514;3.3793;-0.03496814;0.6227669;4.529477;0.6926312;0.9028425;4.384751;0.7805869;0.9966569;3.458793;1.029736;0.7557409;2.576275;0.7829401;-0.02929264;2.449732;1.002787;0.1477184;1.336254;0.07021346;0;0;0;-0.02929264;2.449732;1.002787;0.1477184;1.336254;0.07021346;0;0;0
1313037.6152;NotLabelled;NONE;16384;-0.4889196;0.3102493;-0.7265992;-0.3698061;-29;-26;31;246;3580;2621;65536;0.7377267;-0.06925207;0.1412742;0.6565097;-2;19;-41;-4474;569;-978;8192;0.5900277;-0.6284305;-0.434903;-0.2603878;0;17;-41;717;3958;293;32768;0.5761772;-0.6070877;-0.2285319;-0.4972299;20;9;44;1058;3913;861;256;0.1454294;-0.1689751;-0.7437428;-0.6301939;30;-5;0;219;4032;279;128;-0.03739612;0.1565097;0.6288089;0.760727;-28;-4;-6;-679;3963;924;4;-0.6066482;0.2229917;-0.3711911;-0.6666857;3;-18;-8;2545;2796;192;16;0.702216;-0.704699;-0.008310249;-0.101108;5;-10;10;653;3762;486;2;0.4653739;-0.6240792;-0.4764543;-0.4085872;8;-20;-7;765;3826;-629;8;0.4792244;-0.8398607;0.1717452;0.1883656;-3;-25;3;845;3505;1867;0.2769438;2.494224;1.011414;0.2829196;3.038799;0.979416;0.2881709;3.517361;0.9492705;0.3364586;4.239954;0.8309875;0.09942809;4.572186;0.7405127;-0.2497356;4.466964;0.8250842;-0.7431552;3.683885;0.8657496;-0.459992;3.400249;0.007165641;0.6186199;4.537581;0.7410446;0.898286;4.390446;0.8262614;0.9848741;3.465786;1.082742;0.751514;2.585334;0.8217162;-0.03531489;2.451774;1.006441;0.1466235;1.335966;0.07760821;0;0;0;-0.03531489;2.451774;1.006441;0.1466235;1.335966;0.07760821;0;0;0
1313057.6215;NotLabelled;NONE;16384;-0.4986149;0.2950138;-0.7256494;-0.3711911;-27;-19;44;220;3462;2463;65536;0.744283;-0.06232687;0.1288089;0.6523545;-10;42;-36;-4316;507;-46;8192;0.5927978;-0.6254073;-0.432133;-0.265928;0;11;-40;583;3914;305;32768;0.5789474;-0.6015292;-0.2271468;-0.501385;19;9;42;1090;3789;855;256;0.1454294;-0.1703601;-0.7410697;-0.632964;29;-4;0;457;4016;215;128;-0.03601108;0.1578947;0.6260388;0.7627895;-28;-1;-5;-867;3881;940;4;-0.6052631;0.2229917;-0.3725762;-0.6671718;-1;-9;-8;2613;3020;368;16;0.702216;-0.7047263;-0.005540166;-0.101108;7;-16;12;1059;3532;720;2;0.4653739;-0.6261843;-0.4736842;-0.4085872;10;-19;-8;1073;3896;-507;8;0.4778393;-0.839478;0.1759003;0.1897507;-3;-23;4;475;3455;1837;0.2760268;2.497058;1.011179;0.282006;3.041955;0.9852278;0.2872607;3.520823;0.9603959;0.3366399;4.244754;0.8510953;0.100105;4.57845;0.764805;-0.249205;4.472723;0.8481311;-0.750027;3.693471;0.8646719;-0.4629567;3.420855;0.003818929;0.6192429;4.543043;0.7648036;0.8986973;4.394429;0.8481292;0.987224;3.461723;1.072847;0.7606435;2.583516;0.7986213;-0.03623128;2.454667;1.005698;0.1551297;1.334626;0.08388028;0;0;0;-0.03623128;2.454667;1.005698;0.1551297;1.334626;0.08388028;0;0;0
1313078.8372;NotLabelled;NONE;16384;-0.5055401;0.2867036;-0.7241874;-0.3711911;-32;-18;49;230;3372;2619;65536;0.7503743;-0.06094183;0.1218837;0.6468144;-18;63;-42;-5178;605;-166;8192;0.5955678;-0.6238502;-0.4279778;-0.2700831;0;4;-39;579;3900;363;32768;0.5817174;-0.5953472;-0.2271468;-0.5055401;19;8;39;1114;3679;811;256;0.1440443;-0.1717452;-0.7374511;-0.6371191;28;-3;1;535;3896;159;128;-0.03462604;0.1592798;0.6218836;0.7659581;-27;5;-3;-829;3841;1018;4;-0.6052631;0.2229917;-0.3739612;-0.6663965;-6;-1;-10;2461;3084;264;16;0.7045466;-0.702216;-0.001385042;-0.1024931;8;-16;13;795;3620;278;2;0.466759;-0.6273765;-0.4695291;-0.4099723;7;-2;-12;1403;3758;-161;8;0.4750692;-0.8404647;0.1786704;0.1897507;-4;0;6;3;3205;2125;0.2804804;2.498642;1.011264;0.2864617;3.043717;0.9893918;0.2917183;3.522758;0.9681448;0.3414055;4.247525;0.8646804;0.1050324;4.581985;0.7809395;-0.2443596;4.475713;0.8632237;-0.7564518;3.703738;0.8512079;-0.45798;3.45655;-0.0134365;0.624158;4.546399;0.7809383;0.9035157;4.397025;0.8632223;0.9911602;3.461172;1.07482;0.7713487;2.585391;0.7876296;-0.0317772;2.456292;1.00544;0.1596799;1.333923;0.08647856;0;0;0;-0.0317772;2.456292;1.00544;0.1596799;1.333923;0.08647856;0;0;0
1313100.6012;NotLabelled;NONE;16384;-0.5124654;0.2783934;-0.7232702;-0.3698061;-36;-15;50;254;3250;2657;65536;0.7578975;-0.05955679;0.1121884;0.6398892;-20;56;-58;-5124;749;-792;8192;0.601108;-0.6195813;-0.4210526;-0.2783934;-2;-1;-42;693;3920;365;32768;0.5889196;-0.5844875;-0.2243767;-0.5110803;18;-1;34;1448;3817;787;256;0.1440443;-0.1745152;-0.734396;-0.6398892;28;0;2;643;3852;213;128;-0.03185596;0.1592798;0.6191136;0.7683187;-24;8;-2;-827;3897;892;4;-0.6052631;0.2243767;-0.3753462;-0.6651518;-10;7;-11;2447;3132;208;16;0.7059243;-0.700831;-0.001385042;-0.1024931;10;-5;8;37;4040;-428;2;0.466759;-0.6264692;-0.4695291;-0.4113573;3;9;-12;1405;3854;-333;8;0.4736842;-0.841539;0.1772853;0.1897507;-4;5;6;-59;3367;2181;0.288332;2.498965;1.023173;0.2943154;3.044248;1.007312;0.2995743;3.523493;0.9913482;0.3503961;4.249343;0.8963681;0.1145995;4.585075;0.8161703;-0.235056;4.478336;0.896712;-0.7538618;3.711074;0.8748713;-0.4477282;3.474976;0.009806514;0.6336759;4.548779;0.8165061;0.9127102;4.398076;0.8974555;0.9986504;3.461616;1.107051;0.7872791;2.587703;0.8080773;-0.02392492;2.456682;1.016845;0.1642798;1.332457;0.09948128;0;0;0;-0.02392492;2.456682;1.016845;0.1642798;1.332457;0.09948128;0;0;0
1313120.6177;NotLabelled;NONE;16384;-0.5193906;0.2714681;-0.7209591;-0.3698061;-32;-7;52;270;3114;2309;65536;0.7630649;-0.05540166;0.1024931;0.6357341;-17;43;-73;-5272;693;-1022;8192;0.6038781;-0.6168771;-0.4182825;-0.2825485;-5;0;-44;751;4036;311;32768;0.5928609;-0.5803324;-0.2216066;-0.5124654;18;-7;33;1454;3853;749;256;0.1412742;-0.1772853;-0.7281776;-0.6468144;26;2;2;627;4042;245;128;-0.02908587;0.1592798;0.6149584;0.7717578;-20;4;-3;-747;3959;1048;4;-0.6066482;0.2257618;-0.3767313;-0.6626335;-9;4;-7;2571;3196;60;16;0.7086596;-0.6980609;-0.002770083;-0.1024931;17;0;2;-763;4420;-314;2;0.4653739;-0.6255484;-0.4709141;-0.4127424;0;13;-12;1171;3988;-351;8;0.4736842;-0.841539;0.1772853;0.1897507;-4;0;5;459;3503;2189;0.2848189;2.502675;1.023857;0.2908036;3.048063;1.012162;0.2960638;3.527416;0.9998596;0.3484999;4.253981;0.9114478;0.1134509;4.590948;0.8342941;-0.2364415;4.484264;0.9138728;-0.7636811;3.723973;0.8658535;-0.4438147;3.502351;0.001928836;0.6324453;4.553495;0.8342927;0.9111435;4.401448;0.9138709;0.9959825;3.457846;1.089065;0.8011127;2.588223;0.7672433;-0.02743733;2.460442;1.017179;0.1613051;1.33243;0.1045874;0;0;0;-0.02743733;2.460442;1.017179;0.1613051;1.33243;0.1045874;0;0;0
1313141.9482;NotLabelled;NONE;16384;-0.5263157;0.265928;-0.7187071;-0.368421;-29;-4;54;216;3306;2161;65536;0.7682875;-0.04986149;0.09141274;0.6315789;-12;45;-84;-5374;607;-944;8192;0.6066482;-0.6150427;-0.4141274;-0.2867036;-6;3;-45;815;3926;295;32768;0.5962214;-0.5761772;-0.2202216;-0.5138504;18;-8;33;1390;3833;787;256;0.1398892;-0.1786704;-0.7256362;-0.6495845;25;1;1;581;3990;273;128;-0.02770083;0.1606648;0.6121883;0.7737215;-21;5;-3;-709;3831;1098;4;-0.6066482;0.2257618;-0.3781163;-0.6618441;-2;0;-6;2551;3148;-170;16;0.7102198;-0.6966759;-0.002770083;-0.101108;16;-10;2;539;3990;-56;2;0.4653739;-0.6235857;-0.4722992;-0.4141274;0;12;-11;957;4078;-453;8;0.4722992;-0.8423171;0.1772853;0.1897507;-4;-7;3;563;3347;2185;0.2816523;2.506144;1.029141;0.287638;3.051629;1.023521;0.2928993;3.531089;1.016558;0.3479722;4.259079;0.942673;0.1142022;4.598328;0.8718916;-0.2361749;4.491301;0.9488337;-0.7682698;3.735679;0.8837172;-0.4393124;3.532045;0.01877981;0.6330639;4.559079;0.8718903;0.9111164;4.404513;0.9488316;0.9966832;3.458865;1.112249;0.8078982;2.591645;0.7804708;-0.0306032;2.463988;1.021955;0.1536515;1.332688;0.1125215;0;0;0;-0.0306032;2.463988;1.021955;0.1536515;1.332688;0.1125215;0;0;0
1313161.632;NotLabelled;NONE;16384;-0.5401662;0.2506925;-0.713174;-0.3698061;-29;-22;63;324;3420;2443;65536;0.7805542;-0.03601108;0.06648199;0.6204986;-9;57;-94;-4688;329;-1112;8192;0.6122056;-0.6094183;-0.4113573;-0.2908587;-7;8;-46;835;3938;359;32768;0.5988396;-0.5720221;-0.2174515;-0.5166205;18;-7;33;1322;3809;789;256;0.1371191;-0.1786704;-0.7236773;-0.6523545;24;3;1;415;3950;187;128;-0.02631579;0.1606648;0.6094183;0.7759534;-20;4;-3;-533;3973;906;4;-0.6038781;0.2285319;-0.3781163;-0.6634248;5;-13;-10;2439;2880;-132;16;0.7133193;-0.6939058;0;-0.09833795;9;-15;7;321;4396;-314;2;0.466759;-0.622676;-0.4709141;-0.4155124;0;5;-11;641;3892;-509;8;0.4709141;-0.8427998;0.1786704;0.1897507;-3;-10;1;497;3435;2121;0.2805649;2.508175;1.031395;0.286551;3.053687;1.029801;0.2918127;3.533186;1.026377;0.3484827;4.261638;0.9584912;0.1154807;4.601953;0.8903464;-0.2351724;4.495047;0.9661921;-0.7726036;3.744725;0.8854805;-0.4340236;3.562676;0.0194445;0.6342574;4.561598;0.8903451;0.9119312;4.405813;0.9661901;0.9963497;3.45795;1.116869;0.8142226;2.592495;0.7768617;-0.03169003;2.466074;1.023873;0.1486741;1.332962;0.1159168;0;0;0;-0.03169003;2.466074;1.023873;0.1486741;1.332962;0.1159168;0;0;0
1313181.8182;NotLabelled;NONE;16384;-0.5470914;0.2409972;-0.7105128;-0.3711911;-33;-31;69;448;3514;2571;65536;0.7872509;-0.02908587;0.05401662;0.6135734;-10;58;-96;-4754;395;-1202;8192;0.614818;-0.6066482;-0.4085872;-0.2950138;-6;15;-46;747;4014;381;32768;0.6020902;-0.567867;-0.2160665;-0.5180055;17;-6;32;1294;3871;839;256;0.1357341;-0.1786704;-0.7214325;-0.6551247;23;3;2;209;4006;133;128;-0.02493075;0.1606648;0.6080332;0.7770848;-19;1;-4;-511;4051;1080;4;-0.601108;0.2285319;-0.3795014;-0.6651474;7;-15;-5;2845;3100;-154;16;0.7144721;-0.6925207;0;-0.09972299;9;7;12;-11;4508;-180;2;0.466759;-0.6229101;-0.468144;-0.4182825;4;-6;-11;799;4034;-595;8;0.4695291;-0.8429807;0.1814404;0.1897507;0;-13;1;681;3649;2155;0.2725218;2.512672;1.033508;0.2785077;3.058181;1.035891;0.2837695;3.537693;1.035962;0.3420401;4.266492;0.9733747;0.1098076;4.60779;0.9075602;-0.2411177;4.501092;0.982434;-0.786587;3.761128;0.8673501;-0.4314736;3.62964;-0.001213551;0.6284965;4.566323;0.9075587;0.9057919;4.409398;0.9824321;0.9978302;3.459768;1.116624;0.8183819;2.597725;0.7666705;-0.03973252;2.470627;1.025655;0.1440545;1.332701;0.1244311;0;0;0;-0.03973252;2.470627;1.025655;0.1440545;1.332701;0.1244311;0;0;0
1313203.6142;NotLabelled;NONE;16384;-0.5540166;0.2299169;-0.7073591;-0.3739612;-37;-37;74;484;3508;2823;65536;0.7936457;-0.02216066;0.0401662;0.6066482;-10;63;-102;-5422;171;-1318;8192;0.619832;-0.599723;-0.4030471;-0.3060942;-3;10;-46;363;4110;449;32768;0.6071587;-0.5609418;-0.2132964;-0.5207756;13;-8;27;1372;3869;939;256;0.134349;-0.1786704;-0.7191674;-0.6578947;24;1;1;203;4058;181;128;-0.02493075;0.1606648;0.6052631;0.7792444;-19;-1;-4;-601;3999;1228;4;-0.599723;0.2285319;-0.3781163;-0.6671833;8;-3;0;2991;3308;-152;16;0.7154206;-0.6911357;0;-0.1024931;11;23;14;301;4108;-42;2;0.468144;-0.6219777;-0.466759;-0.4196676;5;-9;-9;973;4172;-523;8;0.4695291;-0.8423684;0.1828255;0.1911357;0;-7;1;317;3529;2097;0.273584;2.514882;1.035821;0.2795699;3.060378;1.040253;0.2848316;3.539885;1.042125;0.3433371;4.269106;0.9848847;0.1112455;4.610932;0.9213564;-0.2397695;4.503783;0.9951578;-0.7900401;3.769923;0.8648434;-0.4263403;3.663676;-0.003621519;0.6299238;4.569333;0.9214902;0.9071168;4.411798;0.9954545;1.000175;3.461107;1.121172;0.826661;2.60107;0.7633796;-0.03866994;2.472866;1.027797;0.1440131;1.332191;0.1298294;0;0;0;-0.03866994;2.472866;1.027797;0.1440131;1.332191;0.1298294;0;0;0
1313223.6222;NotLabelled;NONE;16384;-0.5623268;0.2188366;-0.7035725;-0.3753462;-41;-41;81;700;3434;2977;65536;0.8006918;-0.01385042;0.02631579;0.5983379;-10;71;-107;-5448;-223;-1124;8192;0.6224279;-0.5969529;-0.398892;-0.3116343;-3;2;-46;287;4110;499;32768;0.6094844;-0.5581717;-0.2105263;-0.5221606;11;-9;26;1468;3873;949;256;0.134349;-0.1786704;-0.7166235;-0.6606648;23;0;2;237;4066;221;128;-0.0235457;0.1620499;0.602493;0.781145;-22;-1;-4;-655;3899;1246;4;-0.599723;0.2285319;-0.3767313;-0.6679664;6;12;2;2769;3222;100;16;0.7159406;-0.6897507;-0.001385042;-0.1080332;8;23;13;1091;3970;-258;2;0.4695291;-0.6219716;-0.4653739;-0.4196676;4;-8;-9;835;4118;-437;8;0.4695291;-0.8423684;0.1828255;0.1911357;0;0;1;179;3667;2095;0.2716569;2.512556;1.043413;0.2776422;3.058008;1.051672;0.2829037;3.537489;1.056909;0.3416173;4.267093;1.005007;0.1096352;4.609435;0.9438978;-0.2414317;4.501842;1.016802;-0.7951819;3.775294;0.8624755;-0.4212255;3.695739;-0.004487395;0.6283028;4.567699;0.9438968;0.9054304;4.409556;1.0168;0.9987537;3.455308;1.111553;0.8343176;2.599383;0.7398832;-0.04059646;2.470598;1.03507;0.1463802;1.331291;0.136249;0;0;0;-0.04059646;2.470598;1.03507;0.1463802;1.331291;0.136249;0;0;0
1313244.2104;NotLabelled;NONE;16384;-0.5706371;0.2049861;-0.7003053;-0.3767313;-42;-42;91;954;3442;3075;65536;0.8072879;-0.005540166;0.01108033;0.5900277;-19;71;-107;-4956;-281;-676;8192;0.624749;-0.5941828;-0.3961219;-0.3157895;-2;-2;-44;189;4232;531;32768;0.6112256;-0.5567867;-0.2091413;-0.5221606;7;-12;25;1610;3819;967;256;0.1315789;-0.1814404;-0.7112927;-0.666205;24;-1;2;383;4020;87;128;-0.02216066;0.1648199;0.5969529;0.7848507;-24;-2;-6;-721;3985;1320;4;-0.602493;0.2299169;-0.3753462;-0.6657744;3;16;0;2575;3190;216;16;0.7166302;-0.6883656;-0.002770083;-0.1121884;9;16;9;771;4012;-138;2;0.4695291;-0.6230055;-0.4639889;-0.4196676;2;-4;-8;759;4200;-359;8;0.4695291;-0.8423684;0.1828255;0.1911357;0;-3;0;397;3855;2131;0.2711894;2.509353;1.052961;0.2771739;3.05473;1.065209;0.2824348;3.53416;1.073953;0.3399895;4.264221;1.027464;0.1075037;4.606617;0.9686133;-0.2434618;4.497911;1.040345;-0.8014441;3.778894;0.8671455;-0.4161574;3.72799;0.0029926;0.6262397;4.565742;0.9688697;0.9035518;4.407528;1.040913;0.9952962;3.452389;1.127903;0.8337396;2.599371;0.7483691;-0.04106325;2.467457;1.044286;0.1505927;1.329992;0.1441205;0;0;0;-0.04106325;2.467457;1.044286;0.1505927;1.329992;0.1441205;0;0;0
1313265.6196;NotLabelled;NONE;16384;-0.5914127;0.1786704;-0.6886847;-0.3795014;-51;-26;107;1374;3798;3389;65536;0.8190364;0.002770083;-0.01939058;0.5734072;-46;73;-90;-3790;-609;-536;8192;0.62858;-0.5914127;-0.3919668;-0.3185596;-2;-6;-42;225;4176;605;32768;0.6127068;-0.5554016;-0.2049861;-0.5235457;0;-18;23;1702;3771;985;256;0.1315789;-0.1814404;-0.708688;-0.6689751;26;-2;4;429;4126;49;128;-0.02077562;0.166205;0.5927978;0.7877405;-24;-3;-7;-717;4053;1460;4;-0.6038781;0.232687;-0.3753462;-0.6635535;3;2;-6;2473;3278;410;16;0.7186244;-0.6855956;-0.001385042;-0.1163435;12;2;7;1039;4038;166;2;0.4709141;-0.6220548;-0.4626039;-0.4210526;2;-4;-7;551;4312;-419;8;0.4695291;-0.8423684;0.1828255;0.1911357;0;-7;0;421;3873;2191;0.2720855;2.507446;1.061032;0.2780675;3.052591;1.081102;0.2833266;3.531847;1.096722;0.344018;4.262331;1.062483;0.1130386;4.606648;1.00917;-0.2384485;4.498253;1.078788;-0.8030971;3.792259;0.8761272;-0.4050591;3.771343;0.01651955;0.6315961;4.563568;1.009169;0.9081707;4.402994;1.078786;1.000345;3.446382;1.147148;0.8409372;2.594497;0.7641772;-0.04016572;2.465679;1.051708;0.1525606;1.329034;0.1507348;0;0;0;-0.04016572;2.465679;1.051708;0.1525606;1.329034;0.1507348;0;0;0
1313285.6127;NotLabelled;NONE;16384;-0.6038781;0.1648199;-0.6820511;-0.3781163;-54;-15;114;1462;3788;3517;65536;0.8252407;0.002770083;-0.03462604;0.5637119;-62;73;-69;-3282;-829;-408;8192;0.6323363;-0.5886427;-0.3878116;-0.3213296;-5;-9;-40;229;4288;771;32768;0.6153312;-0.5540166;-0.200831;-0.5235457;-9;-35;23;2068;3871;1051;256;0.1301939;-0.1842105;-0.7056022;-0.6717451;28;-5;4;345;4222;13;128;-0.02077562;0.16759;0.5900277;0.7895247;-23;-5;-10;-643;4047;1508;4;-0.602493;0.232687;-0.3781163;-0.6632397;1;-5;-10;2379;3346;468;16;0.7197181;-0.6842105;-0.001385042;-0.1177285;13;0;6;777;4056;226;2;0.4722992;-0.6220332;-0.4612188;-0.4210526;0;-6;-5;609;4382;-551;8;0.4695291;-0.841751;0.1842105;0.1925208;0;-9;0;413;3753;2109;0.2754137;2.508664;1.070456;0.2813929;3.053563;1.096377;0.2866498;3.532623;1.117142;0.3461329;4.263442;1.088353;0.1146068;4.607756;1.037451;-0.2367392;4.498259;1.106047;-0.8091887;3.817768;0.8461194;-0.3769378;3.843085;0.003317475;0.6332361;4.565547;1.03745;0.9100384;4.404926;1.106046;1.004452;3.447692;1.161424;0.8439143;2.599426;0.7709659;-0.03683648;2.467;1.060648;0.1566691;1.326967;0.1641321;0;0;0;-0.03683648;2.467;1.060648;0.1566691;1.326967;0.1641321;0;0;0
1313305.7938;NotLabelled;NONE;16384;-0.6177285;0.1509695;-0.6743403;-0.3753462;-59;-1;123;1586;3790;3493;65536;0.8302478;0;-0.04709141;0.5554016;-80;64;-44;-2608;-725;-338;8192;0.6403357;-0.5831025;-0.3795014;-0.3254848;-15;-11;-38;107;4572;1025;32768;0.6218435;-0.5581717;-0.1828255;-0.5180055;-36;-79;25;2544;3815;1285;256;0.1288089;-0.1855956;-0.7015136;-0.6759003;32;-6;5;345;4246;-111;128;-0.01939058;0.1689751;0.5858725;0.792354;-25;-2;-10;-699;3985;1596;4;-0.601108;0.234072;-0.3795014;-0.663218;0;-13;-12;2389;3374;332;16;0.7208047;-0.6828254;-0.001385042;-0.1191136;15;-2;5;745;4000;118;2;0.4736842;-0.6220888;-0.4584487;-0.4224377;1;-7;-5;607;3974;-599;8;0.4695291;-0.8414466;0.1855956;0.1925208;-2;-10;-1;709;3541;1763;0.2779416;2.512023;1.072227;0.2839187;3.056726;1.101967;0.289174;3.53563;1.126088;0.3515642;4.266447;1.104285;0.1214596;4.612136;1.05634;-0.2304046;4.503381;1.123445;-0.8068011;3.838626;0.8332783;-0.3510936;3.879894;0.003564626;0.6399186;4.567886;1.056609;0.9159966;4.405536;1.124042;1.012204;3.448176;1.173853;0.8532205;2.602884;0.7763712;-0.03430775;2.470429;1.062103;0.1558911;1.326307;0.1700992;0;0;0;-0.03430775;2.470429;1.062103;0.1558911;1.326307;0.1700992;0;0;0
1313346.8078;NotLabelled;NONE;16384;-0.6495845;0.1274238;-0.6550676;-0.3642659;-72;33;132;1714;3640;3335;65536;0.8419082;-0.01939058;-0.07063711;0.534626;-108;106;-16;-4512;-163;-442;8192;0.6483992;-0.5761772;-0.3739612;-0.3282548;-27;-8;-33;55;4254;1261;32768;0.629568;-0.567867;-0.1509695;-0.5083103;-64;-116;40;3060;3855;1039;256;0.1260388;-0.1911357;-0.6910427;-0.6855956;36;-6;5;409;4128;-365;128;-0.01523546;0.1745152;0.5761772;0.7983308;-22;-1;-10;-903;3803;1448;4;-0.5941828;0.234072;-0.3850415;-0.6662583;1;-25;-18;2551;3298;222;16;0.7234201;-0.6800554;0;-0.1191136;18;-11;3;903;3894;-20;2;0.4750692;-0.6230671;-0.4556787;-0.4224377;2;-13;-5;711;3934;-743;8;0.468144;-0.8409735;0.1897507;0.1939058;0;-11;0;669;3435;1959;0.278215;2.515388;1.072974;0.2841883;3.059742;1.10853;0.2894404;3.538361;1.137764;0.3527377;4.269314;1.124929;0.1230827;4.615846;1.081095;-0.2289504;4.506712;1.146681;-0.8115305;3.86447;0.8204091;-0.3360403;3.913979;0.00232926;0.6414869;4.570958;1.081094;0.9173295;4.407455;1.14668;1.019463;3.449584;1.164794;0.8470231;2.61234;0.756048;-0.03403315;2.473905;1.06237;0.1555833;1.325626;0.1756003;0;0;0;-0.03403315;2.473905;1.06237;0.1555833;1.325626;0.1756003;0;0;0
1313367.6739;NotLabelled;NONE;16384;0.6857774;-0.1052632;0.632964;0.3434903;-85;54;133;1468;2928;2987;65536;0.8604687;-0.04293629;-0.09556787;0.4986149;-106;123;-20;-3486;343;-2294;8192;0.6548582;-0.5706371;-0.3711911;-0.3282548;-33;-16;-38;-185;4272;1157;32768;0.6347179;-0.5734072;-0.1301939;-0.501385;-71;-138;45;3006;3837;749;256;0.1232687;-0.1952908;-0.6800554;-0.6958383;32;-6;6;689;3912;-389;128;-0.01385042;0.1759003;0.5734072;0.8000447;-23;-1;-11;-981;3691;1452;4;-0.5886427;0.2354571;-0.3891967;-0.6682707;2;-15;-17;2731;2964;-176;16;0.7277402;-0.6759003;0.004155125;-0.1163435;18;-9;2;637;3976;-320;2;0.4750692;-0.6250836;-0.4529086;-0.4224377;4;-12;-5;775;3888;-705;8;0.468144;-0.8403391;0.1911357;0.1952908;0;-11;-1;629;3403;1981;0.2727635;2.523511;1.072548;0.2787253;3.066801;1.121766;0.2839676;3.544534;1.163014;0.3509699;4.275203;1.172839;0.1232599;4.624087;1.138551;-0.2296256;4.514808;1.199123;-0.8127493;3.90897;0.8102074;-0.2814906;3.949541;0.02667996;0.6414278;4.57656;1.1396;0.9161321;4.409717;1.201443;1.028539;3.453095;1.224162;0.8280128;2.630156;0.799488;-0.03948155;2.482308;1.060819;0.1514123;1.324595;0.1866797;0;0;0;-0.03948155;2.482308;1.060819;0.1514123;1.324595;0.1866797;0;0;0
1313387.6222;NotLabelled;NONE;16384;0.7013605;-0.09556787;0.6232687;0.33241;-82;55;131;1376;2774;2661;65536;0.8672097;-0.05401662;-0.1066482;0.4833795;-100;97;-27;-4182;145;-1562;8192;0.6626509;-0.5650969;-0.367036;-0.3268698;-38;-33;-44;-471;4210;955;32768;0.6405649;-0.5789474;-0.1066482;-0.4930748;-72;-150;50;2782;3677;617;256;0.1218837;-0.1980609;-0.6772853;-0.6979977;34;-4;7;667;3930;-425;128;-0.01108033;0.1772853;0.5706371;0.8017609;-23;2;-11;-993;3639;1462;4;-0.5858725;0.2354571;-0.3905817;-0.669895;4;-11;-16;2799;3100;-84;16;0.7305133;-0.6731302;0.005540166;-0.1149584;18;-7;2;739;4104;-364;2;0.4750692;-0.6260847;-0.4515235;-0.4224377;2;-7;-6;845;3930;-571;8;0.466759;-0.8407933;0.1925208;0.1952908;0;-13;-1;549;3397;2057;0.267454;2.530877;1.07557;0.2734116;3.073799;1.128682;0.2786506;3.551225;1.173355;0.3475884;4.281035;1.206313;0.1208644;4.631445;1.18271;-0.2324052;4.52127;1.239289;-0.8192143;3.980782;0.7682722;-0.2334468;4.00101;0.02378239;0.6389012;4.582501;1.183019;0.9130626;4.413044;1.239973;1.037031;3.457608;1.23299;0.8179208;2.644183;0.7992635;-0.04479015;2.489759;1.063522;0.1458976;1.323062;0.2013648;0;0;0;-0.04479015;2.489759;1.063522;0.1458976;1.323062;0.2013648;0;0;0
1313409.7594;NotLabelled;NONE;16384;0.7171881;-0.08725762;0.6121883;0.3213296;-80;44;127;1052;2790;2717;65536;0.8738174;-0.06371191;-0.1204986;0.466759;-102;111;-29;-4316;115;-1672;8192;0.6808969;-0.5554016;-0.3518005;-0.3227147;-44;-47;-55;-527;3960;697;32768;0.651354;-0.5886427;-0.05955679;-0.4750692;-66;-147;59;2688;3613;451;256;0.1191136;-0.200831;-0.6731302;-0.7016941;35;-3;6;639;3918;-457;128;-0.009695291;0.1786704;0.567867;0.8034363;-20;4;-11;-945;3735;1468;4;-0.5844875;0.2368421;-0.3905817;-0.6706162;2;2;-13;2681;3264;0;16;0.7319915;-0.6717451;0.006925208;-0.1135734;16;-16;1;997;4158;-516;2;0.4764543;-0.6250314;-0.4515235;-0.4224377;0;2;-6;971;3930;-597;8;0.466759;-0.8395054;0.1952908;0.1980609;0;-16;-2;641;3333;1913;0.2600114;2.532628;1.08084;0.2659647;3.075144;1.137962;0.2711998;3.552227;1.18616;0.3431129;4.281454;1.225135;0.117828;4.632969;1.204376;-0.235901;4.523777;1.259983;-0.8248273;4.015175;0.7571714;-0.2149596;4.024035;0.03206491;0.6356604;4.581906;1.204375;0.9091147;4.410866;1.259982;1.045819;3.457554;1.232;0.8060356;2.655101;0.7888746;-0.05223164;2.4916;1.068463;0.1404866;1.322247;0.2103654;0;0;0;-0.05223164;2.4916;1.068463;0.1404866;1.322247;0.2103654;0;0;0
1313432.4836;NotLabelled;NONE;16384;0.7319496;-0.07617728;0.601108;0.3116343;-86;23;124;1060;2698;3105;65536;0.8799473;-0.0734072;-0.132964;0.4501385;-103;122;-27;-4394;249;-1426;8192;0.6895365;-0.5498615;-0.3448753;-0.3213296;-44;-40;-61;-467;4060;499;32768;0.6565594;-0.5914127;-0.03601108;-0.466759;-57;-140;62;2644;3597;419;256;0.1177285;-0.2022161;-0.6689751;-0.7054935;36;0;8;503;3914;-501;128;-0.006925208;0.1800554;0.5650969;0.8051072;-19;6;-11;-837;3749;1504;4;-0.5844875;0.2396122;-0.3919668;-0.6688217;3;10;-12;2511;3246;-140;16;0.7347224;-0.6689751;0.008310249;-0.1121884;16;-14;2;703;4144;-434;2;0.4750692;-0.625148;-0.4515235;-0.4238227;0;4;-7;801;3786;-609;8;0.4653739;-0.8392975;0.1980609;0.199446;0;-17;-2;651;3397;1905;0.2531889;2.534324;1.081629;0.2591375;3.076418;1.142625;0.2643687;3.553144;1.19423;0.3399397;4.281445;1.24249;0.1164732;4.63434;1.225886;-0.237879;4.526262;1.279671;-0.8228717;4.045283;0.7460308;-0.1880406;4.046303;0.04262075;0.6340387;4.580639;1.225885;0.9065465;4.407518;1.279669;1.065153;3.459336;1.215884;0.7826115;2.679109;0.7584962;-0.05905324;2.493386;1.068935;0.1379169;1.321794;0.2148665;0;0;0;-0.05905324;2.493386;1.068935;0.1379169;1.321794;0.2148665;0;0;0
1313453.7088;NotLabelled;NONE;16384;0.7445407;-0.06232687;0.5914127;0.3033241;-89;14;123;1368;2574;3219;65536;0.8867923;-0.08310249;-0.1454294;0.4307479;-106;125;-35;-4566;241;-1786;8192;0.6979868;-0.5443213;-0.3365651;-0.3213296;-43;-30;-63;-351;4092;377;32768;0.6622629;-0.5914127;-0.01385042;-0.4598338;-48;-128;64;2644;3515;347;256;0.1163435;-0.2049861;-0.66482;-0.7088436;34;0;8;465;3940;-523;128;-0.004155125;0.1800554;0.5637119;0.8060966;-17;7;-11;-827;3761;1560;4;-0.5844875;0.2409972;-0.3919668;-0.6683239;2;9;-11;2355;3240;-72;16;0.736174;-0.66759;0.009695291;-0.1108033;16;-9;3;527;3908;-366;2;0.4764543;-0.6231502;-0.4515235;-0.4252077;1;2;-9;675;3834;-457;8;0.4653739;-0.838639;0.199446;0.200831;1;-18;-2;627;3401;2039;0.2489449;2.538695;1.083461;0.2548882;3.080325;1.148441;0.2601152;3.556659;1.20355;0.3365238;4.284243;1.260529;0.1135134;4.637589;1.247832;-0.2410385;4.529323;1.299897;-0.8221042;4.078369;0.736575;-0.1650409;4.069318;0.05394602;0.6310117;4.583245;1.247832;0.9032388;4.40916;1.299897;1.072665;3.464248;1.217964;0.7700266;2.696532;0.7523386;-0.06329617;2.497851;1.070441;0.1328285;1.32086;0.2236305;0;0;0;-0.06329617;2.497851;1.070441;0.1328285;1.32086;0.2236305;0;0;0
1313473.6232;NotLabelled;NONE;16384;0.7697754;-0.03462604;0.5692521;0.2867036;-92;22;126;1748;1960;3309;65536;0.9008979;-0.09833795;-0.1745152;0.3850415;-93;180;-39;-4206;469;-2556;8192;0.7055492;-0.5387812;-0.3296399;-0.3213296;-39;-20;-65;-523;4040;361;32768;0.6671388;-0.5914127;0.005540166;-0.4529086;-38;-114;65;2514;3391;367;256;0.1121884;-0.2077562;-0.6565097;-0.716412;31;0;7;505;3976;-581;128;0;0.1814404;0.5595568;0.8086876;-13;7;-10;-707;3719;1558;4;-0.5844875;0.2423823;-0.3919668;-0.6678228;0;6;-9;2193;3210;-12;16;0.7386765;-0.66482;0.009695291;-0.1108033;16;-4;3;547;3996;-364;2;0.4764543;-0.6222029;-0.4515235;-0.4265928;1;5;-8;737;3966;-517;8;0.4653739;-0.8376422;0.2022161;0.2022161;3;-19;-1;561;3467;2077;0.2418482;2.539929;1.084954;0.2477888;3.081307;1.152001;0.2530134;3.557427;1.208927;0.3316441;4.284039;1.274614;0.1097808;4.638223;1.265732;-0.2451991;4.530487;1.315944;-0.8194826;4.109302;0.7233815;-0.1394739;4.088293;0.0638791;0.6271033;4.582227;1.265923;0.8986883;4.406668;1.316367;1.077015;3.464951;1.218166;0.7592828;2.710623;0.7408572;-0.07039237;2.499135;1.071765;0.1297679;1.320347;0.2284068;0;0;0;-0.07039237;2.499135;1.071765;0.1297679;1.320347;0.2284068;0;0;0
1313494.707;NotLabelled;NONE;16384;0.7818053;-0.02216066;0.5581717;0.2770083;-90;30;129;1826;2062;3367;65536;0.9088649;-0.1038781;-0.1883656;0.3573407;-82;188;-35;-3204;721;-3248;8192;0.7116661;-0.533241;-0.3227147;-0.3240997;-33;-10;-66;-557;3894;421;32768;0.6707706;-0.5900277;0.0235457;-0.4487534;-29;-97;64;2376;3287;239;256;0.1108033;-0.2091413;-0.6537396;-0.7187539;33;-3;7;469;4138;-691;128;0.001385042;0.1828255;0.5581717;0.8093313;-10;6;-10;-645;3811;1568;4;-0.5831025;0.2437673;-0.3947368;-0.6668972;-2;-6;-6;2325;3274;-14;16;0.7423952;-0.6606648;0.009695291;-0.1108033;14;-8;1;939;3976;-350;2;0.4764543;-0.6222029;-0.4515235;-0.4265928;1;4;-7;687;4090;-399;8;0.4653739;-0.8366328;0.2049861;0.2036011;5;-23;-1;365;3581;2155;0.2348112;2.540566;1.091123;0.2407435;3.081182;1.164063;0.2459611;3.556654;1.226172;0.3275541;4.28112;1.309573;0.10728;4.636402;1.308468;-0.2483405;4.529079;1.354889;-0.8113618;4.169706;0.7128718;-0.0898614;4.129089;0.1000227;0.6243476;4.578104;1.30904;0.894984;4.400172;1.356156;1.08139;3.461401;1.245535;0.7492397;2.718431;0.760293;-0.07742772;2.499919;1.077453;0.1244848;1.319336;0.2370272;0;0;0;-0.07742772;2.499919;1.077453;0.1244848;1.319336;0.2370272;0;0;0
1313515.6;NotLabelled;NONE;16384;0.794618;-0.008310249;0.5457063;0.265928;-92;29;132;1736;2218;3517;65536;0.9156518;-0.1080332;-0.200831;0.3310249;-72;170;-33;-2812;711;-3526;8192;0.7169781;-0.5277008;-0.3157895;-0.3282548;-27;1;-66;-621;3884;489;32768;0.6752458;-0.5872576;0.03878116;-0.4445983;-21;-84;60;2316;3225;199;256;0.1080332;-0.2105263;-0.6495845;-0.7225286;33;-3;6;425;4090;-765;128;0.002770083;0.1828255;0.5567867;0.8102813;-9;3;-10;-779;3821;1736;4;-0.5831025;0.2437673;-0.3961219;-0.6660754;-4;-6;-3;2463;3332;36;16;0.7437893;-0.6592798;0.01246537;-0.1094183;12;-30;0;1201;4100;-536;2;0.4764543;-0.621251;-0.4515235;-0.4279778;0;1;-6;637;4188;-281;8;0.4653739;-0.8359538;0.2063712;0.2049861;4;-24;-2;257;3601;2179;0.2322759;2.544591;1.097087;0.2382053;3.084933;1.172034;0.2434201;3.56017;1.235908;0.3265763;4.283772;1.325057;0.107061;4.639523;1.326826;-0.2487789;4.532592;1.372467;-0.8049317;4.213418;0.7037734;-0.06647943;4.161992;0.1123003;0.6240032;4.580119;1.326826;0.894268;4.401239;1.372466;1.08509;3.46749;1.231132;0.7384233;2.737478;0.7364703;-0.0799624;2.503994;1.083253;0.1169053;1.317687;0.2497208;0;0;0;-0.0799624;2.503994;1.083253;0.1169053;1.317687;0.2497208;0;0;0
1313536.8375;NotLabelled;NONE;16384;0.8066533;0.004155125;0.533241;0.2548476;-95;24;133;1578;2048;3653;65536;0.9214785;-0.1108033;-0.2119114;0.3060942;-62;153;-26;-2608;971;-3828;8192;0.7262083;-0.5152354;-0.3033241;-0.3393352;-21;4;-67;-981;4016;685;32768;0.6827609;-0.5817174;0.06232687;-0.4376731;-5;-70;45;2184;3091;89;256;0.1066482;-0.2119114;-0.6454294;-0.7260445;27;-1;6;505;3936;-865;128;0.002770083;0.1842105;0.5554016;0.8109179;-7;1;-9;-805;3791;1708;4;-0.5817174;0.2423823;-0.3975069;-0.6669662;-7;-5;-1;2339;3340;-6;16;0.7453647;-0.6578947;0.01523546;-0.1066482;10;-37;0;899;4024;-568;2;0.4778393;-0.6192282;-0.4515235;-0.4293629;-1;2;-5;479;4144;-273;8;0.4653739;-0.8338859;0.2105263;0.2091413;3;-15;-2;391;3749;2271;0.2371669;2.545218;1.101204;0.2430932;3.085289;1.178079;0.2483055;3.560297;1.243649;0.3336401;4.282484;1.341763;0.1152744;4.638898;1.347478;-0.2409923;4.53258;1.391177;-0.7880224;4.248394;0.6995659;-0.03552388;4.186847;0.1270667;0.6320208;4.577816;1.347676;0.9016217;4.397514;1.391614;1.094911;3.467137;1.232511;0.7386005;2.748314;0.7284045;-0.07507098;2.504672;1.087214;0.1173196;1.316614;0.2551312;0;0;0;-0.07507098;2.504672;1.087214;0.1173196;1.316614;0.2551312;0;0;0
1313557.8508;NotLabelled;NONE;16384;0.8175383;0.01800554;0.5207756;0.2451524;-96;14;131;1458;1804;3851;65536;0.9259446;-0.1135734;-0.2216066;0.2839335;-51;142;-22;-3050;959;-3596;8192;0.730445;-0.5096953;-0.2977839;-0.3434903;-18;0;-67;-1117;3850;835;32768;0.6866539;-0.5789474;0.0734072;-0.433518;0;-68;37;2196;3115;21;256;0.1052632;-0.2132964;-0.6426592;-0.7282948;27;-3;4;485;4076;-1035;128;0.004155125;0.1855956;0.5554016;0.8105961;-5;1;-9;-943;3705;1806;4;-0.5817174;0.2409972;-0.398892;-0.6666411;-8;-9;0;2369;3244;-60;16;0.7471051;-0.6565097;0.01800554;-0.1024931;8;-31;-2;735;3904;-694;2;0.4792244;-0.618157;-0.4515235;-0.4293629;-3;0;-2;523;4260;-265;8;0.4639889;-0.8339584;0.2119114;0.2105263;2;-11;-1;447;3671;2309;0.2377461;2.544873;1.105805;0.2436694;3.084671;1.184578;0.2488792;3.559443;1.251819;0.335049;4.280345;1.358308;0.1171381;4.636954;1.367905;-0.2393087;4.530605;1.410032;-0.7739933;4.28442;0.6946055;-0.009406388;4.213781;0.1394353;0.6338047;4.5752;1.367905;0.903129;4.394054;1.410031;1.101163;3.473626;1.205409;0.7319139;2.772625;0.6857557;-0.07449126;2.504376;1.09166;0.1153213;1.315928;0.2595412;0;0;0;-0.07449126;2.504376;1.09166;0.1153213;1.315928;0.2595412;0;0;0
1313578.7132;NotLabelled;NONE;16384;0.8277475;0.03185596;0.5083103;0.2354571;-98;7;127;1324;1566;3815;65536;0.9304377;-0.1135734;-0.2299169;0.2617728;-38;151;-24;-4008;1411;-4376;8192;0.7349901;-0.5041551;-0.2894737;-0.3490305;-15;-7;-68;-1159;3778;863;32768;0.6926551;-0.5747922;0.08171745;-0.4279778;4;-71;28;2206;3151;113;256;0.101108;-0.2160665;-0.634349;-0.7353188;33;-1;9;585;4032;-1055;128;0.006925208;0.1883656;0.5526316;0.8118305;-8;0;-9;-975;3687;1916;4;-0.5803324;0.2396122;-0.400277;-0.6675168;-10;-15;2;2427;3260;-74;16;0.7486224;-0.6551247;0.02077562;-0.09972299;6;-23;-2;757;4126;-720;2;0.4806094;-0.6180421;-0.4515235;-0.4279778;-3;-6;0;579;4318;-281;8;0.4653739;-0.8331863;0.2119114;0.2105263;4;-6;-1;419;3607;2093;0.2381545;2.544537;1.110214;0.2440775;3.084308;1.189168;0.249287;3.559059;1.256568;0.3369045;4.278913;1.368797;0.1197535;4.635907;1.380982;-0.2369635;4.530003;1.421924;-0.7580509;4.319871;0.6852816;0.01686879;4.239752;0.1459517;0.6362854;4.573038;1.381;0.9051766;4.390985;1.421966;1.106214;3.475271;1.199868;0.7316952;2.782194;0.6734014;-0.07408273;2.504045;1.096054;0.1111359;1.315631;0.2628528;0;0;0;-0.07408273;2.504045;1.096054;0.1111359;1.315631;0.2628528;0;0;0
