SEP=;
index;label;segment;RightUpperArm_boneIndex;RightUpperArm_quat9x_w;RightUpperArm_quat9x_x;RightUpperArm_quat9x_y;RightUpperArm_quat9x_z;RightUpperArm_gyroscope_x;RightUpperArm_gyroscope_y;RightUpperArm_gyroscope_z;RightUpperArm_accelerometer_x;RightUpperArm_accelerometer_y;RightUpperArm_accelerometer_z;RightLowerArm_boneIndex;RightLowerArm_quat9x_w;RightLowerArm_quat9x_x;RightLowerArm_quat9x_y;RightLowerArm_quat9x_z;RightLowerArm_gyroscope_x;RightLowerArm_gyroscope_y;RightLowerArm_gyroscope_z;RightLowerArm_accelerometer_x;RightLowerArm_accelerometer_y;RightLowerArm_accelerometer_z;LeftUpperArm_boneIndex;LeftUpperArm_quat9x_w;LeftUpperArm_quat9x_x;LeftUpperArm_quat9x_y;LeftUpperArm_quat9x_z;LeftUpperArm_gyroscope_x;LeftUpperArm_gyroscope_y;LeftUpperArm_gyroscope_z;LeftUpperArm_accelerometer_x;LeftUpperArm_accelerometer_y;LeftUpperArm_accelerometer_z;LeftLowerArm_boneIndex;LeftLowerArm_quat9x_w;LeftLowerArm_quat9x_x;LeftLowerArm_quat9x_y;LeftLowerArm_quat9x_z;LeftLowerArm_gyroscope_x;LeftLowerArm_gyroscope_y;LeftLowerArm_gyroscope_z;LeftLowerArm_accelerometer_x;LeftLowerArm_accelerometer_y;LeftLowerArm_accelerometer_z;Chest_boneIndex;Chest_quat9x_w;Chest_quat9x_x;Chest_quat9x_y;Chest_quat9x_z;Chest_gyroscope_x;Chest_gyroscope_y;Chest_gyroscope_z;Chest_accelerometer_x;Chest_accelerometer_y;Chest_accelerometer_z;Spine_boneIndex;Spine_quat9x_w;Spine_quat9x_x;Spine_quat9x_y;Spine_quat9x_z;Spine_gyroscope_x;Spine_gyroscope_y;Spine_gyroscope_z;Spine_accelerometer_x;Spine_accelerometer_y;Spine_accelerometer_z;RightUpperLeg_boneIndex;RightUpperLeg_quat9x_w;RightUpperLeg_quat9x_x;RightUpperLeg_quat9x_y;RightUpperLeg_quat9x_z;RightUpperLeg_gyroscope_x;RightUpperLeg_gyroscope_y;RightUpperLeg_gyroscope_z;RightUpperLeg_accelerometer_x;RightUpperLeg_accelerometer_y;RightUpperLeg_accelerometer_z;RightLowerLeg_boneIndex;RightLowerLeg_quat9x_w;RightLowerLeg_quat9x_x;RightLowerLeg_quat9x_y;RightLowerLeg_quat9x_z;RightLowerLeg_gyroscope_x;RightLowerLeg_gyroscope_y;RightLowerLeg_gyroscope_z;RightLowerLeg_accelerometer_x;RightLowerLeg_accelerometer_y;RightLowerLeg_accelerometer_z;LeftUpperLeg_boneIndex;LeftUpperLeg_quat9x_w;LeftUpperLeg_quat9x_x;LeftUpperLeg_quat9x_y;LeftUpperLeg_quat9x_z;LeftUpperLeg_gyroscope_x;LeftUpperLeg_gyroscope_y;LeftUpperLeg_gyroscope_z;LeftUpperLeg_accelerometer_x;LeftUpperLeg_accelerometer_y;LeftUpperLeg_accelerometer_z;LeftLowerLeg_boneIndex;LeftLowerLeg_quat9x_w;LeftLowerLeg_quat9x_x;LeftLowerLeg_quat9x_y;LeftLowerLeg_quat9x_z;LeftLowerLeg_gyroscope_x;LeftLowerLeg_gyroscope_y;LeftLowerLeg_gyroscope_z;LeftLowerLeg_accelerometer_x;LeftLowerLeg_accelerometer_y;LeftLowerLeg_accelerometer_z;pelvis_x;pelvis_y;pelvis_z;lowerSpine_x;lowerSpine_y;lowerSpine_z;middleSpine_x;middleSpine_y;middleSpine_z;upperSpine_x;upperSpine_y;upperSpine_z;rightClavicle_x;rightClavicle_y;rightClavicle_z;rightShoulder_x;rightShoulder_y;rightShoulder_z;rightElbow_x;rightElbow_y;rightElbow_z;rightWrist_x;rightWrist_y;rightWrist_z;leftClavicle_x;leftClavicle_y;leftClavicle_z;leftShoulder_x;leftShoulder_y;leftShoulder_z;leftElbow_x;leftElbow_y;leftElbow_z;leftWrist_x;leftWrist_y;leftWrist_z;rightHip_x;rightHip_y;rightHip_z;rightKnee_x;rightKnee_y;rightKnee_z;rightAnkle_x;rightAnkle_y;rightAnkle_z;leftHip_x;leftHip_y;leftHip_z;leftKnee_x;leftKnee_y;leftKnee_z;leftAnkle_x;leftAnkle_y;leftAnkle_z;
1072039.6189;NotLabelled;NONE;16384;0.8024246;0.4307479;0.3601108;0.2022161;13;-17;24;2716;-2180;2177;65536;-0.6218836;-0.3102493;0.6875207;0.2105263;16;0;-26;2641;-488;-3019;8192;0.567867;-0.6811067;-0.4279778;-0.1745152;16;20;-18;1612;3879;319;32768;0.4598338;-0.7183601;-0.1246537;-0.5069252;9;10;20;1088;3562;1935;256;0.299169;-0.3808864;-0.5609418;-0.6713924;4;13;-8;-67;3904;-887;128;-0.01246537;0.16759;0.533241;0.8291033;-10;18;11;-457;3645;1832;4;-0.5817174;0.1745152;-0.4238227;-0.671955;-6;2;5;2889;3060;84;16;0.7374368;-0.666205;0.0567867;-0.09556787;-2;-10;0;855;3876;-456;2;0.4806094;-0.6618948;-0.433518;-0.3781163;0;5;2;817;3870;-625;8;0.433518;-0.8341251;0.232687;0.2493075;4;0;1;687;3409;2083;-0.1812485;2.482193;1.095868;-0.1753749;3.017453;1.201146;-0.1702077;3.488337;1.291701;-0.1513821;4.208511;1.431188;-0.4014321;4.542606;1.455744;-0.7465319;4.401907;1.491081;-0.829566;4.905148;0.7176579;-0.4410522;4.997465;1.57692;0.1187342;4.529013;1.455743;0.4036446;4.371846;1.491081;0.2889698;3.485512;1.850991;-0.0754481;2.740994;1.391991;-0.4934774;2.442446;1.079576;0.02819922;1.308162;0.3166124;0;0;0;-0.4934774;2.442446;1.079576;0.02819922;1.308162;0.3166124;0;0;0
1072060.7463;NotLabelled;NONE;16384;0.8045387;0.4307479;0.3545706;0.2036011;15;-16;26;2654;-2208;2127;65536;-0.6177285;-0.3116343;0.6906332;0.2105263;16;1;-27;2843;-396;-2961;8192;0.567867;-0.6800286;-0.4279778;-0.1786704;15;21;-18;1434;3801;403;32768;0.4612188;-0.7155064;-0.1246537;-0.5096953;11;7;20;1090;3600;1873;256;0.299169;-0.3795014;-0.5609418;-0.6721762;2;9;-8;-3;3958;-751;128;-0.01246537;0.1648199;0.5318559;0.830547;-6;17;10;-441;3793;1738;4;-0.5844875;0.1731302;-0.4224377;-0.6707807;-3;8;6;2811;3140;-18;16;0.7374368;-0.666205;0.0567867;-0.09556787;-2;8;2;583;4020;-454;2;0.4806094;-0.6618948;-0.433518;-0.3781163;0;0;0;569;3984;-719;8;0.434903;-0.8334038;0.232687;0.2493075;2;0;1;665;3597;1981;-0.1756689;2.478364;1.10387;-0.1697953;3.013633;1.2091;-0.1646281;3.484525;1.299613;-0.1461972;4.204473;1.440317;-0.3964286;4.538392;1.465427;-0.7414541;4.397445;1.500512;-0.8244808;4.902598;0.7283351;-0.4391357;4.993911;1.58913;0.1237448;4.525078;1.465425;0.4087386;4.368006;1.50051;0.2933449;3.479158;1.853934;-0.06620318;2.733442;1.393043;-0.4878981;2.438615;1.087581;0.03010735;1.308148;0.3164964;0;0;0;-0.4878981;2.438615;1.087581;0.03010735;1.308148;0.3164964;0;0;0
1072080.8265;NotLabelled;NONE;16384;0.8060061;0.4307479;0.3504155;0.2049861;14;-15;26;2512;-2190;2179;65536;-0.6149584;-0.3116343;0.6931009;0.2105263;16;1;-25;2913;-162;-2979;8192;0.567867;-0.6785488;-0.4279778;-0.1842105;11;16;-19;1290;3793;443;32768;0.4626039;-0.7133784;-0.1260388;-0.5110803;10;3;17;970;3564;1821;256;0.299169;-0.3781163;-0.5595568;-0.6741084;0;5;-7;-13;4116;-833;128;-0.01108033;0.1620499;0.5318559;0.8311115;-1;13;10;-513;3723;1712;4;-0.5858725;0.1731302;-0.4224377;-0.6695713;1;4;5;2711;3014;42;16;0.7375421;-0.666205;0.05540166;-0.09556787;-2;9;1;825;4026;-642;2;0.4806094;-0.6618948;-0.433518;-0.3781163;0;0;-1;689;4028;-695;8;0.434903;-0.8338169;0.232687;0.2479224;1;2;1;743;3475;1941;-0.1747538;2.473184;1.111486;-0.1688836;3.00813;1.21835;-0.1637194;3.478743;1.3103;-0.1467457;4.198729;1.450998;-0.3976521;4.53214;1.476104;-0.7423916;4.390497;1.51119;-0.814642;4.898434;0.7397571;-0.4360911;4.987684;1.603777;0.1225472;4.51988;1.476103;0.407858;4.363385;1.51119;0.29146;3.472315;1.858639;-0.06302524;2.726553;1.393916;-0.4869822;2.433486;1.095066;0.03088442;1.308148;0.3164216;0;0;0;-0.4869822;2.433486;1.095066;0.03088442;1.308148;0.3164216;0;0;0
1072101.6068;NotLabelled;NONE;16384;0.8080397;0.4307479;0.3448753;0.2063712;13;-16;25;2392;-2312;2217;65536;-0.6108033;-0.3130194;0.6961443;0.2105263;17;2;-22;2929;-118;-2959;8192;0.567867;-0.6774071;-0.4279778;-0.1883656;8;12;-20;1290;3851;501;32768;0.4653739;-0.7105777;-0.1260388;-0.5124654;10;2;16;994;3640;1745;256;0.300554;-0.3767313;-0.5595568;-0.6742678;0;2;-7;-15;4144;-901;128;-0.009695291;0.1592798;0.5318559;0.8316641;0;11;9;-597;3693;1748;4;-0.5872576;0.1731302;-0.4210526;-0.6692302;1;2;4;2631;3004;244;16;0.7373613;-0.666205;0.05540166;-0.09695291;-3;4;2;897;4028;-346;2;0.4806094;-0.6611017;-0.433518;-0.3795014;0;4;0;801;3902;-811;8;0.434903;-0.8338169;0.232687;0.2479224;1;2;1;749;3437;1987;-0.1726615;2.472936;1.112546;-0.1667914;3.007879;1.219423;-0.1616272;3.47849;1.311384;-0.1473682;4.198088;1.454348;-0.3995277;4.530474;1.480484;-0.7437344;4.387425;1.515099;-0.8110299;4.897203;0.7444329;-0.4362464;4.983832;1.61036;0.1207142;4.520168;1.480484;0.4066091;4.364636;1.515098;0.290713;3.470608;1.855034;-0.05966717;2.723165;1.389901;-0.48489;2.433238;1.096125;0.02983712;1.308693;0.3142596;0;0;0;-0.48489;2.433238;1.096125;0.02983712;1.308693;0.3142596;0;0;0
1072122.6088;NotLabelled;NONE;16384;0.8111828;0.4307479;0.3365651;0.2077562;11;-17;18;2320;-2378;2239;65536;-0.6052631;-0.3144044;0.7003464;0.2105263;16;4;-19;2623;-110;-3039;8192;0.5692521;-0.6751534;-0.4265928;-0.1952908;6;11;-21;1406;4083;497;32768;0.4695291;-0.7068341;-0.1260388;-0.5138504;10;-8;11;1034;3794;1947;256;0.300554;-0.3753462;-0.5581717;-0.6761855;2;7;-7;-47;3986;-811;128;-0.008310249;0.1551246;0.5318559;0.8324642;0;8;6;-567;3629;1974;4;-0.5872576;0.1731302;-0.4196676;-0.6700996;1;1;1;2605;2922;278;16;0.7359238;-0.66759;0.05540166;-0.09833795;-2;-2;2;1011;3938;-302;2;0.4806094;-0.6611017;-0.433518;-0.3795014;0;4;-1;731;3878;-851;8;0.4362881;-0.833093;0.232687;0.2479224;0;1;1;767;3467;1985;-0.1739835;2.469972;1.116262;-0.1681134;3.004914;1.223146;-0.1629493;3.475524;1.315114;-0.1512148;4.19541;1.45685;-0.40454;4.526953;1.482428;-0.7482409;4.382755;1.517298;-0.8067243;4.895376;0.7477993;-0.4404255;4.979941;1.617553;0.1157348;4.518476;1.482427;0.4021756;4.364009;1.517297;0.2862715;3.467796;1.85143;-0.05713618;2.718747;1.383688;-0.486212;2.430275;1.09984;0.03130049;1.308162;0.3163207;0;0;0;-0.486212;2.430275;1.09984;0.03130049;1.308162;0.3163207;0;0;0
1072142.7088;NotLabelled;NONE;16384;0.8119711;0.4307479;0.333795;0.2091413;11;-16;15;2346;-2286;2207;65536;-0.602493;-0.3157895;0.7021096;0.2105263;15;7;-16;2643;-164;-2977;8192;0.5706371;-0.6740501;-0.4252077;-0.1980609;4;11;-21;1458;4041;561;32768;0.4722992;-0.7049862;-0.1260388;-0.5138504;7;-8;12;966;3756;2017;256;0.300554;-0.3739612;-0.5581717;-0.6769524;2;8;-7;-155;4098;-867;128;-0.008310249;0.1537396;0.5318559;0.8327211;0;8;6;-563;3645;1910;4;-0.5886427;0.1731302;-0.4196676;-0.6688833;1;2;-1;2553;2938;396;16;0.736002;-0.66759;0.0567867;-0.09695291;-4;-10;0;1159;3914;-548;2;0.4806094;-0.6603047;-0.433518;-0.3808864;0;4;0;661;3976;-731;8;0.4362881;-0.8335039;0.232687;0.2465374;0;0;1;763;3497;2003;-0.1700822;2.468288;1.116441;-0.1642119;3.003242;1.223269;-0.1590478;3.473861;1.315187;-0.1500134;4.193336;1.459187;-0.4045787;4.523845;1.485795;-0.747739;4.378254;1.520194;-0.7960687;4.89578;0.7532779;-0.4394591;4.976971;1.627369;0.1157243;4.517315;1.485794;0.4027398;4.363813;1.520193;0.2907044;3.463025;1.843152;-0.04387242;2.711379;1.373178;-0.4823108;2.428589;1.100024;0.0376822;1.308121;0.3157928;0;0;0;-0.4823108;2.428589;1.100024;0.0376822;1.308121;0.3157928;0;0;0
1072163.6813;NotLabelled;NONE;16384;0.8133096;0.4307479;0.3296399;0.2105263;8;-19;12;2328;-2300;2285;65536;-0.599723;-0.3171745;0.7038546;0.2105263;13;9;-11;3029;-222;-3069;8192;0.5720221;-0.6720535;-0.4252077;-0.200831;0;10;-18;1400;4009;707;32768;0.4736842;-0.7040563;-0.1260388;-0.5138504;4;-11;11;920;3724;2061;256;0.300554;-0.3725762;-0.5581717;-0.6777157;3;11;-8;-129;4070;-915;128;-0.006925208;0.1523546;0.5318559;0.8329883;-3;5;6;-441;3725;1910;4;-0.5886427;0.1731302;-0.4196676;-0.6688833;2;0;0;2923;3142;256;16;0.736002;-0.66759;0.0567867;-0.09695291;-2;7;1;709;3952;-254;2;0.4806094;-0.6603047;-0.433518;-0.3808864;0;3;0;793;4094;-725;8;0.4362881;-0.8335039;0.232687;0.2465374;0;1;1;709;3495;2115;-0.1656404;2.467484;1.119563;-0.15977;3.00245;1.226331;-0.1546056;3.473079;1.318197;-0.1470156;4.192572;1.462194;-0.4022438;4.522569;1.4888;-0.7451112;4.37629;1.5232;-0.7891669;4.894575;0.7565392;-0.4363549;4.974992;1.632241;0.1180713;4.517084;1.488799;0.4053942;4.364158;1.523199;0.2957677;3.461056;1.840474;-0.03446865;2.707354;1.370725;-0.4778688;2.427783;1.103151;0.03895175;1.308107;0.3156984;0;0;0;-0.4778688;2.427783;1.103151;0.03895175;1.308107;0.3156984;0;0;0
1072184.6949;NotLabelled;NONE;16384;0.8137057;0.4307479;0.3268698;0.2132964;6;-21;9;2346;-2236;2381;65536;-0.5983379;-0.3185596;0.7044077;0.2105263;11;10;-6;3155;-294;-3049;8192;0.5734072;-0.6700367;-0.4252077;-0.2036011;-2;7;-17;1264;3939;691;32768;0.4750692;-0.7043791;-0.1246537;-0.5124654;2;-15;8;766;3746;2109;256;0.300554;-0.3711911;-0.5567867;-0.6796124;5;11;-9;-119;4060;-999;128;-0.008310249;0.1509695;0.5318559;0.8332277;-1;3;6;-535;3749;1860;4;-0.5900277;0.1745152;-0.4182825;-0.6681703;1;7;1;2751;3222;294;16;0.734665;-0.6689751;0.05540166;-0.09833795;-2;9;1;1099;4070;-210;2;0.4792244;-0.6595998;-0.434903;-0.3822715;0;6;0;881;3902;-743;8;0.4362881;-0.8335039;0.232687;0.2465374;0;2;0;677;3421;2033;-0.162941;2.467482;1.120734;-0.1570708;3.002435;1.227561;-0.1519067;3.473055;1.319478;-0.1457593;4.192562;1.463472;-0.4016486;4.522047;1.490077;-0.744222;4.37508;1.524477;-0.7835097;4.895199;0.7588;-0.4344845;4.974836;1.636089;0.1186764;4.517605;1.490077;0.4063053;4.365256;1.524477;0.3008909;3.460268;1.83778;-0.0277366;2.705549;1.368534;-0.4751695;2.427782;1.104317;0.03972381;1.308107;0.3156027;0;0;0;-0.4751695;2.427782;1.104317;0.03972381;1.308107;0.3156027;0;0;0
1072204.7337;NotLabelled;NONE;16384;0.8144492;0.4307479;0.3240997;0.2146814;4;-18;7;2514;-2310;2511;65536;-0.5969529;-0.3213296;0.7043246;0.2105263;8;9;-1;3053;-386;-3053;8192;0.5761772;-0.6672322;-0.4252077;-0.2049861;-3;0;-15;1258;4141;561;32768;0.4764543;-0.703687;-0.1232687;-0.5124654;1;-13;4;776;3838;1975;256;0.299169;-0.3698061;-0.5567867;-0.6809772;4;13;-10;-101;4078;-907;128;-0.008310249;0.1495845;0.5318559;0.8334774;1;0;5;-575;3783;1930;4;-0.5900277;0.1745152;-0.4182825;-0.6681703;1;8;2;2651;3090;146;16;0.7344783;-0.6689751;0.05540166;-0.09972299;-3;3;0;1147;4008;-326;2;0.4792244;-0.6595998;-0.434903;-0.3822715;-1;6;0;811;3910;-643;8;0.4362881;-0.8339123;0.232687;0.2451524;0;0;0;771;3395;2131;-0.1597835;2.467488;1.117849;-0.1539129;3.002477;1.224501;-0.1487483;3.473126;1.316263;-0.1452759;4.192195;1.46252;-0.4023878;4.520642;1.490155;-0.7444136;4.372296;1.524083;-0.7818007;4.892135;0.7581201;-0.43364;4.97229;1.635705;0.1179501;4.518133;1.490154;0.4061425;4.366746;1.524083;0.3049663;3.459905;1.833401;-0.02463835;2.704723;1.365588;-0.4720122;2.427783;1.101447;0.04427664;1.308598;0.3129481;0;0;0;-0.4720122;2.427783;1.101447;0.04427664;1.308598;0.3129481;0;0;0
1072225.7484;NotLabelled;NONE;16384;0.8140782;0.432133;0.3213296;0.2174515;0;-8;6;2554;-2212;2335;65536;-0.5955678;-0.3254848;0.7035888;0.2105263;9;18;3;2865;-514;-3175;8192;0.5789474;-0.6652858;-0.4238227;-0.2063712;-5;0;-3;1486;4055;355;32768;0.4792244;-0.7025684;-0.1246537;-0.5110803;6;-1;7;996;3808;1945;256;0.299169;-0.365651;-0.5554016;-0.6843437;3;11;-7;-237;4046;-933;128;-0.009695291;0.1481994;0.5318559;0.8337099;2;1;3;-561;3669;1728;4;-0.5914127;0.1745152;-0.4168975;-0.6678113;1;2;3;2689;3006;214;16;0.7343921;-0.6689751;0.05401662;-0.101108;-3;-2;-1;1035;3946;-380;2;0.4792244;-0.6586845;-0.4362881;-0.3822715;0;4;0;855;3894;-749;8;0.4362881;-0.8339123;0.232687;0.2451524;0;0;0;735;3415;2131;-0.15355;2.466947;1.121989;-0.1476792;3.001947;1.228582;-0.1425145;3.472607;1.320294;-0.1393858;4.191428;1.46777;-0.3966544;4.519705;1.495958;-0.7386096;4.371139;1.529632;-0.7785414;4.891917;0.7644361;-0.4295812;4.974404;1.641488;0.1236845;4.517444;1.495959;0.4119487;4.366136;1.529633;0.3204185;3.457635;1.837079;-0.009302199;2.702575;1.369152;-0.4657785;2.42724;1.10559;0.04701291;1.308056;0.3148131;0;0;0;-0.4657785;2.42724;1.10559;0.04701291;1.308056;0.3148131;0;0;0
1072245.663;NotLabelled;NONE;16384;0.8146235;0.432133;0.3199446;0.2174515;-2;-12;5;2526;-2248;2297;65536;-0.5955678;-0.3282548;0.7023008;0.2105263;9;14;7;3319;-474;-3041;8192;0.5789474;-0.6657138;-0.4238227;-0.2049861;-7;4;3;1534;3907;441;32768;0.4806094;-0.7003628;-0.1260388;-0.5124654;5;6;12;920;3766;2063;256;0.299169;-0.3642659;-0.5554016;-0.685082;5;8;-8;-201;4084;-991;128;-0.009695291;0.1468144;0.5318559;0.8339549;6;1;2;-513;3723;1858;4;-0.5914127;0.1745152;-0.4168975;-0.6678113;2;4;4;2713;2994;208;16;0.7344783;-0.6689751;0.05540166;-0.09972299;-4;-8;-2;955;3950;-382;2;0.4778393;-0.6596899;-0.4362881;-0.3822715;0;3;0;849;3884;-741;8;0.4362881;-0.8342976;0.2313019;0.2451524;0;0;0;727;3427;1997;-0.1490334;2.464529;1.126808;-0.1431623;2.999564;1.233227;-0.1379973;3.470253;1.324785;-0.1403692;4.18861;1.474521;-0.4001427;4.514818;1.503739;-0.7409503;4.363534;1.536941;-0.7812757;4.885477;0.77256;-0.4290776;4.972105;1.647917;0.1201984;4.51654;1.503739;0.4096126;4.367338;1.536941;0.3248647;3.456874;1.840498;-0.003654897;2.698117;1.377734;-0.461262;2.424817;1.110424;0.04883379;1.308071;0.3144726;0;0;0;-0.461262;2.424817;1.110424;0.04883379;1.308071;0.3144726;0;0;0
1072285.6597;NotLabelled;NONE;16384;0.8140593;0.433518;0.3185596;0.2188366;-5;-19;5;2482;-2144;2395;65536;-0.5955678;-0.3310249;0.7014139;0.2091413;9;8;12;3385;-406;-3225;8192;0.5803324;-0.6631587;-0.4265928;-0.2036011;-8;7;8;1454;3941;535;32768;0.4792244;-0.7000464;-0.1274238;-0.5138504;5;14;13;936;3572;2125;256;0.299169;-0.3628809;-0.5540166;-0.686936;4;3;-7;-191;4066;-975;128;-0.009695291;0.1468144;0.533241;0.83307;8;0;2;-543;3735;1862;4;-0.5927978;0.1745152;-0.4155124;-0.6674464;3;8;4;2491;3014;344;16;0.7334014;-0.6703601;0.05540166;-0.09833795;-6;-18;-2;1055;4010;-482;2;0.4778393;-0.6588854;-0.4362881;-0.3836565;0;3;0;769;3916;-735;8;0.4362881;-0.8342976;0.2313019;0.2451524;-1;0;0;741;3439;2077;-0.1458453;2.464515;1.127911;-0.1399741;2.999561;1.234274;-0.134809;3.47026;1.325783;-0.1386033;4.18861;1.475521;-0.3990222;4.514303;1.504739;-0.7395296;4.362345;1.537941;-0.7793627;4.885283;0.7742144;-0.4252269;4.975551;1.648421;0.1213143;4.517056;1.504739;0.4110236;4.368427;1.537941;0.3269934;3.458619;1.843656;0.002723634;2.698354;1.380369;-0.4580739;2.424802;1.111531;0.05008166;1.308056;0.3143394;0;0;0;-0.4580739;2.424802;1.111531;0.05008166;1.308056;0.3143394;0;0;0
1072306.8982;NotLabelled;NONE;16384;0.8131114;0.434903;0.3171745;0.2216066;-9;-23;2;2518;-2364;2195;65536;-0.5955678;-0.33241;0.7007585;0.2091413;9;13;16;2935;-418;-2947;8192;0.5803324;-0.6622657;-0.4279778;-0.2036011;-7;8;9;1308;3837;433;32768;0.4792244;-0.6977504;-0.1288089;-0.5166205;5;19;14;1078;3476;2043;256;0.299169;-0.3628809;-0.5526316;-0.6880507;4;-2;-6;-209;4122;-1027;128;-0.009695291;0.1468144;0.534626;0.8321818;7;0;2;-545;3745;1802;4;-0.5941828;0.1745152;-0.4141274;-0.6670755;2;1;4;2631;3044;246;16;0.7336617;-0.6703601;0.0567867;-0.09556787;-6;0;0;479;3860;-392;2;0.4778393;-0.6588854;-0.4362881;-0.3836565;-2;3;0;751;4022;-613;8;0.4362881;-0.8342976;0.2313019;0.2451524;-3;4;0;517;3383;2001;-0.1433533;2.463128;1.125644;-0.1374784;2.99852;1.23025;-0.1323101;3.469517;1.320214;-0.1387243;4.187374;1.47221;-0.4003305;4.51202;1.502457;-0.7402794;4.358715;1.535186;-0.7820891;4.883033;0.7725118;-0.4271598;4.978621;1.64583;0.1199928;4.516672;1.502457;0.4102438;4.369;1.535186;0.3325502;3.46029;1.845805;0.006958604;2.700472;1.382713;-0.4555826;2.423361;1.109406;0.05371884;1.309058;0.3095312;0;0;0;-0.4555826;2.423361;1.109406;0.05371884;1.309058;0.3095312;0;0;0
1072327.6701;NotLabelled;NONE;16384;0.8117844;0.4376731;0.3157895;0.2229917;-10;-12;0;2750;-2422;2129;65536;-0.5969529;-0.3365651;0.6975895;0.2091413;7;21;17;2705;-388;-2811;8192;0.5803324;-0.6617934;-0.4293629;-0.2022161;-6;0;12;1204;3867;341;32768;0.4792244;-0.695433;-0.1301939;-0.5193906;8;19;17;1490;3498;1905;256;0.300554;-0.3628809;-0.5512465;-0.6885579;4;-5;-4;-257;4154;-1003;128;-0.009695291;0.1454294;0.536011;0.8315338;8;0;1;-561;3777;1814;4;-0.5941828;0.1745152;-0.4141274;-0.6670755;0;3;4;2611;3088;228;16;0.7324998;-0.6717451;0.05540166;-0.09556787;-5;8;0;733;4004;-258;2;0.4792244;-0.6569581;-0.4376731;-0.3836565;-1;3;-1;743;3910;-551;8;0.4362881;-0.8346803;0.2299169;0.2451524;-2;4;0;639;3493;2127;-0.1473237;2.46126;1.124857;-0.141445;2.996993;1.227703;-0.1362734;3.468283;1.316117;-0.143883;4.185648;1.470366;-0.4060307;4.50976;1.501639;-0.7457217;4.355783;1.533896;-0.7880642;4.880363;0.7714314;-0.4332321;4.977775;1.644588;0.114284;4.515282;1.501638;0.4047825;4.367993;1.533896;0.3281314;3.459731;1.846079;0.006930113;2.699973;1.379833;-0.4595536;2.42144;1.108762;0.05282856;1.309584;0.3074504;0;0;0;-0.4595536;2.42144;1.108762;0.05282856;1.309584;0.3074504;0;0;0
1072348.7011;NotLabelled;NONE;16384;0.8110362;0.4390582;0.3157895;0.2229917;-11;-5;-1;2762;-2380;2205;65536;-0.5969529;-0.3393352;0.6962462;0.2091413;12;22;16;3059;-152;-3625;8192;0.5789474;-0.6628723;-0.432133;-0.1966759;1;1;17;1486;3799;211;32768;0.4806094;-0.6900358;-0.1315789;-0.5249307;12;14;21;1480;3278;2061;256;0.301939;-0.3642659;-0.5498615;-0.688328;5;-4;-4;-203;4050;-877;128;-0.01108033;0.1454294;0.536011;0.8315165;7;0;1;-495;3779;1900;4;-0.5955678;0.1745152;-0.4127424;-0.6666987;0;6;4;2595;3120;314;16;0.7323177;-0.6717451;0.05540166;-0.09695291;-7;5;-1;1335;4058;-394;2;0.4792244;-0.6561473;-0.4376731;-0.3850415;-1;0;-1;781;4064;-585;8;0.434903;-0.8361878;0.2285319;0.2437673;-2;5;0;673;3477;2135;-0.1471173;2.462306;1.119129;-0.1412348;2.998385;1.220156;-0.13606;3.469972;1.306971;-0.1459736;4.187086;1.46225;-0.4091616;4.510307;1.493993;-0.7483552;4.355194;1.526035;-0.7912921;4.882631;0.7655776;-0.4356365;4.986874;1.637609;0.1111323;4.517503;1.493992;0.4021041;4.371104;1.526034;0.3259096;3.463967;1.841583;0.01008016;2.704273;1.371577;-0.4593477;2.422431;1.10318;0.05461466;1.310575;0.3028815;0;0;0;-0.4593477;2.422431;1.10318;0.05461466;1.310575;0.3028815;0;0;0
1072369.7197;NotLabelled;NONE;16384;0.8080041;0.4432133;0.3157895;0.2257618;-16;-29;-8;2222;-2418;1995;65536;-0.5983379;-0.3462604;0.692464;0.2063712;13;23;17;3065;-558;-2693;8192;0.5775623;-0.6626784;-0.434903;-0.1952908;1;9;19;1426;3925;221;32768;0.4806094;-0.6876532;-0.132964;-0.5277008;12;7;16;1152;3236;2291;256;0.3033241;-0.3642659;-0.5484765;-0.6888239;4;0;-1;-111;4150;-999;128;-0.01108033;0.1454294;0.5373961;0.830622;1;3;-1;-537;3651;2022;4;-0.5969529;0.1745152;-0.4127424;-0.6654588;1;4;4;2679;3126;176;16;0.7310448;-0.6731302;0.05540166;-0.09695291;-7;6;-2;869;3942;-392;2;0.4792244;-0.6561473;-0.4376731;-0.3850415;-1;0;0;811;4070;-581;8;0.434903;-0.8361878;0.2285319;0.2437673;-2;4;0;709;3431;2141;-0.1537068;2.459322;1.120546;-0.147824;2.995423;1.221456;-0.142649;3.467029;1.308168;-0.1534563;4.183908;1.464463;-0.4170475;4.506756;1.49667;-0.7560463;4.351172;1.528498;-0.7975111;4.880087;0.7689847;-0.4459407;4.987995;1.642226;0.103237;4.514603;1.496669;0.394392;4.368522;1.528497;0.3154001;3.465489;1.854941;0.01270586;2.706141;1.375823;-0.4659373;2.419444;1.104607;0.05464592;1.310039;0.3051858;0;0;0;-0.4659373;2.419444;1.104607;0.05464592;1.310039;0.3051858;0;0;0
1072390.7972;NotLabelled;NONE;16384;0.8049296;0.4473684;0.3157895;0.2285319;-16;-26;-11;2610;-2258;2029;65536;-0.5983379;-0.3490305;0.6910719;0.2063712;18;9;8;1373;-314;-2897;8192;0.5761772;-0.6620601;-0.4376731;-0.1952908;-2;16;18;1174;3723;359;32768;0.4806094;-0.6868549;-0.1315789;-0.5290859;4;-3;11;1026;3170;2317;256;0.3033241;-0.365651;-0.5470914;-0.6891915;4;-1;-3;69;4080;-991;128;-0.009695291;0.1440443;0.536011;0.8317748;-3;7;0;-631;3843;1876;4;-0.5969529;0.1745152;-0.4113573;-0.6663159;1;-3;6;2763;3150;288;16;0.7296856;-0.6745152;0.05401662;-0.09833795;-6;6;-3;853;4006;-228;2;0.4792244;-0.6561473;-0.4376731;-0.3850415;-2;1;1;855;3954;-669;8;0.434903;-0.8361878;0.2285319;0.2437673;-3;3;0;713;3361;2115;-0.1503363;2.459007;1.118788;-0.14445;2.995438;1.217932;-0.1392717;3.467327;1.30309;-0.1523813;4.183948;1.460396;-0.4170092;4.505899;1.493063;-0.7555046;4.349182;1.524679;-0.8024291;4.880234;0.766978;-0.4526306;5.002019;1.639106;0.1032476;4.515419;1.493063;0.394872;4.370231;1.524679;0.3138958;3.469294;1.856386;0.01677215;2.710041;1.373645;-0.4625674;2.419077;1.102991;0.05832377;1.310463;0.3026747;0;0;0;-0.4625674;2.419077;1.102991;0.05832377;1.310463;0.3026747;0;0;0
1072410.6143;NotLabelled;NONE;16384;0.8025907;0.4501385;0.3157895;0.2313019;-20;-29;-10;2608;-2500;2117;65536;-0.5969529;-0.3531856;0.690158;0.2063712;9;26;-5;3173;-1046;-2333;8192;0.5761772;-0.6606286;-0.4404432;-0.1939058;-7;7;16;1134;3655;501;32768;0.4806094;-0.6868549;-0.1315789;-0.5290859;-3;-7;9;1270;3234;2491;256;0.3047091;-0.367036;-0.5470914;-0.6878429;3;-2;1;-273;3464;-1019;128;-0.009695291;0.1440443;0.5373961;0.8308806;0;2;-1;-593;3633;2020;4;-0.5983379;0.1731302;-0.4099723;-0.6662885;-1;5;4;2599;3082;254;16;0.7285042;-0.6759003;0.05263158;-0.09833795;-7;-3;-3;1121;3976;-262;2;0.4792244;-0.6569581;-0.4376731;-0.3836565;-1;0;1;819;3886;-677;8;0.434903;-0.8365651;0.2271468;0.2437673;-2;2;0;751;3385;2001;-0.1535349;2.457706;1.114681;-0.1476523;2.993795;1.215654;-0.1424773;3.465391;1.302422;-0.1553747;4.181524;1.461955;-0.4199095;4.503448;1.495637;-0.7584475;4.346728;1.526784;-0.8103424;4.879837;0.770854;-0.4629307;5.005309;1.643413;0.1003498;4.512821;1.495636;0.3919348;4.367453;1.526785;0.3086948;3.467925;1.861744;0.0138182;2.710438;1.374869;-0.4657653;2.41783;1.098736;0.06142449;1.310881;0.3002414;0;0;0;-0.4657653;2.41783;1.098736;0.06142449;1.310881;0.3002414;0;0;0
1072431.6223;NotLabelled;NONE;16384;0.7995794;0.4542936;0.3144044;0.2354571;-25;-46;-5;2446;-2354;1945;65536;-0.5969529;-0.3518005;0.6912773;0.2049861;-2;-51;-15;2895;-668;-2049;8192;0.5761772;-0.6601086;-0.4418283;-0.1925208;-4;0;16;1240;3915;513;32768;0.4806094;-0.6863115;-0.1288089;-0.5304709;-7;-13;7;1566;3430;2249;256;0.3033241;-0.367036;-0.5470914;-0.6884548;0;2;4;41;3942;-793;128;-0.008310249;0.1440443;0.536011;0.8317899;-3;2;-1;-561;3589;1896;4;-0.5983379;0.1731302;-0.4099723;-0.6662885;0;3;4;2647;2960;206;16;0.7286898;-0.6759003;0.05263158;-0.09695291;-7;-3;-4;695;3936;-210;2;0.4792244;-0.6552213;-0.4390582;-0.3850415;-1;1;0;821;4028;-679;8;0.433518;-0.8376857;0.2271468;0.2423823;-3;4;0;637;3371;2021;-0.1588011;2.454245;1.11204;-0.1529148;2.990663;1.211247;-0.1477368;3.462542;1.296461;-0.1603323;4.178955;1.454757;-0.4247302;4.50105;1.487875;-0.7633363;4.344529;1.519283;-0.817031;4.878202;0.7638759;-0.4767946;5.007815;1.638654;0.09553319;4.510199;1.487874;0.387055;4.36476;1.519282;0.3044529;3.466942;1.85895;0.01174146;2.709455;1.37077;-0.4710322;2.414316;1.096239;0.06260512;1.311819;0.29587;0;0;0;-0.4710322;2.414316;1.096239;0.06260512;1.311819;0.29587;0;0;0
1072451.6169;NotLabelled;NONE;16384;0.7944913;0.4612188;0.3130194;0.2409972;-35;-70;-10;2226;-2444;2139;65536;-0.5955678;-0.3448753;0.6967558;0.2022161;-13;-47;-25;2513;-672;-2637;8192;0.5747922;-0.6625105;-0.4418283;-0.1883656;2;-11;13;1122;3819;185;32768;0.4806094;-0.6883949;-0.1232687;-0.5290859;-15;-11;-4;608;2992;2017;256;0.3033241;-0.367036;-0.5457063;-0.6895532;5;17;0;-91;3576;-1171;128;-0.008310249;0.1440443;0.534626;0.8326808;-5;0;-3;-513;3599;1962;4;-0.599723;0.1731302;-0.4099723;-0.6650421;-1;6;4;2631;2974;312;16;0.7274027;-0.6772853;0.05263158;-0.09695291;-6;1;-3;639;3986;-226;2;0.4792244;-0.6552213;-0.4390582;-0.3850415;-2;3;0;777;3850;-701;8;0.433518;-0.83806;0.2257618;0.2423823;-4;3;0;721;3499;2069;-0.1578749;2.454723;1.111085;-0.1519925;2.990791;1.212172;-0.1468177;3.462369;1.29904;-0.1582944;4.178526;1.458569;-0.4221936;4.500969;1.492273;-0.7610359;4.344914;1.523454;-0.8231142;4.877766;0.7681098;-0.4820646;5.007188;1.642599;0.09808308;4.50932;1.492224;0.3893852;4.36338;1.523345;0.309244;3.468004;1.869978;0.0157761;2.71345;1.377725;-0.4701053;2.41485;1.095131;0.06185935;1.312353;0.29365;0;0;0;-0.4701053;2.41485;1.095131;0.06185935;1.312353;0.29365;0;0;0
1072473.613;NotLabelled;NONE;16384;0.7846856;0.4722992;0.3102493;0.2548476;-20;-22;-15;3306;-2636;1619;65536;-0.5927978;-0.3365651;0.7011239;0.2091413;-40;21;-23;2189;-330;-575;8192;0.5747922;-0.6632918;-0.4418283;-0.1855956;4;-19;12;1164;3657;193;32768;0.4778393;-0.6916254;-0.1218837;-0.5277008;-14;4;-2;1532;3284;2179;256;0.299169;-0.3628809;-0.5470914;-0.692464;1;14;-5;-419;4536;-891;128;-0.006925208;0.1440443;0.536011;0.8318025;5;0;-4;-445;3919;1736;4;-0.599723;0.1731302;-0.4085872;-0.665894;1;5;2;2679;3030;186;16;0.7275015;-0.6772853;0.05124654;-0.09695291;-6;9;-2;903;3958;-328;2;0.4792244;-0.6552213;-0.4390582;-0.3850415;0;2;0;625;3954;-635;8;0.433518;-0.83806;0.2257618;0.2423823;-4;1;0;759;3447;2027;-0.1523821;2.454247;1.110503;-0.1465033;2.989979;1.213354;-0.1413318;3.461267;1.301773;-0.1540203;4.176906;1.463527;-0.4184632;4.498796;1.498222;-0.7570432;4.342076;1.528903;-0.8273727;4.880884;0.7785237;-0.490873;5.003097;1.655809;0.1017989;4.508024;1.498222;0.3933448;4.362479;1.528903;0.3090492;3.468553;1.878283;0.01037508;2.717995;1.383062;-0.4646118;2.414427;1.094407;0.06616039;1.312723;0.2910465;0;0;0;-0.4646118;2.414427;1.094407;0.06616039;1.312723;0.2910465;0;0;0
1072493.7758;NotLabelled;NONE;16384;0.7814556;0.4750692;0.3130194;0.2562327;-25;0;-19;2608;-2402;1729;65536;-0.5927978;-0.333795;0.699919;0.2174515;-68;-10;-21;3731;-836;-849;8192;0.5734072;-0.6661748;-0.4404432;-0.1828255;4;-19;16;1614;3693;307;32768;0.4764543;-0.6917655;-0.1204986;-0.5290859;-14;8;5;2056;3204;1759;256;0.2977839;-0.3614958;-0.5470914;-0.6937842;4;7;-3;-61;3736;-903;128;-0.006925208;0.1440443;0.536011;0.8318025;0;-4;-5;-387;3801;1848;4;-0.601108;0.1731302;-0.4085872;-0.6646439;3;1;0;2759;3074;162;16;0.7263061;-0.6786703;0.04986149;-0.09695291;-4;10;-1;499;3932;-130;2;0.4792244;-0.6552213;-0.4390582;-0.3850415;0;0;-1;745;4018;-623;8;0.432133;-0.838775;0.2257618;0.2423823;-5;1;0;613;3499;2113;-0.1439862;2.453161;1.113893;-0.138104;2.989208;1.21509;-0.1329295;3.460767;1.302055;-0.1452839;4.176082;1.46526;-0.4095777;4.498023;1.500617;-0.7482287;4.341396;1.530993;-0.8459886;4.881227;0.7844298;-0.4971837;4.981417;1.659698;0.1106886;4.507012;1.500617;0.402169;4.36127;1.530992;0.3227423;3.468842;1.885306;0.009186387;2.720682;1.395688;-0.4562165;2.413291;1.09793;0.06819244;1.313265;0.2881182;0;0;0;-0.4562165;2.413291;1.09793;0.06819244;1.313265;0.2881182;0;0;0
1072513.8546;NotLabelled;NONE;16384;0.7793872;0.4764543;0.3171745;0.2548476;-28;20;-26;2990;-2352;1747;65536;-0.5955678;-0.3213296;0.7012142;0.2243767;-91;-31;-26;2635;-414;-1009;8192;0.5734072;-0.6669288;-0.4404432;-0.1800554;1;-10;13;1770;3705;465;32768;0.4764543;-0.6901163;-0.1177285;-0.5318559;-16;-4;24;3254;3468;1995;256;0.2977839;-0.3614958;-0.5470914;-0.6937842;-9;-10;6;-411;3928;-679;128;-0.006925208;0.1440443;0.536011;0.8318025;-6;0;-3;-435;3547;1584;4;-0.602493;0.1745152;-0.4085872;-0.6630257;0;9;1;2585;3146;292;16;0.7248188;-0.6800554;0.04709141;-0.09972299;-5;6;-2;1021;3980;-140;2;0.4792244;-0.6552213;-0.4390582;-0.3850415;0;0;-1;707;4040;-567;8;0.432133;-0.8391466;0.2243767;0.2423823;-4;4;0;665;3455;2091;-0.1353801;2.453259;1.113088;-0.129498;2.989305;1.214285;-0.1243234;3.460865;1.301249;-0.1369472;4.175897;1.46567;-0.4013635;4.497676;1.501581;-0.7399535;4.340868;1.5317;-0.8502464;4.879774;0.786217;-0.4904408;4.966309;1.658483;0.1188993;4.506865;1.501581;0.4104364;4.361183;1.5317;0.3282794;3.470212;1.889046;0.01080513;2.724809;1.39775;-0.4476105;2.413389;1.097125;0.07192781;1.314155;0.2831081;0;0;0;-0.4476105;2.413389;1.097125;0.07192781;1.314155;0.2831081;0;0;0
1072534.6376;NotLabelled;NONE;16384;0.7765861;0.4778393;0.3240997;0.2520775;-32;40;-25;2850;-2142;1613;65536;-0.5983379;-0.3088643;0.7017488;0.232687;-96;-38;-30;1941;198;-2107;8192;0.5720221;-0.6675742;-0.4418283;-0.1786704;-3;-5;6;1844;3975;415;32768;0.4764543;-0.6886708;-0.1135734;-0.534626;-14;-17;39;3164;3382;1845;256;0.299169;-0.3628809;-0.5470914;-0.692464;2;-6;1;73;3482;-1005;128;-0.006925208;0.1440443;0.534626;0.8326934;-5;5;-1;-575;3535;1470;4;-0.602493;0.1745152;-0.4072022;-0.6638772;-2;6;2;2575;3082;342;16;0.7248188;-0.6800554;0.04709141;-0.09972299;-5;5;-2;841;4014;-266;2;0.4806094;-0.654206;-0.4390582;-0.3850415;-1;1;0;1009;4032;-557;8;0.4307479;-0.8402272;0.2229917;0.2423823;-3;5;0;689;3319;2303;-0.1308346;2.454824;1.109541;-0.1249524;2.990871;1.210738;-0.1197778;3.46243;1.297702;-0.1324017;4.177462;1.462123;-0.396818;4.499241;1.498034;-0.7354081;4.342433;1.528153;-0.8541172;4.880361;0.7832565;-0.4819844;4.944842;1.652253;0.1234448;4.50843;1.498034;0.4149818;4.362749;1.528153;0.3330713;3.4733;1.889327;0.01769584;2.731546;1.391205;-0.4430649;2.414955;1.093578;0.07542613;1.314513;0.2805272;0;0;0;-0.4430649;2.414955;1.093578;0.07542613;1.314513;0.2805272;0;0;0
1072555.6325;NotLabelled;NONE;16384;0.7754427;0.4778393;0.3310249;0.2465374;-30;44;-21;2852;-1964;1419;65536;-0.601108;-0.2936288;0.7035888;0.2396122;-83;-68;-11;5449;-94;-5161;8192;0.5734072;-0.666012;-0.4418283;-0.1800554;-3;17;-9;1232;3915;-311;32768;0.4806094;-0.6853577;-0.1024931;-0.5373961;0;-29;8;-404;2636;1857;256;0.3074792;-0.3698061;-0.5457063;-0.6862249;2;-72;2;657;3962;-2201;128;-0.005540166;0.1440443;0.536011;0.8318129;13;0;1;-603;3553;1992;4;-0.6038781;0.1745152;-0.4072022;-0.6626176;-2;4;3;2601;2962;118;16;0.7234997;-0.6814404;0.04432133;-0.101108;-5;16;-3;785;4020;-390;2;0.4806094;-0.6532744;-0.4404432;-0.3850415;-1;2;1;1023;3976;-471;8;0.4307479;-0.8402272;0.2229917;0.2423823;-2;3;0;609;3273;2317;-0.1400144;2.453099;1.10717;-0.1341359;2.98881;1.210132;-0.1289646;3.46008;1.298648;-0.141319;4.175394;1.461854;-0.4056128;4.497335;1.497211;-0.7442637;4.34071;1.527586;-0.8721827;4.876549;0.7827098;-0.4905717;4.917303;1.649029;0.1146535;4.506325;1.497211;0.4061337;4.360583;1.527586;0.32036;3.47291;1.892214;0.008541286;2.736051;1.384675;-0.4522442;2.413282;1.091065;0.07418515;1.314512;0.2808576;0;0;0;-0.4522442;2.413282;1.091065;0.07418515;1.314512;0.2808576;0;0;0
1072575.6116;NotLabelled;NONE;16384;0.7705737;0.4819945;0.3393352;0.2423823;-14;17;-3;3266;-2638;991;65536;-0.6066482;-0.2867036;0.6997709;0.2451524;3;62;21;2653;390;-6339;8192;0.5734072;-0.665257;-0.4418283;-0.1828255;-3;8;-12;446;3639;1;32768;0.4806094;-0.687928;-0.09972299;-0.534626;-15;-37;-13;92;3508;2955;256;0.3102493;-0.3739612;-0.5415512;-0.686018;-1;-55;1;-489;3826;-157;128;-0.006925208;0.1440443;0.534626;0.8326934;-13;-13;0;-597;3537;1852;4;-0.6038781;0.1745152;-0.4072022;-0.6626176;0;0;6;2753;2960;170;16;0.7233883;-0.6814404;0.04293629;-0.1024931;-4;17;-2;769;4074;-250;2;0.4806094;-0.6532744;-0.4404432;-0.3850415;-1;2;2;937;3950;-457;8;0.4307479;-0.8405936;0.2216066;0.2423823;-1;0;0;651;3271;2327;-0.1627365;2.453216;1.093124;-0.1568546;2.989243;1.194429;-0.1516802;3.460784;1.281488;-0.1648567;4.177246;1.439518;-0.4295154;4.499138;1.472515;-0.7679951;4.342355;1.503979;-0.8873805;4.877344;0.7570761;-0.5147165;4.892318;1.628107;0.09074056;4.508709;1.472515;0.3823795;4.363517;1.503979;0.2912033;3.474593;1.864223;-0.002230525;2.746015;1.334261;-0.4749669;2.41335;1.077153;0.0696575;1.315373;0.2779714;0;0;0;-0.4749669;2.41335;1.077153;0.0696575;1.315373;0.2779714;0;0;0
1072595.6131;NotLabelled;NONE;16384;0.7714396;0.4819945;0.3393352;0.2396122;0;18;8;3648;-2980;1257;65536;-0.6038781;-0.300554;0.6943715;0.2506925;29;100;22;2817;-256;-4657;8192;0.5761772;-0.6637805;-0.4404432;-0.1828255;-9;-17;-4;1024;3991;837;32768;0.4806094;-0.6925914;-0.09695291;-0.5290859;-23;-32;-29;-280;3562;2609;256;0.3157895;-0.3767313;-0.5401662;-0.6830601;-7;13;-12;267;3744;-1033;128;-0.009695291;0.1454294;0.534626;0.832425;-1;-8;0;-667;3835;1654;4;-0.6038781;0.1731302;-0.4058172;-0.6638296;4;-8;7;2741;3060;106;16;0.7218419;-0.6828254;0.0401662;-0.1052632;-7;3;-2;971;3860;-80;2;0.4806094;-0.653154;-0.4418283;-0.3836565;-1;0;3;883;3930;-443;8;0.4307479;-0.8405936;0.2216066;0.2423823;0;0;0;653;3301;2189;-0.1752676;2.453179;1.087839;-0.169389;2.98889;1.190801;-0.1642176;3.46016;1.279317;-0.1789847;4.175668;1.441475;-0.4443619;4.496768;1.476353;-0.7824848;4.339047;1.506949;-0.9120445;4.874476;0.76206;-0.5326637;4.878958;1.630304;0.07587111;4.507508;1.476353;0.3678395;4.362794;1.50695;0.2724326;3.472342;1.862289;-0.02056897;2.744768;1.330712;-0.4874973;2.413362;1.071734;0.06614009;1.315386;0.2787699;0;0;0;-0.4874973;2.413362;1.071734;0.06614009;1.315386;0.2787699;0;0;0
1072615.9612;NotLabelled;NONE;16384;0.7731572;0.4806094;0.3393352;0.2368421;6;17;16;3626;-2796;1857;65536;-0.601108;-0.3130194;0.6897396;0.2548476;23;94;14;2733;-716;-2197;8192;0.5789474;-0.663419;-0.4390582;-0.1786704;-12;-31;5;1852;3727;937;32768;0.4778393;-0.6984978;-0.09833795;-0.5235457;-21;-8;-33;-216;3684;2473;256;0.3144044;-0.3739612;-0.5415512;-0.6841236;-1;26;-9;89;4048;-1121;128;-0.009695291;0.1468144;0.536011;0.8312904;11;1;-1;-729;3855;1764;4;-0.6038781;0.1717452;-0.4044321;-0.6650335;1;-5;6;2539;3140;134;16;0.7207302;-0.6842105;0.0401662;-0.1038781;-6;-4;-4;747;4012;-88;2;0.4806094;-0.653154;-0.4418283;-0.3836565;0;0;4;783;3904;-519;8;0.4307479;-0.8405936;0.2216066;0.2423823;-1;-1;0;643;3407;2105;-0.1895726;2.44981;1.081136;-0.1836937;2.985553;1.183927;-0.1785221;3.456852;1.272294;-0.1960091;4.172943;1.431572;-0.4626011;4.493178;1.465136;-0.800129;4.334305;1.496334;-0.9094187;4.872485;0.7501785;-0.5424516;4.886534;1.623641;0.0575878;4.505883;1.465141;0.3500972;4.362396;1.496346;0.2515089;3.470389;1.846884;-0.04411918;2.742392;1.317344;-0.5018024;2.409988;1.065045;0.0662975;1.315706;0.2772207;0;0;0;-0.5018024;2.409988;1.065045;0.0662975;1.315706;0.2772207;0;0;0
1072636.6116;NotLabelled;NONE;16384;0.7758805;0.4792244;0.3379501;0.232687;4;20;20;3198;-2572;2175;65536;-0.599723;-0.3227147;0.6838586;0.2617728;-6;66;2;3021;-666;-1133;8192;0.5803324;-0.665502;-0.4362881;-0.1731302;-9;-40;9;2422;3567;425;32768;0.4736842;-0.7027882;-0.1024931;-0.5207756;-16;11;-31;406;3650;2365;256;0.3130194;-0.3725762;-0.5415512;-0.685513;0;24;-5;-169;4042;-1025;128;-0.008310249;0.1468144;0.536011;0.8313054;6;1;-1;-651;3835;1820;4;-0.602493;0.1717452;-0.4044321;-0.6662886;0;-5;2;2635;3042;148;16;0.7196114;-0.6855956;0.0401662;-0.1024931;-4;-10;-2;837;3964;-22;2;0.4806094;-0.6539655;-0.4418283;-0.3822715;0;-4;3;799;4016;-517;8;0.4307479;-0.8402272;0.2229917;0.2423823;-1;0;0;591;3545;2087;-0.1831996;2.446941;1.081983;-0.1773171;2.983009;1.183065;-0.1721424;3.454588;1.269928;-0.1901581;4.17087;1.428292;-0.4569855;4.490951;1.461441;-0.7943976;4.33187;1.492834;-0.9154599;4.871102;0.7492603;-0.544722;4.894543;1.620926;0.06319374;4.504038;1.461441;0.3558075;4.360805;1.492835;0.2703109;3.469759;1.84921;-0.04156452;2.739695;1.33198;-0.49543;2.407068;1.06603;0.07137283;1.316499;0.2721458;0;0;0;-0.49543;2.407068;1.06603;0.07137283;1.316499;0.2721458;0;0;0
1072656.7631;NotLabelled;NONE;16384;0.7771145;0.4792244;0.3379501;0.2285319;-1;29;19;2994;-2268;2229;65536;-0.5983379;-0.3254848;0.6816121;0.267313;-23;32;-1;3323;-558;-1855;8192;0.5803324;-0.6681688;-0.434903;-0.166205;-6;-36;16;2592;3575;15;32768;0.4709141;-0.7050529;-0.1066482;-0.5193906;-7;21;-22;1244;3638;1933;256;0.3116343;-0.3711911;-0.5429363;-0.6857998;0;14;-1;-53;4088;-973;128;-0.008310249;0.1468144;0.5373961;0.8304107;3;3;0;-641;3801;1838;4;-0.602493;0.1703601;-0.4044321;-0.666644;1;-2;0;2731;2996;228;16;0.7184855;-0.6869806;0.0401662;-0.101108;-4;-5;-1;731;3962;-170;2;0.4792244;-0.6549812;-0.4418283;-0.3822715;0;-1;0;855;4084;-729;8;0.4293629;-0.8413019;0.2216066;0.2423823;-3;0;1;653;3465;2133;-0.1812316;2.448272;1.075951;-0.1753494;2.984318;1.177149;-0.1701747;3.455878;1.264113;-0.1892388;4.171833;1.423824;-0.4563654;4.49172;1.456428;-0.7938364;4.332417;1.486006;-0.9058129;4.876717;0.7447045;-0.5317626;4.904035;1.614841;0.06380248;4.505054;1.458762;0.3563435;4.361897;1.491168;0.2714021;3.471616;1.849579;-0.05028409;2.739727;1.34101;-0.4934619;2.408402;1.059989;0.07452946;1.317214;0.2678064;0;0;0;-0.4934619;2.408402;1.059989;0.07452946;1.317214;0.2678064;0;0;0
1072697.6246;NotLabelled;NONE;16384;0.7810787;0.4778393;0.3407202;0.2132964;-14;13;10;2198;-2246;1703;65536;-0.602493;-0.3310249;0.6690224;0.2825485;-14;34;30;2383;952;-3093;8192;0.5761772;-0.6670698;-0.4445983;-0.1592798;-2;21;16;1648;3769;55;32768;0.4653739;-0.7077495;-0.1191136;-0.5180055;6;32;-18;1686;2950;2323;256;0.3130194;-0.3725762;-0.5415512;-0.685513;2;-6;4;-121;3846;-831;128;-0.009695291;0.1468144;0.5373961;0.8303956;-2;-6;-3;-431;3723;1658;4;-0.602493;0.1717452;-0.4030471;-0.6671273;5;1;-2;2787;3046;208;16;0.7184855;-0.6869806;0.0401662;-0.101108;0;1;0;769;3982;-26;2;0.4806094;-0.6539655;-0.4418283;-0.3822715;-1;2;0;905;4068;-625;8;0.4293629;-0.8416997;0.2216066;0.2409972;-1;1;0;777;3375;2311;-0.1685925;2.447281;1.077808;-0.1627066;2.983659;1.177238;-0.1575289;3.455503;1.262648;-0.1750071;4.171723;1.421347;-0.4415904;4.491995;1.454619;-0.7791287;4.333161;1.485902;-0.9022809;4.88216;0.7498572;-0.5182945;4.905919;1.61576;0.07859892;4.504679;1.454679;0.3710986;4.361206;1.486036;0.2916718;3.473773;1.852681;-0.0395242;2.739622;1.353562;-0.4808233;2.40736;1.061988;0.08000385;1.318023;0.2621907;0;0;0;-0.4808233;2.40736;1.061988;0.08000385;1.318023;0.2621907;0;0;0
1072717.625;NotLabelled;NONE;16384;0.7813538;0.4792244;0.3407202;0.2091413;-13;15;1;2150;-2678;1537;65536;-0.6038781;-0.33518;0.6645141;0.2853186;-9;32;24;2619;358;-2179;8192;0.5747922;-0.6670079;-0.4459834;-0.1606648;0;11;8;1140;3731;325;32768;0.4639889;-0.708187;-0.1218837;-0.5180055;1;11;-22;2012;2738;2483;256;0.3130194;-0.3739612;-0.5415512;-0.6847584;-2;0;3;-145;4142;-703;128;-0.009695291;0.1468144;0.5373961;0.8303956;5;-7;-3;-549;3745;1760;4;-0.602493;0.1731302;-0.4030471;-0.6667691;4;4;-3;2583;3092;296;16;0.7184855;-0.6869806;0.0401662;-0.101108;-1;2;1;1031;3986;-146;2;0.4792244;-0.6549812;-0.4418283;-0.3822715;-1;3;1;909;3978;-661;8;0.4293629;-0.8416997;0.2216066;0.2409972;-1;2;0;709;3349;2261;-0.1776272;2.447595;1.072119;-0.1717412;2.983994;1.171434;-0.1665633;3.455856;1.256742;-0.184912;4.171845;1.416383;-0.4518899;4.491741;1.450115;-0.7892249;4.332444;1.48124;-0.9029227;4.888967;0.7493359;-0.4993883;4.908678;1.606406;0.06828314;4.505074;1.450114;0.3609664;4.361925;1.48124;0.2755181;3.485098;1.871302;-0.05940515;2.744017;1.38508;-0.4898582;2.40767;1.056308;0.07886761;1.318022;0.2625338;0;0;0;-0.4898582;2.40767;1.056308;0.07886761;1.318022;0.2625338;0;0;0
1072737.6279;NotLabelled;NONE;16384;0.780634;0.4806094;0.3421052;0.2063712;-12;9;-5;2040;-2652;1643;65536;-0.6052631;-0.3365651;0.6613513;0.2880886;-6;17;23;3099;372;-2525;8192;0.5747922;-0.6660798;-0.4473684;-0.1606648;4;3;2;994;3531;347;32768;0.4626039;-0.7108691;-0.1232687;-0.5152354;-2;-2;-28;1654;2378;2789;256;0.3116343;-0.3725762;-0.5415512;-0.6861438;3;17;-4;21;4076;-659;128;-0.01108033;0.1481994;0.5373961;0.8301322;2;-6;-2;-475;3793;1642;4;-0.602493;0.1759003;-0.4030471;-0.6660438;1;2;-4;2549;3186;236;16;0.7183654;-0.6869806;0.03878116;-0.1024931;0;4;1;791;4052;28;2;0.4792244;-0.6540447;-0.4432133;-0.3822715;0;1;2;871;3932;-623;8;0.4293629;-0.8420631;0.2202216;0.2409972;-1;2;0;693;3359;2199;-0.180359;2.449614;1.06803;-0.1744729;2.986012;1.167345;-0.169295;3.457874;1.252654;-0.186231;4.173901;1.412287;-0.4525774;4.494322;1.446015;-0.790226;4.335691;1.477142;-0.9026536;4.897087;0.748772;-0.4956915;4.921348;1.604102;0.06762099;4.506629;1.446015;0.3600213;4.362904;1.477142;0.2709817;3.486314;1.866932;-0.0639323;2.743986;1.382608;-0.49259;2.409688;1.05222;0.07822102;1.318022;0.262728;0;0;0;-0.49259;2.409688;1.05222;0.07822102;1.318022;0.262728;0;0;0
1072757.7832;NotLabelled;NONE;16384;0.7791705;0.4819945;0.3434903;0.2063712;-11;3;-9;2042;-2492;1567;65536;-0.6066482;-0.3393352;0.6580536;0.2894737;-3;21;19;2451;86;-2191;8192;0.5734072;-0.6681989;-0.4459834;-0.1606648;9;-13;-2;870;3555;297;32768;0.4598338;-0.7146587;-0.1232687;-0.5124654;-10;-11;-31;1164;2784;2663;256;0.3102493;-0.3711911;-0.5429363;-0.6864275;-2;17;-4;-179;3834;-671;128;-0.01246537;0.1495845;0.5373961;0.8298641;0;-8;-2;-437;3749;1482;4;-0.602493;0.1759003;-0.4030471;-0.6660438;1;3;-3;2533;3218;208;16;0.7182398;-0.6869806;0.03739612;-0.1038781;0;7;1;1149;3980;-72;2;0.4792244;-0.6548523;-0.4432133;-0.3808864;0;-1;1;991;4052;-563;8;0.4293629;-0.8420631;0.2202216;0.2409972;0;2;0;585;3293;2161;-0.1762235;2.453655;1.064496;-0.1703373;2.990065;1.163747;-0.1651593;3.461937;1.249;-0.1824234;4.17767;1.409905;-0.4489178;4.497907;1.444212;-0.7864912;4.339064;1.47507;-0.9087963;4.903131;0.7503636;-0.4924294;4.928099;1.601135;0.0712747;4.510457;1.444213;0.3637434;4.366814;1.475074;0.2791612;3.490768;1.867075;-0.06353217;2.747236;1.390096;-0.4884545;2.413727;1.04869;0.07907632;1.318032;0.2624204;0;0;0;-0.4884545;2.413727;1.04869;0.07907632;1.318032;0.2624204;0;0;0
1072778.8324;NotLabelled;NONE;16384;0.775601;0.4847645;0.3476454;0.2063712;-8;-1;-14;2770;-2530;1735;65536;-0.6094183;-0.3421052;0.6528146;0.2922437;-7;7;12;3543;-210;-2393;8192;0.5734072;-0.6725201;-0.4404432;-0.1578947;12;-25;2;1928;3565;19;32768;0.4556787;-0.7195421;-0.1274238;-0.5083103;-9;14;-26;1370;3156;2367;256;0.3102493;-0.3698061;-0.5443213;-0.6860781;-6;7;-4;-175;4178;-1013;128;-0.01246537;0.1495845;0.5387812;0.8289656;8;-6;-2;-511;3771;1556;4;-0.6038781;0.1772853;-0.4044321;-0.663578;0;4;-2;2419;3116;254;16;0.7180381;-0.6869806;0.03739612;-0.1052632;0;9;0;699;3950;-158;2;0.4792244;-0.6548523;-0.4432133;-0.3808864;0;0;0;891;3882;-485;8;0.4293629;-0.8420631;0.2202216;0.2409972;0;1;0;509;3213;2235;-0.1718637;2.453667;1.066694;-0.1659774;2.99009;1.165877;-0.1607993;3.461974;1.25107;-0.1771708;4.177939;1.41103;-0.4432647;4.498555;1.444907;-0.7810376;4.340177;1.475965;-0.9077631;4.904325;0.7520819;-0.4834543;4.933434;1.598788;0.07694304;4.510453;1.444906;0.3692307;4.366484;1.475965;0.2802501;3.490371;1.866842;-0.07354605;2.747915;1.396335;-0.4840947;2.413738;1.050894;0.0799332;1.318043;0.2621076;0;0;0;-0.4840947;2.413738;1.050894;0.0799332;1.318043;0.2621076;0;0;0
1072799.6159;NotLabelled;NONE;16384;0.7746086;0.4847645;0.3490305;0.2077562;-7;1;-14;2946;-2532;1643;65536;-0.6108033;-0.3434903;0.6507898;0.2922437;-9;4;12;3917;-328;-1999;8192;0.5706371;-0.6760961;-0.4390582;-0.1565097;14;-9;3;2218;3605;-43;32768;0.4529086;-0.7220173;-0.1288089;-0.5069252;-7;14;-21;1312;3464;2045;256;0.3116343;-0.3698061;-0.5443213;-0.6854501;-3;7;-3;-9;4190;-913;128;-0.01523546;0.1523546;0.5415512;0.8266065;13;-5;-2;-613;3703;1714;4;-0.6038781;0.1772853;-0.4044321;-0.663578;-2;1;0;2411;3076;242;16;0.7179046;-0.6869806;0.03601108;-0.1066482;2;9;0;715;4030;-48;2;0.4792244;-0.6548523;-0.4432133;-0.3808864;0;0;0;921;3832;-499;8;0.4293629;-0.8424242;0.2188366;0.2409972;0;0;0;629;3207;2295;-0.1625513;2.456149;1.06961;-0.1566615;2.992896;1.167024;-0.1514803;3.465057;1.250661;-0.1680512;4.181509;1.408411;-0.4342317;4.502157;1.44128;-0.7719653;4.343786;1.472803;-0.911765;4.90714;0.7507116;-0.4770366;4.940678;1.59195;0.08597291;4.514191;1.44128;0.3782963;4.370396;1.472802;0.2868035;3.493612;1.861587;-0.07913291;2.749537;1.403078;-0.4747828;2.416167;1.053953;0.08192772;1.31753;0.2640612;0;0;0;-0.4747828;2.416167;1.053953;0.08192772;1.31753;0.2640612;0;0;0
1072820.6386;NotLabelled;NONE;16384;0.7724845;0.4861496;0.3518005;0.2077562;-6;9;-11;2892;-2584;1739;65536;-0.6121883;-0.3421052;0.6495934;0.2936288;-14;-13;16;4301;6;-2051;8192;0.567867;-0.6784244;-0.4390582;-0.1565097;18;0;7;2218;3645;-9;32768;0.4529086;-0.7224888;-0.1315789;-0.5055401;4;8;-15;2032;3466;1987;256;0.3116343;-0.368421;-0.5443213;-0.6861956;-12;-1;-4;-593;5154;-1041;128;-0.01523546;0.1523546;0.5443213;0.824785;19;1;-2;-623;3939;1500;4;-0.602493;0.1772853;-0.4044321;-0.6648359;-2;-3;1;2513;3050;114;16;0.7179727;-0.6869806;0.03462604;-0.1066482;2;3;0;1103;4004;-40;2;0.4792244;-0.6548523;-0.4432133;-0.3808864;0;-1;1;1015;3854;-441;8;0.4279778;-0.8431286;0.2188366;0.2409972;0;-2;0;697;3193;2191;-0.1649722;2.456266;1.068389;-0.1590752;2.99367;1.162109;-0.1538878;3.466396;1.242496;-0.171547;4.183098;1.398988;-0.4382127;4.503402;1.431283;-0.775708;4.344576;1.46307;-0.9170425;4.905614;0.7394754;-0.4812256;4.942775;1.579998;0.08197325;4.516222;1.431283;0.3745119;4.372922;1.46307;0.2747302;3.497425;1.852716;-0.09655893;2.754008;1.397456;-0.477205;2.416178;1.053031;0.0810954;1.317542;0.2642625;0;0;0;-0.477205;2.416178;1.053031;0.0810954;1.317542;0.2642625;0;0;0
1072840.8899;NotLabelled;NONE;16384;0.7724597;0.4847645;0.3545706;0.2063712;-6;17;-11;2700;-2532;1723;65536;-0.6163435;-0.3393352;0.6477391;0.2922437;-22;-26;26;4485;-12;-1757;8192;0.5650969;-0.6798382;-0.4404432;-0.1565097;20;1;11;1894;3387;85;32768;0.4542936;-0.7232981;-0.132964;-0.5027701;16;2;-19;106;3176;1101;256;0.3130194;-0.368421;-0.5443213;-0.6855648;0;-1;-1;91;2964;-673;128;-0.01523546;0.1523546;0.5457063;0.8238692;11;-2;-1;-603;3545;1856;4;-0.602493;0.1772853;-0.4058172;-0.6639913;-2;-6;1;2445;3038;118;16;0.7177656;-0.6869806;0.03462604;-0.1080332;2;-3;0;1035;3916;-110;2;0.4792244;-0.6548523;-0.4432133;-0.3808864;0;-4;0;959;3912;-441;8;0.4279778;-0.8427679;0.2202216;0.2409972;0;-3;0;651;3325;2177;-0.1652648;2.45766;1.065214;-0.1593609;2.995673;1.155375;-0.1541679;3.46892;1.232632;-0.1732411;4.185584;1.389132;-0.4405382;4.50536;1.421431;-0.7777197;4.345869;1.453216;-0.927646;4.905917;0.7305838;-0.4855176;4.941329;1.56788;0.07962143;4.519207;1.42143;0.3724422;4.376485;1.453216;0.2668559;3.502076;1.843775;-0.1057511;2.755938;1.394075;-0.4774985;2.417472;1.050144;0.08009245;1.318065;0.2619466;0;0;0;-0.4774985;2.417472;1.050144;0.08009245;1.318065;0.2619466;0;0;0
1072861.7782;NotLabelled;NONE;16384;0.7719181;0.4847645;0.3573407;0.2036011;-4;26;-11;2676;-2546;1649;65536;-0.6232687;-0.33518;0.6445118;0.2894737;-27;-45;40;4693;186;-2193;8192;0.5623268;-0.6821312;-0.4404432;-0.1565097;24;0;6;1452;3285;-91;32768;0.4529086;-0.722591;-0.1412742;-0.5027701;21;50;-27;-614;2418;937;256;0.3144044;-0.3698061;-0.5457063;-0.6830797;-6;9;0;131;3782;-643;128;-0.01523546;0.1537396;0.5470914;0.8226925;4;1;-1;-685;3611;1370;4;-0.599723;0.1745152;-0.4058172;-0.667225;1;-16;0;2723;3098;72;16;0.7179046;-0.6869806;0.03601108;-0.1066482;3;-5;0;763;3954;80;2;0.4792244;-0.655656;-0.4432133;-0.3795014;0;-5;1;903;3962;-519;8;0.4279778;-0.8427679;0.2202216;0.2409972;0;-4;0;703;3369;2217;-0.1617171;2.45889;1.066941;-0.15581;2.997199;1.155319;-0.1506141;3.470699;1.231008;-0.1707746;4.187607;1.386243;-0.4385548;4.507037;1.417966;-0.7754972;4.347094;1.450017;-0.9259024;4.904978;0.7258123;-0.4783067;4.942581;1.560103;0.0815832;4.521667;1.417966;0.3746169;4.379443;1.450016;0.2623571;3.506716;1.842474;-0.1093755;2.757357;1.397432;-0.4739515;2.418652;1.052016;0.08091763;1.317553;0.2642596;0;0;0;-0.4739515;2.418652;1.052016;0.08091763;1.317553;0.2642596;0;0;0
1072881.619;NotLabelled;NONE;16384;0.7715776;0.4833795;0.3614958;0.200831;-2;37;-13;2686;-2568;1595;65536;-0.6315789;-0.3296399;0.6417378;0.2839335;-25;-56;46;3529;84;-2229;8192;0.5581717;-0.6851365;-0.4390582;-0.1620499;19;-1;-15;978;3269;181;32768;0.4515235;-0.7225392;-0.1551246;-0.5;15;-3;-41;1490;3482;2127;256;0.3157895;-0.3711911;-0.5484765;-0.6794614;-34;-20;19;-237;4008;-819;128;-0.01523546;0.1537396;0.5484765;0.8217698;12;9;-2;-677;3843;1324;4;-0.5983379;0.1745152;-0.4058172;-0.6684673;0;-10;0;2725;3088;248;16;0.7180381;-0.6869806;0.03739612;-0.1052632;3;-9;1;895;4014;-30;2;0.4806094;-0.6563767;-0.4418283;-0.3781163;1;-5;0;921;4034;-647;8;0.4279778;-0.8420073;0.2216066;0.2423823;1;-4;0;673;3349;2207;-0.1683436;2.456468;1.066509;-0.1624334;2.995058;1.153153;-0.157235;3.4688;1.227316;-0.1758401;4.1865;1.379051;-0.4429221;4.506667;1.409179;-0.7802189;4.347623;1.441962;-0.9311435;4.905794;0.7180877;-0.4757625;4.948112;1.547927;0.0772472;4.520155;1.409178;0.3699639;4.377445;1.441962;0.2492714;3.505891;1.834519;-0.1185302;2.751119;1.395395;-0.4805785;2.416182;1.051724;0.0800184;1.317542;0.2645907;0;0;0;-0.4805785;2.416182;1.051724;0.0800184;1.317542;0.2645907;0;0;0
1072902.6219;NotLabelled;NONE;16384;0.7720026;0.4792244;0.3698061;0.1939058;8;31;-9;2684;-2678;1259;65536;0.6452733;0.3213296;-0.6371191;-0.2728532;7;-29;21;513;-290;-3201;8192;0.5581717;-0.6862444;-0.4362881;-0.1648199;12;-13;-11;1162;3781;413;32768;0.4529086;-0.7251814;-0.1565097;-0.4944598;6;-29;-39;1814;3578;2619;256;0.3185596;-0.3753462;-0.5470914;-0.6769978;-1;-27;13;297;3392;-1493;128;-0.01385042;0.1537396;0.5498615;0.8208683;4;-5;-3;-603;3313;2390;4;-0.5983379;0.1745152;-0.4058172;-0.6684673;-2;-4;0;2647;3098;326;16;0.7193608;-0.6855956;0.03739612;-0.1052632;4;-9;1;979;4058;-106;2;0.4792244;-0.6573886;-0.4418283;-0.3781163;2;-5;0;883;3964;-535;8;0.4279778;-0.8416415;0.2229917;0.2423823;2;-5;0;723;3383;2233;-0.1739987;2.457274;1.062202;-0.1680855;2.996149;1.147056;-0.1628843;3.470134;1.219644;-0.1786717;4.189092;1.365633;-0.4444879;4.510546;1.393146;-0.7824183;4.353106;1.42713;-0.9340799;4.909277;0.7018704;-0.4705957;4.9585;1.526829;0.07573056;4.521973;1.393146;0.3678736;4.37837;1.42713;0.2337148;3.504814;1.810766;-0.1305481;2.739604;1.387031;-0.4862342;2.416939;1.047562;0.07911965;1.317531;0.2649161;0;0;0;-0.4862342;2.416939;1.047562;0.07911965;1.317531;0.2649161;0;0;0
1072923.7541;NotLabelled;NONE;16384;0.7733979;0.4764543;0.3711911;0.1925208;16;13;-6;2700;-2692;1309;65536;0.6451663;0.3227147;-0.6371191;-0.2714681;19;-1;0;1689;-338;-2907;8192;0.5581717;-0.6879977;-0.433518;-0.1648199;10;-17;-8;1612;4269;615;32768;0.4556787;-0.7287188;-0.1537396;-0.4875346;-7;-50;-37;1304;3972;3161;256;0.3185596;-0.3781163;-0.5498615;-0.6732014;-2;3;2;59;3678;-1007;128;-0.01523546;0.1551246;0.5498615;0.8205831;10;-4;-2;-545;3701;1998;4;-0.5983379;0.1731302;-0.4072022;-0.667985;-3;0;-1;2687;3040;256;16;0.7192874;-0.6855956;0.03878116;-0.1052632;4;-7;0;897;4010;-152;2;0.4792244;-0.6573886;-0.4418283;-0.3781163;1;-2;1;935;3926;-651;8;0.4279778;-0.8416415;0.2229917;0.2423823;1;-6;0;607;3327;2159;-0.1905293;2.457083;1.058823;-0.1846132;2.996217;1.142011;-0.1794096;3.470425;1.213135;-0.1942608;4.189475;1.358766;-0.4596542;4.511293;1.386091;-0.7977962;4.354319;1.420116;-0.9382544;4.908821;0.691332;-0.4660165;4.972299;1.510331;0.06057906;4.522032;1.386141;0.3525281;4.37806;1.420228;0.207536;3.500706;1.791039;-0.1552883;2.731661;1.373048;-0.5027653;2.416703;1.044319;0.07154854;1.317294;0.2682236;0;0;0;-0.5027653;2.416703;1.044319;0.07154854;1.317294;0.2682236;0;0;0
1072945.6159;NotLabelled;NONE;16384;0.7745665;0.4750692;0.3698061;0.1939058;20;-4;-5;2622;-2434;1535;65536;0.6442617;0.3240997;-0.6385041;-0.2686981;28;5;-17;1863;-436;-3137;8192;0.5581717;-0.6905984;-0.4293629;-0.1648199;11;-32;-7;1580;4453;745;32768;0.4556787;-0.732971;-0.1509695;-0.4819945;-16;-21;-25;572;3954;2793;256;0.3171745;-0.3767313;-0.5498615;-0.6746305;-1;18;-4;281;3844;-573;128;-0.0166205;0.1551246;0.5498615;0.8205562;6;-5;0;-599;3825;1524;4;-0.5983379;0.1731302;-0.4072022;-0.667985;-3;0;0;2701;3040;310;16;0.7208061;-0.6842105;0.03878116;-0.1038781;4;0;1;789;4016;-290;2;0.4792244;-0.6583174;-0.4404432;-0.3781163;1;-4;0;903;3970;-597;8;0.4279778;-0.8416415;0.2229917;0.2423823;1;-4;0;593;3425;2199;-0.1895999;2.456266;1.062182;-0.1836838;2.995412;1.145297;-0.17848;3.469629;1.216355;-0.1879028;4.189664;1.35751;-0.4508597;4.51364;1.382823;-0.7901762;4.359436;1.417814;-0.9332865;4.90941;0.68612;-0.4666071;4.976188;1.508037;0.06943965;4.520452;1.382823;0.3602946;4.374496;1.417814;0.2159651;3.497305;1.789272;-0.1494159;2.726013;1.3777;-0.5018359;2.415884;1.047684;0.07186002;1.316766;0.2707209;0;0;0;-0.5018359;2.415884;1.047684;0.07186002;1.316766;0.2707209;0;0;0
1072965.6279;NotLabelled;NONE;16384;0.7747163;0.4736842;0.3698061;0.1966759;21;-17;-3;2712;-2486;1705;65536;-0.6385041;-0.3268698;0.6434379;0.267313;32;2;-22;3413;-220;-3051;8192;0.5581717;-0.6938174;-0.4252077;-0.1620499;7;-40;-6;2090;4139;465;32768;0.4529086;-0.735307;-0.1523546;-0.4806094;-13;19;-12;650;3756;2119;256;0.3157895;-0.3753462;-0.5512465;-0.6749219;-9;14;-2;-131;4310;-955;128;-0.0166205;0.1565097;0.5498615;0.8202931;3;0;0;-645;3907;1688;4;-0.5969529;0.1731302;-0.4072022;-0.6692231;1;-7;-1;2707;2952;146;16;0.7219176;-0.6828254;0.03878116;-0.1052632;5;1;2;927;4022;-104;2;0.4792244;-0.6583174;-0.4404432;-0.3781163;1;-4;0;779;4016;-607;8;0.4279778;-0.8412734;0.2243767;0.2423823;1;-2;0;649;3563;2079;-0.1907075;2.456529;1.064656;-0.184791;2.995696;1.147639;-0.1795871;3.46993;1.218582;-0.189414;4.189704;1.36103;-0.4525534;4.513486;1.38693;-0.791782;4.359026;1.42165;-0.9374974;4.907767;0.6895438;-0.4716606;4.978322;1.511624;0.06774199;4.520592;1.386933;0.3586799;4.374738;1.421657;0.2149417;3.496003;1.789678;-0.160299;2.725183;1.386171;-0.5029435;2.416144;1.050169;0.06726038;1.317026;0.2706389;0;0;0;-0.5029435;2.416144;1.050169;0.06726038;1.317026;0.2706389;0;0;0
1072986.6162;NotLabelled;NONE;16384;0.7758124;0.4722992;0.367036;0.200831;22;-17;0;2606;-2340;1921;65536;-0.6357341;-0.3282548;0.6466127;0.2645429;29;-7;-12;4307;-350;-2433;8192;0.5581717;-0.6978204;-0.4196676;-0.1592798;6;-6;0;2562;3579;-435;32768;0.4501385;-0.7337231;-0.1592798;-0.4833795;4;18;2;1278;3498;1689;256;0.3171745;-0.3753462;-0.5512465;-0.6742721;0;3;-2;-181;4066;-1105;128;-0.0166205;0.1565097;0.5512465;0.819363;7;5;0;-615;3885;1736;4;-0.5969529;0.1731302;-0.4072022;-0.6692231;1;-7;-3;2779;2940;208;16;0.7219176;-0.6828254;0.03878116;-0.1052632;4;0;3;987;4060;-208;2;0.4806094;-0.6582329;-0.4390582;-0.3781163;0;-3;0;803;3988;-637;8;0.4293629;-0.8405674;0.2243767;0.2423823;0;0;0;761;3433;2155;-0.1903578;2.456512;1.069545;-0.1844415;2.995671;1.152581;-0.1792378;3.469898;1.22357;-0.1882012;4.189872;1.365065;-0.4509518;4.514003;1.390533;-0.7903659;4.359999;1.425453;-0.9350517;4.904806;0.690212;-0.4789348;4.974352;1.517809;0.06935185;4.520485;1.390532;0.360114;4.374327;1.425452;0.2139565;3.495836;1.793102;-0.1692255;2.725994;1.395229;-0.5025938;2.416128;1.055053;0.0652942;1.316237;0.2749245;0;0;0;-0.5025938;2.416128;1.055053;0.0652942;1.316237;0.2749245;0;0;0
1073006.7275;NotLabelled;NONE;16384;0.7778954;0.468144;0.365651;0.2049861;19;0;-1;2750;-2356;2159;65536;-0.634349;-0.33518;0.6466632;0.2590028;2;-2;30;4975;-600;-1289;8192;0.5567867;-0.6980925;-0.4210526;-0.1592798;3;10;-1;2062;3587;-289;32768;0.4529086;-0.7314003;-0.1578947;-0.4847645;4;-20;9;1832;3462;2033;256;0.3171745;-0.3753462;-0.5526316;-0.6731374;-12;-9;5;-159;3690;-627;128;-0.0166205;0.1565097;0.5512465;0.819363;-1;3;-1;-559;3847;1730;4;-0.5955678;0.1731302;-0.4072022;-0.670456;0;-4;-4;2743;3058;174;16;0.7219176;-0.6828254;0.03878116;-0.1052632;4;7;3;551;3928;-276;2;0.4806094;-0.6582329;-0.4390582;-0.3781163;0;-3;0;785;3984;-649;8;0.4293629;-0.8405674;0.2243767;0.2423823;0;-1;0;731;3465;2195;-0.1925071;2.45656;1.068372;-0.1865878;2.995992;1.149612;-0.1813814;3.470454;1.219023;-0.1913978;4.190663;1.359233;-0.4546211;4.514457;1.384117;-0.7938115;4.36002;1.419304;-0.9316871;4.901981;0.6806588;-0.4856704;4.973267;1.513596;0.06567252;4.521696;1.384116;0.3566464;4.376025;1.419304;0.2065025;3.497233;1.784618;-0.1741986;2.725459;1.388109;-0.5047436;2.416128;1.054026;0.06473369;1.316237;0.275057;0;0;0;-0.5047436;2.416128;1.054026;0.06473369;1.316237;0.275057;0;0;0
1073026.7791;NotLabelled;NONE;16384;0.7797304;0.4639889;0.367036;0.2049861;13;20;-6;2568;-2206;2569;65536;-0.6398892;-0.333795;0.6430144;0.2562327;-8;-19;43;4725;-412;-2655;8192;0.5567867;-0.6977751;-0.4210526;-0.1606648;0;10;-4;1494;3653;89;32768;0.4542936;-0.7314266;-0.1537396;-0.4847645;0;-19;12;936;3080;2293;256;0.3185596;-0.3795014;-0.5540166;-0.6690024;-7;0;2;289;3978;-1091;128;-0.0166205;0.1565097;0.5512465;0.819363;4;-3;-2;-591;3713;1822;4;-0.5955678;0.1731302;-0.4085872;-0.6696128;0;-1;-5;2761;3120;158;16;0.7230952;-0.6814404;0.03739612;-0.1066482;6;9;3;671;3976;-120;2;0.4806094;-0.6591547;-0.4376731;-0.3781163;0;-6;0;857;4038;-629;8;0.4293629;-0.8405674;0.2243767;0.2423823;0;0;0;721;3455;2223;-0.1936985;2.457328;1.066418;-0.1877792;2.996759;1.147658;-0.1825728;3.47122;1.217068;-0.1913272;4.191882;1.355031;-0.4539813;4.516214;1.378894;-0.7934442;4.362484;1.414548;-0.9242026;4.897976;0.6699147;-0.4866259;4.98349;1.505983;0.06632411;4.522537;1.378894;0.35704;4.376465;1.414548;0.2044609;3.498824;1.781617;-0.1700769;2.726045;1.381213;-0.5059351;2.416896;1.052072;0.06472968;1.316237;0.2750582;0;0;0;-0.5059351;2.416896;1.052072;0.06472968;1.316237;0.2750582;0;0;0
1073047.698;NotLabelled;NONE;16384;0.7807876;0.4612188;0.3698061;0.2022161;6;29;-6;2664;-2328;2305;65536;0.6481047;0.33241;-0.6371191;-0.2520775;-4;-37;52;3505;-292;-2941;8192;0.5567867;-0.6966167;-0.4224377;-0.1620499;-1;8;-9;1238;3803;157;32768;0.4542936;-0.7317163;-0.1523546;-0.4847645;-2;-7;2;-14;3010;2319;256;0.3199446;-0.3795014;-0.5540166;-0.668341;-7;-3;-2;-9;4214;-691;128;-0.0166205;0.1565097;0.5512465;0.819363;2;1;0;-673;3907;1504;4;-0.5955678;0.1745152;-0.4085872;-0.6692532;0;1;-5;2781;3086;178;16;0.7240549;-0.6800554;0.03601108;-0.1094183;4;18;3;1155;3940;-414;2;0.4806094;-0.6591547;-0.4376731;-0.3781163;1;-6;0;923;4072;-593;8;0.4293629;-0.8405674;0.2243767;0.2423823;0;1;0;603;3363;2115;-0.2041065;2.458758;1.064749;-0.1981871;2.99819;1.14599;-0.1929808;3.472651;1.2154;-0.1971165;4.194024;1.349813;-0.4576855;4.520147;1.372064;-0.7981285;4.368775;1.408454;-0.9111273;4.899325;0.6574037;-0.4722712;4.991844;1.492055;0.06264973;4.523133;1.372063;0.3524217;4.375378;1.408453;0.1928287;3.496951;1.770629;-0.1775036;2.726047;1.36277;-0.5163429;2.418326;1.050404;0.05730328;1.315958;0.2780223;0;0;0;-0.5163429;2.418326;1.050404;0.05730328;1.315958;0.2780223;0;0;0
1073068.6223;NotLabelled;NONE;16384;0.7824725;0.4584487;0.3711911;0.199446;6;31;-4;2702;-2296;1877;65536;0.6548582;0.3296399;-0.634349;-0.2451524;0;-31;48;2301;-108;-3177;8192;0.5581717;-0.6965327;-0.4196676;-0.1648199;5;-6;-15;878;3697;-187;32768;0.4542936;-0.7311341;-0.1551246;-0.4847645;5;8;-14;-368;3030;1623;256;0.3227147;-0.3795014;-0.5540166;-0.6670079;-10;-9;-1;-61;4262;-951;128;-0.0166205;0.1565097;0.5526316;0.8184295;7;1;0;-665;3869;1570;4;-0.5955678;0.1745152;-0.4085872;-0.6692532;-2;3;-2;2817;3016;194;16;0.7235473;-0.6800554;0.033241;-0.1135734;6;17;3;931;4068;-68;2;0.4806094;-0.6591547;-0.4376731;-0.3781163;0;-5;0;905;3986;-571;8;0.4293629;-0.8409358;0.2229917;0.2423823;0;0;0;691;3447;2215;-0.2098883;2.459932;1.065293;-0.2039691;2.999364;1.146534;-0.1987627;3.473825;1.215944;-0.2039319;4.195432;1.349061;-0.4649673;4.521221;1.370722;-0.805194;4.369429;1.407381;-0.9235407;4.897722;0.6555638;-0.4728274;5.001616;1.482522;0.05536306;4.524952;1.370722;0.3453457;4.377676;1.407381;0.1891519;3.498926;1.770254;-0.181084;2.729045;1.36038;-0.5221248;2.4195;1.050948;0.05317212;1.315149;0.2826383;0;0;0;-0.5221248;2.4195;1.050948;0.05317212;1.315149;0.2826383;0;0;0
1073088.7306;NotLabelled;NONE;16384;0.7834721;0.4556787;0.3739612;0.1966759;12;30;-4;2480;-2586;1733;65536;0.6590645;0.3296399;-0.6315789;-0.2409972;8;-13;31;905;-658;-3037;8192;0.5581717;-0.7016271;-0.4099723;-0.16759;13;-31;-14;1170;3947;-287;32768;0.4529086;-0.7365426;-0.1592798;-0.4764543;-2;-19;-43;292;3556;2705;256;0.3240997;-0.3808864;-0.5540166;-0.6655453;-6;-5;4;297;3432;-597;128;-0.0166205;0.1565097;0.5526316;0.8184295;0;-6;-1;-647;3679;1776;4;-0.5955678;0.1745152;-0.4085872;-0.6692532;-2;1;0;2775;3118;164;16;0.7244694;-0.6786703;0.03185596;-0.1163435;5;6;2;1267;3972;-210;2;0.4806094;-0.6591547;-0.4376731;-0.3781163;0;-2;0;957;4060;-589;8;0.4293629;-0.8409358;0.2229917;0.2423823;1;1;0;639;3377;2233;-0.2135616;2.459495;1.065119;-0.2076392;2.999194;1.144561;-0.2024303;3.473884;1.212389;-0.2096553;4.19595;1.342896;-0.4716164;4.521072;1.363372;-0.8114117;4.368446;1.400571;-0.9241723;4.895546;0.647059;-0.4685656;5.009903;1.469945;0.04870135;4.526282;1.363372;0.3391;4.379964;1.400571;0.1827248;3.498068;1.755649;-0.1843519;2.726143;1.346779;-0.5257986;2.419015;1.05092;0.05265274;1.314663;0.2849827;0;0;0;-0.5257986;2.419015;1.05092;0.05265274;1.314663;0.2849827;0;0;0
1073129.6468;NotLabelled;NONE;16384;0.7860084;0.4501385;0.3753462;0.1966759;16;-1;-2;2764;-2398;2079;65536;0.6590441;0.3310249;-0.632964;-0.2354571;10;-8;-12;3017;-320;-2761;8192;0.5595568;-0.7048582;-0.4030471;-0.166205;10;-24;-3;1938;3591;27;32768;0.4487534;-0.74546;-0.166205;-0.4639889;-2;5;-45;-120;3584;2499;256;0.3240997;-0.3822715;-0.5567867;-0.6624323;-5;2;5;-35;4078;-949;128;-0.0166205;0.1578947;0.5526316;0.8181635;5;2;0;-617;3919;1506;4;-0.5955678;0.1745152;-0.4099723;-0.6684057;-4;0;-2;2493;2972;178;16;0.7256005;-0.6772853;0.03047091;-0.1177285;5;5;0;591;4056;-202;2;0.4806094;-0.6591547;-0.4376731;-0.3781163;0;-1;0;903;3994;-577;8;0.4307479;-0.8402272;0.2229917;0.2423823;2;0;0;731;3281;2167;-0.2218857;2.458668;1.06714;-0.2159635;2.998367;1.146581;-0.2107546;3.473057;1.214409;-0.2175232;4.195364;1.3436;-0.4792781;4.520689;1.36348;-0.8191708;4.368348;1.40095;-0.9284064;4.893167;0.6453307;-0.4712588;5.016411;1.466077;0.0410428;4.525569;1.36348;0.3313479;4.379134;1.40095;0.1669962;3.492695;1.740788;-0.2085127;2.71674;1.347501;-0.5341228;2.418188;1.05294;0.04777715;1.313836;0.2896198;0;0;0;-0.5341228;2.418188;1.05294;0.04777715;1.313836;0.2896198;0;0;0
1073150.6306;NotLabelled;NONE;16384;0.7864524;0.4487534;0.3753462;0.1980609;15;1;-5;2504;-2350;2139;65536;0.657069;0.3296399;-0.6357341;-0.2354571;8;-12;-9;3143;-192;-2529;8192;0.5581717;-0.7073902;-0.4016621;-0.1634349;16;-24;1;2242;3733;-21;32768;0.4473684;-0.7467545;-0.1717452;-0.4612188;0;14;-39;486;3800;2141;256;0.3240997;-0.3822715;-0.5567867;-0.6624323;-5;2;1;-5;4012;-701;128;-0.0166205;0.1578947;0.5554016;0.8162856;3;1;0;-629;3817;1526;4;-0.5955678;0.1745152;-0.4099723;-0.6684057;2;-10;0;2675;2960;76;16;0.7253744;-0.6772853;0.03047091;-0.1191136;5;4;2;943;4004;-28;2;0.4806094;-0.6591547;-0.4376731;-0.3781163;0;-1;0;833;3908;-623;8;0.4307479;-0.8402272;0.2229917;0.2423823;2;-1;-1;735;3373;2141;-0.225025;2.460043;1.068828;-0.2191029;2.999734;1.148323;-0.2138941;3.474417;1.216198;-0.2165697;4.197545;1.340868;-0.4764762;4.524468;1.358698;-0.817228;4.374293;1.3971;-0.9190812;4.892675;0.6360255;-0.4689032;5.023649;1.459422;0.04386419;4.526396;1.358697;0.3333333;4.378556;1.3971;0.1672062;3.490096;1.730741;-0.225697;2.710032;1.363432;-0.5372621;2.419565;1.054625;0.04221962;1.313517;0.2919203;0;0;0;-0.5372621;2.419565;1.054625;0.04221962;1.313517;0.2919203;0;0;0
1073170.7969;NotLabelled;NONE;16384;0.7880266;0.4459834;0.3753462;0.1980609;15;3;-7;2424;-2326;2115;65536;0.6562218;0.3296399;-0.6371191;-0.234072;3;-11;-1;3459;-392;-2375;8192;0.5567867;-0.7103616;-0.398892;-0.1620499;14;-20;4;2234;3767;-87;32768;0.4459834;-0.7483199;-0.1759003;-0.4584487;4;10;-32;850;3850;1899;256;0.3240997;-0.3836565;-0.5581717;-0.660463;-9;-5;4;-51;3928;-809;128;-0.0166205;0.1578947;0.5554016;0.8162856;5;5;0;-585;3723;1520;4;-0.5941828;0.1745152;-0.4099723;-0.6696372;4;-13;0;2663;3130;168;16;0.7266651;-0.6759003;0.03047091;-0.1191136;4;-2;2;1121;3824;14;2;0.4806094;-0.6591547;-0.4376731;-0.3781163;0;-2;0;769;3942;-731;8;0.4307479;-0.8402272;0.2229917;0.2423823;1;-1;0;667;3355;2047;-0.2237763;2.459611;1.070709;-0.2178484;2.999822;1.146597;-0.2126348;3.474948;1.211299;-0.2153103;4.198074;1.335969;-0.4752168;4.524998;1.353799;-0.8159686;4.374823;1.392201;-0.9163721;4.890593;0.6291612;-0.4702369;5.017366;1.455411;0.04512364;4.526926;1.353798;0.3345925;4.379086;1.392201;0.1645871;3.492395;1.728584;-0.2310643;2.709222;1.370971;-0.5360143;2.419039;1.056799;0.0434674;1.312991;0.2940948;0;0;0;-0.5360143;2.419039;1.056799;0.0434674;1.312991;0.2940948;0;0;0
1073191.9456;NotLabelled;NONE;16384;0.788928;0.4432133;0.3767313;0.1980609;15;8;-7;2298;-2250;2187;65536;0.6569157;0.3282548;-0.6371191;-0.234072;-2;-21;3;3373;-446;-2293;8192;0.5554016;-0.7120703;-0.398892;-0.1592798;0;3;2;2010;3855;-5;32768;0.4473684;-0.7498769;-0.1800554;-0.4529086;5;-2;-16;858;3760;1849;256;0.3254848;-0.3836565;-0.5581717;-0.6597815;-10;-8;6;27;3994;-781;128;-0.0166205;0.1565097;0.5567867;0.8156084;1;6;1;-617;3637;1692;4;-0.5914127;0.1745152;-0.4113573;-0.6712381;0;-2;-5;2503;2980;372;16;0.7268315;-0.6759003;0.03185596;-0.1177285;6;-9;1;959;3944;-148;2;0.4806094;-0.6591547;-0.4376731;-0.3781163;0;-2;0;875;3870;-683;8;0.4307479;-0.8398584;0.2243767;0.2423823;0;-1;0;753;3407;2043;-0.2320475;2.460025;1.069611;-0.2261196;3.000236;1.145498;-0.220906;3.475362;1.2102;-0.2207745;4.198881;1.332604;-0.47941;4.526864;1.349406;-0.8207422;4.378134;1.388274;-0.9152535;4.891165;0.6226404;-0.474125;5.018464;1.451493;0.04093391;4.526773;1.349405;0.3298269;4.377931;1.388273;0.1541018;3.491907;1.723469;-0.2441171;2.706663;1.373325;-0.5442855;2.419453;1.055701;0.0381965;1.312635;0.2964069;0;0;0;-0.5442855;2.419453;1.055701;0.0381965;1.312635;0.2964069;0;0;0
1073232.9015;NotLabelled;NONE;16384;0.7907908;0.4362881;0.3808864;0.1980609;16;7;-6;2508;-2332;1891;65536;0.6603425;0.3227147;-0.6398892;-0.2243767;13;-15;0;2595;-484;-3411;8192;0.5567867;-0.7094266;-0.4016621;-0.1592798;-9;9;0;1570;4075;-123;32768;0.4487534;-0.750047;-0.1828255;-0.4501385;6;-4;-18;246;3628;2361;256;0.3268698;-0.3864266;-0.5595568;-0.6562979;-8;-9;4;139;3992;-799;128;-0.01523546;0.1551246;0.5581717;0.8149531;8;1;1;-661;3743;1608;4;-0.5914127;0.1745152;-0.4127424;-0.6703873;-1;-2;-3;2803;3096;302;16;0.7282132;-0.6745152;0.03462604;-0.1163435;7;-17;0;1183;3904;-154;2;0.4806094;-0.6600722;-0.4362881;-0.3781163;0;-2;-1;793;3864;-711;8;0.4307479;-0.8390861;0.2257618;0.2437673;0;-6;-1;719;3391;2167;-0.2318951;2.463276;1.065233;-0.2259644;3.003745;1.139259;-0.2207484;3.479091;1.202325;-0.2216199;4.202832;1.323408;-0.4807099;4.530487;1.339611;-0.8218356;4.381355;1.378751;-0.9132795;4.890571;0.6102028;-0.4722563;5.016578;1.43931;0.03963357;4.531116;1.339611;0.3287327;4.382746;1.378751;0.1493314;3.498935;1.717821;-0.2492571;2.708688;1.379555;-0.5441337;2.422657;1.051474;0.03788532;1.312612;0.2965476;0;0;0;-0.5441337;2.422657;1.051474;0.03788532;1.312612;0.2965476;0;0;0
1073276.2898;NotLabelled;NONE;16384;0.7912055;0.434903;0.3808864;0.199446;21;-1;-5;2464;-2096;1877;65536;0.6599342;0.3227147;-0.6412742;-0.2216066;22;-11;-1;2621;-512;-3423;8192;0.5567867;-0.7086406;-0.4030471;-0.1592798;-8;9;2;1412;3995;-179;32768;0.4487534;-0.7506797;-0.1869806;-0.4473684;5;4;-21;86;3610;2291;256;0.3296399;-0.3891967;-0.5595568;-0.6532685;-9;-10;-1;-13;4222;-701;128;-0.0166205;0.1551246;0.5595568;0.8139756;10;-1;1;-579;3819;1546;4;-0.5914127;0.1745152;-0.4141274;-0.6695326;-2;-2;-3;2739;3114;250;16;0.7295765;-0.6731302;0.03739612;-0.1149584;6;-14;0;1069;3898;-524;2;0.4806094;-0.6592769;-0.4362881;-0.3795014;0;-4;0;751;3860;-735;8;0.4307479;-0.8387122;0.2271468;0.2437673;0;-8;-2;729;3445;2203;-0.237609;2.464063;1.066597;-0.2316756;3.004767;1.138889;-0.2264574;3.480313;1.200428;-0.2239888;4.204643;1.317914;-0.4815642;4.533566;1.332487;-0.8233737;4.386205;1.372366;-0.9070687;4.885272;0.5963134;-0.4721008;5.017004;1.427726;0.03877664;4.531795;1.332487;0.3271888;4.382289;1.372365;0.1503811;3.498538;1.712948;-0.2446975;2.704759;1.378857;-0.549848;2.423399;1.05298;0.03312013;1.311662;0.3012841;0;0;0;-0.549848;2.423399;1.05298;0.03312013;1.311662;0.3012841;0;0;0
1073297.6271;NotLabelled;NONE;16384;0.7927267;0.4307479;0.3795014;0.2049861;25;-14;-2;2600;-2172;2153;65536;0.6572558;0.3254848;-0.6454294;-0.2132964;29;-2;-7;2645;-704;-2975;8192;0.5581717;-0.7065843;-0.4058172;-0.1565097;-4;0;5;1858;3713;-91;32768;0.4487534;-0.750667;-0.1966759;-0.4432133;13;7;-14;890;3638;2029;256;0.33241;-0.3891967;-0.5609418;-0.6506718;-9;-5;-3;51;4050;-631;128;-0.01939058;0.1565097;0.5623268;0.8117372;10;-10;-1;-639;3813;1692;4;-0.5900277;0.1745152;-0.4155124;-0.6698964;0;-6;-3;2569;3038;46;16;0.7325522;-0.6703601;0.03739612;-0.1121884;7;-4;0;961;3962;-438;2;0.4806094;-0.6601914;-0.434903;-0.3795014;0;-4;0;665;4100;-623;8;0.4307479;-0.8383084;0.2271468;0.2451524;-1;-5;-2;547;3437;2019;-0.2455067;2.46482;1.066747;-0.2395707;3.005779;1.137097;-0.23435;3.481544;1.196928;-0.230821;4.206297;1.311746;-0.4879152;4.535647;1.325111;-0.8299389;4.388934;1.365537;-0.9050847;4.885326;0.5868988;-0.4808381;5.019587;1.423431;0.03242236;4.533116;1.325111;0.3206165;4.383336;1.365536;0.1415657;3.499996;1.706014;-0.2512764;2.703117;1.376701;-0.5577463;2.424108;1.053289;0.02770952;1.310689;0.3060279;0;0;0;-0.5577463;2.424108;1.053289;0.02770952;1.310689;0.3060279;0;0;0
1073338.7826;NotLabelled;NONE;16384;0.7962375;0.4238227;0.3753462;0.2132964;18;-7;-4;2660;-2034;2447;65536;-0.6495845;-0.3296399;0.6532905;0.2063712;12;-6;-5;3175;-848;-2999;8192;0.5581717;-0.7041816;-0.4099723;-0.1565097;-10;19;6;1948;3911;-55;32768;0.4501385;-0.7487351;-0.200831;-0.4432133;13;21;1;664;3564;2411;256;0.33518;-0.3878116;-0.5609418;-0.6500775;-7;0;0;43;3998;-733;128;-0.02077562;0.1578947;0.5637119;0.810473;9;-4;0;-651;3899;1464;4;-0.5872576;0.1745152;-0.4168975;-0.6714681;0;-8;-5;2669;3022;48;16;0.7352875;-0.66759;0.03739612;-0.1108033;8;2;2;791;3876;-246;2;0.4833795;-0.6607824;-0.432133;-0.3781163;0;-5;-1;913;3982;-565;8;0.4293629;-0.8382363;0.2285319;0.2465374;-1;-1;-1;655;3433;2219;-0.25815;2.467572;1.062839;-0.2522086;3.009017;1.12934;-0.2469834;3.485195;1.185787;-0.2440416;4.210721;1.295635;-0.5014039;4.539946;1.306751;-0.8433066;4.393235;1.348193;-0.9085178;4.881362;0.5634584;-0.5006433;5.025855;1.406404;0.01893574;4.537838;1.30675;0.3072529;4.388574;1.348191;0.1319308;3.506848;1.694739;-0.258955;2.70331;1.379584;-0.5703907;2.426765;1.049695;0.01497329;1.310898;0.3060235;0;0;0;-0.5703907;2.426765;1.049695;0.01497329;1.310898;0.3060235;0;0;0
1073379.8261;NotLabelled;NONE;16384;0.7973342;0.4210526;0.3753462;0.2146814;13;-5;-4;2648;-1950;2473;65536;-0.6495845;-0.3296399;0.6537264;0.2049861;9;-7;0;3127;-836;-3129;8192;0.5581717;-0.701746;-0.4141274;-0.1565097;-9;28;8;1860;3851;31;32768;0.4501385;-0.7463382;-0.2036011;-0.4459834;9;17;5;754;3478;2525;256;0.33518;-0.3891967;-0.5623268;-0.64805;-8;0;1;61;4090;-703;128;-0.02216066;0.1592798;0.5637119;0.8101653;8;-5;0;-627;3769;1526;4;-0.5858725;0.1745152;-0.4168975;-0.672677;0;-8;-4;2731;3024;60;16;0.7350774;-0.66759;0.03739612;-0.1121884;7;-3;1;1065;3918;-414;2;0.4833795;-0.6607824;-0.432133;-0.3781163;0;-3;0;987;3994;-619;8;0.4293629;-0.8378277;0.2285319;0.2479224;0;0;-1;663;3397;2237;-0.2681096;2.470428;1.06055;-0.2621657;3.012105;1.125141;-0.2569383;3.488479;1.179909;-0.2574505;4.214416;1.287042;-0.5163771;4.542451;1.29693;-0.857578;4.39427;1.338926;-0.9067427;4.870777;0.5459234;-0.5230411;5.021049;1.399146;0.003966689;4.542821;1.29693;0.292991;4.395087;1.338925;0.1195213;3.51467;1.68971;-0.2660351;2.70732;1.377748;-0.5803508;2.429575;1.047561;0.004202649;1.31049;0.3080994;0;0;0;-0.5803508;2.429575;1.047561;0.004202649;1.31049;0.3080994;0;0;0
1073400.6186;NotLabelled;NONE;16384;0.7976902;0.4196676;0.3753462;0.2160665;11;-4;-4;2682;-1958;2459;65536;-0.6495845;-0.3296399;0.6541591;0.2036011;10;-8;2;3013;-744;-3389;8192;0.5581717;-0.6989658;-0.4182825;-0.1578947;-7;25;7;1558;3757;-1;32768;0.4501385;-0.744676;-0.2036011;-0.4487534;6;6;6;602;3256;2221;256;0.3379501;-0.3891967;-0.5623268;-0.6466097;-8;-10;-5;-47;4394;-889;128;-0.0235457;0.1592798;0.567867;0.807219;17;-7;1;-597;3865;1676;4;-0.5844875;0.1745152;-0.4168975;-0.6738808;0;-4;-4;2731;3040;142;16;0.736471;-0.666205;0.03878116;-0.1108033;6;-8;0;1039;4010;-396;2;0.4833795;-0.6607824;-0.432133;-0.3781163;0;0;0;1007;3976;-573;8;0.4293629;-0.8378277;0.2285319;0.2479224;0;-1;-1;699;3399;2183;-0.2705895;2.470681;1.059263;-0.2646455;3.012369;1.123764;-0.259418;3.488752;1.178452;-0.2570319;4.215018;1.283302;-0.5146471;4.544114;1.292159;-0.8564363;4.397429;1.334618;-0.9001969;4.869739;0.5387937;-0.5196864;5.021556;1.393171;0.005694151;4.542408;1.292159;0.2941269;4.393654;1.334619;0.1222588;3.514583;1.689542;-0.258205;2.705882;1.374839;-0.5828307;2.429827;1.046282;0.004616186;1.309973;0.310284;0;0;0;-0.5828307;2.429827;1.046282;0.004616186;1.309973;0.310284;0;0;0
1073422.6245;NotLabelled;NONE;16384;0.7980064;0.4168975;0.3753462;0.2202216;0;-2;-2;2730;-1964;2513;65536;-0.6495845;-0.33241;0.6536134;0.200831;-6;3;6;2705;-924;-2819;8192;0.5567867;-0.6964143;-0.4238227;-0.1592798;0;7;1;1238;3287;-411;32768;0.4501385;-0.7426897;-0.2077562;-0.4501385;3;3;-2;894;2988;2697;256;0.3393352;-0.3891967;-0.5623268;-0.645884;-8;0;-1;221;3710;-369;128;-0.02770083;0.1620499;0.5692521;0.8055586;3;-14;0;-575;3607;1664;4;-0.5844875;0.1759003;-0.4168975;-0.6735206;5;-5;-5;2693;2976;-116;16;0.7394657;-0.6634349;0.04432133;-0.1052632;6;-33;1;913;3952;-388;2;0.4833795;-0.6607824;-0.432133;-0.3781163;0;-1;1;799;3998;-507;8;0.4293629;-0.8374166;0.2285319;0.2493075;0;-1;-1;623;3385;2127;-0.2803494;2.47106;1.056414;-0.2743984;3.013388;1.115289;-0.269165;3.490313;1.16503;-0.26869;4.216972;1.267143;-0.5271664;4.545424;1.274735;-0.8685748;4.398005;1.317716;-0.9038116;4.875835;0.5247673;-0.5281123;5.0292;1.380995;-0.006822586;4.545079;1.274791;0.281994;4.397243;1.317838;0.1093963;3.515113;1.66473;-0.2667233;2.706761;1.343967;-0.5925921;2.430073;1.043893;-0.0008798838;1.309458;0.3124841;0;0;0;-0.5925921;2.430073;1.043893;-0.0008798838;1.309458;0.3124841;0;0;0
1073443.7581;NotLabelled;NONE;16384;0.799109;0.4155124;0.3753462;0.2188366;-2;1;0;2712;-2072;2511;65536;-0.6509695;-0.33241;0.652234;0.200831;-10;-1;0;2427;-892;-2913;8192;0.5567867;-0.6964143;-0.4238227;-0.1592798;-1;5;1;1428;3469;-179;32768;0.4501385;-0.7422349;-0.2063712;-0.4515235;-1;-4;0;962;3078;2327;256;0.3393352;-0.3878116;-0.5650969;-0.6442975;-9;9;0;175;3770;-667;128;-0.02908587;0.1634349;0.5692521;0.8052298;4;-3;0;-581;3649;1458;4;-0.5831025;0.1772853;-0.4168975;-0.6743574;8;-11;-7;2659;2992;-84;16;0.7411137;-0.6620498;0.04709141;-0.101108;6;-33;2;733;3980;-540;2;0.4833795;-0.6615731;-0.432133;-0.3767313;-1;-2;0;833;3980;-677;8;0.4293629;-0.8370374;0.2299169;0.2493075;0;-2;-1;747;3433;2067;-0.2897688;2.471903;1.056724;-0.2838152;3.014465;1.113413;-0.2785796;3.491585;1.161231;-0.2790377;4.218438;1.261968;-0.5379394;4.546566;1.268966;-0.8791518;4.398787;1.312262;-0.9135917;4.861623;0.5104353;-0.5421257;5.02204;1.367218;-0.01759559;4.546897;1.268965;0.2714174;4.399518;1.312262;0.09951359;3.522811;1.67297;-0.2723395;2.712075;1.353252;-0.6020121;2.430866;1.044382;-0.008894414;1.308322;0.3170814;0;0;0;-0.6020121;2.430866;1.044382;-0.008894414;1.308322;0.3170814;0;0;0
1073484.6279;NotLabelled;NONE;16384;0.7983872;0.4168975;0.3753462;0.2188366;-6;2;0;2836;-1952;2355;65536;0.6539084;0.3282548;-0.6509695;-0.2022161;-11;2;0;2725;-776;-3491;8192;0.5554016;-0.6963578;-0.4252077;-0.1606648;4;0;-2;1692;3545;-225;32768;0.4501385;-0.7417748;-0.2049861;-0.4529086;1;1;7;1148;3312;2359;256;0.3365651;-0.3850415;-0.566482;-0.6461928;-3;7;1;245;4072;-425;128;-0.02908587;0.1634349;0.5720221;0.8032644;10;0;0;-519;4015;1502;4;-0.5789474;0.1800554;-0.4155124;-0.6780483;9;-4;-8;2501;2956;72;16;0.7426277;-0.6606648;0.05124654;-0.09695291;6;-13;5;595;3980;-660;2;0.4833795;-0.6607824;-0.432133;-0.3781163;0;1;-1;809;3908;-643;8;0.4293629;-0.8370374;0.2299169;0.2493075;0;-2;0;691;3369;2061;-0.2929713;2.4745;1.053383;-0.2870174;3.017072;1.109962;-0.2817818;3.494202;1.157683;-0.2810269;4.221675;1.253836;-0.5393811;4.550273;1.258765;-0.880839;4.403339;1.30299;-0.9149415;4.865938;0.501012;-0.5383682;5.027751;1.355299;-0.0190376;4.549736;1.258764;0.2697294;4.402151;1.30299;0.09870517;3.525445;1.664116;-0.2731213;2.715736;1.341774;-0.6052144;2.43346;1.041051;-0.01285855;1.308244;0.3172666;0;0;0;-0.6052144;2.43346;1.041051;-0.01285855;1.308244;0.3172666;0;0;0
1073525.6221;NotLabelled;NONE;16384;0.7981133;0.4168975;0.3767313;0.2174515;-8;3;-3;2686;-1962;2419;65536;0.6534784;0.3282548;-0.6509695;-0.2036011;-12;10;2;2643;-766;-3239;8192;0.5554016;-0.6972017;-0.4238227;-0.1606648;8;-4;-6;1726;3759;-163;32768;0.4501385;-0.7404585;-0.2036011;-0.4556787;-1;-8;10;1104;3584;2905;256;0.3365651;-0.3850415;-0.567867;-0.644976;-10;7;0;97;4406;-507;128;-0.02908587;0.1620499;0.5734072;0.8025572;11;3;2;-623;3997;1296;4;-0.5789474;0.1814404;-0.4155124;-0.6776789;9;0;-7;2741;3020;76;16;0.7437609;-0.6592798;0.05263158;-0.09695291;6;-1;6;687;3960;-618;2;0.4833795;-0.6607824;-0.432133;-0.3781163;0;2;-1;849;3910;-617;8;0.4293629;-0.8370374;0.2299169;0.2493075;0;-3;-1;721;3323;2165;-0.2939727;2.478245;1.04822;-0.2880148;3.021188;1.101128;-0.2827757;3.49863;1.14562;-0.2818539;4.226043;1.242221;-0.5401327;4.554698;1.247352;-0.8816243;4.407815;1.291487;-0.9249364;4.871908;0.4908181;-0.532638;5.029196;1.33885;-0.01978928;4.554042;1.247352;0.2689438;4.406362;1.291487;0.0986495;3.530018;1.653836;-0.2753156;2.721349;1.331358;-0.6062167;2.437123;1.036189;-0.0129876;1.307616;0.3198423;0;0;0;-0.6062167;2.437123;1.036189;-0.0129876;1.307616;0.3198423;0;0;0
1073545.6294;NotLabelled;NONE;16384;0.7978345;0.4168975;0.3781163;0.2160665;-11;6;-4;2702;-2038;2527;65536;0.6551159;0.3268698;-0.6495845;-0.2049861;-11;6;1;2761;-792;-3363;8192;0.5540166;-0.6981736;-0.4224377;-0.1648199;15;9;-4;1990;4113;-231;32768;0.4487534;-0.736613;-0.2049861;-0.4626039;-2;35;21;484;3608;2319;256;0.3365651;-0.3836565;-0.5692521;-0.6445802;-8;7;-2;21;4158;-707;128;-0.02908587;0.1620499;0.5761772;0.8005708;13;7;3;-517;3919;1350;4;-0.5789474;0.1842105;-0.4141274;-0.6777794;8;8;-1;2787;3272;6;16;0.7448047;-0.6578947;0.05263158;-0.09833795;2;6;4;997;3982;-616;2;0.4833795;-0.6607824;-0.432133;-0.3781163;0;2;-2;879;3904;-605;8;0.4293629;-0.8366235;0.2299169;0.2506925;0;-2;0;651;3325;2113;-0.2966594;2.479065;1.049546;-0.2906997;3.022188;1.100567;-0.2854589;3.499782;1.143401;-0.2831646;4.227495;1.237697;-0.540823;4.55665;1.241788;-0.8825905;4.410552;1.286389;-0.9280007;4.874838;0.4859482;-0.5355421;5.03015;1.334271;-0.02048165;4.555013;1.241787;0.2679729;4.40693;1.286388;0.09685808;3.530119;1.647218;-0.274794;2.722692;1.319005;-0.6089039;2.437901;1.037669;-0.01574756;1.306497;0.3242628;0;0;0;-0.6089039;2.437901;1.037669;-0.01574756;1.306497;0.3242628;0;0;0
1073566.6225;NotLabelled;NONE;16384;0.7960966;0.4196676;0.3795014;0.2146814;-13;2;2;2748;-1948;2287;65536;0.6567405;0.3254848;-0.6481994;-0.2063712;-9;1;-1;2903;-984;-2885;8192;0.5512465;-0.6988671;-0.4238227;-0.16759;22;16;-2;1828;3959;-251;32768;0.4459834;-0.7340146;-0.2077562;-0.468144;-2;44;24;540;3610;2159;256;0.3365651;-0.3822715;-0.5706371;-0.6441784;-8;1;-4;-125;4134;-623;128;-0.02908587;0.1606648;0.5775623;0.7998516;13;7;2;-505;3825;1340;4;-0.5789474;0.1855956;-0.4127424;-0.6782463;6;9;0;2645;3158;172;16;0.745842;-0.6565097;0.05263158;-0.09972299;1;8;3;1033;3934;-606;2;0.4833795;-0.6599879;-0.432133;-0.3795014;0;1;-2;915;3984;-543;8;0.4293629;-0.8362417;0.2313019;0.2506925;0;-2;0;619;3425;2181;-0.3015123;2.480091;1.048296;-0.2955487;3.023548;1.095629;-0.2903049;3.501422;1.135219;-0.2881872;4.229431;1.227203;-0.5459259;4.558536;1.23025;-0.8876576;4.412496;1.275319;-0.9371061;4.876979;0.4752318;-0.5377883;5.030418;1.320689;-0.02558428;4.557025;1.23025;0.2629068;4.409154;1.275319;0.08829612;3.530227;1.62926;-0.2783758;2.724128;1.292298;-0.6137577;2.438848;1.036722;-0.01820017;1.305375;0.328619;0;0;0;-0.6137577;2.438848;1.036722;-0.01820017;1.305375;0.328619;0;0;0
1073587.6195;NotLabelled;NONE;16384;0.7957374;0.4210526;0.3795014;0.2132964;-12;3;5;2904;-1950;2167;65536;0.6567405;0.3254848;-0.6481994;-0.2063712;-6;-2;-3;2957;-962;-2783;8192;0.5484765;-0.7003751;-0.4238227;-0.1703601;24;15;-1;1564;3819;-183;32768;0.4432133;-0.7300444;-0.2119114;-0.4750692;0;49;27;652;3570;1815;256;0.3379501;-0.3808864;-0.5706371;-0.6442736;-10;-4;-5;-103;4096;-587;128;-0.02908587;0.1592798;0.5803324;0.7981217;16;7;2;-533;3829;1250;4;-0.5803324;0.1855956;-0.4113573;-0.6779039;5;5;0;2567;3224;152;16;0.7456555;-0.6565097;0.05263158;-0.101108;1;6;2;1127;3932;-424;2;0.4833795;-0.6599879;-0.432133;-0.3795014;-1;4;-1;941;4088;-601;8;0.4293629;-0.8366235;0.2299169;0.2506925;0;0;0;641;3473;2203;-0.3064233;2.479155;1.050138;-0.300458;3.022774;1.095578;-0.2952127;3.500782;1.133503;-0.2932743;4.229081;1.223171;-0.5510945;4.558128;1.225174;-0.8927894;4.412149;1.27071;-0.9500353;4.879797;0.4729897;-0.5439011;5.031358;1.315535;-0.03075242;4.556747;1.225173;0.2577758;4.409092;1.270709;0.07812417;3.530468;1.622874;-0.2869167;2.725822;1.280707;-0.6186691;2.437871;1.03872;-0.02062972;1.304235;0.3329743;0;0;0;-0.6186691;2.437871;1.03872;-0.02062972;1.304235;0.3329743;0;0;0
1073607.6324;NotLabelled;NONE;16384;0.7953733;0.4224377;0.3795014;0.2119114;-8;6;10;2946;-2072;1971;65536;0.6549329;0.3254848;-0.6495845;-0.2077562;-3;-5;-7;2999;-914;-2565;8192;0.5457063;-0.7010199;-0.4252077;-0.1731302;23;11;0;1366;3761;-141;32768;0.4418283;-0.7264394;-0.2146814;-0.4806094;0;40;28;756;3732;1617;256;0.3393352;-0.3795014;-0.5706371;-0.644363;-8;-10;-4;-115;4034;-585;128;-0.02908587;0.1578947;0.5817174;0.7973883;16;7;3;-453;3875;1458;4;-0.5803324;0.1855956;-0.4113573;-0.6779039;3;3;0;2451;3246;370;16;0.7454664;-0.6565097;0.05263158;-0.1024931;0;1;0;1217;3912;-382;2;0.4833795;-0.659079;-0.433518;-0.3795014;-1;5;0;839;4062;-611;8;0.4293629;-0.8366235;0.2299169;0.2506925;0;1;0;683;3469;2189;-0.3081332;2.476298;1.0533;-0.3021646;3.020217;1.094989;-0.2969165;3.498475;1.129617;-0.2974761;4.226944;1.217913;-0.5564234;4.555109;1.219298;-0.8976157;4.408044;1.26511;-0.9566394;4.87843;0.4691311;-0.5502715;5.02999;1.311563;-0.03607953;4.555511;1.219297;0.2529533;4.408934;1.26511;0.0667358;3.530206;1.613586;-0.2934042;2.72628;1.2646;-0.6203799;2.434937;1.04219;-0.0193713;1.303709;0.3351026;0;0;0;-0.6203799;2.434937;1.04219;-0.0193713;1.303709;0.3351026;0;0;0
1073628.7854;NotLabelled;NONE;16384;0.7956639;0.4238227;0.3781163;0.2105263;-5;7;13;2928;-2158;1901;65536;0.6560566;0.3240997;-0.6495845;-0.2063712;0;-10;-12;2899;-778;-2671;8192;0.5429363;-0.7024797;-0.4252077;-0.1759003;21;4;0;1458;3833;-43;32768;0.4418283;-0.7219149;-0.2174515;-0.4861496;1;31;32;740;3758;1563;256;0.3448753;-0.3822715;-0.5692521;-0.6410004;-8;-16;-2;117;3874;-341;128;-0.02908587;0.1565097;0.5844875;0.7956338;5;-1;3;-569;3897;1376;4;-0.5803324;0.1869806;-0.4113573;-0.6775232;0;-1;0;2431;3318;344;16;0.7454664;-0.6565097;0.05263158;-0.1024931;0;-4;0;1173;3982;-412;2;0.4833795;-0.6582795;-0.433518;-0.3808864;0;4;0;811;3938;-675;8;0.4293629;-0.8366235;0.2299169;0.2506925;1;0;0;699;3485;2065;-0.306687;2.475806;1.055432;-0.3007168;3.019867;1.095221;-0.2954675;3.498244;1.128179;-0.2985234;4.226871;1.215099;-0.5585932;4.55415;1.215863;-0.8992801;4.406003;1.261953;-0.9600107;4.879122;0.4677237;-0.5562321;5.02732;1.311997;-0.03825396;4.556335;1.215862;0.2512788;4.410834;1.261952;0.05934709;3.532456;1.608204;-0.2953908;2.728719;1.253306;-0.6189342;2.434406;1.044479;-0.01811515;1.303179;0.3372298;0;0;0;-0.6189342;2.434406;1.044479;-0.01811515;1.303179;0.3372298;0;0;0
1073648.9096;NotLabelled;NONE;16384;0.7959471;0.4252077;0.3767313;0.2091413;0;6;17;2912;-2166;1827;65536;-0.6509695;-0.3227147;0.6553662;0.2063712;6;-14;-19;2875;-588;-2683;8192;0.5415512;-0.7033325;-0.4238227;-0.1800554;13;6;-4;1478;3961;383;32768;0.4432133;-0.7134699;-0.2174515;-0.4972299;0;11;34;682;3788;1457;256;0.3462604;-0.3822715;-0.5692521;-0.6402534;-9;-15;0;19;3952;-419;128;-0.03047091;0.1565097;0.5844875;0.7955819;3;-2;2;-625;3823;1380;4;-0.5803324;0.1869806;-0.4127424;-0.6766803;-2;-1;0;2485;3158;134;16;0.7454664;-0.6565097;0.05263158;-0.1024931;1;0;0;823;3922;-408;2;0.4833795;-0.6582795;-0.433518;-0.3808864;0;0;0;721;3960;-723;8;0.4307479;-0.8355291;0.2313019;0.2506925;1;-1;-1;721;3477;2141;-0.3204974;2.477774;1.043776;-0.3145244;3.022098;1.0798;-0.3092728;3.500691;1.109447;-0.3143117;4.229688;1.193122;-0.5752701;4.556257;1.192424;-0.9155547;4.407393;1.239167;-0.9647661;4.884295;0.4464053;-0.570847;5.03317;1.295205;-0.05493885;4.559857;1.192424;0.2349871;4.415351;1.239166;0.0319168;3.53694;1.578919;-0.3096058;2.732183;1.21352;-0.6327453;2.436299;1.033133;-0.02263577;1.303179;0.3369565;0;0;0;-0.6327453;2.436299;1.033133;-0.02263577;1.303179;0.3369565;0;0;0
1073669.8776;NotLabelled;NONE;16384;0.7992662;0.4252077;0.3711911;0.2063712;14;0;24;2736;-2252;1737;65536;-0.6468144;-0.3213296;0.661003;0.2036011;14;-18;-28;2857;-474;-2481;8192;0.5415512;-0.7021396;-0.4252077;-0.1814404;6;7;-8;1296;3817;477;32768;0.4445983;-0.711089;-0.2160665;-0.5;-3;-1;29;404;3680;1303;256;0.3490305;-0.3836565;-0.5692521;-0.6379165;-6;-12;-1;105;3938;-463;128;-0.03047091;0.1565097;0.5844875;0.7955819;3;-3;1;-595;3757;1296;4;-0.5803324;0.1869806;-0.4127424;-0.6766803;0;-3;-1;2583;3180;4;16;0.7454664;-0.6565097;0.05263158;-0.1024931;2;0;0;975;3894;-418;2;0.4833795;-0.6582795;-0.433518;-0.3808864;0;-2;1;703;4092;-633;8;0.4307479;-0.8359113;0.2299169;0.2506925;1;0;0;639;3497;2123;-0.3184677;2.479505;1.043312;-0.3124946;3.023839;1.079186;-0.3072429;3.50244;1.1087;-0.3132009;4.23159;1.19097;-0.5745699;4.557828;1.189639;-0.9146677;4.408626;1.236661;-0.9594385;4.889521;0.4460512;-0.5783423;5.031301;1.301891;-0.05424356;4.562084;1.189642;0.2358628;4.418033;1.236668;0.02728295;3.537605;1.567752;-0.2962488;2.733479;1.185002;-0.6307156;2.438028;1.032682;-0.02336639;1.303179;0.3369067;0;0;0;-0.6307156;2.438028;1.032682;-0.02336639;1.303179;0.3369067;0;0;0
1073690.7854;NotLabelled;NONE;16384;0.8011828;0.4252077;0.367036;0.2063712;18;0;23;2722;-2248;1749;65536;-0.6426592;-0.3199446;0.666133;0.2022161;17;-18;-28;2915;-328;-2605;8192;0.5429363;-0.7015479;-0.4238227;-0.1828255;0;-1;-14;1066;3731;399;32768;0.4473684;-0.7092103;-0.2132964;-0.501385;-3;-17;22;454;3696;1227;256;0.3504155;-0.3850415;-0.5692521;-0.6363207;-5;-11;0;103;3960;-375;128;-0.03047091;0.1565097;0.5844875;0.7955819;2;0;0;-643;3819;1284;4;-0.5789474;0.1869806;-0.4127424;-0.6778657;0;-8;-1;2505;3170;58;16;0.7454664;-0.6565097;0.05263158;-0.1024931;2;-1;0;1017;3934;-392;2;0.4833795;-0.659079;-0.433518;-0.3795014;-1;0;1;865;3968;-681;8;0.4307479;-0.8359113;0.2299169;0.2506925;0;0;0;689;3405;2077;-0.3254133;2.479505;1.039038;-0.3194401;3.023839;1.074911;-0.3141884;3.50244;1.104426;-0.3203957;4.231901;1.18387;-0.5818754;4.558043;1.181267;-0.9219239;4.40891;1.228859;-0.9472324;4.896253;0.4413406;-0.5831059;5.035059;1.30502;-0.06155044;4.562474;1.181267;0.2286035;4.418705;1.228858;0.01714081;3.537989;1.557337;-0.2980586;2.734169;1.167071;-0.6376613;2.438028;1.028408;-0.02563646;1.303179;0.3367415;0;0;0;-0.6376613;2.438028;1.028408;-0.02563646;1.303179;0.3367415;0;0;0
1073712.8188;NotLabelled;NONE;16384;0.8031784;0.4238227;0.3642659;0.2063712;23;1;20;2644;-2324;1895;65536;-0.6398892;-0.3199446;0.6692116;0.200831;21;-16;-28;2823;-202;-2725;8192;0.5457063;-0.7007037;-0.4210526;-0.1842105;-6;-12;-19;1048;3749;289;32768;0.4515235;-0.7083821;-0.2105263;-0.5;0;-35;15;464;3730;1213;256;0.3518005;-0.3864266;-0.5692521;-0.6347148;-5;-8;2;13;3966;-423;128;-0.03047091;0.1565097;0.5858725;0.7945626;3;1;0;-591;3849;1298;4;-0.5789474;0.1869806;-0.4141274;-0.6770204;0;-5;-1;2541;3156;62;16;0.7454664;-0.6565097;0.05263158;-0.1024931;2;-3;-1;941;4032;-490;2;0.4833795;-0.659079;-0.433518;-0.3795014;-1;2;0;923;3984;-627;8;0.4307479;-0.8354947;0.2299169;0.2520775;0;0;-1;731;3311;2085;-0.3311836;2.480179;1.034041;-0.3252105;3.024512;1.069914;-0.3199587;3.503114;1.099428;-0.3254901;4.232734;1.17745;-0.5866669;4.559114;1.174207;-0.9268544;4.410388;1.222084;-0.9465907;4.90083;0.4363325;-0.5965515;5.035188;1.306515;-0.066338;4.563062;1.174206;0.2236817;4.419116;1.222083;0.0154587;3.53649;1.547492;-0.2920426;2.732593;1.151286;-0.6434315;2.438701;1.02341;-0.02717984;1.303179;0.3366204;0;0;0;-0.6434315;2.438701;1.02341;-0.02717984;1.303179;0.3366204;0;0;0
1073733.0879;NotLabelled;NONE;16384;0.8065022;0.4210526;0.3601108;0.2063712;25;-2;16;2488;-2248;1993;65536;-0.6357341;-0.3185596;0.6746361;0.1980609;23;-13;-26;2789;-354;-2795;8192;0.5484765;-0.699834;-0.4182825;-0.1855956;-10;-19;-24;1208;3861;149;32768;0.4556787;-0.7079202;-0.2063712;-0.4986149;3;-47;7;386;3842;1261;256;0.3531856;-0.3878116;-0.5692521;-0.6330988;-1;-5;7;-137;3970;-425;128;-0.02908587;0.1565097;0.5858725;0.7946144;-2;2;-1;-517;3825;1230;4;-0.5789474;0.1869806;-0.4141274;-0.6770204;0;0;-1;2581;3166;98;16;0.7468727;-0.6551247;0.05263158;-0.101108;2;-3;0;833;3944;-562;2;0.4833795;-0.6581659;-0.434903;-0.3795014;-3;0;0;959;3876;-633;8;0.432133;-0.8347791;0.2299169;0.2520775;1;1;-1;713;3319;2051;-0.3316144;2.481939;1.031903;-0.32564;3.026392;1.065911;-0.3203871;3.505091;1.093786;-0.3252308;4.234867;1.170379;-0.5860994;4.561487;1.166494;-0.9264278;4.413177;1.214656;-0.9358207;4.904187;0.4290677;-0.5969965;5.037443;1.303847;-0.06576681;4.564944;1.166493;0.2241161;4.420818;1.214656;0.0194568;3.535175;1.534072;-0.2813697;2.729586;1.136182;-0.6438628;2.440425;1.021426;-0.02872507;1.303179;0.3364918;0;0;0;-0.6438628;2.440425;1.021426;-0.02872507;1.303179;0.3364918;0;0;0
1073753.6827;NotLabelled;NONE;16384;0.8084539;0.4196676;0.3573407;0.2063712;28;-2;15;2328;-2148;2043;65536;-0.6315789;-0.3185596;0.6789304;0.1966759;21;-11;-21;2831;-452;-2743;8192;0.5581717;-0.6967103;-0.4099723;-0.1869806;-18;-16;-28;1512;3721;179;32768;0.4653739;-0.7111282;-0.1966759;-0.4889196;3;-55;2;166;3634;1813;256;0.3531856;-0.3891967;-0.5692521;-0.6322483;-2;-4;8;-53;3934;-341;128;-0.02908587;0.1565097;0.5844875;0.7956338;-4;0;-1;-531;3787;1264;4;-0.5789474;0.1869806;-0.4127424;-0.6778657;1;0;0;2689;3008;70;16;0.7468727;-0.6551247;0.05263158;-0.101108;2;1;-1;827;3976;-578;2;0.4833795;-0.6581659;-0.434903;-0.3795014;-2;2;0;979;3898;-755;8;0.432133;-0.8347791;0.2299169;0.2520775;1;2;-2;711;3369;2053;-0.3418518;2.481832;1.0288;-0.3358775;3.026276;1.062959;-0.3306246;3.504968;1.090966;-0.3347684;4.234898;1.166126;-0.595323;4.561759;1.161596;-0.9357944;4.41387;1.210045;-0.9304117;4.904939;0.4244555;-0.6068729;5.035483;1.305408;-0.07498765;4.564716;1.161596;0.2147563;4.420407;1.210045;0.01369685;3.531796;1.523448;-0.2810943;2.725506;1.122473;-0.6541001;2.440322;1.018312;-0.03582111;1.303076;0.3362109;0;0;0;-0.6541001;2.440322;1.018312;-0.03582111;1.303076;0.3362109;0;0;0
1073773.8199;NotLabelled;NONE;16384;0.8137199;0.4127424;0.3518005;0.2091413;25;-1;9;2372;-2094;2575;65536;-0.6274238;-0.3185596;0.6839553;0.1925208;11;-15;-14;2581;-412;-2911;8192;0.5623268;-0.6949915;-0.4072022;-0.1869806;-22;-13;-25;1550;3659;237;32768;0.4695291;-0.7127503;-0.1911357;-0.4847645;0;-52;2;178;3548;1951;256;0.3531856;-0.3905817;-0.5692521;-0.6313937;-3;-2;9;5;3976;-433;128;-0.02770083;0.1565097;0.5844875;0.7956832;-4;0;-1;-565;3819;1230;4;-0.5803324;0.1869806;-0.4127424;-0.6766803;3;4;0;2641;2968;30;16;0.746969;-0.6551247;0.05124654;-0.101108;1;6;0;759;4016;-636;2;0.4833795;-0.6581659;-0.434903;-0.3795014;-2;7;-1;807;3906;-759;8;0.432133;-0.8347791;0.2299169;0.2520775;0;3;-1;677;3379;2005;-0.3485621;2.480073;1.026361;-0.3425891;3.024396;1.062385;-0.3373374;3.50299;1.092032;-0.3398916;4.232926;1.167192;-0.599734;4.560355;1.162661;-0.9405264;4.413208;1.21111;-0.9265174;4.904783;0.4259434;-0.6154072;5.032989;1.311704;-0.07939327;4.562179;1.162661;0.2100357;4.417239;1.21111;0.02674586;3.520741;1.512724;-0.265807;2.711388;1.116305;-0.6608101;2.438598;1.015718;-0.03663236;1.303076;0.3361234;0;0;0;-0.6608101;2.438598;1.015718;-0.03663236;1.303076;0.3361234;0;0;0
1073794.639;NotLabelled;NONE;16384;0.8157154;0.4099723;0.3504155;0.2091413;20;4;5;2304;-2176;2715;65536;-0.6260388;-0.3157895;0.6872752;0.1897507;6;-14;-12;2403;-348;-3163;8192;0.566482;-0.6924224;-0.4058172;-0.1869806;-25;-15;-20;1570;3647;259;32768;0.4736842;-0.7142774;-0.1855956;-0.4806094;0;-57;2;318;3538;2053;256;0.3518005;-0.3919668;-0.5706371;-0.6300569;0;-1;11;-25;3904;-605;128;-0.02770083;0.1565097;0.5844875;0.7956832;0;2;-3;-565;3835;1234;4;-0.5803324;0.1883656;-0.4113573;-0.6771395;5;0;0;2583;3100;-80;16;0.7480866;-0.6537396;0.04986149;-0.1024931;2;10;0;763;3932;-538;2;0.4833795;-0.6564469;-0.4362881;-0.3808864;-2;7;-2;747;3926;-669;8;0.432133;-0.8351594;0.2285319;0.2520775;0;2;-1;691;3463;1981;-0.3515584;2.479943;1.024545;-0.3455854;3.024257;1.060717;-0.3403338;3.502842;1.090494;-0.3412961;4.232782;1.165653;-0.6004238;4.560776;1.161124;-0.9415361;4.414372;1.209574;-0.9052474;4.899695;0.4212377;-0.608732;5.028905;1.311845;-0.08008039;4.561465;1.161121;0.2090319;4.415895;1.20957;0.03272241;3.516734;1.507396;-0.2588221;2.706977;1.111061;-0.6638063;2.438471;1.01389;-0.0390247;1.303622;0.333725;0;0;0;-0.6638063;2.438471;1.01389;-0.0390247;1.303622;0.333725;0;0;0
1073815.7545;NotLabelled;NONE;16384;0.817455;0.4072022;0.3504155;0.2077562;16;9;1;2336;-2024;2739;65536;-0.6260388;-0.3144044;0.6882904;0.1883656;4;-10;-9;2349;-364;-3407;8192;0.5720221;-0.6902248;-0.4030471;-0.1842105;-28;-20;-19;1502;3631;161;32768;0.4778393;-0.7157101;-0.1800554;-0.4764543;-1;-63;1;184;3518;2127;256;0.3518005;-0.3933518;-0.5706371;-0.6291932;1;-2;13;37;3950;-495;128;-0.02770083;0.1565097;0.5844875;0.7956832;2;2;-4;-525;3879;1322;4;-0.5803324;0.1883656;-0.4113573;-0.6771395;5;0;-1;2543;3186;54;16;0.7478955;-0.6537396;0.04986149;-0.1038781;2;8;0;1079;3966;-418;2;0.4833795;-0.6556413;-0.4362881;-0.3822715;-2;1;-2;661;3994;-575;8;0.432133;-0.8351594;0.2285319;0.2520775;-1;1;0;609;3427;2013;-0.3607749;2.479478;1.022234;-0.3548019;3.023792;1.058406;-0.3495504;3.502377;1.088183;-0.3466057;4.232402;1.162458;-0.6039742;4.561773;1.157531;-0.9458652;4.417256;1.206157;-0.9048762;4.900666;0.4168762;-0.6135509;5.028149;1.309443;-0.0836345;4.559678;1.15753;0.2046947;4.41262;1.206156;0.03823847;3.511084;1.502468;-0.2530317;2.700894;1.106817;-0.6730228;2.438006;1.011579;-0.04406887;1.302995;0.3355423;0;0;0;-0.6730228;2.438006;1.011579;-0.04406887;1.302995;0.3355423;0;0;0
1073836.6135;NotLabelled;NONE;16384;0.818829;0.4044321;0.3504155;0.2077562;13;6;-2;2166;-2124;2669;65536;-0.6246537;-0.3130194;0.6901775;0.1883656;4;-6;-7;2289;-316;-3511;8192;0.5761772;-0.6887474;-0.400277;-0.1828255;-32;-21;-15;1600;3625;59;32768;0.4806094;-0.7179781;-0.1745152;-0.4722992;-2;-55;-2;-26;3508;2329;256;0.3504155;-0.3947368;-0.5706371;-0.6290987;2;1;14;139;4022;-409;128;-0.02631579;0.1565097;0.5844875;0.7957302;2;2;-4;-519;3939;1360;4;-0.5789474;0.1883656;-0.4099723;-0.679162;3;0;0;2537;3218;86;16;0.7479866;-0.6537396;0.04847645;-0.1038781;0;2;-1;1227;4048;-452;2;0.4833795;-0.6556413;-0.4362881;-0.3822715;-2;3;-2;647;3954;-559;8;0.432133;-0.8351594;0.2285319;0.2520775;-2;0;-1;593;3413;2055;-0.3621546;2.478956;1.022761;-0.3561817;3.02327;1.058933;-0.35093;3.501855;1.08871;-0.3463878;4.231873;1.162987;-0.6030349;4.561806;1.158059;-0.9452412;4.418037;1.206685;-0.8983315;4.899469;0.4165256;-0.6101115;5.026751;1.310128;-0.08270115;4.558571;1.158058;0.2053056;4.410884;1.206684;0.04986078;3.507493;1.503326;-0.2401451;2.696843;1.107687;-0.6744025;2.437484;1.012106;-0.04381275;1.302473;0.337596;0;0;0;-0.6744025;2.437484;1.012106;-0.04381275;1.302473;0.337596;0;0;0
1073856.9399;NotLabelled;NONE;16384;0.8201914;0.4016621;0.3504155;0.2077562;9;0;-6;2280;-1952;2633;65536;-0.6246537;-0.3116343;0.6911802;0.1869806;8;-2;-6;2335;-308;-3523;8192;0.5844875;-0.6847865;-0.3975069;-0.1772853;-25;-5;-6;1740;4017;-147;32768;0.4847645;-0.7225605;-0.166205;-0.4639889;-1;-32;-10;-68;3710;2639;256;0.3476454;-0.3975069;-0.5720221;-0.6276317;2;5;9;79;4160;-369;128;-0.02493075;0.1551246;0.5844875;0.796046;-3;4;-3;-455;3997;1360;4;-0.5803324;0.1897507;-0.4099723;-0.6775926;0;2;1;2557;3198;148;16;0.747793;-0.6537396;0.04847645;-0.1052632;0;0;-2;981;3916;-520;2;0.4833795;-0.6547175;-0.4376731;-0.3822715;-1;1;-1;611;4010;-527;8;0.432133;-0.8355371;0.2271468;0.2520775;-1;0;-1;607;3463;2119;-0.3692238;2.478419;1.017153;-0.363251;3.022723;1.053469;-0.3579994;3.5013;1.083373;-0.3509837;4.231152;1.159079;-0.6065108;4.561961;1.154795;-0.9492037;4.419259;1.203135;-0.8982841;4.897522;0.411301;-0.6132618;5.021665;1.30637;-0.08619094;4.556963;1.154794;0.2013126;4.408205;1.203134;0.05426395;3.502954;1.498385;-0.2380485;2.692858;1.103309;-0.6814716;2.43695;1.006486;-0.04545639;1.30302;0.3352579;0;0;0;-0.6814716;2.43695;1.006486;-0.04545639;1.30302;0.3352579;0;0;0
1073877.6224;NotLabelled;NONE;16384;0.820244;0.398892;0.3518005;0.2105263;13;-7;-10;2328;-1940;2427;65536;-0.6218836;-0.3130194;0.6937911;0.1842105;15;-1;-4;2611;-592;-2905;8192;0.5858725;-0.6839596;-0.3975069;-0.1759003;-19;-1;0;1814;4091;-111;32768;0.4861496;-0.7237197;-0.1648199;-0.4612188;0;-16;-10;184;3692;2529;256;0.3462604;-0.3975069;-0.5720221;-0.6283969;2;4;4;37;4222;-377;128;-0.0235457;0.1551246;0.5844875;0.7960882;-1;0;-2;-393;3899;1268;4;-0.5803324;0.1897507;-0.4099723;-0.6775926;0;-1;2;2553;3178;88;16;0.747793;-0.6537396;0.04847645;-0.1052632;0;0;-3;933;3992;-452;2;0.4847645;-0.6528808;-0.4376731;-0.3836565;-1;0;0;679;3994;-629;8;0.432133;-0.8355371;0.2271468;0.2520775;-2;0;-1;643;3471;2125;-0.3674043;2.479128;1.018094;-0.3614317;3.023426;1.054508;-0.3561801;3.501998;1.084497;-0.3427661;4.231704;1.160728;-0.5953826;4.564746;1.156679;-0.939314;4.425018;1.204915;-0.8841935;4.90009;0.4114428;-0.6005777;5.02405;1.306984;-0.07512653;4.555184;1.156678;0.2110609;4.403877;1.204914;0.08237207;3.497218;1.504387;-0.21569;2.687313;1.113233;-0.6796522;2.437661;1.007419;-0.04456405;1.302499;0.3373981;0;0;0;-0.6796522;2.437661;1.007419;-0.04456405;1.302499;0.3373981;0;0;0
1073898.624;NotLabelled;NONE;16384;0.8196053;0.3975069;0.3531856;0.2132964;14;-9;-12;2418;-1786;2271;65536;-0.6204986;-0.3144044;0.6947706;0.1828255;9;0;0;2851;-864;-2683;8192;0.5872576;-0.6823182;-0.398892;-0.1745152;-12;0;5;1816;3973;35;32768;0.4847645;-0.7252118;-0.166205;-0.4598338;0;-8;-10;518;3638;2437;256;0.3462604;-0.3975069;-0.5734072;-0.6271333;1;0;2;-25;4090;-273;128;-0.0235457;0.1551246;0.5844875;0.7960882;-1;0;-2;-373;3865;1260;4;-0.5803324;0.1883656;-0.4099723;-0.6779789;-1;-7;2;2511;3194;10;16;0.7479866;-0.6537396;0.04847645;-0.1038781;0;-2;-2;1047;3944;-458;2;0.4847645;-0.6528808;-0.4376731;-0.3836565;-2;-2;0;667;4008;-531;8;0.432133;-0.8351181;0.2271468;0.2534626;-1;-2;-2;661;3471;2187;-0.3652308;2.479126;1.019567;-0.3592582;3.023414;1.056118;-0.3540068;3.501979;1.086228;-0.3397135;4.231519;1.16387;-0.5919268;4.564873;1.160458;-0.936029;4.425469;1.20841;-0.8819383;4.894029;0.4110053;-0.6047571;5.020703;1.308179;-0.07168281;4.554683;1.160457;0.2143197;4.402936;1.208409;0.08963633;3.496434;1.510039;-0.2104744;2.685647;1.122294;-0.6774786;2.437662;1.008881;-0.04383671;1.302499;0.3374927;0;0;0;-0.6774786;2.437662;1.008881;-0.04383671;1.302499;0.3374927;0;0;0
1073919.6385;NotLabelled;NONE;16384;0.8202183;0.3947368;0.3531856;0.2160665;9;-6;-12;2496;-1776;2479;65536;-0.6204986;-0.3157895;0.6945055;0.1814404;2;-3;5;2993;-750;-2637;8192;0.5872576;-0.68221;-0.400277;-0.1717452;-9;-1;8;1706;3945;97;32768;0.4847645;-0.7269608;-0.166205;-0.4570637;-2;-9;-11;606;3604;2459;256;0.3462604;-0.3975069;-0.5734072;-0.6271333;0;-2;1;103;4040;-339;128;-0.0235457;0.1565097;0.5844875;0.795817;-1;-3;-2;-389;3829;1220;4;-0.5789474;0.1883656;-0.4099723;-0.679162;0;-6;1;2437;3142;-142;16;0.7479866;-0.6537396;0.04847645;-0.1038781;0;-2;-3;935;3916;-460;2;0.4847645;-0.6536927;-0.4376731;-0.3822715;-1;-4;2;785;3944;-501;8;0.4307479;-0.8358333;0.2271468;0.2534626;-1;-1;-1;559;3403;2073;-0.3665297;2.477759;1.02037;-0.3605571;3.022048;1.056921;-0.3553057;3.500612;1.087031;-0.339565;4.230368;1.162347;-0.5911195;4.564206;1.157888;-0.9354929;4.425636;1.206306;-0.8826213;4.889266;0.4059435;-0.6096554;5.018228;1.304084;-0.07089663;4.552988;1.157887;0.2148086;4.40083;1.206305;0.09431994;3.494935;1.511448;-0.2096077;2.683903;1.127204;-0.6787775;2.436295;1.009684;-0.0449017;1.303021;0.335332;0;0;0;-0.6787775;2.436295;1.009684;-0.0449017;1.303021;0.335332;0;0;0
1073939.7459;NotLabelled;NONE;16384;0.8199201;0.3933518;0.3545706;0.2174515;6;-2;-13;2516;-1918;2637;65536;-0.6218836;-0.3157895;0.6932656;0.1814404;-1;-7;9;2955;-536;-2777;8192;0.5886427;-0.6805475;-0.4016621;-0.1703601;-10;0;9;1644;3905;197;32768;0.4833795;-0.7287504;-0.166205;-0.4556787;-5;-11;-14;408;3532;2411;256;0.3462604;-0.3975069;-0.5734072;-0.6271333;-1;-1;0;29;4040;-457;128;-0.02493075;0.1565097;0.5844875;0.7957748;1;-2;-2;-399;3929;1218;4;-0.5789474;0.1883656;-0.4099723;-0.679162;1;-7;0;2415;3210;16;16;0.7480751;-0.6537396;0.04709141;-0.1038781;1;-1;-4;777;3970;-358;2;0.4861496;-0.65359;-0.4362881;-0.3822715;0;-3;1;797;3918;-587;8;0.4307479;-0.8350342;0.2285319;0.2548476;-2;-1;0;657;3349;2107;-0.3675586;2.478414;1.018301;-0.361586;3.022699;1.054896;-0.3563346;3.501261;1.085044;-0.3405941;4.231016;1.160362;-0.5921485;4.564854;1.155902;-0.936522;4.426284;1.20432;-0.8805979;4.884343;0.4009618;-0.6087827;5.016847;1.298935;-0.07192552;4.553637;1.155902;0.2137796;4.401478;1.20432;0.09396428;3.497374;1.514988;-0.2132569;2.68561;1.134936;-0.6798064;2.43695;1.007612;-0.04490194;1.303021;0.3353328;0;0;0;-0.6798064;2.43695;1.007612;-0.04490194;1.303021;0.3353328;0;0;0
1073960.614;NotLabelled;NONE;16384;0.8193806;0.3919668;0.3573407;0.2174515;4;6;-14;2554;-1934;2563;65536;-0.6232687;-0.3144044;0.6930124;0.1800554;-2;-8;13;2645;-372;-2999;8192;0.5900277;-0.6803755;-0.4016621;-0.166205;-7;-8;10;1280;3771;59;32768;0.4806094;-0.7328401;-0.16759;-0.4515235;-9;-4;-22;462;3470;2297;256;0.3462604;-0.3975069;-0.5734072;-0.6271333;-2;-3;0;107;4122;-387;128;-0.02493075;0.1565097;0.5858725;0.7947556;5;-3;-2;-499;3955;1236;4;-0.5775623;0.1869806;-0.4099723;-0.6807222;-1;-7;0;2433;3214;136;16;0.7482661;-0.6537396;0.04709141;-0.1024931;1;-3;-3;899;3994;-302;2;0.4861496;-0.6543981;-0.4362881;-0.3808864;0;-3;0;819;3910;-541;8;0.4307479;-0.8350342;0.2285319;0.2548476;-2;-3;0;657;3403;2069;-0.3691093;2.47896;1.015961;-0.3631367;3.023255;1.052418;-0.3578853;3.501824;1.082446;-0.3421445;4.231578;1.157763;-0.5936989;4.565418;1.153304;-0.9380724;4.426848;1.201723;-0.8830158;4.88132;0.3962718;-0.6081164;5.015081;1.293119;-0.07347596;4.5542;1.153303;0.2122294;4.402041;1.20172;0.09663069;3.498518;1.515659;-0.2150465;2.687458;1.137735;-0.6813572;2.437493;1.005283;-0.04645455;1.303564;0.3330022;0;0;0;-0.6813572;2.437493;1.005283;-0.04645455;1.303564;0.3330022;0;0;0
1073980.7517;NotLabelled;NONE;16384;0.8195351;0.3878116;0.3614958;0.2174515;7;8;-17;2256;-1954;2265;65536;-0.6274238;-0.3130194;0.6905998;0.1772853;1;-8;16;2595;-432;-2953;8192;0.5900277;-0.6810462;-0.4016621;-0.1634349;-3;-12;12;1462;3797;-5;32768;0.4778393;-0.7363447;-0.16759;-0.4487534;-9;-3;-25;676;3480;2215;256;0.3462604;-0.3975069;-0.5734072;-0.6271333;-1;-3;0;73;4234;-393;128;-0.02631579;0.1565097;0.5858725;0.794711;1;-3;-1;-459;3953;1290;4;-0.5761772;0.1855956;-0.4113573;-0.6814391;-3;-7;0;2525;3216;-84;16;0.7484545;-0.6537396;0.04709141;-0.101108;2;-2;-3;855;3992;-456;2;0.4861496;-0.6543981;-0.4362881;-0.3808864;0;-5;0;779;4006;-475;8;0.4307479;-0.8350342;0.2285319;0.2548476;-2;-4;0;651;3423;2145;-0.3714039;2.478275;1.014557;-0.3654299;3.022692;1.049146;-0.3601774;3.501361;1.077532;-0.3444341;4.231116;1.152849;-0.5959887;4.564956;1.148399;-0.9403604;4.426385;1.196829;-0.8882635;4.87981;0.3905907;-0.611158;5.014668;1.286594;-0.07576567;4.553738;1.148379;0.2099413;4.401578;1.196786;0.0976755;3.49863;1.513576;-0.2237797;2.687795;1.14344;-0.6836522;2.436773;1.004032;-0.04751551;1.304076;0.3308415;0;0;0;-0.6836522;2.436773;1.004032;-0.04751551;1.304076;0.3308415;0;0;0
1074001.6115;NotLabelled;NONE;16384;0.8189626;0.3864266;0.3642659;0.2174515;8;1;-20;2360;-1976;2275;65536;-0.6288089;-0.3130194;0.6896937;0.1759003;1;-8;17;2605;-510;-2881;8192;0.5886427;-0.6829013;-0.4016621;-0.1606648;-1;-12;12;1502;3827;55;32768;0.4764543;-0.7386051;-0.1689751;-0.4459834;-8;-4;-27;660;3472;2165;256;0.3462604;-0.3975069;-0.5734072;-0.6271333;-4;0;-1;139;4062;-375;128;-0.02631579;0.1578947;0.5858725;0.794437;2;-6;-1;-455;3895;1310;4;-0.5747922;0.1855956;-0.4127424;-0.6817712;-5;-5;0;2531;3178;-72;16;0.7484545;-0.6537396;0.04709141;-0.101108;2;-6;-2;823;4004;-540;2;0.4861496;-0.6543981;-0.4362881;-0.3808864;0;-4;0;899;4018;-481;8;0.4293629;-0.8357472;0.2285319;0.2548476;-2;-4;0;635;3431;2193;-0.3695286;2.479314;1.014277;-0.3635545;3.02374;1.048727;-0.3583019;3.502417;1.076989;-0.342561;4.232172;1.152306;-0.5941155;4.566011;1.147848;-0.9384889;4.427441;1.196267;-0.8880543;4.87043;0.3841424;-0.6036267;5.010565;1.277036;-0.07389247;4.554793;1.147846;0.211813;4.402634;1.196262;0.0994795;3.502081;1.519774;-0.2307103;2.6928;1.153951;-0.6817769;2.437809;1.003764;-0.04859909;1.304583;0.3286768;0;0;0;-0.6817769;2.437809;1.003764;-0.04859909;1.304583;0.3286768;0;0;0
1074022.62;NotLabelled;NONE;16384;0.8186287;0.3850415;0.365651;0.2188366;7;0;-22;2454;-1948;2349;65536;-0.6301939;-0.3116343;0.6897576;0.1731302;2;-9;17;2543;-598;-2953;8192;0.5886427;-0.6832257;-0.4016621;-0.1592798;0;-13;11;1536;3801;79;32768;0.4750692;-0.7408432;-0.1703601;-0.4432133;-8;-3;-26;622;3540;2141;256;0.3476454;-0.3975069;-0.5747922;-0.6250958;-5;4;-3;221;3946;-401;128;-0.02770083;0.1578947;0.5858725;0.7943899;4;-6;-1;-543;3875;1278;4;-0.5747922;0.1842105;-0.4127424;-0.6821467;-6;-3;0;2475;3170;-58;16;0.7486403;-0.6537396;0.04709141;-0.09972299;2;-7;-2;765;3964;-542;2;0.4861496;-0.6543981;-0.4362881;-0.3808864;0;-3;0;927;4054;-525;8;0.4293629;-0.8353236;0.2285319;0.2562327;-1;-3;0;591;3365;2251;-0.3663259;2.481724;1.013227;-0.3603517;3.026147;1.04772;-0.3550992;3.504822;1.07602;-0.3393586;4.234577;1.151337;-0.5909129;4.568416;1.146878;-0.9352866;4.429845;1.195296;-0.8878567;4.868932;0.380874;-0.6013486;5.012003;1.272637;-0.07069016;4.557198;1.146878;0.2150151;4.40504;1.195296;0.09919631;3.506469;1.523067;-0.2362149;2.69679;1.16292;-0.6785741;2.440219;1.002711;-0.04860058;1.304583;0.3286772;0;0;0;-0.6785741;2.440219;1.002711;-0.04860058;1.304583;0.3286772;0;0;0
1074042.7925;NotLabelled;NONE;16384;0.8172907;0.3836565;0.368421;0.2216066;9;0;-23;2536;-1894;2311;65536;-0.6315789;-0.3116343;0.6888365;0.1717452;1;-12;14;2671;-730;-2975;8192;0.5886427;-0.6838656;-0.4016621;-0.1565097;1;-13;12;1616;3763;109;32768;0.4736842;-0.743059;-0.1717452;-0.4404432;-8;-4;-25;616;3572;2113;256;0.3476454;-0.3961219;-0.5747922;-0.6259745;-6;2;-2;117;3974;-471;128;-0.02770083;0.1578947;0.5858725;0.7943899;3;-3;0;-589;3877;1270;4;-0.5747922;0.1842105;-0.4141274;-0.6813068;-5;-5;0;2467;3122;-38;16;0.7488235;-0.6537396;0.04709141;-0.09833795;2;-8;-1;789;3996;-592;2;0.4861496;-0.6552023;-0.4362881;-0.3795014;0;-3;1;933;3986;-555;8;0.4279778;-0.8356543;0.2299169;0.2562327;0;-3;0;617;3401;2283;-0.3697423;2.480353;1.01256;-0.3637681;3.024785;1.046908;-0.3585154;3.503468;1.075081;-0.3421966;4.233586;1.146654;-0.5934909;4.567595;1.140513;-0.9379667;4.429543;1.189679;-0.8879818;4.865072;0.3735027;-0.6021488;5.01091;1.265033;-0.07327694;4.55597;1.14051;0.2123153;4.403839;1.189675;0.09509158;3.505862;1.518571;-0.2447374;2.695831;1.163391;-0.6819906;2.438846;1.002055;-0.0503694;1.305085;0.3264073;0;0;0;-0.6819906;2.438846;1.002055;-0.0503694;1.305085;0.3264073;0;0;0
1074063.6383;NotLabelled;NONE;16384;0.816309;0.3822715;0.3711911;0.2229917;8;0;-23;2726;-1948;2475;65536;-0.634349;-0.3116343;0.6869737;0.1689751;1;-12;13;2621;-886;-3161;8192;0.5872576;-0.6862975;-0.4016621;-0.1509695;0;-7;14;1780;3793;139;32768;0.4695291;-0.7474889;-0.1745152;-0.4362881;-6;3;-20;560;3628;1989;256;0.3476454;-0.3961219;-0.5747922;-0.6259745;-4;2;-2;137;3970;-487;128;-0.02908587;0.1592798;0.5872576;0.79304;2;-4;0;-569;3907;1404;4;-0.5747922;0.1828255;-0.4141274;-0.6816797;-5;-5;0;2439;3134;-114;16;0.7501225;-0.6523545;0.04847645;-0.09695291;3;-12;-1;681;3982;-526;2;0.4875346;-0.655094;-0.434903;-0.3795014;1;-6;1;735;4012;-493;8;0.4279778;-0.8352283;0.2299169;0.2576177;0;-4;0;587;3391;2183;-0.3641431;2.482598;1.013052;-0.3581689;3.02703;1.0474;-0.3529162;3.505713;1.075573;-0.3382066;4.235866;1.147143;-0.5902361;4.569319;1.140998;-0.9344071;4.430509;1.190164;-0.8918406;4.859756;0.3702468;-0.6017393;5.008521;1.259913;-0.06999785;4.558842;1.140998;0.2159285;4.407339;1.190164;0.1002313;3.510874;1.523687;-0.2455834;2.700536;1.175042;-0.6763914;2.441091;1.002547;-0.05065051;1.305583;0.3243658;0;0;0;-0.6763914;2.441091;1.002547;-0.05065051;1.305583;0.3243658;0;0;0
1074083.6294;NotLabelled;NONE;16384;0.8159576;0.3795014;0.3739612;0.2243767;7;0;-20;2778;-1854;2511;65536;-0.6357341;-0.3102493;0.686996;0.166205;2;-10;12;2509;-934;-3425;8192;0.5858725;-0.6872724;-0.4030471;-0.1481994;-1;-2;14;1832;3815;91;32768;0.468144;-0.7485121;-0.1772853;-0.434903;-3;6;-18;546;3640;1989;256;0.3476454;-0.3933518;-0.5761772;-0.6264478;-6;3;-3;213;4028;-521;128;-0.03047091;0.1606648;0.5872576;0.7927085;3;-6;0;-611;3939;1216;4;-0.5720221;0.1814404;-0.4155124;-0.6835345;-5;-7;0;2459;3106;-132;16;0.7503846;-0.6523545;0.04986149;-0.09418282;4;-11;0;671;3996;-554;2;0.4875346;-0.655094;-0.434903;-0.3795014;1;-9;0;721;4006;-573;8;0.4279778;-0.8352283;0.2299169;0.2576177;0;-4;0;627;3479;2073;-0.3682732;2.480061;1.01802;-0.3622977;3.024614;1.050394;-0.3570439;3.503396;1.07683;-0.3423317;4.23355;1.1484;-0.5943617;4.567002;1.142264;-0.938531;4.428193;1.191442;-0.8993763;4.855536;0.3703606;-0.6050091;5.01015;1.257626;-0.07412332;4.556525;1.142246;0.2118049;4.405024;1.191403;0.09282047;3.510708;1.529513;-0.2643747;2.701343;1.190208;-0.680522;2.438516;1.007679;-0.0546107;1.304887;0.3265201;0;0;0;-0.680522;2.438516;1.007679;-0.0546107;1.304887;0.3265201;0;0;0
1074103.6255;NotLabelled;NONE;16384;0.8141712;0.3767313;0.3781163;0.2285319;8;0;-15;2900;-1846;2475;65536;-0.6385041;-0.3102493;0.6854179;0.1620499;4;-5;8;2679;-1004;-3261;8192;0.5858725;-0.6870505;-0.4044321;-0.1454294;-1;1;15;1774;3795;59;32768;0.466759;-0.74985;-0.1786704;-0.433518;-3;9;-16;538;3582;1987;256;0.3476454;-0.3933518;-0.5775623;-0.625171;-3;2;-3;141;4024;-545;128;-0.03185596;0.1606648;0.5872576;0.7926541;2;-6;1;-545;3957;1272;4;-0.5720221;0.1814404;-0.4168975;-0.6826906;-5;-7;0;2619;3072;-88;16;0.7517586;-0.6509695;0.04986149;-0.09279778;4;-11;0;739;3968;-644;2;0.4875346;-0.6568106;-0.433518;-0.3781163;1;-10;0;735;4054;-481;8;0.4279778;-0.8352283;0.2299169;0.2576177;0;-3;0;577;3509;2089;-0.3619617;2.481752;1.019122;-0.3559861;3.026311;1.051386;-0.3507322;3.505098;1.077727;-0.3377886;4.235511;1.146953;-0.5906263;4.568331;1.139756;-0.9344571;4.428845;1.18939;-0.9009034;4.846663;0.3631752;-0.6009528;5.004026;1.248085;-0.07036406;4.559114;1.139755;0.2159318;4.408464;1.189388;0.09611696;3.517873;1.536901;-0.2655572;2.707737;1.204244;-0.6742104;2.440205;1.00879;-0.05361654;1.305357;0.3247991;0;0;0;-0.6742104;2.440205;1.00879;-0.05361654;1.305357;0.3247991;0;0;0
1074124.639;NotLabelled;NONE;16384;0.8137765;0.3753462;0.3795014;0.2299169;8;0;-12;2884;-1790;2581;65536;-0.6385041;-0.3102493;0.6857439;0.1606648;4;-4;6;2581;-916;-3283;8192;0.5844875;-0.6877049;-0.4058172;-0.1440443;-2;2;15;1602;3875;55;32768;0.4653739;-0.7500457;-0.1814404;-0.433518;-1;11;-15;588;3614;1975;256;0.3476454;-0.3919668;-0.5775623;-0.6260403;-4;3;-4;233;4024;-401;128;-0.033241;0.1620499;0.5872576;0.7923152;3;-7;1;-583;3905;1298;4;-0.5720221;0.1800554;-0.4168975;-0.6830572;-5;-4;0;2575;3082;-66;16;0.7518352;-0.6509695;0.05124654;-0.09141274;4;-6;1;639;3926;-716;2;0.4889196;-0.6566938;-0.432133;-0.3781163;2;-10;-1;723;4080;-575;8;0.4279778;-0.8348458;0.2313019;0.2576177;0;-4;0;635;3555;2163;-0.3631944;2.483292;1.019943;-0.3572187;3.02786;1.052051;-0.3519648;3.506655;1.078254;-0.3375723;4.237258;1.145138;-0.5897519;4.570553;1.136888;-0.9338545;4.431908;1.186988;-0.9050626;4.839652;0.3555764;-0.6017635;5.004537;1.237971;-0.06950885;4.560308;1.136887;0.2164915;4.409252;1.186987;0.09765816;3.520671;1.539941;-0.2675216;2.710646;1.210868;-0.6754432;2.441742;1.009623;-0.05911851;1.305153;0.3246637;0;0;0;-0.6754432;2.441742;1.009623;-0.05911851;1.305153;0.3246637;0;0;0
1074145.8932;NotLabelled;NONE;16384;0.8133745;0.3739612;0.3808864;0.2313019;7;0;-10;2902;-1828;2591;65536;-0.6398892;-0.3102493;0.6847753;0.1592798;4;-3;5;2629;-834;-3301;8192;0.5831025;-0.6883503;-0.4072022;-0.1426593;-2;2;15;1588;3853;51;32768;0.4653739;-0.7493702;-0.1842105;-0.433518;0;12;-14;784;3596;1893;256;0.3476454;-0.3919668;-0.5775623;-0.6260403;-6;4;-3;215;4096;-515;128;-0.03462604;0.1620499;0.5872576;0.7922559;4;-6;1;-569;3905;1280;4;-0.5706371;0.1800554;-0.4168975;-0.6842148;-4;-3;0;2627;3004;-108;16;0.753199;-0.6495845;0.05124654;-0.0900277;3;0;1;617;3960;-702;2;0.4889196;-0.6593016;-0.4293629;-0.3767313;1;-8;0;877;4034;-615;8;0.4279778;-0.8348458;0.2313019;0.2576177;0;0;0;649;3399;2167;-0.3603902;2.481402;1.024694;-0.3544143;3.025978;1.056684;-0.3491604;3.504777;1.082784;-0.3363788;4.235412;1.149665;-0.5892925;4.568149;1.141413;-0.9330887;4.428746;1.191514;-0.9073042;4.832563;0.3580896;-0.6028206;4.999148;1.239756;-0.06902814;4.559052;1.141412;0.2173046;4.408627;1.191513;0.09680933;3.521846;1.54841;-0.2705294;2.711341;1.222942;-0.672639;2.43985;1.014384;-0.0578234;1.305133;0.3249804;0;0;0;-0.672639;2.43985;1.014384;-0.0578234;1.305133;0.3249804;0;0;0
1074166.618;NotLabelled;NONE;16384;0.8140098;0.3725762;0.3808864;0.2313019;7;1;-8;2798;-1742;2577;65536;-0.6398892;-0.3116343;0.684467;0.1578947;5;-2;5;2439;-918;-3247;8192;0.5817174;-0.6876198;-0.4113573;-0.1398892;-3;4;13;1566;3753;119;32768;0.4639889;-0.7491961;-0.1883656;-0.433518;2;11;-8;900;3482;1797;256;0.3476454;-0.3905817;-0.5775623;-0.6269053;-4;2;-4;97;4066;-585;128;-0.03601108;0.1620499;0.5872576;0.7921941;2;-5;1;-613;3841;1388;4;-0.5706371;0.1786704;-0.4182825;-0.6837323;-4;-4;-1;2733;2994;-80;16;0.753199;-0.6495845;0.05124654;-0.0900277;3;4;1;637;3942;-692;2;0.4889196;-0.6600912;-0.4293629;-0.3753462;2;-7;0;917;3952;-659;8;0.4279778;-0.8348458;0.2313019;0.2576177;0;0;0;765;3389;2143;-0.3669178;2.481861;1.022516;-0.3609418;3.026445;1.054343;-0.3556877;3.505254;1.0803;-0.3429062;4.235888;1.14718;-0.5958198;4.568625;1.138928;-0.9396162;4.429222;1.189029;-0.9148375;4.829104;0.3536792;-0.6081941;4.998596;1.234042;-0.07555562;4.559526;1.138928;0.210777;4.409102;1.189029;0.08778077;3.524143;1.549575;-0.2782061;2.711958;1.226782;-0.6791666;2.440306;1.012219;-0.06331354;1.304906;0.3248689;0;0;0;-0.6791666;2.440306;1.012219;-0.06331354;1.304906;0.3248689;0;0;0
1074186.619;NotLabelled;NONE;16384;0.8135985;0.3711911;0.3822715;0.232687;7;0;-6;2646;-1710;2541;65536;-0.6398892;-0.3116343;0.6847851;0.1565097;5;-1;2;2371;-862;-3295;8192;0.5817174;-0.6867893;-0.4127424;-0.1398892;-3;7;11;1476;3765;103;32768;0.4639889;-0.7488465;-0.1897507;-0.433518;3;8;-6;962;3442;1749;256;0.3476454;-0.3878116;-0.5789474;-0.6273474;-2;1;-4;65;3900;-377;128;-0.03739612;0.1634349;0.5872576;0.7918453;-1;-3;2;-571;3873;1366;4;-0.5706371;0.1786704;-0.4182825;-0.6837323;-1;-1;-1;2889;3170;-28;16;0.7542248;-0.6481994;0.05124654;-0.09141274;2;0;1;1031;3910;-562;2;0.4889196;-0.66099;-0.4279778;-0.3753462;1;-5;1;893;3974;-653;8;0.4279778;-0.8348458;0.2313019;0.2576177;1;0;0;727;3435;2179;-0.3603309;2.481733;1.028023;-0.3543549;3.026328;1.059684;-0.3491008;3.505144;1.085494;-0.3379278;4.235805;1.152372;-0.5915735;4.567985;1.14412;-0.9350618;4.427825;1.194221;-0.9125438;4.826315;0.358142;-0.6048689;4.999374;1.237451;-0.07129037;4.560032;1.144118;0.2153729;4.410239;1.194219;0.09339625;3.528871;1.563798;-0.2740414;2.715392;1.245948;-0.6725798;2.440175;1.01774;-0.06252882;1.304905;0.3250216;0;0;0;-0.6725798;2.440175;1.01774;-0.06252882;1.304905;0.3250216;0;0;0
1074207.6237;NotLabelled;NONE;16384;0.8134322;0.3698061;0.3822715;0.2354571;5;-4;-5;2774;-1702;2511;65536;-0.6398892;-0.3116343;0.6854123;0.1537396;5;1;1;2549;-772;-3285;8192;0.5817174;-0.686236;-0.4141274;-0.1385041;-4;7;8;1406;3715;87;32768;0.4639889;-0.7484942;-0.1911357;-0.433518;3;5;-5;926;3456;1787;256;0.3476454;-0.3878116;-0.5789474;-0.6273474;-1;1;-4;53;4068;-517;128;-0.03739612;0.1634349;0.5872576;0.7918453;-1;-1;2;-641;3891;1374;4;-0.5706371;0.1786704;-0.4182825;-0.6837323;-2;1;-1;2745;3160;-34;16;0.7541294;-0.6481994;0.05263158;-0.09141274;1;-6;0;1027;4030;-638;2;0.4889196;-0.6617746;-0.4279778;-0.3739612;0;-4;1;931;4048;-671;8;0.4279778;-0.8348458;0.2313019;0.2576177;1;2;0;661;3455;2127;-0.3586982;2.480526;1.035437;-0.3527223;3.025129;1.066967;-0.347468;3.50395;1.092663;-0.3380702;4.234848;1.157188;-0.5925238;4.566381;1.147879;-0.935668;4.425548;1.198448;-0.9162008;4.819833;0.3603015;-0.6052179;4.994596;1.238108;-0.07222283;4.559694;1.147878;0.2148061;4.41076;1.198447;0.09453642;3.530057;1.570162;-0.2737424;2.715748;1.255426;-0.6709472;2.438965;1.025166;-0.06424612;1.303696;0.3295106;0;0;0;-0.6709472;2.438965;1.025166;-0.06424612;1.303696;0.3295106;0;0;0
1074227.7108;NotLabelled;NONE;16384;0.8123774;0.3698061;0.3836565;0.2368421;3;-4;-5;2732;-1800;2595;65536;-0.6398892;-0.3130194;0.6847808;0.1537396;4;2;1;2645;-846;-3219;8192;0.5817174;-0.6851169;-0.4155124;-0.1398892;-3;5;4;1384;3765;163;32768;0.4639889;-0.7473349;-0.1925208;-0.434903;4;2;-4;912;3480;1809;256;0.3476454;-0.3864266;-0.5789474;-0.6282015;0;1;-4;75;4028;-533;128;-0.03739612;0.1634349;0.5858725;0.7928707;-2;0;3;-595;3903;1334;4;-0.5706371;0.1786704;-0.4182825;-0.6837323;0;0;-1;2737;3058;12;16;0.7541294;-0.6481994;0.05263158;-0.09141274;1;-4;0;797;3958;-630;2;0.4889196;-0.6617746;-0.4279778;-0.3739612;0;-1;0;909;4060;-625;8;0.4279778;-0.8348458;0.2313019;0.2576177;1;2;0;631;3437;2161;-0.3570732;2.480018;1.037749;-0.3510972;3.024621;1.069279;-0.345843;3.503442;1.094975;-0.336445;4.23434;1.1595;-0.5908986;4.565873;1.15019;-0.934043;4.42504;1.20076;-0.9134241;4.815162;0.3606937;-0.60429;4.993335;1.238468;-0.07059765;4.559186;1.15019;0.2164312;4.410253;1.200759;0.09711701;3.530896;1.575954;-0.2704724;2.715759;1.262559;-0.6693222;2.438457;1.027477;-0.06262103;1.303188;0.3318224;0;0;0;-0.6693222;2.438457;1.027477;-0.06262103;1.303188;0.3318224;0;0;0
