SEP=;
index;label;segment;RightUpperArm_boneIndex;RightUpperArm_quat9x_w;RightUpperArm_quat9x_x;RightUpperArm_quat9x_y;RightUpperArm_quat9x_z;RightUpperArm_gyroscope_x;RightUpperArm_gyroscope_y;RightUpperArm_gyroscope_z;RightUpperArm_accelerometer_x;RightUpperArm_accelerometer_y;RightUpperArm_accelerometer_z;RightLowerArm_boneIndex;RightLowerArm_quat9x_w;RightLowerArm_quat9x_x;RightLowerArm_quat9x_y;RightLowerArm_quat9x_z;RightLowerArm_gyroscope_x;RightLowerArm_gyroscope_y;RightLowerArm_gyroscope_z;RightLowerArm_accelerometer_x;RightLowerArm_accelerometer_y;RightLowerArm_accelerometer_z;LeftUpperArm_boneIndex;LeftUpperArm_quat9x_w;LeftUpperArm_quat9x_x;LeftUpperArm_quat9x_y;LeftUpperArm_quat9x_z;LeftUpperArm_gyroscope_x;LeftUpperArm_gyroscope_y;LeftUpperArm_gyroscope_z;LeftUpperArm_accelerometer_x;LeftUpperArm_accelerometer_y;LeftUpperArm_accelerometer_z;LeftLowerArm_boneIndex;LeftLowerArm_quat9x_w;LeftLowerArm_quat9x_x;LeftLowerArm_quat9x_y;LeftLowerArm_quat9x_z;LeftLowerArm_gyroscope_x;LeftLowerArm_gyroscope_y;LeftLowerArm_gyroscope_z;LeftLowerArm_accelerometer_x;LeftLowerArm_accelerometer_y;LeftLowerArm_accelerometer_z;Chest_boneIndex;Chest_quat9x_w;Chest_quat9x_x;Chest_quat9x_y;Chest_quat9x_z;Chest_gyroscope_x;Chest_gyroscope_y;Chest_gyroscope_z;Chest_accelerometer_x;Chest_accelerometer_y;Chest_accelerometer_z;Spine_boneIndex;Spine_quat9x_w;Spine_quat9x_x;Spine_quat9x_y;Spine_quat9x_z;Spine_gyroscope_x;Spine_gyroscope_y;Spine_gyroscope_z;Spine_accelerometer_x;Spine_accelerometer_y;Spine_accelerometer_z;RightUpperLeg_boneIndex;RightUpperLeg_quat9x_w;RightUpperLeg_quat9x_x;RightUpperLeg_quat9x_y;RightUpperLeg_quat9x_z;RightUpperLeg_gyroscope_x;RightUpperLeg_gyroscope_y;RightUpperLeg_gyroscope_z;RightUpperLeg_accelerometer_x;RightUpperLeg_accelerometer_y;RightUpperLeg_accelerometer_z;RightLowerLeg_boneIndex;RightLowerLeg_quat9x_w;RightLowerLeg_quat9x_x;RightLowerLeg_quat9x_y;RightLowerLeg_quat9x_z;RightLowerLeg_gyroscope_x;RightLowerLeg_gyroscope_y;RightLowerLeg_gyroscope_z;RightLowerLeg_accelerometer_x;RightLowerLeg_accelerometer_y;RightLowerLeg_accelerometer_z;LeftUpperLeg_boneIndex;LeftUpperLeg_quat9x_w;LeftUpperLeg_quat9x_x;LeftUpperLeg_quat9x_y;LeftUpperLeg_quat9x_z;LeftUpperLeg_gyroscope_x;LeftUpperLeg_gyroscope_y;LeftUpperLeg_gyroscope_z;LeftUpperLeg_accelerometer_x;LeftUpperLeg_accelerometer_y;LeftUpperLeg_accelerometer_z;LeftLowerLeg_boneIndex;LeftLowerLeg_quat9x_w;LeftLowerLeg_quat9x_x;LeftLowerLeg_quat9x_y;LeftLowerLeg_quat9x_z;LeftLowerLeg_gyroscope_x;LeftLowerLeg_gyroscope_y;LeftLowerLeg_gyroscope_z;LeftLowerLeg_accelerometer_x;LeftLowerLeg_accelerometer_y;LeftLowerLeg_accelerometer_z;pelvis_x;pelvis_y;pelvis_z;lowerSpine_x;lowerSpine_y;lowerSpine_z;middleSpine_x;middleSpine_y;middleSpine_z;upperSpine_x;upperSpine_y;upperSpine_z;rightClavicle_x;rightClavicle_y;rightClavicle_z;rightShoulder_x;rightShoulder_y;rightShoulder_z;rightElbow_x;rightElbow_y;rightElbow_z;rightWrist_x;rightWrist_y;rightWrist_z;leftClavicle_x;leftClavicle_y;leftClavicle_z;leftShoulder_x;leftShoulder_y;leftShoulder_z;leftElbow_x;leftElbow_y;leftElbow_z;leftWrist_x;leftWrist_y;leftWrist_z;rightHip_x;rightHip_y;rightHip_z;rightKnee_x;rightKnee_y;rightKnee_z;rightAnkle_x;rightAnkle_y;rightAnkle_z;leftHip_x;leftHip_y;leftHip_z;leftKnee_x;leftKnee_y;leftKnee_z;leftAnkle_x;leftAnkle_y;leftAnkle_z;
970663.2753;NotLabelled;NONE;16384;0.5556313;-0.4445983;0.5124654;0.4806094;1;-1;-5;166;4040;555;65536;0.6384651;-0.4293629;0.2977839;0.5650969;1;0;9;-1803;3590;89;8192;0.5772268;-0.5706371;-0.4404432;-0.3836565;-11;0;-7;386;4065;195;32768;0.6161458;-0.5540166;-0.2285319;-0.5110803;10;0;15;1325;3835;598;256;0.1288089;-0.1426593;-0.6509695;-0.7343673;0;6;-2;-53;4016;-543;128;0;0.1385041;0.5277008;0.8380623;0;7;7;-433;3705;1852;4;-0.433518;0.5110803;-0.5027701;-0.5459682;4;16;-7;-323;4030;-554;16;0.632964;-0.7737525;-0.01523546;-0.02077562;4;6;-3;7;4012;968;2;0.4958449;-0.5485936;-0.434903;-0.5138504;-7;16;-3;-149;4080;-569;8;0.6385041;-0.7573037;0.09833795;0.09556787;-2;4;-3;-39;4047;615;0.4257558;-0.1617317;0.1374965;0.431614;0.3721337;0.2496344;0.436768;0.8418169;0.3462239;0.4356181;1.570376;0.4337619;0.176405;1.898333;0.4348055;-0.1646682;1.751039;0.4807706;-0.2560113;0.8365173;0.3639972;0;0;0;0.6967482;1.899157;0.4348047;0.9858996;1.752861;0.4807699;1.027536;0.792398;0.5444368;0.878062;-0.07674551;0.1979768;0.1135291;-0.2012658;0.120652;0.2610545;-1.653528;0.2208015;0.1418482;-2.972996;0.4597998;0.1135291;-0.2012658;0.120652;0.2610545;-1.653528;0.2208015;0.1418482;-2.972996;0.4597998
970684.0479;NotLabelled;NONE;16384;0.5545202;-0.4459834;0.5124654;0.4806094;0;0;-6;258;4046;513;65536;0.6387565;-0.4307479;0.2977839;0.5637119;0;2;9;-1839;3628;113;8192;0.5785927;-0.5692521;-0.4404432;-0.3836565;-8;3;-8;368;4043;209;32768;0.6186253;-0.5512465;-0.2285319;-0.5110803;11;6;15;1309;3821;548;256;0.1274238;-0.1398892;-0.6509695;-0.7351414;0;6;-2;-151;4056;-603;128;0;0.1357341;0.5277008;0.8385154;0;8;6;-491;3659;1854;4;-0.433518;0.5152354;-0.501385;-0.5433301;3;5;-5;-291;4040;-632;16;0.632964;-0.7736545;-0.01800554;-0.02216066;4;2;-3;-93;3980;864;2;0.4944598;-0.5474437;-0.4362881;-0.5152354;-7;14;-4;-213;4078;-503;8;0.6385041;-0.7573037;0.09833795;0.09556787;-1;4;-3;55;4089;649;0.4313844;-0.15909;0.1351344;0.4372429;0.3748007;0.2471542;0.4423971;0.8445048;0.3436398;0.4398826;1.573061;0.4311783;0.1800558;1.900531;0.4322219;-0.1607409;1.752599;0.478187;-0.254445;0.8384008;0.3607477;0;0;0;0.7003967;1.902329;0.4322213;0.9898215;1.756576;0.4781864;1.03477;0.7961254;0.5397672;0.885595;-0.07210493;0.1908992;0.1191577;-0.1986279;0.1182993;0.2692414;-1.650262;0.223609;0.1527274;-2.969764;0.4637492;0.1191577;-0.1986279;0.1182993;0.2692414;-1.650262;0.223609;0.1527274;-2.969764;0.4637492
970704.3311;NotLabelled;NONE;16384;0.5533203;-0.4473684;0.5138504;0.4792244;0;4;-8;212;4096;533;65536;0.6383945;-0.432133;0.299169;0.5623268;0;3;11;-1865;3662;79;8192;0.5799521;-0.567867;-0.4404432;-0.3836565;-6;6;-7;372;3987;219;32768;0.6187928;-0.5484765;-0.2285319;-0.5138504;12;12;15;1201;3793;592;256;0.1274238;-0.1385041;-0.6509695;-0.7354036;0;6;-2;-167;4070;-551;128;0;0.134349;0.5277008;0.8387384;1;7;6;-485;3689;1780;4;-0.433518;0.5166205;-0.501385;-0.5420134;2;4;-4;-237;3994;-554;16;0.634349;-0.7725578;-0.01800554;-0.02077562;4;2;-3;-73;3954;774;2;0.4958449;-0.5426501;-0.4390582;-0.5166205;-6;9;-4;-283;4132;-525;8;0.6371191;-0.7589964;0.09556787;0.09418282;-1;4;-2;19;4067;693;0.4352956;-0.156333;0.1305331;0.4411544;0.3775816;0.2424372;0.4463089;0.8473072;0.3388211;0.4425055;1.575794;0.4268813;0.1820996;1.902803;0.4281603;-0.1584347;1.754235;0.4740204;-0.2515771;0.8395319;0.3601265;0;0;0;0.7024364;1.905523;0.4281594;0.992119;1.760248;0.4740192;1.040599;0.7998266;0.5333117;0.8949445;-0.06776094;0.1813686;0.1230688;-0.1958742;0.1137073;0.2747689;-1.646697;0.2275487;0.1614899;-2.966254;0.4689302;0.1230688;-0.1958742;0.1137073;0.2747689;-1.646697;0.2275487;0.1614899;-2.966254;0.4689302
970726.0533;NotLabelled;NONE;16384;0.5533965;-0.4487534;0.5138504;0.4778393;0;3;-9;248;4100;527;65536;0.6380233;-0.433518;0.300554;0.5609418;0;2;13;-1899;3708;95;8192;0.5793349;-0.566482;-0.4418283;-0.3850415;-3;9;-7;330;4005;281;32768;0.618354;-0.5470914;-0.2299169;-0.5152354;11;18;15;1241;3775;546;256;0.1274238;-0.1371191;-0.6509695;-0.7356631;-1;4;-3;-145;4038;-525;128;0;0.132964;0.5290859;0.8380863;2;6;6;-409;3743;1824;4;-0.432133;0.5166205;-0.501385;-0.5431183;2;4;-3;-167;4072;-540;16;0.634349;-0.7724858;-0.01939058;-0.02216066;3;2;-3;-47;3978;720;2;0.4958449;-0.541328;-0.4390582;-0.5180055;-4;6;-4;-295;4062;-509;8;0.6371191;-0.7591696;0.09418282;0.09418282;0;3;-3;67;4073;687;0.4424565;-0.1528058;0.1233211;0.4483154;0.3811212;0.2351685;0.4534699;0.8508563;0.3315024;0.4483041;1.579335;0.4195635;0.1872872;1.905857;0.4208427;-0.1529686;1.756652;0.4667026;-0.2483538;0.8416061;0.3575117;0;0;0;0.7076181;1.90955;0.4208421;0.9975718;1.764816;0.4667016;1.049324;0.8044372;0.5238774;0.9049446;-0.06127739;0.1668326;0.1302297;-0.192349;0.1065;0.2808204;-1.642996;0.2239856;0.1725386;-2.963498;0.4624772;0.1302297;-0.192349;0.1065;0.2808204;-1.642996;0.2239856;0.1725386;-2.963498;0.4624772
970746.1854;NotLabelled;NONE;16384;0.5522705;-0.4501385;0.5138504;0.4778393;1;3;-10;268;4058;485;65536;0.6376428;-0.434903;0.301939;0.5595568;0;2;15;-1823;3744;93;8192;0.5791313;-0.5637119;-0.4432133;-0.3878116;-1;10;-4;266;4009;343;32768;0.6179676;-0.5443213;-0.2313019;-0.5180055;10;19;14;1273;3795;628;256;0.1274238;-0.1371191;-0.6509695;-0.7356631;-2;5;-3;-157;4072;-601;128;0;0.1315789;0.5290859;0.8383049;2;6;4;-387;3757;1866;4;-0.432133;0.5180055;-0.5;-0.5430758;3;5;-1;-139;4098;-526;16;0.634349;-0.7724497;-0.02077562;-0.02216066;2;3;-3;-85;3970;752;2;0.4958449;-0.5402017;-0.4404432;-0.5180055;-4;3;-3;-237;4046;-471;8;0.6371191;-0.7589964;0.09418282;0.09556787;0;2;-3;55;4077;743;0.4484353;-0.150146;0.1217264;0.4542983;0.3841558;0.231767;0.4594564;0.8542147;0.3265113;0.4529288;1.582682;0.4145737;0.1913018;1.908715;0.4158534;-0.1486744;1.758874;0.4617127;-0.2451382;0.8436646;0.354872;0;0;0;0.7116249;1.913381;0.415853;1.001848;1.76919;0.4617126;1.054464;0.8088241;0.5183282;0.9111995;-0.05676365;0.1605275;0.1362079;-0.1897459;0.1050505;0.290489;-1.639921;0.2235797;0.1822938;-2.960449;0.4619622;0.1362079;-0.1897459;0.1050505;0.290489;-1.639921;0.2235797;0.1822938;-2.960449;0.4619622
970767.0677;NotLabelled;NONE;16384;0.5523365;-0.4515235;0.5138504;0.4764543;2;4;-10;328;4142;477;65536;0.637253;-0.4362881;0.3033241;0.5581717;0;2;17;-1915;3780;139;8192;0.5784867;-0.5623268;-0.4445983;-0.3891967;0;8;-1;226;4039;449;32768;0.6182827;-0.5387812;-0.234072;-0.5221606;7;15;10;1339;3771;644;256;0.1274238;-0.1357341;-0.6509695;-0.7359199;-3;4;-2;-159;4056;-543;128;0;0.1301939;0.5290859;0.8385211;2;7;4;-401;3695;1870;4;-0.432133;0.5180055;-0.5;-0.5430758;3;5;0;-129;4084;-582;16;0.6357341;-0.7712717;-0.02216066;-0.02216066;2;3;-3;-21;3996;736;2;0.4958449;-0.5388702;-0.4404432;-0.5193906;-5;2;-2;-205;4138;-401;8;0.6371191;-0.759167;0.09279778;0.09556787;0;2;-3;-17;4073;663;0.4496055;-0.1476474;0.11567;0.4554686;0.3866658;0.225655;0.4606267;0.8567348;0.3203505;0.4540991;1.585202;0.4084129;0.1924722;1.911235;0.4096926;-0.1475041;1.761395;0.455552;-0.2426714;0.8457055;0.3516956;0;0;0;0.7127953;1.915901;0.4096922;1.003019;1.771709;0.4555518;1.057364;0.8112526;0.5088836;0.9169696;-0.05325651;0.1473587;0.137378;-0.1872492;0.09899865;0.2952256;-1.636912;0.219083;0.1892326;-2.957461;0.4583362;0.137378;-0.1872492;0.09899865;0.2952256;-1.636912;0.219083;0.1892326;-2.957461;0.4583362
970787.292;NotLabelled;NONE;16384;0.5511039;-0.4529086;0.5152354;0.4750692;1;3;-10;300;4100;451;65536;0.6368541;-0.4376731;0.3047091;0.5567867;1;2;18;-1965;3730;97;8192;0.5778313;-0.5609418;-0.4459834;-0.3905817;0;5;0;112;4115;473;32768;0.6166142;-0.5373961;-0.2354571;-0.5249307;4;12;8;1367;3827;624;256;0.1260388;-0.134349;-0.6523545;-0.7351858;-3;3;-1;-179;4084;-549;128;0;0.1274238;0.5304709;0.8380715;5;4;3;-443;3675;1844;4;-0.433518;0.5193906;-0.4986149;-0.5419213;2;5;0;-187;4092;-560;16;0.6357341;-0.7712717;-0.02216066;-0.02216066;2;1;-3;51;3992;780;2;0.4958449;-0.5377352;-0.4418283;-0.5193906;-4;3;-1;-149;4118;-359;8;0.6385041;-0.7580025;0.09279778;0.09556787;0;4;-2;-35;4041;615;0.4555635;-0.1443529;0.1107273;0.4614268;0.3899717;0.2206577;0.4665851;0.8600497;0.3153052;0.4586962;1.588504;0.4033687;0.1964605;1.914047;0.4046489;-0.1432351;1.763572;0.450508;-0.2394639;0.8477292;0.3490106;0;0;0;0.7167739;1.919685;0.4046485;1.007267;1.776037;0.4505078;1.062443;0.8155975;0.5033088;0.9288135;-0.04730844;0.1354454;0.143336;-0.1839561;0.09406026;0.3014363;-1.633619;0.2138124;0.2000238;-2.955115;0.4498017;0.143336;-0.1839561;0.09406026;0.3014363;-1.633619;0.2138124;0.2000238;-2.955115;0.4498017
970808.0754;NotLabelled;NONE;16384;0.5499627;-0.4542936;0.5152354;0.4750692;0;4;-10;192;4108;473;65536;0.6357779;-0.4390582;0.3074792;0.5554016;1;2;18;-1901;3648;85;8192;0.5778313;-0.5609418;-0.4459834;-0.3905817;0;2;0;146;4105;479;32768;0.6161085;-0.536011;-0.2368421;-0.5263157;2;7;5;1351;3745;586;256;0.1260388;-0.132964;-0.6523545;-0.7354376;-4;1;-2;-209;3998;-529;128;0;0.1260388;0.5318559;0.8374028;3;2;2;-499;3661;1858;4;-0.433518;0.5207756;-0.4972299;-0.5418646;2;5;0;-251;4038;-572;16;0.6357341;-0.7712306;-0.0235457;-0.02216066;1;3;-3;-7;4014;822;2;0.4958449;-0.5377352;-0.4418283;-0.5193906;-3;3;-2;-189;4104;-391;8;0.6385041;-0.7581708;0.09141274;0.09556787;0;5;-2;-93;4037;621;0.4614143;-0.1439867;0.1125214;0.4672817;0.390717;0.2205909;0.4724435;0.8611221;0.3136013;0.4651232;1.589837;0.3995299;0.2031455;1.915591;0.3998291;-0.1366741;1.765519;0.4460932;-0.2356458;0.8497357;0.3467223;0;0;0;0.7234632;1.920816;0.3998667;1.013837;1.777072;0.446177;1.070114;0.8164763;0.4947934;0.9350967;-0.0457139;0.1257606;0.1491861;-0.1836476;0.09600432;0.3078596;-1.633281;0.2153498;0.2073664;-2.954778;0.4517311;0.1491861;-0.1836476;0.09600432;0.3078596;-1.633281;0.2153498;0.2073664;-2.954778;0.4517311
970830.0415;NotLabelled;NONE;16384;0.5475577;-0.4570637;0.5166205;0.4736842;1;3;-8;120;3990;499;65536;0.6349264;-0.4418283;0.3102493;0.5526316;2;1;17;-1913;3674;103;8192;0.5778313;-0.5609418;-0.4459834;-0.3905817;0;0;2;122;4079;495;32768;0.6161085;-0.536011;-0.2368421;-0.5263157;0;2;2;1393;3725;618;256;0.1260388;-0.1315789;-0.6523545;-0.7356866;-4;1;-1;-161;4042;-545;128;0;0.1246537;0.5318559;0.8376101;4;1;2;-461;3695;1862;4;-0.433518;0.5207756;-0.4972299;-0.5418646;2;3;0;-293;4044;-614;16;0.6357341;-0.7711871;-0.02493075;-0.02216066;2;2;-3;-65;3974;864;2;0.4972299;-0.535311;-0.4432133;-0.5193906;-3;3;-2;-345;4058;-373;8;0.6385041;-0.7586729;0.08864266;0.09418282;0;4;-2;-75;4041;621;0.466585;-0.1398339;0.1060827;0.4724564;0.3952327;0.212343;0.4776217;0.8659492;0.3037617;0.4689445;1.594649;0.3896927;0.2063578;1.919912;0.3900119;-0.133177;1.769205;0.4363006;-0.2306593;0.8526278;0.3429562;0;0;0;0.7266648;1.926111;0.3900113;1.017311;1.78291;0.4363;1.073513;0.8224902;0.4883546;0.9395317;-0.03956795;0.1186347;0.1543563;-0.1795502;0.08971149;0.3168323;-1.628663;0.2102712;0.2190682;-2.950171;0.4477255;0.1543563;-0.1795502;0.08971149;0.3168323;-1.628663;0.2102712;0.2190682;-2.950171;0.4477255
970850.0463;NotLabelled;NONE;16384;0.5475962;-0.4584487;0.5166205;0.4722992;2;-1;-9;116;3954;449;65536;0.6344866;-0.4432133;0.3116343;0.5512465;2;-1;16;-1841;3628;85;8192;0.5778313;-0.5609418;-0.4459834;-0.3905817;0;-2;2;192;4091;447;32768;0.6161085;-0.536011;-0.2368421;-0.5263157;-1;0;-1;1481;3751;568;256;0.1274238;-0.1315789;-0.6537396;-0.7342171;-4;0;-1;-195;4008;-557;128;0;0.1246537;0.5318559;0.8376101;4;1;2;-449;3689;1858;4;-0.433518;0.5221606;-0.4958449;-0.541801;2;2;0;-279;3992;-598;16;0.6357341;-0.7711871;-0.02493075;-0.02216066;1;1;-2;-97;4028;814;2;0.4972299;-0.5339636;-0.4432133;-0.5207756;-4;4;-2;-337;4094;-341;8;0.6385041;-0.7586729;0.08864266;0.09418282;0;1;-1;-57;4035;615;0.4748887;-0.13413;0.09218633;0.4807602;0.4009471;0.1983944;0.4859256;0.8716726;0.289767;0.4758855;1.600355;0.3757;0.2126911;1.925126;0.3760194;-0.1265616;1.773784;0.4223067;-0.2250291;0.8565383;0.3368972;0;0;0;0.7329856;1.932298;0.3760202;1.023899;1.789641;0.4223093;1.080319;0.8292155;0.4740336;0.9455611;-0.03284264;0.1045963;0.1626598;-0.1738482;0.07581931;0.3253888;-1.622961;0.1960375;0.2303396;-2.944477;0.4345463;0.1626598;-0.1738482;0.07581931;0.3253888;-1.622961;0.1960375;0.2303396;-2.944477;0.4345463
970871.0445;NotLabelled;NONE;16384;0.5463177;-0.4598338;0.5180055;0.4709141;3;-1;-9;118;3984;481;65536;0.6328337;-0.4445983;0.3130194;0.5512465;1;-3;14;-1897;3684;97;8192;0.5776952;-0.5609418;-0.4473684;-0.3891967;0;-3;4;188;4087;419;32768;0.6148727;-0.5387812;-0.2368421;-0.5249307;-4;-5;-6;1351;3713;572;256;0.1274238;-0.1315789;-0.6537396;-0.7342171;-4;0;-2;-125;4052;-571;128;0;0.1246537;0.533241;0.836729;5;0;1;-385;3679;1814;4;-0.433518;0.5221606;-0.4958449;-0.541801;1;3;0;-215;4104;-542;16;0.6357341;-0.7711411;-0.02631579;-0.02216066;2;3;-2;-101;4028;848;2;0.4972299;-0.5339636;-0.4432133;-0.5207756;-4;4;-3;-359;4072;-413;8;0.6385041;-0.7588334;0.08725762;0.09418282;-1;0;-2;25;4047;665;0.4783973;-0.1318512;0.0905364;0.4842688;0.4032259;0.1967444;0.4894341;0.8739514;0.2881171;0.4784421;1.602986;0.3708812;0.2148261;1.927413;0.3697739;-0.1242325;1.775834;0.4166994;-0.223202;0.858469;0.3331803;0;0;0;0.7351108;1.935262;0.3697733;1.026206;1.793185;0.4166986;1.082419;0.8327646;0.4687422;0.9483646;-0.02929258;0.09904897;0.1661685;-0.1715693;0.07416938;0.332193;-1.62015;0.1962732;0.2366896;-2.941667;0.4346005;0.1661685;-0.1715693;0.07416938;0.332193;-1.62015;0.1962732;0.2366896;-2.941667;0.4346005
970892.0185;NotLabelled;NONE;16384;0.5451489;-0.4612188;0.5180055;0.4709141;2;-2;-10;164;4084;431;65536;0.6321467;-0.4445983;0.3144044;0.5512465;1;-4;13;-1857;3758;53;8192;0.5786259;-0.5609418;-0.4473684;-0.3878116;0;-3;5;206;4115;391;32768;0.6148384;-0.5401662;-0.2368421;-0.5235457;-5;-6;-8;1347;3769;586;256;0.1274238;-0.1301939;-0.6551247;-0.7332287;-5;-1;-2;-123;4066;-545;128;0;0.1232687;0.534626;0.8360502;5;0;0;-357;3677;1856;4;-0.433518;0.5235457;-0.4944598;-0.5417302;2;3;0;-205;4020;-606;16;0.6357341;-0.7710926;-0.02770083;-0.02216066;3;3;-1;-83;4006;846;2;0.4972299;-0.5328109;-0.4445983;-0.5207756;-3;3;-3;-285;4128;-405;8;0.6385041;-0.7588334;0.08725762;0.09418282;-1;-1;-2;-57;4097;691;0.4810548;-0.130578;0.08523273;0.4869301;0.4048452;0.1896815;0.4920987;0.8758683;0.2795066;0.4811068;1.604903;0.3622708;0.2174907;1.92933;0.3611634;-0.1215679;1.777751;0.4080889;-0.2224846;0.8601875;0.3292024;0;0;0;0.7377755;1.937179;0.3611628;1.02887;1.795102;0.408088;1.086956;0.8349762;0.4634023;0.9490958;-0.02843237;0.0982886;0.1688255;-0.1703496;0.06900765;0.3348501;-1.61893;0.1911114;0.2415615;-2.940451;0.430293;0.1688255;-0.1703496;0.06900765;0.3348501;-1.61893;0.1911114;0.2415615;-2.940451;0.430293
970913.297;NotLabelled;NONE;16384;0.5438295;-0.4612188;0.5193906;0.4709141;3;-2;-9;162;4092;515;65536;0.6304785;-0.4459834;0.3157895;0.5512465;1;-5;13;-1893;3686;105;8192;0.5772799;-0.5623268;-0.4473684;-0.3878116;1;-3;6;238;4065;353;32768;0.6147978;-0.5415512;-0.2368421;-0.5221606;-6;-6;-11;1339;3765;588;256;0.1288089;-0.1301939;-0.6551247;-0.7329867;-5;0;-1;-189;4022;-569;128;0;0.1232687;0.534626;0.8360502;5;0;1;-391;3721;1816;4;-0.433518;0.5235457;-0.4944598;-0.5417302;0;0;1;-291;4078;-636;16;0.6371191;-0.7699074;-0.02770083;-0.0235457;3;2;-1;-113;3976;766;2;0.4972299;-0.5314537;-0.4445983;-0.5221606;-3;1;-3;-375;4100;-399;8;0.6385041;-0.7586602;0.08725762;0.09556787;-1;0;-2;-27;4049;671;0.4834087;-0.1296873;0.08808269;0.4892879;0.4060864;0.1907184;0.4944598;0.8774104;0.2789485;0.4825892;1.60673;0.3590531;0.2185846;1.930834;0.3567483;-0.120295;1.77902;0.4042075;-0.2200447;0.8610554;0.3285723;0;0;0;0.7388596;1.939305;0.3567477;1.030122;1.79775;0.4042068;1.090472;0.8378053;0.4602329;0.9508662;-0.02655935;0.09805807;0.1711788;-0.1695132;0.07200377;0.3409652;-1.617553;0.1953495;0.2503881;-2.939073;0.4355733;0.1711788;-0.1695132;0.07200377;0.3409652;-1.617553;0.1953495;0.2503881;-2.939073;0.4355733
970934.0227;NotLabelled;NONE;16384;0.5426518;-0.4626039;0.5193906;0.4709141;4;-3;-8;90;4128;509;65536;0.6302944;-0.4459834;0.3185596;0.5498615;0;-5;11;-1909;3730;141;8192;0.578208;-0.5623268;-0.4473684;-0.3864266;3;-4;7;214;4167;397;32768;0.6129885;-0.5443213;-0.2382271;-0.5207756;-6;-7;-13;1357;3789;574;256;0.1288089;-0.1288089;-0.6551247;-0.7332314;-6;-2;-2;-165;4104;-609;128;0;0.1218837;0.536011;0.8353661;6;-1;0;-415;3683;1776;4;-0.433518;0.5235457;-0.4944598;-0.5417302;0;-3;2;-233;4090;-590;16;0.6371191;-0.7698564;-0.02908587;-0.0235457;2;1;-1;-57;3988;716;2;0.5;-0.5288484;-0.4445983;-0.5221606;-3;-3;-3;-283;4078;-401;8;0.6385041;-0.7586602;0.08725762;0.09556787;-1;-1;-1;-25;4055;717;0.4861931;-0.1267877;0.08206783;0.4920723;0.4089861;0.1847036;0.4972443;0.8803101;0.2729336;0.4839365;1.609661;0.3525202;0.2192943;1.933243;0.3499821;-0.1192863;1.780796;0.3975452;-0.2199631;0.862751;0.3241487;0;0;0;0.7395516;1.942739;0.3499815;1.031092;1.801792;0.3975445;1.088203;0.8417745;0.4556974;0.9482876;-0.02354002;0.09591928;0.1739632;-0.1666141;0.06598899;0.3435163;-1.614654;0.1896554;0.2517374;-2.937119;0.4241495;0.1739632;-0.1666141;0.06598899;0.3435163;-1.614654;0.1896554;0.2517374;-2.937119;0.4241495
970954.1813;NotLabelled;NONE;16384;0.540136;-0.4639889;0.5207756;0.4709141;4;-3;-7;96;4110;489;65536;0.6273948;-0.4473684;0.3199446;0.5512465;0;-5;10;-1989;3666;113;8192;0.575781;-0.5637119;-0.4487534;-0.3864266;2;-4;8;306;4127;377;32768;0.6141031;-0.5457063;-0.2382271;-0.5180055;-6;-7;-15;1423;3815;540;256;0.1288089;-0.1288089;-0.6565097;-0.7319915;-5;-2;-2;-75;4044;-501;128;-0.001385042;0.1218837;0.5373961;0.8344746;10;-5;0;-453;3755;1814;4;-0.433518;0.5235457;-0.4944598;-0.5417302;0;-4;2;-247;4104;-650;16;0.6371191;-0.7698975;-0.02908587;-0.02216066;2;0;-1;-73;4090;770;2;0.5;-0.5288484;-0.4445983;-0.5221606;-1;-2;-3;-311;4052;-405;8;0.6385041;-0.7588183;0.08587258;0.09556787;-1;0;-1;-31;4033;691;0.4927555;-0.1242247;0.08409694;0.4986385;0.4118934;0.1849171;0.5038136;0.8835139;0.27155;0.4891279;1.612838;0.3511378;0.2238786;1.935923;0.3485729;-0.11442;1.78284;0.3960996;-0.2140468;0.8646536;0.3230395;0;0;0;0.7441171;1.946396;0.3486274;1.035916;1.805996;0.3962208;1.095403;0.8459668;0.451725;0.951805;-0.02145433;0.0985288;0.1805249;-0.1641054;0.06816474;0.3503237;-1.612144;0.1914939;0.2612329;-2.93461;0.4270213;0.1805249;-0.1641054;0.06816474;0.3503237;-1.612144;0.1914939;0.2612329;-2.93461;0.4270213
970974.1573;NotLabelled;NONE;16384;0.540136;-0.4639889;0.5207756;0.4709141;4;-3;-6;96;4066;501;65536;0.6273948;-0.4473684;0.3199446;0.5512465;0;-4;8;-2023;3738;137;8192;0.5762755;-0.5650969;-0.4487534;-0.3836565;5;-3;9;166;4091;353;32768;0.6109384;-0.5512465;-0.2396122;-0.5152354;-7;-6;-17;1437;3851;536;256;0.1301939;-0.1288089;-0.6565097;-0.7317464;-6;-2;-2;-179;4056;-523;128;-0.001385042;0.1218837;0.5373961;0.8344746;9;-3;0;-405;3773;1864;4;-0.433518;0.5221606;-0.4944598;-0.5430653;0;-5;2;-179;4018;-642;16;0.6371191;-0.7698975;-0.02908587;-0.02216066;2;0;-1;-121;4030;722;2;0.5;-0.5288484;-0.4445983;-0.5221606;-1;-2;-2;-267;4118;-377;8;0.6385041;-0.7588183;0.08587258;0.09556787;-1;0;-1;-41;4005;623;0.4906346;-0.1235743;0.07767607;0.4965212;0.4128876;0.1766488;0.5016997;0.8848042;0.2616565;0.4875101;1.614424;0.3385782;0.2224794;1.937676;0.3348411;-0.1159212;1.784997;0.3829381;-0.2151265;0.8661327;0.3183267;0;0;0;0.742725;1.947798;0.3348401;1.034431;1.807375;0.3829368;1.090404;0.8476191;0.4462609;0.9476267;-0.02131367;0.09646279;0.1784034;-0.1635094;0.06189313;0.3482109;-1.611549;0.18521;0.2617545;-2.933977;0.4219292;0.1784034;-0.1635094;0.06189313;0.3482109;-1.611549;0.18521;0.2617545;-2.933977;0.4219292
970995.0529;NotLabelled;NONE;16384;0.5389432;-0.4653739;0.5207756;0.4709141;4;-3;-6;172;4104;503;65536;0.6266866;-0.4473684;0.3213296;0.5512465;-1;-4;7;-1907;3744;115;8192;0.5758359;-0.566482;-0.4487534;-0.3822715;6;-4;10;178;4093;459;32768;0.612016;-0.5526316;-0.2396122;-0.5124654;-7;-5;-18;1477;3777;502;256;0.1315789;-0.1288089;-0.6565097;-0.7314987;-8;-2;-1;-209;4068;-517;128;-0.002770083;0.1218837;0.5387812;0.8335776;7;-3;0;-445;3697;1864;4;-0.432133;0.5221606;-0.4944598;-0.5441681;0;-6;2;-141;4032;-616;16;0.6385041;-0.7686544;-0.03047091;-0.0235457;2;0;-1;-141;4014;760;2;0.501385;-0.5286996;-0.4432133;-0.5221606;-2;-2;-2;-233;4184;-387;8;0.6385041;-0.7588183;0.08587258;0.09556787;0;0;0;15;4079;675;0.4916704;-0.1224461;0.07812041;0.4975572;0.4140158;0.1770931;0.5027357;0.8859324;0.2621008;0.4871117;1.615578;0.338499;0.2214465;1.938307;0.3345262;-0.1166541;1.784997;0.382728;-0.2157299;0.8661323;0.3179182;0;0;0;0.7416713;1.94945;0.3345253;1.033651;1.809635;0.3827268;1.09067;0.8501987;0.4498598;0.9417532;-0.02197552;0.1108567;0.1794393;-0.1623816;0.06233749;0.3503913;-1.610595;0.1819654;0.2634862;-2.933023;0.4185202;0.1794393;-0.1623816;0.06233749;0.3503913;-1.610595;0.1819654;0.2634862;-2.933023;0.4185202
971016.0454;NotLabelled;NONE;16384;0.5376014;-0.4653739;0.5221606;0.4709141;4;-3;-6;106;4108;517;65536;0.6266866;-0.4473684;0.3213296;0.5512465;-2;-3;6;-1937;3764;115;8192;0.5744701;-0.567867;-0.4487534;-0.3822715;5;-4;10;236;4049;427;32768;0.6106651;-0.5554016;-0.2396122;-0.5110803;-8;-6;-18;1525;3757;434;256;0.132964;-0.1288089;-0.6578947;-0.7300023;-6;-3;-1;-189;4054;-525;128;-0.004155125;0.1232687;0.5401662;0.8324711;7;-5;-1;-451;3685;1796;4;-0.432133;0.5207756;-0.4958449;-0.544235;0;-4;2;-153;4080;-570;16;0.6385041;-0.7686544;-0.03047091;-0.0235457;2;0;-1;-97;3996;784;2;0.501385;-0.5286996;-0.4432133;-0.5221606;-1;-1;-2;-237;4014;-351;8;0.6385041;-0.7588183;0.08587258;0.09556787;0;0;-1;-3;4059;751;0.4929405;-0.1209617;0.08126593;0.498831;0.4158392;0.1783862;0.5040126;0.8880458;0.2617643;0.4869467;1.617714;0.3376312;0.2206493;1.939919;0.3333888;-0.1171564;1.785981;0.3816566;-0.2146293;0.8669791;0.3163518;0;0;0;0.7408511;1.952082;0.3334495;1.033099;1.812875;0.3817915;1.088855;0.8533506;0.4487073;0.9414756;-0.020298;0.1128434;0.1807088;-0.1609511;0.06563279;0.3548589;-1.608644;0.1869393;0.2689756;-2.932003;0.4186153;0.1807088;-0.1609511;0.06563279;0.3548589;-1.608644;0.1869393;0.2689756;-2.932003;0.4186153
971037.0473;NotLabelled;NONE;16384;0.5376014;-0.4653739;0.5221606;0.4709141;4;-3;-5;84;4122;527;65536;0.6244726;-0.4487534;0.3213296;0.5526316;-3;-2;5;-1947;3728;107;8192;0.5729337;-0.5692521;-0.4501385;-0.3808864;4;-5;10;174;4041;383;32768;0.608749;-0.5581717;-0.2409972;-0.5096953;-8;-7;-18;1573;3787;446;256;0.132964;-0.1288089;-0.6578947;-0.7300023;-6;-3;-1;-111;4062;-485;128;-0.004155125;0.1232687;0.5401662;0.8324711;7;-4;-1;-473;3719;1776;4;-0.432133;0.5193906;-0.4958449;-0.545557;0;-5;2;-189;4096;-664;16;0.6385041;-0.7685983;-0.03185596;-0.0235457;2;0;0;-115;4026;744;2;0.5027701;-0.5273827;-0.4432133;-0.5221606;-2;-1;-2;-349;4106;-337;8;0.6385041;-0.7588183;0.08587258;0.09556787;0;0;-1;23;4043;713;0.4945745;-0.1210227;0.08254515;0.5004686;0.4161024;0.1778547;0.5056533;0.8885875;0.2596401;0.4876602;1.618559;0.3323013;0.2209534;1.940403;0.3266478;-0.1166558;1.78625;0.3755967;-0.2152065;0.8669782;0.3159596;0;0;0;0.7411392;1.953229;0.3266467;1.033564;1.814608;0.3755951;1.086188;0.8552909;0.4478236;0.9355904;-0.01951885;0.1164398;0.1823422;-0.1610641;0.06705851;0.352756;-1.609309;0.1870836;0.2664497;-2.932668;0.4186016;0.1823422;-0.1610641;0.06705851;0.352756;-1.609309;0.1870836;0.2664497;-2.932668;0.4186016
971058.0522;NotLabelled;NONE;16384;0.5351802;-0.466759;0.5221606;0.4722992;4;-3;-4;98;4028;491;65536;0.6244726;-0.4487534;0.3213296;0.5526316;-4;-2;2;-1901;3708;41;8192;0.573852;-0.5692521;-0.4501385;-0.3795014;3;-8;10;196;4037;367;32768;0.6097897;-0.5595568;-0.2409972;-0.5069252;-8;-10;-18;1579;3761;378;256;0.132964;-0.1288089;-0.6592798;-0.7287517;-7;-3;-1;-149;4014;-443;128;-0.004155125;0.1232687;0.5415512;0.8315707;7;-3;-1;-445;3711;1764;4;-0.432133;0.5193906;-0.4958449;-0.545557;0;-6;2;-155;4072;-652;16;0.6385041;-0.7685983;-0.03185596;-0.0235457;2;0;0;-55;4058;804;2;0.5027701;-0.5273827;-0.4432133;-0.5221606;2;-4;-1;-181;4092;-385;8;0.6385041;-0.7589737;0.08448754;0.09556787;1;0;-1;-45;4001;681;0.4917196;-0.1204176;0.07892285;0.4976136;0.4167075;0.1742325;0.5027984;0.8891926;0.2560179;0.4848052;1.619164;0.328679;0.2180984;1.941009;0.3230255;-0.1195107;1.786855;0.3719744;-0.2180543;0.8675833;0.3123254;0;0;0;0.7382842;1.953835;0.3230245;1.030709;1.815213;0.3719728;1.082002;0.8562393;0.449524;0.9283672;-0.02045774;0.1245848;0.1794873;-0.160459;0.06343622;0.3512488;-1.608871;0.1794619;0.2671643;-2.93222;0.4118459;0.1794873;-0.160459;0.06343622;0.3512488;-1.608871;0.1794619;0.2671643;-2.93222;0.4118459
971079.352;NotLabelled;NONE;16384;0.5351802;-0.466759;0.5221606;0.4722992;3;-3;-3;76;4038;479;65536;0.6232441;-0.4487534;0.3213296;0.5540166;-4;-3;1;-1949;3706;91;8192;0.5706371;-0.5743015;-0.4501385;-0.3767313;3;-8;11;364;4013;335;32768;0.6089885;-0.5623268;-0.2423823;-0.5041551;-4;2;-11;1599;3901;182;256;0.134349;-0.1288089;-0.6592798;-0.7284976;-6;-3;0;-111;4066;-481;128;-0.005540166;0.1246537;0.5429363;0.8304523;6;-3;-1;-489;3719;1724;4;-0.432133;0.5193906;-0.4958449;-0.545557;0;-5;2;-185;4054;-568;16;0.6385041;-0.7685983;-0.03185596;-0.0235457;2;0;0;-123;4026;744;2;0.5041551;-0.52743;-0.4432133;-0.5207756;-2;-11;0;-347;4170;-403;8;0.6385041;-0.758798;0.08448754;0.09695291;1;0;-1;21;4065;645;0.4875371;-0.121223;0.08164242;0.4934345;0.416214;0.1751761;0.498622;0.888967;0.2553994;0.481126;1.619214;0.3253812;0.2146417;1.941217;0.3185229;-0.1230781;1.787478;0.3680061;-0.2180682;0.8675838;0.3123162;0;0;0;0.7348362;1.953684;0.3185224;1.027161;1.815042;0.3680056;1.08062;0.856256;0.4464032;0.9278678;-0.02187824;0.1249445;0.1753042;-0.1613159;0.0662994;0.3470606;-1.609727;0.1823326;0.2629658;-2.933077;0.4147129;0.1753042;-0.1613159;0.0662994;0.3470606;-1.609727;0.1823326;0.2629658;-2.933077;0.4147129
971100.0547;NotLabelled;NONE;16384;0.5338253;-0.466759;0.5235457;0.4722992;4;-4;-3;130;3954;481;65536;0.6232441;-0.4487534;0.3213296;0.5540166;-5;-2;0;-1897;3698;25;8192;0.5692521;-0.5756744;-0.4501385;-0.3767313;4;-3;10;384;4113;265;32768;0.6089885;-0.5623268;-0.2423823;-0.5041551;-1;8;-6;1771;3915;162;256;0.1357341;-0.1288089;-0.6606648;-0.7269846;-7;-3;-1;-151;4096;-469;128;-0.005540166;0.1246537;0.5429363;0.8304523;7;-4;-1;-477;3711;1694;4;-0.4307479;0.5180055;-0.4958449;-0.5479639;0;-4;2;-129;4066;-602;16;0.6398892;-0.7674455;-0.03185596;-0.0235457;2;1;0;-163;4012;782;2;0.5041551;-0.5285908;-0.4418283;-0.5207756;-1;-2;1;-161;4092;-573;8;0.6385041;-0.758798;0.08448754;0.09695291;1;0;-1;-5;4063;703;0.4867898;-0.1208749;0.08479744;0.4926908;0.4168758;0.1765116;0.4978813;0.8898973;0.2551343;0.4789594;1.62016;0.324576;0.2118474;1.941638;0.3174753;-0.1255726;1.787276;0.3670663;-0.2204569;0.8673825;0.3111962;0;0;0;0.7320167;1.95512;0.3174743;1.024611;1.817085;0.3670647;1.070684;0.8587151;0.454694;0.9173516;-0.02182341;0.1401645;0.1745564;-0.1610193;0.06960183;0.3460909;-1.60943;0.1859626;0.2615524;-2.93278;0.4181817;0.1745564;-0.1610193;0.06960183;0.3460909;-1.60943;0.1859626;0.2615524;-2.93278;0.4181817
971121.0398;NotLabelled;NONE;16384;0.5325966;-0.466759;0.5235457;0.4736842;3;-4;-2;86;4024;543;65536;0.6227237;-0.4487534;0.3199446;0.5554016;-5;-4;-1;-1873;3744;51;8192;0.567867;-0.5768611;-0.4515235;-0.3753462;3;3;9;382;4111;381;32768;0.6084354;-0.5623268;-0.2437673;-0.5041551;1;10;-3;1915;3911;154;256;0.1371191;-0.1288089;-0.6620498;-0.7254631;-8;-3;0;-83;4092;-441;128;-0.006925208;0.1260388;0.5443213;0.8293254;7;-2;0;-543;3723;1760;4;-0.4307479;0.5180055;-0.4958449;-0.5479639;0;-3;2;-165;4048;-600;16;0.6398892;-0.7673868;-0.033241;-0.0235457;3;2;0;-177;4048;770;2;0.5041551;-0.52743;-0.4432133;-0.5207756;-1;0;0;-401;4074;-255;8;0.6385041;-0.758798;0.08448754;0.09695291;1;0;-2;-35;4057;677;0.4882364;-0.1205406;0.08612849;0.4941372;0.4172101;0.1778426;0.4993276;0.8902321;0.2564653;0.4794839;1.620769;0.322676;0.211971;1.941879;0.3141236;-0.1252616;1.787316;0.3643577;-0.2210674;0.867382;0.3107634;0;0;0;0.732123;1.956012;0.3141228;1.024883;1.818563;0.3643567;1.067613;0.8602338;0.4541057;0.9148981;-0.0203042;0.1392761;0.1760029;-0.1606851;0.07093289;0.3520581;-1.608737;0.1849828;0.2689916;-2.932968;0.4126711;0.1760029;-0.1606851;0.07093289;0.3520581;-1.608737;0.1849828;0.2689916;-2.932968;0.4126711
971141.0318;NotLabelled;NONE;16384;0.5325966;-0.466759;0.5235457;0.4736842;3;-4;-3;178;4016;527;65536;0.6214856;-0.4487534;0.3199446;0.5567867;-5;-4;-2;-1849;3688;51;8192;0.566482;-0.5771371;-0.4529086;-0.3753462;1;7;6;202;4183;335;32768;0.608008;-0.5609418;-0.2451524;-0.5055401;2;8;-1;1937;3785;244;256;0.1371191;-0.1288089;-0.6620498;-0.7254631;-8;-2;0;-57;4044;-423;128;-0.006925208;0.1260388;0.5457063;0.8284147;8;-2;0;-511;3717;1752;4;-0.4307479;0.5166205;-0.4958449;-0.5492699;0;-6;2;-183;4104;-596;16;0.6398892;-0.7673868;-0.033241;-0.0235457;2;0;0;-5;4040;782;2;0.5041551;-0.52743;-0.4432133;-0.5207756;-1;2;0;-337;4150;-427;8;0.6385041;-0.758951;0.08310249;0.09695291;1;0;-1;-71;4069;649;0.482886;-0.1215839;0.09289943;0.4887904;0.4164748;0.182787;0.4939839;0.889761;0.259803;0.473226;1.62056;0.3227715;0.2053162;1.941296;0.3127631;-0.1317308;1.786539;0.3636413;-0.225208;0.8663254;0.3107384;0;0;0;0.7254503;1.956074;0.3127624;1.018374;1.819213;0.3636405;1.059991;0.8613296;0.4585255;0.9086739;-0.01994324;0.1450768;0.1706521;-0.1617799;0.07785191;0.3464821;-1.609832;0.1922482;0.2651888;-2.934049;0.4206532;0.1706521;-0.1617799;0.07785191;0.3464821;-1.609832;0.1922482;0.2651888;-2.934049;0.4206532
971161.0434;NotLabelled;NONE;16384;0.5313797;-0.468144;0.5235457;0.4736842;3;1;-3;280;4120;547;65536;0.6209545;-0.4487534;0.3185596;0.5581717;-6;-1;-1;-1927;3730;65;8192;0.566482;-0.5751426;-0.4542936;-0.3767313;0;4;4;76;4205;477;32768;0.609283;-0.5595568;-0.2451524;-0.5055401;2;4;-1;1855;3819;304;256;0.1371191;-0.1288089;-0.6634349;-0.7241967;-8;-1;0;-61;4060;-411;128;-0.008310249;0.1260388;0.5470914;0.8274878;8;-2;0;-497;3735;1740;4;-0.4307479;0.5152354;-0.4972299;-0.5493188;0;-8;2;-183;4044;-564;16;0.6412742;-0.7662297;-0.033241;-0.0235457;3;0;0;-125;4092;764;2;0.5055401;-0.5261025;-0.4432133;-0.5207756;-2;0;0;-327;4168;-401;8;0.6398892;-0.7577836;0.08310249;0.09695291;1;0;-2;-49;4051;603;0.481044;-0.1225257;0.09867288;0.4869516;0.4158278;0.1867765;0.4921478;0.8893666;0.2622232;0.4713817;1.620166;0.3251893;0.2034731;1.940902;0.315146;-0.1335807;1.786145;0.36598;-0.2270418;0.8661122;0.3099985;0;0;0;0.7236073;1.955679;0.3152134;1.016525;1.818819;0.3661297;1.057094;0.8608589;0.4606953;0.9075928;-0.02032852;0.1461391;0.1688094;-0.1627712;0.08376992;0.3459417;-1.610973;0.1941995;0.2646184;-2.93519;0.4225934;0.1688094;-0.1627712;0.08376992;0.3459417;-1.610973;0.1941995;0.2646184;-2.93519;0.4225934
971181.0491;NotLabelled;NONE;16384;0.5313797;-0.468144;0.5235457;0.4736842;3;3;-2;208;4110;483;65536;0.621663;-0.4487534;0.3171745;0.5581717;-6;1;-2;-1851;3754;39;8192;0.567867;-0.5746821;-0.4542936;-0.3753462;-5;-5;0;84;4105;449;32768;0.6098384;-0.5595568;-0.2437673;-0.5055401;0;-12;-3;1783;3767;446;256;0.1385041;-0.1288089;-0.6634349;-0.723933;-7;-1;0;-39;4072;-433;128;-0.008310249;0.1274238;0.5470914;0.8272757;7;0;0;-499;3747;1718;4;-0.4293629;0.5152354;-0.4972299;-0.550402;-1;-7;2;-153;4048;-550;16;0.6412742;-0.7662297;-0.033241;-0.0235457;3;-1;0;-29;3988;760;2;0.5055401;-0.5261025;-0.4432133;-0.5207756;-2;0;-1;-225;4092;-361;8;0.6398892;-0.7577836;0.08310249;0.09695291;0;1;-1;-49;4011;675;0.475578;-0.1244955;0.09972289;0.4814889;0.4141626;0.1859444;0.486688;0.8879623;0.2597357;0.4664387;1.619003;0.3200076;0.198756;1.939889;0.3087888;-0.1384052;1.785558;0.3602019;-0.2305437;0.8650351;0.3104205;0;0;0;0.7189003;1.9543;0.3087882;1.011723;1.817421;0.3602011;1.054384;0.8597317;0.456566;0.9077259;-0.02121258;0.1399959;0.163343;-0.164793;0.08497265;0.3369181;-1.613546;0.1938053;0.2575582;-2.938627;0.417838;0.163343;-0.164793;0.08497265;0.3369181;-1.613546;0.1938053;0.2575582;-2.938627;0.417838
971202.2078;NotLabelled;NONE;16384;0.5327408;-0.468144;0.5221606;0.4736842;3;5;0;202;4114;545;65536;0.621663;-0.4487534;0.3171745;0.5581717;-5;3;-1;-1851;3760;9;8192;0.5692521;-0.5733102;-0.4542936;-0.3753462;-6;-12;-1;146;4079;443;32768;0.6126739;-0.5595568;-0.2423823;-0.5027701;0;-19;-3;1607;3799;478;256;0.1385041;-0.1288089;-0.66482;-0.7226613;-7;0;0;-41;4068;-385;128;-0.008310249;0.1260388;0.5484765;0.8265705;6;0;0;-513;3751;1672;4;-0.4293629;0.5138504;-0.4972299;-0.5516953;-1;-8;2;-131;4056;-528;16;0.6412742;-0.7662297;-0.033241;-0.0235457;3;-2;0;-97;3998;748;2;0.5055401;-0.5261025;-0.4432133;-0.5207756;-3;-1;-1;-313;4164;-323;8;0.6398892;-0.7579342;0.08171745;0.09695291;1;2;-1;-15;4051;587;0.4748775;-0.1242099;0.1011828;0.4807882;0.4144411;0.1874503;0.4859873;0.8882346;0.2612819;0.4643228;1.61928;0.3209966;0.1960202;1.93964;0.3095276;-0.1408432;1.784695;0.3610509;-0.2328782;0.8641729;0.3110791;0;0;0;0.7161357;1.955056;0.3095273;1.009221;1.818782;0.3610508;1.054925;0.8612633;0.4577066;0.9081059;-0.01894331;0.1391651;0.1626424;-0.164506;0.08642886;0.3393964;-1.612747;0.1969477;0.2596048;-2.937828;0.420827;0.1626424;-0.164506;0.08642886;0.3393964;-1.612747;0.1969477;0.2596048;-2.937828;0.420827
971223.0482;NotLabelled;NONE;16384;0.5328776;-0.4695291;0.5207756;0.4736842;2;6;0;166;4076;573;65536;0.6213667;-0.4501385;0.3157895;0.5581717;-5;5;0;-1827;3768;-19;8192;0.5739339;-0.5706371;-0.4529086;-0.3739612;-8;-16;-2;268;4025;377;32768;0.6130887;-0.5609418;-0.2409972;-0.501385;-1;-22;-4;1511;3781;424;256;0.1385041;-0.1288089;-0.66482;-0.7226613;-6;0;0;-91;4058;-427;128;-0.008310249;0.1260388;0.5484765;0.8265705;6;0;0;-457;3739;1760;4;-0.4293629;0.5124654;-0.4986149;-0.5517336;-1;-7;1;-81;4058;-634;16;0.6412742;-0.7662297;-0.033241;-0.0235457;3;0;0;-191;4016;772;2;0.5069252;-0.5247682;-0.4432133;-0.5207756;-2;0;-2;-261;4108;-347;8;0.6398892;-0.7579342;0.08171745;0.09695291;1;2;-1;-73;4051;639;0.4731981;-0.1255908;0.1104662;0.479112;0.4133506;0.1948982;0.4843137;0.887393;0.2671155;0.4631618;1.618669;0.3241279;0.1950879;1.939174;0.3114467;-0.1418909;1.78466;0.363505;-0.2328941;0.864172;0.3110673;0;0;0;0.7152142;1.954222;0.3114462;1.008197;1.817933;0.3635045;1.057082;0.8603692;0.4581547;0.913204;-0.0202446;0.1393982;0.1609624;-0.1659369;0.09586115;0.3389902;-1.614319;0.202409;0.2591868;-2.9394;0.4262843;0.1609624;-0.1659369;0.09586115;0.3389902;-1.614319;0.202409;0.2591868;-2.9394;0.4262843
971243.044;NotLabelled;NONE;16384;0.5328776;-0.4695291;0.5207756;0.4736842;2;7;1;24;4046;471;65536;0.6220687;-0.4501385;0.3144044;0.5581717;-4;6;0;-1817;3774;-95;8192;0.5759225;-0.5706371;-0.4515235;-0.3725762;-8;-15;-2;370;4025;393;32768;0.6158842;-0.5609418;-0.2396122;-0.4986149;0;-23;-3;1459;3847;476;256;0.1385041;-0.1288089;-0.666205;-0.7213846;-7;0;0;-137;3974;-395;128;-0.008310249;0.1260388;0.5498615;0.8256497;5;0;0;-485;3749;1716;4;-0.4293629;0.5124654;-0.4986149;-0.5517336;-1;-4;1;-121;4032;-528;16;0.6426592;-0.7650684;-0.033241;-0.0235457;3;0;0;-89;4030;714;2;0.5069252;-0.526139;-0.4432133;-0.5193906;-1;0;-1;-295;4124;-337;8;0.6398892;-0.7579342;0.08171745;0.09695291;1;1;0;-27;4089;659;0.468033;-0.1254077;0.1079585;0.4739469;0.4135337;0.1923906;0.4791487;0.8875761;0.2646079;0.4579966;1.618852;0.3216202;0.1899228;1.939357;0.308939;-0.147056;1.784843;0.3609974;-0.2356767;0.8640862;0.3092058;0;0;0;0.7100492;1.954405;0.3089385;1.003032;1.818116;0.3609969;1.060585;0.8605094;0.450183;0.9149113;-0.02020121;0.1325111;0.1557973;-0.1657538;0.0933535;0.3302309;-1.614688;0.1983347;0.2504274;-2.939769;0.4222098;0.1557973;-0.1657538;0.0933535;0.3302309;-1.614688;0.1983347;0.2504274;-2.939769;0.4222098
971264.182;NotLabelled;NONE;16384;0.5342348;-0.4709141;0.5193906;0.4722992;0;5;2;-20;4140;521;65536;0.6230039;-0.4515235;0.3130194;0.5567867;-2;7;0;-1779;3794;-53;8192;0.5777051;-0.5706371;-0.4515235;-0.3698061;-8;-12;-2;432;4009;367;32768;0.6173931;-0.5623268;-0.2382271;-0.4958449;0;-19;-2;1361;3781;480;256;0.1385041;-0.1288089;-0.66759;-0.7201031;-5;0;0;-165;4040;-375;128;-0.008310249;0.1260388;0.5512465;0.8247257;4;0;-1;-507;3725;1730;4;-0.4279778;0.5110803;-0.4986149;-0.5540894;0;-4;0;-139;4020;-552;16;0.6426592;-0.7650684;-0.033241;-0.0235457;3;0;0;-109;4014;802;2;0.5069252;-0.526139;-0.4432133;-0.5193906;-2;0;-1;-329;4086;-303;8;0.6412742;-0.7567627;0.08171745;0.09695291;1;1;-1;-53;4037;663;0.4656491;-0.1275845;0.1157829;0.4715662;0.4116349;0.1984221;0.4767706;0.8859148;0.2690624;0.4561325;1.617412;0.3233669;0.1882879;1.938058;0.3094718;-0.148806;1.783978;0.3620655;-0.2374309;0.8632202;0.3102807;0;0;0;0.7084247;1.952736;0.3094709;1.001305;1.816432;0.3620642;1.061363;0.8588324;0.4496596;0.9185929;-0.0222764;0.1317743;0.153413;-0.1679792;0.1013237;0.3278412;-1.616913;0.2063137;0.2499841;-2.942842;0.4258108;0.153413;-0.1679792;0.1013237;0.3278412;-1.616913;0.2063137;0.2499841;-2.942842;0.4258108
971285.0402;NotLabelled;NONE;16384;0.5355779;-0.4722992;0.5180055;0.4709141;-1;5;1;-42;4090;509;65536;0.6236979;-0.4515235;0.3116343;0.5567867;-2;4;-1;-1735;3754;-55;8192;0.5796676;-0.5706371;-0.4501385;-0.368421;-4;-5;-2;548;3975;269;32768;0.6177737;-0.5637119;-0.2368421;-0.4944598;2;-6;2;1293;3811;502;256;0.1385041;-0.1288089;-0.66759;-0.7201031;-5;0;0;-139;4070;-343;128;-0.008310249;0.1260388;0.5512465;0.8247257;4;0;-1;-385;3727;1724;4;-0.4279778;0.5110803;-0.5;-0.5528398;-1;-5;0;-127;4052;-566;16;0.6426592;-0.7650684;-0.033241;-0.0235457;3;0;0;-127;4002;760;2;0.5083103;-0.524801;-0.4432133;-0.5193906;-1;1;-1;-311;4076;-387;8;0.6412742;-0.756911;0.08033241;0.09695291;1;1;-1;-21;4055;641;0.4638442;-0.1287231;0.1215823;0.4697642;0.4107685;0.202426;0.4749712;0.8852806;0.271487;0.4548487;1.616988;0.3230783;0.1872339;1.937771;0.3079669;-0.1499751;1.784127;0.3610958;-0.2384407;0.8633666;0.3090968;0;0;0;0.7073811;1.952079;0.3079661;1.000159;1.815762;0.3610951;1.064487;0.8586006;0.4504152;0.9217631;-0.02317429;0.1343586;0.1516075;-0.1691656;0.107269;0.3306402;-1.617725;0.2096405;0.252772;-2.943654;0.4291337;0.1516075;-0.1691656;0.107269;0.3306402;-1.617725;0.2096405;0.252772;-2.943654;0.4291337
971306.194;NotLabelled;NONE;16384;0.5355779;-0.4722992;0.5180055;0.4709141;-1;4;2;-12;4024;521;65536;0.6249316;-0.4515235;0.3116343;0.5554016;-1;3;-3;-1773;3848;-15;8192;0.5805456;-0.5706371;-0.4501385;-0.367036;-4;-3;-2;476;3967;239;32768;0.6190346;-0.5623268;-0.2368421;-0.4944598;3;-2;3;1345;3753;508;256;0.1385041;-0.1288089;-0.66759;-0.7201031;-5;0;0;-127;4032;-373;128;-0.008310249;0.1260388;0.5512465;0.8247257;4;0;-1;-437;3735;1662;4;-0.4279778;0.5110803;-0.5;-0.5528398;-1;-5;0;-131;4014;-588;16;0.6440443;-0.7639028;-0.033241;-0.0235457;3;0;0;-137;3988;678;2;0.5083103;-0.524801;-0.4432133;-0.5193906;0;0;-1;-375;4086;-329;8;0.6412742;-0.756911;0.08033241;0.09695291;1;0;0;-15;4035;623;0.4619281;-0.1295857;0.1228536;0.4678482;0.4099059;0.2036972;0.4730551;0.884418;0.2727583;0.4529326;1.616126;0.3243495;0.1853178;1.936909;0.3092381;-0.1518911;1.783265;0.362367;-0.2401866;0.8624988;0.3101656;0;0;0;0.7054652;1.951216;0.3092374;0.9982434;1.814899;0.3623663;1.06502;0.8577585;0.4501021;0.9204823;-0.02411985;0.1351614;0.1496914;-0.1700282;0.1085402;0.3238774;-1.619006;0.2133358;0.2460092;-2.944934;0.432829;0.1496914;-0.1700282;0.1085402;0.3238774;-1.619006;0.2133358;0.2460092;-2.944934;0.432829
971326.0342;NotLabelled;NONE;16384;0.5355779;-0.4722992;0.5180055;0.4709141;-2;0;2;-70;4114;501;65536;0.6256204;-0.4515235;0.3102493;0.5554016;-1;2;-4;-1785;3800;-3;8192;0.5805456;-0.5706371;-0.4501385;-0.367036;-3;-1;-2;470;4005;223;32768;0.6190346;-0.5623268;-0.2368421;-0.4944598;3;0;5;1367;3849;518;256;0.1385041;-0.1288089;-0.6689751;-0.7188166;-4;-1;0;-105;4046;-365;128;-0.008310249;0.1260388;0.5512465;0.8247257;2;0;-1;-493;3781;1656;4;-0.4279778;0.5096953;-0.5;-0.554117;0;-6;1;-65;4072;-552;16;0.6440443;-0.7639028;-0.033241;-0.0235457;2;-1;0;-81;4022;704;2;0.5083103;-0.524801;-0.4432133;-0.5193906;0;-1;0;-389;4070;-271;8;0.6412742;-0.7570567;0.07894737;0.09695291;1;0;-1;-99;4049;647;0.4637061;-0.1293483;0.1235627;0.4696261;0.4101434;0.2044063;0.4748331;0.8846555;0.2734674;0.4547106;1.616363;0.3250586;0.1870959;1.937146;0.3099472;-0.1501132;1.783502;0.363076;-0.2384086;0.8627362;0.3108746;0;0;0;0.707243;1.951454;0.3099465;1.000021;1.815137;0.3630754;1.068923;0.8582253;0.4516668;0.9272112;-0.02337503;0.1346717;0.1514694;-0.1697907;0.1092493;0.3256553;-1.618768;0.2140449;0.2497492;-2.945529;0.4291548;0.1514694;-0.1697907;0.1092493;0.3256553;-1.618768;0.2140449;0.2497492;-2.945529;0.4291548
971346.2932;NotLabelled;NONE;16384;0.5367961;-0.4709141;0.5180055;0.4709141;-2;-2;1;-50;4110;523;65536;0.6256204;-0.4515235;0.3102493;0.5554016;0;1;-6;-1781;3794;-3;8192;0.5805456;-0.5706371;-0.4501385;-0.367036;-2;0;-3;374;4001;333;32768;0.6202899;-0.5609418;-0.2368421;-0.4944598;4;1;5;1381;3827;514;256;0.1385041;-0.1288089;-0.6689751;-0.7188166;-3;-1;0;-113;4068;-277;128;-0.008310249;0.1274238;0.5526316;0.8235852;2;-3;-2;-497;3695;1642;4;-0.4279778;0.5096953;-0.5;-0.554117;-1;-5;2;-87;4022;-614;16;0.6440443;-0.7638589;-0.033241;-0.02493075;2;-1;0;-105;4010;674;2;0.5083103;-0.524801;-0.4432133;-0.5193906;0;-2;0;-405;4110;-283;8;0.6426592;-0.7558813;0.07894737;0.09695291;1;0;0;-151;4051;617;0.4613012;-0.1309886;0.1280195;0.4672212;0.4085031;0.2088631;0.4724281;0.8830152;0.2779241;0.4528227;1.614923;0.3267966;0.1854384;1.935839;0.3104669;-0.1518854;1.782633;0.3641313;-0.240176;0.8618684;0.3119211;0;0;0;0.7055957;1.949776;0.3104665;0.9982712;1.813448;0.364131;1.067163;0.8565364;0.452729;0.9254681;-0.02506399;0.1357272;0.1490646;-0.1714311;0.1137062;0.3244671;-1.620543;0.2145431;0.2485504;-2.947303;0.4296494;0.1490646;-0.1714311;0.1137062;0.3244671;-1.620543;0.2145431;0.2485504;-2.947303;0.4296494
971368.1473;NotLabelled;NONE;16384;0.5354561;-0.4709141;0.5193906;0.4709141;-3;-2;2;32;4068;475;65536;0.6260725;-0.4501385;0.3088643;0.5567867;0;1;-7;-1733;3814;53;8192;0.5796676;-0.5706371;-0.4501385;-0.368421;0;0;-3;364;4025;311;32768;0.6204352;-0.5595568;-0.2368421;-0.4958449;4;3;5;1361;3809;534;256;0.1385041;-0.1288089;-0.6689751;-0.7188166;-3;-1;0;-93;4038;-301;128;-0.008310249;0.1274238;0.5526316;0.8235852;3;-3;-2;-483;3753;1656;4;-0.4279778;0.5083103;-0.5;-0.5553879;0;-2;1;-73;4056;-586;16;0.6440443;-0.7638589;-0.033241;-0.02493075;1;0;0;-115;3992;698;2;0.5096953;-0.5234559;-0.4432133;-0.5193906;0;-2;0;-345;4060;-375;8;0.6426592;-0.7558813;0.07894737;0.09695291;1;-1;0;-61;4063;623;0.462616;-0.1317797;0.13443;0.4685388;0.4079719;0.2135202;0.4737482;0.8827057;0.281039;0.4541427;1.614614;0.3299115;0.1867584;1.93553;0.3135818;-0.1505655;1.782324;0.3672461;-0.2401764;0.8618684;0.3119214;0;0;0;0.7069157;1.949466;0.3135813;0.9995914;1.813139;0.367246;1.068499;0.8562269;0.4558322;0.9296246;-0.02508307;0.1367819;0.1503788;-0.1722684;0.1202592;0.3257813;-1.62138;0.2210963;0.2472885;-2.948188;0.43498;0.1503788;-0.1722684;0.1202592;0.3257813;-1.62138;0.2210963;0.2472885;-2.948188;0.43498
971389.045;NotLabelled;NONE;16384;0.536671;-0.4695291;0.5193906;0.4709141;-2;-1;2;36;4074;521;65536;0.6267539;-0.4501385;0.3074792;0.5567867;0;1;-7;-1713;3800;13;8192;0.5820982;-0.5692521;-0.4487534;-0.368421;0;0;-3;290;4077;363;32768;0.620044;-0.5581717;-0.2382271;-0.4972299;3;3;5;1379;3777;500;256;0.1398892;-0.1288089;-0.6703601;-0.7172563;-3;-1;0;-181;4040;-393;128;-0.008310249;0.1288089;0.5526316;0.8233696;1;-3;-2;-529;3731;1636;4;-0.4279778;0.5083103;-0.5;-0.5553879;-1;-5;2;-109;4050;-558;16;0.6454294;-0.7626889;-0.033241;-0.02493075;2;0;0;-57;4040;678;2;0.5096953;-0.5246255;-0.4418283;-0.5193906;0;-3;0;-357;4030;-369;8;0.6426592;-0.7558813;0.07894737;0.09695291;1;0;-1;-65;4053;625;0.461175;-0.1336441;0.135301;0.4670979;0.4061074;0.2143912;0.4723072;0.8808413;0.28191;0.4527016;1.61275;0.3307825;0.1853174;1.933665;0.3144528;-0.1520065;1.78046;0.3681171;-0.2426783;0.8599653;0.3152202;0;0;0;0.7054748;1.947601;0.3144524;0.9981502;1.811275;0.3681169;1.064923;0.8541336;0.4558559;0.9270404;-0.02632523;0.1340346;0.1489377;-0.1741328;0.1211302;0.3255392;-1.623369;0.2180031;0.2470462;-2.950177;0.4318867;0.1489377;-0.1741328;0.1211302;0.3255392;-1.623369;0.2180031;0.2470462;-2.950177;0.4318867
971410.032;NotLabelled;NONE;16384;0.5378832;-0.4695291;0.5193906;0.4695291;-3;-1;2;46;4068;471;65536;0.6284229;-0.4487534;0.3060942;0.5567867;1;1;-6;-1751;3744;25;8192;0.5820982;-0.5692521;-0.4487534;-0.368421;-1;-1;-3;278;4071;409;32768;0.620177;-0.5567867;-0.2382271;-0.4986149;2;1;5;1397;3773;528;256;0.1398892;-0.1288089;-0.6703601;-0.7172563;-3;-2;0;-65;4024;-329;128;-0.009695291;0.1288089;0.5526316;0.8233545;1;-4;-2;-499;3783;1648;4;-0.4279778;0.5069252;-0.501385;-0.5554051;-1;-8;2;-69;4046;-618;16;0.6454294;-0.7626889;-0.033241;-0.02493075;1;0;0;-123;4046;682;2;0.5096953;-0.5246255;-0.4418283;-0.5193906;0;-3;0;-333;4104;-337;8;0.6426592;-0.7557024;0.07894737;0.09833795;0;0;0;-79;4053;587;0.4610778;-0.1344566;0.143188;0.4670005;0.4052882;0.2223244;0.47221;0.8800163;0.2898838;0.4517214;1.612112;0.3354683;0.1839549;1.932631;0.3176662;-0.1531917;1.779263;0.371977;-0.2450655;0.8590846;0.3157731;0;0;0;0.7040951;1.947191;0.3176658;0.996927;1.811456;0.3719769;1.066981;0.8541627;0.4553818;0.9315641;-0.02618027;0.1322004;0.1488406;-0.1749444;0.1290134;0.3252484;-1.62418;0.2262382;0.2483082;-2.951804;0.4355775;0.1488406;-0.1749444;0.1290134;0.3252484;-1.62418;0.2262382;0.2483082;-2.951804;0.4355775
971430.0436;NotLabelled;NONE;16384;0.5378832;-0.4695291;0.5193906;0.4695291;-3;-1;2;20;3978;489;65536;0.6284229;-0.4487534;0.3060942;0.5567867;2;0;-6;-1711;3712;47;8192;0.5820982;-0.5692521;-0.4487534;-0.368421;-1;-3;-2;240;4061;417;32768;0.6207073;-0.5567867;-0.2368421;-0.4986149;0;-1;4;1397;3795;536;256;0.1398892;-0.1288089;-0.6703601;-0.7172563;-2;-2;0;-111;3994;-291;128;-0.009695291;0.1301939;0.5526316;0.8231366;2;-3;-2;-509;3789;1640;4;-0.4265928;0.5055401;-0.501385;-0.5577283;0;-6;2;-39;4028;-594;16;0.6454294;-0.7626889;-0.033241;-0.02493075;1;-1;0;-119;4012;664;2;0.5110803;-0.5258108;-0.4404432;-0.5180055;0;-4;0;-375;4080;-341;8;0.6426592;-0.7557024;0.07894737;0.09833795;1;-1;0;-43;4065;629;0.4625297;-0.1364465;0.1482291;0.4684526;0.4033127;0.2272675;0.473662;0.8780527;0.2947408;0.4531735;1.610149;0.3403251;0.185407;1.930667;0.322523;-0.1517398;1.7773;0.3768338;-0.2458162;0.857398;0.3197491;0;0;0;0.7055472;1.945228;0.3225226;0.998379;1.809493;0.3768338;1.068435;0.8521991;0.4602381;0.9340181;-0.02728176;0.134305;0.1502924;-0.1769366;0.1340625;0.3230463;-1.626715;0.2297603;0.2461064;-2.954339;0.4390997;0.1502924;-0.1769366;0.1340625;0.3230463;-1.626715;0.2297603;0.2461064;-2.954339;0.4390997
971450.0495;NotLabelled;NONE;16384;0.5390891;-0.468144;0.5193906;0.4695291;-4;-1;2;8;3980;487;65536;0.6281816;-0.4473684;0.3060942;0.5581717;2;0;-7;-1741;3710;67;8192;0.5820982;-0.5692521;-0.4487534;-0.368421;-1;-5;-2;208;4083;419;32768;0.6219469;-0.5554016;-0.2368421;-0.4986149;0;-4;3;1465;3787;534;256;0.1398892;-0.1301939;-0.6703601;-0.7170062;-3;-3;1;-151;4040;-311;128;-0.009695291;0.1301939;0.5540166;0.8222051;3;-2;-2;-457;3821;1622;4;-0.4265928;0.5055401;-0.501385;-0.5577283;0;-5;3;-51;4086;-544;16;0.6454294;-0.7626889;-0.033241;-0.02493075;1;0;0;-87;3988;638;2;0.5110803;-0.5258108;-0.4404432;-0.5180055;0;-4;1;-405;4088;-309;8;0.6426592;-0.7557024;0.07894737;0.09833795;0;-1;0;-73;4053;605;0.4625309;-0.1364288;0.1480632;0.4684538;0.4033232;0.2271475;0.4736632;0.878058;0.2946612;0.4531749;1.610154;0.3402457;0.1854083;1.930673;0.3224448;-0.1517383;1.777306;0.3767572;-0.245815;0.857398;0.3197505;0;0;0;0.7055486;1.945233;0.3224422;0.9983808;1.809498;0.3767521;1.068436;0.8522115;0.4602372;0.9331927;-0.02651978;0.1326297;0.1502936;-0.1769176;0.133893;0.3275626;-1.62632;0.22698;0.2506234;-2.953944;0.4363196;0.1502936;-0.1769176;0.133893;0.3275626;-1.62632;0.22698;0.2506234;-2.953944;0.4363196
971471.0389;NotLabelled;NONE;16384;0.5402887;-0.466759;0.5193906;0.4695291;-3;-2;3;30;4052;511;65536;0.6291657;-0.4459834;0.3060942;0.5581717;3;0;-3;-1693;3748;93;8192;0.5840361;-0.5692521;-0.4473684;-0.367036;-1;-6;-1;248;4059;433;32768;0.6207073;-0.5567867;-0.2368421;-0.4986149;-1;-7;2;1409;3703;570;256;0.1398892;-0.1301939;-0.6703601;-0.7170062;-2;-3;1;-123;4006;-373;128;-0.009695291;0.1315789;0.5540166;0.8219845;3;-3;-2;-507;3751;1732;4;-0.4265928;0.5041551;-0.501385;-0.5589806;0;-3;2;-41;4040;-440;16;0.6454294;-0.7626889;-0.033241;-0.02493075;0;0;0;-61;4032;702;2;0.5110803;-0.5258108;-0.4404432;-0.5180055;0;-4;0;-373;4042;-355;8;0.6426592;-0.7557024;0.07894737;0.09833795;0;0;0;-85;4045;537;0.4605726;-0.1395035;0.1565619;0.4664983;0.4005094;0.2338446;0.4717101;0.8754668;0.2997736;0.4526328;1.607601;0.3453554;0.1854847;1.928635;0.3275523;-0.1519571;1.775919;0.3818639;-0.2472157;0.856348;0.3214803;0;0;0;0.7056521;1.942193;0.3275515;0.9982218;1.805894;0.3818631;1.068115;0.8486009;0.4654028;0.9363682;-0.02980709;0.1355096;0.1483348;-0.1800394;0.1425383;0.3254121;-1.629442;0.2359901;0.248043;-2.957066;0.4451718;0.1483348;-0.1800394;0.1425383;0.3254121;-1.629442;0.2359901;0.248043;-2.957066;0.4451718
971491.3416;NotLabelled;NONE;16384;0.5402887;-0.466759;0.5193906;0.4695291;-2;-3;3;46;4070;521;65536;0.6301452;-0.4445983;0.3060942;0.5581717;3;0;-3;-1739;3770;-3;8192;0.585961;-0.5692521;-0.4459834;-0.365651;-2;-10;-2;356;4127;337;32768;0.6228654;-0.5567867;-0.234072;-0.4972299;-3;-11;0;1355;3785;514;256;0.1398892;-0.1301939;-0.6717451;-0.7157088;-2;-3;1;-71;4050;-269;128;-0.01108033;0.132964;0.5540166;0.8217441;1;-3;-2;-493;3703;1686;4;-0.4265928;0.5041551;-0.501385;-0.5589806;0;-2;2;-99;4072;-572;16;0.6454294;-0.7626273;-0.03462604;-0.02493075;1;0;0;-69;4058;722;2;0.5110803;-0.5258108;-0.4404432;-0.5180055;0;-3;0;-287;4050;-319;8;0.6426592;-0.7557024;0.07894737;0.09833795;0;-2;0;-73;4081;569;0.4628652;-0.1406527;0.1625332;0.4687908;0.399354;0.2398617;0.4740025;0.8743057;0.305831;0.4549252;1.60644;0.351413;0.187777;1.927474;0.33361;-0.1496647;1.774757;0.3879215;-0.2462057;0.8555312;0.3244172;0;0;0;0.7079445;1.941031;0.3336093;1.000514;1.804733;0.3879209;1.072815;0.8474817;0.4698823;0.9382455;-0.03125048;0.1419977;0.1506274;-0.1811876;0.1485058;0.3288539;-1.630699;0.2380078;0.2514846;-2.958322;0.4471888;0.1506274;-0.1811876;0.1485058;0.3288539;-1.630699;0.2380078;0.2514846;-2.958322;0.4471888
971512.1241;NotLabelled;NONE;16384;0.5389432;-0.4653739;0.5207756;0.4709141;-2;-3;3;-24;4024;491;65536;0.6301452;-0.4445983;0.3060942;0.5581717;5;-1;-2;-1737;3772;93;8192;0.5878731;-0.5692521;-0.4445983;-0.3642659;-1;-10;-2;312;4053;317;32768;0.6232487;-0.5581717;-0.232687;-0.4958449;-2;-12;0;1371;3789;578;256;0.1398892;-0.1301939;-0.6717451;-0.7157088;-1;-3;1;-51;4024;-329;128;-0.01108033;0.132964;0.5540166;0.8217441;0;-3;-2;-535;3765;1660;4;-0.4265928;0.5027701;-0.501385;-0.5602267;0;-2;1;-171;4098;-524;16;0.6454294;-0.7626889;-0.033241;-0.02493075;1;-1;0;-63;4032;738;2;0.5124654;-0.525621;-0.4390582;-0.5180055;0;-2;0;-355;4100;-369;8;0.6426592;-0.7557024;0.07894737;0.09833795;0;-1;0;-121;4077;573;0.4632132;-0.1422443;0.168975;0.4691388;0.3977699;0.2462475;0.4743507;0.8727283;0.3121677;0.4557992;1.605042;0.3550199;0.1888852;1.9262;0.3359951;-0.148672;1.773931;0.3908425;-0.2452106;0.8547049;0.3273346;0;0;0;0.7090622;1.939381;0.3359943;1.001528;1.803074;0.3908415;1.076222;0.8458719;0.471218;0.9418143;-0.03190565;0.1407209;0.1509755;-0.1827807;0.1549521;0.3291979;-1.632292;0.2444624;0.254055;-2.959901;0.4545428;0.1509755;-0.1827807;0.1549521;0.3291979;-1.632292;0.2444624;0.254055;-2.959901;0.4545428
971534.0428;NotLabelled;NONE;16384;0.5389432;-0.4653739;0.5207756;0.4709141;-1;-4;3;-24;4042;517;65536;0.6311201;-0.4432133;0.3060942;0.5581717;5;-2;-3;-1723;3760;69;8192;0.588918;-0.5692521;-0.4432133;-0.3642659;-1;-9;-2;350;4023;327;32768;0.623764;-0.5581717;-0.2313019;-0.4958449;-3;-10;0;1337;3847;506;256;0.1398892;-0.1315789;-0.6717451;-0.7154554;-1;-3;1;-113;4052;-331;128;-0.01108033;0.134349;0.5540166;0.8215188;0;-3;-2;-555;3745;1640;4;-0.4265928;0.5027701;-0.501385;-0.5602267;0;-3;1;-111;4062;-556;16;0.6454294;-0.7626889;-0.033241;-0.02493075;1;-1;0;-127;4014;704;2;0.5124654;-0.525621;-0.4390582;-0.5180055;0;-3;0;-369;4096;-305;8;0.6426592;-0.7557024;0.07894737;0.09833795;0;0;0;-41;4083;631;0.463406;-0.1422496;0.1687579;0.4693317;0.3977647;0.2460305;0.4745434;0.8727231;0.3119506;0.4559919;1.605036;0.3548028;0.1890779;1.926195;0.3357781;-0.1484793;1.773926;0.3906254;-0.2452106;0.8547049;0.3273346;0;0;0;0.709255;1.939376;0.3357772;1.001721;1.803069;0.3906244;1.078787;0.8459229;0.4694121;0.9425319;-0.03197956;0.1400039;0.1511683;-0.182786;0.1547351;0.3305179;-1.632396;0.2402991;0.2531391;-2.96002;0.4494767;0.1511683;-0.182786;0.1547351;0.3305179;-1.632396;0.2402991;0.2531391;-2.96002;0.4494767
971555.0371;NotLabelled;NONE;16384;0.540136;-0.4639889;0.5207756;0.4709141;-1;-5;3;-46;4020;533;65536;0.6304465;-0.4432133;0.3074792;0.5581717;5;-3;-3;-1669;3736;157;8192;0.5884324;-0.5706371;-0.4432133;-0.3628809;-1;-7;-2;428;3989;299;32768;0.6236226;-0.5595568;-0.2313019;-0.4944598;-3;-8;0;1279;3743;534;256;0.1412742;-0.1315789;-0.6717451;-0.7151833;0;-3;0;-69;4030;-343;128;-0.01108033;0.134349;0.5526316;0.8224512;-1;-3;-2;-527;3731;1634;4;-0.4265928;0.5027701;-0.5027701;-0.558984;0;-4;1;-75;4078;-542;16;0.6454294;-0.7626889;-0.033241;-0.02493075;0;0;0;-117;4026;712;2;0.5124654;-0.5269824;-0.4390582;-0.5166205;0;-3;0;-363;4064;-339;8;0.6440443;-0.7545223;0.07894737;0.09833795;0;0;0;-21;4051;629;0.461868;-0.1442752;0.1712933;0.4677935;0.3957329;0.2486119;0.4730053;0.8706856;0.3145726;0.4558689;1.603033;0.3574231;0.1895759;1.924707;0.3383975;-0.148275;1.77309;0.3932453;-0.2448764;0.853869;0.3297552;0;0;0;0.7097775;1.936882;0.3383967;1.001979;1.800011;0.3932443;1.079151;0.8426881;0.4697484;0.9427236;-0.03445768;0.1384026;0.1496302;-0.1848102;0.1572667;0.3288041;-1.634421;0.2431974;0.2509969;-2.962044;0.4522156;0.1496302;-0.1848102;0.1572667;0.3288041;-1.634421;0.2431974;0.2509969;-2.962044;0.4522156
971576.0569;NotLabelled;NONE;16384;0.5387759;-0.4626039;0.5221606;0.4722992;-2;-5;1;-10;3990;549;65536;0.6314179;-0.4418283;0.3074792;0.5581717;4;-2;-2;-1689;3718;115;8192;0.5894731;-0.5706371;-0.4418283;-0.3628809;0;-5;-2;378;4043;275;32768;0.6241345;-0.5595568;-0.2299169;-0.4944598;-2;-5;0;1331;3793;528;256;0.1412742;-0.132964;-0.6703601;-0.7162259;0;-3;1;-83;4014;-311;128;-0.01108033;0.1357341;0.5526316;0.8222237;-1;-2;-2;-555;3699;1648;4;-0.4265928;0.501385;-0.5027701;-0.5602267;0;-2;1;-29;4092;-546;16;0.6454294;-0.7627329;-0.033241;-0.0235457;0;-2;0;-121;4018;670;2;0.5124654;-0.5269824;-0.4390582;-0.5166205;1;-3;0;-361;4124;-375;8;0.6440443;-0.7545223;0.07894737;0.09833795;0;0;0;-115;4047;627;0.4658123;-0.1419048;0.1674661;0.4717351;0.3978419;0.2465867;0.4769444;0.8725724;0.3141323;0.4584168;1.604919;0.3564152;0.1915096;1.926069;0.3371668;-0.1460462;1.773852;0.3921672;-0.2437002;0.8547692;0.3282931;0;0;0;0.711687;1.939237;0.3371031;1.004155;1.802964;0.3920271;1.080016;0.8460655;0.4748799;0.9431835;-0.03196001;0.1460409;0.1535752;-0.1823926;0.1532929;0.3277597;-1.632446;0.241975;0.2495701;-2.960069;0.4508508;0.1535752;-0.1823926;0.1532929;0.3277597;-1.632446;0.241975;0.2495701;-2.960069;0.4508508
971596.0372;NotLabelled;NONE;16384;0.5387759;-0.4626039;0.5221606;0.4722992;-2;-5;0;72;3978;607;65536;0.6311597;-0.4404432;0.3074792;0.5595568;3;-2;-2;-1683;3720;97;8192;0.5894731;-0.5706371;-0.4418283;-0.3628809;0;-4;-1;370;4043;307;32768;0.6228901;-0.5609418;-0.2299169;-0.4944598;-2;-3;0;1353;3785;544;256;0.1412742;-0.132964;-0.6703601;-0.7162259;0;-3;0;-49;4020;-349;128;-0.01108033;0.1357341;0.5526316;0.8222237;-1;-2;-1;-533;3761;1660;4;-0.4265928;0.501385;-0.5027701;-0.5602267;0;-4;1;-59;4040;-506;16;0.6454294;-0.7627329;-0.033241;-0.0235457;0;-1;0;-77;4018;686;2;0.5124654;-0.5281333;-0.4376731;-0.5166205;0;-4;0;-327;4104;-297;8;0.6440443;-0.7545223;0.07894737;0.09833795;0;0;0;-87;4021;623;0.4651998;-0.1434035;0.1693031;0.4711226;0.3963366;0.2484708;0.4763317;0.8710608;0.3160578;0.4586805;1.603266;0.361066;0.1921589;1.924806;0.343006;-0.1455808;1.772789;0.3974302;-0.2434028;0.8539281;0.3306945;0;0;0;0.7123517;1.93735;0.3430055;1.004654;1.800524;0.3974298;1.080761;0.8431754;0.474678;0.9437813;-0.03409529;0.1438921;0.1529626;-0.1838899;0.155126;0.3280953;-1.634042;0.2402458;0.2520211;-2.961619;0.4502017;0.1529626;-0.1838899;0.155126;0.3280953;-1.634042;0.2402458;0.2520211;-2.961619;0.4502017
971617.0676;NotLabelled;NONE;16384;0.5386192;-0.4612188;0.5235457;0.4722992;-1;-4;0;36;4020;597;65536;0.630483;-0.4404432;0.3088643;0.5595568;3;-2;-2;-1679;3666;95;8192;0.5891672;-0.5720221;-0.4404432;-0.3628809;2;-3;0;340;4087;335;32768;0.6228901;-0.5609418;-0.2299169;-0.4944598;-2;-2;0;1435;3795;532;256;0.1412742;-0.134349;-0.6703601;-0.7159674;0;-3;1;-91;4008;-311;128;-0.01108033;0.1371191;0.5526316;0.8219939;-1;-3;-2;-529;3763;1588;4;-0.4265928;0.501385;-0.5027701;-0.5602267;0;-3;1;-13;4080;-578;16;0.6454294;-0.7627329;-0.033241;-0.0235457;0;-1;0;-61;4014;680;2;0.5138504;-0.5267859;-0.4376731;-0.5166205;0;-3;0;-259;4040;-399;8;0.6440443;-0.7545223;0.07894737;0.09833795;0;-1;0;-113;4007;611;0.4644666;-0.1444697;0.1715049;0.4703893;0.3952703;0.2506726;0.4755986;0.8699946;0.3182596;0.4579473;1.6022;0.3632678;0.1914257;1.92374;0.3452078;-0.146314;1.771723;0.3996319;-0.2441361;0.8528619;0.3328967;0;0;0;0.7116184;1.936284;0.3452073;1.003921;1.799458;0.3996315;1.080029;0.8421097;0.4768796;0.9402292;-0.03547668;0.1481146;0.1522294;-0.1849561;0.1573278;0.3273621;-1.635108;0.2424476;0.2512879;-2.962685;0.4524035;0.1522294;-0.1849561;0.1573278;0.3273621;-1.635108;0.2424476;0.2512879;-2.962685;0.4524035
971638.3585;NotLabelled;NONE;16384;0.5386192;-0.4612188;0.5235457;0.4722992;-1;-5;0;76;4032;557;65536;0.6314483;-0.4390582;0.3088643;0.5595568;3;-2;0;-1689;3646;85;8192;0.5891672;-0.5720221;-0.4404432;-0.3628809;3;-3;0;288;4091;373;32768;0.6228901;-0.5609418;-0.2299169;-0.4944598;-2;-1;0;1421;3827;526;256;0.1412742;-0.134349;-0.6703601;-0.7159674;0;-3;0;15;4030;-301;128;-0.01108033;0.1371191;0.5512465;0.8229234;0;-2;-2;-573;3767;1654;4;-0.4265928;0.5;-0.5027701;-0.5614631;0;-1;1;-99;4026;-544;16;0.6454294;-0.7627329;-0.033241;-0.0235457;0;-1;0;-61;4024;640;2;0.5138504;-0.5281405;-0.4376731;-0.5152354;0;-2;0;-419;4084;-371;8;0.6440443;-0.7545223;0.07894737;0.09833795;0;-1;0;-47;4083;605;0.4660638;-0.1450543;0.1707481;0.4719864;0.3946786;0.2499638;0.4771957;0.8693967;0.3175929;0.460958;1.601635;0.3625991;0.1950576;1.923689;0.3445383;-0.1429751;1.772326;0.3989632;-0.2430358;0.8537664;0.3313815;0;0;0;0.7152736;1.935229;0.3445375;1.007312;1.797839;0.398962;1.080407;0.8402352;0.4759474;0.9412826;-0.03735113;0.1468962;0.1538266;-0.1855397;0.1565671;0.3287843;-1.635692;0.2420461;0.2522792;-2.963268;0.4518454;0.1538266;-0.1855397;0.1565671;0.3287843;-1.635692;0.2420461;0.2522792;-2.963268;0.4518454
971659.346;NotLabelled;NONE;16384;0.5384554;-0.4598338;0.5249307;0.4722992;-1;-5;0;110;4094;503;65536;0.6314483;-0.4390582;0.3088643;0.5595568;3;-3;0;-1681;3780;127;8192;0.5891672;-0.5720221;-0.4404432;-0.3628809;2;-4;0;300;4093;371;32768;0.62164;-0.5623268;-0.2299169;-0.4944598;-4;-2;0;1387;3751;528;256;0.1426593;-0.134349;-0.6703601;-0.7156927;0;-3;1;-5;4022;-347;128;-0.01246537;0.1371191;0.5512465;0.8229035;-1;-2;-3;-535;3761;1728;4;-0.4265928;0.5;-0.5027701;-0.5614631;0;-2;1;-39;4032;-554;16;0.6454294;-0.7627329;-0.033241;-0.0235457;0;0;0;-99;4048;654;2;0.5138504;-0.5292853;-0.4362881;-0.5152354;0;-3;0;-381;4066;-363;8;0.6440443;-0.7545223;0.07894737;0.09833795;0;-1;0;-71;4059;647;0.4671119;-0.1451912;0.1671495;0.4730315;0.3942747;0.2481637;0.4782383;0.8687649;0.3173747;0.4620054;1.601004;0.3623829;0.1961032;1.923058;0.3443516;-0.1419234;1.771693;0.3988133;-0.2420013;0.8529148;0.3343186;0;0;0;0.7163191;1.934597;0.3442936;1.008363;1.797207;0.3986859;1.081479;0.8398647;0.4788426;0.9423181;-0.03772116;0.1498062;0.1548752;-0.1856289;0.1528223;0.3309652;-1.635871;0.2343541;0.2544832;-2.963448;0.4441611;0.1548752;-0.1856289;0.1528223;0.3309652;-1.635871;0.2343541;0.2544832;-2.963448;0.4441611
971680.0419;NotLabelled;NONE;16384;0.5372373;-0.4598338;0.5249307;0.4736842;0;-5;-1;76;4050;625;65536;0.6300858;-0.4390582;0.3116343;0.5595568;3;-4;3;-1759;3680;73;8192;0.5888545;-0.5734072;-0.4390582;-0.3628809;1;-3;0;310;4071;325;32768;0.6221505;-0.5623268;-0.2285319;-0.4944598;-4;-4;-1;1421;3745;518;256;0.1426593;-0.1357341;-0.6703601;-0.7154313;0;-3;1;15;4052;-381;128;-0.01246537;0.1385041;0.5512465;0.8226716;-1;-2;-2;-573;3711;1668;4;-0.4265928;0.5;-0.5027701;-0.5614631;0;-2;2;-19;4062;-516;16;0.6454294;-0.7627921;-0.03185596;-0.0235457;0;0;0;-71;4106;676;2;0.5138504;-0.5292853;-0.4362881;-0.5152354;0;-3;1;-319;4084;-377;8;0.6440443;-0.7545223;0.07894737;0.09833795;0;-1;0;-87;4119;613;0.4703787;-0.1446304;0.1715583;0.4762986;0.3948517;0.2524629;0.4815054;0.8693562;0.3215775;0.4638718;1.601598;0.3660079;0.1973585;1.92313;0.3476895;-0.1403861;1.771165;0.4022274;-0.2426888;0.8529143;0.3338187;0;0;0;0.7175516;1.93566;0.3476886;1.00985;1.798871;0.402226;1.082796;0.8412666;0.4793538;0.9414801;-0.03662252;0.1520482;0.158142;-0.185071;0.1572401;0.3340638;-1.635314;0.2391357;0.2571499;-2.96289;0.4487861;0.158142;-0.185071;0.1572401;0.3340638;-1.635314;0.2391357;0.2571499;-2.96289;0.4487861
971701.185;NotLabelled;NONE;16384;0.5370659;-0.4584487;0.5263157;0.4736842;0;-4;-1;96;4024;605;65536;0.6300858;-0.4390582;0.3116343;0.5595568;2;-4;3;-1797;3680;51;8192;0.5888545;-0.5734072;-0.4390582;-0.3628809;2;-5;0;276;4055;367;32768;0.6232487;-0.5623268;-0.2285319;-0.4930748;-4;-5;0;1441;3785;480;256;0.1426593;-0.1357341;-0.6703601;-0.7154313;0;-3;1;-57;4038;-291;128;-0.01246537;0.1398892;0.5498615;0.8233638;-2;-1;-2;-607;3723;1692;4;-0.4265928;0.4986149;-0.5027701;-0.5626935;0;0;0;-81;4024;-526;16;0.6454294;-0.7627329;-0.033241;-0.0235457;0;0;0;-123;4028;750;2;0.5138504;-0.5292853;-0.4362881;-0.5152354;0;-2;0;-305;4032;-327;8;0.6440443;-0.7543405;0.07894737;0.09972299;0;-1;0;-55;4025;637;0.4691978;-0.1437054;0.1682356;0.4751176;0.3957701;0.2491878;0.4803244;0.8702679;0.3183443;0.4641053;1.602542;0.3627732;0.1982138;1.924588;0.3444541;-0.1398236;1.773277;0.3989923;-0.2398019;0.8547187;0.331283;0;0;0;0.71843;1.936114;0.344453;1.010463;1.798759;0.3989908;1.08039;0.840909;0.4758504;0.9389095;-0.0362258;0.1466012;0.1569612;-0.184145;0.1539134;0.3327145;-1.634387;0.2361691;0.2531464;-2.961978;0.4447312;0.1569612;-0.184145;0.1539134;0.3327145;-1.634387;0.2361691;0.2531464;-2.961978;0.4447312
971723.0536;NotLabelled;NONE;16384;0.5370659;-0.4584487;0.5263157;0.4736842;0;-2;-1;90;4012;571;65536;0.6293989;-0.4390582;0.3130194;0.5595568;2;-2;4;-1767;3668;63;8192;0.5907345;-0.5734072;-0.4376731;-0.3614958;1;-5;-1;288;4097;327;32768;0.6223431;-0.5650969;-0.2271468;-0.4916897;-4;-6;-1;1451;3781;478;256;0.1426593;-0.1371191;-0.6689751;-0.7164629;1;-3;1;-13;4026;-357;128;-0.01246537;0.1398892;0.5498615;0.8233638;-3;-1;-2;-507;3729;1694;4;-0.4265928;0.4986149;-0.5027701;-0.5626935;0;0;0;-87;4042;-516;16;0.6454294;-0.7627921;-0.03185596;-0.0235457;0;-1;0;-95;3982;792;2;0.5138504;-0.5292853;-0.4362881;-0.5152354;0;-2;0;-337;4102;-297;8;0.6440443;-0.7543405;0.07894737;0.09972299;0;0;0;-63;4075;645;0.471566;-0.1434941;0.1654044;0.4774827;0.3957014;0.2482004;0.4826868;0.8699603;0.3189787;0.4664678;1.602234;0.3634076;0.2005763;1.924281;0.3450881;-0.1374612;1.772969;0.399626;-0.2398022;0.8547177;0.3312826;0;0;0;0.7207927;1.935807;0.3450877;1.012826;1.798452;0.3996258;1.082744;0.8406014;0.4764931;0.9430642;-0.03710413;0.1479963;0.1593299;-0.1838846;0.1509324;0.3362005;-1.634208;0.2292685;0.2588563;-2.961784;0.4387599;0.1593299;-0.1838846;0.1509324;0.3362005;-1.634208;0.2292685;0.2588563;-2.961784;0.4387599
971744.1788;NotLabelled;NONE;16384;0.5370659;-0.4584487;0.5263157;0.4736842;0;-2;-1;108;4028;575;65536;0.6296732;-0.4376731;0.3144044;0.5595568;2;-2;4;-1779;3702;49;8192;0.5893869;-0.5747922;-0.4376731;-0.3614958;2;-4;0;322;4059;341;32768;0.6228469;-0.5650969;-0.2257618;-0.4916897;-4;-5;0;1347;3761;470;256;0.1426593;-0.1385041;-0.6689751;-0.7161964;1;-3;1;41;4030;-347;128;-0.01108033;0.1398892;0.5498615;0.8233836;-3;0;-1;-533;3703;1674;4;-0.4265928;0.4986149;-0.5027701;-0.5626935;0;-2;0;-137;4052;-560;16;0.6454294;-0.7627921;-0.03185596;-0.0235457;0;0;0;-47;4030;738;2;0.5152354;-0.5279371;-0.4362881;-0.5152354;0;-1;1;-287;4070;-333;8;0.6440443;-0.7543405;0.07894737;0.09972299;0;0;1;-101;4025;595;0.4714769;-0.143024;0.1606802;0.4773937;0.3961711;0.2434762;0.4825978;0.8704305;0.3142544;0.4672487;1.602553;0.3614052;0.2017369;1.92498;0.3443046;-0.1364752;1.773866;0.398308;-0.2386856;0.8556156;0.3297701;0;0;0;0.7219666;1.93589;0.3443037;1.013841;1.797988;0.3983068;1.085948;0.8401875;0.4737662;0.9422162;-0.03792858;0.1481292;0.1592408;-0.1834145;0.1462081;0.3359533;-1.633738;0.2249008;0.2559648;-2.961329;0.4333021;0.1592408;-0.1834145;0.1462081;0.3359533;-1.633738;0.2249008;0.2559648;-2.961329;0.4333021
971765.2676;NotLabelled;NONE;16384;0.535705;-0.4584487;0.5277008;0.4736842;0;-2;-2;52;3956;601;65536;0.6287082;-0.4390582;0.3144044;0.5595568;1;-2;3;-1773;3636;19;8192;0.5904129;-0.5747922;-0.4362881;-0.3614958;2;-3;-1;330;3987;333;32768;0.6215875;-0.566482;-0.2257618;-0.4916897;-4;-3;0;1437;3717;464;256;0.1426593;-0.1385041;-0.6689751;-0.7161964;1;-3;0;-41;4042;-347;128;-0.01108033;0.1398892;0.5484765;0.8243068;-4;0;-1;-595;3743;1698;4;-0.4265928;0.4986149;-0.5027701;-0.5626935;0;-1;0;-57;4014;-544;16;0.6454294;-0.7627921;-0.03185596;-0.0235457;0;0;0;-131;4012;640;2;0.5152354;-0.5279371;-0.4362881;-0.5152354;0;0;1;-297;4106;-337;8;0.6440443;-0.7543405;0.07894737;0.09972299;0;0;0;-93;4065;565;0.4715447;-0.1441264;0.1620871;0.4774612;0.395052;0.2449952;0.4826653;0.8692961;0.3158721;0.4687291;1.601447;0.3630211;0.2038399;1.924386;0.3459212;-0.1346628;1.773925;0.3999268;-0.2365919;0.8556595;0.3311611;0;0;0;0.7240896;1.934292;0.3459175;1.015698;1.795827;0.3999193;1.084361;0.8379731;0.4778711;0.9404538;-0.03939152;0.1502926;0.1593086;-0.1845136;0.1476059;0.3358592;-1.634838;0.2266611;0.255443;-2.962428;0.4348979;0.1593086;-0.1845136;0.1476059;0.3358592;-1.634838;0.2266611;0.255443;-2.962428;0.4348979
971786.0685;NotLabelled;NONE;16384;0.535705;-0.4584487;0.5277008;0.4736842;0;-4;-3;54;4006;639;65536;0.6289797;-0.4376731;0.3157895;0.5595568;1;-3;3;-1823;3692;61;8192;0.5904129;-0.5747922;-0.4362881;-0.3614958;2;-3;-1;306;4079;295;32768;0.6220887;-0.566482;-0.2243767;-0.4916897;-2;-2;0;1425;3775;504;256;0.1426593;-0.1385041;-0.6689751;-0.7161964;2;-2;1;-49;4016;-353;128;-0.01108033;0.1398892;0.5484765;0.8243068;-4;0;-1;-541;3757;1682;4;-0.4265928;0.4986149;-0.5027701;-0.5626935;0;0;0;-107;4048;-532;16;0.6454294;-0.7627329;-0.033241;-0.0235457;0;0;0;-59;3976;662;2;0.5152354;-0.5292853;-0.4362881;-0.5138504;0;-1;1;-307;4052;-331;8;0.6440443;-0.7543405;0.07894737;0.09972299;0;0;0;-73;4065;615;0.4717925;-0.1427145;0.1533243;0.4777059;0.3961849;0.2380256;0.4829073;0.8701906;0.3104798;0.468971;1.602342;0.3576288;0.2040818;1.925281;0.3405274;-0.1344213;1.774819;0.394531;-0.2375802;0.8565092;0.3282444;0;0;0;0.7243314;1.935186;0.3405266;1.015939;1.796722;0.3945301;1.085011;0.8386779;0.4697329;0.9382641;-0.03896999;0.1441772;0.1595569;-0.1830535;0.1386975;0.336107;-1.633377;0.2177535;0.2556897;-2.960968;0.4259895;0.1595569;-0.1830535;0.1386975;0.336107;-1.633377;0.2177535;0.2556897;-2.960968;0.4259895
971806.232;NotLabelled;NONE;16384;0.535705;-0.4584487;0.5277008;0.4736842;0;-4;-2;138;4024;553;65536;0.6282824;-0.4376731;0.3171745;0.5595568;1;-4;3;-1803;3734;45;8192;0.5914339;-0.5747922;-0.434903;-0.3614958;2;-3;0;312;4021;269;32768;0.6220887;-0.566482;-0.2243767;-0.4916897;-2;-2;0;1437;3749;506;256;0.1426593;-0.1398892;-0.66759;-0.7172189;3;-3;0;13;4094;-349;128;-0.01108033;0.1412742;0.5470914;0.8249908;-3;0;-1;-611;3751;1650;4;-0.4265928;0.4986149;-0.5027701;-0.5626935;0;0;0;-45;4070;-540;16;0.6454294;-0.7627329;-0.033241;-0.0235457;0;0;0;-53;3986;674;2;0.5152354;-0.5292853;-0.4362881;-0.5138504;0;-1;0;-293;4092;-405;8;0.6440443;-0.7543405;0.07894737;0.09972299;0;0;0;-63;4059;617;0.4745694;-0.1426706;0.1551877;0.4804828;0.3962288;0.239889;0.4856842;0.8702345;0.3123432;0.4717477;1.602386;0.3594922;0.2068587;1.925324;0.3423908;-0.1316444;1.774863;0.3963944;-0.23481;0.8565531;0.3301181;0;0;0;0.7271084;1.93523;0.34239;1.018717;1.796766;0.3963935;1.087795;0.8387218;0.4715894;0.9402021;-0.03817463;0.1443932;0.1623338;-0.1830096;0.1405609;0.3388839;-1.633333;0.2196169;0.260687;-2.960909;0.4287914;0.1623338;-0.1830096;0.1405609;0.3388839;-1.633333;0.2196169;0.260687;-2.960909;0.4287914
971827.2188;NotLabelled;NONE;16384;0.5343372;-0.4584487;0.5290859;0.4736842;0;-4;-2;110;4028;563;65536;0.6282824;-0.4376731;0.3171745;0.5595568;1;-3;2;-1841;3742;25;8192;0.5900847;-0.5761772;-0.434903;-0.3614958;3;-1;-1;292;4013;329;32768;0.6220887;-0.566482;-0.2243767;-0.4916897;-1;1;0;1485;3869;508;256;0.1426593;-0.1412742;-0.66759;-0.7169473;1;-3;0;5;4092;-365;128;-0.01108033;0.1412742;0.5457063;0.8259076;-2;0;-1;-537;3755;1690;4;-0.4265928;0.4986149;-0.5027701;-0.5626935;0;0;0;-75;4084;-518;16;0.6454294;-0.7627329;-0.033241;-0.0235457;0;0;0;-57;4022;684;2;0.5152354;-0.5292853;-0.4362881;-0.5138504;0;-2;1;-413;4058;-373;8;0.6440443;-0.7543405;0.07894737;0.09972299;0;0;0;-75;4109;623;0.4744804;-0.141644;0.1470266;0.4803907;0.3969631;0.2335679;0.4855894;0.870719;0.3076404;0.4725157;1.602706;0.3575057;0.2080048;1.926016;0.3416209;-0.1306711;1.775753;0.39509;-0.2336954;0.8574438;0.3285944;0;0;0;0.7282658;1.935312;0.3416202;1.019715;1.796306;0.3950891;1.088883;0.8380928;0.4680191;0.941954;-0.0388031;0.1405249;0.1622454;-0.1819329;0.1322504;0.3386348;-1.632257;0.2116643;0.2600139;-2.959832;0.4206798;0.1622454;-0.1819329;0.1322504;0.3386348;-1.632257;0.2116643;0.2600139;-2.959832;0.4206798
971848.0905;NotLabelled;NONE;16384;0.5343372;-0.4584487;0.5290859;0.4736842;1;-3;-2;112;4044;585;65536;0.6275813;-0.4376731;0.3185596;0.5595568;1;-3;2;-1847;3694;37;8192;0.5900847;-0.5761772;-0.434903;-0.3614958;2;-1;-1;268;4057;319;32768;0.6209915;-0.566482;-0.2243767;-0.4930748;-1;0;1;1461;3761;526;256;0.1426593;-0.1412742;-0.666205;-0.7182345;2;-3;0;-5;4030;-379;128;-0.01108033;0.1412742;0.5457063;0.8259076;-2;0;-1;-555;3721;1712;4;-0.4265928;0.4986149;-0.5027701;-0.5626935;0;0;0;-73;4014;-512;16;0.6454294;-0.7627329;-0.033241;-0.0235457;0;0;0;-45;4034;704;2;0.5152354;-0.5292853;-0.4362881;-0.5138504;1;-1;1;-309;4068;-345;8;0.6440443;-0.7543405;0.07894737;0.09972299;0;0;0;-81;4059;581;0.4730237;-0.1422377;0.1409192;0.4789307;0.3960795;0.2292476;0.4841266;0.8695865;0.3048921;0.4724635;1.601598;0.3547556;0.2085762;1.925417;0.33887;-0.1303888;1.775808;0.3923394;-0.2343726;0.8574443;0.3281114;0;0;0;0.7288542;1.933709;0.3388694;1.020035;1.794143;0.3923388;1.085918;0.8358631;0.4674112;0.9396643;-0.04103231;0.1396143;0.1607892;-0.1824765;0.1259979;0.3370144;-1.632801;0.2057755;0.2579625;-2.960377;0.4146284;0.1607892;-0.1824765;0.1259979;0.3370144;-1.632801;0.2057755;0.2579625;-2.960377;0.4146284
971868.4262;NotLabelled;NONE;16384;0.5343372;-0.4584487;0.5290859;0.4736842;1;-2;-2;76;3998;627;65536;0.6275813;-0.4376731;0.3185596;0.5595568;1;-2;3;-1873;3734;61;8192;0.5902537;-0.5761772;-0.433518;-0.3628809;2;-2;-1;274;4093;349;32768;0.6209915;-0.566482;-0.2243767;-0.4930748;-1;0;1;1421;3835;466;256;0.1426593;-0.1412742;-0.666205;-0.7182345;2;-3;0;-27;4036;-377;128;-0.01108033;0.1426593;0.5457063;0.8256695;-3;0;-1;-583;3775;1712;4;-0.4265928;0.4986149;-0.5027701;-0.5626935;0;0;0;-67;3992;-536;16;0.6454294;-0.7627329;-0.033241;-0.0235457;0;0;0;-67;3924;660;2;0.5152354;-0.5292853;-0.4362881;-0.5138504;0;-1;0;-313;4102;-355;8;0.6440443;-0.7543405;0.07894737;0.09972299;0;-1;0;-87;4063;603;0.4755053;-0.1405544;0.1364676;0.4814125;0.3977628;0.224796;0.4866084;0.8712697;0.3004406;0.4743932;1.603082;0.3530163;0.2102593;1.926758;0.3383463;-0.1285886;1.776694;0.3912814;-0.2325802;0.8583307;0.3270659;0;0;0;0.7305307;1.935445;0.3383452;1.02182;1.795902;0.3912796;1.087712;0.8376231;0.4663439;0.9396528;-0.03868341;0.1377838;0.1632709;-0.1807938;0.1215465;0.3394985;-1.631117;0.2013187;0.2604528;-2.958694;0.4101739;0.1632709;-0.1807938;0.1215465;0.3394985;-1.631117;0.2013187;0.2604528;-2.958694;0.4101739
971889.1326;NotLabelled;NONE;16384;0.5331061;-0.4584487;0.5290859;0.4750692;0;-2;-1;124;4064;579;65536;0.6275813;-0.4376731;0.3185596;0.5595568;1;-2;2;-1841;3688;17;8192;0.5902537;-0.5761772;-0.433518;-0.3628809;2;-2;-1;318;4053;369;32768;0.6209915;-0.566482;-0.2243767;-0.4930748;-1;0;2;1471;3783;528;256;0.1440443;-0.1426593;-0.66482;-0.7189673;2;-3;0;1;4064;-355;128;-0.01108033;0.1426593;0.5457063;0.8256695;-3;-1;-1;-575;3775;1728;4;-0.4265928;0.4986149;-0.5027701;-0.5626935;0;-1;0;-85;4060;-552;16;0.6454294;-0.7627329;-0.033241;-0.0235457;0;0;0;-93;3986;668;2;0.5152354;-0.5292853;-0.4362881;-0.5138504;0;-2;0;-345;4132;-353;8;0.6440443;-0.7543405;0.07894737;0.09972299;0;-1;0;-81;4099;687;0.4755056;-0.1405387;0.1363714;0.4814125;0.3977699;0.224751;0.4866084;0.8712697;0.3004405;0.4743932;1.603082;0.353016;0.2102594;1.926758;0.3383457;-0.1285886;1.776695;0.3912808;-0.2325801;0.8583302;0.3270656;0;0;0;0.7305309;1.935445;0.3383447;1.021821;1.795902;0.3912792;1.085891;0.8372469;0.463045;0.9378315;-0.03906012;0.1344851;0.1632711;-0.1807766;0.1214461;0.3394987;-1.6311;0.201219;0.260453;-2.958676;0.4100748;0.1632711;-0.1807766;0.1214461;0.3394987;-1.6311;0.201219;0.260453;-2.958676;0.4100748
971910.0606;NotLabelled;NONE;16384;-0.5304709;0.4584487;-0.531728;-0.4750692;0;-2;-2;86;4006;541;65536;0.6275813;-0.4376731;0.3185596;0.5595568;1;-2;0;-1807;3676;-5;8192;0.5902537;-0.5761772;-0.433518;-0.3628809;1;-1;0;336;4025;331;32768;0.6209915;-0.566482;-0.2243767;-0.4930748;-1;0;2;1457;3809;478;256;0.1440443;-0.1440443;-0.66482;-0.7186911;3;-4;1;-61;4106;-397;128;-0.01108033;0.1426593;0.5443213;0.8265833;-1;0;0;-557;3793;1746;4;-0.4265928;0.4986149;-0.5027701;-0.5626935;0;0;0;-105;4116;-586;16;0.6454294;-0.7627329;-0.033241;-0.0235457;0;0;0;-99;4064;734;2;0.5152354;-0.5292853;-0.4362881;-0.5138504;0;-2;0;-333;4098;-347;8;0.6440443;-0.7543405;0.07894737;0.09972299;0;-1;0;-53;4103;551;0.4724375;-0.1394992;0.1322576;0.4783446;0.3988094;0.2206372;0.4835404;0.8723092;0.2963266;0.4707787;1.603957;0.3510261;0.2064013;1.927475;0.3373079;-0.1323313;1.777004;0.3898236;-0.2338779;0.8583302;0.3261392;0;0;0;0.726666;1.936553;0.337307;1.018063;1.797075;0.3898224;1.081848;0.8384204;0.4618414;0.9350954;-0.03788614;0.132695;0.1602031;-0.1797371;0.1173324;0.3361122;-1.630061;0.1978044;0.2562371;-2.957637;0.4063438;0.1602031;-0.1797371;0.1173324;0.3361122;-1.630061;0.1978044;0.2562371;-2.957637;0.4063438
971931.085;NotLabelled;NONE;16384;-0.5290859;0.4584487;-0.5331061;-0.4750692;0;-2;-1;34;4046;523;65536;0.627841;-0.4362881;0.3199446;0.5595568;1;-2;0;-1807;3706;13;8192;0.5899155;-0.5775623;-0.432133;-0.3628809;2;-1;0;268;4045;305;32768;0.6211522;-0.5650969;-0.2243767;-0.4944598;-1;1;3;1451;3759;518;256;0.1440443;-0.1440443;-0.6634349;-0.7199699;3;-4;1;7;4056;-405;128;-0.01108033;0.1426593;0.5443213;0.8265833;-2;0;0;-597;3761;1734;4;-0.4265928;0.4986149;-0.5027701;-0.5626935;0;1;0;-95;4066;-530;16;0.6454294;-0.7627329;-0.033241;-0.0235457;0;0;0;-123;4038;720;2;0.5152354;-0.5304239;-0.434903;-0.5138504;0;-1;0;-325;4128;-333;8;0.6440443;-0.7540098;0.08033241;0.101108;-1;0;0;-65;4061;601;0.4719777;-0.1400452;0.1238753;0.4778816;0.3979673;0.214039;0.4830745;0.8712139;0.2912979;0.4717188;1.602884;0.3459956;0.2079635;1.92691;0.3322768;-0.1310576;1.777091;0.3847928;-0.2345527;0.8583302;0.3256541;0;0;0;0.7282447;1.934988;0.3322757;1.019373;1.794951;0.3847914;1.083009;0.8362961;0.4569426;0.9369376;-0.04001093;0.1274933;0.1597438;-0.180233;0.1088055;0.3354861;-1.630557;0.1896416;0.2551794;-2.958133;0.3980153;0.1597438;-0.180233;0.1088055;0.3354861;-1.630557;0.1896416;0.2551794;-2.958133;0.3980153
971951.0263;NotLabelled;NONE;16384;-0.5290859;0.4570637;-0.5342941;-0.4750692;0;-3;-1;66;4050;571;65536;0.6266039;-0.4362881;0.3199446;0.5609418;1;-3;0;-1829;3738;25;8192;0.5899155;-0.5775623;-0.432133;-0.3628809;2;-1;0;300;4053;337;32768;0.6211522;-0.5650969;-0.2243767;-0.4944598;0;2;2;1423;3779;498;256;0.1440443;-0.1454294;-0.6634349;-0.7196914;4;-5;1;-21;4088;-369;128;-0.01108033;0.1440443;0.5429363;0.8272537;-3;0;-1;-591;3757;1716;4;-0.4265928;0.4986149;-0.501385;-0.563928;0;1;0;-61;4116;-552;16;0.6454294;-0.7627329;-0.033241;-0.0235457;0;0;0;-101;3996;738;2;0.5152354;-0.5304239;-0.434903;-0.5138504;0;0;0;-271;4090;-397;8;0.6440443;-0.7543405;0.07894737;0.09972299;0;-1;0;-29;4057;687;0.4765038;-0.1391497;0.1198748;0.4824076;0.3988628;0.2100385;0.4876006;0.8721094;0.2872973;0.4756865;1.603564;0.3446962;0.2116818;1.927436;0.3321884;-0.127221;1.777163;0.3841703;-0.231788;0.8583665;0.3275322;0;0;0;0.7319566;1.935914;0.3321878;1.023196;1.795907;0.3841697;1.083937;0.8370333;0.4559071;0.9389304;-0.03840446;0.1236895;0.16427;-0.179338;0.1048049;0.3400144;-1.629662;0.185636;0.2597137;-2.957238;0.3940119;0.16427;-0.179338;0.1048049;0.3400144;-1.629662;0.185636;0.2597137;-2.957238;0.3940119
971971.047;NotLabelled;NONE;16384;-0.5290859;0.4570637;-0.5342941;-0.4750692;2;-4;0;60;4054;559;65536;0.6266039;-0.4362881;0.3199446;0.5609418;1;-4;0;-1833;3770;-35;8192;0.5899155;-0.5775623;-0.432133;-0.3628809;1;-1;-1;316;4065;237;32768;0.6216508;-0.5650969;-0.2229917;-0.4944598;0;2;2;1437;3743;526;256;0.1440443;-0.1454294;-0.6620498;-0.7209657;4;-5;1;19;4012;-403;128;-0.01108033;0.1440443;0.5429363;0.8272537;-3;0;-1;-577;3761;1676;4;-0.4265928;0.5;-0.501385;-0.5627003;0;3;0;-129;4058;-484;16;0.6454294;-0.7627329;-0.033241;-0.0235457;0;0;0;-105;4028;698;2;0.5152354;-0.5304239;-0.434903;-0.5138504;0;0;1;-267;4068;-371;8;0.6440443;-0.7540098;0.08033241;0.101108;0;-1;0;-93;4045;653;0.4743405;-0.1400533;0.1134008;0.4802409;0.3976488;0.2053974;0.485431;0.8706293;0.2842684;0.4749249;1.602106;0.3416663;0.2115409;1.926484;0.3291804;-0.127645;1.776862;0.3811918;-0.234176;0.8581834;0.3263119;0;0;0;0.7318311;1.933963;0.329135;1.022805;1.793398;0.3810923;1.083258;0.834775;0.4563352;0.9389116;-0.04066324;0.12383;0.1621072;-0.1801901;0.09818232;0.3425551;-1.630044;0.1770471;0.2618399;-2.95762;0.3852629;0.1621072;-0.1801901;0.09818232;0.3425551;-1.630044;0.1770471;0.2618399;-2.95762;0.3852629
971992.0803;NotLabelled;NONE;16384;-0.5277008;0.4570637;-0.5344304;-0.4764543;1;-5;0;98;4012;577;65536;0.6268579;-0.434903;0.3213296;0.5609418;2;-5;0;-1837;3774;-21;8192;0.5899155;-0.5775623;-0.432133;-0.3628809;1;0;-1;274;4019;261;32768;0.6205465;-0.5650969;-0.2229917;-0.4958449;0;1;1;1491;3773;546;256;0.1454294;-0.1468144;-0.6620498;-0.7204067;4;-5;0;-3;4032;-363;128;-0.009695291;0.1440443;0.5429363;0.8272711;-3;0;-1;-501;3699;1720;4;-0.4265928;0.5;-0.501385;-0.5627003;1;4;0;-143;4022;-542;16;0.6454294;-0.7627329;-0.033241;-0.0235457;0;0;0;-57;4026;684;2;0.5152354;-0.5292853;-0.4362881;-0.5138504;0;0;1;-299;4092;-345;8;0.6440443;-0.7540098;0.08033241;0.101108;0;-1;0;-43;4073;613;0.475125;-0.1394091;0.1129968;0.4810255;0.398293;0.2049933;0.4862157;0.8712735;0.2838643;0.4751447;1.602526;0.3439566;0.2115114;1.926744;0.3326573;-0.1275609;1.77667;0.384106;-0.2341952;0.8581839;0.3262978;0;0;0;0.7317955;1.934624;0.3326566;1.022876;1.794093;0.384105;1.083471;0.8352189;0.4559668;0.9383148;-0.03945541;0.1218084;0.1628917;-0.1795454;0.09777837;0.3421624;-1.629328;0.1805586;0.2614348;-2.956904;0.3887695;0.1628917;-0.1795454;0.09777837;0.3421624;-1.629328;0.1805586;0.2614348;-2.956904;0.3887695
972013.107;NotLabelled;NONE;16384;-0.5277008;0.4570637;-0.5344304;-0.4764543;1;-5;0;70;4064;569;65536;0.6258641;-0.433518;0.3227147;0.5623268;1;-4;-1;-1853;3720;-9;8192;0.5899155;-0.5775623;-0.432133;-0.3628809;2;0;-1;354;4053;299;32768;0.6205465;-0.5650969;-0.2229917;-0.4958449;0;2;2;1455;3821;504;256;0.1454294;-0.1468144;-0.6606648;-0.7216771;4;-4;0;-17;4044;-385;128;-0.009695291;0.1440443;0.5415512;0.8281784;-4;0;-1;-575;3729;1734;4;-0.4279778;0.5;-0.5;-0.562881;1;4;0;-27;4062;-530;16;0.6454294;-0.7627329;-0.033241;-0.0235457;0;1;0;-121;4000;758;2;0.5138504;-0.5306301;-0.4362881;-0.5138504;0;0;1;-315;4098;-345;8;0.6440443;-0.7540098;0.08033241;0.101108;0;-1;0;-27;4037;659;0.4742407;-0.1390986;0.1136595;0.4801408;0.3985839;0.2057697;0.4853307;0.8715482;0.2847408;0.4742586;1.602848;0.3442447;0.2106251;1.927057;0.3326815;-0.1284475;1.777024;0.3842469;-0.2327519;0.8582211;0.3272315;0;0;0;0.7309095;1.934937;0.3326805;1.02199;1.794448;0.3842455;1.082296;0.8355742;0.4563495;0.936695;-0.03850365;0.1208245;0.1620074;-0.1792321;0.09843178;0.3409451;-1.629014;0.1819295;0.2593842;-2.95659;0.3898153;0.1620074;-0.1792321;0.09843178;0.3409451;-1.629014;0.1819295;0.2593842;-2.95659;0.3898153
972033.3523;NotLabelled;NONE;16384;-0.5277008;0.4570637;-0.5344304;-0.4764543;1;-4;0;72;4054;605;65536;0.6268212;-0.432133;0.3227147;0.5623268;1;-3;-1;-1779;3696;-13;8192;0.5890613;-0.5775623;-0.432133;-0.3642659;2;0;0;330;4179;291;32768;0.6205465;-0.5650969;-0.2229917;-0.4958449;0;5;1;1411;3861;566;256;0.1454294;-0.1481994;-0.6606648;-0.721394;3;-3;1;-13;4070;-409;128;-0.009695291;0.1440443;0.5415512;0.8281784;-3;0;-1;-539;3771;1708;4;-0.4293629;0.501385;-0.4986149;-0.5618218;1;6;0;-65;4112;-536;16;0.6454294;-0.7626889;-0.033241;-0.02493075;1;1;0;-65;4028;672;2;0.5138504;-0.5306301;-0.4362881;-0.5138504;0;-1;0;-329;4086;-351;8;0.6440443;-0.7540098;0.08033241;0.101108;0;-1;0;-9;4105;655;0.475966;-0.1378207;0.108058;0.4818628;0.3995543;0.2019472;0.4870498;0.8722539;0.2824832;0.4754135;1.603322;0.3446768;0.2115279;1.927366;0.3343205;-0.1274254;1.776882;0.3853525;-0.2317263;0.8580785;0.3283311;0;0;0;0.7318059;1.935651;0.3343198;1.022998;1.795198;0.3853517;1.0833;0.8363247;0.4574593;0.9376906;-0.03775263;0.1219379;0.1637332;-0.1779037;0.09268626;0.344283;-1.627696;0.1724532;0.2627279;-2.955271;0.3803414;0.1637332;-0.1779037;0.09268626;0.344283;-1.627696;0.1724532;0.2627279;-2.955271;0.3803414
972054.0972;NotLabelled;NONE;16384;-0.5277008;0.4556787;-0.5356119;-0.4764543;0;-4;0;78;4082;621;65536;0.625576;-0.432133;0.3227147;0.5637119;0;-2;-1;-1807;3718;19;8192;0.5882025;-0.5775623;-0.432133;-0.365651;3;1;0;280;4113;313;32768;0.618937;-0.5650969;-0.2243767;-0.4972299;0;5;0;1389;3861;546;256;0.1454294;-0.1495845;-0.6592798;-0.7223746;2;-3;0;-63;4110;-411;128;-0.009695291;0.1440443;0.5401662;0.8290824;-2;0;-1;-537;3749;1720;4;-0.4293629;0.5027701;-0.4986149;-0.5605827;1;5;0;-81;4028;-604;16;0.6454294;-0.7626889;-0.033241;-0.02493075;1;0;0;-45;4048;700;2;0.5138504;-0.5317658;-0.434903;-0.5138504;0;-1;1;-307;4118;-389;8;0.6440443;-0.7540098;0.08033241;0.101108;0;0;0;-37;4045;653;0.4743988;-0.1398535;0.1106976;0.4802956;0.3975215;0.2045869;0.4854827;0.8702211;0.2851229;0.4752448;1.60131;0.3473147;0.2119793;1.925858;0.3369578;-0.1272611;1.776023;0.3879902;-0.2314483;0.8572192;0.3307612;0;0;0;0.7322721;1.933147;0.3369569;1.023195;1.792139;0.387989;1.081292;0.8330688;0.4592931;0.9363816;-0.04100847;0.1234694;0.162166;-0.1799364;0.0953259;0.3429478;-1.629668;0.1756579;0.2584367;-2.957292;0.382057;0.162166;-0.1799364;0.0953259;0.3429478;-1.629668;0.1756579;0.2584367;-2.957292;0.382057
972075.0585;NotLabelled;NONE;16384;-0.5277008;0.4556787;-0.5343766;-0.4778393;0;-4;0;162;4086;563;65536;0.625576;-0.432133;0.3227147;0.5637119;0;-1;-1;-1885;3732;-33;8192;0.5882025;-0.5775623;-0.432133;-0.365651;3;2;0;258;4151;301;32768;0.618937;-0.5650969;-0.2243767;-0.4972299;0;5;0;1491;3877;642;256;0.1454294;-0.1495845;-0.6592798;-0.7223746;2;-4;0;-37;4066;-377;128;-0.009695291;0.1454294;0.5401662;0.8288406;-2;0;-1;-605;3731;1772;4;-0.4293629;0.5027701;-0.4972299;-0.5618116;1;4;0;-97;4094;-506;16;0.6454294;-0.7626889;-0.033241;-0.02493075;1;0;0;-69;4006;690;2;0.5152354;-0.5304239;-0.434903;-0.5138504;0;0;1;-293;4088;-401;8;0.6440443;-0.7540098;0.08033241;0.101108;0;0;0;-19;4103;613;0.4730113;-0.1400628;0.1039499;0.4789046;0.3969989;0.1996148;0.4840887;0.8694301;0.2817127;0.4746802;1.600296;0.3465867;0.2117815;1.925178;0.3374341;-0.1276257;1.77554;0.3879339;-0.2338605;0.8570466;0.3295104;0;0;0;0.7320824;1.931879;0.3374332;1.022848;1.790355;0.3879327;1.07873;0.8310943;0.4584311;0.9335401;-0.04314899;0.1231617;0.1607791;-0.1800942;0.08843438;0.3401494;-1.629759;0.1730399;0.255213;-2.957382;0.3792642;0.1607791;-0.1800942;0.08843438;0.3401494;-1.629759;0.1730399;0.255213;-2.957382;0.3792642
972116.0807;NotLabelled;NONE;16384;-0.5263157;0.4556787;-0.5357409;-0.4778393;0;-3;0;98;4082;581;65536;0.6262333;-0.4293629;0.3227147;0.5650969;1;-4;-2;-1777;3760;9;8192;0.5882025;-0.5775623;-0.432133;-0.365651;3;0;1;194;4123;359;32768;0.6178217;-0.5650969;-0.2243767;-0.4986149;-2;1;0;1471;3829;584;256;0.1468144;-0.1509695;-0.6578947;-0.7230687;0;-4;0;-49;4036;-435;128;-0.008310249;0.1454294;0.5401662;0.8288556;0;-1;-1;-621;3759;1716;4;-0.4293629;0.5041551;-0.4972299;-0.560569;0;0;0;-113;4062;-556;16;0.6454294;-0.7626889;-0.033241;-0.02493075;1;0;0;-79;4006;688;2;0.5152354;-0.5304239;-0.434903;-0.5138504;0;-1;0;-367;4128;-397;8;0.6440443;-0.7538228;0.08033241;0.1024931;0;0;0;-33;4057;581;0.4698462;-0.1397653;0.1051072;0.4757395;0.3972869;0.2008255;0.4809234;0.86971;0.2829705;0.4715151;1.600577;0.3478447;0.2086164;1.925458;0.3386921;-0.1307908;1.77582;0.389192;-0.2338606;0.8570466;0.3295104;0;0;0;0.7289172;1.932159;0.3386911;1.019683;1.790636;0.3891906;1.07557;0.8313742;0.4596843;0.9303805;-0.04286957;0.1244147;0.1576141;-0.1797953;0.08958732;0.3418704;-1.628976;0.1719548;0.2569339;-2.956599;0.3781791;0.1576141;-0.1797953;0.08958732;0.3418704;-1.628976;0.1719548;0.2569339;-2.956599;0.3781791
972158.5597;NotLabelled;NONE;16384;-0.5263157;0.4542936;-0.5369158;-0.4778393;0;-2;0;148;4134;591;65536;0.6262333;-0.4293629;0.3227147;0.5650969;2;-3;-1;-1849;3714;-13;8192;0.5868394;-0.5789474;-0.432133;-0.365651;1;-3;2;182;4093;351;32768;0.6178217;-0.5650969;-0.2243767;-0.4986149;-4;-2;-1;1469;3737;518;256;0.1468144;-0.1509695;-0.6578947;-0.7230687;0;-3;0;-41;4120;-457;128;-0.008310249;0.1454294;0.5401662;0.8288556;0;0;-2;-575;3739;1724;4;-0.4293629;0.5041551;-0.4972299;-0.560569;0;0;0;-99;4056;-524;16;0.6454294;-0.7626889;-0.033241;-0.02493075;0;0;0;-145;4000;652;2;0.5152354;-0.5304239;-0.434903;-0.5138504;0;-1;0;-357;4060;-371;8;0.6440443;-0.7536739;0.08171745;0.1024931;0;0;0;-53;4073;591;0.470264;-0.1407976;0.1043259;0.476157;0.3962345;0.2001569;0.4813408;0.8686399;0.282401;0.4713526;1.599311;0.3493594;0.2081947;1.924008;0.3411427;-0.1310912;1.773956;0.3912278;-0.2349969;0.8551445;0.3336171;0;0;0;0.7284901;1.931124;0.3411422;1.019371;1.789689;0.3912277;1.074976;0.8304272;0.4619438;0.9293395;-0.04321098;0.1252927;0.1580319;-0.1808248;0.08879687;0.3406835;-1.629937;0.1758004;0.2549258;-2.957561;0.3816848;0.1580319;-0.1808248;0.08879687;0.3406835;-1.629937;0.1758004;0.2549258;-2.957561;0.3816848
972180.3814;NotLabelled;NONE;16384;-0.5263157;0.4542936;-0.5369158;-0.4778393;1;0;0;70;4084;671;65536;0.6262333;-0.4293629;0.3227147;0.5650969;1;-2;0;-1857;3772;11;8192;0.5868394;-0.5789474;-0.432133;-0.365651;1;-5;2;232;4089;309;32768;0.6176695;-0.566482;-0.2243767;-0.4972299;-4;-5;-3;1483;3737;560;256;0.1468144;-0.1523546;-0.6578947;-0.7227781;-1;-3;0;33;4060;-403;128;-0.009695291;0.1468144;0.5401662;0.8285964;1;-2;-2;-591;3701;1696;4;-0.4293629;0.5041551;-0.4972299;-0.560569;0;0;0;-51;4058;-546;16;0.6454294;-0.7626273;-0.03462604;-0.02493075;1;0;0;-111;4024;694;2;0.5152354;-0.5304239;-0.434903;-0.5138504;0;-2;0;-345;4102;-371;8;0.6440443;-0.7536739;0.08171745;0.1024931;0;0;0;-109;4085;631;0.4724251;-0.1411066;0.1053036;0.4783181;0.3959255;0.2011346;0.4835019;0.868331;0.2833787;0.4735136;1.599002;0.3503371;0.2103558;1.923699;0.3421203;-0.1289302;1.773647;0.3922055;-0.234997;0.8551445;0.3336171;0;0;0;0.7306512;1.930815;0.3421199;1.021532;1.78938;0.3922053;1.073942;0.8300834;0.4648656;0.9283059;-0.04355526;0.1282144;0.160193;-0.1811337;0.08977455;0.3428445;-1.630246;0.1767781;0.2570869;-2.95787;0.3826625;0.160193;-0.1811337;0.08977455;0.3428445;-1.630246;0.1767781;0.2570869;-2.95787;0.3826625
972202.0438;NotLabelled;NONE;16384;-0.5263157;0.4542936;-0.5369158;-0.4778393;0;0;0;22;4052;589;65536;0.6264662;-0.4279778;0.3240997;0.5650969;1;-1;0;-1751;3690;3;8192;0.5864895;-0.5803324;-0.4307479;-0.365651;2;-4;2;242;4033;247;32768;0.6180126;-0.567867;-0.2229917;-0.4958449;-3;-4;-3;1427;3759;524;256;0.1468144;-0.1537396;-0.6578947;-0.7224848;0;-4;0;11;4054;-493;128;-0.009695291;0.1468144;0.5401662;0.8285964;1;-2;-1;-547;3699;1754;4;-0.4293629;0.5041551;-0.4972299;-0.560569;0;-1;0;-99;4090;-550;16;0.6454294;-0.7626273;-0.03462604;-0.02493075;1;0;0;-121;4020;742;2;0.5152354;-0.5317622;-0.434903;-0.5124654;0;-2;0;-301;4060;-323;8;0.6440443;-0.7536739;0.08171745;0.1024931;0;0;0;-19;4049;617;0.4698771;-0.1422925;0.1051447;0.4757702;0.3947501;0.2009171;0.4809541;0.8671651;0.2831097;0.4723599;1.597853;0.3500663;0.209822;1.923051;0.3418488;-0.1297496;1.773648;0.3919344;-0.2356937;0.855145;0.333125;0;0;0;0.7301298;1.929175;0.3418482;1.02074;1.787185;0.3919338;1.072999;0.8278885;0.4647035;0.9269423;-0.04661846;0.1305001;0.1576449;-0.1823211;0.08962053;0.3401144;-1.631434;0.1770059;0.256122;-2.959043;0.3837076;0.1576449;-0.1823211;0.08962053;0.3401144;-1.631434;0.1770059;0.256122;-2.959043;0.3837076
972223.0818;NotLabelled;NONE;16384;-0.5263157;0.4542936;-0.5369158;-0.4778393;0;-1;0;24;4012;605;65536;0.6252139;-0.4279778;0.3240997;0.566482;0;0;0;-1811;3772;13;8192;0.5873507;-0.5803324;-0.4307479;-0.3642659;2;-4;2;260;4081;261;32768;0.6180126;-0.567867;-0.2229917;-0.4958449;-3;-3;-3;1393;3805;518;256;0.1481994;-0.1537396;-0.6578947;-0.7222019;-1;-3;1;-45;4028;-411;128;-0.009695291;0.1468144;0.5401662;0.8285964;1;-2;-2;-645;3717;1766;4;-0.4293629;0.5027701;-0.4972299;-0.5618116;0;0;0;-73;4082;-568;16;0.6454294;-0.7626273;-0.03462604;-0.02493075;2;0;0;-101;4022;652;2;0.5152354;-0.5317622;-0.434903;-0.5124654;0;-3;0;-323;4086;-367;8;0.6440443;-0.7536739;0.08171745;0.1024931;0;0;0;-63;4045;651;0.470071;-0.1434278;0.1067353;0.4759641;0.3936148;0.2025078;0.481148;0.8660297;0.2847003;0.4739486;1.596733;0.3516557;0.2120318;1.922432;0.3434378;-0.1278243;1.773677;0.3935237;-0.2336453;0.8551741;0.3344923;0;0;0;0.7323506;1.927563;0.343437;1.022689;1.785017;0.3935227;1.071892;0.8255343;0.4659534;0.9246119;-0.04907274;0.1325493;0.1578389;-0.1834564;0.09121118;0.3401251;-1.632569;0.1789778;0.2557006;-2.960179;0.385503;0.1578389;-0.1834564;0.09121118;0.3401251;-1.632569;0.1789778;0.2557006;-2.960179;0.385503
972243.1163;NotLabelled;NONE;16384;-0.5263157;0.4542936;-0.5369158;-0.4778393;0;-3;0;-20;4036;579;65536;0.6252139;-0.4279778;0.3240997;0.566482;1;-1;0;-1743;3754;13;8192;0.585979;-0.5817174;-0.4307479;-0.3642659;3;-4;1;250;4057;235;32768;0.6178481;-0.5692521;-0.2229917;-0.4944598;-2;-1;-3;1447;3811;520;256;0.1481994;-0.1537396;-0.6578947;-0.7222019;0;-3;1;25;4068;-443;128;-0.009695291;0.1481994;0.5401662;0.8283498;1;-2;-2;-611;3737;1712;4;-0.4293629;0.5027701;-0.4986149;-0.5605827;0;-3;0;-51;4058;-596;16;0.6454294;-0.7625808;-0.03462604;-0.02631579;1;-1;0;-67;4040;642;2;0.5166205;-0.5315493;-0.433518;-0.5124654;0;-2;0;-273;4100;-329;8;0.6440443;-0.7536739;0.08171745;0.1024931;0;0;0;-55;4025;663;0.4693366;-0.1425128;0.1064485;0.4752297;0.3945298;0.2022209;0.4804136;0.8669443;0.2844135;0.4718122;1.597688;0.3507704;0.2092715;1.922877;0.3422837;-0.1302993;1.77351;0.3924887;-0.2360067;0.8550086;0.3332544;0;0;0;0.7295794;1.929005;0.3422828;1.02019;1.787058;0.3924876;1.071314;0.8277555;0.4659658;0.9246734;-0.04685211;0.1322801;0.1571044;-0.1825414;0.0909242;0.3405208;-1.631722;0.175146;0.2557002;-2.959331;0.3815091;0.1571044;-0.1825414;0.0909242;0.3405208;-1.631722;0.175146;0.2557002;-2.959331;0.3815091
972284.0857;NotLabelled;NONE;16384;-0.5263157;0.4542936;-0.5369158;-0.4778393;0;-3;0;-58;4046;581;65536;0.6252139;-0.4279778;0.3240997;0.566482;0;-2;0;-1773;3758;-17;8192;0.585979;-0.5817174;-0.4307479;-0.3642659;2;-3;1;316;4099;237;32768;0.6165692;-0.5706371;-0.2229917;-0.4944598;-1;-1;-3;1489;3803;550;256;0.1481994;-0.1551246;-0.6578947;-0.7219056;-1;-4;0;1;4068;-417;128;-0.009695291;0.1481994;0.5401662;0.8283498;0;-3;-1;-575;3761;1738;4;-0.4293629;0.5027701;-0.4986149;-0.5605827;-1;-5;1;-61;4070;-550;16;0.6454294;-0.7626273;-0.03462604;-0.02493075;1;0;0;-107;4028;712;2;0.5166205;-0.5315493;-0.433518;-0.5124654;0;-2;0;-313;4086;-363;8;0.6440443;-0.7536739;0.08171745;0.1024931;0;0;0;-19;4077;615;0.4693368;-0.1424947;0.1063449;0.4752298;0.3945379;0.2021722;0.4804136;0.8669448;0.2844129;0.4718123;1.597688;0.3507695;0.2092715;1.922877;0.3422825;-0.1302992;1.773511;0.3924875;-0.2360066;0.8550081;0.3332537;0;0;0;0.7295794;1.929005;0.342282;1.02019;1.787058;0.3924869;1.068102;0.8277402;0.4679032;0.9203284;-0.04772663;0.1369822;0.1571047;-0.1825218;0.09081637;0.3356126;-1.632186;0.1772272;0.2482899;-2.959844;0.3822321;0.1571047;-0.1825218;0.09081637;0.3356126;-1.632186;0.1772272;0.2482899;-2.959844;0.3822321
972305.1946;NotLabelled;NONE;16384;-0.5263157;0.4542936;-0.5369158;-0.4778393;0;-4;0;-4;4026;627;65536;0.6261598;-0.4265928;0.3240997;0.566482;1;-3;-1;-1703;3796;-41;8192;0.5864781;-0.5831025;-0.4293629;-0.3628809;2;-3;1;280;4083;285;32768;0.6165692;-0.5706371;-0.2229917;-0.4944598;-2;0;-3;1513;3833;572;256;0.1495845;-0.1565097;-0.6578947;-0.7213208;0;-3;0;29;4082;-403;128;-0.009695291;0.1495845;0.5401662;0.8281008;0;-2;-1;-607;3759;1712;4;-0.4279778;0.501385;-0.4986149;-0.5628776;0;-5;1;-35;4092;-556;16;0.6454294;-0.7625808;-0.03462604;-0.02631579;1;0;0;-105;4050;700;2;0.5166205;-0.5315493;-0.433518;-0.5124654;0;-2;0;-301;4048;-339;8;0.6440443;-0.7536739;0.08171745;0.1024931;0;0;0;-49;4105;591;0.4666584;-0.1436601;0.106294;0.4725515;0.3933725;0.2021212;0.4777353;0.8657789;0.2843619;0.4705299;1.596537;0.3507172;0.2086109;1.922227;0.3422297;-0.1312445;1.77351;0.3924348;-0.2367033;0.8550081;0.3327594;0;0;0;0.7289295;1.927362;0.342229;1.019269;1.784861;0.3924342;1.066864;0.825542;0.4680504;0.9168611;-0.05016327;0.1387673;0.1544264;-0.1836872;0.09076537;0.3327532;-1.633351;0.1775495;0.2475011;-2.960961;0.3837351;0.1544264;-0.1836872;0.09076537;0.3327532;-1.633351;0.1775495;0.2475011;-2.960961;0.3837351
972326.0502;NotLabelled;NONE;16384;-0.5249307;0.4529086;-0.5382059;-0.4792244;0;-5;-1;30;4054;609;65536;0.625128;-0.4252077;0.3254848;0.567867;1;-4;0;-1761;3780;13;8192;0.5864781;-0.5831025;-0.4293629;-0.3628809;2;-3;1;272;4145;293;32768;0.6163949;-0.5720221;-0.2229917;-0.4930748;-2;-2;-2;1561;3831;532;256;0.1495845;-0.1565097;-0.6578947;-0.7213208;0;-4;1;-37;4062;-457;128;-0.01108033;0.1509695;0.5401662;0.827832;1;-2;-2;-605;3727;1722;4;-0.4279778;0.501385;-0.4986149;-0.5628776;0;-2;1;3;4102;-514;16;0.6454294;-0.7625808;-0.03462604;-0.02631579;1;0;0;-71;4070;630;2;0.5166205;-0.5328811;-0.433518;-0.5110803;0;-3;0;-317;4108;-345;8;0.6440443;-0.7536739;0.08171745;0.1024931;0;-1;0;-57;4053;587;0.4661396;-0.1446056;0.1091048;0.4720324;0.3924174;0.2049874;0.4772161;0.8648152;0.2872767;0.4700085;1.595628;0.353027;0.2080888;1.92131;0.3442677;-0.1317667;1.772635;0.3945931;-0.2371105;0.8541317;0.3347144;0;0;0;0.7284074;1.926446;0.3442672;1.018747;1.783987;0.3945928;1.065343;0.8246675;0.4708152;0.916662;-0.05103779;0.1409323;0.1539074;-0.1846313;0.09357172;0.3364287;-1.633872;0.1786982;0.2478562;-2.961529;0.3831657;0.1539074;-0.1846313;0.09357172;0.3364287;-1.633872;0.1786982;0.2478562;-2.961529;0.3831657
972368.112;NotLabelled;NONE;16384;-0.5249307;0.4529086;-0.5382059;-0.4792244;0;-5;-1;140;3994;651;65536;0.624405;-0.4252077;0.3268698;0.567867;1;-5;0;-1707;3672;3;8192;0.5864781;-0.5831025;-0.4293629;-0.3628809;1;-3;2;266;4133;303;32768;0.6163949;-0.5720221;-0.2229917;-0.4930748;-2;-2;-3;1481;3821;556;256;0.1495845;-0.1578947;-0.6578947;-0.7210189;-1;-4;0;-35;4068;-449;128;-0.01108033;0.1509695;0.5401662;0.827832;1;-2;-2;-565;3701;1696;4;-0.4293629;0.5;-0.4986149;-0.5630547;0;-1;1;-67;4054;-554;16;0.6454294;-0.7625808;-0.03462604;-0.02631579;0;0;0;-97;3994;654;2;0.5166205;-0.5328811;-0.433518;-0.5110803;0;-2;0;-307;4104;-359;8;0.6440443;-0.7536739;0.08171745;0.1024931;0;-1;0;-99;4065;627;0.4672104;-0.1447496;0.1100461;0.4731033;0.3922844;0.2058648;0.4782872;0.8646927;0.2880981;0.4710795;1.595505;0.3538483;0.2091599;1.921188;0.3450891;-0.1306956;1.772511;0.3954147;-0.2360861;0.8539987;0.3357779;0;0;0;0.7294784;1.926323;0.3450884;1.019817;1.783864;0.3954138;1.066414;0.8245444;0.471636;0.9165831;-0.05200386;0.1445265;0.1549782;-0.1847768;0.09451829;0.3374996;-1.634017;0.1796448;0.2489273;-2.961675;0.3841124;0.1549782;-0.1847768;0.09451829;0.3374996;-1.634017;0.1796448;0.2489273;-2.961675;0.3841124
972388.0526;NotLabelled;NONE;16384;-0.5249307;0.4529086;-0.5382059;-0.4792244;0;-5;-2;96;4006;617;65536;0.6253459;-0.4238227;0.3268698;0.567867;1;-4;0;-1713;3736;-65;8192;0.5844875;-0.5859545;-0.4293629;-0.3614958;0;-5;1;254;4063;261;32768;0.6151066;-0.5734072;-0.2229917;-0.4930748;-3;-4;-1;1483;3807;528;256;0.1495845;-0.1578947;-0.6578947;-0.7210189;-1;-5;1;31;4050;-447;128;-0.01108033;0.1523546;0.5401662;0.8275782;2;-1;-2;-647;3763;1782;4;-0.4293629;0.5;-0.4986149;-0.5630547;0;-2;1;-75;4076;-604;16;0.6454294;-0.7625808;-0.03462604;-0.02631579;0;0;0;-55;4058;680;2;0.5166205;-0.534005;-0.432133;-0.5110803;0;-2;0;-333;4106;-339;8;0.6440443;-0.7536739;0.08171745;0.1024931;0;0;0;-51;4061;625;0.4664529;-0.1450052;0.1087292;0.4723458;0.3920288;0.204548;0.4775296;0.8644371;0.2867813;0.47172;1.595263;0.3525305;0.2104237;1.921445;0.3437709;-0.1297155;1.773419;0.3940968;-0.234981;0.8549066;0.3342395;0;0;0;0.7307512;1.925585;0.3437699;1.020817;1.782571;0.3940953;1.067254;0.8232517;0.470415;0.9181077;-0.05329657;0.1429927;0.1542208;-0.1850324;0.09320118;0.3346258;-1.634824;0.1733181;0.2456259;-2.962481;0.3775999;0.1542208;-0.1850324;0.09320118;0.3346258;-1.634824;0.1733181;0.2456259;-2.962481;0.3775999
972409.1178;NotLabelled;NONE;16384;-0.5235457;0.4529086;-0.5395533;-0.4792244;0;-3;-2;74;4004;571;65536;0.6240854;-0.4238227;0.3268698;0.5692521;0;-3;1;-1737;3728;-15;8192;0.5844875;-0.5869669;-0.4279778;-0.3614958;0;-5;1;262;4101;233;32768;0.6167138;-0.5734072;-0.2216066;-0.4916897;-2;-4;-2;1471;3813;560;256;0.1509695;-0.1592798;-0.6578947;-0.7204254;-2;-3;0;-49;4108;-411;128;-0.01108033;0.1523546;0.5415512;0.8266726;2;-1;-2;-627;3787;1780;4;-0.4293629;0.5;-0.4986149;-0.5630547;0;-2;1;-49;4040;-550;16;0.6454294;-0.7625808;-0.03462604;-0.02631579;0;0;0;-61;4018;684;2;0.5180055;-0.5326615;-0.432133;-0.5110803;0;-1;0;-299;4068;-341;8;0.6440443;-0.7534842;0.08171745;0.1038781;0;0;0;-49;4053;595;0.4673841;-0.1458635;0.1114269;0.473277;0.391161;0.2073012;0.4784608;0.8635602;0.2895833;0.4726511;1.594386;0.3553324;0.2113548;1.920568;0.3465731;-0.1287843;1.772543;0.3968995;-0.2340497;0.8540235;0.3371376;0;0;0;0.7316822;1.924708;0.3465715;1.021748;1.781694;0.3968966;1.063579;0.8225775;0.4782588;0.9114914;-0.05418921;0.1527783;0.155152;-0.1858892;0.09589444;0.3355573;-1.63568;0.1760113;0.2465577;-2.963338;0.3802933;0.155152;-0.1858892;0.09589444;0.3355573;-1.63568;0.1760113;0.2465577;-2.963338;0.3802933
972431.061;NotLabelled;NONE;16384;-0.5221606;0.4515235;-0.5408229;-0.4806094;0;-4;-2;110;4044;585;65536;0.6226267;-0.4238227;0.3296399;0.5692521;2;-3;3;-1751;3758;-33;8192;0.5844875;-0.5878176;-0.4279778;-0.3601108;1;-5;0;348;4059;241;32768;0.6154231;-0.5747922;-0.2216066;-0.4916897;-2;-3;0;1409;3757;506;256;0.1509695;-0.1592798;-0.6578947;-0.7204254;-1;-3;0;-1;4032;-411;128;-0.01246537;0.1537396;0.5415512;0.8263964;1;-3;-2;-655;3717;1756;4;-0.4293629;0.4986149;-0.5;-0.5630547;-1;-3;1;-77;4058;-574;16;0.6454294;-0.7626273;-0.03462604;-0.02493075;0;0;0;-119;4062;724;2;0.5180055;-0.5326615;-0.432133;-0.5110803;0;0;0;-347;4076;-395;8;0.6440443;-0.7536739;0.08171745;0.1024931;0;0;0;-15;4039;603;0.4651585;-0.1466665;0.1118249;0.4710548;0.3906717;0.2059234;0.4762415;0.8633404;0.2866436;0.4704348;1.594221;0.3517818;0.20914;1.920397;0.3427479;-0.1310003;1.772415;0.3931953;-0.2371124;0.8538685;0.3353848;0;0;0;0.7294675;1.924535;0.3427469;1.019533;1.781562;0.3931939;1.058996;0.822269;0.4736606;0.9092276;-0.0543685;0.1467595;0.1529258;-0.1867433;0.09643616;0.3330078;-1.636534;0.1772766;0.2431887;-2.964192;0.3811997;0.1529258;-0.1867433;0.09643616;0.3330078;-1.636534;0.1772766;0.2431887;-2.964192;0.3811997
972453.1242;NotLabelled;NONE;16384;-0.5221606;0.4515235;-0.5408229;-0.4806094;0;-4;-2;62;4086;589;65536;0.6238901;-0.4238227;0.3296399;0.567867;2;-3;3;-1795;3712;-43;8192;0.5844875;-0.5888236;-0.4265928;-0.3601108;1;-5;0;312;4029;223;32768;0.6170232;-0.5747922;-0.2202216;-0.4903047;-2;-3;0;1455;3781;514;256;0.1509695;-0.1606648;-0.6578947;-0.7201177;-1;-4;0;45;4076;-421;128;-0.01246537;0.1537396;0.5415512;0.8263964;2;-2;-1;-617;3679;1656;4;-0.4293629;0.4986149;-0.5;-0.5630547;0;-2;1;-15;4088;-550;16;0.6454294;-0.7626273;-0.03462604;-0.02493075;1;0;0;-53;4082;666;2;0.5180055;-0.5326615;-0.432133;-0.5110803;0;-1;0;-357;4062;-363;8;0.6440443;-0.7536739;0.08171745;0.1024931;0;-1;0;-63;4049;625;0.4687819;-0.1448598;0.109625;0.4746784;0.3924904;0.2036554;0.4798652;0.865169;0.2843155;0.4740583;1.59605;0.3494537;0.2127635;1.922226;0.3404195;-0.1273768;1.774244;0.3908666;-0.2335004;0.8556843;0.3332827;0;0;0;0.7330909;1.926363;0.3404189;1.023156;1.783391;0.3908662;1.062674;0.8242846;0.4735028;0.9099599;-0.05256557;0.1485404;0.1565492;-0.1849384;0.09424172;0.3329961;-1.635272;0.1733602;0.2456622;-2.962881;0.3786721;0.1565492;-0.1849384;0.09424172;0.3329961;-1.635272;0.1733602;0.2456622;-2.962881;0.3786721
972473.0469;NotLabelled;NONE;16384;-0.5221606;0.4515235;-0.5408229;-0.4806094;0;-3;-1;100;4040;575;65536;0.6218914;-0.4238227;0.3310249;0.5692521;2;-2;3;-1823;3700;45;8192;0.5844875;-0.5888236;-0.4265928;-0.3601108;0;-4;0;300;4039;247;32768;0.6175158;-0.5747922;-0.2188366;-0.4903047;-1;-3;0;1481;3811;570;256;0.1523546;-0.1606648;-0.6578947;-0.719826;-1;-3;0;67;4004;-447;128;-0.01246537;0.1537396;0.5415512;0.8263964;1;0;-1;-651;3719;1746;4;-0.4279778;0.4986149;-0.5;-0.5641083;0;-3;0;-27;4082;-556;16;0.6454294;-0.7625808;-0.03462604;-0.02631579;0;0;0;-79;4008;684;2;0.5180055;-0.5326615;-0.432133;-0.5110803;0;-2;0;-331;4084;-323;8;0.6440443;-0.7536739;0.08171745;0.1024931;0;-1;0;-67;4049;639;0.4679387;-0.1458712;0.1101765;0.4738351;0.391479;0.2042069;0.479022;0.8641577;0.2848671;0.474615;1.595048;0.3500044;0.2139454;1.921724;0.3409699;-0.1264777;1.774394;0.3914173;-0.2324803;0.855835;0.3336111;0;0;0;0.7342799;1.924865;0.3409692;1.024071;1.781337;0.3914165;1.061379;0.8220673;0.4731733;0.9103507;-0.05465698;0.1470865;0.155706;-0.1859498;0.0947933;0.3319869;-1.636283;0.1742809;0.2442233;-2.963892;0.3794096;0.155706;-0.1859498;0.0947933;0.3319869;-1.636283;0.1742809;0.2442233;-2.963892;0.3794096
972514.0226;NotLabelled;NONE;16384;-0.5221606;0.4515235;-0.5408229;-0.4806094;0;-2;-2;50;3996;623;65536;0.6233595;-0.4224377;0.33241;0.567867;2;-2;3;-1785;3706;-27;8192;0.5844875;-0.5888236;-0.4265928;-0.3601108;0;-4;0;304;4039;247;32768;0.6173232;-0.5761772;-0.2188366;-0.4889196;-1;-2;1;1403;3861;566;256;0.1523546;-0.1620499;-0.6578947;-0.7195154;0;-3;0;11;4006;-423;128;-0.01246537;0.1551246;0.5415512;0.8261375;0;-2;-1;-607;3727;1750;4;-0.4279778;0.4972299;-0.5;-0.5653294;0;-2;1;-21;4056;-572;16;0.6454294;-0.7625808;-0.03462604;-0.02631579;0;0;0;-107;4000;684;2;0.5180055;-0.5326615;-0.432133;-0.5110803;0;-2;0;-375;4128;-333;8;0.6440443;-0.7536739;0.08171745;0.1024931;0;-1;0;-85;4049;611;0.4690124;-0.1440511;0.1088237;0.4749088;0.3932991;0.2028541;0.4800957;0.8659778;0.2835143;0.4742952;1.596913;0.3480359;0.2130037;1.923085;0.3387249;-0.1271384;1.775148;0.3892948;-0.2330298;0.8565884;0.3312851;0;0;0;0.7333311;1.927217;0.3387241;1.023395;1.784284;0.3892937;1.060546;0.8250132;0.4711221;0.9093654;-0.05096006;0.1430954;0.1567796;-0.1841297;0.09344053;0.3361218;-1.633983;0.1748055;0.2454844;-2.961641;0.3783661;0.1567796;-0.1841297;0.09344053;0.3361218;-1.633983;0.1748055;0.2454844;-2.961641;0.3783661
972534.0492;NotLabelled;NONE;16384;-0.5207756;0.4515235;-0.5421566;-0.4806094;0;-2;-2;32;4060;627;65536;0.6233595;-0.4224377;0.33241;0.567867;2;-1;3;-1801;3742;15;8192;0.5858725;-0.5882923;-0.4265928;-0.3587258;0;-4;-1;354;4103;207;32768;0.618613;-0.5747922;-0.2188366;-0.4889196;0;-1;1;1445;3799;564;256;0.1523546;-0.1620499;-0.6578947;-0.7195154;0;-3;0;51;4038;-431;128;-0.01246537;0.1551246;0.5415512;0.8261375;0;-1;-1;-641;3693;1748;4;-0.4279778;0.4972299;-0.5;-0.5653294;0;-3;1;7;4084;-528;16;0.6454294;-0.7625808;-0.03462604;-0.02631579;1;-1;0;-51;4030;678;2;0.5180055;-0.5326615;-0.432133;-0.5110803;0;-2;0;-293;4078;-369;8;0.6440443;-0.7536739;0.08171745;0.1024931;0;-1;0;-61;4043;597;0.4707737;-0.1450238;0.1112478;0.47667;0.3923168;0.2053341;0.4818568;0.8649874;0.2860433;0.4774576;1.595932;0.3505642;0.2167917;1.922603;0.3412531;-0.1236332;1.77532;0.3918235;-0.2292811;0.8567543;0.3334669;0;0;0;0.7371262;1.925739;0.3412517;1.026915;1.782249;0.3918211;1.063723;0.822988;0.4739039;0.912051;-0.05382156;0.1483474;0.158541;-0.185101;0.09586003;0.3390039;-1.635006;0.1737423;0.2479408;-2.962664;0.3771128;0.158541;-0.185101;0.09586003;0.3390039;-1.635006;0.1737423;0.2479408;-2.962664;0.3771128
972555.0482;NotLabelled;NONE;16384;-0.5207756;0.4515235;-0.5421566;-0.4806094;0;-3;-2;46;4020;637;65536;0.6226189;-0.4224377;0.333795;0.567867;2;-2;3;-1773;3738;-39;8192;0.5858725;-0.5892942;-0.4252077;-0.3587258;0;-2;-1;322;4155;199;32768;0.618613;-0.5747922;-0.2188366;-0.4889196;0;-1;1;1463;3863;522;256;0.1523546;-0.1634349;-0.6578947;-0.7192021;0;-3;0;23;4014;-447;128;-0.01246537;0.1551246;0.5415512;0.8261375;1;0;0;-589;3735;1770;4;-0.4279778;0.4972299;-0.501385;-0.5641015;-1;-3;0;21;4044;-512;16;0.6454294;-0.7625808;-0.03462604;-0.02631579;0;-1;0;-73;3994;706;2;0.5180055;-0.5337822;-0.4307479;-0.5110803;0;-2;0;-299;4098;-367;8;0.6440443;-0.7536739;0.08171745;0.1024931;0;-1;0;-35;4069;591;0.471964;-0.1450014;0.1086689;0.4778603;0.3923392;0.2027552;0.4830472;0.8650098;0.2834645;0.4786479;1.595954;0.3479853;0.217982;1.922626;0.3386739;-0.1224429;1.775342;0.3892437;-0.2292814;0.8567533;0.3334665;0;0;0;0.7383164;1.925761;0.3386733;1.028105;1.782272;0.3892431;1.068383;0.8231568;0.4714069;0.9196597;-0.05343819;0.1439163;0.1597314;-0.1850786;0.0932812;0.3401942;-1.634984;0.1711636;0.2491307;-2.962642;0.374534;0.1597314;-0.1850786;0.0932812;0.3401942;-1.634984;0.1711636;0.2491307;-2.962642;0.374534
972575.092;NotLabelled;NONE;16384;-0.5207756;0.4515235;-0.5433813;-0.4792244;0;-3;-2;56;4054;591;65536;0.6218744;-0.4224377;0.33518;0.567867;1;-3;2;-1829;3726;27;8192;0.5858725;-0.5892942;-0.4252077;-0.3587258;0;-1;-1;342;4135;265;32768;0.6180049;-0.5747922;-0.2174515;-0.4903047;0;0;2;1445;3827;576;256;0.1523546;-0.1634349;-0.6578947;-0.7192021;0;-2;0;67;4076;-435;128;-0.01246537;0.1551246;0.5415512;0.8261375;0;0;0;-659;3697;1782;4;-0.4279778;0.4958449;-0.501385;-0.5653193;0;-3;1;-41;4068;-556;16;0.6454294;-0.7626889;-0.033241;-0.02493075;1;-1;0;-115;4032;696;2;0.5180055;-0.5337822;-0.4307479;-0.5110803;0;-2;0;-329;4040;-353;8;0.6440443;-0.7536739;0.08171745;0.1024931;0;0;0;-23;4061;643;0.4710969;-0.1452641;0.1075701;0.4769934;0.3920765;0.2016564;0.4821801;0.864747;0.2823656;0.4791828;1.595699;0.3468857;0.219144;1.92287;0.3375741;-0.1215628;1.776239;0.3881443;-0.2281669;0.8576508;0.3319202;0;0;0;0.7394834;1.925006;0.3375732;1.028997;1.780962;0.3881431;1.066903;0.821681;0.4694969;0.9188657;-0.05491352;0.1416954;0.1588643;-0.1853414;0.09218235;0.3342258;-1.635736;0.1725623;0.2427367;-2.963394;0.3757415;0.1588643;-0.1853414;0.09218235;0.3342258;-1.635736;0.1725623;0.2427367;-2.963394;0.3757415
972596.1599;NotLabelled;NONE;16384;-0.5193906;0.4501385;-0.5446314;-0.4806094;0;-3;-2;68;4038;619;65536;0.6218744;-0.4224377;0.33518;0.567867;1;-2;2;-1833;3750;49;8192;0.5858725;-0.5884488;-0.4252077;-0.3601108;0;-1;-1;312;4077;227;32768;0.6180049;-0.5747922;-0.2174515;-0.4903047;0;0;2;1481;3767;618;256;0.1523546;-0.1634349;-0.6565097;-0.7204666;-1;-1;0;31;4026;-431;128;-0.01246537;0.1551246;0.5415512;0.8261375;0;0;0;-649;3697;1778;4;-0.4279778;0.4958449;-0.501385;-0.5653193;0;-1;0;25;4056;-500;16;0.6454294;-0.7626889;-0.033241;-0.02493075;0;0;0;-59;4004;656;2;0.5180055;-0.5337822;-0.4307479;-0.5110803;0;0;0;-291;4084;-347;8;0.6440443;-0.7536739;0.08171745;0.1024931;0;0;0;-51;4071;609;0.4762044;-0.1446719;0.1050738;0.4821008;0.3926687;0.1991601;0.4872875;0.8653393;0.2798694;0.4842903;1.596291;0.3443892;0.2242515;1.923461;0.3350774;-0.1164553;1.776831;0.3856477;-0.226357;0.8585458;0.3308453;0;0;0;0.7445911;1.925599;0.3350766;1.034104;1.781555;0.3856465;1.072181;0.8222733;0.4669211;0.921597;-0.05294657;0.1366157;0.1639717;-0.1847491;0.08968608;0.3406189;-1.635196;0.1662172;0.2494332;-2.96282;0.3697562;0.1639717;-0.1847491;0.08968608;0.3406189;-1.635196;0.1662172;0.2494332;-2.96282;0.3697562
972616.0532;NotLabelled;NONE;16384;-0.5193906;0.4501385;-0.5446314;-0.4806094;0;-2;-2;108;4062;585;65536;0.6218744;-0.4224377;0.33518;0.567867;1;-2;2;-1845;3724;-3;8192;0.5858725;-0.5884488;-0.4252077;-0.3601108;0;-1;-1;332;4075;273;32768;0.6180049;-0.5747922;-0.2174515;-0.4903047;0;-1;2;1441;3815;588;256;0.1523546;-0.1634349;-0.6565097;-0.7204666;0;0;0;71;4036;-405;128;-0.01246537;0.1551246;0.5415512;0.8261375;0;1;0;-625;3757;1772;4;-0.4279778;0.4958449;-0.501385;-0.5653193;0;0;0;29;4080;-542;16;0.6454294;-0.7626889;-0.033241;-0.02493075;0;0;0;-73;3982;652;2;0.5180055;-0.5337822;-0.4307479;-0.5110803;0;1;0;-227;4052;-367;8;0.6440443;-0.7536739;0.08171745;0.1024931;0;0;0;-81;4065;635;0.4769514;-0.1437573;0.1015011;0.4828478;0.3935833;0.1955874;0.4880344;0.8662539;0.2762966;0.4844257;1.596962;0.3434888;0.2241126;1.923947;0.3353772;-0.1164704;1.776846;0.3854159;-0.2263547;0.8585453;0.3308473;0;0;0;0.7444502;1.92652;0.3353766;1.034085;1.782534;0.3854152;1.072108;0.82307;0.4645235;0.9215217;-0.05214977;0.1342184;0.1647187;-0.1838346;0.08611329;0.3413666;-1.634282;0.1626426;0.2501826;-2.961905;0.3661816;0.1647187;-0.1838346;0.08611329;0.3413666;-1.634282;0.1626426;0.2501826;-2.961905;0.3661816
972636.0595;NotLabelled;NONE;16384;-0.5193906;0.4501385;-0.5446314;-0.4806094;0;-2;-2;152;4128;623;65536;0.6218744;-0.4224377;0.33518;0.567867;1;-1;2;-1847;3718;-43;8192;0.5858725;-0.5884488;-0.4252077;-0.3601108;0;-1;-1;372;4081;267;32768;0.6184905;-0.5747922;-0.2160665;-0.4903047;-1;-1;2;1411;3801;580;256;0.1523546;-0.1634349;-0.6565097;-0.7204666;0;-1;0;71;4048;-505;128;-0.01246537;0.1551246;0.5415512;0.8261375;0;0;0;-627;3679;1734;4;-0.4279778;0.4944598;-0.501385;-0.5665311;0;0;0;-51;4042;-556;16;0.6454294;-0.7626889;-0.033241;-0.02493075;0;0;0;-29;4010;656;2;0.5180055;-0.5337822;-0.4307479;-0.5110803;0;0;0;-335;4126;-377;8;0.6440443;-0.7536739;0.08171745;0.1024931;0;1;1;-59;4025;623;0.4769513;-0.1437573;0.1015006;0.4828477;0.3935833;0.1955869;0.4880343;0.8662539;0.2762962;0.4844257;1.596962;0.3434884;0.2241124;1.923947;0.3353768;-0.1164705;1.776846;0.3854155;-0.2263548;0.8585453;0.3308472;0;0;0;0.74445;1.92652;0.3353761;1.034085;1.782534;0.3854148;1.072108;0.8230705;0.4645234;0.9215217;-0.05214977;0.1342186;0.1647186;-0.1838346;0.08611284;0.3413666;-1.634282;0.1626421;0.2501825;-2.961905;0.3661812;0.1647186;-0.1838346;0.08611284;0.3413666;-1.634282;0.1626421;0.2501825;-2.961905;0.3661812
972657.7503;NotLabelled;NONE;16384;-0.5193906;0.4501385;-0.5446314;-0.4806094;0;-1;-1;132;4058;541;65536;0.6218744;-0.4224377;0.33518;0.567867;1;0;2;-1919;3682;33;8192;0.5858725;-0.5884488;-0.4252077;-0.3601108;0;-1;0;316;4053;273;32768;0.6184905;-0.5747922;-0.2160665;-0.4903047;0;0;2;1453;3809;564;256;0.1523546;-0.1634349;-0.6565097;-0.7204666;0;0;1;15;4008;-407;128;-0.01246537;0.1551246;0.5415512;0.8261375;1;0;-1;-607;3713;1724;4;-0.4279778;0.4944598;-0.501385;-0.5665311;0;0;0;-29;4086;-570;16;0.6454294;-0.7626889;-0.033241;-0.02493075;0;0;0;-61;4070;682;2;0.5180055;-0.5351049;-0.4307479;-0.5096953;0;0;0;-325;4082;-325;8;0.6440443;-0.7536739;0.08171745;0.1024931;0;0;0;-81;4067;657;0.4769513;-0.1437573;0.1015006;0.4828477;0.3935833;0.1955869;0.4880343;0.8662539;0.2762962;0.4844257;1.596962;0.3434884;0.2241124;1.923947;0.3353768;-0.1164705;1.776846;0.3854155;-0.2263548;0.8585453;0.3308472;0;0;0;0.74445;1.92652;0.3353761;1.034085;1.782534;0.3854148;1.072108;0.8230705;0.4645234;0.9207361;-0.05139208;0.1325748;0.1647186;-0.1838346;0.08611284;0.3426305;-1.634326;0.1587947;0.2514464;-2.961949;0.3623337;0.1647186;-0.1838346;0.08611284;0.3426305;-1.634326;0.1587947;0.2514464;-2.961949;0.3623337
972678.1884;NotLabelled;NONE;16384;-0.5193906;0.4501385;-0.5446314;-0.4806094;0;0;0;46;4016;607;65536;0.6211259;-0.4224377;0.3365651;0.567867;0;0;1;-1919;3668;9;8192;0.5858725;-0.5884488;-0.4252077;-0.3601108;0;-1;-1;290;4057;265;32768;0.6184905;-0.5747922;-0.2160665;-0.4903047;0;0;1;1435;3785;568;256;0.1523546;-0.1648199;-0.6565097;-0.720151;0;0;0;53;4054;-407;128;-0.01246537;0.1551246;0.5415512;0.8261375;0;0;0;-581;3703;1702;4;-0.4279778;0.4944598;-0.501385;-0.5665311;0;-1;0;-37;4038;-532;16;0.6454294;-0.7626889;-0.033241;-0.02493075;0;0;0;-45;4030;686;2;0.5180055;-0.5351049;-0.4307479;-0.5096953;0;0;0;-363;4106;-399;8;0.6440443;-0.7536739;0.08171745;0.1024931;0;0;0;-17;4073;647;0.4769513;-0.1437573;0.1015006;0.4828477;0.3935833;0.1955869;0.4880343;0.8662539;0.2762962;0.4844257;1.596962;0.3434884;0.2241124;1.923947;0.3353768;-0.1164705;1.776846;0.3854155;-0.2263548;0.8585453;0.3308472;0;0;0;0.74445;1.92652;0.3353761;1.034085;1.782534;0.3854148;1.072108;0.8230705;0.4645234;0.9207361;-0.05139208;0.1325748;0.1647186;-0.1838346;0.08611284;0.3426305;-1.634326;0.1587947;0.2514464;-2.961949;0.3623337;0.1647186;-0.1838346;0.08611284;0.3426305;-1.634326;0.1587947;0.2514464;-2.961949;0.3623337
972700.0397;NotLabelled;NONE;16384;-0.5193906;0.4501385;-0.5458505;-0.4792244;0;0;0;66;3984;597;65536;0.6211259;-0.4224377;0.3365651;0.567867;0;0;0;-1875;3738;39;8192;0.5858725;-0.5902911;-0.4238227;-0.3587258;0;-1;0;342;4117;221;32768;0.6184905;-0.5747922;-0.2160665;-0.4903047;0;0;0;1453;3807;608;256;0.1523546;-0.1648199;-0.6565097;-0.720151;0;0;0;47;4018;-417;128;-0.01108033;0.1551246;0.5415512;0.8261573;0;1;0;-633;3723;1758;4;-0.4279778;0.4944598;-0.501385;-0.5665311;0;-2;0;-91;4058;-498;16;0.6454294;-0.7626889;-0.033241;-0.02493075;0;0;0;-103;4018;714;2;0.5180055;-0.5337822;-0.4307479;-0.5110803;1;0;0;-361;4072;-417;8;0.6440443;-0.7536739;0.08171745;0.1024931;0;0;0;-21;4013;593;0.4762076;-0.144022;0.1001758;0.482104;0.3933187;0.1942621;0.4872907;0.8659892;0.2749714;0.4850812;1.596704;0.342163;0.2253946;1.924186;0.3340512;-0.1154694;1.777738;0.3840899;-0.2252391;0.859437;0.3292912;0;0;0;0.7457362;1.925762;0.3340506;1.035095;1.781222;0.3840894;1.072952;0.8217583;0.4632776;0.922277;-0.05270386;0.1310118;0.1639749;-0.1840992;0.08478803;0.3417339;-1.63459;0.1578431;0.2501228;-2.962214;0.3611904;0.1639749;-0.1840992;0.08478803;0.3417339;-1.63459;0.1578431;0.2501228;-2.962214;0.3611904
972720.0525;NotLabelled;NONE;16384;-0.5193906;0.4501385;-0.5458505;-0.4792244;0;0;0;32;4018;571;65536;0.6218744;-0.4224377;0.33518;0.567867;0;0;0;-1903;3728;15;8192;0.5858725;-0.5894471;-0.4238227;-0.3601108;0;0;-1;310;4093;229;32768;0.6184905;-0.5747922;-0.2160665;-0.4903047;0;0;0;1357;3813;598;256;0.1523546;-0.1648199;-0.6565097;-0.720151;0;0;0;83;4040;-429;128;-0.01108033;0.1551246;0.5415512;0.8261573;0;1;0;-611;3711;1736;4;-0.4279778;0.4930748;-0.5027701;-0.5665109;0;-3;0;-47;4020;-520;16;0.6454294;-0.7626889;-0.033241;-0.02493075;0;0;0;-109;4034;692;2;0.5180055;-0.5337822;-0.4307479;-0.5110803;0;0;0;-335;4096;-347;8;0.6440443;-0.7536739;0.08171745;0.1024931;0;0;0;-31;4057;653;0.4793797;-0.1442952;0.09874514;0.4852758;0.3930235;0.1929562;0.4904624;0.8656745;0.2737753;0.4882528;1.596389;0.340967;0.2285662;1.923872;0.3328551;-0.1122978;1.777424;0.3828939;-0.225239;0.859437;0.3292914;0;0;0;0.7489079;1.925448;0.3328545;1.038266;1.780909;0.3828934;1.074149;0.8214674;0.4632704;0.9234744;-0.0529952;0.1310047;0.1671471;-0.1843686;0.08334727;0.344906;-1.63486;0.1564024;0.2532947;-2.962483;0.3597496;0.1671471;-0.1843686;0.08334727;0.344906;-1.63486;0.1564024;0.2532947;-2.962483;0.3597496
972742.0558;NotLabelled;NONE;16384;-0.5193906;0.4501385;-0.5458505;-0.4792244;0;0;0;94;4040;587;65536;0.622813;-0.4210526;0.33518;0.567867;0;1;0;-1839;3670;51;8192;0.5858725;-0.5894471;-0.4238227;-0.3601108;0;0;0;384;4095;213;32768;0.6184905;-0.5747922;-0.2160665;-0.4903047;0;0;0;1391;3763;588;256;0.1523546;-0.1648199;-0.6565097;-0.720151;0;1;0;55;4052;-467;128;-0.01108033;0.1551246;0.5415512;0.8261573;0;1;0;-633;3729;1682;4;-0.4265928;0.4930748;-0.5027701;-0.5675545;-1;-3;0;-19;4104;-554;16;0.6454294;-0.7626889;-0.033241;-0.02493075;0;0;0;-85;4004;672;2;0.5193906;-0.5324346;-0.4307479;-0.5110803;0;0;0;-345;4112;-387;8;0.6440443;-0.7536739;0.08171745;0.1024931;0;0;0;-65;4079;563;0.4775702;-0.1451864;0.0998247;0.4834663;0.3921323;0.1940358;0.4886529;0.8647833;0.2748549;0.4864433;1.595498;0.3420466;0.2267568;1.922981;0.3339347;-0.1141072;1.776533;0.3839734;-0.2270487;0.8585453;0.3303713;0;0;0;0.7470984;1.924557;0.3339341;1.036457;1.780018;0.3839729;1.072286;0.820395;0.4621831;0.9216121;-0.05406713;0.1299173;0.1653376;-0.1852598;0.08442684;0.3394161;-1.636282;0.1557665;0.2478049;-2.963906;0.3591138;0.1653376;-0.1852598;0.08442684;0.3394161;-1.636282;0.1557665;0.2478049;-2.963906;0.3591138
