SEP=;
index;label;segment;RightUpperArm_boneIndex;RightUpperArm_quat9x_w;RightUpperArm_quat9x_x;RightUpperArm_quat9x_y;RightUpperArm_quat9x_z;RightUpperArm_gyroscope_x;RightUpperArm_gyroscope_y;RightUpperArm_gyroscope_z;RightUpperArm_accelerometer_x;RightUpperArm_accelerometer_y;RightUpperArm_accelerometer_z;RightLowerArm_boneIndex;RightLowerArm_quat9x_w;RightLowerArm_quat9x_x;RightLowerArm_quat9x_y;RightLowerArm_quat9x_z;RightLowerArm_gyroscope_x;RightLowerArm_gyroscope_y;RightLowerArm_gyroscope_z;RightLowerArm_accelerometer_x;RightLowerArm_accelerometer_y;RightLowerArm_accelerometer_z;LeftUpperArm_boneIndex;LeftUpperArm_quat9x_w;LeftUpperArm_quat9x_x;LeftUpperArm_quat9x_y;LeftUpperArm_quat9x_z;LeftUpperArm_gyroscope_x;LeftUpperArm_gyroscope_y;LeftUpperArm_gyroscope_z;LeftUpperArm_accelerometer_x;LeftUpperArm_accelerometer_y;LeftUpperArm_accelerometer_z;LeftLowerArm_boneIndex;LeftLowerArm_quat9x_w;LeftLowerArm_quat9x_x;LeftLowerArm_quat9x_y;LeftLowerArm_quat9x_z;LeftLowerArm_gyroscope_x;LeftLowerArm_gyroscope_y;LeftLowerArm_gyroscope_z;LeftLowerArm_accelerometer_x;LeftLowerArm_accelerometer_y;LeftLowerArm_accelerometer_z;Chest_boneIndex;Chest_quat9x_w;Chest_quat9x_x;Chest_quat9x_y;Chest_quat9x_z;Chest_gyroscope_x;Chest_gyroscope_y;Chest_gyroscope_z;Chest_accelerometer_x;Chest_accelerometer_y;Chest_accelerometer_z;Spine_boneIndex;Spine_quat9x_w;Spine_quat9x_x;Spine_quat9x_y;Spine_quat9x_z;Spine_gyroscope_x;Spine_gyroscope_y;Spine_gyroscope_z;Spine_accelerometer_x;Spine_accelerometer_y;Spine_accelerometer_z;RightUpperLeg_boneIndex;RightUpperLeg_quat9x_w;RightUpperLeg_quat9x_x;RightUpperLeg_quat9x_y;RightUpperLeg_quat9x_z;RightUpperLeg_gyroscope_x;RightUpperLeg_gyroscope_y;RightUpperLeg_gyroscope_z;RightUpperLeg_accelerometer_x;RightUpperLeg_accelerometer_y;RightUpperLeg_accelerometer_z;RightLowerLeg_boneIndex;RightLowerLeg_quat9x_w;RightLowerLeg_quat9x_x;RightLowerLeg_quat9x_y;RightLowerLeg_quat9x_z;RightLowerLeg_gyroscope_x;RightLowerLeg_gyroscope_y;RightLowerLeg_gyroscope_z;RightLowerLeg_accelerometer_x;RightLowerLeg_accelerometer_y;RightLowerLeg_accelerometer_z;LeftUpperLeg_boneIndex;LeftUpperLeg_quat9x_w;LeftUpperLeg_quat9x_x;LeftUpperLeg_quat9x_y;LeftUpperLeg_quat9x_z;LeftUpperLeg_gyroscope_x;LeftUpperLeg_gyroscope_y;LeftUpperLeg_gyroscope_z;LeftUpperLeg_accelerometer_x;LeftUpperLeg_accelerometer_y;LeftUpperLeg_accelerometer_z;LeftLowerLeg_boneIndex;LeftLowerLeg_quat9x_w;LeftLowerLeg_quat9x_x;LeftLowerLeg_quat9x_y;LeftLowerLeg_quat9x_z;LeftLowerLeg_gyroscope_x;LeftLowerLeg_gyroscope_y;LeftLowerLeg_gyroscope_z;LeftLowerLeg_accelerometer_x;LeftLowerLeg_accelerometer_y;LeftLowerLeg_accelerometer_z;pelvis_x;pelvis_y;pelvis_z;lowerSpine_x;lowerSpine_y;lowerSpine_z;middleSpine_x;middleSpine_y;middleSpine_z;upperSpine_x;upperSpine_y;upperSpine_z;rightClavicle_x;rightClavicle_y;rightClavicle_z;rightShoulder_x;rightShoulder_y;rightShoulder_z;rightElbow_x;rightElbow_y;rightElbow_z;rightWrist_x;rightWrist_y;rightWrist_z;leftClavicle_x;leftClavicle_y;leftClavicle_z;leftShoulder_x;leftShoulder_y;leftShoulder_z;leftElbow_x;leftElbow_y;leftElbow_z;leftWrist_x;leftWrist_y;leftWrist_z;rightHip_x;rightHip_y;rightHip_z;rightKnee_x;rightKnee_y;rightKnee_z;rightAnkle_x;rightAnkle_y;rightAnkle_z;leftHip_x;leftHip_y;leftHip_z;leftKnee_x;leftKnee_y;leftKnee_z;leftAnkle_x;leftAnkle_y;leftAnkle_z;
155325.4898;NotLabelled;NONE;16384;0.8626485;0.2576177;0.2936288;0.3213296;0;0;2;2890;-1006;2701;65536;0.874671;0.3407202;-0.2409972;0.2465374;0;0;0;-1145;-2978;-2621;8192;0.8381024;0.2839335;-0.3795014;-0.2700831;0;-1;0;-2766;-1083;2775;32768;0.9160383;0.3781163;-0.1191136;-0.06094183;0;0;-1;927;-2797;-2888;256;0.01385042;0.02770083;-0.5457063;-0.837404;0;0;0;-243;3754;-1701;128;0.06094183;-0.01385042;0.5055401;0.8605368;0;1;0;-387;3623;2030;4;0.5110803;-0.5665497;0.4584487;0.4556787;0;0;0;-171;4086;-226;16;0.5969529;-0.7621177;-0.1246537;-0.2174515;0;0;0;287;3928;1020;2;0.4930748;-0.4598338;-0.5083103;-0.5357713;0;0;0;-291;4104;-9;8;0.6371191;-0.7674205;-0.07063711;0.01246537;0;0;0;-519;4001;743;0.4771788;2.795391;-0.3374116;0.4829831;3.32435;-0.2040331;0.4880906;3.7898;-0.08875498;0.4522369;4.459896;0.208143;0.1771513;4.759313;0.3052273;-0.1554501;4.587515;0.3062369;-0.7979054;4.823954;-0.3180035;-0.5770729;5.501255;-0.9427392;0.6967519;4.787117;0.3052275;0.9934755;4.648994;0.3062376;1.736824;4.906681;-0.2499149;1.966848;5.549257;-0.9071609;0.1649598;2.756564;-0.3559589;0.2376043;1.29791;-0.2670239;0;0;0;0.1649598;2.756564;-0.3559589;0.2376043;1.29791;-0.2670239;0;0;0
155345.5037;NotLabelled;NONE;16384;0.8626485;0.2576177;0.2936288;0.3213296;0;1;1;2830;-1122;2725;65536;0.874671;0.3407202;-0.2409972;0.2465374;-1;1;0;-1143;-2886;-2683;8192;0.8381024;0.2839335;-0.3795014;-0.2700831;0;0;0;-2732;-1043;2707;32768;0.9160383;0.3781163;-0.1191136;-0.06094183;0;0;-1;915;-2789;-2950;256;0.01385042;0.02770083;-0.5457063;-0.837404;0;0;1;-159;3750;-1683;128;0.06094183;-0.01385042;0.5055401;0.8605368;0;1;0;-363;3619;1978;4;0.5096953;-0.5677961;0.4584487;0.4556787;0;0;0;-193;4058;-200;16;0.5969529;-0.7621177;-0.1246537;-0.2174515;0;0;0;293;3900;1054;2;0.4930748;-0.4598338;-0.5083103;-0.5357713;0;0;0;-237;4138;21;8;0.6371191;-0.7674205;-0.07063711;0.01246537;0;0;0;-575;4025;719;0.4771788;2.795391;-0.3374116;0.4829831;3.32435;-0.2040331;0.4880906;3.7898;-0.08875498;0.4522369;4.459896;0.208143;0.1771513;4.759313;0.3052273;-0.1554501;4.587515;0.3062369;-0.7979054;4.823954;-0.3180035;-0.5770729;5.501255;-0.9427392;0.6967519;4.787117;0.3052275;0.9934755;4.648994;0.3062376;1.736824;4.906681;-0.2499149;1.966848;5.549257;-0.9071609;0.1649598;2.756564;-0.3559589;0.2376043;1.29791;-0.2670239;0;0;0;0.1649598;2.756564;-0.3559589;0.2376043;1.29791;-0.2670239;0;0;0
155365.5658;NotLabelled;NONE;16384;0.8631632;0.2576177;0.2936288;0.3199446;0;1;1;2822;-1132;2717;65536;0.874671;0.3407202;-0.2409972;0.2465374;0;1;0;-1109;-2858;-2675;8192;0.8381024;0.2839335;-0.3795014;-0.2700831;0;0;0;-2786;-1183;2707;32768;0.9160383;0.3781163;-0.1191136;-0.06094183;1;1;-1;839;-2809;-2882;256;0.01385042;0.02770083;-0.5457063;-0.837404;0;0;0;-191;3720;-1723;128;0.06094183;-0.01385042;0.5055401;0.8605368;0;1;0;-359;3641;2002;4;0.5096953;-0.5677961;0.4584487;0.4556787;0;0;0;-181;4092;-220;16;0.5969529;-0.7621177;-0.1246537;-0.2174515;0;0;0;253;3946;1036;2;0.4930748;-0.4598338;-0.5083103;-0.5357713;0;0;0;-235;4084;-19;8;0.6371191;-0.7674205;-0.07063711;0.01246537;0;0;-1;-509;4075;697;0.473531;2.794954;-0.341437;0.4793354;3.323913;-0.2080586;0.4844429;3.789362;-0.09278043;0.4485893;4.459458;0.2041175;0.1735037;4.758875;0.3012018;-0.1590977;4.587078;0.3022115;-0.8015538;4.823517;-0.3220284;-0.5807214;5.500817;-0.9467642;0.6931041;4.78668;0.3012019;0.989828;4.648557;0.302212;1.733176;4.906243;-0.2539411;1.963199;5.548819;-0.9111873;0.161312;2.756127;-0.3599844;0.2376045;1.29791;-0.2670242;0;0;0;0.161312;2.756127;-0.3599844;0.2376045;1.29791;-0.2670242;0;0;0
155385.4969;NotLabelled;NONE;16384;0.8631632;0.2576177;0.2936288;0.3199446;0;0;1;2768;-1112;2721;65536;0.8750602;0.3407202;-0.2409972;0.2451524;0;1;-1;-1139;-2918;-2623;8192;0.8381024;0.2839335;-0.3795014;-0.2700831;0;1;0;-2732;-1097;2787;32768;0.915284;0.3795014;-0.1204986;-0.06094183;1;0;-1;875;-2787;-2904;256;0.01385042;0.02631579;-0.5457063;-0.8374487;0;0;0;-217;3782;-1677;128;0.06232687;-0.01385042;0.5055401;0.8604375;0;0;0;-387;3563;2004;4;0.5096953;-0.5677961;0.4584487;0.4556787;0;0;0;-201;4072;-188;16;0.5969529;-0.7621177;-0.1246537;-0.2174515;0;0;0;279;3890;1080;2;0.4930748;-0.4598338;-0.5083103;-0.5357713;0;0;0;-247;4142;19;8;0.6371191;-0.7674205;-0.07063711;0.01246537;0;0;0;-533;4035;691;0.4735311;2.794953;-0.3414365;0.4793355;3.323913;-0.208058;0.4844429;3.789362;-0.0927799;0.4485893;4.459458;0.2041181;0.1735036;4.758875;0.3012024;-0.1590977;4.587078;0.302212;-0.8011739;4.824516;-0.32204;-0.5803412;5.501815;-0.9467754;0.6931042;4.78668;0.3012026;0.9898279;4.648557;0.3022127;1.733176;4.906244;-0.2539398;1.9632;5.54882;-0.9111857;0.1613121;2.756126;-0.3599838;0.2376045;1.297909;-0.2670238;0;0;0;0.1613121;2.756126;-0.3599838;0.2376045;1.297909;-0.2670238;0;0;0
155406.5127;NotLabelled;NONE;16384;0.8631632;0.2576177;0.2936288;0.3199446;0;0;0;2846;-1044;2747;65536;0.8746776;0.3407202;-0.2423823;0.2451524;-1;1;0;-1123;-2888;-2719;8192;0.8381024;0.2839335;-0.3795014;-0.2700831;0;0;1;-2792;-1095;2759;32768;0.915284;0.3795014;-0.1204986;-0.06094183;1;0;-1;903;-2815;-2856;256;0.01385042;0.02631579;-0.5457063;-0.8374487;0;0;0;-161;3732;-1679;128;0.06232687;-0.01385042;0.5055401;0.8604375;0;1;0;-351;3577;2012;4;0.5096953;-0.5677961;0.4584487;0.4556787;0;0;0;-155;4076;-232;16;0.5969529;-0.7625116;-0.1246537;-0.2160665;0;0;0;255;3892;1068;2;0.4930748;-0.4598338;-0.5083103;-0.5357713;0;0;0;-191;4078;73;8;0.6371191;-0.7674205;-0.07063711;0.01246537;0;0;0;-497;4019;691;0.4743675;2.794958;-0.3410719;0.4801724;3.323954;-0.2078365;0.4852802;3.789434;-0.09268409;0.4504396;4.459595;0.2041902;0.1758071;4.75943;0.3012633;-0.1570538;4.588136;0.3022785;-0.7976885;4.825574;-0.3234526;-0.5743332;5.502492;-0.9477047;0.695449;4.786449;0.3012636;0.9919636;4.647877;0.3022792;1.736593;4.905563;-0.2521577;1.97061;5.549842;-0.9063202;0.1621486;2.756126;-0.359608;0.2382246;1.297909;-0.2664708;0;0;0;0.1621486;2.756126;-0.359608;0.2382246;1.297909;-0.2664708;0;0;0
155426.6265;NotLabelled;NONE;16384;0.8631632;0.2576177;0.2936288;0.3199446;0;1;1;2848;-1074;2679;65536;0.8746776;0.3407202;-0.2423823;0.2451524;-1;2;0;-1123;-3026;-2627;8192;0.8381024;0.2839335;-0.3795014;-0.2700831;0;0;0;-2764;-1115;2771;32768;0.9151908;0.3795014;-0.1204986;-0.06232687;1;0;-1;913;-2855;-2890;256;0.01385042;0.02631579;-0.5457063;-0.8374487;0;0;0;-219;3768;-1667;128;0.06232687;-0.01385042;0.5055401;0.8604375;0;0;0;-355;3607;2030;4;0.5096953;-0.5677961;0.4584487;0.4556787;0;0;0;-173;4066;-270;16;0.5969529;-0.7625116;-0.1246537;-0.2160665;0;0;0;275;3972;994;2;0.4930748;-0.4598338;-0.5083103;-0.5357713;0;0;0;-253;4104;67;8;0.6371191;-0.7674205;-0.07063711;0.01246537;0;0;0;-513;3971;707;0.4717087;2.795127;-0.3426122;0.4775135;3.324123;-0.2093767;0.4826213;3.789603;-0.09422436;0.4477807;4.459763;0.20265;0.1731482;4.759599;0.2997231;-0.1597127;4.588304;0.3007382;-0.8003364;4.825743;-0.325004;-0.5748238;5.503057;-0.9480495;0.6927903;4.786618;0.2997233;0.9893046;4.648045;0.300739;1.733943;4.905732;-0.2536847;1.967961;5.550011;-0.907847;0.1594896;2.756295;-0.3611482;0.2355656;1.298078;-0.2680111;0;0;0;0.1594896;2.756295;-0.3611482;0.2355656;1.298078;-0.2680111;0;0;0
155447.487;NotLabelled;NONE;16384;0.8636753;0.2576177;0.2936288;0.3185596;-1;1;2;2834;-1076;2767;65536;0.8750646;0.3407202;-0.2423823;0.2437673;-1;2;0;-985;-2916;-2721;8192;0.8381024;0.2839335;-0.3795014;-0.2700831;0;0;1;-2736;-1089;2811;32768;0.9146152;0.3808864;-0.1204986;-0.06232687;1;0;-1;931;-2829;-2880;256;0.01385042;0.02631579;-0.5457063;-0.8374487;0;0;0;-223;3762;-1671;128;0.06232687;-0.01385042;0.5055401;0.8604375;0;0;0;-355;3617;1992;4;0.5096953;-0.5677961;0.4584487;0.4556787;0;0;0;-175;4090;-254;16;0.5969529;-0.7625116;-0.1246537;-0.2160665;0;0;0;279;3888;1000;2;0.4930748;-0.4598338;-0.5083103;-0.5357713;0;0;0;-207;4124;27;8;0.6371191;-0.7674205;-0.07063711;0.01246537;0;0;0;-527;4017;725;0.4717087;2.795127;-0.3426122;0.4775135;3.324123;-0.2093767;0.4826213;3.789603;-0.09422436;0.4477807;4.459763;0.20265;0.1731482;4.759599;0.2997231;-0.1597127;4.588304;0.3007382;-0.8003364;4.825743;-0.325004;-0.5748238;5.503057;-0.9480495;0.6927903;4.786618;0.2997233;0.9893046;4.648045;0.300739;1.733943;4.905732;-0.2536847;1.968935;5.549627;-0.9078761;0.1594896;2.756295;-0.3611482;0.2355656;1.298078;-0.2680111;0;0;0;0.1594896;2.756295;-0.3611482;0.2355656;1.298078;-0.2680111;0;0;0
155467.5015;NotLabelled;NONE;16384;0.8636753;0.2576177;0.2936288;0.3185596;0;1;0;2908;-1088;2753;65536;0.8750646;0.3407202;-0.2423823;0.2437673;-1;2;0;-1033;-2938;-2685;8192;0.8381024;0.2839335;-0.3795014;-0.2700831;0;0;0;-2750;-1097;2789;32768;0.9146152;0.3808864;-0.1204986;-0.06232687;0;0;0;757;-2781;-2844;256;0.01385042;0.02631579;-0.5457063;-0.8374487;0;0;0;-223;3742;-1699;128;0.06232687;-0.01385042;0.5055401;0.8604375;0;0;0;-381;3613;1966;4;0.5096953;-0.5677961;0.4584487;0.4556787;0;0;0;-229;4100;-248;16;0.5969529;-0.7625116;-0.1246537;-0.2160665;0;0;0;313;3942;1044;2;0.4930748;-0.4598338;-0.5083103;-0.5357713;-1;0;0;-207;4108;15;8;0.6371191;-0.7674205;-0.07063711;0.01246537;0;0;0;-463;4007;743;0.4717087;2.795127;-0.3426122;0.4775135;3.324123;-0.2093767;0.4826213;3.789603;-0.09422436;0.4477807;4.459763;0.20265;0.1731482;4.759599;0.2997231;-0.1597127;4.588304;0.3007382;-0.7999554;4.82674;-0.3250147;-0.5733717;5.503668;-0.948091;0.6927903;4.786618;0.2997233;0.9893046;4.648045;0.300739;1.733943;4.905732;-0.2536847;1.969025;5.551613;-0.9058815;0.1594896;2.756295;-0.3611482;0.2355656;1.298078;-0.2680111;0;0;0;0.1594896;2.756295;-0.3611482;0.2355656;1.298078;-0.2680111;0;0;0
155488.5942;NotLabelled;NONE;16384;0.8632609;0.2590028;0.2936288;0.3185596;-1;0;1;2848;-1118;2677;65536;0.8750646;0.3407202;-0.2423823;0.2437673;0;1;0;-1043;-2934;-2693;8192;0.8381024;0.2839335;-0.3795014;-0.2700831;0;0;0;-2780;-1101;2761;32768;0.9146152;0.3808864;-0.1204986;-0.06232687;1;0;-1;965;-2845;-2884;256;0.01385042;0.02631579;-0.5457063;-0.8374487;0;0;0;-197;3798;-1679;128;0.06232687;-0.01385042;0.5055401;0.8604375;0;0;0;-385;3591;2038;4;0.5096953;-0.5677961;0.4584487;0.4556787;0;0;0;-175;4106;-148;16;0.5969529;-0.7625116;-0.1246537;-0.2160665;0;0;0;257;3930;1028;2;0.4930748;-0.4598338;-0.5083103;-0.5357713;0;0;0;-169;4158;-19;8;0.6371191;-0.7674205;-0.07063711;0.01246537;0;0;0;-569;4051;681;0.4717087;2.795127;-0.3426122;0.4775135;3.324123;-0.2093767;0.4826213;3.789603;-0.09422436;0.4477807;4.459763;0.20265;0.1731482;4.759599;0.2997231;-0.1597127;4.588304;0.3007382;-0.7999554;4.82674;-0.3250147;-0.5733717;5.503668;-0.948091;0.6927903;4.786618;0.2997233;0.9893046;4.648045;0.300739;1.733943;4.905732;-0.2536847;1.969025;5.551613;-0.9058815;0.1594896;2.756295;-0.3611482;0.2355656;1.298078;-0.2680111;0;0;0;0.1594896;2.756295;-0.3611482;0.2355656;1.298078;-0.2680111;0;0;0
155509.4905;NotLabelled;NONE;16384;0.8637708;0.2590028;0.2936288;0.3171745;0;0;1;2852;-1092;2707;65536;0.8750646;0.3407202;-0.2423823;0.2437673;0;1;0;-1049;-2948;-2687;8192;0.8376548;0.2839335;-0.3795014;-0.2714681;-1;0;0;-2792;-1097;2821;32768;0.9146152;0.3808864;-0.1204986;-0.06232687;0;0;0;915;-2837;-2816;256;0.01385042;0.02631579;-0.5457063;-0.8374487;0;0;0;-197;3750;-1673;128;0.06232687;-0.01385042;0.5055401;0.8604375;0;0;0;-359;3641;2014;4;0.5096953;-0.5677961;0.4584487;0.4556787;0;0;0;-181;4040;-234;16;0.5969529;-0.7625116;-0.1246537;-0.2160665;0;0;0;267;3918;1060;2;0.4930748;-0.4598338;-0.5083103;-0.5357713;0;0;0;-239;4124;17;8;0.6371191;-0.7674205;-0.07063711;0.01246537;0;0;0;-517;4007;689;0.4717087;2.795127;-0.3426122;0.4775135;3.324123;-0.2093767;0.4826213;3.789603;-0.09422436;0.4477807;4.459763;0.20265;0.1731482;4.759599;0.2997231;-0.1597127;4.588304;0.3007382;-0.8005098;4.828758;-0.3236737;-0.573926;5.505687;-0.9467497;0.6927903;4.786618;0.2997233;0.9893046;4.648045;0.300739;1.733943;4.905732;-0.2536847;1.969025;5.551613;-0.9058815;0.1594896;2.756295;-0.3611482;0.2355656;1.298078;-0.2680111;0;0;0;0.1594896;2.756295;-0.3611482;0.2355656;1.298078;-0.2680111;0;0;0
155529.4888;NotLabelled;NONE;16384;0.8637708;0.2590028;0.2936288;0.3171745;-1;0;1;2840;-1056;2735;65536;0.8754492;0.3407202;-0.2423823;0.2423823;0;0;0;-1001;-2986;-2685;8192;0.8381024;0.2839335;-0.3795014;-0.2700831;0;0;0;-2770;-1085;2763;32768;0.9144317;0.3808864;-0.1218837;-0.06232687;0;0;0;959;-2827;-2872;256;0.01385042;0.02631579;-0.5457063;-0.8374487;0;0;0;-193;3772;-1713;128;0.06232687;-0.01385042;0.5055401;0.8604375;0;0;0;-331;3651;2006;4;0.5096953;-0.5677961;0.4584487;0.4556787;0;0;0;-195;4080;-216;16;0.5969529;-0.7625116;-0.1246537;-0.2160665;0;0;0;283;3920;1008;2;0.4930748;-0.4598338;-0.5083103;-0.5357713;0;0;0;-183;4098;41;8;0.6371191;-0.7673967;-0.07063711;0.01385042;0;0;0;-555;3987;733;0.4717087;2.795127;-0.3426122;0.4775135;3.324123;-0.2093767;0.4826213;3.789603;-0.09422436;0.4477807;4.459763;0.20265;0.1731482;4.759599;0.2997231;-0.1597127;4.588304;0.3007382;-0.800124;4.829755;-0.3236844;-0.5735404;5.506684;-0.9467605;0.6927903;4.786618;0.2997233;0.9893046;4.648045;0.300739;1.734364;4.904478;-0.2537013;1.969445;5.550359;-0.9058981;0.1594896;2.756295;-0.3611482;0.2355656;1.298078;-0.2680111;0;0;0;0.1594896;2.756295;-0.3611482;0.2355656;1.298078;-0.2680111;0;0;0
155549.4974;NotLabelled;NONE;16384;0.8637708;0.2590028;0.2936288;0.3171745;-1;0;1;2904;-1068;2727;65536;0.8754492;0.3407202;-0.2423823;0.2423823;0;1;0;-1119;-2920;-2675;8192;0.8381024;0.2839335;-0.3795014;-0.2700831;0;0;0;-2736;-1045;2747;32768;0.9144317;0.3808864;-0.1218837;-0.06232687;0;0;0;903;-2891;-2850;256;0.01385042;0.02631579;-0.5457063;-0.8374487;0;0;0;-123;3754;-1721;128;0.06232687;-0.01385042;0.5055401;0.8604375;0;1;0;-377;3591;2030;4;0.5096953;-0.5666818;0.4584487;0.4570637;0;0;0;-191;4074;-200;16;0.5969529;-0.7625116;-0.1246537;-0.2160665;0;0;0;307;3974;880;2;0.4930748;-0.4598338;-0.5083103;-0.5357713;0;0;0;-229;4116;73;8;0.6371191;-0.7673967;-0.07063711;0.01385042;0;0;0;-537;4021;733;0.4717087;2.795127;-0.3426122;0.4775135;3.324123;-0.2093767;0.4826213;3.789603;-0.09422436;0.4477807;4.459763;0.20265;0.1731482;4.759599;0.2997231;-0.1597127;4.588304;0.3007382;-0.800124;4.829755;-0.3236844;-0.5724699;5.506297;-0.9467918;0.6927903;4.786618;0.2997233;0.9893046;4.648045;0.300739;1.733943;4.905732;-0.2536847;1.971401;5.551318;-0.9053138;0.1594896;2.756295;-0.3611482;0.2355656;1.298078;-0.2680111;0;0;0;0.1594896;2.756295;-0.3611482;0.2355656;1.298078;-0.2680111;0;0;0
155570.5009;NotLabelled;NONE;16384;0.8642404;0.2590028;0.2922437;0.3171745;-1;0;1;2852;-1120;2719;65536;0.8754492;0.3407202;-0.2423823;0.2423823;0;0;0;-1001;-2936;-2671;8192;0.8381024;0.2839335;-0.3795014;-0.2700831;0;0;0;-2718;-1129;2771;32768;0.9144317;0.3808864;-0.1218837;-0.06232687;0;-1;0;945;-2865;-2866;256;0.01385042;0.02631579;-0.5443213;-0.8383495;0;0;0;-179;3768;-1697;128;0.06232687;-0.01246537;0.5055401;0.8604587;0;0;0;-401;3613;2052;4;0.5096953;-0.5666818;0.4584487;0.4570637;0;0;0;-207;4036;-264;16;0.5969529;-0.7625116;-0.1246537;-0.2160665;1;0;0;257;3914;1036;2;0.4930748;-0.4598338;-0.5083103;-0.5357713;0;0;0;-215;4070;59;8;0.6371191;-0.7673967;-0.07063711;0.01385042;0;0;0;-505;3999;723;0.4710051;2.795323;-0.3388909;0.4768099;3.324318;-0.2056554;0.4819178;3.789799;-0.09050302;0.4470772;4.459959;0.2063713;0.1724446;4.759795;0.3034444;-0.1604162;4.5885;0.3044595;-0.8008276;4.829951;-0.319963;-0.5731735;5.506493;-0.9430704;0.6920866;4.786814;0.3034446;0.9886011;4.648241;0.3044603;1.73324;4.905928;-0.2499633;1.970698;5.551514;-0.9015924;0.1587861;2.756491;-0.3574269;0.2355655;1.298078;-0.2680111;0;0;0;0.1587861;2.756491;-0.3574269;0.2355655;1.298078;-0.2680111;0;0;0
155591.4914;NotLabelled;NONE;16384;0.8642404;0.2590028;0.2922437;0.3171745;0;0;1;2732;-1064;2677;65536;0.8754492;0.3407202;-0.2423823;0.2423823;0;1;0;-1067;-2966;-2629;8192;0.837184;0.2853186;-0.3795014;-0.2714681;0;0;-1;-2824;-1105;2711;32768;0.9146152;0.3808864;-0.1204986;-0.06232687;1;0;0;881;-2855;-2886;256;0.01385042;0.02631579;-0.5443213;-0.8383495;0;0;0;-225;3756;-1671;128;0.06094183;-0.01246537;0.5055401;0.8605579;0;0;0;-373;3569;2030;4;0.5096953;-0.5666818;0.4584487;0.4570637;0;0;0;-203;4088;-206;16;0.5969529;-0.7625116;-0.1246537;-0.2160665;0;0;0;309;3898;906;2;0.4930748;-0.4598338;-0.5083103;-0.5357713;0;1;0;-213;4078;-37;8;0.6371191;-0.7673967;-0.07063711;0.01385042;0;0;0;-481;4009;725;0.4709747;2.795321;-0.3389015;0.4767794;3.324307;-0.2056273;0.4818871;3.789779;-0.09044085;0.4471297;4.458956;0.2086513;0.1725282;4.758483;0.3067614;-0.1603409;4.587202;0.3072678;-0.7988848;4.829693;-0.318663;-0.5712836;5.506234;-0.9417896;0.6921716;4.785477;0.3067618;0.9886795;4.646889;0.307269;1.733274;4.904575;-0.2472152;1.970676;5.55016;-0.8988649;0.1587557;2.756491;-0.3574406;0.2355428;1.298078;-0.2680314;0;0;0;0.1587557;2.756491;-0.3574406;0.2355428;1.298078;-0.2680314;0;0;0
155611.7531;NotLabelled;NONE;16384;0.8637708;0.2590028;0.2936288;0.3171745;0;0;0;2832;-1062;2695;65536;0.8758315;0.3407202;-0.2409972;0.2423823;0;0;0;-1103;-2926;-2671;8192;0.837184;0.2853186;-0.3795014;-0.2714681;0;0;0;-2808;-1099;2755;32768;0.9146152;0.3808864;-0.1204986;-0.06232687;1;0;0;1003;-2799;-2832;256;0.01385042;0.02631579;-0.5443213;-0.8383495;0;0;0;-205;3746;-1753;128;0.06094183;-0.01246537;0.5055401;0.8605579;0;1;0;-385;3623;2030;4;0.5096953;-0.5677961;0.4584487;0.4556787;0;1;-1;-211;4090;-256;16;0.5969529;-0.7627367;-0.1232687;-0.2160665;0;0;0;329;3984;978;2;0.4916897;-0.4598338;-0.5083103;-0.5370426;0;0;0;-199;4080;-5;8;0.6371191;-0.7673967;-0.07063711;0.01385042;0;0;0;-543;4003;717;0.4709747;2.795316;-0.3388901;0.4767791;3.324266;-0.2054738;0.4818865;3.789707;-0.0901624;0.4471291;4.458884;0.2089297;0.1725276;4.758411;0.3070397;-0.1603413;4.587131;0.307546;-0.7988774;4.829621;-0.3183927;-0.5712762;5.506162;-0.9415197;0.692171;4.785405;0.3070402;0.9886789;4.646817;0.3075475;1.734129;4.905231;-0.2454453;1.969156;5.551112;-0.8976623;0.1587558;2.756491;-0.3574405;0.2355429;1.298078;-0.2680312;0;0;0;0.1587558;2.756491;-0.3574405;0.2355429;1.298078;-0.2680312;0;0;0
155632.7092;NotLabelled;NONE;16384;0.8637708;0.2590028;0.2936288;0.3171745;0;1;0;2786;-1106;2705;65536;0.8758315;0.3407202;-0.2409972;0.2423823;1;0;0;-1067;-2894;-2635;8192;0.837184;0.2853186;-0.3795014;-0.2714681;0;-1;0;-2758;-1097;2769;32768;0.9140372;0.3822715;-0.1204986;-0.06232687;0;0;0;845;-2879;-2878;256;0.01385042;0.02631579;-0.5443213;-0.8383495;0;0;0;-141;3780;-1643;128;0.06094183;-0.01246537;0.5055401;0.8605579;0;0;0;-391;3627;2016;4;0.5096953;-0.5677961;0.4584487;0.4556787;0;0;-1;-243;4066;-222;16;0.5969529;-0.7625116;-0.1246537;-0.2160665;0;0;0;245;3886;988;2;0.4916897;-0.4598338;-0.5083103;-0.5370426;0;0;0;-217;4098;35;8;0.6371191;-0.7673967;-0.07063711;0.01385042;0;0;0;-495;4005;747;0.4740339;2.794676;-0.3426803;0.4798383;3.323627;-0.2092641;0.4849457;3.789068;-0.09395263;0.4501882;4.458245;0.2051395;0.1755867;4.757772;0.3032495;-0.1572821;4.586491;0.3037558;-0.797747;4.827942;-0.3206116;-0.5723056;5.504094;-0.9449449;0.6952302;4.784765;0.30325;0.9917381;4.646177;0.3037572;1.737179;4.904591;-0.2492484;1.972205;5.550473;-0.9014653;0.161815;2.755851;-0.3612307;0.2378989;1.297634;-0.2681001;0;0;0;0.161815;2.755851;-0.3612307;0.2378989;1.297634;-0.2681001;0;0;0
155653.4908;NotLabelled;NONE;16384;0.8637708;0.2590028;0.2936288;0.3171745;0;0;0;2768;-1108;2671;65536;0.8758315;0.3407202;-0.2409972;0.2423823;0;1;0;-1023;-2936;-2623;8192;0.837184;0.2853186;-0.3795014;-0.2714681;-1;0;-1;-2780;-1147;2755;32768;0.9140372;0.3822715;-0.1204986;-0.06232687;1;0;0;889;-2863;-2852;256;0.01385042;0.02770083;-0.5443213;-0.8383049;0;0;0;-263;3742;-1711;128;0.06094183;-0.01246537;0.5055401;0.8605579;0;0;0;-363;3619;2006;4;0.5096953;-0.5677961;0.4584487;0.4556787;0;0;0;-209;4042;-210;16;0.5969529;-0.7625116;-0.1246537;-0.2160665;1;0;0;275;3946;1032;2;0.4916897;-0.4598338;-0.5083103;-0.5370426;0;0;0;-189;4138;-1;8;0.6371191;-0.7673967;-0.07063711;0.01385042;0;0;0;-583;4007;685;0.4716779;2.79512;-0.3426117;0.4774822;3.32407;-0.2091954;0.4825897;3.789511;-0.09388399;0.4478322;4.458689;0.2052081;0.1732307;4.758216;0.3033181;-0.1596381;4.586935;0.3038244;-0.800103;4.828386;-0.320543;-0.5746615;5.504538;-0.9448762;0.6928741;4.785209;0.3033186;0.9893821;4.646621;0.3038259;1.734823;4.905035;-0.2491797;1.969939;5.552898;-0.8993958;0.1594589;2.756295;-0.3611621;0.2355429;1.298078;-0.2680314;0;0;0;0.1594589;2.756295;-0.3611621;0.2355429;1.298078;-0.2680314;0;0;0
155674.5171;NotLabelled;NONE;16384;0.8633543;0.2603878;0.2936288;0.3171745;0;0;0;2878;-1124;2645;65536;0.8758315;0.3407202;-0.2409972;0.2423823;0;0;0;-1047;-2940;-2649;8192;0.837184;0.2853186;-0.3795014;-0.2714681;0;0;0;-2804;-1131;2723;32768;0.9138535;0.3822715;-0.1218837;-0.06232687;1;0;0;909;-2849;-2868;256;0.01385042;0.02770083;-0.5443213;-0.8383049;0;0;0;-239;3770;-1695;128;0.06094183;-0.01246537;0.5055401;0.8605579;0;1;0;-315;3575;2050;4;0.5096953;-0.5677961;0.4584487;0.4556787;0;-1;0;-219;4036;-184;16;0.5969529;-0.7625116;-0.1246537;-0.2160665;0;0;0;235;3904;1030;2;0.4916897;-0.4598338;-0.5083103;-0.5370426;0;0;0;-239;4070;13;8;0.6371191;-0.7673967;-0.07063711;0.01385042;0;0;0;-541;4037;731;0.470837;2.79512;-0.3429817;0.4766413;3.32407;-0.2095654;0.4817486;3.789512;-0.09425396;0.4459822;4.458625;0.204862;0.1709294;4.757733;0.3029831;-0.1616808;4.585951;0.303484;-0.8050438;4.827403;-0.3178969;-0.5810552;5.503554;-0.9427527;0.6905314;4.785511;0.3029836;0.9872481;4.64737;0.3034853;1.730108;4.905784;-0.2529828;1.963711;5.553647;-0.903744;0.158618;2.756295;-0.3615322;0.2349185;1.298078;-0.2685787;0;0;0;0.158618;2.756295;-0.3615322;0.2349185;1.298078;-0.2685787;0;0;0
155715.7648;NotLabelled;NONE;16384;0.8633543;0.2603878;0.2936288;0.3171745;0;0;-1;2830;-1126;2655;65536;0.8754492;0.3407202;-0.2423823;0.2423823;0;0;0;-1013;-2984;-2679;8192;0.837184;0.2853186;-0.3795014;-0.2714681;0;0;-1;-2760;-1107;2691;32768;0.9140372;0.3822715;-0.1204986;-0.06232687;0;0;2;921;-2825;-2806;256;0.01385042;0.02631579;-0.5443213;-0.8383495;-1;0;0;-205;3752;-1651;128;0.06094183;-0.01246537;0.5055401;0.8605579;0;0;0;-393;3577;1928;4;0.5096953;-0.5677961;0.4584487;0.4556787;0;0;0;-307;4046;-250;16;0.5969529;-0.7625116;-0.1246537;-0.2160665;0;0;0;269;3906;942;2;0.4916897;-0.4598338;-0.5096953;-0.5357283;0;0;0;-185;4134;21;8;0.6371191;-0.7673967;-0.07063711;0.01385042;0;0;0;-545;4031;707;0.470837;2.79512;-0.3429817;0.4766413;3.32407;-0.2095654;0.4817486;3.789512;-0.09425396;0.4459822;4.458625;0.204862;0.1709294;4.757733;0.3029831;-0.1616808;4.585951;0.303484;-0.8041421;4.829419;-0.3180428;-0.5801539;5.50557;-0.9428993;0.6905314;4.785511;0.3029836;0.9872481;4.64737;0.3034853;1.7314;4.905785;-0.2512531;1.967379;5.553351;-0.9014522;0.158618;2.756295;-0.3615322;0.2349185;1.298078;-0.2685787;0;0;0;0.158618;2.756295;-0.3615322;0.2349185;1.298078;-0.2685787;0;0;0
155736.5233;NotLabelled;NONE;16384;0.8638619;0.2603878;0.2936288;0.3157895;0;0;0;2824;-1112;2687;65536;0.8754492;0.3407202;-0.2423823;0.2423823;0;0;1;-1053;-2982;-2649;8192;0.8378105;0.2853186;-0.3781163;-0.2714681;0;0;0;-2706;-1145;2691;32768;0.9140372;0.3822715;-0.1204986;-0.06232687;0;0;3;983;-2865;-2780;256;0.01385042;0.02631579;-0.5443213;-0.8383495;-1;0;0;-221;3746;-1715;128;0.06094183;-0.01246537;0.5055401;0.8605579;0;1;0;-357;3571;1982;4;0.5096953;-0.5677961;0.4584487;0.4556787;0;-1;-1;-221;4048;-258;16;0.5969529;-0.7625116;-0.1246537;-0.2160665;1;0;0;305;3958;1012;2;0.4916897;-0.4598338;-0.5083103;-0.5370426;0;0;0;-223;4080;5;8;0.6371191;-0.767523;-0.06925207;0.01385042;0;0;0;-487;4017;709;0.4716779;2.79512;-0.3426117;0.4774822;3.32407;-0.2091954;0.4825897;3.789511;-0.09388399;0.4478322;4.458689;0.2052081;0.1732307;4.758216;0.3033181;-0.1596381;4.586935;0.3038244;-0.8006519;4.830402;-0.3191952;-0.5730511;5.506944;-0.942322;0.6928741;4.785209;0.3033186;0.9893821;4.646621;0.3038259;1.734823;4.905035;-0.2491797;1.969939;5.552898;-0.8993958;0.1594589;2.756295;-0.3611621;0.2355429;1.298078;-0.2680314;0;0;0;0.1594589;2.756295;-0.3611621;0.2355429;1.298078;-0.2680314;0;0;0
155756.5317;NotLabelled;NONE;16384;0.8638619;0.2603878;0.2936288;0.3157895;0;0;0;2792;-1148;2717;65536;0.8754492;0.3407202;-0.2423823;0.2423823;1;-1;1;-977;-2968;-2613;8192;0.8378105;0.2853186;-0.3781163;-0.2714681;0;1;0;-2748;-1109;2767;32768;0.9134567;0.3836565;-0.1204986;-0.06232687;-1;0;5;965;-2799;-2730;256;0.01385042;0.02631579;-0.5443213;-0.8383495;0;0;0;-225;3752;-1691;128;0.06094183;-0.01246537;0.5055401;0.8605579;0;1;0;-431;3583;1998;4;0.5096953;-0.566675;0.4598338;0.4556787;0;-1;0;-219;4056;-220;16;0.5969529;-0.7625116;-0.1246537;-0.2160665;0;0;0;261;3948;950;2;0.4916897;-0.4598338;-0.5096953;-0.5357283;0;-1;0;-201;4040;31;8;0.6371191;-0.767523;-0.06925207;0.01385042;0;0;0;-529;4041;703;0.4716779;2.79512;-0.3426117;0.4774822;3.32407;-0.2091954;0.4825897;3.789511;-0.09388399;0.4478322;4.458689;0.2052081;0.1732307;4.758216;0.3033181;-0.1596381;4.586935;0.3038244;-0.8002616;4.831401;-0.3192062;-0.5726605;5.507941;-0.9423329;0.6928741;4.785209;0.3033186;0.9893821;4.646621;0.3038259;1.732985;4.906104;-0.2511497;1.968101;5.553968;-0.9013653;0.1594589;2.756295;-0.3611621;0.2355429;1.298078;-0.2680314;0;0;0;0.1594589;2.756295;-0.3611621;0.2355429;1.298078;-0.2680314;0;0;0
155777.5597;NotLabelled;NONE;16384;0.8633543;0.2603878;0.2936288;0.3171745;0;-1;0;2786;-1114;2709;65536;0.8750646;0.3407202;-0.2423823;0.2437673;1;-2;1;-1013;-2850;-2667;8192;0.8373376;0.2867036;-0.3781163;-0.2714681;0;0;0;-2822;-1137;2717;32768;0.9136383;0.3836565;-0.1191136;-0.06232687;-1;1;6;961;-2755;-2764;256;0.01385042;0.02631579;-0.5443213;-0.8383495;0;0;0;-195;3780;-1649;128;0.06094183;-0.01246537;0.5055401;0.8605579;0;0;0;-409;3597;1966;4;0.5096953;-0.566675;0.4598338;0.4556787;0;-1;0;-199;4024;-306;16;0.5969529;-0.7625116;-0.1246537;-0.2160665;0;0;0;339;3896;944;2;0.4916897;-0.4598338;-0.5096953;-0.5357283;0;-1;0;-255;4114;33;8;0.6371191;-0.767523;-0.06925207;0.01385042;0;0;0;-525;4063;723;0.4752369;2.795295;-0.3427151;0.4810413;3.324245;-0.2092988;0.4861487;3.789686;-0.09398734;0.4513913;4.458863;0.2051048;0.1767898;4.75839;0.3032148;-0.1560791;4.58711;0.3037211;-0.7967025;4.831575;-0.3193095;-0.5691015;5.508116;-0.9424362;0.6964331;4.785384;0.3032153;0.9929411;4.646796;0.3037225;1.736544;4.906279;-0.251253;1.97175;5.55612;-0.8994603;0.163018;2.75647;-0.3612655;0.2355428;1.298078;-0.2680312;0;0;0;0.163018;2.75647;-0.3612655;0.2355428;1.298078;-0.2680312;0;0;0
155797.538;NotLabelled;NONE;16384;0.8633543;0.2603878;0.2936288;0.3171745;0;-1;-1;2744;-1132;2679;65536;0.8750646;0.3407202;-0.2423823;0.2437673;1;-1;0;-1049;-2860;-2639;8192;0.8373376;0.2867036;-0.3781163;-0.2714681;1;1;0;-2798;-1121;2757;32768;0.9138178;0.3836565;-0.1177285;-0.06232687;0;2;5;861;-2897;-2812;256;0.01385042;0.02631579;-0.5443213;-0.8383495;-1;0;0;-161;3804;-1675;128;0.06094183;-0.01246537;0.5055401;0.8605579;0;0;0;-429;3661;1936;4;0.5083103;-0.5668036;0.4598338;0.4570637;0;-1;0;-227;4048;-214;16;0.5969529;-0.7625116;-0.1246537;-0.2160665;0;0;0;261;3918;1002;2;0.4916897;-0.4598338;-0.5083103;-0.5370426;0;-1;0;-195;4116;51;8;0.6371191;-0.767523;-0.06925207;0.01385042;0;0;0;-571;4051;675;0.4752369;2.795295;-0.3427151;0.4810413;3.324245;-0.2092988;0.4861487;3.789686;-0.09398734;0.4513913;4.458863;0.2051048;0.1767898;4.75839;0.3032148;-0.1560791;4.58711;0.3037211;-0.7970929;4.830577;-0.3192985;-0.5705622;5.507506;-0.9423944;0.6964331;4.785384;0.3032153;0.9929411;4.646796;0.3037225;1.736973;4.908258;-0.2497472;1.969805;5.558394;-0.8985149;0.163018;2.75647;-0.3612655;0.2355428;1.298078;-0.2680312;0;0;0;0.163018;2.75647;-0.3612655;0.2355428;1.298078;-0.2680312;0;0;0
155818.6801;NotLabelled;NONE;16384;0.8633543;0.2603878;0.2936288;0.3171745;0;-1;-2;2720;-1106;2697;65536;0.8746776;0.3407202;-0.2423823;0.2451524;0;-4;-2;-1283;-2880;-2507;8192;0.8368872;0.2867036;-0.3781163;-0.2728532;1;1;-1;-2788;-1129;2731;32768;0.9139952;0.3836565;-0.1163435;-0.06232687;-1;3;4;899;-2933;-2796;256;0.01385042;0.02631579;-0.5457063;-0.8374487;-1;1;0;-229;3776;-1723;128;0.06094183;-0.01246537;0.5055401;0.8605579;1;0;0;-353;3607;1988;4;0.5083103;-0.5668036;0.4598338;0.4570637;0;0;0;-221;4108;-238;16;0.5969529;-0.7625116;-0.1246537;-0.2160665;0;0;0;259;3928;946;2;0.4916897;-0.4598338;-0.5083103;-0.5370426;0;-1;0;-181;4108;-1;8;0.6371191;-0.767523;-0.06925207;0.01385042;0;0;0;-513;4015;735;0.4708939;2.795053;-0.3430154;0.4766982;3.324003;-0.2095991;0.4818057;3.789444;-0.09428765;0.4470482;4.458622;0.2048044;0.1724467;4.758149;0.3029145;-0.1604221;4.586868;0.3034208;-0.801436;4.830336;-0.3195989;-0.5749052;5.507265;-0.9426947;0.6920902;4.785142;0.302915;0.988598;4.646554;0.3034222;1.73263;4.908016;-0.2500475;1.963087;5.558447;-0.8993685;0.1586749;2.756228;-0.3615658;0.2355429;1.298078;-0.2680311;0;0;0;0.1586749;2.756228;-0.3615658;0.2355429;1.298078;-0.2680311;0;0;0
155839.5161;NotLabelled;NONE;16384;0.8633543;0.2603878;0.2936288;0.3171745;0;-2;-3;2672;-1096;2677;65536;0.8746776;0.3407202;-0.2423823;0.2451524;0;-5;-5;-1359;-2920;-2567;8192;0.8368872;0.2867036;-0.3781163;-0.2728532;1;2;-1;-2804;-1159;2691;32768;0.9139952;0.3836565;-0.1163435;-0.06232687;-2;5;4;857;-2917;-2842;256;0.01385042;0.02631579;-0.5457063;-0.8374487;-1;0;0;-269;3776;-1651;128;0.06232687;-0.01246537;0.5055401;0.8604587;1;0;0;-381;3597;1964;4;0.5083103;-0.5668036;0.4598338;0.4570637;0;0;0;-215;4072;-218;16;0.5969529;-0.7625116;-0.1246537;-0.2160665;0;0;0;307;3958;972;2;0.4916897;-0.4598338;-0.5083103;-0.5370426;0;0;0;-117;4110;47;8;0.6371191;-0.7673967;-0.07063711;0.01385042;0;0;0;-547;4003;677;0.4709244;2.795053;-0.343002;0.4767286;3.324003;-0.2095858;0.481836;3.789444;-0.09427439;0.4469954;4.459604;0.2025998;0.1723628;4.75944;0.2996729;-0.1604978;4.588146;0.3006881;-0.8014586;4.831614;-0.322386;-0.575946;5.508929;-0.9454312;0.6920048;4.786459;0.2996733;0.9885193;4.647887;0.3006888;1.733025;4.908096;-0.2527338;1.961161;5.558818;-0.9025807;0.1587055;2.756227;-0.3615524;0.2355656;1.298078;-0.2680112;0;0;0;0.1587055;2.756227;-0.3615524;0.2355656;1.298078;-0.2680112;0;0;0
155860.531;NotLabelled;NONE;16384;0.8632609;0.2590028;0.2936288;0.3185596;0;-2;-4;2778;-1104;2621;65536;0.873903;0.3407202;-0.2437673;0.2465374;-2;-8;-10;-1359;-2926;-2521;8192;0.8375117;0.2867036;-0.3767313;-0.2728532;2;5;-2;-2810;-1135;2731;32768;0.914075;0.3836565;-0.1149584;-0.06371191;-1;9;6;925;-2951;-2832;256;0.01385042;0.02631579;-0.5457063;-0.8374487;-3;0;0;-239;3804;-1645;128;0.06094183;-0.01246537;0.5055401;0.8605579;2;0;0;-409;3609;1952;4;0.5083103;-0.5668036;0.4598338;0.4570637;1;1;0;-175;4088;-216;16;0.5969529;-0.7625116;-0.1246537;-0.2160665;1;0;0;309;3906;1014;2;0.4916897;-0.4598338;-0.5083103;-0.5370426;0;1;0;-153;4072;47;8;0.6371191;-0.7673967;-0.07063711;0.01385042;0;0;0;-503;3955;697;0.4709245;2.795058;-0.3430135;0.4767292;3.324044;-0.2097392;0.4818369;3.789516;-0.09455276;0.4469964;4.459676;0.2023215;0.1723638;4.759512;0.2993946;-0.1604969;4.588218;0.3004098;-0.8014681;4.831686;-0.3226536;-0.575956;5.509001;-0.945699;0.6920058;4.78653;0.2993948;0.9885203;4.647959;0.3004106;1.733017;4.908167;-0.2530245;1.961153;5.55889;-0.9028714;0.1587055;2.756228;-0.3615525;0.2355656;1.298078;-0.2680113;0;0;0;0.1587055;2.756228;-0.3615525;0.2355656;1.298078;-0.2680113;0;0;0
155881.573;NotLabelled;NONE;16384;0.8628442;0.2603878;0.2936288;0.3185596;1;-4;-4;2716;-1198;2595;65536;0.8727334;0.3407202;-0.2465374;0.2479224;-2;-12;-13;-1277;-2818;-2461;8192;0.8370591;0.2867036;-0.3767313;-0.2742382;2;7;-2;-2822;-1183;2759;32768;0.9143215;0.3836565;-0.1121884;-0.06509695;-1;14;7;917;-2919;-2886;256;0.01385042;0.02631579;-0.5457063;-0.8374487;-4;0;-1;-245;3826;-1677;128;0.06094183;-0.01385042;0.5055401;0.8605368;3;0;1;-359;3689;1976;4;0.5083103;-0.5668036;0.4598338;0.4570637;0;1;0;-181;4066;-216;16;0.5969529;-0.7625116;-0.1246537;-0.2160665;0;0;0;259;3968;1034;2;0.4916897;-0.4598338;-0.5096953;-0.5357283;0;1;-1;-203;4146;-9;8;0.6371191;-0.7673967;-0.07063711;0.01385042;0;1;0;-577;4005;727;0.4709244;2.795053;-0.343002;0.4767286;3.324003;-0.2095858;0.481836;3.789444;-0.09427439;0.4469954;4.459604;0.2025998;0.1723628;4.75944;0.2996729;-0.1604978;4.588146;0.3006881;-0.8012847;4.828599;-0.323734;-0.5746918;5.506697;-0.9455336;0.6920048;4.786459;0.2996733;0.9885193;4.647887;0.3006888;1.731195;4.909169;-0.2546843;1.957938;5.559811;-0.9050982;0.1587055;2.756227;-0.3615524;0.2355656;1.298078;-0.2680112;0;0;0;0.1587055;2.756227;-0.3615524;0.2355656;1.298078;-0.2680112;0;0;0
155902.5054;NotLabelled;NONE;16384;0.8623316;0.2603878;0.2936288;0.3199446;3;-9;-4;2800;-1114;2603;65536;0.8720913;0.3393352;-0.2493075;0.2493075;-4;-15;-17;-1287;-2868;-2505;8192;0.8367692;0.2867036;-0.3753462;-0.2770083;3;6;-1;-2648;-1199;2689;32768;0.9145166;0.3836565;-0.1080332;-0.06925207;-1;18;15;1167;-2653;-2848;256;0.01385042;0.02631579;-0.5470914;-0.8365445;-3;-1;-1;-227;3838;-1695;128;0.06094183;-0.01385042;0.5069252;0.8597215;4;0;0;-363;3613;2034;4;0.5096953;-0.5655585;0.4598338;0.4570637;0;0;0;-209;4044;-244;16;0.5969529;-0.7625116;-0.1246537;-0.2160665;0;0;0;241;3916;994;2;0.4916897;-0.4598338;-0.5096953;-0.5357283;0;1;-1;-183;4140;7;8;0.6371191;-0.7673967;-0.07063711;0.01385042;1;0;0;-477;4011;721;0.4709245;2.795055;-0.3430053;0.4767289;3.324014;-0.2096269;0.4818363;3.789464;-0.09434877;0.4469958;4.459623;0.2025254;0.1723633;4.759459;0.2995986;-0.1604975;4.588165;0.3006138;-0.8018503;4.830635;-0.3224464;-0.572037;5.509919;-0.941765;0.6920052;4.786478;0.2995988;0.9885197;4.647906;0.3006143;1.731611;4.907937;-0.2547912;1.954582;5.558798;-0.9062893;0.1587055;2.756228;-0.3615526;0.2355656;1.298078;-0.2680114;0;0;0;0.1587055;2.756228;-0.3615526;0.2355656;1.298078;-0.2680114;0;0;0
155922.5537;NotLabelled;NONE;16384;0.8612431;0.2590028;0.2950138;0.3227147;4;-8;-6;2804;-1032;2571;65536;0.8694134;0.3379501;-0.2576177;0.2520775;-9;-20;-30;-1425;-2792;-2545;8192;0.8373891;0.2867036;-0.3739612;-0.2770083;4;9;0;-2560;-1087;2621;32768;0.9147337;0.3836565;-0.1052632;-0.07063711;0;19;21;1221;-2659;-2856;256;0.01523546;0.02631579;-0.5470914;-0.8365204;-3;-3;-1;-173;3740;-1653;128;0.06094183;-0.01246537;0.5083103;0.8589246;4;-3;0;-377;3593;1976;4;0.5096953;-0.5666818;0.4584487;0.4570637;0;1;0;-293;4112;-208;16;0.5969529;-0.7625116;-0.1246537;-0.2160665;0;0;0;231;3968;1020;2;0.4916897;-0.4598338;-0.5096953;-0.5357283;0;0;-1;-197;4152;23;8;0.6371191;-0.7673967;-0.07063711;0.01385042;1;0;0;-575;4031;775;0.4746032;2.795554;-0.3391054;0.4804123;3.32494;-0.2074318;0.4855239;3.790759;-0.0936538;0.4506003;4.461895;0.2009967;0.1759368;4.762037;0.2970305;-0.1569161;4.590731;0.2985549;-0.798726;4.832201;-0.3244231;-0.564799;5.510737;-0.9430214;0.6955774;4.78908;0.2970309;0.9920983;4.650527;0.2985557;1.734135;4.909132;-0.258921;1.952975;5.559799;-0.9120139;0.1623836;2.756667;-0.3575166;0.2355887;1.298078;-0.2679909;0;0;0;0.1623836;2.756667;-0.3575166;0.2355887;1.298078;-0.2679909;0;0;0
155942.4917;NotLabelled;NONE;16384;0.8607228;0.2590028;0.2950138;0.3240997;4;-7;-9;2796;-1068;2677;65536;0.8678874;0.3365651;-0.2631579;0.2534626;-11;-22;-33;-1195;-2804;-2587;8192;0.8364676;0.2867036;-0.3739612;-0.2797784;5;11;2;-2642;-1101;2689;32768;0.9145125;0.3850415;-0.101108;-0.07202215;-2;20;24;1099;-2661;-2806;256;0.01523546;0.02631579;-0.5484765;-0.8356129;-4;-2;-1;-289;3758;-1711;128;0.05955679;-0.01246537;0.5083103;0.8590217;4;-2;0;-337;3619;1960;4;0.5096953;-0.5677961;0.4584487;0.4556787;0;0;0;-315;4078;-194;16;0.5983379;-0.7610309;-0.1246537;-0.2174515;0;0;0;297;3916;1006;2;0.4916897;-0.4598338;-0.5096953;-0.5357283;0;0;0;-247;4118;49;8;0.6371191;-0.7673967;-0.07063711;0.01385042;1;0;0;-571;4001;729;0.4716524;2.795435;-0.3388618;0.477466;3.325234;-0.2088585;0.4825814;3.791409;-0.09655028;0.4460398;4.462472;0.19807;0.1706608;4.761979;0.2940365;-0.161794;4.589902;0.2954976;-0.8034254;4.828267;-0.328858;-0.5569608;5.508079;-0.9411563;0.6902373;4.790229;0.2941439;0.9870785;4.652364;0.295735;1.729322;4.91381;-0.2601389;1.945507;5.564719;-0.9138718;0.1594322;2.756491;-0.3571395;0.2360498;1.298078;-0.2675849;0;0;0;0.1594322;2.756491;-0.3571395;0.2360498;1.298078;-0.2675849;0;0;0
155963.5166;NotLabelled;NONE;16384;0.8601398;0.2576177;0.2963989;0.3254848;4;-6;-11;2764;-1060;2687;65536;0.8662945;0.33518;-0.2700831;0.2534626;-11;-25;-34;-1097;-2808;-2769;8192;0.8360031;0.2867036;-0.3739612;-0.2811634;5;6;5;-2842;-1151;2723;32768;0.9149979;0.3850415;-0.09556787;-0.0734072;-2;15;27;949;-2671;-2896;256;0.0166205;0.02493075;-0.5484765;-0.835629;-4;-2;0;-217;3764;-1679;128;0.05955679;-0.01246537;0.5096953;0.8582006;4;-4;0;-395;3617;1984;4;0.5096953;-0.5677961;0.4584487;0.4556787;0;0;0;-299;4104;-222;16;0.5983379;-0.7610309;-0.1246537;-0.2174515;1;0;0;291;3910;1064;2;0.4916897;-0.4598338;-0.5096953;-0.5357283;0;0;0;-235;4094;3;8;0.6371191;-0.7673967;-0.07063711;0.01385042;1;0;0;-501;3965;713;0.4739917;2.796157;-0.3365617;0.4798051;3.325922;-0.2064187;0.4849203;3.792067;-0.09398747;0.448361;4.464101;0.1984113;0.1729727;4.763911;0.2933977;-0.1594744;4.591825;0.2954428;-0.8026194;4.827053;-0.3285453;-0.547993;5.506946;-0.9374027;0.692548;4.792184;0.2933891;0.9893956;4.654338;0.2954239;1.731473;4.911381;-0.2627207;1.941535;5.564821;-0.9159253;0.1617715;2.757218;-0.3548505;0.2376914;1.299001;-0.261586;0;0;0;0.1617715;2.757218;-0.3548505;0.2376914;1.299001;-0.261586;0;0;0
155983.8457;NotLabelled;NONE;16384;0.8591356;0.2576177;0.2977839;0.3268698;3;-7;-13;2834;-1014;2695;65536;0.8646765;0.333795;-0.2756233;0.2548476;-9;-18;-33;-1021;-2826;-2753;8192;0.8360031;0.2867036;-0.3739612;-0.2811634;6;0;5;-2712;-1107;2733;32768;0.9160037;0.3836565;-0.09141274;-0.0734072;-2;7;25;849;-2705;-2974;256;0.0166205;0.02493075;-0.5484765;-0.835629;-3;-1;-1;-185;3722;-1635;128;0.05817174;-0.01108033;0.5096953;0.8583146;4;-3;0;-339;3593;1986;4;0.5096953;-0.5677961;0.4584487;0.4556787;0;-1;0;-237;4072;-266;16;0.5983379;-0.7608027;-0.1260388;-0.2174515;2;0;0;267;3904;1056;2;0.4916897;-0.4598338;-0.5096953;-0.5357283;0;0;0;-175;4098;29;8;0.6371191;-0.7673967;-0.07063711;0.01385042;1;0;0;-463;4015;727;0.4753594;2.796216;-0.3360717;0.4811771;3.326398;-0.2076391;0.4862962;3.792903;-0.09671296;0.4491951;4.46493;0.1956331;0.1735659;4.764528;0.2905907;-0.1587439;4.592176;0.292642;-0.8013672;4.82349;-0.3333443;-0.5330351;5.503419;-0.9362454;0.6931184;4.793215;0.2905909;0.9900756;4.655607;0.2926427;1.734563;4.911545;-0.2627934;1.938593;5.565845;-0.9170488;0.1631385;2.757217;-0.3542237;0.2386982;1.299;-0.2606672;0;0;0;0.1631385;2.757217;-0.3542237;0.2386982;1.299;-0.2606672;0;0;0
156004.6287;NotLabelled;NONE;16384;0.8585403;0.2562327;0.299169;0.3282548;2;-6;-15;2948;-1050;2671;65536;0.863833;0.33241;-0.2811634;0.2534626;-7;-5;-29;-785;-2954;-2657;8192;0.8358563;0.2853186;-0.3753462;-0.2811634;3;1;3;-2678;-947;2793;32768;0.9163858;0.3836565;-0.08864266;-0.07202215;0;1;20;679;-2843;-2958;256;0.0166205;0.02493075;-0.5498615;-0.8347183;-2;0;0;-215;3746;-1611;128;0.05817174;-0.01108033;0.5096953;0.8583146;2;-1;0;-421;3577;1990;4;0.5096953;-0.5677961;0.4584487;0.4556787;0;-1;0;-235;4036;-224;16;0.5983379;-0.7610309;-0.1246537;-0.2174515;1;0;0;293;4006;1002;2;0.4916897;-0.4598338;-0.5096953;-0.5357283;0;0;0;-231;4084;-13;8;0.6371191;-0.7673967;-0.07063711;0.01385042;0;0;0;-553;4021;715;0.4729949;2.796653;-0.3360034;0.4788122;3.326793;-0.207398;0.4839308;3.793262;-0.09631961;0.4468295;4.465289;0.1960263;0.1712001;4.764888;0.2909834;-0.1611096;4.592536;0.2930347;-0.8058758;4.82177;-0.3315112;-0.5294121;5.501787;-0.9306287;0.6907528;4.793575;0.2909839;0.98771;4.655966;0.2930357;1.732316;4.911903;-0.2622412;1.929043;5.565112;-0.919816;0.1607741;2.757661;-0.3541693;0.236334;1.299444;-0.2606122;0;0;0;0.1607741;2.757661;-0.3541693;0.236334;1.299444;-0.2606122;0;0;0
156024.6632;NotLabelled;NONE;16384;0.8579379;0.2548476;0.300554;0.3296399;0;-4;-14;3044;-934;2853;65536;0.8623405;0.333795;-0.2853186;0.2520775;-9;-5;-22;-373;-3192;-2749;8192;0.8349193;0.2853186;-0.3753462;-0.2839335;0;0;3;-3056;-929;2827;32768;0.916886;0.3836565;-0.08448754;-0.07063711;-2;4;11;499;-2977;-2802;256;0.0166205;0.02631579;-0.5498615;-0.8346757;-2;1;0;-191;3728;-1637;128;0.05817174;-0.01108033;0.5096953;0.8583146;1;0;0;-387;3547;2008;4;0.5096953;-0.5677961;0.4584487;0.4556787;0;0;0;-207;4116;-248;16;0.5983379;-0.7608027;-0.1260388;-0.2174515;2;0;0;279;3990;916;2;0.4916897;-0.4598338;-0.5096953;-0.5357283;0;0;0;-239;4106;-15;8;0.6371191;-0.7673967;-0.07063711;0.01385042;0;0;0;-501;3975;725;0.4753919;2.79621;-0.3360438;0.4812093;3.32635;-0.2074383;0.486328;3.792819;-0.09635994;0.4491473;4.465809;0.1937505;0.1734891;4.76571;0.287664;-0.1588144;4.593354;0.2902256;-0.8052092;4.818494;-0.3341258;-0.5184278;5.497647;-0.92936;0.6930405;4.794417;0.2876645;0.9900027;4.656827;0.2902267;1.736042;4.909698;-0.2645316;1.927058;5.563802;-0.9228991;0.1631712;2.757217;-0.3542096;0.2387222;1.299001;-0.2606456;0;0;0;0.1631712;2.757217;-0.3542096;0.2387222;1.299001;-0.2606456;0;0;0
156045.5014;NotLabelled;NONE;16384;0.8559366;0.2548476;0.3047091;0.3310249;0;0;-11;3188;-914;2577;65536;0.8605545;0.33241;-0.2922437;0.2520775;-3;-10;-9;-805;-3316;-2675;8192;0.8353913;0.2839335;-0.3753462;-0.2839335;0;-3;1;-3058;-1001;2703;32768;0.9170126;0.3836565;-0.08310249;-0.07063711;-1;12;6;419;-3127;-3026;256;0.0166205;0.02631579;-0.5498615;-0.8346757;0;0;0;-269;3790;-1563;128;0.05817174;-0.01108033;0.5096953;0.8583146;0;-1;0;-363;3647;1986;4;0.5096953;-0.5677961;0.4584487;0.4556787;0;1;0;-149;4092;-236;16;0.5983379;-0.7608027;-0.1260388;-0.2174515;2;0;0;235;3956;906;2;0.4916897;-0.4584487;-0.5096953;-0.5369141;0;0;0;-265;4096;1;8;0.6385041;-0.7662448;-0.07063711;0.01385042;1;0;0;-537;4045;723;0.472207;2.796653;-0.3363605;0.4780244;3.326793;-0.207755;0.483143;3.793262;-0.09667672;0.4449374;4.466185;0.1934586;0.1688226;4.765662;0.2873837;-0.1632179;4.592798;0.2899398;-0.8141701;4.813837;-0.3311341;-0.5224053;5.495561;-0.9209839;0.6883298;4.79516;0.2873839;0.9855015;4.658023;0.2899403;1.729788;4.908381;-0.2683008;1.911103;5.563639;-0.9282633;0.1599862;2.757661;-0.3545264;0.2357539;1.299444;-0.2611374;0;0;0;0.1599862;2.757661;-0.3545264;0.2357539;1.299444;-0.2611374;0;0;0
156066.4885;NotLabelled;NONE;16384;0.8543652;0.2548476;0.3060942;0.333795;2;-3;-2;3228;-916;2495;65536;0.8600829;0.33241;-0.2936288;0.2520775;1;-7;-5;-989;-3312;-2729;8192;0.8353913;0.2839335;-0.3753462;-0.2839335;0;-1;0;-3008;-1093;2681;32768;0.9165564;0.3850415;-0.08171745;-0.07063711;0;8;1;749;-3037;-2950;256;0.0166205;0.02631579;-0.5498615;-0.8346757;0;-1;-1;-243;3760;-1523;128;0.05817174;-0.01108033;0.5096953;0.8583146;-1;-2;0;-341;3655;1946;4;0.5096953;-0.5677961;0.4584487;0.4556787;0;1;0;-137;4140;-278;16;0.5983379;-0.7608027;-0.1260388;-0.2174515;2;0;0;279;3916;848;2;0.4916897;-0.4584487;-0.5096953;-0.5369141;0;0;0;-257;4112;-3;8;0.6385041;-0.7662448;-0.07063711;0.01385042;1;0;0;-515;4049;731;0.4722069;2.796653;-0.3363594;0.4780242;3.326794;-0.2077539;0.4831428;3.793262;-0.09667556;0.4449372;4.466185;0.1934601;0.1688224;4.765662;0.2873854;-0.1632181;4.592799;0.2899413;-0.8187366;4.809574;-0.3278236;-0.5158353;5.491217;-0.9121259;0.6883296;4.795161;0.2873856;0.9855012;4.658023;0.2899418;1.730619;4.906408;-0.2680722;1.909537;5.561942;-0.9284126;0.1599861;2.757661;-0.3545252;0.2357538;1.299444;-0.2611369;0;0;0;0.1599861;2.757661;-0.3545252;0.2357538;1.299444;-0.2611369;0;0;0
156086.5112;NotLabelled;NONE;16384;0.8543652;0.2548476;0.3060942;0.333795;4;-3;0;3144;-852;2589;65536;0.8595463;0.333795;-0.2936288;0.2520775;1;-1;0;-853;-3026;-2563;8192;0.8353913;0.2839335;-0.3753462;-0.2839335;1;0;0;-2880;-1031;2827;32768;0.9164487;0.3850415;-0.08171745;-0.07202215;-2;1;-1;929;-3069;-2772;256;0.0166205;0.02631579;-0.5498615;-0.8346757;0;-1;-1;-233;3804;-1583;128;0.0567867;-0.01108033;0.5096953;0.8584074;0;-2;1;-375;3665;1964;4;0.5096953;-0.5677961;0.4584487;0.4556787;0;1;0;-199;4086;-274;16;0.599723;-0.7597114;-0.1260388;-0.2174515;1;0;0;327;3894;928;2;0.4903047;-0.4584487;-0.5096953;-0.5381791;0;1;0;-197;4074;21;8;0.6385041;-0.7662448;-0.07063711;0.01385042;0;0;0;-547;3997;729;0.4722069;2.796653;-0.3363594;0.4780242;3.326794;-0.2077539;0.4831428;3.793262;-0.09667556;0.4449372;4.466185;0.1934601;0.1688224;4.765662;0.2873854;-0.1632181;4.592799;0.2899413;-0.8213062;4.806412;-0.3261908;-0.5163699;5.48842;-0.9090074;0.6883296;4.795161;0.2873856;0.9855012;4.658023;0.2899418;1.730619;4.906408;-0.2680722;1.907286;5.564202;-0.9267696;0.1599861;2.757661;-0.3545252;0.2357538;1.299444;-0.2611369;0;0;0;0.1599861;2.757661;-0.3545252;0.2357538;1.299444;-0.2611369;0;0;0
156106.6439;NotLabelled;NONE;16384;0.854235;0.2534626;0.3060942;0.33518;2;-8;0;3022;-928;2751;65536;0.859139;0.333795;-0.2936288;0.2534626;-1;-4;0;-933;-3408;-2343;8192;0.8353913;0.2839335;-0.3753462;-0.2839335;0;1;-2;-2884;-1041;2849;32768;0.9163241;0.3850415;-0.08310249;-0.07202215;-4;-5;-3;883;-3127;-2710;256;0.0166205;0.02631579;-0.5498615;-0.8346757;0;-1;-1;-275;3798;-1559;128;0.0567867;-0.01108033;0.5096953;0.8584074;0;-1;0;-323;3667;1920;4;0.5096953;-0.5677961;0.4584487;0.4556787;0;0;0;-201;4148;-216;16;0.599723;-0.7597114;-0.1260388;-0.2174515;1;0;0;295;3908;966;2;0.4903047;-0.4584487;-0.5096953;-0.5381791;0;1;0;-245;4108;35;8;0.6385041;-0.7662448;-0.07063711;0.01385042;0;0;0;-541;4031;709;0.4712071;2.797724;-0.3318565;0.477024;3.327832;-0.203118;0.4821424;3.794273;-0.09192267;0.4439417;4.467196;0.1982136;0.1678284;4.766672;0.2921435;-0.1642119;4.593808;0.294705;-0.8223225;4.807268;-0.3214564;-0.5183109;5.491195;-0.9025053;0.6873356;4.796171;0.2921349;0.9845071;4.659034;0.2946862;1.729605;4.907278;-0.2634176;1.907254;5.564779;-0.9221437;0.1589864;2.758736;-0.350033;0.2347557;1.300519;-0.2566462;0;0;0;0.1589864;2.758736;-0.350033;0.2347557;1.300519;-0.2566462;0;0;0
156127.6791;NotLabelled;NONE;16384;0.8532778;0.2548476;0.3060942;0.3365651;0;-11;1;3170;-976;2697;65536;0.8582543;0.333795;-0.2950138;0.2548476;-5;-13;0;-945;-3308;-2235;8192;0.8355406;0.2853186;-0.3739612;-0.2839335;0;-3;-5;-2866;-1123;2599;32768;0.9167783;0.3836565;-0.08448754;-0.07202215;-5;1;1;1057;-2997;-2764;256;0.01800554;0.02631579;-0.5498615;-0.834647;0;0;0;-245;3760;-1683;128;0.0567867;-0.01108033;0.5110803;0.8575835;2;0;0;-361;3599;1956;4;0.5096953;-0.5677961;0.4584487;0.4556787;0;0;1;-175;4068;-218;16;0.599723;-0.7597114;-0.1260388;-0.2174515;1;0;0;329;3916;926;2;0.4903047;-0.4584487;-0.5096953;-0.5381791;0;0;-1;-273;4138;-5;8;0.6385041;-0.7662448;-0.07063711;0.01385042;0;0;0;-553;4011;699;0.4712129;2.797724;-0.3318541;0.4770299;3.327832;-0.2031157;0.4821483;3.794273;-0.0919205;0.4439425;4.467196;0.1982152;0.1678277;4.766672;0.2921404;-0.1642128;4.593809;0.2946964;-0.8220524;4.804383;-0.3227461;-0.5191332;5.488823;-0.9037616;0.6873349;4.796171;0.2921406;0.9845065;4.659034;0.294697;1.729625;4.907417;-0.2633173;1.909681;5.564639;-0.921669;0.1589921;2.758736;-0.3500306;0.2347599;1.300519;-0.2566423;0;0;0;0.1589921;2.758736;-0.3500306;0.2347599;1.300519;-0.2566423;0;0;0
156149.4913;NotLabelled;NONE;16384;0.8532261;0.2548476;0.3047091;0.3379501;1;3;4;3240;-946;2629;65536;0.8584375;0.3310249;-0.2963989;0.2562327;-12;1;1;-883;-3126;-2473;8192;0.8355406;0.2853186;-0.3739612;-0.2839335;1;0;-5;-2798;-1131;2635;32768;0.9167783;0.3836565;-0.08448754;-0.07202215;-7;-1;4;1069;-2907;-2622;256;0.01800554;0.02493075;-0.5498615;-0.8346895;0;0;0;-227;3794;-1677;128;0.0567867;-0.009695291;0.5110803;0.8576002;2;0;0;-383;3701;1912;4;0.5096953;-0.5677961;0.4584487;0.4556787;0;0;1;-167;4066;-266;16;0.599723;-0.7597114;-0.1260388;-0.2174515;0;0;0;329;3932;970;2;0.4903047;-0.4584487;-0.5096953;-0.5381791;0;0;-1;-229;4132;-9;8;0.6385041;-0.7662448;-0.07063711;0.01385042;1;0;0;-539;4005;709;0.4717471;2.797782;-0.3317482;0.4775686;3.328304;-0.2047227;0.4826909;3.795101;-0.09503465;0.4429268;4.467947;0.1950694;0.1661192;4.766788;0.28898;-0.1655202;4.593157;0.291543;-0.8234961;4.804688;-0.3254266;-0.5187698;5.490007;-0.9044563;0.6855567;4.797489;0.2889802;0.9830449;4.66104;0.2915437;1.727514;4.912499;-0.2659593;1.910824;5.567456;-0.9256684;0.1595257;2.758736;-0.3497875;0.2351508;1.300519;-0.256284;0;0;0;0.1595257;2.758736;-0.3497875;0.2351508;1.300519;-0.256284;0;0;0
156169.4916;NotLabelled;NONE;16384;0.8537734;0.2548476;0.3047091;0.3365651;4;6;6;3044;-964;2451;65536;0.8589703;0.3296399;-0.2963989;0.2562327;-8;2;2;-867;-3018;-2711;8192;0.8366282;0.2853186;-0.3725762;-0.2825485;0;-1;-5;-2898;-1099;2695;32768;0.9174832;0.3822715;-0.08310249;-0.07202215;-6;-1;5;599;-2841;-2712;256;0.01800554;0.02493075;-0.5498615;-0.8346895;0;0;0;-257;3796;-1631;128;0.0567867;-0.01108033;0.5110803;0.8575835;2;0;0;-341;3629;1954;4;0.5096953;-0.5666818;0.4584487;0.4570637;1;0;1;-241;4090;-204;16;0.599723;-0.7597114;-0.1260388;-0.2174515;0;0;0;251;3960;1004;2;0.4903047;-0.4584487;-0.5096953;-0.5381791;0;0;-1;-197;4066;29;8;0.6385041;-0.7662448;-0.07063711;0.01385042;0;0;0;-487;4013;763;0.4725571;2.797781;-0.3313749;0.4783786;3.328294;-0.2043141;0.4835009;3.795084;-0.09459494;0.4447617;4.468;0.1954833;0.1684096;4.767267;0.2893816;-0.1634941;4.594142;0.2919505;-0.8183635;4.80573;-0.3282959;-0.5095149;5.488106;-0.9086168;0.6878934;4.797177;0.2893821;0.9851732;4.660275;0.2919517;1.731061;4.911734;-0.2636523;1.915898;5.56669;-0.9229347;0.1603357;2.758736;-0.349417;0.2357441;1.300519;-0.2557386;0;0;0;0.1603357;2.758736;-0.349417;0.2357441;1.300519;-0.2557386;0;0;0
156189.5005;NotLabelled;NONE;16384;0.8546784;0.2534626;0.3033241;0.3365651;7;0;5;2926;-970;2323;65536;0.8593823;0.3296399;-0.2963989;0.2548476;-3;2;3;-1015;-2996;-2967;8192;0.8366282;0.2853186;-0.3725762;-0.2825485;3;-2;-6;-2826;-1145;2551;32768;0.9175908;0.3822715;-0.08310249;-0.07063711;-3;3;5;703;-2837;-2992;256;0.01800554;0.02493075;-0.5498615;-0.8346895;-1;0;0;-233;3752;-1581;128;0.0567867;-0.01108033;0.5110803;0.8575835;0;0;0;-367;3581;1980;4;0.5096953;-0.5666818;0.4584487;0.4570637;0;0;0;-249;4134;-244;16;0.599723;-0.7597114;-0.1260388;-0.2174515;0;0;0;321;3998;1042;2;0.4903047;-0.4584487;-0.5096953;-0.5381791;1;0;0;-209;4098;45;8;0.6385041;-0.7662448;-0.07063711;0.01385042;1;0;0;-555;4021;695;0.4718283;2.797978;-0.327661;0.4776497;3.328499;-0.2006356;0.482772;3.795297;-0.09094759;0.4440314;4.468214;0.1991304;0.167679;4.76748;0.2930275;-0.1642246;4.594354;0.2955949;-0.8187478;4.807024;-0.3246469;-0.5089627;5.487479;-0.9067211;0.6871626;4.79739;0.2930303;0.9844425;4.660488;0.2956011;1.728086;4.914331;-0.2619227;1.910389;5.567582;-0.9235995;0.1596069;2.758932;-0.3457003;0.2357451;1.300519;-0.2557376;0;0;0;0.1596069;2.758932;-0.3457003;0.2357451;1.300519;-0.2557376;0;0;0
156210.49;NotLabelled;NONE;16384;0.8546222;0.2534626;0.301939;0.3379501;9;-3;5;2968;-1060;2439;65536;0.8603885;0.3282548;-0.2950138;0.2548476;1;0;2;-1145;-2916;-2903;8192;0.8372436;0.2853186;-0.3711911;-0.2825485;4;1;-6;-2730;-1199;2545;32768;0.9177152;0.3822715;-0.08171745;-0.07063711;1;-4;3;707;-2793;-3018;256;0.01800554;0.02493075;-0.5498615;-0.8346895;0;0;-1;-231;3786;-1599;128;0.05540166;-0.009695291;0.5110803;0.8576908;0;-1;0;-351;3609;1930;4;0.5096953;-0.5666818;0.4584487;0.4570637;0;1;0;-235;4026;-288;16;0.599723;-0.7597114;-0.1260388;-0.2174515;0;0;0;259;3920;996;2;0.4903047;-0.4584487;-0.5096953;-0.5381791;0;1;-1;-193;4118;3;8;0.6385041;-0.7662448;-0.07063711;0.01385042;1;0;0;-539;3981;741;0.4718275;2.797978;-0.3276614;0.477649;3.328499;-0.200636;0.4827713;3.795297;-0.09094795;0.444032;4.468214;0.1991302;0.1676798;4.76748;0.2930284;-0.1642239;4.594354;0.2955972;-0.8162683;4.80608;-0.3275719;-0.5053896;5.486015;-0.9096714;0.6871636;4.79739;0.2930292;0.9844435;4.660488;0.2955988;1.728082;4.914293;-0.2619483;1.909397;5.567839;-0.9236048;0.159606;2.758932;-0.3457009;0.2357443;1.300519;-0.2557386;0;0;0;0.159606;2.758932;-0.3457009;0.2357443;1.300519;-0.2557386;0;0;0
156230.5653;NotLabelled;NONE;16384;0.8551103;0.2534626;0.300554;0.3379501;10;-5;4;2978;-974;2513;65536;0.8603885;0.3282548;-0.2950138;0.2548476;4;-5;0;-991;-2858;-2973;8192;0.8379982;0.2853186;-0.368421;-0.2839335;7;2;-5;-2714;-1163;2733;32768;0.9178208;0.3822715;-0.08171745;-0.06925207;4;-2;1;775;-2659;-3010;256;0.01800554;0.02493075;-0.5498615;-0.8346895;0;0;0;-227;3724;-1671;128;0.05540166;-0.009695291;0.5110803;0.8576908;1;-1;0;-347;3633;1972;4;0.5096953;-0.5666818;0.4584487;0.4570637;1;0;0;-257;4070;-246;16;0.599723;-0.7597114;-0.1260388;-0.2174515;1;0;0;249;3884;980;2;0.4903047;-0.4584487;-0.5096953;-0.5381791;0;1;0;-257;4112;45;8;0.6385041;-0.7662448;-0.07063711;0.01385042;1;0;0;-515;4013;717;0.4718196;2.797973;-0.3276503;0.4776407;3.328454;-0.2004602;0.4827626;3.795218;-0.09062727;0.4440294;4.468134;0.1994521;0.1676793;4.767401;0.2933563;-0.1642243;4.594275;0.2959322;-0.8147557;4.805871;-0.3288599;-0.5049856;5.483507;-0.9142212;0.6871631;4.797311;0.2933459;0.984443;4.660409;0.2959091;1.726219;4.915133;-0.2636973;1.905121;5.568957;-0.9257377;0.1595983;2.758932;-0.3457029;0.2357386;1.300519;-0.255743;0;0;0;0.1595983;2.758932;-0.3457029;0.2357386;1.300519;-0.255743;0;0;0
156271.8039;NotLabelled;NONE;16384;0.8553896;0.2520775;0.2977839;0.3407202;10;-7;3;2930;-1018;2639;65536;0.858556;0.3296399;-0.2963989;0.2576177;8;-6;-2;-1113;-2870;-2965;8192;0.8384685;0.2839335;-0.368421;-0.2839335;5;2;-3;-2630;-1137;2779;32768;0.9179242;0.3822715;-0.08171745;-0.06786703;3;-6;1;807;-2587;-3012;256;0.01800554;0.02493075;-0.5498615;-0.8346895;0;0;0;-213;3752;-1715;128;0.05540166;-0.009695291;0.5124654;0.856864;2;0;0;-327;3639;2020;4;0.5096953;-0.5666818;0.4584487;0.4570637;1;-1;0;-309;4146;-138;16;0.599723;-0.7597114;-0.1260388;-0.2174515;0;1;0;265;3992;970;2;0.4903047;-0.4584487;-0.5096953;-0.5381791;0;1;0;-289;4118;55;8;0.6385041;-0.7662448;-0.07063711;0.01385042;1;0;0;-557;4013;725;0.471827;2.797972;-0.3276485;0.4776481;3.328454;-0.2004583;0.4827701;3.795218;-0.09062539;0.4440309;4.468134;0.1994527;0.1676788;4.7674;0.2933513;-0.1642248;4.594275;0.2959201;-0.8128412;4.80716;-0.3304233;-0.5030588;5.484796;-0.915779;0.6871625;4.79731;0.2933516;0.9844425;4.660409;0.295921;1.722972;4.916251;-0.2674559;1.900902;5.570364;-0.929471;0.1596056;2.758932;-0.345701;0.235744;1.300519;-0.2557387;0;0;0;0.1596056;2.758932;-0.345701;0.235744;1.300519;-0.2557387;0;0;0
156293.5458;NotLabelled;NONE;16384;0.8557248;0.2506925;0.2963989;0.3421052;7;-4;2;3110;-906;2667;65536;0.8571863;0.3310249;-0.2963989;0.2603878;12;-4;-1;-1025;-3024;-2769;8192;0.8390757;0.2839335;-0.367036;-0.2839335;1;-1;-1;-2726;-1057;2907;32768;0.9180005;0.3822715;-0.08310249;-0.06509695;1;-7;-1;763;-2649;-2948;256;0.01800554;0.02631579;-0.5498615;-0.834647;-1;0;-1;-273;3828;-1675;128;0.05540166;-0.009695291;0.5124654;0.856864;1;0;0;-345;3675;1972;4;0.5083103;-0.5679244;0.4584487;0.4570637;1;0;0;-167;4074;-264;16;0.599723;-0.7597114;-0.1260388;-0.2174515;1;0;0;199;3904;964;2;0.4903047;-0.4570637;-0.5110803;-0.5380436;0;0;-1;-225;4136;-3;8;0.6385041;-0.7662448;-0.07063711;0.01385042;0;0;0;-563;4009;683;0.471904;2.798031;-0.3277502;0.4777296;3.328921;-0.2022759;0.4828554;3.796037;-0.09395269;0.4440519;4.468954;0.1961169;0.1676791;4.76822;0.289954;-0.1642252;4.595094;0.2924494;-0.8088229;4.80816;-0.3379676;-0.5000091;5.489135;-0.9199507;0.6871626;4.79813;0.2900695;0.984442;4.661228;0.2927048;1.72278;4.916911;-0.2709955;1.89987;5.571313;-0.9329492;0.159682;2.758932;-0.3456653;0.2358005;1.300519;-0.2556862;0;0;0;0.159682;2.758932;-0.3456653;0.2358005;1.300519;-0.2556862;0;0;0
156334.4944;NotLabelled;NONE;16384;0.8560532;0.2493075;0.2950138;0.3434903;4;-1;2;3136;-884;2869;65536;0.8566502;0.33241;-0.2963989;0.2603878;9;0;1;-957;-3054;-2625;8192;0.8390757;0.2839335;-0.367036;-0.2839335;-1;-2;1;-2758;-1079;2893;32768;0.917874;0.3822715;-0.08448754;-0.06509695;-2;-4;-2;717;-2793;-2826;256;0.01800554;0.02631579;-0.5512465;-0.8337329;-2;1;0;-255;3754;-1699;128;0.05540166;-0.01108033;0.5124654;0.8568472;2;3;0;-329;3635;2004;4;0.5083103;-0.5679244;0.4584487;0.4570637;2;-2;0;-167;4098;-170;16;0.599723;-0.7597114;-0.1260388;-0.2174515;1;1;0;267;3944;996;2;0.4903047;-0.4570637;-0.5110803;-0.5380436;0;0;-1;-285;4046;-7;8;0.6385041;-0.7662448;-0.07063711;0.01385042;1;1;0;-527;3971;715;0.4674076;2.797583;-0.3321941;0.4732332;3.328472;-0.2067199;0.478359;3.795589;-0.0983967;0.4385948;4.468435;0.1917073;0.1617872;4.767276;0.2856178;-0.1698523;4.593644;0.2881808;-0.8140349;4.802747;-0.3439852;-0.5098392;5.486672;-0.92494;0.6812246;4.797978;0.2856181;0.9787129;4.661529;0.2881817;1.713614;4.916478;-0.2803225;1.889447;5.571195;-0.9423012;0.1551857;2.758484;-0.3501093;0.235151;1.300519;-0.2562841;0;0;0;0.1551857;2.758484;-0.3501093;0.235151;1.300519;-0.2562841;0;0;0
156354.5141;NotLabelled;NONE;16384;0.8560532;0.2493075;0.2950138;0.3434903;3;-1;0;3058;-866;2771;65536;0.8561114;0.333795;-0.2963989;0.2603878;6;1;3;-987;-3006;-2515;8192;0.8400103;0.2825485;-0.367036;-0.2825485;-2;-3;1;-2762;-1127;2711;32768;0.9184183;0.3808864;-0.08587258;-0.06371191;-2;-8;-1;909;-2797;-2832;256;0.01800554;0.02631579;-0.5512465;-0.8337329;-1;2;0;-227;3780;-1707;128;0.0567867;-0.01108033;0.5124654;0.8567565;3;3;0;-295;3633;2030;4;0.5083103;-0.566807;0.4584487;0.4584487;1;-2;0;-195;4088;-278;16;0.601108;-0.758616;-0.1260388;-0.2174515;1;0;0;303;3980;960;2;0.4903047;-0.4570637;-0.5096953;-0.5393559;0;0;-2;-247;4074;1;8;0.6385041;-0.7662448;-0.07063711;0.01385042;1;0;0;-479;4047;761;0.4674418;2.797584;-0.3321817;0.4732675;3.328482;-0.2067416;0.4783934;3.795605;-0.0984485;0.4385456;4.469408;0.1894141;0.1617078;4.768548;0.2822787;-0.1699252;4.594913;0.2853526;-0.8118598;4.802092;-0.3497269;-0.5085493;5.487929;-0.9288871;0.6811441;4.79927;0.2822788;0.978637;4.662843;0.2853532;1.713591;4.917792;-0.2830822;1.891889;5.572246;-0.9446614;0.1552199;2.758484;-0.3500941;0.2351761;1.300519;-0.256261;0;0;0;0.1552199;2.758484;-0.3500941;0.2351761;1.300519;-0.256261;0;0;0
156375.5282;NotLabelled;NONE;16384;0.8560532;0.2493075;0.2950138;0.3434903;0;0;0;3032;-884;2755;65536;0.8565897;0.333795;-0.2950138;0.2603878;3;6;5;-1041;-2982;-2453;8192;0.8389363;0.2839335;-0.368421;-0.2825485;-4;-3;1;-2756;-1043;2787;32768;0.9185134;0.3808864;-0.08587258;-0.06232687;-4;-5;-1;581;-2777;-2786;256;0.0166205;0.02770083;-0.5512465;-0.8337168;-1;2;0;-275;3750;-1631;128;0.0567867;-0.01108033;0.5124654;0.8567565;0;2;0;-359;3609;1980;4;0.5083103;-0.566807;0.4584487;0.4584487;1;-2;0;-177;4036;-286;16;0.601108;-0.758616;-0.1260388;-0.2174515;1;0;0;299;3970;1008;2;0.4903047;-0.4570637;-0.5096953;-0.5393559;0;0;-1;-243;4134;47;8;0.6385041;-0.7662448;-0.07063711;0.01385042;0;0;0;-525;4033;689;0.4657314;2.798844;-0.3239572;0.4715573;3.329772;-0.1986474;0.4766835;3.796923;-0.09046897;0.4368308;4.470726;0.1973929;0.1599913;4.769866;0.2902526;-0.1716418;4.59623;0.2933209;-0.8135499;4.803565;-0.3417345;-0.5111732;5.491311;-0.9191177;0.6794276;4.800588;0.2902618;0.9769206;4.66416;0.2933415;1.711016;4.918489;-0.2764794;1.890616;5.570982;-0.9396423;0.1535093;2.75974;-0.3418593;0.2341772;1.301579;-0.2517534;0;0;0;0.1535093;2.75974;-0.3418593;0.2341772;1.301579;-0.2517534;0;0;0
156397.4922;NotLabelled;NONE;16384;0.8561293;0.2493075;0.2963989;0.3421052;-1;1;0;2968;-818;2639;65536;0.8569983;0.33518;-0.2922437;0.2603878;1;6;6;-1113;-2956;-2605;8192;0.8394014;0.2839335;-0.368421;-0.2811634;-5;-3;2;-2788;-1079;2763;32768;0.9190865;0.3795014;-0.08587258;-0.06232687;-3;0;-2;589;-2853;-2930;256;0.0166205;0.02770083;-0.5512465;-0.8337168;-1;2;0;-225;3774;-1597;128;0.05817174;-0.01108033;0.5124654;0.8566636;-1;3;0;-351;3571;2010;4;0.5069252;-0.5680461;0.4584487;0.4584487;0;-3;0;-175;4076;-212;16;0.601108;-0.758616;-0.1260388;-0.2174515;0;0;0;303;3926;1034;2;0.4903047;-0.4570637;-0.5096953;-0.5393559;0;1;-1;-219;4090;15;8;0.6385041;-0.7661158;-0.07202215;0.01385042;1;0;0;-517;3991;691;0.4657255;2.798844;-0.3239597;0.4715516;3.329772;-0.19865;0.4766777;3.796923;-0.09047162;0.4362541;4.470732;0.1972951;0.1592965;4.770082;0.2891227;-0.1724819;4.596706;0.290909;-0.8118199;4.804443;-0.3466031;-0.5114695;5.491807;-0.925496;0.6787528;4.800396;0.2911189;0.9761248;4.663735;0.2953229;1.714881;4.9183;-0.2683361;1.893485;5.571086;-0.9314784;0.1535035;2.75974;-0.3418618;0.2341729;1.301579;-0.2517575;0;0;0;0.1535035;2.75974;-0.3418618;0.2341729;1.301579;-0.2517575;0;0;0
156417.558;NotLabelled;NONE;16384;0.8561293;0.2493075;0.2963989;0.3421052;0;2;1;2980;-894;2567;65536;0.8578888;0.33518;-0.2908587;0.2590028;1;6;6;-1135;-3040;-2537;8192;0.8387922;0.2839335;-0.3698061;-0.2811634;-3;-4;1;-2798;-1133;2587;32768;0.9190865;0.3795014;-0.08587258;-0.06232687;0;2;-3;665;-2765;-2958;256;0.0166205;0.02770083;-0.5512465;-0.8337168;0;1;0;-251;3740;-1615;128;0.05817174;-0.01108033;0.5124654;0.8566636;0;2;0;-315;3667;1938;4;0.5069252;-0.5680461;0.4584487;0.4584487;0;-2;0;-171;4020;-224;16;0.601108;-0.758616;-0.1260388;-0.2174515;0;0;0;357;3964;990;2;0.4903047;-0.4570637;-0.5096953;-0.5393559;0;1;0;-219;4102;7;8;0.6385041;-0.7662448;-0.07063711;0.01385042;1;0;0;-535;4049;639;0.4607758;2.798302;-0.3292682;0.4666021;3.329262;-0.2040922;0.4717285;3.79644;-0.09603141;0.4324116;4.470321;0.1917188;0.1558092;4.769695;0.2845354;-0.1759599;4.59632;0.2876412;-0.8243066;4.803254;-0.3409715;-0.531174;5.491613;-0.9223766;0.6752694;4.800009;0.2845264;0.9726555;4.663349;0.2876214;1.704259;4.919533;-0.2845688;1.880186;5.570153;-0.95055;0.1485537;2.759193;-0.3471596;0.2332031;1.301515;-0.2529839;0;0;0;0.1485537;2.759193;-0.3471596;0.2332031;1.301515;-0.2529839;0;0;0
156438.5428;NotLabelled;NONE;16384;0.8561293;0.2493075;0.2963989;0.3421052;1;2;1;2916;-892;2517;65536;0.8583571;0.33518;-0.2894737;0.2590028;0;4;5;-1161;-2962;-2539;8192;0.8387922;0.2839335;-0.3698061;-0.2811634;-1;-2;2;-2790;-1133;2531;32768;0.918861;0.3795014;-0.08725762;-0.06371191;2;5;-1;699;-2721;-2876;256;0.01523546;0.02770083;-0.5512465;-0.8337432;0;1;0;-293;3756;-1591;128;0.05817174;-0.01108033;0.5124654;0.8566636;0;0;0;-413;3647;1914;4;0.5069252;-0.5680461;0.4584487;0.4584487;0;0;0;-153;4102;-314;16;0.601108;-0.758616;-0.1260388;-0.2174515;0;0;0;241;3912;954;2;0.4903047;-0.4556787;-0.5110803;-0.5392172;0;1;0;-297;4056;53;8;0.6385041;-0.7661158;-0.07202215;0.01385042;1;0;0;-555;4061;665;0.4607766;2.798389;-0.3285731;0.4666029;3.32935;-0.2033971;0.4717294;3.796527;-0.09533629;0.4324117;4.470336;0.1925836;0.155809;4.769686;0.2854747;-0.1759601;4.596311;0.2885359;-0.8218961;4.803403;-0.342502;-0.5296829;5.491026;-0.9252382;0.6752692;4.800001;0.2854748;0.9726552;4.66334;0.2885361;1.708305;4.918584;-0.2788658;1.884234;5.569371;-0.9446827;0.1485545;2.759281;-0.3464644;0.2332037;1.301579;-0.2526556;0;0;0;0.1485545;2.759281;-0.3464644;0.2332037;1.301579;-0.2526556;0;0;0
156459.5233;NotLabelled;NONE;16384;0.8566076;0.2493075;0.2950138;0.3421052;1;0;1;2922;-932;2537;65536;0.8579379;0.33518;-0.2894737;0.2603878;1;1;3;-1163;-2906;-2599;8192;0.8387922;0.2839335;-0.3698061;-0.2811634;0;0;2;-2716;-1129;2645;32768;0.9181906;0.3808864;-0.08725762;-0.06509695;2;4;1;873;-2805;-2812;256;0.01523546;0.02770083;-0.5512465;-0.8337432;0;0;0;-255;3748;-1637;128;0.05817174;-0.01108033;0.5124654;0.8566636;0;0;0;-343;3649;1968;4;0.5069252;-0.5669255;0.4584487;0.4598338;0;1;0;-145;4112;-268;16;0.601108;-0.758616;-0.1260388;-0.2174515;1;1;0;267;3936;1016;2;0.4903047;-0.4556787;-0.5110803;-0.5392172;0;0;-1;-287;4106;-11;8;0.6385041;-0.7661158;-0.07202215;0.01385042;0;0;0;-535;4023;665;0.4602471;2.798389;-0.3287994;0.4660735;3.32935;-0.2036233;0.4711999;3.796527;-0.09556247;0.433441;4.470414;0.1923841;0.1575314;4.770398;0.2852877;-0.1746376;4.597791;0.2883425;-0.8224872;4.804883;-0.3407301;-0.5332037;5.492125;-0.9253763;0.6770604;4.799512;0.285288;0.9741294;4.662164;0.2883434;1.708053;4.917408;-0.2812902;1.886347;5.56764;-0.9470199;0.148025;2.75928;-0.3466907;0.2328174;1.301579;-0.2530113;0;0;0;0.148025;2.75928;-0.3466907;0.2328174;1.301579;-0.2530113;0;0;0
156480.5059;NotLabelled;NONE;16384;0.8566076;0.2493075;0.2950138;0.3421052;0;0;0;2996;-934;2615;65536;0.858404;0.33518;-0.2880886;0.2603878;0;0;2;-1135;-2956;-2553;8192;0.8387922;0.2839335;-0.3698061;-0.2811634;0;1;2;-2828;-1191;2693;32768;0.9183212;0.3808864;-0.08587258;-0.06509695;4;-1;0;797;-2901;-3020;256;0.01523546;0.02770083;-0.5512465;-0.8337432;0;1;0;-275;3732;-1583;128;0.05817174;-0.01246537;0.5124654;0.8566446;-1;1;0;-325;3629;1956;4;0.5069252;-0.5680428;0.4570637;0.4598338;3;4;1;-99;4096;-344;16;0.601108;-0.758616;-0.1260388;-0.2174515;0;0;0;297;3946;968;2;0.4903047;-0.4556787;-0.5096953;-0.5405266;0;0;-1;-283;4122;31;8;0.6398892;-0.7649593;-0.07202215;0.01385042;1;0;0;-545;3979;677;0.4602471;2.798389;-0.3287994;0.4660735;3.32935;-0.2036233;0.4711999;3.796527;-0.09556247;0.433441;4.470414;0.1923841;0.1575314;4.770398;0.2852877;-0.1746376;4.597791;0.2883425;-0.8224872;4.804883;-0.3407301;-0.5332037;5.492125;-0.9253763;0.6770604;4.799512;0.285288;0.9741294;4.662164;0.2883434;1.708053;4.917408;-0.2812902;1.886347;5.56764;-0.9470199;0.148025;2.75928;-0.3466907;0.2328174;1.301579;-0.2530113;0;0;0;0.148025;2.75928;-0.3466907;0.2328174;1.301579;-0.2530113;0;0;0
156502.4938;NotLabelled;NONE;16384;0.8575611;0.2479224;0.2950138;0.3407202;2;3;1;2938;-984;2517;65536;0.8592863;0.33518;-0.2867036;0.2590028;2;2;6;-991;-3008;-2757;8192;0.8383266;0.2839335;-0.3698061;-0.2825485;0;1;0;-2928;-1157;2793;32768;0.9177455;0.3822715;-0.08587258;-0.06509695;6;2;1;775;-2861;-2874;256;0.01523546;0.02770083;-0.5512465;-0.8337432;0;0;1;-285;3866;-1697;128;0.05955679;-0.01246537;0.5110803;0.8573765;0;2;0;-305;3699;2074;4;0.5083103;-0.5668036;0.4570637;0.4598338;-1;-3;3;-293;4086;-354;16;0.601108;-0.7583846;-0.1274238;-0.2174515;0;0;0;343;3956;978;2;0.4903047;-0.4556787;-0.5096953;-0.5405266;0;0;-1;-231;4110;-9;8;0.6398892;-0.7649593;-0.07202215;0.01385042;0;0;0;-567;4075;673;0.4560075;2.79838;-0.3249533;0.461834;3.329348;-0.1998128;0.4669605;3.796533;-0.09178318;0.4292002;4.47042;0.1961632;0.1532902;4.770404;0.2890654;-0.1788789;4.597796;0.2921187;-0.8238698;4.80603;-0.3395096;-0.5377336;5.493378;-0.9255778;0.6728191;4.799518;0.2890682;0.9698882;4.662169;0.2921249;1.704686;4.917452;-0.276362;1.881696;5.569649;-0.9405113;0.1437854;2.75927;-0.3428417;0.2328184;1.301579;-0.2530102;0;0;0;0.1437854;2.75927;-0.3428417;0.2328184;1.301579;-0.2530102;0;0;0
156523.5169;NotLabelled;NONE;16384;0.8575611;0.2479224;0.2950138;0.3407202;4;0;1;2930;-982;2573;65536;0.8597472;0.33518;-0.2853186;0.2590028;3;0;5;-1111;-3010;-2641;8192;0.8383266;0.2839335;-0.3698061;-0.2825485;1;0;1;-2892;-1115;2749;32768;0.9171674;0.3836565;-0.08587258;-0.06509695;6;6;2;805;-2861;-2804;256;0.01523546;0.02770083;-0.5512465;-0.8337432;0;0;0;-249;3802;-1709;128;0.05955679;-0.01246537;0.5110803;0.8573765;-2;1;-1;-377;3605;1966;4;0.5069252;-0.5669187;0.4570637;0.4612188;0;-3;2;-299;4124;-316;16;0.601108;-0.758616;-0.1260388;-0.2174515;0;-2;0;397;3890;1106;2;0.4903047;-0.4556787;-0.5096953;-0.5405266;0;-1;-1;-199;4066;39;8;0.6398892;-0.7649593;-0.07202215;0.01385042;0;0;0;-535;3989;689;0.4572692;2.799222;-0.3207476;0.4630916;3.329817;-0.1940286;0.4682147;3.796678;-0.08461014;0.4304558;4.470565;0.2033366;0.1545463;4.770549;0.2962402;-0.1776226;4.597941;0.2992952;-0.8215399;4.805128;-0.3337712;-0.5363449;5.4916;-0.9213226;0.6740752;4.799663;0.2962403;0.9711443;4.662314;0.2992956;1.706466;4.91632;-0.2690862;1.883609;5.570511;-0.9312363;0.1450477;2.760165;-0.3387623;0.2304414;1.302016;-0.252941;0;0;0;0.1450477;2.760165;-0.3387623;0.2304414;1.302016;-0.252941;0;0;0
156564.5057;NotLabelled;NONE;16384;0.8575611;0.2479224;0.2950138;0.3407202;3;0;0;2928;-968;2649;65536;0.8593287;0.33518;-0.2853186;0.2603878;2;0;3;-1173;-2954;-2583;8192;0.8383266;0.2839335;-0.3698061;-0.2825485;0;0;1;-2730;-1091;2721;32768;0.916616;0.3850415;-0.08448754;-0.06648199;2;0;1;731;-2909;-2778;256;0.01523546;0.02770083;-0.5512465;-0.8337432;1;0;0;-221;3816;-1689;128;0.05955679;-0.01246537;0.5110803;0.8573765;-3;0;0;-365;3615;1980;4;0.5069252;-0.5657993;0.4584487;0.4612188;-1;-7;2;-335;4160;-150;16;0.601108;-0.758616;-0.1260388;-0.2174515;0;-1;0;331;3956;1092;2;0.4903047;-0.4556787;-0.5096953;-0.5405266;0;0;0;-163;4154;59;8;0.6398892;-0.7650885;-0.07063711;0.01385042;1;0;0;-511;3975;677;0.4553308;2.798512;-0.3210729;0.4611531;3.329106;-0.1943539;0.4662762;3.795967;-0.08493553;0.4285172;4.469854;0.203011;0.1526076;4.769839;0.2959144;-0.1795615;4.597231;0.2989691;-0.823604;4.804417;-0.3339697;-0.5404586;5.490502;-0.9229625;0.6721365;4.798952;0.2959149;0.9692055;4.661603;0.2989704;1.704414;4.915609;-0.2695569;1.881694;5.571789;-0.9297001;0.1431093;2.759455;-0.3390878;0.2328175;1.301579;-0.2530112;0;0;0;0.1431093;2.759455;-0.3390878;0.2328175;1.301579;-0.2530112;0;0;0
156585.4915;NotLabelled;NONE;16384;0.8575611;0.2479224;0.2950138;0.3407202;1;0;-1;2992;-962;2701;65536;0.8593287;0.33518;-0.2853186;0.2603878;1;0;1;-1115;-2904;-2609;8192;0.8383266;0.2839335;-0.3698061;-0.2825485;-1;0;2;-2830;-1057;2789;32768;0.9167154;0.3850415;-0.08448754;-0.06509695;0;-2;0;715;-2979;-2748;256;0.01523546;0.02770083;-0.5512465;-0.8337432;0;0;0;-237;3792;-1603;128;0.05955679;-0.01246537;0.5096953;0.8582006;-1;-1;-1;-347;3697;1868;4;0.5069252;-0.5657993;0.4584487;0.4612188;-2;-7;2;-327;4044;-96;16;0.601108;-0.758616;-0.1260388;-0.2174515;1;-1;-1;295;3894;1040;2;0.4903047;-0.4556787;-0.5096953;-0.5405266;0;0;0;-205;4176;51;8;0.6398892;-0.7650622;-0.07063711;0.01523546;1;0;0;-491;3993;675;0.4588949;2.79872;-0.3211778;0.4647172;3.329315;-0.1944588;0.4698403;3.796176;-0.08504038;0.4320813;4.470063;0.2029061;0.1561717;4.770048;0.2958095;-0.1759974;4.59744;0.2988642;-0.82004;4.804626;-0.3340745;-0.5379996;5.491194;-0.9230348;0.6757005;4.799161;0.2958101;0.9727697;4.661812;0.2988656;1.707979;4.915818;-0.2696618;1.883991;5.573952;-0.9281967;0.1466734;2.759664;-0.3391926;0.2328175;1.301579;-0.2530112;0;0;0;0.1466734;2.759664;-0.3391926;0.2328175;1.301579;-0.2530112;0;0;0
156605.6223;NotLabelled;NONE;16384;0.8579603;0.2465374;0.2950138;0.3407202;0;5;-4;2926;-928;2575;65536;0.8593287;0.33518;-0.2853186;0.2603878;0;0;1;-891;-2844;-2447;8192;0.8383266;0.2839335;-0.3698061;-0.2825485;-2;-2;2;-2894;-1165;2741;32768;0.9167154;0.3850415;-0.08448754;-0.06509695;-1;-5;0;767;-2811;-2722;256;0.01523546;0.02770083;-0.5512465;-0.8337432;-1;0;1;-191;3776;-1691;128;0.05955679;-0.01108033;0.5096953;0.8582196;0;0;-1;-369;3699;1988;4;0.5069252;-0.5646743;0.4598338;0.4612188;-1;-2;1;-221;4036;-312;16;0.601108;-0.7590116;-0.1260388;-0.2160665;2;-1;0;299;3942;1006;2;0.4903047;-0.4556787;-0.5096953;-0.5405266;-1;-1;0;-191;4068;61;8;0.6398892;-0.7650622;-0.07063711;0.01523546;1;0;0;-553;4019;739;0.4588203;2.798662;-0.3210721;0.4646382;3.328844;-0.1926395;0.4697573;3.79535;-0.08171327;0.4320607;4.469236;0.2062415;0.1561714;4.769221;0.2992048;-0.175997;4.596612;0.3023317;-0.820337;4.801754;-0.3309706;-0.5384241;5.488323;-0.9199919;0.6757001;4.798334;0.2990926;0.9727699;4.660985;0.3020836;1.707712;4.913154;-0.2676066;1.882587;5.57158;-0.92615;0.1465996;2.759664;-0.3392241;0.2327625;1.301579;-0.2530615;0;0;0;0.1465996;2.759664;-0.3392241;0.2327625;1.301579;-0.2530615;0;0;0
156625.5352;NotLabelled;NONE;16384;0.8580319;0.2465374;0.2963989;0.3393352;1;5;-6;2854;-930;2571;65536;0.8593287;0.33518;-0.2853186;0.2603878;-1;0;1;-953;-2748;-2395;8192;0.8378563;0.2853186;-0.3698061;-0.2825485;-3;-4;2;-2854;-1161;2611;32768;0.9168128;0.3850415;-0.08448754;-0.06371191;-1;-3;0;645;-2763;-2636;256;0.01523546;0.02770083;-0.5512465;-0.8337432;-2;0;1;-331;3840;-1677;128;0.05955679;-0.01108033;0.5110803;0.8573955;3;0;-1;-303;3691;1982;4;0.5055401;-0.5625128;0.4612188;0.4639889;-2;-9;1;-257;4044;-276;16;0.602493;-0.7579127;-0.1260388;-0.2160665;3;-3;0;269;3974;1006;2;0.4916897;-0.4556787;-0.5096953;-0.5392669;0;-2;0;-245;4058;-19;8;0.6398892;-0.7650622;-0.07063711;0.01523546;1;0;0;-545;4075;649;0.4598204;2.799031;-0.3226824;0.4656381;3.329205;-0.1942129;0.4707571;3.795702;-0.08325429;0.4329983;4.469589;0.2046923;0.1570888;4.769574;0.2975957;-0.1750803;4.596966;0.3006506;-0.8185018;4.802133;-0.3335766;-0.5364615;5.488701;-0.922537;0.6766177;4.798687;0.2975959;0.9736867;4.661339;0.3006513;1.708897;4.915345;-0.2678737;1.883914;5.573771;-0.9263793;0.1475995;2.760034;-0.3408373;0.2301722;1.30175;-0.2545506;0;0;0;0.1475995;2.760034;-0.3408373;0.2301722;1.30175;-0.2545506;0;0;0
156645.6925;NotLabelled;NONE;16384;0.8579491;0.2451524;0.2977839;0.3393352;3;6;-9;2754;-964;2463;65536;0.8593287;0.33518;-0.2853186;0.2603878;-3;-2;0;-975;-2670;-2261;8192;0.8377097;0.2853186;-0.3711911;-0.2811634;-1;-7;5;-2816;-1209;2599;32768;0.9168128;0.3850415;-0.08448754;-0.06371191;-2;0;3;613;-2631;-2468;256;0.01523546;0.02770083;-0.5512465;-0.8337432;-2;0;0;-267;3806;-1641;128;0.05955679;-0.01108033;0.5110803;0.8573955;2;-1;-1;-385;3689;2026;4;0.5055401;-0.5625128;0.4612188;0.4639889;-3;-6;2;-267;4076;-338;16;0.602493;-0.7579127;-0.1260388;-0.2160665;3;-2;0;287;3964;994;2;0.4916897;-0.4556787;-0.5096953;-0.5392669;0;-2;0;-209;4126;65;8;0.6398892;-0.7650622;-0.07063711;0.01523546;2;0;0;-507;4047;689;0.4575595;2.80026;-0.3148312;0.4633816;3.330845;-0.1880753;0.4685045;3.797698;-0.07862446;0.4306833;4.471585;0.209314;0.1547536;4.77157;0.3021578;-0.1774161;4.598961;0.3051407;-0.8221092;4.806091;-0.327155;-0.5399412;5.492659;-0.9160544;0.6742824;4.800683;0.3022704;0.971351;4.663335;0.3053903;1.707293;4.921154;-0.2604666;1.881459;5.579875;-0.9189052;0.145338;2.761204;-0.3328491;0.2292497;1.302797;-0.2499821;0;0;0;0.145338;2.761204;-0.3328491;0.2292497;1.302797;-0.2499821;0;0;0
156667.4911;NotLabelled;NONE;16384;0.8578619;0.2437673;0.299169;0.3393352;5;7;-14;2736;-864;2451;65536;0.8598676;0.333795;-0.2853186;0.2603878;-5;-4;-2;-849;-2432;-2117;8192;0.837412;0.2839335;-0.3739612;-0.2797784;3;-8;12;-2592;-1247;2541;32768;0.9176441;0.3836565;-0.08171745;-0.06371191;-7;11;8;293;-2333;-2220;256;0.01523546;0.02770083;-0.5512465;-0.8337432;-2;0;0;-289;3816;-1667;128;0.05955679;-0.009695291;0.5110803;0.8574123;0;-2;-1;-323;3645;1958;4;0.5055401;-0.5613743;0.4626039;0.4639889;-3;-8;2;-263;4062;-172;16;0.602493;-0.7579127;-0.1260388;-0.2160665;4;-4;0;251;3930;1022;2;0.4916897;-0.4556787;-0.5096953;-0.5392669;-1;-1;-1;-167;4126;93;8;0.6412742;-0.7639016;-0.07063711;0.01523546;2;0;0;-625;3999;673;0.4574872;2.800259;-0.3148626;0.4633095;3.330845;-0.1881067;0.4684324;3.797698;-0.07865575;0.4306735;4.471585;0.2092908;0.154764;4.771569;0.3021943;-0.1774051;4.598961;0.3052492;-0.8236709;4.800936;-0.3271081;-0.5416312;5.487504;-0.9160683;0.6742928;4.800683;0.3021946;0.9713619;4.663334;0.30525;1.708477;4.919477;-0.2598404;1.8825;5.578196;-0.9183166;0.1452658;2.761204;-0.3328803;0.2291955;1.302797;-0.2500315;0;0;0;0.1452658;2.761204;-0.3328803;0.2291955;1.302797;-0.2500315;0;0;0
156687.5019;NotLabelled;NONE;16384;0.8582208;0.2409972;0.301939;0.3379501;6;13;-21;2598;-954;2429;65536;0.8599435;0.33241;-0.2867036;0.2603878;-10;-7;-5;-703;-2232;-1949;8192;0.837727;0.2811634;-0.3753462;-0.2797784;6;-12;19;-2556;-1189;2491;32768;0.918268;0.3822715;-0.07894737;-0.06648199;-12;22;12;95;-1973;-1874;256;0.01523546;0.02631579;-0.5512465;-0.8337882;-3;-1;1;-233;3802;-1661;128;0.05817174;-0.009695291;0.5110803;0.8575074;0;-4;-1;-339;3685;2028;4;0.5055401;-0.5602267;0.4626039;0.4653739;-2;-5;2;-217;4054;-270;16;0.6038781;-0.7572037;-0.1260388;-0.2146814;4;-3;0;267;3950;976;2;0.4916897;-0.4556787;-0.5096953;-0.5392669;0;0;-1;-179;4142;97;8;0.6412742;-0.7639016;-0.07063711;0.01523546;1;1;0;-515;4003;669;0.4610806;2.800455;-0.3149655;0.4669027;3.331031;-0.1881725;0.4720256;3.797877;-0.07868887;0.4342667;4.471764;0.2092576;0.1583572;4.771749;0.3021612;-0.1738118;4.59914;0.3052163;-0.8213484;4.798002;-0.3268275;-0.5383857;5.482656;-0.9175714;0.6778861;4.800861;0.3021615;0.9749551;4.663513;0.3052167;1.714902;4.916744;-0.2574801;1.883991;5.573997;-0.9187025;0.1488591;2.7614;-0.3329862;0.2291954;1.302797;-0.2500317;0;0;0;0.1488591;2.7614;-0.3329862;0.2291954;1.302797;-0.2500317;0;0;0
156707.4993;NotLabelled;NONE;16384;0.8580945;0.232687;0.3102493;0.3365651;17;24;-36;1932;-942;2397;65536;0.8593588;0.3268698;-0.2922437;0.2631579;-25;-20;-8;-323;-1696;-1347;8192;0.8372413;0.2783934;-0.3795014;-0.2783934;11;-22;29;-2360;-1159;2375;32768;0.9188725;0.3808864;-0.07617728;-0.06925207;-21;34;14;-325;-1659;-1516;256;0.01523546;0.02631579;-0.5526316;-0.8328708;-4;-2;0;-213;3742;-1695;128;0.05817174;-0.008310249;0.5110803;0.857522;0;-4;-2;-335;3613;2066;4;0.5055401;-0.5590801;0.4639889;0.4653739;-2;-9;1;-215;4134;-266;16;0.6038781;-0.7574329;-0.1246537;-0.2146814;4;-3;0;259;3964;904;2;0.4916897;-0.4556787;-0.5096953;-0.5392669;-1;-1;0;-167;4088;95;8;0.6412742;-0.7639016;-0.07063711;0.01523546;2;0;0;-537;4031;733;0.4576143;2.801831;-0.3078331;0.463436;3.332375;-0.1809047;0.4685585;3.799193;-0.07130198;0.431829;4.473148;0.2166204;0.1563779;4.773556;0.3095128;-0.1760545;4.601456;0.3125735;-0.8243474;4.795106;-0.3203131;-0.5370451;5.478234;-0.910729;0.6759508;4.801877;0.3095129;0.9728098;4.664073;0.3125735;1.714997;4.912249;-0.2494255;1.882654;5.567464;-0.9130297;0.1453928;2.762781;-0.3258647;0.226147;1.304001;-0.246509;0;0;0;0.1453928;2.762781;-0.3258647;0.226147;1.304001;-0.246509;0;0;0
156727.5708;NotLabelled;NONE;16384;0.8581001;0.2271468;0.3157895;0.33518;21;22;-45;1704;-782;2333;65536;0.8600249;0.3213296;-0.2963989;0.2631579;-36;-24;-7;-87;-1494;-1041;8192;0.8365422;0.2742382;-0.3850415;-0.2770083;16;-30;39;-2002;-1127;2361;32768;0.9199168;0.3781163;-0.07202215;-0.07479224;-30;43;13;-463;-1469;-1246;256;0.0166205;0.02631579;-0.5540166;-0.8319235;-5;-6;0;-259;3732;-1537;128;0.0567867;-0.006925208;0.5110803;0.857627;-1;-6;-2;-305;3557;1882;4;0.5055401;-0.5567695;0.4653739;0.466759;-3;-9;2;-201;4050;-310;16;0.6052631;-0.7563266;-0.1246537;-0.2146814;4;-4;0;317;3960;1010;2;0.4930748;-0.4556787;-0.5096953;-0.5380009;-1;-1;0;-227;4104;45;8;0.6412742;-0.7637723;-0.07202215;0.01523546;2;0;0;-529;4005;745;0.4636354;2.801592;-0.3079794;0.4694571;3.332127;-0.1810143;0.4745796;3.798938;-0.07137926;0.4377688;4.473843;0.2142968;0.1622879;4.774546;0.3061422;-0.1701375;4.602442;0.3097153;-0.8256119;4.778366;-0.320946;-0.5285609;5.45637;-0.9124423;0.6818595;4.802889;0.3061402;0.9787241;4.665112;0.3097112;1.725202;4.907274;-0.2492196;1.889933;5.560464;-0.9155475;0.1514139;2.762544;-0.326014;0.228552;1.303573;-0.2465536;0;0;0;0.1514139;2.762544;-0.326014;0.228552;1.303573;-0.2465536;0;0;0
156747.4973;NotLabelled;NONE;16384;0.8578485;0.2202216;0.3213296;0.33518;26;22;-54;1584;-742;2325;65536;0.8607172;0.3144044;-0.300554;0.2645429;-48;-26;-4;-85;-1388;-883;8192;0.8362154;0.267313;-0.3905817;-0.2770083;25;-30;50;-1646;-1225;2271;32768;0.9220237;0.3725762;-0.06786703;-0.08033241;-42;41;9;-543;-1301;-908;256;0.01800554;0.02493075;-0.5540166;-0.8319374;-4;-8;0;-295;3722;-1491;128;0.05540166;-0.006925208;0.5110803;0.8577176;-3;-7;-3;-303;3491;1840;4;0.5041551;-0.5557021;0.466759;0.468144;-3;-10;3;-77;4044;-260;16;0.6066482;-0.7558355;-0.1232687;-0.2132964;4;-6;0;291;4006;926;2;0.4930748;-0.4556787;-0.5096953;-0.5380009;-1;-1;0;-175;4084;87;8;0.6426592;-0.7626072;-0.07202215;0.01523546;3;0;0;-539;4023;617;0.466211;2.802962;-0.2994821;0.4720322;3.333457;-0.1723489;0.4771542;3.800233;-0.06256606;0.4387002;4.476007;0.2208289;0.1624949;4.776369;0.3116095;-0.1695254;4.603497;0.3156999;-0.8287404;4.768008;-0.3141417;-0.5208804;5.439468;-0.9075742;0.6819983;4.805934;0.3116097;0.9791853;4.668868;0.3157002;1.732091;4.902031;-0.2384139;1.894292;5.550935;-0.909534;0.1539896;2.763919;-0.3175301;0.2279641;1.304595;-0.2416458;0;0;0;0.1539896;2.763919;-0.3175301;0.2279641;1.304595;-0.2416458;0;0;0
156768.6052;NotLabelled;NONE;16384;0.8562447;0.2119114;0.3296399;0.3365651;27;20;-63;1630;-580;2341;65536;0.8623127;0.3060942;-0.3033241;0.265928;-64;-19;1;-61;-1402;-759;8192;0.8325045;0.2506925;-0.4072022;-0.2797784;42;-21;72;-1302;-1097;2181;32768;0.9280657;0.3559557;-0.06232687;-0.0900277;-80;20;-8;-393;-1391;-656;256;0.01939058;0.02493075;-0.5554016;-0.8309823;-3;-10;-1;-339;3668;-1477;128;0.05540166;-0.005540166;0.5110803;0.8577277;-6;-7;-2;-245;3557;1732;4;0.5041551;-0.5557021;0.466759;0.468144;-2;-10;3;-115;4082;-204;16;0.6080332;-0.7547218;-0.1232687;-0.2132964;4;-4;0;205;3978;928;2;0.4930748;-0.4556787;-0.5110803;-0.5366853;0;-1;0;-241;4074;59;8;0.6426592;-0.7627368;-0.07063711;0.01523546;3;0;0;-545;4031;673;0.4655459;2.803668;-0.2962144;0.4713667;3.334132;-0.1689537;0.4764884;3.800882;-0.05905868;0.4375116;4.47665;0.2242786;0.1610741;4.776806;0.3150323;-0.1708128;4.603679;0.3191355;-0.8319412;4.753633;-0.3123329;-0.5120869;5.417079;-0.9084284;0.6805545;4.806773;0.3150326;0.9778473;4.669937;0.3191365;1.737869;4.888786;-0.231088;1.898608;5.529396;-0.910477;0.1533245;2.764629;-0.3142726;0.2276502;1.305353;-0.2378157;0;0;0;0.1533245;2.764629;-0.3142726;0.2276502;1.305353;-0.2378157;0;0;0
156789.8126;NotLabelled;NONE;16384;0.8546896;0.2049861;0.3379501;0.3365651;26;21;-71;1732;-624;2547;65536;0.8655646;0.2963989;-0.3060942;0.2631579;-78;-4;8;-315;-1610;-1069;8192;0.8307236;0.2396122;-0.4155124;-0.2825485;45;-17;80;-1180;-919;2333;32768;0.9329887;0.3421052;-0.06232687;-0.09279778;-105;-7;-18;-77;-1735;-614;256;0.02077562;0.0235457;-0.5554016;-0.8309892;-1;-9;-1;-219;3726;-1407;128;0.05401662;-0.005540166;0.5096953;0.8586398;-7;-8;-2;-325;3499;1564;4;0.5041551;-0.5533636;0.468144;0.4695291;-1;-8;3;-115;4060;-210;16;0.6080332;-0.7547218;-0.1232687;-0.2132964;4;-3;0;281;3962;900;2;0.4930748;-0.4556787;-0.5110803;-0.5366853;0;-2;0;-311;4084;75;8;0.6426592;-0.7627368;-0.07063711;0.01523546;3;-1;0;-603;3981;577;0.4650493;2.804662;-0.2914104;0.4708701;3.335118;-0.164114;0.4759918;3.80186;-0.05418758;0.4353774;4.478491;0.2268538;0.1582202;4.778304;0.3165385;-0.1732613;4.604414;0.3211646;-0.8398826;4.734477;-0.3089378;-0.5103918;5.387478;-0.9112856;0.6776292;4.809486;0.3165362;0.9752405;4.673361;0.3211595;1.753482;4.852505;-0.2178422;1.909888;5.467846;-0.9211773;0.152828;2.765625;-0.3094714;0.2270288;1.306348;-0.2328933;0;0;0;0.152828;2.765625;-0.3094714;0.2270288;1.306348;-0.2328933;0;0;0
156811.7451;NotLabelled;NONE;16384;0.8483772;0.1883656;0.3587258;0.3407202;18;16;-97;2894;-560;2873;65536;0.8760221;0.2700831;-0.3088643;0.2534626;-106;13;20;-347;-1892;-1785;8192;0.8266448;0.2299169;-0.4252077;-0.2880886;39;-2;93;-1784;-901;2637;32768;0.9387282;0.3254848;-0.06509695;-0.09279778;-121;-14;-22;51;-1743;-1488;256;0.02216066;0.0235457;-0.5554016;-0.8309534;-3;-5;-1;-213;3714;-1243;128;0.05401662;-0.004155125;0.5096953;0.8586476;-6;-4;-2;-405;3557;1448;4;0.5041551;-0.5521854;0.468144;0.4709141;0;-5;3;-75;4042;-358;16;0.6094183;-0.7539946;-0.1232687;-0.2119114;4;-4;0;345;3938;862;2;0.4930748;-0.4556787;-0.5110803;-0.5366853;1;-3;0;-345;4044;41;8;0.6440443;-0.7615677;-0.07063711;0.01523546;4;-1;0;-579;3957;585;0.4693046;2.804944;-0.2869206;0.4751205;3.334956;-0.1577878;0.480238;3.801314;-0.04624555;0.4391027;4.477942;0.2347268;0.1617153;4.777554;0.324378;-0.1696332;4.603411;0.3290178;-0.8425063;4.716752;-0.2976595;-0.4979717;5.355524;-0.9068093;0.6811001;4.809133;0.3243784;0.9788155;4.673235;0.3290191;1.765589;4.827093;-0.2053882;1.924422;5.420938;-0.9264339;0.157084;2.76597;-0.3051286;0.2279243;1.306348;-0.2320169;0;0;0;0.157084;2.76597;-0.3051286;0.2279243;1.306348;-0.2320169;0;0;0
156832.7449;NotLabelled;NONE;16384;0.8444961;0.1786704;0.3725762;0.3407202;19;36;-103;3086;-252;2779;65536;0.8820638;0.2534626;-0.3102493;0.2479224;-114;0;27;-195;-1880;-1753;8192;0.8216671;0.2216066;-0.4362881;-0.2922437;34;-8;103;-2680;-837;2665;32768;0.9449953;0.3060942;-0.06648199;-0.09418282;-125;0;-27;-47;-1677;-1748;256;0.02216066;0.02216066;-0.5609418;-0.8272618;-29;-6;3;-303;3894;-1875;128;0.05401662;-0.002770083;0.5110803;0.8578295;12;0;-2;-397;3955;2040;4;0.5041551;-0.552175;0.466759;0.4722992;2;3;1;43;4052;-298;16;0.6094183;-0.7542197;-0.1218837;-0.2119114;3;-1;1;237;3942;838;2;0.4930748;-0.4556787;-0.5096953;-0.5380009;2;-6;-1;-317;4050;101;8;0.6440443;-0.7615386;-0.07063711;0.0166205;2;-3;0;-513;4043;593;0.4655636;2.806263;-0.2798483;0.4713794;3.336267;-0.1506797;0.4764968;3.802617;-0.03910591;0.4338025;4.479168;0.2418193;0.1557253;4.778145;0.3314498;-0.1752209;4.603239;0.3361022;-0.8659114;4.672293;-0.2774999;-0.4920601;5.268955;-0.9115546;0.675036;4.810921;0.3314476;0.9730636;4.675711;0.3360974;1.770721;4.802374;-0.1892357;1.933048;5.369885;-0.9304292;0.153343;2.76729;-0.2980593;0.2246347;1.30751;-0.2286592;0;0;0;0.153343;2.76729;-0.2980593;0.2246347;1.30751;-0.2286592;0;0;0
156853.5025;NotLabelled;NONE;16384;0.8417293;0.16759;0.3850415;0.3393352;28;57;-107;3014;120;2531;65536;0.887441;0.2368421;-0.3102493;0.2451524;-121;-19;39;-47;-1652;-1195;8192;0.8163619;0.2105263;-0.4487534;-0.2963989;38;-30;110;-3000;-437;2547;32768;0.949976;0.2880886;-0.06786703;-0.09972299;-124;28;-32;-51;-1331;-1390;256;0.0235457;0.02077562;-0.5650969;-0.8244268;-32;-5;2;-253;4198;-1889;128;0.05401662;-0.002770083;0.5138504;0.856173;19;3;-2;-373;3919;2154;4;0.5041551;-0.552175;0.466759;0.4722992;1;6;3;15;4054;-176;16;0.6108033;-0.7530984;-0.1218837;-0.2119114;3;0;1;265;3982;818;2;0.4944598;-0.4570637;-0.5083103;-0.536864;2;-5;-4;-225;4192;37;8;0.6454294;-0.7603651;-0.07063711;0.0166205;2;-1;0;-609;4073;483;0.4646219;2.805868;-0.2756839;0.4704422;3.336277;-0.1481921;0.4755634;3.802978;-0.03809372;0.4335645;4.483291;0.2337019;0.1558317;4.783846;0.3190214;-0.1753756;4.609499;0.3256577;-0.8762242;4.655225;-0.2785352;-0.4841819;5.224604;-0.9265372;0.6751896;4.815864;0.3191409;0.9730134;4.680295;0.3259223;1.783644;4.783597;-0.1844508;1.948541;5.31983;-0.9480282;0.1524008;2.766837;-0.2937606;0.2277096;1.307089;-0.2280225;0;0;0;0.1524008;2.766837;-0.2937606;0.2277096;1.307089;-0.2280225;0;0;0
156875.5066;NotLabelled;NONE;16384;0.838926;0.1537396;0.400277;0.33518;44;71;-111;2574;348;2335;65536;0.8926794;0.2146814;-0.3102493;0.2465374;-126;-53;50;219;-1312;-623;8192;0.8085239;0.1786704;-0.4750692;-0.2977839;71;-78;117;-2488;263;2197;32768;0.9574024;0.2493075;-0.07063711;-0.1274238;-146;98;-52;285;-1219;-330;256;0.0235457;0.02077562;-0.5692521;-0.8215632;-32;-4;2;-255;4096;-1617;128;0.05401662;-0.002770083;0.5166205;0.8545044;20;2;-1;-303;3875;2220;4;0.5055401;-0.5520777;0.4653739;0.4722992;0;0;6;-197;4158;-56;16;0.6108033;-0.7530984;-0.1218837;-0.2119114;3;1;1;369;3888;802;2;0.4958449;-0.4570637;-0.5069252;-0.5368962;1;-3;-5;-159;4214;13;8;0.6454294;-0.7603651;-0.07063711;0.0166205;2;0;1;-583;4057;579;0.4648563;2.806952;-0.2707265;0.4706856;3.338176;-0.1466699;0.4758145;3.805579;-0.03959397;0.4330525;4.488589;0.225231;0.1550132;4.789779;0.3072465;-0.1760655;4.615251;0.315367;-0.8832665;4.637837;-0.2827011;-0.4762673;5.180218;-0.9444954;0.674346;4.822202;0.3074935;0.972268;4.68694;0.3159134;1.796583;4.761513;-0.177258;1.967635;5.26726;-0.9600413;0.1526339;2.767806;-0.2885281;0.2276519;1.308057;-0.2224579;0;0;0;0.1526339;2.767806;-0.2885281;0.2276519;1.308057;-0.2224579;0;0;0
156896.7074;NotLabelled;NONE;16384;0.8370923;0.1357341;0.4127424;0.33241;64;70;-111;2122;578;1929;65536;0.8960855;0.1911357;-0.3102493;0.2534626;-128;-98;61;-23;-1156;-99;8192;0.8056598;0.1592798;-0.4875346;-0.2963989;75;-78;113;-2110;751;2043;32768;0.9603583;0.2257618;-0.07479224;-0.1454294;-165;101;-69;409;-1295;-270;256;0.0235457;0.01939058;-0.5720221;-0.8196709;-28;0;2;-233;3944;-1373;128;0.05401662;-0.001385042;0.5180055;0.8536689;7;0;-1;-423;3675;2240;4;0.5055401;-0.5520777;0.4653739;0.4722992;-1;-4;7;-429;4212;-50;16;0.6121883;-0.751973;-0.1218837;-0.2119114;2;0;0;415;4050;620;2;0.4958449;-0.4570637;-0.5069252;-0.5368962;0;0;-6;-53;4202;49;8;0.6454294;-0.7604925;-0.06925207;0.0166205;2;1;1;-579;3973;599;0.464954;2.807247;-0.2668612;0.4707919;3.339263;-0.1462521;0.4759284;3.807352;-0.04220954;0.4329787;4.492996;0.2156852;0.1548787;4.794988;0.2944832;-0.1761997;4.620538;0.3041549;-0.8972153;4.61414;-0.2775878;-0.4773265;5.122197;-0.9582995;0.6742103;4.827429;0.2947305;0.9721311;4.692271;0.3047022;1.811222;4.697533;-0.1687681;1.993989;5.132737;-0.9903401;0.1527302;2.767986;-0.2843864;0.2277222;1.308058;-0.2223855;0;0;0;0.1527302;2.767986;-0.2843864;0.2277222;1.308058;-0.2223855;0;0;0
156917.4977;NotLabelled;NONE;16384;0.82996;0.09695291;0.4362881;0.333795;84;39;-114;2036;822;1665;65536;0.8997815;0.1357341;-0.3060942;0.2797784;-146;-126;95;-1175;-830;-441;8192;0.8027126;0.1385041;-0.4986149;-0.2963989;77;-63;107;-1754;361;2277;32768;0.9620757;0.200831;-0.08033241;-0.166205;-173;117;-86;451;-1177;-444;256;0.0235457;0.01939058;-0.5761772;-0.8167554;-20;1;5;-207;3818;-1167;128;0.05401662;-0.001385042;0.5180055;0.8536689;-3;0;-2;-515;3545;1972;4;0.5055401;-0.5497168;0.466759;0.4736842;-3;-6;6;-231;4088;-326;16;0.6121883;-0.751973;-0.1218837;-0.2119114;2;-3;0;393;3884;948;2;0.4958449;-0.4556787;-0.5069252;-0.5380722;-1;2;-6;-139;4046;-41;8;0.6454294;-0.7603651;-0.07063711;0.0166205;2;2;1;-543;4051;633;0.4644514;2.808256;-0.2621252;0.4702935;3.340652;-0.1432083;0.4754336;3.809069;-0.04065462;0.4335717;4.496513;0.2125871;0.1559489;4.799467;0.2893499;-0.1754012;4.625605;0.3002217;-0.9017949;4.581358;-0.2731231;-0.4701319;5.054887;-0.9711457;0.6753307;4.831098;0.2893502;0.9730406;4.695545;0.3002227;1.817839;4.660755;-0.1617085;2.012133;5.050945;-1.003011;0.152227;2.768939;-0.2795145;0.2270941;1.309011;-0.2173622;0;0;0;0.152227;2.768939;-0.2795145;0.2270941;1.309011;-0.2173622;0;0;0
156937.5087;NotLabelled;NONE;16384;0.8255301;0.07756232;0.4473684;0.33518;87;57;-114;2410;682;1731;65536;0.9022129;0.1052632;-0.300554;0.2908587;-147;-115;111;-963;-540;-759;8192;0.7976144;0.1204986;-0.5096953;-0.299169;86;-47;107;-1782;373;2357;32768;0.9621006;0.1745152;-0.08587258;-0.1911357;-171;147;-100;459;-603;-276;256;0.0235457;0.01800554;-0.5789474;-0.814826;-15;-9;8;-239;3682;-1005;128;0.05540166;-0.001385042;0.5166205;0.8544191;-5;1;-3;-377;3393;1898;4;0.5055401;-0.5485202;0.466759;0.4750692;-2;-7;4;-63;4022;-434;16;0.6121883;-0.7521962;-0.1204986;-0.2119114;2;-2;0;235;3912;996;2;0.4958449;-0.4556787;-0.5069252;-0.5380722;-2;4;-5;-185;4080;27;8;0.6454294;-0.7603651;-0.07063711;0.0166205;2;3;0;-463;4023;703;0.4676393;2.808569;-0.2582578;0.4734814;3.340965;-0.1393409;0.4786215;3.809382;-0.03678725;0.4365889;4.499359;0.2094402;0.1589126;4.803069;0.2829534;-0.1724408;4.629317;0.295384;-0.9054886;4.508011;-0.2580189;-0.4588571;4.901677;-0.9951382;0.6782936;4.834713;0.2829537;0.9759994;4.699284;0.295385;1.823545;4.625103;-0.1567654;2.029391;4.965882;-1.016582;0.155415;2.769252;-0.2756473;0.2271614;1.309011;-0.217292;0;0;0;0.155415;2.769252;-0.2756473;0.2271614;1.309011;-0.217292;0;0;0
156958.5087;NotLabelled;NONE;16384;0.8226517;0.05401662;0.4570637;0.333795;112;72;-111;2238;754;1717;65536;0.9039909;0.0734072;-0.2922437;0.3033241;-144;-136;127;-645;-498;-767;8192;0.7940771;0.09972299;-0.5180055;-0.301939;101;-46;107;-2010;813;2017;32768;0.958981;0.1495845;-0.09418282;-0.2216066;-165;193;-119;331;-157;14;256;0.02493075;0.01385042;-0.5817174;-0.8128908;-18;-8;2;-309;3822;-1567;128;0.05401662;0;0.5166205;0.8545089;4;-3;-3;-199;3603;1808;4;0.5055401;-0.5485202;0.466759;0.4750692;0;1;1;11;4062;-38;16;0.6135734;-0.7510669;-0.1204986;-0.2119114;4;0;1;281;4008;980;2;0.4958449;-0.4542936;-0.5069252;-0.5392421;-1;5;-2;-269;4068;-25;8;0.6468144;-0.7592163;-0.07063711;0.01523546;4;0;0;-409;4009;707;0.4701144;2.808216;-0.2539353;0.4759526;3.340251;-0.133412;0.4810892;3.808357;-0.02944487;0.4401065;4.500062;0.2120637;0.1628992;4.804706;0.283448;-0.1687322;4.63157;0.2969958;-0.901029;4.47017;-0.2470814;-0.4468993;4.815735;-1.003486;0.6823298;4.835524;0.2833379;0.9798175;4.699711;0.2967529;1.831639;4.586119;-0.1388753;2.049442;4.873125;-1.015219;0.1578907;2.768952;-0.2714537;0.2300612;1.308588;-0.2167842;0;0;0;0.1578907;2.768952;-0.2714537;0.2300612;1.308588;-0.2167842;0;0;0
156979.7606;NotLabelled;NONE;16384;0.8187729;0.02631579;0.4653739;0.33518;143;71;-105;2178;1200;1465;65536;0.903372;0.0401662;-0.2811634;0.3213296;-132;-171;144;-771;-76;-441;8192;0.7863011;0.04847645;-0.5304709;-0.3130194;160;-76;89;-2036;1589;891;32768;0.9430994;0.09833795;-0.1177285;-0.2950138;-158;211;-160;2531;701;-510;256;0.02631579;0.01385042;-0.5844875;-0.8108576;-20;-3;0;-351;3862;-1581;128;0.05401662;0;0.5180055;0.85367;7;-5;-4;-379;3713;1890;4;0.5069252;-0.5472405;0.466759;0.4750692;0;-1;2;-173;4162;76;16;0.6135734;-0.7510669;-0.1204986;-0.2119114;5;-1;1;419;3938;914;2;0.4958449;-0.4542936;-0.5069252;-0.5392421;0;-1;0;-503;4044;-27;8;0.6468144;-0.7593148;-0.06925207;0.0166205;4;-1;0;-513;4017;595;0.471366;2.80915;-0.2479632;0.4772037;3.341149;-0.1272815;0.4823399;3.809223;-0.02317512;0.4429994;4.502705;0.2134647;0.1665369;4.808554;0.2825482;-0.1655479;4.636371;0.2971055;-0.8873112;4.435294;-0.2478298;-0.4238324;4.728963;-1.020321;0.6860452;4.838032;0.2825377;0.9831737;4.701551;0.2970825;1.839061;4.548985;-0.1181961;2.078821;4.781202;-1.004976;0.1591423;2.769891;-0.2654942;0.2308305;1.309528;-0.2101937;0;0;0;0.1591423;2.769891;-0.2654942;0.2308305;1.309528;-0.2101937;0;0;0
156999.8628;NotLabelled;NONE;16384;0.8148789;-0.001385042;0.4709141;0.3379501;163;62;-108;2038;2000;1153;65536;0.9012205;0.006925208;-0.265928;0.3421052;-126;-189;171;-1627;428;-429;8192;0.7836631;0.01800554;-0.534626;-0.3157895;157;-91;91;-2270;1341;1211;32768;0.9322081;0.07202215;-0.134349;-0.3282548;-149;185;-177;2989;653;-122;256;0.02493075;0.01385042;-0.5858725;-0.8099012;-15;4;0;-233;3918;-1371;128;0.05401662;0;0.5180055;0.85367;7;-1;-2;-541;3703;1846;4;0.5069252;-0.546035;0.466759;0.4764543;-1;-1;3;-167;4130;-82;16;0.6135734;-0.7510669;-0.1204986;-0.2119114;5;-2;1;417;3960;842;2;0.4958449;-0.4542936;-0.5069252;-0.5392421;1;-7;0;-433;4068;-61;8;0.6481994;-0.7581328;-0.06925207;0.0166205;5;-1;0;-599;4025;633;0.4754911;2.809531;-0.2436751;0.4813331;3.34192;-0.1247217;0.4864731;3.81033;-0.0221359;0.4454891;4.505344;0.20968;0.1683176;4.811048;0.2765299;-0.1633897;4.638231;0.2921421;-0.8812422;4.388568;-0.2376556;-0.4177583;4.62847;-1.028495;0.687759;4.841682;0.2765299;0.985184;4.705966;0.2921421;1.820136;4.455847;-0.1184309;2.093039;4.565703;-1.019122;0.1632668;2.770216;-0.2610674;0.2312166;1.309528;-0.2097692;0;0;0;0.1632668;2.770216;-0.2610674;0.2312166;1.309528;-0.2097692;0;0;0
157019.7936;NotLabelled;NONE;16384;0.8034041;-0.06509695;0.4819945;0.3434903;166;75;-120;2208;1764;2877;65536;0.8969018;-0.06094183;-0.2257618;0.3753462;-132;-157;206;-2363;1306;-1003;8192;0.780183;-0.01246537;-0.5373961;-0.3199446;181;-77;95;-2286;1609;2037;32768;0.9197907;0.04570637;-0.1523546;-0.3587258;-142;182;-193;2677;1023;238;256;0.02493075;0.01246537;-0.5886427;-0.8079127;-11;-13;5;-47;4208;-1009;128;0.05540166;0;0.5193906;0.8527392;1;9;-1;-579;3909;2196;4;0.5069252;-0.546035;0.466759;0.4764543;-2;2;3;-35;4056;-324;16;0.6149584;-0.7499332;-0.1204986;-0.2119114;5;-1;1;295;3922;882;2;0.4972299;-0.4542936;-0.5055401;-0.539267;2;-7;-1;-349;4156;-37;8;0.6481994;-0.7581328;-0.06925207;0.0166205;4;-3;0;-571;4029;545;0.4745291;2.809635;-0.2400711;0.4803711;3.342023;-0.1211177;0.4855112;3.810433;-0.0185319;0.446054;4.506301;0.2109752;0.1695614;4.81285;0.2767593;-0.1625386;4.640835;0.2928781;-0.8697072;4.343305;-0.2264648;-0.4144997;4.527464;-1.036816;0.6890708;4.842311;0.2767594;0.9861854;4.705976;0.2928786;1.805099;4.404268;-0.1153218;2.09338;4.44785;-1.016866;0.1623048;2.770319;-0.2574635;0.2308962;1.309528;-0.2101219;0;0;0;0.1623048;2.770319;-0.2574635;0.2308962;1.309528;-0.2101219;0;0;0
157040.4958;NotLabelled;NONE;16384;0.7956217;-0.09695291;0.4875346;0.3462604;172;65;-125;1818;2162;3083;65536;0.8928352;-0.09695291;-0.2022161;0.3905817;-124;-173;222;-2861;1868;-1227;8192;0.7751012;-0.04570637;-0.5387812;-0.3268698;203;-61;96;-1832;2303;2093;32768;0.9039028;0.02077562;-0.1731302;-0.3905817;-139;198;-211;2781;1947;188;256;0.02770083;0.01108033;-0.5900277;-0.8068316;-25;-12;4;-247;4404;-1089;128;0.05540166;0;0.5193906;0.8527392;4;4;-5;-245;3885;1822;4;0.5069252;-0.5472159;0.4653739;0.4764543;0;1;3;27;4002;-330;16;0.6149584;-0.7499332;-0.1204986;-0.2119114;5;0;0;341;4034;700;2;0.4972299;-0.4556787;-0.5041551;-0.539395;2;-5;-3;-329;4138;-1;8;0.6495845;-0.7569464;-0.06925207;0.0166205;3;-3;0;-489;4067;547;0.4740171;2.810619;-0.2352532;0.4798636;3.343418;-0.1181533;0.4850075;3.812182;-0.01719827;0.4466166;4.509676;0.2075054;0.1706074;4.817126;0.2710733;-0.161783;4.645776;0.2882447;-0.8331327;4.241564;-0.205953;-0.398278;4.298498;-1.045868;0.6901647;4.845726;0.2710733;0.9870471;4.709015;0.288245;1.789216;4.355439;-0.1114863;2.09414;4.331459;-1.008277;0.1617922;2.771243;-0.2524967;0.2302683;1.310451;-0.2049884;0;0;0;0.1617922;2.771243;-0.2524967;0.2302683;1.310451;-0.2049884;0;0;0
157060.7357;NotLabelled;NONE;16384;0.7864475;-0.1301939;0.4916897;0.3504155;176;67;-120;1622;2990;2775;65536;0.8870215;-0.134349;-0.1745152;0.4058172;-116;-157;236;-4479;2848;-2519;8192;0.7667391;-0.08171745;-0.5387812;-0.3393352;228;-51;96;-1414;3039;1755;32768;0.8844236;-0.005540166;-0.1952908;-0.4238227;-130;207;-217;4463;3697;-1514;256;0.02493075;0.01385042;-0.599723;-0.7996993;-44;13;-4;-401;3944;-1843;128;0.05401662;0.002770083;0.5249307;0.8494247;34;-11;-5;-479;4053;1850;4;0.5083103;-0.5447177;0.4653739;0.4778393;-2;0;6;-39;4078;-324;16;0.6163435;-0.7487953;-0.1204986;-0.2119114;3;0;1;345;3950;842;2;0.4972299;-0.4556787;-0.5041551;-0.539395;1;-3;-4;-423;4132;31;8;0.6495845;-0.7569148;-0.06925207;0.01800554;2;-3;0;-559;3989;413;0.4717307;2.81044;-0.2343963;0.4775773;3.343239;-0.1172964;0.4827211;3.812003;-0.01634132;0.4423156;4.510208;0.205784;0.1654269;4.817111;0.2681631;-0.1664828;4.644889;0.2858981;-0.8156502;4.188638;-0.1923757;-0.3891287;4.174203;-1.038347;0.6849015;4.847177;0.2681629;0.9821646;4.711368;0.2858981;1.762084;4.300304;-0.1027246;2.087189;4.207667;-0.9878873;0.1595057;2.771064;-0.2516398;0.2314148;1.310452;-0.203693;0;0;0;0.1595057;2.771064;-0.2516398;0.2314148;1.310452;-0.203693;0;0;0
157082.5028;NotLabelled;NONE;16384;0.7769577;-0.1634349;0.4958449;0.3518005;164;77;-111;1410;3360;2735;65536;0.8814536;-0.16759;-0.1454294;0.4168975;-105;-134;243;-4437;3750;-3463;8192;0.7561502;-0.1191136;-0.5387812;-0.3518005;213;-47;93;-1210;3419;1709;32768;0.8641427;-0.02908587;-0.2174515;-0.4529086;-103;185;-226;4299;4231;-2394;256;0.02493075;0.01385042;-0.602493;-0.7976144;-16;-12;0;-155;4418;-1707;128;0.05401662;0.004155125;0.5304709;0.8459702;42;7;-2;-735;4005;2194;4;0.5083103;-0.5447177;0.4653739;0.4778393;-2;0;6;-55;4030;-224;16;0.6177285;-0.7476531;-0.1204986;-0.2119114;4;0;1;339;3946;798;2;0.4986149;-0.4542936;-0.5027701;-0.5405763;0;-7;-6;-361;4074;99;8;0.6495845;-0.7569148;-0.06925207;0.01800554;1;0;1;-557;4079;553;0.4721211;2.811951;-0.2233341;0.4779834;3.346191;-0.1129948;0.4831409;3.816197;-0.01798755;0.443172;4.519548;0.1873457;0.1665539;4.828203;0.2417744;-0.1656222;4.656875;0.2628662;-0.7961269;4.153172;-0.1921907;-0.3920726;4.061482;-1.044323;0.6860666;4.857598;0.2422192;0.9831094;4.721872;0.2638504;1.724594;4.250435;-0.1314018;2.054982;4.084222;-1.003757;0.1598937;2.77236;-0.240034;0.2290065;1.31136;-0.2005448;0;0;0;0.1598937;2.77236;-0.240034;0.2290065;1.31136;-0.2005448;0;0;0
157103.4871;NotLabelled;NONE;16384;0.7678403;-0.1925208;0.4986149;0.3531856;162;64;-107;1550;3380;2979;65536;0.8746567;-0.199446;-0.1149584;0.4265928;-86;-142;248;-4211;3760;-3395;8192;0.7306078;-0.1855956;-0.5373961;-0.3781163;217;-6;108;-1364;3411;2245;32768;0.8162115;-0.06648199;-0.2742382;-0.5041551;-30;208;-263;4327;4679;-1670;256;0.02770083;0.01108033;-0.6052631;-0.7954662;-20;-16;6;-183;4694;-1149;128;0.0567867;0.004155125;0.534626;0.8431684;36;9;-2;-609;3697;2158;4;0.5096953;-0.5422009;0.4653739;0.4792244;-3;-1;6;25;4052;-38;16;0.6177285;-0.7476531;-0.1204986;-0.2119114;3;0;1;313;4006;750;2;0.5;-0.4542936;-0.501385;-0.5405834;1;-7;-8;-123;4150;175;8;0.6509695;-0.755724;-0.06925207;0.01800554;1;0;0;-549;4027;603;0.4708275;2.813058;-0.2194079;0.4767052;3.34869;-0.1160359;0.4818759;3.819892;-0.02715815;0.4420224;4.524652;0.1733138;0.1654385;4.833685;0.2257303;-0.1667326;4.662517;0.2481633;-0.7706539;4.103525;-0.1774369;-0.3885155;3.938414;-1.028616;0.6849522;4.863066;0.2257302;0.982001;4.727483;0.2481636;1.686657;4.185526;-0.1233446;2.024582;3.951185;-0.976971;0.1585978;2.773253;-0.2355461;0.2277366;1.312253;-0.1961026;0;0;0;0.1585978;2.773253;-0.2355461;0.2277366;1.312253;-0.1961026;0;0;0
157124.4993;NotLabelled;NONE;16384;0.7475659;-0.2479224;0.5;0.3601108;152;42;-84;1606;4676;2981;65536;0.8580229;-0.2576177;-0.04709141;0.4418283;-73;-112;264;-5857;4372;-1613;8192;0.7154568;-0.2146814;-0.536011;-0.3933518;219;10;105;-1702;4549;1977;32768;0.7865232;-0.08310249;-0.3074792;-0.5290859;-26;215;-283;4845;5125;-370;256;0.02770083;0.009695291;-0.6094183;-0.7923055;-50;-13;7;-21;3688;-1187;128;0.05817174;0.004155125;0.5387812;0.8404247;35;1;0;-471;3515;1866;4;0.5096953;-0.5422009;0.4653739;0.4792244;-5;-4;6;-35;4012;50;16;0.6177285;-0.7476531;-0.1204986;-0.2119114;3;0;1;355;3944;800;2;0.501385;-0.4542936;-0.501385;-0.539299;0;-3;-9;99;4080;147;8;0.6509695;-0.755724;-0.06925207;0.01800554;2;0;0;-589;4073;655;0.4757817;2.813562;-0.2105281;0.4816707;3.350232;-0.1126902;0.4868511;3.822327;-0.02868077;0.4461929;4.528477;0.1666705;0.1692709;4.837597;0.2167365;-0.1627343;4.666256;0.2402717;-0.7396361;4.065577;-0.1655577;-0.3743815;3.827863;-1.006913;0.6887544;4.867511;0.2167363;0.9859324;4.732399;0.2402716;1.609716;4.07675;-0.09032649;1.982998;3.711842;-0.8810792;0.1635502;2.773593;-0.2262193;0.2292925;1.312253;-0.194281;0;0;0;0.1635502;2.773593;-0.2262193;0.2292925;1.312253;-0.194281;0;0;0
157145.6548;NotLabelled;NONE;16384;0.7382402;-0.2714681;0.4986149;0.3642659;143;36;-64;1478;5100;3237;65536;0.8496844;-0.2853186;-0.01385042;0.4432133;-72;-106;257;-6249;5236;-2443;8192;0.6984332;-0.2437673;-0.534626;-0.4085872;219;17;99;-2132;5713;2351;32768;0.7546735;-0.1024931;-0.3407202;-0.5512465;-40;199;-292;6007;5893;-1074;256;0.02908587;0.006925208;-0.6163435;-0.7869096;-52;-18;8;-429;3358;-1483;128;0.05817174;0.004155125;0.5429363;0.8377464;37;2;0;-343;3647;2038;4;0.5110803;-0.5397008;0.466759;0.4792244;-11;-16;7;-117;4114;10;16;0.6191136;-0.7465066;-0.1204986;-0.2119114;3;0;0;385;3938;772;2;0.501385;-0.4542936;-0.501385;-0.539299;-5;3;-7;81;4114;-11;8;0.6509695;-0.7558495;-0.06786703;0.01800554;3;0;0;-489;4063;679;0.4757569;2.811284;-0.239077;0.4816564;3.348918;-0.1466823;0.4868459;3.82184;-0.06746096;0.4478185;4.531939;0.113369;0.1715395;4.842521;0.1576008;-0.1607165;4.672296;0.1853236;-0.6837231;3.988538;-0.1571208;-0.3785298;3.600811;-0.9660221;0.6910735;4.871498;0.1559514;0.9880618;4.736368;0.1816769;1.564636;4.02421;-0.1160952;1.95148;3.584419;-0.8608931;0.1635236;2.771159;-0.2543277;0.2292703;1.310217;-0.2075922;0;0;0;0.1635236;2.771159;-0.2543277;0.2292703;1.310217;-0.2075922;0;0;0
157166.5252;NotLabelled;NONE;16384;0.7291241;-0.2922437;0.4972299;0.368421;136;21;-55;1380;4660;2981;65536;0.8381344;-0.3116343;0.0166205;0.4473684;-59;-115;243;-5785;5448;-3611;8192;0.6815854;-0.2700831;-0.5318559;-0.4238227;201;11;78;-2296;6105;3027;32768;0.7237806;-0.1218837;-0.3725762;-0.567867;-25;186;-293;6281;6975;-1768;256;0.03047091;0.004155125;-0.6204986;-0.7836044;-29;-16;9;-471;3904;-1551;128;0.05817174;0.004155125;0.5470914;0.8350388;33;0;0;-439;3733;2130;4;0.5096953;-0.5336618;0.4709141;0.4833795;-10;-23;6;-127;4158;-148;16;0.6191136;-0.7465066;-0.1204986;-0.2119114;3;-3;0;345;3992;822;2;0.501385;-0.4529086;-0.501385;-0.5404627;-9;10;-4;-105;4154;-79;8;0.6509695;-0.755724;-0.06925207;0.01800554;6;1;0;-519;4073;687;0.4841078;2.815145;-0.2008939;0.4900171;3.35367;-0.1138381;0.495215;3.827354;-0.03931295;0.4564017;4.538855;0.135968;0.1803667;4.850135;0.1766739;-0.1522381;4.680573;0.2042744;-0.6396893;3.975716;-0.147716;-0.3574759;3.527878;-0.9335869;0.6999424;4.878399;0.1770103;0.9966323;4.743068;0.2050185;1.530602;3.994533;-0.08281279;1.92879;3.491962;-0.7804202;0.171873;2.774871;-0.2157118;0.2299468;1.31313;-0.1874634;0;0;0;0.171873;2.774871;-0.2157118;0.2299468;1.31313;-0.1874634;0;0;0
157186.6137;NotLabelled;NONE;16384;0.7193808;-0.3116343;0.4944598;0.3753462;134;10;-51;1346;3916;2933;65536;0.8268049;-0.333795;0.04847645;0.4501385;-38;-113;234;-5217;5108;-3469;8192;0.6672451;-0.2936288;-0.5263157;-0.4376731;185;-2;67;-2002;5027;2623;32768;0.6910761;-0.1412742;-0.4030471;-0.5831025;-14;185;-291;5311;7301;-2322;256;0.033241;0;-0.6246537;-0.780194;-21;-19;11;-27;3910;-687;128;0.05817174;0.005540166;0.5526316;0.8313746;12;-5;-5;-359;3591;1936;4;0.5096953;-0.5299409;0.4736842;0.4847645;-8;-19;5;-61;4116;-104;16;0.6204986;-0.7453557;-0.1204986;-0.2119114;5;-4;1;295;4078;814;2;0.501385;-0.4515235;-0.5027701;-0.5403349;-8;12;-2;-191;4084;-95;8;0.6523545;-0.7545287;-0.06925207;0.01800554;6;4;0;-499;4055;615;0.4915153;2.815649;-0.1924691;0.4974339;3.355013;-0.1107784;0.5026396;3.829416;-0.04097226;0.4647343;4.542814;0.1266226;0.1891169;4.854903;0.1638194;-0.1437429;4.686116;0.1930516;-0.6030219;3.95475;-0.1423503;-0.3409142;3.44564;-0.8972695;0.7087319;4.882438;0.1641498;1.005215;4.746998;0.1937823;1.490534;3.958391;-0.07237147;1.891146;3.390216;-0.7161691;0.1792788;2.775229;-0.2068513;0.2311318;1.31313;-0.186;0;0;0;0.1792788;2.775229;-0.2068513;0.2311318;1.31313;-0.186;0;0;0
157207.5494;NotLabelled;NONE;16384;0.7092211;-0.3282548;0.4930748;0.3822715;128;1;-43;1568;3942;2759;65536;0.8160622;-0.3531856;0.08171745;0.4501385;-28;-91;236;-4271;4828;-3137;8192;0.6431531;-0.3407202;-0.5124654;-0.4556787;170;-38;57;-2104;5065;2565;32768;0.6227499;-0.1759003;-0.4653739;-0.6038781;-9;142;-288;5009;7031;-1694;256;0.03462604;-0.002770083;-0.6288089;-0.7767836;-38;-13;11;-379;3564;-651;128;0.0567867;0.006925208;0.5526316;0.8314599;7;-8;-5;-329;3631;1584;4;0.5096953;-0.5286996;0.4750692;0.4847645;-6;-13;3;83;4064;-52;16;0.6204986;-0.7453557;-0.1204986;-0.2119114;6;-5;0;299;4030;844;2;0.5;-0.4473684;-0.5055401;-0.5424857;-6;11;0;-481;4042;-21;8;0.6537396;-0.7532322;-0.07063711;0.0166205;5;3;-2;-495;4093;469;0.4992769;2.816986;-0.182525;0.5052067;3.357384;-0.1079916;0.5104222;3.832671;-0.04448055;0.4732744;4.547908;0.1152666;0.1979862;4.860675;0.1490466;-0.135048;4.692568;0.1801496;-0.5646131;3.932929;-0.1309009;-0.3255443;3.368529;-0.8534632;0.7176296;4.887667;0.1490462;1.013972;4.752251;0.1801493;1.45012;3.928872;-0.06500091;1.846506;3.298435;-0.650847;0.1870383;2.776379;-0.1963248;0.2316109;1.313991;-0.1791981;0;0;0;0.1870383;2.776379;-0.1963248;0.2316109;1.313991;-0.1791981;0;0;0
157248.505;NotLabelled;NONE;16384;0.6858166;-0.3753462;0.4792244;0.398892;106;28;-30;1020;3990;2481;65536;0.785818;-0.400277;0.1717452;0.4390582;3;-70;199;-5087;5662;-2969;8192;0.626002;-0.3850415;-0.4958449;-0.4626039;138;-66;52;-558;3795;2973;32768;-0.566482;0.2160665;0.5152354;0.6057606;-20;33;-233;5161;6765;-1864;256;0.03462604;-0.005540166;-0.634349;-0.7722511;-16;0;6;-93;4162;-1005;128;0.05540166;0.009695291;0.5581717;0.827817;28;-4;-3;-547;3879;1160;4;0.5096953;-0.5261754;0.4764543;0.4861496;0;-2;0;-21;4070;-50;16;0.6218836;-0.7444234;-0.1191136;-0.2119114;8;-2;2;333;3942;902;2;0.5;-0.4459834;-0.5069252;-0.5423336;-4;0;0;-725;4016;-45;8;0.6551247;-0.7518964;-0.07202215;0.0166205;4;2;-2;-635;4021;523;0.504339;2.817095;-0.181139;0.5102686;3.357471;-0.106436;0.5154839;3.832737;-0.04277575;0.4793672;4.549725;0.1091671;0.20455;4.863269;0.1393902;-0.1287636;4.696029;0.1721304;-0.5300308;3.915072;-0.1235408;-0.3218323;3.299129;-0.8127889;0.7242349;4.889451;0.1393899;1.020348;4.753918;0.1721303;1.363615;3.880099;-0.04439282;1.733989;3.139908;-0.5056169;0.1921005;2.776492;-0.1949525;0.2327413;1.313991;-0.1777274;0;0;0;0.1921005;2.776492;-0.1949525;0.2327413;1.313991;-0.1777274;0;0;0
157269.489;NotLabelled;NONE;16384;0.6793399;-0.3891967;0.4750692;0.4016621;97;20;-36;544;4544;2393;65536;0.7768874;-0.4099723;0.1980609;0.434903;11;-66;176;-4377;5616;-2867;8192;0.618461;-0.4072022;-0.4875346;-0.4626039;122;-78;66;450;4477;2467;32768;-0.5470914;0.2354571;0.5304709;0.6032011;-33;30;-176;4187;6823;-1760;256;0.03462604;-0.008310249;-0.6371191;-0.7699423;-25;-10;9;-135;4168;-641;128;0.05540166;0.01108033;0.5623268;0.8249827;27;-4;-5;-527;3683;1570;4;0.5096953;-0.5261754;0.4764543;0.4861496;0;0;-1;-47;4100;36;16;0.6232687;-0.7432643;-0.1191136;-0.2119114;9;-2;1;455;3934;810;2;0.501385;-0.4445983;-0.5069252;-0.5421921;-2;-5;0;-827;4034;-53;8;0.6551247;-0.7518964;-0.07202215;0.0166205;3;0;-1;-521;4087;387;0.5096378;2.81783;-0.1720087;0.5155776;3.359132;-0.1043435;0.5208015;3.835186;-0.04687315;0.4873571;4.554411;0.09475978;0.2137347;4.869414;0.1202908;-0.120245;4.703948;0.1551822;-0.4384366;3.872497;-0.1012821;-0.3303262;3.133486;-0.684353;0.7335169;4.893587;0.1202909;1.029082;4.757397;0.1551828;1.290637;3.849685;-0.03435074;1.613932;3.026244;-0.3737777;0.1973974;2.777051;-0.1852482;0.2346558;1.314419;-0.1719491;0;0;0;0.1973974;2.777051;-0.1852482;0.2346558;1.314419;-0.1719491;0;0;0
157290.4833;NotLabelled;NONE;16384;0.671501;-0.4016621;0.4722992;0.4058172;86;-2;-39;198;4834;2403;65536;0.7671593;-0.4168975;0.2229917;0.433518;18;-90;156;-3311;5618;-2657;8192;0.6107405;-0.4279778;-0.4833795;-0.4584487;93;-71;85;1752;6113;2451;32768;-0.5304709;0.2493075;0.5387812;0.6051126;-50;29;-121;4383;5883;-2370;256;0.03462604;-0.01108033;-0.6468144;-0.7617804;-44;-1;5;217;3856;-1085;128;0.05540166;0.01385042;0.5692521;0.8201774;37;-4;-2;-545;3899;1476;4;0.5083103;-0.5275354;0.4778393;0.4847645;-2;-10;0;-45;4048;48;16;0.6260388;-0.7409325;-0.1191136;-0.2119114;8;0;0;355;3974;696;2;0.5027701;-0.4459834;-0.5055401;-0.541064;0;-10;0;-853;4036;-61;8;0.6551247;-0.7518964;-0.07202215;0.0166205;1;-3;-1;-479;4057;347;0.5090901;2.818791;-0.1670008;0.515037;3.360744;-0.1047596;0.520267;3.837349;-0.05205927;0.4894585;4.557696;0.08437674;0.2170036;4.873891;0.1075461;-0.1176009;4.709924;0.1435171;-0.412108;3.866194;-0.1008489;-0.334259;3.09935;-0.651926;0.7368721;4.896129;0.1075457;1.031917;4.759094;0.1435167;1.256506;3.838132;-0.02871542;1.554421;2.987614;-0.3213805;0.1968483;2.777883;-0.1797971;0.2340473;1.31525;-0.1663336;0;0;0;0.1968483;2.777883;-0.1797971;0.2340473;1.31525;-0.1663336;0;0;0
157311.6925;NotLabelled;NONE;16384;0.6620658;-0.4113573;0.4736842;0.4099723;70;-25;-40;262;4802;2529;65536;0.7564014;-0.4224377;0.2479224;0.433518;15;-93;148;-2879;5206;-2719;8192;0.5922005;-0.4542936;-0.4889196;-0.4515235;43;26;80;1448;5403;2505;32768;-0.5124654;0.2728532;0.5401662;0.6092215;-57;-18;-51;3895;5661;-2860;256;0.033241;-0.01108033;-0.6509695;-0.7582948;-26;4;0;331;4032;-881;128;0.05540166;0.01523546;0.5734072;0.8172532;36;-3;-1;-691;3999;1562;4;0.5083103;-0.5249984;0.4792244;0.4861496;-2;-19;3;-53;4072;-42;16;0.6274238;-0.73976;-0.1191136;-0.2119114;7;-1;0;389;3956;620;2;0.5055401;-0.4459834;-0.5027701;-0.541064;-2;-12;-3;-601;4092;59;8;0.6565097;-0.7506555;-0.07202215;0.01800554;0;1;-1;-613;4039;311;0.5079853;2.820536;-0.1656701;0.5139429;3.363455;-0.1125157;0.5191817;3.840877;-0.06780615;0.4913568;4.564572;0.05032323;0.2202498;4.882421;0.06518847;-0.1150958;4.720857;0.1049352;-0.3866445;3.865713;-0.1259747;-0.335997;3.076399;-0.6477163;0.7402095;4.902416;0.06518793;1.034624;4.765068;0.1049346;1.231228;3.833422;-0.04223241;1.503664;2.964948;-0.3055186;0.1957411;2.779419;-0.177722;0.2320464;1.316863;-0.1560555;0;0;0;0.1957411;2.779419;-0.177722;0.2320464;1.316863;-0.1560555;0;0;0
157332.8674;NotLabelled;NONE;16384;0.6549841;-0.4168975;0.4750692;0.4141274;51;-30;-39;740;4720;2699;65536;0.7477172;-0.4265928;0.2686981;0.432133;12;-57;136;-3767;5012;-2461;8192;0.5821823;-0.4598338;-0.4944598;-0.4529086;24;39;67;270;5485;1795;32768;-0.5096953;0.2825485;0.5387812;0.6083518;-48;-16;-30;3643;5211;-2514;256;0.03185596;-0.01108033;-0.6537396;-0.7559676;-27;2;0;241;3996;-413;128;0.05540166;0.0166205;0.5761772;0.8152755;14;-4;-2;-691;3849;1720;4;0.5069252;-0.5224931;0.4806094;0.4889196;-2;-25;5;-7;4128;-18;16;0.6274238;-0.7401554;-0.1191136;-0.2105263;6;-5;0;431;4050;500;2;0.5069252;-0.4459834;-0.5027701;-0.5397666;-3;-9;-4;-361;4130;13;8;0.6565097;-0.7506555;-0.07202215;0.01800554;0;3;-1;-469;4097;367;0.5096787;2.821571;-0.157601;0.5156418;3.365;-0.1099402;0.5208853;3.84285;-0.07006134;0.4947266;4.567837;0.04026393;0.2243841;4.886486;0.05147369;-0.1113893;4.726176;0.09265548;-0.3672743;3.863684;-0.1286118;-0.3456846;3.054446;-0.6210211;0.7443909;4.905214;0.05172032;1.038435;4.767586;0.09320138;1.203446;3.824017;-0.01035695;1.427922;2.935394;-0.2506633;0.1974332;2.780335;-0.169202;0.2304761;1.317645;-0.1517185;0;0;0;0.1974332;2.780335;-0.169202;0.2304761;1.317645;-0.1517185;0;0;0
157353.493;NotLabelled;NONE;16384;0.6436987;-0.4279778;0.4806094;0.4141274;13;17;-52;568;4312;2609;65536;0.7346454;-0.4404432;0.2963989;0.4224377;-11;-1;89;-3527;3970;-1601;8192;0.5750976;-0.4626039;-0.501385;-0.4515235;3;14;58;-720;5363;1245;32768;-0.5069252;0.2880886;0.534626;0.6117245;-38;-15;-15;3607;4707;-1984;256;0.03185596;-0.01108033;-0.6578947;-0.7523543;-30;6;0;177;3802;-245;128;0.05540166;0.0166205;0.5761772;0.8152755;3;-4;-3;-677;3743;1482;4;0.5055401;-0.5212598;0.4819945;0.4903047;-1;-27;3;215;4094;-78;16;0.6288089;-0.738979;-0.1191136;-0.2105263;5;-7;-1;431;4078;670;2;0.5069252;-0.4459834;-0.5027701;-0.5397666;-3;-5;-5;-265;4158;89;8;0.6565097;-0.7505533;-0.0734072;0.0166205;0;2;-2;-515;4069;435;0.5060952;2.821894;-0.1563001;0.5120618;3.365632;-0.1123045;0.5173081;3.84374;-0.07564871;0.4928519;4.569555;0.02950542;0.2232495;4.8889;0.03849977;-0.112884;4.729664;0.08089775;-0.3577648;3.858951;-0.1196537;-0.3618426;3.034418;-0.5864772;0.7432983;4.906426;0.03849936;1.037033;4.768417;0.08089744;1.191461;3.820333;0.006299287;1.40011;2.926266;-0.228002;0.193849;2.780581;-0.1675996;0.2277093;1.317869;-0.1539374;0;0;0;0.193849;2.780581;-0.1675996;0.2277093;1.317869;-0.1539374;0;0;0
157374.4938;NotLabelled;NONE;16384;0.6413969;-0.434903;0.4833795;0.4072022;7;33;-58;162;4124;2157;65536;0.7307889;-0.4473684;0.3033241;0.4168975;-22;15;66;-3111;3948;-1331;8192;0.5713376;-0.466759;-0.5055401;-0.4473684;-8;-9;50;-1138;4795;1029;32768;-0.5069252;0.2936288;0.5318559;0.6115049;-30;-19;-5;3237;4181;-1776;256;0.03047091;-0.009695291;-0.6606648;-0.7499997;-24;12;-2;39;3836;-205;128;0.05540166;0.01800554;0.5761772;0.8152461;0;0;-4;-585;3751;1326;4;0.5041551;-0.5186995;0.4833795;0.4930748;0;-22;1;365;4044;-44;16;0.6301939;-0.7384142;-0.1177285;-0.2091413;5;-7;-1;335;4026;616;2;0.5069252;-0.4459834;-0.5027701;-0.5397666;-2;-2;-4;-169;4146;159;8;0.6565097;-0.7505213;-0.0734072;0.01800554;0;3;-1;-613;4055;533;0.5045038;2.822656;-0.1518019;0.5104703;3.366393;-0.1078064;0.5157168;3.844501;-0.07115063;0.4914575;4.571437;0.02599932;0.2219556;4.890949;0.0313784;-0.1142452;4.732297;0.07540198;-0.3487754;3.85285;-0.09750682;-0.3844491;3.002366;-0.5136794;0.7420099;4.908307;0.03137765;1.035684;4.770679;0.07540101;1.188817;3.821127;0.01904249;1.382632;2.924595;-0.2185591;0.1922575;2.781342;-0.1631014;0.2263541;1.318638;-0.149284;0;0;0;0.1922575;2.781342;-0.1631014;0.2263541;1.318638;-0.149284;0;0;0
157394.7891;NotLabelled;NONE;16384;0.6397903;-0.4418283;0.4861496;0.398892;4;43;-56;-80;3982;1691;65536;0.7276321;-0.4556787;0.3060942;0.4113573;-26;26;46;-2839;3834;-1243;8192;0.569685;-0.4695291;-0.5096953;-0.4418283;-11;-15;42;-1020;4263;855;32768;-0.5069252;0.2977839;0.5290859;0.6118985;-21;-16;0;2771;3743;-1560;256;0.02770083;-0.008310249;-0.6634349;-0.7476749;-20;16;-3;51;3868;-265;128;0.0567867;0.01800554;0.5761772;0.8151508;0;6;-2;-537;3671;1208;4;0.5027701;-0.5161042;0.4847645;0.4958449;0;-1;-4;573;4016;-68;16;0.6315789;-0.7376215;-0.1177285;-0.2077562;5;-5;-1;469;3962;786;2;0.5069252;-0.4445983;-0.5027701;-0.540908;-3;0;-3;-129;4086;139;8;0.6565097;-0.7504165;-0.07479224;0.0166205;0;3;-1;-595;4023;675;0.5018926;2.823244;-0.1456168;0.5078592;3.366979;-0.1015876;0.5131056;3.845084;-0.06490218;0.4891576;4.572711;0.0270098;0.2198014;4.892377;0.03002543;-0.1164826;4.7342;0.07510847;-0.3540854;3.85243;-0.08094671;-0.3989751;2.993214;-0.4778485;0.7398637;4.909496;0.03002466;1.033464;4.772055;0.07510747;1.186583;3.821731;0.03368652;1.37052;2.92331;-0.2046305;0.1896463;2.781931;-0.156919;0.2244485;1.319211;-0.1470801;0;0;0;0.1896463;2.781931;-0.156919;0.2244485;1.319211;-0.1470801;0;0;0
157415.4974;NotLabelled;NONE;16384;0.6370078;-0.4501385;0.4889196;0.3905817;1;47;-52;-160;3818;1233;65536;0.7255965;-0.4626039;0.3060942;0.4072022;-29;25;27;-2553;3662;-1089;8192;0.5700469;-0.4722992;-0.5138504;-0.433518;-16;0;26;-484;3653;591;32768;-0.5138504;0.300554;0.5207756;0.6118969;-9;-4;13;2283;3341;-1110;256;0.02493075;-0.004155125;-0.66759;-0.7441;-14;16;-1;-159;3688;-303;128;0.05955679;0.0166205;0.5761772;0.8149825;-4;14;0;-481;3599;1286;4;0.5041551;-0.5160819;0.4847645;0.4944598;1;8;-7;553;4004;-186;16;0.632964;-0.7364333;-0.1177285;-0.2077562;5;-3;-1;353;3966;734;2;0.5069252;-0.4445983;-0.5041551;-0.5396174;-4;2;-2;-161;4100;165;8;0.6565097;-0.7504165;-0.07479224;0.0166205;1;2;-2;-469;4005;761;0.4966648;2.824221;-0.1398134;0.5026314;3.367966;-0.09591566;0.5078779;3.846081;-0.0593458;0.4857306;4.574398;0.02741018;0.2171744;4.894749;0.02810106;-0.1195141;4.737737;0.0742235;-0.3622154;3.854448;-0.06444047;-0.4104227;2.987477;-0.4436937;0.7372779;4.910568;0.02810073;1.030524;4.772713;0.07422346;1.188334;3.822695;0.04533686;1.363281;2.923099;-0.1953029;0.1844185;2.782905;-0.1511049;0.2198289;1.320177;-0.1453751;0;0;0;0.1844185;2.782905;-0.1511049;0.2198289;1.320177;-0.1453751;0;0;0
