SEP=;
index;label;segment;RightUpperArm_boneIndex;RightUpperArm_quat9x_w;RightUpperArm_quat9x_x;RightUpperArm_quat9x_y;RightUpperArm_quat9x_z;RightUpperArm_gyroscope_x;RightUpperArm_gyroscope_y;RightUpperArm_gyroscope_z;RightUpperArm_accelerometer_x;RightUpperArm_accelerometer_y;RightUpperArm_accelerometer_z;RightLowerArm_boneIndex;RightLowerArm_quat9x_w;RightLowerArm_quat9x_x;RightLowerArm_quat9x_y;RightLowerArm_quat9x_z;RightLowerArm_gyroscope_x;RightLowerArm_gyroscope_y;RightLowerArm_gyroscope_z;RightLowerArm_accelerometer_x;RightLowerArm_accelerometer_y;RightLowerArm_accelerometer_z;LeftUpperArm_boneIndex;LeftUpperArm_quat9x_w;LeftUpperArm_quat9x_x;LeftUpperArm_quat9x_y;LeftUpperArm_quat9x_z;LeftUpperArm_gyroscope_x;LeftUpperArm_gyroscope_y;LeftUpperArm_gyroscope_z;LeftUpperArm_accelerometer_x;LeftUpperArm_accelerometer_y;LeftUpperArm_accelerometer_z;LeftLowerArm_boneIndex;LeftLowerArm_quat9x_w;LeftLowerArm_quat9x_x;LeftLowerArm_quat9x_y;LeftLowerArm_quat9x_z;LeftLowerArm_gyroscope_x;LeftLowerArm_gyroscope_y;LeftLowerArm_gyroscope_z;LeftLowerArm_accelerometer_x;LeftLowerArm_accelerometer_y;LeftLowerArm_accelerometer_z;Chest_boneIndex;Chest_quat9x_w;Chest_quat9x_x;Chest_quat9x_y;Chest_quat9x_z;Chest_gyroscope_x;Chest_gyroscope_y;Chest_gyroscope_z;Chest_accelerometer_x;Chest_accelerometer_y;Chest_accelerometer_z;Spine_boneIndex;Spine_quat9x_w;Spine_quat9x_x;Spine_quat9x_y;Spine_quat9x_z;Spine_gyroscope_x;Spine_gyroscope_y;Spine_gyroscope_z;Spine_accelerometer_x;Spine_accelerometer_y;Spine_accelerometer_z;RightUpperLeg_boneIndex;RightUpperLeg_quat9x_w;RightUpperLeg_quat9x_x;RightUpperLeg_quat9x_y;RightUpperLeg_quat9x_z;RightUpperLeg_gyroscope_x;RightUpperLeg_gyroscope_y;RightUpperLeg_gyroscope_z;RightUpperLeg_accelerometer_x;RightUpperLeg_accelerometer_y;RightUpperLeg_accelerometer_z;RightLowerLeg_boneIndex;RightLowerLeg_quat9x_w;RightLowerLeg_quat9x_x;RightLowerLeg_quat9x_y;RightLowerLeg_quat9x_z;RightLowerLeg_gyroscope_x;RightLowerLeg_gyroscope_y;RightLowerLeg_gyroscope_z;RightLowerLeg_accelerometer_x;RightLowerLeg_accelerometer_y;RightLowerLeg_accelerometer_z;LeftUpperLeg_boneIndex;LeftUpperLeg_quat9x_w;LeftUpperLeg_quat9x_x;LeftUpperLeg_quat9x_y;LeftUpperLeg_quat9x_z;LeftUpperLeg_gyroscope_x;LeftUpperLeg_gyroscope_y;LeftUpperLeg_gyroscope_z;LeftUpperLeg_accelerometer_x;LeftUpperLeg_accelerometer_y;LeftUpperLeg_accelerometer_z;LeftLowerLeg_boneIndex;LeftLowerLeg_quat9x_w;LeftLowerLeg_quat9x_x;LeftLowerLeg_quat9x_y;LeftLowerLeg_quat9x_z;LeftLowerLeg_gyroscope_x;LeftLowerLeg_gyroscope_y;LeftLowerLeg_gyroscope_z;LeftLowerLeg_accelerometer_x;LeftLowerLeg_accelerometer_y;LeftLowerLeg_accelerometer_z;pelvis_x;pelvis_y;pelvis_z;lowerSpine_x;lowerSpine_y;lowerSpine_z;middleSpine_x;middleSpine_y;middleSpine_z;upperSpine_x;upperSpine_y;upperSpine_z;rightClavicle_x;rightClavicle_y;rightClavicle_z;rightShoulder_x;rightShoulder_y;rightShoulder_z;rightElbow_x;rightElbow_y;rightElbow_z;rightWrist_x;rightWrist_y;rightWrist_z;leftClavicle_x;leftClavicle_y;leftClavicle_z;leftShoulder_x;leftShoulder_y;leftShoulder_z;leftElbow_x;leftElbow_y;leftElbow_z;leftWrist_x;leftWrist_y;leftWrist_z;rightHip_x;rightHip_y;rightHip_z;rightKnee_x;rightKnee_y;rightKnee_z;rightAnkle_x;rightAnkle_y;rightAnkle_z;leftHip_x;leftHip_y;leftHip_z;leftKnee_x;leftKnee_y;leftKnee_z;leftAnkle_x;leftAnkle_y;leftAnkle_z;
917459.3441;NotLabelled;NONE;16384;0.7741354;0.4404432;0.4168975;0.1814404;-2;11;-10;2684;-2234;2287;65536;0.8231704;0.5512465;0.009695291;0.1357341;-8;17;4;-919;-3678;-1487;8192;0.864418;0.333795;-0.16759;-0.3365651;13;-6;6;-2960;-2153;2151;32768;0.8249222;0.5235457;0.09418282;-0.1911357;-14;2;-3;680;-3907;-1437;256;0.1648199;-0.2202216;-0.5415512;-0.7943923;-2;-6;-3;-55;3908;-1507;128;-0.09833795;0.2382271;0.5124654;0.8191195;3;-4;2;-311;3787;1694;4;-0.3282548;0.433518;-0.5886427;-0.5981728;3;0;5;-593;4066;-222;16;0.5941828;-0.7831526;0.1232687;0.1357341;-2;-3;0;145;3942;964;2;0.599723;-0.6167045;-0.3421052;-0.3781163;-2;-10;-7;-277;4046;-63;8;0.6149584;-0.70873;0.1911357;0.2880886;-7;-3;3;-399;4007;661;0.306208;2.785351;-0.5070547;0.3120527;3.317992;-0.389237;0.3171951;3.78662;-0.2876503;0.3026327;4.471037;-0.02340755;0.03723561;4.783469;0.05843373;-0.3007331;4.622703;0.0668118;-0.8032734;5.11662;-0.5347087;-0.7425048;5.97671;-0.9275838;0.5574622;4.794521;0.05848712;0.8495767;4.647138;0.06693012;1.637813;5.09381;-0.2608531;1.891073;5.947541;-0.584563;-0.006016701;2.745999;-0.5243559;0.1051962;1.299177;-0.3367497;0;0;0;-0.006016701;2.745999;-0.5243559;0.1051962;1.299177;-0.3367497;0;0;0
917481.0487;NotLabelled;NONE;16384;0.7729612;0.4404432;0.4196676;0.1800554;-2;15;-11;2700;-2082;2255;65536;0.8245105;0.5498615;0.01246537;0.132964;-9;22;4;-1127;-3600;-1505;8192;0.8652132;0.3310249;-0.1689751;-0.3365651;13;-5;5;-2968;-2065;2197;32768;0.8259564;0.5221606;0.09279778;-0.1911357;-14;-1;-5;814;-3837;-1605;256;0.16759;-0.2202216;-0.5415512;-0.7938125;-8;-9;-1;-229;3804;-1563;128;-0.101108;0.2382271;0.5138504;0.8179137;9;-8;0;-253;3699;1930;4;-0.3282548;0.432133;-0.5886427;-0.5991741;3;-2;4;-591;4198;-288;16;0.5941828;-0.7829112;0.1232687;0.1371191;-1;-3;0;145;3976;1088;2;0.601108;-0.6169704;-0.3407202;-0.3767313;-1;-13;-7;-259;4020;-87;8;0.6135734;-0.7099294;0.1911357;0.2880886;-7;-2;3;-455;4027;843;0.3086466;2.78413;-0.511304;0.3144922;3.316847;-0.3938283;0.3196352;3.78554;-0.2925427;0.3036514;4.470177;-0.02895358;0.03760278;4.782127;0.05261049;-0.3000258;4.620657;0.06116992;-0.8038025;5.111838;-0.5415565;-0.740641;5.969226;-0.9399183;0.557805;4.794276;0.05261093;0.85023;4.647517;0.06117105;1.638647;5.091972;-0.2691808;1.892084;5.944489;-0.595942;-0.003578261;2.744767;-0.5285777;0.1073447;1.297945;-0.3407997;0;0;0;-0.003578261;2.744767;-0.5285777;0.1073447;1.297945;-0.3407997;0;0;0
917502.0585;NotLabelled;NONE;16384;0.7725615;0.4390582;0.4224377;0.1786704;-2;17;-13;2578;-2046;2237;65536;0.8258275;0.5484765;0.01523546;0.1301939;-8;21;5;-1043;-3408;-1523;8192;0.8662679;0.3282548;-0.1689751;-0.3365651;15;-3;2;-2830;-2001;2149;32768;0.8283255;0.5193906;0.0900277;-0.1897507;-11;3;-4;972;-3631;-1637;256;0.1703601;-0.2216066;-0.5429363;-0.791889;-8;-12;-1;-301;3818;-1517;128;-0.1024931;0.2382271;0.5152354;0.8168693;10;-8;-1;-211;3593;1952;4;-0.3282548;0.432133;-0.5886427;-0.5991741;4;0;1;-581;4132;-202;16;0.5941828;-0.7826919;0.1246537;0.1371191;-1;-1;0;231;4042;1174;2;0.602493;-0.6171429;-0.3379501;-0.3767313;-1;-14;-6;-267;4000;-75;8;0.6121883;-0.7105614;0.1911357;0.2894737;-5;0;2;-487;4059;807;0.3065719;2.784677;-0.5085659;0.3124234;3.317929;-0.3935419;0.3175716;3.787082;-0.2944132;0.298693;4.472154;-0.03214797;0.0313298;4.783139;0.04880126;-0.3056167;4.620266;0.05765736;-0.8114249;5.110634;-0.5440292;-0.7464141;5.96661;-0.9451206;0.5514762;4.797476;0.04880157;0.8445157;4.651966;0.05765843;1.63601;5.091402;-0.2720501;1.8935;5.942275;-0.5999262;-0.005653813;2.745235;-0.5256426;0.105531;1.298018;-0.341086;0;0;0;-0.005653813;2.745235;-0.5256426;0.105531;1.298018;-0.341086;0;0;0
917523.0624;NotLabelled;NONE;16384;0.7713823;0.4376731;0.4265928;0.1772853;-2;15;-14;2474;-1890;2185;65536;0.8271215;0.5470914;0.01800554;0.1274238;-8;20;6;-1001;-3382;-1473;8192;0.8673126;0.3254848;-0.1689751;-0.3365651;15;-8;4;-2898;-1977;2131;32768;0.8293416;0.5180055;0.08864266;-0.1897507;-13;5;-1;1000;-3573;-1473;256;0.1717452;-0.2216066;-0.5429363;-0.7915897;-8;-14;-1;-227;3754;-1499;128;-0.1038781;0.2396122;0.5152354;0.816289;7;-11;-2;-193;3573;1954;4;-0.3268698;0.432133;-0.5886427;-0.5999309;1;-1;0;-553;3992;-232;16;0.5941828;-0.7826919;0.1246537;0.1371191;1;1;0;335;3930;1312;2;0.6038781;-0.61739;-0.3365651;-0.3753462;-1;-11;-4;-157;4122;-133;8;0.6121883;-0.7105614;0.1911357;0.2894737;-3;0;2;-381;4161;867;0.311523;2.784904;-0.5075236;0.3173794;3.318599;-0.3945773;0.3225317;3.788135;-0.2972766;0.3024977;4.474529;-0.03857869;0.03461612;4.785495;0.04071464;-0.302066;4.622121;0.05036911;-0.8072593;5.110339;-0.5535781;-0.7394451;5.964901;-0.9572108;0.5547384;4.800679;0.04071474;0.8480133;4.655694;0.05036974;1.642035;5.091166;-0.2785196;1.906166;5.938795;-0.6094999;-0.0007034242;2.745395;-0.5244332;0.1094222;1.298179;-0.3392434;0;0;0;-0.0007034242;2.745395;-0.5244332;0.1094222;1.298179;-0.3392434;0;0;0
917544.0419;NotLabelled;NONE;16384;0.770947;0.4362881;0.4293629;0.1759003;-4;17;-16;2514;-1976;2253;65536;0.8281831;0.5457063;0.02077562;0.1260388;-9;23;7;-923;-3384;-1597;8192;0.8680962;0.3240997;-0.1703601;-0.33518;14;-15;7;-2710;-2121;2187;32768;0.8302051;0.5166205;0.08864266;-0.1897507;-17;1;2;934;-3589;-1523;256;0.1745152;-0.2229917;-0.5429363;-0.7905943;-5;-16;0;-301;3702;-1461;128;-0.1066482;0.2409972;0.5152354;0.8155237;6;-16;-3;-215;3553;1864;4;-0.3268698;0.432133;-0.5886427;-0.5999309;0;0;-1;-551;4134;-114;16;0.5941828;-0.7831526;0.1232687;0.1357341;1;8;0;371;3864;1250;2;0.6066482;-0.6162672;-0.33518;-0.3739612;-7;-5;-2;-87;4308;-143;8;0.6108033;-0.7111875;0.1911357;0.2908587;-5;-2;3;-1077;4003;687;0.3095932;2.784467;-0.50935;0.3154504;3.318238;-0.3967609;0.3206034;3.787839;-0.2997745;0.2991182;4.474445;-0.04175648;0.03058212;4.784928;0.03721386;-0.3057581;4.62086;0.04701069;-0.8140095;5.106258;-0.5566423;-0.7450427;5.959407;-0.9630637;0.5506715;4.801201;0.037229;0.8442485;4.656839;0.04704404;1.640073;5.088551;-0.2824451;1.90775;5.934504;-0.6148589;-0.002633348;2.744947;-0.5262309;0.109997;1.298178;-0.3390577;0;0;0;-0.002633348;2.744947;-0.5262309;0.109997;1.298178;-0.3390577;0;0;0
917565.2856;NotLabelled;NONE;16384;0.7689339;0.433518;0.4362881;0.1745152;-4;13;-19;2602;-2028;2341;65536;0.830622;0.5429363;0.02770083;0.1204986;-7;24;10;-1005;-3544;-1773;8192;0.8696583;0.3213296;-0.1703601;-0.333795;14;-14;4;-2554;-2199;2291;32768;0.8325494;0.5138504;0.08864266;-0.1869806;-17;-4;2;750;-3771;-1779;256;0.1772853;-0.2243767;-0.5429363;-0.7895855;-4;-20;0;-237;3742;-1467;128;-0.1094183;0.2437673;0.5152354;0.8143326;7;-20;-4;-261;3625;1854;4;-0.3282548;0.432133;-0.5900277;-0.5978103;-1;7;-1;-397;4166;-20;16;0.5941828;-0.7845035;0.1191136;0.1315789;2;26;0;407;3866;1326;2;0.6066482;-0.6171055;-0.33518;-0.3725762;-10;-3;0;-217;4292;-63;8;0.6094183;-0.7123747;0.1911357;0.2908587;-7;-8;2;-815;3961;689;0.3135828;2.784257;-0.5099823;0.3194418;3.318187;-0.3981519;0.3245963;3.787925;-0.301833;0.3013602;4.474995;-0.04520172;0.03203463;4.784954;0.03313286;-0.3038889;4.620053;0.04324904;-0.8126543;5.102907;-0.5620102;-0.742134;5.954369;-0.9716913;0.5520812;4.802546;0.03313288;0.8460228;4.658948;0.04324943;1.644263;5.088158;-0.2836552;1.914756;5.932779;-0.6171739;0.00135605;2.744713;-0.5268021;0.1129216;1.297944;-0.3389923;0;0;0;0.00135605;2.744713;-0.5268021;0.1129216;1.297944;-0.3389923;0;0;0
917586.1784;NotLabelled;NONE;16384;0.7684497;0.432133;0.4390582;0.1731302;-4;16;-21;2798;-2078;2245;65536;0.8316284;0.5415512;0.03047091;0.1191136;-7;24;10;-1091;-3598;-1739;8192;0.8706989;0.3199446;-0.1703601;-0.33241;12;0;1;-2632;-1921;2169;32768;0.8338583;0.5124654;0.08725762;-0.1855956;-14;-3;0;710;-3749;-1861;256;0.1800554;-0.2257618;-0.5415512;-0.789515;-7;-22;0;-243;3770;-1567;128;-0.1108033;0.2451524;0.5152354;0.8137293;10;-20;-5;-269;3693;1902;4;-0.3296399;0.433518;-0.5886427;-0.5974107;0;16;0;-545;4080;-196;16;0.5955678;-0.7843286;0.1163435;0.1288089;3;24;1;283;3996;1340;2;0.6080332;-0.614985;-0.3365651;-0.3725762;-10;-1;1;-403;4222;125;8;0.6080332;-0.7126184;0.1925208;0.2922437;-6;-20;1;-265;4215;923;0.3275706;2.784112;-0.5121318;0.3334313;3.318198;-0.4010454;0.3385873;3.78807;-0.3053812;0.3136007;4.475602;-0.05015829;0.04348911;4.785041;0.02752291;-0.2920185;4.619316;0.03795335;-0.8061451;5.095455;-0.568095;-0.7343845;5.943714;-0.984153;0.5634896;4.803943;0.02752304;0.8577914;4.661108;0.03795403;1.658001;5.087087;-0.2883611;1.929935;5.929169;-0.6270902;0.01534365;2.744545;-0.5288917;0.1178641;1.297255;-0.339949;0;0;0;0.01534365;2.744545;-0.5288917;0.1178641;1.297255;-0.339949;0;0;0
917606.2913;NotLabelled;NONE;16384;0.7668404;0.4307479;0.4432133;0.1731302;-4;19;-22;2788;-2070;2333;65536;0.8327579;0.5401662;0.03462604;0.1163435;-7;22;9;-1173;-3618;-1539;8192;0.871452;0.3171745;-0.1689751;-0.333795;19;0;1;-2894;-1977;2157;32768;0.8354086;0.5096953;0.08864266;-0.1855956;-10;13;7;1102;-3581;-1515;256;0.1855956;-0.2299169;-0.5415512;-0.7870291;-4;-21;4;-353;3894;-1553;128;-0.1163435;0.2506925;0.5166205;0.8103831;9;-19;-7;-249;3827;2040;4;-0.3296399;0.434903;-0.5886427;-0.5964031;-3;13;-2;-931;4024;-466;16;0.5955678;-0.784759;0.1149584;0.1274238;5;14;0;279;3936;1186;2;0.6108033;-0.6130746;-0.3365651;-0.3711911;-10;-12;1;-889;4360;261;8;0.6066482;-0.7119033;0.1952908;0.2950138;-2;-29;-1;-145;4475;1215;0.3293917;2.784896;-0.5083464;0.3352532;3.319061;-0.3976389;0.3404099;3.789001;-0.3023078;0.3130383;4.476149;-0.04629984;0.04185434;4.78456;0.03173642;-0.2930757;4.617659;0.04197964;-0.8031707;5.092097;-0.5687912;-0.7298686;5.938656;-0.9880317;0.5617862;4.805268;0.03175503;0.8565825;4.663444;0.04202098;1.660254;5.088418;-0.2770178;1.935971;5.928865;-0.6167467;0.01716448;2.745317;-0.525076;0.1200223;1.298051;-0.3361338;0;0;0;0.01716448;2.745317;-0.525076;0.1200223;1.298051;-0.3361338;0;0;0
917627.0197;NotLabelled;NONE;16384;0.7647035;0.4293629;0.4487534;0.1717452;-3;16;-22;2620;-2084;2335;65536;0.8336639;0.5387812;0.03878116;0.1149584;-7;20;8;-1209;-3680;-1517;8192;0.8727223;0.3144044;-0.16759;-0.333795;21;-6;0;-2870;-2045;2445;32768;0.836104;0.5083103;0.0900277;-0.1855956;-14;14;11;1084;-3829;-1479;256;0.1883656;-0.232687;-0.5415512;-0.7855555;0;-21;3;-201;3962;-1517;128;-0.1177285;0.2520775;0.5166205;0.8097532;6;-17;-6;-283;3873;1964;4;-0.3296399;0.434903;-0.5886427;-0.5964031;-3;-5;-2;-1151;4060;-768;16;0.5969529;-0.7837059;0.1149584;0.1274238;6;1;0;-69;3926;1098;2;0.6154215;-0.6108033;-0.333795;-0.3698061;0;-29;2;-697;4304;-223;8;0.6052631;-0.7105817;0.1980609;0.299169;-2;-33;-4;-641;4175;1183;0.3386911;2.784379;-0.5123449;0.3445599;3.319205;-0.4048852;0.3497229;3.789716;-0.3124112;0.3200268;4.477856;-0.05934253;0.0478066;4.785694;0.0173399;-0.2865677;4.617724;0.02825001;-0.7978998;5.087139;-0.5853598;-0.7203687;5.931915;-1.007426;0.5676664;4.808131;0.01734042;0.8629314;4.667335;0.02825153;1.668981;5.088319;-0.2900739;1.949303;5.926373;-0.6319377;0.02646291;2.744699;-0.5288129;0.1256564;1.297832;-0.3349177;0;0;0;0.02646291;2.744699;-0.5288129;0.1256564;1.297832;-0.3349177;0;0;0
917647.1998;NotLabelled;NONE;16384;0.7633816;0.4293629;0.4515235;0.1703601;-4;14;-23;2810;-2258;2373;65536;0.834801;0.5373961;0.04155125;0.1121884;-7;21;8;-1113;-3886;-1615;8192;0.8737153;0.3116343;-0.16759;-0.333795;19;0;-2;-2740;-1895;2473;32768;0.8367944;0.5069252;0.09141274;-0.1855956;-17;9;8;882;-4005;-1815;256;0.1911357;-0.2354571;-0.5401662;-0.7850144;0;-20;2;-121;3940;-1427;128;-0.1204986;0.2548476;0.5166205;0.8084776;0;-17;-6;-283;3919;1826;4;-0.3268698;0.434903;-0.5900277;-0.5965592;-3;-26;0;-1009;4034;-782;16;0.5969529;-0.7837059;0.1149584;0.1274238;6;-5;1;-69;4048;880;2;0.6165629;-0.6135734;-0.3296399;-0.367036;4;-37;5;-349;4036;-303;8;0.602493;-0.7107868;0.199446;0.3033241;-2;-29;-5;-745;3805;947;0.3411267;2.785625;-0.5080405;0.3469964;3.320531;-0.4009802;0.3521601;3.791111;-0.3088577;0.3218751;4.47978;-0.05730343;0.04939647;4.787566;0.01866652;-0.284844;4.619351;0.02989981;-0.7935971;5.08493;-0.5887565;-0.7153625;5.92763;-1.014823;0.5692381;4.810422;0.01868826;0.8646148;4.669888;0.02994829;1.675287;5.088106;-0.2801812;1.957352;5.925125;-0.6231484;0.0288983;2.745933;-0.5244762;0.1265033;1.299066;-0.3297759;0;0;0;0.0288983;2.745933;-0.5244762;0.1265033;1.299066;-0.3297759;0;0;0
917668.0445;NotLabelled;NONE;16384;0.7594967;0.4279778;0.4598338;0.1689751;-5;18;-20;2984;-2016;2339;65536;0.8356853;0.536011;0.04847645;0.1094183;-4;22;11;-1371;-3784;-1701;8192;0.8744725;0.3102493;-0.166205;-0.333795;19;4;-5;-3056;-1845;2451;32768;0.8374796;0.5055401;0.09279778;-0.1855956;-15;8;4;848;-3885;-1917;256;0.1925208;-0.2368421;-0.5401662;-0.7842589;-4;-19;4;-201;3976;-1535;128;-0.1218837;0.2576177;0.5152354;0.8082759;0;-18;-7;-231;3827;1754;4;-0.3199446;0.4265928;-0.5969529;-0.5994174;-8;-50;7;-367;3930;-492;16;0.599723;-0.7807188;0.1177285;0.1301939;5;-15;0;53;3864;712;2;0.6163435;-0.6216075;-0.3240997;-0.3587258;0;-38;6;361;4130;-257;8;0.599723;-0.7085608;0.2049861;0.3102493;-3;-32;-7;-81;3977;567;0.3451658;2.784811;-0.5138589;0.3510372;3.319879;-0.40761;0.3562025;3.790598;-0.3162015;0.3246788;4.478965;-0.06397161;0.05164693;4.786184;0.01229994;-0.2822904;4.617358;0.02336809;-0.790093;5.082637;-0.596294;-0.7081101;5.923922;-1.024448;0.5714468;4.809977;0.0123446;0.8670757;4.669963;0.023467;1.680989;5.084346;-0.2833035;1.964806;5.92032;-0.6273706;0.03293711;2.745094;-0.5302292;0.1291789;1.299066;-0.3287371;0;0;0;0.03293711;2.745094;-0.5302292;0.1291789;1.299066;-0.3287371;0;0;0
917688.0713;NotLabelled;NONE;16384;0.7577469;0.4265928;0.4639889;0.1689751;-4;17;-18;2794;-1934;2301;65536;0.8365009;0.534626;0.05263158;0.1080332;-2;19;10;-1477;-3690;-1583;8192;0.8754427;0.3074792;-0.1634349;-0.33518;19;0;-6;-3080;-1735;2411;32768;0.8383141;0.5041551;0.09279778;-0.1855956;-14;9;2;1048;-3759;-1795;256;0.1952908;-0.2382271;-0.5401662;-0.7831537;-6;-19;5;-289;3984;-1555;128;-0.1246537;0.2590028;0.5152354;0.8074103;6;-19;-7;-161;3791;1686;4;-0.3171745;0.4210526;-0.599723;-0.602036;-4;-47;7;-263;3996;-524;16;0.599723;-0.7800637;0.1204986;0.1315789;2;-18;0;33;3844;752;2;0.6177285;-0.6233349;-0.3227147;-0.3545706;-4;-28;5;183;4092;-25;8;0.5983379;-0.7070919;0.2077562;0.3144044;-4;-32;-10;-437;3843;717;0.3476768;2.78811;-0.503832;0.3535455;3.322918;-0.3962786;0.3587083;3.793412;-0.3037224;0.3269261;4.48205;-0.05226594;0.05377759;4.789249;0.02366912;-0.2800938;4.620306;0.03493837;-0.8028979;5.078166;-0.5777359;-0.7247161;5.916939;-1.011491;0.5735682;4.813243;0.02366954;0.869252;4.673356;0.03493947;1.68096;5.086269;-0.2795559;1.965126;5.921191;-0.625885;0.03544855;2.748433;-0.5203075;0.1246319;1.301916;-0.3190747;0;0;0;0.03544855;2.748433;-0.5203075;0.1246319;1.301916;-0.3190747;0;0;0
917709.1977;NotLabelled;NONE;16384;0.7571315;0.4252077;0.466759;0.16759;-5;14;-15;2754;-1784;2321;65536;0.8364069;0.534626;0.0567867;0.1066482;-2;17;11;-1229;-3666;-1561;8192;0.8779306;0.3033241;-0.1606648;-0.333795;17;-9;-8;-2740;-1797;2391;32768;0.8406449;0.5;0.09418282;-0.1855956;-16;12;3;924;-3579;-1837;256;0.199446;-0.2423823;-0.5401662;-0.7808282;-7;-19;3;-241;3832;-1371;128;-0.1274238;0.2645429;0.5166205;0.8042907;8;-12;-6;-163;3615;1738;4;-0.3144044;0.4155124;-0.602493;-0.6045671;-3;-36;7;-315;4236;-404;16;0.599723;-0.7796136;0.1218837;0.132964;1;-18;0;7;3924;834;2;0.6191136;-0.6242452;-0.3213296;-0.3518005;-1;-17;3;-25;3814;27;8;0.5969529;-0.7059936;0.2091413;0.3185596;-7;-21;-9;-465;3649;653;0.3526875;2.789353;-0.4960945;0.3585579;3.324334;-0.3894067;0.3637224;3.794978;-0.2976119;0.3302226;4.484099;-0.04770842;0.05631618;4.790807;0.02748226;-0.2771478;4.621082;0.03906399;-0.7988371;5.075299;-0.5772604;-0.7209566;5.911982;-1.015089;0.5760471;4.816058;0.02753282;0.872066;4.676913;0.03917575;1.686037;5.087585;-0.2723925;1.973274;5.921103;-0.6195614;0.04045895;2.749649;-0.5125003;0.1273934;1.302279;-0.3164943;0;0;0;0.04045895;2.749649;-0.5125003;0.1273934;1.302279;-0.3164943;0;0;0
917729.2692;NotLabelled;NONE;16384;0.7557226;0.4252077;0.4695291;0.166205;-7;15;-13;2702;-1902;2223;65536;0.8363897;0.534626;0.05955679;0.1052632;-3;17;12;-1213;-3616;-1407;8192;0.8796595;0.300554;-0.1592798;-0.33241;16;-6;-11;-2576;-1787;2333;32768;0.8414671;0.4986149;0.09418282;-0.1855956;-15;12;2;838;-3533;-1909;256;0.2022161;-0.2437673;-0.5401662;-0.7796836;-7;-17;2;-203;3738;-1397;128;-0.1301939;0.265928;0.5166205;0.8033898;4;-9;-5;-115;3563;1770;4;-0.3116343;0.4113573;-0.6038781;-0.6074541;-1;-28;6;-269;4080;-258;16;0.599723;-0.7789378;0.1246537;0.134349;1;-14;0;91;4016;946;2;0.6191136;-0.6250237;-0.3213296;-0.3504155;1;-11;1;-157;3616;-55;8;0.5955678;-0.7054962;0.2105263;0.3213296;-5;-21;-6;169;3665;683;0.3591723;2.79048;-0.4896078;0.3650482;3.325952;-0.3854088;0.3702173;3.797016;-0.2958035;0.3359455;4.486963;-0.04829356;0.06169838;4.793631;0.02581349;-0.271581;4.623582;0.03795955;-0.7925773;5.074706;-0.5812167;-0.7140421;5.910591;-1.020448;0.5814015;4.819448;0.0258137;0.8775715;4.680669;0.03796053;1.69137;5.08747;-0.2790898;1.983945;5.917085;-0.6311212;0.04694289;2.7507;-0.5058128;0.1302408;1.302497;-0.3144305;0;0;0;0.04694289;2.7507;-0.5058128;0.1302408;1.302497;-0.3144305;0;0;0
917750.2826;NotLabelled;NONE;16384;0.7531252;0.4252077;0.4736842;0.166205;-8;13;-13;2640;-1832;2215;65536;0.8371405;0.533241;0.06371191;0.1038781;-3;18;12;-1163;-3494;-1443;8192;0.8811499;0.299169;-0.1565097;-0.3310249;17;0;-12;-2502;-1693;2383;32768;0.8426405;0.4958449;0.09556787;-0.1869806;-14;12;0;816;-3379;-1935;256;0.2049861;-0.2465374;-0.5401662;-0.7780877;-7;-17;2;-255;3604;-1357;128;-0.1301939;0.267313;0.5166205;0.80293;5;-8;-5;-215;3487;1694;4;-0.3102493;0.4085872;-0.6052631;-0.6086529;-4;-22;4;-247;4050;-86;16;0.599723;-0.7784747;0.1260388;0.1357341;2;-12;0;131;3866;1046;2;0.6204986;-0.6251357;-0.3199446;-0.3490305;-2;-11;0;-73;3718;59;8;0.5941828;-0.7051998;0.2132964;0.3227147;-1;-20;-2;535;3877;709;0.3600792;2.791267;-0.4832283;0.365957;3.326912;-0.3799282;0.3711277;3.798128;-0.2911136;0.3351914;4.488564;-0.04520872;0.06020949;4.794751;0.02815525;-0.2726673;4.623941;0.04065761;-0.7940764;5.074299;-0.5787287;-0.7157389;5.909764;-1.018796;0.57985;4.821801;0.02815515;0.8763465;4.683752;0.04065776;1.690947;5.088167;-0.2773831;1.986633;5.916352;-0.6301818;0.04784954;2.75146;-0.4993607;0.1329223;1.302862;-0.3117831;0;0;0;0.04784954;2.75146;-0.4993607;0.1329223;1.302862;-0.3117831;0;0;0
917771.2759;NotLabelled;NONE;16384;0.7510043;0.4238227;0.4792244;0.1634349;-5;17;-14;2578;-1844;2061;65536;0.8369239;0.533241;0.07063711;0.101108;-1;18;11;-1035;-3386;-1447;8192;0.8821062;0.2977839;-0.1537396;-0.3310249;18;3;-14;-2500;-1591;2427;32768;0.8434539;0.4944598;0.09556787;-0.1869806;-12;14;0;858;-3281;-1941;256;0.2063712;-0.2479224;-0.5401662;-0.777281;-6;-16;3;-189;3576;-1317;128;-0.1315789;0.2686981;0.5180055;0.801348;6;-7;-5;-199;3493;1670;4;-0.3102493;0.4030471;-0.6109635;-0.6066482;-6;-3;1;-139;4152;-200;16;0.599723;-0.7777782;0.1288089;0.1371191;2;-1;0;531;3828;1238;2;0.6204986;-0.6259071;-0.3199446;-0.3476454;-3;-12;0;219;3802;7;8;0.5927978;-0.7048869;0.2160665;0.3240997;2;-12;1;97;4145;581;0.3639446;2.791893;-0.4795341;0.3698223;3.327533;-0.3762074;0.374993;3.798743;-0.2873694;0.3385608;4.489739;-0.04311368;0.06336362;4.795914;0.02948687;-0.2693996;4.624911;0.04235467;-0.7928521;5.071943;-0.5777175;-0.7137702;5.905309;-1.021614;0.5829856;4.823314;0.02948701;0.8795735;4.685495;0.04235512;1.694059;5.090606;-0.2750924;1.993829;5.916214;-0.6304758;0.05171496;2.752087;-0.4956687;0.1344717;1.303085;-0.3101817;0;0;0;0.05171496;2.752087;-0.4956687;0.1344717;1.303085;-0.3101817;0;0;0
917792.0514;NotLabelled;NONE;16384;0.7495302;0.4238227;0.4819945;0.1620499;-4;12;-14;2572;-1920;2183;65536;0.8377327;0.5318559;0.0734072;0.09972299;0;14;9;-987;-3552;-1507;8192;0.8830506;0.2963989;-0.1509695;-0.3310249;19;2;-13;-2504;-1683;2421;32768;0.8447641;0.4916897;0.09556787;-0.1883656;-13;19;3;964;-3127;-1969;256;0.2077562;-0.2493075;-0.5401662;-0.7764687;-4;-15;3;-273;3606;-1353;128;-0.132964;0.2686981;0.5180055;0.8011193;9;-8;-5;-181;3565;1692;4;-0.3116343;0.4030471;-0.6102582;-0.6066482;-6;2;-1;-271;4280;-328;16;0.599723;-0.7782491;0.1274238;0.1357341;3;13;1;-155;4118;1122;2;0.6204986;-0.6266744;-0.3199446;-0.3462604;6;0;2;189;4078;-173;8;0.5941828;-0.7039296;0.2174515;0.3227147;4;10;1;-389;3993;781;0.3849597;2.793863;-0.4726184;0.3908418;3.329911;-0.3714235;0.3960164;3.801471;-0.284461;0.359343;4.492747;-0.04103842;0.08404114;4.79892;0.0311766;-0.2486671;4.627824;0.04422894;-0.7769354;5.072008;-0.5738017;-0.7035732;5.904162;-1.020941;0.6036541;4.826489;0.03117669;0.9002861;4.688784;0.04422921;1.71375;5.093852;-0.2758801;2.016057;5.918011;-0.6324775;0.07272929;2.753994;-0.4885808;0.136575;1.303453;-0.307706;0;0;0;0.07272929;2.753994;-0.4885808;0.136575;1.303453;-0.307706;0;0;0
917812.1328;NotLabelled;NONE;16384;0.7497183;0.4224377;0.4833795;0.1606648;-3;3;-13;2590;-1962;2215;65536;0.8374853;0.5318559;0.07617728;0.09972299;1;10;10;-919;-3582;-1581;8192;0.8858789;0.2922437;-0.1454294;-0.3296399;19;0;-7;-2298;-1873;2639;32768;0.8460689;0.4875346;0.09972299;-0.1911357;-13;14;9;916;-3251;-2235;256;0.2119114;-0.2520775;-0.5401662;-0.7744488;-3;-13;1;-215;3780;-1381;128;-0.132964;0.2700831;0.5207756;0.7988545;8;-1;-4;-267;3769;1906;4;-0.3116343;0.4030471;-0.6102582;-0.6066482;-2;1;-2;-369;3946;-836;16;0.601108;-0.7776462;0.1260388;0.134349;4;15;2;-69;4104;874;2;0.6191136;-0.6280427;-0.3199446;-0.3462604;4;4;1;-3;4206;-17;8;0.5955678;-0.7038192;0.2160665;0.3213296;4;8;1;-175;4223;915;0.3878886;2.794033;-0.4697408;0.3937716;3.330169;-0.3690183;0.398947;3.801806;-0.2824714;0.3620368;4.493364;-0.03988755;0.0866323;4.799536;0.03193919;-0.2460221;4.628349;0.04517677;-0.7757891;5.071774;-0.572116;-0.7015865;5.902208;-1.022304;0.6062366;4.827272;0.03193957;0.9029117;4.689676;0.04517794;1.715501;5.094693;-0.277211;2.022501;5.915895;-0.6366088;0.07565802;2.754149;-0.4856651;0.1388532;1.303228;-0.3076441;0;0;0;0.07565802;2.754149;-0.4856651;0.1388532;1.303228;-0.3076441;0;0;0
917833.0419;NotLabelled;NONE;16384;0.7476261;0.4224377;0.4861496;0.1620499;-1;3;-14;2776;-1940;2241;65536;0.8365112;0.533241;0.07894737;0.09833795;2;6;11;-989;-3570;-1617;8192;0.887014;0.2894737;-0.1440443;-0.3296399;17;3;-7;-2582;-1825;2741;32768;0.8474949;0.4847645;0.101108;-0.1911357;-14;11;9;786;-3487;-2307;256;0.2132964;-0.2534626;-0.5401662;-0.7736161;-3;-13;1;-193;3924;-1415;128;-0.134349;0.2714681;0.5207756;0.7981529;3;-4;-4;-419;3851;1936;4;-0.3102493;0.4030471;-0.6109635;-0.6066482;1;0;0;-397;3854;-816;16;0.601108;-0.7781074;0.1246537;0.132964;2;6;2;53;3936;566;2;0.6191136;-0.6280427;-0.3199446;-0.3462604;-2;6;0;-177;4426;177;8;0.5955678;-0.7038192;0.2160665;0.3213296;4;4;1;-355;4147;763;0.391649;2.795082;-0.4656701;0.3975389;3.331838;-0.3683077;0.4027201;3.804008;-0.2847167;0.3639575;4.496347;-0.04466143;0.08774107;4.802059;0.02599595;-0.2444684;4.630054;0.03979284;-0.7689212;5.072526;-0.5827002;-0.6941305;5.902186;-1.034214;0.6072711;4.83115;0.02599579;0.9043013;4.694377;0.03979272;1.715351;5.097819;-0.2883966;2.025189;5.915581;-0.653161;0.07941739;2.755099;-0.4813228;0.1408299;1.304177;-0.3026789;0;0;0;0.07941739;2.755099;-0.4813228;0.1408299;1.304177;-0.3026789;0;0;0
917853.0453;NotLabelled;NONE;16384;0.7458175;0.4224377;0.4889196;0.1620499;-1;7;-16;2794;-1980;2389;65536;0.8362452;0.533241;0.08171745;0.09833795;0;12;13;-1113;-3786;-1387;8192;0.8879099;0.2880886;-0.1412742;-0.3296399;14;1;-7;-2698;-1625;2841;32768;0.8484304;0.4833795;0.1024931;-0.1897507;-15;6;4;950;-3557;-2313;256;0.2146814;-0.2548476;-0.5401662;-0.7727775;-2;-13;3;-221;4006;-1459;128;-0.134349;0.2728532;0.5207756;0.7976806;0;-5;-4;-357;3887;1922;4;-0.3102493;0.4030471;-0.6066482;-0.6109635;0;-8;4;-351;4098;-602;16;0.602493;-0.7770355;0.1246537;0.132964;0;-3;3;-111;3952;612;2;0.6191136;-0.6273352;-0.3213296;-0.3462604;1;10;1;-165;4222;-41;8;0.5969529;-0.7032766;0.2160665;0.3199446;5;-2;1;-355;3967;669;0.3947839;2.794494;-0.4689588;0.4006747;3.331332;-0.3720468;0.4058567;3.803571;-0.2888517;0.3668733;4.496196;-0.04965818;0.09056194;4.801914;0.0206003;-0.241598;4.629829;0.03458703;-0.7687313;5.06859;-0.5882679;-0.6967604;5.89915;-1.038588;0.6100835;4.831159;0.02060097;0.907153;4.69449;0.03458875;1.719092;5.094707;-0.2953463;2.030555;5.909837;-0.6645861;0.08255206;2.754498;-0.4845752;0.143087;1.303958;-0.3025657;0;0;0;0.08255206;2.754498;-0.4845752;0.143087;1.303958;-0.3025657;0;0;0
917873.0432;NotLabelled;NONE;16384;0.7439943;0.4224377;0.4916897;0.1620499;-3;12;-16;2856;-1968;2573;65536;0.8359905;0.533241;0.08587258;0.09695291;-5;22;17;-1123;-3898;-1251;8192;0.8885773;0.2867036;-0.1398892;-0.3296399;10;0;-7;-2796;-1553;2755;32768;0.8500026;0.4806094;0.1024931;-0.1897507;-15;2;1;1078;-3371;-2337;256;0.2160665;-0.2562327;-0.5401662;-0.771933;-2;-10;4;-193;3980;-1477;128;-0.134349;0.2742382;0.5207756;0.7972054;-4;-5;-5;-179;3719;1854;4;-0.3088643;0.4016621;-0.6080332;-0.6112005;0;-15;6;-455;4196;-350;16;0.602493;-0.776812;0.1260388;0.132964;-1;-7;4;-11;4030;690;2;0.6177285;-0.6279342;-0.3213296;-0.3476454;3;9;1;-367;3966;-121;8;0.5969529;-0.7028496;0.2174515;0.3199446;5;-11;3;-113;3753;693;0.3779764;2.795656;-0.4582489;0.3838672;3.332489;-0.3613091;0.3890492;3.804724;-0.2780898;0.3498513;4.497635;-0.03976396;0.07344757;4.803362;0.0300947;-0.2586638;4.631199;0.04427451;-0.7854608;5.06768;-0.5804636;-0.7155486;5.897455;-1.032552;0.5929606;4.832755;0.03009284;0.8900684;4.69619;0.04427069;1.702471;5.096273;-0.2846825;2.01346;5.910269;-0.6568146;0.06574473;2.755661;-0.4738674;0.1421832;1.305121;-0.2979435;0;0;0;0.06574473;2.755661;-0.4738674;0.1421832;1.305121;-0.2979435;0;0;0
917894.1297;NotLabelled;NONE;16384;0.7424766;0.4196676;0.4972299;0.1592798;-6;14;-12;2772;-1860;2211;65536;0.8370167;0.5304709;0.09556787;0.09418282;-8;24;15;-1569;-3626;-1711;8192;0.889752;0.2853186;-0.1385041;-0.3282548;9;-3;-7;-2764;-1689;2599;32768;0.8520359;0.4778393;0.101108;-0.1883656;-13;3;2;1160;-3309;-2385;256;0.2160665;-0.2576177;-0.5401662;-0.7714719;-3;-10;3;-233;3794;-1407;128;-0.134349;0.2742382;0.5193906;0.7981085;-4;-8;-4;-121;3567;1678;4;-0.3074792;0.3961219;-0.6094183;-0.6141282;-3;-16;4;-599;4018;104;16;0.602493;-0.7765861;0.1274238;0.132964;-2;-6;3;353;3890;1052;2;0.6177285;-0.6271654;-0.3213296;-0.3490305;7;-4;0;-551;3966;105;8;0.5955678;-0.701459;0.2216066;0.3227147;3;-6;0;-881;4229;1031;0.3835619;2.795801;-0.4571697;0.3894527;3.332629;-0.3602022;0.3946346;3.80486;-0.2769583;0.3552248;4.49806;-0.0395056;0.07873029;4.803796;0.02994832;-0.2533341;4.631558;0.04431939;-0.7849766;5.065812;-0.577861;-0.7180185;5.894781;-1.031872;0.5982351;4.833334;0.02994865;0.8953801;4.69687;0.04432034;1.706833;5.095845;-0.2883029;2.021539;5.90682;-0.6638927;0.07133016;2.755807;-0.4727906;0.1452232;1.305254;-0.2958858;0;0;0;0.07133016;2.755807;-0.4727906;0.1452232;1.305254;-0.2958858;0;0;0
917914.032;NotLabelled;NONE;16384;0.7409105;0.4196676;0.5;0.1578947;-3;14;-10;2780;-2052;2111;65536;0.8375632;0.5290859;0.09972299;0.09279778;-6;20;13;-1313;-3608;-1663;8192;0.8915709;0.2825485;-0.1357341;-0.3268698;8;-3;-7;-2648;-1707;2631;32768;0.853888;0.4750692;0.101108;-0.1869806;-6;4;3;964;-3481;-2355;256;0.2174515;-0.2590028;-0.5401662;-0.7706185;-2;-10;2;-165;3694;-1379;128;-0.1357341;0.2756233;0.5193906;0.7973967;2;-11;-4;-325;3589;1720;4;-0.3060942;0.3947368;-0.6143358;-0.6108033;-4;-12;1;-629;4072;12;16;0.601108;-0.7771922;0.1288089;0.134349;-1;-8;2;383;3988;1190;2;0.6177285;-0.6285769;-0.3185596;-0.3490305;11;-18;2;-525;4336;-89;8;0.5969529;-0.7002806;0.2216066;0.3227147;2;5;0;-1169;4437;1005;0.3855394;2.796966;-0.4458436;0.3914268;3.333486;-0.3471823;0.3966058;3.805451;-0.2624485;0.358373;4.498724;-0.02501819;0.08239791;4.804932;0.04442555;-0.2499584;4.633259;0.05880177;-0.7862042;5.063399;-0.5622847;-0.7262431;5.887731;-1.02562;0.6019522;4.833588;0.04442549;0.8988649;4.69662;0.05880183;1.709738;5.095109;-0.2758114;2.028535;5.902699;-0.6552241;0.07330817;2.757022;-0.4616014;0.1477299;1.305384;-0.294069;0;0;0;0.07330817;2.757022;-0.4616014;0.1477299;1.305384;-0.294069;0;0;0
917934.0442;NotLabelled;NONE;16384;0.7399739;0.4196676;0.501385;0.1578947;-1;9;-10;2700;-2034;2241;65536;0.8382546;0.5277008;0.1024931;0.09141274;-5;15;11;-1107;-3792;-1467;8192;0.8917807;0.2825485;-0.134349;-0.3268698;7;2;-6;-2556;-1687;2681;32768;0.8546571;0.4736842;0.101108;-0.1869806;-6;9;3;860;-3419;-2241;256;0.2188366;-0.2617728;-0.5387812;-0.77026;0;-9;1;17;3764;-1471;128;-0.1371191;0.2783934;0.5193906;0.7961965;6;-4;-4;-531;3705;1894;4;-0.3047091;0.3933518;-0.6159108;-0.6108033;-4;-15;-1;-645;3998;-184;16;0.601108;-0.776728;0.1315789;0.134349;0;-13;2;337;3982;1248;2;0.6177285;-0.6307386;-0.3157895;-0.3476454;15;-28;5;-363;4604;-53;8;0.5969529;-0.7013537;0.2202216;0.3213296;2;7;1;-515;4233;779;0.4041596;2.796055;-0.4550046;0.4100478;3.332658;-0.3567981;0.4152277;3.804695;-0.2724646;0.3767908;4.498258;-0.03591323;0.1007283;4.804478;0.03312398;-0.2315828;4.632733;0.04769367;-0.7696597;5.062122;-0.572329;-0.7108971;5.884323;-1.039585;0.6202748;4.833274;0.03312439;0.9172235;4.696405;0.04769474;1.726993;5.093235;-0.2915325;2.048534;5.897754;-0.6751301;0.09192827;2.756097;-0.4707256;0.1501227;1.304445;-0.2970079;0;0;0;0.09192827;2.756097;-0.4707256;0.1501227;1.304445;-0.2970079;0;0;0
917976.0425;NotLabelled;NONE;16384;0.7383844;0.4196676;0.5041551;0.1565097;0;5;-6;2856;-2010;2285;65536;0.8377086;0.5277008;0.1080332;0.0900277;-4;9;10;-1283;-3660;-1667;8192;0.8924258;0.2811634;-0.132964;-0.3268698;3;0;-5;-2708;-1615;2571;32768;0.8561865;0.4709141;0.101108;-0.1869806;-5;2;0;1054;-3339;-2241;256;0.2216066;-0.2645429;-0.5373961;-0.7694888;0;-9;2;-35;3926;-1471;128;-0.1371191;0.2811634;0.5193906;0.7952226;-4;-10;-5;-411;3753;1970;4;-0.301939;0.3905817;-0.6176602;-0.6121883;-3;-17;-3;-333;4236;-174;16;0.599723;-0.7765996;0.1357341;0.1371191;4;-17;3;255;4004;1092;2;0.6163435;-0.6364775;-0.3130194;-0.3421052;6;-13;10;-5;4156;-201;8;0.5969529;-0.7004778;0.2229917;0.3213296;3;-11;0;-73;3851;731;0.4134198;2.796299;-0.4524736;0.419309;3.33298;-0.3546984;0.4244895;3.805085;-0.2707441;0.3862785;4.498214;-0.03288859;0.110312;4.804385;0.03675151;-0.2220473;4.632709;0.05103374;-0.758517;5.060963;-0.571162;-0.6978768;5.881439;-1.041203;0.6298668;4.833029;0.03675169;0.9267772;4.696047;0.05103451;1.737409;5.093864;-0.2849607;2.062522;5.896832;-0.6687984;0.1011884;2.756328;-0.4681597;0.1556086;1.304696;-0.2930571;0;0;0;0.1011884;2.756328;-0.4681597;0.1556086;1.304696;-0.2930571;0;0;0
917997.0405;NotLabelled;NONE;16384;0.7382233;0.4182825;0.5055401;0.1565097;0;8;-3;2612;-1928;2393;65536;0.8378471;0.5263157;0.1135734;0.0900277;0;10;7;-1357;-3530;-1917;8192;0.8926311;0.2811634;-0.1315789;-0.3268698;4;-1;-5;-2694;-1651;2441;32768;0.8563489;0.4709141;0.09972299;-0.1869806;-1;6;1;992;-3155;-2223;256;0.2216066;-0.265928;-0.5373961;-0.7690112;0;-8;3;-75;3824;-1405;128;-0.1385041;0.2825485;0.5180055;0.795395;-9;-12;-6;-317;3577;1940;4;-0.299169;0.3864266;-0.6216091;-0.6121883;-3;-11;0;-105;4004;-64;16;0.599723;-0.7756159;0.1398892;0.1385041;3;-11;2;451;3740;1004;2;0.6149584;-0.6392939;-0.3130194;-0.3393352;4;3;10;-9;4130;-243;8;0.5969529;-0.6989521;0.2257618;0.3227147;6;-5;-1;-357;4147;905;0.4191294;2.795702;-0.4532066;0.4250184;3.332374;-0.3553739;0.4301988;3.80447;-0.2713689;0.3908345;4.497389;-0.0330933;0.1143576;4.803055;0.03674111;-0.2177131;4.630814;0.05093089;-0.7533222;5.058316;-0.5725228;-0.695819;5.87757;-1.045083;0.6338636;4.832571;0.03674114;0.9310037;4.696078;0.05093116;1.743443;5.092731;-0.2820601;2.073934;5.892578;-0.6678166;0.1068979;2.755734;-0.4688974;0.1599613;1.304107;-0.2933326;0;0;0;0.1068979;2.755734;-0.4688974;0.1599613;1.304107;-0.2933326;0;0;0
918038.0519;NotLabelled;NONE;16384;0.7375656;0.4182825;0.5069252;0.1551246;-1;5;-2;2458;-2030;2469;65536;0.8386744;0.5249307;0.1149584;0.08864266;-1;9;6;-1235;-3570;-1891;8192;0.8932691;0.2797784;-0.1301939;-0.3268698;3;2;-1;-2532;-1793;2475;32768;0.8561865;0.4709141;0.101108;-0.1869806;0;6;5;832;-3473;-2023;256;0.2216066;-0.267313;-0.5373961;-0.7685308;3;-6;3;-121;3760;-1453;128;-0.1385041;0.2853186;0.5152354;0.796205;-11;-11;-5;-381;3601;1832;4;-0.299169;0.3850415;-0.6211028;-0.6135734;-3;-9;1;-147;4142;-52;16;0.599723;-0.7751111;0.1426593;0.1385041;2;-7;2;451;3920;848;2;0.6135734;-0.6399447;-0.3144044;-0.3393352;6;-2;11;-87;4032;-359;8;0.5969529;-0.6989521;0.2257618;0.3227147;6;-4;0;-195;3929;747;0.4304112;2.796404;-0.4492492;0.4362977;3.332851;-0.3501916;0.4414759;3.804754;-0.2651092;0.4032912;4.497748;-0.02685621;0.1273351;4.803886;0.04296771;-0.2050283;4.632211;0.05716231;-0.7404615;5.05729;-0.5680963;-0.6880861;5.873537;-1.046419;0.6468908;4.832517;0.0429678;0.9437978;4.695519;0.05716276;1.755708;5.093156;-0.2759447;2.089149;5.892656;-0.6598756;0.1181801;2.756472;-0.465039;0.1631777;1.304574;-0.2894579;0;0;0;0.1181801;2.756472;-0.465039;0.1631777;1.304574;-0.2894579;0;0;0
918059.0635;NotLabelled;NONE;16384;0.736902;0.4182825;0.5083103;0.1537396;-4;6;-5;2746;-2090;2481;65536;0.8392484;0.5235457;0.1191136;0.08587258;-3;11;4;-1007;-3620;-1889;8192;0.892962;0.2797784;-0.1288089;-0.3282548;5;4;-1;-2790;-1781;2383;32768;0.8561865;0.4709141;0.101108;-0.1869806;1;7;-1;512;-3401;-1813;256;0.2216066;-0.2714681;-0.534626;-0.7690063;-1;-6;4;-111;3980;-1453;128;-0.1385041;0.2894737;0.5138504;0.7956;1;0;-4;-525;3923;1694;4;-0.299169;0.3822715;-0.6228115;-0.6135734;-2;-7;5;-111;3968;-322;16;0.599723;-0.774855;0.1440443;0.1385041;-1;-4;1;131;3954;702;2;0.6135734;-0.6427563;-0.3116343;-0.3365651;7;-12;4;-147;4102;21;8;0.5983379;-0.6962214;0.2285319;0.3240997;3;-9;0;-497;4015;427;0.4321967;2.796918;-0.4415746;0.4380763;3.33272;-0.3390902;0.4432485;3.80407;-0.2509934;0.4062442;4.497135;-0.01276273;0.1308101;4.803745;0.05705078;-0.2018456;4.632638;0.07125011;-0.7376298;5.058105;-0.5534436;-0.6832905;5.873042;-1.033779;0.6504138;4.831492;0.05705118;0.947087;4.693987;0.07125133;1.758856;5.090455;-0.2635925;2.091186;5.890301;-0.6477671;0.1199667;2.757087;-0.4576411;0.167411;1.304792;-0.2860382;0;0;0;0.1199667;2.757087;-0.4576411;0.167411;1.304792;-0.2860382;0;0;0
918079.0621;NotLabelled;NONE;16384;0.7362326;0.4182825;0.5096953;0.1523546;-4;9;-6;2658;-2076;2397;65536;0.8391912;0.5235457;0.1204986;0.08448754;-3;14;2;-1231;-3734;-1733;8192;0.8924516;0.2797784;-0.1288089;-0.3296399;6;3;1;-2646;-1701;2407;32768;0.8563489;0.4709141;0.09972299;-0.1869806;0;8;-1;898;-3299;-1729;256;0.2229917;-0.2714681;-0.534626;-0.7686058;-1;-4;4;1;4012;-1337;128;-0.1371191;0.2894737;0.5138504;0.7958398;2;1;-3;-569;3909;1764;4;-0.299169;0.3795014;-0.6231395;-0.6149584;0;-6;7;-191;4030;-184;16;0.599723;-0.7745962;0.1454294;0.1385041;-3;-4;1;267;3930;824;2;0.6135734;-0.6441486;-0.3102493;-0.33518;6;-5;0;-191;4210;-31;8;0.5983379;-0.6962214;0.2285319;0.3240997;0;-2;1;-821;4009;411;0.4419692;2.797611;-0.4348337;0.447845;3.333071;-0.3305792;0.4530141;3.804127;-0.2409251;0.4180446;4.495792;0.001642615;0.1434931;4.802718;0.07351461;-0.1896255;4.632442;0.08682533;-0.7187059;5.05623;-0.5446867;-0.6633266;5.869462;-1.027784;0.6631712;4.829033;0.07340896;0.9594715;4.690626;0.08659214;1.774898;5.086367;-0.2401271;2.109844;5.886212;-0.6220222;0.1297399;2.757833;-0.4510431;0.171123;1.304895;-0.2833595;0;0;0;0.1297399;2.757833;-0.4510431;0.171123;1.304895;-0.2833595;0;0;0
918099.074;NotLabelled;NONE;16384;0.7348765;0.4182825;0.5124654;0.1495845;-3;4;-3;2714;-1990;2423;65536;0.8399258;0.5221606;0.1232687;0.08171745;0;9;1;-1085;-3650;-1899;8192;0.8928846;0.2783934;-0.1288089;-0.3296399;8;4;3;-2710;-1733;2451;32768;0.8560453;0.4709141;0.09972299;-0.1883656;-1;4;0;940;-3423;-1831;256;0.2216066;-0.2728532;-0.536011;-0.7675505;-1;-2;4;31;3996;-1391;128;-0.1371191;0.2894737;0.5152354;0.7949439;1;2;-2;-401;3847;1714;4;-0.300554;0.3767313;-0.6227853;-0.6163435;-1;-6;7;-387;4108;-150;16;0.599723;-0.7743472;0.1454294;0.1398892;-5;-5;0;321;4054;890;2;0.6135734;-0.6448138;-0.3088643;-0.33518;3;-1;-4;-349;4340;-25;8;0.599723;-0.6950287;0.2285319;0.3240997;-2;1;3;-769;4057;493;0.4441279;2.798384;-0.4268131;0.4500025;3.333747;-0.3220599;0.4551705;3.804719;-0.2319672;0.4187982;4.496622;0.00971505;0.1436324;4.803102;0.08113997;-0.1891557;4.632193;0.09459731;-0.7221143;5.057864;-0.5323702;-0.6668413;5.871131;-1.015422;0.663258;4.830432;0.08110958;0.9598255;4.692622;0.0945304;1.774661;5.088536;-0.233449;2.112353;5.888036;-0.6136463;0.1318986;2.758621;-0.4430628;0.1734232;1.304994;-0.2815004;0;0;0;0.1318986;2.758621;-0.4430628;0.1734232;1.304994;-0.2815004;0;0;0
918140.0318;NotLabelled;NONE;16384;0.7339087;0.4182825;0.5138504;0.1495845;-2;5;-2;2746;-2016;2319;65536;0.839855;0.5221606;0.1246537;0.08033241;0;9;0;-1247;-3702;-1759;8192;0.892803;0.2770083;-0.1288089;-0.3310249;9;3;3;-2760;-1663;2497;32768;0.8560453;0.4709141;0.09972299;-0.1883656;-2;3;-3;880;-3539;-1745;256;0.2216066;-0.2742382;-0.536011;-0.7670568;-3;-3;4;29;3968;-1429;128;-0.1371191;0.2894737;0.5152354;0.7949439;3;2;-1;-405;3761;1772;4;-0.300554;0.3767313;-0.6227853;-0.6163435;0;-1;6;-323;3958;-54;16;0.5983379;-0.7751569;0.1468144;0.1398892;-5;-7;0;453;3896;1030;2;0.6149584;-0.6427071;-0.3074792;-0.3379501;0;-2;-9;-367;4118;-95;8;0.5983379;-0.6962214;0.2285319;0.3240997;-4;-4;4;-251;4053;769;0.4410733;2.799563;-0.418581;0.4469515;3.335253;-0.3155061;0.4521227;3.806505;-0.2268897;0.4190629;4.499039;0.01345772;0.1453728;4.806983;0.08425017;-0.1882405;4.637712;0.0979825;-0.7254985;5.064762;-0.5243609;-0.6701131;5.876756;-1.009536;0.6651247;4.831799;0.08425015;0.9610197;4.69258;0.09798265;1.775936;5.086646;-0.2320161;2.114892;5.886137;-0.6111066;0.1288435;2.75975;-0.4346953;0.1708476;1.305134;-0.282423;0;0;0;0.1288435;2.75975;-0.4346953;0.1708476;1.305134;-0.282423;0;0;0
918161.037;NotLabelled;NONE;16384;0.7332183;0.4182825;0.5152354;0.1481994;-3;7;-2;2668;-1940;2453;65536;0.8397796;0.5221606;0.1260388;0.07894737;-1;10;0;-1161;-3636;-1659;8192;0.8933421;0.2742382;-0.1274238;-0.33241;10;1;1;-2836;-1453;2567;32768;0.8562134;0.4709141;0.09556787;-0.1897507;-6;3;-10;994;-3471;-1803;256;0.2216066;-0.2756233;-0.536011;-0.7665601;-3;-2;3;-37;3886;-1403;128;-0.1357341;0.2908587;0.5152354;0.7946759;2;2;-3;-389;3677;1846;4;-0.301939;0.3753462;-0.6229516;-0.6163435;0;2;5;-407;3996;-164;16;0.5969529;-0.7757099;0.1481994;0.1412742;-5;-6;0;285;3934;1080;2;0.6163435;-0.6420411;-0.3060942;-0.3379501;0;-7;-8;-237;4124;-235;8;0.5969529;-0.696954;0.2299169;0.3240997;-4;-7;3;-309;3967;833;0.4461005;2.798502;-0.4207196;0.4519787;3.334191;-0.3176447;0.4571499;3.805443;-0.2290283;0.425271;4.498039;0.01129991;0.1521063;4.806452;0.08208331;-0.1817954;4.637751;0.09581977;-0.7200214;5.063667;-0.5264641;-0.6645176;5.875703;-1.011554;0.6718999;4.83038;0.08208358;0.9675571;4.690659;0.09582055;1.784103;5.081953;-0.2334466;2.123967;5.881443;-0.6117241;0.1338707;2.758688;-0.4368339;0.1755095;1.304073;-0.2844611;0;0;0;0.1338707;2.758688;-0.4368339;0.1755095;1.304073;-0.2844611;0;0;0
918181.0305;NotLabelled;NONE;16384;0.7334969;0.4182825;0.5152354;0.1468144;-2;6;0;2556;-1898;2443;65536;0.8396997;0.5221606;0.1274238;0.07756232;-3;10;1;-1047;-3516;-1707;8192;0.8932498;0.2728532;-0.1274238;-0.333795;9;0;0;-2796;-1579;2475;32768;0.8571271;0.4695291;0.09418282;-0.1897507;-7;2;-11;1050;-3417;-1849;256;0.2216066;-0.2756233;-0.5373961;-0.7655898;-1;0;2;-35;3668;-1467;128;-0.1357341;0.2908587;0.5152354;0.7946759;0;0;-2;-381;3471;1918;4;-0.3033241;0.3753462;-0.6222784;-0.6163435;0;3;5;-441;3932;-84;16;0.5969529;-0.7757099;0.1481994;0.1412742;-4;-6;0;171;3928;1090;2;0.6163435;-0.6426996;-0.3047091;-0.3379501;0;-9;-6;-291;4002;-233;8;0.5969529;-0.6963082;0.2299169;0.3254848;-3;-7;2;-241;4023;875;0.4505751;2.798162;-0.4186119;0.4564522;3.333748;-0.3150075;0.4616224;3.804913;-0.2259254;0.4309384;4.497569;0.01438603;0.1583043;4.806449;0.0851757;-0.1758839;4.638318;0.09893432;-0.7130575;5.064023;-0.5244027;-0.6574641;5.876104;-1.009407;0.6781378;4.82949;0.0851475;0.9735566;4.689264;0.09887254;1.791551;5.076286;-0.2318451;2.139281;5.874694;-0.6052282;0.1383456;2.758364;-0.4347689;0.1773605;1.303145;-0.2875475;0;0;0;0.1383456;2.758364;-0.4347689;0.1773605;1.303145;-0.2875475;0;0;0
918202.0468;NotLabelled;NONE;16384;0.7327983;0.4182825;0.5166205;0.1454294;-3;4;0;2488;-1956;2417;65536;0.8404749;0.5207756;0.1288089;0.07617728;-4;7;1;-1053;-3436;-1641;8192;0.8936717;0.2714681;-0.1274238;-0.333795;9;-2;0;-2698;-1625;2499;32768;0.8577277;0.468144;0.09279778;-0.1911357;-7;0;-11;1096;-3387;-1957;256;0.2216066;-0.2770083;-0.5373961;-0.7650898;0;0;1;27;3620;-1473;128;-0.1357341;0.2908587;0.5152354;0.7946759;-2;-2;-1;-357;3483;1964;4;-0.3033241;0.3753462;-0.6222784;-0.6163435;1;3;5;-403;3942;-272;16;0.5955678;-0.776255;0.1495845;0.1426593;-3;-6;0;229;3904;990;2;0.6177285;-0.6426772;-0.301939;-0.3379501;1;-13;-5;-241;3910;-233;8;0.5955678;-0.6970352;0.2313019;0.3254848;-1;-5;2;-173;4023;939;0.4504499;2.798469;-0.415481;0.456327;3.334055;-0.3118767;0.4614972;3.80522;-0.2227945;0.4315951;4.498668;0.01531863;0.1593168;4.808096;0.08507793;-0.1750747;4.640409;0.09930347;-0.7130259;5.068267;-0.5218855;-0.6584284;5.880398;-1.006922;0.6791775;4.830517;0.085078;0.9744259;4.689982;0.09930402;1.792498;5.074558;-0.2340634;2.143422;5.871035;-0.6085856;0.1382203;2.758671;-0.431638;0.1773931;1.303145;-0.2875272;0;0;0;0.1382203;2.758671;-0.431638;0.1773931;1.303145;-0.2875272;0;0;0
918223.044;NotLabelled;NONE;16384;0.7330718;0.4182825;0.5166205;0.1440443;-2;3;0;2458;-2012;2393;65536;0.8412426;0.5193906;0.1301939;0.07479224;-5;8;1;-999;-3328;-1825;8192;0.8942875;0.2700831;-0.1260388;-0.333795;8;0;0;-2676;-1655;2453;32768;0.8587771;0.466759;0.0900277;-0.1911357;-9;-1;-13;974;-3409;-2107;256;0.2202216;-0.2770083;-0.536011;-0.7664601;2;0;0;-117;3626;-1419;128;-0.134349;0.2922437;0.5138504;0.7952998;-5;-1;-1;-441;3555;1818;4;-0.3047091;0.3753462;-0.620225;-0.6177285;2;1;4;-323;4072;-194;16;0.5955678;-0.776255;0.1495845;0.1426593;-2;-7;0;241;3904;890;2;0.6191136;-0.6433663;-0.299169;-0.3365651;1;-15;-3;-173;4058;-241;8;0.5955678;-0.6970352;0.2313019;0.3254848;0;-3;1;-277;4025;837;0.4526555;2.797534;-0.4186366;0.4585325;3.333121;-0.3150322;0.4637028;3.804285;-0.2259501;0.4349873;4.49779;0.01214588;0.1632391;4.807686;0.08189722;-0.1714391;4.640571;0.09612641;-0.708272;5.068836;-0.5257487;-0.6517603;5.879662;-1.012745;0.6831372;4.829216;0.08189738;0.9781448;4.688177;0.09612703;1.798175;5.070584;-0.2349174;2.154103;5.865088;-0.6089025;0.1404259;2.757737;-0.4347935;0.1792532;1.30221;-0.2905891;0;0;0;0.1404259;2.757737;-0.4347935;0.1792532;1.30221;-0.2905891;0;0;0
918243.0539;NotLabelled;NONE;16384;0.7333426;0.4182825;0.5166205;0.1426593;-2;2;0;2518;-1966;2427;65536;0.8411491;0.5193906;0.1315789;0.0734072;-5;10;1;-1067;-3410;-1777;8192;0.8947047;0.2686981;-0.1260388;-0.333795;8;0;0;-2672;-1759;2465;32768;0.8598141;0.4653739;0.08725762;-0.1911357;-7;0;-11;1030;-3461;-2105;256;0.2202216;-0.2783934;-0.536011;-0.7659581;4;-1;2;-207;3776;-1471;128;-0.134349;0.2936288;0.5138504;0.7947894;-6;-1;-3;-397;3663;1864;4;-0.3047091;0.3739612;-0.621061;-0.6177285;1;1;3;-219;4068;-108;16;0.5941828;-0.7765342;0.1509695;0.1454294;-2;-7;-1;171;3932;968;2;0.6204986;-0.6447558;-0.2963989;-0.333795;0;-11;-1;129;4080;-437;8;0.5941828;-0.6982163;0.2313019;0.3254848;-1;0;0;-375;3981;737;0.4463053;2.797799;-0.4136606;0.4521777;3.332954;-0.3078486;0.4573438;3.803747;-0.2168244;0.4291911;4.496211;0.0243468;0.1576877;4.805998;0.09552009;-0.1771131;4.639073;0.1090702;-0.715954;5.068875;-0.5100012;-0.6595949;5.878393;-0.9991871;0.6776019;4.827139;0.09552038;0.9725061;4.685818;0.109071;1.790181;5.067047;-0.2290802;2.150554;5.859224;-0.603744;0.1340765;2.758068;-0.4299957;0.1787253;1.302211;-0.2909139;0;0;0;0.1340765;2.758068;-0.4299957;0.1787253;1.302211;-0.2909139;0;0;0
918264.0439;NotLabelled;NONE;16384;0.7323649;0.4182825;0.5180055;0.1426593;-1;2;-2;2504;-1894;2411;65536;0.8419048;0.5180055;0.132964;0.07202215;-6;9;1;-891;-3414;-1753;8192;0.8947958;0.267313;-0.1246537;-0.33518;7;4;1;-2824;-1719;2439;32768;0.86053;0.4639889;0.08448754;-0.1925208;-6;1;-5;1258;-3391;-2053;256;0.2202216;-0.2783934;-0.534626;-0.7669255;3;-3;3;-175;3782;-1557;128;-0.134349;0.2936288;0.5124654;0.7956831;-5;-1;-3;-327;3615;1842;4;-0.3060942;0.3739612;-0.6177285;-0.6203796;2;1;3;-143;4034;-228;16;0.5941828;-0.7762636;0.1523546;0.1454294;-1;-5;0;201;3958;946;2;0.6204986;-0.6447558;-0.2963989;-0.333795;-3;-5;0;145;4104;-361;8;0.5941828;-0.6982163;0.2313019;0.3254848;0;1;0;-315;4133;729;0.4481127;2.797284;-0.4157065;0.453985;3.332432;-0.3098585;0.4591511;3.803219;-0.2188026;0.4321806;4.495736;0.02235183;0.1612063;4.805987;0.09351747;-0.1738789;4.639635;0.1070713;-0.7106207;5.070972;-0.512755;-0.6541581;5.880547;-1.001835;0.6811559;4.826241;0.0935176;0.9758185;4.684416;0.1070719;1.794659;5.063468;-0.2307055;2.161042;5.853302;-0.6044879;0.1358839;2.757554;-0.4320444;0.1777662;1.301421;-0.2950093;0;0;0;0.1358839;2.757554;-0.4320444;0.1777662;1.301421;-0.2950093;0;0;0
918284.0699;NotLabelled;NONE;16384;0.7326333;0.4182825;0.5180055;0.1412742;-2;5;-2;2600;-1924;2393;65536;0.842653;0.5166205;0.134349;0.07063711;-5;9;2;-1085;-3448;-1847;8192;0.8946886;0.265928;-0.1246537;-0.3365651;8;0;1;-2852;-1717;2433;32768;0.8614101;0.4626039;0.08310249;-0.1925208;-4;5;-3;1102;-3475;-2071;256;0.2202216;-0.2811634;-0.533241;-0.7668791;2;-6;3;-123;3820;-1465;128;-0.132964;0.2950138;0.5110803;0.7962941;-4;0;-3;-439;3671;1940;4;-0.3060942;0.3739612;-0.6163435;-0.6217557;4;7;2;-223;4048;-322;16;0.5941828;-0.7760028;0.1523546;0.1468144;0;-5;0;193;3916;944;2;0.6204986;-0.6447558;-0.2963989;-0.333795;-5;5;0;63;4262;-161;8;0.5941828;-0.6982163;0.2313019;0.3254848;-1;3;0;-215;4053;709;0.4392955;2.797626;-0.4072278;0.4451641;3.33244;-0.299705;0.450327;3.80294;-0.2071757;0.4225573;4.494659;0.03616852;0.1512206;4.804359;0.1083471;-0.1836634;4.637564;0.1214165;-0.7228091;5.067778;-0.4971035;-0.6656605;5.876041;-0.9882655;0.6711456;4.825236;0.1083474;0.9659796;4.683722;0.1214177;1.784327;5.060992;-0.2195368;2.156734;5.848417;-0.5924478;0.1270672;2.757948;-0.4237008;0.1794885;1.301531;-0.2934787;0;0;0;0.1270672;2.757948;-0.4237008;0.1794885;1.301531;-0.2934787;0;0;0
918304.263;NotLabelled;NONE;16384;0.7316521;0.4182825;0.5193906;0.1412742;-1;5;-3;2608;-2066;2377;65536;0.842546;0.5166205;0.1357341;0.06925207;-5;11;1;-989;-3522;-1945;8192;0.8946886;0.265928;-0.1246537;-0.3365651;8;1;1;-2798;-1759;2479;32768;0.8614101;0.4626039;0.08310249;-0.1925208;-4;6;-1;1122;-3553;-2039;256;0.2202216;-0.2811634;-0.533241;-0.7668791;5;-3;3;-121;3856;-1471;128;-0.132964;0.2963989;0.5110803;0.7957796;-6;0;-2;-459;3751;1914;4;-0.3074792;0.3753462;-0.6149584;-0.6216091;4;9;1;-241;4168;-340;16;0.5941828;-0.7757297;0.1537396;0.1468144;-1;-3;-1;207;3986;1004;2;0.6204986;-0.6441174;-0.2977839;-0.333795;-2;6;0;-101;4302;-195;8;0.5941828;-0.6988602;0.2313019;0.3240997;0;8;0;-275;4119;739;0.4331227;2.797676;-0.4055911;0.4389865;3.332043;-0.2958665;0.4441452;3.802158;-0.2014;0.4179297;4.493176;0.04409549;0.1472852;4.803249;0.1172698;-0.1879643;4.637152;0.1298625;-0.7235251;5.068904;-0.4906972;-0.6633331;5.875854;-0.9836527;0.667255;4.822979;0.1172701;0.9617777;4.680776;0.1298636;1.782531;5.055269;-0.2083573;2.159828;5.840701;-0.5805545;0.1208952;2.758067;-0.4222415;0.1780771;1.301681;-0.293669;0;0;0;0.1208952;2.758067;-0.4222415;0.1780771;1.301681;-0.293669;0;0;0
918325.0755;NotLabelled;NONE;16384;0.7309333;0.4182825;0.5207756;0.1398892;-2;2;-4;2678;-1926;2443;65536;0.8431662;0.5152354;0.1385041;0.06648199;-2;10;2;-1035;-3626;-1947;8192;0.8950991;0.2645429;-0.1246537;-0.3365651;8;3;0;-2786;-1741;2559;32768;0.8619745;0.4612188;0.08171745;-0.1939058;-3;5;-2;1140;-3625;-2153;256;0.2202216;-0.2825485;-0.5318559;-0.7673318;4;-3;3;-103;3916;-1569;128;-0.132964;0.2963989;0.5110803;0.7957796;-1;0;-2;-413;3777;1912;4;-0.3074792;0.3753462;-0.6149584;-0.6216091;4;10;1;-331;4108;-166;16;0.5941828;-0.7757297;0.1537396;0.1468144;0;1;0;149;3976;1030;2;0.6204986;-0.6434752;-0.299169;-0.333795;0;2;0;-205;4166;-215;8;0.5955678;-0.6981379;0.2299169;0.3240997;-1;12;0;-447;4071;701;0.4327268;2.797764;-0.4033211;0.4385905;3.332123;-0.293559;0.4437491;3.802231;-0.1990597;0.4175339;4.49325;0.04643592;0.1468895;4.803323;0.1196104;-0.18836;4.637225;0.1322037;-0.7265179;5.067853;-0.486888;-0.6674165;5.874869;-0.9798671;0.6668591;4.823052;0.1196102;0.9613819;4.680849;0.1322035;1.782068;5.055342;-0.2061818;2.159364;5.840774;-0.5783792;0.1204993;2.758155;-0.4199745;0.179809;1.301791;-0.2921203;0;0;0;0.1204993;2.758155;-0.4199745;0.179809;1.301791;-0.2921203;0;0;0
918346.0173;NotLabelled;NONE;16384;0.7299445;0.4182825;0.5221606;0.1398892;-2;1;-2;2754;-1966;2443;65536;0.8438905;0.5138504;0.1398892;0.06509695;0;9;3;-1229;-3640;-2021;8192;0.8951774;0.2631579;-0.1232687;-0.3379501;8;4;0;-2902;-1715;2557;32768;0.8619745;0.4612188;0.08171745;-0.1939058;-5;4;-2;1210;-3627;-2047;256;0.2202216;-0.2839335;-0.5318559;-0.7668204;0;-4;3;-109;3974;-1541;128;-0.1315789;0.2963989;0.5110803;0.7960098;0;0;-2;-393;3755;1864;4;-0.3102493;0.3767313;-0.6135734;-0.6207629;2;8;3;-355;4086;-114;16;0.5941828;-0.7757297;0.1537396;0.1468144;0;1;0;453;3902;1118;2;0.6204986;-0.6427549;-0.299169;-0.33518;1;2;0;-197;4018;-279;8;0.5955678;-0.6996846;0.2271468;0.3227147;-1;13;1;-345;3985;673;0.4337183;2.797764;-0.4030352;0.4395819;3.332123;-0.2932732;0.4447405;3.802231;-0.1987738;0.4188963;4.492493;0.04888377;0.1484141;4.802467;0.1230591;-0.1869162;4.636498;0.1351728;-0.7254807;5.067543;-0.4832751;-0.6656316;5.873317;-0.9781928;0.6683936;4.82194;0.1230593;0.9628474;4.679552;0.135173;1.784672;5.051861;-0.202857;2.166898;5.835236;-0.5743637;0.1214908;2.758155;-0.4196885;0.1804984;1.301792;-0.2916946;0;0;0;0.1214908;2.758155;-0.4196885;0.1804984;1.301792;-0.2916946;0;0;0
918366.0443;NotLabelled;NONE;16384;0.7299445;0.4182825;0.5221606;0.1398892;-2;0;-1;2744;-1956;2405;65536;0.8437655;0.5138504;0.1412742;0.06371191;0;6;2;-1205;-3644;-2003;8192;0.8952491;0.2617728;-0.1218837;-0.3393352;6;1;-2;-2936;-1525;2515;32768;0.8625318;0.4598338;0.08033241;-0.1952908;-4;5;-1;1350;-3511;-2053;256;0.2202216;-0.2853186;-0.5318559;-0.7663061;0;-4;4;-109;3910;-1455;128;-0.1315789;0.2963989;0.5096953;0.7968974;-3;2;-2;-407;3723;1834;4;-0.3116343;0.3781163;-0.6121883;-0.6205945;2;9;2;-371;4198;-150;16;0.5927978;-0.7767885;0.1537396;0.1468144;-1;2;0;449;3932;1036;2;0.6204986;-0.6420307;-0.299169;-0.3365651;-2;6;-3;-309;4052;-245;8;0.5969529;-0.69959;0.2257618;0.3213296;-2;5;1;-369;4009;717;0.4350267;2.798009;-0.3998333;0.4408893;3.332267;-0.289579;0.4460469;3.802288;-0.1946467;0.4213758;4.492598;0.05299532;0.1514207;4.803034;0.1271635;-0.1841912;4.637635;0.1392805;-0.7237101;5.067555;-0.4791188;-0.6620004;5.872014;-0.9759444;0.6714326;4.821623;0.1271637;0.9656438;4.678735;0.139281;1.787763;5.049264;-0.1999872;2.170885;5.832639;-0.5705693;0.1227994;2.758416;-0.4165263;0.1812026;1.301791;-0.291258;0;0;0;0.1227994;2.758416;-0.4165263;0.1812026;1.301791;-0.291258;0;0;0
918387.042;NotLabelled;NONE;16384;0.7302086;0.4182825;0.5221606;0.1385041;-2;2;-1;2754;-2018;2483;65536;0.8435324;0.5138504;0.1426593;0.06371191;1;6;3;-1201;-3666;-2041;8192;0.8956529;0.2603878;-0.1218837;-0.3393352;7;1;-3;-2946;-1529;2565;32768;0.862217;0.4598338;0.08033241;-0.1966759;-4;7;-1;1256;-3561;-2025;256;0.2202216;-0.2867036;-0.5318559;-0.765789;0;-4;3;-79;3892;-1407;128;-0.1315789;0.2963989;0.5096953;0.7968974;-3;0;-2;-403;3713;1770;4;-0.3116343;0.3781163;-0.6108033;-0.6219577;1;8;3;-445;4088;-184;16;0.5927978;-0.7770614;0.1523546;0.1468144;0;3;0;343;3998;1032;2;0.6204986;-0.6413027;-0.299169;-0.3379501;-1;8;-3;-257;4126;-127;8;0.5969529;-0.7000355;0.2243767;0.3213296;-2;3;0;-379;4007;769;0.4361116;2.796727;-0.4026924;0.4419704;3.330638;-0.2907696;0.4471247;3.800359;-0.1943694;0.4236623;4.490716;0.05326128;0.154246;4.801613;0.1274605;-0.181645;4.636785;0.1396278;-0.7183877;5.064765;-0.4825203;-0.6566601;5.869302;-0.9792169;0.6742887;4.819316;0.1273876;0.9682581;4.675929;0.1394669;1.791354;5.043614;-0.2005258;2.179358;5.824913;-0.5704083;0.1238848;2.757186;-0.4195197;0.1841041;1.300589;-0.2947897;0;0;0;0.1238848;2.757186;-0.4195197;0.1841041;1.300589;-0.2947897;0;0;0
918408.046;NotLabelled;NONE;16384;0.72842;0.4196676;0.5235457;0.1385041;-3;2;0;2718;-1992;2485;65536;0.8434005;0.5138504;0.1440443;0.06232687;2;7;3;-1199;-3578;-1999;8192;0.8953145;0.2603878;-0.1204986;-0.3407202;6;1;-3;-2872;-1547;2671;32768;0.8623449;0.4598338;0.07894737;-0.1966759;-4;6;-2;1190;-3459;-2151;256;0.2202216;-0.2880886;-0.5304709;-0.7662297;0;-2;3;13;3830;-1421;128;-0.1315789;0.299169;0.5096953;0.7958615;0;-3;-4;-393;3743;1846;4;-0.3130194;0.3795014;-0.6108033;-0.6204167;1;6;3;-467;4056;-278;16;0.5927978;-0.7770614;0.1523546;0.1468144;-1;3;0;291;3920;1090;2;0.6204986;-0.6406547;-0.300554;-0.3379501;-3;4;-2;-277;4158;-5;8;0.5969529;-0.7000355;0.2243767;0.3213296;-2;1;0;-319;4071;829;0.4300837;2.796536;-0.4021397;0.4359424;3.330447;-0.2902169;0.4410968;3.800169;-0.1938166;0.4187745;4.490569;0.05379689;0.1498773;4.801927;0.1279519;-0.1862955;4.63767;0.1400753;-0.7222415;5.069134;-0.4803518;-0.6613354;5.873277;-0.9777873;0.6699493;4.818745;0.1279518;0.9636726;4.674857;0.1400755;1.787204;5.041417;-0.2000771;2.177081;5.822652;-0.5681205;0.1178569;2.756995;-0.418967;0.1831445;1.300477;-0.2958795;0;0;0;0.1178569;2.756995;-0.418967;0.1831445;1.300477;-0.2958795;0;0;0
918429.0223;NotLabelled;NONE;16384;0.7289412;0.4196676;0.5235457;0.1357341;-6;4;0;2488;-1938;2481;65536;0.843024;0.5138504;0.1468144;0.06094183;1;7;2;-1103;-3446;-1951;8192;0.8957161;0.2590028;-0.1204986;-0.3407202;5;2;-3;-2882;-1633;2527;32768;0.8630821;0.4584487;0.07894737;-0.1966759;-3;5;-1;1194;-3341;-2267;256;0.2202216;-0.2894737;-0.5304709;-0.7657076;0;-3;4;-23;3914;-1483;128;-0.1315789;0.299169;0.5096953;0.7958615;0;-1;-3;-339;3637;1866;4;-0.3130194;0.3795014;-0.6108033;-0.6204167;2;3;1;-465;4030;-272;16;0.5927978;-0.7770614;0.1523546;0.1468144;-1;1;-1;311;3890;1022;2;0.6204986;-0.6399222;-0.300554;-0.3393352;-2;0;-2;-321;4124;-93;8;0.5955678;-0.7018472;0.2243767;0.3199446;-2;0;0;-271;4051;783;0.4343801;2.796581;-0.4029916;0.4402387;3.330475;-0.2909905;0.4453929;3.800183;-0.1945212;0.423429;4.489817;0.05524901;0.1546896;4.80107;0.1304044;-0.181561;4.636939;0.1420508;-0.718196;5.068441;-0.4777545;-0.6572298;5.872665;-0.9750493;0.6747696;4.817638;0.1304014;0.9684249;4.673573;0.1420444;1.792685;5.040503;-0.1959376;2.18537;5.821332;-0.5618479;0.1221534;2.757042;-0.4198252;0.1838461;1.300477;-0.2954441;0;0;0;0.1221534;2.757042;-0.4198252;0.1838461;1.300477;-0.2954441;0;0;0
918449.0747;NotLabelled;NONE;16384;0.7282013;0.4196676;0.5249307;0.134349;-6;2;0;2410;-1962;2455;65536;0.8428806;0.5138504;0.1481994;0.05955679;1;9;1;-1043;-3312;-1923;8192;0.8959014;0.2590028;-0.1191136;-0.3407202;6;0;-3;-2840;-1567;2521;32768;0.8628909;0.4584487;0.07756232;-0.1980609;-1;5;-2;1148;-3403;-2217;256;0.2202216;-0.2894737;-0.5304709;-0.7657076;0;-3;3;-157;3880;-1509;128;-0.1315789;0.299169;0.5096953;0.7958615;0;0;-3;-375;3585;1930;4;-0.3130194;0.3795014;-0.6108033;-0.6204167;0;-5;1;-421;4106;-230;16;0.5927978;-0.7770614;0.1523546;0.1468144;-1;0;-1;231;4008;1004;2;0.6204986;-0.6405709;-0.299169;-0.3393352;0;-4;-1;-295;4056;-229;8;0.5955678;-0.7012142;0.2243767;0.3213296;-2;0;0;-335;3959;803;0.4354;2.796581;-0.4026937;0.4412586;3.330475;-0.2906926;0.4464129;3.800183;-0.1942233;0.4256201;4.489858;0.05553356;0.1574097;4.801569;0.1306813;-0.1791196;4.63801;0.1423286;-0.714509;5.072695;-0.4763286;-0.6555563;5.876612;-0.9743649;0.6775173;4.817252;0.1306814;0.9709272;4.672688;0.1423292;1.795538;5.037474;-0.1971178;2.190282;5.816681;-0.5642698;0.1231732;2.757042;-0.4195274;0.1845634;1.300477;-0.2949967;0;0;0;0.1231732;2.757042;-0.4195274;0.1845634;1.300477;-0.2949967;0;0;0
918470.0516;NotLabelled;NONE;16384;0.7276558;0.4210526;0.5249307;0.132964;-6;3;-1;2514;-2006;2477;65536;0.8427326;0.5138504;0.1495845;0.05817174;1;8;0;-1005;-3424;-1903;8192;0.8964836;0.2576177;-0.1177285;-0.3407202;4;4;-3;-2698;-1609;2465;32768;0.8634298;0.4570637;0.07617728;-0.199446;0;7;-1;1158;-3305;-2175;256;0.2216066;-0.2908587;-0.5304709;-0.7647825;-1;-4;2;-39;3808;-1503;128;-0.1315789;0.300554;0.5083103;0.7962254;-1;-2;-2;-381;3589;1918;4;-0.3130194;0.3795014;-0.6108033;-0.6204167;0;-6;1;-309;4042;-232;16;0.5927978;-0.7770614;0.1523546;0.1468144;0;0;0;307;3940;1076;2;0.6218836;-0.6406053;-0.2977839;-0.3379501;2;-8;0;-161;4084;-163;8;0.5955678;-0.7012142;0.2243767;0.3213296;-1;-2;0;-339;4025;795;0.4354;2.796581;-0.4026937;0.4412586;3.330475;-0.2906926;0.4464129;3.800183;-0.1942233;0.4256201;4.489858;0.05553356;0.1574097;4.801569;0.1306813;-0.1791196;4.63801;0.1423286;-0.7163878;5.073118;-0.4743991;-0.6585666;5.877124;-0.9724233;0.6775173;4.817252;0.1306814;0.9709272;4.672688;0.1423292;1.794241;5.038476;-0.1991794;2.191837;5.817203;-0.564266;0.1231732;2.757042;-0.4195274;0.1845634;1.300477;-0.2949967;0;0;0;0.1231732;2.757042;-0.4195274;0.1845634;1.300477;-0.2949967;0;0;0
918491.0467;NotLabelled;NONE;16384;0.7276558;0.4210526;0.5249307;0.132964;-6;5;-1;2516;-1958;2427;65536;0.8425801;0.5138504;0.1509695;0.0567867;1;9;0;-1013;-3416;-1891;8192;0.895956;0.2576177;-0.1177285;-0.3421052;4;2;-1;-2722;-1653;2467;32768;0.8634298;0.4570637;0.07617728;-0.199446;0;6;0;1170;-3299;-2099;256;0.2216066;-0.2908587;-0.5304709;-0.7647825;0;-4;2;-53;3836;-1479;128;-0.1301939;0.300554;0.5083103;0.7964531;0;-3;-3;-397;3631;1920;4;-0.3116343;0.3781163;-0.6108033;-0.6219577;0;-5;1;-247;4064;-250;16;0.5927978;-0.7770614;0.1523546;0.1468144;0;0;0;297;3918;1062;2;0.6218836;-0.6406053;-0.2977839;-0.3379501;0;-7;1;-135;4132;-155;8;0.5955678;-0.7012142;0.2243767;0.3213296;0;-2;0;-281;4001;779;0.4371459;2.796527;-0.4020398;0.4430005;3.33006;-0.2883334;0.4481514;3.799458;-0.1903639;0.4271819;4.489451;0.05849636;0.1588932;4.801195;0.1332287;-0.1775969;4.63757;0.145075;-0.712751;5.075469;-0.4715151;-0.6539905;5.879567;-0.9692802;0.678997;4.817005;0.133229;0.9724412;4.672526;0.1450759;1.796252;5.037117;-0.1965163;2.199374;5.813726;-0.5600493;0.1249197;2.757042;-0.4190105;0.1857906;1.300477;-0.2942252;0;0;0;0.1249197;2.757042;-0.4190105;0.1857906;1.300477;-0.2942252;0;0;0
918511.0436;NotLabelled;NONE;16384;0.7269067;0.4210526;0.5263157;0.1315789;-6;3;-2;2470;-1970;2491;65536;0.842423;0.5138504;0.1523546;0.05540166;0;8;0;-959;-3418;-1877;8192;0.8961369;0.2576177;-0.1163435;-0.3421052;4;0;0;-2762;-1683;2541;32768;0.8626952;0.4584487;0.07617728;-0.199446;0;5;1;1132;-3377;-2053;256;0.2216066;-0.2936288;-0.5304709;-0.7637233;0;-6;2;-71;3854;-1515;128;-0.1315789;0.301939;0.5069252;0.7965844;-3;-3;-1;-393;3741;1934;4;-0.3116343;0.3781163;-0.6108033;-0.6219577;0;-2;0;-241;4150;-268;16;0.5927978;-0.7770614;0.1523546;0.1468144;0;0;0;253;3906;1100;2;0.6218836;-0.6419754;-0.2963989;-0.3365651;1;-6;0;-195;4186;-197;8;0.5955678;-0.7012142;0.2243767;0.3213296;-1;-1;0;-295;3979;721;0.4338357;2.796464;-0.4008831;0.4396892;3.329893;-0.2866845;0.4448391;3.7992;-0.1882818;0.4238696;4.489193;0.06057835;0.1555809;4.800937;0.1353107;-0.1809092;4.637311;0.147157;-0.7161215;5.075211;-0.4693827;-0.6584978;5.879405;-0.9671273;0.6756847;4.816747;0.1353111;0.969129;4.672268;0.1471581;1.793316;5.036287;-0.1941333;2.19644;5.812897;-0.5576663;0.1216097;2.756995;-0.4178935;0.1857908;1.300477;-0.2942252;0;0;0;0.1216097;2.756995;-0.4178935;0.1857908;1.300477;-0.2942252;0;0;0
918532.0432;NotLabelled;NONE;16384;0.7263523;0.4224377;0.5263157;0.1301939;-6;5;-3;2508;-1976;2355;65536;0.842513;0.5138504;0.1523546;0.05401662;0;8;0;-929;-3420;-1915;8192;0.8961369;0.2576177;-0.1163435;-0.3421052;4;0;-1;-2780;-1557;2533;32768;0.8628164;0.4584487;0.07479224;-0.199446;0;4;0;1136;-3421;-2011;256;0.2229917;-0.2950138;-0.5304709;-0.7627858;-1;-6;1;-35;3870;-1491;128;-0.1315789;0.3033241;0.5069252;0.796058;-3;-5;-3;-397;3685;1892;4;-0.3116343;0.3781163;-0.6108033;-0.6219577;0;0;0;-297;4082;-336;16;0.5927978;-0.7770614;0.1523546;0.1468144;0;0;0;283;4002;1040;2;0.6218836;-0.6419754;-0.2963989;-0.3365651;1;-4;1;-141;4164;-147;8;0.5955678;-0.7012142;0.2243767;0.3213296;0;0;0;-315;4037;783;0.4358259;2.796425;-0.4002011;0.4416764;3.329594;-0.2847924;0.4468238;3.798676;-0.1853253;0.4282286;4.488746;0.06351212;0.1610108;4.801405;0.1382563;-0.1760342;4.638929;0.1501374;-0.7072756;5.075851;-0.4705157;-0.6484208;5.880144;-0.9679579;0.6811655;4.815441;0.1382114;0.9741164;4.669963;0.1500384;1.800223;5.034215;-0.1863291;2.203891;5.812454;-0.5457528;0.1236003;2.756996;-0.4173087;0.1871912;1.300477;-0.2933361;0;0;0;0.1236003;2.756996;-0.4173087;0.1871912;1.300477;-0.2933361;0;0;0
918552.0761;NotLabelled;NONE;16384;0.7245846;0.4224377;0.5290859;0.1288089;-5;7;-5;2530;-2018;2395;65536;0.8424344;0.5138504;0.1537396;0.05124654;0;10;0;-927;-3482;-1725;8192;0.8965338;0.2562327;-0.1163435;-0.3421052;4;2;-1;-2788;-1645;2521;32768;0.8624951;0.4584487;0.07479224;-0.200831;0;6;0;1212;-3461;-2045;256;0.2229917;-0.2950138;-0.5304709;-0.7627858;-1;-5;2;-91;3846;-1443;128;-0.1315789;0.3047091;0.5069252;0.7955289;-1;-4;-3;-441;3677;1836;4;-0.3116343;0.3767313;-0.6108033;-0.6227977;0;-3;0;-279;4098;-250;16;0.5927978;-0.7770614;0.1523546;0.1468144;0;0;0;237;3924;976;2;0.6218836;-0.6419754;-0.2963989;-0.3365651;0;-3;0;-135;4116;-153;8;0.5955678;-0.7012142;0.2243767;0.3213296;-1;0;0;-323;4035;773;0.4376002;2.796424;-0.3996683;0.4434507;3.329583;-0.2842185;0.448598;3.798657;-0.1847154;0.4298157;4.489048;0.06321794;0.1625178;4.801744;0.1375218;-0.1744917;4.639206;0.1495752;-0.7040175;5.080266;-0.4696158;-0.6420859;5.885045;-0.9658947;0.6826692;4.815899;0.1375204;0.9756519;4.670503;0.1495724;1.802983;5.035501;-0.1829548;2.210082;5.813321;-0.5394022;0.1253747;2.756996;-0.4167792;0.1884375;1.300477;-0.292537;0;0;0;0.1253747;2.756996;-0.4167792;0.1884375;1.300477;-0.292537;0;0;0
918572.0453;NotLabelled;NONE;16384;0.7238165;0.4224377;0.5304709;0.1274238;-4;7;-4;2590;-1988;2449;65536;0.8422636;0.5138504;0.1551246;0.04986149;0;8;2;-843;-3554;-1801;8192;0.8961829;0.2562327;-0.1149584;-0.3434903;5;1;-1;-2844;-1643;2431;32768;0.8624951;0.4584487;0.07479224;-0.200831;0;6;1;1154;-3511;-1951;256;0.2229917;-0.2963989;-0.5290859;-0.7632107;-1;-6;2;-71;3852;-1495;128;-0.1315789;0.3047091;0.5055401;0.7964098;0;-3;-2;-421;3677;1914;4;-0.3116343;0.3767313;-0.6108033;-0.6227977;0;0;0;-253;4050;-198;16;0.5927978;-0.7770614;0.1523546;0.1468144;0;0;0;321;4012;1012;2;0.6218836;-0.6426996;-0.2963989;-0.33518;0;-2;0;-73;4114;-131;8;0.5941828;-0.7023882;0.2243767;0.3213296;0;-1;0;-341;3977;775;0.4366587;2.796661;-0.3963455;0.4425091;3.329811;-0.2808542;0.4476563;3.798878;-0.1813145;0.4288734;4.489268;0.06661892;0.1615752;4.801964;0.1409222;-0.1754343;4.639426;0.1529745;-0.7119182;5.079839;-0.4606626;-0.6501678;5.885206;-0.9560081;0.6817266;4.816119;0.1409221;0.9747092;4.670723;0.1529747;1.800985;5.033546;-0.1845214;2.208992;5.811283;-0.5401099;0.1244332;2.757234;-0.4134597;0.1884383;1.300477;-0.2925364;0;0;0;0.1244332;2.757234;-0.4134597;0.1884383;1.300477;-0.2925364;0;0;0
918593.3018;NotLabelled;NONE;16384;0.7230421;0.4224377;0.5318559;0.1260388;-4;4;-3;2540;-2020;2385;65536;0.8420882;0.5138504;0.1565097;0.04847645;0;8;3;-947;-3532;-1719;8192;0.8961829;0.2562327;-0.1149584;-0.3434903;5;1;-3;-2826;-1603;2477;32768;0.8614335;0.4598338;0.07479224;-0.2022161;0;7;1;1222;-3519;-1849;256;0.2243767;-0.2963989;-0.5290859;-0.7628046;-1;-7;2;-67;3848;-1499;128;-0.1315789;0.3060942;0.5055401;0.7958785;0;-3;-2;-445;3573;1982;4;-0.3116343;0.3767313;-0.6108033;-0.6227977;1;0;0;-305;4050;-168;16;0.5927978;-0.7770614;0.1523546;0.1468144;1;0;0;251;3952;1024;2;0.6218836;-0.6426996;-0.2963989;-0.33518;0;-2;1;-141;4142;-155;8;0.5955678;-0.7016559;0.2229917;0.3213296;0;0;0;-283;4051;789;0.4376486;2.796607;-0.3959139;0.443495;3.329395;-0.2787644;0.4486388;3.79815;-0.1777658;0.4301932;4.487774;0.07231867;0.1630449;4.800359;0.1476181;-0.1740382;4.637939;0.1591924;-0.7108687;5.078781;-0.4538331;-0.6490788;5.884254;-0.9490012;0.6832026;4.814275;0.1476184;0.9761196;4.668708;0.1591935;1.802361;5.031968;-0.1779132;2.21122;5.809706;-0.5325229;0.1254237;2.757233;-0.4131613;0.1891388;1.300477;-0.2920845;0;0;0;0.1254237;2.757233;-0.4131613;0.1891388;1.300477;-0.2920845;0;0;0
918615.2306;NotLabelled;NONE;16384;0.7230421;0.4224377;0.5318559;0.1260388;-3;3;-3;2566;-2054;2387;65536;0.8419082;0.5138504;0.1578947;0.04709141;0;6;4;-865;-3568;-1717;8192;0.8963594;0.2562327;-0.1135734;-0.3434903;5;4;-4;-2758;-1579;2487;32768;0.8614335;0.4598338;0.07479224;-0.2022161;-3;7;2;1248;-3557;-1801;256;0.2243767;-0.2977839;-0.5290859;-0.762265;-1;-7;2;-57;3894;-1487;128;-0.132964;0.3060942;0.5055401;0.7956482;0;-2;-2;-441;3693;1900;4;-0.3116343;0.3767313;-0.6108033;-0.6227977;0;0;0;-293;4070;-220;16;0.5927978;-0.7770614;0.1523546;0.1468144;0;0;0;239;3944;1036;2;0.6218836;-0.6426996;-0.2963989;-0.33518;0;-2;1;-173;4084;-255;8;0.5955678;-0.7016559;0.2229917;0.3213296;0;-1;0;-273;3983;777;0.4383686;2.796606;-0.3956906;0.4442149;3.329386;-0.2784992;0.4493586;3.798132;-0.1774637;0.4295711;4.488043;0.07172474;0.1618163;4.800209;0.146609;-0.1749528;4.637153;0.1583824;-0.7126768;5.078426;-0.4535484;-0.651175;5.88401;-0.9485745;0.6819463;4.815129;0.1466094;0.9751436;4.670145;0.1583835;1.801933;5.033405;-0.1773796;2.21111;5.812676;-0.5282319;0.1261437;2.757234;-0.4129414;0.1896476;1.300477;-0.2917542;0;0;0;0.1261437;2.757234;-0.4129414;0.1896476;1.300477;-0.2917542;0;0;0
918636.0498;NotLabelled;NONE;16384;0.7214499;0.4238227;0.533241;0.1246537;-1;2;-3;2566;-2050;2345;65536;0.8417236;0.5138504;0.1592798;0.04570637;0;5;5;-889;-3540;-1843;8192;0.8963969;0.2548476;-0.1121884;-0.3448753;6;3;-4;-2888;-1565;2533;32768;0.8611072;0.4598338;0.07479224;-0.2036011;-4;6;1;1186;-3539;-1893;256;0.2257618;-0.299169;-0.5290859;-0.7613131;-1;-6;1;-45;3844;-1541;128;-0.132964;0.3074792;0.5055401;0.795114;0;-4;-2;-393;3707;1894;4;-0.3116343;0.3767313;-0.6108033;-0.6227977;1;-1;1;-305;4118;-306;16;0.5927978;-0.7767885;0.1537396;0.1468144;1;0;0;297;3978;1004;2;0.6218836;-0.64342;-0.2963989;-0.333795;0;-1;0;-155;4146;-209;8;0.5955678;-0.7012142;0.2243767;0.3213296;0;0;0;-325;3993;755;0.439373;2.796622;-0.3954225;0.4452205;3.329511;-0.2787304;0.4503652;3.798352;-0.1781342;0.4317564;4.4883;0.07104245;0.1645352;4.800924;0.1459215;-0.1725118;4.638444;0.1576977;-0.708768;5.079718;-0.45552;-0.6472163;5.885413;-0.9503576;0.68469;4.814957;0.1459214;0.9776391;4.669471;0.1576981;1.803951;5.033736;-0.1781523;2.213979;5.813006;-0.528008;0.1271479;2.757234;-0.4126332;0.1903568;1.300477;-0.2912918;0;0;0;0.1271479;2.757234;-0.4126332;0.1903568;1.300477;-0.2912918;0;0;0
918657.0501;NotLabelled;NONE;16384;0.7204241;0.4238227;0.534626;0.1246537;-1;3;-4;2522;-2090;2329;65536;0.8412688;0.5138504;0.1620499;0.04432133;0;5;5;-803;-3468;-1839;8192;0.8963969;0.2548476;-0.1121884;-0.3448753;6;0;-4;-2914;-1603;2529;32768;0.8611072;0.4598338;0.07479224;-0.2036011;-6;2;0;1160;-3527;-1871;256;0.2257618;-0.299169;-0.5290859;-0.7613131;-1;-6;1;-11;3934;-1479;128;-0.132964;0.3088643;0.5055401;0.794577;0;-3;-2;-413;3705;1916;4;-0.3102493;0.3767313;-0.6108033;-0.6234888;0;-1;0;-335;4124;-272;16;0.5927978;-0.7767885;0.1537396;0.1468144;0;0;0;309;3964;982;2;0.6218836;-0.64342;-0.2963989;-0.333795;0;-1;1;-163;4112;-215;8;0.5955678;-0.7012142;0.2243767;0.3213296;0;0;0;-329;3973;787;0.4427642;2.796733;-0.3932737;0.4486117;3.329613;-0.2765394;0.4537564;3.798446;-0.1759061;0.4349895;4.488719;0.07235655;0.1676982;4.801383;0.1468122;-0.1693142;4.638846;0.1587915;-0.7060421;5.081771;-0.4528208;-0.6435806;5.887581;-0.9473574;0.6878498;4.815529;0.1468121;0.9808299;4.670122;0.1587917;1.808015;5.03263;-0.1768088;2.220404;5.811814;-0.5240772;0.1305391;2.757346;-0.4104877;0.1932404;1.300589;-0.2888832;0;0;0;0.1305391;2.757346;-0.4104877;0.1932404;1.300589;-0.2888832;0;0;0
918678.177;NotLabelled;NONE;16384;0.7206624;0.4238227;0.534626;0.1232687;-1;4;-5;2542;-2050;2413;65536;0.8410009;0.5138504;0.1634349;0.04432133;0;6;6;-927;-3506;-1843;8192;0.8971317;0.2534626;-0.1094183;-0.3448753;5;0;-5;-2792;-1573;2519;32768;0.8619645;0.4584487;0.0734072;-0.2036011;-7;3;0;1228;-3331;-1893;256;0.2257618;-0.300554;-0.5290859;-0.7607674;-2;-6;1;-67;3898;-1499;128;-0.134349;0.3088643;0.5055401;0.794344;1;-3;-2;-455;3675;1936;4;-0.3102493;0.3753462;-0.6108033;-0.6243235;0;-4;1;-249;3988;-236;16;0.5927978;-0.7767885;0.1537396;0.1468144;0;0;0;273;3936;994;2;0.6218836;-0.64342;-0.2963989;-0.333795;0;-3;0;-229;4130;-179;8;0.5955678;-0.7016559;0.2229917;0.3213296;0;0;0;-315;4037;809;0.4404355;2.79644;-0.3955193;0.4462828;3.32931;-0.2787427;0.4514273;3.798136;-0.1780721;0.4326603;4.488409;0.07019052;0.165369;4.801073;0.1446461;-0.1716433;4.638536;0.1566254;-0.7108765;5.080336;-0.4535959;-0.6516949;5.885887;-0.9489548;0.6855206;4.815219;0.1446461;0.9785007;4.669812;0.1566256;1.805686;5.03232;-0.1789753;2.218075;5.811504;-0.5262434;0.1282105;2.757054;-0.4127369;0.1932404;1.300589;-0.2888832;0;0;0;0.1282105;2.757054;-0.4127369;0.1932404;1.300589;-0.2888832;0;0;0
918698.0489;NotLabelled;NONE;16384;0.7196327;0.4238227;0.536011;0.1232687;-1;3;-4;2502;-2028;2377;65536;0.8407305;0.5138504;0.1648199;0.04432133;0;5;6;-907;-3506;-1825;8192;0.8971317;0.2534626;-0.1094183;-0.3448753;6;-2;-4;-2772;-1545;2417;32768;0.8626997;0.4570637;0.0734072;-0.2036011;-7;4;2;1298;-3389;-1883;256;0.2271468;-0.300554;-0.5290859;-0.760355;-3;-5;1;-83;3850;-1497;128;-0.134349;0.3102493;0.5055401;0.793804;1;-2;-2;-425;3695;1906;4;-0.3102493;0.3753462;-0.6108033;-0.6243235;0;-3;2;-249;4118;-160;16;0.5927978;-0.7767885;0.1537396;0.1468144;0;0;0;273;3916;994;2;0.6218836;-0.6440563;-0.2950138;-0.333795;0;-4;0;-173;4116;-173;8;0.5955678;-0.7016559;0.2229917;0.3213296;0;-1;0;-323;4105;807;0.4404876;2.796691;-0.3919328;0.4463362;3.329671;-0.2756606;0.4514816;3.798592;-0.1754338;0.4338883;4.4889;0.07281709;0.1671301;4.802024;0.1472584;-0.1701604;4.640064;0.1592285;-0.7057607;5.084001;-0.452639;-0.6474755;5.889174;-0.9487168;0.6873052;4.815278;0.1472763;0.9800355;4.669369;0.1592684;1.806657;5.032002;-0.1775825;2.223005;5.809136;-0.5247202;0.1282624;2.757289;-0.4091099;0.1939536;1.300589;-0.2884049;0;0;0;0.1282624;2.757289;-0.4091099;0.1939536;1.300589;-0.2884049;0;0;0
918719.0389;NotLabelled;NONE;16384;0.718599;0.4238227;0.5373961;0.1232687;0;2;-5;2590;-2040;2403;65536;0.8405297;0.5138504;0.166205;0.04293629;0;4;5;-851;-3490;-1857;8192;0.8982205;0.2520775;-0.1080332;-0.3434903;8;-3;-4;-2690;-1667;2517;32768;0.8626997;0.4570637;0.0734072;-0.2036011;-8;3;2;1100;-3397;-1987;256;0.2285319;-0.301939;-0.5290859;-0.7593907;-3;-5;1;-81;3820;-1519;128;-0.134349;0.3102493;0.5055401;0.793804;1;-2;-1;-417;3643;1954;4;-0.3102493;0.3739612;-0.6121883;-0.6237979;0;-2;1;-307;4140;-252;16;0.5927978;-0.7770614;0.1523546;0.1468144;0;0;-1;303;3948;980;2;0.6232687;-0.6427161;-0.2950138;-0.333795;0;-2;0;-131;4064;-157;8;0.5955678;-0.7016559;0.2229917;0.3213296;0;-1;0;-303;4005;777;0.4411877;2.79669;-0.391709;0.4470361;3.329661;-0.2753943;0.4521816;3.798573;-0.1751301;0.4332625;4.489172;0.07221299;0.1659034;4.80188;0.1462432;-0.1710754;4.639288;0.1584271;-0.7085885;5.081473;-0.4530311;-0.6515762;5.886268;-0.9498721;0.6860521;4.816133;0.1462423;0.979062;4.670803;0.1584255;1.806014;5.033089;-0.1779897;2.224175;5.808597;-0.5265803;0.1289625;2.757289;-0.4088895;0.194447;1.300589;-0.2880721;0;0;0;0.1289625;2.757289;-0.4088895;0.194447;1.300589;-0.2880721;0;0;0
918740.4284;NotLabelled;NONE;16384;0.718599;0.4238227;0.5373961;0.1232687;0;3;-6;2504;-2008;2341;65536;0.8402546;0.5138504;0.16759;0.04293629;0;3;6;-879;-3462;-1773;8192;0.8982205;0.2520775;-0.1080332;-0.3434903;8;-1;-4;-2734;-1573;2495;32768;0.8633132;0.4556787;0.07479224;-0.2036011;-7;4;1;1122;-3357;-2097;256;0.2285319;-0.3033241;-0.5290859;-0.7588385;-3;-4;0;-55;3826;-1455;128;-0.134349;0.3102493;0.5055401;0.793804;2;-3;-2;-437;3619;1814;4;-0.3102493;0.3739612;-0.6121883;-0.6237979;0;0;1;-225;4110;-310;16;0.5927978;-0.7770614;0.1523546;0.1468144;1;0;0;283;3928;1000;2;0.6232687;-0.6427161;-0.2950138;-0.333795;-1;-2;0;-181;4104;-73;8;0.5955678;-0.7016559;0.2229917;0.3213296;0;0;0;-355;4039;767;0.4457039;2.796909;-0.3911025;0.4515523;3.32988;-0.2747878;0.4566978;3.798792;-0.1745236;0.437631;4.489717;0.07189441;0.1702066;4.802471;0.1454957;-0.1667404;4.639829;0.1578844;-0.7052713;5.080935;-0.4534583;-0.6473539;5.885854;-0.9499934;0.6903525;4.816829;0.1454958;0.983391;4.671574;0.1578847;1.809827;5.03322;-0.180479;2.229447;5.808728;-0.5273142;0.1334786;2.757508;-0.4082828;0.193998;1.300477;-0.2888796;0;0;0;0.1334786;2.757508;-0.4082828;0.193998;1.300477;-0.2888796;0;0;0
918761.0537;NotLabelled;NONE;16384;0.716756;0.4238227;0.5401662;0.1218837;0;2;-6;2510;-1974;2369;65536;0.839767;0.5138504;0.1703601;0.04155125;-1;4;6;-929;-3556;-1773;8192;0.8983861;0.2520775;-0.1066482;-0.3434903;7;0;-4;-2728;-1605;2417;32768;0.8640429;0.4542936;0.07479224;-0.2036011;-7;4;1;1164;-3337;-1993;256;0.2299169;-0.3047091;-0.5290859;-0.7578646;-4;-5;1;-75;3820;-1439;128;-0.134349;0.3116343;0.5055401;0.7932613;3;-2;-2;-415;3647;1928;4;-0.3102493;0.3739612;-0.6108033;-0.6251541;0;0;2;-285;4034;-296;16;0.5927978;-0.7767885;0.1537396;0.1468144;1;0;0;249;3886;994;2;0.6232687;-0.6427161;-0.2950138;-0.333795;-1;0;0;-191;4140;-149;8;0.5955678;-0.7016559;0.2229917;0.3213296;0;0;-1;-309;4017;803;0.4466988;2.796908;-0.3907771;0.4525473;3.32988;-0.2744624;0.4576929;3.798792;-0.1741981;0.4398135;4.489753;0.07220829;0.172927;4.802967;0.1458043;-0.1642989;4.640904;0.1581954;-0.7013384;5.082009;-0.4544584;-0.6443341;5.886548;-0.9517159;0.6930968;4.81643;0.1458042;0.9858852;4.670672;0.1581957;1.813144;5.032319;-0.178153;2.232962;5.806624;-0.5274203;0.1344736;2.757508;-0.4079574;0.1947017;1.300477;-0.2884065;0;0;0;0.1344736;2.757508;-0.4079574;0.1947017;1.300477;-0.2884065;0;0;0
918781.2072;NotLabelled;NONE;16384;0.7175732;0.4224377;0.5401662;0.1218837;0;2;-6;2636;-1986;2385;65536;0.8394849;0.5138504;0.1717452;0.04155125;-2;2;7;-971;-3442;-1789;8192;0.8993219;0.2493075;-0.1052632;-0.3434903;8;0;-3;-2822;-1619;2593;32768;0.8646487;0.4529086;0.07617728;-0.2036011;-8;3;2;1200;-3405;-2039;256;0.2313019;-0.3047091;-0.5290859;-0.757443;-5;-6;0;-81;3850;-1475;128;-0.1357341;0.3116343;0.5055401;0.7930256;2;-2;0;-449;3653;1962;4;-0.3102493;0.3725762;-0.6108033;-0.6259806;0;-2;1;-293;4190;-194;16;0.5927978;-0.7767885;0.1537396;0.1468144;1;0;0;273;3958;972;2;0.6232687;-0.6427161;-0.2950138;-0.333795;-1;1;-1;-149;4156;-169;8;0.5955678;-0.7010199;0.2229917;0.3227147;0;0;0;-303;4015;789;0.4446121;2.796915;-0.3869896;0.4504603;3.329877;-0.270632;0.4556058;3.798781;-0.17033;0.4375871;4.49007;0.07514551;0.1706388;4.803332;0.1483104;-0.166557;4.641223;0.1609076;-0.7054596;5.081634;-0.4506079;-0.649681;5.88592;-0.9484131;0.690806;4.816894;0.1483109;0.9836214;4.671208;0.1609092;1.811012;5.033852;-0.1740377;2.233525;5.806521;-0.5236833;0.1323868;2.757516;-0.4041735;0.1975531;1.300589;-0.2859511;0;0;0;0.1323868;2.757516;-0.4041735;0.1975531;1.300589;-0.2859511;0;0;0
918801.959;NotLabelled;NONE;16384;0.7165285;0.4224377;0.5415512;0.1218837;1;4;-6;2622;-1960;2441;65536;0.8400468;0.5124654;0.1731302;0.04155125;-2;4;7;-999;-3588;-1807;8192;0.8994829;0.2493075;-0.1038781;-0.3434903;7;-3;-4;-2848;-1587;2575;32768;0.8646487;0.4529086;0.07617728;-0.2036011;-9;1;0;1166;-3411;-2069;256;0.232687;-0.3047091;-0.5290859;-0.7570187;-5;-6;0;-65;3874;-1473;128;-0.1357341;0.3116343;0.5055401;0.7930256;5;-4;-1;-377;3731;1852;4;-0.3102493;0.3725762;-0.6121883;-0.6246261;0;-3;0;-235;4018;-320;16;0.5927978;-0.7767885;0.1537396;0.1468144;1;0;0;285;4002;962;2;0.6232687;-0.6427161;-0.2950138;-0.333795;0;0;0;-151;4118;-135;8;0.5955678;-0.7010199;0.2229917;0.3227147;0;0;0;-345;4041;775;0.4443395;2.797151;-0.3835029;0.4501891;3.330224;-0.2676547;0.4553355;3.799224;-0.1678008;0.435991;4.490805;0.07674956;0.1684438;4.803656;0.1494865;-0.1684429;4.640921;0.162289;-0.7050949;5.080132;-0.4520631;-0.650571;5.884033;-0.9506267;0.6885843;4.818209;0.1494862;0.9816763;4.673098;0.1622891;1.809065;5.032303;-0.1763461;2.23155;5.80376;-0.5286949;0.1321141;2.757736;-0.4006459;0.1980553;1.300589;-0.2856036;0;0;0;0.1321141;2.757736;-0.4006459;0.1980553;1.300589;-0.2856036;0;0;0
918823.0622;NotLabelled;NONE;16384;0.7154796;0.4224377;0.5429363;0.1218837;1;4;-6;2612;-2020;2501;65536;0.8397602;0.5124654;0.1745152;0.04155125;-4;6;7;-1127;-3548;-1801;8192;0.8998656;0.2479224;-0.1038781;-0.3434903;6;-1;-5;-2826;-1473;2603;32768;0.8654936;0.4515235;0.07479224;-0.2036011;-9;2;0;1212;-3371;-2083;256;0.232687;-0.3060942;-0.5290859;-0.7564597;-4;-5;1;-53;3828;-1429;128;-0.1357341;0.3130194;0.5069252;0.7915946;3;-4;-2;-429;3599;1898;4;-0.3102493;0.3725762;-0.6121883;-0.6246261;-1;-4;0;-205;4026;-260;16;0.5927978;-0.7767885;0.1537396;0.1468144;1;0;0;275;3986;1012;2;0.6246537;-0.64137;-0.2950138;-0.333795;-1;0;0;-205;4106;-151;8;0.5955678;-0.7016559;0.2229917;0.3213296;0;0;0;-309;4019;771;0.4504859;2.797262;-0.3848346;0.4563355;3.330335;-0.2689863;0.461482;3.799335;-0.1691325;0.4408131;4.491205;0.07448789;0.1726688;4.803644;0.1467946;-0.1639085;4.640287;0.1598034;-0.7009202;5.078366;-0.455041;-0.6458609;5.880501;-0.956384;0.6927804;4.819186;0.1467941;0.9861473;4.674649;0.1598027;1.813449;5.034849;-0.1779883;2.236554;5.806307;-0.5295918;0.1382606;2.757846;-0.4019775;0.1985584;1.300589;-0.2852539;0;0;0;0.1382606;2.757846;-0.4019775;0.1985584;1.300589;-0.2852539;0;0;0
918845.1902;NotLabelled;NONE;16384;0.7144265;0.4224377;0.5443213;0.1218837;1;3;-5;2620;-1954;2431;65536;0.8394712;0.5124654;0.1759003;0.04155125;-4;6;8;-1077;-3504;-1795;8192;0.9005519;0.2479224;-0.1024931;-0.3421052;6;0;-5;-2806;-1529;2541;32768;0.8660941;0.4501385;0.07617728;-0.2036011;-8;3;0;1246;-3355;-2109;256;0.234072;-0.3060942;-0.5290859;-0.7560322;-3;-5;0;-43;3840;-1481;128;-0.1371191;0.3130194;0.5069252;0.7913558;3;-3;-1;-403;3625;1932;4;-0.3088643;0.3711911;-0.6121883;-0.6261353;-1;-5;0;-239;4026;-294;16;0.5927978;-0.7767885;0.1537396;0.1468144;1;0;0;241;3946;1028;2;0.6246537;-0.64137;-0.2950138;-0.333795;-1;-1;0;-197;4084;-153;8;0.5955678;-0.7010199;0.2229917;0.3227147;0;0;0;-311;4009;775;0.4514666;2.797313;-0.3846261;0.45732;3.330734;-0.2703903;0.4624698;3.800034;-0.1719551;0.4429949;4.491943;0.07165295;0.1753901;4.804847;0.1439537;-0.1614687;4.64207;0.1569646;-0.700664;5.079016;-0.456775;-0.6465167;5.880764;-0.9588367;0.6955279;4.819489;0.1439539;0.9886448;4.674448;0.1569655;1.816477;5.032426;-0.1818888;2.243541;5.8018;-0.5332649;0.1392407;2.757846;-0.4016394;0.1992537;1.300589;-0.2847688;0;0;0;0.1392407;2.757846;-0.4016394;0.1992537;1.300589;-0.2847688;0;0;0
918865.0423;NotLabelled;NONE;16384;0.7141874;0.4210526;0.5457063;0.1218837;2;4;-4;2534;-1930;2383;65536;0.8394346;0.5110803;0.1800554;0.04155125;-4;3;7;-1137;-3502;-1817;8192;0.900932;0.2465374;-0.1024931;-0.3421052;7;-2;-4;-2820;-1617;2545;32768;0.8669331;0.4487534;0.07479224;-0.2036011;-8;2;0;1196;-3405;-2157;256;0.2354571;-0.3074792;-0.5304709;-0.7540671;-5;-6;0;-85;3874;-1457;128;-0.1385041;0.3144044;0.5069252;0.7905652;3;-7;-1;-457;3647;1980;4;-0.3088643;0.3711911;-0.6121883;-0.6261353;0;-4;0;-291;4084;-186;16;0.5927978;-0.7767885;0.1537396;0.1468144;1;0;0;259;3970;944;2;0.6246537;-0.64137;-0.2950138;-0.333795;0;-3;0;-247;4106;-185;8;0.5955678;-0.7010199;0.2229917;0.3227147;0;0;-1;-301;4005;809;0.4489309;2.797272;-0.3834244;0.4547855;3.330802;-0.2697017;0.4599363;3.800196;-0.1717178;0.4391301;4.492396;0.07095376;0.1709269;4.804888;0.142811;-0.1656238;4.641492;0.1560163;-0.7050522;5.077889;-0.457908;-0.6521352;5.879247;-0.9607224;0.6910361;4.820518;0.1428314;0.9844264;4.67605;0.1560615;1.81186;5.035868;-0.1818144;2.238924;5.804018;-0.5358608;0.1367048;2.757788;-0.4003964;0.1997673;1.300589;-0.2844085;0;0;0;0.1367048;2.757788;-0.4003964;0.1997673;1.300589;-0.2844085;0;0;0
918886.0372;NotLabelled;NONE;16384;0.713127;0.4210526;0.5470914;0.1218837;2;4;-4;2618;-1978;2399;65536;0.8390666;0.5110803;0.1814404;0.04293629;-4;3;7;-1103;-3398;-1863;8192;0.9010885;0.2465374;-0.101108;-0.3421052;7;-3;-4;-2802;-1549;2569;32768;0.8669331;0.4487534;0.07479224;-0.2036011;-7;2;0;1152;-3353;-2191;256;0.2354571;-0.3074792;-0.5304709;-0.7540671;-5;-5;0;5;3854;-1461;128;-0.1385041;0.3144044;0.5069252;0.7905652;3;-5;-1;-417;3757;1818;4;-0.3088643;0.3698061;-0.6121883;-0.6269543;-2;-5;0;-203;4060;-228;16;0.5941828;-0.7757297;0.1537396;0.1468144;1;0;0;295;3930;988;2;0.6246537;-0.64137;-0.2950138;-0.333795;-3;-4;0;-197;4102;-119;8;0.5955678;-0.7016559;0.2229917;0.3213296;0;0;0;-283;4041;799;0.4506291;2.797287;-0.3828785;0.4564847;3.330918;-0.2696299;0.4616364;3.800399;-0.1720631;0.4415952;4.493707;0.06749079;0.1737422;4.806827;0.1379069;-0.1629976;4.643878;0.1518021;-0.699632;5.077899;-0.4662416;-0.6492084;5.87669;-0.9733771;0.6938689;4.821858;0.1379256;0.9870912;4.677114;0.1518437;1.817132;5.034678;-0.1820071;2.248796;5.800732;-0.5350113;0.1384028;2.757788;-0.3998125;0.2009726;1.300589;-0.283558;0;0;0;0.1384028;2.757788;-0.3998125;0.2009726;1.300589;-0.283558;0;0;0
918906.0388;NotLabelled;NONE;16384;0.7128794;0.4196676;0.5484765;0.1218837;3;4;-5;2560;-1884;2429;65536;0.8396083;0.5096953;0.1828255;0.04293629;-3;2;7;-1095;-3376;-1889;8192;0.9016206;0.2451524;-0.09972299;-0.3421052;7;-1;-4;-2698;-1581;2549;32768;0.8683614;0.4459834;0.07479224;-0.2036011;-6;5;1;1174;-3243;-2209;256;0.2368421;-0.3088643;-0.5304709;-0.7530666;-4;-5;0;-63;3860;-1413;128;-0.1398892;0.3157895;0.5069252;0.7897689;3;-4;-1;-359;3641;1930;4;-0.3088643;0.368421;-0.6135734;-0.6264156;-2;-5;2;-151;4040;-312;16;0.5941828;-0.7754539;0.1551246;0.1468144;1;0;0;291;3948;954;2;0.6260388;-0.6407385;-0.2950138;-0.33241;-3;0;-1;-221;4072;-199;8;0.5955678;-0.7010199;0.2229917;0.3227147;0;0;0;-321;4083;741;0.4471624;2.798705;-0.375795;0.4530181;3.332336;-0.2625464;0.4581698;3.801817;-0.1649796;0.4381371;4.495125;0.07457471;0.1702866;4.808245;0.1450002;-0.1664529;4.645295;0.1589075;-0.70829;5.077629;-0.455771;-0.6609556;5.875479;-0.9646841;0.6904133;4.823277;0.1450005;0.9836363;4.678533;0.1589082;1.810948;5.036783;-0.1809251;2.242599;5.802838;-0.5339446;0.1349361;2.759206;-0.392729;0.1984974;1.301792;-0.279758;0;0;0;0.1349361;2.759206;-0.392729;0.1984974;1.301792;-0.279758;0;0;0
918926.0687;NotLabelled;NONE;16384;0.7128794;0.4196676;0.5484765;0.1218837;3;4;-5;2482;-1968;2443;65536;0.8393055;0.5096953;0.1842105;0.04293629;-4;2;6;-1087;-3382;-1921;8192;0.9026721;0.2437673;-0.09833795;-0.3407202;7;-1;-3;-2690;-1571;2611;32768;0.8683614;0.4459834;0.07479224;-0.2036011;-5;3;1;1170;-3263;-2167;256;0.2382271;-0.3088643;-0.5304709;-0.7526296;-4;-5;0;-93;3882;-1419;128;-0.1398892;0.3157895;0.5069252;0.7897689;4;-4;0;-435;3611;1858;4;-0.3088643;0.367036;-0.6135734;-0.6272281;-1;1;1;-185;4120;-252;16;0.5941828;-0.7754539;0.1551246;0.1468144;1;-1;0;237;3920;920;2;0.6246537;-0.64137;-0.2950138;-0.333795;0;1;0;-99;4106;-139;8;0.5955678;-0.7016559;0.2229917;0.3213296;0;2;0;-333;3987;719;0.4549177;2.799148;-0.3718314;0.4607745;3.33288;-0.2590609;0.4659272;3.802449;-0.1619149;0.4457752;4.496084;0.07667956;0.1778738;4.809262;0.1466519;-0.1588428;4.646284;0.1607586;-0.6967816;5.076833;-0.4585779;-0.6476376;5.87289;-0.9701182;0.6979983;4.824369;0.146671;0.9912412;4.679687;0.1608013;1.8205;5.036998;-0.1752536;2.256129;5.79971;-0.5306215;0.1426913;2.759634;-0.3887269;0.2013057;1.301898;-0.277245;0;0;0;0.1426913;2.759634;-0.3887269;0.2013057;1.301898;-0.277245;0;0;0
918947.0465;NotLabelled;NONE;16384;0.7126264;0.4182825;0.5498615;0.1218837;3;3;-5;2580;-1862;2435;65536;0.840145;0.5083103;0.1842105;0.04293629;-4;1;7;-1079;-3458;-1967;8192;0.9026721;0.2437673;-0.09833795;-0.3407202;6;-3;-2;-2666;-1545;2653;32768;0.8693947;0.4445983;0.07479224;-0.2022161;-6;1;0;1128;-3289;-2183;256;0.2382271;-0.3088643;-0.5304709;-0.7526296;-3;-4;0;-53;3828;-1427;128;-0.1412742;0.3157895;0.5083103;0.7886313;5;-2;-1;-435;3677;1864;4;-0.3088643;0.367036;-0.6135734;-0.6272281;-1;0;1;-201;4100;-150;16;0.5941828;-0.7754539;0.1551246;0.1468144;0;-1;0;267;3914;900;2;0.6260388;-0.6400181;-0.2950138;-0.333795;-2;0;0;-141;4072;-13;8;0.5955678;-0.7020946;0.2216066;0.3213296;0;2;0;-353;4071;811;0.4546149;2.799355;-0.368311;0.4604717;3.333087;-0.2555406;0.4656244;3.802656;-0.1583947;0.4441681;4.496579;0.07924762;0.1756783;4.809349;0.1487893;-0.1607316;4.645757;0.1631186;-0.7002264;5.075754;-0.4552479;-0.6523429;5.871406;-0.9675375;0.6957735;4.825433;0.1487894;0.9892877;4.681322;0.1631192;1.816387;5.037582;-0.1793129;2.252635;5.800292;-0.5339203;0.1423885;2.759841;-0.3852065;0.2017889;1.301898;-0.2768935;0;0;0;0.1423885;2.759841;-0.3852065;0.2017889;1.301898;-0.2768935;0;0;0
918967.0239;NotLabelled;NONE;16384;0.712368;0.4168975;0.5512465;0.1218837;3;2;-6;2530;-1884;2445;65536;0.840298;0.5069252;0.1869806;0.04432133;-3;2;6;-1151;-3432;-1879;8192;0.9031947;0.2423823;-0.09695291;-0.3407202;6;-2;-2;-2630;-1529;2685;32768;0.8701016;0.4432133;0.07479224;-0.2022161;-7;2;0;1206;-3253;-2125;256;0.2396122;-0.3088643;-0.5304709;-0.7521898;-3;-4;0;-23;3884;-1439;128;-0.1412742;0.3157895;0.5083103;0.7886313;6;-1;0;-439;3679;1864;4;-0.3102493;0.367036;-0.6135734;-0.6265442;-2;0;1;-219;4038;-172;16;0.5941828;-0.7754539;0.1551246;0.1468144;0;-1;0;321;3974;960;2;0.6260388;-0.6400181;-0.2950138;-0.333795;-2;1;0;-211;4116;-141;8;0.5955678;-0.7020946;0.2216066;0.3213296;0;1;0;-383;4027;823;0.4546157;2.799424;-0.3684879;0.4604775;3.333612;-0.2578983;0.4656345;3.803573;-0.162671;0.4441781;4.497496;0.07497096;0.1756884;4.810266;0.1445124;-0.1607216;4.646675;0.1588419;-0.7016788;5.074331;-0.4598699;-0.652002;5.868589;-0.9741496;0.6957836;4.826351;0.1445127;0.9892977;4.68224;0.1588424;1.816339;5.038499;-0.1837311;2.252979;5.799605;-0.5412924;0.1423885;2.759841;-0.3852079;0.2017888;1.301898;-0.2768941;0;0;0;0.1423885;2.759841;-0.3852079;0.2017888;1.301898;-0.2768941;0;0;0
918987.0586;NotLabelled;NONE;16384;0.7110553;0.4168975;0.5526316;0.1232687;4;2;-6;2598;-1912;2439;65536;0.8399886;0.5069252;0.1883656;0.04432133;-3;1;6;-1175;-3440;-1947;8192;0.9031947;0.2423823;-0.09695291;-0.3407202;6;-1;-2;-2656;-1497;2649;32768;0.8701016;0.4432133;0.07479224;-0.2022161;-8;2;1;1182;-3257;-2171;256;0.2409972;-0.3102493;-0.5304709;-0.7511767;-2;-3;0;-153;3850;-1355;128;-0.1412742;0.3157895;0.5096953;0.7877368;6;0;0;-425;3579;1904;4;-0.3102493;0.367036;-0.6135734;-0.6265442;0;2;1;-179;4116;-134;16;0.5941828;-0.7754539;0.1551246;0.1468144;0;0;0;257;3944;988;2;0.6260388;-0.6400181;-0.2950138;-0.333795;0;2;0;-223;4106;-117;8;0.5955678;-0.7020946;0.2216066;0.3213296;0;1;0;-377;3987;767;0.4575412;2.799684;-0.3659147;0.463403;3.333872;-0.2553251;0.46856;3.803833;-0.1600978;0.4457917;4.498041;0.07658699;0.1767128;4.810402;0.1456859;-0.1593906;4.646201;0.1602261;-0.6993894;5.071515;-0.4609323;-0.6522278;5.862998;-0.9797066;0.696777;4.827462;0.1456863;0.9905601;4.683922;0.1602273;1.817943;5.038922;-0.1828268;2.256458;5.798341;-0.5416801;0.145314;2.760101;-0.3826347;0.2022829;1.301898;-0.2765328;0;0;0;0.145314;2.760101;-0.3826347;0.2022829;1.301898;-0.2765328;0;0;0
919007.326;NotLabelled;NONE;16384;0.7107882;0.4155124;0.5540166;0.1232687;4;2;-6;2706;-1872;2471;65536;0.8396769;0.5069252;0.1897507;0.04432133;-3;2;7;-1243;-3456;-1917;8192;0.9042338;0.2409972;-0.09556787;-0.3393352;5;-4;-1;-2722;-1523;2629;32768;0.871507;0.4404432;0.07479224;-0.2022161;-8;-1;0;1082;-3355;-2209;256;0.2409972;-0.3102493;-0.5304709;-0.7511767;-2;-3;0;-65;3806;-1371;128;-0.1426593;0.3157895;0.5096953;0.7874872;5;-1;0;-399;3711;1848;4;-0.3102493;0.367036;-0.6135734;-0.6265442;0;0;0;-227;4102;-294;16;0.5941828;-0.7754539;0.1551246;0.1468144;1;0;0;311;4000;998;2;0.6260388;-0.6393778;-0.2963989;-0.333795;0;1;0;-197;4088;-61;8;0.5969529;-0.7009172;0.2216066;0.3213296;1;2;0;-321;3999;803;0.4591568;2.799735;-0.3654312;0.4650224;3.334265;-0.2565023;0.4701826;3.80452;-0.1627359;0.4473159;4.499056;0.07297239;0.1781946;4.81148;0.14162;-0.1578888;4.647257;0.1563755;-0.699575;5.069826;-0.4651873;-0.6523827;5.860895;-0.9845892;0.6982565;4.828606;0.1416204;0.9920571;4.685123;0.1563765;1.820229;5.040123;-0.1847713;2.260256;5.799541;-0.541769;0.1469291;2.7601;-0.3820176;0.2034493;1.301898;-0.2756758;0;0;0;0.1469291;2.7601;-0.3820176;0.2034493;1.301898;-0.2756758;0;0;0
919049.0525;NotLabelled;NONE;16384;0.7105156;0.4141274;0.5554016;0.1232687;3;3;-4;2636;-1876;2515;65536;0.839807;0.5055401;0.1925208;0.04570637;-5;3;7;-1313;-3462;-1929;8192;0.9052653;0.2396122;-0.09418282;-0.3379501;5;-2;-2;-2648;-1575;2677;32768;0.8725256;0.4390582;0.07479224;-0.200831;-8;0;-1;1190;-3305;-2203;256;0.2423823;-0.3102493;-0.5304709;-0.7507309;-3;-2;0;-127;3868;-1281;128;-0.1426593;0.3171745;0.5110803;0.7860315;4;0;0;-393;3669;1856;4;-0.3102493;0.367036;-0.6135734;-0.6265442;0;0;0;-327;4102;-220;16;0.5941828;-0.7754539;0.1551246;0.1468144;1;0;0;233;3942;930;2;0.6260388;-0.6386529;-0.2963989;-0.33518;0;3;0;-247;4074;-181;8;0.5969529;-0.7013537;0.2202216;0.3213296;0;3;0;-323;4015;705;0.4591573;2.799751;-0.3654744;0.465024;3.334388;-0.2570716;0.4701853;3.804734;-0.1637681;0.4473186;4.499271;0.07194;0.1781972;4.811696;0.1405876;-0.157886;4.647472;0.1553431;-0.70085;5.067693;-0.4666967;-0.6558217;5.858347;-0.9869236;0.6982591;4.828822;0.1405878;0.9920598;4.685338;0.155344;1.818968;5.039566;-0.1896505;2.261472;5.795588;-0.5507672;0.1469294;2.7601;-0.3820183;0.2034495;1.301898;-0.2756761;0;0;0;0.1469294;2.7601;-0.3820183;0.2034495;1.301898;-0.2756761;0;0;0
919070.2692;NotLabelled;NONE;16384;0.7094306;0.4141274;0.5567867;0.1232687;4;2;-3;2686;-1824;2537;65536;0.8403208;0.5041551;0.1939058;0.04570637;-5;3;7;-1261;-3420;-1917;8192;0.9056308;0.2382271;-0.09418282;-0.3379501;5;-2;-1;-2692;-1535;2635;32768;0.8733387;0.4376731;0.0734072;-0.200831;-8;0;-1;1128;-3305;-2195;256;0.2423823;-0.3102493;-0.5304709;-0.7507309;-2;-2;0;-19;3830;-1373;128;-0.1426593;0.3171745;0.5110803;0.7860315;4;-1;0;-341;3679;1852;4;-0.3102493;0.367036;-0.6135734;-0.6265442;-1;0;0;-241;4020;-160;16;0.5955678;-0.7741119;0.1565097;0.1468144;1;0;0;303;3962;894;2;0.6260388;-0.6380082;-0.2977839;-0.33518;0;0;0;-245;4108;-109;8;0.5969529;-0.7017871;0.2188366;0.3213296;0;1;0;-385;4003;751;0.4598424;2.799801;-0.3653414;0.4657127;3.334764;-0.2585605;0.470877;3.805392;-0.166684;0.4467033;4.500212;0.06805575;0.1769962;4.812229;0.136256;-0.1587809;4.6474;0.1512251;-0.7019963;5.06527;-0.4721775;-0.6594769;5.853105;-0.996871;0.6970254;4.830325;0.136256;0.9910924;4.687411;0.1512253;1.817304;5.04085;-0.1962373;2.260863;5.795236;-0.5594759;0.1476139;2.7601;-0.3817545;0.2039433;1.301898;-0.2753111;0;0;0;0.1476139;2.7601;-0.3817545;0.2039433;1.301898;-0.2753111;0;0;0
919091.0705;NotLabelled;NONE;16384;0.7089072;0.4127424;0.5581717;0.1246537;4;5;-3;2636;-1858;2519;65536;0.8407533;0.5027701;0.1952908;0.04709141;-6;4;5;-1227;-3404;-2009;8192;0.9061465;0.2382271;-0.09418282;-0.3365651;5;-4;-2;-2704;-1563;2665;32768;0.8740314;0.4362881;0.0734072;-0.200831;-8;0;-2;1056;-3303;-2267;256;0.2423823;-0.3116343;-0.5304709;-0.750157;-2;-2;0;-97;3922;-1429;128;-0.1440443;0.3157895;0.5124654;0.7854346;4;0;0;-427;3721;1828;4;-0.3102493;0.367036;-0.6135734;-0.6265442;-3;0;1;-219;4090;-142;16;0.5955678;-0.7741119;0.1565097;0.1468144;0;0;0;273;3936;924;2;0.6260388;-0.6380082;-0.2977839;-0.33518;0;-1;0;-281;4130;-115;8;0.5983379;-0.7006066;0.2188366;0.3213296;0;0;0;-375;3997;771;0.4589319;2.801089;-0.3598691;0.4648021;3.336051;-0.2530883;0.4699664;3.806679;-0.1612118;0.4457927;4.5015;0.07352799;0.1760857;4.813517;0.1417282;-0.1596914;4.648687;0.1566973;-0.7054584;5.065408;-0.4652437;-0.6633247;5.851411;-0.9927112;0.6961148;4.831613;0.1417283;0.9901818;4.688698;0.1566975;1.81673;5.039885;-0.1922448;2.263375;5.792127;-0.5561466;0.1467034;2.761388;-0.3762823;0.2030328;1.303185;-0.2698389;0;0;0;0.1467034;2.761388;-0.3762823;0.2030328;1.303185;-0.2698389;0;0;0
919112.2185;NotLabelled;NONE;16384;0.7099537;0.4113573;0.5581717;0.1232687;3;5;-3;2590;-1904;2539;65536;0.8404304;0.5027701;0.1966759;0.04709141;-6;3;5;-1181;-3388;-1973;8192;0.9066523;0.2368421;-0.09279778;-0.3365651;6;-2;-1;-2652;-1581;2619;32768;0.8748366;0.434903;0.07202215;-0.200831;-6;2;-2;1156;-3223;-2299;256;0.2437673;-0.3116343;-0.5304709;-0.7497081;-3;-1;0;-129;3910;-1401;128;-0.1440443;0.3171745;0.5124654;0.7848763;3;0;0;-401;3729;1854;4;-0.3116343;0.367036;-0.6135734;-0.6258565;0;1;0;-259;4064;-232;16;0.5955678;-0.7741119;0.1565097;0.1468144;0;1;0;291;3950;990;2;0.6260388;-0.6386529;-0.2963989;-0.33518;0;-3;0;-241;4158;-111;8;0.5983379;-0.7012401;0.2188366;0.3199446;0;0;0;-365;3987;781;0.4598491;2.801157;-0.3596898;0.4657242;3.336562;-0.2551459;0.4708928;3.807569;-0.1652372;0.4479339;4.502435;0.069489;0.1787728;4.814925;0.137683;-0.157292;4.650682;0.1526548;-0.7034696;5.063433;-0.4715699;-0.6613305;5.847009;-1.002634;0.6988328;4.832111;0.137683;0.9926494;4.688683;0.1526555;1.819679;5.040351;-0.1946568;2.268443;5.790876;-0.5595009;0.1476198;2.761388;-0.3759225;0.2036896;1.303185;-0.2693428;0;0;0;0.1476198;2.761388;-0.3759225;0.2036896;1.303185;-0.2693428;0;0;0
919134.0518;NotLabelled;NONE;16384;0.7088626;0.4113573;0.5595568;0.1232687;3;4;-3;2604;-1852;2541;65536;0.8409324;0.501385;0.1980609;0.04709141;-5;2;4;-1255;-3368;-2071;8192;0.9071536;0.2354571;-0.09141274;-0.3365651;6;-2;0;-2688;-1531;2673;32768;0.8759531;0.433518;0.07063711;-0.199446;-7;0;-2;1158;-3237;-2259;256;0.2437673;-0.3116343;-0.5318559;-0.7487261;-4;-2;0;-115;3868;-1387;128;-0.1440443;0.3157895;0.5138504;0.7845291;4;0;0;-363;3735;1818;4;-0.3116343;0.367036;-0.6135734;-0.6258565;-1;0;0;-251;4086;-208;16;0.5955678;-0.7741119;0.1565097;0.1468144;1;0;0;289;3938;938;2;0.6260388;-0.6386529;-0.2963989;-0.33518;0;-2;0;-209;4126;-93;8;0.5983379;-0.7012401;0.2188366;0.3199446;0;0;0;-327;4063;743;0.4627412;2.801409;-0.3570778;0.4686163;3.336805;-0.2524934;0.4737847;3.807806;-0.162549;0.4495218;4.502956;0.07120332;0.1797766;4.815039;0.1389474;-0.1559829;4.650194;0.1541336;-0.6992997;5.063354;-0.4723127;-0.6583879;5.846498;-1.004109;0.6998037;4.833193;0.1389474;0.9938859;4.690333;0.154134;1.820595;5.040709;-0.1952419;2.273091;5.789074;-0.5599098;0.1505119;2.761642;-0.3733139;0.2041732;1.303185;-0.2689764;0;0;0;0.1505119;2.761642;-0.3733139;0.2041732;1.303185;-0.2689764;0;0;0
919154.3189;NotLabelled;NONE;16384;0.7096646;0.4099723;0.5595568;0.1232687;4;2;-2;2656;-1830;2489;65536;0.8414295;0.5;0.199446;0.04709141;-4;1;4;-1219;-3378;-2093;8192;0.9076663;0.2354571;-0.09141274;-0.33518;5;-4;0;-2646;-1569;2671;32768;0.8766372;0.432133;0.07063711;-0.199446;-8;0;-1;1210;-3181;-2235;256;0.2437673;-0.3116343;-0.5318559;-0.7487261;-3;-2;0;-25;3894;-1439;128;-0.1440443;0.3157895;0.5138504;0.7845291;5;0;0;-421;3709;1834;4;-0.3102493;0.365651;-0.6149584;-0.6259959;-1;-4;0;-215;4064;-242;16;0.5955678;-0.7741119;0.1565097;0.1468144;0;-1;0;257;3942;930;2;0.6260388;-0.6386529;-0.2963989;-0.33518;0;-1;0;-155;4086;-87;8;0.5983379;-0.7012401;0.2188366;0.3199446;0;0;0;-355;4039;713;0.4627584;2.80146;-0.3572094;0.468637;3.337188;-0.2543345;0.4738086;3.808473;-0.1658941;0.4504547;4.504381;0.06568685;0.1811216;4.817036;0.1324281;-0.1548606;4.652689;0.1480915;-0.7007998;5.064701;-0.4768293;-0.6602634;5.845993;-1.011372;0.7011727;4.834491;0.1324284;0.9950613;4.691285;0.1480925;1.820777;5.040362;-0.2049141;2.275548;5.786637;-0.5710351;0.1505286;2.761641;-0.3733075;0.2041851;1.303186;-0.2689677;0;0;0;0.1505286;2.761641;-0.3733075;0.2041851;1.303186;-0.2689677;0;0;0
919176.0795;NotLabelled;NONE;16384;0.7085703;0.4099723;0.5609418;0.1232687;3;2;-3;2620;-1844;2593;65536;0.8411;0.5;0.200831;0.04709141;-4;2;4;-1203;-3454;-2045;8192;0.9080244;0.234072;-0.09141274;-0.33518;5;-3;0;-2670;-1505;2615;32768;0.8767477;0.432133;0.06925207;-0.199446;-7;0;-2;1178;-3221;-2235;256;0.2437673;-0.3116343;-0.5318559;-0.7487261;-3;-1;0;-61;3850;-1315;128;-0.1440443;0.3157895;0.5152354;0.7836202;4;0;0;-427;3685;1810;4;-0.3102493;0.365651;-0.6149584;-0.6259959;0;-3;1;-225;4080;-212;16;0.5955678;-0.7741119;0.1565097;0.1468144;0;-1;0;253;3948;958;2;0.6260388;-0.6393778;-0.2963989;-0.333795;0;0;1;-143;4086;-139;8;0.5983379;-0.7012401;0.2188366;0.3199446;0;1;0;-361;3997;729;0.4650141;2.801503;-0.3577492;0.4708927;3.33723;-0.2548743;0.4760642;3.808516;-0.1664339;0.4527103;4.504423;0.06514701;0.1833773;4.817079;0.1318882;-0.1526049;4.652732;0.1475517;-0.6972781;5.063532;-0.4792682;-0.6571521;5.842964;-1.01655;0.7034284;4.834534;0.1318885;0.9973169;4.691328;0.1475527;1.822719;5.040877;-0.2057192;2.278718;5.785412;-0.5738485;0.1527843;2.761683;-0.3738474;0.2041851;1.303185;-0.2689675;0;0;0;0.1527843;2.761683;-0.3738474;0.2041851;1.303185;-0.2689675;0;0;0
919196.4258;NotLabelled;NONE;16384;0.7082724;0.4085872;0.5623268;0.1232687;3;3;-2;2570;-1826;2617;65536;0.8415903;0.4986149;0.2022161;0.04709141;-4;3;3;-1301;-3362;-1993;8192;0.9083803;0.232687;-0.09141274;-0.33518;4;-3;0;-2716;-1499;2639;32768;0.8774291;0.4307479;0.06925207;-0.199446;-7;0;-3;1230;-3247;-2293;256;0.2451524;-0.3116343;-0.5318559;-0.7482738;-3;-1;0;-147;3846;-1421;128;-0.1440443;0.3157895;0.5152354;0.7836202;5;-1;-1;-363;3691;1796;4;-0.3102493;0.3642659;-0.6149584;-0.6268029;0;-1;1;-233;4048;-198;16;0.5955678;-0.7741119;0.1565097;0.1468144;0;0;0;319;3960;956;2;0.6260388;-0.6393778;-0.2963989;-0.333795;0;0;0;-147;4100;-107;8;0.5983379;-0.7006066;0.2188366;0.3213296;0;1;0;-367;3991;761;0.4650144;2.801553;-0.3578832;0.4708966;3.337599;-0.2566808;0.4760711;3.809158;-0.1697117;0.4527172;4.505066;0.06186953;0.1833842;4.81772;0.1286108;-0.1525981;4.653374;0.1442742;-0.6999173;5.063026;-0.4809901;-0.6619864;5.842024;-1.019062;0.7034353;4.835176;0.1286111;0.9973238;4.69197;0.1442753;1.823008;5.039253;-0.2105703;2.280844;5.783357;-0.577291;0.152784;2.761684;-0.3738463;0.204185;1.303186;-0.268967;0;0;0;0.152784;2.761684;-0.3738463;0.204185;1.303186;-0.268967;0;0;0
919217.0777;NotLabelled;NONE;16384;0.7090696;0.4072022;0.5623268;0.1232687;2;4;-2;2614;-1808;2581;65536;0.8420756;0.4972299;0.2036011;0.04709141;-5;3;3;-1229;-3404;-2053;8192;0.9083803;0.232687;-0.09141274;-0.33518;5;-2;0;-2702;-1511;2653;32768;0.8782157;0.4293629;0.06786703;-0.199446;-5;1;-2;1210;-3205;-2397;256;0.2451524;-0.3116343;-0.5318559;-0.7482738;-3;-1;0;-81;3878;-1371;128;-0.1454294;0.3171745;0.5166205;0.7818912;5;0;-1;-433;3731;1768;4;-0.3102493;0.3642659;-0.6149584;-0.6268029;-1;-1;0;-227;4122;-226;16;0.5955678;-0.7741119;0.1565097;0.1468144;0;0;0;293;3978;970;2;0.6260388;-0.638734;-0.2977839;-0.333795;-1;0;0;-133;4138;-103;8;0.5983379;-0.7006066;0.2188366;0.3213296;1;0;0;-279;4069;785;0.4646861;2.801748;-0.3543585;0.4705683;3.337794;-0.2531561;0.4757428;3.809353;-0.1661871;0.4510878;4.50554;0.06441408;0.1811724;4.81779;0.1307031;-0.1545052;4.652843;0.1465817;-0.7019962;5.060134;-0.4800731;-0.663516;5.837263;-1.020802;0.7011902;4.836209;0.1307032;0.9953429;4.693569;0.1465825;1.822041;5.038584;-0.2081137;2.281765;5.780942;-0.5760081;0.1524557;2.761879;-0.3703216;0.2046697;1.303186;-0.2685987;0;0;0;0.1524557;2.761879;-0.3703216;0.2046697;1.303186;-0.2685987;0;0;0
919237.3538;NotLabelled;NONE;16384;0.707969;0.4072022;0.5637119;0.1232687;2;4;-2;2598;-1738;2629;65536;0.8420756;0.4972299;0.2036011;0.04709141;-4;3;3;-1239;-3348;-2079;8192;0.9093819;0.2313019;-0.0900277;-0.333795;4;-3;0;-2692;-1477;2709;32768;0.8789974;0.4279778;0.06648199;-0.199446;-4;1;-2;1188;-3179;-2341;256;0.2451524;-0.3116343;-0.533241;-0.7472874;-3;-2;0;-129;3872;-1387;128;-0.1454294;0.3171745;0.5166205;0.7818912;5;0;-1;-399;3725;1788;4;-0.3102493;0.3642659;-0.6149584;-0.6268029;0;-1;0;-207;4056;-272;16;0.5955678;-0.7741119;0.1565097;0.1468144;1;0;0;243;3972;956;2;0.6274238;-0.6373735;-0.2977839;-0.333795;0;2;0;-231;4140;-179;8;0.5983379;-0.7006066;0.2188366;0.3213296;1;0;0;-351;3991;731;0.4647562;2.801812;-0.3545049;0.4706428;3.338262;-0.2554689;0.4758211;3.810168;-0.1704054;0.451123;4.506357;0.06019127;0.1811952;4.818605;0.1264296;-0.1544854;4.653659;0.1422456;-0.7005436;5.062268;-0.4848013;-0.6623945;5.837521;-1.028239;0.7012131;4.837025;0.1265271;0.9953629;4.694386;0.1424613;1.822209;5.04083;-0.2104931;2.285058;5.781001;-0.5788748;0.1525251;2.761878;-0.370293;0.20472;1.303185;-0.2685605;0;0;0;0.1525251;2.761878;-0.370293;0.20472;1.303185;-0.2685605;0;0;0
919258.1371;NotLabelled;NONE;16384;0.7087638;0.4058172;0.5637119;0.1232687;2;5;-1;2516;-1772;2535;65536;0.8425562;0.4958449;0.2049861;0.04709141;-4;3;2;-1261;-3276;-2099;8192;0.909733;0.2299169;-0.0900277;-0.333795;4;-4;0;-2624;-1529;2681;32768;0.8796704;0.4265928;0.06648199;-0.199446;-4;1;-1;1229;-3184;-2331;256;0.2465374;-0.3116343;-0.533241;-0.7468316;-3;-2;0;-175;3912;-1313;128;-0.1454294;0.3171745;0.5180055;0.7809743;5;0;0;-431;3735;1818;4;-0.3102493;0.3642659;-0.6149584;-0.6268029;0;-1;-1;-225;4032;-228;16;0.5955678;-0.7741119;0.1565097;0.1468144;2;-1;0;327;3922;934;2;0.6274238;-0.6373735;-0.2977839;-0.333795;0;0;0;-225;4130;-113;8;0.5983379;-0.7006066;0.2188366;0.3213296;0;0;0;-397;4009;739;0.464703;2.801812;-0.3545268;0.4705896;3.338262;-0.2554907;0.4757681;3.810168;-0.1704271;0.4520269;4.507106;0.05799717;0.1825256;4.819923;0.1232814;-0.1533757;4.655479;0.1396379;-0.702232;5.060406;-0.487355;-0.6641607;5.835659;-1.030798;0.7025679;4.837642;0.1232813;0.9965264;4.694656;0.1396381;1.821909;5.03882;-0.2189293;2.287753;5.776796;-0.5879383;0.152472;2.761878;-0.3703148;0.2046815;1.303185;-0.2685897;0;0;0;0.152472;2.761878;-0.3703148;0.2046815;1.303185;-0.2685897;0;0;0
919279.0473;NotLabelled;NONE;16384;0.7087638;0.4058172;0.5637119;0.1232687;3;3;-2;2518;-1838;2587;65536;0.8425562;0.4958449;0.2049861;0.04709141;-3;1;1;-1191;-3406;-2093;8192;0.909733;0.2299169;-0.0900277;-0.333795;5;-3;0;-2614;-1505;2731;32768;0.8796704;0.4265928;0.06648199;-0.199446;-4;1;-1;1285;-3210;-2441;256;0.2465374;-0.3116343;-0.533241;-0.7468316;-4;-1;0;-175;3856;-1343;128;-0.1454294;0.3157895;0.5180055;0.7815354;5;0;0;-329;3729;1780;4;-0.3088643;0.3628809;-0.6163435;-0.6269299;0;-2;0;-181;4108;-162;16;0.5955678;-0.7738306;0.1578947;0.1468144;1;-1;0;285;3988;940;2;0.6274238;-0.6366462;-0.2977839;-0.33518;-1;0;0;-295;4120;-23;8;0.5983379;-0.7006066;0.2188366;0.3213296;0;1;0;-403;4035;687;0.4653739;2.801861;-0.3543857;0.4712639;3.338618;-0.2570277;0.4764451;3.810788;-0.1734404;0.4514056;4.508002;0.0539985;0.1813239;4.820414;0.1188279;-0.1542742;4.655374;0.1354004;-0.7009168;5.059079;-0.4943073;-0.6622991;5.83245;-1.040388;0.7013324;4.839092;0.1188281;0.9955537;4.696672;0.135401;1.821852;5.03856;-0.2232335;2.289582;5.774773;-0.5933769;0.1531423;2.761878;-0.3700381;0.2051675;1.303185;-0.2682187;0;0;0;0.1531423;2.761878;-0.3700381;0.2051675;1.303185;-0.2682187;0;0;0
919319.1491;NotLabelled;NONE;16384;0.7084525;0.4044321;0.5650969;0.1232687;2;3;-2;2616;-1740;2565;65536;0.8430319;0.4944598;0.2063712;0.04709141;-3;2;2;-1281;-3400;-2011;8192;0.9100819;0.2285319;-0.0900277;-0.333795;4;-1;0;-2592;-1519;2725;32768;0.8804442;0.4252077;0.06509695;-0.199446;-4;1;-2;1285;-3234;-2425;256;0.2465374;-0.3116343;-0.533241;-0.7468316;-4;-2;0;-103;3902;-1349;128;-0.1454294;0.3157895;0.5193906;0.7806156;6;-1;-1;-459;3685;1718;4;-0.3088643;0.3628809;-0.6163435;-0.6269299;-1;-1;0;-207;4082;-160;16;0.5969529;-0.7727626;0.1578947;0.1468144;1;0;0;271;3998;910;2;0.6274238;-0.6366462;-0.2977839;-0.33518;0;0;-1;-271;4130;-81;8;0.599723;-0.6998532;0.2174515;0.3213296;0;0;0;-405;4075;771;0.4692582;2.802;-0.3532388;0.4751483;3.338765;-0.2559217;0.4803297;3.810941;-0.1723704;0.4552901;4.508154;0.05506855;0.1852084;4.820566;0.1198979;-0.1503897;4.655526;0.1364703;-0.6969403;5.059232;-0.4933174;-0.6583228;5.832602;-1.039397;0.7052169;4.839245;0.1198982;0.9994382;4.696826;0.1364712;1.825789;5.038712;-0.2220428;2.293519;5.774926;-0.592186;0.1570266;2.762016;-0.3688879;0.2067644;1.303282;-0.2665188;0;0;0;0.1570266;2.762016;-0.3688879;0.2067644;1.303282;-0.2665188;0;0;0
919361.2264;NotLabelled;NONE;16384;0.7089221;0.4016621;0.566482;0.1232687;1;3;0;2562;-1744;2637;65536;0.8439689;0.4916897;0.2091413;0.04709141;-4;3;3;-1309;-3220;-2153;8192;0.911071;0.2271468;-0.08864266;-0.33241;4;-2;0;-2644;-1433;2777;32768;0.881213;0.4238227;0.06371191;-0.199446;-4;1;-1;1245;-3164;-2375;256;0.2479224;-0.3116343;-0.534626;-0.7453815;-3;-1;0;-131;3864;-1309;128;-0.1468144;0.3157895;0.5207756;0.7794327;3;-1;0;-395;3731;1724;4;-0.3088643;0.3628809;-0.6163435;-0.6269299;0;-1;0;-215;4096;-282;16;0.5969529;-0.7727626;0.1578947;0.1468144;0;0;0;265;3962;984;2;0.6274238;-0.6380187;-0.2963989;-0.333795;-1;0;0;-195;4078;-95;8;0.599723;-0.6994213;0.2188366;0.3213296;0;-1;0;-277;4043;695;0.4667089;2.803217;-0.3495935;0.4726023;3.340284;-0.2539579;0.4777864;3.81272;-0.1718857;0.4527472;4.509934;0.0555532;0.1826655;4.822345;0.1203828;-0.1529325;4.657305;0.1369555;-0.7008858;5.058641;-0.4931277;-0.6627184;5.830122;-1.041906;0.702674;4.841024;0.1203825;0.9968952;4.698605;0.1369553;1.82356;5.038213;-0.2229972;2.294328;5.772217;-0.5936759;0.1544768;2.763185;-0.3651066;0.2042146;1.304451;-0.2627374;0;0;0;0.1544768;2.763185;-0.3651066;0.2042146;1.304451;-0.2627374;0;0;0
919382.1009;NotLabelled;NONE;16384;0.7091615;0.4016621;0.566482;0.1218837;1;3;0;2508;-1732;2631;65536;0.8436245;0.4916897;0.2105263;0.04709141;-4;2;3;-1195;-3200;-2171;8192;0.9114152;0.2257618;-0.08864266;-0.33241;3;-2;0;-2610;-1429;2739;32768;0.881213;0.4238227;0.06371191;-0.199446;-4;0;-2;1253;-3118;-2329;256;0.2479224;-0.3130194;-0.534626;-0.7448009;-2;-1;0;-87;3814;-1305;128;-0.1468144;0.3157895;0.5207756;0.7794327;2;-1;0;-445;3735;1750;4;-0.3088643;0.3628809;-0.6163435;-0.6269299;0;0;0;-239;4062;-214;16;0.5969529;-0.7727626;0.1578947;0.1468144;0;0;0;305;3972;1010;2;0.6274238;-0.6373735;-0.2977839;-0.333795;0;0;0;-235;4082;-143;8;0.599723;-0.6994213;0.2188366;0.3213296;0;0;0;-387;4081;707;0.4666929;2.801751;-0.3611837;0.4725906;3.339208;-0.2677662;0.4777784;3.811978;-0.1876453;0.4527903;4.511126;0.03378356;0.1826673;4.823958;0.09637381;-0.1528195;4.658906;0.114963;-0.7023212;5.050878;-0.5196513;-0.6651107;5.816265;-1.076962;0.7026657;4.842886;0.09530324;0.9969858;4.700757;0.112596;1.821506;5.036716;-0.2556055;2.295288;5.766963;-0.6298459;0.1544601;2.761654;-0.3765172;0.2042027;1.303355;-0.2681293;0;0;0;0.1544601;2.761654;-0.3765172;0.2042027;1.303355;-0.2681293;0;0;0
919403.0578;NotLabelled;NONE;16384;0.7088369;0.400277;0.567867;0.1218837;2;1;-2;2524;-1734;2613;65536;0.8443518;0.4903047;0.2105263;0.04847645;-3;1;1;-1217;-3228;-2223;8192;0.9114152;0.2257618;-0.08864266;-0.33241;3;-3;0;-2618;-1453;2755;32768;0.8819768;0.4224377;0.06232687;-0.199446;-3;0;-2;1209;-3200;-2335;256;0.2479224;-0.3130194;-0.534626;-0.7448009;-3;-2;0;-177;3824;-1305;128;-0.1468144;0.3157895;0.5221606;0.7785055;2;0;0;-435;3783;1682;4;-0.3088643;0.3628809;-0.6163435;-0.6269299;0;-1;0;-167;4010;-194;16;0.5969529;-0.7727626;0.1578947;0.1468144;0;-1;0;251;3946;896;2;0.6274238;-0.6372922;-0.2963989;-0.33518;0;-1;0;-235;4122;-75;8;0.599723;-0.6987833;0.2188366;0.3227147;0;0;0;-357;4073;769;0.4682747;2.803281;-0.3491067;0.4741723;3.340739;-0.2556893;0.4793601;3.813509;-0.1755684;0.4551794;4.511785;0.04868263;0.1854886;4.824835;0.1120415;-0.1503235;4.660303;0.1293117;-0.6952806;5.059665;-0.5046127;-0.6578899;5.826901;-1.059362;0.7055207;4.842847;0.1120418;0.9995562;4.700128;0.1293129;1.826744;5.036572;-0.2324045;2.302131;5.768358;-0.6015687;0.1560418;2.763185;-0.3644404;0.2053401;1.304451;-0.2618588;0;0;0;0.1560418;2.763185;-0.3644404;0.2053401;1.304451;-0.2618588;0;0;0
919424.1399;NotLabelled;NONE;16384;0.7088369;0.400277;0.567867;0.1218837;1;2;-2;2576;-1800;2583;65536;0.8440053;0.4903047;0.2119114;0.04847645;-2;2;1;-1215;-3278;-2125;8192;0.9123945;0.2243767;-0.08725762;-0.3310249;3;-2;1;-2572;-1517;2741;32768;0.8827356;0.4210526;0.06094183;-0.199446;-5;-1;-1;1261;-3158;-2339;256;0.2493075;-0.3130194;-0.534626;-0.7443385;-3;-1;0;-105;3856;-1309;128;-0.1468144;0.3171745;0.5221606;0.7779422;2;0;0;-437;3701;1730;4;-0.3088643;0.3614958;-0.6163435;-0.6277295;0;-2;0;-173;4092;-174;16;0.5969529;-0.7727626;0.1578947;0.1468144;0;-1;0;305;3976;884;2;0.6274238;-0.6380187;-0.2963989;-0.333795;0;-2;0;-243;4092;-117;8;0.599723;-0.6987833;0.2188366;0.3227147;0;-1;0;-349;4029;799;0.4682752;2.803329;-0.3492433;0.474176;3.341077;-0.2575133;0.4793666;3.814096;-0.1788766;0.4551859;4.512373;0.04537439;0.1854951;4.825423;0.1087332;-0.1503171;4.660891;0.1260034;-0.6966934;5.057878;-0.5081911;-0.6584071;5.823023;-1.06576;0.7055273;4.843434;0.1087334;0.9995627;4.700715;0.1260045;1.826751;5.03716;-0.2357125;2.305163;5.766721;-0.6053724;0.1560418;2.763185;-0.3644404;0.2053401;1.304451;-0.2618588;0;0;0;0.1560418;2.763185;-0.3644404;0.2053401;1.304451;-0.2618588;0;0;0
919444.0574;NotLabelled;NONE;16384;0.707725;0.400277;0.5692521;0.1218837;1;2;-1;2572;-1682;2679;65536;0.8448084;0.4889196;0.2119114;0.04847645;-2;2;2;-1281;-3328;-2117;8192;0.9123945;0.2243767;-0.08725762;-0.3310249;3;-1;0;-2636;-1477;2693;32768;0.8830473;0.4210526;0.06094183;-0.1980609;-5;-1;-2;1267;-3150;-2325;256;0.2493075;-0.3130194;-0.536011;-0.7433416;-3;-1;0;-111;3806;-1331;128;-0.1481994;0.3171745;0.5221606;0.7776796;2;0;0;-313;3769;1706;4;-0.3088643;0.3614958;-0.6163435;-0.6277295;-1;-1;0;-153;4046;-210;16;0.5969529;-0.7722138;0.1592798;0.1481994;0;0;0;335;3982;914;2;0.6274238;-0.6380187;-0.2963989;-0.333795;0;-3;0;-177;4092;-111;8;0.599723;-0.6987833;0.2188366;0.3227147;0;-1;0;-363;4025;819;0.4679382;2.803519;-0.3457162;0.473839;3.341259;-0.2539456;0.4790295;3.814273;-0.1752732;0.4535577;4.512823;0.0479812;0.1832904;4.825468;0.1108815;-0.1522204;4.660345;0.1283709;-0.6962882;5.057284;-0.5078351;-0.659214;5.82198;-1.066102;0.7032886;4.844432;0.1108798;0.9975843;4.702277;0.1283675;1.824757;5.037797;-0.2342448;2.306859;5.765126;-0.6035111;0.1557048;2.763376;-0.3609164;0.2058158;1.304451;-0.261485;0;0;0;0.1557048;2.763376;-0.3609164;0.2058158;1.304451;-0.261485;0;0;0
919465.0418;NotLabelled;NONE;16384;0.7085066;0.398892;0.5692521;0.1218837;1;2;-2;2510;-1708;2681;65536;0.8448084;0.4889196;0.2119114;0.04847645;-3;2;2;-1285;-3364;-2101;8192;0.912734;0.2229917;-0.08725762;-0.3310249;3;-3;0;-2700;-1409;2761;32768;0.8838009;0.4196676;0.05955679;-0.1980609;-4;0;-1;1271;-3168;-2363;256;0.2493075;-0.3130194;-0.536011;-0.7433416;-1;0;0;-97;3934;-1313;128;-0.1481994;0.3171745;0.5221606;0.7776796;2;0;0;-451;3741;1762;4;-0.3088643;0.3614958;-0.6163435;-0.6277295;-1;-1;1;-153;4076;-236;16;0.5969529;-0.7722138;0.1592798;0.1481994;0;0;0;349;3976;948;2;0.6274238;-0.6380187;-0.2963989;-0.333795;0;0;0;-213;4070;-115;8;0.599723;-0.6987833;0.2188366;0.3227147;0;-1;0;-343;3995;785;0.4668526;2.803793;-0.3453239;0.4727543;3.341626;-0.2540904;0.4779457;3.814718;-0.1758904;0.4534022;4.513996;0.04517519;0.1835547;4.827205;0.1070656;-0.1521832;4.662595;0.1250319;-0.6999834;5.058445;-0.5086449;-0.6611306;5.82167;-1.068802;0.7035784;4.845459;0.1070657;0.9976779;4.702959;0.1250325;1.824191;5.038506;-0.2390537;2.305535;5.765922;-0.6091335;0.1546191;2.763635;-0.3604806;0.2047252;1.304711;-0.2610467;0;0;0;0.1546191;2.763635;-0.3604806;0.2047252;1.304711;-0.2610467;0;0;0
919506.0284;NotLabelled;NONE;16384;0.7085066;0.398892;0.5692521;0.1218837;0;3;-2;2572;-1764;2679;65536;0.8452601;0.4875346;0.2132964;0.04847645;-3;3;2;-1269;-3302;-2175;8192;0.9128653;0.2229917;-0.08587258;-0.3310249;4;-3;0;-2648;-1459;2751;32768;0.8838009;0.4196676;0.05955679;-0.1980609;-4;1;0;1373;-3224;-2349;256;0.2493075;-0.3130194;-0.536011;-0.7433416;-1;0;0;-85;3836;-1295;128;-0.1481994;0.3171745;0.5235457;0.7767478;1;0;0;-399;3747;1740;4;-0.3088643;0.3601108;-0.6163435;-0.6285251;-1;0;0;-201;4094;-246;16;0.5969529;-0.7722138;0.1592798;0.1481994;0;1;0;325;3958;912;2;0.6274238;-0.6380187;-0.2963989;-0.333795;0;1;0;-49;4126;-69;8;0.599723;-0.6987833;0.2188366;0.3227147;0;0;0;-351;4063;697;0.4668526;2.803793;-0.3453239;0.4727543;3.341626;-0.2540904;0.4779457;3.814718;-0.1758904;0.4534022;4.513996;0.04517519;0.1835547;4.827205;0.1070656;-0.1521832;4.662595;0.1250319;-0.6987988;5.057206;-0.5104386;-0.6599458;5.82043;-1.070595;0.7035784;4.845459;0.1070657;0.9976779;4.702959;0.1250325;1.824512;5.036211;-0.2404282;2.308871;5.76139;-0.6109676;0.1546191;2.763635;-0.3604806;0.2047252;1.304711;-0.2610467;0;0;0;0.1546191;2.763635;-0.3604806;0.2047252;1.304711;-0.2610467;0;0;0
919526.0877;NotLabelled;NONE;16384;0.7073916;0.398892;0.5706371;0.1218837;0;3;-2;2578;-1736;2685;65536;0.8449878;0.4875346;0.2146814;0.04709141;-2;3;3;-1271;-3290;-2165;8192;0.9132351;0.2229917;-0.08725762;-0.3296399;2;-2;0;-2554;-1511;2793;32768;0.8844572;0.4182825;0.05955679;-0.1980609;-4;0;0;1267;-3142;-2375;256;0.2493075;-0.3130194;-0.536011;-0.7433416;0;0;0;-149;3846;-1363;128;-0.1481994;0.3171745;0.5235457;0.7767478;0;0;-1;-425;3743;1698;4;-0.3088643;0.3601108;-0.6163435;-0.6285251;0;0;0;-195;4066;-190;16;0.5969529;-0.7722138;0.1592798;0.1481994;0;0;0;303;3972;950;2;0.6274238;-0.6380187;-0.2963989;-0.333795;0;0;0;-193;4074;-109;8;0.599723;-0.6987833;0.2188366;0.3227147;0;1;0;-395;3957;731;0.4658694;2.804024;-0.3422213;0.4717742;3.34214;-0.2526778;0.4769682;3.815475;-0.1759645;0.4524247;4.514753;0.04510128;0.1825773;4.827962;0.1069916;-0.1531607;4.663352;0.124958;-0.6998677;5.057963;-0.5104337;-0.6615006;5.819261;-1.073241;0.7026008;4.846218;0.1069918;0.9967004;4.703716;0.1249586;1.822177;5.03791;-0.2427065;2.306536;5.763088;-0.6132457;0.1536354;2.763818;-0.3572411;0.2047252;1.30471;-0.2610469;0;0;0;0.1536354;2.763818;-0.3572411;0.2047252;1.30471;-0.2610469;0;0;0
919546.0464;NotLabelled;NONE;16384;0.7072899;0.3975069;0.5720221;0.1204986;0;2;-1;2548;-1714;2617;65536;0.8457854;0.4861496;0.2146814;0.04709141;-2;2;2;-1253;-3310;-2169;8192;0.9137034;0.2216066;-0.08587258;-0.3296399;3;0;0;-2618;-1457;2741;32768;0.8844572;0.4182825;0.05955679;-0.1980609;-3;1;0;1305;-3162;-2365;256;0.2493075;-0.3130194;-0.536011;-0.7433416;-1;-1;1;-123;3854;-1291;128;-0.1481994;0.3171745;0.5235457;0.7767478;1;0;0;-461;3737;1690;4;-0.3088643;0.3601108;-0.6163435;-0.6285251;0;0;0;-167;4088;-174;16;0.5969529;-0.7722138;0.1592798;0.1481994;0;0;0;313;3898;892;2;0.6274238;-0.6380187;-0.2963989;-0.333795;0;0;0;-241;4128;-79;8;0.599723;-0.6987833;0.2188366;0.3227147;0;0;0;-371;4023;775;0.4658694;2.804024;-0.3422213;0.4717742;3.34214;-0.2526778;0.4769682;3.815475;-0.1759645;0.4524247;4.514753;0.04510128;0.1825773;4.827962;0.1069916;-0.1531607;4.663352;0.124958;-0.702356;5.056826;-0.5089914;-0.6653759;5.818308;-1.071641;0.7026008;4.846218;0.1069918;0.9967004;4.703716;0.1249586;1.823194;5.037414;-0.2408688;2.308761;5.760793;-0.6133397;0.1536354;2.763818;-0.3572411;0.2047252;1.30471;-0.2610469;0;0;0;0.1536354;2.763818;-0.3572411;0.2047252;1.30471;-0.2610469;0;0;0
919566.0713;NotLabelled;NONE;16384;0.7072899;0.3975069;0.5720221;0.1204986;0;1;-1;2566;-1762;2669;65536;0.8454326;0.4861496;0.2160665;0.04709141;-2;2;2;-1295;-3256;-2217;8192;0.9137034;0.2216066;-0.08587258;-0.3296399;2;0;0;-2714;-1475;2765;32768;0.8851109;0.4168975;0.05955679;-0.1980609;-3;1;0;1367;-3144;-2365;256;0.2493075;-0.3144044;-0.536011;-0.7427569;-1;-1;0;-59;3882;-1309;128;-0.1481994;0.3171745;0.5235457;0.7767478;1;0;0;-401;3709;1694;4;-0.3088643;0.3601108;-0.6163435;-0.6285251;0;0;0;-181;4100;-242;16;0.5969529;-0.7724783;0.1592798;0.1468144;0;0;0;271;3920;896;2;0.6288089;-0.6366538;-0.2963989;-0.333795;-1;0;0;-211;4126;-105;8;0.599723;-0.6987833;0.2188366;0.3227147;0;0;0;-327;3993;725;0.4658694;2.804024;-0.3422213;0.4717742;3.34214;-0.2526778;0.4769682;3.815475;-0.1759645;0.4524247;4.514753;0.04510128;0.1825773;4.827962;0.1069916;-0.1531607;4.663352;0.124958;-0.7032644;5.056089;-0.5086603;-0.664547;5.816088;-1.073196;0.7026008;4.846218;0.1069918;0.9967004;4.703716;0.1249586;1.822188;5.036052;-0.2443607;2.307755;5.759431;-0.6168315;0.1536354;2.763818;-0.3572411;0.2047252;1.30471;-0.2610469;0;0;0;0.1536354;2.763818;-0.3572411;0.2047252;1.30471;-0.2610469;0;0;0
919587.3162;NotLabelled;NONE;16384;0.7072899;0.3975069;0.5720221;0.1204986;0;2;-1;2546;-1742;2595;65536;0.8450774;0.4861496;0.2174515;0.04709141;-1;2;1;-1311;-3278;-2225;8192;0.9141673;0.2202216;-0.08448754;-0.3296399;3;-1;0;-2656;-1443;2765;32768;0.8852031;0.4168975;0.05817174;-0.1980609;-2;0;0;1333;-3106;-2397;256;0.2493075;-0.3144044;-0.536011;-0.7427569;0;0;0;-113;3846;-1263;128;-0.1481994;0.3171745;0.5235457;0.7767478;0;1;0;-393;3731;1704;4;-0.3088643;0.3614958;-0.6163435;-0.6277295;0;0;0;-251;4068;-184;16;0.5969529;-0.7722138;0.1592798;0.1481994;0;0;0;279;3908;902;2;0.6288089;-0.6366538;-0.2963989;-0.333795;0;1;0;-229;4064;-127;8;0.599723;-0.6987833;0.2188366;0.3227147;0;0;0;-329;3985;693;0.4694265;2.803855;-0.3405548;0.4753313;3.341971;-0.2510113;0.4805253;3.815306;-0.1742979;0.4572245;4.514632;0.04675442;0.1879341;4.828321;0.1086386;-0.1480958;4.664308;0.1266076;-0.6966609;5.057045;-0.5083433;-0.6588126;5.816595;-1.073541;0.7079893;4.845652;0.1086389;1.001835;4.702628;0.126609;1.828217;5.034964;-0.2407067;2.315895;5.756537;-0.6139212;0.1571924;2.763649;-0.3555746;0.2080487;1.304541;-0.2592568;0;0;0;0.1571924;2.763649;-0.3555746;0.2080487;1.304541;-0.2592568;0;0;0
