SEP=;
index;label;segment;RightUpperArm_boneIndex;RightUpperArm_quat9x_w;RightUpperArm_quat9x_x;RightUpperArm_quat9x_y;RightUpperArm_quat9x_z;RightUpperArm_gyroscope_x;RightUpperArm_gyroscope_y;RightUpperArm_gyroscope_z;RightUpperArm_accelerometer_x;RightUpperArm_accelerometer_y;RightUpperArm_accelerometer_z;RightLowerArm_boneIndex;RightLowerArm_quat9x_w;RightLowerArm_quat9x_x;RightLowerArm_quat9x_y;RightLowerArm_quat9x_z;RightLowerArm_gyroscope_x;RightLowerArm_gyroscope_y;RightLowerArm_gyroscope_z;RightLowerArm_accelerometer_x;RightLowerArm_accelerometer_y;RightLowerArm_accelerometer_z;LeftUpperArm_boneIndex;LeftUpperArm_quat9x_w;LeftUpperArm_quat9x_x;LeftUpperArm_quat9x_y;LeftUpperArm_quat9x_z;LeftUpperArm_gyroscope_x;LeftUpperArm_gyroscope_y;LeftUpperArm_gyroscope_z;LeftUpperArm_accelerometer_x;LeftUpperArm_accelerometer_y;LeftUpperArm_accelerometer_z;LeftLowerArm_boneIndex;LeftLowerArm_quat9x_w;LeftLowerArm_quat9x_x;LeftLowerArm_quat9x_y;LeftLowerArm_quat9x_z;LeftLowerArm_gyroscope_x;LeftLowerArm_gyroscope_y;LeftLowerArm_gyroscope_z;LeftLowerArm_accelerometer_x;LeftLowerArm_accelerometer_y;LeftLowerArm_accelerometer_z;Chest_boneIndex;Chest_quat9x_w;Chest_quat9x_x;Chest_quat9x_y;Chest_quat9x_z;Chest_gyroscope_x;Chest_gyroscope_y;Chest_gyroscope_z;Chest_accelerometer_x;Chest_accelerometer_y;Chest_accelerometer_z;Spine_boneIndex;Spine_quat9x_w;Spine_quat9x_x;Spine_quat9x_y;Spine_quat9x_z;Spine_gyroscope_x;Spine_gyroscope_y;Spine_gyroscope_z;Spine_accelerometer_x;Spine_accelerometer_y;Spine_accelerometer_z;RightUpperLeg_boneIndex;RightUpperLeg_quat9x_w;RightUpperLeg_quat9x_x;RightUpperLeg_quat9x_y;RightUpperLeg_quat9x_z;RightUpperLeg_gyroscope_x;RightUpperLeg_gyroscope_y;RightUpperLeg_gyroscope_z;RightUpperLeg_accelerometer_x;RightUpperLeg_accelerometer_y;RightUpperLeg_accelerometer_z;RightLowerLeg_boneIndex;RightLowerLeg_quat9x_w;RightLowerLeg_quat9x_x;RightLowerLeg_quat9x_y;RightLowerLeg_quat9x_z;RightLowerLeg_gyroscope_x;RightLowerLeg_gyroscope_y;RightLowerLeg_gyroscope_z;RightLowerLeg_accelerometer_x;RightLowerLeg_accelerometer_y;RightLowerLeg_accelerometer_z;LeftUpperLeg_boneIndex;LeftUpperLeg_quat9x_w;LeftUpperLeg_quat9x_x;LeftUpperLeg_quat9x_y;LeftUpperLeg_quat9x_z;LeftUpperLeg_gyroscope_x;LeftUpperLeg_gyroscope_y;LeftUpperLeg_gyroscope_z;LeftUpperLeg_accelerometer_x;LeftUpperLeg_accelerometer_y;LeftUpperLeg_accelerometer_z;LeftLowerLeg_boneIndex;LeftLowerLeg_quat9x_w;LeftLowerLeg_quat9x_x;LeftLowerLeg_quat9x_y;LeftLowerLeg_quat9x_z;LeftLowerLeg_gyroscope_x;LeftLowerLeg_gyroscope_y;LeftLowerLeg_gyroscope_z;LeftLowerLeg_accelerometer_x;LeftLowerLeg_accelerometer_y;LeftLowerLeg_accelerometer_z;pelvis_x;pelvis_y;pelvis_z;lowerSpine_x;lowerSpine_y;lowerSpine_z;middleSpine_x;middleSpine_y;middleSpine_z;upperSpine_x;upperSpine_y;upperSpine_z;rightClavicle_x;rightClavicle_y;rightClavicle_z;rightShoulder_x;rightShoulder_y;rightShoulder_z;rightElbow_x;rightElbow_y;rightElbow_z;rightWrist_x;rightWrist_y;rightWrist_z;leftClavicle_x;leftClavicle_y;leftClavicle_z;leftShoulder_x;leftShoulder_y;leftShoulder_z;leftElbow_x;leftElbow_y;leftElbow_z;leftWrist_x;leftWrist_y;leftWrist_z;rightHip_x;rightHip_y;rightHip_z;rightKnee_x;rightKnee_y;rightKnee_z;rightAnkle_x;rightAnkle_y;rightAnkle_z;leftHip_x;leftHip_y;leftHip_z;leftKnee_x;leftKnee_y;leftKnee_z;leftAnkle_x;leftAnkle_y;leftAnkle_z;
725814.6315;NotLabelled;NONE;16384;0.8621848;0.3088643;0.2853186;0.2825485;3;2;-1;2734;-1584;2573;65536;0.8794894;0.4113573;-0.04293629;0.2354571;-5;0;1;-1623;-3080;-2203;8192;0.8561114;0.3130194;-0.3088643;-0.2714681;1;-2;1;-2754;-1525;2585;32768;0.8597784;0.4626039;-0.1786704;-0.1218837;-2;-1;-2;1585;-3082;-2244;256;0.06925207;-0.06232687;-0.5512465;-0.8291241;-4;0;0;-185;3726;-1653;128;0.01939058;0.05540166;0.5207756;0.8516733;3;0;0;-355;3631;1956;4;0.4750692;-0.5670862;0.4722992;0.4792244;0;2;1;-295;4024;-396;16;0.599723;-0.7797353;-0.1038781;-0.1468144;1;1;0;65;3914;1026;2;0.5187901;-0.501385;-0.4626039;-0.5152354;0;-1;-1;-339;4126;-159;8;0.6288089;-0.7628524;0.06786703;0.134349;1;0;0;-321;3989;805;0.4001884;2.789299;-0.4290437;0.4060315;3.321787;-0.3105326;0.4111724;3.790282;-0.2083358;0.3796979;4.466443;0.07499991;0.1066154;4.769669;0.165705;-0.2271862;4.60026;0.1697452;-0.7270684;4.945089;-0.5299264;-0.7260597;5.651597;-1.161308;0.6263982;4.793828;0.1658016;0.9221423;4.653677;0.1699593;1.691003;5.006779;-0.2909609;2.169187;5.719184;-0.6929637;0.08796391;2.74997;-0.4464004;0.1973575;1.298927;-0.2935418;0;0;0;0.08796391;2.74997;-0.4464004;0.1973575;1.298927;-0.2935418;0;0;0
725834.6455;NotLabelled;NONE;16384;0.8621848;0.3088643;0.2853186;0.2825485;3;4;0;2776;-1524;2539;65536;0.8794894;0.4113573;-0.04293629;0.2354571;-4;0;0;-1641;-3042;-2197;8192;0.8565494;0.3130194;-0.3088643;-0.2700831;3;-2;2;-2710;-1599;2651;32768;0.8597784;0.4626039;-0.1786704;-0.1218837;-2;0;-1;1497;-3180;-2194;256;0.06925207;-0.06232687;-0.5512465;-0.8291241;-6;0;0;-203;3774;-1681;128;0.01939058;0.05540166;0.5221606;0.8508248;2;1;0;-305;3667;1982;4;0.4750692;-0.5670862;0.4722992;0.4792244;-1;0;1;-311;4078;-422;16;0.599723;-0.7792875;-0.1052632;-0.1481994;2;2;1;35;3934;1072;2;0.5187901;-0.501385;-0.4626039;-0.5152354;0;0;-1;-321;4056;-109;8;0.6288089;-0.7628524;0.06786703;0.134349;1;0;0;-217;4037;819;0.3950524;2.790159;-0.4254419;0.4008954;3.322647;-0.3069308;0.4060364;3.791142;-0.2047341;0.3747743;4.468246;0.07636292;0.1017859;4.771852;0.1660724;-0.2320667;4.602559;0.1706842;-0.7316389;4.946112;-0.5298361;-0.7296503;5.650818;-1.163225;0.6215761;4.795856;0.1660727;0.9172783;4.65563;0.1706848;1.685986;5.007236;-0.2916318;2.164125;5.719642;-0.6936867;0.08282782;2.75083;-0.4427986;0.1957272;1.300121;-0.2893139;0;0;0;0.08282782;2.75083;-0.4427986;0.1957272;1.300121;-0.2893139;0;0;0
725855.4655;NotLabelled;NONE;16384;0.8626797;0.3074792;0.2853186;0.2825485;4;2;0;2682;-1500;2531;65536;0.8801359;0.4099723;-0.04293629;0.2354571;-4;0;0;-1595;-3128;-2235;8192;0.8570543;0.3116343;-0.3088643;-0.2700831;2;-1;1;-2654;-1507;2649;32768;0.8597784;0.4626039;-0.1786704;-0.1218837;-2;0;-2;1597;-3130;-2200;256;0.06925207;-0.06232687;-0.5526316;-0.8282016;-6;0;0;-209;3722;-1741;128;0.01939058;0.05540166;0.5221606;0.8508248;2;1;0;-399;3725;1940;4;0.4764543;-0.565923;0.4722992;0.4792244;-2;-2;1;-383;4062;-460;16;0.599723;-0.7792875;-0.1052632;-0.1481994;2;2;1;133;4030;1020;2;0.5187901;-0.501385;-0.4626039;-0.5152354;-1;-1;-1;-301;4152;-97;8;0.6301939;-0.7617087;0.06786703;0.134349;1;0;0;-277;3989;815;0.3953398;2.790432;-0.42441;0.4011871;3.323303;-0.3076334;0.4063316;3.792128;-0.2069627;0.3750693;4.469232;0.07413445;0.1020809;4.772839;0.1638436;-0.2317717;4.603546;0.1684552;-0.7314739;4.947097;-0.5319722;-0.7294849;5.651804;-1.165361;0.6218709;4.796842;0.1638443;0.9175732;4.656617;0.1684567;1.685639;5.009308;-0.2941003;2.163778;5.721714;-0.6961553;0.08311463;2.751046;-0.4416277;0.1960139;1.300338;-0.288143;0;0;0;0.08311463;2.751046;-0.4416277;0.1960139;1.300338;-0.288143;0;0;0
725876.468;NotLabelled;NONE;16384;0.8626797;0.3074792;0.2853186;0.2825485;4;2;0;2780;-1530;2593;65536;0.8801359;0.4099723;-0.04293629;0.2354571;-4;0;0;-1629;-3122;-2225;8192;0.8570543;0.3116343;-0.3088643;-0.2700831;2;-1;0;-2764;-1575;2645;32768;0.8600361;0.4612188;-0.1800554;-0.1232687;-3;0;-3;1561;-3196;-2228;256;0.06925207;-0.06232687;-0.5526316;-0.8282016;-5;0;0;-131;3826;-1633;128;0.01939058;0.05540166;0.5221606;0.8508248;0;1;0;-377;3627;1964;4;0.4750692;-0.5659298;0.4736842;0.4792244;-3;-8;2;-299;4028;-460;16;0.599723;-0.7792875;-0.1052632;-0.1481994;1;0;0;37;3908;956;2;0.5200218;-0.501385;-0.4612188;-0.5152354;-1;0;-2;-281;4090;-209;8;0.6301939;-0.7617087;0.06786703;0.134349;1;0;-1;-307;3999;767;0.3981664;2.791109;-0.4199721;0.4040137;3.32398;-0.3031954;0.4091583;3.792804;-0.2025247;0.378057;4.470846;0.07632232;0.1051462;4.774831;0.1649832;-0.2287579;4.605654;0.1701045;-0.727535;4.947274;-0.5319256;-0.7244498;5.650175;-1.167314;0.6249436;4.798676;0.1649839;0.9206029;4.65838;0.1701063;1.688671;5.009082;-0.2939566;2.166842;5.721488;-0.6959748;0.08594129;2.751723;-0.4371897;0.1960356;1.300338;-0.2881282;0;0;0;0.08594129;2.751723;-0.4371897;0.1960356;1.300338;-0.2881282;0;0;0
725898.2102;NotLabelled;NONE;16384;0.8631721;0.3060942;0.2853186;0.2825485;4;2;0;2690;-1516;2655;65536;0.8807797;0.4085872;-0.04293629;0.2354571;-5;0;0;-1571;-3094;-2273;8192;0.8570543;0.3116343;-0.3088643;-0.2700831;2;-3;1;-2720;-1579;2607;32768;0.8600361;0.4612188;-0.1800554;-0.1232687;-3;-1;-2;1607;-3106;-2240;256;0.07063711;-0.06371191;-0.5526316;-0.8279792;-5;0;0;-197;3832;-1661;128;0.02077562;0.05540166;0.5221606;0.8507922;-1;3;0;-327;3725;1870;4;0.4750692;-0.5635894;0.4750692;0.4806094;-4;-9;3;-283;4034;-436;16;0.601108;-0.7782196;-0.1052632;-0.1481994;1;0;0;-5;4006;946;2;0.5201251;-0.5;-0.4626039;-0.5152354;0;1;-1;-237;4056;-145;8;0.6301939;-0.7618308;0.06648199;0.134349;1;0;0;-299;4055;749;0.3988622;2.790767;-0.4237654;0.4047096;3.323637;-0.3069887;0.4098541;3.792462;-0.2063179;0.3787528;4.470504;0.07252908;0.1058421;4.774489;0.1611899;-0.228062;4.605311;0.1663113;-0.7268391;4.946932;-0.5357188;-0.723754;5.649833;-1.171107;0.6256394;4.798335;0.1611907;0.9212986;4.658038;0.1663131;1.689367;5.00874;-0.2977499;2.170986;5.71832;-0.7006449;0.08663712;2.751381;-0.4409829;0.1960358;1.300338;-0.2881281;0;0;0;0.08663712;2.751381;-0.4409829;0.1960358;1.300338;-0.2881281;0;0;0
725917.6992;NotLabelled;NONE;16384;0.863662;0.3047091;0.2853186;0.2825485;4;2;0;2730;-1490;2703;65536;0.8814209;0.4072022;-0.04293629;0.2354571;-5;0;1;-1579;-2970;-2289;8192;0.8570565;0.3102493;-0.3102493;-0.2700831;2;-3;2;-2664;-1487;2653;32768;0.8600361;0.4612188;-0.1800554;-0.1232687;-3;-1;-1;1585;-3102;-2226;256;0.07063711;-0.06371191;-0.5540166;-0.8270531;-4;0;0;-135;3774;-1607;128;0.02077562;0.05540166;0.5221606;0.8507922;1;1;0;-437;3681;1788;4;0.4750692;-0.5635894;0.4750692;0.4806094;-3;-8;3;-295;4040;-418;16;0.601108;-0.7782196;-0.1052632;-0.1481994;1;-2;0;67;3926;944;2;0.5201251;-0.5;-0.4626039;-0.5152354;-1;1;-1;-315;4066;-79;8;0.6301939;-0.7618308;0.06648199;0.134349;2;0;0;-319;4021;809;0.4010997;2.79256;-0.4148147;0.4069471;3.325432;-0.2980455;0.4120916;3.794258;-0.1973813;0.3804886;4.472389;0.08119056;0.1073537;4.77621;0.1697233;-0.2264265;4.606791;0.1749072;-0.7190012;4.946485;-0.5324164;-0.712403;5.647574;-1.169776;0.6271334;4.800436;0.1697238;0.9228951;4.660358;0.1749083;1.694533;5.011066;-0.2831894;2.177708;5.720647;-0.6842173;0.08887461;2.753173;-0.4320316;0.195522;1.301516;-0.2831158;0;0;0;0.08887461;2.753173;-0.4320316;0.195522;1.301516;-0.2831158;0;0;0
725939.465;NotLabelled;NONE;16384;0.863662;0.3047091;0.2853186;0.2825485;3;4;0;2694;-1520;2681;65536;0.8814209;0.4072022;-0.04293629;0.2354571;-5;1;1;-1609;-3026;-2353;8192;0.8570565;0.3102493;-0.3102493;-0.2700831;2;-3;2;-2634;-1499;2567;32768;0.8604866;0.4598338;-0.1814404;-0.1232687;-3;0;-1;1527;-3042;-2170;256;0.06925207;-0.06371191;-0.5540166;-0.8271702;-6;0;0;-125;3780;-1591;128;0.02077562;0.05540166;0.5221606;0.8507922;3;0;0;-361;3675;1828;4;0.4750692;-0.5624053;0.4750692;0.4819945;-1;-5;3;-231;4002;-342;16;0.601108;-0.7782196;-0.1052632;-0.1481994;0;-3;0;59;3920;1004;2;0.5201251;-0.5;-0.4626039;-0.5152354;0;0;-1;-399;4034;-139;8;0.6301939;-0.7618308;0.06648199;0.134349;1;0;-1;-303;4015;749;0.4011324;2.79256;-0.4148078;0.4069798;3.325432;-0.2980386;0.4121243;3.794258;-0.1973744;0.3806874;4.473319;0.07894152;0.1076324;4.777516;0.1664239;-0.2262007;4.608217;0.1721182;-0.72071;4.945962;-0.5347891;-0.7130108;5.645234;-1.17413;0.6274195;4.801583;0.1664241;0.9231375;4.661431;0.1721188;1.69457;5.00912;-0.2886194;2.177776;5.718701;-0.6896105;0.08890729;2.753173;-0.4320247;0.1955435;1.301516;-0.2831008;0;0;0;0.08890729;2.753173;-0.4320247;0.1955435;1.301516;-0.2831008;0;0;0
725959.4635;NotLabelled;NONE;16384;0.864601;0.3033241;0.2853186;0.2811634;3;4;0;2606;-1560;2665;65536;0.8820595;0.4058172;-0.04293629;0.2354571;-4;1;1;-1535;-3016;-2273;8192;0.8570543;0.3088643;-0.3116343;-0.2700831;3;-2;2;-2684;-1499;2563;32768;0.8604866;0.4598338;-0.1814404;-0.1232687;-2;0;-2;1557;-3102;-2176;256;0.06925207;-0.06371191;-0.5554016;-0.8262409;-6;0;1;-63;3778;-1585;128;0.02077562;0.05540166;0.5221606;0.8507922;5;0;0;-349;3681;1872;4;0.4750692;-0.5624053;0.4750692;0.4819945;0;-1;2;-217;4040;-344;16;0.601108;-0.7784057;-0.1038781;-0.1481994;1;-1;0;71;3922;1030;2;0.5201251;-0.5;-0.4626039;-0.5152354;0;-1;-1;-409;4120;-63;8;0.6315789;-0.7606829;0.06648199;0.134349;1;0;0;-405;4079;697;0.3991401;2.792839;-0.4112225;0.4049874;3.325711;-0.2944532;0.410132;3.794537;-0.193789;0.3802458;4.473564;0.08278314;0.1078856;4.778349;0.1703849;-0.2263319;4.609808;0.1760211;-0.721948;4.947554;-0.5301104;-0.7152507;5.646825;-1.169463;0.6277261;4.801232;0.1703852;0.9231243;4.660405;0.176022;1.693833;5.008094;-0.285924;2.178731;5.715487;-0.6887345;0.08691502;2.753453;-0.4284394;0.1950997;1.301516;-0.2834068;0;0;0;0.08691502;2.753453;-0.4284394;0.1950997;1.301516;-0.2834068;0;0;0
725979.4782;NotLabelled;NONE;16384;0.864601;0.3033241;0.2853186;0.2811634;3;3;-1;2676;-1488;2655;65536;0.8821258;0.4058172;-0.04155125;0.2354571;-5;0;0;-1571;-2954;-2299;8192;0.8570543;0.3088643;-0.3116343;-0.2700831;4;-2;2;-2718;-1507;2589;32768;0.8610259;0.4584487;-0.1814404;-0.1246537;-3;0;-2;1573;-3064;-2182;256;0.06925207;-0.06371191;-0.5554016;-0.8262409;-6;0;0;-123;3844;-1579;128;0.02077562;0.05540166;0.5235457;0.8499405;6;1;0;-339;3653;1892;4;0.4764543;-0.5612324;0.4750692;0.4819945;0;4;1;-251;4106;-390;16;0.601108;-0.7784057;-0.1038781;-0.1481994;0;1;0;89;3942;1076;2;0.5201251;-0.5;-0.4626039;-0.5152354;0;-1;-2;-377;4118;-83;8;0.6315789;-0.760437;0.06648199;0.1357341;1;0;0;-315;4055;685;0.4014481;2.792587;-0.4107939;0.4072954;3.325459;-0.2940246;0.4124401;3.794286;-0.1933604;0.3827213;4.474236;0.08095084;0.1104417;4.779393;0.1675001;-0.2238283;4.610975;0.1736473;-0.71812;4.947762;-0.5338691;-0.7103286;5.645211;-1.175196;0.6302892;4.802118;0.1675004;0.9256434;4.661221;0.173648;1.69792;5.005894;-0.287941;2.182847;5.713285;-0.6907167;0.08922299;2.753201;-0.4280108;0.1973972;1.301264;-0.2829703;0;0;0;0.08922299;2.753201;-0.4280108;0.1973972;1.301264;-0.2829703;0;0;0
726000.4587;NotLabelled;NONE;16384;0.8650857;0.301939;0.2853186;0.2811634;3;2;0;2708;-1544;2635;65536;0.8827617;0.4044321;-0.04155125;0.2354571;-3;0;0;-1621;-2992;-2305;8192;0.8570543;0.3088643;-0.3116343;-0.2700831;4;-2;2;-2710;-1537;2693;32768;0.8610259;0.4584487;-0.1814404;-0.1246537;-4;1;-2;1545;-3116;-2110;256;0.06925207;-0.06371191;-0.5567867;-0.8253081;-5;0;0;-205;3808;-1559;128;0.02077562;0.05540166;0.5249307;0.8490859;6;1;0;-325;3711;1938;4;0.4778393;-0.5600537;0.4750692;0.4819945;0;4;0;-303;4014;-414;16;0.601108;-0.7779546;-0.1052632;-0.1495845;2;2;1;95;3926;1110;2;0.5226784;-0.4986149;-0.4612188;-0.5152354;0;0;-2;-365;4156;-55;8;0.6315789;-0.7603146;0.06786703;0.1357341;1;0;0;-321;4023;759;0.404265;2.793288;-0.4064898;0.4101165;3.326537;-0.2914585;0.4152646;3.79569;-0.1923233;0.385546;4.47564;0.08198753;0.1132664;4.780797;0.1685366;-0.2210037;4.612378;0.1746839;-0.7152953;4.949165;-0.5328326;-0.7097347;5.646047;-1.1748;0.6331139;4.803522;0.1685369;0.9284681;4.662624;0.1746846;1.700745;5.007297;-0.2869045;2.187159;5.712423;-0.6918555;0.09203935;2.753845;-0.4235671;0.1973971;1.301265;-0.2829708;0;0;0;0.09203935;2.753845;-0.4235671;0.1973971;1.301265;-0.2829708;0;0;0
726020.5433;NotLabelled;NONE;16384;0.8655679;0.300554;0.2853186;0.2811634;3;1;0;2662;-1464;2655;65536;0.8827617;0.4044321;-0.04155125;0.2354571;-4;0;0;-1525;-3040;-2235;8192;0.8575522;0.3074792;-0.3116343;-0.2700831;4;-2;2;-2734;-1503;2663;32768;0.8610259;0.4584487;-0.1814404;-0.1246537;-5;0;-4;1627;-3132;-2132;256;0.06925207;-0.06232687;-0.5581717;-0.8244779;-5;0;0;-237;3820;-1593;128;0.02077562;0.05540166;0.5249307;0.8490859;3;0;0;-353;3717;1924;4;0.4778393;-0.5624122;0.4736842;0.4806094;0;6;0;-311;4116;-432;16;0.601108;-0.7779546;-0.1052632;-0.1495845;2;2;1;67;3946;1074;2;0.5226308;-0.4972299;-0.4612188;-0.5166205;0;1;-2;-335;4112;-95;8;0.6315789;-0.760437;0.06648199;0.1357341;1;0;0;-371;4005;715;0.407387;2.794184;-0.4009871;0.4132426;3.327807;-0.287697;0.4183943;3.797281;-0.1900937;0.3888444;4.478148;0.08195059;0.1166458;4.783675;0.1674452;-0.2176766;4.615379;0.174104;-0.7113023;4.950217;-0.5348009;-0.7046511;5.645271;-1.178736;0.6365002;4.80624;0.167445;0.9318104;4.665273;0.174104;1.704038;5.009946;-0.287567;2.190481;5.715072;-0.6924834;0.09516069;2.754687;-0.4179242;0.1976862;1.30148;-0.2817779;0;0;0;0.09516069;2.754687;-0.4179242;0.1976862;1.30148;-0.2817779;0;0;0
726041.582;NotLabelled;NONE;16384;0.8651101;0.300554;0.2867036;0.2811634;3;1;0;2744;-1514;2669;65536;0.8833949;0.4030471;-0.04155125;0.2354571;-4;0;1;-1575;-3072;-2277;8192;0.8580475;0.3060942;-0.3116343;-0.2700831;4;-3;1;-2666;-1569;2593;32768;0.8615605;0.4570637;-0.1814404;-0.1260388;-6;-1;-4;1671;-3086;-2162;256;0.06925207;-0.06232687;-0.5581717;-0.8244779;-5;0;0;-203;3776;-1611;128;0.02077562;0.05540166;0.5263157;0.848228;3;0;0;-321;3645;1878;4;0.4778393;-0.5624122;0.4736842;0.4806094;-2;3;0;-307;4104;-482;16;0.602493;-0.7768824;-0.1052632;-0.1495845;2;2;2;35;3962;1082;2;0.5226308;-0.4972299;-0.4612188;-0.5166205;0;1;-2;-329;4048;-139;8;0.6315789;-0.760437;0.06648199;0.1357341;1;0;0;-301;4015;777;0.4042249;2.793609;-0.4055731;0.4100804;3.327231;-0.2922829;0.4152321;3.796704;-0.1946796;0.3847871;4.47843;0.07511108;0.1121925;4.783894;0.1595573;-0.2219193;4.615202;0.1667237;-0.7162583;4.948088;-0.5426034;-0.7110405;5.643141;-1.186552;0.6320181;4.807113;0.1595575;0.9275039;4.66654;0.1667242;1.69866;5.009214;-0.2982142;2.184201;5.71434;-0.7042124;0.09199855;2.754111;-0.4225103;0.1970584;1.301479;-0.2822172;0;0;0;0.09199855;2.754111;-0.4225103;0.1970584;1.301479;-0.2822172;0;0;0
726062.4569;NotLabelled;NONE;16384;0.8651101;0.300554;0.2867036;0.2811634;3;1;0;2706;-1464;2651;65536;0.8833949;0.4030471;-0.04155125;0.2354571;-4;0;2;-1533;-3008;-2249;8192;0.8585403;0.3047091;-0.3116343;-0.2700831;4;-3;2;-2670;-1569;2541;32768;0.8622938;0.4556787;-0.1814404;-0.1260388;-6;-1;-2;1595;-3052;-2274;256;0.06925207;-0.06232687;-0.5595568;-0.8235385;-5;0;0;-219;3780;-1597;128;0.01939058;0.05540166;0.5263157;0.8482608;3;-1;0;-347;3667;1908;4;0.4778393;-0.5624122;0.4736842;0.4806094;-3;-3;0;-417;4056;-596;16;0.602493;-0.7768824;-0.1052632;-0.1495845;2;0;2;-33;3958;1014;2;0.5214052;-0.4972299;-0.4626039;-0.5166205;0;1;-2;-321;4070;-79;8;0.6315789;-0.7603146;0.06786703;0.1357341;1;0;0;-249;4009;757;0.4026056;2.794826;-0.4014457;0.4084653;3.328816;-0.2898996;0.4136204;3.798605;-0.1938307;0.3831755;4.48033;0.07596053;0.1105808;4.785795;0.1604071;-0.2235311;4.617103;0.1675733;-0.7202102;4.949012;-0.5405762;-0.7139534;5.642233;-1.186489;0.6304066;4.809013;0.1604071;0.9258926;4.66844;0.1675738;1.696836;5.009114;-0.2991839;2.183849;5.711966;-0.7073555;0.09037866;2.755273;-0.4182427;0.1954385;1.302641;-0.2779503;0;0;0;0.09037866;2.755273;-0.4182427;0.1954385;1.302641;-0.2779503;0;0;0
726082.4652;NotLabelled;NONE;16384;0.8660476;0.299169;0.2853186;0.2811634;3;3;0;2738;-1446;2677;65536;0.8840255;0.4016621;-0.04155125;0.2354571;-4;1;2;-1529;-2990;-2255;8192;0.8585403;0.3047091;-0.3116343;-0.2700831;4;-2;1;-2666;-1553;2555;32768;0.8628209;0.4542936;-0.1814404;-0.1274238;-4;0;-1;1583;-3048;-2256;256;0.06925207;-0.06232687;-0.5595568;-0.8235385;-4;0;0;-215;3794;-1607;128;0.01939058;0.05540166;0.5263157;0.8482608;3;-1;-1;-305;3731;1856;4;0.4778393;-0.5612427;0.4750692;0.4806094;-1;-5;1;-283;3990;-370;16;0.602493;-0.7770688;-0.1038781;-0.1495845;1;-3;1;17;3966;918;2;0.5200292;-0.4972299;-0.4626039;-0.5180055;0;1;-1;-367;4092;-123;8;0.632964;-0.759162;0.06786703;0.1357341;1;0;0;-323;4053;767;0.4026365;2.794826;-0.40144;0.4084961;3.328814;-0.2898855;0.4136512;3.798602;-0.1938092;0.3833732;4.481231;0.07370357;0.1108587;4.787058;0.1570909;-0.2233053;4.618492;0.1647698;-0.7198024;4.950401;-0.5435069;-0.7134984;5.643621;-1.189419;0.6306915;4.810119;0.157091;0.9261336;4.669481;0.16477;1.697067;5.008147;-0.3034621;2.184464;5.709372;-0.7139683;0.09040949;2.755273;-0.4182377;0.195459;1.302641;-0.2779366;0;0;0;0.09040949;2.755273;-0.4182377;0.195459;1.302641;-0.2779366;0;0;0
726103.9498;NotLabelled;NONE;16384;0.86559;0.299169;0.2867036;0.2811634;4;3;-1;2742;-1502;2621;65536;0.8840255;0.4016621;-0.04155125;0.2354571;-4;1;3;-1529;-2972;-2315;8192;0.8585403;0.3047091;-0.3116343;-0.2700831;5;-2;1;-2716;-1513;2605;32768;0.8628209;0.4542936;-0.1814404;-0.1274238;-4;1;-1;1497;-3104;-2252;256;0.06925207;-0.06232687;-0.5595568;-0.8235385;-5;0;0;-209;3794;-1567;128;0.01939058;0.0567867;0.5263157;0.8481692;3;-2;-1;-315;3725;1886;4;0.4778393;-0.5600537;0.4750692;0.4819945;-2;-6;1;-203;4076;-308;16;0.6038781;-0.775993;-0.1038781;-0.1495845;1;-3;1;83;3956;998;2;0.52135;-0.4958449;-0.4626039;-0.5180055;0;0;0;-345;4092;-97;8;0.632964;-0.7592846;0.06648199;0.1357341;1;0;0;-307;3969;739;0.4071518;2.795172;-0.3964573;0.4130113;3.329153;-0.2848668;0.4181663;3.798934;-0.1887589;0.3878882;4.481546;0.0787997;0.1153737;4.787367;0.1622075;-0.2187904;4.618801;0.1698748;-0.714551;4.948803;-0.5398078;-0.7072087;5.640227;-1.187631;0.6352063;4.810428;0.1622093;0.9306486;4.66979;0.1698791;1.701582;5.008487;-0.2983305;2.190436;5.707454;-0.7109504;0.09492488;2.755621;-0.4132577;0.1977429;1.302405;-0.2774301;0;0;0;0.09492488;2.755621;-0.4132577;0.1977429;1.302405;-0.2774301;0;0;0
726123.9927;NotLabelled;NONE;16384;0.8665159;0.2977839;0.2867036;0.2797784;3;2;-1;2672;-1442;2607;65536;0.8846535;0.400277;-0.04155125;0.2354571;-4;1;3;-1685;-2986;-2259;8192;0.8590307;0.3033241;-0.3116343;-0.2700831;4;-2;1;-2726;-1557;2643;32768;0.8628209;0.4542936;-0.1814404;-0.1274238;-3;2;-1;1551;-3168;-2252;256;0.06925207;-0.06232687;-0.5609418;-0.8225958;-5;0;0;-179;3798;-1583;128;0.01939058;0.0567867;0.5277008;0.8473082;2;-1;-1;-315;3633;1982;4;0.4778393;-0.5588759;0.4764543;0.4819945;-3;-7;1;-173;4078;-320;16;0.6038781;-0.775993;-0.1038781;-0.1495845;1;-1;2;117;3930;1004;2;0.5225756;-0.4958449;-0.4612188;-0.5180055;0;-1;0;-379;4048;-101;8;0.632964;-0.7595308;0.06648199;0.134349;2;0;0;-335;4039;765;0.4055329;2.796293;-0.3923642;0.4113925;3.330273;-0.2807738;0.4165475;3.800055;-0.1846658;0.3862694;4.482685;0.08284745;0.1137549;4.788511;0.166235;-0.220409;4.619945;0.1739137;-0.7161683;4.949899;-0.5357919;-0.7088267;5.641281;-1.183661;0.6335877;4.811572;0.166235;0.9290298;4.670935;0.1739139;1.699964;5.0096;-0.2943167;2.188818;5.70854;-0.7069845;0.09330598;2.756742;-0.4091647;0.1961243;1.303535;-0.2732403;0;0;0;0.09330598;2.756742;-0.4091647;0.1961243;1.303535;-0.2732403;0;0;0
726144.4468;NotLabelled;NONE;16384;0.8669907;0.2963989;0.2867036;0.2797784;3;2;-2;2670;-1422;2719;65536;0.8853428;0.398892;-0.0401662;0.2354571;-5;1;2;-1689;-2948;-2273;8192;0.8595185;0.301939;-0.3116343;-0.2700831;5;-3;0;-2774;-1461;2713;32768;0.8633432;0.4529086;-0.1814404;-0.1288089;-5;0;-2;1685;-3182;-2290;256;0.07063711;-0.06232687;-0.5609418;-0.822478;-6;-1;0;-249;3746;-1579;128;0.01939058;0.0567867;0.5277008;0.8473082;4;-1;0;-327;3641;1874;4;0.4778393;-0.5588759;0.4764543;0.4819945;-6;-7;2;-203;4122;-418;16;0.6038781;-0.775993;-0.1038781;-0.1495845;1;-1;2;163;3940;962;2;0.5212579;-0.4972299;-0.4612188;-0.5180055;1;-3;0;-381;4082;-69;8;0.632964;-0.7595308;0.06648199;0.134349;2;0;0;-341;4019;699;0.4091025;2.796654;-0.3918488;0.4149659;3.330997;-0.2820052;0.4201243;3.80109;-0.1874342;0.3900142;4.484617;0.07779559;0.1175804;4.790803;0.1601219;-0.2166359;4.622365;0.1683134;-0.7110921;4.951344;-0.5427533;-0.7026663;5.640881;-1.192572;0.6374201;4.813706;0.160122;0.9328183;4.673006;0.1683141;1.703654;5.009661;-0.3015265;2.192537;5.708601;-0.7141582;0.09687499;2.757049;-0.4085087;0.1961442;1.303534;-0.2732259;0;0;0;0.09687499;2.757049;-0.4085087;0.1961442;1.303534;-0.2732259;0;0;0
726164.4585;NotLabelled;NONE;16384;0.8669907;0.2963989;0.2867036;0.2797784;3;3;-2;2702;-1356;2755;65536;0.8859655;0.3975069;-0.0401662;0.2354571;-5;2;3;-1575;-2938;-2309;8192;0.8595185;0.301939;-0.3116343;-0.2700831;4;-3;0;-2712;-1487;2701;32768;0.8633432;0.4529086;-0.1814404;-0.1288089;-5;0;-3;1541;-3094;-2216;256;0.07063711;-0.06232687;-0.5623268;-0.8215317;-4;-2;0;-239;3810;-1607;128;0.01800554;0.0567867;0.5277008;0.8473387;4;-2;0;-361;3761;1844;4;0.4778393;-0.5564921;0.4778393;0.4833795;-5;-10;2;-311;4076;-430;16;0.6038781;-0.7761771;-0.1024931;-0.1495845;1;-1;2;113;3992;976;2;0.5226308;-0.4972299;-0.4612188;-0.5166205;0;-3;0;-377;4150;-103;8;0.634349;-0.7582518;0.06786703;0.134349;2;-1;0;-357;4065;777;0.4097497;2.796654;-0.3916946;0.4156132;3.330997;-0.281851;0.4207716;3.80109;-0.1872799;0.3891093;4.484647;0.07769235;0.1159814;4.790246;0.1598992;-0.2178528;4.621055;0.1681487;-0.7093141;4.948069;-0.5458937;-0.7010624;5.635188;-1.198272;0.6357679;4.814326;0.1598991;0.9314839;4.674298;0.1681488;1.703675;5.00894;-0.3009046;2.194661;5.705586;-0.7149137;0.09752224;2.757048;-0.4083546;0.196577;1.303534;-0.2729145;0;0;0;0.09752224;2.757048;-0.4083546;0.196577;1.303534;-0.2729145;0;0;0
726184.8117;NotLabelled;NONE;16384;0.8670039;0.2950138;0.2880886;0.2797784;3;5;-2;2648;-1410;2675;65536;0.8859655;0.3975069;-0.0401662;0.2354571;-5;3;3;-1495;-2910;-2375;8192;0.8600038;0.300554;-0.3116343;-0.2700831;5;-2;0;-2648;-1531;2685;32768;0.8638607;0.4515235;-0.1814404;-0.1301939;-5;1;-2;1577;-3046;-2244;256;0.07063711;-0.06232687;-0.5623268;-0.8215317;-4;-3;0;-229;3836;-1531;128;0.01800554;0.0567867;0.5290859;0.8464745;4;-2;-1;-357;3733;1776;4;0.4778393;-0.5552998;0.4792244;0.4833795;-3;-11;3;-335;4090;-424;16;0.6052631;-0.7750975;-0.1024931;-0.1495845;0;-3;2;79;3954;926;2;0.5238498;-0.4972299;-0.4598338;-0.5166205;0;-1;0;-367;4136;-137;8;0.634349;-0.7582518;0.06786703;0.134349;2;0;0;-317;4003;751;0.414349;2.796953;-0.386862;0.4202124;3.331295;-0.2770136;0.4253708;3.801387;-0.1824383;0.3938774;4.485834;0.08024452;0.1208306;4.79179;0.1613877;-0.2130568;4.622729;0.1701502;-0.7055942;4.949744;-0.5431503;-0.6962568;5.635007;-1.197462;0.6406245;4.815711;0.1613881;0.9362962;4.67562;0.1701514;1.707779;5.010262;-0.3000656;2.198797;5.706909;-0.7140368;0.1021215;2.757347;-0.4035224;0.1988854;1.303276;-0.2724759;0;0;0;0.1021215;2.757347;-0.4035224;0.1988854;1.303276;-0.2724759;0;0;0
726225.5788;NotLabelled;NONE;16384;0.8670039;0.2950138;0.2880886;0.2797784;3;5;-3;2600;-1450;2685;65536;0.8869523;0.3961219;-0.0401662;0.234072;-5;3;4;-1473;-2966;-2419;8192;0.8600038;0.300554;-0.3116343;-0.2700831;5;-4;0;-2620;-1519;2659;32768;0.8638607;0.4515235;-0.1814404;-0.1301939;-6;0;-1;1597;-2982;-2238;256;0.07202215;-0.06232687;-0.5623268;-0.8214114;-5;-4;0;-265;3826;-1511;128;0.01800554;0.0567867;0.5290859;0.8464745;5;-3;-1;-361;3735;1788;4;0.4778393;-0.5528902;0.4806094;0.4847645;-2;-4;3;-147;4008;-330;16;0.6052631;-0.7752794;-0.101108;-0.1495845;0;-5;1;63;3932;926;2;0.5238498;-0.4972299;-0.4598338;-0.5166205;0;0;1;-341;4054;-69;8;0.634349;-0.7580051;0.06786703;0.1357341;2;0;0;-291;4035;751;0.4162881;2.798434;-0.3820581;0.4221554;3.333133;-0.2739593;0.4273172;3.803532;-0.1809232;0.3958239;4.487979;0.08175965;0.1227772;4.793936;0.1629029;-0.2111102;4.624875;0.1716654;-0.7051288;4.948952;-0.5419514;-0.6957911;5.634216;-1.196263;0.642571;4.817856;0.1629031;0.9382428;4.677765;0.1716664;1.70959;5.010388;-0.3002019;2.202049;5.704735;-0.7163203;0.1040601;2.758775;-0.3985776;0.1972612;1.304412;-0.2681908;0;0;0;0.1040601;2.758775;-0.3985776;0.1972612;1.304412;-0.2681908;0;0;0
726246.4639;NotLabelled;NONE;16384;0.8679261;0.2922437;0.2894737;0.2783934;3;3;-4;2624;-1484;2737;65536;0.8876312;0.3947368;-0.03878116;0.234072;-4;1;6;-1571;-2932;-2395;8192;0.8609201;0.299169;-0.3116343;-0.2686981;6;-4;0;-2640;-1473;2653;32768;0.8645833;0.4501385;-0.1814404;-0.1301939;-6;1;0;1703;-3000;-2110;256;0.07202215;-0.06371191;-0.5637119;-0.8203551;-5;-3;0;-227;3826;-1531;128;0.01800554;0.0567867;0.5304709;0.8456073;7;-2;-1;-311;3649;1732;4;0.4778393;-0.5516727;0.4806094;0.4861496;-1;-1;3;-161;4054;-284;16;0.6052631;-0.7752794;-0.101108;-0.1495845;0;-4;1;77;3940;932;2;0.5238498;-0.4972299;-0.4598338;-0.5166205;0;-1;0;-321;4110;-77;8;0.634349;-0.7580051;0.06786703;0.1357341;1;0;1;-319;4067;683;0.421544;2.798711;-0.3770373;0.4274114;3.333409;-0.2689385;0.4325732;3.803809;-0.1759024;0.3995276;4.488284;0.08651816;0.1257884;4.793653;0.1675395;-0.2077162;4.62384;0.1763609;-0.7005991;4.947918;-0.5380408;-0.6881355;5.631492;-1.194066;0.6455269;4.818748;0.16754;0.9415145;4.679329;0.1763619;1.713612;5.011953;-0.2942786;2.206731;5.7063;-0.7096138;0.1093159;2.759051;-0.3935568;0.1999784;1.30415;-0.2674491;0;0;0;0.1093159;2.759051;-0.3935568;0.1999784;1.30415;-0.2674491;0;0;0
726267.4811;NotLabelled;NONE;16384;0.8674629;0.2922437;0.2908587;0.2783934;3;3;-5;2674;-1408;2661;65536;0.8883052;0.3933518;-0.03739612;0.234072;-4;2;6;-1553;-2866;-2389;8192;0.8609201;0.299169;-0.3116343;-0.2686981;6;-3;0;-2678;-1421;2601;32768;0.8645833;0.4501385;-0.1814404;-0.1301939;-7;1;0;1543;-3088;-2078;256;0.0734072;-0.06371191;-0.5650969;-0.8192787;-6;-3;0;-159;3770;-1489;128;0.0166205;0.05817174;0.5318559;0.844671;6;0;-1;-357;3683;1818;4;0.4778393;-0.5528763;0.4792244;0.4861496;0;1;2;-191;4136;-250;16;0.6052631;-0.7754588;-0.09972299;-0.1495845;0;0;2;87;3944;1010;2;0.5238498;-0.4972299;-0.4598338;-0.5166205;1;-1;0;-403;4022;-75;8;0.6357341;-0.7570909;0.06786703;0.134349;1;3;1;-383;4055;767;0.4212435;2.79901;-0.3731466;0.4271148;3.334059;-0.2668001;0.43228;3.804761;-0.1753055;0.4004862;4.490179;0.08480027;0.1273116;4.796335;0.1647471;-0.2065143;4.627184;0.1740869;-0.6980807;4.947332;-0.5429881;-0.6852745;5.628471;-1.201534;0.6470964;4.82045;0.1647472;0.9428186;4.680503;0.1740872;1.715287;5.012182;-0.2966094;2.209737;5.704878;-0.713119;0.1090149;2.759296;-0.3895248;0.2006107;1.30415;-0.2669749;0;0;0;0.1090149;2.759296;-0.3895248;0.2006107;1.30415;-0.2669749;0;0;0
726288.4766;NotLabelled;NONE;16384;0.8679261;0.2894737;0.2922437;0.2783934;4;5;-6;2544;-1370;2743;65536;0.8889744;0.3919668;-0.03601108;0.234072;-5;1;6;-1567;-2836;-2411;8192;0.8624195;0.2950138;-0.3102493;-0.2700831;9;-2;0;-2716;-1439;2603;32768;0.8658881;0.4473684;-0.1800554;-0.132964;-11;3;0;1473;-2980;-2088;256;0.07479224;-0.06509695;-0.5650969;-0.8190445;-5;-3;1;-175;3880;-1457;128;0.0166205;0.05817174;0.533241;0.8437973;4;0;-1;-427;3837;1746;4;0.4792244;-0.5528937;0.4792244;0.4847645;-1;3;1;-259;4092;-258;16;0.6052631;-0.7754588;-0.09972299;-0.1495845;0;0;2;177;3964;960;2;0.5238498;-0.4972299;-0.4598338;-0.5166205;1;-2;0;-377;4102;-87;8;0.6357341;-0.7570909;0.06786703;0.134349;1;5;4;-551;3961;725;0.4206008;2.79851;-0.3733495;0.4264757;3.333898;-0.2687214;0.431644;3.804891;-0.1787386;0.3984739;4.491213;0.07879794;0.1246915;4.797135;0.1575526;-0.2088075;4.627373;0.1674669;-0.7013954;4.946557;-0.5493373;-0.6886985;5.625253;-1.210402;0.6444287;4.822257;0.1575524;0.9404204;4.682921;0.1674668;1.713676;5.014601;-0.3019367;2.208823;5.707296;-0.7176169;0.1083715;2.758743;-0.3895891;0.2033459;1.303885;-0.2662014;0;0;0;0.1083715;2.758743;-0.3895891;0.2033459;1.303885;-0.2662014;0;0;0
726330.0865;NotLabelled;NONE;16384;0.8679018;0.2894737;0.2936288;0.2770083;5;5;-6;2586;-1436;2851;65536;0.8896388;0.3905817;-0.03462604;0.234072;-6;3;7;-1617;-2918;-2439;8192;0.8633887;0.2936288;-0.3088643;-0.2700831;11;-3;0;-2698;-1489;2593;32768;0.8666753;0.4459834;-0.1786704;-0.134349;-11;3;-1;1457;-3042;-2078;256;0.07479224;-0.06509695;-0.566482;-0.8180872;-6;-4;1;-125;3826;-1453;128;0.0166205;0.05955679;0.533241;0.8437006;3;-1;-2;-401;3821;1668;4;0.4806094;-0.5516901;0.4792244;0.4847645;-2;-5;4;-425;4252;-374;16;0.6066482;-0.7741069;-0.09972299;-0.1509695;0;0;1;105;4020;824;2;0.5238498;-0.4972299;-0.4598338;-0.5166205;0;-2;0;-335;4124;-93;8;0.6357341;-0.7574582;0.06648199;0.132964;1;9;3;-599;4013;847;0.4262069;2.798885;-0.3723267;0.4320856;3.334614;-0.2694567;0.4372572;3.8059;-0.1810206;0.4036219;4.492309;0.07622274;0.1296329;4.798082;0.1548412;-0.2037524;4.6281;0.1648207;-0.6941573;4.942363;-0.5556445;-0.6801008;5.618611;-1.219187;0.649353;4.823552;0.1548413;0.9454378;4.684419;0.1648213;1.719086;5.009933;-0.3082361;2.216771;5.698592;-0.7275754;0.113977;2.759066;-0.3884243;0.2043789;1.303884;-0.2654092;0;0;0;0.113977;2.759066;-0.3884243;0.2043789;1.303884;-0.2654092;0;0;0
726350.4711;NotLabelled;NONE;16384;0.8683515;0.2867036;0.2950138;0.2770083;3;7;-7;2562;-1410;2939;65536;0.8909026;0.3878116;-0.033241;0.234072;-10;7;8;-1717;-2876;-2505;8192;0.8638585;0.2922437;-0.3088643;-0.2700831;12;-2;0;-2758;-1365;2585;32768;0.8673866;0.4445983;-0.1786704;-0.134349;-12;3;-3;1615;-3014;-2054;256;0.07479224;-0.06648199;-0.567867;-0.8170148;-7;-4;2;-141;3874;-1429;128;0.0166205;0.05955679;0.534626;0.8428237;4;-3;-4;-475;3857;1724;4;0.4792244;-0.55047;0.4806094;0.4861496;-1;-14;6;-467;4240;-236;16;0.6066482;-0.7741069;-0.09972299;-0.1509695;0;-3;0;129;4048;866;2;0.5238498;-0.4972299;-0.4598338;-0.5166205;-3;0;0;-311;4138;-51;8;0.6357341;-0.7575785;0.06509695;0.132964;0;6;2;-553;4057;967;0.4299298;2.800488;-0.3618838;0.4358083;3.33621;-0.258979;0.4409798;3.80749;-0.1705123;0.4075249;4.494769;0.08442401;0.1336223;4.800892;0.1619723;-0.1998198;4.631052;0.1724664;-0.6918974;4.945342;-0.5468467;-0.6790023;5.619133;-1.212907;0.6533507;4.826194;0.1619727;0.9493886;4.686998;0.1724676;1.721286;5.011476;-0.3041486;2.218473;5.698408;-0.7268993;0.1176999;2.76067;-0.3779843;0.2052543;1.30494;-0.2594792;0;0;0;0.1176999;2.76067;-0.3779843;0.2052543;1.30494;-0.2594792;0;0;0
726371.471;NotLabelled;NONE;16384;0.8687766;0.2853186;0.2963989;0.2756233;3;9;-6;2570;-1380;2939;65536;0.8919657;0.3864266;-0.03047091;0.232687;-10;9;8;-1583;-2876;-2561;8192;0.8638918;0.2908587;-0.3088643;-0.2714681;15;-1;0;-2822;-1267;2601;32768;0.867171;0.4445983;-0.1786704;-0.1357341;-13;8;-4;1551;-3012;-2034;256;0.07479224;-0.06648199;-0.567867;-0.8170148;-7;-4;1;-73;3914;-1413;128;0.0166205;0.06094183;0.534626;0.8427247;4;-4;-5;-505;3849;1674;4;0.4792244;-0.5480286;0.4819945;0.4875346;-1;-23;7;-417;4052;-206;16;0.6066482;-0.7742841;-0.09833795;-0.1509695;-1;-5;0;265;3978;848;2;0.525161;-0.4958449;-0.4598338;-0.5166205;-5;1;1;-503;4160;-89;8;0.6357341;-0.7578202;0.06509695;0.1315789;0;0;0;-97;4033;851;0.4303938;2.800507;-0.3617777;0.4362761;3.336564;-0.2606342;0.4414508;3.808132;-0.1737169;0.4092249;4.496331;0.07888176;0.1358826;4.803239;0.1552974;-0.197888;4.634075;0.1662479;-0.6870176;4.945808;-0.5561817;-0.672605;5.615243;-1.226588;0.6556584;4.827546;0.1553961;0.9514254;4.687819;0.1664663;1.725624;5.011816;-0.306733;2.22423;5.697071;-0.7305301;0.1181634;2.760636;-0.3777361;0.205915;1.30494;-0.2589552;0;0;0;0.1181634;2.760636;-0.3777361;0.205915;1.30494;-0.2589552;0;0;0
726392.4662;NotLabelled;NONE;16384;0.869195;0.2839335;0.2977839;0.2742382;3;11;-6;2530;-1362;2919;65536;0.8935204;0.3836565;-0.03047091;0.2313019;-10;9;8;-1567;-2876;-2599;8192;0.8653374;0.2867036;-0.3074792;-0.2728532;17;-2;1;-2814;-1307;2611;32768;0.8679261;0.4418283;-0.1786704;-0.1398892;-14;6;-5;1819;-3090;-2186;256;0.07617728;-0.06786703;-0.5706371;-0.8148401;-7;-8;2;25;3954;-1427;128;0.0166205;0.06371191;0.5373961;0.8407556;9;-8;-5;-593;3789;1766;4;0.4778393;-0.5467828;0.4833795;0.4889196;-4;-24;9;-273;3956;-68;16;0.6066482;-0.7745528;-0.09833795;-0.1495845;-1;-4;-1;235;3870;970;2;0.5253071;-0.4958449;-0.4612188;-0.5152354;-4;-7;2;-489;4186;-375;8;0.6357341;-0.7574582;0.06648199;0.132964;0;0;0;-289;3993;487;0.4349816;2.800732;-0.3568544;0.4408638;3.336782;-0.2556756;0.4460384;3.808345;-0.1687272;0.4138605;4.496544;0.08387754;0.1405327;4.803453;0.1603451;-0.1932358;4.634289;0.171359;-0.6853762;4.941694;-0.55088;-0.6735626;5.608261;-1.22419;0.6603086;4.827758;0.160345;0.9560776;4.688033;0.1713592;1.729323;5.007352;-0.3065549;2.228921;5.691958;-0.7302347;0.1227512;2.760862;-0.3728155;0.208156;1.304666;-0.2585419;0;0;0;0.1227512;2.760862;-0.3728155;0.208156;1.304666;-0.2585419;0;0;0
726413.4539;NotLabelled;NONE;16384;0.8696065;0.2825485;0.299169;0.2728532;3;9;-6;2508;-1438;2955;65536;0.8941599;0.3822715;-0.02908587;0.2313019;-11;10;9;-1545;-2906;-2683;8192;0.8658127;0.2839335;-0.3074792;-0.2742382;16;-4;0;-2906;-1269;2641;32768;0.8691067;0.4390582;-0.1786704;-0.1412742;-15;4;-6;1813;-2978;-2244;256;0.07617728;-0.06925207;-0.5706371;-0.8147236;-8;-11;2;27;3918;-1411;128;0.01523546;0.06509695;0.5387812;0.8397887;10;-8;-5;-719;3859;1550;4;0.4778393;-0.5430599;0.4847645;0.4916897;-5;-22;11;-85;3916;22;16;0.6066482;-0.7742841;-0.09833795;-0.1509695;-2;0;-1;183;3812;1004;2;0.5265673;-0.4972299;-0.4598338;-0.5138504;-5;-11;0;-289;4108;-513;8;0.6357341;-0.7574582;0.06648199;0.132964;0;-4;0;-125;4045;611;0.4335251;2.800878;-0.3582965;0.4394143;3.33757;-0.2605776;0.444595;3.809683;-0.1766729;0.4123449;4.499673;0.07099067;0.1389971;4.807125;0.1451688;-0.1947781;4.638049;0.1572808;-0.6850139;4.9435;-0.56708;-0.6674044;5.606433;-1.243841;0.6587736;4.831422;0.1451691;0.9545363;4.691773;0.1572818;1.728117;5.004866;-0.3241956;2.233308;5.684144;-0.7498147;0.1212935;2.760906;-0.3739781;0.2066978;1.304738;-0.2593462;0;0;0;0.1212935;2.760906;-0.3739781;0.2066978;1.304738;-0.2593462;0;0;0
726433.5748;NotLabelled;NONE;16384;0.8700112;0.2811634;0.300554;0.2714681;2;11;-6;2542;-1470;2993;65536;0.8957397;0.3795014;-0.02770083;0.2299169;-11;12;7;-1529;-2958;-2699;8192;0.8672064;0.2811634;-0.3060942;-0.2742382;15;-4;1;-2830;-1155;2649;32768;0.8690647;0.4376731;-0.1800554;-0.1440443;-14;5;-7;1857;-2878;-2286;256;0.07756232;-0.07063711;-0.5720221;-0.8135018;-9;-13;3;89;3898;-1455;128;0.01523546;0.06786703;0.5401662;0.838679;14;-11;-6;-715;3787;1564;4;0.4792244;-0.5355295;0.4875346;0.4958449;-8;-19;15;95;4038;30;16;0.6052631;-0.7749193;-0.09972299;-0.1523546;-5;17;-2;367;3798;1060;2;0.5265673;-0.4972299;-0.4598338;-0.5138504;-2;-8;0;-211;4112;-471;8;0.6357341;-0.7573354;0.06786703;0.132964;-2;-12;0;-27;4033;581;0.4380881;2.801562;-0.3481446;0.4439808;3.338568;-0.2521643;0.4491642;3.810951;-0.1697889;0.4180183;4.500998;0.07785688;0.1451628;4.808887;0.1520269;-0.1888826;4.640347;0.1641431;-0.6786278;4.943845;-0.5613691;-0.6607146;5.60429;-1.240551;0.6649775;4.832353;0.1520268;0.9605163;4.692232;0.1641433;1.735283;5.000138;-0.3187709;2.243165;5.675374;-0.747607;0.125856;2.761539;-0.3636856;0.2097859;1.304666;-0.2572211;0;0;0;0.125856;2.761539;-0.3636856;0.2097859;1.304666;-0.2572211;0;0;0
726453.7451;NotLabelled;NONE;16384;0.8707826;0.2797784;0.3033241;0.267313;2;16;-8;2490;-1526;2975;65536;0.8976555;0.3767313;-0.02631579;0.2271468;-13;12;6;-1395;-2940;-2557;8192;0.8672152;0.2797784;-0.3060942;-0.2756233;16;-4;2;-2798;-1155;2637;32768;0.8695304;0.4362881;-0.1800554;-0.1454294;-13;8;-5;1859;-2844;-2282;256;0.07894737;-0.0734072;-0.5734072;-0.8121471;-13;-14;6;75;3952;-1517;128;0.01385042;0.06925207;0.5429363;0.836799;15;-17;-7;-579;3807;1716;4;0.4806094;-0.5317279;0.4889196;0.4972299;-8;-10;17;-79;4252;-84;16;0.6038781;-0.7753648;-0.1024931;-0.1537396;-5;27;-1;253;4010;1214;2;0.5278136;-0.4986149;-0.4584487;-0.5124654;0;-10;-3;-325;4110;-333;8;0.6357341;-0.7565902;0.07063711;0.1357341;-4;-17;-1;-289;4021;535;0.4482359;2.802248;-0.3331894;0.4541319;3.339555;-0.2389094;0.4593183;3.812196;-0.1580296;0.4278849;4.503172;0.0869759;0.1549139;4.811263;0.1598772;-0.1790869;4.642672;0.1725179;-0.6636773;4.94652;-0.5563017;-0.6421542;5.602727;-1.239475;0.6747217;4.83488;0.1599704;0.9702969;4.694892;0.172724;1.747208;5.001186;-0.3077632;2.261247;5.67279;-0.734964;0.1360033;2.762177;-0.3485927;0.2127735;1.303749;-0.2594094;0;0;0;0.1360033;2.762177;-0.3485927;0.2127735;1.303749;-0.2594094;0;0;0
726474.4712;NotLabelled;NONE;16384;0.8711669;0.2783934;0.3047091;0.265928;1;16;-8;2494;-1584;2963;65536;0.899548;0.3739612;-0.02493075;0.2243767;-14;11;7;-1349;-3034;-2523;8192;0.868104;0.2770083;-0.3060942;-0.2756233;17;-5;3;-2820;-1147;2679;32768;0.8697565;0.434903;-0.1800554;-0.1481994;-12;9;-5;1891;-2864;-2292;256;0.08033241;-0.07479224;-0.5747922;-0.8109049;-14;-15;5;151;3920;-1479;128;0.01246537;0.07202215;0.5443213;0.8356864;15;-20;-8;-557;3881;1726;4;0.4819945;-0.5291711;0.4889196;0.4986149;-9;-1;17;-457;4210;-154;16;0.602493;-0.7752361;-0.1052632;-0.1578947;-3;29;0;261;4036;1256;2;0.5290134;-0.4986149;-0.4570637;-0.5124654;-1;-13;-5;-377;4168;-229;8;0.634349;-0.7573721;0.07202215;0.1371191;-6;-17;-1;-339;4143;457;0.4554803;2.802517;-0.3268892;0.461383;3.34043;-0.2361367;0.4665751;3.813592;-0.15836;0.4360662;4.505546;0.08398777;0.1635073;4.814279;0.1557056;-0.1707179;4.646183;0.1689957;-0.6565526;4.946838;-0.5603197;-0.6291184;5.598969;-1.247174;0.6833462;4.837202;0.1557056;0.9787344;4.69687;0.1689959;1.756697;4.998504;-0.3127358;2.274703;5.667739;-0.738862;0.1432466;2.762345;-0.3420068;0.2140146;1.303102;-0.261629;0;0;0;0.1432466;2.762345;-0.3420068;0.2140146;1.303102;-0.261629;0;0;0
726494.6326;NotLabelled;NONE;16384;0.8714763;0.2770083;0.3074792;0.2631579;1;18;-9;2528;-1654;2995;65536;0.9005039;0.3725762;-0.0235457;0.2229917;-16;13;6;-1391;-3104;-2549;8192;0.869355;0.2700831;-0.3074792;-0.2770083;19;-7;5;-2772;-1025;2931;32768;0.8711053;0.4307479;-0.1800554;-0.1523546;-13;8;-5;1971;-2858;-2380;256;0.08171745;-0.07894737;-0.5775623;-0.8084005;-14;-13;4;139;4054;-1429;128;0.009695291;0.07756232;0.5457063;0.8343229;1;-12;-4;-529;4007;1766;4;0.4833795;-0.5279062;0.4889196;0.4986149;-13;-4;14;-871;3946;-200;16;0.601108;-0.7756468;-0.1080332;-0.1592798;-1;25;-1;275;3846;1282;2;0.5327263;-0.4986149;-0.4542936;-0.5110803;-2;-12;-11;-623;4306;-7;8;0.634349;-0.7567323;0.0734072;0.1398892;-8;-20;-1;-319;4305;513;0.4632362;2.80232;-0.3179685;0.469142;3.340521;-0.2289383;0.4743368;3.813929;-0.1526765;0.4436104;4.506798;0.08701339;0.1709608;4.815734;0.1575017;-0.163224;4.647606;0.1713789;-0.6470788;4.946317;-0.560048;-0.6151775;5.594351;-1.250579;0.6907936;4.83879;0.1575019;0.9862154;4.698585;0.1713799;1.765872;4.996054;-0.3102034;2.287988;5.662246;-0.7360791;0.1510019;2.762099;-0.3329466;0.2196726;1.302326;-0.2608024;0;0;0;0.1510019;2.762099;-0.3329466;0.2196726;1.302326;-0.2608024;0;0;0
726515.4448;NotLabelled;NONE;16384;0.8722574;0.2756233;0.3088643;0.2603878;1;19;-8;2540;-1684;2897;65536;0.9014173;0.3711911;-0.0235457;0.2216066;-16;15;7;-1419;-2968;-2391;8192;0.870635;0.265928;-0.3074792;-0.2770083;18;-7;5;-2676;-997;3077;32768;0.8713001;0.4293629;-0.1800554;-0.1551246;-15;6;-5;1989;-2856;-2434;256;0.08310249;-0.08171745;-0.5803324;-0.8059966;-18;-9;3;143;4044;-1365;128;0.009695291;0.07756232;0.5457063;0.8343229;2;0;0;-477;3991;1670;4;0.4847645;-0.5253454;0.4903047;0.4986149;-17;-19;14;-959;3764;-274;16;0.599723;-0.7757544;-0.1108033;-0.1620499;0;19;-2;109;3612;1208;2;0.5362061;-0.4972299;-0.4501385;-0.5124654;2;-4;-12;-637;4438;223;8;0.6301939;-0.7583327;0.07894737;0.1468144;-12;-36;-2;-725;4257;717;0.468683;2.802075;-0.3155846;0.4745918;3.340551;-0.2282321;0.4797891;3.814195;-0.1534459;0.4513346;4.508888;0.08119066;0.1797103;4.819248;0.1493435;-0.1550453;4.652356;0.1643352;-0.6354685;4.949201;-0.5701073;-0.5979199;5.594895;-1.262541;0.6996182;4.840547;0.1493433;0.9945598;4.699449;0.1643351;1.779641;4.984406;-0.3160009;2.309519;5.643432;-0.7434362;0.1564482;2.761809;-0.3304266;0.2216361;1.30168;-0.2623613;0;0;0;0.1564482;2.761809;-0.3304266;0.2216361;1.30168;-0.2623613;0;0;0
726535.4584;NotLabelled;NONE;16384;0.8721781;0.2756233;0.3102493;0.2590028;0;19;-9;2542;-1574;2695;65536;0.9032637;0.368421;-0.02216066;0.2188366;-16;13;9;-1205;-2780;-2333;8192;0.8714763;0.2631579;-0.3074792;-0.2770083;18;-10;4;-2654;-1053;3211;32768;0.8724124;0.4265928;-0.1800554;-0.1565097;-17;4;-6;1981;-2904;-2400;256;0.08310249;-0.08171745;-0.5831025;-0.8039948;-22;-3;1;9;4080;-1311;128;0.009695291;0.07756232;0.5470914;0.8334153;7;-1;0;-417;3785;2028;4;0.4833795;-0.5240273;0.4930748;0.4986149;-18;-29;14;-895;4078;-464;16;0.599723;-0.7753537;-0.1135734;-0.1620499;0;14;0;-399;3972;1050;2;0.5385194;-0.4972299;-0.4473684;-0.5124654;0;-13;-15;-699;4512;147;8;0.6274238;-0.7590925;0.08310249;0.1523546;-16;-49;-5;-823;4267;971;0.4795352;2.801899;-0.3106409;0.485444;3.340375;-0.2232883;0.4906414;3.814019;-0.1485022;0.463381;4.510449;0.0810715;0.1923011;4.821788;0.1468861;-0.1427611;4.655616;0.1629904;-0.6143962;4.951532;-0.577498;-0.5704843;5.595444;-1.271216;0.7122467;4.842143;0.1468862;1.006927;4.700624;0.1629909;1.79764;4.979261;-0.3117821;2.332583;5.635215;-0.7376316;0.1673005;2.761633;-0.3254829;0.2254743;1.300976;-0.262584;0;0;0;0.1673005;2.761633;-0.3254829;0.2254743;1.300976;-0.262584;0;0;0
726555.4698;NotLabelled;NONE;16384;0.8729389;0.2742382;0.3116343;0.2562327;4;18;-11;2684;-1344;2709;65536;0.9038603;0.367036;-0.02077562;0.2188366;-15;9;11;-1357;-2598;-2267;8192;0.8727202;0.2590028;-0.3074792;-0.2770083;18;-13;4;-2600;-1125;3255;32768;0.8735122;0.4238227;-0.1800554;-0.1578947;-22;1;-5;1945;-2876;-2490;256;0.08310249;-0.08171745;-0.5844875;-0.8029885;-17;0;0;-223;3962;-1295;128;0.008310249;0.07756232;0.5484765;0.8325194;11;-2;0;-399;3899;1882;4;0.4806094;-0.5146282;0.5;0.5041551;-6;-40;10;-227;4010;-624;16;0.599723;-0.7744426;-0.1177285;-0.1634349;5;8;3;-371;4072;838;2;0.5396243;-0.4958449;-0.4459834;-0.5138504;-2;3;-21;-851;4594;-77;8;0.6246537;-0.7594892;0.08725762;0.1592798;-20;-57;-7;-745;4321;979;0.4797018;2.802558;-0.3147658;0.4856137;3.341321;-0.2292009;0.4908139;3.81521;-0.1559872;0.4640418;4.513204;0.06884626;0.1931898;4.825195;0.1324739;-0.142007;4.659399;0.1496171;-0.6201316;4.955402;-0.5866631;-0.5744287;5.595174;-1.284087;0.7131512;4.845142;0.1324738;1.007716;4.703504;0.1496171;1.795086;4.977911;-0.3331091;2.331778;5.629718;-0.7631073;0.1674665;2.762243;-0.3294627;0.2209834;1.301537;-0.2636167;0;0;0;0.1674665;2.762243;-0.3294627;0.2209834;1.301537;-0.2636167;0;0;0
726575.465;NotLabelled;NONE;16384;0.8731465;0.2700831;0.3157895;0.2548476;11;11;-12;2598;-1228;2767;65536;0.9061496;0.3614958;-0.01800554;0.2188366;-16;3;16;-1583;-2728;-2383;8192;0.8739228;0.2562327;-0.3088643;-0.2742382;17;-16;4;-2472;-1433;3197;32768;0.8745998;0.4210526;-0.1800554;-0.1592798;-27;-3;-2;1843;-2986;-2678;256;0.08310249;-0.08171745;-0.5872576;-0.8009648;-13;1;0;-325;3976;-1351;128;0.008310249;0.07894737;0.5484765;0.8323892;8;-1;0;-359;4031;1514;4;-0.4778393;0.5083103;-0.501385;-0.5117649;-3;-45;11;151;4220;-520;16;0.601108;-0.7733681;-0.1177285;-0.1634349;5;-3;4;-81;4066;868;2;0.5419798;-0.4930748;-0.4445983;-0.5152354;-4;7;-29;-677;4502;-319;8;0.6204986;-0.7609212;0.09141274;0.166205;-23;-59;-13;-1127;4049;1163;0.484282;2.804132;-0.3038957;0.4901971;3.34318;-0.2201468;0.4953998;3.817314;-0.1485305;0.4688369;4.516078;0.07392044;0.1980892;4.828391;0.1364067;-0.1371781;4.662786;0.1540139;-0.615451;4.960351;-0.58154;-0.5708466;5.597592;-1.281348;0.7180586;4.848133;0.1364929;1.012563;4.706438;0.154205;1.799748;4.976113;-0.3314786;2.338208;5.623751;-0.765546;0.1720461;2.763768;-0.3184451;0.2166595;1.302319;-0.2633485;0;0;0;0.1720461;2.763768;-0.3184451;0.2166595;1.302319;-0.2633485;0;0;0
726596.4741;NotLabelled;NONE;16384;0.8729927;0.267313;0.3185596;0.2548476;11;7;-13;2704;-1058;2821;65536;0.9073005;0.3587258;-0.01523546;0.2188366;-17;7;19;-2003;-2558;-2377;8192;0.876391;0.2506925;-0.3088643;-0.2714681;11;-15;0;-2568;-1417;3025;32768;0.8785172;0.4127424;-0.1814404;-0.1578947;-26;-11;-3;1811;-2872;-2820;256;0.08448754;-0.08033241;-0.5886427;-0.7999427;-13;0;1;-375;4048;-1303;128;0.006925208;0.07894737;0.5498615;0.8314877;6;-4;-2;-221;3951;1530;4;-0.4764543;0.5027701;-0.5041551;-0.5157918;-3;-44;12;299;4286;-368;16;0.601108;-0.7733681;-0.1177285;-0.1634349;5;-9;4;13;4108;926;2;0.5441134;-0.4903047;-0.4418283;-0.5180055;3;2;-28;-553;3482;-755;8;0.6163435;-0.7616079;0.09556787;0.1759003;-25;-58;-28;-2567;3795;1595;0.4749552;2.805482;-0.2862304;0.4808703;3.344524;-0.2024454;0.486073;3.818653;-0.1307973;0.460043;4.518939;0.08688421;0.1895368;4.831883;0.1472154;-0.145863;4.666668;0.1659196;-0.628574;4.953969;-0.5708145;-0.5845075;5.582139;-1.27881;0.7095215;4.851215;0.1472156;1.003912;4.709411;0.1659203;1.791403;4.974277;-0.3219113;2.33149;5.617723;-0.7601696;0.1627194;2.765119;-0.3007829;0.2147375;1.303467;-0.2592067;0;0;0;0.1627194;2.765119;-0.3007829;0.2147375;1.303467;-0.2592067;0;0;0
726617.5226;NotLabelled;NONE;16384;0.8729246;0.2645429;0.3199446;0.2562327;10;13;-13;2826;-758;2863;65536;0.908658;0.3545706;-0.01108033;0.2202216;-18;12;21;-2157;-2226;-2325;8192;0.8776389;0.2493075;-0.3088643;-0.2686981;9;-18;-2;-2414;-1341;2683;32768;0.8804573;0.4085872;-0.1814404;-0.1578947;-22;-6;-1;1689;-2720;-2792;256;0.08587258;-0.08171745;-0.5927978;-0.7965795;-21;-4;6;-613;3786;-1145;128;0.005540166;0.08033241;0.5526316;0.8295266;17;-12;-9;215;3417;1176;4;-0.4750692;0.4986149;-0.5055401;-0.5197322;-2;-32;15;207;4208;-214;16;0.602493;-0.7727911;-0.1163435;-0.1620499;6;-12;3;147;3900;990;2;0.5497307;-0.4916897;-0.434903;-0.5166205;-14;-51;-13;-237;3410;1075;8;0.6080332;-0.7604547;0.1080332;0.200831;-12;-101;-39;489;2937;1531;0.4770659;2.805835;-0.2774496;0.482984;3.345158;-0.1954867;0.4881893;3.819526;-0.1254413;0.45967;4.520551;0.08953136;0.1880652;4.83279;0.1485701;-0.1467685;4.66649;0.1678044;-0.6330553;4.950412;-0.5678874;-0.5918007;5.57346;-1.280564;0.7079802;4.853917;0.1486609;1.002852;4.713203;0.1680055;1.788542;4.973223;-0.3253057;2.331315;5.606018;-0.7755899;0.1648295;2.765423;-0.2918539;0.2146517;1.303467;-0.2592779;0;0;0;0.1648295;2.765423;-0.2918539;0.2146517;1.303467;-0.2592779;0;0;0
726637.4619;NotLabelled;NONE;16384;0.8731454;0.2617728;0.3227147;0.2548476;8;22;-12;2706;-570;2801;65536;0.9097636;0.3518005;-0.008310249;0.2202216;-18;11;20;-2111;-2086;-2485;8192;0.8789396;0.2479224;-0.3074792;-0.267313;11;-13;-4;-2206;-1373;2653;32768;0.8819844;0.4058172;-0.1814404;-0.1565097;-16;1;1;1481;-2634;-2744;256;0.08587258;-0.08171745;-0.5955678;-0.7945106;-22;-9;7;-689;3436;-1045;128;0.004155125;0.08310249;0.5554016;0.827409;24;-13;-11;599;3153;1526;4;-0.4736842;0.4944598;-0.5069252;-0.5236026;-1;-26;16;15;4112;18;16;0.6038781;-0.7721219;-0.1135734;-0.1620499;6;-20;2;337;3934;934;2;0.5568935;-0.4930748;-0.4307479;-0.5110803;-12;-57;-5;57;2782;359;8;0.6038781;-0.7593553;0.1149584;0.2132964;-7;-81;-40;-483;3051;1057;0.474681;2.806941;-0.2662569;0.480605;3.346797;-0.1878854;0.4858154;3.82162;-0.1209987;0.4577139;4.524936;0.08641599;0.1863047;4.837974;0.1420226;-0.1486458;4.672115;0.1629562;-0.6333301;4.947558;-0.5770041;-0.5940635;5.562678;-1.296644;0.7062337;4.858751;0.1420226;1.001006;4.718056;0.1629564;1.787661;4.976306;-0.329746;2.333146;5.603685;-0.7843107;0.1624436;2.766433;-0.2803692;0.2136207;1.304372;-0.255553;0;0;0;0.1624436;2.766433;-0.2803692;0.2136207;1.304372;-0.255553;0;0;0
726659.6311;NotLabelled;NONE;16384;0.873756;0.2576177;0.3254848;0.2534626;7;26;-11;2386;-434;2675;65536;0.9113879;0.3476454;-0.004155125;0.2202216;-16;10;19;-2039;-1930;-2585;8192;0.8797489;0.2465374;-0.3074792;-0.265928;11;-7;-7;-2148;-1435;2579;32768;0.8826573;0.4044321;-0.1800554;-0.1578947;-11;7;3;1407;-2546;-2754;256;0.08725762;-0.08310249;-0.5983379;-0.7921312;-20;-11;7;-871;3226;-1029;128;0.002770083;0.08587258;0.5581717;0.8252651;23;-10;-11;677;3075;1540;4;-0.4722992;0.4861496;-0.5096953;-0.5299083;-2;-38;15;229;3894;-202;16;0.6066482;-0.7716061;-0.1080332;-0.1578947;4;-24;1;-137;3866;936;2;0.5626594;-0.4958449;-0.4265928;-0.5055401;-10;-54;0;-179;3190;-171;8;0.602493;-0.756617;0.1191136;0.2243767;-1;-58;-35;-153;3327;305;0.4760709;2.807686;-0.2533813;0.4820004;3.348049;-0.1785818;0.4872155;3.823304;-0.1148369;0.4596279;4.528049;0.08773684;0.1884573;4.841681;0.1411188;-0.1466331;4.67624;0.163099;-0.6339084;4.946821;-0.5769539;-0.5971594;5.556752;-1.30113;0.708403;4.862038;0.1411184;1.003056;4.721251;0.1630984;1.7876;4.979312;-0.3330568;2.332808;5.603719;-0.7920244;0.1638324;2.767086;-0.2672026;0.2162842;1.304957;-0.2502708;0;0;0;0.1638324;2.767086;-0.2672026;0.2162842;1.304957;-0.2502708;0;0;0
726680.4764;NotLabelled;NONE;16384;0.8746085;0.2534626;0.3296399;0.2493075;4;13;-9;2084;-384;2643;65536;0.9136741;0.3407202;0;0.2216066;-8;6;15;-1867;-1816;-2855;8192;0.8810987;0.2451524;-0.3047091;-0.265928;14;-5;-9;-1930;-1447;2527;32768;0.8835719;0.4030471;-0.1786704;-0.1578947;-7;10;6;1387;-2476;-2670;256;0.08864266;-0.08587258;-0.599723;-0.7906331;-17;-13;4;-907;3102;-1015;128;0.002770083;0.08864266;0.5609418;0.8230911;22;-7;-9;507;3121;1582;4;-0.4695291;0.4819945;-0.5110803;-0.5348091;-3;-38;9;347;4030;-282;16;0.6080332;-0.7714607;-0.1052632;-0.1551246;5;-21;1;-133;3910;924;2;0.5672367;-0.4986149;-0.4238227;-0.5;-7;-46;7;275;3200;-233;8;0.601108;-0.7549874;0.1204986;0.232687;7;-22;-33;935;3293;-15;0.4769217;2.809227;-0.2313952;0.4828565;3.350074;-0.1601837;0.4880762;3.825742;-0.09959418;0.46066;4.531971;0.09776725;0.1895764;4.846075;0.1487557;-0.1455741;4.68091;0.1718586;-0.631852;4.944585;-0.5713364;-0.5961082;5.546688;-1.302083;0.7095286;4.866263;0.1487556;1.004129;4.725548;0.1718587;1.790126;4.98246;-0.3225904;2.336521;5.605007;-0.7826725;0.1646823;2.768536;-0.2449241;0.2153723;1.306248;-0.244252;0;0;0;0.1646823;2.768536;-0.2449241;0.2153723;1.306248;-0.244252;0;0;0
726701.5506;NotLabelled;NONE;16384;0.8748794;0.2520775;0.3310249;0.2479224;3;7;-12;2138;-518;2629;65536;0.9146981;0.3379501;0.002770083;0.2216066;-3;3;12;-1719;-1890;-2973;8192;0.8831962;0.2409972;-0.301939;-0.265928;16;1;-10;-1962;-1321;2927;32768;0.8845332;0.4016621;-0.1745152;-0.1606648;-7;18;10;1285;-2550;-2516;256;0.0900277;-0.08725762;-0.601108;-0.789272;-12;-13;1;-827;3122;-1003;128;0.001385042;0.0900277;0.5637119;0.8210493;15;-8;-8;77;3259;1652;4;-0.468144;0.4778393;-0.5138504;-0.5370927;-7;-35;1;247;4418;-416;16;0.6094183;-0.7708326;-0.1038781;-0.1537396;6;-19;2;-23;4014;1030;2;0.5672299;-0.501385;-0.4238227;-0.4972299;-2;-17;11;513;3180;-303;8;0.6038781;-0.7523441;0.1204986;0.234072;8;9;-17;2047;3493;-49;0.4718068;2.809819;-0.2221841;0.4777467;3.351122;-0.1545312;0.4829706;3.827178;-0.09707144;0.4566734;4.534228;0.09748299;0.1860931;4.848973;0.1471834;-0.149329;4.684446;0.1708897;-0.6344957;4.942376;-0.5750425;-0.5970488;5.532259;-1.315605;0.7060775;4.868316;0.1471833;1.000445;4.727215;0.1708898;1.786125;4.983833;-0.3242172;2.333756;5.605175;-0.7844568;0.1595664;2.76904;-0.2354227;0.2147183;1.306924;-0.2411896;0;0;0;0.1595664;2.76904;-0.2354227;0.2147183;1.306924;-0.2411896;0;0;0
726723.4734;NotLabelled;NONE;16384;0.8742246;0.2506925;0.333795;0.2479224;1;2;-15;2200;-794;2701;65536;0.9146854;0.3379501;0.005540166;0.2216066;1;1;11;-1583;-2150;-2911;8192;0.8845147;0.2396122;-0.299169;-0.265928;16;2;-9;-1950;-1313;2973;32768;0.8850752;0.4016621;-0.1717452;-0.1606648;-10;15;11;1293;-2496;-2442;256;0.09418282;-0.0900277;-0.602493;-0.7874178;-4;-13;0;-451;3626;-1155;128;0;0.09418282;0.5650969;0.819631;12;-13;-9;-391;3809;1602;4;-0.4653739;0.4750692;-0.5180055;-0.5379652;-14;-33;-7;5;4586;-498;16;0.6108033;-0.7706521;-0.101108;-0.1509695;8;-31;1;469;3986;1124;2;0.5635469;-0.5041551;-0.4238227;-0.4986149;28;32;5;1;4184;-433;8;0.6080332;-0.7500522;0.1218837;0.2299169;26;-6;6;1561;5683;841;0.4747437;2.810911;-0.214371;0.4806884;3.352658;-0.1503674;0.4859164;3.829091;-0.09611708;0.4595609;4.536904;0.09563173;0.1889601;4.851832;0.1440454;-0.1464585;4.687385;0.1683535;-0.6298419;4.943405;-0.579392;-0.5920956;5.527985;-1.324133;0.7089437;4.871196;0.1440453;1.003314;4.730202;0.1683539;1.787249;4.982147;-0.3318903;2.333123;5.60223;-0.7959034;0.1625023;2.770044;-0.2273114;0.2136261;1.307805;-0.2373567;0;0;0;0.1625023;2.770044;-0.2273114;0.2136261;1.307805;-0.2373567;0;0;0
726744.4585;NotLabelled;NONE;16384;0.8736967;0.2493075;0.33518;0.2493075;2;2;-19;2422;-1006;2851;65536;0.9148501;0.3365651;0.006925208;0.2229917;3;-5;10;-1349;-2494;-2747;8192;0.8853558;0.2382271;-0.2977839;-0.265928;21;5;-4;-2174;-1415;3241;32768;0.8857284;0.400277;-0.1689751;-0.1634349;-17;15;12;1119;-2658;-2204;256;0.09556787;-0.09141274;-0.602493;-0.7870913;-6;-13;2;-271;3968;-1075;128;0;0.09695291;0.566482;0.8183509;14;-17;-10;-837;4151;2242;4;-0.4626039;0.4736842;-0.5207756;-0.5389004;-12;-28;-17;351;3866;-778;16;0.6121883;-0.7709682;-0.09418282;-0.1481994;6;-43;2;775;4204;1120;2;0.557336;-0.5069252;-0.4238227;-0.5027701;45;26;21;-993;6046;-541;8;0.6108033;-0.7469137;0.1246537;0.2313019;24;-7;-6;-2323;6451;1717;0.4804577;2.811837;-0.2146381;0.4864047;3.35379;-0.1524021;0.4916346;3.830397;-0.09970629;0.4633783;4.539091;0.08848923;0.1919401;4.853543;0.1352742;-0.1430494;4.688338;0.1603434;-0.6229635;4.940536;-0.5909276;-0.5826972;5.523944;-1.336455;0.7118708;4.874277;0.1352739;1.006606;4.734181;0.1603434;1.792032;4.985795;-0.3377264;2.338496;5.607133;-0.7993572;0.1682159;2.770928;-0.2274341;0.2137219;1.308482;-0.2335079;0;0;0;0.1682159;2.770928;-0.2274341;0.2137219;1.308482;-0.2335079;0;0;0
726765.4648;NotLabelled;NONE;16384;0.8724861;0.2479224;0.3393352;0.2493075;9;0;-25;2550;-1286;3199;65536;0.9140005;0.3379501;0.006925208;0.2243767;-1;-15;12;-1309;-3106;-2631;8192;0.886511;0.234072;-0.2963989;-0.267313;29;8;2;-2450;-1397;3713;32768;0.8868788;0.398892;-0.1648199;-0.1648199;-26;20;12;1259;-2992;-2214;256;0.09833795;-0.09279778;-0.6038781;-0.785525;-3;-17;4;-25;4386;-1125;128;-0.001385042;0.09972299;0.5692521;0.8160916;26;-7;-9;-1257;4917;1580;4;-0.4612188;0.4736842;-0.5221606;-0.5387474;-1;16;-5;227;4060;-648;16;0.6149584;-0.7704654;-0.08864266;-0.1426593;12;-9;12;-1339;4176;884;2;0.5535282;-0.5110803;-0.4238227;-0.5027701;22;0;20;-1597;6708;785;8;0.6121883;-0.745779;0.1246537;0.2313019;11;-1;1;-2747;4331;1935;0.4875838;2.811816;-0.2147706;0.4935329;3.353968;-0.1542897;0.4987647;3.830743;-0.1031374;0.4701852;4.539525;0.08467562;0.1986043;4.85388;0.1312851;-0.1363113;4.688538;0.156436;-0.6152329;4.936752;-0.5967923;-0.5741977;5.517264;-1.344535;0.7185256;4.874848;0.1312851;1.013324;4.734899;0.1564364;1.798937;4.985244;-0.3419755;2.345558;5.604712;-0.8059304;0.1753415;2.770866;-0.2274229;0.219265;1.308359;-0.2290118;0;0;0;0.1753415;2.770866;-0.2274229;0.219265;1.308359;-0.2290118;0;0;0
726785.688;NotLabelled;NONE;16384;0.8706713;0.2423823;0.3448753;0.2534626;11;1;-25;3118;-1056;3689;65536;0.9151269;0.333795;0.01246537;0.2257618;-11;24;24;-2757;-3160;-3061;8192;0.8868604;0.2313019;-0.2950138;-0.2700831;24;4;1;-2778;-1053;3377;32768;0.8889874;0.3947368;-0.1620499;-0.166205;-33;5;4;2019;-3162;-2512;256;0.09972299;-0.09695291;-0.602493;-0.785912;-1;-14;8;99;5146;-1323;128;-0.001385042;0.101108;0.5720221;0.8139815;18;-5;-5;-807;5037;1848;4;-0.4612188;0.4764543;-0.5207756;-0.5376441;5;7;-6;-319;4086;-380;16;0.6177285;-0.7684048;-0.08725762;-0.1426593;13;-17;11;159;3858;418;2;0.5522462;-0.5124654;-0.4238227;-0.5027701;-1;-4;0;-1429;4664;1987;8;0.6121883;-0.7455783;0.1232687;0.232687;10;0;0;-2755;2709;1647;0.4855932;2.813315;-0.2143568;0.4915466;3.355861;-0.1575215;0.496782;3.832969;-0.1095752;0.4666583;4.542535;0.07501093;0.1944003;4.85652;0.1201425;-0.1401676;4.690581;0.1459832;-0.6210868;4.934076;-0.6075129;-0.5776474;5.516427;-1.353687;0.7142759;4.878594;0.120142;1.009366;4.739389;0.1459826;1.796022;4.983075;-0.3540812;2.340759;5.601941;-0.8210435;0.17335;2.772281;-0.2267106;0.2161905;1.309744;-0.223964;0;0;0;0.17335;2.772281;-0.2267106;0.2161905;1.309744;-0.223964;0;0;0
726807.5305;NotLabelled;NONE;16384;0.8699539;0.2409972;0.3476454;0.2534626;1;12;-16;3142;-1008;3625;65536;0.9170805;0.3310249;0.0166205;0.2216066;-16;32;26;-2475;-2972;-3023;8192;0.888356;0.2257618;-0.2922437;-0.2728532;16;2;-6;-2838;-643;2833;32768;0.8926311;0.3864266;-0.1620499;-0.166205;-35;-9;0;2149;-2756;-2402;256;0.101108;-0.09972299;-0.6038781;-0.7843238;-6;-10;6;-103;4132;-1033;128;-0.002770083;0.1024931;0.5720221;0.8138047;-12;-6;-4;-177;4065;1854;4;-0.4598338;0.4778393;-0.5207756;-0.5376014;12;-7;-7;-43;3970;-48;16;0.6204986;-0.7668879;-0.08310249;-0.1412742;6;-36;7;831;3862;366;2;0.5535039;-0.5124654;-0.4238227;-0.501385;-15;-3;-4;-607;4146;1545;8;0.6149584;-0.7439724;0.1191136;0.232687;7;26;7;-2161;3631;709;0.4822047;2.815058;-0.2087605;0.4881623;3.357973;-0.1555636;0.4934011;3.835391;-0.1108167;0.4650719;4.544499;0.07580125;0.1936044;4.859033;0.1218635;-0.1413742;4.693857;0.1472701;-0.6233937;4.922364;-0.6102071;-0.5807886;5.495842;-1.363271;0.7135336;4.879808;0.121863;1.008278;4.739793;0.1472696;1.797864;4.978039;-0.3507943;2.344515;5.591937;-0.8220561;0.1699606;2.773942;-0.2208159;0.2163493;1.311531;-0.2130889;0;0;0;0.1699606;2.773942;-0.2208159;0.2163493;1.311531;-0.2130889;0;0;0
726828.4828;NotLabelled;NONE;16384;0.8696274;0.2396122;0.3504155;0.2520775;-4;22;-12;2954;-852;3581;65536;0.9186554;0.3282548;0.02077562;0.2188366;-15;31;23;-2313;-2612;-3181;8192;0.8887349;0.2243767;-0.2908587;-0.2742382;15;-6;-5;-3112;-743;2689;32768;0.8950005;0.3808864;-0.1606648;-0.16759;-31;0;-2;1797;-2596;-2486;256;0.101108;-0.101108;-0.6038781;-0.7841464;-1;-3;5;-201;3510;-1067;128;-0.002770083;0.1038781;0.5692521;0.8155696;-25;-9;-5;131;3251;1636;4;-0.4584487;0.4778393;-0.5207756;-0.538783;7;-4;-3;465;4054;280;16;0.6218836;-0.7668517;-0.07756232;-0.1385041;2;-34;6;269;3942;622;2;0.5564524;-0.5083103;-0.4265928;-0.5;-20;11;0;-587;3882;791;8;0.6177285;-0.7446772;0.1135734;0.2257618;5;93;11;-2069;3991;811;0.4810455;2.816217;-0.2039481;0.4870032;3.359134;-0.1507736;0.492242;3.836554;-0.1060463;0.4651316;4.54646;0.07769654;0.194211;4.861655;0.1224418;-0.1410617;4.697173;0.1484622;-0.6219763;4.921824;-0.6108679;-0.5771227;5.490077;-1.367753;0.7141759;4.881515;0.1224416;1.00867;4.741085;0.1484623;1.798341;4.970388;-0.353647;2.349899;5.572955;-0.833734;0.1688015;2.775101;-0.2160018;0.2181254;1.312822;-0.2030937;0;0;0;0.1688015;2.775101;-0.2160018;0.2181254;1.312822;-0.2030937;0;0;0
726848.4861;NotLabelled;NONE;16384;0.8700817;0.2382271;0.3531856;0.2479224;-7;27;-9;2644;-1004;3149;65536;0.9201921;0.3254848;0.02493075;0.2160665;-9;24;17;-2079;-2380;-3375;8192;0.8898814;0.2216066;-0.2894737;-0.2742382;19;-9;-9;-2826;-977;2409;32768;0.8959142;0.3781163;-0.1606648;-0.1689751;-23;10;-3;1677;-2592;-2686;256;0.1024931;-0.1024931;-0.6038781;-0.7837867;-1;-5;0;161;3328;-1365;128;-0.004155125;0.1052632;0.5650969;0.8182713;10;1;0;-529;3203;1158;4;-0.4584487;0.4778393;-0.5207756;-0.538783;7;3;-3;685;4030;86;16;0.6232687;-0.766251;-0.07479224;-0.1371191;2;-14;9;107;4002;798;2;0.5586115;-0.5027701;-0.433518;-0.4972299;-21;37;0;477;4052;193;8;0.6288089;-0.7499076;0.07894737;0.1897507;0;175;27;163;4247;729;0.4802975;2.816111;-0.2009752;0.4862509;3.358651;-0.1440887;0.4914863;3.835755;-0.09609726;0.4655898;4.545709;0.08763406;0.1952085;4.861367;0.1323741;-0.1403449;4.697459;0.1583971;-0.6228631;4.919329;-0.6007335;-0.5796695;5.482111;-1.361791;0.7152065;4.880338;0.1323737;1.009459;4.739406;0.1583968;1.798965;4.966453;-0.3449973;2.351812;5.561373;-0.8330739;0.1680544;2.775078;-0.2133331;0.2209614;1.312935;-0.1992593;0;0;0;0.1680544;2.775078;-0.2133331;0.2209614;1.312935;-0.1992593;0;0;0
726868.5621;NotLabelled;NONE;16384;0.8697377;0.2382271;0.3559557;0.2451524;-6;20;-7;2116;-1118;2791;65536;0.9209256;0.3240997;0.02770083;0.2146814;0;11;9;-1711;-2254;-3397;8192;0.8905882;0.2188366;-0.2880886;-0.2756233;25;-1;-9;-2548;-979;2481;32768;0.8965521;0.3753462;-0.1606648;-0.1717452;-16;20;-1;1683;-2410;-2750;256;0.1024931;-0.1038781;-0.6038781;-0.7836044;-2;-6;0;239;3602;-1227;128;-0.002770083;0.1038781;0.5692521;0.8155696;26;7;4;-727;3537;1180;4;-0.4584487;0.4778393;-0.5193906;-0.5401183;-1;13;-4;791;4034;-690;16;0.6232687;-0.7662673;-0.07202215;-0.1385041;0;-3;9;581;3784;830;2;0.5531815;-0.5;-0.4404432;-0.5;-10;71;5;731;3648;-757;8;0.632964;-0.7508727;0.06786703;0.1759003;6;88;12;2999;4221;119;0.4813312;2.816524;-0.1960331;0.4872781;3.358464;-0.1336833;0.4925079;3.83506;-0.08088753;0.466305;4.545109;0.1024328;0.1957883;4.860678;0.1469845;-0.1396958;4.696642;0.1730948;-0.621969;4.917904;-0.5863684;-0.5791683;5.475219;-1.35146;0.7157782;4.87987;0.1469845;1.010091;4.739078;0.1730955;1.799695;4.962595;-0.3317201;2.355969;5.553051;-0.8213227;0.1690895;2.775618;-0.2088383;0.2219407;1.313475;-0.1945569;0;0;0;0.1690895;2.775618;-0.2088383;0.2219407;1.313475;-0.1945569;0;0;0
726889.4808;NotLabelled;NONE;16384;0.8684155;0.2382271;0.3601108;0.2437673;-4;-2;-7;2096;-1268;2671;65536;0.9207162;0.3254848;0.02908587;0.2132964;15;-1;0;-1523;-2342;-3211;8192;0.8917258;0.2160665;-0.2853186;-0.2770083;27;7;-6;-2396;-981;2693;32768;0.8965724;0.3739612;-0.1592798;-0.1759003;-13;28;1;1749;-2502;-2770;256;0.1024931;-0.1052632;-0.6038781;-0.7834195;-4;-6;0;37;3896;-1161;128;-0.002770083;0.1024931;0.5720221;0.8138047;25;6;6;-605;3947;1542;4;-0.4639889;0.4861496;-0.5124654;-0.5345579;7;57;-12;83;3994;-474;16;0.6232687;-0.7662711;-0.06925207;-0.1398892;-3;-3;9;239;3786;758;2;0.5451208;-0.4944598;-0.4487534;-0.5069252;2;92;10;-37;3256;-985;8;0.6357341;-0.7504868;0.06371191;0.1689751;18;34;5;2679;3433;617;0.4839178;2.81577;-0.1899984;0.4898712;3.35831;-0.1331119;0.4951066;3.835414;-0.0851205;0.4701188;4.545509;0.09818828;0.2001426;4.861541;0.1427348;-0.1356218;4.698081;0.1688477;-0.6208733;4.919744;-0.588599;-0.5792795;5.474032;-1.355952;0.7201646;4.879844;0.1427346;1.014236;4.738549;0.168848;1.802825;4.957573;-0.3395114;2.362536;5.542935;-0.8313079;0.1716746;2.774737;-0.2023563;0.2292718;1.312748;-0.190928;0;0;0;0.1716746;2.774737;-0.2023563;0.2292718;1.312748;-0.190928;0;0;0
726910.4536;NotLabelled;NONE;16384;0.8680344;0.2396122;0.3601108;0.2437673;-5;-4;-8;2226;-1414;2823;65536;0.9202254;0.3268698;0.02908587;0.2132964;16;-8;-1;-1265;-2488;-2885;8192;0.8930694;0.2105263;-0.2811634;-0.2811634;29;9;-1;-2632;-903;3403;32768;0.8970665;0.3711911;-0.1551246;-0.1828255;-16;21;3;2021;-2580;-2822;256;0.1038781;-0.1052632;-0.6038781;-0.783237;-4;-7;-2;-79;4154;-1205;128;-0.004155125;0.1024931;0.5734072;0.8128235;9;1;5;-571;3965;2116;4;-0.466759;0.4916897;-0.5083103;-0.5310348;4;45;-17;-87;4274;60;16;0.6232687;-0.766395;-0.06786703;-0.1398892;0;-6;5;269;4370;998;2;0.5389183;-0.4903047;-0.4529086;-0.5138504;12;67;7;-2139;3586;-1189;8;0.6371191;-0.7498116;0.06509695;0.166205;12;-19;1;47;4387;1389;0.4860419;2.814831;-0.190977;0.4919994;3.357748;-0.1378025;0.4972382;3.835168;-0.09307516;0.4734658;4.545309;0.09022272;0.2040309;4.861803;0.1347642;-0.1320128;4.698917;0.1608795;-0.6220422;4.919033;-0.5939382;-0.5813134;5.475122;-1.360034;0.7240834;4.879216;0.1347641;1.017912;4.737418;0.1608798;1.804426;4.952868;-0.3522021;2.366172;5.535087;-0.8454051;0.1737978;2.773715;-0.2030306;0.2365804;1.31198;-0.1872584;0;0;0;0.1737978;2.773715;-0.2030306;0.2365804;1.31198;-0.1872584;0;0;0
726930.6586;NotLabelled;NONE;16384;0.8670747;0.2409972;0.3614958;0.2437673;-2;-7;-10;2336;-1232;3193;65536;0.9192368;0.3296399;0.02908587;0.2132964;14;-3;1;-1477;-2636;-2661;8192;0.893602;0.2063712;-0.2811634;-0.2825485;24;-1;-1;-2844;-589;3569;32768;0.8973081;0.3698061;-0.1537396;-0.1855956;-20;9;0;2381;-2596;-3026;256;0.1052632;-0.1066482;-0.6038781;-0.7828647;-1;-5;-2;19;4238;-1483;128;-0.004155125;0.101108;0.5734072;0.812997;-1;0;5;-725;3999;1896;4;-0.466759;0.4944598;-0.5069252;-0.5297853;1;21;-8;-115;3778;134;16;0.6232687;-0.7661409;-0.06786703;-0.1412742;-2;12;4;371;3836;876;2;0.5362633;-0.4903047;-0.4529086;-0.5166205;13;-8;0;-2837;4318;-497;8;0.6371191;-0.7492576;0.06786703;0.16759;6;-9;0;-2127;4249;1599;0.4847983;2.814327;-0.1948946;0.4907579;3.357427;-0.1436237;0.4959984;3.835001;-0.1005705;0.4706774;4.545194;0.08231712;0.2005596;4.861138;0.1266283;-0.1351406;4.697551;0.1527752;-0.622761;4.922371;-0.6022157;-0.5815883;5.480574;-1.36675;0.720574;4.87966;0.1267135;1.0147;4.738504;0.152964;1.798583;4.946772;-0.3670622;2.360281;5.523981;-0.8661742;0.1725538;2.773169;-0.2067919;0.2392035;1.311666;-0.1861203;0;0;0;0.1725538;2.773169;-0.2067919;0.2392035;1.311666;-0.1861203;0;0;0
726951.5958;NotLabelled;NONE;16384;0.8661051;0.2409972;0.3628809;0.2451524;-5;-3;-11;2530;-1080;3267;65536;0.9181938;0.33241;0.03047091;0.2132964;9;8;4;-1641;-2638;-2525;8192;0.8946714;0.2036011;-0.2797784;-0.2825485;16;-10;-3;-2788;-547;3397;32768;0.8984448;0.367036;-0.1537396;-0.1855956;-22;0;-1;2523;-2584;-3220;256;0.1066482;-0.1080332;-0.602493;-0.7835541;0;-7;0;-15;3762;-1073;128;-0.005540166;0.1024931;0.5720221;0.8137906;-1;-9;2;-515;3707;1506;4;-0.468144;0.4944598;-0.5069252;-0.5285618;-3;-3;6;387;3670;726;16;0.6218836;-0.7662385;-0.07063711;-0.1454294;-11;45;4;175;3074;506;2;0.5435825;-0.4972299;-0.4459834;-0.5083103;-10;-48;4;-425;4494;443;8;0.6398892;-0.7487108;0.06094183;0.1620499;7;46;11;-1133;3945;727;0.4848559;2.813932;-0.1974284;0.4908155;3.357035;-0.146193;0.4960561;3.834612;-0.1031709;0.4704638;4.544903;0.07929801;0.2002201;4.86076;0.1234601;-0.1354079;4.697048;0.1497523;-0.624657;4.920399;-0.6046208;-0.5826286;5.482814;-1.366014;0.7202265;4.8795;0.1234597;1.014415;4.738482;0.149752;1.798861;4.937224;-0.373145;2.362465;5.511921;-0.8730075;0.1726114;2.772773;-0.2093229;0.2422353;1.311493;-0.1834008;0;0;0;0.1726114;2.772773;-0.2093229;0.2422353;1.311493;-0.1834008;0;0;0
726972.4695;NotLabelled;NONE;16384;0.8645522;0.2423823;0.365651;0.2451524;-7;2;-11;2640;-988;3225;65536;0.9179649;0.333795;0.03185596;0.2119114;2;15;9;-1565;-2726;-2369;8192;0.8958532;0.2022161;-0.2783934;-0.2811634;9;-8;-4;-2618;-699;3421;32768;0.900131;0.3628809;-0.1537396;-0.1855956;-22;-7;0;2505;-2626;-3272;256;0.1066482;-0.1094183;-0.602493;-0.7833619;1;-8;0;-199;3746;-1177;128;-0.006925208;0.1024931;0.5720221;0.81378;-3;-7;0;-255;3671;1786;4;-0.4695291;0.4916897;-0.5069252;-0.5299156;-7;-6;20;755;4432;534;16;0.6191136;-0.7671505;-0.07617728;-0.1495845;-18;55;2;241;3884;572;2;0.5473158;-0.5;-0.4445983;-0.5027701;-12;-24;9;-159;3954;9;8;0.6426592;-0.7477365;0.05817174;0.1565097;4;26;10;393;4155;593;0.4937448;2.813231;-0.1956093;0.4997025;3.35616;-0.1425631;0.5049415;3.833592;-0.09794867;0.4787283;4.543334;0.08655351;0.2081989;4.858809;0.131688;-0.1272676;4.694706;0.1576012;-0.6135592;4.913548;-0.5999988;-0.5730939;5.479573;-1.358798;0.7281874;4.87804;0.1316044;1.022516;4.737226;0.1574168;1.808751;4.930614;-0.3647979;2.374749;5.501391;-0.8664432;0.1815007;2.772112;-0.2076522;0.2473763;1.310643;-0.1826104;0;0;0;0.1815007;2.772112;-0.2076522;0.2473763;1.310643;-0.1826104;0;0;0
726992.4663;NotLabelled;NONE;16384;0.8631755;0.2423823;0.3698061;0.2437673;-8;2;-12;2538;-1066;3203;65536;0.9184465;0.333795;0.03601108;0.2091413;-4;15;12;-1539;-2742;-2463;8192;0.8961647;0.200831;-0.2783934;-0.2811634;5;-4;-4;-2646;-929;3239;32768;0.9012429;0.3601108;-0.1537396;-0.1855956;-19;-9;2;2367;-2590;-3264;256;0.1080332;-0.1108033;-0.601108;-0.7840412;3;-10;1;-237;3938;-1453;128;-0.008310249;0.1038781;0.5706371;0.8145635;0;-7;-2;-417;3851;1618;4;-0.4736842;0.4861496;-0.5083103;-0.5300024;-15;-18;11;-771;4052;340;16;0.6135734;-0.7693629;-0.08171745;-0.1578947;-21;2;-4;1139;3980;992;2;0.5474595;-0.501385;-0.4459834;-0.5;-11;-4;9;-143;3864;-535;8;0.6426592;-0.7487658;0.05955679;0.1509695;3;13;5;1035;4105;315;0.4980351;2.812266;-0.1918511;0.5039929;3.355203;-0.1388742;0.5092319;3.832639;-0.0943206;0.4842036;4.542429;0.09016608;0.2142072;4.858367;0.1352519;-0.1215439;4.694839;0.1611136;-0.614167;4.916467;-0.5915697;-0.5744591;5.48428;-1.349071;0.7342278;4.876707;0.1352518;1.028311;4.73539;0.1611138;1.811723;4.930092;-0.3648437;2.379709;5.494953;-0.8709176;0.1857909;2.771146;-0.2038886;0.2498172;1.30947;-0.187634;0;0;0;0.1857909;2.771146;-0.2038886;0.2498172;1.30947;-0.187634;0;0;0
727013.5679;NotLabelled;NONE;16384;0.8621903;0.2437673;0.3711911;0.2437673;-7;2;-11;2628;-1164;2925;65536;0.9186481;0.333795;0.03878116;0.2077562;-4;16;10;-1837;-2676;-2605;8192;0.8965938;0.200831;-0.2770083;-0.2811634;2;-3;-6;-2772;-835;2913;32768;0.902079;0.3587258;-0.1537396;-0.1842105;-12;-7;4;2211;-2434;-3264;256;0.1094183;-0.1121884;-0.599723;-0.7847125;1;-13;3;99;3958;-1325;128;-0.008310249;0.1052632;0.5706371;0.8143856;-3;-11;-4;-779;3819;1528;4;-0.4736842;0.4819945;-0.5124654;-0.5297961;-16;-29;3;-607;3626;94;16;0.6108033;-0.7726918;-0.07617728;-0.1551246;-20;-61;-7;1589;3690;1204;2;0.5463282;-0.501385;-0.4473684;-0.5;-6;11;10;-261;3874;-747;8;0.6440443;-0.7481289;0.05955679;0.1481994;4;12;3;343;4097;45;0.5241365;2.809073;-0.182667;0.5300924;3.351831;-0.1278915;0.5353297;3.829117;-0.08175656;0.5096423;4.538356;0.1047479;0.2393488;4.853907;0.1507578;-0.09624323;4.689985;0.1761887;-0.5925077;4.910057;-0.5745572;-0.5552696;5.476695;-1.333063;0.7593518;4.872744;0.1507578;1.053572;4.731635;0.1761889;1.838789;4.924064;-0.3479106;2.409271;5.484957;-0.855588;0.2118929;2.767993;-0.1948518;0.2636527;1.305741;-0.1945607;0;0;0;0.2118929;2.767993;-0.1948518;0.2636527;1.305741;-0.1945607;0;0;0
727035.5437;NotLabelled;NONE;16384;0.8609902;0.2451524;0.3739612;0.2423823;-6;7;-8;2448;-1288;2807;65536;0.9194027;0.33241;0.0401662;0.2063712;-2;12;8;-1717;-2658;-2771;8192;0.8974449;0.200831;-0.2742382;-0.2811634;4;2;-8;-2642;-659;2695;32768;0.9028633;0.3573407;-0.1523546;-0.1842105;4;10;9;2125;-2290;-2938;256;0.1094183;-0.1149584;-0.599723;-0.7843115;0;-12;4;407;3786;-1031;128;-0.008310249;0.1066482;0.5692521;0.8151743;-5;-10;-3;-945;3577;1526;4;-0.4709141;0.4778393;-0.5166205;-0.5319895;-15;-43;-3;-485;3898;116;16;0.6108033;-0.775439;-0.06371191;-0.1468144;-19;-107;-11;1521;3688;1290;2;0.5439177;-0.501385;-0.4487534;-0.501385;4;17;13;-551;3760;-865;8;0.6454294;-0.7475877;0.05817174;0.1454294;2;21;3;-509;4011;249;0.5456167;2.806261;-0.1878635;0.5515725;3.349016;-0.1330539;0.5568098;3.826299;-0.08688888;0.530458;4.534982;0.1016228;0.259865;4.850141;0.1485527;-0.07556599;4.685823;0.1735543;-0.571937;4.907041;-0.576784;-0.5356426;5.472811;-1.335984;0.7798495;4.869479;0.1485524;1.074208;4.728583;0.1735541;1.859853;4.921928;-0.3495666;2.431753;5.481429;-0.8571835;0.233373;2.765182;-0.2000512;0.273045;1.302555;-0.2027932;0;0;0;0.233373;2.765182;-0.2000512;0.273045;1.302555;-0.2027932;0;0;0
727056.7109;NotLabelled;NONE;16384;0.8607763;0.2451524;0.3753462;0.2409972;-4;9;-8;2322;-1390;2893;65536;0.9196509;0.33241;0.04155125;0.2049861;0;4;4;-1559;-2598;-2879;8192;0.8974321;0.200831;-0.2728532;-0.2825485;6;11;-7;-2582;-591;2837;32768;0.9024935;0.3587258;-0.1495845;-0.1855956;7;18;10;2071;-2306;-2858;256;0.1094183;-0.1163435;-0.599723;-0.7841073;1;-11;4;381;3654;-1183;128;-0.008310249;0.1094183;0.5692521;0.8148071;-2;-12;-2;-933;3493;1358;4;-0.468144;0.4736842;-0.5221606;-0.5327408;-12;-51;-8;-31;3976;-144;16;0.6108033;-0.7783762;-0.05124654;-0.1357341;-18;-101;-11;89;4152;974;2;0.5400651;-0.5041551;-0.4487534;-0.5027701;8;9;17;-903;3952;-697;8;0.6468144;-0.7468688;0.05540166;0.1440443;0;22;3;-817;4063;411;0.5576537;2.804229;-0.1910113;0.5636073;3.346792;-0.1343319;0.5688429;3.823913;-0.0865224;0.5449092;4.532688;0.1019661;0.2753932;4.84877;0.1488853;-0.06059672;4.685599;0.1738918;-0.5585157;4.908192;-0.5750132;-0.5193702;5.471586;-1.335836;0.7954407;4.866334;0.1488851;1.089317;4.724435;0.1738919;1.874151;4.919611;-0.3497663;2.446642;5.477759;-0.8582079;0.2454104;2.763192;-0.2033524;0.2801315;1.300441;-0.2066598;0;0;0;0.2454104;2.763192;-0.2033524;0.2801315;1.300441;-0.2066598;0;0;0
727077.4655;NotLabelled;NONE;16384;0.8611629;0.2451524;0.3753462;0.2396122;-2;4;-5;2236;-1384;2847;65536;0.9196509;0.33241;0.04155125;0.2049861;2;0;1;-1575;-2574;-3015;8192;0.8972846;0.199446;-0.2714681;-0.2853186;5;14;-8;-2680;-477;2977;32768;0.9016557;0.3601108;-0.1495845;-0.1869806;9;15;8;2083;-2240;-2836;256;0.1108033;-0.1218837;-0.5983379;-0.7841293;2;-13;3;253;3810;-1217;128;-0.01108033;0.1121884;0.5692521;0.8143973;4;-16;-4;-659;3713;1520;4;-0.4639889;0.4695291;-0.5263157;-0.5359557;-5;-45;-3;769;3618;-142;16;0.6108033;-0.7798141;-0.04709141;-0.1288089;-12;-38;-2;-1287;4064;586;2;0.5386049;-0.5083103;-0.4473684;-0.501385;4;-33;15;-1669;3998;-103;8;0.6468144;-0.7471346;0.05540166;0.1426593;-7;-20;4;-153;3861;367;0.5693043;2.802809;-0.2011898;0.575258;3.345364;-0.1444381;0.5804935;3.822479;-0.09656525;0.5577706;4.531296;0.09191252;0.2887948;4.847838;0.1388283;-0.0474729;4.685242;0.1638392;-0.5441552;4.907978;-0.5858434;-0.504874;5.471095;-1.346864;0.8088716;4.864515;0.138825;1.102505;4.722115;0.1638324;1.88825;4.917242;-0.3584754;2.458527;5.478082;-0.8664424;0.2570612;2.761773;-0.2135366;0.2817522;1.298814;-0.2145326;0;0;0;0.2570612;2.761773;-0.2135366;0.2817522;1.298814;-0.2145326;0;0;0
727097.4492;NotLabelled;NONE;16384;0.8601621;0.2465374;0.3767313;0.2396122;-2;-1;-4;2224;-1320;2871;65536;0.9191491;0.333795;0.04155125;0.2049861;4;-2;-1;-1541;-2610;-3071;8192;0.8968173;0.199446;-0.2700831;-0.2880886;3;9;-8;-2804;-519;3075;32768;0.9001939;0.3628809;-0.1481994;-0.1897507;8;10;7;2187;-2268;-2826;256;0.1121884;-0.1232687;-0.5969529;-0.7847712;1;-10;2;257;3892;-1069;128;-0.01108033;0.1149584;0.567867;0.8149778;-5;-13;-4;-507;3809;1772;4;-0.4639889;0.4653739;-0.5263157;-0.5395675;2;11;9;1233;4468;140;16;0.6108033;-0.7802666;-0.04709141;-0.1260388;-1;3;6;171;3990;1108;2;0.5432507;-0.5110803;-0.4432133;-0.4972299;1;-55;4;-1673;4056;-131;8;0.6454294;-0.7474786;0.05955679;0.1454294;-10;-29;3;-453;4101;309;0.5680453;2.802807;-0.2062337;0.5739989;3.345371;-0.149576;0.5792345;3.822495;-0.1017857;0.5594545;4.530876;0.08865695;0.2917925;4.848395;0.1364718;-0.04514246;4.687121;0.1610599;-0.5352086;4.911095;-0.5925978;-0.4878851;5.474212;-1.353161;0.8119338;4.862923;0.1364717;1.104978;4.719241;0.16106;1.893803;4.911295;-0.3577319;2.469936;5.47354;-0.8574708;0.255802;2.761769;-0.2185729;0.2788073;1.298782;-0.2185349;0;0;0;0.255802;2.761769;-0.2185729;0.2788073;1.298782;-0.2185349;0;0;0
727117.5129;NotLabelled;NONE;16384;0.8593767;0.2479224;0.3767313;0.2409972;-1;-7;-2;2534;-1178;3389;65536;0.9187065;0.33518;0.0401662;0.2049861;3;-4;-1;-1599;-2640;-3039;8192;0.8972333;0.199446;-0.2686981;-0.2880886;0;8;-6;-2596;-531;3283;32768;0.9001939;0.3628809;-0.1481994;-0.1897507;6;6;5;2139;-2262;-2836;256;0.1121884;-0.1246537;-0.5969529;-0.7845524;3;-9;0;217;4180;-1323;128;-0.01246537;0.1163435;0.566482;0.8157248;-6;-11;-3;-537;4041;1750;4;-0.466759;0.466759;-0.5235457;-0.5386761;-6;40;8;441;4792;584;16;0.6108033;-0.780349;-0.04570637;-0.1260388;-9;-17;2;1787;4118;1664;2;0.54764;-0.5138504;-0.4376731;-0.4944598;1;-54;-4;-1033;4214;-119;8;0.6440443;-0.7477865;0.06371191;0.1481994;-7;-27;4;-683;4423;469;0.561954;2.803077;-0.1974632;0.5679055;3.34544;-0.1389004;0.5731393;3.822393;-0.08943489;0.5526659;4.530217;0.1029907;0.2846903;4.847334;0.1517146;-0.05208132;4.685655;0.1758778;-0.5421484;4.910768;-0.5774403;-0.4929024;5.475983;-1.336324;0.8048166;4.862381;0.1517147;1.098007;4.718925;0.1758781;1.887894;4.910127;-0.3416109;2.465088;5.475813;-0.8362153;0.2497113;2.762083;-0.2099584;0.2749301;1.299176;-0.2210957;0;0;0;0.2497113;2.762083;-0.2099584;0.2749301;1.299176;-0.2210957;0;0;0
727139.4567;NotLabelled;NONE;16384;0.8589759;0.2493075;0.3767313;0.2409972;-3;-4;0;2420;-1222;3375;65536;0.9190145;0.33518;0.0401662;0.2036011;2;3;0;-1673;-2706;-3063;8192;0.8963392;0.199446;-0.2686981;-0.2908587;-2;1;-1;-2648;-625;3295;32768;0.8996344;0.3642659;-0.1481994;-0.1897507;2;-3;4;2157;-2386;-2898;256;0.1121884;-0.1260388;-0.5955678;-0.7853833;4;-6;-1;201;4176;-1263;128;-0.01385042;0.1177285;0.5650969;0.8164641;-11;-10;-2;-713;4033;1596;4;-0.4722992;0.468144;-0.5221606;-0.533969;-7;37;4;-287;4310;554;16;0.6094183;-0.7821046;-0.04155125;-0.1232687;-14;-32;-2;1377;4078;1188;2;0.5519109;-0.5166205;-0.432133;-0.4916897;2;-39;-5;-157;4296;-267;8;0.6426592;-0.7484609;0.06648199;0.1495845;-5;-29;2;-165;4231;907;0.562578;2.802627;-0.1916938;0.5685273;3.344794;-0.1313565;0.5737593;3.821583;-0.08033034;0.5544916;4.529444;0.1120861;0.2870565;4.847016;0.1608059;-0.04998991;4.685912;0.1849711;-0.5394693;4.911906;-0.5684646;-0.4872398;5.47979;-1.325153;0.8072077;4.861178;0.1608056;1.100153;4.717224;0.1849709;1.889601;4.909354;-0.3328452;2.467895;5.475039;-0.8261633;0.2503357;2.761674;-0.2043343;0.2775987;1.298841;-0.2197227;0;0;0;0.2503357;2.761674;-0.2043343;0.2775987;1.298841;-0.2197227;0;0;0
727159.4657;NotLabelled;NONE;16384;0.8585727;0.2506925;0.3767313;0.2409972;-6;-2;0;2486;-1156;3295;65536;0.9190145;0.33518;0.0401662;0.2036011;0;6;0;-1717;-2636;-3037;8192;0.8967874;0.199446;-0.2686981;-0.2894737;-3;0;0;-2602;-659;3297;32768;0.8996344;0.3642659;-0.1481994;-0.1897507;2;-5;4;2105;-2418;-2970;256;0.1135734;-0.1274238;-0.5955678;-0.7849606;1;-2;-1;167;4158;-1099;128;-0.01246537;0.1177285;0.5637119;0.8174433;-11;-1;0;-867;4013;1510;4;-0.4750692;0.4695291;-0.5207756;-0.5316432;-7;20;3;-395;4130;156;16;0.6080332;-0.7835407;-0.03878116;-0.1218837;-15;-10;-3;-141;3882;1214;2;0.5539301;-0.5193906;-0.4293629;-0.4889196;10;-25;0;579;4332;-447;8;0.6412742;-0.7487095;0.07063711;0.1523546;-6;-28;0;-181;4135;987;0.5768777;2.800941;-0.1924484;0.5828249;3.342909;-0.1303441;0.588055;3.819529;-0.07776421;0.5695963;4.52675;0.1170714;0.3025209;4.844453;0.1669009;-0.03470338;4.683643;0.190547;-0.5232821;4.911659;-0.5628648;-0.4685915;5.479843;-1.319153;0.8226876;4.858033;0.1669005;1.115474;4.713669;0.1905467;1.906599;4.904029;-0.3253597;2.485658;5.471691;-0.8154993;0.2646359;2.76003;-0.2052334;0.2818564;1.297092;-0.2245814;0;0;0;0.2646359;2.76003;-0.2052334;0.2818564;1.297092;-0.2245814;0;0;0
727179.4807;NotLabelled;NONE;16384;0.8575577;0.2520775;0.3781163;0.2409972;-7;-1;-1;2602;-1106;3251;65536;0.9193202;0.33518;0.0401662;0.2022161;1;8;-1;-1749;-2552;-2987;8192;0.8963712;0.199446;-0.2700831;-0.2894737;-5;0;0;-2542;-689;3217;32768;0.8999254;0.3642659;-0.1481994;-0.1883656;3;-4;3;2147;-2388;-2952;256;0.1121884;-0.1274238;-0.5941828;-0.7862085;7;1;1;135;3948;-1221;128;-0.01108033;0.1191136;0.5595568;0.820113;-20;1;0;-803;3785;1744;4;-0.4764543;0.4695291;-0.5207756;-0.5304022;-11;0;0;-159;4158;170;16;0.6052631;-0.7858265;-0.0401662;-0.1204986;-8;6;0;31;3928;1082;2;0.5523574;-0.5249307;-0.4293629;-0.4847645;0;-7;15;669;4692;25;8;0.6385041;-0.7500867;0.07202215;0.1565097;-4;-8;-3;-585;4201;1029;0.584632;2.799278;-0.194108;0.5905768;3.341023;-0.130084;0.5958048;3.817453;-0.07581574;0.5770386;4.524792;0.118563;0.3098258;4.842412;0.1681828;-0.02732969;4.681473;0.1919268;-0.5136671;4.911506;-0.5623208;-0.4559895;5.479691;-1.318388;0.8299866;4.856216;0.1681827;1.122835;4.711993;0.191927;1.915724;4.903237;-0.3209348;2.496714;5.470901;-0.8087833;0.2723908;2.758412;-0.2070501;0.2866851;1.295462;-0.2278517;0;0;0;0.2723908;2.758412;-0.2070501;0.2866851;1.295462;-0.2278517;0;0;0
727201.4502;NotLabelled;NONE;16384;0.8579457;0.2520775;0.3781163;0.2396122;-5;-1;-1;2528;-1166;3029;65536;0.9196238;0.33518;0.0401662;0.200831;2;5;-3;-1737;-2638;-2999;8192;0.8964782;0.200831;-0.2686981;-0.2894737;-4;5;-1;-2510;-663;3149;32768;0.8999254;0.3642659;-0.1481994;-0.1883656;4;0;3;2093;-2344;-2972;256;0.1108033;-0.1274238;-0.5927978;-0.7874495;8;1;2;125;4062;-1257;128;-0.009695291;0.1191136;0.5567867;0.8220137;-17;3;0;-683;3929;1502;4;-0.4750692;0.468144;-0.5235457;-0.5301418;-9;-16;-2;-33;4008;-34;16;0.6052631;-0.7858265;-0.0401662;-0.1204986;-6;1;0;323;4014;1020;2;0.5511735;-0.5263157;-0.4307479;-0.4833795;-1;-4;15;399;4156;-237;8;0.6371191;-0.7509735;0.07202215;0.1578947;-8;-10;-10;-735;3701;1247;0.5872749;2.79734;-0.203624;0.593212;3.338395;-0.1340137;0.5984336;3.814241;-0.07483253;0.5807782;4.520813;0.1224167;0.3140607;4.838641;0.1733537;-0.02334021;4.678127;0.196481;-0.5141721;4.909271;-0.5545086;-0.4570173;5.477755;-1.31039;0.8342423;4.851642;0.1733532;1.12687;4.706873;0.1964805;1.92036;4.897185;-0.3157988;2.499668;5.465438;-0.8049598;0.2750351;2.75661;-0.2170223;0.285696;1.293648;-0.2391227;0;0;0;0.2750351;2.75661;-0.2170223;0.285696;1.293648;-0.2391227;0;0;0
727222.4923;NotLabelled;NONE;16384;0.8567386;0.2548476;0.3781163;0.2409972;-5;-7;2;2524;-1086;3027;65536;0.9191178;0.3365651;0.0401662;0.200831;7;-2;-5;-1895;-2590;-2935;8192;0.8960298;0.200831;-0.2686981;-0.2908587;-5;6;-1;-2624;-667;3125;32768;0.8991342;0.365651;-0.1495845;-0.1883656;6;0;4;2129;-2262;-2958;256;0.1094183;-0.1274238;-0.5927978;-0.7876431;6;3;1;31;4040;-1065;128;-0.009695291;0.1191136;0.5554016;0.8229502;-14;4;0;-515;3937;1340;4;-0.4709141;0.466759;-0.5263157;-0.5323229;8;-18;-4;-3;3998;-90;16;0.6038781;-0.78738;-0.03878116;-0.1177285;-9;-22;-6;-117;3986;986;2;0.5499766;-0.5277008;-0.432133;-0.4819945;-7;4;12;49;3696;-529;8;0.634349;-0.7521324;0.07202215;0.1634349;-11;-20;-17;-997;3691;1277;0.5924487;2.797319;-0.2067915;0.5983804;3.337884;-0.1334671;0.6035974;3.813311;-0.07101941;0.5870563;4.519106;0.1290891;0.3208367;4.837139;0.1813389;-0.01681048;4.677055;0.2038507;-0.5084258;4.909351;-0.5462708;-0.4517853;5.478133;-1.301966;0.8410376;4.849334;0.1813385;1.133443;4.704018;0.20385;1.92481;4.897541;-0.3105063;2.503261;5.465793;-0.8006802;0.2802099;2.756682;-0.2204927;0.285277;1.293648;-0.2396221;0;0;0;0.2802099;2.756682;-0.2204927;0.285277;1.293648;-0.2396221;0;0;0
727242.4655;NotLabelled;NONE;16384;0.8565449;0.2562327;0.3767313;0.2423823;-3;-7;5;2478;-1068;2973;65536;0.9183651;0.3379501;0.03878116;0.2022161;8;-6;-6;-1765;-2604;-2815;8192;0.8957183;0.2022161;-0.2686981;-0.2908587;-6;2;0;-2452;-727;3057;32768;0.8988589;0.367036;-0.1495845;-0.1869806;10;0;7;1981;-2262;-3016;256;0.1094183;-0.1274238;-0.5927978;-0.7876431;6;3;0;53;3984;-927;128;-0.008310249;0.1191136;0.5554016;0.8229653;-9;5;-1;-579;3867;1290;4;-0.4695291;0.466759;-0.5277008;-0.5321751;5;-5;-2;-65;4004;184;16;0.6038781;-0.7881215;-0.03601108;-0.1135734;-6;-22;-7;-87;3790;1060;2;0.5490043;-0.5277008;-0.434903;-0.4806094;-10;6;9;-403;3914;-469;8;0.632964;-0.752251;0.0734072;0.16759;-6;-29;-13;329;3939;671;0.5896959;2.796185;-0.2196391;0.595625;3.336502;-0.1445081;0.6008396;3.811718;-0.08047146;0.5858328;4.517422;0.1200764;0.3203004;4.835991;0.1725558;-0.01768588;4.676617;0.1950095;-0.5140577;4.909278;-0.5518591;-0.4598311;5.480151;-1.306154;0.8405264;4.847074;0.1724994;1.132623;4.701119;0.1948853;1.922256;4.892028;-0.3230993;2.501412;5.4616;-0.8109057;0.2774576;2.755594;-0.2334875;0.2841193;1.292505;-0.2470528;0;0;0;0.2774576;2.755594;-0.2334875;0.2841193;1.292505;-0.2470528;0;0;0
727262.4629;NotLabelled;NONE;16384;0.8561293;0.2576177;0.3767313;0.2423823;-2;-5;6;2444;-1112;3049;65536;0.9173985;0.3407202;0.03739612;0.2022161;8;-6;-8;-1795;-2546;-2787;8192;0.8949876;0.2036011;-0.2700831;-0.2908587;-8;4;0;-2470;-631;3057;32768;0.8982921;0.368421;-0.1495845;-0.1869806;12;0;4;1801;-2248;-2940;256;0.1080332;-0.1274238;-0.5914127;-0.7888745;6;4;1;35;3816;-1065;128;-0.006925208;0.1191136;0.5540166;0.8239112;-7;6;-1;-521;3703;1358;4;-0.4695291;0.466759;-0.5277008;-0.5321751;1;5;0;-129;4062;216;16;0.602493;-0.7896365;-0.03462604;-0.1108033;-4;-19;-7;215;3720;1168;2;0.5492349;-0.5263157;-0.4362881;-0.4806094;-18;0;8;-475;4140;-39;8;0.6315789;-0.7525175;0.07617728;0.1703601;-5;-32;-12;763;3851;139;0.5881133;2.796145;-0.2274326;0.5940421;3.336449;-0.1522106;0.5992567;3.811654;-0.088094;0.584228;4.517359;0.1124523;0.31869;4.835928;0.1649027;-0.01929864;4.676553;0.1873195;-0.512995;4.913474;-0.5599837;-0.4582079;5.486703;-1.312449;0.8389158;4.84701;0.1649031;1.13101;4.701055;0.1873208;1.92189;4.895964;-0.3272603;2.499947;5.468097;-0.813369;0.275875;2.755556;-0.2412886;0.2811527;1.292429;-0.2508117;0;0;0;0.275875;2.755556;-0.2412886;0.2811527;1.292429;-0.2508117;0;0;0
727283.457;NotLabelled;NONE;16384;0.8567375;0.2576177;0.3753462;0.2423823;-4;-3;7;2442;-1020;2995;65536;0.9169383;0.3421052;0.03601108;0.2022161;7;-3;-9;-1865;-2568;-2683;8192;0.89422;0.2049861;-0.2700831;-0.2922437;-8;5;0;-2540;-593;3051;32768;0.8980101;0.3698061;-0.1495845;-0.1855956;14;1;1;1827;-2248;-2874;256;0.1052632;-0.1274238;-0.5914127;-0.7892489;3;8;-2;-91;3806;-1035;128;-0.005540166;0.1163435;0.5540166;0.8243173;-3;7;2;-89;3745;1334;4;-0.4695291;0.468144;-0.5263157;-0.5323302;0;10;-2;-233;4100;34;16;0.602493;-0.7900797;-0.033241;-0.1080332;-4;-17;-6;539;3828;1268;2;0.5495632;-0.5249307;-0.4390582;-0.4792244;-10;9;5;-337;3512;-21;8;0.6315789;-0.7517701;0.08033241;0.1717452;-2;-19;-4;747;3641;-375;0.5868473;2.794933;-0.2345862;0.5927733;3.33497;-0.1574725;0.5979854;3.809948;-0.09169209;0.5840759;4.514861;0.1116979;0.3190405;4.833631;0.1654548;-0.01919493;4.674695;0.1872586;-0.5148607;4.913617;-0.5581014;-0.4611478;5.491573;-1.307018;0.8392832;4.8439;0.1654546;1.13115;4.6974;0.1872586;1.922997;4.89364;-0.3253255;2.499886;5.467736;-0.8105059;0.2746095;2.754393;-0.2485961;0.2798708;1.291267;-0.2581293;0;0;0;0.2746095;2.754393;-0.2485961;0.2798708;1.291267;-0.2581293;0;0;0
727304.5545;NotLabelled;NONE;16384;0.8563198;0.2590028;0.3753462;0.2423823;-5;-2;9;2284;-1002;2855;65536;0.916167;0.3434903;0.03462604;0.2036011;6;0;-11;-1855;-2380;-2615;8192;0.8939013;0.2063712;-0.2700831;-0.2922437;-9;2;1;-2508;-659;2989;32768;0.8972066;0.3711911;-0.1509695;-0.1855956;14;-1;0;1809;-2232;-2788;256;0.1052632;-0.1260388;-0.5914127;-0.7894713;2;9;-5;-135;3752;-979;128;-0.005540166;0.1149584;0.5540166;0.8245116;-6;5;3;-67;3643;1484;4;-0.4695291;0.4695291;-0.5263157;-0.5311089;0;8;-4;-241;4068;-192;16;0.601108;-0.7914334;-0.03047091;-0.1066482;-2;-10;-5;375;3738;1402;2;0.5473491;-0.5235457;-0.4404432;-0.4819945;12;7;-5;37;3394;-651;8;0.634349;-0.7509736;0.07756232;0.166205;2;53;2;-87;3913;453;0.5790151;2.794976;-0.2391375;0.584941;3.335014;-0.1620253;0.5901531;3.809992;-0.09624618;0.5792733;4.514711;0.107996;0.3156096;4.83455;0.1621444;-0.0233047;4.677042;0.183764;-0.5192694;4.916876;-0.5611037;-0.4668142;5.497475;-1.308065;0.8358915;4.842587;0.1621445;1.127128;4.694809;0.1837645;1.917693;4.89242;-0.3302698;2.491771;5.469071;-0.8157544;0.2667773;2.754436;-0.2531472;0.2762032;1.291324;-0.2617641;0;0;0;0.2667773;2.754436;-0.2531472;0.2762032;1.291324;-0.2617641;0;0;0
727325.6731;NotLabelled;NONE;16384;0.8566871;0.2617728;0.3725762;0.2423823;-1;-12;10;2216;-954;2713;65536;0.9152715;0.3462604;0.03047091;0.2036011;7;-9;-15;-1529;-2152;-2357;8192;0.8934817;0.2063712;-0.2714681;-0.2922437;-11;0;3;-2462;-767;3067;32768;0.8966836;0.3725762;-0.1523546;-0.1842105;12;-4;-2;1807;-2270;-2726;256;0.1052632;-0.1232687;-0.5914127;-0.7899085;1;9;-8;-189;3714;-929;128;-0.005540166;0.1135734;0.5526316;0.8256323;-6;7;4;-267;3627;1352;4;-0.466759;0.4722992;-0.5310944;-0.5263157;1;1;-11;-379;4074;-198;16;0.599723;-0.7926142;-0.03185596;-0.1052632;3;3;0;63;4000;1372;2;0.5459121;-0.5249307;-0.4390582;-0.4833795;16;5;-1;655;3824;-653;8;0.6371191;-0.7512341;0.06925207;0.1578947;8;83;8;-807;4219;1049;0.5828735;2.793324;-0.2478324;0.5887996;3.333368;-0.1707627;0.5940118;3.808352;-0.1050211;0.5819445;4.51305;0.0992265;0.3177421;4.832444;0.1533772;-0.02090625;4.674364;0.1749956;-0.519284;4.916197;-0.5676117;-0.468056;5.49914;-1.31283;0.8380097;4.841356;0.1533773;1.129494;4.69407;0.1749961;1.919137;4.893944;-0.3395818;2.493714;5.471899;-0.8229208;0.2706358;2.752783;-0.2618387;0.2792661;1.289649;-0.2667247;0;0;0;0.2706358;2.752783;-0.2618387;0.2792661;1.289649;-0.2667247;0;0;0
727346.4789;NotLabelled;NONE;16384;0.85707;0.2631579;0.3698061;0.2437673;3;-12;7;2310;-966;2781;65536;0.914525;0.3476454;0.02770083;0.2049861;7;-14;-15;-1325;-2282;-2323;8192;0.892443;0.2091413;-0.2742382;-0.2908587;-12;-1;4;-2352;-773;3159;32768;0.8956176;0.3753462;-0.1551246;-0.1814404;10;-8;-5;1705;-2374;-2714;256;0.1038781;-0.1218837;-0.5900277;-0.7913413;3;9;-8;-199;3794;-1023;128;-0.004155125;0.1121884;0.5526316;0.8258298;-4;8;3;-573;3663;1448;4;-0.4653739;0.4736842;-0.5310764;-0.5263157;6;6;-16;29;3870;8;16;0.601108;-0.7915643;-0.03185596;-0.1052632;5;2;0;209;3886;1180;2;0.5419992;-0.5277008;-0.4390582;-0.4847645;21;6;7;765;4382;-415;8;0.6385041;-0.7525888;0.05955679;0.1495845;5;75;2;-1163;4183;1863;0.5903865;2.792468;-0.2751914;0.5963097;3.332257;-0.1963619;0.6015194;3.807024;-0.1290724;0.587078;4.511674;0.075188;0.3218011;4.830175;0.1293448;-0.01631264;4.670956;0.1509604;-0.5148213;4.918608;-0.5896386;-0.4620558;5.507374;-1.330155;0.8420357;4.84084;0.1293447;1.134015;4.694536;0.1509607;1.922987;4.893464;-0.3650099;2.496137;5.473316;-0.8477688;0.2781492;2.751973;-0.289341;0.2752577;1.288884;-0.2744805;0;0;0;0.2781492;2.751973;-0.289341;0.2752577;1.288884;-0.2744805;0;0;0
727367.4753;NotLabelled;NONE;16384;0.8572714;0.2631579;0.368421;0.2451524;7;-13;5;2358;-1002;2987;65536;0.9137654;0.3490305;0.02493075;0.2063712;5;-16;-15;-1373;-2396;-2273;8192;0.892141;0.2105263;-0.2756233;-0.2894737;-11;0;4;-2264;-841;3201;32768;0.8956562;0.3753462;-0.1565097;-0.1800554;8;-7;-5;1795;-2374;-2760;256;0.1038781;-0.1191136;-0.5900277;-0.791763;4;8;-5;-103;4040;-999;128;-0.004155125;0.1108033;0.5526316;0.8260168;-4;7;2;-793;3833;1610;4;-0.4653739;0.4764543;-0.5299681;-0.5249307;9;18;-16;299;3858;300;16;0.601108;-0.7915643;-0.03185596;-0.1052632;5;4;0;237;3840;1086;2;0.5369069;-0.5304709;-0.4404432;-0.4861496;14;20;17;459;4944;107;8;0.6412742;-0.7515634;0.05263158;0.1454294;1;43;-5;-1695;4381;1745;0.5845292;2.793668;-0.2771195;0.5904524;3.333452;-0.1982533;0.5956621;3.808213;-0.1309317;0.5811779;4.512037;0.07615615;0.3158783;4.830296;0.1316129;-0.02222013;4.670961;0.1526179;-0.5232063;4.921244;-0.5854209;-0.4706375;5.512918;-1.323631;0.8361121;4.841005;0.131612;1.128106;4.694641;0.1526161;1.916286;4.897058;-0.3632067;2.488983;5.480707;-0.841912;0.2722919;2.753173;-0.291272;0.2723573;1.29014;-0.2714543;0;0;0;0.2722919;2.753173;-0.291272;0.2723573;1.29014;-0.2714543;0;0;0
727388.6315;NotLabelled;NONE;16384;0.8570688;0.2631579;0.367036;0.2479224;9;-14;5;2536;-1012;3119;65536;0.9129578;0.3504155;0.0235457;0.2077562;2;-14;-12;-1445;-2588;-2329;8192;0.8925892;0.2105263;-0.2756233;-0.2880886;-10;3;5;-2224;-829;3181;32768;0.8948312;0.3767313;-0.1578947;-0.1800554;6;-7;-3;1809;-2352;-2746;256;0.1038781;-0.1191136;-0.5900277;-0.791763;6;6;-2;-11;4148;-1053;128;-0.002770083;0.1108033;0.5512465;0.8269476;-7;7;2;-841;4037;1606;4;-0.4653739;0.4792244;-0.5302069;-0.5221606;11;27;-13;417;4082;140;16;0.602493;-0.7904536;-0.033241;-0.1052632;6;6;-1;513;3864;1046;2;0.5359932;-0.5290859;-0.4432133;-0.4861496;-6;32;17;-209;5134;797;8;0.6412742;-0.7520189;0.04986149;0.1440443;2;8;-4;-1277;4031;999;0.5808922;2.793586;-0.2835863;0.5868154;3.333376;-0.204762;0.5920252;3.808143;-0.137477;0.5751778;4.51191;0.06962648;0.3088111;4.829275;0.1250901;-0.02875054;4.668806;0.1460911;-0.5282077;4.918917;-0.5930408;-0.4762194;5.5135;-1.328952;0.829006;4.841731;0.12509;1.121489;4.696347;0.1460912;1.91093;4.901018;-0.3669088;2.482528;5.484629;-0.8469718;0.2686549;2.75309;-0.2977355;0.2711368;1.29014;-0.272673;0;0;0;0.2686549;2.75309;-0.2977355;0.2711368;1.29014;-0.272673;0;0;0
727409.4919;NotLabelled;NONE;16384;0.857683;0.2617728;0.365651;0.2493075;10;-10;5;2620;-1024;3181;65536;0.9124923;0.3518005;0.02077562;0.2077562;-2;-11;-7;-1505;-2824;-2445;8192;0.8918324;0.2119114;-0.2770083;-0.2880886;-11;6;7;-2320;-827;3081;32768;0.8948634;0.3767313;-0.1592798;-0.1786704;5;-11;-1;1961;-2378;-2738;256;0.101108;-0.1177285;-0.5886427;-0.793358;9;8;0;-49;4042;-1103;128;0;0.1080332;0.5498615;0.8282398;-16;11;2;-363;4013;1596;4;-0.466759;0.4833795;-0.5265672;-0.5207756;9;32;-11;163;4142;162;16;0.602493;-0.7904536;-0.033241;-0.1052632;5;5;-1;723;3880;1034;2;0.5346781;-0.5221606;-0.4529086;-0.4861496;-28;13;0;-1177;4058;785;8;0.6412742;-0.7512941;0.05263158;0.1468144;-1;-26;-1;-201;3911;159;0.5795469;2.794921;-0.2880832;0.5854671;3.334434;-0.2073865;0.5906743;3.808965;-0.1384546;0.573827;4.512732;0.06864887;0.3074603;4.830096;0.1241125;-0.03010122;4.669628;0.1451135;-0.5279378;4.918387;-0.5955668;-0.475556;5.515313;-1.329551;0.8276552;4.842552;0.1241123;1.120139;4.697169;0.1451136;1.909343;4.902754;-0.3678836;2.482519;5.487655;-0.8444843;0.2673102;2.754475;-0.3023847;0.2671925;1.291682;-0.269242;0;0;0;0.2673102;2.754475;-0.3023847;0.2671925;1.291682;-0.269242;0;0;0
727430.7548;NotLabelled;NONE;16384;0.8580498;0.2617728;0.3628809;0.2520775;7;-4;7;2738;-1148;3197;65536;0.9124492;0.3504155;0.01800554;0.2105263;-10;-1;-2;-1877;-2826;-2659;8192;0.8910705;0.2132964;-0.2783934;-0.2880886;-12;2;9;-2504;-889;3095;32768;0.8949148;0.3767313;-0.1620499;-0.1759003;5;-17;0;1961;-2384;-2860;256;0.09972299;-0.1163435;-0.5872576;-0.7947628;8;11;-1;-111;4002;-1157;128;0;0.1066482;0.5470914;0.8302513;-18;11;2;-167;3827;1596;4;-0.468144;0.4903047;-0.523016;-0.5166205;3;18;-8;-357;4320;-160;16;0.6038781;-0.7891505;-0.03462604;-0.1066482;3;7;-2;427;4018;1068;2;0.5375371;-0.5180055;-0.4542936;-0.4861496;-18;2;-8;-897;3642;249;8;0.6412742;-0.7504447;0.0567867;0.1495845;-1;-20;0;-113;4133;265;0.5711013;2.794794;-0.2920746;0.5770184;3.334028;-0.2095296;0.5822229;3.80832;-0.1389721;0.5668769;4.511164;0.07135132;0.3011843;4.828832;0.1282955;-0.03671209;4.668979;0.1485987;-0.5360833;4.915534;-0.5917846;-0.4842875;5.515636;-1.323215;0.8214041;4.840193;0.1282958;1.113583;4.6941;0.1485997;1.901694;4.900994;-0.3655505;2.473213;5.485863;-0.8441751;0.2588652;2.754397;-0.3065262;0.2656645;1.291683;-0.2707496;0;0;0;0.2588652;2.754397;-0.3065262;0.2656645;1.291683;-0.2707496;0;0;0
727452.5481;NotLabelled;NONE;16384;0.8590552;0.2603878;0.3614958;0.2520775;6;0;8;2632;-1240;2997;65536;0.9130061;0.3490305;0.0166205;0.2105263;-10;0;-5;-1923;-2772;-2763;8192;0.8890931;0.2160665;-0.2825485;-0.2880886;-13;0;8;-2690;-805;3051;32768;0.8952159;0.3767313;-0.1648199;-0.1717452;8;-11;-5;1845;-2536;-2742;256;0.09833795;-0.1149584;-0.5872576;-0.7951369;6;16;-2;-61;3944;-1215;128;0.001385042;0.1052632;0.5457063;0.8313377;-11;12;3;-247;3785;1476;4;-0.468144;0.4916897;-0.523082;-0.5152354;-1;13;-5;-705;3964;-300;16;0.6038781;-0.7889;-0.03601108;-0.1080332;3;9;-1;355;3912;1098;2;0.538783;-0.5166205;-0.4529086;-0.4875346;-2;1;-13;-611;3690;-573;8;0.6412742;-0.7499524;0.05955679;0.1509695;0;-20;1;43;4147;465;0.5640912;2.795724;-0.2983888;0.5700023;3.334404;-0.2123025;0.5752015;3.808222;-0.1386301;0.5598952;4.510222;0.0744959;0.2942089;4.827651;0.1327855;-0.04367575;4.667707;0.1525543;-0.5455626;4.908986;-0.5878667;-0.4928732;5.507659;-1.320403;0.8144283;4.839031;0.1326734;1.106618;4.692868;0.1523067;1.892143;4.897681;-0.3666118;2.463755;5.482499;-0.8451877;0.2518561;2.755422;-0.3131281;0.2631215;1.293033;-0.2667562;0;0;0;0.2518561;2.755422;-0.3131281;0.2631215;1.293033;-0.2667562;0;0;0
727473.4623;NotLabelled;NONE;16384;0.8596367;0.2603878;0.3601108;0.2520775;7;-3;10;2530;-1212;2795;65536;0.9135585;0.3476454;0.01523546;0.2105263;-8;-3;-8;-1925;-2686;-2949;8192;0.88787;0.2174515;-0.2853186;-0.2880886;-12;0;7;-2842;-799;2919;32768;0.894117;0.3781163;-0.16759;-0.1717452;8;-9;-6;1875;-2590;-2756;256;0.09556787;-0.1135734;-0.5858725;-0.796694;4;16;-4;57;3968;-1225;128;0.002770083;0.1024931;0.5457063;0.8316802;-3;14;4;-353;3857;1394;4;-0.468144;0.4944598;-0.5218318;-0.5138504;0;7;-4;-797;3816;-520;16;0.6038781;-0.7889;-0.03601108;-0.1080332;2;6;0;257;3862;1108;2;0.53743;-0.5166205;-0.4515235;-0.4903047;10;4;-10;-131;3784;-961;8;0.6412742;-0.749447;0.06232687;0.1523546;-1;-19;0;-57;3823;791;0.5645156;2.795676;-0.3022224;0.5704235;3.334063;-0.2143281;0.57562;3.807631;-0.1390654;0.5606223;4.509519;0.07445732;0.2950832;4.827047;0.1328736;-0.04288565;4.667261;0.1524824;-0.5412529;4.912342;-0.5890668;-0.4879113;5.509542;-1.322758;0.8153083;4.838166;0.1328738;1.107421;4.691846;0.1524834;1.89853;4.901673;-0.3558404;2.469592;5.48708;-0.8343518;0.252281;2.755424;-0.3171083;0.2624806;1.293158;-0.266783;0;0;0;0.252281;2.755424;-0.3171083;0.2624806;1.293158;-0.266783;0;0;0
727493.4754;NotLabelled;NONE;16384;0.8599647;0.2617728;0.3573407;0.2534626;9;-8;13;2556;-1122;2707;65536;0.9132603;0.3476454;0.01385042;0.2119114;-2;-11;-11;-1963;-2638;-2967;8192;0.8874237;0.2174515;-0.2867036;-0.2880886;-12;-2;8;-2794;-843;2961;32768;0.8941213;0.3781163;-0.1689751;-0.1703601;9;-10;-8;1857;-2610;-2758;256;0.09418282;-0.1108033;-0.5858725;-0.7972488;2;17;-6;63;3936;-1095;128;0.004155125;0.101108;0.5457063;0.831844;-3;12;6;-439;3777;1584;4;-0.466759;0.4958449;-0.5231187;-0.5124654;3;3;-6;-755;3894;-490;16;0.6052631;-0.7877734;-0.03739612;-0.1080332;3;2;0;9;3864;1074;2;0.5373266;-0.5166205;-0.4501385;-0.4916897;8;2;-5;-9;4026;-611;8;0.6398892;-0.7502311;0.06371191;0.1537396;-1;-9;-2;-957;3979;929;0.5602325;2.795471;-0.3087658;0.5661404;3.333863;-0.2208987;0.571337;3.807435;-0.1456598;0.5578789;4.508384;0.07102753;0.2930335;4.82622;0.1309011;-0.04527926;4.667079;0.1498219;-0.5456187;4.913088;-0.59009;-0.4930468;5.508807;-1.325039;0.8132815;4.836212;0.1309009;1.105078;4.689172;0.1498218;1.896666;4.899324;-0.3576221;2.468522;5.485394;-0.8343732;0.2479979;2.755219;-0.3236496;0.2609735;1.293158;-0.2682571;0;0;0;0.2479979;2.755219;-0.3236496;0.2609735;1.293158;-0.2682571;0;0;0
727513.945;NotLabelled;NONE;16384;0.8601298;0.2617728;0.3559557;0.2548476;11;-12;15;2488;-1066;2781;65536;0.9129757;0.3476454;0.01108033;0.2132964;3;-19;-13;-1901;-2484;-2951;8192;0.8866343;0.2188366;-0.2880886;-0.2880886;-13;-4;9;-2746;-885;3031;32768;0.8935343;0.3795014;-0.1703601;-0.1689751;10;-12;-9;1863;-2574;-2770;256;0.09141274;-0.1066482;-0.5858725;-0.7981374;4;13;-8;-111;3796;-1265;128;0.005540166;0.09833795;0.5443213;0.8330746;-6;8;6;-355;3769;1762;4;-0.4653739;0.4972299;-0.523038;-0.5124654;6;-3;-8;-529;4068;-254;16;0.6052631;-0.7877734;-0.03739612;-0.1080332;4;-1;0;-47;3856;974;2;0.5360559;-0.5166205;-0.4501385;-0.4930748;3;-1;0;25;4352;57;8;0.6398892;-0.7500623;0.06232687;0.1551246;-2;5;0;-1297;4175;943;0.5561999;2.796682;-0.3144894;0.5621078;3.335073;-0.2266112;0.5673044;3.808643;-0.1513627;0.5530471;4.509455;0.06571536;0.2878391;4.826954;0.1257689;-0.05029097;4.667417;0.1446048;-0.5563067;4.916153;-0.5905191;-0.5068209;5.512193;-1.325423;0.8080755;4.837542;0.1257685;1.10004;4.690825;0.1446044;1.886912;4.900012;-0.3705157;2.456858;5.486076;-0.8495531;0.2439653;2.756431;-0.3293741;0.2554131;1.294667;-0.2663248;0;0;0;0.2439653;2.756431;-0.3293741;0.2554131;1.294667;-0.2663248;0;0;0
727534.6203;NotLabelled;NONE;16384;0.8614335;0.2603878;0.3518005;0.2576177;14;-16;16;2502;-1090;3007;65536;0.9118245;0.3490305;0.008310249;0.2160665;5;-26;-16;-1827;-2546;-2901;8192;0.8862892;0.2202216;-0.2894737;-0.2867036;-12;-6;9;-2618;-1007;3027;32768;0.892673;0.3808864;-0.1731302;-0.16759;11;-9;-9;1777;-2628;-2876;256;0.0900277;-0.1038781;-0.5858725;-0.79866;5;11;-8;-175;3912;-1337;128;0.005540166;0.09695291;0.5443213;0.8332369;-7;7;6;-353;3781;1806;4;-0.4639889;0.4986149;-0.5243037;-0.5110803;5;-1;-9;-181;4206;-44;16;0.6066482;-0.7868962;-0.03739612;-0.1066482;5;-9;0;219;4024;1014;2;0.5373266;-0.5166205;-0.4501385;-0.4916897;1;-2;-1;-431;4252;449;8;0.6385041;-0.75164;0.06094183;0.1537396;-2;-6;0;-295;4017;775;0.5497738;2.796389;-0.3216171;0.5556785;3.334491;-0.2319894;0.5608724;3.807815;-0.1552022;0.5461893;4.508382;0.06263329;0.2807878;4.825654;0.1230357;-0.05724403;4.665889;0.1417065;-0.5642542;4.914458;-0.5927888;-0.5184145;5.511394;-1.327202;0.8010175;4.836561;0.1230354;1.093073;4.690003;0.1417065;1.879774;4.900471;-0.3731531;2.445605;5.48846;-0.8547044;0.2375396;2.756186;-0.3366436;0.252713;1.294667;-0.2688884;0;0;0;0.2375396;2.756186;-0.3366436;0.252713;1.294667;-0.2688884;0;0;0
727555.7676;NotLabelled;NONE;16384;0.862425;0.2603878;0.3462604;0.2617728;10;-12;16;2594;-902;3313;65536;0.9103348;0.3504155;0.001385042;0.2202216;2;-17;-17;-1833;-2518;-2861;8192;0.8846752;0.2229917;-0.2936288;-0.2853186;-15;0;9;-2646;-999;3009;32768;0.8915042;0.3822715;-0.1786704;-0.1648199;14;-10;-9;1795;-2532;-2968;256;0.0900277;-0.101108;-0.5844875;-0.8000291;5;12;-8;-99;3968;-1307;128;0.005540166;0.09556787;0.5429363;0.8342999;-7;7;5;-321;3821;1738;4;-0.4626039;0.5;-0.5242085;-0.5110803;5;3;-8;321;4076;84;16;0.6080332;-0.7863841;-0.033241;-0.1038781;4;-9;0;595;3860;1080;2;0.5373266;-0.5166205;-0.4501385;-0.4916897;0;-4;-3;-577;4216;415;8;0.6385041;-0.7512417;0.06232687;0.1551246;-1;-14;1;-383;4075;729;0.5451876;2.797394;-0.3281472;0.5510924;3.335503;-0.2385624;0.5562863;3.808832;-0.1618128;0.5408145;4.509267;0.05639651;0.2750556;4.826206;0.116971;-0.06279521;4.666049;0.1355604;-0.5675817;4.913196;-0.6009438;-0.524413;5.512843;-1.333308;0.7952726;4.837701;0.1169709;1.087494;4.691463;0.1355605;1.872548;4.904153;-0.380895;2.438074;5.493434;-0.8612247;0.2329535;2.75719;-0.3431702;0.2468358;1.296033;-0.267767;0;0;0;0.2329535;2.75719;-0.3431702;0.2468358;1.296033;-0.267767;0;0;0
727576.8333;NotLabelled;NONE;16384;0.8639485;0.2590028;0.3434903;0.2617728;7;-8;15;2566;-852;3339;65536;0.9099997;0.3504155;0;0.2216066;-1;-10;-16;-1813;-2540;-2793;8192;0.8838465;0.2243767;-0.2963989;-0.2839335;-14;-1;11;-2556;-1107;3067;32768;0.8908854;0.3836565;-0.1800554;-0.1634349;16;-8;-7;1881;-2662;-2904;256;0.08864266;-0.09972299;-0.5844875;-0.8003575;5;11;-8;-271;3874;-1385;128;0.005540166;0.09418282;0.5415512;0.8353569;-9;7;7;-369;3793;1828;4;-0.4626039;0.501385;-0.522884;-0.5110803;-1;11;-6;275;4226;128;16;0.6080332;-0.7863841;-0.033241;-0.1038781;3;1;1;451;3872;1056;2;0.5410675;-0.5152354;-0.4487534;-0.4903047;-2;-4;-4;-393;4204;409;8;0.6371191;-0.7520138;0.06371191;0.1565097;0;-17;0;-573;4123;869;0.5402973;2.797712;-0.3308077;0.5461989;3.335529;-0.2394829;0.5513901;3.808608;-0.1612026;0.5332948;4.508226;0.05940646;0.2663472;4.823952;0.1210868;-0.07089522;4.662458;0.139153;-0.5710343;4.910065;-0.6003608;-0.5233184;5.513941;-1.328958;0.7865171;4.837409;0.1210865;1.079289;4.692213;0.1391528;1.867059;4.907432;-0.3720957;2.436015;5.497387;-0.8475199;0.2280638;2.757556;-0.3459717;0.2454537;1.296688;-0.2658587;0;0;0;0.2280638;2.757556;-0.3459717;0.2454537;1.296688;-0.2658587;0;0;0
727597.583;NotLabelled;NONE;16384;0.8640772;0.2590028;0.3421052;0.2631579;5;-7;13;2572;-948;3205;65536;0.9096571;0.3504155;-0.002770083;0.2229917;-4;-7;-16;-1817;-2494;-2849;8192;0.8826725;0.2271468;-0.2977839;-0.2839335;-14;-1;10;-2508;-1151;3009;32768;0.8899762;0.3850415;-0.1828255;-0.1620499;17;-9;-6;1915;-2632;-2914;256;0.08864266;-0.09695291;-0.5831025;-0.801707;6;10;-8;-251;3900;-1353;128;0.005540166;0.09141274;0.5401662;0.8365605;-8;7;8;-469;3737;1852;4;-0.4639889;0.501385;-0.5230086;-0.5096953;-3;15;-4;73;4200;-120;16;0.6094183;-0.7851268;-0.033241;-0.1052632;3;8;0;461;4004;942;2;0.5410675;-0.5152354;-0.4487534;-0.4903047;-3;-2;-4;-139;4160;93;8;0.6371191;-0.7516056;0.06509695;0.1578947;0;-11;0;-579;3953;925;0.5352133;2.797557;-0.3325747;0.5411116;3.335076;-0.2395123;0.5463001;3.807899;-0.1597036;0.5285848;4.507414;0.06126578;0.261808;4.823252;0.1231119;-0.07552122;4.66193;0.1410991;-0.5732837;4.909397;-0.6000633;-0.5270002;5.513629;-1.328458;0.7819852;4.836428;0.1231121;1.074679;4.691064;0.1411;1.86357;4.907555;-0.3678774;2.431385;5.49944;-0.8422675;0.2229803;2.757451;-0.3478795;0.2444114;1.296688;-0.2668174;0;0;0;0.2229803;2.757451;-0.3478795;0.2444114;1.296688;-0.2668174;0;0;0
727618.0026;NotLabelled;NONE;16384;0.8651689;0.2590028;0.3393352;0.2631579;3;-5;11;2574;-1000;3109;65536;0.9096444;0.3504155;-0.005540166;0.2229917;-4;-4;-16;-1781;-2466;-2941;8192;0.8818202;0.2285319;-0.300554;-0.2825485;-16;0;10;-2556;-1023;2969;32768;0.8887381;0.3878116;-0.1842105;-0.1606648;17;-11;-5;1979;-2612;-2810;256;0.08725762;-0.09556787;-0.5817174;-0.8030303;7;10;-6;-247;3912;-1421;128;0.006925208;0.0900277;0.5401662;0.8367004;-6;8;6;-491;3709;1690;4;-0.4653739;0.5027701;-0.521795;-0.5083103;1;10;-1;67;3924;-336;16;0.6094183;-0.7851268;-0.033241;-0.1052632;0;4;0;567;3910;778;2;0.5410675;-0.5152354;-0.4487534;-0.4903047;0;1;-3;163;4038;-119;8;0.6371191;-0.7511919;0.06648199;0.1592798;1;-8;0;-651;3973;925;0.5388899;2.798601;-0.3269252;0.5447851;3.335824;-0.2321687;0.5499707;3.808393;-0.1508697;0.5296566;4.507076;0.07249656;0.2617044;4.821697;0.1354477;-0.07501604;4.659052;0.1529119;-0.5742633;4.906376;-0.5872992;-0.5275754;5.511551;-1.314885;0.7818285;4.836823;0.1354475;1.075067;4.692496;0.1529115;1.863707;4.91244;-0.3549731;2.431991;5.505623;-0.8271751;0.2266575;2.758543;-0.3423671;0.2441853;1.297681;-0.2621536;0;0;0;0.2266575;2.758543;-0.3423671;0.2441853;1.297681;-0.2621536;0;0;0
727637.5639;NotLabelled;NONE;16384;0.8657108;0.2590028;0.3379501;0.2631579;3;-4;10;2566;-1038;2991;65536;0.9104939;0.3490305;-0.008310249;0.2216066;-3;-3;-15;-1751;-2538;-2935;8192;0.8809866;0.2299169;-0.301939;-0.2825485;-19;0;8;-2596;-995;2951;32768;0.887803;0.3891967;-0.1869806;-0.1592798;18;-11;-4;1903;-2626;-2690;256;0.08587258;-0.09141274;-0.5803324;-0.8046638;7;11;-4;-171;3884;-1311;128;0.008310249;0.08725762;0.5373961;0.8387625;-7;13;5;-327;3683;1688;4;-0.4653739;0.5041551;-0.520457;-0.5083103;0;11;1;143;4078;-318;16;0.6094183;-0.7851268;-0.033241;-0.1052632;-4;0;-1;315;3964;652;2;0.5374943;-0.5152354;-0.4515235;-0.4916897;2;6;3;195;4156;-39;8;0.6357341;-0.7516489;0.06786703;0.1620499;0;-9;0;-389;3941;753;0.5380484;2.798594;-0.3280556;0.5439435;3.335816;-0.2332975;0.5491291;3.808385;-0.1519972;0.5289171;4.506195;0.07409474;0.2610067;4.820597;0.138303;-0.07572967;4.657922;0.1551708;-0.5734797;4.907121;-0.5854198;-0.5250677;5.513457;-1.311924;0.7811325;4.835666;0.1383027;1.074357;4.69124;0.1551704;1.864029;4.91245;-0.3505563;2.430838;5.509453;-0.8197079;0.225816;2.758536;-0.3434977;0.2431452;1.297681;-0.2631187;0;0;0;0.225816;2.758536;-0.3434977;0.2431452;1.297681;-0.2631187;0;0;0
727658.1393;NotLabelled;NONE;16384;0.8659501;0.2603878;0.33518;0.2645429;1;-7;10;2684;-1080;2973;65536;0.9099143;0.3504155;-0.01246537;0.2216066;0;-7;-13;-1705;-2728;-2921;8192;0.8785291;0.2354571;-0.3060942;-0.2811634;-15;1;8;-2562;-1109;2901;32768;0.8858746;0.3933518;-0.1897507;-0.1565097;16;-5;0;1851;-2732;-2374;256;0.08448754;-0.0900277;-0.5789474;-0.8059633;7;12;-4;-235;3856;-1327;128;0.009695291;0.08587258;0.5373961;0.8388906;-5;14;5;-309;3735;1760;4;-0.468144;0.5041551;-0.5179667;-0.5083103;0;11;5;215;4074;-36;16;0.6080332;-0.7863841;-0.033241;-0.1038781;-8;0;-2;421;3948;826;2;0.5375942;-0.5152354;-0.4529086;-0.4903047;-2;5;3;-83;4328;199;8;0.6357341;-0.7516489;0.06786703;0.1620499;-2;-3;0;-545;4073;629;0.5313658;2.798388;-0.3306339;0.537254;3.334981;-0.2323752;0.5424337;3.80701;-0.1479954;0.5200557;4.50386;0.08083316;0.251166;4.817164;0.1463041;-0.08505516;4.653366;0.1625719;-0.5866044;4.9035;-0.5751343;-0.5378208;5.50916;-1.302179;0.7712417;4.833869;0.146304;1.064921;4.690301;0.1625721;1.852271;4.912745;-0.3462242;2.417717;5.511038;-0.8153763;0.2191344;2.758432;-0.3463591;0.2409065;1.297681;-0.2651705;0;0;0;0.2191344;2.758432;-0.3463591;0.2409065;1.297681;-0.2651705;0;0;0
727678.4884;NotLabelled;NONE;16384;0.8660609;0.2603878;0.333795;0.265928;2;-8;11;2702;-1072;2917;65536;0.9095337;0.3504155;-0.01523546;0.2229917;3;-10;-12;-1655;-2740;-2903;8192;0.8776728;0.2368421;-0.3074792;-0.2811634;-14;3;8;-2578;-1083;2925;32768;0.8848833;0.3961219;-0.1897507;-0.1551246;15;-6;0;1833;-2800;-2344;256;0.08310249;-0.08864266;-0.5789474;-0.8062608;5;12;-5;-109;3910;-1355;128;0.01108033;0.08310249;0.5373961;0.8391523;-3;14;6;-427;3821;1696;4;-0.4709141;0.5041551;-0.5168118;-0.5069252;-3;16;6;71;4218;48;16;0.6080332;-0.7861999;-0.033241;-0.1052632;-10;6;-2;323;3992;838;2;0.5377513;-0.5138504;-0.4542936;-0.4903047;-3;9;1;-265;4160;7;8;0.6357341;-0.7516489;0.06786703;0.1620499;-1;3;1;-429;4139;519;0.5278511;2.797777;-0.3297193;0.5337393;3.334372;-0.2314674;0.538919;3.806402;-0.1470938;0.5166757;4.502363;0.08443786;0.2478419;4.815452;0.1511563;-0.08840221;4.651643;0.1668303;-0.5926081;4.904615;-0.568092;-0.5408123;5.514024;-1.291787;0.7679203;4.832078;0.1511566;1.06158;4.688403;0.1668317;1.850176;4.917709;-0.3369631;2.414844;5.521715;-0.7996876;0.2156197;2.757821;-0.345444;0.2387692;1.296687;-0.2718788;0;0;0;0.2156197;2.757821;-0.345444;0.2387692;1.296687;-0.2718788;0;0;0
727699.5023;NotLabelled;NONE;16384;0.8662801;0.2617728;0.3310249;0.267313;1;-9;12;2698;-1120;2873;65536;0.9089746;0.3518005;-0.0166205;0.2229917;5;-9;-12;-1771;-2664;-2811;8192;0.8768111;0.2382271;-0.3088643;-0.2811634;-14;1;5;-2748;-1007;2875;32768;0.8833395;0.398892;-0.1911357;-0.1551246;13;-6;-3;1799;-2834;-2340;256;0.08171745;-0.08725762;-0.5775623;-0.8075457;4;14;-5;-95;3926;-1345;128;0.01246537;0.08171745;0.5373961;0.8392689;-2;15;6;-481;3789;1814;4;-0.4736842;0.5041551;-0.5142741;-0.5069252;-3;17;7;-33;4174;-14;16;0.6066482;-0.7872094;-0.03462604;-0.1052632;-10;8;-3;317;3950;874;2;0.5378083;-0.5124654;-0.4542936;-0.4916897;-1;16;-3;-507;3910;-139;8;0.6357341;-0.7519462;0.06786703;0.1606648;-1;3;0;-211;4027;641;0.5327892;2.797875;-0.3246068;0.5386775;3.334479;-0.226407;0.5438573;3.806518;-0.1420793;0.5220212;4.502379;0.08978929;0.2533701;4.815592;0.1566635;-0.08296873;4.65197;0.1722639;-0.5852839;4.90481;-0.5639978;-0.5326159;5.51517;-1.286828;0.7734579;4.831916;0.1566635;1.067034;4.688064;0.1722643;1.857482;4.918571;-0.3280698;2.418789;5.526982;-0.7891095;0.2205578;2.757917;-0.3403273;0.2403156;1.29651;-0.2713622;0;0;0;0.2205578;2.757917;-0.3403273;0.2403156;1.29651;-0.2713622;0;0;0
727720.8125;NotLabelled;NONE;16384;0.8668081;0.2617728;0.3296399;0.267313;2;-8;12;2562;-1080;2911;65536;0.9080698;0.3531856;-0.01800554;0.2243767;6;-9;-13;-1775;-2622;-2749;8192;0.8759443;0.2396122;-0.3102493;-0.2811634;-13;0;5;-2742;-973;2947;32768;0.8829551;0.400277;-0.1911357;-0.1537396;11;-5;-3;1733;-2752;-2338;256;0.08033241;-0.08587258;-0.5775623;-0.8078331;6;14;-5;-159;3888;-1323;128;0.01385042;0.07894737;0.536011;0.8403973;-4;14;6;-413;3755;1788;4;-0.4764543;0.5055401;-0.5117124;-0.5055401;-2;15;9;-193;4166;74;16;0.6052631;-0.7882128;-0.03601108;-0.1052632;-12;5;-3;493;3930;906;2;0.5354095;-0.5110803;-0.4556787;-0.4944598;0;19;-5;-643;3946;-163;8;0.6357341;-0.7519462;0.06786703;0.1606648;0;1;0;-331;4099;851;0.5295576;2.797308;-0.322716;0.535446;3.333915;-0.2245319;0.5406258;3.805956;-0.1402178;0.5189414;4.500921;0.09433656;0.2503541;4.813921;0.1624512;-0.08601204;4.650301;0.1774607;-0.5878691;4.905986;-0.5581303;-0.5367793;5.518946;-1.27887;0.7704449;4.830153;0.1624516;1.063998;4.686189;0.1774617;1.854291;4.917896;-0.3225605;2.415058;5.529378;-0.7801824;0.2173262;2.757349;-0.3384352;0.2385068;1.29562;-0.2771489;0;0;0;0.2173262;2.757349;-0.3384352;0.2385068;1.29562;-0.2771489;0;0;0
727741.4683;NotLabelled;NONE;16384;0.8670095;0.2631579;0.3268698;0.2686981;2;-10;13;2554;-1076;2937;65536;0.9080107;0.3531856;-0.02077562;0.2243767;6;-11;-13;-1653;-2650;-2623;8192;0.8746896;0.2423823;-0.3116343;-0.2811634;-13;0;5;-2658;-1043;2827;32768;0.8822649;0.4016621;-0.1925208;-0.1523546;8;-8;-4;1649;-2780;-2408;256;0.07756232;-0.08171745;-0.5761772;-0.8095222;5;13;-5;-157;3896;-1339;128;0.0166205;0.07479224;0.536011;0.8407271;-3;13;6;-311;3717;1826;4;-0.4778393;0.5055401;-0.5104194;-0.5055401;-2;15;9;-249;4124;-58;16;0.6038781;-0.7890885;-0.03601108;-0.1066482;-12;4;-2;277;3920;1112;2;0.5354812;-0.5083103;-0.4556787;-0.4972299;3;19;-6;-615;3998;-107;8;0.6357341;-0.7519462;0.06786703;0.1606648;0;0;1;-607;3987;827;0.5272307;2.796494;-0.3246093;0.5331156;3.332785;-0.2247184;0.5382925;3.804555;-0.1389029;0.5170224;4.499424;0.09597681;0.2486211;4.812551;0.1642416;-0.0878415;4.649122;0.1791794;-0.5902238;4.905749;-0.5557246;-0.5415758;5.521123;-1.274575;0.7687215;4.828475;0.1642421;1.062189;4.68433;0.1791807;1.852425;4.917232;-0.3203793;2.410155;5.531242;-0.7783267;0.2149998;2.756585;-0.3404665;0.2366772;1.294712;-0.282901;0;0;0;0.2149998;2.756585;-0.3404665;0.2366772;1.294712;-0.282901;0;0;0
727761.5119;NotLabelled;NONE;16384;0.8677139;0.2645429;0.3227147;0.2700831;1;-10;12;2488;-1108;2969;65536;0.9061338;0.3559557;-0.02493075;0.2271468;4;-8;-13;-1569;-2590;-2599;8192;0.8733695;0.2451524;-0.3144044;-0.2797784;-13;-2;7;-2556;-1141;2831;32768;0.8811902;0.4030471;-0.1966759;-0.1495845;8;-13;-6;1633;-2614;-2500;256;0.07617728;-0.07894737;-0.5747922;-0.810912;6;12;-4;-205;3838;-1473;128;0.0166205;0.0734072;0.536011;0.8408492;-3;12;5;-309;3703;1842;4;0.4819945;-0.5106185;0.5041551;0.5027701;-2;18;6;-457;3988;-388;16;0.599723;-0.7921869;-0.03739612;-0.1066482;-10;5;-2;299;3940;1284;2;0.5330431;-0.5055401;-0.4570637;-0.501385;0;6;-3;-445;4140;131;8;0.6357341;-0.7519462;0.06786703;0.1606648;-1;-3;0;-493;3959;813;0.5272444;2.795251;-0.3258325;0.5331295;3.331561;-0.2260365;0.5383065;3.803346;-0.1403045;0.5165036;4.497178;0.09756976;0.2478572;4.80979;0.1672186;-0.08847043;4.646025;0.1814966;-0.5950207;4.905509;-0.5495328;-0.5490454;5.522021;-1.267583;0.7679445;4.826136;0.1672189;1.061531;4.682167;0.1814975;1.848686;4.918416;-0.3213446;2.402445;5.53432;-0.7815611;0.2150136;2.75534;-0.3416821;0.2378709;1.29333;-0.2881691;0;0;0;0.2150136;2.75534;-0.3416821;0.2378709;1.29333;-0.2881691;0;0;0
727782.6155;NotLabelled;NONE;16384;0.8682277;0.2645429;0.3213296;0.2700831;1;-8;11;2512;-1100;2891;65536;0.9055079;0.3573407;-0.02770083;0.2271468;3;-7;-13;-1571;-2588;-2545;8192;0.8729224;0.2465374;-0.3157895;-0.2783934;-13;0;6;-2550;-1095;2763;32768;0.8804791;0.4044321;-0.1980609;-0.1481994;8;-11;-6;1569;-2702;-2424;256;0.07479224;-0.07756232;-0.5747922;-0.8111745;6;11;-4;-219;3820;-1435;128;0.01800554;0.07063711;0.534626;0.841939;-3;9;4;-381;3669;1778;4;0.4819945;-0.5119823;0.5027701;0.5027701;0;13;3;-409;3922;-188;16;0.5983379;-0.793167;-0.03878116;-0.1066482;-8;4;-2;245;3846;1314;2;0.5330431;-0.5055401;-0.4570637;-0.501385;-2;0;-2;-351;4178;227;8;0.6357341;-0.7516489;0.06786703;0.1620499;-2;-4;1;-389;4041;641;0.5204828;2.791781;-0.3383975;0.5263678;3.328099;-0.2386422;0.5315449;3.79989;-0.152946;0.5088142;4.492774;0.08759233;0.2397453;4.804744;0.158473;-0.0963539;4.640461;0.1721632;-0.6018767;4.903759;-0.5582137;-0.5573264;5.525668;-1.271684;0.7598094;4.821808;0.158473;1.053596;4.678192;0.1721635;1.840957;4.917828;-0.3287482;2.395445;5.535061;-0.786301;0.2082519;2.751869;-0.3542437;0.2380576;1.289903;-0.302994;0;0;0;0.2082519;2.751869;-0.3542437;0.2380576;1.289903;-0.302994;0;0;0
727824.6909;NotLabelled;NONE;16384;0.8679593;0.265928;0.3185596;0.2728532;3;-9;10;2536;-1090;2811;65536;0.9048234;0.3587258;-0.03185596;0.2271468;2;-9;-12;-1513;-2634;-2521;8192;0.8712352;0.2506925;-0.3171745;-0.2783934;-11;1;7;-2630;-1287;2613;32768;0.8793509;0.4072022;-0.199446;-0.1454294;10;-4;-1;1727;-2774;-2350;256;0.0734072;-0.07479224;-0.5734072;-0.8125403;5;8;-3;-179;3762;-1437;128;0.01939058;0.06925207;0.533241;0.8429011;-3;7;3;-349;3697;1792;4;0.4833795;-0.5120348;0.5027701;0.501385;1;4;1;-487;4096;-136;16;0.5969529;-0.7941411;-0.0401662;-0.1066482;-3;7;0;-13;3846;1370;2;0.5356495;-0.5041551;-0.4570637;-0.5;-1;0;-4;-383;4052;-69;8;0.6357341;-0.7519462;0.06786703;0.1606648;-2;2;1;-391;3905;623;0.5144083;2.790639;-0.3446587;0.52029;3.326639;-0.2432123;0.5254641;3.798159;-0.1560284;0.5031628;4.490951;0.08481207;0.2342869;4.803056;0.1558326;-0.1019132;4.638974;0.1694561;-0.6080461;4.903216;-0.5601568;-0.5626957;5.528273;-1.27082;0.7543615;4.819801;0.1558326;1.04806;4.675998;0.1694561;1.834947;4.917849;-0.331136;2.388326;5.536977;-0.787469;0.2021781;2.750777;-0.3606413;0.2360534;1.288926;-0.3086689;0;0;0;0.2021781;2.750777;-0.3606413;0.2360534;1.288926;-0.3086689;0;0;0
727845.4498;NotLabelled;NONE;16384;0.8689709;0.265928;0.3157895;0.2728532;3;-10;9;2612;-1030;2843;65536;0.9038742;0.3601108;-0.033241;0.2285319;1;-9;-11;-1611;-2662;-2497;8192;0.8703297;0.2520775;-0.3185596;-0.2783934;-9;3;8;-2628;-1257;2649;32768;0.8786209;0.4085872;-0.200831;-0.1440443;10;-4;0;1707;-2908;-2384;256;0.07202215;-0.0734072;-0.5720221;-0.8137659;5;7;-3;-169;3806;-1441;128;0.01939058;0.06786703;0.533241;0.8430137;-3;5;3;-409;3691;1794;4;0.4833795;-0.5133911;0.501385;0.501385;3;1;0;-433;4006;-226;16;0.5955678;-0.7949222;-0.04155125;-0.1080332;-1;4;0;137;3904;1332;2;0.5356567;-0.5027701;-0.4570637;-0.501385;1;2;-3;-403;3914;-265;8;0.634349;-0.7534091;0.06786703;0.1592798;-3;4;1;-415;3955;697;0.5152982;2.789705;-0.3498254;0.5211763;3.325376;-0.2466545;0.5263472;3.796612;-0.1579537;0.5031447;4.488449;0.0855341;0.2338581;4.799918;0.1577793;-0.1021191;4.635333;0.1708171;-0.609771;4.901423;-0.5570661;-0.5629686;5.530181;-1.264364;0.7539095;4.817362;0.1577794;1.047803;4.673903;0.1708176;1.833939;4.921199;-0.328292;2.383893;5.544738;-0.7827574;0.2030685;2.749894;-0.3659474;0.2332844;1.287931;-0.3148632;0;0;0;0.2030685;2.749894;-0.3659474;0.2332844;1.287931;-0.3148632;0;0;0
