SEP=;
index;label;segment;RightUpperArm_boneIndex;RightUpperArm_quat9x_w;RightUpperArm_quat9x_x;RightUpperArm_quat9x_y;RightUpperArm_quat9x_z;RightUpperArm_gyroscope_x;RightUpperArm_gyroscope_y;RightUpperArm_gyroscope_z;RightUpperArm_accelerometer_x;RightUpperArm_accelerometer_y;RightUpperArm_accelerometer_z;RightLowerArm_boneIndex;RightLowerArm_quat9x_w;RightLowerArm_quat9x_x;RightLowerArm_quat9x_y;RightLowerArm_quat9x_z;RightLowerArm_gyroscope_x;RightLowerArm_gyroscope_y;RightLowerArm_gyroscope_z;RightLowerArm_accelerometer_x;RightLowerArm_accelerometer_y;RightLowerArm_accelerometer_z;LeftUpperArm_boneIndex;LeftUpperArm_quat9x_w;LeftUpperArm_quat9x_x;LeftUpperArm_quat9x_y;LeftUpperArm_quat9x_z;LeftUpperArm_gyroscope_x;LeftUpperArm_gyroscope_y;LeftUpperArm_gyroscope_z;LeftUpperArm_accelerometer_x;LeftUpperArm_accelerometer_y;LeftUpperArm_accelerometer_z;LeftLowerArm_boneIndex;LeftLowerArm_quat9x_w;LeftLowerArm_quat9x_x;LeftLowerArm_quat9x_y;LeftLowerArm_quat9x_z;LeftLowerArm_gyroscope_x;LeftLowerArm_gyroscope_y;LeftLowerArm_gyroscope_z;LeftLowerArm_accelerometer_x;LeftLowerArm_accelerometer_y;LeftLowerArm_accelerometer_z;Chest_boneIndex;Chest_quat9x_w;Chest_quat9x_x;Chest_quat9x_y;Chest_quat9x_z;Chest_gyroscope_x;Chest_gyroscope_y;Chest_gyroscope_z;Chest_accelerometer_x;Chest_accelerometer_y;Chest_accelerometer_z;Spine_boneIndex;Spine_quat9x_w;Spine_quat9x_x;Spine_quat9x_y;Spine_quat9x_z;Spine_gyroscope_x;Spine_gyroscope_y;Spine_gyroscope_z;Spine_accelerometer_x;Spine_accelerometer_y;Spine_accelerometer_z;RightUpperLeg_boneIndex;RightUpperLeg_quat9x_w;RightUpperLeg_quat9x_x;RightUpperLeg_quat9x_y;RightUpperLeg_quat9x_z;RightUpperLeg_gyroscope_x;RightUpperLeg_gyroscope_y;RightUpperLeg_gyroscope_z;RightUpperLeg_accelerometer_x;RightUpperLeg_accelerometer_y;RightUpperLeg_accelerometer_z;RightLowerLeg_boneIndex;RightLowerLeg_quat9x_w;RightLowerLeg_quat9x_x;RightLowerLeg_quat9x_y;RightLowerLeg_quat9x_z;RightLowerLeg_gyroscope_x;RightLowerLeg_gyroscope_y;RightLowerLeg_gyroscope_z;RightLowerLeg_accelerometer_x;RightLowerLeg_accelerometer_y;RightLowerLeg_accelerometer_z;LeftUpperLeg_boneIndex;LeftUpperLeg_quat9x_w;LeftUpperLeg_quat9x_x;LeftUpperLeg_quat9x_y;LeftUpperLeg_quat9x_z;LeftUpperLeg_gyroscope_x;LeftUpperLeg_gyroscope_y;LeftUpperLeg_gyroscope_z;LeftUpperLeg_accelerometer_x;LeftUpperLeg_accelerometer_y;LeftUpperLeg_accelerometer_z;LeftLowerLeg_boneIndex;LeftLowerLeg_quat9x_w;LeftLowerLeg_quat9x_x;LeftLowerLeg_quat9x_y;LeftLowerLeg_quat9x_z;LeftLowerLeg_gyroscope_x;LeftLowerLeg_gyroscope_y;LeftLowerLeg_gyroscope_z;LeftLowerLeg_accelerometer_x;LeftLowerLeg_accelerometer_y;LeftLowerLeg_accelerometer_z;pelvis_x;pelvis_y;pelvis_z;lowerSpine_x;lowerSpine_y;lowerSpine_z;middleSpine_x;middleSpine_y;middleSpine_z;upperSpine_x;upperSpine_y;upperSpine_z;rightClavicle_x;rightClavicle_y;rightClavicle_z;rightShoulder_x;rightShoulder_y;rightShoulder_z;rightElbow_x;rightElbow_y;rightElbow_z;rightWrist_x;rightWrist_y;rightWrist_z;leftClavicle_x;leftClavicle_y;leftClavicle_z;leftShoulder_x;leftShoulder_y;leftShoulder_z;leftElbow_x;leftElbow_y;leftElbow_z;leftWrist_x;leftWrist_y;leftWrist_z;rightHip_x;rightHip_y;rightHip_z;rightKnee_x;rightKnee_y;rightKnee_z;rightAnkle_x;rightAnkle_y;rightAnkle_z;leftHip_x;leftHip_y;leftHip_z;leftKnee_x;leftKnee_y;leftKnee_z;leftAnkle_x;leftAnkle_y;leftAnkle_z;
667326.3111;NotLabelled;NONE;16384;0.3088643;0.2853186;-0.7805087;-0.4626039;11;-14;23;-2923;1803;1697;65536;0.03739612;0.1121884;0.7425399;0.6592798;10;9;-50;-425;3817;-441;8192;0.7186458;-0.5720221;-0.1883656;0.3476454;2;0;-22;3894;2458;-158;32768;0.6620498;-0.7160371;0.1703601;0.1412742;3;17;50;-163;4610;696;256;0.6320511;-0.4598338;-0.5567867;-0.2811634;5;-12;-9;1134;3226;2082;128;0.5709447;-0.4722992;-0.5540166;-0.3795014;0;-3;6;-606;3566;-1464;4;0.1191136;-0.04293629;-0.7128902;-0.6897507;7;-15;0;-812;3698;320;16;0.2867036;-0.5900277;0.3157895;0.6855257;19;5;-4;100;2704;2973;2;0.66482;-0.7328872;0.1371191;-0.04570637;4;-20;-4;-768;4080;-410;8;0.3213296;-0.4085872;0.5747922;0.631995;8;-17;-3;104;4065;586;0.4297318;2.52856;-1.024266;0.4349033;2.999833;-1.299032;0.4394377;3.413063;-1.542299;0.542445;4.069214;-1.854257;0.3301484;4.384952;-2.027427;-0.02254799;4.339017;-1.910661;-0.5213927;3.838144;-1.311821;-0.5972953;2.915448;-1.513482;0.8441967;4.304255;-2.02743;1.1141;4.160582;-1.910664;1.228587;3.506382;-1.212674;1.161857;2.561356;-1.228851;0.1175029;2.488818;-1.007961;0.05196698;1.034656;-0.8597176;0;0;0;0.1175029;2.488818;-1.007961;0.05196698;1.034656;-0.8597176;0;0;0
667347.671;NotLabelled;NONE;16384;0.3074792;0.2825485;-0.7812408;-0.4639889;12;-9;22;-2883;1847;1683;65536;0.04293629;0.1163435;0.7440535;0.6565097;8;6;-51;-615;3917;-507;8192;0.7206982;-0.5720221;-0.1855956;0.3448753;3;5;-19;3788;2574;-220;32768;0.6620498;-0.7166275;0.1745152;0.132964;4;17;54;-221;4512;698;256;0.6328746;-0.4612188;-0.5554016;-0.2797784;6;-11;-10;1196;3284;2076;128;0.5709447;-0.4722992;-0.5540166;-0.3795014;0;-1;8;-658;3662;-1602;4;0.1218837;-0.04432133;-0.7109933;-0.6911357;6;-11;-2;-858;3884;338;16;0.2894737;-0.5900277;0.3171745;0.6837198;23;15;0;288;2822;2895;2;0.6634349;-0.7340485;0.1385041;-0.04293629;3;-16;-7;-792;4046;-416;8;0.3199446;-0.4072022;0.5761772;0.6323303;8;-10;-4;60;4063;490;0.4303439;2.531967;-1.022587;0.4355155;3.003256;-1.297325;0.4400502;3.4165;-1.540568;0.5441391;4.072791;-1.851871;0.3323671;4.389029;-2.02477;-0.02042013;4.343536;-1.908105;-0.5222393;3.837709;-1.315952;-0.5969631;2.917943;-1.530998;0.846288;4.307525;-2.024768;1.115947;4.163315;-1.908098;1.221968;3.497841;-1.219492;1.149821;2.553888;-1.258663;0.1181149;2.492224;-1.006284;0.05308513;1.038331;-0.8552068;0;0;0;0.1181149;2.492224;-1.006284;0.05308513;1.038331;-0.8552068;0;0;0
667367.496;NotLabelled;NONE;16384;0.3060942;0.2783934;-0.7824516;-0.4653739;13;-6;23;-2833;1723;1747;65536;0.04986149;0.1191136;0.7444041;0.6551247;6;5;-52;-687;3707;-499;8192;0.7206144;-0.5734072;-0.1842105;0.3434903;1;3;-18;3676;2664;-128;32768;0.6606648;-0.7184749;0.1772853;0.1260388;3;17;56;-333;4424;670;256;0.6340874;-0.4612188;-0.5540166;-0.2797784;6;-4;-12;1138;3310;2016;128;0.5730039;-0.4709141;-0.5540166;-0.3781163;-3;-1;9;-658;3740;-1604;4;0.1260388;-0.04432133;-0.7102685;-0.6911357;5;-5;-5;-848;3846;464;16;0.2950138;-0.5886427;0.3227147;0.6799425;36;0;4;374;2896;2847;2;0.6634349;-0.7336002;0.1412742;-0.04155125;3;-15;-10;-744;3912;-458;8;0.3199446;-0.4044321;0.5775623;0.6328443;7;-11;-4;208;4165;366;0.4292319;2.537277;-1.019125;0.4344035;3.008566;-1.293863;0.438938;3.42181;-1.537105;0.5441063;4.078243;-1.847747;0.3328581;4.394984;-2.020365;-0.02001762;4.349932;-1.903797;-0.5203047;3.839125;-1.31463;-0.5970151;2.922889;-1.543594;0.8466501;4.312671;-2.020367;1.116064;4.167922;-1.9038;1.225458;3.497277;-1.220761;1.153046;2.554218;-1.277177;0.117003;2.497533;-1.002822;0.0580996;1.043746;-0.8482608;0;0;0;0.117003;2.497533;-1.002822;0.0580996;1.043746;-0.8482608;0;0;0
667388.3222;NotLabelled;NONE;16384;0.3047091;0.2756233;-0.7823205;-0.468144;12;-4;27;-2825;1699;1773;65536;0.0567867;0.1246537;0.7442185;0.6537396;2;7;-56;-891;3631;-493;8192;0.7201697;-0.5747922;-0.1842105;0.3421052;0;3;-18;3508;2550;-110;32768;0.6592798;-0.7198899;0.1814404;0.1191136;4;17;55;-299;4476;580;256;0.6364971;-0.4612188;-0.5512465;-0.2797784;7;-3;-16;856;3396;2200;128;0.5747572;-0.4709141;-0.5512465;-0.3795014;-10;0;12;-458;3748;-1514;4;0.1274238;-0.04432133;-0.7100213;-0.6911357;5;-5;-3;-738;4014;544;16;0.2950138;-0.5872576;0.3268698;0.6791549;31;-12;-1;336;2826;3339;2;0.6634349;-0.7331385;0.1440443;-0.0401662;1;-16;-14;-760;3992;-428;8;0.3199446;-0.4030471;0.5789474;0.6324622;6;-13;-4;162;4167;350;0.4322802;2.550888;-1.009433;0.4374371;3.020832;-1.286465;0.4419585;3.432886;-1.531719;0.5458336;4.089571;-1.842263;0.3339623;4.405918;-2.01484;-0.01882616;4.360149;-1.898286;-0.5196101;3.84321;-1.314919;-0.5947635;2.930279;-1.557216;0.8479164;4.324622;-2.014842;1.117614;4.180391;-1.898289;1.222967;3.506504;-1.21781;1.146833;2.564641;-1.287696;0.1200522;2.511225;-0.9929202;0.06165093;1.058364;-0.8296943;0;0;0;0.1200522;2.511225;-0.9929202;0.06165093;1.058364;-0.8296943;0;0;0
667408.5445;NotLabelled;NONE;16384;0.300554;0.2700831;-0.7833619;-0.4722992;12;2;29;-3049;2077;1663;65536;0.07202215;0.132964;0.7438898;0.6509695;-3;17;-60;-999;3931;-403;8192;0.7200725;-0.5761772;-0.1828255;0.3407202;1;3;-16;3484;2650;-196;32768;0.6592798;-0.7205132;0.1842105;0.1108033;7;19;53;-355;4442;396;256;0.6382773;-0.4612188;-0.5484765;-0.2811634;7;-3;-17;822;3522;2132;128;0.5751676;-0.4709141;-0.5498615;-0.3808864;-8;0;12;-320;3830;-1538;4;0.1288089;-0.04432133;-0.7097713;-0.6911357;3;-4;-1;-580;4220;472;16;0.2950138;-0.5858725;0.3310249;0.6783382;16;-21;-5;102;3018;3563;2;0.6620498;-0.7332811;0.1495845;-0.0401662;-2;-6;-20;-750;4198;-540;8;0.3199446;-0.398892;0.5803324;0.6338257;9;0;-4;64;4273;664;0.4392382;2.556419;-1.003953;0.444402;3.027006;-1.279893;0.4489297;3.439628;-1.524189;0.550223;4.096807;-1.834541;0.337111;4.412364;-2.007038;-0.01549897;4.365169;-1.890513;-0.515436;3.842048;-1.311949;-0.5871692;2.933461;-1.571024;0.8513823;4.3331;-2.00704;1.121642;4.189901;-1.890517;1.220678;3.514095;-1.210993;1.14179;2.573737;-1.296382;0.1270097;2.516718;-0.9875404;0.06792635;1.064177;-0.8217301;0;0;0;0.1270097;2.516718;-0.9875404;0.06792635;1.064177;-0.8217301;0;0;0
667429.4803;NotLabelled;NONE;16384;0.2977839;0.2686981;-0.7832211;-0.4750692;13;4;29;-3133;2287;1587;65536;0.08033241;0.1371191;0.7434952;0.6495845;-2;20;-61;-1059;4127;-575;8192;0.718854;-0.5789474;-0.1814404;0.3393352;4;4;-17;3554;2764;-12;32768;0.6592798;-0.7208912;0.1911357;0.09556787;16;14;48;-73;4550;238;256;0.6394649;-0.4612188;-0.5470914;-0.2811634;7;-3;-17;904;3520;2094;128;0.575571;-0.4709141;-0.5484765;-0.3822715;-4;-2;12;-418;3898;-1600;4;0.1301939;-0.04432133;-0.7095186;-0.6911357;6;0;1;-538;4040;218;16;0.2950138;-0.5831025;0.333795;0.6793668;17;-17;-3;-42;3388;2861;2;0.6620498;-0.7326334;0.1523546;-0.04155125;-3;-3;-20;-830;4134;-544;8;0.3227147;-0.398892;0.5803324;0.6324198;11;7;-7;354;4131;718;0.4445435;2.5619;-0.9985883;0.4497143;3.033111;-1.273461;0.4542481;3.446287;-1.516821;0.5521006;4.104647;-1.825768;0.3373476;4.419412;-1.997673;-0.01503965;4.370078;-1.881361;-0.513294;3.834815;-1.312534;-0.5793511;2.935272;-1.602802;0.8520378;4.342917;-1.997676;1.123028;4.200931;-1.881365;1.217357;3.521911;-1.20438;1.138907;2.583049;-1.305232;0.1323146;2.522162;-0.9822741;0.07281247;1.069947;-0.8137805;0;0;0;0.1323146;2.522162;-0.9822741;0.07281247;1.069947;-0.8137805;0;0;0
667450.2878;NotLabelled;NONE;16384;0.2950138;0.265928;-0.7835296;-0.4778393;14;6;32;-3193;2391;1555;65536;0.08864266;0.1398892;0.7420334;0.6495845;-3;17;-61;-927;4189;-357;8192;0.7187378;-0.5803324;-0.1800554;0.3379501;4;10;-16;3596;2664;108;32768;0.6606648;-0.7195954;0.1939058;0.0900277;19;8;45;-25;4464;284;256;0.6402174;-0.4626039;-0.5443213;-0.2825485;10;-2;-16;958;3538;2004;128;0.5768877;-0.4709141;-0.5470914;-0.3822715;-11;-8;11;-600;3950;-1558;4;0.1301939;-0.04432133;-0.7081668;-0.6925207;10;1;-2;-914;3958;218;16;0.2963989;-0.5817174;0.3365651;0.6785842;27;9;0;-416;3248;2403;2;0.6620498;-0.732264;0.1537396;-0.04293629;-4;-5;-17;-910;3982;-616;8;0.3240997;-0.3975069;0.5817174;0.6313101;15;0;-10;604;4049;720;0.4422128;2.565389;-0.9964834;0.4473905;3.037223;-1.270286;0.4519304;3.450949;-1.512708;0.548494;4.109543;-1.821564;0.3331259;4.423908;-1.993433;-0.01916593;4.373865;-1.877134;-0.5162991;3.832557;-1.313066;-0.5784045;2.938177;-1.619702;0.8479655;4.348424;-1.993435;1.119232;4.206957;-1.877138;1.207152;3.524072;-1.203183;1.130462;2.588799;-1.334227;0.1299836;2.525614;-0.980267;0.07029477;1.07373;-0.8090047;0;0;0;0.1299836;2.525614;-0.980267;0.07029477;1.07373;-0.8090047;0;0;0
667470.2988;NotLabelled;NONE;16384;0.2908587;0.2645429;-0.7830067;-0.4819945;14;5;33;-3405;2395;1593;65536;0.09556787;0.1440443;0.7415899;0.6481994;-4;16;-61;-1133;4363;-235;8192;0.7200338;-0.5803324;-0.1800554;0.33518;3;15;-15;3468;2596;202;32768;0.6620498;-0.7182413;0.1966759;0.08448754;20;5;44;-85;4392;224;256;0.6407805;-0.4626039;-0.5429363;-0.2839335;12;2;-16;836;3428;1888;128;0.5770673;-0.4722992;-0.5457063;-0.3822715;-16;-9;11;-622;3832;-1306;4;0.1315789;-0.04432133;-0.7065532;-0.6939058;12;-4;-6;-924;3996;242;16;0.3033241;-0.5817174;0.3365651;0.675517;29;46;2;-450;3070;2477;2;0.6620498;-0.7315944;0.1565097;-0.04432133;-3;-8;-13;-872;3814;-580;8;0.3240997;-0.3947368;0.5831025;0.6317703;19;-6;-14;584;4083;766;0.4399098;2.570953;-0.9894596;0.4450874;3.0428;-1.26324;0.4496274;3.456537;-1.505641;0.544243;4.116905;-1.811296;0.3279631;4.431376;-1.98182;-0.02424246;4.379627;-1.866008;-0.523632;3.831159;-1.310921;-0.5780389;2.941204;-1.631571;0.8430475;4.357581;-1.981819;1.114697;4.216452;-1.866004;1.194859;3.530425;-1.194277;1.123179;2.596416;-1.336675;0.1276805;2.531177;-0.9732453;0.07281443;1.079157;-0.8015262;0;0;0;0.1276805;2.531177;-0.9732453;0.07281443;1.079157;-0.8015262;0;0;0
667490.3978;NotLabelled;NONE;16384;0.2880886;0.2617728;-0.7832518;-0.4847645;15;1;29;-3531;2367;1665;65536;0.1052632;0.1481994;0.7406671;0.6468144;-5;23;-63;-1343;4489;-71;8192;0.7203295;-0.5803324;-0.1814404;0.333795;1;19;-15;3328;2640;238;32768;0.6634349;-0.7162875;0.200831;0.08033241;21;3;43;-5;4310;122;256;0.6407191;-0.4626039;-0.5415512;-0.2867036;16;6;-15;772;3340;1716;128;0.5776255;-0.4736842;-0.5429363;-0.3836565;-19;-5;11;-512;3814;-900;4;0.132964;-0.04432133;-0.7049304;-0.6952909;10;7;-2;-112;3804;302;16;0.3144044;-0.5831025;0.3365651;0.6692274;30;14;-3;662;3286;2377;2;0.6606648;-0.7325482;0.1578947;-0.04432133;-1;-8;-12;-992;3832;-638;8;0.3254848;-0.3919668;0.5844875;0.631503;22;-9;-18;448;4041;722;0.4325147;2.578837;-0.9821268;0.4377006;3.051425;-1.254625;0.4422478;3.465819;-1.495902;0.5346929;4.127099;-1.800248;0.3173877;4.441163;-1.970219;-0.03467029;4.387988;-1.854604;-0.5279221;3.831137;-1.302382;-0.5792233;2.946262;-1.637287;0.8327206;4.369123;-1.970221;1.104819;4.228694;-1.854607;1.188019;3.540209;-1.185773;1.121079;2.607602;-1.339234;0.1202849;2.539017;-0.9660298;0.07112771;1.087224;-0.7907026;0;0;0;0.1202849;2.539017;-0.9660298;0.07112771;1.087224;-0.7907026;0;0;0
667511.2909;NotLabelled;NONE;16384;0.2867036;0.2562327;-0.7821426;-0.4903047;15;-7;16;-3135;2337;1659;65536;0.1232687;0.1592798;0.7379985;0.6440443;-10;5;-71;-1331;4327;-313;8192;0.7216067;-0.5803324;-0.1814404;0.3310249;0;23;-14;3238;2612;292;32768;0.66482;-0.7148197;0.2036011;0.07479224;22;0;40;115;4172;-34;256;0.6407131;-0.4639889;-0.5373961;-0.2922437;21;10;-15;862;3346;1440;128;0.5755277;-0.4764543;-0.5387812;-0.3891967;-18;11;11;-460;3732;-940;4;0.1315789;-0.04432133;-0.7038219;-0.6966759;10;12;-2;-214;3742;206;16;0.3157895;-0.5803324;0.3407202;0.6688805;31;-22;-13;360;3252;2145;2;0.6606648;-0.7314147;0.1634349;-0.04293629;-1;-20;-10;-818;3854;-318;8;0.3310249;-0.3850415;0.5872576;0.6303126;26;0;-16;-242;4111;538;0.4264234;2.596199;-0.9549178;0.4316241;3.070139;-1.225056;0.4361844;3.485731;-1.464265;0.5256992;4.150089;-1.762725;0.3070284;4.464575;-1.930145;-0.04487172;4.408688;-1.815332;-0.5328822;3.837625;-1.273058;-0.5793144;2.961069;-1.629838;0.822704;4.395031;-1.930292;1.095375;4.254913;-1.815655;1.180015;3.561072;-1.15256;1.118138;2.630781;-1.321433;0.1141927;2.556299;-0.9390365;0.07099655;1.10389;-0.7672762;0;0;0;0.1141927;2.556299;-0.9390365;0.07099655;1.10389;-0.7672762;0;0;0
667531.2908;NotLabelled;NONE;16384;0.2867036;0.2534626;-0.7821758;-0.4916897;13;-12;13;-2907;2413;1671;65536;0.1315789;0.166205;0.7350305;0.6440443;-15;0;-77;-1809;3979;-137;8192;0.7231495;-0.5803324;-0.1828255;0.3268698;0;28;-13;3066;2570;186;32768;0.666205;-0.7126157;0.2077562;0.07202215;25;-4;38;285;4116;-38;256;0.6395984;-0.4653739;-0.536011;-0.2950138;22;13;-14;660;3378;1416;128;0.5749424;-0.4764543;-0.5373961;-0.3919668;-19;16;10;-516;3658;-1068;4;0.1315789;-0.04293629;-0.7025343;-0.6980609;12;4;-2;-454;3768;154;16;0.3171745;-0.5747922;0.3462604;0.6701627;31;-29;-14;-72;3376;1809;2;0.6606648;-0.7309477;0.166205;-0.0401662;-2;-19;-10;-756;4066;-86;8;0.33518;-0.3822715;0.5886427;0.6285083;25;12;-13;-722;4281;198;0.4192965;2.599116;-0.9549018;0.4245393;3.076902;-1.218178;0.429137;3.4959;-1.45137;0.5125998;4.162682;-1.746156;0.291101;4.475967;-1.912101;-0.06035998;4.416113;-1.797945;-0.5412998;3.84154;-1.253066;-0.5765771;2.978006;-1.641475;0.807416;4.411343;-1.912103;1.081301;4.273211;-1.797948;1.163637;3.582384;-1.131425;1.106854;2.652947;-1.306669;0.1070634;2.558992;-0.9396468;0.06881747;1.10704;-0.7629246;0;0;0;0.1070634;2.558992;-0.9396468;0.06881747;1.10704;-0.7629246;0;0;0
667551.3554;NotLabelled;NONE;16384;0.2880886;0.2506925;-0.7808122;-0.4944598;14;-14;12;-2473;2493;1501;65536;0.1412742;0.1745152;0.7312954;0.6440443;-19;2;-79;-2071;3639;-235;8192;0.7255371;-0.5803324;-0.1855956;0.3199446;0;31;-11;2662;2740;304;32768;0.6703601;-0.7064663;0.2174515;0.06509695;33;-7;33;521;3910;-266;256;0.6378158;-0.466759;-0.534626;-0.299169;21;17;-12;592;3574;1316;128;0.5732383;-0.4750692;-0.5373961;-0.3961219;-16;26;11;-498;3814;-1060;4;0.1315789;-0.04432133;-0.7010692;-0.699446;13;-4;-1;-426;3938;202;16;0.3185596;-0.5706371;0.3504155;0.6708965;29;-4;-9;-528;3604;1915;2;0.6620498;-0.729057;0.1689751;-0.0401662;-7;-10;-11;-820;4256;34;8;0.3407202;-0.3808864;0.5886427;0.6263666;20;29;-10;-722;4519;-104;0.4041884;2.60748;-0.9464417;0.4094443;3.086454;-1.20755;0.4140536;3.506505;-1.43884;0.4960865;4.175412;-1.729177;0.2739528;4.489169;-1.893374;-0.07749218;4.427621;-1.780073;-0.5565294;3.852005;-1.23462;-0.5829715;2.996328;-1.640719;0.7904412;4.425944;-1.893116;1.064551;4.287818;-1.7795;1.145261;3.597678;-1.112066;1.093629;2.669648;-1.296139;0.09195447;2.567287;-0.9313841;0.05860814;1.115646;-0.7511501;0;0;0;0.09195447;2.567287;-0.9313841;0.05860814;1.115646;-0.7511501;0;0;0
667571.9269;NotLabelled;NONE;16384;0.2880886;0.2465374;-0.7812567;-0.4958449;20;-12;16;-2123;2653;1231;65536;0.1509695;0.1828255;0.727317;0.6440443;-18;8;-82;-2327;3285;-227;8192;0.7273552;-0.5803324;-0.1855956;0.3157895;2;31;-14;2560;2768;442;32768;0.6745152;-0.7020098;0.2202216;0.06094183;37;1;31;691;3766;-330;256;0.6370122;-0.466759;-0.533241;-0.3033241;21;20;-10;574;3630;1218;128;0.5701899;-0.4736842;-0.5387812;-0.400277;-10;35;12;-442;3966;-916;4;0.1315789;-0.04432133;-0.699446;-0.7010692;9;0;1;-198;4150;160;16;0.3240997;-0.567867;0.3518005;0.6698678;25;15;-9;-230;3634;1993;2;0.6634349;-0.7274739;0.1703601;-0.0401662;-15;-2;-15;-1044;4300;-76;8;0.3448753;-0.3808864;0.5872576;0.6253919;13;33;-7;-568;4433;-296;0.3876299;2.614692;-0.934867;0.3928975;3.094735;-1.194006;0.3975172;3.515731;-1.423569;0.4769547;4.187378;-1.708249;0.2536196;4.50159;-1.869927;-0.09762603;4.437658;-1.757328;-0.5686024;3.855985;-1.211282;-0.5855963;3.010144;-1.63797;0.770362;4.440476;-1.869929;1.04498;4.302524;-1.757331;1.12666;3.605926;-1.09676;1.08902;2.681624;-1.301795;0.07539533;2.574438;-0.9199888;0.04891293;1.122415;-0.7417007;0;0;0;0.07539533;2.574438;-0.9199888;0.04891293;1.122415;-0.7417007;0;0;0
667592.2885;NotLabelled;NONE;16384;0.2867036;0.2423823;-0.7804177;-0.5;23;-6;19;-1837;2891;1045;65536;0.1620499;0.1911357;0.7240139;0.6426592;-13;3;-85;-2599;3031;-677;8192;0.7304817;-0.5789474;-0.1869806;0.3102493;3;38;-14;2470;2854;634;32768;0.6772853;-0.6989205;0.2229917;0.05540166;39;15;31;765;3722;-290;256;0.6343445;-0.466759;-0.533241;-0.3088643;20;27;-9;408;3710;1092;128;0.5693835;-0.4695291;-0.5401662;-0.4044321;0;43;12;-358;3996;-842;4;0.1301939;-0.04709141;-0.6966759;-0.7038996;7;3;2;-46;3924;2;16;0.3296399;-0.5637119;0.3559557;0.6684774;22;-6;-13;538;3438;1963;2;0.66482;-0.7253942;0.1731302;-0.04293629;-18;7;-25;-1340;4172;-218;8;0.3504155;-0.3822715;0.5858725;0.6227607;2;34;-3;-638;4381;-574;0.3699256;2.622375;-0.924562;0.375205;3.103487;-1.18171;0.3798352;3.525431;-1.409527;0.4553244;4.19917;-1.690308;0.2301654;4.512924;-1.850339;-0.1207526;4.446193;-1.738345;-0.5872839;3.859887;-1.193438;-0.5944795;3.024486;-1.640484;0.7472737;4.454988;-1.85034;1.022662;4.318083;-1.738348;1.106843;3.617941;-1.08185;1.080844;2.695165;-1.295382;0.05769041;2.58206;-0.909865;0.03827155;1.130037;-0.7306702;0;0;0;0.05769041;2.58206;-0.909865;0.03827155;1.130037;-0.7306702;0;0;0
667613.3904;NotLabelled;NONE;16384;0.2839335;0.2354571;-0.7781789;-0.5083103;20;-5;10;-1855;3499;1175;65536;0.1814404;0.2105263;0.7176841;0.6385041;0;-14;-94;-3753;3231;-755;8192;0.7326726;-0.5789474;-0.1897507;0.3033241;7;45;-17;2300;3114;782;32768;0.6814404;-0.6949418;0.2243767;0.04847645;40;26;29;1029;3600;-366;256;0.6310244;-0.4653739;-0.5318559;-0.3199446;17;32;-7;94;3828;968;128;0.5652344;-0.4612188;-0.5443213;-0.4141274;12;47;12;-90;3794;-474;4;0.1288089;-0.04709141;-0.6966759;-0.7041544;7;5;-1;238;3842;-56;16;0.3296399;-0.5609418;0.3601108;0.6685821;20;-14;-14;94;3438;2131;2;0.666205;-0.7218193;0.1786704;-0.0567867;-20;14;-48;-1920;3766;-78;8;0.3573407;-0.3891967;0.5817174;0.618416;-17;40;8;-630;4367;-420;0.3479848;2.633294;-0.9036602;0.3532609;3.114124;-1.161336;0.3578881;3.535816;-1.389616;0.4319098;4.211762;-1.665442;0.2063131;4.525315;-1.82525;-0.1451153;4.455949;-1.716505;-0.6058154;3.855573;-1.18206;-0.6039754;3.031979;-1.650555;0.7237159;4.470198;-1.821478;0.9989502;4.334073;-1.708164;1.084513;3.627453;-1.058824;1.067289;2.706732;-1.281901;0.03574979;2.592995;-0.8889151;0.02905615;1.140198;-0.7151448;0;0;0;0.03574979;2.592995;-0.8889151;0.02905615;1.140198;-0.7151448;0;0;0
667635.2836;NotLabelled;NONE;16384;0.2839335;0.2299169;-0.7780212;-0.5110803;21;-12;11;-1873;3701;1279;65536;0.1897507;0.2243767;0.713787;0.6357341;6;-44;-104;-3793;2831;-1037;8192;0.7346075;-0.5803324;-0.1911357;0.2950138;7;49;-21;2288;3338;1030;32768;0.6855956;-0.6908429;0.2257618;0.04155125;38;25;26;1379;3600;-554;256;0.6281847;-0.4653739;-0.5318559;-0.3254848;16;31;-6;154;3954;884;128;0.5637647;-0.4542936;-0.5484765;-0.4182825;21;54;11;72;3764;-322;4;0.1260388;-0.04709141;-0.6952909;-0.7060221;10;22;-2;682;3972;-290;16;0.33241;-0.5581717;0.3614958;0.6687815;19;5;-6;-458;3726;2317;2;0.666205;-0.7200751;0.1828255;-0.06509695;-17;16;-54;-2260;3524;86;8;0.3587258;-0.3947368;0.5775623;0.6179971;-24;40;13;-282;4215;-76;0.328251;2.639725;-0.8903284;0.3335288;3.120693;-1.147746;0.3381574;3.542509;-1.375799;0.4005245;4.223221;-1.642639;0.1693631;4.535563;-1.796764;-0.1803416;4.45949;-1.686952;-0.6155774;3.850318;-1.141235;-0.6094477;3.054287;-1.655138;0.687537;4.48809;-1.796767;0.9654291;4.354518;-1.686956;1.063407;3.648273;-1.038963;1.054051;2.73023;-1.273263;0.01601589;2.599418;-0.8756068;0.01323469;1.146103;-0.7061161;0;0;0;0.01601589;2.599418;-0.8756068;0.01323469;1.146103;-0.7061161;0;0;0
667656.3151;NotLabelled;NONE;16384;0.2825485;0.2243767;-0.777402;-0.5152354;24;-13;23;-1513;4023;1299;65536;0.1952908;0.2409972;0.710556;0.6315789;14;-54;-105;-3571;2479;-1203;8192;0.7419481;-0.5789474;-0.1939058;0.2770083;6;52;-27;1896;3354;1406;32768;0.6933652;-0.6828254;0.2285319;0.02770083;33;12;23;1795;3652;-880;256;0.6263115;-0.4639889;-0.5318559;-0.3310249;17;38;-3;44;4108;674;128;0.5613573;-0.4487534;-0.5512465;-0.4238227;6;45;7;202;3816;-218;4;0.1204986;-0.04432133;-0.6939058;-0.708527;17;46;-4;824;4174;-452;16;0.3365651;-0.5581717;0.3614958;0.6667001;19;34;2;-826;3970;2223;2;0.66759;-0.7167761;0.1869806;-0.07479224;-16;18;-57;-2706;3306;268;8;0.3601108;-0.400277;0.5734072;0.6174972;-30;30;15;-44;4327;140;0.3069517;2.644594;-0.8785496;0.3122128;3.124041;-1.13879;0.3168267;3.544509;-1.369319;0.3757413;4.227606;-1.630795;0.1430066;4.53995;-1.782529;-0.2063264;4.461215;-1.673414;-0.6269273;3.84208;-1.127431;-0.6200138;3.062808;-1.666397;0.6614185;4.495153;-1.782761;0.9399709;4.362161;-1.673925;1.045353;3.645757;-1.038366;1.046381;2.730402;-1.283132;-0.005282417;2.604374;-0.8635713;0.0002085268;1.150495;-0.6990622;0;0;0;-0.005282417;2.604374;-0.8635713;0.0002085268;1.150495;-0.6990622;0;0;0
667676.6656;NotLabelled;NONE;16384;0.2797784;0.2188366;-0.7772182;-0.5193906;21;-13;41;-1049;4215;1417;65536;0.2036011;0.2576177;0.7072872;0.6260388;11;-42;-100;-3427;1989;-1019;8192;0.7459912;-0.5789474;-0.1939058;0.265928;9;49;-27;1740;3550;1604;32768;0.6967172;-0.6786703;0.2313019;0.02216066;29;9;23;1879;3612;-870;256;0.6214162;-0.4639889;-0.533241;-0.3379501;22;45;1;-286;4350;574;128;0.5604115;-0.4459834;-0.5512465;-0.4279778;-11;32;2;296;4184;-148;4;0.1135734;-0.03878116;-0.6925207;-0.7113453;22;61;-4;610;4480;-510;16;0.3421052;-0.5609418;0.3601108;0.6622903;19;49;7;-870;4176;2073;2;0.66759;-0.7140625;0.1925208;-0.08587258;-16;17;-56;-3002;3234;236;8;0.3587258;-0.4044321;0.5706371;0.6181616;-36;20;15;346;4205;438;0.2915774;2.649287;-0.8666765;0.2968365;3.128565;-1.127229;0.3014486;3.548881;-1.358032;0.3556434;4.233751;-1.615869;0.1207835;4.545201;-1.76616;-0.2280607;4.463375;-1.657757;-0.6372462;3.838197;-1.109989;-0.6347502;3.076919;-1.674123;0.6395054;4.504148;-1.766185;0.9189217;4.372598;-1.657811;1.032772;3.648046;-1.03304;1.055588;2.738832;-1.298738;-0.02065672;2.609077;-0.8516695;-0.006384209;1.154714;-0.6920424;0;0;0;-0.02065672;2.609077;-0.8516695;-0.006384209;1.154714;-0.6920424;0;0;0
667697.3184;NotLabelled;NONE;16384;0.2728532;0.2091413;-0.7795582;-0.5235457;13;-5;64;-805;4089;1439;65536;0.2105263;0.2728532;0.7019729;0.6232687;4;-44;-94;-3663;1283;103;8192;0.7485416;-0.5789474;-0.1952908;0.2576177;13;43;-27;1716;3746;1778;32768;0.6986364;-0.6759003;0.234072;0.0166205;25;8;22;1905;3714;-808;256;0.6174412;-0.4626039;-0.534626;-0.3448753;26;40;5;-698;4550;480;128;0.5561369;-0.4459834;-0.5512465;-0.433518;-27;21;0;382;4548;128;4;0.1066482;-0.03185596;-0.6897507;-0.7154407;26;62;-4;366;4494;-572;16;0.3476454;-0.5623268;0.3587258;0.6589742;21;35;6;-442;4308;1711;2;0.666205;-0.712792;0.1980609;-0.09418282;-13;11;-50;-3222;3364;244;8;0.3545706;-0.4099723;0.566482;0.6207258;-44;4;13;288;4007;752;0.2778604;2.653537;-0.8575577;0.283126;3.133388;-1.11705;0.2877438;3.554215;-1.346923;0.339373;4.241842;-1.597851;0.1033796;4.553817;-1.745252;-0.2452277;4.469486;-1.638013;-0.6384229;3.836036;-1.088043;-0.6441844;3.096302;-1.680123;0.6222652;4.514886;-1.745181;0.9021167;4.383404;-1.637853;1.028819;3.651908;-1.02374;1.059003;2.746124;-1.3002;-0.03437401;2.613293;-0.8426474;-0.01061757;1.158829;-0.6850761;0;0;0;-0.03437401;2.613293;-0.8426474;-0.01061757;1.158829;-0.6850761;0;0;0
667718.3149;NotLabelled;NONE;16384;0.2617728;0.199446;-0.7821537;-0.5290859;14;5;84;-871;4065;1249;65536;0.2216066;0.2867036;0.6966993;0.6191136;-1;-14;-86;-3731;1207;-165;8192;0.7492076;-0.5817174;-0.1952908;0.2493075;16;36;-26;1602;4004;1816;32768;0.7004847;-0.6731302;0.2368421;0.01108033;20;12;19;1923;3750;-906;256;0.6128492;-0.4639889;-0.536011;-0.3490305;26;20;7;-944;4726;476;128;-0.5512465;0.4473684;0.5517527;0.4376731;-24;17;-3;594;4794;532;4;0.09556787;-0.02077562;-0.6842105;-0.7226971;15;31;0;-182;4706;-482;16;0.3531856;-0.5609418;0.3614958;0.6556866;14;1;0;-212;4244;1193;2;0.666205;-0.7092752;0.2049861;-0.1052632;-10;1;-38;-3144;3234;194;8;0.3434903;-0.4182825;0.5595568;0.6276546;-55;-19;7;1352;3517;1398;0.2550952;2.657225;-0.851418;0.2603884;3.1396;-1.106187;0.2650308;3.562664;-1.331916;0.3127131;4.252451;-1.577646;0.0749656;4.564079;-1.722945;-0.2732232;4.476832;-1.616683;-0.6557513;3.831471;-1.073075;-0.6653723;3.111186;-1.688619;0.5940781;4.528303;-1.722651;0.8746227;4.397723;-1.616032;1.008959;3.665548;-1.004356;1.04255;2.763302;-1.291779;-0.05714081;2.616837;-0.8369372;-0.01887085;1.16282;-0.6781005;0;0;0;-0.05714081;2.616837;-0.8369372;-0.01887085;1.16282;-0.6781005;0;0;0
667738.51;NotLabelled;NONE;16384;0.2354571;0.1828255;-0.7869913;-0.5401662;13;13;107;-967;4649;841;65536;0.2437673;0.301939;0.6889381;0.6121883;-8;24;-64;-3337;1663;333;8192;0.7499537;-0.5831025;-0.1952908;0.2437673;17;27;-25;1402;4188;1796;32768;0.7027336;-0.6703601;0.2382271;0.005540166;15;17;16;2007;3736;-918;256;0.609305;-0.468144;-0.534626;-0.3518005;19;-4;6;-752;5050;324;128;-0.5443213;0.4487534;0.5530792;0.4432133;-21;21;-7;868;5062;1020;4;0.09279778;-0.01939058;-0.6842105;-0.7230965;6;6;5;-162;4754;-400;16;0.3559557;-0.5609418;0.3642659;0.6526486;4;3;1;22;4314;1125;2;0.666205;-0.7068042;0.2105263;-0.1108033;-3;-5;-28;-3026;2842;82;8;0.33241;-0.4182825;0.5554016;0.6372381;-65;-58;2;64;3521;1478;0.2217401;2.664951;-0.8382665;0.227061;3.14984;-1.088219;0.2317277;3.57513;-1.309724;0.2800005;4.267015;-1.549365;0.04252142;4.580112;-1.691922;-0.3057455;4.492224;-1.586446;-0.6857238;3.822058;-1.071836;-0.6970176;3.125034;-1.713574;0.5616035;4.543898;-1.691923;0.8420337;4.412148;-1.586449;0.9702048;3.666098;-0.9904159;1.007728;2.76756;-1.288762;-0.09049737;2.624422;-0.8242227;-0.02693406;1.171606;-0.6625252;0;0;0;-0.09049737;2.624422;-0.8242227;-0.02693406;1.171606;-0.6625252;0;0;0
667760.9676;NotLabelled;NONE;16384;0.2202216;0.1759003;-0.7891553;-0.5457063;10;13;107;-1267;4681;699;65536;0.2534626;0.3074792;0.6854361;0.6094183;-9;10;-64;-4303;1853;433;8192;0.7497259;-0.5872576;-0.1939058;0.2354571;18;6;-21;1258;4416;1768;32768;0.7036025;-0.6689751;0.2396122;-0.001385042;3;11;5;2227;3720;-1072;256;0.6075804;-0.4709141;-0.533241;-0.3531856;16;-4;3;-778;4936;294;128;-0.5415512;0.4501385;0.5535612;0.4445983;-15;6;-6;1120;4934;700;4;0.09141274;-0.01939058;-0.6842105;-0.7232729;-5;-13;12;-28;4736;-244;16;0.3559557;-0.5609418;0.3642659;0.6526486;-6;6;0;272;4338;1137;2;0.66482;-0.7062177;0.2160665;-0.1121884;5;-25;-15;-2954;2792;84;8;0.3254848;-0.4182825;0.5498615;0.6455631;-62;-16;1;-1366;3577;1352;0.2244979;2.671474;-0.824378;0.2298526;3.159452;-1.068241;0.2345494;3.587482;-1.284405;0.2847706;4.282133;-1.515491;0.04823036;4.597486;-1.654592;-0.300406;4.509105;-1.550763;-0.6738968;3.806953;-1.075562;-0.6747479;3.147153;-1.755606;0.5672293;4.560099;-1.654198;0.8471888;4.426434;-1.549889;0.9731605;3.682891;-0.9502636;1.018161;2.787645;-1.257342;-0.08774152;2.630771;-0.8108854;-0.02351461;1.177701;-0.6517629;0;0;0;-0.08774152;2.630771;-0.8108854;-0.02351461;1.177701;-0.6517629;0;0;0
667781.4809;NotLabelled;NONE;16384;0.2077562;0.1689751;-0.7911619;-0.5498615;10;10;96;-1455;4915;743;65536;0.2603878;0.3130194;0.6815516;0.6080332;-11;-13;-63;-4595;2583;579;8192;0.7487723;-0.5900277;-0.1925208;0.232687;19;-1;-21;1300;4366;1802;32768;0.7035984;-0.6689751;0.2396122;-0.002770083;0;3;-1;2377;3792;-1140;256;0.6077193;-0.4722992;-0.5318559;-0.3531856;12;-11;0;-786;4684;232;128;-0.5401662;0.4515235;0.5526715;0.4459834;-14;-4;-6;1174;4816;396;4;0.09141274;-0.02216066;-0.6855956;-0.7218804;-15;-28;18;154;4598;-130;16;0.3559557;-0.5623268;0.3642659;0.6514556;-15;0;0;428;4214;1269;2;0.66482;-0.704281;0.2229917;-0.1108033;8;-48;-3;-2764;3050;226;8;0.3254848;-0.4224377;0.5401662;0.6510196;-58;58;3;-1478;3103;1094;0.2242162;2.671815;-0.8214427;0.2295844;3.161018;-1.062841;0.2342933;3.590133;-1.276844;0.2852909;4.286437;-1.502723;0.04909599;4.603106;-1.639402;-0.299623;4.514362;-1.53616;-0.6701029;3.788065;-1.0962;-0.6652098;3.144134;-1.791272;0.56805;4.5651;-1.639404;0.8478728;4.430325;-1.536163;0.9672365;3.669825;-0.9567953;1.016556;2.77845;-1.274298;-0.08802404;2.631046;-0.8081731;-0.02333394;1.177701;-0.6517695;0;0;0;-0.08802404;2.631046;-0.8081731;-0.02333394;1.177701;-0.6517695;0;0;0
667801.3147;NotLabelled;NONE;16384;0.1952908;0.1620499;-0.7928852;-0.5540166;14;9;90;-1499;4763;761;65536;0.267313;0.3213296;0.6762167;0.6066482;-11;-25;-69;-4913;2777;845;8192;0.7466197;-0.5941828;-0.1897507;0.2313019;19;-7;-23;1348;4124;1810;32768;0.7049168;-0.66759;0.2396122;-0.001385042;-5;-7;-7;2299;3616;-1228;256;0.607978;-0.4750692;-0.5290859;-0.3531856;7;-19;-1;-476;4392;54;128;-0.5387812;0.4542936;0.5517527;0.4459834;-15;-24;-8;840;4514;132;4;0.09279778;-0.033241;-0.6911357;-0.7159714;-28;-45;20;470;4156;-294;16;0.3504155;-0.5637119;0.3628809;0.6540301;-31;-4;-1;134;3982;1457;2;0.66482;-0.7029028;0.2299169;-0.1052632;6;-57;8;-2338;3088;378;8;0.3296399;-0.432133;0.5304709;0.6505377;-51;83;-5;-248;3319;1032;0.2359215;2.672918;-0.8149465;0.2413029;3.163337;-1.053864;0.2460234;3.593529;-1.265691;0.2971861;4.290447;-1.489634;0.06108381;4.607506;-1.625565;-0.2876947;4.518505;-1.522747;-0.6582725;3.779471;-1.10462;-0.6452328;3.148583;-1.811449;0.580035;4.569463;-1.625404;0.8597952;4.434385;-1.522388;0.970781;3.67224;-0.9435167;1.021482;2.7815;-1.262576;-0.07631943;2.632082;-0.8019003;-0.0169338;1.177858;-0.6516829;0;0;0;-0.07631943;2.632082;-0.8019003;-0.0169338;1.177858;-0.6516829;0;0;0
667822.3113;NotLabelled;NONE;16384;0.1842105;0.1551246;-0.794007;-0.5581717;21;13;84;-1569;4575;629;65536;0.2714681;0.3296399;0.6705375;0.6066482;-10;-40;-73;-4419;2719;645;8192;0.7463074;-0.5969529;-0.1855956;0.2285319;18;-11;-25;1366;3840;1664;32768;0.7044445;-0.66759;0.2409972;-0.001385042;-8;-15;-10;2237;3454;-1294;256;0.6074051;-0.4778393;-0.5263157;-0.3545706;7;-17;0;-232;4136;-56;128;-0.5387812;0.4598338;0.5482701;0.4445983;-20;-41;-9;366;4170;222;4;0.09141274;-0.03878116;-0.6952909;-0.7118359;-31;-47;18;888;3944;-408;16;0.3476454;-0.5650969;0.3601108;0.6558417;-39;0;0;-26;3798;1465;2;0.666205;-0.701407;0.2368421;-0.0900277;9;-42;30;-1368;3204;476;8;0.33241;-0.4376731;0.5180055;0.6554511;-19;-19;-19;1138;3511;578;0.2645699;2.66884;-0.8048747;0.2699647;3.160471;-1.041287;0.2746972;3.591739;-1.250917;0.3259712;4.289872;-1.471015;0.08992268;4.607705;-1.605221;-0.2588766;4.518185;-1.502925;-0.6266306;3.762767;-1.112503;-0.6030403;3.148119;-1.83323;0.608869;4.569593;-1.605223;0.8886022;4.433913;-1.502928;0.9919495;3.663596;-0.9335372;1.047686;2.772407;-1.250494;-0.04767184;2.627938;-0.7920548;-0.009267092;1.170863;-0.6643199;0;0;0;-0.04767184;2.627938;-0.7920548;-0.009267092;1.170863;-0.6643199;0;0;0
667843.2956;NotLabelled;NONE;16384;0.1634349;0.1440443;-0.7927751;-0.5692521;25;8;68;-1519;4053;573;65536;0.2811634;0.3504155;0.6596653;0.602493;9;-4;-65;-3613;3587;-1881;8192;0.7459513;-0.599723;-0.1814404;0.2257618;18;-14;-25;1336;3542;1494;32768;0.7048038;-0.666205;0.2437673;0;-9;-20;-10;2061;3394;-1332;256;0.6069865;-0.4833795;-0.5207756;-0.3559557;6;-9;2;-34;3862;-114;128;0.5402569;-0.4736842;-0.536011;-0.4432133;-19;-26;-9;-50;3892;762;4;0.09141274;-0.04570637;-0.6980609;-0.708707;-34;-41;18;1226;3750;-494;16;0.3448753;-0.566482;0.3573407;0.657622;-46;3;3;-138;3720;1535;2;0.66759;-0.7014111;0.2354571;-0.08310249;10;-21;39;-822;3364;688;8;0.3296399;-0.433518;0.5207756;0.6574134;0;-53;-17;734;3535;568;0.2837699;2.664548;-0.7991383;0.2891847;3.158004;-1.031718;0.2939349;3.590889;-1.237986;0.3446329;4.290726;-1.452742;0.108341;4.609335;-1.584659;-0.2404251;4.518693;-1.483241;-0.6046598;3.750319;-1.11546;-0.5717235;3.149006;-1.846989;0.6273249;4.571742;-1.584661;0.9071372;4.435565;-1.483244;1.006598;3.658785;-0.9219996;1.06267;2.768197;-1.240582;-0.0284728;2.623548;-0.7866637;-0.005751148;1.164834;-0.6748752;0;0;0;-0.0284728;2.623548;-0.7866637;-0.005751148;1.164834;-0.6748752;0;0;0
667863.3365;NotLabelled;NONE;16384;0.1565097;0.1398892;-0.790917;-0.5747922;32;2;39;-2101;4033;925;65536;0.2880886;0.3559557;0.6599996;0.5955678;38;36;-63;-3561;4025;-2189;8192;0.7450172;-0.6052631;-0.1717452;0.2216066;17;-17;-25;1364;3404;982;32768;0.7064391;-0.6634349;0.2465374;0.004155125;-3;-16;-8;1649;3348;-1260;256;0.6051443;-0.4861496;-0.5193906;-0.3573407;5;-7;3;110;3782;-160;128;0.538197;-0.4778393;-0.533241;-0.4445983;-19;-4;-10;-164;3846;840;4;0.0900277;-0.05124654;-0.702216;-0.7043873;-33;-26;17;1484;3612;-482;16;0.3407202;-0.5706371;0.3518005;0.6591809;-54;6;5;-234;3756;1619;2;0.66759;-0.7029683;0.232687;-0.07756232;3;3;45;-484;3434;506;8;0.3254848;-0.4279778;0.5235457;0.6609043;17;-33;-3;560;3301;458;0.3036815;2.659956;-0.7931182;0.3091553;3.158792;-1.01392;0.3139578;3.596451;-1.209854;0.364511;4.299106;-1.415241;0.1282351;4.619212;-1.543509;-0.2206861;4.526926;-1.444129;-0.5753264;3.742209;-1.102398;-0.5278231;3.175716;-1.860439;0.6472527;4.582092;-1.542766;0.9269503;4.444844;-1.442486;1.011785;3.675062;-0.8693236;1.072818;2.785236;-1.189122;-0.008564383;2.618672;-0.7817013;0.00290139;1.158727;-0.6853259;0;0;0;-0.008564383;2.618672;-0.7817013;0.00290139;1.158727;-0.6853259;0;0;0
667883.523;NotLabelled;NONE;16384;0.1551246;0.132964;-0.7903662;-0.5775623;9;-39;26;-1837;3923;1981;65536;0.2963989;0.3559557;0.6649787;0.5858725;38;63;-51;-2355;3113;-583;8192;0.744118;-0.6080332;-0.16759;0.2202216;18;-14;-24;1502;3232;784;32768;0.7072438;-0.6620498;0.2479224;0.005540166;2;-7;-7;1499;3414;-1180;256;0.6032774;-0.4889196;-0.5180055;-0.3587258;7;6;5;108;3724;-72;128;-0.5304709;0.4806094;0.5361686;0.4473684;-22;9;-12;-174;3840;754;4;0.08587258;-0.05540166;-0.7073414;-0.699446;-32;-8;19;1636;3638;-430;16;0.3365651;-0.5734072;0.3462604;0.6618398;-61;8;7;-240;3796;1477;2;0.6689751;-0.7043546;0.2257618;-0.0734072;13;20;54;-732;3392;592;8;0.3254848;-0.4252077;0.5290859;0.6582752;37;-32;2;-200;4137;330;0.3248852;2.650229;-0.7945014;0.3303843;3.151354;-1.01006;0.3352091;3.591042;-1.201394;0.3864068;4.295182;-1.401465;0.1503944;4.616534;-1.527079;-0.1985473;4.5239;-1.428096;-0.5387504;3.721992;-1.112603;-0.4975361;3.171401;-1.882634;0.6693684;4.578802;-1.527081;0.9489927;4.440467;-1.428098;1.03806;3.644873;-0.8920266;1.103092;2.754749;-1.210205;0.01263812;2.608828;-0.7835541;0.008536428;1.147868;-0.7033163;0;0;0;0.01263812;2.608828;-0.7835541;0.008536428;1.147868;-0.7033163;0;0;0
667903.5851;NotLabelled;NONE;16384;0.1578947;0.1246537;-0.7921808;-0.5761772;-9;-61;16;-1299;3793;2101;65536;0.3047091;0.3545706;0.6692188;0.5775623;26;67;-38;-2571;2257;-131;8192;0.7421419;-0.6121883;-0.1648199;0.2174515;23;-6;-25;1624;3284;672;32768;0.7085378;-0.6606648;0.2479224;0.005540166;7;7;-7;1173;3320;-1050;256;0.6004263;-0.4889196;-0.5193906;-0.3614958;11;19;6;-78;3872;110;128;-0.5263157;0.4833795;0.5342869;0.4515235;-27;15;-12;-146;3730;552;4;0.08033241;-0.05817174;-0.7104966;-0.6966759;-27;8;24;1612;3574;-540;16;0.33241;-0.5775623;0.3407202;0.6632006;-70;7;8;-204;3812;1243;2;0.6689751;-0.7080923;0.2146814;-0.07063711;13;58;61;-544;3358;514;8;0.3282548;-0.4238227;0.533241;0.6544289;40;33;18;-1480;3827;1106;0.34685;2.63987;-0.7926579;0.3523731;3.143191;-1.003036;0.3572193;3.584829;-1.189825;0.4094924;4.290417;-1.384445;0.1740126;4.613;-1.507883;-0.1751582;4.520028;-1.410031;-0.5096788;3.71551;-1.095107;-0.4781017;3.177121;-1.874168;0.6929413;4.574651;-1.507548;0.9722816;4.43523;-1.409289;1.057078;3.640003;-0.8719829;1.124851;2.750062;-1.190101;0.03460173;2.598358;-0.7821734;0.01153216;1.13664;-0.721279;0;0;0;0.03460173;2.598358;-0.7821734;0.01153216;1.13664;-0.721279;0;0;0
667925.3021;NotLabelled;NONE;16384;0.1592798;0.1177285;-0.794968;-0.5734072;-12;-36;7;-633;3923;1633;65536;0.3116343;0.3518005;0.6734194;0.5706371;22;47;-17;-1155;2509;-817;8192;0.7401165;-0.6163435;-0.1620499;0.2146814;26;-2;-25;1650;3454;734;32768;0.7095104;-0.6606648;0.2451524;0.004155125;9;24;-7;1285;3404;-800;256;0.5976161;-0.4903047;-0.5193906;-0.3642659;15;12;6;16;3984;276;128;-0.5207756;0.4861496;0.5348539;0.4542936;-13;22;-11;-136;3976;246;4;0.06232687;-0.06509695;-0.7170838;-0.6911357;-32;13;54;1384;3914;16;16;0.3171745;-0.5872576;0.3254848;0.6697675;-98;-4;3;392;5142;631;2;0.6703601;-0.715757;0.1814404;-0.0734072;3;104;67;-1930;4230;1008;8;0.3504155;-0.4473684;0.5235457;0.6347995;6;114;31;620;6553;1132;0.3576363;2.629133;-0.7913756;0.3631887;3.135132;-0.9952276;0.3680609;3.579149;-1.176289;0.4203186;4.285531;-1.368008;0.1848201;4.608639;-1.490031;-0.1643238;4.515287;-1.392444;-0.4961663;3.705896;-1.087329;-0.4780918;3.178143;-1.874061;0.7037461;4.570251;-1.490033;0.98311;4.430406;-1.392447;1.06656;3.62402;-0.8718201;1.135416;2.734314;-1.190366;0.04538642;2.587489;-0.781473;0.01223491;1.12532;-0.7388047;0;0;0;0.04538642;2.587489;-0.781473;0.01223491;1.12532;-0.7388047;0;0;0
667946.0755;NotLabelled;NONE;16384;0.1578947;0.1163435;-0.7974376;-0.5706371;-13;19;-7;-967;4237;1325;65536;0.3130194;0.3476454;0.6807279;0.5637119;13;26;27;-1685;2153;-303;8192;0.7395992;-0.6191136;-0.1592798;0.2105263;24;-5;-28;1728;3768;762;32768;0.7109447;-0.6606648;0.2409972;0;10;33;-8;1381;3588;-638;256;0.5947766;-0.4916897;-0.5193906;-0.367036;25;6;8;454;4554;524;128;-0.5180055;0.4847645;0.5364386;0.4570637;0;29;-9;-92;4168;-252;4;0.05124654;-0.07063711;-0.7214165;-0.6869806;-37;3;81;1380;4284;316;16;0.3074792;-0.5914127;0.3144044;0.6758975;-114;-15;-2;938;6118;181;2;0.6703601;-0.7190114;0.166205;-0.07756232;6;90;41;-3328;5382;118;8;0.3504155;-0.4501385;0.5249307;0.6316898;12;-34;22;1272;4713;-128;0.3884485;2.592373;-0.7898415;0.394024;3.100474;-0.9883968;0.3989167;3.546358;-1.164811;0.4515084;4.254049;-1.351542;0.2162032;4.578038;-1.471588;-0.1330697;4.484066;-1.375064;-0.4669827;3.677225;-1.065486;-0.4577582;3.156727;-1.857189;0.7351229;4.539567;-1.471247;1.01435;4.399;-1.37431;1.0943;3.592473;-0.8533529;1.164293;2.702223;-1.170123;0.07619761;2.550628;-0.7804102;0.02343649;1.088457;-0.791858;0;0;0;0.07619761;2.550628;-0.7804102;0.02343649;1.088457;-0.791858;0;0;0
667966.3655;NotLabelled;NONE;16384;0.1565097;0.1204986;-0.7980832;-0.5692521;-10;23;-12;-1645;3637;1195;65536;0.3088643;0.3421052;0.6854165;0.5637119;15;12;42;-2213;2609;-469;8192;0.7357817;-0.6274238;-0.1495845;0.2063712;14;-24;-36;2428;4114;510;32768;0.7141458;-0.6606648;0.2313019;-0.004155125;11;22;-12;1659;4620;-820;256;0.58672;-0.4986149;-0.5180055;-0.3725762;32;1;9;990;4140;1294;128;-0.5152354;0.4764543;0.5452967;0.4584487;48;41;1;-348;5010;-1422;4;0.0401662;-0.08033241;-0.7276387;-0.6800554;-48;-5;112;1198;4474;542;16;0.2922437;-0.5955678;0.3033241;0.6840227;-134;-34;-10;1068;6980;-1097;2;0.6703601;-0.7208819;0.1578947;-0.07756232;-3;21;30;-2770;5776;98;8;0.3421052;-0.4459834;0.533241;0.6322317;7;-88;14;1106;3795;222;0.3993491;2.564424;-0.7892451;0.4049298;3.072995;-0.9865909;0.4098271;3.519297;-1.161943;0.4625421;4.228267;-1.34373;0.2272886;4.553135;-1.461474;-0.1219907;4.458564;-1.36556;-0.4614323;3.649303;-1.068567;-0.4695742;3.128294;-1.859945;0.7462002;4.514555;-1.461475;1.025411;4.373254;-1.365563;1.102765;3.555575;-0.8618854;1.175045;2.66546;-1.17852;0.08709792;2.522657;-0.7799213;0.0205332;1.061775;-0.8273688;0;0;0;0.08709792;2.522657;-0.7799213;0.0205332;1.061775;-0.8273688;0;0;0
667987.2824;NotLabelled;NONE;16384;0.1578947;0.1246537;-0.7971718;-0.5692521;-5;14;-21;-2005;2825;1305;65536;0.3033241;0.3393352;0.6892569;0.5637119;14;0;43;-2995;2903;-595;8192;0.7345188;-0.6301939;-0.1440443;0.2063712;7;-25;-25;2758;3448;544;32768;0.7158615;-0.6592798;0.2299169;-0.005540166;12;9;-4;1579;4522;-754;256;0.5851928;-0.5;-0.5193906;-0.3711911;4;2;9;560;3450;1860;128;-0.5166205;0.466759;0.5534728;0.4570637;59;40;3;-244;4252;-1036;4;0.02493075;-0.09418282;-0.7330784;-0.6731302;-52;-14;138;802;4318;-4;16;0.2756233;-0.599723;0.2908587;0.692651;-152;-35;-7;-512;6672;-659;2;0.6717451;-0.7206384;0.1537396;-0.07617728;-13;8;23;-834;3170;-682;8;0.33241;-0.4418283;0.5401662;0.6344383;1;-67;13;880;3655;190;0.4198297;2.526386;-0.787312;0.4253804;3.032237;-0.9915336;0.4302513;3.476121;-1.17292;0.4868377;4.188705;-1.338703;0.2533913;4.517369;-1.449297;-0.09646103;4.422507;-1.35579;-0.4363723;3.611517;-1.064093;-0.4558847;3.079519;-1.847925;0.7720934;4.476069;-1.449781;1.050478;4.331185;-1.356859;1.122954;3.494703;-0.8842903;1.200571;2.602401;-1.19342;0.10758;2.48475;-0.7773765;0.01809463;1.027256;-0.8699107;0;0;0;0.10758;2.48475;-0.7773765;0.01809463;1.027256;-0.8699107;0;0;0
668007.2998;NotLabelled;NONE;16384;0.1592798;0.1288089;-0.7972234;-0.567867;-4;10;-28;-2109;2169;1285;65536;0.2977839;0.3365651;0.6918917;0.5650969;12;1;32;-3517;2741;-249;8192;0.7346663;-0.6301939;-0.1412742;0.2077562;-1;-16;-7;2830;2854;604;32768;0.7175651;-0.6578947;0.2285319;-0.006925208;8;0;9;1265;4126;-602;256;0.5859643;-0.4972299;-0.5221606;-0.3698061;-22;0;6;400;3090;2010;128;-0.5166205;0.4626039;0.5569504;0.4570637;13;21;-2;190;3402;-746;4;0.01108033;-0.1108033;-0.7374082;-0.666205;-45;-30;151;10;3546;-90;16;0.2590028;-0.6052631;0.2756233;0.7004327;-159;-7;8;-2870;5746;1697;2;0.6717451;-0.721798;0.1481994;-0.07617728;2;39;23;-184;2054;-1450;8;0.3268698;-0.4390582;0.5443213;0.6356874;0;-29;15;252;3647;-36;0.4396625;2.479797;-0.7709697;0.445165;2.981242;-0.9857821;0.449993;3.421216;-1.176461;0.5104723;4.133573;-1.341843;0.2788057;4.463605;-1.452101;-0.07151809;4.370646;-1.358447;-0.4125404;3.559865;-1.067472;-0.4409099;3.01858;-1.844647;0.7972681;4.419403;-1.452912;1.074891;4.272905;-1.36024;1.143877;3.428498;-0.9014457;1.225773;2.53652;-1.210404;0.1274152;2.438379;-0.7600892;0.01861395;0.9874876;-0.9147945;0;0;0;0.1274152;2.438379;-0.7600892;0.01861395;0.9874876;-0.9147945;0;0;0
668028.3323;NotLabelled;NONE;16384;0.1620499;0.132964;-0.7969683;-0.566482;-5;9;-25;-2173;2151;1291;65536;0.2936288;0.333795;0.6961264;0.5637119;10;6;16;-3305;2529;-543;8192;0.7350644;-0.6288089;-0.1412742;0.2105263;-11;-8;2;2728;2916;504;32768;0.7166623;-0.6578947;0.2313019;-0.008310249;4;-4;23;829;4026;-518;256;0.5876413;-0.4958449;-0.5235457;-0.367036;-17;-1;1;548;3158;1552;128;-0.5152354;0.4598338;0.5593837;0.4584487;10;29;-2;206;2930;-1204;4;-0.01939058;-0.1481994;-0.7393619;-0.6565097;10;-41;163;1044;3804;786;16;0.2299169;-0.6232687;0.232687;0.7103036;-180;38;19;-1612;4924;4567;2;0.6703601;-0.7243224;0.1412742;-0.07756232;19;48;25;-806;2220;-1798;8;0.3254848;-0.4390582;0.5457063;0.6352104;-8;1;13;448;4295;336;0.4584844;2.424405;-0.7541683;0.4639683;2.924157;-0.9728908;0.4687796;3.362628;-1.167001;0.5300673;4.073617;-1.337882;0.2988053;4.402993;-1.45092;-0.05168778;4.31109;-1.356857;-0.3959942;3.510128;-1.043422;-0.4308041;2.959085;-1.813447;0.8172268;4.358306;-1.450922;1.094631;4.212281;-1.35686;1.165348;3.376808;-0.8822457;1.251244;2.48517;-1.191099;0.146238;2.383074;-0.7429379;0.01989229;0.941875;-0.9616664;0;0;0;0.146238;2.383074;-0.7429379;0.01989229;0.941875;-0.9616664;0;0;0
668049.2749;NotLabelled;NONE;16384;0.1648199;0.1371191;-0.7956952;-0.566482;3;0;0;-2067;3897;1145;65536;0.2908587;0.333795;0.6984057;0.5623268;11;3;6;-3157;2395;-547;8192;0.7354493;-0.6274238;-0.1412742;0.2132964;-19;-3;2;2694;3590;136;32768;0.715745;-0.6578947;0.234072;-0.009695291;1;-8;31;841;4218;-304;256;0.5875728;-0.4944598;-0.5249307;-0.367036;-1;14;-2;694;3994;1176;128;-0.5138504;0.4542936;0.5640284;0.4598338;17;36;2;34;3082;-1844;4;-0.03462604;-0.1703601;-0.7352484;-0.6551247;25;-59;161;1212;5834;1704;16;0.2146814;-0.6315789;0.2132964;0.7138099;-162;17;16;-2040;4322;4415;2;0.6634349;-0.7315721;0.1357341;-0.07894737;25;-6;-2;-1996;5348;-894;8;0.3185596;-0.4390582;0.5470914;0.6375255;-16;-35;6;278;4319;574;0.4888943;2.282333;-0.7180049;0.4943719;2.781514;-0.9380267;0.4991778;3.219479;-1.133276;0.5615197;3.928661;-1.311145;0.3306831;4.257379;-1.426931;-0.01980868;4.167076;-1.331326;-0.3675701;3.374164;-1.00166;-0.4111558;2.814236;-1.764797;0.8490162;4.21168;-1.427472;1.126314;4.06603;-1.332522;1.199378;3.237309;-0.8465592;1.283819;2.346626;-1.158552;0.1766483;2.241031;-0.7066581;0.03859028;0.8280773;-1.06072;0;0;0;0.1766483;2.241031;-0.7066581;0.03859028;0.8280773;-1.06072;0;0;0
668070.2824;NotLabelled;NONE;16384;0.1648199;0.1357341;-0.7949451;-0.567867;10;-1;3;-2021;4185;1233;65536;0.2894737;0.333795;0.700093;0.5609418;14;0;10;-3309;2779;-651;8192;0.7394981;-0.6232687;-0.1385041;0.2132964;-14;2;-2;2618;4122;-128;32768;0.7151148;-0.6565097;0.2396122;-0.01385042;8;-7;18;833;4820;-190;256;0.5874977;-0.4930748;-0.5263157;-0.367036;1;14;0;726;4178;1192;128;-0.5166205;0.4487534;0.5681694;0.4570637;46;-3;7;-90;3806;-2496;4;-0.04986149;-0.1883656;-0.7299616;-0.6551247;29;-21;147;934;6336;1072;16;0.2022161;-0.6398892;0.1952908;0.7152007;-136;28;20;-1076;3162;3805;2;0.6620498;-0.7325678;0.1371191;-0.07894737;8;-4;-9;-1476;4550;-604;8;0.3130194;-0.4376731;0.5484765;0.640027;-18;-41;6;-74;3977;688;0.4895473;2.208506;-0.6801264;0.4950061;2.705983;-0.9039745;0.4997953;3.142435;-1.102581;0.5622951;3.85158;-1.280545;0.3315658;4.180264;-1.396641;-0.0190203;4.089972;-1.301375;-0.3652907;3.296524;-0.9714253;-0.4166877;2.736228;-1.733806;0.8499008;4.134583;-1.396643;1.127107;3.988963;-1.301377;1.204199;3.157973;-0.819934;1.28662;2.269905;-1.139823;0.1773022;2.167293;-0.6684364;0.04918729;0.7749997;-1.099674;0;0;0;0.1773022;2.167293;-0.6684364;0.04918729;0.7749997;-1.099674;0;0;0
668091.2932;NotLabelled;NONE;16384;0.1648199;0.1357341;-0.7939539;-0.5692521;15;0;2;-1831;3909;1485;65536;0.2853186;0.333795;0.7029014;0.5595568;16;-8;14;-3271;2967;-693;8192;0.7406632;-0.6218836;-0.1385041;0.2132964;-8;6;-1;2562;3846;-124;32768;0.7154232;-0.6551247;0.2423823;-0.01523546;12;0;12;891;4642;-72;256;0.5855663;-0.4944598;-0.5290859;-0.3642659;-3;-3;12;1088;4262;1284;128;-0.5207756;0.4473684;0.5698954;0.4515235;-11;-4;-16;-1318;5066;-624;4;-0.07202215;-0.199446;-0.7251523;-0.6551247;41;46;142;1662;5636;-686;16;0.1939058;-0.6468144;0.1814404;0.7149203;-93;29;34;-1000;2744;3171;2;0.6606648;-0.7338172;0.1371191;-0.07894737;6;16;-3;-812;3716;-670;8;0.3088643;-0.4362881;0.5484765;0.6429846;-16;-21;8;14;3881;1170;0.4868263;2.137417;-0.6497651;0.492247;2.631409;-0.8812037;0.4970023;3.06477;-1.08647;0.5594341;3.773411;-1.266449;0.328665;4.101759;-1.383413;-0.02189447;4.011724;-1.287806;-0.364274;3.216602;-0.9578274;-0.4226527;2.655469;-1.719089;0.8470015;4.056096;-1.383415;1.124236;3.910754;-1.287808;1.214616;3.079609;-0.80895;1.296779;2.196192;-1.141529;0.1745832;2.096388;-0.6373932;0.06068569;0.724453;-1.133055;0;0;0;0.1745832;2.096388;-0.6373932;0.06068569;0.724453;-1.133055;0;0;0
668111.2761;NotLabelled;NONE;16384;0.1648199;0.134349;-0.7931948;-0.5706371;16;3;0;-1819;3677;1753;65536;0.2811634;0.333795;0.7045738;0.5595568;13;-11;16;-3187;2917;-515;8192;0.7404029;-0.6218836;-0.1398892;0.2132964;-5;15;1;2386;3698;-34;32768;0.7171252;-0.6537396;0.2409972;-0.0166205;16;9;7;699;4286;26;256;0.5851731;-0.4944598;-0.5304709;-0.3628809;-12;10;13;898;4530;1258;128;-0.5152354;0.4487534;0.5727361;0.4529086;-18;25;-20;-1308;4936;552;4;-0.09695291;-0.2049861;-0.7206889;-0.6551247;47;66;153;2614;4854;-672;16;0.1925208;-0.6537396;0.1703601;0.7117146;-43;55;47;-938;2286;2457;2;0.6606648;-0.7342785;0.132964;-0.08171745;1;36;2;-812;3762;-338;8;0.3047091;-0.4362881;0.5470914;0.6461393;-13;-2;8;254;3991;1352;0.4795317;2.075975;-0.6080025;0.4849195;2.566965;-0.8457438;0.4896457;2.997664;-1.056539;0.5581529;3.70544;-1.237711;0.3301672;4.035645;-1.354907;-0.02105917;3.948882;-1.258723;-0.3584096;3.148585;-0.936157;-0.4271113;2.583684;-1.693761;0.8480765;3.985372;-1.355479;1.124127;3.837718;-1.259987;1.220961;3.001079;-0.7920848;1.304069;2.119863;-1.130226;0.1672904;2.035108;-0.5950629;0.07158507;0.686944;-1.155556;0;0;0;0.1672904;2.035108;-0.5950629;0.07158507;0.686944;-1.155556;0;0;0
668131.6254;NotLabelled;NONE;16384;0.1648199;0.1357341;-0.7919604;-0.5720221;15;6;-5;-1755;3549;1815;65536;0.2783934;0.33241;0.705227;0.5609418;6;-3;18;-3293;2839;-679;8192;0.7416985;-0.6204986;-0.1412742;0.2119114;-4;20;2;2192;3706;-16;32768;0.7175558;-0.6537396;0.2396122;-0.01800554;15;15;1;725;4032;76;256;0.5849895;-0.4916897;-0.533241;-0.3628809;-11;20;8;612;4056;958;128;-0.5138504;0.4459834;0.576134;0.4529086;32;26;-5;-508;4634;528;4;-0.1191136;-0.2146814;-0.7157851;-0.6537396;30;10;142;554;4586;794;16;0.199446;-0.6620498;0.1634349;0.7037047;12;84;56;-666;1758;2261;2;0.6592798;-0.7361897;0.1274238;-0.08448754;0;41;10;-938;4070;-296;8;0.3033241;-0.4390582;0.5470914;0.6449135;-8;1;7;654;4035;1338;0.4729008;2.029738;-0.5600123;0.4783017;2.521916;-0.7952855;0.4830395;2.953667;-1.003915;0.5541192;3.66082;-1.186525;0.3273789;3.991519;-1.30474;-0.02425928;3.90612;-1.20884;-0.3594027;3.110019;-0.8738304;-0.432802;2.540717;-1.627689;0.8451201;3.93954;-1.304509;1.120555;3.791187;-1.208328;1.215;2.963913;-0.7235875;1.303067;2.083059;-1.061416;0.1606588;1.988807;-0.5472952;0.08837058;0.6653218;-1.16699;0;0;0;0.1606588;1.988807;-0.5472952;0.08837058;0.6653218;-1.16699;0;0;0
668152.2917;NotLabelled;NONE;16384;0.1648199;0.1371191;-0.7907193;-0.5734072;11;9;-8;-1701;3597;1767;65536;0.2756233;0.3310249;0.7069644;0.5609418;0;3;22;-3029;2697;-697;8192;0.7418278;-0.6204986;-0.1426593;0.2105263;-2;18;4;2058;3782;134;32768;0.718894;-0.6537396;0.2354571;-0.01939058;14;17;-4;879;4048;118;256;0.5836188;-0.4903047;-0.536011;-0.3628809;-7;15;5;458;3894;656;128;-0.5138504;0.4404432;0.5803804;0.4529086;46;37;1;396;3918;-782;4;-0.1495845;-0.2368421;-0.704247;-0.6523545;34;13;110;490;4526;810;16;0.234072;-0.6745152;0.1634349;0.6808293;129;100;52;380;1364;1651;2;0.6592798;-0.7374797;0.1177285;-0.08725762;3;20;14;-1188;3910;-794;8;0.299169;-0.4390582;0.5470914;0.6468515;-5;-9;3;492;4103;892;0.4732215;2.000555;-0.4992024;0.4786093;2.491535;-0.7369654;0.4833354;2.922225;-0.9477793;0.5540862;3.62834;-1.134481;0.3271442;3.958349;-1.254227;-0.02434559;3.873467;-1.157331;-0.3525789;3.073706;-0.8241998;-0.4318506;2.499377;-1.573639;0.8448897;3.906414;-1.254463;1.120478;3.758626;-1.157851;1.223567;2.927109;-0.6822181;1.310545;2.046307;-1.020464;0.1609802;1.959689;-0.4862608;0.1035536;0.6651785;-1.165823;0;0;0;0.1609802;1.959689;-0.4862608;0.1035536;0.6651785;-1.165823;0;0;0
668173.3274;NotLabelled;NONE;16384;0.16759;0.1385041;-0.7898952;-0.5734072;3;2;-12;-1551;3593;1465;65536;0.2700831;0.3227147;0.7096307;0.5650969;-8;7;34;-2507;2557;-1063;8192;0.7416817;-0.6204986;-0.1454294;0.2091413;0;13;7;2062;3788;274;32768;0.7197567;-0.6537396;0.232687;-0.02077562;12;16;-12;951;4112;152;256;0.5814783;-0.4903047;-0.5373961;-0.3642659;-3;12;3;444;3772;518;128;-0.5138504;0.433518;0.5855713;0.4529086;24;23;-2;338;3486;-1442;4;-0.1620499;-0.2437673;-0.7003971;-0.6509695;20;5;96;808;3942;366;16;0.2590028;-0.6789388;0.1731302;0.66482;186;75;52;560;1200;1669;2;0.6578947;-0.7393658;0.1135734;-0.08725762;6;12;13;-1620;3766;-724;8;0.2977839;-0.4390582;0.5470914;0.6474903;-6;-12;3;398;3923;822;0.4746402;2.006165;-0.3646721;0.4800014;2.494742;-0.6073353;0.4847041;2.923301;-0.8224478;0.5570693;3.628716;-1.011166;0.3308875;3.958888;-1.131897;-0.02080721;3.875073;-1.034815;-0.3469494;3.076713;-0.6963192;-0.433942;2.498068;-1.441571;0.8485152;3.90579;-1.131899;1.123756;3.757663;-1.034817;1.225209;2.928593;-0.5545826;1.313455;2.04661;-0.8894042;0.1624004;1.96543;-0.3512879;0.1359418;0.7246912;-1.126353;0;0;0;0.1624004;1.96543;-0.3512879;0.1359418;0.7246912;-1.126353;0;0;0
668193.4794;NotLabelled;NONE;16384;0.1689751;0.1398892;-0.7893558;-0.5734072;1;2;-13;-1361;3427;1351;65536;0.265928;0.3185596;0.7119693;0.566482;-8;9;42;-2461;2483;-1057;8192;0.7399713;-0.6218836;-0.1481994;0.2091413;4;5;9;2208;3512;420;32768;0.7211732;-0.6551247;0.2243767;-0.01939058;3;8;-22;1055;3890;34;256;0.5814783;-0.4903047;-0.5373961;-0.3642659;1;-4;-1;590;3722;858;128;-0.5138504;0.433518;0.5866399;0.4515235;-5;-12;-5;-144;4036;-756;4;-0.1689751;-0.2520775;-0.6970971;-0.6495845;14;-11;77;932;3316;258;16;0.2867036;-0.6777228;0.1911357;0.6495845;235;46;57;532;1012;1861;2;0.6565097;-0.7408069;0.1121884;-0.08725762;5;3;14;-1684;3778;-478;8;0.2963989;-0.4376731;0.5470914;0.6490616;-5;-7;2;180;4021;740;0.4796062;2.042556;-0.2890188;0.4849342;2.528098;-0.5376999;0.4896074;2.953967;-0.7580906;0.5629353;3.659672;-0.9453486;0.3372113;3.990386;-1.065451;-0.01461339;3.906833;-0.9686139;-0.3382713;3.110482;-0.6230711;-0.4278842;2.515687;-1.355181;0.8547689;3.936611;-1.065452;1.129795;3.787925;-0.9686162;1.231681;2.959762;-0.4869098;1.320395;2.07722;-0.8201292;0.1673682;2.00199;-0.2750902;0.1486975;0.7833624;-1.084694;0;0;0;0.1673682;2.00199;-0.2750902;0.1486975;0.7833624;-1.084694;0;0;0
668214.7853;NotLabelled;NONE;16384;0.1703601;0.1412742;-0.7888113;-0.5734072;1;4;-14;-1371;3289;1255;65536;0.2617728;0.3130194;0.7137548;0.5692521;-5;11;48;-2407;2553;-1131;8192;0.7394112;-0.6218836;-0.1509695;0.2091413;3;8;8;2214;3468;464;32768;0.7225219;-0.6551247;0.2202216;-0.0166205;-1;3;-25;1147;3828;-46;256;0.5814783;-0.4903047;-0.5373961;-0.3642659;0;8;-1;716;3676;1092;128;-0.5138504;0.4362881;0.5845827;0.4515235;-3;-3;-2;-470;3962;-524;4;-0.1745152;-0.2603878;-0.6926634;-0.6495845;17;-15;57;808;2946;180;16;0.3157895;-0.6730148;0.2160665;0.632964;277;21;66;344;1158;2137;2;0.6565097;-0.7409688;0.1121884;-0.08587258;6;-2;18;-1508;3774;-368;8;0.2950138;-0.4376731;0.5470914;0.6496923;-4;-6;3;292;4023;850;0.4779515;2.098447;-0.2041678;0.4832725;2.583343;-0.4541062;0.4879394;3.00864;-0.6755995;0.5612673;3.714345;-0.8628575;0.3355432;4.04506;-0.9829597;-0.01628147;3.961505;-0.8861228;-0.3392156;3.166518;-0.5367846;-0.4313297;2.562715;-1.26117;0.8531008;3.991284;-0.9829614;1.128127;3.842597;-0.8861251;1.225104;3.015638;-0.4013489;1.315574;2.128532;-0.7217322;0.165714;2.057917;-0.1901253;0.1527836;0.8574507;-1.02653;0;0;0;0.165714;2.057917;-0.1901253;0.1527836;0.8574507;-1.02653;0;0;0
668235.2894;NotLabelled;NONE;16384;0.1717452;0.1426593;-0.7882615;-0.5734072;1;5;-13;-1421;3263;1223;65536;0.2576177;0.3060942;0.717156;0.5706371;-2;15;53;-2623;2497;-1249;8192;0.7402902;-0.6204986;-0.1523546;0.2091413;1;12;8;2268;3448;400;32768;0.7221621;-0.6565097;0.2174515;-0.01385042;-7;-2;-25;1135;3804;-146;256;0.5804927;-0.4889196;-0.5387812;-0.365651;-1;15;-2;732;3728;1092;128;-0.5124654;0.4362881;0.5857973;0.4515235;-8;2;-1;-510;3876;-272;4;-0.1772853;-0.267313;-0.6893139;-0.6495845;22;-10;35;906;2576;-54;16;0.3448753;-0.665675;0.2479224;0.6135734;310;-5;79;-26;1462;2965;2;0.6565097;-0.7414928;0.1108033;-0.08310249;7;-4;23;-1350;3834;-390;8;0.2936288;-0.4376731;0.5484765;0.6491517;-5;-10;3;238;3981;632;0.4668511;2.164762;-0.1051126;0.4721854;2.650883;-0.3526601;0.4768643;3.077266;-0.5720565;0.5501922;3.78297;-0.7593145;0.3244681;4.113685;-0.8794167;-0.02735654;4.030131;-0.7825797;-0.3497941;3.23652;-0.4296724;-0.4415489;2.621796;-1.144861;0.8420258;4.05991;-0.8794183;1.117052;3.911224;-0.7825823;1.212074;3.086055;-0.2943783;1.30465;2.195967;-0.6057616;0.1546128;2.124164;-0.09128673;0.1511022;0.9404562;-0.9513348;0;0;0;0.1546128;2.124164;-0.09128673;0.1511022;0.9404562;-0.9513348;0;0;0
668255.284;NotLabelled;NONE;16384;0.1717452;0.1440443;-0.7880095;-0.5734072;1;8;-12;-1399;3351;1245;65536;0.2534626;0.299169;0.720448;0.5720221;0;17;56;-2545;2565;-1235;8192;0.7397147;-0.6204986;-0.1551246;0.2091413;0;13;8;2150;3456;332;32768;0.7217781;-0.6578947;0.2146814;-0.01108033;-10;-5;-25;1161;3800;-138;256;0.5794955;-0.4875346;-0.5401662;-0.367036;0;19;-2;634;3682;860;128;-0.5096953;0.4376731;0.5850387;0.4542936;-14;3;0;-422;3732;-346;4;-0.1772853;-0.2714681;-0.6837394;-0.6537396;24;7;-7;2034;2166;98;16;0.3975069;-0.6439624;0.3213296;0.5692521;338;-23;95;-1036;2258;3685;2;0.6565097;-0.7425554;0.1066482;-0.07894737;4;2;24;-1484;3778;-496;8;0.2908587;-0.4362881;0.5484765;0.6513275;-12;-6;6;118;4055;524;0.4598154;2.239927;0.005203187;0.4651497;2.726042;-0.242356;0.4698284;3.152419;-0.4617626;0.5424162;3.85807;-0.6495101;0.3163432;4.18847;-0.7698231;-0.03538837;4.104621;-0.6729039;-0.3558214;3.312397;-0.3150853;-0.453938;2.686277;-1.01946;0.833956;4.135227;-0.7698249;1.109142;3.986892;-0.6729065;1.208652;3.163193;-0.1831176;1.297383;2.270427;-0.487887;0.1475771;2.199329;0.01903027;0.1450956;1.027692;-0.8573938;0;0;0;0.1475771;2.199329;0.01903027;0.1450956;1.027692;-0.8573938;0;0;0
668276.2785;NotLabelled;NONE;16384;0.1717452;0.1481994;-0.7872387;-0.5734072;0;7;-10;-1583;3405;1389;65536;0.2423823;0.2839335;0.7281803;0.5747922;1;20;60;-3021;2699;-993;8192;0.7391283;-0.6204986;-0.1578947;0.2091413;0;12;9;2214;3438;274;32768;0.7213846;-0.6592798;0.2119114;-0.006925208;-12;-8;-26;1137;3912;-122;256;0.5797801;-0.4861496;-0.5401662;-0.368421;3;19;-2;666;3540;718;128;-0.5083103;0.4390582;0.5841281;0.4556787;-17;3;-2;-434;3708;-548;4;-0.1772853;-0.2686981;-0.6835079;-0.6551247;12;37;-22;2582;2228;626;16;0.4265928;-0.6328655;0.3545706;0.5401662;324;38;101;-1832;2596;4617;2;0.6551247;-0.7443152;0.1038781;-0.07756232;2;8;20;-1392;3680;-454;8;0.2894737;-0.4376731;0.5484765;0.6510152;-18;-3;9;208;3899;380;0.4451072;2.389611;0.2398982;0.4504619;2.877595;-0.003955245;0.4551588;3.305629;-0.2201115;0.5270118;4.011228;-0.4083372;0.3005925;4.341314;-0.528856;-0.0510465;4.257171;-0.4318562;-0.3695996;3.465657;-0.07080424;-0.4739261;2.82835;-0.764168;0.8182595;4.288602;-0.5288578;1.093604;4.140613;-0.431859;1.193776;3.318722;0.06082356;1.278689;2.423341;-0.237287;0.1328677;2.348908;0.25339;0.1428016;1.18171;-0.6288849;0;0;0;0.1328677;2.348908;0.25339;0.1428016;1.18171;-0.6288849;0;0;0
668296.3083;NotLabelled;NONE;16384;0.1731302;0.1495845;-0.7876808;-0.5720221;-1;3;-13;-1727;3237;1475;65536;0.2382271;0.2770083;0.7322077;0.5747922;0;20;56;-2999;2729;-973;8192;0.7382285;-0.6204986;-0.1620499;0.2091413;3;13;9;2180;3188;152;32768;0.7188126;-0.6634349;0.2077562;0;-10;-5;-23;1079;3846;-218;256;0.574784;-0.4847645;-0.5429363;-0.3739612;11;24;-1;756;3398;660;128;-0.501385;0.4404432;0.585812;0.4598338;-17;20;-4;-778;3534;-380;4;-0.1786704;-0.2617728;-0.687151;-0.6537396;0;69;-31;2154;2274;684;16;0.4570637;-0.6265381;0.3781163;0.5055401;295;96;108;-1664;2790;4883;2;0.6551247;-0.7446502;0.1024931;-0.07617728;0;9;15;-1336;3534;-552;8;0.2867036;-0.4376731;0.5470914;0.6534021;-25;-3;12;226;4023;314;0.4442078;2.454308;0.3665638;0.4495759;2.943518;0.1251792;0.4542847;3.372638;-0.08881146;0.523778;4.078361;-0.2774613;0.2962545;4.407621;-0.3981629;-0.05509672;4.322364;-0.3010917;-0.3735805;3.532994;0.0646843;-0.487596;2.870203;-0.6027774;0.8140941;4.356631;-0.3981646;1.089935;4.209616;-0.3010943;1.188824;3.389547;0.1948713;1.270573;2.491037;-0.09458357;0.1319675;2.413538;0.3798325;0.144649;1.242575;-0.4974037;0;0;0;0.1319675;2.413538;0.3798325;0.144649;1.242575;-0.4974037;0;0;0
668317.4241;NotLabelled;NONE;16384;0.1745152;0.1509695;-0.7881154;-0.5706371;-3;1;-13;-1533;3235;1427;65536;0.234072;0.2714681;0.7345306;0.5761772;-3;19;50;-3037;2667;-837;8192;0.7380062;-0.6204986;-0.1648199;0.2077562;5;17;9;2232;3168;134;32768;0.7183227;-0.66482;0.2049861;0.002770083;-8;0;-20;1013;3738;-286;256;0.5719149;-0.4833795;-0.5443213;-0.3781163;13;30;0;814;3374;550;128;-0.4986149;0.4390582;0.5859398;0.4639889;-12;33;-2;-842;3572;-164;4;-0.1800554;-0.2520775;-0.6917157;-0.6523545;1;64;-38;1796;2286;344;16;0.4847645;-0.6205033;0.3961219;0.4722992;256;101;104;-1286;3340;4305;2;0.6551247;-0.7448833;0.09972299;-0.07756232;1;10;8;-1140;3598;-568;8;0.2839335;-0.4390582;0.5457063;0.6548392;-31;-5;13;172;4007;348;0.4630516;2.504299;0.4838705;0.4684466;2.995945;0.2474886;0.4731791;3.427226;0.03788629;0.5417143;4.134128;-0.1466543;0.3137624;4.463735;-0.2655856;-0.03751409;4.377393;-0.1692065;-0.3529782;3.590398;0.204225;-0.481886;2.917859;-0.4506561;0.8316782;4.413525;-0.2655874;1.107686;4.266368;-0.1692094;1.210667;3.449054;0.3304588;1.27916;2.545318;0.05413103;0.1508099;2.463396;0.4966877;0.145713;1.285702;-0.371569;0;0;0;0.1508099;2.463396;0.4966877;0.145713;1.285702;-0.371569;0;0;0
668339.489;NotLabelled;NONE;16384;0.1759003;0.1523546;-0.7885424;-0.5692521;-5;1;-17;-1465;3217;1407;65536;0.2313019;0.265928;0.7363447;0.5775623;-8;23;43;-3153;2671;-793;8192;0.737455;-0.6204986;-0.1689751;0.2063712;5;27;8;2208;3092;54;32768;0.7187098;-0.66482;0.2036011;0.004155125;-4;4;-18;1019;3704;-282;256;0.5699223;-0.4819945;-0.5457063;-0.3808864;15;35;0;776;3520;526;128;-0.4930748;0.4362881;0.589382;0.468144;-4;52;-3;-964;3442;-184;4;-0.1800554;-0.2437673;-0.6946878;-0.6523545;18;52;-35;2036;2440;-404;16;0.5069252;-0.6182051;0.4099723;0.4390582;206;106;98;-454;4232;3667;2;0.6551247;-0.7451034;0.09695291;-0.07894737;-1;20;3;-992;3676;-442;8;0.2811634;-0.4418283;0.5443213;0.6553237;-36;-1;17;-40;3941;678;0.4763423;2.542252;0.5855604;0.4817511;3.035161;0.3518242;0.4864958;3.467561;0.1445428;0.5531272;4.175339;-0.03731877;0.3243002;4.504755;-0.1550952;-0.02676865;4.417074;-0.05916889;-0.3414544;3.632472;0.3199118;-0.4784412;2.950836;-0.3238293;0.8423537;4.455986;-0.155097;1.118736;4.309239;-0.05917156;1.223972;3.492865;0.4415613;1.28764;2.586783;0.1718379;0.1640999;2.501281;0.5981392;0.145264;1.31361;-0.2562281;0;0;0;0.1640999;2.501281;0.5981392;0.145264;1.31361;-0.2562281;0;0;0
668360.2861;NotLabelled;NONE;16384;0.1772853;0.1537396;-0.7879633;-0.5692521;-5;2;-20;-1287;3387;1413;65536;0.2299169;0.2590028;0.738157;0.5789474;-10;27;38;-3159;2689;-995;8192;0.7368773;-0.6204986;-0.1731302;0.2049861;6;40;9;2128;3202;-30;32768;0.7181971;-0.666205;0.200831;0.005540166;0;11;-15;1003;3806;-374;256;0.5669643;-0.4806094;-0.5470914;-0.3850415;12;37;0;836;3790;544;128;-0.4889196;0.4307479;0.5935885;0.4722992;2;60;-1;-688;3628;-438;4;-0.1842105;-0.232687;-0.6921689;-0.6578947;28;38;-7;2384;3912;-114;16;0.536011;-0.6131763;0.4265928;0.3933518;111;41;52;210;3794;2695;2;0.6565097;-0.7439865;0.0900277;-0.08587258;-8;35;-5;-766;3866;-436;8;0.2742382;-0.4487534;0.5373961;0.6592565;-38;0;17;878;3887;1306;0.4928802;2.567148;0.6730068;0.4982964;3.060743;0.440722;0.5030478;3.493752;0.2347138;0.5684534;4.201944;0.05402708;0.3390692;4.531131;-0.06330436;-0.01187572;4.442652;0.03234211;-0.3234911;3.661594;0.4211534;-0.4654233;2.972191;-0.2131765;0.8572112;4.483313;-0.06318241;1.133825;4.336915;0.03261316;1.243077;3.523896;0.5379252;1.305497;2.616801;0.2713386;0.1806374;2.52614;0.685455;0.154102;1.328418;-0.1545539;0;0;0;0.1806374;2.52614;0.685455;0.154102;1.328418;-0.1545539;0;0;0
668381.3085;NotLabelled;NONE;16384;0.1800554;0.1565097;-0.7887857;-0.566482;-7;8;-20;-1103;3701;1409;65536;0.2285319;0.2479224;0.7402111;0.5817174;-15;25;34;-2979;2535;-915;8192;0.7366989;-0.6204986;-0.1786704;0.200831;10;50;12;1936;3484;-58;32768;0.7193555;-0.666205;0.1966759;0.004155125;7;21;-15;943;3914;-296;256;0.5616425;-0.4792244;-0.5498615;-0.3905817;11;39;0;618;3952;550;128;-0.4847645;0.4252077;0.5987579;0.4750692;15;54;4;-268;3874;-996;4;-0.1869806;-0.2285319;-0.6914923;-0.6592798;18;44;-8;1878;4150;710;16;0.5415512;-0.6105662;0.432133;0.3836565;79;8;30;374;3626;2095;2;0.6565097;-0.7439865;0.08587258;-0.0900277;-7;35;-3;-764;3952;-630;8;0.2686981;-0.4529086;0.533241;0.6620644;-36;0;16;614;3893;1372;0.4812832;2.584854;0.7971138;0.4866949;3.078031;0.5639434;0.4914423;3.510669;0.3571582;0.5549904;4.219727;0.1792243;0.3247474;4.548757;0.0631417;-0.02597211;4.458978;0.1584032;-0.336085;3.678245;0.549062;-0.4832304;2.981205;-0.07566234;0.8430142;4.502311;0.06313998;1.120004;4.356277;0.1584003;1.227334;3.543653;0.664758;1.285185;2.634814;0.4031267;0.1690407;2.543868;0.8096418;0.1587585;1.336723;-0.01713169;0;0;0;0.1690407;2.543868;0.8096418;0.1587585;1.336723;-0.01713169;0;0;0
668401.4736;NotLabelled;NONE;16384;0.1814404;0.1592798;-0.7889073;-0.5650969;-7;14;-18;-1087;3629;1391;65536;0.2285319;0.2423823;0.7409558;0.5831025;-18;25;33;-2977;2541;-1001;8192;0.7349796;-0.6218836;-0.1911357;0.1911357;21;42;18;1538;3794;124;32768;0.7226599;-0.666205;0.1842105;0;19;48;-22;905;4048;-180;256;0.5571811;-0.4778393;-0.5526316;-0.3947368;10;42;0;254;4238;680;128;-0.4833795;0.4196676;0.6015754;0.4778393;-2;39;3;116;3948;-1142;4;-0.1883656;-0.2229917;-0.6929237;-0.6592798;10;32;-15;1514;3938;1230;16;0.5457063;-0.6073593;0.4362881;0.3781163;64;-7;15;272;3572;1601;2;0.6565097;-0.7441142;0.08171745;-0.09279778;-5;30;0;-814;3986;-684;8;0.265928;-0.4556787;0.5304709;0.6635058;-33;-1;13;820;3909;1500;0.4862978;2.586615;0.8251392;0.4916986;3.078783;0.589847;0.4964363;3.510527;0.3812004;0.5593784;4.220726;0.2076547;0.3288726;4.550234;0.09346628;-0.02180953;4.459526;0.1879822;-0.3306098;3.683685;0.5892829;-0.4831994;2.975029;-0.02089557;0.8471851;4.504301;0.09346461;1.124268;4.357959;0.1879798;1.235146;3.546294;0.6951101;1.291918;2.636552;0.4363946;0.1740559;2.545683;0.8378581;0.1596783;1.336651;0.01390861;0;0;0;0.1740559;2.545683;0.8378581;0.1596783;1.336651;0.01390861;0;0;0
668422.2912;NotLabelled;NONE;16384;0.1800554;0.1620499;-0.7886605;-0.5650969;-8;20;-16;-1239;3659;1361;65536;0.2285319;0.2368421;0.7416558;0.5844875;-20;25;32;-3049;2605;-1047;8192;0.7322484;-0.6246537;-0.1952908;0.1883656;26;31;17;1626;3842;356;32768;0.725993;-0.66482;0.1759003;-0.002770083;22;58;-27;1065;4006;-212;256;0.5512465;-0.4709141;-0.5584982;-0.4030471;-1;34;-3;326;4188;750;128;-0.4778393;0.4155124;0.6022272;0.4861496;-22;19;1;10;4288;-590;4;-0.1883656;-0.2174515;-0.6946822;-0.6592798;4;24;-28;1282;3316;806;16;0.5484765;-0.6054375;0.4390582;0.3739612;60;-1;12;34;3646;1491;2;0.6565097;-0.7442082;0.07756232;-0.09556787;-2;25;4;-906;3902;-766;8;0.2617728;-0.4584487;0.5277008;0.6654559;-29;-8;9;850;3865;1768;0.4933704;2.591354;0.8386585;0.4987605;3.082551;0.601344;0.5034887;3.513433;0.3909235;0.5664765;4.224319;0.2202327;0.3360038;4.554276;0.1072775;-0.01470977;4.463184;0.2013072;-0.320834;3.690574;0.6108065;-0.478531;2.976752;0.007991523;0.8543172;4.508353;0.1072758;1.13137;4.361641;0.2013048;1.235876;3.55131;0.7119079;1.297494;2.638945;0.463752;0.181129;2.550476;0.8515598;0.1572289;1.336554;0.03505369;0;0;0;0.181129;2.550476;0.8515598;0.1572289;1.336554;0.03505369;0;0;0
668443.2889;NotLabelled;NONE;16384;0.1786704;0.1648199;-0.7893923;-0.5637119;-9;25;-12;-1297;3725;1355;65536;0.2285319;0.2313019;0.7412159;0.5872576;-22;25;30;-3131;2649;-1011;8192;0.7306222;-0.6260388;-0.200831;0.1842105;29;28;16;1868;3840;498;32768;0.7279286;-0.66482;0.16759;-0.006925208;23;59;-33;1229;3910;-160;256;0.5484765;-0.468144;-0.56154;-0.4058172;-3;29;-2;664;4130;564;128;-0.4736842;0.4155124;0.6021411;0.4903047;-22;24;0;-452;4374;-364;4;-0.1855956;-0.2119114;-0.6971356;-0.6592798;6;28;-39;1340;2906;270;16;0.5526316;-0.6021874;0.4418283;0.3698061;56;13;14;162;3788;1035;2;0.6551247;-0.745532;0.07479224;-0.09695291;0;17;8;-1154;4068;-784;8;0.2576177;-0.4598338;0.5249307;0.6683066;-25;-7;7;684;3787;1716;0.5157853;2.597519;0.8403358;0.5211993;3.090903;0.6076022;0.5259488;3.523724;0.4012002;0.584226;4.235056;0.2306935;0.3515731;4.563506;0.1178178;0.001469295;4.470068;0.211816;-0.2942612;3.698233;0.6303169;-0.465074;2.979291;0.037238;0.8701797;4.521021;0.1178158;1.148197;4.376124;0.2118132;1.256811;3.565664;0.7213547;1.320638;2.651921;0.4788959;0.2035427;2.556522;0.8528243;0.157528;1.336154;0.04694389;0;0;0;0.2035427;2.556522;0.8528243;0.157528;1.336154;0.04694389;0;0;0
668465.2822;NotLabelled;NONE;16384;0.1772853;0.1689751;-0.7888259;-0.5637119;-10;27;-11;-1397;3699;1381;65536;0.2299169;0.2257618;0.7402954;0.5900277;-24;25;27;-3217;2801;-1069;8192;0.7277771;-0.6288089;-0.2049861;0.1814404;27;33;15;1972;3868;604;32768;0.7313203;-0.6634349;0.1578947;-0.009695291;20;56;-36;1259;3984;-292;256;0.5470914;-0.4653739;-0.5631825;-0.4085872;-4;35;-1;780;4100;444;128;-0.4695291;0.4141274;0.6029514;0.4944598;-10;36;1;-714;4290;-208;4;-0.1842105;-0.2049861;-0.6969485;-0.6620498;14;23;-38;2102;3220;30;16;0.5581717;-0.6012899;0.4418283;0.3628809;49;42;19;74;4122;717;2;0.6551247;-0.746067;0.06925207;-0.09695291;-1;11;14;-634;4000;-798;8;0.2506925;-0.4626039;0.5221606;0.6711923;-22;-13;2;734;3843;1404;0.524323;2.606909;0.8423517;0.5297579;3.102196;0.6136973;0.5345259;3.536705;0.4108739;0.5920424;4.247975;0.2398506;0.3590366;4.576098;0.1267518;0.009036981;4.482358;0.2208381;-0.2858045;3.712284;0.6431915;-0.4573957;2.987539;0.05744508;0.8776877;4.53416;0.1267501;1.155863;4.389626;0.2208354;1.26253;3.579578;0.731443;1.328781;2.664671;0.4940703;0.2120792;2.565811;0.8544734;0.1532924;1.335938;0.06402057;0;0;0;0.2120792;2.565811;0.8544734;0.1532924;1.335938;0.06402057;0;0;0
668485.2975;NotLabelled;NONE;16384;0.1745152;0.1731302;-0.7895308;-0.5623268;-9;24;-13;-1439;3763;1419;65536;0.2299169;0.2202216;0.7408587;0.5914127;-25;25;24;-3165;2903;-1047;8192;0.7256164;-0.6301939;-0.2119114;0.1772853;22;41;18;1940;3828;656;32768;0.7330234;-0.6634349;0.1495845;-0.01246537;16;49;-37;1299;4024;-336;256;0.5443213;-0.4626039;-0.5661246;-0.4113573;-7;42;0;654;4136;488;128;-0.4653739;0.4099723;0.6055848;0.4986149;6;46;5;-660;4232;-524;4;-0.1814404;-0.1939058;-0.6982079;-0.66482;12;29;-26;2534;3928;414;16;0.567867;-0.6068284;0.4362881;0.3448753;23;72;17;534;4004;971;2;0.6551247;-0.746441;0.06509695;-0.09695291;-2;16;14;-710;4028;-778;8;0.2479224;-0.4626039;0.5207756;0.6732941;-21;-6;2;486;3891;1296;0.5191201;2.616256;0.8445225;0.5245699;3.112903;0.6188354;0.529351;3.548617;0.4186153;0.5843697;4.259979;0.2471539;0.3502115;4.587214;0.1338657;0.0005466477;4.492309;0.2280266;-0.2918593;3.72377;0.6548473;-0.4610056;2.994358;0.07420713;0.8690062;4.547093;0.133864;1.14769;4.40359;0.2280242;1.248446;3.593491;0.7397488;1.321915;2.676934;0.5110294;0.2068755;2.575087;0.8563775;0.150313;1.335333;0.0813479;0;0;0;0.2068755;2.575087;0.8563775;0.150313;1.335333;0.0813479;0;0;0
668506.0191;NotLabelled;NONE;16384;0.1717452;0.1814404;-0.7892574;-0.5609418;-12;35;-15;-1343;3501;1471;65536;0.234072;0.2105263;0.737927;0.5969529;-31;27;17;-3039;2853;-965;8192;0.7249803;-0.6301939;-0.2174515;0.1731302;18;41;24;1768;3806;684;32768;0.7346455;-0.6634349;0.1412742;-0.01385042;11;40;-38;1263;4030;-362;256;0.5401662;-0.4584487;-0.57144;-0.4141274;-10;43;1;464;4084;606;128;-0.4626039;0.4044321;0.6102723;0.5;12;37;8;-344;4110;-898;4;-0.1814404;-0.1883656;-0.6997229;-0.66482;7;31;-24;2484;3638;488;16;0.5706371;-0.6120615;0.4307479;0.3379501;2;63;7;488;3678;1093;2;0.6551247;-0.7467917;0.06094183;-0.09695291;-5;18;15;-752;4010;-652;8;0.2479224;-0.4639889;0.5180055;0.6744769;-21;7;2;546;3859;1370;0.5258015;2.629519;0.8443435;0.5312551;3.12649;0.6193721;0.5360395;3.562493;0.4197798;0.5902299;4.273815;0.2478929;0.3556894;4.600714;0.1344208;0.006138382;4.50546;0.2286539;-0.2862858;3.738689;0.6586283;-0.4589504;3.004287;0.08535811;0.87453;4.56119;0.1344192;1.153383;4.418064;0.2286522;1.250699;3.609376;0.7432661;1.32628;2.691311;0.5213859;0.2135568;2.588332;0.8561339;0.1555743;1.332934;0.1068203;0;0;0;0.2135568;2.588332;0.8561339;0.1555743;1.332934;0.1068203;0;0;0
668526.4046;NotLabelled;NONE;16384;0.1689751;0.1869806;-0.7895454;-0.5595568;-14;43;-13;-1375;3397;1427;65536;0.2368421;0.2049861;0.7363551;0.599723;-35;27;13;-2861;2789;-1069;8192;0.7226626;-0.6288089;-0.2299169;0.1717452;11;16;30;1886;3498;778;32768;0.7371467;-0.6634349;0.1274238;-0.01523546;2;25;-37;1191;3880;-284;256;0.536011;-0.4501385;-0.5788845;-0.4182825;-14;40;1;432;3888;808;128;-0.4598338;0.3975069;0.613489;0.5041551;-4;22;4;-248;3948;-782;4;-0.1828255;-0.1842105;-0.7004682;-0.66482;8;32;-26;2190;2982;366;16;0.5706371;-0.6191353;0.4238227;0.333795;-22;55;-2;-26;3192;1741;2;0.6551247;-0.7470126;0.05817174;-0.09695291;-9;16;15;-824;3918;-654;8;0.2465374;-0.4653739;0.5152354;0.67615;-21;9;1;730;3801;1274;0.5443564;2.634722;0.8317103;0.5497941;3.130255;0.6035899;0.5545645;3.564983;0.4012349;0.6091369;4.275724;0.2270728;0.3747636;4.602399;0.1126184;0.02517904;4.507655;0.2072391;-0.2649193;3.744952;0.6459378;-0.4310291;3.003523;0.07982075;0.8935806;4.562566;0.1126166;1.172372;4.419574;0.2072366;1.273408;3.6118;0.7225678;1.349812;2.69187;0.5088403;0.2321125;2.593611;0.8437837;0.1615737;1.332324;0.1055171;0;0;0;0.2321125;2.593611;0.8437837;0.1615737;1.332324;0.1055171;0;0;0
668547.3387;NotLabelled;NONE;16384;0.1648199;0.1939058;-0.7897336;-0.5581717;-16;46;-9;-1601;3443;1365;65536;0.2409972;0.200831;0.7338865;0.602493;-38;28;11;-2819;2719;-1069;8192;0.7213275;-0.6288089;-0.234072;0.1717452;9;10;27;2204;3376;594;32768;0.7368629;-0.66482;0.1218837;-0.01385042;-1;16;-35;1181;3836;-292;256;0.534626;-0.4459834;-0.5813679;-0.4210526;-10;46;2;596;3750;828;128;-0.4570637;0.3961219;0.6141719;0.5069252;-6;29;2;-578;3944;-442;4;-0.1814404;-0.1772853;-0.701299;-0.666205;11;21;-33;1888;2650;294;16;0.5706371;-0.6247429;0.4155124;0.333795;-53;45;-15;-420;2736;2057;2;0.6565097;-0.7461081;0.05401662;-0.09695291;-8;18;16;-760;3858;-824;8;0.2451524;-0.466759;0.5124654;0.677802;-21;6;0;808;3839;1392;0.5703662;2.637424;0.8106279;0.5757969;3.132323;0.5811346;0.580561;3.566487;0.377575;0.6323106;4.275949;0.1974416;0.3966207;4.60076;0.08041051;0.04745848;4.505476;0.1760447;-0.236392;3.745305;0.6231444;-0.4073092;3.000408;0.06304395;0.915586;4.562908;0.08040869;1.194979;4.421777;0.1760416;1.301509;3.622289;0.7030548;1.380129;2.699187;0.504338;0.2581227;2.596346;0.822825;0.1713791;1.332149;0.09129152;0;0;0;0.2581227;2.596346;0.822825;0.1713791;1.332149;0.09129152;0;0;0
668587.2835;NotLabelled;NONE;16384;0.1551246;0.2049861;-0.7908515;-0.5554016;-21;43;-2;-1581;3663;1279;65536;0.2479224;0.1897507;0.7287925;0.6094183;-44;31;8;-2811;2889;-925;8192;0.7182452;-0.6288089;-0.2423823;0.1731302;11;27;17;2636;3294;176;32768;0.7372182;-0.666205;0.1121884;-0.009695291;0;15;-30;817;4060;-408;256;0.5249307;-0.4362881;-0.592398;-0.4279778;-6;64;7;660;3878;716;128;-0.4459834;0.3864266;0.6226806;0.5138504;21;80;3;-1002;4014;-74;4;-0.1731302;-0.1481994;-0.7061729;-0.6703601;10;49;-68;1278;3954;888;16;0.5650969;-0.6379557;0.4016621;0.33518;-5;18;-4;736;4264;-533;2;0.6578947;-0.7454702;0.03878116;-0.09972299;-11;35;10;-426;4058;-798;8;0.2465374;-0.4736842;0.501385;0.6807758;-26;35;1;70;3819;1530;0.5740123;2.647495;0.7752192;0.5794517;3.143185;0.54744;0.5842236;3.578051;0.3453844;0.6328093;4.287227;0.1632501;0.3956668;4.610664;0.04535595;0.04694659;4.514111;0.1413285;-0.237642;3.756449;0.5922022;-0.4043562;3.010222;0.03260556;0.9147939;4.575101;0.04535395;1.194825;4.435473;0.1413257;1.303287;3.638983;0.6724684;1.379251;2.713824;0.482474;0.2617683;2.606375;0.787262;0.1717773;1.333297;0.07169905;0;0;0;0.2617683;2.606375;0.787262;0.1717773;1.333297;0.07169905;0;0;0
668628.2866;NotLabelled;NONE;16384;0.1440443;0.2174515;-0.7915583;-0.5526316;-25;55;-4;-1493;3813;1093;65536;0.2562327;0.1786704;0.7228709;0.6163435;-44;32;10;-2639;3121;-933;8192;0.7154675;-0.6301939;-0.2479224;0.1717452;16;39;16;2678;3172;106;32768;0.7378386;-0.666205;0.1080332;-0.009695291;6;26;-26;751;4160;-376;256;0.5207756;-0.4307479;-0.5970846;-0.432133;-7;68;9;426;3960;958;128;-0.4404432;0.3767313;0.6290895;0.5180055;27;91;3;-534;4114;-576;4;-0.1703601;-0.1371191;-0.7077671;-0.6717451;7;47;-57;1682;4298;1132;16;0.566482;-0.6384651;0.398892;0.33518;-5;21;-14;-44;4996;-283;2;0.6578947;-0.7454226;0.03185596;-0.1024931;-16;42;8;-530;4000;-730;8;0.2506925;-0.4778393;0.4944598;0.6814194;-30;50;5;6;3827;1606;0.60278;2.684452;0.6535023;0.6082167;3.179902;0.4252019;0.6129862;3.614556;0.222689;0.6609667;4.322753;0.03663033;0.4235352;4.645357;-0.08295488;0.07492417;4.549071;0.01368051;-0.2041062;3.794016;0.472335;-0.3693738;3.041471;-0.07917163;0.9426891;4.610187;-0.08295733;1.222862;4.471302;0.0136764;1.344495;3.681959;0.5525811;1.415309;2.753281;0.3784257;0.2905362;2.643345;0.6655921;0.1859376;1.33313;0.02274269;0;0;0;0.2905362;2.643345;0.6655921;0.1859376;1.33313;0.02274269;0;0;0
668649.4271;NotLabelled;NONE;16384;0.1385041;0.2243767;-0.7925428;-0.5498615;-31;65;-1;-1627;3725;1047;65536;0.2590028;0.1717452;0.7200019;0.6204986;-45;34;12;-2631;3067;-803;8192;0.7116445;-0.6301939;-0.2631579;0.1648199;27;48;19;2598;2942;406;32768;0.7408859;-0.66482;0.09418282;-0.01523546;17;58;-13;453;4158;-294;256;0.5152354;-0.4238227;-0.6037876;-0.4362881;-10;63;10;134;4072;1130;128;-0.433518;0.365651;0.6369535;0.5221606;24;92;0;-50;4180;-1044;4;-0.1703601;-0.1274238;-0.7095767;-0.6717451;15;44;-36;2122;4408;488;16;0.5692521;-0.6417302;0.3919668;0.33241;-13;71;-18;-1398;4684;35;2;0.6592798;-0.7438782;0.02493075;-0.1066482;-21;51;7;-770;4020;-672;8;0.2534626;-0.4847645;0.4875346;0.6804925;-32;58;7;158;3965;1582;0.6055709;2.697752;0.6191807;0.6109915;3.191754;0.3877612;0.6157469;3.625122;0.1825119;0.6613569;4.333009;-0.005314469;0.4228413;4.654528;-0.1256614;0.07456578;4.55733;-0.02872849;-0.2083119;3.804734;0.4316054;-0.3595894;3.04715;-0.1170093;0.9421086;4.621074;-0.1256633;1.222754;4.483356;-0.02873158;1.345956;3.696671;0.5136912;1.415778;2.767134;0.3437706;0.2933277;2.656723;0.631551;0.1818438;1.333787;0.01651362;0;0;0;0.2933277;2.656723;0.631551;0.1818438;1.333787;0.01651362;0;0;0
668669.2929;NotLabelled;NONE;16384;0.1301939;0.234072;-0.7921069;-0.5484765;-34;72;4;-1955;3671;911;65536;0.2631579;0.1648199;0.7177175;0.6232687;-45;37;13;-2625;3205;-825;8192;0.7082372;-0.6315789;-0.2714681;0.1606648;33;48;20;2726;2972;570;32768;0.7429596;-0.6634349;0.08587258;-0.02216066;21;73;-5;425;4040;-284;256;0.5069252;-0.4113573;-0.6162969;-0.4404432;-16;60;16;-68;4028;1452;128;-0.4238227;0.3476454;0.6488827;0.5277008;15;61;-2;386;4092;-1280;4;-0.1717452;-0.1191136;-0.708057;-0.6745152;30;46;-24;1554;4436;-214;16;0.5720221;-0.6457058;0.3836565;0.3296399;-5;58;-21;704;4894;-199;2;0.6606648;-0.7420321;0.01800554;-0.1121884;-26;53;5;-870;4116;-722;8;0.2576177;-0.4903047;0.4792244;0.6808659;-34;63;8;404;4097;1640;0.6142002;2.706637;0.5883465;0.6196005;3.198787;0.3530167;0.624338;3.630515;0.1443372;0.6684152;4.337596;-0.04686075;0.4291937;4.658042;-0.1686592;0.08115048;4.56058;-0.07115956;-0.1996046;3.810589;0.3946936;-0.3508654;3.048226;-0.1472654;0.9485297;4.625671;-0.1686613;1.229491;4.489;-0.07116294;1.351568;3.70848;0.4803432;1.427435;2.777775;0.3196577;0.3019582;2.665707;0.6010689;0.1780726;1.33438;0.006862551;0;0;0;0.3019582;2.665707;0.6010689;0.1780726;1.33438;0.006862551;0;0;0
668690.2867;NotLabelled;NONE;16384;0.1204986;0.2423823;-0.7930545;-0.5457063;-39;75;10;-2245;3601;769;65536;0.267313;0.1578947;0.7141095;0.6274238;-45;38;15;-2419;3375;-597;8192;0.7046881;-0.632964;-0.2797784;0.1565097;38;49;22;2546;3038;658;32768;0.7448125;-0.6620498;0.07756232;-0.03047091;21;84;0;471;4034;-324;256;0.501385;-0.4044321;-0.6233857;-0.4432133;-16;63;17;-386;4274;1728;128;-0.4210526;0.3407202;0.6532171;0.5290859;15;48;-2;588;4184;-1516;4;-0.1745152;-0.1108033;-0.7060819;-0.6772853;34;59;-26;410;4832;46;16;0.5747922;-0.6449924;0.3795014;0.3310249;1;-1;-30;1810;5398;-285;2;0.6634349;-0.7390505;0.01108033;-0.1163435;-28;52;3;-610;4236;-610;8;0.2617728;-0.4972299;0.4722992;0.6790957;-32;61;7;586;4299;1684;0.6183943;2.713472;0.5562423;0.6237574;3.202205;0.3138927;0.6284615;3.630902;0.09905547;0.6710097;4.335308;-0.1021029;0.4310413;4.653603;-0.2280025;0.08332042;4.556919;-0.128597;-0.1680833;3.801578;0.3453079;-0.3293734;3.036033;-0.1892218;0.9504322;4.622129;-0.2283714;1.231782;4.487321;-0.1294111;1.38524;3.701688;0.4067848;1.461448;2.771208;0.2449644;0.3061544;2.672729;0.5695981;0.1733899;1.33499;-0.008057997;0;0;0;0.3061544;2.672729;0.5695981;0.1733899;1.33499;-0.008057997;0;0;0
668710.2922;NotLabelled;NONE;16384;0.1108033;0.2520775;-0.7923976;-0.5443213;-42;75;13;-2677;3539;505;65536;0.2700831;0.1495845;0.7111875;0.6315789;-44;39;14;-2479;3703;-439;8192;0.7015629;-0.634349;-0.2867036;0.1523546;41;43;21;2414;3212;906;32768;0.7450957;-0.6620498;0.06925207;-0.04155125;21;88;2;463;4060;-372;256;0.4972299;-0.3975069;-0.6301453;-0.4445983;-23;54;16;-632;4252;2030;128;-0.4182825;0.333795;0.6574354;0.5304709;21;42;0;892;4316;-1756;4;-0.1759003;-0.09695291;-0.7037742;-0.6814404;14;4;-15;546;4628;140;16;0.5761772;-0.6418619;0.3753462;0.3393352;-14;0;-24;946;4706;377;2;0.666205;-0.7348021;0;-0.1274238;-16;54;-6;-162;4670;-284;8;0.265928;-0.5083103;0.4584487;0.6787693;-27;44;9;520;4117;1788;0.6037346;2.719924;0.5373862;0.6090795;3.20701;0.2917436;0.6137677;3.634247;0.074018;0.6558831;4.337329;-0.131809;0.41573;4.654612;-0.2598961;0.06804657;4.558345;-0.159955;-0.2022678;3.810479;0.3153923;-0.3609755;3.041362;-0.2147661;0.9351429;4.6235;-0.2598978;1.216557;4.489553;-0.1599578;1.349903;3.714532;0.3966719;1.428661;2.784549;0.2332203;0.2914957;2.679272;0.5510398;0.1614036;1.336429;-0.0152719;0;0;0;0.2914957;2.679272;0.5510398;0.1614036;1.336429;-0.0152719;0;0;0
668730.7012;NotLabelled;NONE;16384;0.09141274;0.2700831;-0.7936651;-0.5373961;-39;69;15;-3389;3293;103;65536;0.2770083;0.1357341;0.7063441;0.6371191;-33;37;11;-2075;4415;-213;8192;0.6980321;-0.6357341;-0.2936288;0.1495845;42;31;19;2506;3232;1084;32768;0.7464462;-0.6606648;0.06094183;-0.05124654;16;84;3;575;3980;-392;256;0.4930748;-0.3919668;-0.6368451;-0.4445983;-29;43;16;-686;4056;2106;128;-0.4155124;0.3296399;0.6612772;0.5304709;18;33;-1;1206;4380;-1774;4;-0.1731302;-0.09695291;-0.7031184;-0.6828254;8;-1;-8;1098;4104;-124;16;0.5761772;-0.6443392;0.3698061;0.3407202;-14;35;-18;-386;4462;309;2;0.666205;-0.7335466;-0.005540166;-0.134349;-15;51;-10;-398;4722;-104;8;0.267313;-0.5138504;0.4529086;0.6777723;-26;42;13;432;3873;1992;0.5701839;2.732741;0.497848;0.5755111;3.218206;0.2490165;0.5801836;3.644007;0.02849382;0.621516;4.345247;-0.1836787;0.380991;4.661133;-0.314488;0.03345306;4.56544;-0.2134968;-0.2352337;3.817912;0.2633044;-0.3906546;3.043246;-0.2596992;0.9004335;4.630519;-0.3144897;1.182029;4.497746;-0.2134992;1.316161;3.724463;0.3453563;1.393524;2.795099;0.1777722;0.257946;2.692179;0.5117902;0.1389782;1.338673;-0.03109591;0;0;0;0.257946;2.692179;0.5117902;0.1389782;1.338673;-0.03109591;0;0;0
668751.3398;NotLabelled;NONE;16384;0.08171745;0.2770083;-0.7951369;-0.533241;-37;62;11;-3573;2965;35;65536;0.2797784;0.1288089;0.7052976;0.6385041;-27;36;9;-1723;4563;55;8192;0.690322;-0.6398892;-0.3047091;0.1454294;39;13;15;2854;2902;1282;32768;0.7472193;-0.6592798;0.04709141;-0.06925207;1;61;5;631;3878;-562;256;0.4916897;-0.3850415;-0.6421188;-0.4445983;-30;46;16;-468;3758;1920;128;-0.4127424;0.3254848;0.6639523;0.5318559;7;25;-2;1148;4172;-1444;4;-0.1717452;-0.09418282;-0.7038342;-0.6828254;4;11;-13;864;3560;-170;16;0.5789474;-0.6457919;0.3628809;0.3407202;-11;33;-17;-278;4030;283;2;0.66759;-0.7311852;-0.01108033;-0.1398892;-17;43;-13;-486;4310;-52;8;0.2686981;-0.5193906;0.4473684;0.6766803;-22;48;20;468;3849;2040;0.5700033;2.73515;0.4756285;0.5753148;3.219202;0.2240588;0.5799735;3.64375;0.001134455;0.6225654;4.342928;-0.2174938;0.3825887;4.658073;-0.3510693;0.0349198;4.563997;-0.249015;-0.2489282;3.819371;0.223523;-0.3916281;3.037779;-0.2927593;0.9019699;4.626437;-0.3510712;1.18336;4.494041;-0.2490175;1.317194;3.723691;0.3139418;1.396941;2.795057;0.1434536;0.2577663;2.694668;0.4898191;0.1331925;1.338833;-0.04595482;0;0;0;0.2577663;2.694668;0.4898191;0.1331925;1.338833;-0.04595482;0;0;0
668772.2832;NotLabelled;NONE;16384;0.07479224;0.2853186;-0.7947327;-0.5304709;-38;52;4;-3563;2707;101;65536;0.2839335;0.1232687;0.7033693;0.6398892;-23;36;6;-1491;4503;155;8192;0.6874747;-0.6412742;-0.3088643;0.1440443;34;14;15;3000;2590;1250;32768;0.7469356;-0.6592798;0.04293629;-0.07479224;-6;46;9;419;3744;-688;256;0.4889196;-0.3781163;-0.6483193;-0.4445983;-27;45;17;-424;3372;1792;128;-0.4127424;0.3213296;0.6659732;0.5318559;5;19;-3;732;3856;-1154;4;-0.1717452;-0.09141274;-0.7028537;-0.6842105;9;15;-17;618;3400;-500;16;0.5803324;-0.645367;0.3601108;0.3421052;-6;-3;-17;62;3884;109;2;0.6703601;-0.7275134;-0.01385042;-0.1454294;-16;35;-16;-714;4010;2;8;0.2700831;-0.5263157;0.4418283;0.6744143;-16;47;26;916;3447;2418;0.5658585;2.739046;0.4565386;0.5711631;3.222451;0.203727;0.5758156;3.646425;-0.02028656;0.6157932;4.343251;-0.246779;0.374617;4.656026;-0.3837203;0.02734898;4.561875;-0.2803785;-0.2630025;3.818103;0.1895428;-0.4056168;3.032964;-0.3213529;0.8941069;4.626226;-0.3837216;1.17603;4.49598;-0.2803805;1.296672;3.730341;0.291911;1.379577;2.802961;0.1161817;0.2536218;2.6986;0.4708416;0.1220785;1.339551;-0.05502769;0;0;0;0.2536218;2.6986;0.4708416;0.1220785;1.339551;-0.05502769;0;0;0
668792.4563;NotLabelled;NONE;16384;0.07063711;0.2936288;-0.7948486;-0.5263157;-37;41;0;-3587;2593;113;65536;0.2867036;0.1163435;0.7021628;0.6412742;-20;34;3;-1187;4311;245;8192;0.6836594;-0.6426592;-0.3144044;0.1440443;31;20;15;3014;2462;1096;32768;0.7452888;-0.6606648;0.0401662;-0.08033241;-12;37;13;187;3804;-732;256;0.4833795;-0.365651;-0.6604586;-0.4432133;-21;41;20;-572;3220;1958;128;-0.4099723;0.3144044;0.6709708;0.5318559;14;26;-3;548;3476;-1264;4;-0.1703601;-0.08725762;-0.702369;-0.6855956;15;10;-18;442;3692;-842;16;0.5789474;-0.6443942;0.3601108;0.3462604;-2;-17;-17;-196;4002;223;2;0.6717451;-0.7253625;-0.01523546;-0.1495845;-18;33;-18;-546;3874;160;8;0.2728532;-0.534626;0.4362881;0.6703573;-15;73;27;532;3325;2232;0.5591019;2.741795;0.4445882;0.5643911;3.223794;0.1891091;0.5690299;3.646525;-0.0372439;0.6075919;4.340862;-0.2714919;0.3657505;4.651679;-0.411683;0.01873717;4.558076;-0.3069957;-0.26393;3.813778;0.1667652;-0.4070359;3.027159;-0.3417117;0.8852915;4.622783;-0.4118128;1.167531;4.494183;-0.3072816;1.299727;3.727412;0.2609261;1.380136;2.800292;0.08268368;0.2468661;2.701428;0.4591335;0.1132878;1.340097;-0.06028189;0;0;0;0.2468661;2.701428;0.4591335;0.1132878;1.340097;-0.06028189;0;0;0
668813.3007;NotLabelled;NONE;16384;0.06648199;0.301939;-0.7948341;-0.5221606;-37;33;-2;-3463;2617;41;65536;0.2894737;0.1108033;0.6993816;0.6440443;-18;32;2;-907;4185;259;8192;0.6800667;-0.6440443;-0.3199446;0.1426593;30;24;15;2852;2630;904;32768;0.7437428;-0.6620498;0.03739612;-0.08448754;-15;31;15;95;3868;-824;256;0.4806094;-0.3601108;-0.6655049;-0.4432133;-16;37;20;-852;3444;2084;128;-0.4085872;0.3088643;0.6732855;0.533241;13;35;-5;816;3564;-1236;4;-0.16759;-0.08310249;-0.7008283;-0.6883656;15;9;-13;810;4054;-694;16;0.5803324;-0.641669;0.3587258;0.3504155;-1;4;-11;-450;4298;487;2;0.6745152;-0.7201817;-0.0235457;-0.1606648;-13;49;-10;-100;3534;280;8;0.2811634;-0.5567867;0.4210526;0.6585214;-13;82;40;1296;2601;2652;0.5605499;2.746085;0.420526;0.5658133;3.22575;0.1606888;0.5704294;3.646411;-0.06948632;0.6080458;4.335409;-0.3191457;0.3657472;4.642788;-0.4659703;0.01893249;4.551184;-0.3588852;-0.2663852;3.814387;0.1249067;-0.4172429;3.024274;-0.3758518;0.8853174;4.614424;-0.4659725;1.167791;4.488464;-0.3588886;1.299224;3.729305;0.2196242;1.370497;2.802315;0.0368731;0.2483156;2.705852;0.4354677;0.1061332;1.340202;-0.0701444;0;0;0;0.2483156;2.705852;0.4354677;0.1061332;1.340202;-0.0701444;0;0;0
668833.2992;NotLabelled;NONE;16384;0.06371191;0.3088643;-0.7951188;-0.5180055;-36;30;-2;-3449;2721;-101;65536;0.2894737;0.1038781;0.6991675;0.6454294;-17;32;5;-703;4179;415;8192;0.6766917;-0.6454294;-0.3254848;0.1398892;32;20;14;2672;2742;932;32768;0.7422557;-0.6634349;0.03601108;-0.08725762;-15;28;13;-15;3912;-894;256;0.4778393;-0.3545706;-0.670456;-0.4432133;-15;27;19;-1032;3416;2032;128;-0.4058172;0.3047091;0.6768448;0.533241;11;28;-8;1146;3738;-1016;4;-0.1689751;-0.07617728;-0.6985527;-0.6911357;6;29;-6;1324;4012;98;16;0.5831025;-0.6437345;0.3531856;0.3476454;0;23;-5;330;4126;181;2;0.6745152;-0.7187752;-0.02770083;-0.166205;-10;40;-3;-416;3634;216;8;0.2839335;-0.566482;0.4141274;0.6534358;-9;84;42;274;2743;2486;0.5414928;2.752225;0.4037425;0.5467445;3.230821;0.1419421;0.5513501;3.650537;-0.08995461;0.5879596;4.337423;-0.3455135;0.3451898;4.643238;-0.4948028;-0.001444243;4.552125;-0.3867174;-0.281727;3.818227;0.1043662;-0.4291246;3.025394;-0.3931137;0.8647946;4.615513;-0.4948949;1.14749;4.49082;-0.3869197;1.286644;3.732613;0.1910355;1.352002;2.80548;0.006808281;0.2292591;2.712054;0.4188628;0.09197517;1.341069;-0.07349107;0;0;0;0.2292591;2.712054;0.4188628;0.09197517;1.341069;-0.07349107;0;0;0
668853.2947;NotLabelled;NONE;16384;0.0567867;0.3185596;-0.7971862;-0.5096953;-29;27;-3;-3573;2959;-267;65536;0.2908587;0.0900277;0.6966608;0.6495845;-10;31;18;-695;4501;531;8192;0.670938;-0.6481994;-0.33241;0.1385041;36;3;11;2686;2732;1154;32768;0.7391698;-0.666205;0.03047091;-0.09418282;-14;31;7;45;3780;-904;256;0.4764543;-0.3504155;-0.6736188;-0.4432133;-13;17;18;-992;3454;2058;128;-0.4044321;0.300554;0.6784372;0.534626;10;19;-9;1228;3668;-804;4;-0.1717452;-0.07202215;-0.6983179;-0.6911357;6;24;-6;1188;3904;138;16;0.5831025;-0.6444925;0.3518005;0.3476454;0;1;-7;422;4110;127;2;0.6745152;-0.7179567;-0.03185596;-0.1689751;-8;25;3;-496;3700;170;8;0.2894737;-0.5775623;0.4058172;0.6464822;-1;98;43;458;3023;2252;0.5276259;2.756479;0.3908447;0.5328624;3.233691;0.1265302;0.5374546;3.652181;-0.1075714;0.572971;4.336938;-0.3689313;0.3296977;4.641142;-0.5206747;-0.01675539;4.550456;-0.4116547;-0.2984031;3.82107;0.08533689;-0.4470094;3.022865;-0.4031104;0.8493409;4.614149;-0.5207885;1.132265;4.490769;-0.4119046;1.270172;3.734051;0.1682968;1.329348;2.806803;-0.01743507;0.2153931;2.716388;0.4061942;0.08670288;1.341237;-0.07677303;0;0;0;0.2153931;2.716388;0.4061942;0.08670288;1.341237;-0.07677303;0;0;0
668874.2953;NotLabelled;NONE;16384;0.05401662;0.3227147;-0.7974737;-0.5069252;-25;21;-6;-3673;3009;-201;65536;0.2908587;0.08310249;0.6975207;0.6495845;-4;27;24;-797;4609;539;8192;0.6668655;-0.6509695;-0.33518;0.1385041;35;4;9;2688;2646;1270;32768;0.7389206;-0.666205;0.02770083;-0.09695291;-16;30;4;73;3660;-970;256;0.4750692;-0.3476454;-0.676934;-0.4418283;-9;11;20;-772;3444;1974;128;-0.4030471;0.2963989;0.6810843;0.534626;12;14;-9;1234;3692;-1146;4;-0.1717452;-0.06925207;-0.698598;-0.6911357;4;13;-6;866;3900;-66;16;0.5844875;-0.6424862;0.3518005;0.3490305;0;-7;-7;-62;4210;109;2;0.6759003;-0.7161281;-0.03601108;-0.1703601;-9;25;8;-370;3858;200;8;0.2950138;-0.5872576;0.4016621;0.6377797;6;67;39;880;3085;2220;0.5267756;2.757335;0.3842219;0.5320058;3.233974;0.1188755;0.5365924;3.651957;-0.1161309;0.5706245;4.335145;-0.381759;0.3266889;4.637877;-0.53537;-0.01955973;4.547135;-0.4257488;-0.322096;3.8277;0.07346353;-0.4590062;3.019713;-0.4021531;0.8463885;4.611992;-0.5353721;1.129585;4.489897;-0.4257517;1.250742;3.740837;0.1679699;1.301944;2.813072;-0.01755214;0.2145433;2.717277;0.3996655;0.08516701;1.34113;-0.08027218;0;0;0;0.2145433;2.717277;0.3996655;0.08516701;1.34113;-0.08027218;0;0;0
668895.5844;NotLabelled;NONE;16384;0.05263158;0.3254848;-0.7981962;-0.5041551;-21;13;-11;-3597;2945;-17;65536;0.2908587;0.07756232;0.6994447;0.6481994;0;25;27;-961;4623;431;8192;0.6650984;-0.6523545;-0.3365651;0.1371191;32;5;6;2668;2636;1208;32768;0.7373509;-0.66759;0.02631579;-0.09972299;-18;28;1;119;3650;-1118;256;0.4709141;-0.3434903;-0.6837267;-0.4390582;-8;9;25;-478;3456;1982;128;-0.4016621;0.2908587;0.6853633;0.533241;17;12;-13;668;3766;-1458;4;-0.1717452;-0.06648199;-0.6974946;-0.6925207;1;4;-6;658;3950;-156;16;0.5844875;-0.6417318;0.3518005;0.3504155;0;2;-5;-36;4154;13;2;0.6772853;-0.7142653;-0.0401662;-0.1717452;-11;29;10;-206;3890;124;8;0.2977839;-0.5927978;0.400277;0.6322135;18;37;30;280;3073;2168;0.5214589;2.759771;0.3802139;0.5266742;3.235041;0.1124196;0.5312474;3.651809;-0.1247335;0.5659503;4.333134;-0.3950195;0.3222996;4.635086;-0.5506053;-0.02401213;4.54548;-0.4402511;-0.3291389;3.828647;0.06112453;-0.4668317;3.015786;-0.4058802;0.84197;4.608619;-0.5506079;1.125068;4.486956;-0.440255;1.240865;3.740194;0.157418;1.291205;2.812395;-0.02816772;0.2092274;2.719794;0.3958809;0.0782429;1.341688;-0.07796181;0;0;0;0.2092274;2.719794;0.3958809;0.0782429;1.341688;-0.07796181;0;0;0
668916.5361;NotLabelled;NONE;16384;0.05263158;0.3282548;-0.7996741;-0.5;-20;6;-16;-3473;2949;133;65536;0.2908587;0.0734072;0.7011731;0.6468144;3;22;27;-1157;4585;317;8192;0.6623251;-0.6537396;-0.3393352;0.1371191;30;4;5;2568;2674;1212;32768;0.7360424;-0.6689751;0.02216066;-0.101108;-20;24;-1;97;3696;-1114;256;0.4695291;-0.3421052;-0.686257;-0.4376731;-8;7;26;-606;3458;2018;128;-0.400277;0.2894737;0.6889005;0.5304709;12;13;-16;644;3724;-1304;4;-0.1689751;-0.06509695;-0.6983014;-0.6925207;-1;0;-4;706;3860;-192;16;0.5858725;-0.6412264;0.3504155;0.3504155;0;3;-4;100;4138;27;2;0.6786703;-0.712337;-0.04986149;-0.1717452;-6;19;17;-122;3852;-246;8;0.3130194;-0.599723;0.3961219;0.6208371;41;61;8;-642;3445;1768;0.5171139;2.761728;0.3721006;0.5223;3.234345;0.09965271;0.5268475;3.648765;-0.141581;0.5648789;4.326724;-0.4197692;0.3226682;4.62815;-0.5785875;-0.02399444;4.541675;-0.4668463;-0.3197167;3.822762;0.03717998;-0.4656564;3.006315;-0.4209813;0.8421901;4.598915;-0.57882;1.124757;4.477028;-0.4673589;1.252905;3.724368;0.1203096;1.296736;2.796499;-0.06657457;0.2048841;2.721906;0.388193;0.07406247;1.341813;-0.07987475;0;0;0;0.2048841;2.721906;0.388193;0.07406247;1.341813;-0.07987475;0;0;0
668937.297;NotLabelled;NONE;16384;0.05401662;0.3310249;-0.800167;-0.4972299;-21;3;-20;-3317;2933;335;65536;0.2894737;0.06786703;0.7023035;0.6468144;4;18;28;-1325;4385;301;8192;0.6605284;-0.6551247;-0.3407202;0.1357341;28;-3;3;2536;2748;1116;32768;0.7346298;-0.6703601;0.02077562;-0.1024931;-21;20;-3;211;3728;-1072;256;0.466759;-0.3421052;-0.689023;-0.4362881;-7;4;28;-514;3434;2040;128;-0.3975069;0.2867036;0.6916574;0.5304709;11;16;-18;780;3758;-1180;4;-0.16759;-0.06371191;-0.6973874;-0.6939058;3;7;1;948;3886;-306;16;0.5858725;-0.6404676;0.3504155;0.3518005;-1;-12;-3;-68;4068;93;2;0.6772853;-0.7136835;-0.05401662;-0.1703601;-2;17;21;-314;3714;-296;8;0.3240997;-0.601108;0.3933518;0.6155509;41;61;0;-300;3303;2172;0.5145377;2.76475;0.3633911;0.5197005;3.23524;0.08728653;0.5242273;3.647778;-0.1571536;0.5639032;4.324319;-0.4385436;0.3224301;4.62556;-0.5988312;-0.02445388;4.540432;-0.486743;-0.3326224;3.831503;0.02392396;-0.4823629;3.012482;-0.4283806;0.8418816;4.595099;-0.5988331;1.124142;4.473077;-0.4867456;1.240168;3.728708;0.1138601;1.281477;2.799836;-0.06856215;0.2023093;2.725054;0.3798183;0.06945676;1.342102;-0.07915103;0;0;0;0.2023093;2.725054;0.3798183;0.06945676;1.342102;-0.07915103;0;0;0
668957.3001;NotLabelled;NONE;16384;0.05817174;0.3379501;-0.8012534;-0.4903047;-23;2;-23;-2989;2871;569;65536;0.2853186;0.05817174;0.7048692;0.6468144;1;16;23;-1617;4059;137;8192;0.6565097;-0.6591517;-0.3407202;0.1357341;25;-10;1;2642;2750;992;32768;0.7321658;-0.6731302;0.01800554;-0.1024931;-21;13;-5;265;3842;-1076;256;0.4653739;-0.3421052;-0.6917031;-0.433518;-5;0;28;-358;3420;1998;128;-0.3961219;0.2853186;0.6940814;0.5290859;17;15;-20;822;3686;-1336;4;-0.1689751;-0.06232687;-0.6971783;-0.6939058;1;13;5;908;4010;-280;16;0.5858725;-0.6381767;0.3518005;0.3545706;0;-13;-2;-70;4178;117;2;0.6772853;-0.713572;-0.05955679;-0.1689751;0;19;22;-452;3872;-148;8;0.3310249;-0.602493;0.3919668;0.611381;29;33;0;582;3687;2824;0.5077672;2.766722;0.3572681;0.51292;3.236295;0.07960641;0.5174379;3.64802;-0.1661989;0.5608157;4.323547;-0.4494741;0.3209826;4.625697;-0.610513;-0.02633463;4.54283;-0.4980721;-0.3321556;3.836963;0.0182164;-0.4833014;3.013325;-0.4251482;0.8402547;4.592317;-0.6106063;1.121865;4.46902;-0.4982774;1.239541;3.722633;0.09949589;1.276568;2.793413;-0.08207166;0.1955394;2.727081;0.373838;0.06597231;1.342212;-0.08026347;0;0;0;0.1955394;2.727081;0.373838;0.06597231;1.342212;-0.08026347;0;0;0
668979.2848;NotLabelled;NONE;16384;0.05955679;0.3421052;-0.8019199;-0.4861496;-23;2;-23;-2969;2761;623;65536;0.2839335;0.05401662;0.7044867;0.6481994;0;12;18;-1715;3883;37;8192;0.6523545;-0.6629794;-0.3407202;0.1371191;19;-10;-3;2852;2968;670;32768;0.7300562;-0.6759003;0.01523546;-0.09972299;-18;5;-9;283;4090;-1004;256;0.4626039;-0.3421052;-0.6944226;-0.432133;-4;-3;27;-136;3524;1998;128;-0.3947368;0.2839335;0.6975359;0.5263157;18;7;-21;800;3694;-1600;4;-0.1703601;-0.06232687;-0.6968411;-0.6939058;1;12;8;762;4016;-298;16;0.5844875;-0.6386755;0.3518005;0.3559557;-1;-6;0;-156;4164;221;2;0.6772853;-0.713213;-0.06371191;-0.1689751;0;18;17;-592;4106;200;8;0.333795;-0.601108;0.3933518;0.6103478;22;-3;-6;-2;3897;2374;0.5023582;2.766968;0.3582831;0.5074965;3.235234;0.07842284;0.5120018;3.645802;-0.1693103;0.5591265;4.319538;-0.4562297;0.3209666;4.62216;-0.6188537;-0.02678931;4.541859;-0.5059084;-0.3426864;3.850276;0.0234783;-0.4939496;3.017717;-0.4028567;0.8400424;4.585857;-0.6188563;1.120976;4.461583;-0.5059123;1.226519;3.717202;0.09660912;1.257734;2.786731;-0.07956553;0.1901312;2.727405;0.3750547;0.06065354;1.342534;-0.07906578;0;0;0;0.1901312;2.727405;0.3750547;0.06065354;1.342534;-0.07906578;0;0;0
669000.4293;NotLabelled;NONE;16384;0.06232687;0.3448753;-0.8030303;-0.4819945;-22;1;-22;-2871;2737;779;65536;0.2839335;0.05124654;0.7046936;0.6481994;0;11;14;-1831;3789;-85;8192;0.6495845;-0.6664008;-0.3393352;0.1371191;16;-10;-5;2986;3036;498;32768;0.7289872;-0.6772853;0.01385042;-0.09833795;-14;4;-10;249;4222;-932;256;0.4612188;-0.3434903;-0.6963757;-0.4293629;-4;-2;27;14;3572;2118;128;-0.3933518;0.2825485;0.6999204;0.5249307;13;5;-20;610;3814;-1576;4;-0.1717452;-0.06094183;-0.6939058;-0.6966236;-1;10;10;690;4086;-252;16;0.5844875;-0.6379105;0.3531856;0.3559557;0;-3;3;-82;4178;285;2;0.6772853;-0.7129601;-0.06648199;-0.1689751;-1;11;11;-738;4268;368;8;0.3379501;-0.5983379;0.3947368;0.6098887;28;-6;-8;-536;3561;1692;0.5042678;2.765617;0.3553405;0.5093823;3.23171;0.07187551;0.5138664;3.640355;-0.179018;0.5646751;4.313018;-0.4678181;0.3281669;4.616508;-0.6312362;-0.0200063;4.538455;-0.518001;-0.3387271;3.853766;0.01860568;-0.4882162;3.017438;-0.4009257;0.847033;4.577319;-0.6312386;1.127295;4.4518;-0.5180043;1.226928;3.708838;0.08727026;1.252997;2.776609;-0.08023083;0.1920422;2.726185;0.3724433;0.06040889;1.342251;-0.08390953;0;0;0;0.1920422;2.726185;0.3724433;0.06040889;1.342251;-0.08390953;0;0;0
669021.2839;NotLabelled;NONE;16384;0.06371191;0.3476454;-0.8042095;-0.4778393;-20;0;-20;-2755;2731;877;65536;0.2839335;0.04847645;0.7048895;0.6481994;-1;11;9;-1853;3577;-271;8192;0.6481994;-0.6677481;-0.3393352;0.1371191;15;-9;-7;3086;3070;376;32768;0.7292201;-0.6772853;0.01108033;-0.09695291;-9;5;-11;291;4364;-854;256;0.4570637;-0.3448753;-0.7009652;-0.4252077;-2;-1;23;118;3534;1960;128;-0.3905817;0.2825485;0.7045602;0.5207756;1;1;-18;456;3830;-1306;4;-0.1731302;-0.06094183;-0.6962807;-0.6939058;-3;8;10;562;4046;-148;16;0.5844875;-0.6379105;0.3531856;0.3559557;1;-7;4;6;4204;375;2;0.6786703;-0.7118386;-0.06786703;-0.16759;0;1;10;-686;4114;294;8;0.3407202;-0.5955678;0.3975069;0.6092594;31;-6;-4;-122;3567;1650;0.4935546;2.765662;0.3610138;0.4986545;3.230428;0.07537621;0.5031257;3.637897;-0.1774222;0.5585878;4.30921;-0.4684991;0.3241764;4.613806;-0.6328787;-0.02450594;4.538588;-0.5192922;-0.3476913;3.861154;0.02381501;-0.4964413;3.023083;-0.3924853;0.8427538;4.570965;-0.6328804;1.122157;4.443857;-0.5192951;1.215002;3.699819;0.08573687;1.238827;2.766748;-0.07735252;0.1813299;2.72631;0.3783165;0.06132231;1.342375;-0.08122487;0;0;0;0.1813299;2.72631;0.3783165;0.06132231;1.342375;-0.08122487;0;0;0
669041.3166;NotLabelled;NONE;16384;0.06371191;0.3504155;-0.8046484;-0.4750692;-20;1;-14;-2709;2789;895;65536;0.2839335;0.04709141;0.7049834;0.6481994;-1;7;5;-1801;3541;-271;8192;0.6468144;-0.6697904;-0.3379501;0.1371191;15;-6;-6;3124;3190;272;32768;0.7281342;-0.6786703;0.009695291;-0.09556787;-4;8;-10;291;4470;-756;256;0.4542936;-0.3462604;-0.7029192;-0.4238227;0;-5;21;34;3610;1904;128;-0.3878116;0.2825485;0.7060887;0.5207756;0;-1;-18;512;3838;-1324;4;-0.1731302;-0.06094183;-0.6962807;-0.6939058;-7;3;9;564;4000;-96;16;0.5831025;-0.6368632;0.3559557;0.3573407;3;-20;4;190;4134;349;2;0.6786703;-0.7122158;-0.07063711;-0.1648199;0;9;13;-384;4054;276;8;0.3462604;-0.5900277;0.4044321;0.6069644;27;-1;0;-286;4057;1628;0.5063035;2.76456;0.3594076;0.5113748;3.22672;0.06957233;0.5158208;3.631883;-0.186906;0.579505;4.300648;-0.4821361;0.3488256;4.607136;-0.6482674;-0.0007038265;4.536985;-0.5340431;-0.3265168;3.865902;0.01534039;-0.4768392;3.026099;-0.3968864;0.8668264;4.557812;-0.6482696;1.144684;4.427918;-0.5340464;1.237775;3.683992;0.07108247;1.262595;2.750077;-0.08695054;0.1940806;2.725367;0.3770968;0.060791;1.342375;-0.08162304;0;0;0;0.1940806;2.725367;0.3770968;0.060791;1.342375;-0.08162304;0;0;0
669061.4306;NotLabelled;NONE;16384;0.06371191;0.3531856;-0.8066865;-0.4695291;-19;0;-5;-2623;2849;961;65536;0.2853186;0.04432133;0.7033271;0.6495845;0;6;-1;-1969;3509;-455;8192;0.6454294;-0.6718208;-0.3365651;0.1371191;15;0;-5;3160;3226;240;32768;0.7281657;-0.6786703;0.006925208;-0.09556787;0;13;-10;289;4486;-616;256;0.4542936;-0.3476454;-0.7030693;-0.4224377;0;-8;19;184;3646;1866;128;-0.3878116;0.2839335;0.7065532;0.5193906;0;-7;-17;444;3874;-1420;4;-0.1703601;-0.06232687;-0.6982176;-0.6925207;-10;-13;7;792;3962;-14;16;0.5803324;-0.6331292;0.3628809;0.3614958;6;-34;4;70;4234;287;2;0.6800554;-0.7106127;-0.0734072;-0.1648199;-1;11;8;-652;4198;90;8;0.3490305;-0.5886427;0.4058172;0.605797;24;-2;0;-30;4291;1424;0.5098324;2.76452;0.359669;0.5149038;3.226682;0.06983757;0.5193497;3.631847;-0.1866375;0.5876518;4.299923;-0.4823927;0.3590926;4.607876;-0.6487453;0.009093627;4.540244;-0.5344405;-0.3166485;3.873233;0.01992247;-0.4678833;3.03257;-0.3902116;0.8767383;4.554957;-0.6487477;1.153697;4.423227;-0.5344441;1.247651;3.678195;0.06919014;1.269824;2.743483;-0.08446443;0.1976095;2.725326;0.377358;0.0626633;1.342333;-0.08087748;0;0;0;0.1976095;2.725326;0.377358;0.0626633;1.342333;-0.08087748;0;0;0
669082.2791;NotLabelled;NONE;16384;0.06371191;0.3531856;-0.8074911;-0.468144;-15;0;-3;-2549;2847;1027;65536;0.2867036;0.04432133;0.7027636;0.6495845;1;6;-5;-1991;3611;-557;8192;0.6440443;-0.6727354;-0.3379501;0.1357341;15;7;-2;3000;3366;198;32768;0.7280103;-0.6786703;0.002770083;-0.09695291;6;25;-8;287;4476;-428;256;0.4529086;-0.3490305;-0.7049331;-0.4196676;0;-11;17;482;3796;1846;128;-0.3864266;0.2853186;0.7077698;0.5180055;2;-10;-15;336;3900;-1464;4;-0.1689751;-0.06509695;-0.6996723;-0.6911357;-11;-15;8;1100;3986;12;16;0.5789474;-0.6296;0.368421;0.3642659;8;-36;5;132;4146;195;2;0.6800554;-0.7101455;-0.07479224;-0.166205;0;6;3;-854;4256;-62;8;0.3504155;-0.5858725;0.4099723;0.6048843;20;-22;-2;274;4315;1310;0.5185155;2.76554;0.359222;0.5235825;3.227304;0.06875712;0.5280246;3.632118;-0.1882734;0.598492;4.299782;-0.4844515;0.3709265;4.608392;-0.6509488;0.02072668;4.541994;-0.5365351;-0.3184444;3.88103;0.01701516;-0.4635341;3.039181;-0.3929074;0.8883933;4.55375;-0.651018;1.164934;4.421169;-0.5366871;1.250565;3.674221;0.06581652;1.274425;2.738967;-0.08424509;0.2062928;2.726371;0.3769694;0.06502961;1.342472;-0.07660125;0;0;0;0.2062928;2.726371;0.3769694;0.06502961;1.342472;-0.07660125;0;0;0
669103.4565;NotLabelled;NONE;16384;0.06232687;0.3545706;-0.8085927;-0.4653739;-11;1;-2;-2509;2901;1167;65536;0.2894737;0.04432133;0.7029069;0.6481994;5;2;-8;-1899;3599;-709;8192;0.6426592;-0.6743361;-0.3379501;0.134349;12;11;-1;2918;3448;138;32768;0.7291188;-0.6772853;0;-0.09833795;7;29;-9;323;4528;-364;256;0.4515235;-0.3518005;-0.7052677;-0.4182825;0;-8;16;688;3726;1630;128;-0.3864266;0.2867036;0.7082223;0.5166205;1;-8;-14;120;3968;-1386;4;-0.16759;-0.06786703;-0.6997422;-0.6911357;-10;-12;10;1232;3984;146;16;0.5775623;-0.6284412;0.3711911;0.365651;8;-27;7;44;4256;161;2;0.6800554;-0.7101455;-0.07479224;-0.166205;3;1;-3;-936;4376;-152;8;0.3490305;-0.5831025;0.4141274;0.6055309;18;-31;0;192;3907;1346;0.5275587;2.764789;0.365632;0.5326214;3.226157;0.07453871;0.5370596;3.63062;-0.1830426;0.6121054;4.296788;-0.4814566;0.386655;4.606421;-0.64893;0.03602901;4.542847;-0.5342184;-0.3043191;3.884013;0.02114746;-0.4488566;3.042974;-0.3906286;0.9037287;4.548175;-0.6489321;1.179367;4.414051;-0.5342218;1.26231;3.668058;0.0698396;1.287501;2.732259;-0.07656121;0.2153363;2.725644;0.3834373;0.0660456;1.34275;-0.07062739;0;0;0;0.2153363;2.725644;0.3834373;0.0660456;1.34275;-0.07062739;0;0;0
669123.5057;NotLabelled;NONE;16384;0.06232687;0.3545706;-0.8093883;-0.4639889;-9;0;-1;-2405;2833;1349;65536;0.2908587;0.04570637;0.703522;0.6468144;6;0;-11;-2035;3521;-631;8192;0.6412742;-0.675233;-0.3393352;0.132964;10;13;1;2856;3460;10;32768;0.7289189;-0.6772853;-0.004155125;-0.09972299;9;29;-10;487;4448;-310;256;0.4473684;-0.3545706;-0.70816;-0.4155124;0;-2;13;792;3686;1616;128;-0.3836565;0.2908587;0.7090425;0.5152354;-7;2;-14;-218;3992;-1050;4;-0.16759;-0.07063711;-0.7008338;-0.6897507;-11;-7;10;1442;3884;290;16;0.5775623;-0.6259867;0.3739612;0.367036;9;-14;7;130;4270;159;2;0.6800554;-0.7099646;-0.0734072;-0.16759;3;-4;-9;-762;4046;-250;8;0.3490305;-0.5803324;0.4182825;0.6053361;17;-21;1;342;3619;1480;0.5314428;2.763763;0.3690517;0.5365012;3.224738;0.07733595;0.5409356;3.628853;-0.1807911;0.6204237;4.294919;-0.4782797;0.3970487;4.606263;-0.645363;0.04599209;4.544846;-0.5307928;-0.300711;3.888459;0.0235382;-0.4463822;3.049321;-0.391702;0.9137266;4.544605;-0.6453652;1.188455;4.408509;-0.5307965;1.265981;3.661439;0.07265377;1.295496;2.72562;-0.07280278;0.2192207;2.724642;0.3869145;0.06822135;1.342701;-0.06948125;0;0;0;0.2192207;2.724642;0.3869145;0.06822135;1.342701;-0.06948125;0;0;0
669144.296;NotLabelled;NONE;16384;0.06094183;0.3545706;-0.810286;-0.4626039;-10;0;-1;-2329;2839;1483;65536;0.2922437;0.04709141;0.7028564;0.6468144;5;1;-14;-1971;3407;-691;8192;0.6398892;-0.6761202;-0.3407202;0.1315789;9;15;3;2762;3392;32;32768;0.7299773;-0.6759003;-0.008310249;-0.101108;10;27;-12;449;4466;-180;256;0.4459834;-0.3559557;-0.7083387;-0.4155124;1;-3;12;674;3638;1564;128;-0.3808864;0.2922437;0.7089587;0.5166205;-15;0;-15;-246;3880;-918;4;-0.1689751;-0.0734072;-0.7015779;-0.6883656;-12;-4;9;1590;3746;340;16;0.5761772;-0.6256021;0.3767313;0.367036;9;-20;6;248;4166;227;2;0.6786703;-0.7113776;-0.06925207;-0.1689751;5;4;-8;-544;3606;-462;8;0.3490305;-0.5775623;0.4252077;0.6031566;15;-16;0;808;3763;1494;0.539323;2.762112;0.3768082;0.5443877;3.223668;0.08601403;0.5488277;3.628298;-0.1713051;0.6363226;4.292935;-0.4697435;0.4167104;4.606698;-0.6372886;0.06493579;4.549664;-0.5226549;-0.2795813;3.895779;0.03597865;-0.4300513;3.058611;-0.3815211;0.9326108;4.53884;-0.6371667;1.20568;4.39962;-0.5223839;1.284169;3.65391;0.08261991;1.31444;2.717561;-0.05923641;0.2271006;2.722955;0.3945862;0.06691556;1.343006;-0.06469411;0;0;0;0.2271006;2.722955;0.3945862;0.06691556;1.343006;-0.06469411;0;0;0
669164.6898;NotLabelled;NONE;16384;0.06094183;0.3545706;-0.8110752;-0.4612188;-12;3;1;-2299;2859;1547;65536;0.2950138;0.04986149;0.7027813;0.6454294;3;1;-16;-1955;3361;-831;8192;0.6398892;-0.6749858;-0.3434903;0.1301939;9;16;5;2670;3402;34;32768;0.729725;-0.6759003;-0.01246537;-0.1024931;10;24;-14;465;4352;-168;256;0.4445983;-0.3573407;-0.7093225;-0.4141274;2;-7;10;702;3598;1458;128;-0.3767313;0.2950138;0.7090209;0.5180055;-15;-4;-15;-244;3766;-950;4;-0.1703601;-0.07756232;-0.7048529;-0.6842105;-10;-1;8;1750;3548;402;16;0.5761772;-0.6222322;0.3822715;0.367036;6;0;5;122;3998;-9;2;0.6772853;-0.7120339;-0.06925207;-0.1717452;8;5;-6;-890;3868;-456;8;0.3476454;-0.5747922;0.4293629;0.6036589;15;-29;-1;640;3669;1518;0.5518252;2.759003;0.3848219;0.5569047;3.22191;0.09618396;0.5613579;3.627737;-0.1592448;0.6510314;4.292667;-0.456377;0.4324497;4.607474;-0.6233099;0.08048782;4.551367;-0.5087942;-0.2690434;3.896766;0.04587248;-0.4195954;3.0613;-0.3749956;0.9481256;4.537932;-0.6233125;1.220735;4.397594;-0.5087984;1.293488;3.650837;0.09563041;1.32835;2.714239;-0.04349804;0.2396018;2.719764;0.4024009;0.07203646;1.342812;-0.06319936;0;0;0;0.2396018;2.719764;0.4024009;0.07203646;1.342812;-0.06319936;0;0;0
669185.4356;NotLabelled;NONE;16384;0.0567867;0.3545706;-0.8129451;-0.4584487;-10;6;8;-2335;2871;1511;65536;0.300554;0.05263158;0.7015014;0.6440443;0;2;-21;-2163;3339;-803;8192;0.6385041;-0.6754105;-0.3462604;0.1274238;7;19;5;2558;3420;-82;32768;0.7308165;-0.6745152;-0.02077562;-0.1024931;9;20;-21;429;4226;-38;256;0.4432133;-0.3601108;-0.7087882;-0.4141274;4;-7;9;904;3714;1308;128;-0.3753462;0.2977839;0.7085974;0.5180055;-7;-7;-13;-482;3792;-1064;4;-0.1717452;-0.08033241;-0.7055492;-0.6828254;-9;1;11;1844;3680;448;16;0.5775623;-0.6217633;0.3822715;0.365651;0;0;2;112;4158;-3;2;0.6759003;-0.7131471;-0.06786703;-0.1731302;9;-5;-6;-996;4030;-450;8;0.3462604;-0.5720221;0.432133;0.6051078;15;-26;-1;184;3863;1528;0.5748798;2.755018;0.4017985;0.5799793;3.219749;0.1161047;0.5844502;3.627188;-0.1367429;0.6774832;4.291457;-0.4343219;0.460493;4.607263;-0.6014434;0.1082604;4.553024;-0.4868594;-0.243206;3.899828;0.06823877;-0.3968185;3.068094;-0.3588687;0.9758079;4.535093;-0.6014457;1.247709;4.393445;-0.486863;1.320894;3.647859;0.1189587;1.356892;2.710755;-0.0164268;0.2626552;2.715668;0.4191064;0.07619243;1.343059;-0.05209769;0;0;0;0.2626552;2.715668;0.4191064;0.07619243;1.343059;-0.05209769;0;0;0
669205.2905;NotLabelled;NONE;16384;0.05401662;0.3545706;-0.8139132;-0.4570637;-9;5;9;-2391;3049;1471;65536;0.3047091;0.05540166;0.6994926;0.6440443;0;2;-24;-2265;3445;-887;8192;0.6371191;-0.6755525;-0.3490305;0.1260388;6;22;5;2552;3544;-152;32768;0.7308795;-0.6745152;-0.02493075;-0.101108;9;20;-24;487;4280;-22;256;0.4418283;-0.3628809;-0.7082399;-0.4141274;6;-4;10;1044;3780;1316;128;-0.3739612;0.300554;0.70816;0.5180055;-6;-13;-13;-590;4052;-912;4;-0.1731302;-0.08310249;-0.7062286;-0.6814404;-7;0;14;1872;3830;598;16;0.5761772;-0.6222322;0.3822715;0.367036;-6;-7;-3;88;4338;-373;2;0.6745152;-0.7143781;-0.06509695;-0.1745152;7;-2;-5;-758;4118;-704;8;0.3476454;-0.5706371;0.434903;0.6036351;14;-16;-1;274;4045;1504;0.5809646;2.752071;0.4133493;0.5860747;3.217765;0.1292299;0.5905551;3.626058;-0.1222374;0.6870427;4.291078;-0.4170265;0.4717248;4.608582;-0.583088;0.1191203;4.555552;-0.4690844;-0.2428413;3.904057;0.08124888;-0.3964589;3.077831;-0.3564158;0.9866917;4.533973;-0.5828566;1.2578;4.390574;-0.4685714;1.323436;3.647169;0.1407859;1.366653;2.708973;0.01545906;0.2687393;2.712663;0.4305122;0.07629409;1.343225;-0.04746691;0;0;0;0.2687393;2.712663;0.4305122;0.07629409;1.343225;-0.04746691;0;0;0
669226.3605;NotLabelled;NONE;16384;0.05124654;0.3545706;-0.8140923;-0.4570637;-6;5;9;-2309;3139;1561;65536;0.3088643;0.05817174;0.6987188;0.6426592;1;1;-26;-2327;3503;-965;8192;0.6371191;-0.6753466;-0.3504155;0.1232687;6;22;6;2474;3554;-186;32768;0.732192;-0.6731302;-0.02908587;-0.09972299;10;17;-28;561;4274;28;256;0.4390582;-0.3642659;-0.7100577;-0.4127424;5;-1;11;1056;3838;1316;128;-0.3725762;0.3033241;0.7087205;0.5166205;-3;-9;-12;-732;4114;-912;4;-0.1759003;-0.08587258;-0.7065477;-0.6800554;-3;-1;18;1954;3740;444;16;0.5761772;-0.6205899;0.3822715;0.3698061;-9;-8;-11;-460;4172;-209;2;0.6731302;-0.7159299;-0.06232687;-0.1745152;6;-5;-5;-732;4236;-688;8;0.3476454;-0.567867;0.4376731;0.6042449;11;-13;-1;266;4023;1580;0.5871558;2.748729;0.4158167;0.5922765;3.215389;0.1332853;0.5967662;3.624535;-0.1167898;0.696579;4.290286;-0.4088089;0.4828674;4.609478;-0.5737067;0.1299448;4.55765;-0.4601349;-0.2373046;3.905597;0.08601943;-0.3885362;3.083838;-0.3607877;0.9974759;4.532435;-0.5734659;1.267832;4.387292;-0.4596009;1.328978;3.645286;0.1519243;1.374669;2.706268;0.03383815;0.2749299;2.709262;0.4328337;0.07636236;1.343059;-0.05184824;0;0;0;0.2749299;2.709262;0.4328337;0.07636236;1.343059;-0.05184824;0;0;0
669246.4833;NotLabelled;NONE;16384;0.04847645;0.3531856;-0.8148636;-0.4570637;-5;6;8;-2239;3125;1703;65536;0.3130194;0.06094183;0.6966305;0.6426592;1;0;-28;-2467;3509;-1027;8192;0.6357341;-0.6754602;-0.3531856;0.1218837;7;22;8;2448;3406;-172;32768;0.7322025;-0.6731302;-0.033241;-0.09833795;10;16;-31;579;4242;86;256;0.434903;-0.368421;-0.710471;-0.4127424;6;4;12;1190;3696;1228;128;-0.368421;0.3088643;0.7084999;0.5166205;-6;3;-12;-856;4074;-856;4;-0.1772853;-0.08864266;-0.7058591;-0.6800554;1;-6;19;1986;3426;302;16;0.5775623;-0.6184936;0.3808864;0.3725762;-8;-3;-11;-206;3978;-123;2;0.6717451;-0.7170102;-0.06094183;-0.1759003;2;4;-6;-610;3890;-552;8;0.3490305;-0.566482;0.4404432;0.6027318;9;0;-1;408;3729;1402;0.5890921;2.744713;0.4232712;0.5942142;3.21149;0.1409347;0.5987049;3.62074;-0.1089696;0.7029207;4.285571;-0.4015491;0.4913117;4.606102;-0.5665627;0.138108;4.556786;-0.4527454;-0.2279109;3.900904;0.08963545;-0.3824798;3.083979;-0.3648309;1.005378;4.525521;-0.5665648;1.274797;4.378608;-0.4527485;1.337583;3.633235;0.1544995;1.388493;2.693741;0.04248643;0.2768662;2.70524;0.4402702;0.06995284;1.343362;-0.05302101;0;0;0;0.2768662;2.70524;0.4402702;0.06995284;1.343362;-0.05302101;0;0;0
669267.2995;NotLabelled;NONE;16384;0.04709141;0.3531856;-0.8149449;-0.4570637;-6;5;8;-2241;2953;1901;65536;0.3171745;0.06371191;0.6957791;0.6412742;0;1;-31;-2407;3387;-961;8192;0.634349;-0.6755568;-0.3559557;0.1204986;6;19;10;2402;3346;-224;32768;0.7321868;-0.6731302;-0.03739612;-0.09695291;10;14;-32;609;4120;106;256;0.4307479;-0.3698061;-0.711476;-0.4141274;7;8;13;1116;3622;1186;128;-0.3642659;0.3102493;0.7100416;0.5166205;-11;15;-14;-960;3926;-746;4;-0.1800554;-0.09279778;-0.7046228;-0.6800554;2;8;5;1926;3010;306;16;0.5761772;-0.6172735;0.3795014;0.3781163;-12;-19;-16;8;3514;635;2;0.6717451;-0.716669;-0.06094183;-0.1772853;2;9;-6;-788;3712;-604;8;0.3490305;-0.5650969;0.4418283;0.6030182;7;1;0;368;3759;1200;0.5805901;2.742189;0.431795;0.5857334;3.210902;0.1526836;0.5902429;3.621866;-0.09439284;0.7015409;4.287376;-0.3827854;0.4934089;4.610934;-0.5463057;0.1395069;4.564394;-0.4334944;-0.2279902;3.909636;0.1092451;-0.3810453;3.097355;-0.3539744;1.006664;4.525341;-0.5457567;1.274402;4.375131;-0.4322792;1.334617;3.635352;0.1820315;1.387646;2.695148;0.07719564;0.2683628;2.7026;0.448498;0.05955627;1.343879;-0.05263557;0;0;0;0.2683628;2.7026;0.448498;0.05955627;1.343879;-0.05263557;0;0;0
669288.3237;NotLabelled;NONE;16384;0.04155125;0.3518005;-0.8173904;-0.4542936;-12;7;10;-2029;2931;1945;65536;0.3268698;0.06925207;0.6920276;0.6398892;-5;2;-34;-2329;3149;-1149;8192;0.632964;-0.6756363;-0.3587258;0.1191136;6;16;7;2526;3238;-216;32768;0.7321658;-0.6731302;-0.04709141;-0.09279778;10;14;-31;733;4008;144;256;0.4279778;-0.3711911;-0.7124258;-0.4141274;9;11;13;1276;3510;1132;128;-0.3601108;0.3116343;0.7105452;0.5180055;-13;19;-15;-1050;3740;-620;4;-0.1814404;-0.09141274;-0.7044485;-0.6800554;3;16;1;1950;3002;280;16;0.5734072;-0.6164338;0.3795014;0.3836565;-23;-28;-23;-14;3338;897;2;0.6703601;-0.7172751;-0.06094183;-0.1800554;2;11;-6;-906;3932;-424;8;0.3504155;-0.5650969;0.4418283;0.6022145;5;0;-1;312;3899;1320;0.5752314;2.736921;0.4351767;0.5803797;3.206097;0.1568446;0.5848939;3.61747;-0.08954883;0.6994354;4.283666;-0.375078;0.4928759;4.608973;-0.5371148;0.1387816;4.563717;-0.4243843;-0.2262544;3.904258;0.114311;-0.3840097;3.096986;-0.3560305;1.005696;4.520805;-0.5371175;1.272713;4.36876;-0.4243884;1.333283;3.62615;0.1864611;1.387775;2.685289;0.0884819;0.2630038;2.697304;0.4518082;0.04858958;1.343951;-0.06133957;0;0;0;0.2630038;2.697304;0.4518082;0.04858958;1.343951;-0.06133957;0;0;0
669308.293;NotLabelled;NONE;16384;0.03878116;0.3504155;-0.8188888;-0.4529086;-16;6;10;-2053;2913;1817;65536;0.3310249;0.07202215;0.689766;0.6398892;-8;4;-34;-2329;3097;-1273;8192;0.6315789;-0.6756988;-0.3614958;0.1177285;6;21;6;2658;3272;-270;32768;0.7321566;-0.6731302;-0.04986149;-0.09141274;9;12;-29;753;4044;84;256;0.4238227;-0.3711911;-0.7141014;-0.4155124;13;19;14;1256;3390;1076;128;-0.3545706;0.3116343;0.7113062;0.5207756;-7;24;-14;-996;3648;-598;4;-0.1828255;-0.0900277;-0.7042688;-0.6800554;7;22;-2;1840;3138;202;16;0.5706371;-0.6155306;0.3795014;0.3891967;-21;-36;-15;496;3610;447;2;0.6703601;-0.716574;-0.06094183;-0.1828255;1;10;-8;-930;3988;-508;8;0.3504155;-0.5650969;0.4432133;0.6011958;2;2;0;92;3875;1356;0.5686932;2.736771;0.4256594;0.5738558;3.207243;0.149523;0.5783824;3.619763;-0.09494513;0.6963776;4.285903;-0.3791963;0.4915156;4.612549;-0.5406929;0.1371602;4.56887;-0.4281605;-0.2351008;3.907799;0.103568;-0.3926981;3.111502;-0.3851791;1.003884;4.521794;-0.5406951;1.270094;4.368195;-0.428164;1.329464;3.626976;0.1844909;1.389005;2.684733;0.1043642;0.2564647;2.697077;0.4420895;0.04172692;1.343711;-0.07089022;0;0;0;0.2564647;2.697077;0.4420895;0.04172692;1.343711;-0.07089022;0;0;0
669328.2845;NotLabelled;NONE;16384;0.03462604;0.3504155;-0.8206006;-0.4501385;-19;5;10;-1975;2931;1819;65536;0.3365651;0.07479224;0.6880716;0.6385041;-9;5;-35;-2357;3117;-1245;8192;0.6301939;-0.6757442;-0.3642659;0.1163435;7;29;6;2644;3238;-264;32768;0.7333046;-0.6717451;-0.05401662;-0.0900277;9;14;-27;691;4114;152;256;0.4196676;-0.3725762;-0.7142169;-0.4182825;15;21;14;1192;3456;1064;128;-0.3504155;0.3116343;0.7123491;0.5221606;-3;29;-12;-930;3710;-690;4;-0.1855956;-0.08587258;-0.7040631;-0.6800554;8;29;-10;1570;3362;214;16;0.567867;-0.6137344;0.3822715;0.3933518;-3;-30;0;322;3896;-197;2;0.6689751;-0.717156;-0.06094183;-0.1855956;0;13;-8;-814;3996;-412;8;0.3518005;-0.5650969;0.4418283;0.6014064;0;6;1;34;3965;1242;0.5635195;2.736556;0.4154784;0.5686998;3.20865;0.1421238;0.5732422;3.622606;-0.09990501;0.6940107;4.288951;-0.382503;0.4905415;4.616685;-0.5435562;0.1358748;4.574019;-0.4316169;-0.2341383;3.915016;0.1042315;-0.3930669;3.123746;-0.3921855;1.002582;4.524103;-0.543045;1.268085;4.369305;-0.4304852;1.332115;3.633123;0.1877481;1.3927;2.690536;0.1126075;0.25129;2.696765;0.4316537;0.03434672;1.343387;-0.08036287;0;0;0;0.25129;2.696765;0.4316537;0.03434672;1.343387;-0.08036287;0;0;0
