SEP=;
index;label;segment;RightUpperArm_boneIndex;RightUpperArm_quat9x_w;RightUpperArm_quat9x_x;RightUpperArm_quat9x_y;RightUpperArm_quat9x_z;RightUpperArm_gyroscope_x;RightUpperArm_gyroscope_y;RightUpperArm_gyroscope_z;RightUpperArm_accelerometer_x;RightUpperArm_accelerometer_y;RightUpperArm_accelerometer_z;RightLowerArm_boneIndex;RightLowerArm_quat9x_w;RightLowerArm_quat9x_x;RightLowerArm_quat9x_y;RightLowerArm_quat9x_z;RightLowerArm_gyroscope_x;RightLowerArm_gyroscope_y;RightLowerArm_gyroscope_z;RightLowerArm_accelerometer_x;RightLowerArm_accelerometer_y;RightLowerArm_accelerometer_z;LeftUpperArm_boneIndex;LeftUpperArm_quat9x_w;LeftUpperArm_quat9x_x;LeftUpperArm_quat9x_y;LeftUpperArm_quat9x_z;LeftUpperArm_gyroscope_x;LeftUpperArm_gyroscope_y;LeftUpperArm_gyroscope_z;LeftUpperArm_accelerometer_x;LeftUpperArm_accelerometer_y;LeftUpperArm_accelerometer_z;LeftLowerArm_boneIndex;LeftLowerArm_quat9x_w;LeftLowerArm_quat9x_x;LeftLowerArm_quat9x_y;LeftLowerArm_quat9x_z;LeftLowerArm_gyroscope_x;LeftLowerArm_gyroscope_y;LeftLowerArm_gyroscope_z;LeftLowerArm_accelerometer_x;LeftLowerArm_accelerometer_y;LeftLowerArm_accelerometer_z;Chest_boneIndex;Chest_quat9x_w;Chest_quat9x_x;Chest_quat9x_y;Chest_quat9x_z;Chest_gyroscope_x;Chest_gyroscope_y;Chest_gyroscope_z;Chest_accelerometer_x;Chest_accelerometer_y;Chest_accelerometer_z;Spine_boneIndex;Spine_quat9x_w;Spine_quat9x_x;Spine_quat9x_y;Spine_quat9x_z;Spine_gyroscope_x;Spine_gyroscope_y;Spine_gyroscope_z;Spine_accelerometer_x;Spine_accelerometer_y;Spine_accelerometer_z;RightUpperLeg_boneIndex;RightUpperLeg_quat9x_w;RightUpperLeg_quat9x_x;RightUpperLeg_quat9x_y;RightUpperLeg_quat9x_z;RightUpperLeg_gyroscope_x;RightUpperLeg_gyroscope_y;RightUpperLeg_gyroscope_z;RightUpperLeg_accelerometer_x;RightUpperLeg_accelerometer_y;RightUpperLeg_accelerometer_z;RightLowerLeg_boneIndex;RightLowerLeg_quat9x_w;RightLowerLeg_quat9x_x;RightLowerLeg_quat9x_y;RightLowerLeg_quat9x_z;RightLowerLeg_gyroscope_x;RightLowerLeg_gyroscope_y;RightLowerLeg_gyroscope_z;RightLowerLeg_accelerometer_x;RightLowerLeg_accelerometer_y;RightLowerLeg_accelerometer_z;LeftUpperLeg_boneIndex;LeftUpperLeg_quat9x_w;LeftUpperLeg_quat9x_x;LeftUpperLeg_quat9x_y;LeftUpperLeg_quat9x_z;LeftUpperLeg_gyroscope_x;LeftUpperLeg_gyroscope_y;LeftUpperLeg_gyroscope_z;LeftUpperLeg_accelerometer_x;LeftUpperLeg_accelerometer_y;LeftUpperLeg_accelerometer_z;LeftLowerLeg_boneIndex;LeftLowerLeg_quat9x_w;LeftLowerLeg_quat9x_x;LeftLowerLeg_quat9x_y;LeftLowerLeg_quat9x_z;LeftLowerLeg_gyroscope_x;LeftLowerLeg_gyroscope_y;LeftLowerLeg_gyroscope_z;LeftLowerLeg_accelerometer_x;LeftLowerLeg_accelerometer_y;LeftLowerLeg_accelerometer_z;pelvis_x;pelvis_y;pelvis_z;lowerSpine_x;lowerSpine_y;lowerSpine_z;middleSpine_x;middleSpine_y;middleSpine_z;upperSpine_x;upperSpine_y;upperSpine_z;rightClavicle_x;rightClavicle_y;rightClavicle_z;rightShoulder_x;rightShoulder_y;rightShoulder_z;rightElbow_x;rightElbow_y;rightElbow_z;rightWrist_x;rightWrist_y;rightWrist_z;leftClavicle_x;leftClavicle_y;leftClavicle_z;leftShoulder_x;leftShoulder_y;leftShoulder_z;leftElbow_x;leftElbow_y;leftElbow_z;leftWrist_x;leftWrist_y;leftWrist_z;rightHip_x;rightHip_y;rightHip_z;rightKnee_x;rightKnee_y;rightKnee_z;rightAnkle_x;rightAnkle_y;rightAnkle_z;leftHip_x;leftHip_y;leftHip_z;leftKnee_x;leftKnee_y;leftKnee_z;leftAnkle_x;leftAnkle_y;leftAnkle_z;
1147829.2379;NotLabelled;NONE;16384;-0.4390582;-0.6260388;-0.6441054;0.02077562;9;14;1;3587;-2111;1233;65536;0.6931784;0.2797784;-0.3130194;-0.5858725;8;40;49;5021;-531;-442;8192;0.7255701;-0.6094183;-0.08725762;0.3074792;9;-7;15;2098;3634;306;32768;0.1800554;-0.8038004;0.5637119;0.06094183;1;1;41;4313;1271;1472;256;0.3753462;-0.5166205;-0.5138504;-0.5728667;-10;0;-1;666;3806;-768;128;-0.09141274;0.2783934;0.6246537;0.7238429;0;12;4;-782;3970;628;4;-0.2243767;-0.1274238;-0.7189153;-0.6454294;0;0;0;2010;3408;586;16;0.6433365;-0.5567867;0.4473684;0.2756233;1;0;0;432;3975;-953;2;0.6412742;-0.7570161;-0.1246537;0.01246537;-2;3;0;966;3820;-632;8;0.2825485;-0.6429204;0.333795;0.6288089;2;-1;0;347;3137;2542;0.6317869;2.614141;1.035871;0.6377668;3.159097;1.011197;0.6430222;3.638021;0.9874889;0.7139466;4.354388;1.129797;0.4887618;4.705631;1.155635;0.1343575;4.590179;1.190387;-0.5164924;5.126175;0.8064177;0.2193854;5.132075;1.403281;1.006575;4.654368;1.155634;1.27933;4.476827;1.190385;1.595158;3.674918;1.621047;0.7172115;3.325582;1.691487;0.319529;2.571762;1.030282;0.09752273;1.297028;0.3471833;0;0;0;0.319529;2.571762;1.030282;0.09752273;1.297028;0.3471833;0;0;0
1147851.5033;NotLabelled;NONE;16384;-0.4404432;-0.6232687;-0.6458439;0.02077562;9;24;5;3489;-2249;1143;65536;0.6922687;0.2867036;-0.3060942;-0.5872576;2;36;56;4909;-285;-470;8192;0.7230541;-0.6108033;-0.08864266;0.3102493;16;-8;18;2402;3646;106;32768;0.1772853;-0.8039388;0.5650969;0.05401662;3;3;46;4395;1239;1292;256;0.3767313;-0.5166205;-0.5152354;-0.5707095;-9;0;0;790;3802;-614;128;-0.09141274;0.2756233;0.6260388;0.7237064;7;13;5;-742;3932;526;4;-0.2257618;-0.1274238;-0.7184815;-0.6454294;0;1;0;1990;3480;594;16;0.6433365;-0.5567867;0.4473684;0.2756233;0;0;0;654;4029;-889;2;0.6426592;-0.755611;-0.1260388;0.01246537;-1;6;0;872;3824;-646;8;0.2825485;-0.6429204;0.333795;0.6288089;1;3;-1;335;3271;2414;0.6334075;2.613008;1.038246;0.6393867;3.157887;1.011921;0.6446412;3.636737;0.9867612;0.7173062;4.353336;1.127006;0.492963;4.705185;1.151906;0.1382959;4.590675;1.187087;-0.512773;5.124516;0.8004979;0.2239533;5.144525;1.396007;1.010653;4.652694;1.151906;1.282995;4.474605;1.187086;1.59877;3.674637;1.621382;0.716537;3.335233;1.686617;0.3211495;2.570612;1.032796;0.09391094;1.296433;0.3503814;0;0;0;0.3211495;2.570612;1.032796;0.09391094;1.296433;0.3503814;0;0;0
1147872.005;NotLabelled;NONE;16384;-0.4418283;-0.6163435;-0.6513187;0.02631579;4;30;5;3099;-2265;1081;65536;0.6917863;0.300554;-0.2908587;-0.5886427;-9;15;55;3903;-401;-274;8192;0.7209391;-0.6121883;-0.09141274;0.3116343;21;0;20;2610;3534;118;32768;0.1731302;-0.8052787;0.5650969;0.04709141;6;7;50;3969;1367;1308;256;0.3767313;-0.5166205;-0.5166205;-0.569456;-10;1;3;744;4002;-560;128;-0.09141274;0.2728532;0.6274238;0.7235566;22;11;6;-876;3944;336;4;-0.2257618;-0.1274238;-0.7184815;-0.6454294;0;2;0;1886;3462;510;16;0.6433365;-0.5567867;0.4473684;0.2756233;2;-5;0;718;3953;-847;2;0.6426592;-0.7556325;-0.1260388;0.01108033;-2;7;-1;766;3878;-598;8;0.2825485;-0.6429204;0.333795;0.6288089;0;0;-1;509;3197;2374;0.6302818;2.611693;1.041554;0.6362598;3.156469;1.013186;0.6415132;3.635221;0.9862294;0.715355;4.352404;1.12283;0.4915522;4.704704;1.146163;0.136747;4.590896;1.182218;-0.5114123;5.125609;0.7919618;0.2247276;5.161107;1.387474;1.009164;4.651447;1.145984;1.281274;4.473134;1.181822;1.592981;3.673868;1.620327;0.705829;3.345891;1.676729;0.3180234;2.569277;1.036276;0.09329509;1.296434;0.3505461;0;0;0;0.3180234;2.569277;1.036276;0.09329509;1.296434;0.3505461;0;0;0
1147892.0232;NotLabelled;NONE;16384;-0.4432133;-0.6135734;-0.6529337;0.02770083;3;22;5;2919;-2351;1001;65536;0.6940191;0.3047091;-0.2839335;-0.5872576;-13;9;50;3829;-433;-304;8192;0.7170316;-0.6135734;-0.09833795;0.3157895;21;-1;21;2598;3284;256;32768;0.1689751;-0.8078747;0.5637119;0.03185596;14;15;38;3079;1491;1098;256;0.3753462;-0.5152354;-0.5193906;-0.5691055;-3;15;3;762;3914;-592;128;-0.07894737;0.2603878;0.632964;0.7247911;75;25;8;1006;2928;-3308;4;-0.2271468;-0.1246537;-0.718531;-0.6454294;1;5;-1;1838;3556;564;16;0.6429742;-0.5554016;0.4487534;0.2770083;1;-5;-1;574;3995;-867;2;0.6426592;-0.7556325;-0.1260388;0.01108033;-2;8;-2;664;3832;-612;8;0.2825485;-0.6421995;0.33518;0.6288089;0;-5;0;355;3259;2424;0.6299726;2.611713;1.041476;0.6359493;3.156379;1.011065;0.6412017;3.635026;0.9823139;0.7167499;4.352419;1.116865;0.4937881;4.705317;1.139178;0.1387105;4.592461;1.17554;-0.5072172;5.128529;0.783447;0.2297917;5.198115;1.374863;1.011271;4.650826;1.139177;1.282953;4.471966;1.175539;1.592087;3.676837;1.623291;0.6998042;3.362167;1.674298;0.3177142;2.569278;1.03637;0.09319045;1.296434;0.3505732;0;0;0;0.3177142;2.569278;1.03637;0.09319045;1.296434;0.3505732;0;0;0
1147912.0906;NotLabelled;NONE;16384;-0.4432133;-0.6108033;-0.6554657;0.02908587;5;17;3;2727;-2393;991;65536;0.6967613;0.3074792;-0.2770083;-0.5858725;-13;3;42;3131;-205;-566;8192;0.714229;-0.6149584;-0.101108;0.3185596;17;6;21;2528;3302;152;32768;0.1689751;-0.8080742;0.5637119;0.02631579;17;9;26;2755;1669;1048;256;0.3739612;-0.5152354;-0.5221606;-0.5674801;-1;11;11;1040;3958;-624;128;-0.08448754;0.2617728;0.6357341;0.7212344;-8;-31;4;-1332;3714;-1996;4;-0.2271468;-0.1246537;-0.718531;-0.6454294;1;4;0;1748;3556;636;16;0.6429742;-0.5554016;0.4487534;0.2770083;2;-7;-2;772;3923;-861;2;0.6426592;-0.7554358;-0.1274238;0.008310249;0;1;-3;650;3796;-578;8;0.2811634;-0.6414492;0.33518;0.6301939;-2;-3;-1;267;3241;2382;0.632427;2.612939;1.038534;0.6384001;3.157277;1.002723;0.643649;3.635616;0.9692268;0.7216045;4.353242;1.101127;0.4998109;4.706952;1.122236;0.1443793;4.595394;1.159146;-0.5012367;5.13252;0.767989;0.2407584;5.217313;1.351128;1.017112;4.65076;1.122235;1.28822;4.471144;1.159146;1.596392;3.683703;1.620926;0.6960679;3.390941;1.659567;0.320168;2.570455;1.033883;0.09436696;1.296194;0.3511453;0;0;0;0.320168;2.570455;1.033883;0.09436696;1.296194;0.3511453;0;0;0
1147933.5482;NotLabelled;NONE;16384;-0.4445983;-0.6080332;-0.6570384;0.03047091;8;11;2;2537;-2273;941;65536;0.698948;0.3088643;-0.2728532;-0.5844875;-8;-3;30;2887;-249;-708;8192;0.7136285;-0.6149584;-0.1052632;0.3185596;14;11;18;2474;3190;38;32768;0.1703601;-0.8079079;0.5637119;0.02216066;20;0;10;2373;1459;1064;256;0.3711911;-0.5152354;-0.5235457;-0.5680224;6;12;9;678;3470;-514;128;-0.08448754;0.2603878;0.6357341;0.7217355;-34;11;0;156;3816;-1340;4;-0.2271468;-0.1232687;-0.7187698;-0.6454294;0;0;0;1856;3526;636;16;0.6426026;-0.5540166;0.4501385;0.2783934;1;-16;-3;820;3975;-937;2;0.6426592;-0.7556821;-0.1260388;0.006925208;0;0;-3;654;3868;-504;8;0.2811634;-0.6414492;0.33518;0.6301939;-2;-6;-2;391;3235;2500;0.6347529;2.612981;1.03738;0.6407222;3.156959;0.9964606;0.6459674;3.634962;0.9584754;0.7280533;4.35261;1.08773;0.5082815;4.707647;1.107639;0.1522373;4.598246;1.145096;-0.4942408;5.134906;0.7547236;0.2521078;5.233374;1.330106;1.025255;4.648518;1.107638;1.295354;4.4675;1.145095;1.6017;3.683724;1.614266;0.6992492;3.396817;1.646734;0.3224935;2.570456;1.03316;0.09515686;1.296194;0.3509322;0;0;0;0.3224935;2.570456;1.03316;0.09515686;1.296194;0.3509322;0;0;0
1147954.0169;NotLabelled;NONE;16384;-0.4445983;-0.6080332;-0.6571012;0.02908587;7;-3;-5;2377;-2325;1137;65536;0.7005655;0.3102493;-0.2700831;-0.5831025;-2;-8;20;2925;-15;-720;8192;0.7118062;-0.6163435;-0.1094183;0.3185596;11;17;13;2442;3004;30;32768;0.1731302;-0.8073902;0.5637119;0.01939058;17;-1;-8;1983;1369;686;256;0.3698061;-0.5152354;-0.5235457;-0.5689251;11;22;4;604;3756;-372;128;-0.08448754;0.2617728;0.6315789;0.7248758;-33;-10;-1;-620;4150;122;4;-0.2271468;-0.1232687;-0.7187698;-0.6454294;-1;-1;0;1876;3476;610;16;0.6422219;-0.5526316;0.4515235;0.2797784;0;-13;-3;596;3991;-1013;2;0.6440443;-0.754502;-0.1260388;0.006925208;-1;0;-3;672;3916;-524;8;0.2797784;-0.6399657;0.3365651;0.6315789;-2;-11;-1;381;3207;2638;0.6381541;2.614113;1.034609;0.6441233;3.158087;0.9936491;0.6493685;3.636088;0.9556279;0.734445;4.35321;1.085856;0.5161619;4.709141;1.106206;0.1596558;4.601185;1.143462;-0.4868051;5.138898;0.7545128;0.2639807;5.245805;1.322569;1.032883;4.647842;1.106205;1.302213;4.465643;1.143461;1.610494;3.685134;1.616795;0.7071617;3.400598;1.645372;0.3258947;2.571587;1.030393;0.09608401;1.295954;0.3515663;0;0;0;0.3258947;2.571587;1.030393;0.09608401;1.295954;0.3515663;0;0;0
1147975.3707;NotLabelled;NONE;16384;-0.4432133;-0.6094183;-0.6568705;0.02631579;-4;-8;-13;2859;-2143;1301;65536;0.7061946;0.3102493;-0.267313;-0.5775623;-12;-31;8;3297;-403;228;8192;0.7119936;-0.6163435;-0.1121884;0.3171745;10;29;4;2268;2966;-152;32768;0.1772853;-0.8074198;0.5623268;0.02077562;18;13;-26;1659;1129;972;256;0.367036;-0.5138504;-0.5235457;-0.5719635;16;6;0;-58;3850;-638;128;-0.08587258;0.2617728;0.6315789;0.724713;-2;-20;6;-1296;3812;2658;4;-0.2271468;-0.1232687;-0.7187698;-0.6454294;-1;-2;0;1868;3458;576;16;0.642807;-0.5512465;0.4515235;0.2811634;1;-6;-2;332;3971;-1055;2;0.6440443;-0.754732;-0.1246537;0.006925208;0;-4;-1;704;3786;-554;8;0.2783934;-0.6392009;0.3365651;0.632964;-1;-9;-2;301;3157;2630;0.6385546;2.613823;1.035846;0.6445283;3.158212;1.00083;0.6497778;3.6366;0.9680329;0.735319;4.353369;1.099893;0.5173306;4.709455;1.12068;0.1606733;4.601746;1.157197;-0.4870387;5.133486;0.7621645;0.2650689;5.246954;1.327192;1.033995;4.647685;1.121292;1.303106;4.465161;1.158551;1.608635;3.69277;1.64675;0.70547;3.407122;1.66879;0.3262957;2.571346;1.031128;0.09584452;1.295712;0.3525184;0;0;0;0.3262957;2.571346;1.031128;0.09584452;1.295712;0.3525184;0;0;0
1147997.0647;NotLabelled;NONE;16384;-0.4418283;-0.6094183;-0.6578568;0.02493075;-7;0;-16;2977;-2339;1253;65536;0.7107774;0.3074792;-0.267313;-0.5734072;-19;-53;17;4607;-359;-196;8192;0.7133206;-0.6177285;-0.1191136;0.3088643;12;29;-10;1970;2778;-184;32768;0.1911357;-0.8049117;0.5609418;0.03047091;17;-36;-83;897;951;912;256;0.365651;-0.5138504;-0.5221606;-0.5741127;9;-17;0;-182;3892;-994;128;-0.08725762;0.2631579;0.6274238;0.7276492;-8;0;1;-648;3708;790;4;-0.2271468;-0.1246537;-0.718531;-0.6454294;-1;-8;2;1802;3544;500;16;0.642807;-0.5512465;0.4515235;0.2811634;0;-2;-2;628;3959;-1031;2;0.6440443;-0.754732;-0.1246537;0.006925208;2;-7;1;738;3746;-502;8;0.2770083;-0.6390718;0.3379501;0.632964;0;-10;-2;411;3115;2544;0.6430081;2.613983;1.033621;0.6489817;3.158352;0.9982923;0.6542308;3.636721;0.9652197;0.7394809;4.352983;1.099987;0.5213171;4.708863;1.122398;0.1647426;4.600813;1.158715;-0.488484;5.133038;0.7735376;0.2702152;5.255681;1.327731;1.038014;4.647368;1.122398;1.307248;4.464836;1.158715;1.615474;3.688329;1.63862;0.71495;3.394889;1.665756;0.3307492;2.571503;1.028929;0.094675;1.29587;0.3522559;0;0;0;0.3307492;2.571503;1.028929;0.094675;1.29587;0.3522559;0;0;0
1148017.6349;NotLabelled;NONE;16384;-0.4390582;-0.6108033;-0.6584267;0.02493075;-8;0;-17;2887;-2297;1197;65536;0.7169112;0.3047091;-0.265928;-0.567867;-25;-53;17;3511;-181;-744;8192;0.7133139;-0.6191136;-0.1191136;0.3060942;7;4;-15;1764;2876;98;32768;0.200831;-0.8001058;0.5637119;0.04155125;5;-43;-94;2151;587;2010;256;0.3711911;-0.5180055;-0.5166205;-0.571831;-12;-64;0;288;3358;-1438;128;-0.0900277;0.2645429;0.6274238;0.7268091;6;-23;0;-390;3732;-98;4;-0.2257618;-0.1260388;-0.7187258;-0.6454294;-2;-9;2;1734;3518;374;16;0.6433857;-0.5498615;0.4515235;0.2825485;0;-5;-3;606;3983;-979;2;0.6426592;-0.7561249;-0.1232687;0.008310249;1;-5;-1;870;3840;-514;8;0.2742382;-0.634349;0.3407202;0.6374202;-1;-20;-3;353;3135;2492;0.6444975;2.612561;1.03618;0.6504748;3.157264;1.006447;0.6557274;3.635947;0.978292;0.7397284;4.35165;1.116768;0.5210195;4.707104;1.140584;0.164539;4.598368;1.17576;-0.4919901;5.123407;0.7863607;0.2697726;5.247118;1.336097;1.037803;4.646343;1.141149;1.307236;4.464014;1.177011;1.61033;3.691313;1.666236;0.7203089;3.367337;1.692484;0.3322392;2.570132;1.031017;0.09501278;1.295871;0.3521649;0;0;0;0.3322392;2.570132;1.031017;0.09501278;1.295871;0.3521649;0;0;0
1148038.029;NotLabelled;NONE;16384;-0.4362881;-0.6121883;-0.6590324;0.0235457;-9;-15;-21;2945;-2245;1085;65536;0.7235143;0.300554;-0.2645429;-0.5623268;-23;-54;9;3059;-553;-848;8192;0.7119707;-0.6204986;-0.1163435;0.3074792;0;-40;-12;1916;3200;610;32768;0.2077562;-0.7974942;0.5637119;0.05540166;-20;-37;-97;3115;1351;2702;256;0.3767313;-0.5207756;-0.5138504;-0.5681761;-17;-33;2;386;3218;-1552;128;-0.09141274;0.265928;0.6274238;0.7261304;-1;-10;0;-628;3726;376;4;-0.2257618;-0.1260388;-0.7187258;-0.6454294;-1;-7;2;1734;3494;372;16;0.6427757;-0.5498615;0.4515235;0.2839335;0;-8;-3;488;3967;-911;2;0.6426592;-0.7561249;-0.1232687;0.008310249;0;-5;-1;884;3848;-462;8;0.2714681;-0.632964;0.3434903;0.6384952;-1;-17;-2;275;3171;2706;0.6253998;2.612668;1.041358;0.6313767;3.157338;1.011016;0.636629;3.63599;0.982327;0.7163579;4.351737;1.123085;0.4954993;4.705766;1.148218;0.1397155;4.59474;1.183292;-0.5139;5.121787;0.7917077;0.2424271;5.249604;1.347971;1.012645;4.648164;1.148218;1.283213;4.467369;1.183291;1.574151;3.687142;1.667933;0.6933544;3.33821;1.683153;0.3131414;2.570233;1.036245;0.08519501;1.296014;0.3541431;0;0;0;0.3131414;2.570233;1.036245;0.08519501;1.296014;0.3541431;0;0;0
1148059.0141;NotLabelled;NONE;16384;-0.432133;-0.6135734;-0.6605734;0.02077562;-9;-11;-24;3171;-2271;1089;65536;0.7300496;0.2950138;-0.2645429;-0.5567867;-21;-56;-8;1965;-635;-626;8192;0.7110472;-0.6204986;-0.1108033;0.3116343;-9;-49;2;2606;3566;1436;32768;0.2105263;-0.7966626;0.5623268;0.06925207;-45;11;-63;6155;1861;3244;256;0.3753462;-0.5193906;-0.5180055;-0.5665853;-20;29;6;1038;4306;918;128;-0.09279778;0.267313;0.6274238;0.7254458;-3;0;1;-946;3798;832;4;-0.2243767;-0.1274238;-0.7176694;-0.6468144;-1;-6;2;1746;3446;438;16;0.6439579;-0.5484765;0.4515235;0.2839335;1;0;-1;384;4009;-945;2;0.6426592;-0.7563494;-0.1218837;0.008310249;1;-6;-2;896;3964;-500;8;0.2700831;-0.6315789;0.3434903;0.6404511;0;-12;-1;159;3253;2522;0.609917;2.613451;1.042998;0.6158938;3.158105;1.012367;0.621146;3.636742;0.9834238;0.6983191;4.35315;1.122223;0.4761852;4.706445;1.146466;0.1208166;4.594224;1.181946;-0.5314053;5.117593;0.7831725;0.2217913;5.247792;1.343119;0.9935364;4.650717;1.146466;1.264768;4.471;1.181946;1.546417;3.68917;1.669482;0.6756084;3.315971;1.683724;0.2976586;2.571014;1.03791;0.07958487;1.296794;0.3525876;0;0;0;0.2976586;2.571014;1.03791;0.07958487;1.296794;0.3525876;0;0;0
1148080.2121;NotLabelled;NONE;16384;-0.4252077;-0.6149584;-0.6638526;0.01800554;-2;15;-22;4025;-2211;763;65536;0.7360541;0.2853186;-0.2700831;-0.5512465;-12;-23;-6;5995;-851;-678;8192;0.7080164;-0.6218836;-0.1066482;0.3171745;17;-47;9;3550;3708;-510;32768;0.2077562;-0.7996741;0.5581717;0.07617728;-42;16;-22;6721;3071;724;256;0.3767313;-0.5166205;-0.5207756;-0.5656586;-7;20;3;98;4454;-1146;128;-0.09418282;0.267313;0.6274238;0.7252674;-1;-2;3;-728;3828;954;4;-0.2243767;-0.1288089;-0.7174221;-0.6468144;0;-6;2;1760;3492;412;16;0.6427757;-0.5498615;0.4515235;0.2839335;0;6;0;512;3997;-861;2;0.6426592;-0.7563329;-0.1218837;0.009695291;1;-6;0;1004;4068;-540;8;0.2700831;-0.6301939;0.3448753;0.6410708;1;-10;-2;457;3175;2714;0.6082767;2.613318;1.044754;0.6142532;3.157955;1.01383;0.6195052;3.636576;0.9846293;0.700858;4.353419;1.118721;0.480757;4.708122;1.140826;0.1247816;4.598161;1.177283;-0.5361646;5.114603;0.7838792;0.225049;5.243636;1.333152;0.9977823;4.64945;1.140825;1.268013;4.468424;1.177282;1.554098;3.68532;1.660168;0.692068;3.293653;1.696061;0.2960182;2.570878;1.03969;0.07783347;1.296143;0.3553618;0;0;0;0.2960182;2.570878;1.03969;0.07783347;1.296143;0.3553618;0;0;0
1148101.0062;NotLabelled;NONE;16384;-0.4238227;-0.6121883;-0.6672897;0.01800554;2;32;-16;4013;-2561;941;65536;0.7381297;0.2839335;-0.2686981;-0.5498615;-8;-7;13;5619;-345;-828;8192;0.7059298;-0.6218836;-0.1080332;0.3213296;-3;21;13;2812;3500;294;32768;0.2063712;-0.8064439;0.5484765;0.07894737;0;21;-2;4497;2303;348;256;0.3753462;-0.5124654;-0.5249307;-0.5665177;-27;11;-6;486;4782;-544;128;-0.09556787;0.2686981;0.6246537;0.7269635;-13;-12;0;-634;4116;926;4;-0.2243767;-0.1288089;-0.7174221;-0.6468144;-1;-6;2;1800;3538;496;16;0.6427757;-0.5498615;0.4515235;0.2839335;2;2;0;676;3995;-871;2;0.6426592;-0.7563329;-0.1218837;0.009695291;3;-5;0;942;3972;-538;8;0.267313;-0.6288089;0.3462604;0.6428428;2;-19;-3;415;3277;2678;0.6161647;2.612595;1.042828;0.622141;3.157212;1.011566;0.6273928;3.635815;0.9820668;0.7082293;4.353777;1.110358;0.4878333;4.708452;1.129829;0.1319886;4.598471;1.167485;-0.5409132;5.10485;0.781334;0.2268476;5.220706;1.324398;1.00491;4.650237;1.129828;1.275334;4.469745;1.167485;1.561909;3.68706;1.650758;0.702577;3.291609;1.705128;0.3039061;2.570151;1.037794;0.08272412;1.296794;0.3518644;0;0;0;0.3039061;2.570151;1.037794;0.08272412;1.296794;0.3518644;0;0;0
1148122.0525;NotLabelled;NONE;16384;-0.4224377;-0.6080332;-0.6719122;0.01939058;0;28;-10;3707;-2533;959;65536;0.7385986;0.2853186;-0.265928;-0.5498615;-10;1;10;3959;-703;-550;8192;0.7073469;-0.6204986;-0.1108033;0.3199446;-4;18;11;2386;3578;586;32768;0.2091413;-0.8077429;0.5457063;0.07756232;14;20;0;4003;2475;258;256;0.3767313;-0.5124654;-0.5235457;-0.5668798;5;-4;-6;472;3612;-978;128;-0.09695291;0.2700831;0.6218836;0.7286398;-6;-5;3;-782;4142;890;4;-0.2229917;-0.1315789;-0.7173513;-0.6468144;-4;-10;2;1910;3684;414;16;0.6423712;-0.5484765;0.4529086;0.2853186;1;-10;0;504;4043;-913;2;0.6426592;-0.7565358;-0.1204986;0.01108033;3;-8;0;834;4030;-506;8;0.265928;-0.6274238;0.3476454;0.644022;2;-18;-2;309;3309;2536;0.6267782;2.61256;1.039963;0.6327566;3.157372;1.01229;0.6380104;3.636158;0.9859461;0.7194754;4.354893;1.109425;0.4993862;4.709879;1.126541;0.1434503;4.60046;1.16496;-0.5396621;5.100682;0.7888429;0.2358799;5.217875;1.320442;1.016413;4.651221;1.12689;1.286685;4.470753;1.165731;1.583973;3.69553;1.654529;0.7270029;3.298053;1.728021;0.31452;2.570151;1.034626;0.08632375;1.296794;0.3509985;0;0;0;0.31452;2.570151;1.034626;0.08632375;1.296794;0.3509985;0;0;0
1148142.0542;NotLabelled;NONE;16384;-0.4210526;-0.6066482;-0.6740301;0.01939058;-1;18;-6;3563;-2593;921;65536;0.7396628;0.2825485;-0.265928;-0.5498615;-14;-12;-12;2425;-939;-1108;8192;0.7089654;-0.6191136;-0.1121884;0.3185596;-8;9;7;2138;3698;432;32768;0.2105263;-0.8085784;0.5443213;0.07479224;24;13;8;4503;2155;64;256;0.3767313;-0.5124654;-0.5221606;-0.5681558;7;-4;-8;542;4136;-1158;128;-0.09833795;0.2700831;0.6218836;0.7284542;6;-2;4;-1000;4116;1132;4;-0.2216066;-0.1315789;-0.7177804;-0.6468144;-4;-12;1;1900;3496;374;16;0.6435512;-0.5470914;0.4529086;0.2853186;2;-5;1;464;3959;-953;2;0.6412742;-0.758124;-0.1177285;0.01246537;1;-8;-2;1052;4048;-396;8;0.2645429;-0.6260388;0.3504155;0.6444389;1;-9;0;355;3291;2622;0.6268759;2.610858;1.043682;0.6328561;3.15584;1.01958;0.6381118;3.634789;0.9963734;0.7172903;4.353692;1.120358;0.4960472;4.707941;1.137877;0.140495;4.597323;1.17642;-0.5404997;5.097109;0.7959082;0.235092;5.219378;1.326289;1.013264;4.650979;1.137876;1.284149;4.471369;1.17642;1.578342;3.694514;1.6645;0.7222845;3.294137;1.7327;0.3146181;2.568485;1.038045;0.08525164;1.296548;0.3521693;0;0;0;0.3146181;2.568485;1.038045;0.08525164;1.296548;0.3521693;0;0;0
1148163.066;NotLabelled;NONE;16384;-0.4210526;-0.6066482;-0.6739889;0.02077562;-1;3;-2;3365;-2415;777;65536;0.7392062;0.2783934;-0.2686981;-0.5512465;-15;-11;-44;1841;-999;-1156;8192;0.7111551;-0.6163435;-0.1135734;0.3185596;-17;16;3;2204;3668;434;32768;0.2132964;-0.808226;0.5443213;0.07063711;29;-5;22;5191;2075;648;256;0.3781163;-0.5138504;-0.5193906;-0.5685238;10;-15;-11;574;4092;-864;128;-0.09833795;0.2700831;0.6232687;0.7272695;6;4;5;-968;3940;1034;4;-0.2216066;-0.134349;-0.717267;-0.6468144;-4;-12;0;1988;3358;418;16;0.6425743;-0.5470914;0.4542936;0.2853186;1;-6;1;444;3987;-925;2;0.6412742;-0.7581;-0.1177285;0.01385042;0;-4;-2;1100;3998;-554;8;0.2631579;-0.6260388;0.3518005;0.6442513;2;-9;0;451;3259;2768;0.624558;2.611551;1.043981;0.6305381;3.156517;1.019525;0.6357934;3.63545;0.9960073;0.7132109;4.354179;1.122097;0.4911146;4.707845;1.14057;0.1358163;4.596265;1.17868;-0.5470094;5.093483;0.7980858;0.2310296;5.212446;1.325627;1.008466;4.652122;1.14057;1.279769;4.473051;1.17868;1.57619;3.696689;1.666196;0.7194654;3.296919;1.729385;0.3123002;2.569174;1.038374;0.08170497;1.295891;0.3554139;0;0;0;0.3123002;2.569174;1.038374;0.08170497;1.295891;0.3554139;0;0;0
1148184.1173;NotLabelled;NONE;16384;-0.4196676;-0.6080332;-0.6736045;0.02077562;0;-16;-3;3161;-2211;653;65536;0.7381973;0.2714681;-0.2756233;-0.5526316;-3;0;-69;2653;-573;-1952;8192;0.7135855;-0.6149584;-0.1135734;0.3157895;-18;13;-1;2030;3586;232;32768;0.2146814;-0.8064523;0.5470914;0.06509695;22;-11;23;3585;1667;1074;256;0.3795014;-0.5138504;-0.5166205;-0.5701226;11;-5;-10;426;3738;-878;128;-0.09972299;0.2700831;0.6232687;0.7270809;3;3;5;-958;3816;1202;4;-0.2202216;-0.134349;-0.7176934;-0.6468144;-3;-9;-2;2170;3292;472;16;0.6421546;-0.5457063;0.4556787;0.2867036;2;-13;1;504;4015;-1019;2;0.6412742;-0.7581;-0.1177285;0.01385042;0;-1;-1;1004;3986;-654;8;0.2631579;-0.6246537;0.3531856;0.6448377;4;-3;0;365;3279;2662;0.6237041;2.608427;1.05078;0.6296833;3.153302;1.024387;0.6349376;3.632149;0.9991677;0.7099551;4.350658;1.127929;0.4866957;4.703526;1.147614;0.1317499;4.590646;1.185173;-0.5486186;5.089593;0.8024464;0.2283009;5.198898;1.333714;1.004227;4.649495;1.147613;1.276099;4.471173;1.185173;1.575898;3.696822;1.673819;0.7181867;3.297236;1.723311;0.3114461;2.566031;1.045335;0.0834327;1.295515;0.3563792;0;0;0;0.3114461;2.566031;1.045335;0.0834327;1.295515;0.3563792;0;0;0
1148205.3633;NotLabelled;NONE;16384;-0.4196676;-0.6163435;-0.6661891;0.01385042;6;-59;-5;2995;-2285;759;65536;0.7273658;0.2645429;-0.2963989;-0.5595568;36;27;-71;4713;175;-2880;8192;0.7167908;-0.6121883;-0.1121884;0.3144044;-17;4;-4;2000;3238;138;32768;0.2146814;-0.8048915;0.5498615;0.06094183;16;-13;23;3521;1379;1416;256;0.3795014;-0.5152354;-0.5138504;-0.5713746;13;-8;-12;194;3760;-970;128;-0.09972299;0.2700831;0.6232687;0.7270809;2;1;4;-892;3882;1154;4;-0.2188366;-0.1357341;-0.7178565;-0.6468144;-2;-4;-3;2304;3324;408;16;0.6417258;-0.5443213;0.4570637;0.2880886;2;-15;1;396;3919;-1071;2;0.6412742;-0.7581;-0.1177285;0.01385042;0;2;0;936;3950;-610;8;0.2631579;-0.6246537;0.3531856;0.6448377;4;-3;0;417;3297;2536;0.6221173;2.609532;1.049552;0.6280961;3.154391;1.022803;0.6333505;3.633221;0.9972696;0.7042506;4.351676;1.128642;0.478989;4.7032;1.149511;0.1246749;4.588177;1.186531;-0.55667;5.086631;0.8049004;0.2196109;5.177759;1.340513;0.9968179;4.652102;1.149511;1.269683;4.475189;1.186531;1.57107;3.69922;1.671622;0.7108713;3.303607;1.708169;0.3098591;2.567132;1.044138;0.08212684;1.295266;0.3575873;0;0;0;0.3098591;2.567132;1.044138;0.08212684;1.295266;0.3575873;0;0;0
1148226.0663;NotLabelled;NONE;16384;-0.4196676;-0.6218836;-0.6610944;0.009695291;11;-56;-4;3595;-2187;947;65536;0.7206783;0.265928;-0.3060942;-0.5623268;47;20;-45;6103;279;-2038;8192;0.7190033;-0.6108033;-0.1094183;0.3130194;-9;-5;-7;2224;3022;-24;32768;0.2132964;-0.8029025;0.5540166;0.05401662;0;-12;10;2601;985;2384;256;0.3808864;-0.5152354;-0.5124654;-0.5716968;3;2;-10;256;3838;-634;128;-0.101108;0.2700831;0.6218836;0.7280748;-16;-33;1;-714;2314;844;4;-0.2202216;-0.134349;-0.7176934;-0.6468144;0;9;-3;2236;3406;364;16;0.6408404;-0.5415512;0.4598338;0.2908587;3;-7;1;274;3873;-1163;2;0.6412742;-0.7581;-0.1177285;0.01385042;0;7;0;666;3926;-526;8;0.2631579;-0.6232687;0.3545706;0.6454175;3;-4;0;445;3287;2354;0.6202593;2.609249;1.050972;0.6262381;3.154107;1.024223;0.6314925;3.632937;0.9986894;0.7006049;4.35079;1.13424;0.4744935;4.701651;1.157007;0.1204345;4.585572;1.193161;-0.5605577;5.081665;0.8078426;0.2024013;5.132028;1.367444;0.9924426;4.651787;1.157006;1.265708;4.475314;1.193161;1.571901;3.698197;1.673379;0.7092295;3.307205;1.700033;0.3080012;2.566849;1.045558;0.08058359;1.295016;0.3588402;0;0;0;0.3080012;2.566849;1.045558;0.08058359;1.295016;0.3588402;0;0;0
1148246.0185;NotLabelled;NONE;16384;-0.4210526;-0.6260388;-0.6563227;0.005540166;8;-32;-1;3953;-2111;1315;65536;0.7156592;0.2700831;-0.3116343;-0.5637119;42;16;-8;6587;193;-900;8192;0.7186084;-0.6108033;-0.1080332;0.3144044;-4;-7;-6;2408;3052;-38;32768;0.2119114;-0.8023122;0.5554016;0.05401662;-6;-5;3;2413;1283;1706;256;0.3808864;-0.5138504;-0.5096953;-0.5754077;2;4;-6;212;3856;-956;128;-0.09972299;0.2714681;0.6149584;0.733612;31;-14;8;-470;3234;228;4;-0.2216066;-0.132964;-0.7175251;-0.6468144;1;11;-3;2134;3452;426;16;0.6420082;-0.5401662;0.4598338;0.2908587;2;-5;2;430;3935;-1135;2;0.6426592;-0.7567551;-0.1191136;0.01108033;-1;8;-1;476;3868;-600;8;0.2631579;-0.6232687;0.3545706;0.6454175;0;0;0;459;3323;2344;0.6153167;2.608768;1.054278;0.6212964;3.153701;1.029102;0.6265515;3.632603;1.004952;0.6933076;4.350584;1.141003;0.4660486;4.700687;1.163998;0.1123688;4.583427;1.200049;-0.5681568;5.078614;0.8127468;0.1835261;5.115629;1.38842;0.984158;4.652518;1.163997;1.257997;4.476915;1.200048;1.566578;3.697112;1.674348;0.6992815;3.315826;1.688747;0.3030588;2.566384;1.048731;0.07887504;1.294517;0.3610138;0;0;0;0.3030588;2.566384;1.048731;0.07887504;1.294517;0.3610138;0;0;0
1148266.0276;NotLabelled;NONE;16384;-0.4210526;-0.6260388;-0.6563329;0.004155125;4;-1;2;3897;-2139;1321;65536;0.7134215;0.2756233;-0.3144044;-0.5623268;25;8;12;5035;-459;-96;8192;0.7188152;-0.6108033;-0.1066482;0.3144044;-3;-8;-4;2684;3264;10;32768;0.2105263;-0.8036333;0.5540166;0.05401662;-10;-3;1;3541;1307;1710;256;0.3808864;-0.5124654;-0.5110803;-0.5754144;-4;1;-3;366;3996;-676;128;-0.09695291;0.2686981;0.6149584;0.7350018;-11;26;4;-638;4026;390;4;-0.2229917;-0.1315789;-0.7173513;-0.6468144;2;12;-3;1988;3522;526;16;0.6410139;-0.5401662;0.4612188;0.2908587;2;-4;1;532;3989;-1125;2;0.6426592;-0.7567741;-0.1191136;0.009695291;0;4;-2;402;3906;-564;8;0.2631579;-0.6232687;0.3559557;0.6446547;-2;0;0;447;3297;2326;0.6130107;2.608001;1.057996;0.6189945;3.153305;1.042855;0.6242535;3.632571;1.027524;0.685828;4.350229;1.167659;0.4560699;4.69857;1.192509;0.1032168;4.578593;1.227713;-0.5773138;5.073485;0.8400419;0.1672252;5.106885;1.425143;0.9745092;4.654092;1.192509;1.249575;4.480242;1.227712;1.560531;3.700363;1.700332;0.6923345;3.321281;1.71818;0.300754;2.565727;1.051607;0.07637858;1.293825;0.3640161;0;0;0;0.300754;2.565727;1.051607;0.07637858;1.293825;0.3640161;0;0;0
1148287.3152;NotLabelled;NONE;16384;-0.4224377;-0.6260388;-0.6554423;0.004155125;-2;6;4;3695;-2041;1183;65536;0.7124124;0.2797784;-0.3130194;-0.5623268;7;-3;13;4251;-671;-38;8192;0.7188152;-0.6108033;-0.1066482;0.3144044;-2;0;-1;2624;3368;198;32768;0.2077562;-0.8042597;0.5540166;0.05540166;-11;-1;1;3639;1595;1748;256;0.3822715;-0.5124654;-0.5110803;-0.5744951;-15;-5;1;442;4210;-528;128;-0.09833795;0.267313;0.6191136;0.7318277;25;6;7;-490;3994;750;4;-0.2243767;-0.1288089;-0.7174221;-0.6468144;2;11;-3;1866;3500;556;16;0.6411815;-0.5387812;0.4626039;0.2908587;1;-4;1;532;3933;-1157;2;0.6426592;-0.7567906;-0.1191136;0.008310249;0;1;-2;560;3954;-506;8;0.2631579;-0.6232687;0.3545706;0.6454175;-2;2;2;347;3311;2400;0.6179122;2.607668;1.05818;0.6238961;3.152989;1.04367;0.6291555;3.632272;1.028893;0.690766;4.350331;1.166946;0.4610148;4.698743;1.19085;0.1081701;4.578869;1.226485;-0.5733057;5.072077;0.8383293;0.1654804;5.109687;1.430425;0.9794541;4.654263;1.19085;1.254528;4.480514;1.226486;1.566466;3.699551;1.696663;0.6976327;3.32219;1.719344;0.3056556;2.565402;1.051738;0.08102453;1.293465;0.3642963;0;0;0;0.3056556;2.565402;1.051738;0.08102453;1.293465;0.3642963;0;0;0
1148308.0387;NotLabelled;NONE;16384;-0.4210526;-0.6246537;-0.6576411;0.005540166;-4;-3;2;3347;-2031;933;65536;0.7113749;0.2839335;-0.3116343;-0.5623268;0;29;0;3267;-383;-748;8192;0.7184122;-0.6108033;-0.1052632;0.3157895;0;-6;0;2328;3302;308;32768;0.2063712;-0.8054717;0.5526316;0.0567867;-18;1;0;3297;1627;2128;256;0.3850415;-0.5124654;-0.5124654;-0.5714031;-17;-11;4;100;3888;-702;128;-0.09695291;0.2631579;0.6204986;0.7323452;8;25;4;-576;3606;784;4;-0.2243767;-0.1274238;-0.7176694;-0.6468144;1;6;-1;1796;3464;632;16;0.6411815;-0.5387812;0.4626039;0.2908587;1;10;1;652;3959;-1169;2;0.6426592;-0.7567906;-0.1191136;0.008310249;0;-2;0;646;3866;-570;8;0.2631579;-0.6232687;0.3545706;0.6454175;-2;5;2;467;3231;2520;0.6144136;2.608095;1.05988;0.6203954;3.153217;1.0392;0.6256525;3.632302;1.019001;0.6867602;4.350713;1.155435;0.4567214;4.69897;1.17882;0.1040208;4.578858;1.215075;-0.5743924;5.078053;0.8292148;0.1612824;5.122223;1.424722;0.9752;4.654954;1.178385;1.250465;4.48153;1.214116;1.56106;3.695291;1.676323;0.6912564;3.320447;1.703191;0.3021562;2.565758;1.053956;0.08064707;1.292402;0.3681317;0;0;0;0.3021562;2.565758;1.053956;0.08064707;1.292402;0.3681317;0;0;0
1148329.183;NotLabelled;NONE;16384;-0.4210526;-0.6260388;-0.6563095;0.006925208;-5;4;5;3613;-1865;1013;65536;0.7075136;0.2853186;-0.3116343;-0.566482;0;32;-4;3915;-459;-478;8192;0.7162085;-0.6121883;-0.1038781;0.3185596;3;-7;2;2606;3306;116;32768;0.200831;-0.8093989;0.5484765;0.06094183;-24;13;-6;3097;1627;1374;256;0.3878116;-0.5124654;-0.5124654;-0.5695267;-14;-11;5;278;3728;-526;128;-0.09556787;0.2617728;0.6204986;0.7330233;-12;0;0;-756;3666;1004;4;-0.2257618;-0.1274238;-0.7172349;-0.6468144;-2;-1;0;1918;3632;638;16;0.6412668;-0.5401662;0.4626039;0.2880886;-2;0;0;762;4033;-1065;2;0.6426592;-0.7570073;-0.1177285;0.008310249;2;-2;0;832;3814;-694;8;0.2631579;-0.6232687;0.3545706;0.6454175;-1;0;1;573;3143;2638;0.6085265;2.609492;1.058862;0.6145076;3.154547;1.03648;0.619764;3.633566;1.014786;0.6812854;4.352903;1.146059;0.4514566;4.701461;1.166883;0.09867394;4.581831;1.203924;-0.5800152;5.075654;0.8116879;0.1501682;5.126351;1.413401;0.9699082;4.657124;1.166883;1.245059;4.483791;1.203923;1.554284;3.702751;1.675761;0.6843324;3.32824;1.702448;0.2962689;2.567137;1.05308;0.07874475;1.292402;0.3685419;0;0;0;0.2962689;2.567137;1.05308;0.07874475;1.292402;0.3685419;0;0;0
1148349.0092;NotLabelled;NONE;16384;-0.4210526;-0.6246537;-0.6576118;0.008310249;-5;14;4;3497;-2033;1013;65536;0.7047712;0.2880886;-0.3102493;-0.5692521;-2;24;-5;4279;-531;-258;8192;0.7160062;-0.6121883;-0.1052632;0.3185596;1;5;0;2544;3256;376;32768;0.199446;-0.811398;0.5457063;0.06371191;-23;12;-12;3025;1637;1244;256;0.3891967;-0.5152354;-0.5124654;-0.5660722;4;-1;4;266;3746;-750;128;-0.09556787;0.2631579;0.6177285;0.7348647;-4;0;0;-722;3788;1290;4;-0.2257618;-0.1274238;-0.7184815;-0.6454294;-2;-2;0;1878;3552;592;16;0.6406428;-0.5401662;0.4626039;0.2894737;-2;-6;0;666;3993;-1017;2;0.6412742;-0.7579481;-0.1191136;0.009695291;1;-1;1;804;3882;-662;8;0.2617728;-0.6232687;0.3559557;0.6452183;-1;-6;0;383;3219;2534;0.607054;2.607214;1.065381;0.6130352;3.152281;1.043306;0.6182917;3.631313;1.021881;0.6786261;4.351322;1.149982;0.4482067;4.699573;1.169368;0.09564356;4.579501;1.207063;-0.5809292;5.076077;0.8146476;0.1453851;5.124101;1.421243;0.9667336;4.656126;1.169367;1.242195;4.483429;1.207063;1.54713;3.702809;1.682377;0.6762478;3.331389;1.719789;0.2947965;2.564862;1.059574;0.08161965;1.291467;0.3711859;0;0;0;0.2947965;2.564862;1.059574;0.08161965;1.291467;0.3711859;0;0;0
1148370.0281;NotLabelled;NONE;16384;-0.4196676;-0.6232687;-0.6597888;0.009695291;-3;26;7;3653;-2215;885;65536;0.7003012;0.2894737;-0.3088643;-0.5747922;-9;30;-3;4019;-535;-34;8192;0.7175972;-0.6108033;-0.1066482;0.3171745;0;11;0;2436;3126;382;32768;0.1980609;-0.8123301;0.5443213;0.06786703;-23;3;-15;3361;1747;1162;256;0.3878116;-0.5152354;-0.5124654;-0.5670219;5;-4;7;230;3874;-728;128;-0.09695291;0.2631579;0.6177285;0.7346833;3;0;0;-640;3938;466;4;-0.2243767;-0.1274238;-0.7189153;-0.6454294;-2;-1;0;1766;3442;484;16;0.6406428;-0.5401662;0.4626039;0.2894737;-2;-3;0;440;3999;-1039;2;0.6412742;-0.7579481;-0.1191136;0.009695291;1;-2;0;738;3926;-534;8;0.2617728;-0.6232687;0.3559557;0.6452183;-1;-1;0;371;3317;2440;0.6033893;2.607436;1.06469;0.609372;3.152647;1.046513;0.61463;3.63182;1.028514;0.6778426;4.351855;1.155073;0.4488094;4.701057;1.173759;0.0957801;4.582464;1.211773;-0.577511;5.079662;0.8145302;0.1427795;5.129762;1.428101;0.9671599;4.655554;1.173759;1.241941;4.481847;1.211771;1.542832;3.702318;1.691433;0.6724542;3.329723;1.728881;0.2911322;2.565128;1.058556;0.07820702;1.292284;0.3690693;0;0;0;0.2911322;2.565128;1.058556;0.07820702;1.292284;0.3690693;0;0;0
1148391.116;NotLabelled;NONE;16384;-0.4210526;-0.6204986;-0.6614687;0.01246537;-1;33;7;3537;-2165;731;65536;0.6969058;0.2908587;-0.3074792;-0.5789474;-9;36;-5;3941;-387;-532;8192;0.7173901;-0.6108033;-0.1080332;0.3171745;-3;5;2;2302;3342;508;32768;0.1966759;-0.8132353;0.5429363;0.07202215;-22;0;-15;3537;1845;1170;256;0.3878116;-0.5180055;-0.5110803;-0.5657467;0;-14;9;252;4036;-684;128;-0.09695291;0.2631579;0.6177285;0.7346833;2;0;0;-694;3842;606;4;-0.2243767;-0.1274238;-0.7189153;-0.6454294;-2;-2;1;1710;3360;502;16;0.6400151;-0.5401662;0.4626039;0.2908587;-2;-1;0;342;3897;-995;2;0.6412742;-0.7581645;-0.1177285;0.009695291;0;-3;0;756;3966;-524;8;0.2617728;-0.6232687;0.3559557;0.6452183;-2;2;1;357;3267;2490;0.6070755;2.608776;1.061119;0.6130581;3.153975;1.042592;0.6183161;3.633136;1.024284;0.6821046;4.352838;1.152439;0.4533593;4.70219;1.171849;0.1002236;4.583808;1.209533;-0.57574;5.080051;0.8156487;0.1460193;5.1278;1.427678;0.9716715;4.656254;1.171848;1.2463;4.482234;1.209532;1.550834;3.703291;1.687844;0.6819632;3.328356;1.73555;0.2948184;2.566463;1.055014;0.07902022;1.292284;0.3688961;0;0;0;0.2948184;2.566463;1.055014;0.07902022;1.292284;0.3688961;0;0;0
1148411.9992;NotLabelled;NONE;16384;-0.4224377;-0.6149584;-0.6656188;0.01800554;1;20;14;3521;-2197;843;65536;0.6929002;0.2894737;-0.3047091;-0.5858725;-10;6;-13;4437;-427;-204;8192;0.7191768;-0.6094183;-0.1080332;0.3157895;-5;2;2;2354;3378;538;32768;0.1952908;-0.812264;0.5443213;0.07617728;-22;-6;-16;3595;2019;1114;256;0.3891967;-0.5193906;-0.5110803;-0.5635213;-5;-22;9;358;3950;-628;128;-0.09833795;0.2645429;0.6177285;0.7340015;-1;-1;-1;-750;3856;836;4;-0.2243767;-0.1274238;-0.7189153;-0.6454294;-1;-2;0;1724;3404;462;16;0.6400151;-0.5401662;0.4626039;0.2908587;-1;1;0;474;3863;-943;2;0.6412742;-0.7581645;-0.1177285;0.009695291;0;-2;0;820;3914;-564;8;0.2617728;-0.6232687;0.3545706;0.6459805;-2;1;1;423;3209;2496;0.6005035;2.609589;1.06005;0.6064861;3.154788;1.041523;0.611744;3.633949;1.023215;0.6772274;4.353117;1.153487;0.449317;4.70296;1.173857;0.09588806;4.585318;1.211104;-0.5755439;5.084421;0.8131045;0.1427487;5.131226;1.429271;0.9675175;4.655779;1.173856;1.241717;4.48099;1.211104;1.543233;3.70314;1.693089;0.6755481;3.325903;1.744103;0.2882462;2.567276;1.053945;0.0764258;1.293097;0.3665889;0;0;0;0.2882462;2.567276;1.053945;0.0764258;1.293097;0.3665889;0;0;0
1148433.0417;NotLabelled;NONE;16384;-0.4238227;-0.6121883;-0.6672092;0.02077562;1;33;16;3665;-2257;869;65536;0.6923047;0.2880886;-0.3047091;-0.5872576;-15;-4;-14;4157;-325;-8;8192;0.7215149;-0.6066482;-0.1080332;0.3157895;-13;0;2;2380;3332;448;32768;0.1939058;-0.8089721;0.5484765;0.08448754;-19;-31;-16;3713;1973;952;256;0.3919668;-0.5221606;-0.5096953;-0.5602866;-4;-25;9;360;3908;-804;128;-0.09833795;0.265928;0.6177285;0.7335008;0;-4;-2;-780;3878;836;4;-0.2243767;-0.1274238;-0.7189153;-0.6454294;0;-2;0;1744;3508;464;16;0.6400151;-0.5401662;0.4626039;0.2908587;0;-3;0;528;3951;-905;2;0.6412742;-0.7581645;-0.1177285;0.009695291;0;-2;0;816;3834;-658;8;0.2603878;-0.6232687;0.3545706;0.64654;-2;0;0;421;3259;2460;0.5951356;2.609592;1.061478;0.601118;3.154781;1.042638;0.6063759;3.633931;1.024056;0.6730269;4.353275;1.15276;0.445676;4.703523;1.172419;0.0920682;4.586522;1.20999;-0.5746765;5.089804;0.8093797;0.1445636;5.131622;1.4248;0.9638009;4.655519;1.172418;1.237731;4.480376;1.20999;1.539647;3.702032;1.690928;0.6729858;3.322815;1.744588;0.2828784;2.567276;1.055399;0.07455908;1.293097;0.3669732;0;0;0;0.2828784;2.567276;1.055399;0.07455908;1.293097;0.3669732;0;0;0
1148453.444;NotLabelled;NONE;16384;-0.4252077;-0.6080332;-0.6699794;0.02493075;3;38;17;3369;-2309;819;65536;0.6916643;0.2853186;-0.3060942;-0.5886427;-13;-1;-16;3961;-203;-422;8192;0.7222763;-0.6052631;-0.1066482;0.3171745;-14;0;2;2424;3248;324;32768;0.1925208;-0.8058717;0.5526316;0.0900277;-16;-43;-14;3671;1919;738;256;0.3933518;-0.5249307;-0.5083103;-0.557981;-10;-31;12;280;3930;-674;128;-0.09972299;0.267313;0.6177285;0.73281;1;-4;-2;-678;3872;956;4;-0.2243767;-0.1274238;-0.7189153;-0.6454294;0;0;0;1766;3536;504;16;0.6393839;-0.5401662;0.4626039;0.2922437;1;-2;0;472;3981;-891;2;0.6398892;-0.7595283;-0.1163435;0.01108033;2;-5;-1;682;3948;-562;8;0.2603878;-0.6246537;0.3545706;0.645202;-5;1;1;379;3259;2652;0.5842944;2.609591;1.064327;0.5902768;3.154782;1.04553;0.5955348;3.633934;1.026985;0.66278;4.353417;1.154594;0.4357128;4.703876;1.173754;0.08201624;4.587216;1.211549;-0.5740315;5.093343;0.7971025;0.1401905;5.132218;1.418531;0.9537992;4.655456;1.173758;1.227593;4.480151;1.211556;1.525869;3.702926;1.69656;0.6619974;3.317812;1.753135;0.2720372;2.567276;1.058245;0.07079069;1.293097;0.3677188;0;0;0;0.2720372;2.567276;1.058245;0.07079069;1.293097;0.3677188;0;0;0
1148474.071;NotLabelled;NONE;16384;-0.4265928;-0.6038781;-0.6727425;0.02770083;4;33;17;3245;-2341;939;65536;0.6921869;0.2825485;-0.3074792;-0.5886427;-14;-11;-18;4317;-77;-704;8192;0.7245886;-0.602493;-0.1066482;0.3171745;-12;0;3;2462;3386;238;32768;0.1925208;-0.8017285;0.5581717;0.09279778;-12;-42;-11;3705;1773;812;256;0.3961219;-0.5290859;-0.5083103;-0.5520655;-8;-19;18;270;3848;-590;128;-0.101108;0.2700831;0.6177285;0.7316036;3;-4;-3;-734;3914;902;4;-0.2243767;-0.1274238;-0.7176694;-0.6468144;0;-1;0;1774;3530;548;16;0.6383795;-0.5401662;0.4639889;0.2922437;1;-1;1;532;3971;-975;2;0.6398892;-0.7595283;-0.1163435;0.01108033;1;-6;0;864;4034;-558;8;0.2603878;-0.6246537;0.3531856;0.6459612;-4;8;1;361;3319;2720;0.5753558;2.610403;1.063687;0.5813381;3.155582;1.044573;0.5865959;3.634723;1.025751;0.6550125;4.354009;1.153853;0.4285189;4.704825;1.173239;0.07462944;4.58872;1.210934;-0.5797167;5.098436;0.7981993;0.1307369;5.130987;1.424293;0.9465251;4.655558;1.173239;1.220029;4.479778;1.210934;1.522985;3.70299;1.693732;0.6606005;3.314663;1.751031;0.2630986;2.568083;1.05763;0.06742954;1.293904;0.3655041;0;0;0;0.2630986;2.568083;1.05763;0.06742954;1.293904;0.3655041;0;0;0
1148494.3371;NotLabelled;NONE;16384;-0.4293629;-0.601108;-0.673277;0.03185596;8;32;17;3263;-2349;1067;65536;0.6932531;0.2783934;-0.3088643;-0.5886427;-12;-21;-17;4285;-49;-914;8192;0.725738;-0.601108;-0.1066482;0.3171745;-12;0;3;2502;3414;332;32768;0.1911357;-0.7976817;0.5637119;0.09695291;-10;-38;-12;3443;1767;854;256;0.3975069;-0.5318559;-0.5083103;-0.5483961;-10;-15;16;476;4210;-692;128;-0.1024931;0.2714681;0.6177285;0.7308978;3;-6;-3;-828;3904;998;4;-0.2229917;-0.1274238;-0.718101;-0.6468144;0;-4;-1;1812;3410;618;16;0.6383795;-0.5401662;0.4639889;0.2922437;2;-3;1;574;4009;-1039;2;0.6398892;-0.7597392;-0.1149584;0.01108033;1;-7;1;868;4112;-586;8;0.2603878;-0.6260388;0.3518005;0.6453758;-3;14;2;315;3239;2692;0.5596697;2.61059;1.068102;0.565652;3.155759;1.048711;0.5709096;3.634891;1.029645;0.6435865;4.354313;1.154595;0.4191562;4.706529;1.172552;0.06461069;4.59266;1.210896;-0.5819103;5.104228;0.7882403;0.1214294;5.131882;1.422547;0.9368654;4.654233;1.172552;1.209354;4.477022;1.210896;1.512136;3.70138;1.695642;0.6502097;3.310689;1.742867;0.2474124;2.568267;1.062069;0.06615607;1.293532;0.367047;0;0;0;0.2474124;2.568267;1.062069;0.06615607;1.293532;0.367047;0;0;0
1148515.1953;NotLabelled;NONE;16384;-0.432133;-0.5969529;-0.6750625;0.03462604;6;30;18;3255;-2377;1195;65536;0.6954619;0.2742382;-0.3102493;-0.5872576;-12;-20;-17;4199;-19;-770;8192;0.7262771;-0.599723;-0.1066482;0.3185596;-12;-1;4;2388;3298;424;32768;0.1911357;-0.7953745;0.566482;0.09972299;-9;-26;-11;3437;1767;1154;256;0.3975069;-0.533241;-0.5096953;-0.5457591;-7;-13;13;270;4138;-916;128;-0.1038781;0.2742382;0.6177285;0.7296672;4;-6;-4;-884;4000;926;4;-0.2229917;-0.1274238;-0.718101;-0.6468144;0;-7;-2;1916;3422;584;16;0.6395488;-0.5387812;0.4639889;0.2922437;3;0;1;334;3975;-1119;2;0.6398892;-0.7597177;-0.1149584;0.01246537;1;-8;3;852;4038;-634;8;0.2617728;-0.6260388;0.3504155;0.645569;-2;9;1;443;3213;2604;0.5525185;2.611927;1.067227;0.5585006;3.157085;1.04751;0.5637582;3.636205;1.028158;0.6395032;4.355581;1.151541;0.4165675;4.708781;1.168787;0.06155249;4.596494;1.207455;-0.5766224;5.114165;0.779579;0.1240576;5.135387;1.417069;0.9340512;4.654296;1.168787;1.205797;4.476019;1.207454;1.507743;3.700968;1.693663;0.6465436;3.308433;1.738815;0.2402612;2.569601;1.061221;0.06317091;1.293533;0.3675727;0;0;0;0.2402612;2.569601;1.061221;0.06317091;1.293533;0.3675727;0;0;0
1148535.1467;NotLabelled;NONE;16384;-0.434903;-0.5900277;-0.6789699;0.04155125;3;36;18;3115;-2497;1153;65536;0.701977;0.2645429;-0.3144044;-0.5817174;-17;-40;-10;4013;5;-748;8192;0.7284727;-0.5955678;-0.1066482;0.3213296;-12;7;9;2910;3068;278;32768;0.1911357;-0.7916818;0.5706371;0.1052632;-2;-8;-8;3365;1931;698;256;0.3975069;-0.534626;-0.5110803;-0.5431024;-8;-4;16;222;3962;-854;128;-0.1038781;0.2756233;0.6177285;0.7291451;3;-6;-5;-872;3942;944;4;-0.2216066;-0.1274238;-0.7185296;-0.6468144;0;-7;-3;1974;3358;510;16;0.6395488;-0.5387812;0.4639889;0.2922437;3;9;1;212;3867;-1129;2;0.6398892;-0.7599021;-0.1135734;0.01385042;0;-7;4;774;3986;-660;8;0.2617728;-0.6274238;0.3490305;0.6449745;-2;11;2;409;3211;2510;0.5457698;2.611246;1.070889;0.551752;3.156393;1.050886;0.5570093;3.635503;1.031283;0.6364015;4.354829;1.152647;0.4152443;4.709188;1.168991;0.05968509;4.598789;1.208091;-0.5715499;5.120011;0.7742727;0.1297455;5.136189;1.411234;0.9324484;4.652112;1.168963;1.203311;4.472582;1.208031;1.505774;3.698871;1.696049;0.6457928;3.303689;1.741337;0.2335126;2.568916;1.064907;0.05841488;1.292849;0.370753;0;0;0;0.2335126;2.568916;1.064907;0.05841488;1.292849;0.370753;0;0;0
1148556.1618;NotLabelled;NONE;16384;-0.4376731;-0.5858725;-0.680611;0.04432133;5;23;17;2831;-2463;1089;65536;0.7051916;0.2603878;-0.3157895;-0.5789474;-10;-25;-14;3437;95;-1556;8192;0.7291925;-0.5941828;-0.1094183;0.3213296;-12;20;9;2640;3124;324;32768;0.1925208;-0.7903455;0.5720221;0.1052632;6;-5;-4;3927;1973;596;256;0.3961219;-0.534626;-0.5124654;-0.5428092;-1;4;15;248;3794;-722;128;-0.1052632;0.2770083;0.6177285;0.7284213;5;-7;-7;-860;3842;1048;4;-0.2202216;-0.1288089;-0.7187085;-0.6468144;1;0;-3;2020;3514;530;16;0.6412668;-0.5401662;0.4626039;0.2880886;3;10;1;784;3971;-1109;2;0.6398892;-0.7598755;-0.1135734;0.01523546;-1;-6;2;796;3926;-668;8;0.2631579;-0.6288089;0.3476454;0.643809;-2;16;3;335;3201;2464;0.5440834;2.612573;1.068764;0.5500655;3.157722;1.048806;0.5553229;3.636833;1.02924;0.6383691;4.356085;1.148589;0.4190039;4.711596;1.164006;0.06290368;4.603099;1.203502;-0.5628459;5.130533;0.7692455;0.1410176;5.135876;1.403551;0.9359138;4.651916;1.164006;1.20588;4.471133;1.203503;1.517936;3.701523;1.691966;0.6606539;3.300901;1.740513;0.2318261;2.570244;1.062779;0.05730817;1.292848;0.3709253;0;0;0;0.2318261;2.570244;1.062779;0.05730817;1.292848;0.3709253;0;0;0
1148577.3656;NotLabelled;NONE;16384;-0.4404432;-0.5844875;-0.6798283;0.04709141;4;3;16;2757;-2405;1191;65536;0.7072289;0.2576177;-0.3185596;-0.5761772;-2;-30;-13;4383;225;-1770;8192;0.7316285;-0.5914127;-0.1121884;0.3199446;-12;20;6;2400;3356;314;32768;0.1939058;-0.7890021;0.5734072;0.1052632;12;-12;-1;3677;1781;646;256;0.3905817;-0.536011;-0.5152354;-0.5428357;4;4;15;668;4080;-514;128;-0.1052632;0.2811634;0.6191136;0.7256481;8;-3;-7;-788;3804;950;4;-0.2202216;-0.1288089;-0.7187085;-0.6468144;2;2;-2;2006;3518;514;16;0.6418872;-0.5401662;0.4626039;0.2867036;2;8;1;638;4039;-1101;2;0.6398892;-0.7598465;-0.1135734;0.0166205;-1;1;1;764;3858;-712;8;0.265928;-0.6301939;0.3448753;0.6428056;-2;12;2;563;3247;2508;0.549364;2.611157;1.072437;0.5553458;3.156294;1.052145;0.5606032;3.635393;1.032288;0.6459875;4.354441;1.151211;0.4277762;4.71067;1.166435;0.07132906;4.60335;1.206019;-0.5507357;5.134058;0.7704594;0.1567788;5.135591;1.400711;0.9444901;4.649316;1.166435;1.213872;4.467683;1.206018;1.529367;3.700899;1.696713;0.6729362;3.298412;1.744837;0.2371067;2.568825;1.066481;0.05925827;1.291466;0.3754056;0;0;0;0.2371067;2.568825;1.066481;0.05925827;1.291466;0.3754056;0;0;0
1148597.8981;NotLabelled;NONE;16384;-0.4418283;-0.5844875;-0.6788315;0.04847645;3;-5;13;2855;-2301;1337;65536;0.7064785;0.2562327;-0.3213296;-0.5761772;7;18;-19;2673;175;-1266;8192;0.7337362;-0.5900277;-0.1135734;0.3171745;-13;15;2;2172;3270;300;32768;0.1952908;-0.7868231;0.5761772;0.1038781;12;-7;3;3641;1589;882;256;0.3878116;-0.5373961;-0.5166205;-0.5421354;3;5;13;726;4052;-764;128;-0.1052632;0.2825485;0.6191136;0.7251099;5;-2;-7;-900;3938;774;4;-0.2216066;-0.1274238;-0.7172804;-0.6481994;2;3;0;1970;3480;518;16;0.6423339;-0.5415512;0.4612188;0.2853186;1;18;1;350;3969;-1147;2;0.6398892;-0.7598755;-0.1135734;0.01523546;-1;0;0;658;3872;-670;8;0.265928;-0.6315789;0.3434903;0.6421875;-1;12;2;389;3217;2552;0.5560857;2.610354;1.073614;0.5620668;3.155421;1.051529;0.5673233;3.634452;1.030096;0.660175;4.352174;1.15141;0.4456959;4.710616;1.167718;0.08812869;4.606901;1.20681;-0.5314527;5.142911;0.7742125;0.1792836;5.140368;1.400826;0.9617398;4.643858;1.167718;1.22919;4.459288;1.206811;1.552693;3.695007;1.696195;0.6972957;3.290662;1.747064;0.2438281;2.568002;1.067808;0.06184367;1.290644;0.3778104;0;0;0;0.2438281;2.568002;1.067808;0.06184367;1.290644;0.3778104;0;0;0
1148618.149;NotLabelled;NONE;16384;-0.4432133;-0.5844875;-0.677928;0.04847645;1;-12;11;2841;-2437;1211;65536;0.7034389;0.2562327;-0.3254848;-0.5775623;14;7;-20;4211;155;-1330;8192;0.7348477;-0.5886427;-0.1135734;0.3171745;-9;10;-1;2252;3110;240;32768;0.1952908;-0.7859888;0.5775623;0.1024931;10;-6;5;3547;1393;1024;256;0.3864266;-0.5373961;-0.5180055;-0.5418027;6;8;10;816;3912;-746;128;-0.1052632;0.2825485;0.6191136;0.7251099;2;4;-6;-756;3816;864;4;-0.2216066;-0.1274238;-0.7172804;-0.6481994;4;3;0;1970;3440;578;16;0.6433813;-0.5429363;0.4598338;0.2825485;0;29;1;466;3933;-1141;2;0.6398892;-0.7598755;-0.1135734;0.01523546;-1;-1;2;718;3986;-566;8;0.267313;-0.632964;0.3407202;0.6417243;0;19;2;299;3263;2674;0.551128;2.61119;1.07305;0.5571094;3.156259;1.05101;0.5623659;3.635292;1.029617;0.6598706;4.352196;1.152112;0.4477305;4.712002;1.168956;0.089486;4.610559;1.207806;-0.5283384;5.149725;0.7766186;0.1815365;5.141936;1.404164;0.9633279;4.64188;1.168956;1.229559;4.455505;1.207805;1.556296;3.691003;1.694687;0.7008265;3.286351;1.741761;0.2388705;2.568838;1.06724;0.06287385;1.2909;0.3767644;0;0;0;0.2388705;2.568838;1.06724;0.06287385;1.2909;0.3767644;0;0;0
1148639.1225;NotLabelled;NONE;16384;-0.4459834;-0.5858725;-0.6749091;0.04847645;1;0;8;3071;-2407;1447;65536;0.6980472;0.2576177;-0.3310249;-0.5803324;10;14;-9;4627;269;-696;8192;0.7354441;-0.5886427;-0.1135734;0.3157895;-6;9;-4;2246;3034;270;32768;0.1952908;-0.7853259;0.5789474;0.09972299;11;-6;5;3527;1293;932;256;0.3836565;-0.5373961;-0.5193906;-0.5424449;9;6;5;668;3854;-706;128;-0.1052632;0.2839335;0.6204986;0.723383;5;-3;-7;-802;3834;1034;4;-0.2229917;-0.1260388;-0.7170959;-0.6481994;3;1;0;2000;3516;606;16;0.6444091;-0.5443213;0.4584487;0.2797784;0;22;0;874;3959;-1037;2;0.6398892;-0.7598465;-0.1135734;0.0166205;0;-1;4;872;3968;-662;8;0.2700831;-0.634349;0.3393352;0.6399282;0;20;1;483;3259;2620;0.5543568;2.610623;1.074309;0.5603381;3.155692;1.052269;0.5655946;3.634725;1.030875;0.6654602;4.351385;1.152892;0.4545024;4.711896;1.169518;0.09593062;4.611653;1.208467;-0.5207279;5.152238;0.7773877;0.1860423;5.137582;1.408306;0.9698671;4.640083;1.169518;1.23549;4.452863;1.208466;1.566363;3.689045;1.693627;0.7101207;3.285947;1.739965;0.2420993;2.568271;1.068498;0.06455725;1.290333;0.3784184;0;0;0;0.2420993;2.568271;1.068498;0.06455725;1.290333;0.3784184;0;0;0
1148659.0263;NotLabelled;NONE;16384;-0.4473684;-0.5844875;-0.6750924;0.04986149;0;1;6;2903;-2455;1237;65536;0.6973887;0.2576177;-0.33241;-0.5803324;8;11;-9;3307;129;-1018;8192;0.7377319;-0.5872576;-0.1135734;0.3130194;-2;11;-4;2466;3004;372;32768;0.1952908;-0.7836239;0.5817174;0.09695291;10;-6;9;3431;1597;1130;256;0.3808864;-0.5387812;-0.5193906;-0.5430229;8;6;6;604;4014;-628;128;-0.1038781;0.2853186;0.6204986;0.7230381;5;-4;-7;-872;3802;1062;4;-0.2229917;-0.1260388;-0.7170959;-0.6481994;2;2;0;1988;3522;598;16;0.6448213;-0.5457063;0.4570637;0.2783934;0;7;-1;872;3967;-1049;2;0.6398892;-0.7596382;-0.1149584;0.0166205;1;-1;5;910;3940;-718;8;0.2700831;-0.634349;0.3393352;0.6399282;0;6;0;611;3175;2542;0.5581752;2.610112;1.075242;0.5641556;3.155101;1.051318;0.5694113;3.634057;1.028268;0.6721429;4.350123;1.151387;0.4626385;4.711458;1.168513;0.1036567;4.612606;1.207235;-0.510286;5.157065;0.7771579;0.1919809;5.133823;1.412829;0.9777091;4.637566;1.168512;1.242565;4.449216;1.207234;1.575167;3.68441;1.689648;0.717469;3.284326;1.735182;0.2459175;2.567741;1.06959;0.06709559;1.289765;0.3799088;0;0;0;0.2459175;2.567741;1.06959;0.06709559;1.289765;0.3799088;0;0;0
1148679.0071;NotLabelled;NONE;16384;-0.4473684;-0.5858725;-0.6738908;0.04986149;0;-10;4;2891;-2287;1307;65536;0.6950563;0.2590028;-0.333795;-0.5817174;9;5;-13;3865;143;-1198;8192;0.7383181;-0.5872576;-0.1135734;0.3116343;-1;10;-7;2302;3140;360;32768;0.1952908;-0.7839617;0.5817174;0.09418282;8;-1;11;3595;1525;1226;256;0.3795014;-0.5387812;-0.5207756;-0.542666;11;11;6;694;3712;-642;128;-0.1038781;0.2867036;0.6204986;0.7224901;9;-4;-7;-870;3890;852;4;-0.2243767;-0.1246537;-0.7169059;-0.6481994;1;3;0;1848;3464;498;16;0.6452243;-0.5470914;0.4556787;0.2770083;-1;16;0;422;3955;-1003;2;0.6385041;-0.7605606;-0.1163435;0.01800554;0;0;3;826;3908;-626;8;0.2700831;-0.634349;0.3393352;0.6399282;0;0;0;459;3167;2438;0.5601512;2.610369;1.073961;0.5661317;3.155376;1.050462;0.5713875;3.634351;1.027785;0.6769342;4.349447;1.154119;0.468882;4.711547;1.172702;0.1094781;4.613979;1.210762;-0.5028329;5.160543;0.7810261;0.1987538;5.135456;1.417378;0.9836494;4.635571;1.172702;1.247716;4.445982;1.210762;1.583894;3.679916;1.688677;0.7245202;3.282991;1.730093;0.2478934;2.568002;1.068274;0.06813727;1.290026;0.3788359;0;0;0;0.2478934;2.568002;1.068274;0.06813727;1.290026;0.3788359;0;0;0
1148699.0458;NotLabelled;NONE;16384;-0.4487534;-0.5858725;-0.6729692;0.04986149;-1;-5;5;3199;-2399;1371;65536;0.6943895;0.2590028;-0.33518;-0.5817174;6;11;-12;3819;85;-704;8192;0.7391127;-0.5872576;-0.1121884;0.3102493;0;5;-9;2372;3262;268;32768;0.1952908;-0.7842895;0.5817174;0.09141274;3;6;12;3457;1339;1222;256;0.3739612;-0.5387812;-0.5221606;-0.5451753;10;11;6;746;3976;-600;128;-0.1038781;0.2880886;0.6232687;0.7195488;10;-1;-7;-870;3812;836;4;-0.2243767;-0.1246537;-0.7169059;-0.6481994;1;4;0;1778;3542;548;16;0.6456181;-0.5484765;0.4542936;0.2756233;-2;15;0;678;3931;-941;2;0.6398892;-0.7593957;-0.1163435;0.01800554;-2;1;2;918;3848;-608;8;0.2714681;-0.6357341;0.3379501;0.6386994;0;7;0;355;3119;2566;0.5612849;2.610668;1.072818;0.5672655;3.155677;1.049365;0.5725213;3.634654;1.026729;0.6804435;4.349485;1.15255;0.4735906;4.712284;1.170901;0.1138705;4.615931;1.209066;-0.4992013;5.163534;0.781745;0.2010564;5.136732;1.41949;0.9881042;4.634609;1.170901;1.251548;4.444175;1.209066;1.588543;3.677133;1.684836;0.7277299;3.283137;1.724272;0.2490272;2.568301;1.067127;0.06952112;1.290287;0.3776945;0;0;0;0.2490272;2.568301;1.067127;0.06952112;1.290287;0.3776945;0;0;0
1148721.0955;NotLabelled;NONE;16384;-0.4487534;-0.5858725;-0.6729692;0.04986149;-1;2;8;3239;-2533;1329;65536;0.6925554;0.2590028;-0.3365651;-0.5831025;3;4;-13;4317;65;-716;8192;0.7380101;-0.5886427;-0.1121884;0.3102493;2;2;-8;2512;3254;276;32768;0.1939058;-0.7858179;0.5803324;0.0900277;0;15;15;3611;1389;1272;256;0.3711911;-0.5387812;-0.5221606;-0.5470651;7;3;7;770;4082;-494;128;-0.1038781;0.2880886;0.6246537;0.7183467;4;1;-7;-874;3846;790;4;-0.2243767;-0.1232687;-0.7171453;-0.6481994;0;3;0;1742;3520;498;16;0.645413;-0.5498615;0.4529086;0.2756233;-1;0;-2;972;3947;-891;2;0.6398892;-0.7591822;-0.1177285;0.01800554;-1;4;2;952;3834;-586;8;0.2714681;-0.6357341;0.3379501;0.6386994;0;8;0;345;3143;2556;0.5710614;2.610967;1.069302;0.57704;3.155798;1.042022;0.5822941;3.634604;1.016024;0.6941711;4.348081;1.14601;0.4893703;4.711942;1.166251;0.1290735;4.617424;1.203557;-0.4855243;5.166444;0.7802668;0.2186827;5.13779;1.413566;1.003433;4.631337;1.16625;1.265754;4.439191;1.203556;1.606968;3.67011;1.672984;0.7449891;3.279047;1.715983;0.2588032;2.568562;1.063932;0.07334122;1.290547;0.3760782;0;0;0;0.2588032;2.568562;1.063932;0.07334122;1.290547;0.3760782;0;0;0
1148742.1103;NotLabelled;NONE;16384;-0.4515235;-0.5858725;-0.6709022;0.05263158;3;5;12;3177;-2393;1215;65536;0.6910386;0.2576177;-0.3407202;-0.5831025;2;0;-10;4285;9;-696;8192;0.7387999;-0.5886427;-0.1108033;0.3088643;5;5;-7;2696;3284;244;32768;0.1925208;-0.7885072;0.5775623;0.08725762;2;26;14;3339;1561;1108;256;0.3711911;-0.5401662;-0.5221606;-0.5456976;3;-10;9;544;4012;-346;128;-0.1024931;0.2880886;0.6246537;0.7185457;1;3;-6;-758;3870;580;4;-0.2257618;-0.1232687;-0.7167105;-0.6481994;0;2;0;1672;3554;452;16;0.6456181;-0.5484765;0.4542936;0.2756233;-1;-9;-2;742;3935;-945;2;0.6398892;-0.7591822;-0.1177285;0.01800554;0;4;1;848;3838;-616;8;0.2714681;-0.6357341;0.3365651;0.6394303;0;1;0;363;3105;2576;0.5759557;2.613426;1.061693;0.5819333;3.158157;1.032472;0.5871863;3.636867;1.004767;0.7002129;4.349602;1.137795;0.4960056;4.713708;1.15955;0.135549;4.619624;1.196404;-0.4830464;5.170138;0.7809505;0.2226342;5.138174;1.412449;1.009936;4.632262;1.159279;1.271936;4.43953;1.195807;1.614581;3.668074;1.660268;0.7513703;3.280271;1.707847;0.2636975;2.571002;1.056487;0.07530653;1.291624;0.3719725;0;0;0;0.2636975;2.571002;1.056487;0.07530653;1.291624;0.3719725;0;0;0
1148762.0008;NotLabelled;NONE;16384;-0.4529086;-0.5844875;-0.6710666;0.05401662;5;6;11;2857;-2445;1221;65536;0.6891817;0.2576177;-0.3421052;-0.5844875;3;-1;-9;3965;201;-806;8192;0.7377397;-0.5914127;-0.1108033;0.3060942;4;1;-10;2286;3212;496;32768;0.1911357;-0.7903043;0.5761772;0.08310249;1;-10;8;3871;1773;1430;256;0.3698061;-0.5415512;-0.5221606;-0.5452651;4;1;8;506;3788;-648;128;-0.101108;0.2880886;0.6260388;0.7175357;2;0;-7;-766;3890;644;4;-0.2243767;-0.1218837;-0.717382;-0.6481994;0;1;0;1704;3490;428;16;0.645025;-0.5484765;0.4542936;0.2770083;0;0;-1;252;3949;-1051;2;0.6398892;-0.7589661;-0.1191136;0.01800554;0;4;0;814;3872;-574;8;0.2728532;-0.6357341;0.3365651;0.6388406;0;1;0;147;3227;2602;0.5706169;2.611021;1.069252;0.5765945;3.155772;1.040405;0.5818477;3.634501;1.013028;0.6965792;4.346942;1.146169;0.4932685;4.711555;1.167841;0.1325588;4.618367;1.204494;-0.4773384;5.173649;0.7825748;0.2225947;5.134534;1.420039;1.006994;4.628829;1.167841;1.268494;4.435441;1.204495;1.607431;3.66362;1.671066;0.7419695;3.280403;1.714743;0.2583585;2.568601;1.064014;0.07381482;1.290547;0.3759859;0;0;0;0.2583585;2.568601;1.064014;0.07381482;1.290547;0.3759859;0;0;0
1148783.0269;NotLabelled;NONE;16384;-0.4542936;-0.5831025;-0.6713353;0.05401662;6;2;10;2913;-2451;1165;65536;0.6901817;0.2562327;-0.3434903;-0.5831025;6;-10;-9;4009;321;-1200;8192;0.7385194;-0.5914127;-0.1094183;0.3047091;5;-3;-12;2272;3012;302;32768;0.1897507;-0.7896268;0.5775623;0.08310249;1;-8;9;3717;1441;1122;256;0.368421;-0.5415512;-0.5235457;-0.5448744;2;0;9;676;3970;-560;128;-0.101108;0.2880886;0.6260388;0.7175357;6;0;-8;-748;3860;614;4;-0.2257618;-0.1218837;-0.7156926;-0.6495845;1;1;0;1750;3468;488;16;0.6463827;-0.5498615;0.4515235;0.2756233;0;12;0;662;3965;-955;2;0.6398892;-0.7589661;-0.1191136;0.01800554;-1;0;0;912;4004;-548;8;0.2742382;-0.6389757;0.33518;0.6357341;0;7;0;349;3199;2522;0.5703639;2.614537;1.061307;0.5763406;3.159203;1.030884;0.5815929;3.63785;1.002123;0.6986418;4.349614;1.136861;0.4965352;4.714852;1.159259;0.1355049;4.622782;1.195582;-0.4712899;5.180142;0.7719334;0.2264859;5.137693;1.411546;1.009983;4.630419;1.159258;1.270826;4.436085;1.195581;1.602602;3.660944;1.661795;0.7342224;3.283911;1.701169;0.2581054;2.572102;1.056201;0.07308813;1.291366;0.3733083;0;0;0;0.2581054;2.572102;1.056201;0.07308813;1.291366;0.3733083;0;0;0
1148804.0469;NotLabelled;NONE;16384;-0.4556787;-0.5831025;-0.6702828;0.05540166;7;0;9;2739;-2585;1323;65536;0.6911316;0.2562327;-0.3462604;-0.5803324;7;-18;-6;4373;427;-1132;8192;0.7376124;-0.5927978;-0.1080332;0.3047091;5;-1;-14;2038;3112;368;32768;0.1897507;-0.7887565;0.5789474;0.08171745;0;-16;8;3365;1387;1264;256;0.368421;-0.5462475;-0.5235457;-0.5401662;-1;-14;11;1120;3950;-670;128;-0.09833795;0.2880886;0.6288089;0.7154956;6;0;-8;-878;3812;728;4;-0.2243767;-0.1218837;-0.7161281;-0.6495845;0;-1;-1;1800;3510;418;16;0.6469716;-0.5498615;0.4515235;0.2742382;1;-1;0;804;3965;-923;2;0.6398892;-0.7587475;-0.1204986;0.01800554;0;0;1;934;3874;-540;8;0.2742382;-0.6389757;0.33518;0.6357341;1;1;0;485;3115;2586;0.5630372;2.614405;1.062287;0.5690138;3.15907;1.031864;0.5742661;3.637718;1.003103;0.6937114;4.349189;1.137282;0.4928299;4.715118;1.159427;0.1314985;4.624284;1.195865;-0.4743995;5.182004;0.7714064;0.2243556;5.137598;1.409816;1.005993;4.628969;1.159426;1.266189;4.433792;1.195865;1.59928;3.656643;1.65778;0.7301295;3.281711;1.700083;0.2507787;2.57197;1.057182;0.07095883;1.292032;0.3714111;0;0;0;0.2507787;2.57197;1.057182;0.07095883;1.292032;0.3714111;0;0;0
1148824.4664;NotLabelled;NONE;16384;-0.4570637;-0.5817174;-0.6705433;0.05540166;5;1;7;2727;-2517;1419;65536;0.6925693;0.2548476;-0.3490305;-0.5775623;3;-22;-4;3951;391;-868;8192;0.7374693;-0.5941828;-0.1052632;0.3033241;2;-11;-17;1870;3246;584;32768;0.1869806;-0.7873788;0.5817174;0.08171745;-9;-23;5;2947;1239;1664;256;0.368421;-0.5489728;-0.5235457;-0.5373961;-3;-10;13;996;3936;-678;128;-0.09695291;0.2880886;0.6301939;0.7144653;6;1;-6;-976;3864;764;4;-0.2243767;-0.1204986;-0.7163625;-0.6495845;1;0;-1;1842;3520;428;16;0.6463827;-0.5498615;0.4515235;0.2756233;1;-2;-1;492;3929;-1007;2;0.6398892;-0.7587475;-0.1204986;0.01800554;0;0;1;908;3826;-564;8;0.2728532;-0.6388406;0.3365651;0.6357341;0;-4;-1;427;3117;2618;0.5550267;2.614944;1.064208;0.5610014;3.159423;1.030607;0.5662517;3.637894;0.9990524;0.6918708;4.348287;1.133307;0.4941313;4.715906;1.155732;0.1320735;4.62814;1.19248;-0.4631531;5.19147;0.760399;0.2264404;5.146282;1.40864;1.006542;4.625393;1.155236;1.265101;4.427999;1.191384;1.586834;3.646419;1.653872;0.7165345;3.273099;1.685471;0.2427678;2.572479;1.059371;0.06787582;1.291219;0.3747955;0;0;0;0.2427678;2.572479;1.059371;0.06787582;1.291219;0.3747955;0;0;0
1148845.3371;NotLabelled;NONE;16384;-0.4584487;-0.5803324;-0.6707978;0.05540166;4;4;5;2667;-2423;1361;65536;0.6935312;0.2534626;-0.3504155;-0.5761772;0;-27;-2;3947;305;-564;8192;0.7358117;-0.5969529;-0.101108;0.3033241;3;-23;-23;1850;3170;368;32768;0.1842105;-0.7878866;0.5817174;0.08310249;-18;-16;6;3213;1359;1514;256;0.367036;-0.5499313;-0.5249307;-0.536011;0;-6;12;764;3752;-682;128;-0.09556787;0.2880886;0.6301939;0.7146519;5;3;-5;-876;3760;814;4;-0.2243767;-0.1204986;-0.7163625;-0.6495845;0;2;0;1960;3518;436;16;0.647936;-0.5498615;0.4501385;0.2742382;0;2;0;526;3957;-975;2;0.6398892;-0.7587475;-0.1204986;0.01800554;0;0;1;876;3874;-552;8;0.2728532;-0.6388406;0.3365651;0.6357341;1;-3;0;255;3125;2552;0.5469702;2.617125;1.060538;0.5529438;3.161502;1.025334;0.5581931;3.639879;0.9923711;0.6872095;4.349617;1.126867;0.4912784;4.718211;1.149155;0.1287522;4.632241;1.185529;-0.465208;5.193421;0.7489314;0.2177831;5.145899;1.40396;1.003233;4.625151;1.149155;1.260771;4.426468;1.185528;1.580733;3.64387;1.647523;0.7085087;3.27475;1.67514;0.2347113;2.574646;1.055835;0.06490935;1.292032;0.372516;0;0;0;0.2347113;2.574646;1.055835;0.06490935;1.292032;0.372516;0;0;0
1148867.0959;NotLabelled;NONE;16384;-0.4598338;-0.5789474;-0.6709308;0.0567867;7;1;2;2655;-2479;1191;65536;0.6965657;0.2506925;-0.3531856;-0.5720221;2;-15;-3;3455;411;-882;8192;0.7333007;-0.602493;-0.0900277;0.301939;5;-25;-37;2166;3542;-24;32768;0.1772853;-0.7860975;0.5858725;0.08587258;-23;-14;7;3869;1177;556;256;0.365651;-0.5521976;-0.5249307;-0.534626;0;3;13;854;3786;-632;128;-0.09556787;0.2880886;0.6315789;0.7134282;3;4;-4;-882;3756;790;4;-0.2257618;-0.1204986;-0.7159272;-0.6495845;0;2;0;1906;3528;482;16;0.647936;-0.5498615;0.4501385;0.2742382;0;0;0;722;4013;-959;2;0.6398892;-0.7587475;-0.1204986;0.01800554;0;0;1;864;3850;-512;8;0.2728532;-0.6388406;0.3365651;0.6357341;1;0;0;325;3169;2446;0.5437633;2.616715;1.062521;0.5497371;3.161115;1.02767;0.5549867;3.639513;0.9950177;0.6876357;4.348677;1.129008;0.4935937;4.718285;1.151038;0.1306331;4.634197;1.187478;-0.4614298;5.195432;0.7483824;0.2210577;5.145958;1.403791;1.005065;4.622606;1.151096;1.261584;4.422634;1.187606;1.57648;3.635893;1.646032;0.7034154;3.269203;1.678946;0.2315043;2.57424;1.057788;0.06174555;1.291625;0.3744593;0;0;0;0.2315043;2.57424;1.057788;0.06174555;1.291625;0.3744593;0;0;0
1148887.0427;NotLabelled;NONE;16384;-0.4612188;-0.5789474;-0.6700954;0.05540166;10;-2;2;2795;-2555;1233;65536;0.6986254;0.2493075;-0.3545706;-0.5692521;5;-17;-1;4133;417;-1168;8192;0.7324055;-0.6052631;-0.08310249;0.300554;2;-15;-38;2170;3710;224;32768;0.1717452;-0.7807643;0.5941828;0.08864266;-13;-35;6;4721;1551;900;256;0.3642659;-0.5504491;-0.5263157;-0.536011;9;17;3;678;3196;-962;128;-0.09418282;0.2880886;0.6315789;0.7136124;0;3;-3;-822;3896;704;4;-0.2257618;-0.1204986;-0.7159272;-0.6495845;-1;2;0;1798;3442;424;16;0.6463827;-0.5498615;0.4515235;0.2756233;0;-5;0;502;3937;-1065;2;0.6398892;-0.7585262;-0.1218837;0.01800554;0;3;-1;872;3852;-630;8;0.2728532;-0.6357341;0.3365651;0.6388406;0;-3;0;303;3205;2480;0.5393066;2.615416;1.065826;0.5452791;3.159686;1.029011;0.5505273;3.637963;0.9946327;0.6866521;4.346159;1.130252;0.49444;4.716675;1.153049;0.1310548;4.634308;1.18919;-0.4569478;5.197873;0.7476277;0.2227409;5.145955;1.40575;1.00543;4.618459;1.153049;1.260942;4.417134;1.18919;1.563847;3.618465;1.634893;0.688127;3.258985;1.675839;0.2270476;2.572924;1.06126;0.06069281;1.291625;0.3746319;0;0;0;0.2270476;2.572924;1.06126;0.06069281;1.291625;0.3746319;0;0;0
1148907.2717;NotLabelled;NONE;16384;-0.4626039;-0.5775623;-0.6703358;0.05540166;10;-4;2;2871;-2535;1371;65536;0.6990482;0.2493075;-0.3559557;-0.567867;9;-10;-6;3313;329;-1228;8192;0.7324343;-0.6066482;-0.07756232;0.299169;-2;-15;-40;2044;3394;430;32768;0.1689751;-0.7780322;0.5983379;0.0900277;-12;-40;8;4187;1535;450;256;0.3628809;-0.5486845;-0.5277008;-0.5373961;9;10;2;896;3712;-496;128;-0.09418282;0.2867036;0.632964;0.7129427;9;1;-3;-854;3836;488;4;-0.2257618;-0.1191136;-0.7161589;-0.6495845;0;2;0;1760;3492;438;16;0.6463827;-0.5498615;0.4515235;0.2756233;0;0;0;436;3963;-1091;2;0.6398892;-0.7585578;-0.1218837;0.0166205;0;2;-1;768;3862;-602;8;0.2728532;-0.6357341;0.3379501;0.638109;-1;0;0;247;3257;2508;0.548723;2.61582;1.062543;0.5546956;3.160114;1.026076;0.5599441;3.638412;0.9920043;0.6961928;4.346707;1.126978;0.5040427;4.717276;1.149453;0.1406463;4.635001;1.185688;-0.4511175;5.197961;0.748401;0.2319697;5.145547;1.402956;1.015017;4.618976;1.149513;1.270498;4.417642;1.18582;1.573521;3.612136;1.618964;0.6962091;3.258173;1.672074;0.2364639;2.573331;1.057947;0.06604531;1.292032;0.3723164;0;0;0;0.2364639;2.573331;1.057947;0.06604531;1.292032;0.3723164;0;0;0
1148929.0418;NotLabelled;NONE;16384;-0.4639889;-0.5775623;-0.6694911;0.05401662;10;-9;1;2805;-2539;1309;65536;0.6998765;0.2493075;-0.3587258;-0.5650969;11;-12;-8;3991;315;-1314;8192;0.7319614;-0.6094183;-0.07063711;0.2963989;0;-15;-40;2134;3310;346;32768;0.166205;-0.7743398;0.6038781;0.0900277;-6;-43;16;4415;1473;376;256;0.3559557;-0.5491668;-0.5290859;-0.5401662;14;21;0;818;4046;-750;128;-0.09418282;0.2867036;0.634349;0.7117106;7;3;-1;-984;3932;644;4;-0.2257618;-0.1191136;-0.7161589;-0.6495845;0;0;0;1772;3470;450;16;0.6463827;-0.5498615;0.4515235;0.2756233;0;4;1;492;3977;-977;2;0.6412742;-0.7573873;-0.1218837;0.0166205;0;0;-2;760;3954;-452;8;0.2728532;-0.6357341;0.3379501;0.638109;0;0;1;361;3313;2600;0.5549126;2.617192;1.058435;0.5608838;3.161347;1.019954;0.5661308;3.639517;0.9841108;0.7025213;4.347915;1.118396;0.5104315;4.718532;1.140588;0.1470337;4.636343;1.177004;-0.4427701;5.199907;0.7378507;0.2426994;5.147132;1.38988;1.021392;4.620158;1.140588;1.276853;4.41882;1.177005;1.577309;3.607629;1.601235;0.699497;3.25637;1.663283;0.2426533;2.574686;1.054009;0.06834331;1.292032;0.3719012;0;0;0;0.2426533;2.574686;1.054009;0.06834331;1.292032;0.3719012;0;0;0
1148950.1181;NotLabelled;NONE;16384;-0.4653739;-0.5775623;-0.6687471;0.05124654;13;-10;0;2841;-2527;1301;65536;0.699568;0.2493075;-0.3614958;-0.5637119;15;-6;-5;4105;347;-1278;8192;0.7318801;-0.6108033;-0.06509695;0.2950138;-2;-14;-41;2172;3632;338;32768;0.1634349;-0.7694826;0.6108033;0.0900277;-5;-51;21;4093;1663;580;256;0.3531856;-0.5482228;-0.5290859;-0.5429363;15;26;0;996;4204;-682;128;-0.09279778;0.2867036;0.6357341;0.7106559;4;4;-1;-928;3864;780;4;-0.2257618;-0.1191136;-0.7161589;-0.6495845;0;0;0;1820;3560;502;16;0.6463827;-0.5498615;0.4515235;0.2756233;0;0;0;686;3955;-991;2;0.6412742;-0.7573873;-0.1218837;0.0166205;0;0;-1;818;3976;-498;8;0.2714681;-0.6357341;0.3379501;0.6386994;0;-3;1;305;3221;2656;0.5655055;2.617208;1.055775;0.5714751;3.16122;1.015322;0.5767208;3.639256;0.977747;0.7184148;4.345573;1.117397;0.5291458;4.717474;1.142201;0.1651012;4.637799;1.177734;-0.4316975;5.202616;0.7497833;0.2570172;5.149135;1.398327;1.039339;4.615197;1.14185;1.293225;4.411645;1.17696;1.595866;3.591249;1.581475;0.7170945;3.24429;1.653367;0.2532461;2.574686;1.051515;0.07208174;1.292032;0.371195;0;0;0;0.2532461;2.574686;1.051515;0.07208174;1.292032;0.371195;0;0;0
1148992.074;NotLabelled;NONE;16384;-0.4695291;-0.5775623;-0.6663331;0.04432133;16;-10;0;3035;-2531;1415;65536;0.6984003;0.2548476;-0.368421;-0.5581717;23;-5;5;4837;293;-1262;8192;0.7324488;-0.6149584;-0.04847645;0.2880886;-7;-12;-33;2442;3806;466;32768;0.1565097;-0.7584351;0.6260388;0.09141274;-11;-42;6;3649;1739;1038;256;0.3462604;-0.5443213;-0.5290859;-0.5512587;15;16;0;824;4082;-692;128;-0.0900277;0.2894737;0.6301939;0.7148116;-14;7;-5;-1066;4428;1516;4;-0.2257618;-0.1191136;-0.7161589;-0.6495845;0;-1;0;1910;3446;524;16;0.6475584;-0.5484765;0.4515235;0.2756233;0;-2;0;568;3995;-1001;2;0.6398892;-0.7587791;-0.1204986;0.0166205;1;-3;0;908;3952;-594;8;0.2700831;-0.634349;0.3393352;0.6399282;0;-8;0;441;3251;2576;0.5712895;2.61722;1.054227;0.5772577;3.161109;1.012141;0.5825021;3.63903;0.9731301;0.7240134;4.344776;1.115819;0.5347211;4.716582;1.14183;0.1706213;4.636781;1.176502;-0.4230382;5.197997;0.7395413;0.2659274;5.142352;1.387636;1.04491;4.614285;1.141829;1.298737;4.410584;1.176502;1.596473;3.586471;1.577081;0.7164311;3.243899;1.654265;0.25903;2.574686;1.050105;0.07412377;1.292032;0.3707925;0;0;0;0.25903;2.574686;1.050105;0.07412377;1.292032;0.3707925;0;0;0
1149013.0324;NotLabelled;NONE;16384;-0.4709141;-0.5775623;-0.6654458;0.04293629;13;-8;1;2945;-2381;1611;65536;0.6977572;0.2576177;-0.3698061;-0.5567867;20;4;3;3583;41;-858;8192;0.7333373;-0.6149584;-0.04293629;0.2867036;-7;-12;-28;2316;3872;468;32768;0.1537396;-0.7553862;0.6301939;0.09279778;-11;-33;8;4295;1883;1262;256;0.3434903;-0.5429363;-0.5290859;-0.5543489;15;16;0;590;3988;-1020;128;-0.0900277;0.2908587;0.6288089;0.7154688;-29;-3;-5;-870;3616;542;4;-0.2257618;-0.1191136;-0.7161589;-0.6495845;-1;0;0;1974;3548;556;16;0.6459983;-0.5484765;0.4529086;0.2770083;0;-5;0;650;3979;-1033;2;0.6398892;-0.7587475;-0.1204986;0.01800554;1;-3;0;832;3848;-586;8;0.2686981;-0.634349;0.3407202;0.6397753;0;-7;0;327;3223;2462;0.5873055;2.616475;1.05304;0.5932803;3.160964;1.019616;0.5985308;3.639446;0.9882164;0.7380512;4.344099;1.138083;0.5478067;4.715176;1.16736;0.1838351;4.634162;1.200535;-0.4151014;5.191044;0.7652346;0.2732193;5.138649;1.414285;1.058242;4.614114;1.16736;1.312494;4.410695;1.200535;1.60774;3.569925;1.566885;0.7262465;3.236484;1.664732;0.2750467;2.574012;1.048188;0.07744324;1.291358;0.3724592;0;0;0;0.2750467;2.574012;1.048188;0.07744324;1.291358;0.3724592;0;0;0
1149033.314;NotLabelled;NONE;16384;-0.4722992;-0.5775623;-0.6645516;0.04155125;10;-6;0;2927;-2349;1471;65536;0.6976129;0.2590028;-0.3711911;-0.5554016;14;-1;-4;3449;51;-730;8192;0.7335688;-0.6149584;-0.03878116;0.2867036;-7;-14;-19;2446;3952;324;32768;0.1509695;-0.753455;0.632964;0.09418282;-11;-29;5;3703;1923;1030;256;0.3407202;-0.5415512;-0.5304709;-0.5560869;7;7;0;690;3906;-798;128;-0.08587258;0.2880886;0.6288089;0.7170985;-7;2;-1;-1034;4010;802;4;-0.2271468;-0.1191136;-0.7169755;-0.6481994;-1;3;-1;1936;3528;556;16;0.6459983;-0.5484765;0.4529086;0.2770083;0;-4;0;568;3983;-1011;2;0.6398892;-0.7589661;-0.1191136;0.01800554;1;-3;0;866;3834;-644;8;0.2686981;-0.634349;0.3407202;0.6397753;0;-2;0;361;3221;2492;0.5977384;2.61687;1.049134;0.6037145;3.161479;1.017726;0.6089664;3.640074;0.9880993;0.7479866;4.344216;1.140808;0.5575171;4.715072;1.171379;0.1935643;4.633733;1.203959;-0.4057139;5.190316;0.7687469;0.283261;5.14078;1.417327;1.068007;4.614288;1.171379;1.322345;4.410881;1.203959;1.618636;3.565853;1.559509;0.7373564;3.234907;1.667248;0.2854798;2.574425;1.044112;0.08311494;1.29177;0.3697948;0;0;0;0.2854798;2.574425;1.044112;0.08311494;1.29177;0.3697948;0;0;0
1149055.3808;NotLabelled;NONE;16384;-0.4736842;-0.5761772;-0.6648532;0.0401662;9;-2;0;2867;-2387;1439;65536;0.695615;0.2603878;-0.3739612;-0.5554016;8;-6;-6;3975;187;-744;8192;0.7337101;-0.6149584;-0.03601108;0.2867036;-3;-9;-11;2586;3862;212;32768;0.1495845;-0.7512213;0.6357341;0.09556787;-10;-27;0;3655;1759;1212;256;0.3393352;-0.5415512;-0.5304709;-0.5569332;4;2;1;552;3914;-818;128;-0.08448754;0.2867036;0.6274238;0.7190287;-3;8;-1;-808;3914;732;4;-0.2271468;-0.1177285;-0.7172042;-0.6481994;-1;4;0;1888;3510;558;16;0.6459983;-0.5484765;0.4529086;0.2770083;0;0;0;526;3977;-1051;2;0.6398892;-0.7589661;-0.1191136;0.01800554;0;0;-2;972;3858;-670;8;0.2686981;-0.634349;0.3407202;0.6397753;0;0;0;387;3141;2528;0.6090742;2.615025;1.049431;0.615051;3.159685;1.018921;0.6203032;3.638328;0.9900819;0.7606735;4.342049;1.14349;0.5709249;4.713249;1.174381;0.2068074;4.632592;1.206814;-0.3936672;5.18888;0.7728761;0.297126;5.140616;1.419616;1.081217;4.611465;1.17438;1.335149;4.407528;1.206814;1.633407;3.559926;1.554502;0.7525942;3.231349;1.672796;0.2968158;2.572588;1.044333;0.08574438;1.29177;0.3691946;0;0;0;0.2968158;2.572588;1.044333;0.08574438;1.29177;0.3691946;0;0;0
1149076.0734;NotLabelled;NONE;16384;-0.4750692;-0.5747922;-0.6652253;0.03739612;7;4;-2;2825;-2403;1401;65536;0.6959734;0.2603878;-0.3753462;-0.5540166;4;-4;1;3949;239;-1090;8192;0.7337767;-0.6149584;-0.03462604;0.2867036;-1;-4;-6;2504;3842;172;32768;0.1495845;-0.7496889;0.6371191;0.09833795;-8;-20;-4;3533;1645;1038;256;0.3393352;-0.5415512;-0.5290859;-0.5582491;-3;-1;2;1000;4454;-796;128;-0.08448754;0.2867036;0.6288089;0.7178177;0;3;-1;-794;3826;726;4;-0.2271468;-0.1177285;-0.7172042;-0.6481994;-1;3;0;1876;3474;564;16;0.6459983;-0.5484765;0.4529086;0.2770083;0;2;0;634;3991;-1055;2;0.6398892;-0.7589661;-0.1191136;0.01800554;0;4;-1;932;3910;-608;8;0.2686981;-0.634349;0.3407202;0.6397753;0;0;0;407;3187;2590;0.6106919;2.616358;1.046595;0.61667;3.161139;1.018323;0.6219234;3.639896;0.9914519;0.7629263;4.343176;1.1463;0.5735312;4.714501;1.177847;0.2093215;4.634139;1.209979;-0.3903657;5.189009;0.773145;0.2972248;5.138675;1.423132;1.083722;4.612215;1.177846;1.337441;4.407964;1.209978;1.635958;3.55866;1.553264;0.7555546;3.23053;1.675773;0.2984336;2.573943;1.041309;0.08647998;1.29177;0.3690231;0;0;0;0.2984336;2.573943;1.041309;0.08647998;1.29177;0.3690231;0;0;0
1149097.0041;NotLabelled;NONE;16384;-0.4750692;-0.5734072;-0.6664195;0.03739612;8;5;-5;2731;-2439;1395;65536;0.6970737;0.2603878;-0.3753462;-0.5526316;3;-3;6;4279;331;-1126;8192;0.7320701;-0.6163435;-0.03462604;0.2880886;5;4;2;2318;3492;162;32768;0.1509695;-0.7451073;0.6412742;0.1038781;0;-15;-11;4005;1615;954;256;0.3407202;-0.5415512;-0.5290859;-0.5574048;-1;-9;0;464;3532;-894;128;-0.08310249;0.2853186;0.6274238;0.7197407;-12;4;-2;-876;3760;936;4;-0.2285319;-0.1163435;-0.7169901;-0.6481994;0;3;0;1820;3466;476;16;0.6465904;-0.5484765;0.4529086;0.2756233;-1;0;0;658;4013;-1061;2;0.6398892;-0.7587791;-0.1204986;0.0166205;0;6;-1;786;3870;-610;8;0.2686981;-0.634349;0.3407202;0.6397753;0;-1;0;419;3173;2590;0.6105968;2.616377;1.046456;0.6165737;3.161053;1.016219;0.6218261;3.639709;0.9876205;0.7610228;4.34288;1.144589;0.5707038;4.713648;1.177101;0.2066731;4.632305;1.208789;-0.3916223;5.184045;0.7661216;0.2942379;5.133415;1.417911;1.081143;4.612607;1.177101;1.335342;4.408884;1.208788;1.633423;3.558733;1.550353;0.7546188;3.227443;1.675799;0.2983384;2.573943;1.041335;0.08644608;1.29177;0.3690304;0;0;0;0.2983384;2.573943;1.041335;0.08644608;1.29177;0.3690304;0;0;0
1149118.0437;NotLabelled;NONE;16384;-0.4750692;-0.5720221;-0.6676849;0.03601108;5;2;-7;2693;-2481;1383;65536;0.6965548;0.2617728;-0.3753462;-0.5526316;1;1;6;3559;415;-1136;8192;0.7320033;-0.6163435;-0.03601108;0.2880886;4;7;4;2160;3432;296;32768;0.1523546;-0.7448254;0.6412742;0.1038781;4;-4;-7;4103;1545;358;256;0.3407202;-0.5429363;-0.5290859;-0.5560558;-1;-11;0;986;3766;-770;128;-0.08171745;0.2853186;0.6288089;0.7186898;3;0;-3;-914;3592;698;4;-0.2299169;-0.1163435;-0.7165472;-0.6481994;0;1;1;1828;3496;482;16;0.645025;-0.5484765;0.4542936;0.2770083;0;1;0;564;3973;-1035;2;0.6398892;-0.7587791;-0.1204986;0.0166205;2;0;0;638;3878;-646;8;0.267313;-0.632964;0.3421052;0.640987;0;-5;0;377;3275;2572;0.6064451;2.615584;1.050657;0.6124232;3.160379;1.022655;0.6176769;3.639149;0.996021;0.7561193;4.342765;1.151656;0.5654216;4.713408;1.183367;0.2014596;4.631767;1.215078;-0.3949101;5.180539;0.766167;0.2891696;5.131436;1.419941;1.075961;4.612872;1.183756;1.330348;4.409463;1.215939;1.623968;3.560916;1.565268;0.7484401;3.22146;1.691793;0.2941868;2.573171;1.045348;0.08593829;1.290956;0.3719878;0;0;0;0.2941868;2.573171;1.045348;0.08593829;1.290956;0.3719878;0;0;0
1149139.0299;NotLabelled;NONE;16384;-0.4750692;-0.5720221;-0.6677582;0.03462604;4;-3;-9;2865;-2461;1359;65536;0.6976514;0.2617728;-0.3753462;-0.5512465;2;0;5;3815;325;-1112;8192;0.7318618;-0.6163435;-0.03878116;0.2880886;4;11;4;2084;3428;340;32768;0.1537396;-0.7445407;0.6412742;0.1038781;7;8;-2;4007;1429;388;256;0.3421052;-0.5443213;-0.5277008;-0.5551668;1;-5;0;954;3758;-994;128;-0.08171745;0.2853186;0.6288089;0.7186898;7;-3;0;-1152;3944;942;4;-0.2299169;-0.1163435;-0.7165472;-0.6481994;0;0;1;1698;3470;506;16;0.6459983;-0.5484765;0.4529086;0.2770083;0;1;0;584;3887;-975;2;0.6398892;-0.7589977;-0.1191136;0.0166205;1;-4;0;764;3944;-522;8;0.267313;-0.632964;0.3421052;0.640987;0;-3;0;327;3271;2586;0.6057718;2.614698;1.051945;0.6117489;3.159406;1.022296;0.6170017;3.638094;0.9942139;0.7572698;4.341354;1.149818;0.5674974;4.712457;1.181708;0.2033617;4.631698;1.213682;-0.3936296;5.179453;0.7643541;0.2878183;5.131923;1.420987;1.077791;4.61068;1.181708;1.331707;4.40665;1.213682;1.625455;3.557531;1.561508;0.7501103;3.216201;1.684198;0.2935132;2.57227;1.046775;0.08814165;1.291366;0.370043;0;0;0;0.2935132;2.57227;1.046775;0.08814165;1.291366;0.370043;0;0;0
1149159.9925;NotLabelled;NONE;16384;-0.4736842;-0.5720221;-0.6687413;0.03462604;4;-2;-9;3035;-2525;1305;65536;0.6976514;0.2617728;-0.3753462;-0.5512465;2;-5;4;3867;327;-1086;8192;0.7323308;-0.6163435;-0.0401662;0.2867036;3;13;3;1924;3636;250;32768;0.1537396;-0.7447326;0.6412742;0.1024931;8;5;0;3877;1411;346;256;0.3407202;-0.5443213;-0.5277008;-0.5560179;1;0;0;868;3876;-924;128;-0.08033241;0.2853186;0.6288089;0.7188459;3;-3;-1;-1052;3788;932;4;-0.2299169;-0.1163435;-0.7165472;-0.6481994;-1;-1;0;1778;3468;476;16;0.6465904;-0.5484765;0.4529086;0.2756233;0;1;0;516;3969;-1065;2;0.6385041;-0.7601632;-0.1191136;0.0166205;1;-4;0;852;4006;-538;8;0.265928;-0.632964;0.3421052;0.6415629;0;-2;0;297;3259;2650;0.5968655;2.615102;1.052833;0.6028427;3.15981;1.023183;0.6080955;3.638498;0.9951016;0.7476335;4.341738;1.15145;0.557486;4.71262;1.18368;0.1934243;4.631466;1.215497;-0.4019648;5.177512;0.7619834;0.2761299;5.131512;1.422186;1.06788;4.611349;1.18368;1.321993;4.407539;1.215497;1.614439;3.560129;1.56855;0.7389616;3.216928;1.684904;0.2846071;2.572674;1.047662;0.08270152;1.29177;0.3698881;0;0;0;0.2846071;2.572674;1.047662;0.08270152;1.29177;0.3698881;0;0;0
1149181.2071;NotLabelled;NONE;16384;-0.4736842;-0.5720221;-0.6688116;0.033241;4;-2;-9;3155;-2481;1257;65536;0.6982231;0.2631579;-0.3753462;-0.5498615;2;-3;4;4105;341;-1094;8192;0.7327943;-0.6163435;-0.04155125;0.2853186;3;13;1;1816;3622;296;32768;0.1551246;-0.7444454;0.6412742;0.1024931;10;3;0;3731;1347;328;256;0.3407202;-0.5443213;-0.5263157;-0.5573291;1;-1;0;822;3912;-942;128;-0.08033241;0.2853186;0.6288089;0.7188459;-1;1;-1;-992;3880;892;4;-0.2299169;-0.1163435;-0.7165472;-0.6481994;-1;-3;0;1774;3446;498;16;0.6465904;-0.5484765;0.4529086;0.2756233;0;2;0;470;3971;-987;2;0.6385041;-0.7601317;-0.1191136;0.01800554;1;-4;0;856;4008;-594;8;0.265928;-0.632964;0.3421052;0.6415629;0;0;0;281;3277;2680;0.5993363;2.614285;1.055044;0.6053137;3.159009;1.025708;0.6105666;3.637713;0.9979024;0.7507125;4.340506;1.155712;0.5609109;4.711509;1.18858;0.1967543;4.630649;1.220055;-0.4025881;5.175029;0.7697577;0.2767517;5.129028;1.42868;1.071206;4.609741;1.188635;1.325103;4.405619;1.220176;1.618728;3.558512;1.572976;0.7425956;3.216937;1.689193;0.287078;2.571859;1.049847;0.08389366;1.290955;0.3724547;0;0;0;0.287078;2.571859;1.049847;0.08389366;1.290955;0.3724547;0;0;0
1149202.0046;NotLabelled;NONE;16384;-0.4722992;-0.5734072;-0.6687987;0.02908587;8;-5;-6;3179;-2437;1213;65536;0.6993116;0.2631579;-0.3753462;-0.5484765;6;-1;3;3989;171;-1116;8192;0.7337871;-0.6163435;-0.04293629;0.2825485;2;8;0;1738;3668;370;32768;0.1565097;-0.7431494;0.6426592;0.101108;7;0;0;3773;1443;412;256;0.3407202;-0.5457063;-0.5263157;-0.5559731;4;0;0;840;3830;-910;128;-0.07894737;0.2839335;0.6288089;0.7195474;-1;2;-1;-998;3864;792;4;-0.2285319;-0.1163435;-0.7169901;-0.6481994;-1;-3;-1;1898;3464;454;16;0.645413;-0.5498615;0.4529086;0.2756233;0;5;1;452;4029;-995;2;0.6385041;-0.7603475;-0.1177285;0.01800554;1;-3;0;926;4004;-610;8;0.265928;-0.632964;0.3421052;0.6415629;0;2;1;315;3217;2586;0.599357;2.614285;1.055038;0.6053343;3.159009;1.025703;0.6105874;3.637713;0.9978971;0.748939;4.340389;1.157798;0.5582143;4.710829;1.191648;0.1942423;4.628988;1.222719;-0.4046984;5.171916;0.7701405;0.2735063;5.129016;1.430439;1.068757;4.610311;1.191648;1.323139;4.406722;1.222719;1.615938;3.559508;1.57595;0.7402955;3.216063;1.690329;0.2870986;2.571859;1.049842;0.08390088;1.290956;0.3724531;0;0;0;0.2870986;2.571859;1.049842;0.08390088;1.290956;0.3724531;0;0;0
1149223.0125;NotLabelled;NONE;16384;-0.4722992;-0.5734072;-0.6688575;0.02770083;8;-6;-4;3221;-2477;1265;65536;0.6991292;0.2645429;-0.3767313;-0.5470914;9;-4;0;4025;113;-1082;8192;0.7337047;-0.6163435;-0.04432133;0.2825485;1;7;0;1872;3802;334;32768;0.1565097;-0.7433365;0.6426592;0.09972299;7;-2;1;3995;1477;420;256;0.3407202;-0.5457063;-0.5263157;-0.5559731;3;-2;0;886;3898;-950;128;-0.07894737;0.2839335;0.6288089;0.7195474;0;1;-1;-1056;3824;878;4;-0.2285319;-0.1163435;-0.7169901;-0.6481994;0;-2;-1;1918;3508;458;16;0.6469716;-0.5498615;0.4515235;0.2742382;0;9;2;472;3969;-985;2;0.6385041;-0.7603475;-0.1177285;0.01800554;0;0;1;914;3926;-630;8;0.267313;-0.632964;0.3421052;0.640987;2;1;1;485;3179;2768;0.6010412;2.616262;1.049915;0.6070187;3.161001;1.020836;0.6122718;3.639718;0.9932567;0.7523119;4.342039;1.153247;0.5624835;4.712937;1.187115;0.1983105;4.631976;1.218138;-0.4010956;5.169283;0.7595066;0.2750538;5.127912;1.422007;1.072781;4.611179;1.18716;1.326664;4.40697;1.218238;1.616794;3.559262;1.572486;0.740322;3.215666;1.679845;0.2887828;2.573839;1.044696;0.08633466;1.291624;0.3695691;0;0;0;0.2887828;2.573839;1.044696;0.08633466;1.291624;0.3695691;0;0;0
1149243.2277;NotLabelled;NONE;16384;-0.4722992;-0.5734072;-0.6689134;0.02631579;9;-4;-2;3209;-2427;1321;65536;0.6986035;0.265928;-0.3767313;-0.5470914;9;-6;-1;4079;53;-1006;8192;0.7342367;-0.6163435;-0.04432133;0.2811634;1;9;-1;1916;3776;426;32768;0.1578947;-0.7432281;0.6426592;0.09833795;5;0;0;3801;1389;522;256;0.3407202;-0.5457063;-0.5249307;-0.557281;3;-1;0;796;3850;-912;128;-0.07756232;0.2825485;0.6288089;0.7202429;2;2;0;-1048;3832;802;4;-0.2285319;-0.1163435;-0.7169901;-0.6481994;1;3;-1;1922;3460;498;16;0.6463783;-0.5512465;0.4515235;0.2728532;0;9;2;486;3965;-1069;2;0.6385041;-0.7601317;-0.1191136;0.01800554;0;1;0;898;3986;-672;8;0.267313;-0.634349;0.3407202;0.6403553;3;10;2;191;3293;2706;0.5980834;2.615858;1.051996;0.6040609;3.160597;1.022917;0.609314;3.639313;0.9953374;0.7493683;4.341635;1.155315;0.559543;4.712533;1.1892;0.1953726;4.631573;1.220255;-0.4059128;5.167381;0.7623329;0.2674189;5.127303;1.427776;1.06984;4.610774;1.1892;1.323726;4.406566;1.220255;1.6151;3.559545;1.575125;0.7377818;3.21758;1.680768;0.2858251;2.573435;1.046777;0.08331718;1.291219;0.3716682;0;0;0;0.2858251;2.573435;1.046777;0.08331718;1.291219;0.3716682;0;0;0
1149264.1605;NotLabelled;NONE;16384;-0.4736842;-0.5734072;-0.6680368;0.0235457;9;-3;-1;3205;-2397;1423;65536;0.6981874;0.265928;-0.3795014;-0.5457063;9;-6;-3;4157;93;-1040;8192;0.7336015;-0.6177285;-0.04432133;0.2797784;2;6;-1;1838;3732;372;32768;0.1578947;-0.7432281;0.6426592;0.09833795;4;0;0;3827;1461;496;256;0.3393352;-0.5470914;-0.5249307;-0.5567678;0;2;1;910;4038;-940;128;-0.07617728;0.2825485;0.6288089;0.7203907;-1;1;-1;-1100;3896;952;4;-0.2285319;-0.1163435;-0.7169901;-0.6481994;1;4;0;1940;3550;578;16;0.6479257;-0.5512465;0.4501385;0.2714681;0;16;3;534;3985;-1087;2;0.6385041;-0.7601317;-0.1191136;0.01800554;0;1;2;962;4070;-644;8;0.2700831;-0.634349;0.3407202;0.6391919;4;16;2;395;3251;2606;0.6020908;2.615704;1.051628;0.6080686;3.160456;1.022802;0.6133217;3.639185;0.995445;0.7515639;4.341383;1.157523;0.5608113;4.711717;1.192366;0.1968228;4.629776;1.222979;-0.4048657;5.163871;0.7635859;0.2672246;5.125364;1.430375;1.071356;4.611209;1.192366;1.325724;4.407534;1.222978;1.616813;3.559756;1.57627;0.7391443;3.217559;1.678182;0.2898325;2.573283;1.046388;0.0873825;1.291068;0.3712617;0;0;0;0.2898325;2.573283;1.046388;0.0873825;1.291068;0.3712617;0;0;0
1149306.0113;NotLabelled;NONE;16384;-0.4750692;-0.5720221;-0.6683741;0.01939058;7;-7;-1;3015;-2381;1503;65536;0.6980912;0.2686981;-0.3836565;-0.5415512;11;-1;-3;3923;189;-1284;8192;0.7340432;-0.6177285;-0.04570637;0.2783934;2;4;0;1990;3666;416;32768;0.1592798;-0.7431145;0.6426592;0.09695291;6;3;1;3973;1465;320;256;0.3379501;-0.5470914;-0.5263157;-0.5563024;1;3;1;874;3830;-942;128;-0.07479224;0.2825485;0.6288089;0.7205358;2;1;0;-1060;3850;844;4;-0.2313019;-0.1149584;-0.716325;-0.6481994;0;5;0;1974;3468;532;16;0.6476784;-0.5540166;0.4487534;0.2686981;0;5;1;796;3921;-1045;2;0.6385041;-0.7596584;-0.1218837;0.01939058;0;5;3;934;3902;-650;8;0.2728532;-0.6373735;0.3393352;0.6357341;4;10;2;425;3211;2552;0.5979319;2.615301;1.054045;0.6039097;3.160069;1.025522;0.6091632;3.638813;0.9984304;0.7497321;4.340197;1.162028;0.5602292;4.711107;1.197565;0.1959506;4.630344;1.227857;-0.4037455;5.162438;0.7635634;0.2641925;5.121845;1.43439;1.070428;4.608858;1.197564;1.324087;4.404252;1.227857;1.611354;3.555156;1.581113;0.7335773;3.212959;1.682093;0.2856735;2.572884;1.04878;0.08394185;1.290668;0.3734383;0;0;0;0.2856735;2.572884;1.04878;0.08394185;1.290668;0.3734383;0;0;0
1149327.0696;NotLabelled;NONE;16384;-0.4764543;-0.5720221;-0.6673874;0.01939058;5;-5;0;2985;-2423;1477;65536;0.6973282;0.2686981;-0.3850415;-0.5415512;10;-2;-3;4021;179;-1182;8192;0.7344795;-0.6177285;-0.04709141;0.2770083;1;7;-1;1804;3746;360;32768;0.1592798;-0.7434707;0.6426592;0.09418282;5;0;1;3813;1335;546;256;0.3365651;-0.5470914;-0.5263157;-0.5571415;2;4;1;886;3848;-916;128;-0.0734072;0.2811634;0.6301939;0.7200098;0;4;-1;-1156;3800;880;4;-0.2313019;-0.1135734;-0.7165459;-0.6481994;0;6;0;1932;3518;558;16;0.6482513;-0.5540166;0.4487534;0.267313;-1;6;1;602;3977;-1005;2;0.6385041;-0.7594689;-0.1232687;0.01800554;-1;7;2;840;3844;-668;8;0.2742382;-0.6381586;0.3393352;0.634349;4;7;0;421;3167;2410;0.6015102;2.614135;1.055396;0.6074883;3.158919;1.027172;0.6127418;3.637679;1.000343;0.755736;4.338722;1.163294;0.5675131;4.710314;1.198508;0.2029613;4.630832;1.228902;-0.3976354;5.157787;0.7599344;0.2640305;5.119533;1.437084;1.077357;4.60631;1.198562;1.330313;4.40086;1.229021;1.618782;3.552051;1.581987;0.7408742;3.209624;1.681031;0.289252;2.571721;1.050105;0.08938192;1.290772;0.3718117;0;0;0;0.289252;2.571721;1.050105;0.08938192;1.290772;0.3718117;0;0;0
1149348.8057;NotLabelled;NONE;16384;-0.4764543;-0.5720221;-0.6674262;0.01800554;5;-2;0;2929;-2385;1489;65536;0.6971012;0.2700831;-0.3864266;-0.5401662;7;-1;-2;3973;221;-1142;8192;0.7350005;-0.6177285;-0.04709141;0.2756233;0;1;-1;1822;3712;336;32768;0.1592798;-0.7422712;0.6440443;0.09418282;3;-2;1;3757;1411;510;256;0.3365651;-0.5470914;-0.5263157;-0.5571415;1;4;1;828;3882;-920;128;-0.07202215;0.2811634;0.6301939;0.7201497;0;5;0;-1040;3776;920;4;-0.232687;-0.1121884;-0.7175665;-0.6468144;0;6;0;1894;3510;560;16;0.648593;-0.5554016;0.4473684;0.265928;-3;4;0;796;3963;-873;2;0.6385041;-0.7592428;-0.1246537;0.01800554;0;7;2;862;3792;-702;8;0.2756233;-0.6389367;0.3393352;0.632964;3;7;1;437;3155;2438;0.6037447;2.614689;1.054922;0.6097218;3.15938;1.024964;0.6149743;3.638052;0.9966108;0.7586184;4.338632;1.16098;0.5707555;4.71034;1.196868;0.2061156;4.631163;1.226998;-0.3919903;5.159809;0.7567517;0.269326;5.119745;1.434139;1.080496;4.605828;1.196867;1.333238;4.400067;1.226997;1.621335;3.551157;1.580022;0.7419633;3.211997;1.677296;0.2914863;2.572258;1.049777;0.09064756;1.289954;0.374339;0;0;0;0.2914863;2.572258;1.049777;0.09064756;1.289954;0.374339;0;0;0
1149389.0827;NotLabelled;NONE;16384;-0.4778393;-0.5720221;-0.6664713;0.0166205;6;-1;-2;2825;-2299;1355;65536;0.6955584;0.2700831;-0.3891967;-0.5401662;6;-2;0;3951;327;-1084;8192;0.7338341;-0.6191136;-0.04709141;0.2756233;1;6;0;2024;3704;212;32768;0.1592798;-0.7410671;0.6454294;0.09418282;6;-2;0;3801;1397;426;256;0.333795;-0.5457063;-0.5277008;-0.5588536;1;4;-1;782;3792;-836;128;-0.06925207;0.2783934;0.6301939;0.7214963;-3;4;0;-1032;3780;760;4;-0.234072;-0.1108033;-0.7173312;-0.6468144;0;7;0;1758;3490;560;16;0.6483592;-0.5567867;0.4459834;0.265928;-2;2;0;524;3929;-987;2;0.6385041;-0.7590457;-0.1260388;0.0166205;0;9;0;794;3836;-674;8;0.2770083;-0.6404406;0.3379501;0.6315789;0;7;1;317;3179;2432;0.6077675;2.61446;1.053795;0.6137447;3.159167;1.024128;0.6189975;3.637854;0.9960302;0.7626415;4.338434;1.160399;0.5747786;4.710142;1.196287;0.2101386;4.630965;1.226417;-0.3886185;5.1579;0.7550801;0.2697381;5.119142;1.435419;1.084519;4.605631;1.196287;1.337261;4.399869;1.226417;1.625286;3.550206;1.577683;0.7458013;3.211159;1.674335;0.2955092;2.572032;1.048627;0.09126395;1.290217;0.3732804;0;0;0;0.2955092;2.572032;1.048627;0.09126395;1.290217;0.3732804;0;0;0
1149409.7698;NotLabelled;NONE;16384;-0.4778393;-0.5706371;-0.6676906;0.01523546;6;-2;-4;2971;-2369;1381;65536;0.6971631;0.2714681;-0.3891967;-0.5373961;5;-4;2;3763;247;-1096;8192;0.7342628;-0.6191136;-0.04847645;0.2742382;1;7;0;2066;3660;356;32768;0.1606648;-0.7409428;0.6454294;0.09279778;6;-2;0;3829;1489;572;256;0.333795;-0.5457063;-0.5277008;-0.5588536;1;3;-1;856;3802;-832;128;-0.06925207;0.2770083;0.6301939;0.7220292;-2;3;0;-1012;3834;726;4;-0.2354571;-0.1094183;-0.7170905;-0.6468144;1;8;0;1778;3480;566;16;0.6471672;-0.5581717;0.4459834;0.265928;-2;8;0;458;3959;-965;2;0.6385041;-0.7588435;-0.1274238;0.01523546;0;8;0;732;3846;-620;8;0.2783934;-0.6398398;0.3379501;0.6315789;0;7;1;379;3331;2476;0.6132913;2.615581;1.048462;0.6192688;3.160313;1.019253;0.6245217;3.639023;0.9915593;0.7695361;4.339158;1.156616;0.5824187;4.711217;1.192777;0.2176075;4.632756;1.222706;-0.3857458;5.159019;0.7565087;0.273764;5.116637;1.435514;1.091945;4.605666;1.19286;1.344256;4.399362;1.222892;1.633998;3.549436;1.572107;0.7550845;3.210506;1.674213;0.3010329;2.573157;1.043254;0.09396029;1.291293;0.3688623;0;0;0;0.3010329;2.573157;1.043254;0.09396029;1.291293;0.3688623;0;0;0
1149431.0122;NotLabelled;NONE;16384;-0.4778393;-0.5706371;-0.6677208;0.01385042;6;-1;-4;3079;-2385;1439;65536;0.6963881;0.2714681;-0.3905817;-0.5373961;5;-5;2;3989;233;-1092;8192;0.73417;-0.6191136;-0.04986149;0.2742382;3;5;3;2010;3584;252;32768;0.1620499;-0.7418459;0.6440443;0.09279778;4;3;-1;3669;1587;700;256;0.333795;-0.5457063;-0.5277008;-0.5588536;0;0;0;802;3840;-834;128;-0.06786703;0.2770083;0.6301939;0.7221608;0;3;0;-1012;3814;674;4;-0.2354571;-0.1080332;-0.7173005;-0.6468144;0;6;0;1706;3504;560;16;0.6486861;-0.5581717;0.4445983;0.2645429;-1;11;1;614;3965;-1001;2;0.6385041;-0.7586362;-0.1288089;0.01385042;0;3;0;702;3972;-514;8;0.2797784;-0.6399657;0.3365651;0.6315789;-1;6;1;291;3311;2510;0.6152521;2.616258;1.045726;0.6212296;3.160986;1.016463;0.6264826;3.639694;0.9887211;0.7715241;4.339829;1.153754;0.5844127;4.711888;1.189946;0.2196065;4.633427;1.219935;-0.3811421;5.157182;0.7475902;0.277301;5.119493;1.427905;1.093939;4.606337;1.189945;1.346255;4.400033;1.219935;1.633433;3.5499;1.57076;0.7542008;3.210757;1.66935;0.3029939;2.573833;1.040523;0.09765768;1.29192;0.3656947;0;0;0;0.3029939;2.573833;1.040523;0.09765768;1.29192;0.3656947;0;0;0
1149451.1958;NotLabelled;NONE;16384;-0.4778393;-0.5706371;-0.6677481;0.01246537;6;0;-4;3175;-2411;1475;65536;0.6969141;0.2728532;-0.3905817;-0.536011;5;-4;3;3941;195;-1210;8192;0.7340747;-0.6191136;-0.05124654;0.2742382;1;5;5;1974;3640;324;32768;0.1620499;-0.7418459;0.6440443;0.09279778;3;5;-1;3747;1523;688;256;0.333795;-0.5457063;-0.5277008;-0.5588536;0;-2;0;810;3884;-878;128;-0.06786703;0.2756233;0.6301939;0.7226905;1;1;0;-972;3792;672;4;-0.2368421;-0.1066482;-0.7170517;-0.6468144;0;-1;1;1716;3574;586;16;0.6490039;-0.5595568;0.4432133;0.2631579;-1;5;0;670;3971;-945;2;0.6385041;-0.7586362;-0.1288089;0.01385042;0;1;0;764;3956;-528;8;0.2797784;-0.6420546;0.33518;0.6301939;0;7;1;277;3257;2602;0.6117007;2.61724;1.045421;0.6176783;3.161984;1.016436;0.6229315;3.640706;0.9889379;0.7679564;4.340841;1.153985;0.5808414;4.712899;1.190158;0.2160322;4.634439;1.220111;-0.3849726;5.15624;0.7459313;0.2716243;5.116741;1.427926;1.090367;4.607348;1.190208;1.342681;4.401045;1.220223;1.629888;3.551937;1.573498;0.7512728;3.210815;1.670752;0.2994424;2.574819;1.040195;0.09463283;1.291553;0.3677797;0;0;0;0.2994424;2.574819;1.040195;0.09463283;1.291553;0.3677797;0;0;0
1149472.0306;NotLabelled;NONE;16384;-0.4778393;-0.5692521;-0.6689536;0.01108033;7;1;-4;3111;-2251;1561;65536;0.6979772;0.2728532;-0.3905817;-0.534626;4;-5;2;3957;131;-1156;8192;0.7339766;-0.6191136;-0.05263158;0.2742382;1;5;7;1992;3656;372;32768;0.1620499;-0.7430461;0.6426592;0.09279778;3;9;-1;3831;1517;594;256;0.33518;-0.5457063;-0.5263157;-0.5593305;-1;-4;0;802;3856;-850;128;-0.06648199;0.2756233;0.6301939;0.7228192;2;0;0;-960;3838;782;4;-0.2354571;-0.1066482;-0.7175077;-0.6468144;0;-3;0;1756;3522;588;16;0.6493127;-0.5609418;0.4418283;0.2617728;-1;4;0;686;3933;-927;2;0.6385041;-0.7586362;-0.1288089;0.01385042;0;0;0;886;3962;-610;8;0.2797784;-0.6420546;0.33518;0.6301939;0;9;2;299;3175;2602;0.6106131;2.61755;1.04477;0.6165907;3.162291;1.01573;0.6218438;3.64101;0.9881845;0.7668853;4.341146;1.153217;0.579774;4.713203;1.189408;0.2149677;4.634743;1.219398;-0.3864607;5.155072;0.7441401;0.2690015;5.118699;1.4274;1.0893;4.607653;1.189408;1.341616;4.401349;1.219398;1.628975;3.552909;1.574149;0.7503697;3.211787;1.671491;0.2983549;2.575128;1.039549;0.095338;1.291812;0.3666882;0;0;0;0.2983549;2.575128;1.039549;0.095338;1.291812;0.3666882;0;0;0
1149512.2537;NotLabelled;NONE;16384;-0.4792244;-0.5692521;-0.6679836;0.009695291;7;3;-4;3133;-2305;1571;65536;0.6990359;0.2728532;-0.3905817;-0.533241;4;-7;3;4027;97;-1128;8192;0.733876;-0.6191136;-0.05401662;0.2742382;2;4;7;1938;3706;308;32768;0.1634349;-0.7441103;0.6412742;0.09141274;2;8;-1;3875;1411;508;256;0.33518;-0.5457063;-0.5263157;-0.5593305;-2;-4;0;850;3888;-874;128;-0.06648199;0.2742382;0.6315789;0.7221369;4;0;0;-976;3844;726;4;-0.2354571;-0.1066482;-0.7175077;-0.6468144;0;-3;0;1792;3560;568;16;0.6493127;-0.5609418;0.4418283;0.2617728;-1;3;0;636;3991;-901;2;0.6385041;-0.7586362;-0.1288089;0.01385042;0;0;1;868;3920;-602;8;0.2811634;-0.6421711;0.333795;0.6301939;0;8;2;369;3197;2500;0.6105696;2.619101;1.04142;0.6165473;3.163856;1.012653;0.6218005;3.642588;0.9853477;0.7643943;4.343066;1.151063;0.5759934;4.714442;1.187565;0.2114545;4.634695;1.217411;-0.3895324;5.152107;0.7384245;0.2645352;5.117308;1.423101;1.085881;4.61065;1.187565;1.338901;4.40519;1.217411;1.625616;3.5576;1.574708;0.7469287;3.216353;1.670868;0.2983113;2.576681;1.036175;0.09527344;1.292069;0.3657968;0;0;0;0.2983113;2.576681;1.036175;0.09527344;1.292069;0.3657968;0;0;0
1149533.2899;NotLabelled;NONE;16384;-0.4792244;-0.567867;-0.6691801;0.008310249;6;5;-4;3155;-2225;1583;65536;0.6987737;0.2742382;-0.3919668;-0.5318559;2;-7;4;3951;85;-1166;8192;0.7337727;-0.6191136;-0.05540166;0.2742382;1;3;7;1906;3706;398;32768;0.1634349;-0.7453017;0.6398892;0.09141274;1;10;0;3879;1485;526;256;0.3365651;-0.5470914;-0.5263157;-0.5571415;-3;-6;2;896;3898;-848;128;-0.06648199;0.2742382;0.632964;0.7209231;3;0;0;-1076;3898;722;4;-0.2354571;-0.1066482;-0.7175077;-0.6468144;0;-1;0;1812;3516;546;16;0.6481136;-0.5623268;0.4418283;0.2617728;0;5;0;596;3957;-953;2;0.6385041;-0.7586362;-0.1288089;0.01385042;0;-2;1;920;3834;-550;8;0.2811634;-0.6435273;0.333795;0.6288089;0;5;1;455;3183;2544;0.6105698;2.61912;1.041249;0.6165464;3.163764;1.010448;0.6217985;3.642391;0.9813537;0.7643922;4.342869;1.147069;0.5759913;4.714245;1.183571;0.2114523;4.634498;1.213417;-0.3872485;5.151636;0.7312827;0.2668312;5.11841;1.416025;1.085878;4.610452;1.183571;1.338899;4.404992;1.213417;1.625427;3.558257;1.572882;0.7465497;3.216657;1.666;0.2983113;2.576681;1.036175;0.09527352;1.292069;0.3657969;0;0;0;0.2983113;2.576681;1.036175;0.09527352;1.292069;0.3657969;0;0;0
1149554.1803;NotLabelled;NONE;16384;-0.4792244;-0.5650969;-0.671521;0.008310249;4;7;-3;3133;-2221;1625;65536;0.7008734;0.2742382;-0.3919668;-0.5290859;0;-8;4;3991;39;-1304;8192;0.7331476;-0.6191136;-0.0567867;0.2756233;2;0;8;1900;3658;306;32768;0.1634349;-0.7464886;0.6385041;0.09141274;-1;12;0;3867;1367;548;256;0.3365651;-0.5470914;-0.5263157;-0.5571415;-4;-5;2;834;3934;-876;128;-0.06648199;0.2728532;0.632964;0.7214485;2;0;0;-1134;3886;784;4;-0.2368421;-0.1066482;-0.7170517;-0.6468144;0;-1;0;1810;3594;552;16;0.6496126;-0.5623268;0.4404432;0.2603878;-1;7;1;628;4019;-979;2;0.6385041;-0.7586362;-0.1288089;0.01385042;0;-2;0;890;3874;-688;8;0.2811634;-0.6442438;0.33241;0.6288089;0;7;1;213;3207;2614;0.6090583;2.619744;1.039454;0.6150336;3.164272;1.006669;0.6202844;3.64279;0.9758322;0.7639286;4.343369;1.140201;0.5760655;4.715079;1.176089;0.2114257;4.635901;1.206219;-0.3853512;5.150112;0.7185996;0.262264;5.118214;1.409522;1.085806;4.610566;1.176089;1.338548;4.404806;1.206219;1.623326;3.558926;1.569075;0.7441052;3.217198;1.658408;0.2967996;2.577287;1.034548;0.09712914;1.292675;0.3631587;0;0;0;0.2967996;2.577287;1.034548;0.09712914;1.292675;0.3631587;0;0;0
1149575.1051;NotLabelled;NONE;16384;-0.4792244;-0.5637119;-0.6726841;0.008310249;2;6;-3;3123;-2215;1551;65536;0.7019168;0.2742382;-0.3919668;-0.5277008;0;-6;3;3889;67;-1340;8192;0.7325168;-0.6191136;-0.05817174;0.2770083;3;0;7;2012;3522;296;32768;0.1620499;-0.7479724;0.6371191;0.09141274;0;12;0;3907;1391;460;256;0.3379501;-0.5470914;-0.5263157;-0.5563024;-6;-4;3;858;3912;-886;128;-0.06648199;0.2728532;0.632964;0.7214485;3;0;0;-1070;3906;718;4;-0.2368421;-0.1066482;-0.7170517;-0.6468144;1;0;2;1706;3536;584;16;0.6496126;-0.5623268;0.4404432;0.2603878;-1;9;1;656;4017;-957;2;0.6385041;-0.7586362;-0.1288089;0.01385042;0;0;0;992;3890;-666;8;0.2825485;-0.6443511;0.3310249;0.6288089;0;10;1;259;3141;2592;0.6046788;2.6181;1.044358;0.6106541;3.162625;1.011521;0.6159049;3.64114;0.9806374;0.7595519;4.34172;1.145004;0.5716895;4.713428;1.180895;0.2070502;4.634251;1.211032;-0.3904681;5.146081;0.7218183;0.2571808;5.117332;1.412848;1.08143;4.608916;1.180886;1.334172;4.403155;1.211011;1.619555;3.55888;1.577112;0.7404498;3.217024;1.667084;0.2924201;2.575642;1.039456;0.09415825;1.292326;0.3651786;0;0;0;0.2924201;2.575642;1.039456;0.09415825;1.292326;0.3651786;0;0;0
1149596.0185;NotLabelled;NONE;16384;-0.4792244;-0.5637119;-0.6726997;0.006925208;2;6;-4;3047;-2257;1483;65536;0.7019168;0.2742382;-0.3919668;-0.5277008;0;-6;3;3967;55;-1332;8192;0.7324055;-0.6191136;-0.05955679;0.2770083;5;0;7;1954;3436;348;32768;0.1620499;-0.7493177;0.6357341;0.0900277;0;11;3;3873;1351;480;256;0.3379501;-0.5470914;-0.5277008;-0.5549887;-6;-4;3;818;3822;-924;128;-0.06648199;0.2728532;0.634349;0.720231;4;0;0;-1074;3918;722;4;-0.2368421;-0.1066482;-0.7157999;-0.6481994;2;-1;3;1802;3522;570;16;0.6499034;-0.5637119;0.4390582;0.2590028;-1;4;0;606;3951;-929;2;0.6385041;-0.7586362;-0.1288089;0.01385042;0;0;0;970;3910;-618;8;0.2839335;-0.645092;0.3310249;0.6274238;0;10;2;347;3183;2576;0.6026067;2.6181;1.044938;0.6085818;3.162625;1.012101;0.6138326;3.64114;0.9812179;0.7568442;4.342184;1.144154;0.5686251;4.713775;1.179388;0.2040765;4.634293;1.20982;-0.3926442;5.144863;0.7183205;0.2536361;5.117683;1.410693;1.078469;4.609771;1.179388;1.331428;4.404321;1.20982;1.616396;3.561733;1.58011;0.7366885;3.221622;1.670803;0.2903479;2.575642;1.040037;0.09343021;1.292326;0.3653654;0;0;0;0.2903479;2.575642;1.040037;0.09343021;1.292326;0.3653654;0;0;0
1149616.2714;NotLabelled;NONE;16384;-0.4792244;-0.5623268;-0.673858;0.006925208;1;5;-4;3113;-2203;1509;65536;0.7037265;0.2742382;-0.3905817;-0.5263157;-1;-5;3;3941;27;-1212;8192;0.7318801;-0.6191136;-0.05955679;0.2783934;5;0;6;1828;3512;336;32768;0.1606648;-0.7507884;0.634349;0.0900277;-1;9;4;3765;1355;526;256;0.3379501;-0.5484765;-0.5277008;-0.55362;-6;-3;5;896;3818;-794;128;-0.06648199;0.2728532;0.634349;0.720231;3;0;-1;-1062;3852;712;4;-0.2368421;-0.1080332;-0.7155921;-0.6481994;2;-1;3;1858;3522;560;16;0.6501852;-0.5650969;0.4376731;0.2576177;-1;6;0;678;3989;-861;2;0.6385041;-0.7586097;-0.1288089;0.01523546;-1;1;0;938;3864;-630;8;0.2839335;-0.6458008;0.3296399;0.6274238;0;6;0;317;3167;2548;0.5981956;2.618905;1.044148;0.6041694;3.163306;1.009324;0.609419;3.641706;0.9766952;0.7542465;4.342863;1.137525;0.5669603;4.715014;1.171799;0.202236;4.636517;1.202675;-0.3944724;5.14536;0.7093732;0.251871;5.11818;1.401687;1.076548;4.60976;1.171799;1.32902;4.403779;1.202674;1.613784;3.562065;1.575103;0.7333847;3.223449;1.664672;0.2859367;2.576429;1.039413;0.09420097;1.292581;0.3642617;0;0;0;0.2859367;2.576429;1.039413;0.09420097;1.292581;0.3642617;0;0;0
1149637.0064;NotLabelled;NONE;16384;-0.4778393;-0.5623268;-0.6748408;0.006925208;1;6;-3;3183;-2275;1539;65536;0.7037265;0.2742382;-0.3905817;-0.5263157;-2;-5;4;3953;-15;-1198;8192;0.7317661;-0.6191136;-0.06094183;0.2783934;5;-3;6;1854;3540;330;32768;0.1606648;-0.7507884;0.634349;0.0900277;-1;9;5;3689;1323;536;256;0.3393352;-0.5484765;-0.5290859;-0.5514466;-6;-3;6;924;3776;-806;128;-0.06648199;0.2728532;0.6357341;0.7190087;6;-1;-1;-1018;3806;794;4;-0.2382271;-0.1080332;-0.7151323;-0.6481994;1;-1;4;1822;3468;616;16;0.6501852;-0.5650969;0.4376731;0.2576177;-1;6;0;712;3911;-853;2;0.6385041;-0.7586097;-0.1288089;0.01523546;-2;1;0;892;3876;-658;8;0.2839335;-0.6458008;0.3296399;0.6274238;0;4;0;351;3173;2494;0.5962071;2.617805;1.046364;0.602181;3.162206;1.01154;0.6074306;3.640606;0.9789115;0.7539631;4.34139;1.139823;0.567584;4.713993;1.174134;0.2026687;4.636381;1.204992;-0.3915446;5.144008;0.7074441;0.2544885;5.12018;1.400171;1.076913;4.607497;1.174134;1.328882;4.400897;1.204992;1.611906;3.559978;1.580527;0.7308087;3.223116;1.669855;0.2839482;2.57533;1.04163;0.09384736;1.292835;0.3634495;0;0;0;0.2839482;2.57533;1.04163;0.09384736;1.292835;0.3634495;0;0;0
1149657.0354;NotLabelled;NONE;16384;-0.4778393;-0.5595568;-0.6771395;0.006925208;3;8;0;3141;-2241;1475;65536;0.7057898;0.2742382;-0.3905817;-0.5235457;-2;-6;2;3909;33;-1190;8192;0.7300628;-0.6204986;-0.06094183;0.2797784;5;-3;3;1834;3540;302;32768;0.1592798;-0.7524155;0.632964;0.08864266;-3;6;5;3747;1249;488;256;0.3393352;-0.5514466;-0.5290859;-0.5484765;-5;-4;6;904;3796;-792;128;-0.06648199;0.2728532;0.6357341;0.7190087;4;0;-1;-1076;3768;774;4;-0.2382271;-0.1080332;-0.7151323;-0.6481994;0;0;3;1832;3458;688;16;0.6489788;-0.566482;0.4376731;0.2576177;0;5;0;718;3901;-791;2;0.6385041;-0.7586097;-0.1288089;0.01523546;-2;0;1;778;3908;-644;8;0.2853186;-0.6451901;0.3296399;0.6274238;0;4;0;343;3231;2518;0.5927827;2.616512;1.049602;0.5987551;3.160783;1.012789;0.6040033;3.63906;0.978412;0.7517444;4.340397;1.135772;0.5659559;4.71344;1.168463;0.2009571;4.636525;1.200067;-0.3957482;5.14272;0.7040457;0.2489733;5.118891;1.397993;1.075126;4.606184;1.168462;1.326818;4.39936;1.200067;1.610015;3.559321;1.577439;0.7287504;3.22246;1.665101;0.2805236;2.57402;1.045035;0.09315972;1.292836;0.3636252;0;0;0;0.2805236;2.57402;1.045035;0.09315972;1.292836;0.3636252;0;0;0
1149677.031;NotLabelled;NONE;16384;-0.4792244;-0.5581717;-0.6773037;0.006925208;5;8;0;3041;-2217;1473;65536;0.7063264;0.2728532;-0.3905817;-0.5235457;0;-7;1;3871;75;-1252;8192;0.7288833;-0.6218836;-0.06094183;0.2797784;5;-7;0;1800;3636;306;32768;0.1565097;-0.7529966;0.632964;0.08864266;-6;0;5;3701;1301;482;256;0.3393352;-0.5514919;-0.5304709;-0.5470914;-4;-5;6;820;3818;-830;128;-0.06648199;0.2728532;0.6357341;0.7190087;5;-1;-1;-994;3722;774;4;-0.2382271;-0.1080332;-0.7151323;-0.6481994;0;-1;2;1822;3454;624;16;0.650458;-0.566482;0.4362881;0.2562327;0;2;-1;822;3913;-867;2;0.6385041;-0.7586097;-0.1288089;0.01523546;-1;0;1;816;3842;-656;8;0.2853186;-0.6465341;0.3296399;0.6260388;0;-1;-1;423;3187;2408;0.5896634;2.617096;1.048382;0.5956359;3.161367;1.011569;0.6008841;3.639644;0.977192;0.7523144;4.340154;1.134729;0.5684945;4.714165;1.167501;0.2030933;4.639167;1.199069;-0.3910405;5.142936;0.6975214;0.2491122;5.12223;1.395786;1.077091;4.604223;1.167501;1.327687;4.396068;1.199068;1.605773;3.556294;1.580808;0.7227234;3.222811;1.663262;0.2774043;2.574605;1.043815;0.09453153;1.29342;0.3611851;0;0;0;0.2774043;2.574605;1.043815;0.09453153;1.29342;0.3611851;0;0;0
1149698.0734;NotLabelled;NONE;16384;-0.4792244;-0.5567867;-0.6784428;0.006925208;6;7;1;3051;-2237;1499;65536;0.7073509;0.2728532;-0.3905817;-0.5221606;0;-8;0;3839;83;-1262;8192;0.7284647;-0.6218836;-0.05955679;0.2811634;4;-8;-2;1908;3624;298;32768;0.1551246;-0.7532831;0.632964;0.08864266;-7;1;5;3841;1319;504;256;0.3393352;-0.5528624;-0.5304709;-0.5457063;-3;-4;6;952;3758;-892;128;-0.06648199;0.2728532;0.6371191;0.7177817;4;-2;-2;-968;3704;774;4;-0.2382271;-0.1094183;-0.7149217;-0.6481994;0;-2;0;1804;3492;526;16;0.6489788;-0.566482;0.4376731;0.2576177;0;0;-1;558;3953;-911;2;0.6398892;-0.7574418;-0.1288089;0.01523546;-1;-1;0;654;3814;-680;8;0.2853186;-0.6451901;0.3296399;0.6274238;-1;-1;-1;305;3261;2438;0.5866741;2.616765;1.050333;0.5926465;3.161036;1.01352;0.5978947;3.639313;0.9791431;0.7512265;4.339882;1.134564;0.5683905;4.714458;1.166371;0.2028175;4.640493;1.198382;-0.3892028;5.144468;0.6945477;0.2521971;5.122187;1.391618;1.076703;4.603208;1.166371;1.326782;4.394499;1.198383;1.601692;3.554204;1.581271;0.7175722;3.224497;1.667362;0.274415;2.574274;1.045766;0.09154963;1.293089;0.3631346;0;0;0;0.274415;2.574274;1.045766;0.09154963;1.293089;0.3631346;0;0;0
1149718.3778;NotLabelled;NONE;16384;-0.4806094;-0.5554016;-0.6785983;0.006925208;7;6;3;3123;-2259;1541;65536;0.7083712;0.2728532;-0.3905817;-0.5207756;2;-8;0;3863;55;-1342;8192;0.7273921;-0.6232687;-0.05817174;0.2811634;4;-7;-3;1978;3572;230;32768;0.1537396;-0.7537286;0.632964;0.08725762;-6;-1;6;3851;1331;384;256;0.3393352;-0.5542261;-0.5304709;-0.5443213;-3;-3;6;908;3770;-780;128;-0.06648199;0.2728532;0.6371191;0.7177817;4;-1;-2;-1056;3788;808;4;-0.2382271;-0.1094183;-0.7149217;-0.6481994;1;-3;0;1840;3494;562;16;0.6499107;-0.566482;0.4362881;0.2576177;0;3;0;650;3883;-867;2;0.6398892;-0.7574418;-0.1288089;0.01523546;0;-2;0;668;3880;-642;8;0.2853186;-0.6451901;0.3296399;0.6274238;-1;0;-1;277;3293;2520;0.5868676;2.615748;1.051506;0.5928385;3.15988;1.0127;0.5980853;3.638028;0.9765716;0.7531301;4.338201;1.132076;0.5712121;4.71322;1.163922;0.2054581;4.640148;1.195916;-0.3847986;5.142907;0.6888073;0.2544775;5.12218;1.387873;1.07925;4.600725;1.163922;1.328816;4.391399;1.195916;1.602535;3.551023;1.579481;0.7176254;3.223209;1.664693;0.2746083;2.573239;1.047107;0.09342492;1.29342;0.3614729;0;0;0;0.2746083;2.573239;1.047107;0.09342492;1.29342;0.3614729;0;0;0
1149740.551;NotLabelled;NONE;16384;-0.4819945;-0.5554016;-0.6776152;0.006925208;7;5;2;3035;-2277;1571;65536;0.7086231;0.2728532;-0.3919668;-0.5193906;4;-7;0;3889;111;-1374;8192;0.7273921;-0.6232687;-0.05817174;0.2811634;3;-7;-2;1942;3642;248;32768;0.1523546;-0.752845;0.634349;0.08725762;-5;-1;6;3863;1445;442;256;0.3393352;-0.555583;-0.5304709;-0.5429363;-3;-4;6;920;3812;-888;128;-0.06648199;0.2742382;0.6371191;0.7172536;2;-1;-1;-1078;3728;768;4;-0.2382271;-0.1094183;-0.7149217;-0.6481994;1;-4;1;1766;3386;520;16;0.6499107;-0.566482;0.4362881;0.2576177;0;1;-1;726;4021;-933;2;0.6398892;-0.757676;-0.1274238;0.01523546;-1;-3;0;674;3952;-600;8;0.2853186;-0.6451901;0.3296399;0.6274238;-2;1;-1;233;3269;2522;0.580249;2.616208;1.051548;0.5862198;3.160341;1.012742;0.5914667;3.638489;0.9766135;0.7482191;4.338263;1.132203;0.5672178;4.713721;1.164087;0.2012854;4.641541;1.196063;-0.3856868;5.144495;0.6853495;0.2514636;5.125321;1.386398;1.074979;4.599984;1.164087;1.324032;4.390045;1.196063;1.593702;3.548274;1.579435;0.7072426;3.223968;1.661915;0.2679897;2.5737;1.047149;0.08889494;1.293881;0.3609661;0;0;0;0.2679897;2.5737;1.047149;0.08889494;1.293881;0.3609661;0;0;0
1149761.0229;NotLabelled;NONE;16384;-0.4833795;-0.5526316;-0.678905;0.005540166;7;3;3;3023;-2233;1609;65536;0.7088693;0.2728532;-0.3933518;-0.5180055;5;-6;-2;3895;121;-1434;8192;0.7263127;-0.6246537;-0.0567867;0.2811634;3;-5;-2;2034;3650;228;32768;0.1509695;-0.7531239;0.634349;0.08725762;-4;-1;6;3761;1379;522;256;0.3393352;-0.5556106;-0.5318559;-0.5415512;-2;-4;5;872;3896;-892;128;-0.06648199;0.2756233;0.6371191;0.7167225;4;-5;-2;-1072;3838;732;4;-0.2368421;-0.1108033;-0.7151685;-0.6481994;1;-5;0;1918;3482;590;16;0.6499107;-0.566482;0.4362881;0.2576177;1;1;-1;630;3943;-911;2;0.6398892;-0.757676;-0.1274238;0.01523546;0;-2;0;846;3926;-610;8;0.2853186;-0.6458958;0.3282548;0.6274238;-3;0;-1;205;3165;2662;0.5770662;2.616208;1.052362;0.583037;3.160344;1.013606;0.588284;3.638495;0.9775229;0.7467389;4.337866;1.133198;0.5666529;4.713763;1.165121;0.2005447;4.64247;1.197079;-0.3825774;5.146839;0.6833575;0.2506191;5.127456;1.387973;1.074135;4.598787;1.165121;1.322674;4.388237;1.197079;1.591186;3.546465;1.581262;0.7038609;3.224164;1.662276;0.2648069;2.5737;1.047959;0.08779789;1.293881;0.3612346;0;0;0;0.2648069;2.5737;1.047959;0.08779789;1.293881;0.3612346;0;0;0
1149782.2336;NotLabelled;NONE;16384;-0.4847645;-0.5512465;-0.6790434;0.005540166;7;3;3;3005;-2185;1649;65536;0.7091102;0.2728532;-0.3947368;-0.5166205;5;-6;-2;3857;1;-1446;8192;0.7245806;-0.6260388;-0.0567867;0.2825485;4;-4;0;2076;3638;292;32768;0.1495845;-0.7534003;0.634349;0.08725762;-3;3;4;3823;1459;552;256;0.3393352;-0.5569572;-0.5318559;-0.5401662;-2;-5;5;918;3810;-856;128;-0.06648199;0.2756233;0.6371191;0.7167225;1;-2;-3;-1038;3842;820;4;-0.2368421;-0.1108033;-0.7151685;-0.6481994;1;-4;0;1958;3494;590;16;0.6499107;-0.566482;0.4362881;0.2576177;0;3;0;696;4039;-947;2;0.6398892;-0.7578785;-0.1260388;0.0166205;-1;-6;2;768;3900;-606;8;0.2825485;-0.6457666;0.3282548;0.6288089;-2;-6;-3;243;3289;2714;0.5789616;2.61616;1.051963;0.5849326;3.160299;1.01326;0.5901794;3.638454;0.9772218;0.7505322;4.337862;1.130775;0.5714343;4.714311;1.161727;0.2051645;4.644053;1.194123;-0.37622;5.145586;0.6756783;0.2551545;5.126;1.381922;1.078619;4.59803;1.161737;1.326636;4.386935;1.194146;1.59196;3.543818;1.577593;0.7041172;3.223413;1.660429;0.2667022;2.573652;1.047556;0.08780113;1.293881;0.3612332;0;0;0;0.2667022;2.573652;1.047556;0.08780113;1.293881;0.3612332;0;0;0
1149803.0128;NotLabelled;NONE;16384;-0.4861496;-0.5498615;-0.6791762;0.005540166;6;3;2;2985;-2223;1771;65536;0.7093455;0.2728532;-0.3961219;-0.5152354;4;-4;-2;3805;65;-1460;8192;0.7245806;-0.6260388;-0.0567867;0.2825485;3;-3;0;2072;3692;336;32768;0.1495845;-0.7534003;0.634349;0.08725762;-3;2;3;3821;1475;612;256;0.3393352;-0.5569572;-0.5318559;-0.5401662;-2;-6;5;876;3836;-884;128;-0.06648199;0.2756233;0.6371191;0.7167225;2;-3;-3;-1064;3846;780;4;-0.2368421;-0.1121884;-0.7136943;-0.6495845;2;-3;1;1980;3492;572;16;0.650458;-0.566482;0.4362881;0.2562327;1;1;-1;754;3985;-905;2;0.6398892;-0.7578469;-0.1260388;0.01800554;0;-8;2;788;3948;-594;8;0.2825485;-0.6444151;0.3282548;0.6301939;-1;0;-3;159;3289;2600;0.5758135;2.61616;1.052759;0.5817845;3.1603;1.014056;0.5870314;3.638454;0.9780177;0.7490855;4.337451;1.131654;0.5709043;4.714332;1.162649;0.2044645;4.644962;1.195035;-0.3731883;5.14672;0.6726495;0.2542209;5.126933;1.382412;1.077805;4.596816;1.162648;1.325307;4.385115;1.195034;1.586521;3.542284;1.581917;0.6979159;3.223777;1.663897;0.2635543;2.573653;1.048352;0.0867155;1.293881;0.3614951;0;0;0;0.2635543;2.573653;1.048352;0.0867155;1.293881;0.3614951;0;0;0
1149823.0599;NotLabelled;NONE;16384;-0.4861496;-0.5498615;-0.6791762;0.005540166;4;5;2;3017;-2207;1815;65536;0.7095754;0.2728532;-0.3975069;-0.5138504;3;-6;-2;3915;91;-1372;8192;0.7241463;-0.6260388;-0.05540166;0.2839335;2;-4;0;2044;3726;242;32768;0.1481994;-0.7548375;0.632964;0.08725762;-2;3;2;3829;1483;602;256;0.3407202;-0.5587712;-0.5304709;-0.5387812;-2;-7;5;898;3824;-868;128;-0.06648199;0.2770083;0.6385041;0.7149538;4;-4;-3;-1032;3836;722;4;-0.2368421;-0.1121884;-0.7136943;-0.6495845;1;-3;1;1858;3512;502;16;0.6513849;-0.566482;0.434903;0.2562327;0;0;-2;658;3955;-983;2;0.6398892;-0.7580417;-0.1246537;0.01939058;0;-8;3;984;3956;-580;8;0.2825485;-0.6444151;0.3282548;0.6301939;0;2;-2;389;3311;2528;0.5713537;2.614504;1.058325;0.5773246;3.158644;1.019621;0.5825715;3.636798;0.9835832;0.7446256;4.335795;1.13722;0.5664445;4.712676;1.168214;0.2000045;4.643307;1.2006;-0.3754735;5.14523;0.6759798;0.2500871;5.125251;1.387367;1.073345;4.59516;1.168214;1.320847;4.383459;1.200599;1.582061;3.540628;1.587482;0.6934562;3.222121;1.669462;0.2590944;2.571997;1.053918;0.0871378;1.293089;0.3642183;0;0;0;0.2590944;2.571997;1.053918;0.0871378;1.293089;0.3642183;0;0;0
1149844.0246;NotLabelled;NONE;16384;-0.4875346;-0.5484765;-0.6793032;0.005540166;2;7;1;2937;-2225;1795;65536;0.7101064;0.2714681;-0.3975069;-0.5138504;0;-5;-1;3875;141;-1350;8192;0.7241463;-0.6260388;-0.05540166;0.2839335;2;-3;0;2022;3708;252;32768;0.1481994;-0.7548375;0.632964;0.08725762;-3;2;1;3913;1413;608;256;0.3407202;-0.5601034;-0.5304709;-0.5373961;-2;-8;5;962;3912;-870;128;-0.06648199;0.2783934;0.6385041;0.7144157;3;-6;-4;-1134;3852;770;4;-0.2368421;-0.1135734;-0.7134752;-0.6495845;1;-5;1;1856;3474;508;16;0.6513849;-0.566482;0.434903;0.2562327;0;3;-2;474;4059;-969;2;0.6398892;-0.7580051;-0.1246537;0.02077562;0;-4;3;1072;3950;-642;8;0.2825485;-0.6444151;0.3282548;0.6301939;-1;0;-2;415;3177;2482;0.5622734;2.614977;1.058694;0.5682429;3.158975;1.018044;0.5734884;3.636997;0.9802955;0.7355033;4.335858;1.134596;0.5572731;4.712673;1.166092;0.190863;4.643205;1.198601;-0.378931;5.147014;0.6696014;0.2409318;5.126842;1.385954;1.064194;4.595246;1.165691;1.311751;4.383553;1.197716;1.569055;3.539263;1.584037;0.679587;3.222559;1.663621;0.250014;2.572454;1.054451;0.08176731;1.293547;0.3638369;0;0;0;0.250014;2.572454;1.054451;0.08176731;1.293547;0.3638369;0;0;0
1149865.0162;NotLabelled;NONE;16384;-0.4875346;-0.5470914;-0.6804192;0.005540166;0;6;0;2981;-2237;1815;65536;0.7111066;0.2714681;-0.3975069;-0.5124654;-1;-5;0;3903;119;-1460;8192;0.7241463;-0.6260388;-0.05540166;0.2839335;1;-3;2;2074;3666;272;32768;0.1481994;-0.7548375;0.632964;0.08725762;-2;1;0;3771;1405;650;256;0.3407202;-0.561429;-0.5304709;-0.536011;-3;-7;5;958;3882;-800;128;-0.06648199;0.2797784;0.6385041;0.7138744;3;-5;-4;-1112;3924;684;4;-0.2368421;-0.1135734;-0.7134752;-0.6495845;1;-5;1;1910;3522;472;16;0.6523075;-0.566482;0.433518;0.2562327;0;7;-1;552;4033;-951;2;0.6398892;-0.7580051;-0.1246537;0.02077562;-1;-2;2;962;3954;-652;8;0.2825485;-0.6444151;0.3282548;0.6301939;0;1;-1;335;3167;2496;0.5586215;2.613601;1.062095;0.5645909;3.157602;1.021496;0.5698364;3.635628;0.9837931;0.7334161;4.334076;1.138308;0.5560728;4.711318;1.169703;0.189469;4.642734;1.201904;-0.3789791;5.144817;0.6698256;0.2394329;5.123057;1.387384;1.062708;4.592665;1.169703;1.309725;4.38037;1.201904;1.567649;3.537462;1.590824;0.6778855;3.220759;1.667027;0.246362;2.571078;1.057847;0.08038376;1.293547;0.3641441;0;0;0;0.246362;2.571078;1.057847;0.08038376;1.293547;0.3641441;0;0;0
1149885.1818;NotLabelled;NONE;16384;-0.4875346;-0.5457063;-0.6815024;0.008310249;-3;6;-1;2891;-2175;1801;65536;0.7116338;0.2700831;-0.3975069;-0.5124654;-5;-2;0;3919;95;-1554;8192;0.7236017;-0.6260388;-0.05540166;0.2853186;1;-7;4;1986;3678;184;32768;0.1468144;-0.7549468;0.632964;0.08864266;-4;3;0;3855;1429;706;256;0.3421052;-0.5619072;-0.5304709;-0.534626;-4;-8;5;892;3844;-780;128;-0.06648199;0.2797784;0.6385041;0.7138744;3;-6;-4;-1062;3860;666;4;-0.2354571;-0.1135734;-0.7126709;-0.6509695;2;-4;1;1878;3502;472;16;0.6523075;-0.566482;0.433518;0.2562327;0;3;-2;736;4005;-951;2;0.6398892;-0.7579658;-0.1246537;0.02216066;-2;-1;1;874;3886;-622;8;0.2839335;-0.6445103;0.3268698;0.6301939;-1;6;-2;213;3213;2502;0.5520232;2.614052;1.061959;0.5579927;3.158057;1.021413;0.5632383;3.636087;0.9837546;0.7284964;4.334119;1.138362;0.552063;4.711784;1.169793;0.1852931;4.644082;1.201968;-0.3800571;5.144874;0.6653905;0.2361877;5.124671;1.384856;1.05841;4.591908;1.169803;1.304913;4.379014;1.201991;1.56047;3.536142;1.592548;0.6704803;3.219439;1.666059;0.2397638;2.571529;1.057708;0.07588489;1.293999;0.363505;0;0;0;0.2397638;2.571529;1.057708;0.07588489;1.293999;0.363505;0;0;0
1149906.0928;NotLabelled;NONE;16384;-0.4875346;-0.5443213;-0.6826091;0.008310249;-4;7;-2;2895;-2201;1815;65536;0.7121578;0.2686981;-0.3975069;-0.5124654;-5;-1;1;3803;119;-1530;8192;0.7230541;-0.6260388;-0.05540166;0.2867036;1;-5;5;2056;3660;236;32768;0.1454294;-0.7563735;0.6315789;0.08864266;-5;3;0;3787;1377;592;256;0.3421052;-0.5632218;-0.5304709;-0.533241;-4;-8;4;928;3810;-772;128;-0.06648199;0.2811634;0.6385041;0.71333;3;-5;-4;-1000;3828;652;4;-0.2354571;-0.1149584;-0.7124487;-0.6509695;3;-3;2;1928;3478;462;16;0.6523075;-0.566482;0.433518;0.2562327;0;0;-2;706;3957;-945;2;0.6398892;-0.7579658;-0.1246537;0.02216066;-1;-2;1;864;3864;-630;8;0.2839335;-0.6445103;0.3268698;0.6301939;-1;3;-2;345;3169;2468;0.5450507;2.615872;1.060195;0.5510203;3.159877;1.019648;0.5562658;3.637907;0.9819901;0.7215765;4.336242;1.135166;0.5451463;4.713963;1.165951;0.1783941;4.646311;1.198433;-0.3866215;5.149409;0.663664;0.2286971;5.127611;1.383875;1.051497;4.594102;1.16595;1.298022;4.381277;1.198432;1.553794;3.539182;1.590519;0.6637797;3.222768;1.664977;0.2327915;2.573349;1.055943;0.07477307;1.293999;0.3637356;0;0;0;0.2327915;2.573349;1.055943;0.07477307;1.293999;0.3637356;0;0;0
1149927.2678;NotLabelled;NONE;16384;-0.4875346;-0.5443213;-0.6825909;0.009695291;-7;7;-1;2861;-2199;1813;65536;0.7129292;0.2686981;-0.3961219;-0.5124654;-7;0;2;3705;39;-1504;8192;0.7225033;-0.6260388;-0.05540166;0.2880886;0;-5;4;2054;3648;182;32768;0.1454294;-0.7563735;0.6315789;0.08864266;-4;3;-1;3761;1383;602;256;0.3434903;-0.5636882;-0.5304709;-0.5318559;-3;-10;4;994;3754;-760;128;-0.06786703;0.2811634;0.6398892;0.7119572;3;-6;-4;-1048;3810;610;4;-0.2368421;-0.1149584;-0.7107207;-0.6523545;3;0;3;1892;3490;504;16;0.6532259;-0.566482;0.432133;0.2562327;0;0;-2;780;3931;-875;2;0.6398892;-0.7581506;-0.1232687;0.0235457;-1;-2;1;844;3880;-604;8;0.2839335;-0.6431531;0.3268698;0.6315789;-1;-1;-3;363;3171;2596;0.5422279;2.614494;1.063352;0.5481973;3.158504;1.022858;0.553443;3.636537;0.9852464;0.7204302;4.334454;1.13851;0.5449091;4.712595;1.169334;0.177994;4.645822;1.201798;-0.3855707;5.147685;0.6643435;0.2288639;5.124283;1.385259;1.05097;4.591515;1.169334;1.296981;4.378093;1.201798;1.55181;3.536815;1.596244;0.6611259;3.222222;1.670406;0.2299684;2.571972;1.059096;0.07368485;1.293999;0.3639569;0;0;0;0.2299684;2.571972;1.059096;0.07368485;1.293999;0.3639569;0;0;0
1149948.072;NotLabelled;NONE;16384;-0.4861496;-0.5443213;-0.683557;0.01108033;-9;6;-2;2867;-2159;1835;65536;0.7134497;0.267313;-0.3961219;-0.5124654;-9;2;1;3767;53;-1520;8192;0.7219495;-0.6260388;-0.05540166;0.2894737;0;-6;3;2000;3594;166;32768;0.1454294;-0.7562099;0.6315789;0.0900277;-5;2;-2;3773;1327;674;256;0.3434903;-0.5649917;-0.5304709;-0.5304709;-3;-11;4;966;3748;-856;128;-0.06786703;0.2825485;0.6398892;0.7114087;2;-7;-4;-1022;3750;682;4;-0.2368421;-0.1149584;-0.7107207;-0.6523545;1;-2;2;1870;3478;516;16;0.6532259;-0.566482;0.432133;0.2562327;0;-1;-3;692;3929;-867;2;0.6412742;-0.7569794;-0.1232687;0.0235457;-1;-1;2;818;3854;-572;8;0.2839335;-0.6431531;0.3268698;0.6315789;-1;0;-2;163;3181;2564;0.5297679;2.614079;1.065816;0.5357355;3.157914;1.02305;0.5409794;3.635787;0.9834419;0.70816;4.334005;1.135112;0.5326701;4.712199;1.165451;0.1658037;4.645479;1.198565;-0.395228;5.151333;0.6622037;0.2195778;5.129672;1.382857;1.038734;4.591136;1.164968;1.284798;4.377785;1.197497;1.538159;3.535677;1.591119;0.6473198;3.221085;1.663403;0.2175082;2.57154;1.061752;0.06953648;1.294444;0.3631898;0;0;0;0.2175082;2.57154;1.061752;0.06953648;1.294444;0.3631898;0;0;0
