SEP=;
index;label;segment;RightUpperArm_boneIndex;RightUpperArm_quat9x_w;RightUpperArm_quat9x_x;RightUpperArm_quat9x_y;RightUpperArm_quat9x_z;RightUpperArm_gyroscope_x;RightUpperArm_gyroscope_y;RightUpperArm_gyroscope_z;RightUpperArm_accelerometer_x;RightUpperArm_accelerometer_y;RightUpperArm_accelerometer_z;RightLowerArm_boneIndex;RightLowerArm_quat9x_w;RightLowerArm_quat9x_x;RightLowerArm_quat9x_y;RightLowerArm_quat9x_z;RightLowerArm_gyroscope_x;RightLowerArm_gyroscope_y;RightLowerArm_gyroscope_z;RightLowerArm_accelerometer_x;RightLowerArm_accelerometer_y;RightLowerArm_accelerometer_z;LeftUpperArm_boneIndex;LeftUpperArm_quat9x_w;LeftUpperArm_quat9x_x;LeftUpperArm_quat9x_y;LeftUpperArm_quat9x_z;LeftUpperArm_gyroscope_x;LeftUpperArm_gyroscope_y;LeftUpperArm_gyroscope_z;LeftUpperArm_accelerometer_x;LeftUpperArm_accelerometer_y;LeftUpperArm_accelerometer_z;LeftLowerArm_boneIndex;LeftLowerArm_quat9x_w;LeftLowerArm_quat9x_x;LeftLowerArm_quat9x_y;LeftLowerArm_quat9x_z;LeftLowerArm_gyroscope_x;LeftLowerArm_gyroscope_y;LeftLowerArm_gyroscope_z;LeftLowerArm_accelerometer_x;LeftLowerArm_accelerometer_y;LeftLowerArm_accelerometer_z;Chest_boneIndex;Chest_quat9x_w;Chest_quat9x_x;Chest_quat9x_y;Chest_quat9x_z;Chest_gyroscope_x;Chest_gyroscope_y;Chest_gyroscope_z;Chest_accelerometer_x;Chest_accelerometer_y;Chest_accelerometer_z;Spine_boneIndex;Spine_quat9x_w;Spine_quat9x_x;Spine_quat9x_y;Spine_quat9x_z;Spine_gyroscope_x;Spine_gyroscope_y;Spine_gyroscope_z;Spine_accelerometer_x;Spine_accelerometer_y;Spine_accelerometer_z;RightUpperLeg_boneIndex;RightUpperLeg_quat9x_w;RightUpperLeg_quat9x_x;RightUpperLeg_quat9x_y;RightUpperLeg_quat9x_z;RightUpperLeg_gyroscope_x;RightUpperLeg_gyroscope_y;RightUpperLeg_gyroscope_z;RightUpperLeg_accelerometer_x;RightUpperLeg_accelerometer_y;RightUpperLeg_accelerometer_z;RightLowerLeg_boneIndex;RightLowerLeg_quat9x_w;RightLowerLeg_quat9x_x;RightLowerLeg_quat9x_y;RightLowerLeg_quat9x_z;RightLowerLeg_gyroscope_x;RightLowerLeg_gyroscope_y;RightLowerLeg_gyroscope_z;RightLowerLeg_accelerometer_x;RightLowerLeg_accelerometer_y;RightLowerLeg_accelerometer_z;LeftUpperLeg_boneIndex;LeftUpperLeg_quat9x_w;LeftUpperLeg_quat9x_x;LeftUpperLeg_quat9x_y;LeftUpperLeg_quat9x_z;LeftUpperLeg_gyroscope_x;LeftUpperLeg_gyroscope_y;LeftUpperLeg_gyroscope_z;LeftUpperLeg_accelerometer_x;LeftUpperLeg_accelerometer_y;LeftUpperLeg_accelerometer_z;LeftLowerLeg_boneIndex;LeftLowerLeg_quat9x_w;LeftLowerLeg_quat9x_x;LeftLowerLeg_quat9x_y;LeftLowerLeg_quat9x_z;LeftLowerLeg_gyroscope_x;LeftLowerLeg_gyroscope_y;LeftLowerLeg_gyroscope_z;LeftLowerLeg_accelerometer_x;LeftLowerLeg_accelerometer_y;LeftLowerLeg_accelerometer_z;pelvis_x;pelvis_y;pelvis_z;lowerSpine_x;lowerSpine_y;lowerSpine_z;middleSpine_x;middleSpine_y;middleSpine_z;upperSpine_x;upperSpine_y;upperSpine_z;rightClavicle_x;rightClavicle_y;rightClavicle_z;rightShoulder_x;rightShoulder_y;rightShoulder_z;rightElbow_x;rightElbow_y;rightElbow_z;rightWrist_x;rightWrist_y;rightWrist_z;leftClavicle_x;leftClavicle_y;leftClavicle_z;leftShoulder_x;leftShoulder_y;leftShoulder_z;leftElbow_x;leftElbow_y;leftElbow_z;leftWrist_x;leftWrist_y;leftWrist_z;rightHip_x;rightHip_y;rightHip_z;rightKnee_x;rightKnee_y;rightKnee_z;rightAnkle_x;rightAnkle_y;rightAnkle_z;leftHip_x;leftHip_y;leftHip_z;leftKnee_x;leftKnee_y;leftKnee_z;leftAnkle_x;leftAnkle_y;leftAnkle_z;
825420.2616;NotLabelled;NONE;16384;-0.400277;-0.1357341;-0.8791229;-0.2202216;-160;21;63;1160;1660;3185;65536;0.9533021;0.1066482;0.1717452;0.2243767;-37;348;30;-1875;-151;-1127;8192;0.7083008;-0.700831;0.08033241;-0.02631579;-9;80;81;-100;5519;1051;32768;0.5609418;-0.6658954;0.4750692;-0.1274238;-40;18;85;6210;4315;374;256;0.4113573;-0.533241;-0.545731;-0.4986149;24;-1;18;711;4072;-563;128;-0.3047091;0.5138504;0.5152354;0.6145263;3;7;-14;-639;3861;1090;4;-0.2756233;-0.06371191;-0.7018527;-0.6537396;-1;-4;0;1473;3530;650;16;0.5989837;-0.5706371;0.4598338;0.3227147;-2;-24;-6;1179;3858;-316;2;0.6689751;-0.7294332;-0.134349;-0.04847645;2;2;0;749;3510;-297;8;0.3587258;-0.6193769;0.3601108;0.5983379;-2;-31;-3;339;3065;1939;0.48247;2.652631;0.9353352;0.4884527;3.197825;0.9540476;0.4937124;3.677118;0.9684744;0.6139442;4.399623;1.013132;0.4125776;4.765501;0.994915;0.05229595;4.679671;1.049408;-0.5281301;4.330555;0.4173065;0.3002143;4.476778;-0.01888296;0.9258636;4.680089;0.9949142;1.187258;4.490808;1.049407;1.170672;3.542106;0.8821819;0.8035848;2.932655;0.2564002;0.1702187;2.610842;0.926124;0.1158658;1.319543;0.2402299;0;0;0;0.1702187;2.610842;0.926124;0.1158658;1.319543;0.2402299;0;0;0
825441.0725;NotLabelled;NONE;16384;-0.4044321;-0.1426593;-0.8820117;-0.1952908;-165;42;51;1278;1398;2991;65536;0.9633459;0.09279778;0.1786704;0.1772853;-19;313;32;-441;-369;-3747;8192;0.7115259;-0.699446;0.06232687;-0.02493075;-31;74;102;-674;5495;1517;32768;0.5512465;-0.663896;0.4875346;-0.132964;-20;-21;110;5912;5961;-1934;256;0.4085872;-0.5373961;-0.5437325;-0.4986149;24;-2;14;737;4092;-499;128;-0.3033241;0.5138504;0.5166205;0.6140485;11;13;-13;-571;3949;1036;4;-0.2742382;-0.06371191;-0.702395;-0.6537396;0;-5;-2;1589;3606;766;16;0.5990525;-0.567867;0.4612188;0.3254848;-1;-29;-10;1167;3886;-468;2;0.66759;-0.730445;-0.1357341;-0.04847645;4;1;0;735;3558;-329;8;0.3545706;-0.6179987;0.3642659;0.599723;-1;-39;-5;107;3175;1973;0.4899192;2.652932;0.930262;0.4959023;3.198143;0.9484482;0.5011621;3.67745;0.9624124;0.6269426;4.39872;1.011519;0.4284367;4.766252;0.9952943;0.06744406;4.682895;1.048913;-0.5362674;4.424248;0.3954889;0.296409;4.543814;-0.04057351;0.941045;4.676863;0.9952933;1.200908;4.485238;1.048912;1.18832;3.532556;0.9056828;0.8064955;2.939373;0.2731248;0.1776678;2.611133;0.9210945;0.1225458;1.319834;0.2352612;0;0;0;0.1776678;2.611133;0.9210945;0.1225458;1.319834;0.2352612;0;0;0
825462.0665;NotLabelled;NONE;16384;-0.4085872;-0.1468144;-0.8848443;-0.1689751;-164;43;49;1428;1068;2591;65536;0.9694569;0.08310249;0.1855956;0.1371191;0;252;29;-43;-451;-3953;8192;0.7157892;-0.6966759;0.04432133;-0.01800554;-30;21;124;-410;5549;705;32768;0.5415512;-0.6628014;0.4958449;-0.1468144;9;35;132;6442;4553;-2312;256;0.4058172;-0.5401662;-0.5417868;-0.5;24;-3;11;593;4284;-409;128;-0.3033241;0.5124654;0.5207756;0.6116915;20;13;-13;-497;4005;984;4;-0.2742382;-0.06371191;-0.7036816;-0.6523545;-5;-4;0;1883;3606;956;16;0.5970204;-0.566482;0.4626039;0.3296399;-2;-28;-12;649;3928;-596;2;0.66759;-0.730445;-0.1357341;-0.04847645;3;4;1;717;3778;-169;8;0.3518005;-0.6160665;0.365651;0.602493;-3;-29;-4;-193;3151;2105;0.4829164;2.654518;0.9293219;0.4888995;3.199749;0.946921;0.4941595;3.67907;0.9603688;0.6236257;4.399202;1.016155;0.4270683;4.7679;1.002923;0.06555907;4.685956;1.055224;-0.5487205;4.473099;0.3951622;0.2863207;4.58241;-0.03906605;0.9392021;4.675831;1.002923;1.197974;4.482374;1.055223;1.196972;3.526172;0.9371005;0.7993081;2.955439;0.2937394;0.1706646;2.61271;0.9202031;0.116528;1.320115;0.2367362;0;0;0;0.1706646;2.61271;0.9202031;0.116528;1.320115;0.2367362;0;0;0
825483.2161;NotLabelled;NONE;16384;-0.4127424;-0.1551246;-0.8859071;-0.1440443;-157;13;46;858;896;2425;65536;0.9730743;0.07617728;0.1911357;0.1038781;2;212;30;-1111;-781;-3601;8192;0.7196394;-0.6939058;0.02216066;0.01108033;1;-19;109;-312;5741;-481;32768;0.5235457;-0.6540623;0.5124654;-0.1883656;45;21;155;5464;2149;-1552;256;0.4030471;-0.5466793;-0.536011;-0.501385;11;-10;-1;735;4138;-255;128;-0.3033241;0.5124654;0.5277008;0.6057273;21;0;-16;-597;4139;950;4;-0.2756233;-0.06509695;-0.7055737;-0.6495845;-13;3;10;1873;3824;396;16;0.5962343;-0.5609418;0.4653739;0.3365651;-4;-19;-8;-5;4380;-870;2;0.666205;-0.731357;-0.1371191;-0.04986149;4;-2;-1;551;4240;-243;8;0.3448753;-0.6112068;0.3711911;0.6080332;-3;-45;-4;157;3843;1857;0.4856671;2.655263;0.924136;0.4916518;3.200628;0.9368834;0.4969128;3.680051;0.9460662;0.6281492;4.399325;1.008394;0.4325662;4.768634;0.9980981;0.07076307;4.687172;1.049103;-0.5534466;4.520672;0.3850482;0.2802142;4.625048;-0.05302945;0.9444599;4.675239;0.9980971;1.202647;4.480658;1.049102;1.215996;3.521083;0.9635803;0.805099;2.978777;0.3041443;0.1734146;2.613375;0.9154202;0.114924;1.321171;0.2315737;0;0;0;0.1734146;2.613375;0.9154202;0.114924;1.321171;0.2315737;0;0;0
825504.0257;NotLabelled;NONE;16384;-0.4155124;-0.1648199;-0.8861874;-0.1218837;-147;7;45;1172;544;2165;65536;0.9748755;0.06925207;0.1980609;0.07479224;5;181;36;75;-535;-4853;8192;0.7196581;-0.6939058;0.01246537;0.02077562;-9;20;85;-348;5639;135;32768;0.5152354;-0.6481995;0.5207756;-0.2077562;40;22;141;3434;1381;-1046;256;0.4030471;-0.5467635;-0.534626;-0.5027701;16;-9;-7;809;4016;-183;128;-0.3060942;0.5124654;0.5290859;0.60312;18;-7;-13;-685;4195;834;4;-0.2770083;-0.06648199;-0.7049018;-0.6495845;-4;-3;13;1695;3550;20;16;0.5959656;-0.5595568;0.4653739;0.3393352;-3;0;-5;-385;4044;-616;2;0.666205;-0.731357;-0.1371191;-0.04986149;4;-4;-7;301;4434;-91;8;0.3407202;-0.6066482;0.3753462;0.6123748;-4;-51;-4;-181;3891;2019;0.4754383;2.652947;0.9296573;0.4814243;3.198441;0.9343424;0.4866863;3.677947;0.9364378;0.619458;4.395729;1.011429;0.4247988;4.76564;1.006823;0.06264144;4.684212;1.055306;-0.5626765;4.565784;0.3820444;0.2730059;4.66856;-0.05254592;0.9364634;4.670998;1.006822;1.194019;4.474941;1.055305;1.223829;3.51208;1.038381;0.8056859;3.046034;0.3272241;0.1631843;2.610935;0.921612;0.1026119;1.322214;0.231404;0;0;0;0.1631843;2.610935;0.921612;0.1026119;1.322214;0.231404;0;0;0
825524.5745;NotLabelled;NONE;16384;-0.4210526;-0.1800554;-0.8849614;-0.08448754;-101;-1;46;1066;-540;1613;65536;0.9738054;0.08033241;0.2105263;0.03047091;107;193;30;-2719;-153;-4009;8192;0.7223414;-0.6911357;0;0.0235457;-30;55;68;-408;4963;287;32768;0.5069252;-0.6419709;0.5290859;-0.2257618;31;16;133;4142;843;-772;256;0.4030471;-0.5481879;-0.5318559;-0.5041551;20;-4;-11;1037;4092;-83;128;-0.3060942;0.5138504;0.5304709;0.6007202;9;-1;-10;-681;4093;976;4;-0.2770083;-0.06786703;-0.7047698;-0.6495845;3;-7;10;1603;3502;-42;16;0.5968195;-0.5609418;0.4626039;0.3393352;0;13;-2;119;3950;-292;2;0.66759;-0.7305119;-0.134349;-0.05124654;1;-12;-10;501;4434;-27;8;0.3365651;-0.602493;0.3781163;0.6170528;-6;-36;-2;-495;3761;2059;0.4689656;2.651178;0.9315841;0.474952;3.196691;0.9326444;0.480214;3.676201;0.9315536;0.6110902;4.3941;1.008721;0.4154783;4.763519;1.005095;0.05350688;4.681015;1.053142;-0.5793397;4.607157;0.380551;0.2526001;4.706954;-0.06184384;0.9273857;4.670199;1.005094;1.185421;4.474667;1.053141;1.217897;3.511788;1.062461;0.7964065;3.083869;0.3296468;0.1567111;2.609114;0.9238409;0.09813884;1.323057;0.2285104;0;0;0;0.1567111;2.609114;0.9238409;0.09813884;1.323057;0.2285104;0;0;0
825546.172;NotLabelled;NONE;16384;-0.4252077;-0.1897507;-0.8820464;-0.07202215;-86;-34;44;836;-518;2627;65536;0.9718857;0.0900277;0.2174515;-0.006925208;116;256;35;-1011;-401;-2601;8192;0.7275174;-0.6855956;-0.01108033;0.0235457;-46;69;59;-638;4171;573;32768;0.4986149;-0.6336592;0.5401662;-0.2409972;9;1;132;4816;1167;272;256;0.4030471;-0.5482544;-0.5304709;-0.5055401;19;7;-13;845;3972;-221;128;-0.3047091;0.5138504;0.5318559;0.6001995;1;6;-8;-783;4033;1112;4;-0.2770083;-0.06925207;-0.7033557;-0.6509695;3;-7;1;1445;3528;314;16;0.5968195;-0.5609418;0.4626039;0.3393352;1;-12;-2;637;4130;-328;2;0.66759;-0.7307653;-0.132964;-0.05124654;1;-10;-9;795;4460;-33;8;0.333795;-0.601108;0.3795014;0.6190547;-5;-25;-1;31;3867;2183;0.4630992;2.650808;0.9300442;0.4690855;3.196322;0.9295356;0.4743475;3.675826;0.9270657;0.6032203;4.393605;1.008601;0.4066243;4.762516;1.00694;0.04482424;4.678762;1.054113;-0.5919623;4.680079;0.3811862;0.2273272;4.816101;-0.07494907;0.9187794;4.670565;1.006939;1.177286;4.475442;1.054111;1.218949;3.513327;1.083698;0.7970666;3.122922;0.3304472;0.1508445;2.608722;0.9224318;0.09431889;1.324038;0.2243979;0;0;0;0.1508445;2.608722;0.9224318;0.09431889;1.324038;0.2243979;0;0;0
825567.1622;NotLabelled;NONE;16384;-0.4279778;-0.200831;-0.8789865;-0.06232687;-88;-38;52;1138;-334;3479;65536;0.9685234;0.09695291;0.2243767;-0.04709141;101;235;30;-37;-777;-2199;8192;0.7337714;-0.6786703;-0.0235457;0.02077562;-60;75;55;-758;3863;799;32768;0.4861496;-0.6302198;0.5484765;-0.2562327;1;16;142;3944;717;-854;256;0.4016621;-0.54676;-0.5290859;-0.5096953;22;15;-13;665;3824;-603;128;-0.3033241;0.5138504;0.533241;0.5996718;-2;18;-7;-713;3859;1460;4;-0.2756233;-0.06925207;-0.7026162;-0.6523545;-2;-6;-5;1667;3652;498;16;0.5962552;-0.5595568;0.4639889;0.3407202;4;-5;-2;373;3864;-214;2;0.66759;-0.7309175;-0.1315789;-0.05263158;2;-5;-6;785;4532;-59;8;0.33241;-0.599723;0.3808864;0.6202915;0;-27;-1;399;3959;2333;0.4578061;2.649857;0.9321779;0.4637924;3.19537;0.9310426;0.4690543;3.674871;0.9280219;0.5960144;4.392743;1.011712;0.3984587;4.761144;1.011022;0.03685392;4.676311;1.057762;-0.597249;4.707484;0.3830239;0.2129384;4.876082;-0.07846035;0.9108515;4.670527;1.011021;1.169842;4.475941;1.05776;1.227051;3.515163;1.101443;0.8016862;3.163056;0.3314608;0.1455513;2.607762;0.9246176;0.09427755;1.324039;0.2244153;0;0;0;0.1455513;2.607762;0.9246176;0.09427755;1.324039;0.2244153;0;0;0
825588.3299;NotLabelled;NONE;16384;-0.432133;-0.2119114;-0.8750591;-0.05124654;-84;-42;57;1410;-816;3327;65536;0.9648661;0.1038781;0.2285319;-0.07756232;80;150;24;17;-869;-1673;8192;0.7479827;-0.6620498;-0.04570637;0.01108033;-68;77;28;-412;4465;125;32768;0.4626039;-0.6156008;0.5706371;-0.2853186;13;-30;141;4986;85;-1346;256;0.398892;-0.5462369;-0.5277008;-0.5138504;25;18;-14;641;3778;-739;128;-0.300554;0.5138504;0.533241;0.601065;-8;25;-5;-727;3793;1264;4;-0.2742382;-0.06925207;-0.703158;-0.6523545;-4;-5;-7;1901;3672;438;16;0.5962552;-0.5595568;0.4639889;0.3407202;5;-8;0;965;4042;-94;2;0.66759;-0.7309175;-0.1315789;-0.05263158;4;0;0;801;3962;-223;8;0.3282548;-0.5969529;0.3850415;0.6226066;3;-20;-2;213;3523;2247;0.4589669;2.651505;0.9291496;0.4649532;3.197016;0.9273796;0.470215;3.676514;0.9238011;0.5934279;4.394588;1.011262;0.3939909;4.761973;1.01227;0.03278393;4.675057;1.058251;-0.6030887;4.732191;0.3868863;0.1959958;4.930099;-0.08225444;0.9068403;4.673978;1.012269;1.166781;4.480483;1.05825;1.242633;3.521618;1.11392;0.8032067;3.207278;0.3355351;0.1467119;2.609401;0.9216426;0.09485324;1.323958;0.2246456;0;0;0;0.1467119;2.609401;0.9216426;0.09485324;1.323958;0.2246456;0;0;0
825609.0285;NotLabelled;NONE;16384;-0.4362881;-0.2257618;-0.8700983;-0.0401662;-80;-47;53;1546;-1144;3167;65536;0.9616548;0.1121884;0.2313019;-0.09556787;67;80;12;-445;-1159;-1545;8192;0.7547778;-0.6537396;-0.05401662;0.004155125;-74;71;0;-820;4769;259;32768;0.4542936;-0.6034396;0.5844875;-0.2963989;17;-51;131;3864;-235;-848;256;0.3919668;-0.5447107;-0.5235457;-0.5249307;36;29;-18;977;3840;-761;128;-0.2922437;0.5096953;0.5373961;0.6049874;-6;33;-1;-711;3979;1072;4;-0.2742382;-0.06648199;-0.707256;-0.6481994;-22;20;-7;2493;3786;1110;16;0.5932798;-0.5526316;0.4709141;0.3476454;6;-57;-1;455;4420;-1118;2;0.666205;-0.73193;-0.132964;-0.05263158;4;1;0;569;4010;-189;8;0.3254848;-0.5955678;0.3878116;0.6236672;5;-28;-2;225;3583;2163;0.4656464;2.652792;0.925966;0.4716328;3.198306;0.9261842;0.4768948;3.677813;0.9243532;0.5980784;4.395541;1.017324;0.3976842;4.762391;1.02067;0.03662164;4.674203;1.065345;-0.6019577;4.757739;0.3993371;0.1886094;4.981206;-0.07274574;0.9107601;4.675726;1.020966;1.17112;4.482572;1.065999;1.289104;3.529223;1.140039;0.8314353;3.298031;0.3432481;0.1533919;2.610716;0.9182928;0.09598988;1.323957;0.2241623;0;0;0;0.1533919;2.610716;0.9182928;0.09598988;1.323957;0.2241623;0;0;0
825630.0332;NotLabelled;NONE;16384;-0.4445983;-0.2423823;-0.8620624;-0.02077562;-62;-8;49;1684;-1020;2789;65536;0.956782;0.1191136;0.232687;-0.1274238;42;124;-8;-1503;-1029;-2245;8192;0.762655;-0.6440443;-0.05955679;-0.004155125;-78;68;-20;-1054;4419;413;32768;0.4459834;-0.5900277;0.5993934;-0.3060942;14;-45;130;3918;-483;-440;256;0.3878116;-0.543646;-0.5221606;-0.5304709;39;26;-22;841;3954;-733;128;-0.2894737;0.5069252;0.5387812;0.6074098;-13;33;0;-739;4125;1258;4;-0.2756233;-0.06371191;-0.7095023;-0.6454294;-20;22;1;2915;3840;688;16;0.5909066;-0.5498615;0.4750692;0.3504155;3;-27;4;261;4554;-1232;2;0.666205;-0.731829;-0.132964;-0.05401662;6;-1;0;579;4064;-29;8;0.3240997;-0.5927978;0.3905817;0.6252968;5;-33;-2;119;3677;1815;0.4919032;2.653817;0.9229509;0.4978895;3.19933;0.9239324;0.5031514;3.678839;0.9227723;0.6184612;4.395518;1.030188;0.4151885;4.760658;1.040205;0.05471381;4.668797;1.082142;-0.5857171;4.785938;0.4230105;0.1920348;5.032221;-0.05890621;0.9289256;4.678004;1.040204;1.190674;4.486032;1.082142;1.329086;3.535211;1.153238;0.8563968;3.343943;0.3546332;0.1796488;2.611751;0.9152142;0.09639308;1.323547;0.2264068;0;0;0;0.1796488;2.611751;0.9152142;0.09639308;1.323547;0.2264068;0;0;0
825650.203;NotLabelled;NONE;16384;-0.4487534;-0.2465374;-0.8589045;-0.01108033;-50;11;48;1840;-1604;2023;65536;0.9534671;0.1191136;0.2313019;-0.1523546;40;179;-33;-1497;-899;-2219;8192;0.7703795;-0.634349;-0.06232687;-0.01523546;-77;67;-28;-1154;4039;671;32768;0.4362881;-0.5775623;0.6120411;-0.3185596;14;-52;129;4098;-807;-304;256;0.3836565;-0.5424449;-0.5193906;-0.5373961;38;21;-23;503;4184;-717;128;-0.2853186;0.5055401;0.5401662;0.6092971;-19;26;0;-611;4269;1206;4;-0.2783934;-0.06371191;-0.7096794;-0.6440443;-2;16;10;3199;3906;150;16;0.5897903;-0.5498615;0.4764543;0.3504155;-6;-10;10;967;4884;-1618;2;0.666205;-0.731829;-0.132964;-0.05401662;4;-2;-4;437;4166;19;8;0.3213296;-0.5900277;0.3933518;0.6276057;4;-27;0;-105;3521;1999;0.5107186;2.653783;0.9211582;0.5167049;3.199296;0.92229;0.5219669;3.678806;0.9212618;0.6352562;4.394735;1.0356;0.4310219;4.759239;1.048748;0.07072459;4.666058;1.089272;-0.5640792;4.831944;0.4351814;0.2060002;5.104047;-0.0451673;0.9449713;4.677915;1.048748;1.207154;4.486233;1.089271;1.368909;3.538725;1.155141;0.8852969;3.387679;0.3544589;0.1984642;2.61172;0.9134092;0.1009827;1.32304;0.227361;0;0;0;0.1984642;2.61172;0.9134092;0.1009827;1.32304;0.227361;0;0;0
825671.024;NotLabelled;NONE;16384;-0.4529086;-0.2465374;-0.8567879;-0.002770083;-29;20;48;1526;-2222;1751;65536;0.9508237;0.1163435;0.2257618;-0.1772853;21;129;-50;323;-1399;-781;8192;0.7778054;-0.6246537;-0.06371191;-0.02770083;-70;66;-34;-1262;3713;815;32768;0.4279778;-0.5637119;0.6262747;-0.3268698;14;-72;123;3792;-363;-438;256;0.3822715;-0.5387812;-0.5152354;-0.5459999;33;17;-22;375;4312;-901;128;-0.2825485;0.5041551;0.5387812;0.612951;-19;16;-1;-595;4291;982;4;-0.2825485;-0.06232687;-0.7094158;-0.6426592;-2;24;16;2591;3934;636;16;0.5880199;-0.5526316;0.4764543;0.3490305;-12;47;19;-341;4510;-1360;2;0.666205;-0.7319758;-0.1315789;-0.05540166;3;-3;-7;275;4036;-81;8;0.3213296;-0.5886427;0.3947368;0.6280366;0;-13;0;-129;3547;1853;0.5240307;2.650362;0.9252673;0.5300169;3.195872;0.9275441;0.5352789;3.675382;0.9275227;0.6446025;4.390443;1.05081;0.4384373;4.753689;1.068013;0.07855815;4.658141;1.1067;-0.5560532;4.844904;0.4580728;0.2119701;5.126854;-0.01988219;0.9528049;4.675052;1.068012;1.215912;4.48426;1.106699;1.400332;3.540097;1.159811;0.9073187;3.43199;0.3579146;0.2117765;2.608315;0.9174227;0.1066613;1.322695;0.226779;0;0;0;0.2117765;2.608315;0.9174227;0.1066613;1.322695;0.226779;0;0;0
825691.0261;NotLabelled;NONE;16384;-0.4584487;-0.2451524;-0.8542383;0.001385042;-19;12;45;1188;-2094;2615;65536;0.950523;0.1149584;0.2174515;-0.1897507;5;39;-69;2013;-1319;-1287;8192;0.7899753;-0.6080332;-0.06232687;-0.04847645;-61;33;-30;-1308;3971;543;32768;0.4182825;-0.534626;0.6526398;-0.3365651;3;-95;93;2580;-693;164;256;0.3795014;-0.536011;-0.5138504;-0.5519317;19;20;-23;381;4318;-1157;128;-0.2811634;0.5041551;0.5387812;0.6135875;-9;6;0;-551;4043;894;4;-0.2880886;-0.06232687;-0.7096916;-0.6398892;-3;26;25;2305;3554;478;16;0.59007;-0.5623268;0.4695291;0.3393352;-26;122;36;345;3842;-1176;2;0.666205;-0.7321173;-0.1301939;-0.0567867;5;-13;-9;75;3924;-397;8;0.3185596;-0.5872576;0.3975069;0.6289964;0;-24;0;471;3565;1933;0.5400908;2.647297;0.9252506;0.5460768;3.192781;0.9310164;0.5513387;3.672282;0.9340619;0.6508023;4.387413;1.065048;0.4397192;4.74764;1.085743;0.0811085;4.646837;1.122842;-0.5537529;4.848736;0.479012;0.2174776;5.134167;0.008343294;0.9551024;4.675961;1.085743;1.220709;4.488342;1.122842;1.427144;3.547953;1.159289;0.9224212;3.47863;0.3603923;0.2278372;2.605302;0.9171152;0.1167122;1.322683;0.2218467;0;0;0;0.2278372;2.605302;0.9171152;0.1167122;1.322683;0.2218467;0;0;0
825711.8002;NotLabelled;NONE;16384;-0.4626039;-0.2479224;-0.8511664;0.006925208;-30;-4;45;1492;-1690;2985;65536;0.9527646;0.1121884;0.2063712;-0.1925208;5;-23;-70;2543;-723;-2751;8192;0.795958;-0.599723;-0.06094183;-0.05540166;-63;23;-27;-926;3937;839;32768;0.4141274;-0.5207756;0.6663446;-0.3365651;0;-100;78;2152;-339;46;256;0.3808864;-0.533241;-0.5096953;-0.5574857;5;1;-31;565;3666;-1439;128;-0.2811634;0.5041551;0.536011;0.6160089;-5;2;9;-873;3311;1632;4;-0.299169;-0.06509695;-0.7073469;-0.6371191;-8;25;18;2223;3288;1556;16;0.5844875;-0.5963646;0.4515235;0.3144044;-39;174;41;-1427;3966;-258;2;0.66482;-0.7341008;-0.1260388;-0.0567867;6;-10;-3;471;4042;-427;8;0.3144044;-0.5844875;0.4016621;0.6310244;0;-15;0;245;3793;2085;0.5631404;2.640728;0.9295397;0.5691264;3.1862;0.9362484;0.5743882;3.665695;0.940123;0.6695269;4.380457;1.076239;0.4563123;4.739284;1.099263;0.09826523;4.636121;1.135301;-0.5341847;4.845963;0.4916378;0.2420959;5.13118;0.02921316;0.9721074;4.670632;1.099263;1.238776;4.484318;1.1353;1.481651;3.551976;1.140277;0.9652705;3.544384;0.345871;0.2508869;2.598746;0.921326;0.1299482;1.322372;0.2162722;0;0;0;0.2508869;2.598746;0.921326;0.1299482;1.322372;0.2162722;0;0;0
825732.071;NotLabelled;NONE;16384;-0.468144;-0.2506925;-0.8472539;0.01246537;-23;-6;49;1756;-1754;2077;65536;0.9545328;0.1121884;0.1966759;-0.1939058;16;-6;-53;3431;-793;-2585;8192;0.8008308;-0.5927978;-0.05955679;-0.06094183;-63;16;-21;-558;3701;891;32768;0.4113573;-0.5083103;0.6782774;-0.33518;-8;-99;56;1390;-621;438;256;0.3822715;-0.5318559;-0.5055401;-0.5616288;5;-4;-30;513;3336;-1423;128;-0.2797784;0.5055401;0.534626;0.6167076;-6;-6;8;-1109;3035;1802;4;-0.3033241;-0.06371191;-0.7094307;-0.632964;-14;24;12;2043;2562;736;16;0.5858725;-0.6136125;0.4376731;0.2977839;-35;141;34;395;2862;-394;2;0.6634349;-0.7355888;-0.1246537;-0.0567867;6;0;0;197;4350;-691;8;0.3144044;-0.5844875;0.4016621;0.6310244;-3;-2;0;-17;3869;1617;0.6180893;2.624461;0.9207484;0.6240746;3.169883;0.9307674;0.6293361;3.649346;0.9375519;0.7148779;4.364437;1.078228;0.4969318;4.720283;1.103155;0.1402219;4.612201;1.138022;-0.489083;4.831124;0.4943003;0.2984451;5.108927;0.04661536;1.013585;4.658415;1.103496;1.282629;4.4754;1.138776;1.543774;3.547998;1.136541;1.018987;3.564226;0.347793;0.3058363;2.58253;0.9122591;0.1877672;1.320726;0.18098;0;0;0;0.3058363;2.58253;0.9122591;0.1877672;1.320726;0.18098;0;0;0
825752.0853;NotLabelled;NONE;16384;-0.4806094;-0.2534626;-0.8393421;0.0166205;5;-18;52;1422;-1816;2299;65536;0.95501;0.1218837;0.1869806;-0.1952908;49;13;-6;3813;-1065;-3985;8192;0.806702;-0.5844875;-0.05955679;-0.06371191;-57;15;-12;-392;3725;821;32768;0.4113573;-0.4958449;0.6894531;-0.3310249;-10;-94;39;1904;-195;102;256;0.3850415;-0.5304709;-0.5027701;-0.5635298;10;-6;-26;455;3062;-1625;128;-0.2797784;0.5069252;0.5318559;0.6179646;-8;-7;7;-1611;3023;2178;4;-0.3074792;-0.06232687;-0.7089993;-0.6315789;1;23;10;1869;1736;-462;16;0.5844875;-0.6224341;0.4307479;0.2922437;-39;42;6;-507;2176;532;2;0.6634349;-0.7354806;-0.1246537;-0.05817174;5;5;0;-119;4230;-609;8;0.3144044;-0.5844875;0.4016621;0.6310244;-5;-2;1;137;3613;1481;0.6501064;2.618237;0.9158996;0.656091;3.163604;0.9285771;0.6613522;3.643028;0.9376983;0.7392966;4.3581;1.082814;0.5175853;4.711451;1.10993;0.1620422;4.599376;1.144096;-0.4572035;4.835809;0.4968225;0.3395039;5.110967;0.06399244;1.034865;4.655069;1.109929;1.305837;4.474705;1.144096;1.582029;3.551826;1.127123;1.050654;3.586335;0.34339;0.3378538;2.576348;0.9071895;0.2097601;1.318847;0.1702079;0;0;0;0.3378538;2.576348;0.9071895;0.2097601;1.318847;0.1702079;0;0;0
825773.036;NotLabelled;NONE;16384;-0.4875346;-0.2562327;-0.8345194;0.01523546;10;-32;51;1236;-2056;2509;65536;0.9537799;0.1288089;0.1842105;-0.199446;53;19;6;2679;-501;-4027;8192;0.8104742;-0.5789474;-0.06094183;-0.06509695;-54;8;1;-318;3725;833;32768;0.4127424;-0.4833795;0.7000341;-0.3254848;-13;-124;20;2408;39;510;256;0.3850415;-0.5290859;-0.5;-0.567284;17;-8;-21;815;3070;-1803;128;-0.2783934;0.5083103;0.5290859;0.6198274;-4;-17;5;-1961;2823;2068;4;-0.3102493;-0.05955679;-0.7080299;-0.6315789;20;26;0;947;1388;-476;16;0.5817174;-0.625625;0.4279778;0.2950138;-42;-3;-5;-2323;1192;1366;2;0.6620498;-0.7362679;-0.1260388;-0.06094183;-1;12;1;-115;4032;-593;8;0.3144044;-0.5844875;0.4016621;0.6310244;-8;3;2;47;3477;1887;0.6583471;2.614598;0.9104754;0.6643308;3.159876;0.9265091;0.6695911;3.639235;0.9385809;0.7410262;4.354806;1.084585;0.5161386;4.706123;1.111964;0.1615916;4.590826;1.145759;-0.434316;4.837718;0.4807272;0.3689757;5.127453;0.07015094;1.033903;4.654381;1.112246;1.306458;4.476413;1.146385;1.601196;3.559241;1.132185;1.066643;3.605135;0.3512022;0.3460951;2.572763;0.9014864;0.2209985;1.318463;0.1585591;0;0;0;0.3460951;2.572763;0.9014864;0.2209985;1.318463;0.1585591;0;0;0
825794.0212;NotLabelled;NONE;16384;-0.4930748;-0.2603878;-0.8299901;0.01385042;7;-37;44;1020;-2038;2967;65536;0.9512382;0.134349;0.1842105;-0.2077562;41;26;12;2283;-983;-2607;8192;0.8200873;-0.5650969;-0.06509695;-0.06232687;-51;-13;24;-132;2685;733;32768;0.4238227;-0.4487534;0.7236004;-0.3088643;21;-160;21;3326;181;-1752;256;0.3850415;-0.5318559;-0.4958449;-0.5683398;17;-12;-17;1175;3044;-1989;128;-0.2770083;0.5124654;0.5263157;0.6193847;-14;-16;7;-1997;2663;2222;4;-0.3116343;-0.05401662;-0.7053847;-0.634349;47;16;-25;-209;900;-18;16;0.5775623;-0.6290986;0.4265928;0.2977839;-28;17;0;-2741;1600;212;2;0.6620498;-0.7359135;-0.1274238;-0.06232687;-3;15;4;-301;3826;-509;8;0.3144044;-0.5858725;0.398892;0.631497;-11;12;2;71;3579;1731;0.6585892;2.616111;0.8949167;0.6645713;3.161247;0.9152353;0.6698304;3.640496;0.9310739;0.7360812;4.355749;1.081031;0.5086535;4.705269;1.11035;0.1549527;4.58722;1.143506;-0.4337322;4.841658;0.4748957;0.368123;5.144052;0.07068837;1.02678;4.657281;1.11035;1.300618;4.481108;1.143506;1.607477;3.568067;1.121833;1.065978;3.621696;0.3461459;0.3463381;2.574349;0.8855724;0.2236888;1.319831;0.1426046;0;0;0;0.3463381;2.574349;0.8855724;0.2236888;1.319831;0.1426046;0;0;0
825815.1519;NotLabelled;NONE;16384;-0.4986149;-0.265928;-0.8248838;0.01523546;-6;-39;41;1418;-2210;3445;65536;0.9499305;0.1412742;0.1842105;-0.2091413;36;-2;6;1355;-3;-3179;8192;0.8231121;-0.5609418;-0.06786703;-0.0567867;-38;-9;27;452;2581;563;32768;0.4293629;-0.4293629;0.7343634;-0.3033241;25;-141;26;2756;-853;-1292;256;0.3850415;-0.533241;-0.4916897;-0.5706472;18;-9;-13;1363;2762;-1903;128;-0.2742382;0.5138504;0.5235457;0.6218127;-15;8;12;-1525;2897;2010;4;-0.299169;-0.0401662;-0.6990866;-0.6481994;55;-45;-55;573;5652;1542;16;0.5872576;-0.6360614;0.4141274;0.2811634;17;46;16;6759;9590;48;2;0.6620498;-0.7350644;-0.1301939;-0.06648199;0;4;7;-251;4102;-561;8;0.3130194;-0.5872576;0.3961219;0.6326411;-10;-6;1;343;4061;2101;0.6457973;2.622158;0.8744195;0.6517774;3.167111;0.899152;0.6570349;3.646216;0.9188712;0.7214005;4.360343;1.074892;0.4930857;4.709042;1.106973;0.1396534;4.589845;1.138859;-0.4358047;4.848453;0.460406;0.3664278;5.163115;0.06644166;1.011329;4.662335;1.106973;1.285578;4.486566;1.138859;1.623568;3.5844;1.127248;1.084602;3.647433;0.3505052;0.333547;2.580473;0.8647097;0.2293053;1.320315;0.1285065;0;0;0;0.333547;2.580473;0.8647097;0.2293053;1.320315;0.1285065;0;0;0
825835.434;NotLabelled;NONE;16384;-0.5041551;-0.2700831;-0.8200967;0.01800554;-10;-29;32;876;-2274;3247;65536;0.9486463;0.1454294;0.1828255;-0.2132964;36;41;-15;-699;-635;-2653;8192;0.8257903;-0.5567867;-0.07063711;-0.05540166;-34;11;19;706;2833;731;32768;0.4362881;-0.4085872;0.7432203;-0.300554;45;-145;17;2170;-283;-1614;256;0.3822715;-0.533241;-0.4861496;-0.5772185;23;17;-11;-53;3986;-1313;128;-0.2645429;0.5083103;0.5221606;0.6316534;-47;31;7;383;4635;1352;4;-0.2894737;-0.04293629;-0.6978438;-0.6537396;-7;-58;-3;6347;9668;3094;16;0.5858725;-0.6352043;0.4155124;0.2839335;-12;-40;-9;3315;3130;1010;2;0.6620498;-0.7351884;-0.1301939;-0.06509695;5;-14;5;465;4448;415;8;0.3116343;-0.5872576;0.3961219;0.6333246;-7;-7;2;-5;3259;2575;0.6031343;2.651708;0.8400523;0.6091117;3.196401;0.8699824;0.6143669;3.675296;0.8942713;0.6750383;4.388405;1.056313;0.4449855;4.735713;1.090956;0.09209213;4.614542;1.121336;-0.468099;4.876382;0.4314412;0.3325027;5.203661;0.04450193;0.9634492;4.691522;1.091324;1.238504;4.516826;1.122148;1.586271;3.618361;1.131926;1.052669;3.69105;0.3523273;0.2908851;2.610117;0.8299124;0.2262884;1.319221;0.1441496;0;0;0;0.2908851;2.610117;0.8299124;0.2262884;1.319221;0.1441496;0;0;0
825876.0417;NotLabelled;NONE;16384;-0.5069252;-0.2867036;-0.8127953;0.01385042;0;-13;-8;2396;-1292;3079;65536;0.9461456;0.1592798;0.1759003;-0.2202216;32;0;15;3205;-1523;-3143;8192;0.8280545;-0.5512465;-0.08310249;-0.05955679;-14;53;34;762;4557;979;32768;0.4556787;-0.3698061;0.7551119;-0.2922437;55;-124;-22;2526;185;-1644;256;0.3808864;-0.5290859;-0.4861496;-0.5819384;-14;-8;-14;-1323;6356;-1091;128;-0.2617728;0.5166205;0.5096953;0.6362303;-20;-29;-1;291;5711;920;4;-0.300554;-0.04709141;-0.7006216;-0.6454294;-18;80;21;407;3470;516;16;0.5831025;-0.6374096;0.4141274;0.2867036;-6;19;-11;1079;4466;174;2;0.6620498;-0.7354115;-0.1315789;-0.05955679;1;-2;12;1773;4302;-461;8;0.3130194;-0.5914127;0.3905817;0.632215;-2;28;3;321;3723;2607;0.6004484;2.659731;0.8216396;0.6064204;3.203939;0.8593626;0.6116712;3.682437;0.8905033;0.6666965;4.393427;1.063502;0.4339231;4.738359;1.103332;0.08197185;4.613988;1.131637;-0.4740891;4.893065;0.4451669;0.3241148;5.228362;0.0601429;0.9527159;4.698211;1.103332;1.229111;4.525213;1.131638;1.585982;3.63028;1.135347;1.056259;3.7157;0.3543956;0.2882008;2.61829;0.8108566;0.2266735;1.319643;0.1395961;0;0;0;0.2882008;2.61829;0.8108566;0.2266735;1.319643;0.1395961;0;0;0
825897.0788;NotLabelled;NONE;16384;-0.5041551;-0.2880886;-0.8140499;0.01246537;0;-6;-12;1940;-1270;3325;65536;0.9446765;0.1648199;0.1786704;-0.2202216;26;-4;35;3027;-1991;-3013;8192;0.8259947;-0.5498615;-0.1080332;-0.06094183;7;24;81;-554;4145;2395;32768;0.4736842;-0.3504155;0.7564483;-0.2839335;8;-33;-43;2284;-693;98;256;0.3864266;-0.5277008;-0.4847645;-0.5806976;-34;-29;-15;-793;5488;-1537;128;-0.2617728;0.5166205;0.5083103;0.6373374;-3;1;7;-443;4533;952;4;-0.3060942;-0.04432133;-0.7022175;-0.6412742;-16;16;-6;-1151;1220;1028;16;0.5831025;-0.6361564;0.4141274;0.2894737;-7;-31;-12;395;3942;-248;2;0.6620498;-0.7352732;-0.132964;-0.05817174;0;8;16;1203;4558;-509;8;0.3144044;-0.5927978;0.3878116;0.6319358;0;21;1;691;3583;2229;0.6291304;2.643362;0.8371753;0.6350868;3.186152;0.8916274;0.6403247;3.663465;0.9374781;0.6910198;4.374417;1.111954;0.4561569;4.71785;1.15246;0.1049607;4.591292;1.180452;-0.454848;4.880872;0.5014182;0.3389655;5.239823;0.1288452;0.9751832;4.680844;1.152459;1.252616;4.509463;1.180452;1.620031;3.618909;1.194428;1.103456;3.717683;0.4062775;0.3168867;2.602274;0.8250168;0.2308494;1.320398;0.1248376;0;0;0;0.3168867;2.602274;0.8250168;0.2308494;1.320398;0.1248376;0;0;0
825939.1123;NotLabelled;NONE;16384;-0.501385;-0.2950138;-0.8133332;0.008310249;-8;-36;-11;2214;-1160;3561;65536;0.9411528;0.1759003;0.1897507;-0.2174515;16;-5;44;591;-2165;-3023;8192;0.8226191;-0.5540166;-0.1204986;-0.04293629;19;-57;57;-324;3199;2659;32768;0.4792244;-0.365651;0.7502989;-0.2714681;-71;48;-59;1266;-623;-490;256;0.398892;-0.5277008;-0.4806094;-0.5757009;-6;-2;-5;605;3494;-165;128;-0.2686981;0.5166205;0.5096953;0.6333367;7;-14;3;-1279;3525;1044;4;-0.2825485;-0.05263158;-0.7025916;-0.6509695;17;-35;-23;2317;3904;-468;16;0.5831025;-0.6246415;0.4196676;0.3060942;7;-4;4;-877;4560;-302;2;0.6620498;-0.7343046;-0.1398892;-0.05401662;-2;0;11;451;4170;-199;8;0.3213296;-0.5969529;0.3822715;0.6279037;-4;32;0;-525;3839;2021;0.6263611;2.64064;0.8420948;0.6323158;3.183269;0.898131;0.6375521;3.660447;0.9453747;0.6823995;4.372849;1.11548;0.4447039;4.714559;1.153988;0.09458333;4.585259;1.182906;-0.4649205;4.872604;0.502673;0.3254952;5.242187;0.133283;0.9640199;4.68187;1.153987;1.24288;4.512977;1.182905;1.609469;3.623683;1.2381;1.118273;3.716073;0.4331286;0.3141178;2.599588;0.8298065;0.2253311;1.321519;0.1230429;0;0;0;0.3141178;2.599588;0.8298065;0.2253311;1.321519;0.1230429;0;0;0
825979.1818;NotLabelled;NONE;16384;-0.4972299;-0.3033241;-0.8128589;0.004155125;-2;-11;-16;2810;-1262;3387;65536;0.9394238;0.1842105;0.1980609;-0.2105263;7;-7;32;725;-2765;-3537;8192;0.8212514;-0.5567867;-0.1204986;-0.03185596;15;-65;47;-250;3285;2163;32768;0.4792244;-0.3808864;0.7461531;-0.2617728;-94;47;-77;1020;-11;-1416;256;0.400277;-0.5263157;-0.4819945;-0.5748491;-10;2;1;361;3898;-449;128;-0.2700831;0.5166205;0.5110803;0.6316291;11;-6;0;-1103;3915;546;4;-0.2797784;-0.05124654;-0.7012292;-0.6537396;17;7;-13;2933;4358;-50;16;0.5844875;-0.6256266;0.4182825;0.3033241;7;43;11;-467;4244;-578;2;0.6620498;-0.7340394;-0.1412742;-0.05401662;-5;5;4;551;4374;229;8;0.3268698;-0.599723;0.3753462;0.626581;-7;69;5;-773;3583;2097;0.5820513;2.662616;0.8095734;0.5880125;3.20585;0.8594077;0.5932546;3.683537;0.9011977;0.6275791;4.398526;1.062673;0.3848399;4.737097;1.09724;0.0367019;4.602955;1.12798;-0.5140833;4.88898;0.4401178;0.266896;5.280852;0.07364142;0.9045853;4.71215;1.09724;1.185948;4.547789;1.12798;1.541858;3.658275;1.229801;1.06345;3.712116;0.4137042;0.2698064;2.621427;0.797794;0.1951104;1.326539;0.1206344;0;0;0;0.2698064;2.621427;0.797794;0.1951104;1.326539;0.1206344;0;0;0
826000.6975;NotLabelled;NONE;16384;-0.4944598;-0.3033241;-0.8145528;0.002770083;-1;-1;-13;2920;-1030;3725;65536;0.9385831;0.1855956;0.2036011;-0.2077562;-2;-20;37;1759;-3195;-3523;8192;0.8208682;-0.5581717;-0.1191136;-0.02077562;11;-69;41;-278;3055;1755;32768;0.4806094;-0.3975069;0.7413079;-0.2479224;-101;42;-100;876;75;-2088;256;0.400277;-0.5263157;-0.4833795;-0.5736849;-10;4;8;95;4172;-807;128;-0.2714681;0.5152354;0.5138504;0.6299169;12;3;-4;-837;4207;494;4;-0.2839335;-0.04570637;-0.6999409;-0.6537396;10;46;0;2903;4340;416;16;0.5872576;-0.6281923;0.4155124;0.2963989;3;56;14;1557;4208;-154;2;0.6634349;-0.7325194;-0.1426593;-0.05401662;-13;9;-2;953;4338;-53;8;0.333795;-0.6052631;0.367036;0.6225126;-6;72;7;65;3545;2397;0.5762405;2.666939;0.8041139;0.5822042;3.210397;0.8514303;0.5874483;3.688272;0.8910062;0.6212741;4.404089;1.048884;0.3782821;4.742639;1.081855;0.03026237;4.608377;1.113408;-0.5288348;4.896681;0.4332456;0.238482;5.303594;0.0545069;0.898047;4.7181;1.081767;1.179551;4.554115;1.113215;1.531187;3.663772;1.222377;1.042713;3.687936;0.4108369;0.263995;2.625695;0.7925414;0.1958131;1.326158;0.1236527;0;0;0;0.263995;2.625695;0.7925414;0.1958131;1.326158;0.1236527;0;0;0
826021.0428;NotLabelled;NONE;16384;-0.4930748;-0.3047091;-0.8148754;0.002770083;-5;-3;-6;2892;-946;4067;65536;0.9383081;0.1869806;0.2077562;-0.2036011;-7;-17;38;407;-3175;-3467;8192;0.8167789;-0.5650969;-0.1163435;0.001385042;19;-69;29;104;3251;1461;32768;0.4944598;-0.4265928;0.7286556;-0.2063712;-121;-9;-160;634;-33;-1428;256;0.4016621;-0.5263157;-0.4847645;-0.5715442;-16;-15;14;-61;4332;-587;128;-0.2728532;0.5138504;0.5166205;0.6281817;12;7;-6;-513;4329;558;4;-0.2908587;-0.0401662;-0.700019;-0.6509695;0;67;11;2609;4174;774;16;0.5872576;-0.631954;0.4127424;0.2922437;0;7;3;3023;3786;2;2;0.666205;-0.7296251;-0.1440443;-0.05540166;-13;11;-3;1407;4370;-181;8;0.3379501;-0.6094183;0.3614958;0.6194512;2;56;5;775;3287;2805;0.5723989;2.667255;0.809539;0.5783665;3.211062;0.8526638;0.5836138;3.689228;0.8885539;0.6191469;4.405387;1.044491;0.3769644;4.744605;1.076534;0.02862334;4.611264;1.108437;-0.53444;4.892776;0.4287024;0.2265364;5.303001;0.04085305;0.8966692;4.718822;1.076534;1.177779;4.554252;1.108437;1.528163;3.6653;1.232016;1.029625;3.651466;0.4263752;0.2601525;2.625923;0.7983112;0.1992683;1.324871;0.1316676;0;0;0;0.2601525;2.625923;0.7983112;0.1992683;1.324871;0.1316676;0;0;0
826041.1662;NotLabelled;NONE;16384;-0.4930748;-0.3047091;-0.8148695;0.004155125;-8;-4;4;2908;-828;4283;65536;0.9373642;0.1869806;0.2132964;-0.2022161;-15;5;34;-445;-3215;-4213;8192;0.8142231;-0.5692521;-0.1135734;0.009695291;24;-58;18;-62;3431;1381;32768;0.5041551;-0.4404432;0.7213927;-0.1772853;-145;-14;-185;322;179;-894;256;0.4058172;-0.5277008;-0.4861496;-0.5661297;-31;-23;18;63;4322;-255;128;-0.2742382;0.5138504;0.5193906;0.6252876;15;-8;-9;-339;4385;768;4;-0.299169;-0.03462604;-0.6993829;-0.6481994;-4;60;11;1521;3894;1138;16;0.5872576;-0.6304039;0.4141274;0.2936288;-3;-28;-5;2061;4148;68;2;0.666205;-0.7292438;-0.1454294;-0.0567867;-13;20;3;1569;4282;11;8;0.3421052;-0.6154668;0.3573407;0.6135734;6;51;5;359;3171;2529;0.5764616;2.664724;0.8120822;0.5824326;3.208849;0.8510005;0.5876828;3.687278;0.8831919;0.6243944;4.40415;1.035539;0.3827599;4.743909;1.065946;0.03421546;4.611282;1.098602;-0.529614;4.893284;0.4197058;0.2270273;5.305875;0.02592964;0.9024228;4.717299;1.065946;1.183279;4.552444;1.098601;1.522049;3.662164;1.243215;1.016735;3.547324;0.449958;0.2642143;2.623307;0.8012008;0.2054706;1.32399;0.1309894;0;0;0;0.2642143;2.623307;0.8012008;0.2054706;1.32399;0.1309894;0;0;0
826062.0266;NotLabelled;NONE;16384;-0.4930748;-0.3060942;-0.814342;0.005540166;-18;0;15;2980;-702;4099;65536;0.9369333;0.1842105;0.2188366;-0.200831;-20;2;26;-825;-2909;-4589;8192;0.8116001;-0.5734072;-0.1108033;0.01523546;25;-41;2;-282;3747;1391;32768;0.5152354;-0.4584487;0.7090858;-0.1468144;-161;15;-207;166;869;-1284;256;0.4099723;-0.5277008;-0.4889196;-0.5607246;-30;-15;17;121;4236;-223;128;-0.2770083;0.5138504;0.5207756;0.6229101;19;-12;-10;-269;4179;964;4;-0.3033241;-0.03047091;-0.7028906;-0.6426592;-6;-12;4;661;3328;1078;16;0.5858725;-0.6303964;0.4141274;0.2963989;-2;8;-2;71;3984;-142;2;0.66759;-0.7261568;-0.1537396;-0.05817174;-6;9;9;639;3660;-543;8;0.3504155;-0.6216075;0.3504155;0.6066482;5;42;2;417;3489;1493;0.5637428;2.661982;0.8215141;0.5697169;3.206387;0.8562852;0.5749695;3.685047;0.8848302;0.6135633;4.403252;1.030277;0.3727865;4.743878;1.057627;0.02394614;4.612428;1.091835;-0.5271385;4.901717;0.4055797;0.2276305;5.315551;0.009521723;0.8923827;4.715995;1.057457;1.172862;4.550771;1.091461;1.501591;3.657477;1.240589;1.002373;3.478964;0.4552857;0.2514946;2.620483;0.8109744;0.2021842;1.324174;0.1342106;0;0;0;0.2514946;2.620483;0.8109744;0.2021842;1.324174;0.1342106;0;0;0
826082.0377;NotLabelled;NONE;16384;-0.4972299;-0.3074792;-0.8111367;0.0166205;-31;18;36;2616;-618;4395;65536;0.9363608;0.1772853;0.2243767;-0.2036011;-25;33;-4;-1477;-2615;-5251;8192;0.8103476;-0.5761772;-0.1052632;0.0166205;23;-34;-15;-398;4011;1515;32768;0.5249307;-0.4792244;0.6937262;-0.1163435;-156;57;-222;992;2049;-2472;256;0.4113573;-0.5277008;-0.4944598;-0.5548211;-8;9;14;71;3970;-611;128;-0.2797784;0.5152354;0.5235457;0.618188;6;2;-7;-831;3841;1220;4;-0.300554;-0.033241;-0.7026872;-0.6440443;1;-42;4;897;3206;664;16;0.5872576;-0.6300158;0.4127424;0.2963989;-2;7;-1;343;3812;6;2;0.66759;-0.7261568;-0.1537396;-0.05817174;-3;-4;7;123;3716;-781;8;0.3531856;-0.6235134;0.3490305;0.6038781;5;16;0;1117;3585;1543;0.5711244;2.661299;0.8185654;0.5771008;3.205916;0.8498448;0.5823555;3.68475;0.8753198;0.6229068;4.404595;1.011847;0.3830438;4.746173;1.035058;0.03386902;4.616082;1.07101;-0.5184275;4.903527;0.3849541;0.2353763;5.313839;-0.01657057;0.9025642;4.716909;1.035058;1.182617;4.551374;1.07101;1.503829;3.656774;1.228451;1.01476;3.406355;0.4565123;0.2588754;2.619734;0.8083143;0.2005272;1.3249;0.129449;0;0;0;0.2588754;2.619734;0.8083143;0.2005272;1.3249;0.129449;0;0;0
826102.0487;NotLabelled;NONE;16384;-0.501385;-0.3074792;-0.8083614;0.02493075;-40;20;45;2580;-566;4473;65536;0.9365032;0.1717452;0.2229917;-0.2091413;-25;34;-13;-669;-2683;-5457;8192;0.8082498;-0.5803324;-0.09833795;0.0166205;29;-41;-30;-230;3901;1077;32768;0.536011;-0.5027701;0.6727112;-0.08587258;-150;85;-236;1964;2665;-3020;256;0.4099723;-0.5290859;-0.4958449;-0.553289;-6;-1;19;235;4006;-875;128;-0.2797784;0.5152354;0.5249307;0.6170124;12;0;-9;-1105;4055;882;4;-0.2963989;-0.03878116;-0.701623;-0.6468144;10;-45;1;1367;3336;464;16;0.5872576;-0.630921;0.4113573;0.2963989;-2;15;1;415;3828;182;2;0.66759;-0.7262664;-0.1537396;-0.0567867;-1;-12;4;299;3754;-707;8;0.3545706;-0.6232903;0.3504155;0.602493;6;2;-1;707;3517;1873;0.564559;2.662313;0.818346;0.5705385;3.207196;0.8445759;0.5757954;3.686245;0.8656115;0.6230589;4.407439;0.9925293;0.3863558;4.75148;1.011378;0.03603512;4.625087;1.049317;-0.5062412;4.932788;0.3640543;0.2473612;5.333898;-0.0470317;0.905586;4.717456;1.011377;1.184142;4.549851;1.049317;1.500401;3.652447;1.200717;1.019484;3.328608;0.451293;0.252309;2.620655;0.8085123;0.1958509;1.325543;0.1300148;0;0;0;0.252309;2.620655;0.8085123;0.1958509;1.325543;0.1300148;0;0;0
826123.1313;NotLabelled;NONE;16384;-0.5041551;-0.3088643;-0.8057491;0.03462604;-49;22;54;2678;-516;4259;65536;0.9368801;0.166205;0.2229917;-0.2119114;-21;27;-20;-777;-2269;-5387;8192;0.8019487;-0.5914127;-0.08171745;0.02077562;38;-50;-34;-78;4129;1005;32768;0.5581717;-0.5512465;0.6191709;-0.03462604;-131;102;-242;3934;2801;-2854;256;0.4099723;-0.5318559;-0.4958449;-0.5506268;-4;-19;24;291;4082;-789;128;-0.2797784;0.5166205;0.5263157;0.6146699;6;-6;-13;-1147;3963;1086;4;-0.2936288;-0.04155125;-0.7000683;-0.6495845;9;-26;-3;1929;3604;522;16;0.5872576;-0.6324698;0.4099723;0.2950138;-1;18;4;987;3816;410;2;0.666205;-0.7279352;-0.1523546;-0.05540166;1;-14;3;517;3794;-587;8;0.3559557;-0.6238379;0.3504155;0.601108;5;19;-1;81;3501;2029;0.5607035;2.661948;0.8170881;0.5666837;3.206907;0.8416988;0.5719413;3.686017;0.861311;0.6232765;4.406984;0.9879335;0.3885186;4.752363;1.006648;0.03749167;4.627964;1.044648;-0.4962006;4.950397;0.3594196;0.2626818;5.343529;-0.0496543;0.9075487;4.715409;1.006648;1.185156;4.546251;1.044648;1.493711;3.644511;1.185832;1.026995;3.243218;0.465466;0.2484531;2.62026;0.8073885;0.1954672;1.325869;0.12724;0;0;0;0.2484531;2.62026;0.8073885;0.1954672;1.325869;0.12724;0;0;0
826145.2056;NotLabelled;NONE;16384;-0.5096953;-0.3088643;-0.801701;0.04570637;-58;29;64;2438;-740;4057;65536;0.9369937;0.1620499;0.2202216;-0.2174515;-15;47;-32;-1495;-1833;-5381;8192;0.7977298;-0.5983379;-0.07202215;0.02077562;45;-52;-58;-1030;4547;1117;32768;0.5706371;-0.5706371;0.5904681;-0.009695291;-120;78;-246;4256;2363;-2384;256;0.4113573;-0.536011;-0.4958449;-0.5455412;-8;-26;26;253;4154;-455;128;-0.2797784;0.5180055;0.5277008;0.6123121;9;-15;-18;-855;4001;966;4;-0.2922437;-0.04155125;-0.699361;-0.6509695;4;0;-5;2019;3798;654;16;0.5872576;-0.6346484;0.4085872;0.2922437;2;27;5;1047;3812;414;2;0.666205;-0.7280393;-0.1523546;-0.05401662;3;-3;4;697;3978;-381;8;0.3587258;-0.6243604;0.3490305;0.599723;5;32;0;-225;3737;2013;0.5521955;2.662457;0.8162561;0.5581765;3.207483;0.8393174;0.5634347;3.686647;0.8575672;0.6183326;4.407344;0.9842359;0.3852849;4.753877;1.002971;0.03364696;4.631212;1.040962;-0.4894233;4.970875;0.3558669;0.2752387;5.355464;-0.05055693;0.9041259;4.714358;1.002971;1.180893;4.543828;1.040962;1.467321;3.632219;1.164266;1.046221;3.089701;0.5114745;0.239945;2.620742;0.8066844;0.1968044;1.325684;0.1271088;0;0;0;0.239945;2.620742;0.8066844;0.1968044;1.325684;0.1271088;0;0;0
826166.2356;NotLabelled;NONE;16384;-0.5138504;-0.3102493;-0.797594;0.05955679;-68;25;71;1832;-972;4019;65536;0.9367049;0.1578947;0.2160665;-0.2257618;-5;56;-46;-1225;-1517;-5299;8192;0.7947146;-0.6038781;-0.05817174;0.01939058;42;-59;-86;-1472;4419;1051;32768;0.5817174;-0.5887893;0.5609418;0.0166205;-114;44;-254;3796;2383;-2450;256;0.4127424;-0.543127;-0.4958449;-0.5373961;-14;-30;26;243;4120;-493;128;-0.2811634;0.5207756;0.5277008;0.6093207;15;-19;-23;-421;3919;942;4;-0.2936288;-0.03739612;-0.7003025;-0.6495845;0;16;-3;1371;3632;642;16;0.5858725;-0.6393284;0.4072022;0.2867036;4;-4;2;1459;3924;152;2;0.66482;-0.7293043;-0.1523546;-0.05401662;2;7;5;803;4190;-201;8;0.3642659;-0.6261138;0.3448753;0.5969529;3;42;1;-293;3399;1789;0.5444235;2.663439;0.816179;0.5504051;3.208529;0.837689;0.5556639;3.687742;0.854575;0.6154848;4.408328;0.979637;0.3848025;4.756479;0.9976438;0.03234553;4.636293;1.035966;-0.4708522;4.995329;0.3458833;0.3036267;5.373777;-0.0475083;0.9033629;4.713433;0.9976435;1.178971;4.541109;1.035965;1.449715;3.623325;1.148412;1.064092;3.01704;0.5307529;0.2321725;2.621697;0.8067364;0.1998049;1.324981;0.1297294;0;0;0;0.2321725;2.621697;0.8067364;0.1998049;1.324981;0.1297294;0;0;0
826186.158;NotLabelled;NONE;16384;-0.5249307;-0.3144044;-0.7862719;0.08587258;-74;22;73;1582;-1268;3225;65536;0.9367961;0.1523546;0.199446;-0.2437673;17;52;-71;-341;-547;-4389;8192;0.7915848;-0.6094183;-0.04155125;0.0166205;43;-63;-105;-1946;4313;739;32768;0.5941828;-0.6004264;0.533241;0.04570637;-107;31;-258;4010;3169;-2374;256;0.4182825;-0.549619;-0.4944598;-0.5277008;-9;-43;21;-95;4048;-601;128;-0.2880886;0.5249307;0.5304709;0.6000444;28;-25;-16;-191;4025;1154;4;-0.2936288;-0.03462604;-0.7004449;-0.6495845;0;9;-3;1349;3638;778;16;0.5858725;-0.6384441;0.4085872;0.2867036;7;-2;1;755;4082;78;2;0.66482;-0.7279141;-0.1578947;-0.0567867;0;14;2;497;3890;-161;8;0.368421;-0.6285877;0.3407202;0.5941828;-1;4;0;-133;3247;1753;0.5459358;2.663662;0.8166825;0.5519178;3.208783;0.8373912;0.5571768;3.688021;0.8535727;0.6259098;4.408079;0.9770809;0.3995391;4.759083;0.9944155;0.04564122;4.64333;1.0331;-0.4223072;5.027208;0.3316793;0.3654748;5.399882;-0.04022178;0.9175298;4.709653;0.9943507;1.191007;4.534029;1.032956;1.447145;3.610417;1.130987;1.100339;2.943629;0.5540068;0.2336847;2.621907;0.8073059;0.2106258;1.322833;0.1344497;0;0;0;0.2336847;2.621907;0.8073059;0.2106258;1.322833;0.1344497;0;0;0
826207.035;NotLabelled;NONE;16384;-0.5277008;-0.3144044;-0.7825975;0.101108;-76;37;68;1380;-1470;3239;65536;0.9377079;0.1495845;0.1883656;-0.2506925;24;52;-81;-3;-329;-3847;8192;0.7870559;-0.6163435;-0.02077562;0.01523546;45;-95;-118;-2168;4193;553;32768;0.6052631;-0.6088247;0.5069252;0.07756232;-106;3;-255;5096;3713;-1896;256;0.4224377;-0.5528901;-0.4916897;-0.5235457;-8;-47;21;-175;4064;-593;128;-0.2922437;0.5263157;0.5304709;0.5968132;26;-23;-11;-363;4099;1208;4;-0.2936288;-0.033241;-0.7005121;-0.6495845;0;-1;-2;1401;3688;866;16;0.5858725;-0.6375556;0.4099723;0.2867036;7;-5;1;797;3986;-142;2;0.66482;-0.7275028;-0.1592798;-0.05817174;-1;4;0;97;3666;-253;8;0.367036;-0.6273337;0.3421052;0.5955678;-3;-15;0;-11;3193;1949;0.5266883;2.666118;0.819055;0.5326729;3.21148;0.8319168;0.537934;3.690901;0.8412001;0.6118468;4.411232;0.9600351;0.3879848;4.763941;0.9752198;0.0332942;4.650957;1.014822;-0.4006131;5.08133;0.3185233;0.4135554;5.443893;-0.003150731;0.905611;4.71083;0.9752192;1.177854;4.533519;1.014821;1.422204;3.604417;1.087875;1.122683;2.882102;0.5527706;0.2144358;2.624231;0.8103296;0.2075218;1.322508;0.1422541;0;0;0;0.2144358;2.624231;0.8103296;0.2075218;1.322508;0.1422541;0;0;0
826228.2614;NotLabelled;NONE;16384;-0.5318559;-0.3130194;-0.778211;0.1163435;-80;44;63;814;-1710;3197;65536;0.9383081;0.1468144;0.1759003;-0.2590028;27;60;-90;331;-3;-3701;8192;0.7829284;-0.6218836;0.002770083;0.0166205;43;-133;-126;-2620;4081;571;32768;0.6158671;-0.6121883;0.4833795;0.1108033;-108;-28;-254;4954;4015;-1940;256;0.4252077;-0.558414;-0.4889196;-0.5180055;-9;-51;26;-233;4168;-903;128;-0.2963989;0.5277008;0.5318559;0.5922911;24;-21;-11;-611;4067;1002;4;-0.2922437;-0.03462604;-0.7023049;-0.6481994;-3;-13;-4;1489;3616;784;16;0.5872576;-0.63628;0.4099723;0.2867036;7;-1;1;465;4136;-496;2;0.66482;-0.7279141;-0.1578947;-0.0567867;2;-14;-2;-95;3588;81;8;0.3642659;-0.6268748;0.3434903;0.5969529;-3;-24;-1;27;3557;2053;0.5150993;2.667148;0.8220943;0.5210846;3.21257;0.8321018;0.5263461;3.692033;0.8388758;0.5997687;4.412601;0.9565787;0.3756599;4.765174;0.9712507;0.02105555;4.652001;1.011085;-0.3925275;5.105503;0.3171012;0.4365159;5.460762;0.02679956;0.8933237;4.71243;0.9712501;1.165698;4.535372;1.011084;1.394164;3.600397;1.054661;1.136731;2.827525;0.570735;0.2028463;2.625217;0.813606;0.2055598;1.322175;0.1480737;0;0;0;0.2028463;2.625217;0.813606;0.2055598;1.322175;0.1480737;0;0;0
826248.2937;NotLabelled;NONE;16384;-0.533241;-0.3130194;-0.7745925;0.132964;-83;47;55;474;-2084;2981;65536;0.9376537;0.1454294;0.1634349;-0.2700831;28;67;-95;907;171;-3159;8192;0.7719728;-0.6315789;0.06509695;0.03047091;55;-204;-139;-2638;3803;61;32768;0.6305242;-0.6108033;0.4432133;0.1814404;-84;-91;-231;4584;5383;-2196;256;0.4293629;-0.5640062;-0.4861496;-0.5110803;-14;-66;31;-13;4016;-1013;128;-0.299169;0.5304709;0.5318559;0.5884113;19;-29;-15;-787;3903;1136;4;-0.2894737;-0.03601108;-0.7021027;-0.6495845;-3;-27;0;1629;3700;516;16;0.5886427;-0.6356224;0.4099723;0.2853186;7;3;2;523;4200;-434;2;0.66482;-0.7286161;-0.1551246;-0.05540166;5;-32;-3;279;4010;-159;8;0.3628809;-0.6255959;0.3448753;0.5983379;-3;-12;0;-311;3735;2097;0.505151;2.667089;0.8285598;0.5111371;3.212575;0.8340512;0.516399;3.692078;0.8368556;0.5929098;4.412237;0.9550931;0.3702842;4.765729;0.9702095;0.0152388;4.654004;1.010201;-0.3616023;5.135443;0.3141145;0.482574;5.482795;0.0601272;0.8877232;4.710826;0.9698018;1.159384;4.532601;1.0093;1.374115;3.593411;1.018671;1.161872;2.777397;0.5863981;0.1928973;2.625089;0.8204473;0.1987879;1.322536;0.1539804;0;0;0;0.1928973;2.625089;0.8204473;0.1987879;1.322536;0.1539804;0;0;0
826268.5688;NotLabelled;NONE;16384;-0.534626;-0.3130194;-0.7705961;0.1495845;-83;44;45;378;-2144;2977;65536;0.9362983;0.1426593;0.1495845;-0.2839335;23;70;-94;1917;399;-2923;8192;0.7614429;-0.6385041;0.1038781;0.04155125;62;-239;-139;-1278;3415;-259;32768;0.6349038;-0.6038781;0.4307479;0.2160665;-59;-122;-196;4194;5577;-2294;256;0.433518;-0.5718562;-0.4833795;-0.501385;-22;-70;39;69;3616;-923;128;-0.3033241;0.533241;0.5318559;0.5837618;26;-37;-19;-849;3855;1274;4;-0.2867036;-0.0401662;-0.701731;-0.6509695;-2;-35;4;1635;3678;362;16;0.5886427;-0.6347269;0.4113573;0.2853186;5;-4;2;797;4120;-302;2;0.66482;-0.7296935;-0.1509695;-0.05263158;7;-36;-4;819;4366;-143;8;0.3628809;-0.6255959;0.3448753;0.5983379;-2;0;0;-265;3697;2233;0.485721;2.668487;0.833442;0.4917071;3.213989;0.83709;0.4969691;3.693499;0.8382741;0.5763338;4.413539;0.9553416;0.3551229;4.767946;0.969812;-0.0003783558;4.657712;1.00989;-0.3506349;5.159638;0.3143915;0.5071738;5.501662;0.1023051;0.8723378;4.710969;0.9696382;1.143272;4.531723;1.009506;1.327868;3.587816;0.9526013;1.197618;2.705568;0.6325067;0.1734669;2.62646;0.825483;0.1933618;1.322337;0.1623648;0;0;0;0.1734669;2.62646;0.825483;0.1933618;1.322337;0.1623648;0;0;0
826289.2384;NotLabelled;NONE;16384;-0.534626;-0.3130194;-0.7671831;0.166205;-87;46;31;378;-2252;2953;65536;0.9354005;0.1398892;0.1357341;-0.2950138;18;69;-92;1965;525;-2461;8192;0.7519475;-0.6412742;0.1412742;0.05817174;58;-250;-123;208;3347;-53;32768;0.6376052;-0.5941828;0.4238227;0.2465374;-37;-136;-151;3068;5309;-2280;256;0.4390582;-0.5783457;-0.4806094;-0.4916897;-25;-79;47;11;3642;-1045;128;-0.3060942;0.5387812;0.5304709;0.5784651;26;-41;-23;-677;3759;1374;4;-0.2797784;-0.04847645;-0.7014261;-0.6537396;-3;-35;5;1675;3632;444;16;0.5886427;-0.6322969;0.4141274;0.2867036;6;-12;0;779;3910;12;2;0.66482;-0.7307351;-0.1468144;-0.04986149;5;-30;-3;1135;4398;-127;8;0.3628809;-0.6263574;0.3434903;0.5983379;0;1;0;-271;3645;2453;0.4643213;2.667117;0.8421954;0.4703076;3.212631;0.8429782;0.4755695;3.69214;0.8416436;0.5612305;4.411659;0.9574758;0.3431098;4.767995;0.9714464;-0.01331739;4.660917;1.011856;-0.33164;5.187677;0.3193795;0.5401112;5.521251;0.1563614;0.8598107;4.706531;0.9711527;1.129196;4.525007;1.011207;1.288206;3.579604;0.9152709;1.201121;2.676645;0.6416501;0.1520668;2.625049;0.8344755;0.1891646;1.321982;0.170021;0;0;0;0.1520668;2.625049;0.8344755;0.1891646;1.321982;0.170021;0;0;0
826310.0655;NotLabelled;NONE;16384;-0.5263157;-0.3116343;-0.7659293;0.1980609;-88;58;0;248;-2506;2705;65536;0.9312126;0.1315789;0.1108033;-0.3213296;10;69;-80;2817;399;-2605;8192;0.7405829;-0.6440443;0.1759003;0.07617728;58;-223;-98;1264;3643;49;32768;0.6386259;-0.5831025;0.4224377;0.2714681;-23;-131;-103;1936;4935;-1360;256;0.4487534;-0.5958899;-0.4736842;-0.468144;-32;-86;57;-297;3904;-1201;128;-0.3157895;0.5470914;0.5290859;0.5666005;31;-47;-27;-367;3931;1510;4;-0.2783934;-0.05263158;-0.7003847;-0.6551247;-5;-26;3;1797;3532;540;16;0.5886427;-0.6313876;0.4155124;0.2867036;6;-9;0;1277;3896;-62;2;0.66482;-0.7319142;-0.1426593;-0.04432133;0;-16;5;815;4212;-327;8;0.3628809;-0.6263574;0.3434903;0.5983379;3;2;1;-129;3653;2177;0.4415397;2.666054;0.8513561;0.447526;3.211568;0.8520323;0.452788;3.691077;0.8506039;0.5428118;4.410551;0.9633703;0.3268581;4.768261;0.9758074;-0.03021405;4.663522;1.016652;-0.3389874;5.209369;0.3347151;0.54414;5.53319;0.2205964;0.8431763;4.70366;0.9758068;1.111454;4.520677;1.016652;1.24781;3.574924;0.8932276;1.198878;2.658954;0.6557562;0.1292852;2.623985;0.8436449;0.1824411;1.321803;0.1785469;0;0;0;0.1292852;2.623985;0.8436449;0.1824411;1.321803;0.1785469;0;0;0
826331.0265;NotLabelled;NONE;16384;-0.5193906;-0.3116343;-0.7661784;0.2146814;-93;62;-15;240;-2616;2289;65536;0.9286546;0.1274238;0.09972299;-0.333795;8;69;-72;2713;535;-1969;8192;0.7312534;-0.6454294;0.200831;0.09141274;52;-167;-67;2206;4331;305;32768;0.6357779;-0.5747922;0.4252077;0.2908587;-20;-129;-49;1844;4639;-332;256;0.4542936;-0.6035016;-0.4709141;-0.4556787;-34;-94;55;117;3880;-1275;128;-0.3213296;0.5526316;0.5277008;0.5593545;29;-49;-26;-395;3917;1516;4;-0.2770083;-0.05540166;-0.7007202;-0.6551247;-5;-16;3;1955;3658;650;16;0.5886427;-0.6295559;0.4182825;0.2867036;8;-23;-1;1321;3924;-4;2;0.6634349;-0.7332523;-0.1426593;-0.04293629;-1;-14;8;575;4176;-327;8;0.3642659;-0.625553;0.3434903;0.5983379;3;6;0;-7;3473;1931;0.3873578;2.663411;0.8640864;0.3933439;3.208907;0.8596084;0.3986055;3.68838;0.8536495;0.5033412;4.406272;0.9637633;0.2947333;4.768355;0.9750003;-0.06437877;4.671068;1.016387;-0.3297059;5.255588;0.3483548;0.5690964;5.555224;0.335369;0.8096267;4.693239;0.9749995;1.074138;4.504972;1.016387;1.192755;3.559346;0.8749709;1.182126;2.636328;0.6611643;0.07510254;2.621271;0.8568053;0.1711875;1.321431;0.1919423;0;0;0;0.07510254;2.621271;0.8568053;0.1711875;1.321431;0.1919423;0;0;0
826351.0659;NotLabelled;NONE;16384;-0.5096953;-0.3130194;-0.7681164;0.2285319;-91;56;-29;-56;-2772;1979;65536;0.9260181;0.1232687;0.09141274;-0.3448753;0;77;-65;2957;783;-1649;8192;0.7205824;-0.6454294;0.2271468;0.1121884;5;-84;-4;2606;5071;1927;32768;0.6162548;-0.5595568;0.4515235;0.3213296;-23;-194;54;1230;4991;1038;256;0.4598338;-0.6127616;-0.466759;-0.4418283;-31;-90;44;579;3890;-1037;128;0.3254848;-0.5609846;-0.5263157;-0.5498615;28;-54;-23;-545;3785;1458;4;-0.2756233;-0.0567867;-0.7024469;-0.6537396;-8;-13;2;1987;3756;986;16;0.5872576;-0.6283694;0.4210526;0.2880886;9;-20;-2;1185;3850;132;2;0.6634349;-0.7336773;-0.1412742;-0.0401662;1;-18;9;355;3852;-419;8;0.3642659;-0.6247904;0.3448753;0.5983379;2;-7;0;419;3627;1799;0.3634682;2.661288;0.8744947;0.369454;3.20676;0.8677197;0.3747153;3.686204;0.8597417;0.4867883;4.403498;0.9664791;0.2818627;4.767721;0.976189;-0.07818542;4.674265;1.018265;-0.3279321;5.278483;0.3618532;0.5743309;5.565781;0.3961846;0.7959697;4.687398;0.9761885;1.058592;4.496656;1.018264;1.161803;3.55112;0.864686;1.168773;2.624214;0.6682576;0.05121258;2.619117;0.8674055;0.1647157;1.320667;0.2025739;0;0;0;0.05121258;2.619117;0.8674055;0.1647157;1.320667;0.2025739;0;0;0
826372.0323;NotLabelled;NONE;16384;-0.4986149;-0.3157895;-0.7704418;0.2409972;-87;46;-44;-238;-2870;1777;65536;0.9231476;0.1191136;0.08310249;-0.3559557;1;69;-58;3019;863;-1445;8192;0.7207342;-0.6412742;0.234072;0.1204986;-18;-81;23;2408;5161;1861;32768;0.5987274;-0.5512465;0.4736842;0.3365651;-23;-209;69;-524;5267;910;256;0.4653739;-0.6195813;-0.4626039;-0.4307479;-28;-88;34;909;3690;-877;128;0.3310249;-0.564433;-0.5249307;-0.5443213;27;-55;-17;-729;3633;1326;4;-0.2742382;-0.05955679;-0.7027595;-0.6537396;-9;-21;0;1997;3668;1024;16;0.5872576;-0.6268013;0.4224377;0.2894737;10;-22;-3;1137;3806;78;2;0.6634349;-0.734089;-0.1398892;-0.03739612;3;-25;9;177;3844;-521;8;0.3628809;-0.6248303;0.3462604;0.5983379;1;-13;-1;241;3649;1589;0.3433311;2.660358;0.8796936;0.3493168;3.205815;0.8717883;0.3545779;3.685242;0.8628169;0.4749048;4.401424;0.9680142;0.2741719;4.767993;0.9770279;-0.08690921;4.678761;1.019417;-0.3251519;5.29918;0.373935;0.5776894;5.575213;0.4544324;0.7873242;4.681781;0.9770272;1.047758;4.488128;1.019417;1.135993;3.54216;0.8593074;1.137236;2.613735;0.670064;0.03107534;2.618173;0.872699;0.1597344;1.320151;0.2097924;0;0;0;0.03107534;2.618173;0.872699;0.1597344;1.320151;0.2097924;0;0;0
826393.2391;NotLabelled;NONE;16384;-0.4861496;-0.3185596;-0.7737153;0.2520775;-81;43;-61;18;-3056;1395;65536;0.9197531;0.1163435;0.07617728;-0.367036;0;66;-54;3141;759;-1261;8192;0.7228471;-0.634349;0.2396122;0.132964;-36;-102;31;894;5099;1359;32768;0.5834462;-0.5415512;0.4944598;0.3490305;-24;-185;63;-1978;5167;632;256;0.4709141;-0.6260541;-0.4584487;-0.4196676;-23;-85;26;847;3554;-937;128;0.3365651;-0.569023;-0.5221606;-0.5387812;27;-54;-14;-771;3585;1298;4;-0.2686981;-0.06509695;-0.7056893;-0.6523545;-11;-29;-5;1775;3474;808;16;0.5872576;-0.6210842;0.4279778;0.2936288;13;-22;-3;457;4142;-316;2;0.6620498;-0.7362522;-0.1357341;-0.03462604;5;-32;7;135;3940;-479;8;0.3614958;-0.6248641;0.3476454;0.5983379;-1;-10;0;-13;3595;1647;0.3180248;2.659165;0.8837202;0.3240101;3.204579;0.8732837;0.3292707;3.683959;0.8620878;0.4544595;4.399565;0.9655233;0.2562025;4.767498;0.973741;-0.1054535;4.680799;1.016489;-0.339306;5.316142;0.3840483;0.5624442;5.580551;0.50542;0.7687628;4.677833;0.9737404;1.027905;4.482533;1.016488;1.124862;3.536882;0.859583;1.110386;2.609301;0.6667848;0.005768642;2.616948;0.8769373;0.1514311;1.320322;0.2148189;0;0;0;0.005768642;2.616948;0.8769373;0.1514311;1.320322;0.2148189;0;0;0
826415.175;NotLabelled;NONE;16384;-0.4584487;-0.3254848;-0.7825779;0.267313;-59;35;-87;148;-3504;775;65536;0.9118413;0.1108033;0.06094183;-0.3905817;15;78;-47;3531;621;-935;8192;0.7248863;-0.6260388;0.2479224;0.1454294;-19;-114;20;-522;4769;-259;32768;0.5685272;-0.536011;0.5096953;0.3601108;-28;-140;44;-2288;4929;496;256;0.4819945;-0.6382172;-0.4473684;-0.400277;-24;-83;17;321;3796;-809;128;0.3476454;-0.5765135;-0.5193906;-0.5263157;30;-54;-15;-855;3641;948;4;-0.2645429;-0.06786703;-0.7069969;-0.6523545;-10;-30;-6;1725;3376;684;16;0.5886427;-0.6188129;0.4293629;0.2936288;13;-8;-1;347;4156;-486;2;0.6606648;-0.7387324;-0.1301939;-0.02908587;4;-25;3;551;3816;-563;8;0.3601108;-0.6235626;0.3490305;0.599723;-6;-7;-1;21;3709;1941;0.2992428;2.658597;0.8925213;0.3052278;3.203992;0.8811438;0.3104882;3.683352;0.8691207;0.4404101;4.398387;0.9706482;0.2445711;4.767631;0.9780037;-0.1176248;4.683414;1.021139;-0.3517889;5.331313;0.4016863;0.5464237;5.587058;0.5617035;0.756533;4.674611;0.9780034;1.01441;4.477728;1.021139;1.126138;3.532044;0.8745942;1.1001;2.606215;0.6747245;-0.01301344;2.616368;0.8858172;0.1375972;1.320388;0.2235408;0;0;0;-0.01301344;2.616368;0.8858172;0.1375972;1.320388;0.2235408;0;0;0
826435.3059;NotLabelled;NONE;16384;-0.4432133;-0.3296399;-0.788641;0.2700831;-41;16;-98;156;-3412;745;65536;0.9075384;0.1094183;0.05540166;-0.4016621;16;82;-39;3523;303;-597;8192;0.7248228;-0.6204986;0.2534626;0.1592798;-5;-98;31;-434;4819;-983;32768;0.558639;-0.5304709;0.5193906;0.3698061;-29;-114;30;-1236;4795;194;256;0.4889196;-0.641956;-0.4418283;-0.3919668;-26;-78;13;659;3820;-655;128;0.3531856;-0.5818906;-0.5166205;-0.5193906;28;-54;-14;-1019;3649;988;4;-0.2603878;-0.07202215;-0.7081275;-0.6523545;-6;-35;-7;1901;3374;366;16;0.5900277;-0.6165271;0.4307479;0.2936288;13;-7;-1;691;3976;-374;2;0.6606648;-0.7393191;-0.1274238;-0.02631579;2;-24;2;551;4110;-515;8;0.3587258;-0.6230271;0.3490305;0.601108;-6;-8;0;-85;3575;2023;0.2517061;2.659616;0.8937867;0.2576896;3.204873;0.8770409;0.2629483;3.684091;0.8602995;0.3975393;4.398355;0.9611699;0.2041094;4.768873;0.9682287;-0.1586198;4.687054;1.011498;-0.4025015;5.350728;0.4128444;0.4835386;5.58728;0.651114;0.7154548;4.672522;0.968228;0.9720519;4.474002;1.011497;1.103728;3.529311;0.8754996;1.070291;2.603981;0.6744198;-0.06055082;2.617323;0.8875321;0.1193256;1.320199;0.2348671;0;0;0;-0.06055082;2.617323;0.8875321;0.1193256;1.320199;0.2348671;0;0;0
826456.048;NotLabelled;NONE;16384;-0.4279778;-0.33518;-0.7951671;0.2686981;-27;5;-107;640;-3400;849;65536;0.9012077;0.1080332;0.04847645;-0.4168975;14;63;-36;4007;-91;-555;8192;0.7248387;-0.6108033;0.2590028;0.1855956;-24;-80;39;1238;4171;-319;32768;0.533241;-0.5180055;0.5419284;0.3919668;-35;-142;13;86;4775;512;256;0.4944598;-0.6473258;-0.4362881;-0.3822715;-27;-78;7;1247;3860;-651;128;0.3587258;-0.5846418;-0.5152354;-0.5138504;26;-50;-12;-1127;3687;710;4;-0.2562327;-0.07479224;-0.7080787;-0.6537396;-2;-36;-8;2027;3354;340;16;0.5914127;-0.6125847;0.433518;0.2950138;12;-22;-3;1115;4010;-554;2;0.6606648;-0.7396498;-0.1260388;-0.0235457;1;-17;4;597;4104;-197;8;0.3587258;-0.6230271;0.3490305;0.601108;-5;-8;-1;-53;3515;2271;0.230454;2.659217;0.8981135;0.2364371;3.204438;0.8802463;0.2416955;3.683622;0.8625194;0.3755283;4.398412;0.9606351;0.181658;4.768719;0.966542;-0.1809265;4.686621;1.010491;-0.4250944;5.352788;0.4147296;0.453192;5.583119;0.6855755;0.6931193;4.672984;0.966356;0.9500013;4.474935;1.010081;1.093058;3.529995;0.8880174;1.055525;2.604414;0.6888192;-0.08180313;2.616912;0.891953;0.1077281;1.319971;0.2416608;0;0;0;-0.08180313;2.616912;0.891953;0.1077281;1.319971;0.2416608;0;0;0
826477.1872;NotLabelled;NONE;16384;-0.4141274;-0.3407202;-0.8005947;0.267313;-13;-3;-109;896;-3476;1161;65536;0.8965124;0.1066482;0.04155125;-0.4279778;12;42;-29;4177;-721;-597;8192;0.7280867;-0.6038781;0.2590028;0.1952908;-24;-57;39;1446;4729;641;32768;0.5207756;-0.5110803;0.551384;0.4044321;-38;-119;16;-16;4687;656;256;0.5;-0.6507028;-0.432133;-0.3739612;-24;-69;2;1545;3498;-583;128;0.3642659;-0.5872723;-0.5138504;-0.5083103;22;-45;-8;-1191;3597;800;4;-0.2520775;-0.07894737;-0.7078389;-0.6551247;-3;-30;-10;2195;3480;308;16;0.5914127;-0.6109321;0.434903;0.2963989;11;-14;-2;645;3990;-730;2;0.6606648;-0.7399675;-0.1246537;-0.02077562;1;-17;6;659;4018;-207;8;0.3573407;-0.6224849;0.3490305;0.602493;-3;-6;-1;-149;3663;2285;0.2005896;2.660653;0.8971391;0.2065715;3.205771;0.8763629;0.2118289;3.684853;0.8560796;0.3477884;4.399364;0.9532955;0.1549849;4.770232;0.9589472;-0.207798;4.689223;1.003278;-0.4663007;5.353617;0.4115988;0.4015899;5.576401;0.7197052;0.6661694;4.673032;0.9584576;0.9225179;4.474295;1.002196;1.078221;3.528327;0.9064068;1.021464;2.602321;0.7138432;-0.1116678;2.618315;0.8912227;0.09286733;1.319799;0.2486665;0;0;0;-0.1116678;2.618315;0.8912227;0.09286733;1.319799;0.2486665;0;0;0
826499.0349;NotLabelled;NONE;16384;-0.400277;-0.3476454;-0.8055669;0.2645429;-5;-6;-105;1094;-3464;1223;65536;0.8940301;0.1066482;0.03739612;-0.433518;8;29;-23;4477;-1395;-837;8192;0.7311472;-0.5983379;0.2590028;0.200831;-31;-38;37;1486;4973;837;32768;0.5110803;-0.5083103;0.5568315;0.4127424;-39;-82;28;102;4617;1146;256;0.5055401;-0.653107;-0.4279778;-0.367036;-18;-59;-2;1709;3266;-751;128;0.368421;-0.59065;-0.5124654;-0.5027701;21;-42;-4;-1329;3759;824;4;-0.2479224;-0.08448754;-0.7073835;-0.6565097;-8;-19;1;2435;3664;206;16;0.5955678;-0.6082273;0.434903;0.2936288;8;23;2;289;4270;-952;2;0.6606648;-0.740272;-0.1232687;-0.01800554;2;-22;8;701;4244;-365;8;0.3559557;-0.6227114;0.3476454;0.6038781;-2;-3;-1;-145;3551;2233;0.1790533;2.661029;0.8943548;0.1850339;3.206026;0.8705995;0.1902899;3.68499;0.8476978;0.3273999;4.399641;0.9422333;0.1352042;4.770844;0.9464323;-0.2277213;4.690598;0.9909849;-0.5154533;5.34816;0.4051942;0.3422018;5.563033;0.7458616;0.6462286;4.672803;0.9464319;0.9022405;4.473813;0.9909847;1.070251;3.528367;0.9123853;1.008481;2.601384;0.7261709;-0.1332045;2.61866;0.8886885;0.08474392;1.319889;0.2510754;0;0;0;-0.1332045;2.61866;0.8886885;0.08474392;1.319889;0.2510754;0;0;0
826520.028;NotLabelled;NONE;16384;-0.3753462;-0.3614958;-0.8145481;0.2548476;3;-19;-97;1636;-3354;1641;65536;0.8894286;0.1066482;0.033241;-0.4432133;0;26;-6;4477;-1345;-1369;8192;0.7350827;-0.5927978;0.2562327;0.2063712;-34;-26;49;1514;4341;493;32768;0.5;-0.5083103;0.5627258;0.4182825;-43;-62;34;-256;4753;1728;256;0.5124654;-0.659338;-0.4182825;-0.3573407;-14;-48;-7;1065;4202;-677;128;0.3767313;-0.5959543;-0.5096953;-0.4930748;22;-38;-5;-1359;4089;712;4;-0.2465374;-0.08864266;-0.7073591;-0.6565097;-3;-18;10;2183;3638;108;16;0.5983379;-0.6078281;0.433518;0.2908587;4;16;1;935;4204;-1048;2;0.6592798;-0.7417968;-0.1218837;-0.01523546;3;-23;9;771;4124;-239;8;0.3559557;-0.6227114;0.3476454;0.6038781;-2;-7;-1;-27;3565;2143;0.1496364;2.659237;0.9011214;0.1556162;3.204152;0.8755541;0.1608713;3.683036;0.8510599;0.2976957;4.398132;0.942602;0.1053171;4.769252;0.9454509;-0.2575336;4.689006;0.9906087;-0.5631373;5.341288;0.4079743;0.2853774;5.552684;0.7728466;0.6163905;4.671468;0.9454499;0.8725368;4.472787;0.9906075;1.05289;3.5288;0.9225191;0.9850303;2.600946;0.7428784;-0.1626216;2.616849;0.8956075;0.06743108;1.319143;0.2600814;0;0;0;-0.1626216;2.616849;0.8956075;0.06743108;1.319143;0.2600814;0;0;0
826540.0505;NotLabelled;NONE;16384;-0.3642659;-0.368421;-0.8186029;0.2479224;8;-19;-91;1830;-3194;1893;65536;0.8882588;0.1052632;0.03185596;-0.4459834;-7;0;-2;4461;-1689;-1311;8192;0.7399182;-0.5872576;0.2493075;0.2132964;-31;-26;62;1576;4137;23;32768;0.4903047;-0.5096953;0.5658501;0.4238227;-51;-55;34;-516;4713;2190;256;0.5166205;-0.6609551;-0.4141274;-0.3531856;-17;-46;-8;1481;4042;-841;128;0.3808864;-0.5979162;-0.5083103;-0.4889196;19;-36;-3;-1535;4165;616;4;-0.2465374;-0.09141274;-0.7057177;-0.6578947;3;-15;16;2079;3674;264;16;0.5983379;-0.608489;0.433518;0.2894737;0;3;-2;1089;4328;-1092;2;0.6592798;-0.7425916;-0.1177285;-0.006925208;4;-36;9;649;4016;-383;8;0.3531856;-0.622169;0.3490305;0.6052631;0;-9;0;-69;3489;2023;0.1130897;2.656137;0.9038862;0.1190674;3.200859;0.8744992;0.1243205;3.67956;0.8466482;0.2592138;4.394806;0.9398693;0.065853;4.765409;0.9434752;-0.2968034;4.684102;0.9882938;-0.6363157;5.319725;0.4060187;0.1963196;5.527388;0.807754;0.5771832;4.668977;0.9434746;0.8338346;4.470872;0.9882931;1.028098;3.528517;0.9382563;0.9502277;2.600819;0.761906;-0.1991686;2.613711;0.8986934;0.05219108;1.318708;0.2657305;0;0;0;-0.1991686;2.613711;0.8986934;0.05219108;1.318708;0.2657305;0;0;0
826561.0247;NotLabelled;NONE;16384;-0.3545706;-0.3739612;-0.8219997;0.2423823;8;-18;-82;2220;-3018;1999;65536;0.8904955;0.1038781;0.03185596;-0.4418283;-15;-32;0;4373;-1511;-1871;8192;0.7492154;-0.5747922;0.234072;0.2313019;-22;-18;89;1572;4025;687;32768;0.468144;-0.5152354;0.5690482;0.4376731;-76;-47;28;-1010;4565;2312;256;0.5207756;-0.6624901;-0.4099723;-0.3490305;-15;-44;-9;1305;4048;-873;128;0.3850415;-0.599811;-0.5069252;-0.4847645;20;-36;0;-1449;4035;718;4;-0.2479224;-0.09556787;-0.7033857;-0.6592798;1;-18;21;2009;4032;352;16;0.599723;-0.6081105;0.432133;0.2894737;0;9;-5;843;4110;-682;2;0.6578947;-0.7444918;-0.1135734;-0.002770083;5;-38;8;865;3996;-211;8;0.3518005;-0.6208247;0.3504155;0.6066482;0;-11;0;-5;3519;2147;0.09558997;2.653312;0.9053565;0.1015664;3.197922;0.8739644;0.1068184;3.676518;0.8443514;0.2397505;4.392306;0.9362174;0.04533181;4.762359;0.9393755;-0.3170468;4.680091;0.9846838;-0.6664765;5.306519;0.3983262;0.160618;5.510618;0.8131214;0.556936;4.667392;0.9390458;0.8141973;4.470101;0.9839553;1.02164;3.529655;0.9555674;0.9318803;2.601592;0.786957;-0.2166686;2.610868;0.9003328;0.0498693;1.318156;0.2688969;0;0;0;-0.2166686;2.610868;0.9003328;0.0498693;1.318156;0.2688969;0;0;0
826582.1033;NotLabelled;NONE;16384;-0.3448753;-0.3795014;-0.8255905;0.2354571;10;-11;-82;2472;-2980;2001;65536;0.893383;0.1024931;0.03185596;-0.4362881;-17;-49;6;4195;-1329;-2437;8192;0.7543557;-0.567867;0.2229917;0.2423823;-22;-15;102;1380;3933;603;32768;0.4570637;-0.5193906;0.5678248;0.4459834;-85;-29;21;-748;4623;1864;256;0.5235457;-0.6650364;-0.4058172;-0.3448753;-12;-37;-8;1413;4074;-831;128;0.3891967;-0.6016392;-0.5055401;-0.4806094;23;-30;4;-1341;4207;682;4;-0.2479224;-0.09972299;-0.7028086;-0.6592798;-2;-17;23;1741;3762;402;16;0.599723;-0.6074493;0.432133;0.2908587;7;-21;-20;19;4350;-1068;2;0.6578947;-0.7449129;-0.1108033;0.001385042;5;-35;6;1249;4010;-169;8;0.3518005;-0.6200409;0.3518005;0.6066482;1;-7;0;-149;3519;2295;0.06783468;2.648885;0.9052228;0.07380971;3.193374;0.8717842;0.07906038;3.671855;0.8403728;0.2098957;4.388192;0.9309533;0.01440755;4.757688;0.9333681;-0.3477455;4.674456;0.97872;-0.7170761;5.28888;0.391859;0.1052717;5.490838;0.8170112;0.5262842;4.664199;0.9333674;0.7841005;4.467735;0.9787192;1.015781;3.532811;1.001455;0.8959333;2.603735;0.8591872;-0.2444241;2.606423;0.9003714;0.04203349;1.318734;0.2673948;0;0;0;-0.2444241;2.606423;0.9003714;0.04203349;1.318734;0.2673948;0;0;0
826602.1772;NotLabelled;NONE;16384;-0.33518;-0.3836565;-0.8292167;0.2299169;0;-6;-79;2378;-2942;2165;65536;0.8966291;0.1024931;0.03462604;-0.4293629;-10;-37;14;3619;-853;-2967;8192;0.7590748;-0.5609418;0.2119114;0.2534626;-23;-21;109;1420;3813;291;32768;0.4473684;-0.5249307;0.5649629;0.4529086;-86;-12;19;-70;4891;1454;256;0.5277008;-0.6664152;-0.4016621;-0.3407202;-18;-40;-4;1043;4136;-783;128;0.3933518;-0.6011432;-0.5055401;-0.4778393;23;-26;5;-1195;4041;638;4;-0.2479224;-0.1024931;-0.70241;-0.6592798;-4;-25;19;1399;3324;294;16;0.6037733;-0.599723;0.433518;0.2963989;5;-70;-29;1335;3878;-274;2;0.6565097;-0.7463189;-0.1094183;0.005540166;3;-27;6;1425;4152;-399;8;0.3518005;-0.6208247;0.3504155;0.6066482;2;8;3;-63;3899;2173;0.05068466;2.645319;0.9058213;0.0566583;3.189676;0.8702948;0.06190765;3.668032;0.8370485;0.1919828;4.384418;0.9283529;-0.003889441;4.753706;0.9310945;-0.3659639;4.670054;0.9763002;-0.7482262;5.272318;0.3851293;0.06960952;5.472163;0.8198751;0.5080839;4.660749;0.9310936;0.7660964;4.464509;0.9762992;1.009837;3.534156;1.033813;0.8762176;2.604373;0.9095737;-0.2615743;2.602839;0.9011459;0.03709601;1.319278;0.2654359;0;0;0;-0.2615743;2.602839;0.9011459;0.03709601;1.319278;0.2654359;0;0;0
826623.0666;NotLabelled;NONE;16384;-0.3157895;-0.3933518;-0.8345309;0.2216066;3;-22;-71;2170;-3116;1833;65536;0.8996429;0.1038781;0.03739612;-0.4224377;0;-26;17;3887;-1183;-2263;8192;0.7627783;-0.5540166;0.199446;0.267313;-20;-29;114;2028;3825;147;32768;0.4376731;-0.5318559;0.560468;0.4598338;-86;-11;21;708;4909;1458;256;0.5318559;-0.6668871;-0.398892;-0.3365651;-19;-28;-4;1173;3880;-627;128;0.3975069;-0.6006052;-0.5055401;-0.4750692;22;-16;6;-1243;4037;500;4;-0.2423823;-0.1135734;-0.6987175;-0.6634349;10;-46;4;1519;3156;158;16;0.5984069;-0.5872576;0.4432133;0.3171745;0;-41;-13;-303;3708;208;2;0.6565097;-0.746495;-0.1080332;0.008310249;2;-19;6;1383;4584;-587;8;0.3531856;-0.6213899;0.3504155;0.6052631;4;8;3;299;3745;2131;0.01461005;2.644188;0.900044;0.02058083;3.188285;0.8607523;0.02582753;3.666401;0.8241975;0.1538254;4.383356;0.9139433;-0.04313314;4.752071;0.9159819;-0.4049426;4.667449;0.9615021;-0.7992674;5.258543;0.3669901;0.01499465;5.460853;0.8072679;0.4691119;4.660623;0.9159814;0.7277184;4.46524;0.9615015;0.9820365;3.540525;1.05369;0.8348015;2.610592;0.9472251;-0.2976493;2.601676;0.8956862;0.01206477;1.320894;0.2596563;0;0;0;-0.2976493;2.601676;0.8956862;0.01206477;1.320894;0.2596563;0;0;0
826644.0224;NotLabelled;NONE;16384;-0.3088643;-0.400277;-0.8349228;0.2174515;0;-24;-65;2346;-2882;1869;65536;0.9013631;0.1052632;0.03878116;-0.4182825;0;-32;16;3469;-1127;-2243;8192;0.7669354;-0.5457063;0.1869806;0.2811634;-16;-25;126;2494;3885;263;32768;0.4279778;-0.5387812;0.5567557;0.4653739;-83;-13;28;1538;5121;1474;256;0.5373961;-0.6660451;-0.3975069;-0.3310249;-23;-13;-8;1429;4002;-751;128;0.4030471;-0.600185;-0.5055401;-0.4709141;9;-11;9;-1341;3969;756;4;-0.2396122;-0.1177285;-0.6976678;-0.66482;3;-31;-2;2023;3346;732;16;0.5980013;-0.5858725;0.4445983;0.3185596;0;-10;-5;923;3516;44;2;0.6565097;-0.746459;-0.1080332;0.01108033;0;2;5;1213;4020;-477;8;0.3559557;-0.623278;0.3490305;0.602493;5;19;4;109;3345;1983;-0.01453623;2.643171;0.8808243;-0.008568615;3.186982;0.8377403;-0.003324866;3.664831;0.797853;0.1235842;4.382401;0.8841679;-0.07401904;4.750775;0.8849546;-0.4355899;4.665722;0.9315547;-0.8561414;5.24222;0.3406949;-0.04483983;5.449239;0.7842368;0.4383853;4.660226;0.8843615;0.6974235;4.465501;0.930244;0.9584551;3.546875;1.057775;0.7960434;2.617346;0.9718261;-0.3267959;2.60063;0.8767871;0.0006284043;1.324674;0.2399291;0;0;0;-0.3267959;2.60063;0.8767871;0.0006284043;1.324674;0.2399291;0;0;0
826665.0346;NotLabelled;NONE;16384;-0.300554;-0.4058172;-0.8367038;0.2119114;2;-22;-60;2526;-2760;1581;65536;0.9030567;0.1066482;0.0401662;-0.4141274;0;-50;8;1615;-1157;-2679;8192;0.7754081;-0.5304709;0.1565097;0.3047091;-13;0;141;2590;4177;335;32768;0.4072022;-0.5556728;0.5498615;0.4722992;-81;-4;45;1708;4843;1572;256;0.5415512;-0.6648748;-0.3961219;-0.3282548;-25;-29;-36;1121;3700;-301;128;0.4044321;-0.6004183;-0.5041551;-0.4709141;2;-5;16;-1251;3819;326;4;-0.2368421;-0.1191136;-0.6983783;-0.66482;-1;-9;-6;2369;3550;748;16;0.5972614;-0.5858725;0.4445983;0.3199446;1;-9;-2;1177;3756;106;2;0.6551247;-0.7470627;-0.1121884;0.01108033;1;8;3;863;3682;-527;8;0.3573407;-0.6238225;0.3490305;0.601108;3;14;3;135;3245;1911;-0.02877441;2.641974;0.8777025;-0.02281147;3.185358;0.8295359;-0.01757202;3.662813;0.7851827;0.1091667;4.381225;0.8644551;-0.08854806;4.749532;0.8617756;-0.450067;4.664826;0.9094018;-0.8834044;5.229872;0.31672;-0.07717288;5.440397;0.7677925;0.4238833;4.659134;0.8617749;0.683006;4.46494;0.9094008;0.954372;3.556515;1.080864;0.7757601;2.628532;1.012065;-0.3410345;2.599397;0.8740951;-0.003577963;1.324643;0.240072;0;0;0;-0.3410345;2.599397;0.8740951;-0.003577963;1.324643;0.240072;0;0;0
826685.356;NotLabelled;NONE;16384;-0.2936288;-0.4113573;-0.837499;0.2077562;3;-28;-53;2520;-2570;1761;65536;0.9040301;0.1080332;0.04293629;-0.4113573;-3;-21;12;3203;-2085;-1957;8192;0.7803391;-0.5221606;0.1398892;0.3144044;-11;14;137;2668;4955;297;32768;0.3961219;-0.5653329;0.5457063;0.4750692;-78;6;50;1836;4907;1366;256;0.5498615;-0.656061;-0.3947368;-0.333795;-44;102;-17;773;6360;-1231;128;0.4072022;-0.5962793;-0.5055401;-0.4722992;20;4;19;-1357;3921;774;4;-0.2368421;-0.1191136;-0.6983783;-0.66482;-3;5;-9;2351;3516;466;16;0.5968421;-0.5844875;0.4459834;0.3213296;3;-25;-3;1399;3668;226;2;0.6551247;-0.7468727;-0.1135734;0.009695291;2;10;1;739;3656;-517;8;0.3587258;-0.6243604;0.3490305;0.599723;2;4;3;327;3321;1745;-0.02848291;2.643839;0.8724412;-0.02251971;3.187245;0.824531;-0.01727998;3.664721;0.7804028;0.107704;4.383981;0.8546094;-0.09095758;4.751754;0.8496308;-0.4522048;4.666453;0.8982449;-0.8954943;5.220269;0.3023331;-0.09185259;5.434285;0.7563755;0.4217037;4.662669;0.8496695;0.6813765;4.46947;0.8983313;0.9678363;3.584494;1.1494;0.7479886;2.663554;1.113016;-0.3407429;2.601263;0.868812;-0.003691435;1.325134;0.2373469;0;0;0;-0.3407429;2.601263;0.868812;-0.003691435;1.325134;0.2373469;0;0;0
826707.0461;NotLabelled;NONE;16384;-0.2894737;-0.4182825;-0.8365353;0.2036011;0;-32;-33;2624;-2480;2079;65536;0.9051191;0.1094183;0.04293629;-0.4085872;7;-12;6;2697;-385;-2687;8192;0.7851268;-0.5152354;0.1218837;0.3213296;-17;30;141;2606;3981;267;32768;0.3878116;-0.5750075;0.5415512;0.4750692;-76;28;55;1972;4631;1362;256;0.5526316;-0.6544347;-0.3947368;-0.33241;-15;-44;0;-1401;2256;-1457;128;0.4072022;-0.5951796;-0.5055401;-0.4736842;-1;12;12;-979;3573;974;4;-0.2368421;-0.1177285;-0.6986131;-0.66482;-2;10;-9;2039;3398;126;16;0.5935707;-0.5831025;0.4501385;0.3240997;1;-36;-1;1251;3548;92;2;0.6537396;-0.7478904;-0.1149584;0.008310249;2;16;0;745;3526;-483;8;0.3573407;-0.6243789;0.3504155;0.599723;0;-11;2;501;3147;1573;-0.02295348;2.643835;0.8748746;-0.01699457;3.18685;0.8227123;-0.01175883;3.663966;0.7748483;0.09854585;4.386765;0.8369567;-0.1076753;4.750238;0.8265622;-0.466959;4.658323;0.8776109;-0.932732;5.204091;0.2915027;-0.1244256;5.422624;0.7349896;0.4067137;4.671741;0.8265616;0.6704426;4.484752;0.8776104;0.9703476;3.614283;1.161541;0.7273549;2.698614;1.144457;-0.3352138;2.601233;0.8716054;-0.003104962;1.325103;0.2375271;0;0;0;-0.3352138;2.601233;0.8716054;-0.003104962;1.325103;0.2375271;0;0;0
826727.1948;NotLabelled;NONE;16384;-0.2853186;-0.4265928;-0.8354223;0.1966759;22;-12;-28;2398;-2486;1331;65536;0.9046718;0.1135734;0.04155125;-0.4085872;15;-9;-1;3177;-1549;-1801;8192;0.7900263;-0.5069252;0.101108;0.3296399;-11;20;149;1914;3751;403;32768;0.3781163;-0.5865402;0.536011;0.4750692;-78;32;58;2246;4145;1590;256;0.5512465;-0.6541899;-0.3947368;-0.33518;28;37;-7;1097;3788;465;128;0.4058172;-0.5939133;-0.5055401;-0.4764543;-11;24;12;-825;3689;176;4;-0.2368421;-0.1135734;-0.7006148;-0.6634349;-4;16;-12;1813;3164;830;16;0.5871204;-0.5789474;0.4598338;0.3296399;-1;-56;1;1855;3422;-418;2;0.6537396;-0.7476903;-0.1163435;0.006925208;4;13;-4;523;3462;-471;8;0.3559557;-0.6230579;0.3518005;0.601108;-3;-21;3;215;3061;1541;-0.01827082;2.644843;0.8742708;-0.01231202;3.187853;0.8220633;-0.007076353;3.664966;0.7741597;0.102113;4.38831;0.8317188;-0.1047076;4.751379;0.8192859;-0.4637935;4.659197;0.8712404;-0.9370226;5.198751;0.2853523;-0.1302922;5.419657;0.7305309;0.4098078;4.673715;0.8192789;0.673888;4.48747;0.8712257;0.9792448;3.631935;1.192304;0.7157842;2.7218;1.186846;-0.3305312;2.60224;0.8710056;0.001631267;1.324694;0.2398149;0;0;0;-0.3305312;2.60224;0.8710056;0.001631267;1.324694;0.2398149;0;0;0
826748.0327;NotLabelled;NONE;16384;-0.2839335;-0.4279778;-0.8364711;0.1911357;23;-23;-21;2094;-2008;1595;65536;0.904888;0.1177285;0.03878116;-0.4072022;16;-22;-2;3031;-1421;-2211;8192;0.7918357;-0.5;0.08310249;0.3407202;-3;0;143;1826;3871;521;32768;0.368421;-0.5986056;0.5318559;0.4722992;-79;27;68;2882;4021;1422;256;0.5498615;-0.6482512;-0.4016621;-0.3407202;-4;35;-20;871;3710;-391;128;0.4016621;-0.5864698;-0.5083103;-0.4861496;-4;38;23;-649;3699;296;4;-0.2382271;-0.1094183;-0.7034184;-0.6606648;-6;26;-13;1805;3264;930;16;0.5850109;-0.5761772;0.4639889;0.33241;3;-15;0;-607;4114;-1046;2;0.6537396;-0.747494;-0.1177285;0.004155125;1;17;-8;479;3354;-257;8;0.3531856;-0.6238502;0.3531856;0.601108;-7;-22;3;-85;2871;1493;0.002015918;2.647394;0.879275;0.007976025;3.190521;0.8282923;0.01321292;3.66774;0.7814643;0.1206732;4.391161;0.8412728;-0.08699539;4.753778;0.8298461;-0.4458874;4.660596;0.8813512;-0.9334837;5.190136;0.2981138;-0.1287892;5.417;0.7439788;0.4277014;4.677325;0.8298453;0.6921949;4.491546;0.88135;1.006234;3.655089;1.2419;0.7189288;2.752242;1.252476;-0.3102443;2.604799;0.8759062;0.01101782;1.323318;0.2470533;0;0;0;-0.3102443;2.604799;0.8759062;0.01101782;1.323318;0.2470533;0;0;0
826768.1904;NotLabelled;NONE;16384;-0.2839335;-0.4307479;-0.8362968;0.1855956;27;-28;-10;2598;-1950;1559;65536;0.9058235;0.1204986;0.03739612;-0.4044321;21;-20;-1;2981;-1349;-2681;8192;0.7925537;-0.4875346;0.04986149;0.3628809;5;1;139;2042;3347;451;32768;0.3448753;-0.6227375;0.5235457;0.468144;-81;18;83;3188;3355;1062;256;0.5512465;-0.6440042;-0.4030471;-0.3448753;-10;31;-23;411;3702;107;128;0.4016621;-0.5805737;-0.5110803;-0.4903047;0;32;21;-813;3487;124;4;-0.2396122;-0.1066482;-0.7046718;-0.6592798;-6;15;-6;2187;3526;454;16;0.5868901;-0.5761772;0.4626039;0.3310249;5;32;1;-1009;4394;-972;2;0.6537396;-0.7475055;-0.1177285;0;0;11;-18;475;3742;-681;8;0.3448753;-0.622907;0.3559557;0.6052631;-16;-22;3;159;3633;1897;0.03093576;2.649065;0.8885702;0.03689632;3.192235;0.8380427;0.04213363;3.669493;0.7916151;0.1490219;4.393464;0.8454963;-0.05898213;4.755795;0.8314111;-0.41773;4.662713;0.8840883;-0.9214364;5.183681;0.306852;-0.1121822;5.41547;0.7417979;0.455782;4.679797;0.8314103;0.7205011;4.494668;0.8840874;1.044798;3.676721;1.276604;0.7318785;2.78276;1.303122;-0.2813244;2.606473;0.8851627;0.0168323;1.322815;0.249409;0;0;0;-0.2813244;2.606473;0.8851627;0.0168323;1.322815;0.249409;0;0;0
826789.0433;NotLabelled;NONE;16384;-0.2853186;-0.434903;-0.8348849;0.1800554;34;-22;-8;2988;-2034;1953;65536;0.9063581;0.1260388;0.03601108;-0.4016621;28;-17;-1;3157;-1605;-2679;8192;0.7923152;-0.4819945;0.033241;0.3725762;9;-1;132;1948;3149;325;32768;0.3310249;-0.6355546;0.5207756;0.4639889;-83;25;87;2640;2995;1062;256;0.5526316;-0.6388181;-0.4058172;-0.3490305;-24;28;-22;277;3638;287;128;0.4016621;-0.5769958;-0.5124654;-0.4930748;3;19;16;-801;3959;42;4;-0.2409972;-0.1066482;-0.7041993;-0.6592798;2;8;2;2147;3768;-138;16;0.5887568;-0.5761772;0.4612188;0.3296399;3;-1;-1;913;4604;-1286;2;0.6537396;-0.7477173;-0.1163435;-0.002770083;0;0;-19;441;4582;-613;8;0.3421052;-0.6222938;0.3573407;0.6066482;-11;-24;2;69;4245;2731;0.0391781;2.650102;0.89112;0.0451352;3.192955;0.8373049;0.05036929;3.669924;0.7879885;0.1520622;4.394927;0.837902;-0.05856597;4.755665;0.8220388;-0.4165919;4.660278;0.8754986;-0.9272057;5.174055;0.2978867;-0.1164974;5.409543;0.7281122;0.4567339;4.68339;0.8220378;0.7228238;4.500463;0.8754972;1.051365;3.720659;1.336196;0.6832615;2.849197;1.3895;-0.2730823;2.60749;0.8879911;0.01507287;1.322765;0.2497837;0;0;0;-0.2730823;2.60749;0.8879911;0.01507287;1.322765;0.2497837;0;0;0
826810.1471;NotLabelled;NONE;16384;-0.2867036;-0.4362881;-0.8351525;0.1731302;39;-15;-7;3188;-2192;2295;65536;0.9070997;0.1301939;0.033241;-0.398892;32;-21;-6;2741;-1639;-2851;8192;0.7915703;-0.4764543;0.0166205;0.3822715;18;-8;123;2078;2931;191;32768;0.3171745;-0.6509666;0.5152354;0.4584487;-83;44;90;2474;2545;1170;256;0.5567867;-0.6318872;-0.4085872;-0.3518005;-28;29;-19;351;4322;-61;128;0.4030471;-0.5736029;-0.5138504;-0.4944598;7;7;9;-757;4409;332;4;-0.2409972;-0.1052632;-0.7031088;-0.6606648;7;1;5;1563;4282;80;16;0.5882466;-0.5747922;0.4626039;0.3310249;1;-17;-2;629;4712;-900;2;0.6551247;-0.746924;-0.1135734;-0.004155125;2;-5;-13;829;5134;-417;8;0.3393352;-0.6224587;0.3573407;0.6080332;-7;-8;1;-529;4251;3007;0.04283765;2.648709;0.8961774;0.04879293;3.191395;0.8406969;0.05402538;3.668209;0.7899175;0.1512352;4.394193;0.8342066;-0.06165996;4.753477;0.8158247;-0.4190278;4.656267;0.8703904;-0.9368637;5.16429;0.2941205;-0.1258033;5.408165;0.7189764;0.4540814;4.684422;0.8158239;0.7213639;4.503572;0.8703893;1.05411;3.743502;1.360132;0.654622;2.886903;1.426726;-0.2694229;2.606087;0.8931898;0.01395614;1.322707;0.2501583;0;0;0;-0.2694229;2.606087;0.8931898;0.01395614;1.322707;0.2501583;0;0;0
826831.0403;NotLabelled;NONE;16384;-0.2922437;-0.4362881;-0.8359882;0.1592798;48;-15;-6;3164;-2146;2567;65536;0.9089398;0.1398892;0.02493075;-0.3919668;36;-34;-12;3255;-1727;-3087;8192;0.7894895;-0.4722992;0.001385042;0.3919668;30;-7;115;2064;2905;151;32768;0.3047091;-0.6660682;0.5083103;0.4529086;-84;65;92;2472;2305;988;256;0.5595568;-0.627757;-0.4099723;-0.3531856;-25;21;-13;169;4462;-95;128;0.4030471;-0.5736029;-0.5138504;-0.4944598;3;-5;5;-815;4633;280;4;-0.2396122;-0.1094183;-0.7029479;-0.6606648;-3;-26;12;1253;3784;640;16;0.5866302;-0.5734072;0.4653739;0.33241;0;-22;-5;1635;4128;-312;2;0.6537396;-0.7481276;-0.1135734;-0.005540166;2;-3;-3;1327;4988;-347;8;0.3379501;-0.6232117;0.3573407;0.6080332;-1;-6;0;-253;3907;2883;0.04703689;2.650416;0.8937813;0.05298883;3.192797;0.8353897;0.05821821;3.669332;0.7820525;0.149556;4.396627;0.8161393;-0.06630595;4.753873;0.7931947;-0.4227707;4.654511;0.8497568;-0.9457613;5.153758;0.2704786;-0.1350844;5.402669;0.6931404;0.4499829;4.689038;0.7931936;0.7188318;4.511148;0.8497555;1.054164;3.771891;1.368723;0.6211406;2.932991;1.449492;-0.2652239;2.607779;0.8910407;0.01538104;1.322676;0.2502369;0;0;0;-0.2652239;2.607779;0.8910407;0.01538104;1.322676;0.2502369;0;0;0
826851.0425;NotLabelled;NONE;16384;-0.2950138;-0.4362881;-0.8365571;0.1509695;52;-18;-6;3150;-2060;2679;65536;0.9107962;0.1440443;0.01939058;-0.3864266;33;-32;-11;3033;-1789;-3027;8192;0.7860425;-0.4709141;-0.01246537;0.400277;42;-2;106;1896;2915;31;32768;0.2922437;-0.6823041;0.501385;0.4445983;-81;73;99;3154;2175;420;256;0.5595568;-0.6243681;-0.4127424;-0.3559557;-11;27;-5;223;4670;305;128;0.4044321;-0.5726272;-0.5138504;-0.4944598;0;-2;5;-597;4947;526;4;-0.2368421;-0.1135734;-0.7032275;-0.6606648;-7;-41;8;1595;3604;754;16;0.584755;-0.5706371;0.468144;0.3365651;1;-60;-11;947;4084;-204;2;0.6537396;-0.7483456;-0.1121884;-0.004155125;2;-3;3;1323;4284;-377;8;0.3379501;-0.6210595;0.3587258;0.6094183;1;-11;0;-11;3507;2475;0.05292037;2.647133;0.9029366;0.05887231;3.189514;0.844545;0.06410164;3.666049;0.7912079;0.1517068;4.39407;0.8190256;-0.06602539;4.749988;0.7932808;-0.4219129;4.649268;0.8510637;-0.9449921;5.131799;0.2578678;-0.1441146;5.391254;0.692695;0.4505919;4.687824;0.79328;0.7204161;4.511813;0.8510627;1.05662;3.792045;1.3962;0.5926525;2.971154;1.489262;-0.2593403;2.604496;0.9001961;0.0184167;1.322191;0.2525831;0;0;0;-0.2593403;2.604496;0.9001961;0.0184167;1.322191;0.2525831;0;0;0
826872.0171;NotLabelled;NONE;16384;-0.299169;-0.4362881;-0.8365399;0.1426593;51;-18;-4;3002;-1970;2859;65536;0.9119613;0.1481994;0.01523546;-0.3822715;27;-31;-10;2887;-2053;-3011;8192;0.775575;-0.4722992;-0.0401662;0.4168975;62;-27;82;1676;2169;41;32768;0.265928;-0.7125349;0.4930748;0.4224377;-60;44;115;3428;1953;-388;256;0.5581717;-0.6177736;-0.4196676;-0.3614958;-6;35;-5;571;4392;101;128;0.4030471;-0.5699947;-0.5138504;-0.4986149;-7;17;9;-801;4279;542;4;-0.232687;-0.1191136;-0.702395;-0.6620498;-13;-41;1;2345;3488;452;16;0.5814173;-0.566482;0.4722992;0.3434903;4;-48;-9;-129;3986;-212;2;0.6537396;-0.7483558;-0.1121884;-0.001385042;2;-6;-2;875;3840;-143;8;0.333795;-0.6195302;0.3628809;0.6108033;1;-18;0;167;3541;1535;0.06333134;2.646147;0.9067729;0.0692817;3.188388;0.8470938;0.07450959;3.664795;0.7926254;0.1603546;4.393147;0.8170676;-0.05825856;4.748412;0.7898165;-0.4138682;4.647091;0.848255;-0.9364552;5.119144;0.2462603;-0.1376065;5.381944;0.6828076;0.4585087;4.687508;0.7898154;0.7287923;4.51242;0.8482531;1.058094;3.808612;1.417894;0.5614828;3.008304;1.521199;-0.2489295;2.603504;0.9041419;0.0201604;1.322651;0.2500276;0;0;0;-0.2489295;2.603504;0.9041419;0.0201604;1.322651;0.2500276;0;0;0
826892.0316;NotLabelled;NONE;16384;-0.301939;-0.4362881;-0.836697;0.1357341;45;-17;0;2932;-1816;2981;65536;0.9132803;0.1509695;0.01246537;-0.3781163;19;-32;-8;2639;-1959;-3061;8192;0.7687792;-0.4750692;-0.04986149;0.4252077;71;-33;63;1942;2157;-85;32768;0.2548476;-0.723933;0.4916897;0.4113573;-49;33;112;2348;1947;-462;256;0.5567867;-0.6155041;-0.4224377;-0.3642659;-8;41;-6;535;4062;31;128;0.4016621;-0.5685406;-0.5138504;-0.501385;-10;24;10;-1097;3893;490;4;-0.2299169;-0.1232687;-0.7038928;-0.6606648;-16;-23;0;2559;3660;80;16;0.5818543;-0.5623268;0.4736842;0.3476454;5;-23;-4;89;4166;-368;2;0.6537396;-0.7485622;-0.1108033;-0.001385042;3;-4;-10;1123;3922;-305;8;0.33241;-0.6194621;0.3642659;0.6108033;-1;-6;3;215;3451;1761;0.08205584;2.645927;0.9090593;0.08800769;3.188296;0.8505551;0.09323692;3.664819;0.7971187;0.177573;4.39353;0.8153253;-0.04181381;4.748094;0.7852929;-0.3971522;4.646524;0.8449382;-0.9276693;5.109047;0.2424819;-0.1249973;5.376183;0.669276;0.4750803;4.688274;0.785292;0.7457887;4.514253;0.8449373;1.060271;3.840688;1.457869;0.497181;3.086878;1.569624;-0.2302049;2.603289;0.9063283;0.0252523;1.323591;0.2445348;0;0;0;-0.2302049;2.603289;0.9063283;0.0252523;1.323591;0.2445348;0;0;0
826913.1613;NotLabelled;NONE;16384;-0.3060942;-0.4362881;-0.8360673;0.1301939;38;-12;3;2978;-1724;3037;65536;0.9151269;0.1537396;0.009695291;-0.3725762;13;-32;-10;2235;-1791;-3317;8192;0.7598654;-0.4819945;-0.05955679;0.432133;77;-24;43;2152;2483;-319;32768;0.2437673;-0.7364919;0.4889196;0.398892;-32;44;111;1970;2151;-624;256;0.5554016;-0.6122354;-0.4265928;-0.367036;-8;44;-3;615;3788;-159;128;0.3975069;-0.5664973;-0.5166205;-0.5041551;-8;32;8;-1243;3767;598;4;-0.2299169;-0.1246537;-0.7036489;-0.6606648;-13;-2;0;2437;3580;92;16;0.5814338;-0.5595568;0.4764543;0.3490305;7;-24;-1;457;4066;-602;2;0.6537396;-0.7485583;-0.1108033;-0.002770083;1;5;-16;1009;3928;-533;8;0.33241;-0.6186455;0.365651;0.6108033;-2;-3;3;241;3507;2051;0.08949134;2.644877;0.9142171;0.09544459;3.187374;0.8569207;0.1006751;3.664016;0.8045455;0.1845903;4.392804;0.8215861;-0.03500837;4.747191;0.791034;-0.3902767;4.64551;0.8509045;-0.9231469;5.099574;0.2441061;-0.1198934;5.369769;0.6678693;0.4819204;4.687674;0.7910332;0.7527409;4.513905;0.8509036;1.057789;3.851098;1.480116;0.4675983;3.118178;1.590976;-0.2227693;2.602246;0.9113836;0.01905145;1.324328;0.24108;0;0;0;-0.2227693;2.602246;0.9113836;0.01905145;1.324328;0.24108;0;0;0
826933.0336;NotLabelled;NONE;16384;-0.3088643;-0.4362881;-0.8356853;0.1260388;32;-7;4;3020;-1822;2885;65536;0.9163638;0.1565097;0.006925208;-0.368421;8;-25;-12;2271;-1899;-3237;8192;0.745393;-0.4972299;-0.07479224;0.4376731;87;-5;15;2546;2445;-139;32768;0.2368421;-0.7471539;0.4861496;0.3864266;-13;55;113;2462;2361;-814;256;0.5540166;-0.6070781;-0.432133;-0.3711911;-4;44;-1;775;3732;-175;128;0.3947368;-0.5621716;-0.5193906;-0.5083103;-9;40;7;-1157;3819;318;4;-0.2299169;-0.1246537;-0.7049467;-0.6592798;-10;11;-2;2023;3460;72;16;0.5821229;-0.5567867;0.4778393;0.3504155;9;-18;0;375;4070;-608;2;0.6537396;-0.7487466;-0.1094183;-0.005540166;3;17;-19;1079;4070;-509;8;0.3310249;-0.6193877;0.365651;0.6108033;-2;-2;4;49;3477;2145;0.09667927;2.642867;0.9227269;0.1026331;3.185424;0.8659984;0.1078642;3.66212;0.8141224;0.1919744;4.390947;0.8282369;-0.02754295;4.745269;0.7963533;-0.3828167;4.643919;0.8567515;-0.9242857;5.09196;0.2530968;-0.1193027;5.365399;0.6714626;0.4893704;4.685616;0.7964087;0.7601666;4.512015;0.8568748;1.057053;3.85675;1.497781;0.439232;3.146937;1.608463;-0.2155814;2.600239;0.9198453;0.01914807;1.323724;0.2443656;0;0;0;-0.2155814;2.600239;0.9198453;0.01914807;1.323724;0.2443656;0;0;0
826954.1502;NotLabelled;NONE;16384;-0.3144044;-0.433518;-0.8360766;0.1191136;22;-4;14;2834;-1676;2623;65536;0.9191428;0.1565097;0.001385042;-0.3614958;4;-19;-15;2931;-1975;-3291;8192;0.7389194;-0.5069252;-0.08171745;0.4362881;88;11;2;2544;2513;91;32768;0.2313019;-0.7583277;0.4833795;0.3711911;4;46;108;2144;2497;-770;256;0.5498615;-0.6061832;-0.4362881;-0.3739612;3;49;0;773;3722;-51;128;0.3905817;-0.5599921;-0.5221606;-0.5110803;-7;46;7;-933;3901;330;4;-0.2313019;-0.1204986;-0.7077956;-0.6565097;-8;21;-1;1645;3580;138;16;0.5798298;-0.5526316;0.4833795;0.3531856;11;-15;1;189;4134;-714;2;0.6537396;-0.7485006;-0.1108033;-0.009695291;0;31;-22;1173;4262;-395;8;0.3310249;-0.6193877;0.365651;0.6108033;0;-3;3;61;3591;2429;0.1115503;2.642303;0.9301033;0.1175034;3.184778;0.8725913;0.1227337;3.661399;0.8200268;0.205929;4.390408;0.8293722;-0.01406547;4.744238;0.7953927;-0.3691589;4.64283;0.8567456;-0.9099593;5.087221;0.2498023;-0.1013456;5.363822;0.6589884;0.5029231;4.685242;0.7953919;0.7739909;4.512377;0.8567447;1.030003;3.861643;1.519525;0.3915843;3.170288;1.630143;-0.2007104;2.599671;0.927288;0.0175883;1.323505;0.2456696;0;0;0;-0.2007104;2.599671;0.927288;0.0175883;1.323505;0.2456696;0;0;0
826975.0206;NotLabelled;NONE;16384;-0.3171745;-0.433518;-0.8354201;0.1163435;21;-4;19;2994;-1756;2507;65536;0.9205297;0.1578947;-0.001385042;-0.3573407;12;-23;-23;2197;-1609;-2759;8192;0.7338303;-0.5166205;-0.08864266;0.432133;85;20;-4;2830;2881;273;32768;0.2299169;-0.7636127;0.4861496;0.3573407;47;-4;67;-124;3731;2940;256;0.5457063;-0.5976387;-0.4459834;-0.3822715;-11;56;-7;1393;3828;235;128;0.3836565;-0.5518569;-0.5290859;-0.5180055;-3;46;6;-617;4283;362;4;-0.234072;-0.1191136;-0.7084024;-0.6551247;-4;21;1;2065;3496;72;16;0.5813051;-0.5498615;0.4847645;0.3531856;10;-8;3;321;3992;-622;2;0.6551247;-0.7469895;-0.1121884;-0.01523546;-2;32;-21;1095;4382;-547;8;0.3310249;-0.6193877;0.365651;0.6108033;1;0;3;17;3661;2489;0.1323223;2.643274;0.9373643;0.1382757;3.185798;0.8803205;0.1435066;3.662464;0.8281676;0.2298564;4.391087;0.8389639;0.01140442;4.745931;0.8056302;-0.3441392;4.645943;0.8667043;-0.8840393;5.082557;0.2533495;-0.07307847;5.356093;0.6599415;0.5281326;4.684696;0.8056294;0.7984349;4.510539;0.8667032;1.037433;3.85789;1.533939;0.3777388;3.185465;1.636098;-0.1799384;2.600644;0.9345094;0.02046367;1.322412;0.2512665;0;0;0;-0.1799384;2.600644;0.9345094;0.02046367;1.322412;0.2512665;0;0;0
826996.0357;NotLabelled;NONE;16384;-0.3213296;-0.432133;-0.8347412;0.1149584;24;-8;26;3172;-1898;2537;65536;0.9221163;0.1578947;-0.005540166;-0.3531856;16;-30;-31;1991;-1451;-3757;8192;0.7270941;-0.536011;-0.101108;0.4168975;78;42;-27;1930;2883;609;32768;0.2299169;-0.7727242;0.4875346;0.33518;18;22;46;228;2675;1296;256;0.5429363;-0.5934625;-0.4501385;-0.3878116;-3;44;-2;-17;4088;215;128;0.3808864;-0.5471774;-0.5318559;-0.5221606;-5;48;3;-557;4229;466;4;-0.2368421;-0.1163435;-0.7079419;-0.6551247;0;23;4;2285;3440;78;16;0.5814568;-0.5484765;0.4861496;0.3531856;9;-8;3;427;3950;-702;2;0.6565097;-0.7448743;-0.1163435;-0.02493075;-3;37;-19;1007;4078;-379;8;0.33241;-0.6216353;0.3628809;0.6094183;3;11;4;355;3435;2021;0.1560762;2.640728;0.9507048;0.1620272;3.183024;0.8915326;0.1672557;3.659482;0.8375096;0.2522707;4.388325;0.8423909;0.03313312;4.74249;0.8064251;-0.3221681;4.64234;0.8686349;-0.8773308;5.076746;0.2674578;-0.05609062;5.351223;0.652196;0.5499732;4.682207;0.8064242;0.8206533;4.509041;0.8686337;1.056194;3.852811;1.533583;0.3858245;3.190884;1.634802;-0.1561845;2.598087;0.9480305;0.02193679;1.321589;0.2554389;0;0;0;-0.1561845;2.598087;0.9480305;0.02193679;1.321589;0.2554389;0;0;0
827017.0271;NotLabelled;NONE;16384;-0.3268698;-0.432133;-0.8329652;0.1121884;29;-11;29;2930;-1952;2385;65536;0.9223202;0.1592798;-0.01385042;-0.3518005;28;-11;-42;1537;-1737;-3869;8192;0.7215853;-0.5470914;-0.1038781;0.4113573;75;11;-29;2088;2939;675;32768;0.2313019;-0.7761487;0.4861496;0.3282548;19;31;26;-70;2943;1180;256;0.5415512;-0.5886639;-0.4556787;-0.3905817;-10;51;-1;319;4256;-37;128;0.3767313;-0.541994;-0.536011;-0.5263157;-5;52;2;-645;4261;426;4;-0.2396122;-0.1149584;-0.7085162;-0.6537396;0;29;4;2143;3528;296;16;0.5824409;-0.5470914;0.4875346;0.3518005;9;-6;4;381;4116;-782;2;0.6565097;-0.7444505;-0.1177285;-0.03047091;0;31;-21;803;3890;-509;8;0.33241;-0.6221812;0.3642659;0.6080332;5;-3;4;541;3439;2087;0.1669767;2.640177;0.9554961;0.1729266;3.182369;0.8953736;0.1781541;3.658732;0.8405155;0.2611949;4.387807;0.8443497;0.04109275;4.741326;0.8079181;-0.3139257;4.640303;0.8703286;-0.8727806;5.074932;0.272744;-0.04695781;5.347113;0.6492157;0.5580943;4.682444;0.8079172;0.8292527;4.510101;0.8703274;1.028983;3.840864;1.534033;0.3405991;3.194502;1.612338;-0.145284;2.597532;0.9529026;0.02472854;1.320962;0.2584074;0;0;0;-0.145284;2.597532;0.9529026;0.02472854;1.320962;0.2584074;0;0;0
827038.0208;NotLabelled;NONE;16384;-0.333795;-0.433518;-0.8298619;0.1094183;34;-17;35;3154;-1980;2293;65536;0.9216409;0.1620499;-0.0235457;-0.3518005;39;-2;-57;1541;-1851;-3895;8192;0.7170918;-0.5567867;-0.1052632;0.4058172;72;2;-27;2584;3093;755;32768;0.2354571;-0.7786533;0.4819945;0.3254848;10;26;7;864;3185;1856;256;0.5387812;-0.5851928;-0.4598338;-0.3947368;-5;46;1;363;3968;5;128;-0.3725762;0.534626;0.5435349;0.5290859;-5;49;2;-749;4099;304;4;-0.2437673;-0.1121884;-0.7088193;-0.6523545;-1;34;3;1759;3824;562;16;0.5825793;-0.5457063;0.4889196;0.3518005;14;-14;-1;313;4336;-980;2;0.6565097;-0.7439827;-0.1191136;-0.03601108;2;26;-24;593;3960;-347;8;0.33241;-0.6227206;0.365651;0.6066482;6;-10;4;241;3465;2195;0.1795384;2.637222;0.9671737;0.1854864;3.179252;0.9056171;0.1907123;3.655468;0.8494988;0.273957;4.38453;0.8481389;0.05392307;4.737845;0.8093986;-0.301073;4.637362;0.8728026;-0.8608122;5.071774;0.2758874;-0.03473036;5.340911;0.6539758;0.5709082;4.678819;0.8093973;0.8420691;4.506844;0.8728006;1.026813;3.829053;1.532152;0.3349372;3.186421;1.610385;-0.1327226;2.59457;0.9647023;0.02626655;1.319742;0.2644193;0;0;0;-0.1327226;2.59457;0.9647023;0.02626655;1.319742;0.2644193;0;0;0
827059.0072;NotLabelled;NONE;16384;-0.3490305;-0.434903;-0.8237307;0.1024931;35;-36;47;3130;-1706;2615;65536;0.9191428;0.16759;-0.04847645;-0.3531856;55;-2;-78;2233;-1523;-3571;8192;0.713697;-0.5650969;-0.1052632;0.400277;65;6;-38;2568;2987;941;32768;0.2368421;-0.7802407;0.4806094;0.3227147;3;0;5;2512;2965;1486;256;0.536011;-0.5805209;-0.4653739;-0.398892;-5;50;5;427;3904;-71;128;-0.368421;0.5304709;0.5463704;0.533241;0;47;3;-739;4083;302;4;-0.2493075;-0.1052632;-0.7092279;-0.6509695;-2;13;9;1283;3678;496;16;0.5831041;-0.5373961;0.4944598;0.3559557;13;-51;-2;489;4246;-670;2;0.6565097;-0.7437699;-0.1191136;-0.0401662;2;19;-26;531;4084;-291;8;0.33241;-0.6219052;0.367036;0.6066482;6;-8;4;-121;3495;2189;0.1920795;2.634873;0.9749155;0.1980203;3.176245;0.9078175;0.2032396;3.651862;0.8468311;0.2860309;4.380972;0.8441861;0.06573045;4.734089;0.805144;-0.2891249;4.63349;0.8691485;-0.8577385;5.075474;0.2863472;-0.03304519;5.34278;0.6687402;0.5827518;4.675382;0.8046011;0.8540969;4.503676;0.8679488;1.03844;3.810591;1.51132;0.3493249;3.165846;1.596241;-0.1201816;2.592198;0.9729153;0.02906264;1.319085;0.2673877;0;0;0;-0.1201816;2.592198;0.9729153;0.02906264;1.319085;0.2673877;0;0;0
827080.0333;NotLabelled;NONE;16384;-0.3573407;-0.4376731;-0.8191944;0.09833795;35;-45;47;2960;-1566;2751;65536;0.9175396;0.1717452;-0.06232687;-0.3531856;50;-12;-75;3087;-1441;-3159;8192;0.7101456;-0.5734072;-0.1052632;0.3947368;57;0;-36;2450;3091;607;32768;0.2382271;-0.779819;0.4806094;0.3227147;4;-1;0;2204;3477;1002;256;0.5318559;-0.5769941;-0.4709141;-0.4030471;-4;51;9;91;4198;-31;128;-0.365651;0.5263157;0.5508776;0.534626;9;43;0;-713;4203;476;4;-0.2493075;-0.1066482;-0.7090209;-0.6509695;2;-1;11;1273;3624;528;16;0.5824475;-0.534626;0.4972299;0.3573407;14;-7;3;-235;4106;-554;2;0.6565097;-0.7435338;-0.1191136;-0.04432133;1;15;-25;517;4154;-391;8;0.33241;-0.6210858;0.368421;0.6066482;8;-5;3;11;3477;2439;0.1939201;2.634516;0.9827864;0.1998609;3.175886;0.9156731;0.2050802;3.651502;0.8546731;0.2877755;4.380604;0.8489417;0.0674499;4.73352;0.8082594;-0.2874279;4.633149;0.8724965;-0.8343168;5.070379;0.2658079;-0.02193773;5.32982;0.6787564;0.5844791;4.674881;0.8082584;0.8558117;4.503487;0.8724952;1.023406;3.808164;1.518028;0.3346324;3.16404;1.610131;-0.118341;2.591841;0.9807874;0.02139691;1.317589;0.2753688;0;0;0;-0.118341;2.591841;0.9807874;0.02139691;1.317589;0.2753688;0;0;0
827100.0343;NotLabelled;NONE;16384;-0.365651;-0.4404432;-0.8146765;0.09279778;37;-41;45;2958;-1622;2823;65536;0.9160843;0.1745152;-0.07479224;-0.3531856;40;-11;-67;3131;-1527;-2551;8192;0.700675;-0.5886427;-0.1052632;0.3891967;55;4;-28;3266;3499;655;32768;0.2437673;-0.7801006;0.4792244;0.3199446;8;5;-3;2196;3597;1710;256;0.5249307;-0.5702505;-0.4819945;-0.4085872;0;42;17;89;4176;91;128;-0.3601108;0.5193906;0.5583539;0.5373961;7;30;-7;-457;4217;740;4;-0.2493075;-0.1066482;-0.7102901;-0.6495845;0;2;9;1629;3666;962;16;0.5841379;-0.534626;0.4972299;0.3545706;14;12;8;745;4296;-714;2;0.6578947;-0.7420838;-0.1177285;-0.05124654;-1;15;-17;639;4202;-523;8;0.33241;-0.620262;0.3698061;0.6066482;12;-4;1;227;3497;2385;0.2090905;2.632337;0.9907416;0.2150269;3.1733;0.9204211;0.220242;3.648546;0.8566037;0.304408;4.377471;0.8497624;0.08478826;4.730769;0.8085874;-0.2702802;4.631211;0.873036;-0.8153951;5.069805;0.2657354;-0.007520601;5.326693;0.6889896;0.601698;4.671087;0.8085864;0.8726954;4.499241;0.8730344;1.033599;3.795318;1.510903;0.3481227;3.149336;1.613938;-0.1031708;2.589651;0.9890159;0.02469867;1.316804;0.2788264;0;0;0;-0.1031708;2.589651;0.9890159;0.02469867;1.316804;0.2788264;0;0;0
827121.0437;NotLabelled;NONE;16384;-0.3739612;-0.4418283;-0.8106067;0.08864266;31;-29;44;2742;-1472;2951;65536;0.914847;0.1759003;-0.08587258;-0.3531856;28;-12;-57;2949;-1267;-2479;8192;0.6972388;-0.5969529;-0.1066482;0.3822715;51;24;-36;2874;3413;627;32768;0.2465374;-0.7783761;0.4806094;0.3199446;6;3;0;2704;2981;838;256;0.5221606;-0.5672671;-0.4861496;-0.4113573;-1;36;16;47;4154;-53;128;-0.3573407;0.5166205;0.5613607;0.5387812;4;25;-9;-271;4067;1054;4;-0.2520775;-0.1066482;-0.7093117;-0.6495845;1;12;11;2267;3716;946;16;0.584632;-0.534626;0.4986149;0.3518005;14;1;6;1017;4284;-654;2;0.6578947;-0.7417851;-0.1177285;-0.05540166;-3;17;-11;245;4004;-837;8;0.333795;-0.6200441;0.3711911;0.6052631;10;3;0;287;3403;1837;0.2434974;2.630614;1.000731;0.2494268;3.170947;0.9257221;0.2546358;3.645622;0.8577857;0.343235;4.37396;0.8461496;0.1257391;4.728316;0.8028466;-0.2298784;4.631345;0.8682064;-0.7815455;5.069369;0.2664372;0.02933992;5.322249;0.6863338;0.6422756;4.665484;0.8028454;0.9122719;4.492412;0.8682045;1.058495;3.777345;1.49715;0.3798715;3.126409;1.613508;-0.06876403;2.587914;0.9994055;0.03203516;1.315529;0.2840501;0;0;0;-0.06876403;2.587914;0.9994055;0.03203516;1.315529;0.2840501;0;0;0
827142.0241;NotLabelled;NONE;16384;-0.3822715;-0.4404432;-0.8076289;0.08725762;23;-13;43;2494;-1528;2915;65536;0.9145628;0.1759003;-0.09418282;-0.3518005;16;-17;-48;2737;-1143;-2573;8192;0.6948203;-0.6038781;-0.1080332;0.3753462;50;26;-36;2444;3403;55;32768;0.2493075;-0.7786275;0.4806094;0.3171745;17;19;0;2988;3433;248;256;0.5193906;-0.5652242;-0.4903047;-0.4127424;-16;22;12;347;3876;-233;128;-0.3559557;0.5152354;0.5621819;0.5401662;0;14;-8;-431;3831;894;4;-0.2562327;-0.1052632;-0.7092968;-0.6481994;4;22;10;2283;3838;768;16;0.5847895;-0.5318559;0.501385;0.3518005;14;-13;3;871;4314;-622;2;0.6578947;-0.741573;-0.1177285;-0.05817174;1;9;-10;-433;3420;-871;8;0.33518;-0.6198166;0.3725762;0.6038781;9;-10;-2;925;3489;1529;0.2537974;2.626208;1.012989;0.2597246;3.16633;0.9364755;0.2649314;3.640813;0.867218;0.3544143;4.369016;0.8539207;0.137338;4.723538;0.8098808;-0.2183791;4.627147;0.8755555;-0.7660648;5.065973;0.270741;0.04215884;5.31343;0.6989188;0.6537976;4.660078;0.8098795;0.923601;4.486824;0.8755537;1.059423;3.764128;1.49808;0.385685;3.109062;1.619543;-0.05846399;2.583505;1.011791;0.03804412;1.313843;0.2910241;0;0;0;-0.05846399;2.583505;1.011791;0.03804412;1.313843;0.2910241;0;0;0
827163.0359;NotLabelled;NONE;16384;-0.3947368;-0.4390582;-0.8023695;0.08725762;6;-11;34;2064;-1856;2801;65536;0.9148826;0.1717452;-0.1080332;-0.3490305;-6;-14;-34;2537;-699;-2585;8192;0.6924695;-0.6108033;-0.1080332;0.368421;47;11;-25;2292;3607;-185;32768;0.2534626;-0.7798203;0.4792244;0.3130194;23;26;8;3576;3735;1034;256;0.5193906;-0.5660365;-0.4916897;-0.4099723;-7;-6;13;-51;4036;-959;128;-0.3545706;0.5166205;0.5617859;0.5401662;5;-3;-6;-685;3725;1192;4;-0.2631579;-0.1038781;-0.7082291;-0.6468144;2;12;13;2163;3382;856;16;0.5868753;-0.5304709;0.501385;0.3504155;0;29;-5;-255;3302;-532;2;0.6578947;-0.7416816;-0.1163435;-0.05955679;4;-5;-10;-1155;3498;-737;8;0.33241;-0.6174413;0.3767313;0.6052631;7;-35;-2;619;3515;1667;0.2608158;2.621536;1.025843;0.2667431;3.161668;0.9494002;0.27195;3.63616;0.8802042;0.364034;4.364005;0.8651667;0.1482146;4.719197;0.8203551;-0.2078258;4.624234;0.8863596;-0.7487627;5.06632;0.2778564;0.05865684;5.308367;0.7106196;0.6644437;4.653888;0.8203539;0.9336449;4.479825;0.8863578;1.059995;3.750232;1.502803;0.3880113;3.093484;1.624901;-0.05144563;2.578833;1.02464;0.03933782;1.312333;0.2975952;0;0;0;-0.05144563;2.578833;1.02464;0.03933782;1.312333;0.2975952;0;0;0
827184.177;NotLabelled;NONE;16384;-0.398892;-0.4376731;-0.8007637;0.0900277;1;-3;31;2174;-2178;2701;65536;0.9148983;0.1689751;-0.1121884;-0.3490305;-13;-8;-28;2675;-535;-2915;8192;0.6897535;-0.6163435;-0.1080332;0.3642659;43;13;-16;2140;3723;537;32768;0.2562327;-0.7814201;0.4778393;0.3088643;20;19;19;3324;3463;1718;256;0.5180055;-0.5673043;-0.4916897;-0.4099723;-3;-6;14;431;3694;-401;128;-0.3545706;0.5180055;0.5618405;0.5387812;4;-6;-6;-849;3723;1476;4;-0.2645429;-0.1052632;-0.7087719;-0.6454294;6;-4;15;2229;2684;810;16;0.587465;-0.534626;0.4972299;0.3490305;-16;35;-11;-559;2706;200;2;0.6578947;-0.7424172;-0.1108033;-0.06094183;7;-25;-8;-1183;3704;-589;8;0.3296399;-0.6150131;0.3808864;0.6066482;5;-37;-2;-175;3757;1853;0.2466505;2.614497;1.04053;0.2525803;3.154857;0.9657071;0.2577895;3.629554;0.8979345;0.3537136;4.356858;0.8808737;0.1397582;4.713062;0.8351651;-0.2167552;4.620164;0.901552;-0.7362986;5.07056;0.2806279;0.06401238;5.296843;0.734605;0.655635;4.645026;0.8351642;0.9239362;4.469723;0.9015509;1.033965;3.732196;1.511651;0.3623033;3.073351;1.623816;-0.06561093;2.571798;1.039188;0.03373349;1.311261;0.3029578;0;0;0;-0.06561093;2.571798;1.039188;0.03373349;1.311261;0.3029578;0;0;0
827206.1175;NotLabelled;NONE;16384;-0.4016621;-0.4362881;-0.799818;0.09279778;-5;5;27;2208;-2152;2543;65536;0.9153123;0.1648199;-0.1149584;-0.3490305;-17;-3;-22;3045;-465;-2927;8192;0.6880828;-0.6246537;-0.1121884;0.3518005;35;19;-14;1576;3623;575;32768;0.2576177;-0.7860975;0.4764543;0.2977839;2;20;26;2586;2725;1300;256;0.5138504;-0.5708691;-0.4930748;-0.4085872;2;9;11;365;3856;-747;128;-0.3504155;0.5221606;0.5592654;0.5401662;-7;-10;-10;-1069;3523;1474;4;-0.265928;-0.1080332;-0.7053004;-0.6481994;10;-22;14;2163;2150;834;16;0.586787;-0.5373961;0.4930748;0.3518005;-41;4;-24;-73;2246;1130;2;0.6578947;-0.7436396;-0.1038781;-0.05817174;5;-39;-3;-787;4512;-515;8;0.3282548;-0.6126598;0.3836565;0.6080332;3;-23;-1;-301;3973;2005;0.2507712;2.612799;1.039042;0.2567009;3.153153;0.9641861;0.2619101;3.627847;0.8963843;0.359588;4.354964;0.8814457;0.1465068;4.711811;0.8366778;-0.2102543;4.61958;0.9026635;-0.7220905;5.076183;0.2798748;0.07726954;5.294919;0.7391941;0.6622185;4.642535;0.8366767;0.9300721;4.466398;0.9026617;1.027234;3.72386;1.508856;0.3546634;3.064728;1.613647;-0.06149019;2.5701;1.037703;0.03584845;1.312901;0.2955208;0;0;0;-0.06149019;2.5701;1.037703;0.03584845;1.312901;0.2955208;0;0;0
827227.0254;NotLabelled;NONE;16384;-0.4044321;-0.4362881;-0.797927;0.09695291;-12;7;24;1972;-2238;2377;65536;0.9156989;0.1606648;-0.1177285;-0.3490305;-21;-5;-14;2987;-417;-2913;8192;0.6861801;-0.6288089;-0.1135734;0.3476454;32;4;-18;1156;3491;231;32768;0.2576177;-0.7884951;0.4750692;0.2936288;-5;14;23;2408;2623;916;256;0.5110803;-0.5711647;-0.4944598;-0.4099723;4;18;9;495;3942;-521;128;-0.3476454;0.5249307;0.5584003;0.5401662;-8;2;-8;-1115;3469;1552;4;-0.2631579;-0.1121884;-0.7044159;-0.6495845;10;-47;5;2013;1800;490;16;0.5847976;-0.5387812;0.4889196;0.3587258;-55;-22;-18;1107;2388;702;2;0.6578947;-0.7449863;-0.09695291;-0.05263158;0;-18;8;193;3964;-723;8;0.3282548;-0.6080332;0.3850415;0.6117903;-2;1;0;491;3543;1617;0.2369537;2.612531;1.029083;0.242893;3.153753;0.9607825;0.2481108;3.629234;0.8987398;0.3530752;4.355411;0.8881156;0.1436147;4.714628;0.8452616;-0.2141072;4.625592;0.9104291;-0.721875;5.087358;0.2881169;0.07860586;5.297188;0.7496347;0.6586069;4.640192;0.8452605;0.9246284;4.461;0.9104278;1.002309;3.709647;1.508516;0.3211659;3.056996;1.597274;-0.0753075;2.569852;1.027185;0.03543916;1.316074;0.2811037;0;0;0;-0.0753075;2.569852;1.027185;0.03543916;1.316074;0.2811037;0;0;0
827247.1584;NotLabelled;NONE;16384;-0.4058172;-0.4362881;-0.7967072;0.101108;-19;1;21;1940;-2290;2285;65536;0.9159461;0.1551246;-0.1191136;-0.3504155;-25;-1;-7;2947;-365;-2737;8192;0.6836215;-0.634349;-0.1108033;0.3434903;32;-11;-17;1204;3635;109;32768;0.2562327;-0.7899717;0.4750692;0.2908587;-8;11;22;2670;2737;652;256;0.5083103;-0.5704404;-0.4958449;-0.4127424;4;15;8;477;3866;-787;128;-0.3434903;0.5263157;0.5583264;0.5415512;-14;10;-6;-1233;3299;1576;4;-0.2576177;-0.1163435;-0.7019415;-0.6537396;16;-55;-13;1677;1892;302;16;0.5782014;-0.5415512;0.4875346;0.367036;-56;-35;-18;1729;2706;354;2;0.6565097;-0.7463973;-0.09695291;-0.04986149;-1;-3;9;-93;3736;-631;8;0.3282548;-0.6080332;0.3850415;0.6117903;-5;1;1;427;3531;1541;0.237628;2.615855;1.010019;0.2435718;3.157486;0.945043;0.2487936;3.633338;0.8859206;0.3557591;4.359251;0.8774748;0.1473057;4.719169;0.8355873;-0.2106878;4.630926;0.9003411;-0.7157273;5.100752;0.281853;0.08802269;5.301659;0.7416556;0.6620912;4.643316;0.8355862;0.9275906;4.463202;0.9003396;0.9974896;3.708688;1.495399;0.3129596;3.059388;1.582671;-0.07463297;2.573188;1.007838;0.03363064;1.320558;0.25947;0;0;0;-0.07463297;2.573188;1.007838;0.03363064;1.320558;0.25947;0;0;0
827268.1809;NotLabelled;NONE;16384;-0.4085872;-0.4376731;-0.79304;0.1121884;-25;0;19;1886;-2476;1997;65536;0.9167845;0.1468144;-0.1191136;-0.3518005;-26;6;-5;2375;-213;-2417;8192;0.6795842;-0.6398892;-0.1080332;0.3421052;31;-17;-19;1364;3587;117;32768;0.2534626;-0.7915486;0.4764543;0.2867036;-11;-4;20;2890;2679;480;256;0.5055401;-0.5706927;-0.4972299;-0.4141274;17;13;9;609;3306;-1017;128;-0.3393352;0.5277008;0.5568642;0.5443213;-26;9;-5;-1215;3261;1352;4;-0.2493075;-0.1191136;-0.7005942;-0.6578947;15;-47;-35;1353;2642;656;16;0.5721798;-0.5387812;0.4903047;0.3767313;-13;-76;-9;2399;4562;-4700;2;0.6565097;-0.7463973;-0.09695291;-0.04986149;-3;3;8;-253;3782;-657;8;0.3282548;-0.6117903;0.3850415;0.6080332;-10;4;2;251;3677;1631;0.2472425;2.622672;0.9811555;0.2531906;3.1647;0.9195755;0.2584165;3.640913;0.8634369;0.3656193;4.366814;0.857145;0.1572997;4.726918;0.8162137;-0.20075;4.638604;0.8805577;-0.7072428;5.115466;0.2686789;0.1027159;5.305604;0.7221221;0.6720608;4.6509;0.8162128;0.9374744;4.470512;0.8805565;1.000665;3.709077;1.467495;0.3128062;3.063623;1.557091;-0.06501836;2.58002;0.9786857;0.0442655;1.324872;0.2346974;0;0;0;-0.06501836;2.58002;0.9786857;0.0442655;1.324872;0.2346974;0;0;0
827289.0266;NotLabelled;NONE;16384;-0.4099723;-0.4390582;-0.7907532;0.1177285;-28;-2;17;1886;-2626;1889;65536;0.916908;0.1426593;-0.1191136;-0.3531856;-27;8;-9;2167;-45;-2419;8192;0.6774793;-0.6440443;-0.1052632;0.3393352;27;-15;-24;1660;3693;121;32768;0.2506925;-0.7912589;0.4792244;0.2853186;-9;-15;19;2996;2691;310;256;0.5;-0.5723457;-0.4986149;-0.4168975;28;17;10;733;3518;-833;128;-0.333795;0.5304709;0.5548626;0.5470914;-27;1;-5;-1065;3593;1158;4;-0.2354571;-0.1135734;-0.7036925;-0.6606648;-6;-7;-48;3181;4650;1352;16;0.5794608;-0.533241;0.4930748;0.3698061;21;5;-10;171;4110;-1060;2;0.6565097;-0.7463973;-0.09695291;-0.04986149;-2;0;9;-603;3884;-751;8;0.3268698;-0.6120238;0.3836565;0.6094183;-13;1;2;329;3561;1707;0.2509846;2.631886;0.9551927;0.2569387;3.174465;0.8986816;0.2621701;3.651182;0.8469966;0.3713743;4.3768;0.8429713;0.1641147;4.737591;0.8027132;-0.1942869;4.650077;0.8661852;-0.6978154;5.140189;0.2623822;0.1193666;5.315822;0.7086591;0.6786645;4.660159;0.803383;0.9434704;4.47886;0.8676673;0.9988465;3.718494;1.456779;0.3047939;3.079419;1.544304;-0.06127597;2.589258;0.9522927;0.04688093;1.32736;0.2196439;0;0;0;-0.06127597;2.589258;0.9522927;0.04688093;1.32736;0.2196439;0;0;0
827309.0322;NotLabelled;NONE;16384;-0.4099723;-0.4418283;-0.7885778;0.1218837;-27;-4;12;1906;-2588;1669;65536;0.9164737;0.1385041;-0.1191136;-0.3559557;-27;8;-13;2491;175;-2643;8192;0.6735334;-0.6537396;-0.09695291;0.3310249;23;-8;-37;1854;3853;91;32768;0.2465374;-0.7877466;0.4903047;0.2797784;-2;-23;22;3202;2991;278;256;0.4944598;-0.5741144;-0.4986149;-0.4210526;26;16;10;689;3740;-513;128;-0.3310249;0.5318559;0.5524528;0.5498615;-23;-10;-8;-645;3927;872;4;-0.2299169;-0.1121884;-0.7057436;-0.6606648;-9;-19;-7;5235;4444;1448;16;0.5787535;-0.5304709;0.4958449;0.3711911;3;-38;-5;1341;4542;-1280;2;0.6565097;-0.7463973;-0.09695291;-0.04986149;-2;-11;9;-681;3808;-711;8;0.3254848;-0.6127616;0.3836565;0.6094183;-15;-3;1;259;3699;1813;0.2606153;2.647694;0.9498861;0.2665766;3.190941;0.9001955;0.2718147;3.66827;0.8545033;0.3847191;4.39333;0.8565577;0.1793026;4.755498;0.8193348;-0.1795408;4.669284;0.8820862;-0.6833165;5.174857;0.2913781;0.1403504;5.342992;0.7285289;0.6934507;4.675439;0.8193336;0.9573283;4.492259;0.8820844;1.008252;3.72122;1.457567;0.3110575;3.086189;1.549455;-0.05164493;2.605107;0.9464078;0.03561428;1.322895;0.2469966;0;0;0;-0.05164493;2.605107;0.9464078;0.03561428;1.322895;0.2469966;0;0;0
827329.2109;NotLabelled;NONE;16384;-0.4085872;-0.4445983;-0.7870851;0.1260388;-24;-11;3;1864;-2706;1777;65536;0.9165742;0.132964;-0.1204986;-0.3573407;-24;-4;-17;2535;195;-2671;8192;0.6727725;-0.6578947;-0.09279778;0.3254848;23;-7;-41;1842;3925;281;32768;0.2437673;-0.7869901;0.4944598;0.2770083;0;-30;23;3200;3189;484;256;0.4889196;-0.5768145;-0.4986149;-0.4238227;10;-7;7;53;4310;-381;128;-0.3310249;0.5387812;0.5443213;0.5512274;-5;-29;-15;-355;4535;632;4;-0.2285319;-0.1177285;-0.7039909;-0.6620498;15;-41;26;4741;4676;138;16;0.5765834;-0.5263157;0.4986149;0.3767313;-4;-29;-14;-873;4820;-1468;2;0.6565097;-0.7479378;-0.08864266;-0.04155125;2;-43;12;263;4218;-599;8;0.3213296;-0.6108033;0.3822715;0.6144389;-13;-3;0;253;3769;2353;0.2755041;2.653673;0.9432579;0.2814704;3.197363;0.8986751;0.286713;3.6751;0.8574709;0.4012754;4.39983;0.8677125;0.1967548;4.762861;0.8341321;-0.1623941;4.676791;0.8953128;-0.6691003;5.190069;0.3138288;0.1601506;5.350245;0.7433436;0.7107173;4.681619;0.8341311;0.9740645;4.497149;0.8953117;1.010377;3.711463;1.451778;0.3058507;3.083458;1.535678;-0.0367557;2.611121;0.9393471;0.03618611;1.32217;0.2507658;0;0;0;-0.0367557;2.611121;0.9393471;0.03618611;1.32217;0.2507658;0;0;0
827350.0443;NotLabelled;NONE;16384;-0.4072022;-0.4473684;-0.7857838;0.1288089;-15;-15;-7;2238;-2718;1847;65536;0.9173378;0.1288089;-0.1232687;-0.3559557;-21;-7;-20;2817;-159;-2897;8192;0.6712524;-0.6620498;-0.08864266;0.3213296;21;-13;-43;1766;4039;443;32768;0.2409972;-0.7861914;0.4986149;0.2742382;-3;-40;25;3168;3419;1114;256;0.4889196;-0.5791975;-0.4958449;-0.4238227;4;-37;4;33;4490;-453;128;-0.3310249;0.5415512;0.5429363;0.5498773;-4;-33;-16;-473;4881;610;4;-0.2285319;-0.1218837;-0.6993486;-0.666205;20;-7;17;2329;3574;-920;16;0.5785264;-0.5290859;0.4944598;0.3753462;-12;70;-1;-1505;4516;-1348;2;0.6565097;-0.748548;-0.08587258;-0.03601108;0;-40;14;925;4358;-665;8;0.3199446;-0.6121883;0.3808864;0.6146433;-11;1;-1;205;3463;2373;0.271369;2.650464;0.9479293;0.2773433;3.194886;0.9134263;0.2825933;3.673304;0.8810796;0.4005418;4.39733;0.8994299;0.1977893;4.761667;0.8694617;-0.1618683;4.67663;0.9290794;-0.6733395;5.196598;0.3578008;0.1602495;5.345927;0.7828031;0.7113636;4.678005;0.8694608;0.9737318;4.491639;0.929078;1.005966;3.697884;1.474228;0.2969653;3.074755;1.556788;-0.04088999;2.607991;0.9431676;0.03333411;1.322826;0.2476822;0;0;0;-0.04088999;2.607991;0.9431676;0.03333411;1.322826;0.2476822;0;0;0
827370.0244;NotLabelled;NONE;16384;-0.4030471;-0.4529086;-0.7849777;0.1274238;-7;-11;-15;2628;-2426;2303;65536;0.9189686;0.1204986;-0.1274238;-0.3531856;-23;-22;-15;3581;-1055;-3063;8192;0.6704789;-0.666205;-0.08310249;0.3157895;13;-23;-43;1692;4069;547;32768;0.2368421;-0.7835088;0.5055401;0.2728532;-12;-53;25;2682;3407;1618;256;0.4903047;-0.5835727;-0.4916897;-0.4210526;13;-43;5;277;4680;-95;128;0.3310249;-0.5484958;-0.5401662;-0.5457063;-14;-35;-15;-809;4523;892;4;-0.232687;-0.1218837;-0.6966525;-0.66759;21;17;14;1335;2650;-276;16;0.5832226;-0.5373961;0.4861496;0.367036;-18;114;7;545;4022;-1422;2;0.6565097;-0.7491065;-0.08310249;-0.03047091;0;-29;14;1479;4424;-445;8;0.3199446;-0.6121883;0.3781163;0.6163513;-8;2;-1;287;3609;2477;0.2461736;2.648189;0.9465806;0.2521491;3.192721;0.9138539;0.2574003;3.671242;0.8830682;0.3747087;4.395255;0.9055691;0.1716889;4.759581;0.8773258;-0.1879786;4.673915;0.9359742;-0.6925191;5.196702;0.3611162;0.1389489;5.337447;0.7931445;0.6853335;4.676353;0.877578;0.9477771;4.489881;0.9365329;0.9641227;3.691123;1.475043;0.2498374;3.072926;1.548639;-0.06608517;2.605733;0.9416692;0.02932934;1.323836;0.2427443;0;0;0;-0.06608517;2.605733;0.9416692;0.02932934;1.323836;0.2427443;0;0;0
827391.0072;NotLabelled;NONE;16384;-0.400277;-0.4556787;-0.7847919;0.1274238;-10;-10;-10;2718;-2324;2437;65536;0.9205443;0.1149584;-0.1288089;-0.3504155;-23;-20;-12;3165;-903;-3079;8192;0.66759;-0.6713781;-0.07479224;0.3130194;5;-40;-43;1722;3931;427;32768;0.2313019;-0.7806599;0.5124654;0.2728532;-19;-56;25;2544;3387;1554;256;0.4930748;-0.5876936;-0.4875346;-0.4168975;-1;-58;8;503;4644;69;128;0.3310249;-0.5525778;-0.5373961;-0.5443213;-13;-31;-12;-1127;4153;580;4;-0.2354571;-0.1218837;-0.6943895;-0.6689751;0;-8;5;1417;3226;988;16;0.5869424;-0.5526316;0.4736842;0.3545706;-21;47;-5;777;3904;-934;2;0.6565097;-0.7492639;-0.08310249;-0.02631579;-4;-10;14;1669;4466;-249;8;0.3199446;-0.6135734;0.3767313;0.615822;-3;7;1;-91;3507;2561;0.2245432;2.644704;0.9484114;0.2305209;3.189441;0.9193034;0.2357742;3.668156;0.8916976;0.3538283;4.391912;0.9182296;0.1512;4.756599;0.8919109;-0.2085804;4.670987;0.9499435;-0.7177869;5.194127;0.3795384;0.1098021;5.318664;0.8238177;0.6647574;4.672834;0.89191;0.9269823;4.485767;0.9499423;0.9335548;3.676556;1.472828;0.2136928;3.063481;1.533855;-0.08771516;2.602281;0.9431953;0.0286463;1.3243;0.2402857;0;0;0;-0.08771516;2.602281;0.9431953;0.0286463;1.3243;0.2402857;0;0;0
827411.1056;NotLabelled;NONE;16384;-0.398892;-0.4570637;-0.7846918;0.1274238;-14;-7;-7;2852;-2460;2575;65536;0.9215794;0.1108033;-0.1288089;-0.3490305;-27;-13;-8;2843;-427;-3315;8192;0.66482;-0.6758761;-0.0567867;0.3130194;-7;-60;-43;2456;3707;-155;32768;0.2188366;-0.7755046;0.5263157;0.2714681;-19;-66;27;2730;3223;1406;256;0.4958449;-0.5905802;-0.4847645;-0.4127424;0;-41;11;785;4048;-21;128;0.3310249;-0.5566128;-0.534626;-0.5429363;-10;-22;-9;-1465;3799;722;4;-0.2354571;-0.1246537;-0.6938975;-0.6689751;-2;-11;8;2325;3420;274;16;0.5896017;-0.5554016;0.468144;0.3531856;-21;24;-5;25;4066;-610;2;0.6578947;-0.7479404;-0.08448754;-0.02493075;-13;2;14;1569;4526;-61;8;0.3213296;-0.6167884;0.3739612;0.6135734;-3;31;2;-385;3351;2493;0.2143234;2.643317;0.9411678;0.2203031;3.188229;0.915541;0.2255582;3.667111;0.8909945;0.3442846;4.39068;0.9195307;0.1420127;4.75563;0.8941064;-0.2178741;4.670201;0.9517496;-0.7230409;5.193029;0.3774795;0.09957637;5.30801;0.8334148;0.6554905;4.671378;0.8941057;0.9175129;4.483907;0.9517488;0.9073855;3.666315;1.461371;0.1816833;3.059131;1.511094;-0.09793463;2.600929;0.9356589;0.03923462;1.325542;0.2317898;0;0;0;-0.09793463;2.600929;0.9356589;0.03923462;1.325542;0.2317898;0;0;0
827432.0237;NotLabelled;NONE;16384;-0.3961219;-0.4584487;-0.7850608;0.1288089;-13;1;-6;2610;-2472;2389;65536;0.9220695;0.1066482;-0.1288089;-0.3490305;-24;2;-4;2459;-713;-3431;8192;0.6634349;-0.6774327;-0.04570637;0.3144044;-13;-52;-43;2728;3545;-607;32768;0.2132964;-0.7708637;0.534626;0.2728532;-17;-74;24;2558;2897;1776;256;0.4930748;-0.5968903;-0.4833795;-0.4085872;-5;-28;16;1093;3902;-351;128;0.3310249;-0.5593117;-0.536011;-0.5387812;7;-12;-10;-1493;3737;428;4;-0.2368421;-0.1260388;-0.6931756;-0.6689751;4;7;15;2481;3652;-176;16;0.5902699;-0.5581717;0.4639889;0.3531856;-18;34;-4;-425;4202;-646;2;0.6592798;-0.7464462;-0.08725762;-0.0235457;-15;15;15;1199;4162;-309;8;0.3254848;-0.620681;0.368421;0.6108033;-4;38;2;155;3555;2131;0.1969336;2.641729;0.9381529;0.202915;3.186793;0.9159975;0.2081717;3.665822;0.894502;0.3278909;4.38923;0.922976;0.1261195;4.754454;0.8975242;-0.2338833;4.669524;0.9551795;-0.7341881;5.192184;0.3765169;0.08484934;5.300471;0.8404655;0.6394814;4.669498;0.8975232;0.9012472;4.481673;0.9551782;0.8816738;3.651058;1.443;0.1432425;3.058671;1.482811;-0.115324;2.599377;0.9323523;0.03175499;1.326862;0.2252942;0;0;0;-0.115324;2.599377;0.9323523;0.03175499;1.326862;0.2252942;0;0;0
827452.2595;NotLabelled;NONE;16384;-0.3947368;-0.4584487;-0.7855299;0.1301939;-18;1;-5;2368;-2272;2283;65536;0.9220529;0.1038781;-0.1274238;-0.3504155;-18;31;-1;1769;-725;-2785;8192;0.6634349;-0.6785828;-0.03739612;0.3130194;-16;-39;-43;2974;3409;-871;32768;0.2077562;-0.7680177;0.5401662;0.2742382;-18;-72;17;2114;2607;2396;256;0.4944598;-0.5996879;-0.4819945;-0.4044321;-11;-55;22;899;3434;-495;128;0.3310249;-0.5606425;-0.5373961;-0.536011;12;-10;-8;-983;3825;614;4;-0.2409972;-0.1260388;-0.6917419;-0.6689751;9;25;16;1885;3834;-270;16;0.5904047;-0.5623268;0.4598338;0.3518005;-16;41;0;161;4184;-496;2;0.6620498;-0.7429234;-0.09556787;-0.02493075;-13;25;5;305;3726;-321;8;0.3268698;-0.6237594;0.3642659;0.6094183;-4;14;0;329;3125;1849;0.1841412;2.640317;0.9326826;0.1901219;3.185319;0.9090403;0.195378;3.664287;0.8862382;0.323006;4.386074;0.9208469;0.1253016;4.753695;0.8981354;-0.2356974;4.672262;0.9545956;-0.7336435;5.195696;0.3745995;0.0828186;5.296826;0.8446622;0.6376973;4.663095;0.8981345;0.8972969;4.471929;0.9545946;0.8725812;3.634574;1.430514;0.1303746;3.046525;1.463916;-0.1281165;2.597949;0.9270068;0.02906752;1.328312;0.2169549;0;0;0;-0.1281165;2.597949;0.9270068;0.02906752;1.328312;0.2169549;0;0;0
827472.2057;NotLabelled;NONE;16384;-0.3919668;-0.4598338;-0.7856434;0.132964;-19;-1;0;2398;-2260;2217;65536;0.9204276;0.101108;-0.1260388;-0.3559557;-24;28;-8;2147;-727;-2703;8192;0.6634349;-0.678929;-0.03047091;0.3130194;-17;-28;-38;2758;3355;-1121;32768;0.2022161;-0.7660645;0.5443213;0.2756233;-19;-56;8;1586;2369;2526;256;0.4930748;-0.6037876;-0.4806094;-0.4016621;26;-15;14;1177;3344;149;128;0.33241;-0.5611453;-0.5373961;-0.534626;1;-8;-5;-763;3827;824;4;-0.2451524;-0.1232687;-0.6894364;-0.6703601;11;25;15;1605;3800;34;16;0.5923624;-0.566482;0.4542936;0.3490305;-13;45;1;527;3992;114;2;0.6634349;-0.7412768;-0.09833795;-0.02631579;-9;16;2;329;3628;-325;8;0.3282548;-0.6251894;0.3628809;0.6080332;-4;23;1;367;3273;2027;0.1715842;2.637136;0.9296144;0.1775641;3.182067;0.90441;0.1828195;3.660968;0.880235;0.3133948;4.382228;0.9148233;0.1171935;4.750653;0.8921028;-0.2441347;4.670698;0.9485671;-0.7382067;5.195084;0.366123;0.07611968;5.291951;0.8407657;0.6292149;4.65796;0.892102;0.8880318;4.465738;0.9485659;0.8594369;3.621768;1.412432;0.1131772;3.03865;1.441703;-0.1406737;2.594751;0.9240701;0.03081321;1.329454;0.2095963;0;0;0;-0.1406737;2.594751;0.9240701;0.03081321;1.329454;0.2095963;0;0;0
