SEP=;
index;label;segment;RightUpperArm_boneIndex;RightUpperArm_quat9x_w;RightUpperArm_quat9x_x;RightUpperArm_quat9x_y;RightUpperArm_quat9x_z;RightUpperArm_gyroscope_x;RightUpperArm_gyroscope_y;RightUpperArm_gyroscope_z;RightUpperArm_accelerometer_x;RightUpperArm_accelerometer_y;RightUpperArm_accelerometer_z;RightLowerArm_boneIndex;RightLowerArm_quat9x_w;RightLowerArm_quat9x_x;RightLowerArm_quat9x_y;RightLowerArm_quat9x_z;RightLowerArm_gyroscope_x;RightLowerArm_gyroscope_y;RightLowerArm_gyroscope_z;RightLowerArm_accelerometer_x;RightLowerArm_accelerometer_y;RightLowerArm_accelerometer_z;LeftUpperArm_boneIndex;LeftUpperArm_quat9x_w;LeftUpperArm_quat9x_x;LeftUpperArm_quat9x_y;LeftUpperArm_quat9x_z;LeftUpperArm_gyroscope_x;LeftUpperArm_gyroscope_y;LeftUpperArm_gyroscope_z;LeftUpperArm_accelerometer_x;LeftUpperArm_accelerometer_y;LeftUpperArm_accelerometer_z;LeftLowerArm_boneIndex;LeftLowerArm_quat9x_w;LeftLowerArm_quat9x_x;LeftLowerArm_quat9x_y;LeftLowerArm_quat9x_z;LeftLowerArm_gyroscope_x;LeftLowerArm_gyroscope_y;LeftLowerArm_gyroscope_z;LeftLowerArm_accelerometer_x;LeftLowerArm_accelerometer_y;LeftLowerArm_accelerometer_z;Chest_boneIndex;Chest_quat9x_w;Chest_quat9x_x;Chest_quat9x_y;Chest_quat9x_z;Chest_gyroscope_x;Chest_gyroscope_y;Chest_gyroscope_z;Chest_accelerometer_x;Chest_accelerometer_y;Chest_accelerometer_z;Spine_boneIndex;Spine_quat9x_w;Spine_quat9x_x;Spine_quat9x_y;Spine_quat9x_z;Spine_gyroscope_x;Spine_gyroscope_y;Spine_gyroscope_z;Spine_accelerometer_x;Spine_accelerometer_y;Spine_accelerometer_z;RightUpperLeg_boneIndex;RightUpperLeg_quat9x_w;RightUpperLeg_quat9x_x;RightUpperLeg_quat9x_y;RightUpperLeg_quat9x_z;RightUpperLeg_gyroscope_x;RightUpperLeg_gyroscope_y;RightUpperLeg_gyroscope_z;RightUpperLeg_accelerometer_x;RightUpperLeg_accelerometer_y;RightUpperLeg_accelerometer_z;RightLowerLeg_boneIndex;RightLowerLeg_quat9x_w;RightLowerLeg_quat9x_x;RightLowerLeg_quat9x_y;RightLowerLeg_quat9x_z;RightLowerLeg_gyroscope_x;RightLowerLeg_gyroscope_y;RightLowerLeg_gyroscope_z;RightLowerLeg_accelerometer_x;RightLowerLeg_accelerometer_y;RightLowerLeg_accelerometer_z;LeftUpperLeg_boneIndex;LeftUpperLeg_quat9x_w;LeftUpperLeg_quat9x_x;LeftUpperLeg_quat9x_y;LeftUpperLeg_quat9x_z;LeftUpperLeg_gyroscope_x;LeftUpperLeg_gyroscope_y;LeftUpperLeg_gyroscope_z;LeftUpperLeg_accelerometer_x;LeftUpperLeg_accelerometer_y;LeftUpperLeg_accelerometer_z;LeftLowerLeg_boneIndex;LeftLowerLeg_quat9x_w;LeftLowerLeg_quat9x_x;LeftLowerLeg_quat9x_y;LeftLowerLeg_quat9x_z;LeftLowerLeg_gyroscope_x;LeftLowerLeg_gyroscope_y;LeftLowerLeg_gyroscope_z;LeftLowerLeg_accelerometer_x;LeftLowerLeg_accelerometer_y;LeftLowerLeg_accelerometer_z;pelvis_x;pelvis_y;pelvis_z;lowerSpine_x;lowerSpine_y;lowerSpine_z;middleSpine_x;middleSpine_y;middleSpine_z;upperSpine_x;upperSpine_y;upperSpine_z;rightClavicle_x;rightClavicle_y;rightClavicle_z;rightShoulder_x;rightShoulder_y;rightShoulder_z;rightElbow_x;rightElbow_y;rightElbow_z;rightWrist_x;rightWrist_y;rightWrist_z;leftClavicle_x;leftClavicle_y;leftClavicle_z;leftShoulder_x;leftShoulder_y;leftShoulder_z;leftElbow_x;leftElbow_y;leftElbow_z;leftWrist_x;leftWrist_y;leftWrist_z;rightHip_x;rightHip_y;rightHip_z;rightKnee_x;rightKnee_y;rightKnee_z;rightAnkle_x;rightAnkle_y;rightAnkle_z;leftHip_x;leftHip_y;leftHip_z;leftKnee_x;leftKnee_y;leftKnee_z;leftAnkle_x;leftAnkle_y;leftAnkle_z;
604752.154;NotLabelled;NONE;16384;-0.4113573;-0.4875346;-0.7438524;0.199446;-10;-15;-15;2264;-2704;1731;65536;0.8441007;0.1537396;-0.1052632;-0.5027701;3;24;9;3711;-576;-1881;8192;0.6787142;-0.66482;-0.04432133;0.3088643;-4;1;-5;1982;3457;-307;32768;0.1772853;-0.8208974;0.4778393;0.2576177;0;-7;0;2871;2168;2051;256;0.501385;-0.5800844;-0.4916897;-0.4127424;0;2;-7;681;3918;-81;128;-0.3116343;0.4722992;0.6081169;0.5567867;-11;12;8;-925;3939;192;4;-0.232687;-0.1357341;-0.6900663;-0.6717451;-3;7;0;2137;3446;62;16;0.5827636;-0.5734072;0.4459834;0.3642659;-3;-15;-5;337;4024;-260;2;0.6578947;-0.7450661;-0.09556787;0.05401662;0;13;0;1207;3672;-657;8;0.3227147;-0.6080332;0.3601108;0.6296595;4;-7;0;397;3239;2059;0.2230319;2.6433;0.8739398;0.228906;3.178616;0.768945;0.2340651;3.648769;0.6746699;0.3512952;4.373098;0.682861;0.1480954;4.736784;0.6483681;-0.21134;4.652204;0.7099431;-0.6711258;5.29882;0.2315978;0.1432686;5.441972;0.6942702;0.6617558;4.653654;0.6483669;0.9244504;4.468386;0.7099413;0.9456784;3.627;1.178871;0.1533485;3.118321;1.284916;-0.08922946;2.600598;0.8751855;0.05338836;1.336524;0.1522511;0;0;0;-0.08922946;2.600598;0.8751855;0.05338836;1.336524;0.1522511;0;0;0
604773.5072;NotLabelled;NONE;16384;-0.4099723;-0.4903047;-0.7431661;0.1980609;-12;-14;-17;2442;-2826;1589;65536;0.8423627;0.1551246;-0.1038781;-0.5055401;2;23;10;3701;-766;-1757;8192;0.6787142;-0.66482;-0.04432133;0.3088643;-2;1;-6;2150;3455;-459;32768;0.1772853;-0.8208974;0.4778393;0.2576177;3;-4;0;2767;2046;2101;256;0.501385;-0.5790965;-0.4916897;-0.4141274;0;10;-5;499;3810;-187;128;-0.3102493;0.4695291;0.6084275;0.5595568;-8;15;6;-821;3919;232;4;-0.234072;-0.134349;-0.6898689;-0.6717451;-2;16;0;2033;3434;-20;16;0.5808314;-0.5734072;0.4473684;0.365651;-3;-13;-5;239;3992;-324;2;0.6578947;-0.7448047;-0.09833795;0.05263158;0;18;-1;1199;3714;-577;8;0.3213296;-0.6080332;0.3614958;0.6295742;5;-11;0;341;3173;1965;0.2145807;2.643901;0.8695506;0.2204596;3.17964;0.7667373;0.2256227;3.650173;0.674378;0.3404939;4.374855;0.6845629;0.1361275;4.73797;0.6509572;-0.2230572;4.652057;0.712149;-0.6848055;5.298197;0.2350527;0.1268547;5.443828;0.7017388;0.6500554;4.656509;0.6509562;0.9133248;4.471931;0.7121475;0.9354403;3.629661;1.179444;0.142689;3.120575;1.280263;-0.09768073;2.601194;0.8706084;0.04893088;1.33712;0.1484736;0;0;0;-0.09768073;2.601194;0.8706084;0.04893088;1.33712;0.1484736;0;0;0
604794.5001;NotLabelled;NONE;16384;-0.4072022;-0.4930748;-0.7432242;0.1966759;-12;-9;-16;2512;-2754;1383;65536;0.8403482;0.1578947;-0.1024931;-0.5083103;4;24;8;3605;-900;-1301;8192;0.6787142;-0.66482;-0.04432133;0.3088643;0;6;-5;2338;3333;-411;32768;0.1772853;-0.8213308;0.4778393;0.2562327;4;1;2;2759;2126;2231;256;0.5;-0.5793018;-0.4916897;-0.4155124;1;14;-5;519;3718;-151;128;-0.3088643;0.468144;0.6076451;0.5623268;-8;16;6;-769;3889;312;4;-0.2368421;-0.132964;-0.6905388;-0.6703601;-1;17;2;1925;3428;-26;16;0.5813233;-0.5720221;0.4473684;0.367036;-3;-3;-3;97;4060;-278;2;0.6578947;-0.7446244;-0.101108;0.04986149;0;21;-4;1171;3588;-413;8;0.3213296;-0.6066482;0.3642659;0.6293135;4;-10;1;333;3141;1887;0.2184021;2.643955;0.8677522;0.2242819;3.179791;0.7654433;0.2294461;3.650411;0.673527;0.342584;4.375365;0.6837239;0.1373552;4.737991;0.6500885;-0.2216316;4.65122;0.7112319;-0.6890217;5.295608;0.2372695;0.12352;5.443718;0.7016357;0.6514763;4.657758;0.6501579;0.9151775;4.473811;0.711386;0.9394366;3.631979;1.179368;0.1469178;3.122893;1.281999;-0.09385938;2.601248;0.8687665;0.05295251;1.337163;0.1466906;0;0;0;-0.09385938;2.601248;0.8687665;0.05295251;1.337163;0.1466906;0;0;0
604815.6611;NotLabelled;NONE;16384;-0.4030471;-0.4986149;-0.7417916;0.1966759;-6;-1;-5;2546;-2746;1209;65536;0.8365124;0.1620499;-0.09972299;-0.5138504;0;0;5;4113;-986;-467;8192;0.679251;-0.66482;-0.04570637;0.3074792;2;12;-2;2234;3345;-389;32768;0.1786704;-0.8218352;0.4764543;0.2562327;5;4;3;2727;2192;2285;256;0.5;-0.5761223;-0.4930748;-0.4182825;0;17;-7;473;3618;-39;128;-0.3060942;0.4653739;0.6086041;0.5650969;-5;18;7;-767;3823;260;4;-0.2382271;-0.1315789;-0.6903276;-0.6703601;2;10;2;1823;3480;154;16;0.5823865;-0.5720221;0.4459834;0.367036;-1;4;-1;357;4070;-218;2;0.6578947;-0.7442018;-0.1066482;0.04432133;1;25;-5;919;3820;-521;8;0.3185596;-0.6052631;0.367036;0.630445;2;-14;1;25;3205;2311;0.2175114;2.642608;0.8702731;0.2233954;3.178816;0.7699357;0.2285633;3.649771;0.679751;0.3416713;4.374698;0.6919925;0.136439;4.737409;0.6593025;-0.2225627;4.650456;0.7200984;-0.6960357;5.292979;0.2496554;0.1164271;5.445697;0.7126653;0.6505629;4.657194;0.6593016;0.914253;4.473087;0.7200974;0.9388546;3.630816;1.187269;0.1456033;3.122838;1.289733;-0.09475014;2.599897;0.8711177;0.04914279;1.337423;0.1456431;0;0;0;-0.09475014;2.599897;0.8711177;0.04914279;1.337423;0.1456431;0;0;0
604835.5802;NotLabelled;NONE;16384;-0.400277;-0.4986149;-0.7429222;0.1980609;-5;5;-3;2664;-2900;1191;65536;0.8364069;0.1634349;-0.09833795;-0.5138504;-7;-11;8;4161;-856;-461;8192;0.6783268;-0.666205;-0.04847645;0.3060942;5;9;4;2106;3597;-479;32768;0.1814404;-0.823259;0.4736842;0.2548476;10;12;-3;2421;2200;1937;256;0.4986149;-0.5751276;-0.4944598;-0.4196676;0;21;-8;579;3528;1;128;-0.3047091;0.4626039;0.6088325;0.567867;-3;19;8;-579;3835;172;4;-0.2396122;-0.1288089;-0.6917129;-0.6689751;-4;10;1;1767;3630;310;16;0.5804465;-0.5720221;0.4473684;0.368421;0;-8;-1;357;4148;-330;2;0.6578947;-0.7442378;-0.1080332;0.0401662;2;22;-5;671;3988;-323;8;0.3171745;-0.6052631;0.368421;0.6303355;1;-12;1;-63;3437;2205;0.2190267;2.642889;0.8691943;0.2249119;3.179207;0.7694397;0.2300809;3.650259;0.6797668;0.3400364;4.375702;0.6899922;0.1332191;4.737425;0.6563656;-0.2253848;4.649079;0.717498;-0.7131827;5.290926;0.2609742;0.1012004;5.450706;0.718191;0.6476873;4.659449;0.6564432;0.9121917;4.476658;0.7176704;0.9433075;3.634903;1.185384;0.1518585;3.125273;1.293421;-0.09323476;2.600178;0.8699889;0.04709721;1.337692;0.1438389;0;0;0;-0.09323476;2.600178;0.8699889;0.04709721;1.337692;0.1438389;0;0;0
604856.8312;NotLabelled;NONE;16384;-0.400277;-0.4986149;-0.7429222;0.1980609;0;9;-3;2470;-3054;1175;65536;0.8366764;0.1620499;-0.09833795;-0.5138504;-7;-9;3;3473;-598;-853;8192;0.6781232;-0.666205;-0.05124654;0.3060942;6;10;6;2232;3523;-525;32768;0.1842105;-0.8234395;0.4722992;0.2548476;11;12;-6;2523;2162;2091;256;0.4986149;-0.5718981;-0.4958449;-0.4224377;0;20;-8;433;3818;-53;128;-0.3033241;0.4584487;0.6113684;0.5692521;1;15;8;-675;3997;10;4;-0.2396122;-0.1288089;-0.6917129;-0.6689751;-4;9;4;1681;3538;162;16;0.5815114;-0.5720221;0.4459834;0.368421;0;7;0;57;4070;-330;2;0.6578947;-0.7441798;-0.1094183;0.03739612;2;15;-7;499;4128;-185;8;0.3157895;-0.6038781;0.368421;0.6323561;0;-17;1;-109;3579;2077;0.2311168;2.644263;0.8663993;0.2370032;3.18069;0.7672406;0.2421733;3.651842;0.6780913;0.3524163;4.377241;0.6883233;0.1457366;4.739047;0.6547386;-0.212893;4.65084;0.7159212;-0.7035121;5.292946;0.262798;0.1131038;5.456238;0.7147614;0.660174;4.660868;0.6547377;0.9246156;4.477971;0.7159202;0.9503484;3.636602;1.184655;0.1605119;3.124757;1.294015;-0.08114463;2.60155;0.8671424;0.05151986;1.337741;0.1418528;0;0;0;-0.08114463;2.60155;0.8671424;0.05151986;1.337741;0.1418528;0;0;0
604877.6575;NotLabelled;NONE;16384;-0.398892;-0.4986149;-0.7436667;0.1980609;7;5;-2;2490;-3274;973;65536;0.8375254;0.1620499;-0.09833795;-0.5124654;-3;-11;-4;3239;-416;-1421;8192;0.6769425;-0.66759;-0.0567867;0.3047091;7;19;8;1978;3479;-135;32768;0.1855956;-0.8239216;0.4709141;0.2548476;9;11;-8;2653;2276;2273;256;0.5;-0.5696597;-0.4958449;-0.4238227;-8;-3;-3;503;4176;-275;128;-0.3033241;0.4529086;0.6142;0.5706371;9;8;6;-989;4271;256;4;-0.2409972;-0.1288089;-0.6925693;-0.66759;-4;4;6;1737;3448;296;16;0.5812078;-0.5734072;0.4445983;0.368421;0;20;1;127;4104;-258;2;0.6578947;-0.7443139;-0.1094183;0.03462604;0;8;-10;459;4150;-115;8;0.3157895;-0.6038781;0.3698061;0.6315471;-3;-15;3;-267;3617;1863;0.2346309;2.644525;0.865396;0.2405122;3.180485;0.7637393;0.2456776;3.651216;0.6723958;0.3527167;4.377121;0.680586;0.1444258;4.737916;0.6460925;-0.2137856;4.648293;0.7076674;-0.7075186;5.2904;0.2579387;0.1135917;5.451579;0.702456;0.6592038;4.662013;0.6460914;0.9244761;4.480455;0.7076662;0.9523554;3.640986;1.179673;0.1655734;3.125425;1.293505;-0.07763049;2.601817;0.8663542;0.04945241;1.338007;0.1400664;0;0;0;-0.07763049;2.601817;0.8663542;0.04945241;1.338007;0.1400664;0;0;0
604899.0895;NotLabelled;NONE;16384;-0.400277;-0.5;-0.7419907;0.1980609;14;-1;-1;2370;-3130;1137;65536;0.8384742;0.1606648;-0.09972299;-0.5110803;2;-18;-7;3973;-420;-1507;8192;0.6786887;-0.666205;-0.05955679;0.3033241;6;14;10;1802;3637;-23;32768;0.1883656;-0.8240834;0.4695291;0.2548476;5;15;-6;2795;2552;2205;256;0.501385;-0.5684411;-0.4958449;-0.4238227;-7;0;-2;823;3992;-75;128;-0.3033241;0.4515235;0.6152189;0.5706371;8;6;7;-1103;4177;384;4;-0.2409972;-0.1301939;-0.6923102;-0.66759;-2;-6;6;1931;3442;-2;16;0.5817736;-0.5747922;0.4432133;0.367036;0;11;2;195;4086;-178;2;0.6592798;-0.7433532;-0.1080332;0.033241;0;-4;-11;363;4132;-357;8;0.3130194;-0.602493;0.3711911;0.6334336;-3;-20;2;-3;3651;2261;0.241324;2.64319;0.8649138;0.247197;3.178405;0.7594038;0.2523551;3.648467;0.664676;0.3558932;4.3749;0.6708103;0.1458501;4.734589;0.6354021;-0.2119002;4.643409;0.6973718;-0.7088518;5.28451;0.2497581;0.1134094;5.446208;0.6919538;0.6609882;4.661169;0.6354009;0.927158;4.481065;0.6973699;0.9504665;3.644434;1.174634;0.1650095;3.127211;1.290068;-0.07093736;2.60049;0.866204;0.05133068;1.338333;0.1362247;0;0;0;-0.07093736;2.60049;0.866204;0.05133068;1.338333;0.1362247;0;0;0
604920.582;NotLabelled;NONE;16384;-0.4016621;-0.5;-0.7416105;0.1966759;18;-7;1;2474;-3318;1197;65536;0.8399909;0.1606648;-0.101108;-0.5083103;9;-22;-6;4547;-410;-2017;8192;0.6785657;-0.666205;-0.06094183;0.3033241;6;6;11;1934;3833;85;32768;0.1897507;-0.8253384;0.466759;0.2548476;3;22;-5;2809;2682;1955;256;0.501385;-0.5694711;-0.4958449;-0.4224377;-9;10;-3;829;4352;-69;128;-0.3033241;0.4501385;0.6149476;0.5720221;4;5;8;-1015;4223;312;4;-0.2396122;-0.1315789;-0.6925291;-0.66759;-1;-10;3;1943;3522;20;16;0.5826451;-0.5747922;0.4432133;0.365651;1;1;2;331;4028;-194;2;0.6592798;-0.7441979;-0.1024931;0.03185596;3;-14;-6;671;4230;-567;8;0.3088643;-0.601108;0.3739612;0.6351575;-1;-13;2;261;3783;2367;0.2420567;2.64172;0.8667249;0.2479269;3.176661;0.7598356;0.2530823;3.646477;0.6638965;0.3548742;4.373172;0.6679735;0.1439523;4.732254;0.63165;-0.2135534;4.640387;0.694014;-0.7087497;5.283181;0.2468835;0.1137659;5.441885;0.6896904;0.6592656;4.660074;0.6316491;0.9258921;4.480784;0.6940128;0.9522259;3.645169;1.172895;0.1690013;3.124232;1.286788;-0.07020462;2.599023;0.8681337;0.05240618;1.338349;0.1356537;0;0;0;-0.07020462;2.599023;0.8681337;0.05240618;1.338349;0.1356537;0;0;0
604940.5126;NotLabelled;NONE;16384;-0.4058172;-0.5;-0.7407966;0.1911357;24;-8;2;2686;-3188;1553;65536;0.8419265;0.1634349;-0.1080332;-0.5027701;25;-18;-5;3697;-490;-2035;8192;0.6776902;-0.666205;-0.06371191;0.3047091;6;6;10;2082;3783;47;32768;0.1925208;-0.8262582;0.4639889;0.2548476;4;21;-3;3057;2630;1795;256;0.5027701;-0.5660027;-0.4972299;-0.4238227;-8;8;-3;581;4468;-115;128;-0.3033241;0.4487534;0.615959;0.5720221;4;1;6;-875;4303;342;4;-0.2382271;-0.132964;-0.6914049;-0.6689751;-1;-11;0;1957;3498;204;16;0.5810229;-0.5734072;0.4459834;0.367036;6;-7;5;205;4222;-380;2;0.6592798;-0.7445742;-0.09972299;0.03185596;3;-14;-3;593;4262;-551;8;0.3074792;-0.601108;0.3753462;0.6350125;1;-14;1;291;3773;2623;0.2413622;2.641401;0.8700768;0.2472331;3.176411;0.7635335;0.2523892;3.646289;0.6678982;0.3559497;4.372734;0.6719766;0.1459026;4.732329;0.6356537;-0.2118257;4.641332;0.6980174;-0.7046343;5.283366;0.2471723;0.1160219;5.441721;0.6935394;0.6610387;4.658895;0.6356528;0.927228;4.478956;0.6980164;0.9519933;3.64431;1.17867;0.1694163;3.122097;1.291162;-0.07089916;2.598703;0.8714558;0.05158726;1.338045;0.1389278;0;0;0;-0.07089916;2.598703;0.8714558;0.05158726;1.338045;0.1389278;0;0;0
604961.5802;NotLabelled;NONE;16384;-0.4085872;-0.5;-0.739983;0.1883656;27;-10;1;2454;-3036;1687;65536;0.8424902;0.166205;-0.1121884;-0.5;32;-15;-7;3823;-692;-2361;8192;0.6792665;-0.66482;-0.06786703;0.3033241;0;15;9;2024;3895;-59;32768;0.1952908;-0.8275841;0.4612188;0.2534626;7;15;0;2853;2654;1575;256;0.5027701;-0.5660027;-0.4972299;-0.4238227;-6;4;-4;489;4302;-371;128;-0.3047091;0.4473684;0.6149943;0.5734072;2;-1;6;-777;4289;530;4;-0.2368421;-0.134349;-0.691613;-0.6689751;0;-13;-3;2121;3386;246;16;0.5832571;-0.5720221;0.4459834;0.365651;6;-1;7;-255;4070;-336;2;0.6578947;-0.746103;-0.09695291;0.033241;4;-18;0;721;4248;-625;8;0.3074792;-0.599723;0.3767313;0.6355017;2;4;0;-225;3705;2573;0.2446752;2.641284;0.871418;0.2505429;3.17602;0.7635057;0.2556964;3.645652;0.6666682;0.3560044;4.372564;0.6666459;0.1443206;4.731009;0.6284997;-0.2129487;4.638759;0.6916481;-0.7042235;5.276738;0.2334335;0.1125637;5.434565;0.6870257;0.6597804;4.659883;0.6284987;0.9268206;4.481485;0.6916467;0.9524921;3.649764;1.177297;0.1726539;3.124221;1.293247;-0.06758611;2.59859;0.8729152;0.0544076;1.337758;0.1406043;0;0;0;-0.06758611;2.59859;0.8729152;0.0544076;1.337758;0.1406043;0;0;0
604982.5565;NotLabelled;NONE;16384;-0.4113573;-0.5;-0.7394942;0.1842105;28;-15;4;2444;-2776;1991;65536;0.8429261;0.1703601;-0.1149584;-0.4972299;32;-12;-6;3949;-1026;-2125;8192;0.6810955;-0.6634349;-0.06925207;0.301939;-3;14;5;1860;3927;35;32768;0.1980609;-0.8276965;0.4598338;0.2534626;6;9;-3;2671;2490;1693;256;0.5027701;-0.5649629;-0.4972299;-0.4252077;0;3;-6;499;4128;-29;128;-0.3060942;0.4473684;0.6143062;0.5734072;0;-18;3;-935;4109;666;4;-0.2354571;-0.1357341;-0.6904734;-0.6703601;2;-13;-6;2381;3312;262;16;0.5821955;-0.5720221;0.4473684;0.365651;9;8;10;-219;4134;-528;2;0.6578947;-0.7461531;-0.09556787;0.03601108;1;-21;3;813;4372;-521;8;0.3102493;-0.601108;0.3739612;0.6344821;1;22;0;-145;3703;2439;0.2414339;2.640883;0.8772709;0.2473024;3.175688;0.769703;0.2524564;3.645382;0.6731679;0.3527644;4.372293;0.6731455;0.1410806;4.730739;0.6349995;-0.2161886;4.638489;0.6981478;-0.7045888;5.274946;0.2347738;0.1075149;5.434;0.6962775;0.6565404;4.659612;0.6349984;0.9235806;4.481215;0.6981463;0.9514562;3.651527;1.187141;0.1727457;3.123705;1.300284;-0.07082748;2.598188;0.8787385;0.04926967;1.33737;0.1460906;0;0;0;-0.07082748;2.598188;0.8787385;0.04926967;1.33737;0.1460906;0;0;0
605004.5117;NotLabelled;NONE;16384;-0.4141274;-0.5;-0.7389713;0.1800554;23;-17;6;2416;-2710;2249;65536;0.8423148;0.1745152;-0.1191136;-0.4958449;28;-8;-4;3649;-1316;-1977;8192;0.6829112;-0.6620498;-0.07063711;0.300554;-4;12;1;1774;3733;-99;32768;0.199446;-0.8273638;0.4598338;0.2534626;4;4;-6;2827;2378;1681;256;0.5027701;-0.565136;-0.4958449;-0.4265928;0;7;-6;441;4112;-177;128;-0.3060942;0.4487534;0.6132951;0.5734072;0;-10;5;-969;4127;702;4;-0.234072;-0.1357341;-0.6909442;-0.6703601;4;-6;-9;2597;3466;340;16;0.5849846;-0.5720221;0.4459834;0.3628809;10;17;9;171;4104;-460;2;0.6578947;-0.7461904;-0.09418282;0.03878116;0;-18;5;1015;4350;-421;8;0.3130194;-0.602493;0.3711911;0.6334336;4;24;0;137;3807;2431;0.2433226;2.640769;0.8779775;0.2491911;3.175571;0.7703951;0.2543451;3.645262;0.6738472;0.3528725;4.372418;0.6738249;0.1403114;4.730343;0.6356788;-0.2167308;4.637218;0.6988271;-0.7038375;5.270376;0.2296073;0.1044951;5.434183;0.6960433;0.6559439;4.660479;0.6356778;0.9234203;4.482736;0.6988257;0.9556643;3.653129;1.187689;0.1795443;3.121585;1.301211;-0.06893874;2.598074;0.8794461;0.05279328;1.337098;0.14734;0;0;0;-0.06893874;2.598074;0.8794461;0.05279328;1.337098;0.14734;0;0;0
605024.6709;NotLabelled;NONE;16384;-0.4168975;-0.5;-0.7380829;0.1772853;16;-17;6;2622;-2668;2423;65536;0.843165;0.1772853;-0.1204986;-0.4930748;21;-2;-4;3317;-1358;-2347;8192;0.6835191;-0.6620498;-0.07063711;0.299169;-2;6;0;1670;3619;-159;32768;0.200831;-0.8270288;0.4598338;0.2534626;3;0;-7;3105;2240;1745;256;0.5027701;-0.5640879;-0.4958449;-0.4279778;2;2;-4;329;4180;-337;128;-0.3060942;0.4487534;0.6119972;0.5747922;0;0;5;-1033;4255;508;4;-0.232687;-0.1357341;-0.6900663;-0.6717451;4;0;-11;2599;3424;304;16;0.5864879;-0.5720221;0.4473684;0.3587258;10;9;9;579;4190;-492;2;0.6578947;-0.7462149;-0.09279778;0.04155125;-2;-15;7;1291;4392;-503;8;0.3157895;-0.6038781;0.3698061;0.6315471;7;28;0;267;3729;2557;0.2411754;2.641852;0.8807999;0.2470469;3.176926;0.7745804;0.2522036;3.646862;0.6792295;0.3486862;4.374289;0.6812434;0.1351335;4.731719;0.6440026;-0.2216684;4.637418;0.7067617;-0.7062861;5.267272;0.2305703;0.09592721;5.433912;0.7064708;0.6509603;4.663305;0.6440014;0.9189124;4.486141;0.7067599;0.9543377;3.656634;1.195571;0.1794101;3.123044;1.307628;-0.07108597;2.599153;0.8821511;0.04865415;1.336704;0.1522596;0;0;0;-0.07108597;2.599153;0.8821511;0.04865415;1.336704;0.1522596;0;0;0
605045.5143;NotLabelled;NONE;16384;-0.4196676;-0.5;-0.7371727;0.1745152;-3;-6;4;2630;-2638;2543;65536;0.8418797;0.1814404;-0.1232687;-0.4930748;6;8;-1;3899;-1292;-2461;8192;0.6836608;-0.6620498;-0.06925207;0.299169;0;1;0;1774;3619;-225;32768;0.200831;-0.8262571;0.4612188;0.2534626;3;2;-3;3205;2244;1853;256;0.5027701;-0.5630344;-0.4958449;-0.4293629;3;6;-2;455;4150;-355;128;-0.3060942;0.4473684;0.6117088;0.5761772;-1;-1;3;-955;4131;478;4;-0.232687;-0.134349;-0.6903373;-0.6717451;5;7;-12;2589;3458;388;16;0.5859807;-0.5734072;0.4473684;0.3573407;7;15;9;375;4088;-300;2;0.6578947;-0.7457983;-0.09418282;0.04570637;-1;4;12;1315;4020;-723;8;0.3240997;-0.6066482;0.365651;0.6270859;13;36;0;463;3447;2133;0.2420518;2.642145;0.8885559;0.2479271;3.177559;0.7840631;0.253087;3.6478;0.6902288;0.3477849;4.375461;0.6922421;0.1333561;4.732367;0.655001;-0.2232134;4.63719;0.7177601;-0.7058159;5.265525;0.2375317;0.09453247;5.436202;0.7151384;0.6493492;4.665218;0.6549998;0.917735;4.488711;0.7177585;0.9546354;3.658232;1.204808;0.1812213;3.122598;1.317566;-0.07020955;2.599442;0.8897585;0.05083819;1.335367;0.162901;0;0;0;-0.07020955;2.599442;0.8897585;0.05083819;1.335367;0.162901;0;0;0
605066.6414;NotLabelled;NONE;16384;-0.4210526;-0.5;-0.7363824;0.1745152;-10;-1;5;2562;-2558;2329;65536;0.8412688;0.1814404;-0.1218837;-0.4944598;2;12;2;3659;-1220;-2445;8192;0.6841236;-0.6620498;-0.07063711;0.2977839;5;1;0;1624;3465;-111;32768;0.199446;-0.827016;0.4612188;0.2520775;-3;2;3;3147;2000;2055;256;0.501385;-0.5632114;-0.4958449;-0.4307479;4;16;-3;357;4250;-209;128;-0.3047091;0.4473684;0.6110938;0.5775623;0;0;3;-785;4199;574;4;-0.2354571;-0.1301939;-0.6901942;-0.6717451;2;21;-11;2161;3698;472;16;0.5866154;-0.5761772;0.4473684;0.3518005;6;2;6;1217;4088;-170;2;0.6565097;-0.7466633;-0.09695291;0.04570637;0;13;11;1107;3772;-737;8;0.3282548;-0.6080332;0.3642659;0.6243834;13;29;-1;653;3363;1817;0.2488038;2.643357;0.8870337;0.2546798;3.178843;0.7829072;0.2598406;3.649148;0.6893945;0.3527498;4.37704;0.6914072;0.1374445;4.733417;0.6541659;-0.2188901;4.637364;0.7169248;-0.6992667;5.264181;0.2324996;0.09706639;5.438469;0.7154846;0.6536011;4.667537;0.6541648;0.9224198;4.491692;0.7169238;0.9609988;3.66023;1.202165;0.1879914;3.124225;1.31594;-0.06345764;2.600654;0.8882046;0.05544172;1.335103;0.1635642;0;0;0;-0.06345764;2.600654;0.8882046;0.05544172;1.335103;0.1635642;0;0;0
605087.7848;NotLabelled;NONE;16384;-0.4196676;-0.5;-0.7368434;0.1759003;-16;1;6;2430;-2570;2141;65536;0.840153;0.1828255;-0.1218837;-0.4958449;0;13;3;3195;-1132;-2287;8192;0.6829224;-0.6634349;-0.06925207;0.2977839;5;-6;-5;1582;3519;-199;32768;0.1980609;-0.8273488;0.4612188;0.2520775;-6;-1;5;3057;2074;2009;256;0.4986149;-0.5623235;-0.4972299;-0.433518;10;39;-3;721;3718;-343;128;-0.3047091;0.4459834;0.6121053;0.5775623;-1;4;3;-755;4103;602;4;-0.2354571;-0.1260388;-0.6923088;-0.6703601;0;20;-10;2007;3740;490;16;0.5863865;-0.5761772;0.4487534;0.3504155;6;-6;2;797;4032;-182;2;0.6565097;-0.7462984;-0.09972299;0.04570637;-1;18;7;899;3702;-631;8;0.3310249;-0.6080332;0.3642659;0.6229193;12;21;0;473;3425;1663;0.2551362;2.643535;0.8919817;0.2610158;3.179358;0.7896062;0.2661799;3.649966;0.6976313;0.3590706;4.377852;0.7017015;0.1437698;4.734326;0.6653752;-0.2125847;4.638091;0.7277406;-0.6919674;5.265935;0.2436621;0.1064315;5.440989;0.7229455;0.6599279;4.668459;0.665374;0.9287288;4.492445;0.7277387;0.9682376;3.660998;1.212929;0.1932359;3.128085;1.327661;-0.05712527;2.600828;0.8930019;0.06340429;1.333785;0.1712447;0;0;0;-0.05712527;2.600828;0.8930019;0.06340429;1.333785;0.1712447;0;0;0
605108.5132;NotLabelled;NONE;16384;-0.4196676;-0.5;-0.7361766;0.1786704;-22;1;8;2316;-2574;1983;65536;0.8392312;0.1842105;-0.1204986;-0.4972299;-1;19;2;3333;-1022;-2009;8192;0.6818499;-0.66482;-0.06648199;0.2977839;6;-11;-8;1748;3595;-215;32768;0.1966759;-0.8269058;0.4626039;0.2520775;-9;-8;5;2899;2248;1853;256;0.4916897;-0.5560455;-0.501385;-0.4445983;17;45;-4;375;3802;-47;128;-0.3033241;0.4445983;0.6124923;0.5789474;3;3;4;-809;3865;136;4;-0.2368421;-0.1232687;-0.6923352;-0.6703601;-1;21;-11;1835;3492;504;16;0.5866841;-0.5747922;0.4501385;0.3504155;7;-6;1;505;3978;-222;2;0.6565097;-0.7460066;-0.1024931;0.04432133;-1;21;4;811;3788;-575;8;0.33518;-0.6094183;0.3642659;0.6193336;10;23;0;227;3305;1741;0.2711016;2.64703;0.8902876;0.2769784;3.182591;0.7865514;0.28214;3.652964;0.6933815;0.3752497;4.380808;0.6995151;0.1600699;4.737447;0.6641064;-0.1963361;4.641147;0.7260762;-0.6807073;5.269749;0.247983;0.1201954;5.446302;0.722515;0.676208;4.671423;0.6641054;0.9449332;4.495154;0.7260746;0.9848548;3.662633;1.209387;0.2095419;3.131766;1.331277;-0.04115992;2.604325;0.8914249;0.06749739;1.333068;0.1752145;0;0;0;-0.04115992;2.604325;0.8914249;0.06749739;1.333068;0.1752145;0;0;0
605129.4759;NotLabelled;NONE;16384;-0.4182825;-0.501385;-0.7353449;0.1814404;-26;2;7;2270;-2618;1843;65536;0.8386069;0.1842105;-0.1191136;-0.4986149;-3;18;4;3497;-800;-1891;8192;0.6806306;-0.666205;-0.06509695;0.2977839;6;-11;-11;2048;3451;-197;32768;0.1952908;-0.8264579;0.4639889;0.2520775;-7;-12;4;2669;2288;1621;256;0.4875346;-0.5538574;-0.5041551;-0.4487534;17;46;-5;415;3950;-39;128;-0.3033241;0.4432133;0.6121852;0.5803324;2;5;3;-613;3893;92;4;-0.2368421;-0.1191136;-0.6943991;-0.6689751;0;16;-13;1761;3400;480;16;0.5875092;-0.5747922;0.4501385;0.3490305;8;-1;2;197;3898;-136;2;0.6565097;-0.7457018;-0.1052632;0.04293629;-1;22;2;643;3746;-549;8;0.3379501;-0.6094183;0.3628809;0.6186409;8;21;0;49;3309;1911;0.2932684;2.648072;0.8920722;0.299146;3.18371;0.7887349;0.3043082;3.654153;0.6959155;0.3926319;4.382547;0.7060556;0.175141;4.737954;0.6724089;-0.1806704;4.638983;0.7335815;-0.6897724;5.270804;0.2864287;0.1239222;5.450227;0.7375442;0.6917015;4.675319;0.6724502;0.9615326;4.500485;0.7336736;1.026199;3.666292;1.211392;0.2535488;3.1371;1.355453;-0.01899306;2.605367;0.8931752;0.0710766;1.332649;0.1769802;0;0;0;-0.01899306;2.605367;0.8931752;0.0710766;1.332649;0.1769802;0;0;0
605150.2387;NotLabelled;NONE;16384;-0.4168975;-0.5027701;-0.7330849;0.1897507;-23;3;4;2012;-2832;1541;65536;0.8356783;0.1842105;-0.1163435;-0.5041551;-4;18;3;3267;-432;-1367;8192;0.6814939;-0.666205;-0.06232687;0.2963989;5;-8;-13;2180;3345;-187;32768;0.1939058;-0.8260052;0.4653739;0.2520775;-5;-14;3;2533;2316;1665;256;0.4833795;-0.5517162;-0.5055401;-0.4542936;13;39;-4;329;3932;15;128;-0.3033241;0.4404432;0.6141812;0.5803324;1;7;0;-591;3941;62;4;-0.2368421;-0.1163435;-0.6948686;-0.6689751;3;13;-16;1779;3332;450;16;0.5864453;-0.5747922;0.4515235;0.3490305;9;-2;2;455;3820;-132;2;0.6578947;-0.744109;-0.1094183;0.03878116;-2;14;4;539;3848;-463;8;0.3434903;-0.6108033;0.3601108;0.615836;5;12;-2;59;3475;1959;0.3108542;2.651785;0.8887228;0.3167327;3.187499;0.7857766;0.3218957;3.658008;0.6933007;0.4105965;4.386329;0.7053322;0.1932985;4.741933;0.6725487;-0.1625786;4.642991;0.7333851;-0.6657655;5.278449;0.2846921;0.1546178;5.458645;0.7232093;0.7098263;4.679029;0.6725475;0.9795521;4.503899;0.7333836;1.034017;3.66831;1.209934;0.262271;3.140792;1.364595;-0.001407258;2.609079;0.889792;0.07312982;1.332247;0.1791561;0;0;0;-0.001407258;2.609079;0.889792;0.07312982;1.332247;0.1791561;0;0;0
605170.5865;NotLabelled;NONE;16384;-0.4155124;-0.5041551;-0.7321972;0.1925208;-16;-3;2;1898;-2878;1425;65536;0.8348412;0.1842105;-0.1163435;-0.5055401;-1;19;0;3211;-260;-1347;8192;0.6809871;-0.66759;-0.05955679;0.2950138;0;-2;-18;2050;3383;-107;32768;0.1911357;-0.8230819;0.4709141;0.2534626;-1;-28;0;2293;2406;1847;256;0.4806094;-0.5494236;-0.5069252;-0.4584487;12;26;-5;393;3894;-47;128;-0.301939;0.4404432;0.6135531;0.5817174;-1;6;-1;-655;3945;40;4;-0.2354571;-0.1094183;-0.6964625;-0.6689751;1;13;-16;1699;3648;376;16;0.5870143;-0.5720221;0.4542936;0.3490305;8;-5;0;699;4124;-580;2;0.6578947;-0.743904;-0.1108033;0.03878116;-2;8;4;523;3902;-567;8;0.3448753;-0.6108033;0.3601108;0.6150614;3;9;-2;165;3487;1857;0.3260632;2.654274;0.8845043;0.331936;3.189464;0.7788711;0.3370939;3.659504;0.6840353;0.4241296;4.38795;0.6999588;0.2060436;4.743228;0.6689091;-0.1496456;4.643159;0.7289953;-0.6556903;5.288933;0.2986206;0.1717791;5.469505;0.7234563;0.7227132;4.681499;0.6689082;0.9927984;4.506663;0.7289942;1.05423;3.668199;1.19961;0.283498;3.142354;1.364675;0.01380176;2.611574;0.885805;0.07872991;1.331903;0.1793453;0;0;0;0.01380176;2.611574;0.885805;0.07872991;1.331903;0.1793453;0;0;0
605191.5823;NotLabelled;NONE;16384;-0.4155124;-0.5055401;-0.7308756;0.1939058;-10;-5;0;2028;-2878;1353;65536;0.8331575;0.1842105;-0.1163435;-0.5083103;0;12;1;3557;-316;-1129;8192;0.6798636;-0.6689751;-0.0567867;0.2950138;-3;-4;-19;2086;3505;-163;32768;0.1911357;-0.8202615;0.4750692;0.2548476;0;-35;-3;2215;2492;1815;256;0.4792244;-0.5481949;-0.5083103;-0.4598338;9;13;-3;337;3792;47;128;-0.300554;0.4390582;0.6152236;0.5817174;0;2;-2;-603;3857;132;4;-0.234072;-0.1066482;-0.6973585;-0.6689751;-1;12;-13;1749;3732;372;16;0.5891802;-0.5706371;0.4542936;0.3476454;8;-2;0;553;4238;-584;2;0.6578947;-0.7437673;-0.1121884;0.03739612;-1;8;3;581;3888;-453;8;0.3448753;-0.6108033;0.3601108;0.6150614;2;2;-2;267;3471;1825;0.3359903;2.661746;0.8768849;0.3418669;3.197281;0.7730119;0.347028;3.66763;0.6797218;0.432391;4.396232;0.6975151;0.2135016;4.751086;0.6672987;-0.1419754;4.650051;0.7270241;-0.6534413;5.299052;0.3080617;0.1784272;5.479026;0.7244765;0.7303109;4.69054;0.6672975;1.000778;4.516171;0.7270223;1.064983;3.6748;1.192047;0.2952556;3.150467;1.366353;0.02372892;2.619042;0.8780341;0.07830911;1.331008;0.1860459;0;0;0;0.02372892;2.619042;0.8780341;0.07830911;1.331008;0.1860459;0;0;0
605212.5227;NotLabelled;NONE;16384;-0.4155124;-0.5083103;-0.7289518;0.1939058;-3;-7;-2;2090;-2966;1301;65536;0.8323109;0.1842105;-0.1163435;-0.5096953;2;6;0;3803;-296;-1341;8192;0.6806884;-0.6689751;-0.05401662;0.2936288;-5;-5;-19;2146;3451;-109;32768;0.1911357;-0.8169726;0.4792244;0.2576177;1;-36;-8;2275;2456;1839;256;0.4764543;-0.5471072;-0.5083103;-0.4639889;5;9;-3;459;3820;35;128;-0.299169;0.4376731;0.6168833;0.5817174;-3;-6;-1;-657;3963;74;4;-0.234072;-0.1038781;-0.6977765;-0.6689751;0;4;-7;1739;3760;338;16;0.5894503;-0.5692521;0.4556787;0.3476454;8;-3;0;559;4080;-500;2;0.6578947;-0.7437673;-0.1121884;0.03739612;0;2;2;725;3864;-465;8;0.3462604;-0.6108033;0.3601108;0.6142827;0;0;-1;67;3389;1857;0.3387034;2.665283;0.8749295;0.3445771;3.200559;0.7697347;0.3497359;3.670677;0.6752838;0.4352618;4.399262;0.6929415;0.2164408;4.75416;0.6627321;-0.1390414;4.653211;0.7225724;-0.6542202;5.305703;0.3137038;0.1799574;5.484479;0.7259949;0.733237;4.693501;0.6625955;1.003683;4.519083;0.7222713;1.070196;3.67464;1.181366;0.3028434;3.148085;1.359404;0.02644196;2.622582;0.8761925;0.07474049;1.330452;0.1914089;0;0;0;0.02644196;2.622582;0.8761925;0.07474049;1.330452;0.1914089;0;0;0
605233.7523;NotLabelled;NONE;16384;-0.4155124;-0.5083103;-0.7289518;0.1939058;1;-6;-3;2240;-3102;1311;65536;0.8312661;0.1842105;-0.1177285;-0.5110803;5;-1;-1;3721;-420;-1489;8192;0.6814982;-0.6689751;-0.05124654;0.2922437;-8;-3;-18;2054;3401;-83;32768;0.1911357;-0.8140817;0.4833795;0.2590028;2;-36;-8;2387;2560;1903;256;0.4764543;-0.5471072;-0.5083103;-0.4639889;3;4;-3;459;3958;47;128;-0.299169;0.4376731;0.6155742;0.5831025;-4;-5;-1;-681;3921;-62;4;-0.232687;-0.1038781;-0.6982396;-0.6689751;1;-7;-5;1735;3600;124;16;0.588377;-0.5692521;0.4570637;0.3476454;8;-9;-1;595;4002;-404;2;0.6578947;-0.7437673;-0.1121884;0.03739612;1;0;1;745;3790;-411;8;0.3462604;-0.6108033;0.3601108;0.6142827;-1;2;0;-15;3443;1871;0.3444838;2.667509;0.8732365;0.3503547;3.202525;0.7667238;0.3555108;3.672409;0.6711155;0.4391733;4.401104;0.6927009;0.2194793;4.755601;0.6641753;-0.1357976;4.653439;0.7231669;-0.6517727;5.306355;0.3159855;0.1854558;5.484532;0.7223085;0.7364275;4.696253;0.6641741;1.007263;4.522207;0.7231659;1.075405;3.676107;1.178959;0.3120323;3.146221;1.36408;0.03222246;2.624811;0.8746129;0.07511429;1.329966;0.1946168;0;0;0;0.03222246;2.624811;0.8746129;0.07511429;1.329966;0.1946168;0;0;0
605253.6246;NotLabelled;NONE;16384;-0.4168975;-0.5096953;-0.7275596;0.1925208;8;-9;-1;2384;-2928;1471;65536;0.8311011;0.1869806;-0.1204986;-0.5096953;10;-3;-3;3717;-770;-1501;8192;0.6835485;-0.66759;-0.04986149;0.2908587;-13;-2;-14;1974;3437;-87;32768;0.1911357;-0.8115422;0.4861496;0.2617728;1;-34;-6;2589;2596;1969;256;0.4764543;-0.5471072;-0.5083103;-0.4639889;0;-2;-2;575;4004;-41;128;-0.299169;0.4376731;0.6155742;0.5831025;-4;-4;-1;-725;3989;12;4;-0.2313019;-0.1038781;-0.6973708;-0.6703601;2;-11;-5;1707;3500;200;16;0.5891525;-0.566482;0.4584487;0.3490305;7;-10;-2;377;3990;-398;2;0.6578947;-0.7437673;-0.1121884;0.03739612;0;-3;0;779;3890;-313;8;0.3462604;-0.6108033;0.3601108;0.6142827;-1;-1;0;7;3333;1955;0.3498588;2.668492;0.8720363;0.3557334;3.203853;0.7672731;0.3608929;3.674047;0.6732013;0.4445554;4.402742;0.694787;0.2248614;4.75724;0.6662613;-0.1304155;4.655077;0.7252532;-0.6466326;5.307994;0.3183794;0.1898533;5.484159;0.7271016;0.7418095;4.697892;0.6662605;1.012645;4.523845;0.7252521;1.081904;3.674985;1.175713;0.3199274;3.142848;1.360127;0.03759734;2.625789;0.8732619;0.07846672;1.329617;0.1956742;0;0;0;0.03759734;2.625789;0.8732619;0.07846672;1.329617;0.1956742;0;0;0
605274.5122;NotLabelled;NONE;16384;-0.4168975;-0.5110803;-0.7269529;0.1911357;11;-6;0;2420;-2852;1511;65536;0.8305862;0.1883656;-0.1218837;-0.5096953;9;-6;-2;3857;-840;-1461;8192;0.6872081;-0.66482;-0.04432133;0.2894737;-18;-4;-13;1942;3641;-155;32768;0.1897507;-0.8067769;0.4930748;0.2645429;-1;-30;-5;2773;2350;1937;256;0.4778393;-0.5471844;-0.5069252;-0.4639889;0;-7;0;509;4010;-103;128;-0.299169;0.4376731;0.6155742;0.5831025;-4;-6;-2;-777;4005;6;4;-0.2271468;-0.1052632;-0.698528;-0.6703601;0;-8;-4;1727;3510;282;16;0.5894032;-0.5650969;0.4598338;0.3490305;6;-2;-1;417;4002;-676;2;0.6578947;-0.7437673;-0.1121884;0.03739612;1;-5;0;833;3852;-375;8;0.3448753;-0.6108033;0.3587258;0.6158702;-1;-5;0;-13;3489;2247;0.3412324;2.669839;0.8722139;0.3471071;3.205201;0.7674507;0.3522667;3.675394;0.6733789;0.4359291;4.40409;0.6949648;0.2162351;4.758588;0.6664391;-0.1390418;4.656424;0.7254308;-0.6538895;5.30935;0.3168381;0.1790568;5.487453;0.7319002;0.7331833;4.699239;0.6664383;1.004019;4.525193;0.7254298;1.077178;3.674578;1.171947;0.3178248;3.139449;1.358513;0.02897109;2.627137;0.8734396;0.07322471;1.329417;0.1990326;0;0;0;0.02897109;2.627137;0.8734396;0.07322471;1.329417;0.1990326;0;0;0
605295.5663;NotLabelled;NONE;16384;-0.4182825;-0.5110803;-0.7265199;0.1897507;11;-1;0;2404;-2856;1563;65536;0.8312303;0.1883656;-0.1232687;-0.5083103;9;-12;-2;3749;-746;-1523;8192;0.6892138;-0.6634349;-0.04293629;0.2880886;-17;-4;-13;1816;3663;-275;32768;0.1883656;-0.8036321;0.4972299;0.267313;-3;-30;-6;2773;2146;2063;256;0.4778393;-0.5471844;-0.5069252;-0.4639889;0;-13;0;477;4024;-51;128;-0.299169;0.4390582;0.6145872;0.5831025;0;-8;-1;-827;3987;152;4;-0.2257618;-0.1052632;-0.6976459;-0.6717451;0;-8;-2;1805;3642;66;16;0.590728;-0.5637119;0.4598338;0.3490305;4;-1;-1;369;4132;-594;2;0.6578947;-0.7439749;-0.1108033;0.03739612;2;-9;1;949;3968;-423;8;0.3448753;-0.6094183;0.3587258;0.6172408;-1;-6;-1;33;3487;2075;0.3436089;2.671937;0.8713766;0.3494835;3.207299;0.7666135;0.3546431;3.677493;0.6725416;0.4363081;4.406412;0.6942453;0.2156441;4.76031;0.6657723;-0.1393526;4.657164;0.7247412;-0.6540083;5.309079;0.3142958;0.1759567;5.487842;0.7350078;0.7327531;4.702379;0.6657714;1.004063;4.529066;0.7247401;1.084655;3.674146;1.161653;0.3265041;3.136835;1.346832;0.03134747;2.629235;0.8726023;0.07165664;1.328904;0.202997;0;0;0;0.03134747;2.629235;0.8726023;0.07165664;1.328904;0.202997;0;0;0
605316.5652;NotLabelled;NONE;16384;-0.4182825;-0.5096953;-0.7278522;0.1883656;14;0;0;2392;-2894;1555;65536;0.8315546;0.1897507;-0.1246537;-0.5069252;9;-10;-1;3681;-820;-1565;8192;0.690711;-0.6620498;-0.0401662;0.2880886;-14;-6;-12;1786;3571;-379;32768;0.1869806;-0.8017728;0.5;0.2686981;-6;-27;-7;2869;2006;2161;256;0.4792244;-0.5484258;-0.5055401;-0.4626039;-2;-15;0;367;4038;-125;128;-0.299169;0.4390582;0.6145872;0.5831025;-2;-7;-1;-849;4033;218;4;-0.2243767;-0.1066482;-0.6978823;-0.6717451;0;-8;1;1871;3626;-32;16;0.5920466;-0.5623268;0.4598338;0.3490305;3;-5;-1;445;4114;-578;2;0.6578947;-0.743904;-0.1108033;0.03878116;1;-9;0;1161;4018;-315;8;0.3434903;-0.6094183;0.3601108;0.6172066;-1;-14;0;35;3481;1969;0.3358102;2.673278;0.8710086;0.3416876;3.208898;0.767579;0.3468498;3.679325;0.6746783;0.4285148;4.408244;0.6963817;0.2078508;4.762142;0.6679084;-0.1471459;4.658996;0.7268775;-0.6605809;5.310204;0.313789;0.1686397;5.488183;0.7362984;0.7249597;4.704211;0.6679075;0.9962702;4.530898;0.7268764;1.080977;3.674338;1.15978;0.3244866;3.135575;1.34751;0.02354873;2.630573;0.8721195;0.06728949;1.328717;0.2056988;0;0;0;0.02354873;2.630573;0.8721195;0.06728949;1.328717;0.2056988;0;0;0
605337.5238;NotLabelled;NONE;16384;-0.4196676;-0.5083103;-0.7283804;0.1869806;14;0;1;2412;-2880;1677;65536;0.8318717;0.1911357;-0.1260388;-0.5055401;8;-10;-1;3765;-864;-1687;8192;0.6909401;-0.6620498;-0.03601108;0.2880886;-10;-12;-10;1744;3543;-429;32768;0.1842105;-0.8006151;0.501385;0.2714681;-8;-23;-7;2969;2056;2083;256;0.4819945;-0.5508689;-0.5027701;-0.4598338;-3;-12;0;529;4028;-147;128;-0.299169;0.4404432;0.6135953;0.5831025;0;-7;-1;-865;4171;220;4;-0.2243767;-0.1080332;-0.6963331;-0.6731302;0;-7;3;1849;3626;142;16;0.5922831;-0.5609418;0.4612188;0.3490305;2;-9;-1;325;4140;-560;2;0.6578947;-0.7440355;-0.1094183;0.0401662;0;-7;-1;1081;4000;-369;8;0.3421052;-0.6080332;0.3614958;0.6185308;-1;-15;0;-69;3471;2063;0.3285366;2.673053;0.8739578;0.334414;3.208673;0.770528;0.3395761;3.6791;0.6776274;0.4210807;4.408033;0.6994439;0.2003393;4.761888;0.6710213;-0.1546357;4.658654;0.7299684;-0.6665177;5.307387;0.3110988;0.1585746;5.486656;0.7410784;0.717461;4.70407;0.6710202;0.9888084;4.530807;0.7299671;1.075309;3.672622;1.159282;0.3181434;3.13391;1.344422;0.01627509;2.630347;0.8750687;0.06180424;1.32851;0.2087319;0;0;0;0.01627509;2.630347;0.8750687;0.06180424;1.32851;0.2087319;0;0;0
605358.5054;NotLabelled;NONE;16384;-0.4224377;-0.5069252;-0.7284502;0.1842105;15;1;4;2484;-2910;1717;65536;0.8328063;0.1925208;-0.1288089;-0.5027701;7;-13;-1;3777;-894;-1685;8192;0.6904998;-0.6620498;-0.033241;0.2894737;-7;-13;-9;1846;3585;-329;32768;0.1828255;-0.7995926;0.5027701;0.2728532;-9;-18;-5;3087;2132;1889;256;0.4819945;-0.5520221;-0.5027701;-0.4584487;-5;-12;1;547;4076;-179;128;-0.299169;0.4404432;0.6149086;0.5817174;1;-6;0;-879;4107;184;4;-0.2243767;-0.1094183;-0.6961167;-0.6731302;-1;-7;3;1883;3572;146;16;0.5914646;-0.5609418;0.4612188;0.3504155;4;-2;0;179;4100;-570;2;0.6578947;-0.7442378;-0.1080332;0.0401662;0;-7;-4;1035;3942;-379;8;0.3407202;-0.6080332;0.3628809;0.6184843;-1;-9;0;-59;3533;2163;0.3124825;2.671374;0.8796804;0.3183628;3.207251;0.7775897;0.3235274;3.677909;0.6858651;0.4046835;4.406875;0.7078726;0.1837742;4.760632;0.6795352;-0.1711534;4.657214;0.7384453;-0.6771181;5.30449;0.3102371;0.1414139;5.485057;0.7520486;0.7009233;4.70306;0.6795343;0.9723517;4.529912;0.7384441;1.055342;3.669123;1.163214;0.2966951;3.131686;1.345982;0.0002210289;2.628666;0.880676;0.0585239;1.327961;0.2131243;0;0;0;0.0002210289;2.628666;0.880676;0.0585239;1.327961;0.2131243;0;0;0
605379.5004;NotLabelled;NONE;16384;-0.4238227;-0.5055401;-0.728957;0.1828255;15;3;4;2436;-2950;1759;65536;0.8341516;0.1939058;-0.1288089;-0.5;5;-15;-2;3697;-914;-1777;8192;0.6906874;-0.6620498;-0.02908587;0.2894737;-5;-5;-8;2072;3721;-413;32768;0.1786704;-0.7973534;0.5055401;0.2770083;-6;-14;-5;2887;2174;1969;256;0.4847645;-0.5520047;-0.501385;-0.4570637;-6;-19;1;509;4066;-237;128;-0.299169;0.4404432;0.6149086;0.5817174;0;-5;0;-873;4073;342;4;-0.2243767;-0.1094183;-0.6961167;-0.6731302;0;-6;2;1937;3508;112;16;0.5927752;-0.5595568;0.4612188;0.3504155;4;3;1;297;3984;-474;2;0.6578947;-0.7443616;-0.1066482;0.04155125;1;-10;-3;951;4120;-407;8;0.3393352;-0.6066482;0.3628809;0.6206022;0;-7;0;31;3591;2111;0.3102426;2.670518;0.8790082;0.3161193;3.206059;0.7751662;0.3212806;3.676414;0.6819037;0.4042663;4.405174;0.7039178;0.1842459;4.759484;0.6755834;-0.1709401;4.656957;0.7344921;-0.6726147;5.302041;0.2980078;0.1420676;5.483155;0.7466589;0.7012488;4.700615;0.6755824;0.9722415;4.526786;0.7344909;1.054411;3.665112;1.157624;0.2955783;3.128099;1.340866;-0.002018824;2.627814;0.8801546;0.05820403;1.328444;0.2101762;0;0;0;-0.002018824;2.627814;0.8801546;0.05820403;1.328444;0.2101762;0;0;0
605400.5592;NotLabelled;NONE;16384;-0.4252077;-0.5041551;-0.7291096;0.1828255;12;4;4;2430;-3024;1745;65536;0.8347654;0.1939058;-0.1301939;-0.4986149;3;-12;-2;3685;-836;-1885;8192;0.6906874;-0.6620498;-0.02908587;0.2894737;-3;0;-6;2048;3717;-433;32768;0.1772853;-0.7963002;0.5069252;0.2783934;-7;-9;-6;2883;2236;2023;256;0.4861496;-0.5543247;-0.5;-0.4542936;-5;-25;2;505;4064;-201;128;-0.299169;0.4418283;0.6139141;0.5817174;-1;-6;0;-893;4071;402;4;-0.2243767;-0.1108033;-0.6958976;-0.6731302;-1;-2;0;1925;3596;278;16;0.592513;-0.5595568;0.4626039;0.3490305;3;0;2;411;4024;-538;2;0.6578947;-0.7445587;-0.1052632;0.04155125;1;-4;-2;957;4044;-379;8;0.3379501;-0.6066482;0.3642659;0.6205465;0;-5;0;-23;3631;2207;0.3011405;2.670287;0.8815761;0.3070171;3.205828;0.7777342;0.3121784;3.676182;0.6844716;0.3931579;4.405224;0.7045781;0.1721518;4.758851;0.6753929;-0.1827329;4.655496;0.7346712;-0.6806662;5.299093;0.2917558;0.1305457;5.483563;0.7453003;0.6893153;4.701409;0.6753919;0.960804;4.528481;0.7346696;1.041805;3.664244;1.152771;0.2828331;3.128872;1.340189;-0.01112091;2.627583;0.8827224;0.05268066;1.328213;0.2130753;0;0;0;-0.01112091;2.627583;0.8827224;0.05268066;1.328213;0.2130753;0;0;0
605421.4984;NotLabelled;NONE;16384;-0.4265928;-0.5027701;-0.7296028;0.1814404;11;2;4;2418;-2964;1743;65536;0.8356944;0.1925208;-0.1315789;-0.4972299;3;-10;-3;3547;-764;-2011;8192;0.6907443;-0.6620498;-0.02770083;0.2894737;0;-1;-6;1972;3667;-371;32768;0.1772853;-0.7953263;0.5069252;0.2811634;-5;-4;-6;2957;2290;1883;256;0.4875346;-0.5566145;-0.4986149;-0.4515235;-6;-24;2;585;4078;-211;128;-0.299169;0.4418283;0.6139141;0.5817174;-1;-5;0;-849;4129;412;4;-0.2229917;-0.1121884;-0.6961209;-0.6731302;0;-2;0;1925;3620;134;16;0.592513;-0.5595568;0.4626039;0.3490305;3;4;2;519;4020;-554;2;0.6578947;-0.7445587;-0.1052632;0.04155125;1;-3;-2;891;4074;-453;8;0.3379501;-0.6052631;0.3642659;0.6218976;1;-6;0;35;3613;2191;0.2970047;2.668135;0.8884084;0.3028842;3.203935;0.7859102;0.3080481;3.674522;0.6938277;0.3906544;4.403379;0.7140018;0.1704385;4.757501;0.6848465;-0.1846766;4.654933;0.7441114;-0.6768149;5.298788;0.2951336;0.1299411;5.482512;0.756855;0.6874726;4.698905;0.6848457;0.9585739;4.525366;0.7441106;1.036368;3.661129;1.16282;0.2762459;3.126146;1.346655;-0.01525673;2.625428;0.889439;0.05407416;1.3274;0.2177437;0;0;0;-0.01525673;2.625428;0.889439;0.05407416;1.3274;0.2177437;0;0;0
605441.7292;NotLabelled;NONE;16384;-0.4279778;-0.501385;-0.7297447;0.1814404;10;2;4;2262;-2896;1847;65536;0.8362979;0.1925208;-0.132964;-0.4958449;1;-8;-3;3617;-748;-1895;8192;0.6907985;-0.6620498;-0.02631579;0.2894737;0;-3;-5;2066;3667;-317;32768;0.1759003;-0.7956338;0.5069252;0.2811634;-1;0;-5;3191;2478;1709;256;0.4903047;-0.5600006;-0.4958449;-0.4473684;-5;-15;1;551;4070;-277;128;-0.2977839;0.4418283;0.6132732;0.5831025;-4;-3;1;-811;4121;486;4;-0.2229917;-0.1121884;-0.6961209;-0.6731302;-1;-1;0;1917;3628;264;16;0.5933267;-0.5595568;0.4626039;0.3476454;3;1;1;641;3976;-352;2;0.6565097;-0.7459744;-0.1038781;0.04155125;1;-1;-1;883;4036;-455;8;0.3379501;-0.6052631;0.365651;0.6210843;1;-6;0;29;3509;1973;0.2917861;2.668121;0.8884854;0.2976655;3.203921;0.7859871;0.3028294;3.674508;0.6939046;0.3870423;4.403179;0.7141343;0.1676079;4.757788;0.6850041;-0.187733;4.655999;0.7442586;-0.6709452;5.298344;0.2835764;0.1324102;5.479252;0.752287;0.6845116;4.698052;0.6850031;0.9552292;4.523911;0.7442569;1.026642;3.658828;1.162354;0.2676677;3.121511;1.344111;-0.02047537;2.625414;0.8895162;0.05235429;1.3274;0.2181632;0;0;0;-0.02047537;2.625414;0.8895162;0.05235429;1.3274;0.2181632;0;0;0
605463.6414;NotLabelled;NONE;16384;-0.4307479;-0.4986149;-0.7303557;0.1800554;7;1;5;2186;-2858;1791;65536;0.8377132;0.1925208;-0.134349;-0.4930748;2;-5;-2;3599;-662;-1963;8192;0.6902164;-0.6620498;-0.02631579;0.2908587;2;0;-2;2188;3789;-363;32768;0.1772853;-0.7948353;0.5069252;0.2825485;3;4;-4;3113;2516;1669;256;0.4916897;-0.5611145;-0.4944598;-0.4459834;-4;-14;0;413;4014;-315;128;-0.2977839;0.4432133;0.6109509;0.5844875;-6;-4;1;-793;4159;476;4;-0.2229917;-0.1121884;-0.6961209;-0.6731302;0;-2;0;1963;3574;320;16;0.5922441;-0.5595568;0.4639889;0.3476454;3;-5;0;507;4070;-528;2;0.6565097;-0.7459744;-0.1038781;0.04155125;0;-2;-1;905;4002;-405;8;0.3365651;-0.6052631;0.365651;0.6218359;0;-7;0;99;3533;1981;0.279433;2.667624;0.8913625;0.2853161;3.203759;0.7906336;0.2904832;3.674648;0.7001051;0.3760438;4.403159;0.7204375;0.1572798;4.758179;0.6912628;-0.1982712;4.657045;0.7503781;-0.6700956;5.298088;0.2762749;0.1259634;5.478261;0.7575492;0.6740714;4.697482;0.6914432;0.9444432;4.522832;0.7507781;1.008196;3.658285;1.171216;0.2457505;3.122953;1.344086;-0.03282854;2.624914;0.8922409;0.04906405;1.326901;0.2219326;0;0;0;-0.03282854;2.624914;0.8922409;0.04906405;1.326901;0.2219326;0;0;0
605483.5626;NotLabelled;NONE;16384;-0.4307479;-0.4986149;-0.7303557;0.1800554;5;0;2;2164;-2872;1741;65536;0.8374899;0.1925208;-0.1357341;-0.4930748;2;-3;0;3771;-610;-2029;8192;0.6906874;-0.6620498;-0.02908587;0.2894737;2;11;1;1958;3745;-173;32768;0.1786704;-0.7962857;0.5041551;0.2825485;3;10;-3;2771;2394;1905;256;0.4930748;-0.5609983;-0.4944598;-0.4445983;-3;-11;0;385;4140;-333;128;-0.2977839;0.4432133;0.609623;0.5858725;-4;-3;1;-809;4079;434;4;-0.2229917;-0.1135734;-0.6958963;-0.6731302;0;-2;0;2081;3582;344;16;0.5935497;-0.5581717;0.4639889;0.3476454;3;-5;0;371;4050;-534;2;0.6565097;-0.7459744;-0.1038781;0.04155125;0;0;-2;911;3990;-445;8;0.3365651;-0.6052631;0.367036;0.6210194;-1;-5;1;79;3513;2009;0.2783688;2.667294;0.8927057;0.2842582;3.204004;0.7950851;0.289431;3.675409;0.7072866;0.3747588;4.403948;0.7276053;0.1558679;4.758896;0.6985147;-0.1996292;4.657645;0.7577519;-0.6715958;5.298918;0.2841021;0.1212074;5.47901;0.7707508;0.6726795;4.69837;0.6985138;0.9431293;4.523808;0.7577505;1.010549;3.6587;1.176462;0.2496144;3.120218;1.346173;-0.03389275;2.62458;0.8933168;0.05130401;1.326566;0.2234204;0;0;0;-0.03389275;2.62458;0.8933168;0.05130401;1.326566;0.2234204;0;0;0
605504.95;NotLabelled;NONE;16384;-0.432133;-0.4972299;-0.7304817;0.1800554;2;0;1;2160;-2950;1761;65536;0.8383037;0.1925208;-0.1357341;-0.4916897;1;-2;1;3673;-592;-1989;8192;0.6906874;-0.6620498;-0.02908587;0.2894737;3;8;1;1786;3707;-99;32768;0.1800554;-0.7968493;0.5027701;0.2825485;3;14;-2;2859;2418;1791;256;0.4944598;-0.5609983;-0.4930748;-0.4445983;-1;-7;-2;429;4122;-275;128;-0.2977839;0.4432133;0.609623;0.5858725;-3;-2;1;-787;4117;582;4;-0.2229917;-0.1135734;-0.6958963;-0.6731302;-1;3;-1;1941;3632;278;16;0.5937662;-0.5567867;0.4653739;0.3476454;2;-6;0;583;4122;-574;2;0.6565097;-0.746166;-0.1024931;0.04155125;1;-1;-4;713;3966;-507;8;0.33518;-0.6038781;0.368421;0.6222954;0;-8;0;233;3573;2097;0.2710404;2.665703;0.8977418;0.2769333;3.202731;0.8018836;0.2821093;3.674422;0.715633;0.3674484;4.403012;0.7339663;0.148564;4.757883;0.7039009;-0.2069365;4.656799;0.7634037;-0.6759143;5.296509;0.2846981;0.1145449;5.475225;0.7756477;0.6653746;4.697348;0.70408;0.9358199;4.522944;0.7638007;1.000063;3.660093;1.187636;0.239531;3.120517;1.355669;-0.04122118;2.622987;0.8982013;0.04618557;1.32632;0.2259862;0;0;0;-0.04122118;2.622987;0.8982013;0.04618557;1.32632;0.2259862;0;0;0
605526.6483;NotLabelled;NONE;16384;-0.432133;-0.4972299;-0.7304817;0.1800554;0;-1;0;2198;-3064;1703;65536;0.8383037;0.1925208;-0.1357341;-0.4916897;1;0;1;3427;-530;-2039;8192;0.6906276;-0.6620498;-0.03047091;0.2894737;3;4;0;1732;3671;-79;32768;0.1814404;-0.7974075;0.501385;0.2825485;3;14;-1;2899;2454;1659;256;0.4944598;-0.5622126;-0.4916897;-0.4445983;0;0;-3;533;4038;-237;128;-0.2963989;0.4432133;0.6089649;0.5872576;-4;0;2;-827;4039;572;4;-0.2229917;-0.1135734;-0.6958963;-0.6731302;-2;3;-1;1907;3552;280;16;0.5937662;-0.5567867;0.4653739;0.3476454;3;0;0;431;4032;-590;2;0.6565097;-0.7462419;-0.1024931;0.0401662;0;0;-3;805;4000;-483;8;0.333795;-0.6038781;0.368421;0.6230394;0;-7;0;35;3517;2147;0.267759;2.665111;0.9013124;0.273652;3.202138;0.8054544;0.278828;3.673829;0.7192038;0.36213;4.402656;0.7375015;0.1422408;4.756911;0.7075096;-0.2129538;4.654831;0.7671372;-0.6783418;5.296316;0.2873039;0.1109789;5.475685;0.7798447;0.6592192;4.697826;0.7075089;0.9301733;4.524181;0.7671366;0.9934528;3.659945;1.188285;0.2335215;3.118828;1.35407;-0.04450258;2.622395;0.9017719;0.04450828;1.325727;0.2297673;0;0;0;-0.04450258;2.622395;0.9017719;0.04450828;1.325727;0.2297673;0;0;0
605546.5032;NotLabelled;NONE;16384;-0.432133;-0.4986149;-0.7291938;0.1814404;0;-2;0;2156;-2972;1581;65536;0.8383037;0.1925208;-0.1357341;-0.4916897;3;3;0;3517;-542;-1905;8192;0.6892973;-0.6634349;-0.03047091;0.2894737;3;3;0;1778;3655;-89;32768;0.1828255;-0.7984498;0.5;0.2811634;2;14;0;3013;2496;1569;256;0.4944598;-0.5622126;-0.4916897;-0.4445983;-1;4;-3;483;4038;-293;128;-0.2963989;0.4432133;0.6076261;0.5886427;-5;1;1;-847;4063;434;4;-0.2229917;-0.1135734;-0.6958963;-0.6731302;0;-1;-1;1973;3504;260;16;0.5937662;-0.5567867;0.4653739;0.3476454;2;9;1;389;4002;-640;2;0.6565097;-0.7462419;-0.1024931;0.0401662;0;1;-2;1009;4026;-457;8;0.333795;-0.6038781;0.3698061;0.6222183;0;-5;0;63;3491;2021;0.2652703;2.665112;0.9013394;0.2711667;3.202455;0.8072679;0.2763458;3.67443;0.7225868;0.3593778;4.403235;0.742898;0.1393695;4.757491;0.7138043;-0.2158067;4.65512;0.7730429;-0.6811825;5.296605;0.2931983;0.1067757;5.475975;0.7879154;0.6563692;4.698593;0.7138032;0.9273677;4.524885;0.7730414;0.9902509;3.661499;1.19599;0.2308729;3.11884;1.359252;-0.04699121;2.622394;0.9016456;0.0438739;1.325727;0.2298892;0;0;0;-0.04699121;2.622394;0.9016456;0.0438739;1.325727;0.2298892;0;0;0
605567.5072;NotLabelled;NONE;16384;-0.433518;-0.4986149;-0.7287149;0.1800554;0;-5;0;2204;-2896;1587;65536;0.8380783;0.1925208;-0.1371191;-0.4916897;5;3;0;3537;-694;-1763;8192;0.6898773;-0.6634349;-0.03047091;0.2880886;2;4;0;1828;3683;-69;32768;0.1828255;-0.7993154;0.4986149;0.2811634;3;14;1;2903;2410;1579;256;0.4944598;-0.5598978;-0.4930748;-0.4459834;-1;7;-4;447;3956;-251;128;-0.2950138;0.4418283;0.6079654;0.5900277;-3;3;2;-761;4001;450;4;-0.2229917;-0.1135734;-0.6958963;-0.6731302;0;0;-1;1997;3592;204;16;0.5943587;-0.5581717;0.4639889;0.3462604;2;11;1;555;4114;-542;2;0.6565097;-0.7462419;-0.1024931;0.0401662;0;2;-1;983;4004;-517;8;0.33241;-0.602493;0.3698061;0.624299;0;-11;0;293;3433;1903;0.2652704;2.665113;0.9014914;0.2711701;3.202763;0.8091917;0.2763522;3.675014;0.7260669;0.3593843;4.403819;0.7463782;0.1393759;4.758075;0.7172844;-0.2158002;4.655704;0.776523;-0.6807553;5.299742;0.2996996;0.1072029;5.479112;0.794417;0.6563757;4.699177;0.7172834;0.9273742;4.525469;0.7765214;0.986806;3.661953;1.199705;0.2271979;3.118895;1.360548;-0.04699118;2.622395;0.9016457;0.04387396;1.325727;0.2298892;0;0;0;-0.04699118;2.622395;0.9016457;0.04387396;1.325727;0.2298892;0;0;0
605587.6614;NotLabelled;NONE;16384;-0.433518;-0.5;-0.7277652;0.1800554;0;-7;0;2206;-2866;1515;65536;0.8369445;0.1939058;-0.1371191;-0.4930748;8;2;0;3621;-724;-1709;8192;0.6903915;-0.6634349;-0.03185596;0.2867036;1;7;-1;1670;3563;-59;32768;0.1855956;-0.8008846;0.4958449;0.2797784;1;14;1;2757;2330;1719;256;0.4944598;-0.5587918;-0.4930748;-0.4473684;-1;6;-4;419;3912;-167;128;-0.2936288;0.4418283;0.6072899;0.5914127;-3;2;2;-731;3971;420;4;-0.2229917;-0.1135734;-0.6958963;-0.6731302;0;3;0;1971;3636;336;16;0.5951635;-0.5581717;0.4639889;0.3448753;1;1;0;549;4036;-614;2;0.6565097;-0.7463151;-0.1024931;0.03878116;0;5;-2;827;3786;-609;8;0.3310249;-0.602493;0.3725762;0.6233872;-1;-19;0;365;3377;1821;0.2707376;2.665191;0.9011587;0.2766382;3.202917;0.8093005;0.2818211;3.675236;0.7265637;0.3633207;4.404267;0.7448627;0.1425595;4.757978;0.7148505;-0.2123868;4.655021;0.7744501;-0.6805366;5.297915;0.2992111;0.1090278;5.475911;0.791859;0.6596823;4.70017;0.7148922;0.9310597;4.527196;0.7745431;0.9949524;3.663196;1.196085;0.2360828;3.120576;1.361818;-0.04152397;2.622473;0.901275;0.0458392;1.325805;0.2290542;0;0;0;-0.04152397;2.622473;0.901275;0.0458392;1.325805;0.2290542;0;0;0
605608.4939;NotLabelled;NONE;16384;-0.433518;-0.501385;-0.7268117;0.1800554;1;-7;0;2278;-2894;1537;65536;0.8363943;0.1952908;-0.1385041;-0.4930748;9;3;0;3567;-730;-1733;8192;0.6909651;-0.6634349;-0.03185596;0.2853186;0;5;-1;1662;3653;-105;32768;0.1855956;-0.8022225;0.4944598;0.2783934;2;14;1;2831;2378;1665;256;0.4944598;-0.5587918;-0.4930748;-0.4473684;-1;6;-4;411;3980;-199;128;-0.2936288;0.4404432;0.6082951;0.5914127;-3;3;1;-757;3971;426;4;-0.2243767;-0.1121884;-0.6970131;-0.6717451;-3;2;2;1921;3540;218;16;0.5951635;-0.5581717;0.4639889;0.3448753;0;-2;-1;467;4014;-698;2;0.6565097;-0.7461943;-0.1038781;0.03739612;0;6;-4;659;3774;-509;8;0.3282548;-0.601108;0.3739612;0.6253566;-2;-19;0;141;3457;1943;0.2727475;2.66467;0.9044859;0.2786515;3.202701;0.8144302;0.2838374;3.675295;0.7332763;0.3635337;4.404526;0.7515638;0.141895;4.757689;0.7215675;-0.2127905;4.653853;0.7811974;-0.6798409;5.297936;0.3064872;0.1098327;5.477357;0.7984433;0.6591594;4.70116;0.7215664;0.9309691;4.528859;0.7811959;0.9935789;3.664535;1.202263;0.2359362;3.119944;1.367148;-0.0395141;2.621952;0.9044474;0.04608693;1.325285;0.2319999;0;0;0;-0.0395141;2.621952;0.9044474;0.04608693;1.325285;0.2319999;0;0;0
605628.5002;NotLabelled;NONE;16384;-0.433518;-0.5027701;-0.7261965;0.1786704;3;-8;2;2308;-2902;1563;65536;0.835839;0.1966759;-0.1398892;-0.4930748;10;1;-1;3499;-694;-1635;8192;0.6909651;-0.6634349;-0.03185596;0.2853186;2;4;0;1800;3633;-161;32768;0.1869806;-0.8027532;0.4930748;0.2783934;2;17;2;2765;2394;1863;256;0.4944598;-0.5576801;-0.4930748;-0.4487534;0;7;-5;407;3964;-229;128;-0.2922437;0.4404432;0.6076136;0.5927978;-2;7;2;-705;4025;496;4;-0.2243767;-0.1135734;-0.6967888;-0.6717451;-1;3;3;1923;3464;190;16;0.5953794;-0.5567867;0.4653739;0.3448753;-1;-5;0;441;4134;-702;2;0.6565097;-0.7464539;-0.1024931;0.03601108;2;1;-5;769;3962;-409;8;0.3240997;-0.599723;0.3767313;0.6271884;-3;-18;0;51;3577;2181;0.2765424;2.664494;0.9051625;0.2824438;3.202297;0.8137547;0.2876274;3.674685;0.7314132;0.3673283;4.403916;0.7496811;0.1456822;4.757079;0.7197394;-0.2089885;4.653244;0.779457;-0.6763979;5.29931;0.3078058;0.1112823;5.47943;0.8026934;0.6629465;4.700552;0.7196107;0.9347711;4.52825;0.7791731;0.99777;3.662048;1.196306;0.238816;3.119019;1.360308;-0.03571925;2.621776;0.9052399;0.04614423;1.325284;0.2319885;0;0;0;-0.03571925;2.621776;0.9052399;0.04614423;1.325284;0.2319885;0;0;0
605649.6353;NotLabelled;NONE;16384;-0.434903;-0.5027701;-0.7253678;0.1786704;4;-9;2;2334;-2966;1663;65536;0.834693;0.1980609;-0.1398892;-0.4944598;10;2;-3;3625;-728;-1615;8192;0.6908998;-0.6634349;-0.033241;0.2853186;2;5;2;1834;3559;-107;32768;0.1869806;-0.804926;0.4903047;0.2770083;1;20;4;2735;2330;2055;256;0.4944598;-0.5565628;-0.4930748;-0.4501385;-1;5;-5;391;3902;-207;128;-0.2908587;0.4390582;0.6079276;0.5941828;-2;7;2;-729;4009;468;4;-0.2257618;-0.1135734;-0.6963413;-0.6717451;0;2;3;1817;3460;150;16;0.5953794;-0.5567867;0.4653739;0.3448753;0;0;0;115;3996;-696;2;0.6565097;-0.7465194;-0.1024931;0.03462604;1;0;-5;777;4098;-431;8;0.3227147;-0.5983379;0.3781163;0.6283908;-3;-12;0;-99;3717;2169;0.2769316;2.662534;0.9116201;0.2828362;3.20064;0.8220192;0.2880229;3.673303;0.7412648;0.3659044;4.402729;0.7595721;0.1434001;4.755342;0.7295021;-0.2110458;4.650627;0.7890191;-0.6812326;5.292959;0.3150328;0.1053012;5.473772;0.811488;0.660803;4.700096;0.7296675;0.9330201;4.52847;0.7893854;0.9977086;3.664732;1.211341;0.2401109;3.120141;1.376427;-0.03533012;2.619816;0.9115428;0.04549193;1.324675;0.235572;0;0;0;-0.03533012;2.619816;0.9115428;0.04549193;1.324675;0.235572;0;0;0
605670.6787;NotLabelled;NONE;16384;-0.434903;-0.5041551;-0.7247461;0.1772853;5;-8;2;2380;-2878;1629;65536;0.8344597;0.1980609;-0.1412742;-0.4944598;9;0;-3;3767;-870;-1637;8192;0.6908998;-0.6634349;-0.033241;0.2853186;1;4;2;1744;3547;-113;32768;0.1869806;-0.8070812;0.4875346;0.2756233;-1;22;5;2767;2320;2051;256;0.4944598;-0.5577868;-0.4916897;-0.4501385;-3;0;-3;339;4062;-221;128;-0.2894737;0.4376731;0.608232;0.5955678;-3;2;1;-793;4095;462;4;-0.2257618;-0.1135734;-0.6963413;-0.6717451;0;1;2;1835;3514;158;16;0.5964594;-0.5567867;0.4639889;0.3448753;-1;12;0;197;4024;-582;2;0.6565097;-0.7467083;-0.101108;0.03462604;0;0;-4;731;4232;-381;8;0.3213296;-0.5983379;0.3781163;0.6291002;-2;-4;0;-165;3611;2323;0.2774581;2.661194;0.9140719;0.2833637;3.199377;0.8249341;0.2885511;3.672109;0.7445867;0.3646254;4.401727;0.7628643;0.1412359;4.753784;0.7328637;-0.2129295;4.64819;0.7924954;-0.6810912;5.29313;0.3200482;0.1056698;5.47534;0.8156325;0.6587744;4.699826;0.7328628;0.9314364;4.528877;0.7924941;0.9960309;3.664573;1.213304;0.2374589;3.121961;1.38042;-0.03480353;2.618476;0.9139546;0.04616777;1.324674;0.2354405;0;0;0;-0.03480353;2.618476;0.9139546;0.04616777;1.324674;0.2354405;0;0;0
605690.6096;NotLabelled;NONE;16384;-0.4376731;-0.5055401;-0.7224476;0.1759003;4;-5;3;2432;-2918;1813;65536;0.8333232;0.200831;-0.1440443;-0.4944598;7;-1;-2;3909;-850;-1765;8192;0.6903262;-0.6634349;-0.033241;0.2867036;2;-1;2;1732;3663;-183;32768;0.1869806;-0.8113388;0.4819945;0.2728532;-2;19;7;2877;2306;1879;256;0.4958449;-0.5565559;-0.4916897;-0.4501385;-4;-1;-2;419;4132;-333;128;-0.2894737;0.4362881;0.6078691;0.5969529;-3;0;1;-745;4227;454;4;-0.2257618;-0.1135734;-0.6963413;-0.6717451;2;0;1;1927;3566;212;16;0.5970396;-0.5581717;0.4626039;0.3434903;0;6;0;559;4072;-424;2;0.6565097;-0.7467712;-0.101108;0.033241;0;0;-2;971;4290;-365;8;0.3227147;-0.5983379;0.3767313;0.6292222;-3;6;0;-139;3611;2217;0.271519;2.661527;0.9127564;0.2774254;3.199788;0.8240901;0.2826136;3.67259;0.7441567;0.3584328;4.402181;0.7644524;0.1349343;4.754243;0.7353307;-0.2192168;4.648367;0.7945446;-0.6855219;5.291942;0.3184147;0.09885861;5.472767;0.8182614;0.6524912;4.70046;0.7353718;0.9251896;4.529442;0.7946363;0.9873636;3.665507;1.216567;0.2268792;3.124866;1.381363;-0.04074255;2.618809;0.9125988;0.04215314;1.325008;0.234317;0;0;0;-0.04074255;2.618809;0.9125988;0.04215314;1.325008;0.234317;0;0;0
605710.5148;NotLabelled;NONE;16384;-0.4376731;-0.5055401;-0.7227834;0.1745152;4;-3;3;2568;-3084;1811;65536;0.8333232;0.200831;-0.1440443;-0.4944598;6;-2;-3;3827;-848;-1775;8192;0.6903262;-0.6634349;-0.033241;0.2867036;3;0;2;1752;3847;-209;32768;0.1869806;-0.8121601;0.4806094;0.2728532;-2;18;6;2751;2376;1813;256;0.4958449;-0.5565559;-0.4916897;-0.4501385;-4;-3;-1;363;4150;-223;128;-0.2880886;0.4362881;0.607165;0.5983379;-1;-1;2;-857;4229;548;4;-0.2257618;-0.1135734;-0.6963413;-0.6717451;0;-2;1;1903;3724;302;16;0.5970396;-0.5581717;0.4626039;0.3434903;0;-2;0;679;4046;-432;2;0.6565097;-0.7467712;-0.101108;0.033241;0;-1;-1;797;4132;-413;8;0.3227147;-0.5983379;0.3767313;0.6292222;-2;-2;0;237;3677;2005;0.2723961;2.661612;0.9121766;0.2783034;3.199949;0.8239685;0.2834923;3.672818;0.7444375;0.357516;4.402647;0.7626986;0.1331379;4.754075;0.7326906;-0.2207292;4.647488;0.7923254;-0.6845752;5.292581;0.3158484;0.09554617;5.474758;0.821832;0.650826;4.701571;0.7326896;0.9239675;4.53139;0.7923243;0.9871905;3.667917;1.215042;0.2238706;3.131191;1.379528;-0.03986548;2.618894;0.9119796;0.04295588;1.325093;0.2336888;0;0;0;-0.03986548;2.618894;0.9119796;0.04295588;1.325093;0.2336888;0;0;0
605731.6459;NotLabelled;NONE;16384;-0.4390582;-0.5055401;-0.7219429;0.1745152;4;-2;4;2428;-3090;1815;65536;0.8335684;0.2022161;-0.1454294;-0.4930748;5;-2;-4;3715;-854;-1731;8192;0.6903262;-0.6634349;-0.033241;0.2867036;4;1;1;1752;3913;-209;32768;0.1869806;-0.814256;0.4778393;0.2714681;-2;19;4;2867;2388;1947;256;0.4972299;-0.556542;-0.4903047;-0.4501385;-2;-4;0;465;4156;-225;128;-0.2880886;0.434903;0.6081579;0.5983379;-3;1;2;-801;4211;554;4;-0.2257618;-0.1149584;-0.6961139;-0.6717451;-1;-3;0;1971;3630;316;16;0.5951635;-0.5581717;0.4639889;0.3448753;0;-8;0;451;4054;-548;2;0.6578947;-0.7457378;-0.09972299;0.033241;1;-4;-1;697;3944;-389;8;0.3199446;-0.5983379;0.3781163;0.6298057;-1;-6;1;143;3479;2095;0.2721164;2.661611;0.9123212;0.2780269;3.200243;0.8259382;0.2832188;3.67338;0.7480106;0.3572369;4.403209;0.7662944;0.132868;4.754637;0.7362175;-0.2210173;4.648049;0.7957439;-0.6853038;5.289772;0.315162;0.09466186;5.471949;0.8213845;0.6505561;4.702132;0.7363753;0.9236794;4.531953;0.7960936;0.986658;3.669915;1.221771;0.2231852;3.133615;1.386933;-0.0401452;2.618894;0.9119678;0.04288416;1.325093;0.2337022;0;0;0;-0.0401452;2.618894;0.9119678;0.04288416;1.325093;0.2337022;0;0;0
605752.6884;NotLabelled;NONE;16384;-0.4404432;-0.5055401;-0.7210988;0.1745152;4;-1;4;2374;-2942;1755;65536;0.8333256;0.2022161;-0.1468144;-0.4930748;3;-2;-5;3669;-900;-1713;8192;0.6903262;-0.6634349;-0.033241;0.2867036;3;0;1;1704;3895;-139;32768;0.1869806;-0.8155273;0.4764543;0.2700831;-4;18;4;2961;2426;1977;256;0.4972299;-0.5576594;-0.4903047;-0.4487534;-2;-7;0;399;4162;-193;128;-0.2867036;0.434903;0.6074477;0.599723;-4;3;3;-777;4137;472;4;-0.2257618;-0.1149584;-0.6961139;-0.6717451;-1;-1;1;2011;3636;282;16;0.5943587;-0.5581717;0.4639889;0.3462604;-1;-4;0;377;4098;-540;2;0.6565097;-0.7468945;-0.09972299;0.03462604;1;-1;-1;801;3888;-515;8;0.3185596;-0.5983379;0.3781163;0.6305074;-1;-1;1;189;3561;2195;0.273306;2.660441;0.9128739;0.2792141;3.198858;0.8251544;0.2844039;3.6718;0.7460526;0.3563721;4.401834;0.7642858;0.131005;4.752628;0.7342654;-0.2225603;4.645047;0.7939057;-0.6833464;5.28942;0.3135013;0.09324428;5.472961;0.8243982;0.648839;4.701583;0.7342646;0.9224589;4.532174;0.7939045;0.9844404;3.6687;1.216806;0.2191598;3.134343;1.37989;-0.03895565;2.617723;0.9126351;0.04600459;1.325285;0.2320163;0;0;0;-0.03895565;2.617723;0.9126351;0.04600459;1.325285;0.2320163;0;0;0
605772.7398;NotLabelled;NONE;16384;-0.4418283;-0.5055401;-0.7202509;0.1745152;3;-1;5;2330;-2838;1705;65536;0.8330804;0.2022161;-0.1481994;-0.4930748;3;-2;-4;3747;-870;-1747;8192;0.6903262;-0.6634349;-0.033241;0.2867036;4;-2;3;1758;3771;-21;32768;0.1869806;-0.8171393;0.4736842;0.2700831;-5;20;6;2927;2416;2001;256;0.4986149;-0.5576388;-0.4889196;-0.4487534;-3;-10;0;365;4122;-243;128;-0.2867036;0.433518;0.6070687;0.601108;-5;1;4;-709;4121;454;4;-0.2257618;-0.1149584;-0.6961139;-0.6717451;-2;1;0;1977;3556;260;16;0.5943587;-0.5581717;0.4639889;0.3462604;-1;0;0;307;4024;-554;2;0.6565097;-0.7469574;-0.09972299;0.033241;1;0;-2;893;4022;-483;8;0.3185596;-0.5983379;0.3781163;0.6305074;-1;-2;1;221;3527;2121;0.2713419;2.660961;0.9098624;0.2772533;3.199672;0.8239723;0.282446;3.67288;0.7464776;0.3562283;4.402734;0.7647156;0.1317339;4.754086;0.7346971;-0.2220978;4.647384;0.7943364;-0.679532;5.292781;0.3121076;0.09474456;5.474936;0.8269978;0.6494393;4.701754;0.7346963;0.9226373;4.531666;0.7943354;0.9837623;3.668191;1.217361;0.2167731;3.135348;1.37734;-0.04091961;2.618244;0.9094669;0.04577464;1.325805;0.2290668;0;0;0;-0.04091961;2.618244;0.9094669;0.04577464;1.325805;0.2290668;0;0;0
605793.5051;NotLabelled;NONE;16384;-0.4432133;-0.5041551;-0.7203708;0.1745152;3;0;5;2282;-2928;1639;65536;0.8328328;0.2022161;-0.1495845;-0.4930748;4;-4;-1;3693;-684;-1649;8192;0.6897494;-0.6634349;-0.033241;0.2880886;4;-3;4;1720;3575;-63;32768;0.1869806;-0.8191944;0.4709141;0.2686981;-5;23;7;2743;2368;2035;256;0.501385;-0.5585892;-0.4875346;-0.4459834;-5;-6;0;283;4106;-163;128;-0.2853186;0.432133;0.6059585;0.6038781;-2;0;2;-723;4051;552;4;-0.2257618;-0.1149584;-0.6961139;-0.6717451;-1;2;0;1943;3456;218;16;0.5943587;-0.5581717;0.4639889;0.3462604;-1;-2;0;313;4012;-582;2;0.6565097;-0.7469574;-0.09972299;0.033241;0;0;-1;895;4090;-429;8;0.3185596;-0.5983379;0.3781163;0.6305074;-2;1;1;97;3553;2073;0.268876;2.660961;0.9097891;0.2747883;3.199748;0.8243774;0.2799817;3.673024;0.7473029;0.3517043;4.403084;0.7655016;0.1262191;4.7538;0.7354658;-0.2273098;4.646103;0.7951128;-0.6808994;5.292524;0.3106284;0.09095599;5.473291;0.829627;0.6440702;4.702929;0.7354649;0.9177474;4.533616;0.7951115;0.9775951;3.670141;1.21832;0.2099586;3.138145;1.378012;-0.04338554;2.618244;0.9093526;0.04515336;1.325805;0.2291901;0;0;0;-0.04338554;2.618244;0.9093526;0.04515336;1.325805;0.2291901;0;0;0
605814.5113;NotLabelled;NONE;16384;-0.4432133;-0.5041551;-0.7203708;0.1745152;3;0;3;2258;-2984;1711;65536;0.8334015;0.2022161;-0.1509695;-0.4916897;3;-4;-2;3549;-626;-1807;8192;0.6877648;-0.66482;-0.03462604;0.2894737;6;-1;3;1774;3645;-63;32768;0.1869806;-0.8232543;0.4653739;0.265928;-6;20;5;2525;2352;1753;256;0.501385;-0.5585892;-0.4875346;-0.4459834;-2;-4;-1;363;3950;-139;128;-0.2853186;0.4307479;0.6038781;0.6069438;-1;0;1;-703;4021;544;4;-0.2257618;-0.1149584;-0.6961139;-0.6717451;0;3;-1;1945;3520;220;16;0.5948492;-0.5567867;0.4639889;0.3476454;0;-4;0;353;4040;-602;2;0.6565097;-0.7469574;-0.09972299;0.033241;0;2;-1;803;4064;-509;8;0.3185596;-0.5983379;0.3767313;0.6313359;-2;6;1;117;3617;2063;0.2618264;2.660959;0.9096248;0.2677426;3.200109;0.8265436;0.2729395;3.673715;0.7515161;0.3444273;4.403847;0.7676237;0.1188186;4.754403;0.736656;-0.2346582;4.64676;0.7967067;-0.6821043;5.293378;0.3068034;0.08465898;5.472755;0.8337709;0.6366865;4.703702;0.7366549;0.9104359;4.534647;0.7967053;0.9669437;3.672007;1.222068;0.1967039;3.141936;1.375507;-0.0504352;2.618245;0.9089889;0.04337492;1.325806;0.2295334;0;0;0;-0.0504352;2.618245;0.9089889;0.04337492;1.325806;0.2295334;0;0;0
605834.7372;NotLabelled;NONE;16384;-0.4445983;-0.5041551;-0.7195168;0.1745152;2;0;2;2212;-3008;1671;65536;0.8334015;0.2022161;-0.1509695;-0.4916897;3;-1;-4;3387;-574;-1769;8192;0.6877648;-0.66482;-0.03462604;0.2894737;5;0;1;1744;3631;-185;32768;0.1869806;-0.8248141;0.4626039;0.265928;-3;14;1;2567;2290;1665;256;0.5027701;-0.5584484;-0.4875346;-0.4445983;-2;-4;0;333;3934;-145;128;-0.2839335;0.4307479;0.6038781;0.6075931;-3;0;2;-787;4045;538;4;-0.2271468;-0.1135734;-0.6958907;-0.6717451;1;2;-1;1799;3574;260;16;0.5937662;-0.5567867;0.4653739;0.3476454;0;-1;1;505;4048;-538;2;0.6565097;-0.7470178;-0.09972299;0.03185596;0;0;-1;783;4086;-537;8;0.3199446;-0.599723;0.3753462;0.6301452;-1;7;0;109;3479;2219;0.2577241;2.661204;0.9091569;0.2636448;3.200767;0.8287948;0.2688459;3.674744;0.7561557;0.3403337;4.404877;0.7722634;0.114725;4.755432;0.7412957;-0.2387518;4.647789;0.8013466;-0.6862286;5.294407;0.311471;0.07952076;5.473105;0.840141;0.6325928;4.704731;0.7412946;0.9063422;4.535676;0.8013451;0.958642;3.674622;1.230442;0.1856551;3.148377;1.383235;-0.05453742;2.618493;0.9082883;0.03927264;1.326054;0.2288326;0;0;0;-0.05453742;2.618493;0.9082883;0.03927264;1.326054;0.2288326;0;0;0
605856.5232;NotLabelled;NONE;16384;-0.4445983;-0.5041551;-0.7195168;0.1745152;3;-1;0;2184;-2956;1703;65536;0.8331494;0.2022161;-0.1523546;-0.4916897;3;-3;-5;3615;-650;-1729;8192;0.6877648;-0.66482;-0.03462604;0.2894737;4;2;0;1828;3619;-189;32768;0.1869806;-0.8255894;0.4612188;0.265928;0;10;0;2593;2286;1725;256;0.5027701;-0.5584484;-0.4875346;-0.4445983;0;-2;0;349;3938;-181;128;-0.2839335;0.4307479;0.6038781;0.6075931;-3;0;2;-703;4031;520;4;-0.2257618;-0.1135734;-0.6963413;-0.6717451;0;0;-1;1787;3550;334;16;0.5937662;-0.5567867;0.4653739;0.3476454;0;-1;1;545;4054;-594;2;0.6565097;-0.7470178;-0.09972299;0.03185596;0;1;0;817;3954;-513;8;0.3199446;-0.599723;0.3739612;0.6309682;-1;8;0;223;3475;2261;0.2569646;2.660891;0.9101097;0.2628867;3.200585;0.8306316;0.2680891;3.674681;0.7587693;0.3395957;4.404853;0.772826;0.1139854;4.755327;0.7409446;-0.2394771;4.647858;0.8013911;-0.6831737;5.295495;0.3094264;0.08125147;5.474192;0.8400089;0.6318523;4.704615;0.7409433;0.9056146;4.535723;0.8013893;0.9567147;3.674668;1.23063;0.1831187;3.149268;1.383244;-0.0552969;2.618182;0.9091659;0.0420251;1.325727;0.2302346;0;0;0;-0.0552969;2.618182;0.9091659;0.0420251;1.325727;0.2302346;0;0;0
605876.6212;NotLabelled;NONE;16384;-0.4445983;-0.5041551;-0.7195168;0.1745152;3;-3;0;2120;-2854;1631;65536;0.832895;0.2022161;-0.1537396;-0.4916897;4;-4;-3;3745;-688;-1803;8192;0.6876937;-0.66482;-0.03601108;0.2894737;5;6;0;1804;3575;-113;32768;0.1883656;-0.8257194;0.4612188;0.2645429;0;9;0;2605;2260;1967;256;0.5027701;-0.5584484;-0.4875346;-0.4445983;0;1;0;321;3974;-161;128;-0.2825485;0.4293629;0.6038781;0.6092169;-4;0;1;-701;4003;474;4;-0.2257618;-0.1135734;-0.6963413;-0.6717451;0;-1;-1;1971;3570;334;16;0.5937662;-0.5567867;0.4653739;0.3476454;0;0;1;489;4040;-522;2;0.6565097;-0.7470178;-0.09972299;0.03185596;0;0;1;799;3986;-451;8;0.3213296;-0.601108;0.3739612;0.6289431;-1;7;0;225;3509;2069;0.2591126;2.662237;0.9078465;0.2650347;3.201931;0.8283683;0.2702371;3.676027;0.756506;0.3417437;4.406199;0.7705627;0.1161335;4.756672;0.7386813;-0.2373291;4.649204;0.7991278;-0.6809556;5.29684;0.3070999;0.08240569;5.47415;0.8396759;0.6340002;4.705961;0.7386801;0.9077626;4.537069;0.799126;0.9588016;3.676013;1.228374;0.1850905;3.151037;1.381862;-0.05314892;2.619528;0.9069025;0.0420251;1.325727;0.2302343;0;0;0;-0.05314892;2.619528;0.9069025;0.0420251;1.325727;0.2302343;0;0;0
605897.556;NotLabelled;NONE;16384;-0.4459834;-0.5041551;-0.718994;0.1731302;4;-2;-1;2286;-2872;1741;65536;0.8331172;0.2036011;-0.1551246;-0.4903047;2;-7;0;3733;-742;-1615;8192;0.6869345;-0.666205;-0.03601108;0.2880886;4;5;-1;1752;3565;-51;32768;0.1883656;-0.8264915;0.4598338;0.2645429;-1;8;0;2683;2330;2047;256;0.501385;-0.5585892;-0.4875346;-0.4459834;1;3;0;293;3958;-175;128;-0.2811634;0.4293629;0.602493;0.6112257;-2;0;1;-703;4057;490;4;-0.2257618;-0.1135734;-0.6963413;-0.6717451;-1;0;-1;1977;3614;344;16;0.5937662;-0.5567867;0.4653739;0.3476454;0;0;1;489;4010;-528;2;0.6565097;-0.7469574;-0.09972299;0.033241;0;-1;1;709;3998;-485;8;0.3213296;-0.601108;0.3725762;0.6297646;0;5;0;165;3559;2101;0.2589868;2.662236;0.9079131;0.2649105;3.202055;0.8292908;0.2701141;3.676265;0.7581803;0.3416188;4.406437;0.7722468;0.116013;4.75691;0.7403342;-0.2374581;4.649441;0.8007317;-0.6809572;5.296296;0.3075628;0.08125918;5.472219;0.8422349;0.6338797;4.706198;0.7404049;0.9076337;4.537306;0.8008887;0.9581324;3.677801;1.233296;0.1844273;3.151821;1.383339;-0.05327466;2.619529;0.9068958;0.04199325;1.325727;0.2302406;0;0;0;-0.05327466;2.619529;0.9068958;0.04199325;1.325727;0.2302406;0;0;0
605918.8261;NotLabelled;NONE;16384;-0.4459834;-0.5041551;-0.718994;0.1731302;4;0;-1;2254;-2912;1765;65536;0.8340089;0.2022161;-0.1565097;-0.4889196;2;-9;-2;3477;-686;-1895;8192;0.6875138;-0.666205;-0.03601108;0.2867036;1;0;-2;1746;3627;-79;32768;0.1883656;-0.8272606;0.4584487;0.2645429;-1;3;0;2719;2396;1815;256;0.501385;-0.5585892;-0.4875346;-0.4459834;0;4;0;323;3988;-183;128;-0.2811634;0.4279778;0.602493;0.6121962;-1;-1;1;-701;4087;416;4;-0.2257618;-0.1135734;-0.6963413;-0.6717451;-1;0;0;1961;3632;366;16;0.592678;-0.5567867;0.466759;0.3476454;-1;-3;0;525;4104;-612;2;0.6565097;-0.7469574;-0.09972299;0.033241;0;-2;0;637;4018;-461;8;0.3227147;-0.602493;0.3725762;0.6277295;-1;8;0;-31;3527;2089;0.2613796;2.66223;0.9082792;0.2673074;3.202436;0.832357;0.2725148;3.676995;0.7636182;0.3440027;4.407127;0.7797255;0.1183939;4.757683;0.7487575;-0.2350829;4.650039;0.8088084;-0.6784235;5.296954;0.3155749;0.08295776;5.474265;0.8509784;0.6362618;4.706981;0.7487566;0.9100112;4.537927;0.8088071;0.9584936;3.676786;1.23818;0.1850744;3.151226;1.391139;-0.05088181;2.619528;0.9070314;0.04260051;1.325727;0.2301281;0;0;0;-0.05088181;2.619528;0.9070314;0.04260051;1.325727;0.2301281;0;0;0
605939.5006;NotLabelled;NONE;16384;-0.4473684;-0.5041551;-0.7184656;0.1717452;5;-1;0;2276;-2986;1757;65536;0.8345585;0.2022161;-0.1578947;-0.4875346;2;-2;-3;3425;-748;-1863;8192;0.6875138;-0.666205;-0.03601108;0.2867036;1;2;-2;1776;3763;-145;32768;0.1897507;-0.8269441;0.4584487;0.2645429;0;0;-1;2697;2336;1837;256;0.501385;-0.5574806;-0.4875346;-0.4473684;0;4;0;361;4094;-95;128;-0.2811634;0.4279778;0.602493;0.6121962;0;-1;0;-753;4115;432;4;-0.2257618;-0.1135734;-0.6963413;-0.6717451;0;0;-1;1885;3536;220;16;0.592678;-0.5567867;0.466759;0.3476454;0;2;0;479;4042;-554;2;0.6565097;-0.7471411;-0.09833795;0.033241;0;-5;0;661;4108;-435;8;0.3227147;-0.602493;0.3711911;0.6285496;-2;7;0;103;3517;2075;0.2647195;2.661895;0.9095607;0.2706473;3.202097;0.8336132;0.2758547;3.676653;0.764852;0.3473425;4.406785;0.7809597;0.1217338;4.757341;0.7499919;-0.2317431;4.649697;0.8100427;-0.6748689;5.296612;0.3166168;0.0866764;5.471201;0.8526804;0.6396016;4.706639;0.7499909;0.9133509;4.537585;0.8100412;0.9618644;3.675597;1.237707;0.1883332;3.150456;1.391538;-0.04754186;2.619193;0.9083152;0.04594042;1.325392;0.2314111;0;0;0;-0.04754186;2.619193;0.9083152;0.04594042;1.325392;0.2314111;0;0;0
605959.8093;NotLabelled;NONE;16384;-0.4473684;-0.5041551;-0.7184656;0.1717452;4;-2;-1;2258;-2906;1815;65536;0.8345585;0.2022161;-0.1578947;-0.4875346;1;-3;-4;3611;-746;-1821;8192;0.6875138;-0.666205;-0.03601108;0.2867036;1;4;-3;1858;3715;-167;32768;0.1897507;-0.8269441;0.4584487;0.2645429;1;0;-2;2659;2354;1999;256;0.5;-0.5587231;-0.4875346;-0.4473684;0;2;0;419;4030;-203;128;-0.2811634;0.4279778;0.6038781;0.6108301;0;-1;0;-701;4081;482;4;-0.2257618;-0.1135734;-0.6963413;-0.6717451;0;0;0;1935;3590;278;16;0.592678;-0.5567867;0.466759;0.3476454;0;-3;0;613;3978;-542;2;0.6565097;-0.747322;-0.09695291;0.033241;-1;-3;0;809;4004;-525;8;0.3240997;-0.6038781;0.368421;0.6281374;-2;9;1;89;3475;2145;0.2670238;2.661894;0.9096801;0.2729515;3.202097;0.8337324;0.278159;3.676652;0.7649711;0.3478348;4.40696;0.7810754;0.1213569;4.756954;0.7501064;-0.2318517;4.648434;0.8101578;-0.674492;5.29463;0.3153553;0.08736455;5.46856;0.8511908;0.6393489;4.707538;0.7501051;0.9135169;4.539164;0.8101562;0.9631151;3.677175;1.237696;0.1911311;3.149976;1.392261;-0.04523762;2.619192;0.9084345;0.04652732;1.325392;0.2312949;0;0;0;-0.04523762;2.619192;0.9084345;0.04652732;1.325392;0.2312949;0;0;0
605980.538;NotLabelled;NONE;16384;-0.4473684;-0.5041551;-0.7187952;0.1703601;3;-4;-2;2252;-2798;1801;65536;0.8342953;0.2022161;-0.1592798;-0.4875346;2;-4;-2;3627;-788;-1835;8192;0.6880897;-0.666205;-0.03601108;0.2853186;0;6;-3;1674;3717;-89;32768;0.1897507;-0.8269441;0.4584487;0.2645429;0;-2;-2;2673;2382;2019;256;0.5;-0.5575115;-0.4889196;-0.4473684;0;2;1;375;3996;-137;128;-0.2797784;0.4279778;0.6038781;0.6114657;-1;-2;0;-717;4053;538;4;-0.2257618;-0.1135734;-0.6963413;-0.6717451;0;0;0;1933;3594;312;16;0.592678;-0.5567867;0.466759;0.3476454;-1;1;0;419;4056;-638;2;0.6565097;-0.7472591;-0.09695291;0.03462604;-2;-1;0;897;3990;-441;8;0.3254848;-0.6052631;0.367036;0.6268978;-3;16;2;107;3465;2105;0.2669969;2.661899;0.9095217;0.2729217;3.201842;0.8317513;0.2781266;3.676163;0.7613891;0.3495958;4.406249;0.7795421;0.1239886;4.756885;0.7494859;-0.2295025;4.649068;0.8091419;-0.6719826;5.295264;0.314196;0.08985771;5.469194;0.8500538;0.6418573;4.706193;0.7494847;0.9155937;4.536979;0.80914;0.9650536;3.67499;1.236697;0.1930652;3.147792;1.391239;-0.04526454;2.619193;0.9084319;0.04652037;1.325393;0.2312955;0;0;0;-0.04526454;2.619193;0.9084319;0.04652037;1.325393;0.2312955;0;0;0
606000.6148;NotLabelled;NONE;16384;-0.4473684;-0.5041551;-0.7191221;0.1689751;3;-1;-1;2336;-2868;1805;65536;0.834501;0.2036011;-0.1606648;-0.4861496;2;-4;-1;3575;-862;-1849;8192;0.6886624;-0.666205;-0.03601108;0.2839335;0;3;-4;1682;3599;-67;32768;0.1897507;-0.8269441;0.4584487;0.2645429;0;-3;-3;2725;2370;1929;256;0.5;-0.5575115;-0.4889196;-0.4473684;0;3;1;329;3968;-129;128;-0.2797784;0.4265928;0.602493;0.6137954;0;-3;0;-697;4039;494;4;-0.2257618;-0.1135734;-0.6963413;-0.6717451;0;-1;0;1971;3498;270;16;0.5924644;-0.5581717;0.4653739;0.3476454;-1;8;0;339;4060;-636;2;0.6578947;-0.74604;-0.09695291;0.03462604;-1;0;0;877;4014;-451;8;0.3268698;-0.6066482;0.365651;0.6256465;-3;15;1;251;3455;2041;0.2694808;2.661897;0.9097168;0.275407;3.201965;0.8328191;0.2806131;3.676398;0.7632236;0.3523531;4.406505;0.7793827;0.1268657;4.757141;0.748438;-0.2266487;4.649615;0.8084788;-0.671374;5.294069;0.3132752;0.09084462;5.46662;0.8490418;0.6447161;4.70626;0.7484368;0.9184065;4.537107;0.8084774;0.9694291;3.674276;1.234146;0.1978661;3.147078;1.390798;-0.0427807;2.619193;0.9085523;0.04715261;1.325392;0.2311675;0;0;0;-0.0427807;2.619193;0.9085523;0.04715261;1.325392;0.2311675;0;0;0
606021.4996;NotLabelled;NONE;16384;-0.4473684;-0.5041551;-0.7194461;0.16759;4;0;-1;2362;-2836;1819;65536;0.8353064;0.2036011;-0.1606648;-0.4847645;3;-3;-2;3575;-794;-1957;8192;0.6887334;-0.666205;-0.03462604;0.2839335;0;0;-3;1760;3879;-137;32768;0.1911357;-0.8254104;0.4598338;0.265928;1;-6;-4;2783;2346;2047;256;0.5;-0.5575115;-0.4889196;-0.4473684;0;0;1;335;4076;-197;128;-0.2797784;0.4265928;0.602493;0.6137954;0;-1;0;-707;4079;498;4;-0.2257618;-0.1135734;-0.6963413;-0.6717451;0;0;0;1959;3584;174;16;0.593275;-0.5581717;0.4653739;0.3462604;-2;9;0;523;4022;-554;2;0.6578947;-0.7458587;-0.09833795;0.03462604;0;1;0;803;4008;-527;8;0.3268698;-0.6080332;0.3642659;0.6251096;-2;6;0;295;3485;2085;0.2706186;2.662486;0.9062076;0.2765476;3.202807;0.8311082;0.2817563;3.67747;0.7630925;0.3534963;4.407575;0.7792517;0.1280089;4.758212;0.7483069;-0.2255056;4.650686;0.8083477;-0.6709771;5.293397;0.3115517;0.08898495;5.467359;0.8500611;0.6458592;4.707331;0.7483058;0.9195498;4.538178;0.8083463;0.9708434;3.674508;1.232277;0.1992802;3.14731;1.388929;-0.04164278;2.619786;0.9048895;0.04829052;1.325985;0.2275048;0;0;0;-0.04164278;2.619786;0.9048895;0.04829052;1.325985;0.2275048;0;0;0
606043.5283;NotLabelled;NONE;16384;-0.4487534;-0.5027701;-0.7195528;0.16759;4;0;0;2302;-2958;1885;65536;0.8353064;0.2036011;-0.1606648;-0.4847645;2;-2;-2;3691;-798;-1927;8192;0.6893027;-0.666205;-0.03462604;0.2825485;0;0;-3;1824;3717;-111;32768;0.1911357;-0.8246373;0.4612188;0.265928;0;-7;-5;2645;2366;2017;256;0.5;-0.5575115;-0.4889196;-0.4473684;0;1;1;371;4068;-183;128;-0.2783934;0.4265928;0.6038781;0.6130636;0;1;0;-703;4117;538;4;-0.2257618;-0.1135734;-0.6963413;-0.6717451;1;3;1;1935;3658;194;16;0.5938615;-0.5595568;0.4639889;0.3448753;-2;3;0;535;4038;-448;2;0.6578947;-0.746103;-0.09695291;0.033241;-1;1;-1;751;4016;-487;8;0.3268698;-0.6080332;0.3642659;0.6251096;-1;1;1;227;3511;2175;0.27024;2.661968;0.9092816;0.276169;3.20229;0.8341823;0.2813776;3.676952;0.7661664;0.3531176;4.407058;0.7823257;0.1276302;4.757694;0.7513808;-0.2258842;4.650168;0.8114218;-0.6718766;5.291134;0.3128411;0.08812092;5.465827;0.8510633;0.6454805;4.706814;0.7513797;0.9191712;4.537661;0.8114203;0.9707564;3.67314;1.233577;0.2016053;3.142425;1.390217;-0.04202148;2.619269;0.9079636;0.04791187;1.325468;0.2305788;0;0;0;-0.04202148;2.619269;0.9079636;0.04791187;1.325468;0.2305788;0;0;0
606064.5158;NotLabelled;NONE;16384;-0.4487534;-0.5027701;-0.7195528;0.16759;2;0;0;2336;-2898;1953;65536;0.8350388;0.2036011;-0.1620499;-0.4847645;0;-3;-2;3737;-796;-1931;8192;0.6893027;-0.666205;-0.03462604;0.2825485;0;2;-4;1772;3709;-95;32768;0.1925208;-0.8235385;0.4626039;0.265928;0;-10;-5;2765;2386;1971;256;0.4986149;-0.5587506;-0.4889196;-0.4473684;0;0;1;419;4120;-139;128;-0.2783934;0.4252077;0.6038781;0.6140251;-1;0;0;-735;4121;526;4;-0.2271468;-0.1121884;-0.6961154;-0.6717451;0;2;0;1817;3666;280;16;0.5925534;-0.5609418;0.4639889;0.3448753;-2;0;0;499;4030;-474;2;0.6578947;-0.7459217;-0.09833795;0.033241;-1;2;0;941;4098;-467;8;0.3282548;-0.6094183;0.3628809;0.6238394;0;8;1;129;3477;2291;0.271021;2.662045;0.9086069;0.2769486;3.202233;0.8325533;0.2821559;3.676775;0.7636992;0.3538958;4.406881;0.7798583;0.1284084;4.757517;0.7489135;-0.225106;4.649992;0.8089545;-0.6685271;5.291131;0.3083082;0.09147038;5.465824;0.8465306;0.6462588;4.706636;0.7489126;0.9199492;4.537483;0.808953;0.9717438;3.672131;1.229379;0.2027013;3.140998;1.385133;-0.0412405;2.619344;0.9073703;0.0486929;1.325543;0.2299856;0;0;0;-0.0412405;2.619344;0.9073703;0.0486929;1.325543;0.2299856;0;0;0
606084.7371;NotLabelled;NONE;16384;-0.4487534;-0.5027701;-0.7195528;0.16759;2;0;1;2342;-2854;1887;65536;0.8361775;0.2022161;-0.1620499;-0.4833795;0;-3;-1;3627;-808;-1975;8192;0.689937;-0.666205;-0.033241;0.2811634;-1;-1;-5;1630;3667;-137;32768;0.1925208;-0.82231;0.4639889;0.267313;0;-13;-5;2723;2336;1923;256;0.4986149;-0.5587506;-0.4889196;-0.4473684;-1;-2;0;411;4104;-143;128;-0.2770083;0.4252077;0.6038781;0.6146511;-2;0;0;-701;4149;532;4;-0.2271468;-0.1121884;-0.6961154;-0.6717451;0;1;0;1823;3634;232;16;0.5925534;-0.5609418;0.4639889;0.3448753;-1;3;0;419;4008;-388;2;0.6578947;-0.7459217;-0.09833795;0.033241;0;1;1;979;4014;-491;8;0.3282548;-0.6094183;0.3614958;0.624643;0;6;0;143;3437;2215;0.2736853;2.662301;0.9059416;0.2796129;3.202484;0.8298628;0.2848202;3.677023;0.7609866;0.3583535;4.406902;0.7791895;0.1337388;4.758178;0.7491565;-0.2200559;4.651357;0.808804;-0.6634499;5.29252;0.3081642;0.09543444;5.465837;0.8483976;0.6514621;4.706021;0.7491535;0.9247187;4.53603;0.8087982;0.9764908;3.670657;1.229186;0.2087214;3.137063;1.382791;-0.03857604;2.619598;0.9047071;0.05319083;1.325782;0.2275993;0;0;0;-0.03857604;2.619598;0.9047071;0.05319083;1.325782;0.2275993;0;0;0
606105.6713;NotLabelled;NONE;16384;-0.4487534;-0.501385;-0.7205185;0.16759;1;2;0;2332;-2804;1783;65536;0.8361775;0.2022161;-0.1620499;-0.4833795;0;-2;-1;3561;-778;-1877;8192;0.6900024;-0.666205;-0.03185596;0.2811634;-2;-4;-5;1668;3625;-135;32768;0.1911357;-0.8213986;0.4653739;0.2686981;0;-16;-5;2735;2320;1895;256;0.4986149;-0.5587506;-0.4889196;-0.4473684;-1;-2;0;427;4104;-161;128;-0.2770083;0.4252077;0.6038781;0.6146511;-2;0;0;-645;4035;508;4;-0.2271468;-0.1121884;-0.6961154;-0.6717451;0;3;-1;1859;3544;258;16;0.5936353;-0.5609418;0.4626039;0.3448753;-1;3;0;417;4026;-442;2;0.6578947;-0.7458587;-0.09833795;0.03462604;0;1;2;881;4002;-511;8;0.3282548;-0.6094183;0.3614958;0.624643;1;4;0;127;3469;2075;0.2736814;2.662298;0.9060152;0.2796103;3.202603;0.8308018;0.2848188;3.677252;0.7626858;0.3583519;4.407132;0.780889;0.1337374;4.758407;0.7508551;-0.2200575;4.651586;0.8105011;-0.6635351;5.292725;0.3099048;0.09658174;5.464713;0.848829;0.6514607;4.70625;0.7508545;0.9247171;4.536259;0.8105003;0.977175;3.669239;1.227395;0.2106681;3.134176;1.382194;-0.03858005;2.619598;0.9047067;0.05318989;1.325781;0.2275994;0;0;0;-0.03858005;2.619598;0.9047067;0.05318989;1.325781;0.2275994;0;0;0
606126.4909;NotLabelled;NONE;16384;-0.4501385;-0.501385;-0.7196541;0.16759;0;0;0;2212;-2806;1765;65536;0.8367072;0.2022161;-0.1634349;-0.4819945;0;-1;0;3441;-656;-1923;8192;0.6900649;-0.666205;-0.03047091;0.2811634;0;-1;-5;1862;3755;-193;32768;0.1911357;-0.8185748;0.4695291;0.2700831;0;-15;-8;2655;2282;2045;256;0.5;-0.5575115;-0.4889196;-0.4473684;-1;-1;0;335;4018;-117;128;-0.2756233;0.4238227;0.602493;0.6175826;-3;0;0;-747;4031;504;4;-0.2271468;-0.1108033;-0.6963372;-0.6717451;0;4;-1;1837;3558;310;16;0.5936353;-0.5609418;0.4626039;0.3448753;-1;1;0;451;4072;-488;2;0.6578947;-0.7457378;-0.09972299;0.033241;0;4;2;833;4008;-411;8;0.3296399;-0.6094183;0.3614958;0.6239132;1;3;0;161;3431;2069;0.2703573;2.662646;0.904737;0.2762863;3.202951;0.8295236;0.2814948;3.6776;0.7614077;0.355028;4.40748;0.7796108;0.1304134;4.758754;0.7495769;-0.2233815;4.651933;0.8092229;-0.6666374;5.29222;0.3073399;0.09347966;5.464207;0.8462642;0.6481367;4.706598;0.7495762;0.921393;4.536606;0.8092222;0.9741921;3.668751;1.224329;0.2077879;3.134253;1.38157;-0.04190399;2.619946;0.9034285;0.04986591;1.326129;0.2263212;0;0;0;-0.04190399;2.619946;0.9034285;0.04986591;1.326129;0.2263212;0;0;0
606146.5468;NotLabelled;NONE;16384;-0.4487534;-0.501385;-0.7205185;0.16759;0;0;-1;2180;-2848;1809;65536;0.8367072;0.2022161;-0.1634349;-0.4819945;0;0;-1;3499;-646;-1933;8192;0.6906873;-0.666205;-0.02908587;0.2797784;0;0;-5;1788;3647;-147;32768;0.1911357;-0.81732;0.4709141;0.2714681;0;-15;-8;2591;2294;1983;256;0.5;-0.5575115;-0.4889196;-0.4473684;-1;0;0;427;4004;-127;128;-0.2756233;0.4238227;0.602493;0.6175826;-4;2;0;-687;4035;436;4;-0.2285319;-0.1108033;-0.6958838;-0.6717451;0;4;0;1811;3628;242;16;0.5936353;-0.5609418;0.4626039;0.3448753;-1;-2;0;491;4082;-464;2;0.6578947;-0.7457378;-0.09972299;0.033241;-1;5;1;807;3968;-443;8;0.3296399;-0.6094183;0.3614958;0.6239132;0;3;1;53;3453;2073;0.2703125;2.663996;0.9023917;0.2762454;3.204665;0.8298391;0.2814575;3.679643;0.7640606;0.3531906;4.409749;0.7802505;0.1277165;4.760385;0.7492089;-0.2258236;4.652859;0.8090979;-0.6662756;5.291681;0.3028988;0.09255426;5.463031;0.8438357;0.6455668;4.709504;0.7494305;0.9192314;4.540351;0.8095886;0.9721147;3.673708;1.22721;0.2071489;3.136884;1.383529;-0.04194878;2.621303;0.9008563;0.04977547;1.32613;0.2263412;0;0;0;-0.04194878;2.621303;0.9008563;0.04977547;1.32613;0.2263412;0;0;0
606166.7949;NotLabelled;NONE;16384;-0.4487534;-0.5;-0.7214804;0.16759;0;0;-2;2150;-2810;1839;65536;0.8367072;0.2022161;-0.1634349;-0.4819945;-2;-1;0;3579;-630;-1837;8192;0.6893487;-0.66759;-0.02908587;0.2797784;0;-2;-5;1782;3617;-173;32768;0.1925208;-0.8157331;0.4722992;0.2728532;0;-16;-8;2603;2370;2009;256;0.4986149;-0.5587506;-0.4889196;-0.4473684;0;3;0;425;4026;-121;128;-0.2742382;0.4224377;0.602493;0.6191462;-3;2;0;-679;4085;404;4;-0.2285319;-0.1094183;-0.6974369;-0.6703601;-3;3;0;1731;3604;360;16;0.5917451;-0.5609418;0.4639889;0.3462604;0;-2;0;641;3986;-406;2;0.6578947;-0.7455513;-0.101108;0.033241;0;3;0;797;3950;-461;8;0.3296399;-0.6108033;0.3614958;0.6225573;0;1;0;215;3487;2197;0.2685587;2.662656;0.9046842;0.2744917;3.203325;0.8321315;0.2797037;3.678303;0.766353;0.3514437;4.408409;0.7825122;0.1259563;4.759045;0.7515673;-0.2275582;4.651519;0.8116083;-0.6708295;5.291805;0.3097391;0.08823295;5.463156;0.8503499;0.6438066;4.708164;0.7515663;0.9174973;4.539011;0.8116067;0.9712982;3.668686;1.221381;0.2076881;3.130371;1.379196;-0.04370263;2.619963;0.9031488;0.04987279;1.326129;0.2263198;0;0;0;-0.04370263;2.619963;0.9031488;0.04987279;1.326129;0.2263198;0;0;0
606187.7059;NotLabelled;NONE;16384;-0.4487534;-0.5;-0.7214804;0.16759;0;0;-3;2196;-2838;1753;65536;0.8370408;0.200831;-0.1634349;-0.4819945;-3;-1;0;3575;-594;-1851;8192;0.6894057;-0.66759;-0.02770083;0.2797784;0;-2;-5;1732;3613;-137;32768;0.1925208;-0.8144645;0.4736842;0.2742382;0;-17;-9;2573;2382;1851;256;0.5;-0.5575115;-0.4889196;-0.4473684;-2;2;0;347;4000;-137;128;-0.2742382;0.4224377;0.602493;0.6191462;-1;3;1;-663;4067;404;4;-0.2271468;-0.1094183;-0.6978892;-0.6703601;-3;0;-1;1689;3636;436;16;0.5917451;-0.5609418;0.4639889;0.3462604;0;-10;-1;691;4070;-518;2;0.6578947;-0.7455513;-0.101108;0.033241;1;0;1;799;3992;-461;8;0.3296399;-0.6108033;0.3614958;0.6225573;3;2;0;-91;3527;2327;0.2778932;2.663967;0.9015071;0.2838274;3.204747;0.8297876;0.2890406;3.679826;0.7647411;0.3625738;4.409705;0.7829442;0.1379593;4.760981;0.7529104;-0.2158356;4.65416;0.8125562;-0.6590119;5.293592;0.3095159;0.1000337;5.464942;0.8501499;0.6556826;4.708825;0.7529096;0.9289389;4.538833;0.8125554;0.97917;3.668398;1.222553;0.2180237;3.126566;1.380229;-0.03436803;2.621276;0.8999005;0.05356906;1.326291;0.2245211;0;0;0;-0.03436803;2.621276;0.8999005;0.05356906;1.326291;0.2245211;0;0;0
606209.5681;NotLabelled;NONE;16384;-0.4487534;-0.5;-0.7214804;0.16759;0;1;-4;2208;-2908;1783;65536;0.8370408;0.200831;-0.1634349;-0.4819945;-5;-2;0;3599;-566;-1789;8192;0.6894057;-0.66759;-0.02770083;0.2797784;0;-2;-5;1846;3687;-229;32768;0.1925208;-0.8131893;0.4750692;0.2756233;2;-18;-11;2551;2458;1849;256;0.4986149;-0.5587506;-0.4889196;-0.4473684;-2;1;0;377;4056;-59;128;-0.2728532;0.4210526;0.6038781;0.6193522;0;0;0;-665;4089;396;4;-0.2271468;-0.1094183;-0.699217;-0.6689751;-2;-3;0;1793;3664;292;16;0.5911565;-0.5595568;0.4653739;0.3476454;1;-13;-2;467;4052;-532;2;0.6578947;-0.7455513;-0.101108;0.033241;1;-1;2;807;4146;-473;8;0.3310249;-0.6108033;0.3601108;0.6226251;2;14;1;-167;3537;2157;0.2800627;2.665298;0.8992254;0.2859969;3.206079;0.827506;0.29121;3.681158;0.7624594;0.36295;4.411263;0.7786182;0.1374626;4.761899;0.7476732;-0.2160518;4.654374;0.8077142;-0.6591742;5.293806;0.3046249;0.1010804;5.463087;0.8442118;0.6553129;4.711019;0.7476721;0.9290035;4.541866;0.8077127;0.9795691;3.670611;1.215919;0.2197338;3.127282;1.374764;-0.03219853;2.622608;0.8976189;0.05357594;1.326291;0.2245189;0;0;0;-0.03219853;2.622608;0.8976189;0.05357594;1.326291;0.2245189;0;0;0
606230.6325;NotLabelled;NONE;16384;-0.4473684;-0.5;-0.72234;0.16759;2;1;-6;2224;-2910;1759;65536;0.8377005;0.1980609;-0.1634349;-0.4819945;-3;-3;-1;3637;-624;-1885;8192;0.6908498;-0.666205;-0.02493075;0.2797784;-3;-2;-6;1770;3703;-103;32768;0.1939058;-0.8089923;0.4792244;0.2797784;0;-20;-11;2733;2418;2009;256;0.5;-0.5574048;-0.4903047;-0.4459834;-3;0;0;421;4112;13;128;-0.2714681;0.4196676;0.6038781;0.6208989;-3;2;1;-699;4147;486;4;-0.2271468;-0.1094183;-0.699217;-0.6689751;-2;-2;0;1769;3636;378;16;0.5903398;-0.5595568;0.4653739;0.3490305;0;-10;-3;475;4082;-516;2;0.6578947;-0.7455513;-0.101108;0.033241;0;-2;3;877;4166;-393;8;0.33241;-0.6108033;0.3587258;0.6226867;2;8;0;221;3557;2113;0.2847286;2.665005;0.9008248;0.2906613;3.205652;0.8281082;0.2958731;3.68061;0.7621857;0.3694093;4.41049;0.7803763;0.1447898;4.761765;0.7503796;-0.2089952;4.654944;0.8100842;-0.652243;5.295302;0.3082861;0.1080843;5.464584;0.8477702;0.6625131;4.709609;0.750293;0.9357793;4.539616;0.8098935;0.9864469;3.66761;1.21648;0.2279478;3.12278;1.376562;-0.0275327;2.622312;0.8993034;0.05281654;1.326224;0.2250932;0;0;0;-0.0275327;2.622312;0.8993034;0.05281654;1.326224;0.2250932;0;0;0
606251.6761;NotLabelled;NONE;16384;-0.4473684;-0.5;-0.7226599;0.166205;5;0;-5;2342;-3016;1737;65536;0.838496;0.1980609;-0.1634349;-0.4806094;-2;-3;-1;3659;-660;-1883;8192;0.6908984;-0.666205;-0.0235457;0.2797784;-4;-4;-7;1764;3703;-53;32768;0.1939058;-0.8068637;0.4819945;0.2811634;0;-20;-9;2831;2508;2011;256;0.5;-0.5574048;-0.4903047;-0.4459834;-4;0;0;519;4096;-161;128;-0.2714681;0.4196676;0.6038781;0.6208989;-2;1;1;-711;4119;460;4;-0.2257618;-0.1108033;-0.6994474;-0.6689751;-3;-5;0;1769;3666;396;16;0.5897366;-0.5581717;0.466759;0.3504155;0;-25;-5;1093;4170;-488;2;0.6578947;-0.745299;-0.1024931;0.03462604;1;2;3;865;4080;-369;8;0.333795;-0.6108033;0.3587258;0.6219454;2;4;1;113;3523;2159;0.2851714;2.665508;0.89781;0.2911054;3.206265;0.8259178;0.2963183;3.681323;0.7607195;0.3701347;4.411263;0.7748822;0.1456351;4.762454;0.743048;-0.2081667;4.656095;0.8034738;-0.6538836;5.29451;0.3013867;0.1088435;5.459645;0.838764;0.6633388;4.710103;0.7430472;0.9365646;4.540337;0.8034728;0.9916202;3.667557;1.207824;0.2383092;3.11619;1.37001;-0.02708981;2.622817;0.8962182;0.05321197;1.326729;0.2220023;0;0;0;-0.02708981;2.622817;0.8962182;0.05321197;1.326729;0.2220023;0;0;0
606272.5228;NotLabelled;NONE;16384;-0.4459834;-0.5;-0.7235156;0.166205;5;-2;-5;2368;-2948;1797;65536;0.8388219;0.1966759;-0.1634349;-0.4806094;-3;-4;0;3723;-746;-1893;8192;0.6915034;-0.666205;-0.02216066;0.2783934;-4;-4;-6;1886;3783;-201;32768;0.1939058;-0.8055502;0.4833795;0.2825485;1;-20;-8;2847;2520;1965;256;0.5;-0.5574048;-0.4903047;-0.4459834;-5;-1;0;483;4046;-89;128;-0.2714681;0.4196676;0.6038781;0.6208989;-4;0;1;-733;4089;492;4;-0.2243767;-0.1121884;-0.7009939;-0.66759;-6;-8;1;1795;3628;342;16;0.5874912;-0.5526316;0.4709141;0.3573407;-1;-21;-7;81;4050;-634;2;0.6578947;-0.745299;-0.1024931;0.03462604;0;3;1;765;4076;-457;8;0.33518;-0.6121883;0.3587258;0.6198351;1;11;0;-45;3467;2079;0.2862221;2.665421;0.8986395;0.292156;3.206178;0.8267474;0.2973689;3.681236;0.7615491;0.3711854;4.411177;0.7757121;0.1466857;4.762367;0.743878;-0.2071161;4.656008;0.8043038;-0.6534242;5.292666;0.3005154;0.1093363;5.458529;0.8376215;0.6643894;4.710016;0.7438771;0.9376152;4.540249;0.8043026;0.9929723;3.666659;1.206856;0.2411267;3.11334;1.369193;-0.02603924;2.62273;0.8970478;0.0524441;1.326663;0.2225777;0;0;0;-0.02603924;2.62273;0.8970478;0.0524441;1.326663;0.2225777;0;0;0
606292.7053;NotLabelled;NONE;16384;-0.4459834;-0.5;-0.7238323;0.1648199;6;-2;-5;2404;-2854;1811;65536;0.8388219;0.1966759;-0.1634349;-0.4806094;-2;-5;0;3783;-768;-1891;8192;0.6909442;-0.666205;-0.02216066;0.2797784;-4;-2;-4;1982;3797;-215;32768;0.1939058;-0.8033934;0.4861496;0.2839335;1;-17;-7;2809;2422;2027;256;0.501385;-0.5572672;-0.4903047;-0.4445983;-6;-2;1;465;4078;-127;128;-0.2700831;0.4182825;0.602493;0.6237764;-5;1;1;-769;4083;574;4;-0.2229917;-0.1135734;-0.7012128;-0.66759;-5;-10;1;1901;3512;322;16;0.5859872;-0.5512465;0.4722992;0.3601108;-1;-21;-7;761;4072;-536;2;0.6578947;-0.745299;-0.1024931;0.03462604;0;0;1;705;3846;-559;8;0.3365651;-0.6135734;0.3573407;0.6185138;1;2;0;213;3545;1931;0.2874842;2.66571;0.8978983;0.2934181;3.206467;0.8260062;0.298631;3.681525;0.7608079;0.3724475;4.411466;0.7749709;0.1479478;4.762656;0.7431368;-0.2058539;4.656297;0.8035625;-0.6545786;5.291936;0.3006336;0.1093518;5.455719;0.8367141;0.6656516;4.710305;0.7431359;0.9388773;4.540538;0.8035615;0.9947941;3.665355;1.202564;0.2443066;3.110512;1.36598;-0.0247771;2.623019;0.8963065;0.04657202;1.327226;0.220519;0;0;0;-0.0247771;2.623019;0.8963065;0.04657202;1.327226;0.220519;0;0;0
606313.6047;NotLabelled;NONE;16384;-0.4459834;-0.5;-0.7241463;0.1634349;6;0;-3;2428;-2750;1761;65536;0.839614;0.1966759;-0.1634349;-0.4792244;0;-4;1;3673;-836;-1809;8192;0.6915034;-0.666205;-0.02216066;0.2783934;-4;0;-3;1864;3681;-239;32768;0.1939058;-0.8033934;0.4861496;0.2839335;0;-9;-4;2819;2426;2161;256;0.501385;-0.5560455;-0.4916897;-0.4445983;-6;-4;1;431;4126;-137;128;-0.2700831;0.4182825;0.602493;0.6237764;-5;-1;0;-707;3963;506;4;-0.2229917;-0.1149584;-0.700987;-0.66759;-5;-13;3;1989;3376;176;16;0.5846369;-0.5484765;0.4750692;0.3628809;-2;-39;-8;611;3894;-556;2;0.6578947;-0.745299;-0.1024931;0.03462604;1;0;0;651;3968;-487;8;0.3365651;-0.6135734;0.3573407;0.6185138;0;2;0;113;3463;2031;0.2867592;2.666112;0.8957366;0.2926968;3.207215;0.8264915;0.2979132;3.682586;0.7636187;0.371747;4.412561;0.7757359;0.1472448;4.763665;0.7429906;-0.2065419;4.657481;0.8038104;-0.6548803;5.29136;0.298321;0.1077079;5.455143;0.8363088;0.6649475;4.711306;0.7429897;0.9381871;4.541703;0.8038093;0.9930689;3.667305;1.204671;0.2436589;3.110494;1.366333;-0.02550199;2.62343;0.8939191;0.04573762;1.327658;0.218079;0;0;0;-0.02550199;2.62343;0.8939191;0.04573762;1.327658;0.218079;0;0;0
606335.5301;NotLabelled;NONE;16384;-0.4459834;-0.4986149;-0.7254115;0.1620499;7;1;0;2436;-2776;1775;65536;0.840403;0.1966759;-0.1634349;-0.4778393;0;-6;0;3559;-824;-1877;8192;0.6923199;-0.66482;-0.02077562;0.2797784;-2;-1;1;1844;3655;-315;32768;0.1939058;-0.8020623;0.4875346;0.2853186;1;1;0;2865;2268;2029;256;0.5027701;-0.5571226;-0.4903047;-0.4432133;-6;-7;1;371;4020;-165;128;-0.2686981;0.4182825;0.602493;0.6243743;-6;1;0;-735;3919;672;4;-0.2216066;-0.1177285;-0.7009665;-0.66759;-5;-9;3;2023;3532;270;16;0.583507;-0.5457063;0.4764543;0.367036;-3;-35;-8;329;4098;-420;2;0.6578947;-0.745299;-0.1024931;0.03462604;0;-1;0;769;4052;-439;8;0.3365651;-0.6135734;0.3573407;0.6185138;0;6;1;-19;3513;2175;0.2876287;2.664632;0.8994339;0.2935663;3.205734;0.8301886;0.2987827;3.681106;0.7673159;0.3728707;4.411086;0.7774272;0.1484801;4.762178;0.7437888;-0.2053263;4.656281;0.8049946;-0.6554784;5.288396;0.2989097;0.1086201;5.452903;0.8345286;0.6661648;4.709639;0.7437876;0.9393629;4.540109;0.8049931;0.9953806;3.664925;1.203981;0.246418;3.108114;1.367704;-0.02463247;2.621949;0.8976165;0.04505887;1.327523;0.2190432;0;0;0;-0.02463247;2.621949;0.8976165;0.04505887;1.327523;0.2190432;0;0;0
606355.7597;NotLabelled;NONE;16384;-0.4473684;-0.4986149;-0.7248665;0.1606648;7;0;1;2380;-2834;1829;65536;0.8400777;0.1980609;-0.1634349;-0.4778393;1;-6;-1;3465;-816;-1977;8192;0.692277;-0.66482;-0.02216066;0.2797784;0;1;3;1904;3585;-341;32768;0.1939058;-0.8033934;0.4861496;0.2839335;2;5;0;2797;2194;1911;256;0.5041551;-0.558067;-0.4903047;-0.4404432;-5;-7;0;405;4000;-251;128;-0.2686981;0.4182825;0.601108;0.6257077;-4;0;0;-699;4027;618;4;-0.2216066;-0.1191136;-0.7020494;-0.666205;-7;-5;4;2035;3610;408;16;0.5823289;-0.5429363;0.4778393;0.3711911;-4;-32;-8;169;4022;-606;2;0.6578947;-0.745299;-0.1024931;0.03462604;0;1;0;859;4006;-563;8;0.3379501;-0.6135734;0.3559557;0.6185572;0;5;0;-5;3461;2181;0.2800231;2.663922;0.8988933;0.285962;3.205131;0.8304919;0.2911794;3.6806;0.7683602;0.3650291;4.410605;0.7784364;0.1405291;4.761622;0.7447462;-0.2132511;4.655614;0.805911;-0.6583964;5.284307;0.2912065;0.1028424;5.449536;0.8306617;0.6582308;4.709251;0.7448179;0.9314756;4.539814;0.8060706;0.9869391;3.665357;1.206728;0.2384766;3.107011;1.367478;-0.03223806;2.621242;0.8970042;0.03964307;1.328186;0.2160504;0;0;0;-0.03223806;2.621242;0.8970042;0.03964307;1.328186;0.2160504;0;0;0
606376.5003;NotLabelled;NONE;16384;-0.4487534;-0.4972299;-0.7249618;0.1606648;7;0;2;2370;-2818;1793;65536;0.8405936;0.1980609;-0.1648199;-0.4764543;2;-5;-2;3541;-714;-1965;8192;0.6922312;-0.66482;-0.0235457;0.2797784;2;4;4;1800;3541;-313;32768;0.1939058;-0.8033934;0.4861496;0.2839335;3;8;1;2829;2178;1893;256;0.5041551;-0.558067;-0.4903047;-0.4404432;-3;-4;1;445;3982;-191;128;-0.267313;0.4182825;0.599723;0.6276271;-4;-2;0;-743;3961;676;4;-0.2216066;-0.1204986;-0.701813;-0.666205;-8;-5;4;1995;3546;398;16;0.5811021;-0.5401662;0.4792244;0.3753462;-5;-31;-9;317;4008;-630;2;0.6578947;-0.745299;-0.1024931;0.03462604;0;0;0;767;3974;-587;8;0.3379501;-0.6135734;0.3559557;0.6185572;0;0;0;95;3515;2063;0.2764726;2.662927;0.8992394;0.2824139;3.204364;0.8326615;0.2876336;3.680039;0.7721319;0.3633153;4.409882;0.7801425;0.1396806;4.761364;0.7455691;-0.2143377;4.656415;0.8071785;-0.658103;5.28516;0.2913481;0.09932809;5.452474;0.8354999;0.6572496;4.707698;0.7455683;0.9300956;4.537747;0.8071774;0.9855341;3.663472;1.208232;0.2349344;3.106662;1.364277;-0.03578854;2.620254;0.8971949;0.03442563;1.328826;0.2129855;0;0;0;-0.03578854;2.620254;0.8971949;0.03442563;1.328826;0.2129855;0;0;0
606396.5072;NotLabelled;NONE;16384;-0.4487534;-0.4972299;-0.7252674;0.1592798;6;0;3;2290;-2752;1813;65536;0.8413771;0.1980609;-0.1648199;-0.4750692;4;-4;-1;3567;-700;-1885;8192;0.6922312;-0.66482;-0.0235457;0.2797784;4;5;4;1590;3499;-305;32768;0.1939058;-0.8047175;0.4847645;0.2825485;3;8;1;2809;2220;1783;256;0.5041551;-0.558067;-0.4903047;-0.4404432;-3;-1;0;381;4010;-191;128;-0.267313;0.4196676;0.599723;0.6267018;-5;-3;0;-755;3941;652;4;-0.2216066;-0.1232687;-0.7026448;-0.66482;-7;-2;6;2037;3438;246;16;0.5777649;-0.5373961;0.4819945;0.3808864;-6;-19;-8;43;4026;-690;2;0.6578947;-0.745299;-0.1024931;0.03462604;0;1;0;723;3928;-469;8;0.3379501;-0.6135734;0.3559557;0.6185572;0;-2;0;53;3581;2039;0.2720211;2.662176;0.8987335;0.2779659;3.203933;0.8348179;0.2831888;3.679901;0.7766273;0.3588706;4.409743;0.7846379;0.1352358;4.761226;0.7500644;-0.2187824;4.656276;0.8116739;-0.6600327;5.285176;0.293879;0.09630072;5.451861;0.8397475;0.6528048;4.707559;0.7500634;0.9256508;4.537608;0.8116726;0.9807792;3.664141;1.214525;0.2301798;3.10733;1.37057;-0.04023995;2.619514;0.8964624;0.03031043;1.329444;0.2097282;0;0;0;-0.04023995;2.619514;0.8964624;0.03031043;1.329444;0.2097282;0;0;0
606416.5084;NotLabelled;NONE;16384;-0.4501385;-0.4972299;-0.7244085;0.1592798;5;0;3;2230;-2822;1835;65536;0.8411046;0.1980609;-0.166205;-0.4750692;3;-3;-1;3649;-718;-1873;8192;0.6908498;-0.666205;-0.02493075;0.2797784;5;4;4;1626;3539;-271;32768;0.1952908;-0.8048677;0.4847645;0.2811634;4;9;3;2743;2248;1641;256;0.5041551;-0.558067;-0.4903047;-0.4404432;-2;0;1;387;3898;-211;128;-0.267313;0.4196676;0.5983379;0.6280243;-5;-2;0;-863;3961;722;4;-0.2229917;-0.1246537;-0.7032712;-0.6634349;-6;0;7;2059;3454;228;16;0.5783722;-0.536011;0.4806094;0.3836565;-6;-6;-9;43;4046;-584;2;0.6578947;-0.7455513;-0.101108;0.033241;0;-5;0;655;3882;-685;8;0.3365651;-0.6149584;0.3559557;0.6179366;-2;-2;0;195;3461;1985;0.2764787;2.65998;0.8995577;0.2824236;3.201741;0.8356704;0.2876465;3.677711;0.7775046;0.3633283;4.407554;0.7855153;0.1396935;4.759037;0.7509416;-0.2143248;4.654087;0.8125511;-0.6559526;5.281216;0.292933;0.1004174;5.448627;0.8385287;0.6572626;4.70537;0.7509407;0.9301085;4.535419;0.8125499;0.9850554;3.661951;1.215428;0.2330991;3.106672;1.370394;-0.03578234;2.617318;0.8972843;0.03013813;1.330271;0.2044458;0;0;0;-0.03578234;2.617318;0.8972843;0.03013813;1.330271;0.2044458;0;0;0
606437.6892;NotLabelled;NONE;16384;-0.4529086;-0.4958449;-0.7236309;0.1592798;4;1;3;2250;-2792;1747;65536;0.8416108;0.1980609;-0.16759;-0.4736842;2;-3;-2;3375;-616;-1959;8192;0.6907442;-0.666205;-0.02770083;0.2797784;5;7;2;1544;3631;-155;32768;0.1952908;-0.8061823;0.4833795;0.2797784;3;6;3;2813;2318;1633;256;0.5041551;-0.5591573;-0.4903047;-0.4390582;-2;-1;1;463;3952;-209;128;-0.265928;0.4196676;0.5983379;0.628612;-6;-3;0;-795;3885;530;4;-0.2243767;-0.1260388;-0.7025834;-0.6634349;-3;-3;8;2105;3396;356;16;0.5774511;-0.536011;0.4806094;0.3850415;-8;-3;-7;31;3886;-614;2;0.6578947;-0.7454883;-0.101108;0.03462604;-1;-2;0;691;4000;-513;8;0.3365651;-0.6135734;0.3559557;0.6193119;-2;-5;0;275;3503;2141;0.2720254;2.657823;0.9006572;0.2779726;3.199795;0.8385875;0.2831977;3.675957;0.7820188;0.3588769;4.4058;0.7900529;0.135253;4.757283;0.7554098;-0.2187845;4.652332;0.8169093;-0.6576657;5.278735;0.2940973;0.09739269;5.444797;0.8419175;0.6528219;4.703616;0.7555699;0.9256487;4.533665;0.8172638;0.9763699;3.662248;1.225106;0.2243481;3.106074;1.376503;-0.04023546;2.615168;0.8982292;0.02307029;1.331157;0.1995398;0;0;0;-0.04023546;2.615168;0.8982292;0.02307029;1.331157;0.1995398;0;0;0
606459.5104;NotLabelled;NONE;16384;-0.4529086;-0.4958449;-0.7236309;0.1592798;4;0;4;2202;-2822;1749;65536;0.8416108;0.1980609;-0.16759;-0.4736842;2;-4;-3;3469;-656;-1887;8192;0.6899662;-0.66759;-0.02770083;0.2783934;4;6;1;1446;3731;-119;32768;0.1966759;-0.806325;0.4833795;0.2783934;4;4;3;2645;2410;1635;256;0.5041551;-0.5591573;-0.4903047;-0.4390582;-2;-2;3;379;3932;-229;128;-0.2645429;0.4210526;0.5983379;0.6282701;-3;0;-1;-669;3877;690;4;-0.2243767;-0.1288089;-0.7033871;-0.6620498;0;-11;7;2123;3294;294;16;0.578959;-0.534626;0.4792244;0.3864266;-9;2;-6;-47;3856;-548;2;0.6578947;-0.7454883;-0.101108;0.03462604;0;-2;1;719;3912;-631;8;0.33518;-0.6135734;0.3559557;0.6200626;-2;-3;0;57;3461;2077;0.2680017;2.655532;0.9022744;0.27395;3.197599;0.8410448;0.2791759;3.673849;0.7852141;0.356667;4.403502;0.7932267;0.1339043;4.755538;0.7586544;-0.220373;4.651466;0.8202634;-0.6531934;5.280777;0.2958942;0.09954411;5.446222;0.8470848;0.6513386;4.700588;0.7586532;0.9237624;4.529961;0.8202619;0.9729257;3.658814;1.228871;0.2192355;3.10416;1.377523;-0.04425912;2.612881;0.899775;0.02306097;1.33162;0.196428;0;0;0;-0.04425912;2.612881;0.899775;0.02306097;1.33162;0.196428;0;0;0
606480.5527;NotLabelled;NONE;16384;-0.4542936;-0.4958449;-0.7227622;0.1592798;4;-2;4;2138;-2760;1769;65536;0.8416587;0.1966759;-0.1689751;-0.4736842;3;-4;-4;3543;-596;-1905;8192;0.6899662;-0.66759;-0.02770083;0.2783934;4;4;0;1436;3643;-65;32768;0.1966759;-0.8068019;0.4833795;0.2770083;4;4;3;2691;2412;1615;256;0.5041551;-0.5602421;-0.4903047;-0.4376731;-2;-1;3;409;3894;-133;128;-0.2645429;0.4210526;0.5969529;0.6295863;-3;1;-2;-733;3939;804;4;-0.2243767;-0.1301939;-0.7018253;-0.6634349;2;-13;5;2303;3286;248;16;0.5790385;-0.536011;0.4764543;0.3878116;-11;12;-5;-13;4008;-510;2;0.6565097;-0.7467083;-0.101108;0.03462604;0;-2;1;631;3822;-593;8;0.33518;-0.6135734;0.3559557;0.6200626;-4;-9;-2;247;3387;1943;0.2652013;2.652786;0.9066287;0.2711507;3.194952;0.8462659;0.2763776;3.671289;0.7911968;0.3538686;4.400943;0.7992095;0.131106;4.752979;0.7646371;-0.2231714;4.648907;0.8262461;-0.6560715;5.278217;0.3019429;0.09666575;5.443662;0.8531335;0.6485403;4.698029;0.764636;0.920964;4.527402;0.8262447;0.9668033;3.655344;1.233294;0.2131255;3.09979;1.378608;-0.04705945;2.61014;0.9040555;0.01566068;1.331988;0.1946518;0;0;0;-0.04705945;2.61014;0.9040555;0.01566068;1.331988;0.1946518;0;0;0
606500.5113;NotLabelled;NONE;16384;-0.4556787;-0.4958449;-0.7218897;0.1592798;4;-2;3;2230;-2834;1809;65536;0.8421577;0.1966759;-0.1703601;-0.4722992;3;-4;-3;3549;-554;-1957;8192;0.6904665;-0.66759;-0.02908587;0.2770083;3;3;0;1460;3623;-45;32768;0.1980609;-0.806463;0.4833795;0.2770083;2;0;2;2735;2374;1623;256;0.5041551;-0.5602421;-0.4903047;-0.4376731;0;0;2;409;3934;-123;128;-0.2631579;0.4210526;0.5969529;0.6301665;-4;3;-1;-751;3981;738;4;-0.2257618;-0.132964;-0.7008612;-0.6634349;1;4;10;2177;3714;704;16;0.579709;-0.5401662;0.4709141;0.3878116;-14;12;-9;1165;4118;-462;2;0.6565097;-0.7468945;-0.09972299;0.03462604;1;-3;-1;559;3866;-533;8;0.333795;-0.6135734;0.3573407;0.6200131;-6;-17;-1;239;3537;1767;0.2552611;2.652855;0.9000787;0.2612126;3.195219;0.8415323;0.2664415;3.671739;0.7880589;0.3457377;4.401199;0.7960738;0.1238469;4.753785;0.7615021;-0.2306869;4.65059;0.8231108;-0.659905;5.280917;0.2970043;0.0914682;5.442927;0.851069;0.6411436;4.697555;0.7615011;0.9131442;4.526254;0.8231095;0.9580364;3.654196;1.230264;0.2028085;3.099732;1.371644;-0.05699967;2.610218;0.8973513;0.01311602;1.333156;0.1866772;0;0;0;-0.05699967;2.610218;0.8973513;0.01311602;1.333156;0.1866772;0;0;0
606521.5596;NotLabelled;NONE;16384;-0.4556787;-0.4958449;-0.7221939;0.1578947;4;0;3;2272;-2840;1821;65536;0.8421577;0.1966759;-0.1703601;-0.4722992;3;-3;-4;3495;-598;-1991;8192;0.6904665;-0.66759;-0.02908587;0.2770083;3;0;0;1508;3681;-83;32768;0.1980609;-0.8061061;0.4847645;0.2756233;1;-1;3;2815;2328;1669;256;0.5041551;-0.5590269;-0.4916897;-0.4376731;0;4;2;421;3910;-163;128;-0.2617728;0.4210526;0.5969529;0.6307431;-6;5;-1;-753;3995;660;4;-0.2271468;-0.134349;-0.701459;-0.6620498;-3;0;10;2055;3730;780;16;0.5774843;-0.5415512;0.4709141;0.3891967;-15;-21;-12;1305;4138;-372;2;0.6565097;-0.7469574;-0.09972299;0.033241;-1;1;-4;715;4164;-377;8;0.3310249;-0.6121883;0.3601108;0.6212633;-7;-23;-1;231;3629;1873;0.2520031;2.65029;0.8951145;0.2579556;3.192744;0.8374025;0.2631854;3.669346;0.7846624;0.3424816;4.398805;0.7926767;0.1205908;4.75139;0.7581049;-0.233943;4.648196;0.8197137;-0.6606009;5.279538;0.2927423;0.08963633;5.440938;0.8485219;0.6378875;4.695161;0.7581041;0.9098883;4.52386;0.8197125;0.9545383;3.651819;1.226929;0.2005348;3.095364;1.367019;-0.06025762;2.607657;0.8923163;0.01270378;1.334825;0.1743786;0;0;0;-0.06025762;2.607657;0.8923163;0.01270378;1.334825;0.1743786;0;0;0
606541.6063;NotLabelled;NONE;16384;-0.4584487;-0.4944598;-0.72139;0.1578947;3;-3;3;2192;-2880;1927;65536;0.8423684;0.1966759;-0.1731302;-0.4709141;2;-2;-5;3563;-618;-2075;8192;0.6905234;-0.66759;-0.02770083;0.2770083;1;0;-3;1550;3665;-71;32768;0.1966759;-0.8064452;0.4847645;0.2756233;0;-3;3;2905;2438;1619;256;0.5027701;-0.5602729;-0.4916897;-0.4376731;0;4;2;469;4030;-163;128;-0.2603878;0.4210526;0.5969529;0.6313161;-4;1;-1;-831;4041;650;4;-0.2285319;-0.1357341;-0.7007421;-0.6620498;-6;-12;9;1967;3578;514;16;0.574829;-0.5401662;0.4722992;0.3933518;-14;-33;-14;487;4052;-292;2;0.6578947;-0.7457983;-0.09972299;0.03185596;-5;8;-4;807;4144;-443;8;0.3282548;-0.6121883;0.3587258;0.6235303;-12;2;0;-287;3531;2131;0.2620863;2.647818;0.8954686;0.2680398;3.190359;0.8385881;0.2732705;3.667041;0.7865785;0.3528307;4.396491;0.7925857;0.1310561;4.749061;0.7571208;-0.2234965;4.646161;0.819115;-0.6522054;5.27574;0.2916981;0.09956072;5.43714;0.8454075;0.6483326;4.692645;0.7571198;0.9202902;4.521415;0.8191133;0.9660627;3.649373;1.226205;0.2113895;3.093598;1.36538;-0.05017429;2.605188;0.8925999;0.01802517;1.335499;0.1686549;0;0;0;-0.05017429;2.605188;0.8925999;0.01802517;1.335499;0.1686549;0;0;0
606562.5274;NotLabelled;NONE;16384;-0.4584487;-0.4944598;-0.72139;0.1578947;3;-4;4;2298;-2838;1853;65536;0.8423684;0.1966759;-0.1731302;-0.4709141;4;-2;-5;3597;-566;-1975;8192;0.689791;-0.6689751;-0.02631579;0.2756233;1;0;-4;1776;3769;-279;32768;0.1966759;-0.8052465;0.4875346;0.2742382;4;-5;3;2893;2398;1749;256;0.5027701;-0.5602729;-0.4916897;-0.4376731;0;3;4;507;4044;-197;128;-0.2590028;0.4210526;0.5969529;0.6318856;-7;0;-2;-805;4043;670;4;-0.2271468;-0.1385041;-0.7019566;-0.6606648;-4;-19;3;1819;3388;570;16;0.5723055;-0.5387812;0.4722992;0.398892;-13;-18;-13;-309;4132;-338;2;0.6592798;-0.7446321;-0.09972299;0.03047091;-4;10;-1;495;4072;-571;8;0.3268698;-0.6121883;0.3573407;0.6250514;-12;-4;0;175;3615;2161;0.2598146;2.645674;0.8944595;0.265769;3.188301;0.8384073;0.2710006;3.665062;0.7871257;0.3523472;4.394295;0.7951939;0.1314489;4.747506;0.7606461;-0.2233743;4.645304;0.8222446;-0.6469562;5.276013;0.2920449;0.1024701;5.435468;0.8494782;0.6485854;4.689822;0.7606451;0.920103;4.517753;0.8222432;0.9662626;3.644896;1.227541;0.2103629;3.09111;1.367986;-0.05244601;2.603049;0.8915203;0.01828747;1.336219;0.1628242;0;0;0;-0.05244601;2.603049;0.8915203;0.01828747;1.336219;0.1628242;0;0;0
606582.51;NotLabelled;NONE;16384;-0.4598338;-0.4944598;-0.7205079;0.1578947;4;-4;4;2252;-2804;1803;65536;0.8420825;0.1966759;-0.1745152;-0.4709141;5;-2;-4;3559;-590;-2027;8192;0.689791;-0.6689751;-0.02631579;0.2756233;1;3;-3;1840;3835;-307;32768;0.1966759;-0.8048772;0.4889196;0.2728532;5;-2;4;2811;2438;1883;256;0.501385;-0.5602968;-0.4930748;-0.4376731;-1;0;3;431;4070;-129;128;-0.2576177;0.4224377;0.5955678;0.6328337;-7;-5;-7;-687;4011;714;4;-0.2243767;-0.1412742;-0.7009898;-0.6620498;2;-24;1;2055;3162;-114;16;0.5736163;-0.5387812;0.4695291;0.400277;-12;23;-7;-895;4020;-498;2;0.6592798;-0.7446876;-0.09972299;0.02908587;-6;5;0;197;4068;-603;8;0.3240997;-0.6121883;0.3573407;0.6264921;-12;-15;-1;175;3585;2109;0.2639107;2.645126;0.8880136;0.269866;3.187838;0.8327862;0.2750984;3.664676;0.7822292;0.3564452;4.393909;0.7902973;0.1355467;4.74712;0.7557496;-0.2192763;4.644917;0.8173481;-0.6428577;5.275628;0.2871481;0.1065687;5.435082;0.8445811;0.6526834;4.689435;0.7557486;0.9242008;4.517367;0.8173465;0.9673608;3.642805;1.219286;0.2105373;3.089298;1.355799;-0.04834982;2.602506;0.8850045;0.01561273;1.33746;0.1525938;0;0;0;-0.04834982;2.602506;0.8850045;0.01561273;1.33746;0.1525938;0;0;0
606602.5329;NotLabelled;NONE;16384;-0.4598338;-0.4944598;-0.7208101;0.1565097;6;-3;3;2256;-2736;1817;65536;0.8417943;0.1966759;-0.1759003;-0.4709141;7;-3;-5;3517;-680;-1895;8192;0.6903428;-0.6689751;-0.02631579;0.2742382;2;5;-3;1768;3681;-177;32768;0.1980609;-0.8045375;0.4889196;0.2728532;6;0;5;2761;2394;1963;256;0.501385;-0.5602968;-0.4930748;-0.4376731;-1;0;1;403;4004;-129;128;-0.2576177;0.4238227;0.5941828;0.6332095;-8;-8;-8;-621;4023;654;4;-0.2229917;-0.1454294;-0.6939722;-0.6689751;29;-12;3;2507;3144;-594;16;0.580349;-0.5484765;0.4556787;0.3933518;-15;84;10;-851;4192;-602;2;0.6592798;-0.7448717;-0.09833795;0.02908587;-4;-8;0;-61;3840;-675;8;0.3213296;-0.6108033;0.3587258;0.6284763;-15;-26;-2;67;3405;1953;0.258334;2.646064;0.8822477;0.2642922;3.189041;0.8296924;0.2695273;3.666123;0.7814831;0.3529197;4.395123;0.7895936;0.1330134;4.748956;0.7550644;-0.2220955;4.647745;0.8166547;-0.6448283;5.279467;0.2869816;0.1049326;5.437578;0.8443472;0.6499863;4.68982;0.7550635;0.9210193;4.516987;0.8166535;0.9654186;3.642425;1.218458;0.2079171;3.089619;1.35405;-0.05392638;2.603459;0.8790119;0.009672903;1.338137;0.1470467;0;0;0;-0.05392638;2.603459;0.8790119;0.009672903;1.338137;0.1470467;0;0;0
606623.4982;NotLabelled;NONE;16384;-0.4612188;-0.4944598;-0.7199246;0.1565097;6;-4;3;2216;-2782;1833;65536;0.8419526;0.1980609;-0.1772853;-0.4695291;7;-4;-4;3495;-690;-1915;8192;0.6889437;-0.6703601;-0.02770083;0.2742382;3;5;-2;1728;3681;-81;32768;0.1980609;-0.8050059;0.4889196;0.2714681;5;0;4;2655;2454;1879;256;0.501385;-0.5602968;-0.4930748;-0.4376731;0;-1;1;421;3986;-55;128;-0.2576177;0.4265928;0.5927978;0.6326472;-4;-15;-8;-627;4001;622;4;-0.2243767;-0.1454294;-0.6894934;-0.6731302;29;9;6;2423;3636;-568;16;0.5868312;-0.5554016;0.4459834;0.3850415;-11;106;16;-555;4064;-518;2;0.6592798;-0.7452322;-0.09556787;0.02908587;0;-23;-3;35;3648;-659;8;0.3171745;-0.6094183;0.3601108;0.6311339;-18;-46;-7;351;3325;1951;0.2286097;2.645875;0.8685998;0.2345698;3.189028;0.817892;0.2398067;3.66627;0.7713059;0.3231991;4.395271;0.7794165;0.1032928;4.749103;0.7448875;-0.251816;4.647893;0.8064778;-0.6750642;5.277853;0.2751198;0.0735072;5.434619;0.8344603;0.6202656;4.689968;0.7448865;0.8912988;4.517135;0.8064766;0.9358612;3.641784;1.206541;0.1795787;3.086993;1.340822;-0.08365061;2.603281;0.8652076;0.005361265;1.33963;0.1330048;0;0;0;-0.08365061;2.603281;0.8652076;0.005361265;1.33963;0.1330048;0;0;0
606664.5179;NotLabelled;NONE;16384;-0.4626039;-0.4944598;-0.7193354;0.1551246;7;-4;3;2228;-2768;1945;65536;0.8416598;0.1980609;-0.1786704;-0.4695291;6;-5;-4;3577;-722;-1891;8192;0.6894934;-0.6703601;-0.02770083;0.2728532;3;4;0;1654;3681;-143;32768;0.1980609;-0.8050059;0.4889196;0.2714681;4;1;2;2591;2478;1927;256;0.501385;-0.561376;-0.4930748;-0.4362881;0;-2;1;341;3946;-59;128;-0.2576177;0.4279778;0.5927978;0.6317111;0;-14;-6;-747;4027;648;4;-0.2285319;-0.1426593;-0.6873505;-0.6745152;21;32;3;2003;3756;352;16;0.5901042;-0.5650969;0.4376731;0.3753462;-7;105;15;891;3828;70;2;0.6592798;-0.746175;-0.08587258;0.03462604;3;-35;-8;1405;4162;-85;8;0.300554;-0.602493;0.3711911;0.6394424;-13;-73;-7;329;3359;2261;0.2077896;2.645157;0.865358;0.2137516;3.188483;0.8165315;0.2189903;3.665883;0.7715983;0.3023826;4.394884;0.7797086;0.08247636;4.748715;0.7451795;-0.2726324;4.647506;0.8067698;-0.6932062;5.278477;0.2744904;0.05302796;5.436743;0.8365256;0.599449;4.689581;0.7451783;0.8704824;4.516747;0.8067684;0.9108862;3.642109;1.208827;0.1534337;3.088426;1.341066;-0.1044705;2.602576;0.8618065;0.002731424;1.339897;0.1303625;0;0;0;-0.1044705;2.602576;0.8618065;0.002731424;1.339897;0.1303625;0;0;0
606684.8932;NotLabelled;NONE;16384;-0.4653739;-0.4930748;-0.7187966;0.1537396;7;1;2;2316;-2858;2159;65536;0.842136;0.1980609;-0.1800554;-0.468144;0;-8;-3;3727;-790;-2045;8192;0.6894364;-0.6703601;-0.02908587;0.2728532;4;0;2;1710;3801;-79;32768;0.199446;-0.8046639;0.4889196;0.2714681;1;-1;0;2771;2514;1951;256;0.501385;-0.561376;-0.4930748;-0.4362881;1;0;1;361;4024;-33;128;-0.2576177;0.4279778;0.5914127;0.6330079;-4;2;-1;-723;4049;764;4;-0.232687;-0.1385041;-0.6868061;-0.6745152;17;34;2;1857;3882;696;16;0.5917241;-0.5720221;0.433518;0.367036;-7;49;11;1709;4296;316;2;0.6592798;-0.7464231;-0.08310249;0.03601108;1;-15;-7;2187;4016;-371;8;0.2922437;-0.5983379;0.3753462;0.6447484;-10;-61;-6;397;2985;2605;0.2044946;2.644064;0.8624207;0.2104566;3.187392;0.8136309;0.2156953;3.664796;0.7687302;0.3008877;4.393589;0.7768428;0.08185583;4.747962;0.7423148;-0.2735018;4.647629;0.8039045;-0.6908399;5.277852;0.2682028;0.05277964;5.434776;0.8340665;0.598681;4.687551;0.7423137;0.8692865;4.514048;0.8039035;0.908921;3.638618;1.204312;0.1511403;3.084935;1.33466;-0.1077655;2.601482;0.858866;0.01241076;1.340155;0.1271073;0;0;0;-0.1077655;2.601482;0.858866;0.01241076;1.340155;0.1271073;0;0;0
606706.5032;NotLabelled;NONE;16384;-0.4653739;-0.4916897;-0.7197447;0.1537396;5;4;2;2214;-2714;2003;65536;0.8432287;0.1966759;-0.1800554;-0.466759;-2;-6;0;3681;-756;-2115;8192;0.6880869;-0.6717451;-0.02908587;0.2728532;3;-3;1;1730;3775;-103;32768;0.1980609;-0.8054717;0.4889196;0.2700831;0;-3;2;3003;2454;1905;256;0.501385;-0.5625895;-0.4916897;-0.4362881;1;0;2;549;4236;-69;128;-0.2562327;0.4279778;0.5914127;0.6335699;-8;0;-3;-801;4145;572;4;-0.2354571;-0.134349;-0.6866874;-0.6745152;7;27;-1;1635;4092;568;16;0.5909098;-0.5747922;0.432133;0.365651;-7;4;3;1027;4172;204;2;0.6592798;-0.746576;-0.08171745;0.03601108;1;4;-6;2043;3972;-505;8;0.2880886;-0.5969529;0.3767313;0.6470902;-8;-23;-2;-91;3403;2675;0.2101725;2.643671;0.864224;0.2161364;3.187158;0.8172408;0.2213767;3.664709;0.7739273;0.306569;4.393502;0.7820401;0.0875372;4.747875;0.7475121;-0.2678205;4.647542;0.8091019;-0.6807532;5.277107;0.2692289;0.06168537;5.43345;0.8368018;0.6043623;4.687464;0.7475112;0.8749679;4.513961;0.8091009;0.9143409;3.639335;1.211288;0.1577895;3.083668;1.340329;-0.1020874;2.601101;0.8605162;0.0236177;1.339754;0.1297215;0;0;0;-0.1020874;2.601101;0.8605162;0.0236177;1.339754;0.1297215;0;0;0
606726.8951;NotLabelled;NONE;16384;-0.466759;-0.4916897;-0.7188473;0.1537396;3;6;2;2114;-2618;1977;65536;0.8439939;0.1966759;-0.1800554;-0.4653739;-2;-6;1;3461;-592;-2127;8192;0.6880869;-0.6717451;-0.02908587;0.2728532;1;-3;0;1890;3701;-191;32768;0.1980609;-0.8046293;0.4903047;0.2700831;0;-4;3;2949;2394;1855;256;0.501385;-0.5625895;-0.4916897;-0.4362881;-1;-2;1;529;4226;-37;128;-0.2548476;0.4293629;0.5914127;0.6331913;-7;-1;-2;-815;4077;646;4;-0.2368421;-0.1301939;-0.6856487;-0.6759003;7;15;-1;1081;3694;-36;16;0.5905721;-0.5761772;0.4307479;0.365651;-5;6;3;-73;4150;-102;2;0.6592798;-0.7464886;-0.08310249;0.03462604;0;13;-2;1619;4584;-287;8;0.2853186;-0.5955678;0.3781163;0.6487837;-4;-17;0;201;3587;2957;0.2100556;2.645344;0.8577974;0.2160202;3.188902;0.8116385;0.2212612;3.666517;0.7690493;0.3061836;4.395317;0.7791907;0.08703892;4.749703;0.7455245;-0.2683114;4.649073;0.8066702;-0.6777245;5.27689;0.262101;0.06426404;5.431901;0.8306261;0.603886;4.68948;0.7456061;0.8745255;4.515908;0.8068517;0.9077682;3.641814;1.210744;0.1484578;3.089239;1.336822;-0.1022043;2.60278;0.85402;0.02902596;1.339927;0.1268061;0;0;0;-0.1022043;2.60278;0.85402;0.02902596;1.339927;0.1268061;0;0;0
606747.5223;NotLabelled;NONE;16384;-0.466759;-0.4903047;-0.7197927;0.1537396;1;3;1;2224;-2862;1903;65536;0.8443155;0.1952908;-0.1800554;-0.4653739;-3;-3;0;3359;-518;-2139;8192;0.6880869;-0.6717451;-0.02908587;0.2728532;1;0;0;1888;3685;-311;32768;0.1980609;-0.8046293;0.4903047;0.2700831;2;-2;4;2879;2372;1885;256;0.501385;-0.5625895;-0.4916897;-0.4362881;-2;-3;2;399;4084;-159;128;-0.2534626;0.4293629;0.5914127;0.633747;-2;5;0;-803;4177;624;4;-0.232687;-0.1274238;-0.6862248;-0.6772853;4;-15;-11;993;3506;144;16;0.592432;-0.5789474;0.4279778;0.3614958;8;9;2;745;4132;118;2;0.6592798;-0.7463961;-0.08448754;0.033241;-2;18;1;1353;4494;25;8;0.2839335;-0.5941828;0.3781163;0.6506586;0;-17;0;-79;3347;2747;0.205246;2.648718;0.8475438;0.2112115;3.192348;0.8022448;0.2164531;3.670031;0.7604111;0.3013771;4.39883;0.7705389;0.08222719;4.753217;0.7369077;-0.2731135;4.652587;0.7981102;-0.6817697;5.282233;0.2550867;0.06034455;5.438003;0.8232409;0.5990743;4.692994;0.7369069;0.8697235;4.519422;0.7981092;0.9042727;3.644716;1.200566;0.1451125;3.091748;1.325823;-0.1070138;2.60616;0.8436936;0.03065166;1.340243;0.1230267;0;0;0;-0.1070138;2.60616;0.8436936;0.03065166;1.340243;0.1230267;0;0;0
606767.6924;NotLabelled;NONE;16384;-0.466759;-0.4903047;-0.7197927;0.1537396;-1;2;0;2294;-3046;1895;65536;0.8443155;0.1952908;-0.1800554;-0.4653739;-4;-1;-1;3639;-530;-2117;8192;0.6880869;-0.6717451;-0.02908587;0.2728532;4;3;2;1942;3743;-367;32768;0.1980609;-0.8050929;0.4903047;0.2686981;4;2;3;2793;2406;2111;256;0.501385;-0.5624497;-0.4930748;-0.434903;-2;0;4;443;4060;-291;128;-0.2548476;0.4279778;0.5914127;0.6341283;0;-1;1;-741;4205;396;4;-0.2285319;-0.1274238;-0.6862528;-0.6786703;4;-16;-14;1655;3776;-106;16;0.5927816;-0.5775623;0.4293629;0.3614958;13;-19;0;145;4090;136;2;0.6592798;-0.7461377;-0.08725762;0.03185596;-4;17;2;967;4100;-223;8;0.2811634;-0.5927978;0.3781163;0.6531202;0;-18;-1;-147;3077;2695;0.2092194;2.655891;0.8366333;0.2151856;3.199589;0.7921529;0.220428;3.677334;0.7510387;0.305352;4.406133;0.7611661;0.08620201;4.76052;0.7275348;-0.2691386;4.65989;0.7887373;-0.6776261;5.288606;0.2445101;0.0656592;5.442278;0.8117034;0.603049;4.700297;0.7275339;0.8736982;4.526725;0.7887363;0.9082441;3.65202;1.191194;0.1490839;3.099051;1.316451;-0.1030404;2.613339;0.8327138;0.03263824;1.340032;0.1248026;0;0;0;-0.1030404;2.613339;0.8327138;0.03263824;1.340032;0.1248026;0;0;0
606788.5115;NotLabelled;NONE;16384;-0.466759;-0.4903047;-0.7194954;0.1551246;0;0;-1;2282;-3032;1635;65536;0.8446347;0.1939058;-0.1800554;-0.4653739;2;1;1;3853;-446;-2019;8192;0.6865435;-0.6731302;-0.033241;0.2728532;7;5;3;1954;3791;-235;32768;0.1980609;-0.8072333;0.4875346;0.267313;0;8;4;2851;2512;2283;256;0.501385;-0.5624497;-0.4930748;-0.434903;-3;6;3;517;4194;-109;128;-0.2548476;0.4279778;0.5914127;0.6341283;9;-2;1;-623;4377;406;4;-0.2257618;-0.1260388;-0.6860543;-0.6800554;6;-7;-15;1971;3972;-274;16;0.5922782;-0.5761772;0.4307479;0.3628809;12;-9;0;-553;4062;356;2;0.6606648;-0.7448061;-0.08864266;0.03047091;-1;-8;1;525;3944;-301;8;0.2783934;-0.5900277;0.3808864;0.6552023;1;-24;-4;325;3375;2415;0.2089789;2.659966;0.8326415;0.2149442;3.203593;0.7873038;0.2201859;3.681273;0.7454362;0.3071743;4.409853;0.7535514;0.08901654;4.764766;0.7190245;-0.2665874;4.665308;0.780614;-0.6750445;5.294025;0.2363643;0.06839649;5.447698;0.8033542;0.6056913;4.703081;0.7190235;0.8758684;4.528912;0.7806125;0.9103919;3.654206;1.183071;0.1501206;3.10235;1.306485;-0.1032809;2.617408;0.8287948;0.03102679;1.339715;0.1285665;0;0;0;-0.1032809;2.617408;0.8287948;0.03102679;1.339715;0.1285665;0;0;0
