SEP=;
index;label;segment;RightUpperArm_boneIndex;RightUpperArm_quat9x_w;RightUpperArm_quat9x_x;RightUpperArm_quat9x_y;RightUpperArm_quat9x_z;RightUpperArm_gyroscope_x;RightUpperArm_gyroscope_y;RightUpperArm_gyroscope_z;RightUpperArm_accelerometer_x;RightUpperArm_accelerometer_y;RightUpperArm_accelerometer_z;RightLowerArm_boneIndex;RightLowerArm_quat9x_w;RightLowerArm_quat9x_x;RightLowerArm_quat9x_y;RightLowerArm_quat9x_z;RightLowerArm_gyroscope_x;RightLowerArm_gyroscope_y;RightLowerArm_gyroscope_z;RightLowerArm_accelerometer_x;RightLowerArm_accelerometer_y;RightLowerArm_accelerometer_z;LeftUpperArm_boneIndex;LeftUpperArm_quat9x_w;LeftUpperArm_quat9x_x;LeftUpperArm_quat9x_y;LeftUpperArm_quat9x_z;LeftUpperArm_gyroscope_x;LeftUpperArm_gyroscope_y;LeftUpperArm_gyroscope_z;LeftUpperArm_accelerometer_x;LeftUpperArm_accelerometer_y;LeftUpperArm_accelerometer_z;LeftLowerArm_boneIndex;LeftLowerArm_quat9x_w;LeftLowerArm_quat9x_x;LeftLowerArm_quat9x_y;LeftLowerArm_quat9x_z;LeftLowerArm_gyroscope_x;LeftLowerArm_gyroscope_y;LeftLowerArm_gyroscope_z;LeftLowerArm_accelerometer_x;LeftLowerArm_accelerometer_y;LeftLowerArm_accelerometer_z;Chest_boneIndex;Chest_quat9x_w;Chest_quat9x_x;Chest_quat9x_y;Chest_quat9x_z;Chest_gyroscope_x;Chest_gyroscope_y;Chest_gyroscope_z;Chest_accelerometer_x;Chest_accelerometer_y;Chest_accelerometer_z;Spine_boneIndex;Spine_quat9x_w;Spine_quat9x_x;Spine_quat9x_y;Spine_quat9x_z;Spine_gyroscope_x;Spine_gyroscope_y;Spine_gyroscope_z;Spine_accelerometer_x;Spine_accelerometer_y;Spine_accelerometer_z;RightUpperLeg_boneIndex;RightUpperLeg_quat9x_w;RightUpperLeg_quat9x_x;RightUpperLeg_quat9x_y;RightUpperLeg_quat9x_z;RightUpperLeg_gyroscope_x;RightUpperLeg_gyroscope_y;RightUpperLeg_gyroscope_z;RightUpperLeg_accelerometer_x;RightUpperLeg_accelerometer_y;RightUpperLeg_accelerometer_z;RightLowerLeg_boneIndex;RightLowerLeg_quat9x_w;RightLowerLeg_quat9x_x;RightLowerLeg_quat9x_y;RightLowerLeg_quat9x_z;RightLowerLeg_gyroscope_x;RightLowerLeg_gyroscope_y;RightLowerLeg_gyroscope_z;RightLowerLeg_accelerometer_x;RightLowerLeg_accelerometer_y;RightLowerLeg_accelerometer_z;LeftUpperLeg_boneIndex;LeftUpperLeg_quat9x_w;LeftUpperLeg_quat9x_x;LeftUpperLeg_quat9x_y;LeftUpperLeg_quat9x_z;LeftUpperLeg_gyroscope_x;LeftUpperLeg_gyroscope_y;LeftUpperLeg_gyroscope_z;LeftUpperLeg_accelerometer_x;LeftUpperLeg_accelerometer_y;LeftUpperLeg_accelerometer_z;LeftLowerLeg_boneIndex;LeftLowerLeg_quat9x_w;LeftLowerLeg_quat9x_x;LeftLowerLeg_quat9x_y;LeftLowerLeg_quat9x_z;LeftLowerLeg_gyroscope_x;LeftLowerLeg_gyroscope_y;LeftLowerLeg_gyroscope_z;LeftLowerLeg_accelerometer_x;LeftLowerLeg_accelerometer_y;LeftLowerLeg_accelerometer_z;pelvis_x;pelvis_y;pelvis_z;lowerSpine_x;lowerSpine_y;lowerSpine_z;middleSpine_x;middleSpine_y;middleSpine_z;upperSpine_x;upperSpine_y;upperSpine_z;rightClavicle_x;rightClavicle_y;rightClavicle_z;rightShoulder_x;rightShoulder_y;rightShoulder_z;rightElbow_x;rightElbow_y;rightElbow_z;rightWrist_x;rightWrist_y;rightWrist_z;leftClavicle_x;leftClavicle_y;leftClavicle_z;leftShoulder_x;leftShoulder_y;leftShoulder_z;leftElbow_x;leftElbow_y;leftElbow_z;leftWrist_x;leftWrist_y;leftWrist_z;rightHip_x;rightHip_y;rightHip_z;rightKnee_x;rightKnee_y;rightKnee_z;rightAnkle_x;rightAnkle_y;rightAnkle_z;leftHip_x;leftHip_y;leftHip_z;leftKnee_x;leftKnee_y;leftKnee_z;leftAnkle_x;leftAnkle_y;leftAnkle_z;
412935.2246;NotLabelled;NONE;16384;-0.434903;-0.4861496;-0.7379321;0.1731302;9;-2;1;2158;-2856;1917;65536;0.8608665;0.2202216;-0.03878116;-0.4570637;5;-7;-6;3219;-1330;-1968;8192;0.7007613;-0.5831025;-0.06509695;0.4058172;2;0;-4;2460;3177;23;32768;0.09418282;-0.8355671;0.533241;0.09279778;-3;2;1;3562;1031;1698;256;0.3933518;-0.4556787;-0.5816548;-0.5470914;-4;-5;2;391;3978;-211;128;-0.101108;0.2382271;0.6887014;0.6772853;0;-7;-1;-823;4077;152;4;-0.2243767;-0.1288089;-0.6941339;-0.6717451;-2;-4;-1;2209;3478;332;16;0.5981039;-0.534626;0.4833795;0.3504155;0;-7;-1;475;3964;-858;2;0.6620498;-0.7440432;-0.08864266;0.01523546;0;0;1;699;3980;-479;8;0.2963989;-0.6149584;0.3573407;0.6374022;0;-2;0;451;3273;2369;0.6339495;2.639371;0.9278173;0.6397867;3.171309;0.8068597;0.6449125;3.638432;0.6985656;0.7163872;4.368636;0.7110552;0.4907535;4.719029;0.6784754;0.1373087;4.611672;0.7392232;-0.4845512;5.241405;0.4652602;0.4049208;5.567894;0.4717191;1.008623;4.668343;0.6784748;1.282406;4.499592;0.7392231;1.719663;3.764979;1.183549;0.8553772;3.519877;1.48475;0.3216887;2.596728;0.9304419;0.1300633;1.316809;0.2478383;0;0;0;0.3216887;2.596728;0.9304419;0.1300633;1.316809;0.2478383;0;0;0
412956.0009;NotLabelled;NONE;16384;-0.434903;-0.4861496;-0.7379321;0.1731302;9;-2;1;2140;-2724;1925;65536;0.861537;0.2202216;-0.0401662;-0.4556787;6;-8;-6;3247;-1292;-2034;8192;0.700408;-0.5844875;-0.06509695;0.4044321;3;0;-4;2538;3209;-45;32768;0.09418282;-0.8355671;0.533241;0.09279778;-3;2;1;3596;993;1594;256;0.3933518;-0.4570637;-0.5805671;-0.5470914;-3;-1;3;431;3964;-153;128;-0.101108;0.2396122;0.6882207;0.6772853;0;-8;-3;-827;4023;174;4;-0.2243767;-0.1301939;-0.6952136;-0.6703601;-2;-2;0;2289;3438;242;16;0.5969819;-0.534626;0.4847645;0.3504155;0;-2;-1;349;4050;-894;2;0.6620498;-0.7440432;-0.08864266;0.01523546;0;-1;1;761;3982;-481;8;0.2963989;-0.6149584;0.3573407;0.6374022;1;-1;0;301;3237;2333;0.6303447;2.639558;0.9285865;0.6361785;3.171193;0.8063084;0.6413013;3.638047;0.6968547;0.7144544;4.36812;0.7070924;0.4896065;4.718929;0.6735674;0.1359487;4.612566;0.7348245;-0.4858648;5.241364;0.4586163;0.4038958;5.567033;0.4665357;1.007358;4.667056;0.6734515;1.280786;4.497863;0.7345687;1.717879;3.761067;1.175428;0.8535957;3.51813;1.478388;0.3180841;2.596921;0.9313254;0.1262617;1.317002;0.2487781;0;0;0;0.3180841;2.596921;0.9313254;0.1262617;1.317002;0.2487781;0;0;0
412977.0391;NotLabelled;NONE;16384;-0.4362881;-0.4847645;-0.7383493;0.1717452;9;0;0;2188;-2630;1913;65536;0.8622025;0.2202216;-0.04155125;-0.4542936;5;-7;-5;3273;-1408;-2086;8192;0.7005354;-0.5844875;-0.06371191;0.4044321;3;0;-3;2620;3153;-103;32768;0.09279778;-0.8366041;0.5318559;0.09279778;-1;2;1;3646;1079;1606;256;0.3933518;-0.4570637;-0.5818692;-0.5457063;-2;4;1;365;3994;-149;128;-0.1024931;0.2409972;0.6875319;0.6772853;0;-10;-3;-799;3971;206;4;-0.2243767;-0.1301939;-0.6952136;-0.6703601;0;1;1;2153;3360;156;16;0.5961668;-0.534626;0.4847645;0.3518005;-1;0;-1;273;4010;-944;2;0.6606648;-0.7451074;-0.0900277;0.01523546;2;0;1;809;4012;-495;8;0.2963989;-0.6149584;0.3573407;0.6374022;0;0;0;243;3283;2303;0.6374017;2.637648;0.9306011;0.6432373;3.169449;0.809046;0.6483617;3.63645;0.7002275;0.7219623;4.366449;0.7123471;0.4973478;4.717483;0.6796031;0.143595;4.611185;0.7404227;-0.4773869;5.239295;0.4608003;0.4126233;5.564149;0.4729757;1.015067;4.665287;0.6796018;1.288361;4.495771;0.7404207;1.720984;3.758428;1.184758;0.8558429;3.515491;1.485256;0.325141;2.595007;0.9332774;0.129235;1.316694;0.2488842;0;0;0;0.325141;2.595007;0.9332774;0.129235;1.316694;0.2488842;0;0;0
412998.1585;NotLabelled;NONE;16384;-0.4376731;-0.4847645;-0.7378503;0.1703601;7;0;1;2148;-2610;2041;65536;0.8618476;0.2216066;-0.04155125;-0.4542936;3;-7;-3;3221;-1408;-2046;8192;0.6992499;-0.5858725;-0.06509695;0.4044321;3;0;0;2618;3131;-23;32768;0.09279778;-0.8366041;0.5318559;0.09279778;-1;2;1;3520;1119;1740;256;0.3933518;-0.4556787;-0.5829545;-0.5457063;-2;8;1;401;3982;-79;128;-0.1038781;0.2423823;0.6868368;0.6772853;1;-5;-1;-815;3987;260;4;-0.2257618;-0.1301939;-0.6947651;-0.6703601;1;5;2;2051;3446;156;16;0.5985271;-0.533241;0.4833795;0.3518005;-2;3;0;203;3980;-852;2;0.6606648;-0.7451074;-0.0900277;0.01523546;0;5;0;829;3940;-491;8;0.2963989;-0.6149584;0.3573407;0.6374022;0;-3;0;267;3313;2357;0.6366246;2.638286;0.9277015;0.6424619;3.170251;0.8068672;0.647588;3.6374;0.6986814;0.7228648;4.367262;0.7085708;0.4990451;4.718707;0.6748335;0.1450687;4.613406;0.7360818;-0.4756714;5.23988;0.4522854;0.4146091;5.563925;0.4661304;1.016644;4.665326;0.6748326;1.289567;4.495369;0.7360808;1.721995;3.756801;1.178571;0.8569013;3.516118;1.481016;0.3243638;2.595642;0.9303152;0.1284129;1.317328;0.2459351;0;0;0;0.3243638;2.595642;0.9303152;0.1284129;1.317328;0.2459351;0;0;0
413019.0009;NotLabelled;NONE;16384;-0.4390582;-0.4833795;-0.7382544;0.1689751;2;-1;0;2248;-2748;2001;65536;0.8625084;0.2216066;-0.04293629;-0.4529086;2;-2;-2;3155;-1388;-2070;8192;0.6992499;-0.5858725;-0.06509695;0.4044321;2;0;-1;2592;3181;35;32768;0.09279778;-0.8366041;0.5318559;0.09279778;-1;3;0;3616;1067;1790;256;0.3933518;-0.4556787;-0.5829545;-0.5457063;-2;6;1;325;4046;-85;128;-0.1038781;0.2437673;0.6877104;0.6759003;1;1;-1;-811;4057;122;4;-0.2271468;-0.1301939;-0.6943135;-0.6703601;3;8;2;1899;3548;246;16;0.5972903;-0.534626;0.4833795;0.3518005;-3;4;-1;439;4040;-698;2;0.6606648;-0.7449387;-0.09141274;0.01523546;0;6;-1;735;3998;-447;8;0.2950138;-0.6149584;0.3573407;0.6380444;0;-7;0;289;3323;2265;0.6313131;2.636735;0.9340144;0.6371523;3.168864;0.813906;0.6422801;3.63616;0.7063577;0.7171022;4.366092;0.7143813;0.4930537;4.717311;0.6798137;0.1391592;4.611943;0.7414209;-0.4818028;5.237608;0.4563281;0.4077195;5.563767;0.4692749;1.010685;4.664254;0.6798123;1.283731;4.494623;0.7414187;1.714805;3.756728;1.186347;0.8505092;3.516047;1.491063;0.3190523;2.594088;0.9365655;0.1223601;1.317182;0.2497743;0;0;0;0.3190523;2.594088;0.9365655;0.1223601;1.317182;0.2497743;0;0;0
413038.983;NotLabelled;NONE;16384;-0.4390582;-0.4833795;-0.7382544;0.1689751;2;0;0;2194;-2706;2005;65536;0.8625084;0.2216066;-0.04293629;-0.4529086;1;0;-1;3277;-1296;-2004;8192;0.6993775;-0.5858725;-0.06371191;0.4044321;2;0;-2;2690;3163;-39;32768;0.09279778;-0.8366041;0.5318559;0.09279778;-3;2;0;3644;1085;1628;256;0.3919668;-0.4556787;-0.5838866;-0.5457063;-2;3;1;423;4024;-125;128;-0.1038781;0.2437673;0.6877104;0.6759003;1;-1;-2;-797;4031;102;4;-0.2285319;-0.1288089;-0.6941173;-0.6703601;1;8;3;1937;3638;252;16;0.5971683;-0.536011;0.4819945;0.3518005;-3;6;0;515;3954;-548;2;0.6620498;-0.7435636;-0.09279778;0.01385042;0;7;-1;673;3950;-363;8;0.2936288;-0.6135734;0.3587258;0.6392384;1;-6;0;263;3327;2375;0.6332871;2.638035;0.9266008;0.6391231;3.169871;0.8051984;0.644248;3.636903;0.696514;0.7190704;4.366853;0.7027603;0.495021;4.717987;0.6673445;0.1411281;4.61277;0.7292166;-0.4795574;5.236078;0.4384159;0.4102319;5.561469;0.4522766;1.012653;4.66493;0.6674589;1.2857;4.49545;0.7294708;1.71673;3.758639;1.176236;0.8524414;3.518698;1.481559;0.3210264;2.595393;0.9292637;0.1253848;1.318227;0.2426563;0;0;0;0.3210264;2.595393;0.9292637;0.1253848;1.318227;0.2426563;0;0;0
413060.005;NotLabelled;NONE;16384;-0.4390582;-0.4833795;-0.7382544;0.1689751;3;1;0;2128;-2816;1911;65536;0.8624384;0.2216066;-0.04432133;-0.4529086;2;-2;-2;3225;-1210;-2058;8192;0.6993775;-0.5858725;-0.06371191;0.4044321;1;1;0;2638;3205;3;32768;0.09279778;-0.8373284;0.5304709;0.09418282;-2;2;0;3544;1159;1718;256;0.3919668;-0.4542936;-0.5849649;-0.5457063;-3;3;0;415;4036;-121;128;-0.1038781;0.2451524;0.6872179;0.6759003;0;2;-2;-753;4061;238;4;-0.2285319;-0.1288089;-0.6941173;-0.6703601;0;7;3;1887;3564;276;16;0.5971683;-0.536011;0.4819945;0.3518005;-3;-1;-1;613;3964;-544;2;0.6620498;-0.743588;-0.09279778;0.01246537;0;7;0;737;4024;-423;8;0.2936288;-0.6121883;0.3601108;0.6397873;2;-10;0;359;3309;2367;0.6330208;2.63652;0.9289859;0.6388566;3.168355;0.8075836;0.6439816;3.635388;0.6988991;0.7205361;4.36514;0.7069251;0.4973221;4.71689;0.6723584;0.1431784;4.612363;0.7339649;-0.4781774;5.236377;0.4461242;0.4116437;5.561733;0.4587105;1.014827;4.662604;0.6723574;1.287469;4.492326;0.7339635;1.719352;3.753205;1.176064;0.8557733;3.512524;1.482808;0.32076;2.593878;0.931649;0.1253005;1.318372;0.2419102;0;0;0;0.32076;2.593878;0.931649;0.1253005;1.318372;0.2419102;0;0;0
413080.9966;NotLabelled;NONE;16384;-0.4390582;-0.4833795;-0.7382544;0.1689751;4;0;0;2188;-2802;1821;65536;0.8631643;0.2216066;-0.04432133;-0.4515235;2;-3;-1;3383;-1136;-1988;8192;0.7001766;-0.5858725;-0.06371191;0.4030471;0;1;0;2600;3193;13;32768;0.09279778;-0.8373284;0.5304709;0.09418282;-1;2;0;3624;1181;1672;256;0.3919668;-0.4542936;-0.5849649;-0.5457063;-2;4;0;349;4084;-93;128;-0.1038781;0.2437673;0.6877104;0.6759003;0;6;0;-691;4127;154;4;-0.2299169;-0.1274238;-0.6939155;-0.6703601;0;5;2;1863;3546;274;16;0.5963501;-0.536011;0.4819945;0.3531856;-3;-8;-2;499;4044;-656;2;0.6606648;-0.7446451;-0.09418282;0.01246537;1;7;0;689;3962;-435;8;0.2922437;-0.6121883;0.3614958;0.6396403;2;-15;-1;363;3319;2287;0.6354599;2.636524;0.928205;0.6412977;3.168529;0.8075442;0.6464242;3.635712;0.6995107;0.7225128;4.36553;0.7056762;0.4990641;4.71705;0.6702814;0.1450037;4.612451;0.7322445;-0.477141;5.236464;0.4461125;0.4131258;5.560604;0.4585987;1.016603;4.663097;0.6702811;1.289371;4.493147;0.7322447;1.722468;3.754028;1.173157;0.8608898;3.51207;1.484489;0.3231992;2.593879;0.9308038;0.1259337;1.318373;0.2415803;0;0;0;0.3231992;2.593879;0.9308038;0.1259337;1.318373;0.2415803;0;0;0
413101.2185;NotLabelled;NONE;16384;-0.4404432;-0.4819945;-0.738335;0.1689751;5;-1;-1;2136;-2772;1839;65536;0.8630921;0.2216066;-0.04570637;-0.4515235;3;-4;0;3405;-1256;-1972;8192;0.6988876;-0.5872576;-0.06509695;0.4030471;1;1;0;2698;3221;7;32768;0.09279778;-0.8373284;0.5304709;0.09418282;-1;1;-1;3628;1111;1698;256;0.3919668;-0.4542936;-0.5849649;-0.5457063;-3;6;0;379;4124;-111;128;-0.1038781;0.2437673;0.6877104;0.6759003;-1;-1;1;-711;4127;54;4;-0.2299169;-0.1274238;-0.6939155;-0.6703601;-1;2;2;1847;3614;336;16;0.5963501;-0.536011;0.4819945;0.3531856;-2;-6;-2;327;4090;-636;2;0.6606648;-0.744667;-0.09418282;0.01108033;2;2;0;501;4038;-391;8;0.2908587;-0.6108033;0.3628809;0.6408104;2;-15;-1;247;3313;2201;0.6328046;2.637151;0.9256892;0.6386405;3.168987;0.804287;0.6437653;3.636019;0.6956026;0.7198539;4.365839;0.701768;0.4964052;4.717357;0.6663731;0.1423449;4.612758;0.7283364;-0.4797252;5.236772;0.4420418;0.4103954;5.561331;0.4540285;1.013944;4.663404;0.6663729;1.286712;4.493455;0.7283363;1.719276;3.753253;1.167955;0.8576982;3.511296;1.479287;0.3205439;2.594509;0.9283524;0.1250725;1.318989;0.2386436;0;0;0;0.3205439;2.594509;0.9283524;0.1250725;1.318989;0.2386436;0;0;0
413122.0933;NotLabelled;NONE;16384;-0.4404432;-0.4819945;-0.7386506;0.16759;6;0;-2;2216;-2826;1915;65536;0.8630921;0.2216066;-0.04570637;-0.4515235;4;-5;0;3333;-1288;-1996;8192;0.7001766;-0.5858725;-0.06371191;0.4030471;0;1;0;2594;3233;21;32768;0.09279778;-0.8373284;0.5304709;0.09418282;-1;1;-2;3608;1209;1754;256;0.3919668;-0.4529086;-0.5860379;-0.5457063;-4;7;0;425;4080;-29;128;-0.1038781;0.2437673;0.6877104;0.6759003;0;-11;1;-755;4079;114;4;-0.2299169;-0.1274238;-0.6952509;-0.6689751;-1;-2;0;1925;3602;198;16;0.5948234;-0.534626;0.4833795;0.3559557;-1;-9;-1;583;4056;-658;2;0.6606648;-0.744667;-0.09418282;0.01108033;2;2;0;499;4072;-465;8;0.2894737;-0.6094183;0.365651;0.6411815;3;-20;-2;455;3345;2317;0.6328046;2.637151;0.9256892;0.6386405;3.168987;0.804287;0.6437653;3.636019;0.6956026;0.7198539;4.365839;0.701768;0.4964052;4.717357;0.6663731;0.1423449;4.612758;0.7283364;-0.4782708;5.236906;0.4391923;0.4122588;5.560251;0.4534132;1.013944;4.663404;0.6663729;1.286712;4.493455;0.7283363;1.716773;3.753932;1.171538;0.8551955;3.511974;1.48287;0.3205439;2.594509;0.9283524;0.1250725;1.318989;0.2386436;0;0;0;0.3205439;2.594509;0.9283524;0.1250725;1.318989;0.2386436;0;0;0
413142.0533;NotLabelled;NONE;16384;-0.4418283;-0.4819945;-0.7381362;0.166205;8;-1;-1;2166;-2764;1919;65536;0.864105;0.2229917;-0.04709141;-0.4487534;6;-6;0;3259;-1342;-2068;8192;0.7000492;-0.5858725;-0.06509695;0.4030471;0;0;1;2668;3251;-15;32768;0.09279778;-0.8382042;0.5290859;0.09418282;-1;3;-2;3570;1233;1736;256;0.3919668;-0.4529086;-0.5860379;-0.5457063;-6;1;-1;393;4014;-41;128;-0.1066482;0.2451524;0.6867935;0.6759003;0;0;1;-759;4055;126;4;-0.2299169;-0.1288089;-0.6936597;-0.6703601;-2;-3;0;2019;3632;96;16;0.5948234;-0.534626;0.4833795;0.3559557;0;-1;-1;-47;4070;-556;2;0.6606648;-0.744667;-0.09418282;0.01108033;4;-4;1;495;4000;-445;8;0.2853186;-0.6066482;0.3698061;0.6432843;2;-23;-2;209;3351;2289;0.6394773;2.637454;0.9214505;0.6453132;3.169289;0.8000482;0.650438;3.636322;0.6913636;0.7260522;4.366203;0.6956746;0.5023649;4.717487;0.6594549;0.148389;4.612813;0.7217743;-0.4742319;5.235164;0.4330665;0.4163321;5.558508;0.4449585;1.019939;4.66387;0.6594542;1.292834;4.494257;0.7217729;1.726603;3.754054;1.160202;0.8658434;3.512096;1.473786;0.3272166;2.594812;0.9241136;0.1246287;1.31949;0.236094;0;0;0;0.3272166;2.594812;0.9241136;0.1246287;1.31949;0.236094;0;0;0
413163.0068;NotLabelled;NONE;16384;-0.4418283;-0.4806094;-0.7393489;0.1648199;9;-2;-1;2234;-2712;1961;65536;0.864105;0.2229917;-0.04709141;-0.4487534;6;-7;0;3269;-1368;-2026;8192;0.7000492;-0.5858725;-0.06509695;0.4030471;-2;1;1;2662;3137;55;32768;0.09418282;-0.8387659;0.5277008;0.09556787;0;3;-2;3592;1147;1670;256;0.3933518;-0.4515235;-0.587465;-0.5443213;-6;0;-2;307;4018;-57;128;-0.1080332;0.2451524;0.686577;0.6759003;1;-1;1;-635;4149;210;4;-0.2299169;-0.1288089;-0.6936597;-0.6703601;-1;-2;0;1937;3516;112;16;0.5959463;-0.534626;0.4819945;0.3559557;1;7;1;135;4016;-510;2;0.6592798;-0.7460452;-0.09279778;0.01246537;5;-7;0;535;4044;-365;8;0.2839335;-0.6052631;0.3725762;0.6436034;1;-20;-2;79;3393;2341;0.6347694;2.636222;0.9251697;0.6406071;3.168222;0.804494;0.6457337;3.635404;0.6964474;0.7213473;4.365285;0.7007678;0.4976646;4.716568;0.6645201;0.1436809;4.611895;0.7267947;-0.4782892;5.233028;0.434091;0.4115939;5.558126;0.4487688;1.015239;4.662951;0.6645845;1.288126;4.493338;0.7269375;1.72198;3.754959;1.168347;0.8612932;3.513094;1.482206;0.3225086;2.593577;0.92777;0.1245989;1.31949;0.2361099;0;0;0;0.3225086;2.593577;0.92777;0.1245989;1.31949;0.2361099;0;0;0
413184.0041;NotLabelled;NONE;16384;-0.4432133;-0.4806094;-0.7388272;0.1634349;9;-2;-1;2140;-2718;1975;65536;0.864388;0.2243767;-0.04847645;-0.4473684;6;-6;0;3259;-1414;-2148;8192;0.7000492;-0.5858725;-0.06509695;0.4030471;-2;2;2;2668;3127;15;32768;0.09418282;-0.8386069;0.5277008;0.09695291;0;2;-3;3512;1177;1700;256;0.3933518;-0.4515235;-0.587465;-0.5443213;-7;0;-2;427;4092;-73;128;-0.1080332;0.2451524;0.6879378;0.6745152;1;-1;2;-729;4137;154;4;-0.2299169;-0.1288089;-0.6936597;-0.6703601;0;-1;0;1831;3498;64;16;0.5959463;-0.534626;0.4819945;0.3559557;1;0;0;483;3988;-644;2;0.6592798;-0.7462161;-0.09141274;0.01246537;4;-8;0;453;4138;-381;8;0.2825485;-0.6038781;0.3739612;0.6447098;0;-14;-1;-29;3525;2295;0.6315183;2.636511;0.9253167;0.6373561;3.16851;0.8046339;0.6424826;3.635689;0.6965815;0.7175429;4.365642;0.6968161;0.4935673;4.716549;0.6587843;0.1397068;4.611953;0.7218835;-0.4839942;5.230825;0.4280759;0.4058952;5.555923;0.4423541;1.011182;4.663326;0.6587833;1.284241;4.494267;0.7218821;1.718342;3.755286;1.16204;0.8590748;3.509983;1.477117;0.3192576;2.593866;0.9279173;0.1210371;1.319779;0.2363466;0;0;0;0.3192576;2.593866;0.9279173;0.1210371;1.319779;0.2363466;0;0;0
413205.1249;NotLabelled;NONE;16384;-0.4432133;-0.4806094;-0.7391322;0.1620499;9;-4;-2;2208;-2716;2005;65536;0.8651034;0.2243767;-0.04847645;-0.4459834;6;-6;0;3197;-1412;-2108;8192;0.701206;-0.5844875;-0.06509695;0.4030471;-2;1;2;2702;3119;29;32768;0.09418282;-0.8386069;0.5277008;0.09695291;0;3;-4;3662;1101;1796;256;0.3947368;-0.4501385;-0.5875989;-0.5443213;-7;0;-2;397;4056;-47;128;-0.1094183;0.2465374;0.6872236;0.6745152;2;-6;2;-731;4103;156;4;-0.2299169;-0.1288089;-0.6936597;-0.6703601;0;0;-1;1751;3608;310;16;0.5948234;-0.534626;0.4833795;0.3559557;2;-6;0;501;3988;-726;2;0.6592798;-0.7462161;-0.09141274;0.01246537;2;-5;0;523;4234;-307;8;0.2825485;-0.602493;0.3739612;0.6460043;0;-4;0;-39;3437;2359;0.6318429;2.6365;0.9250309;0.6376755;3.168036;0.8023235;0.6427974;3.634801;0.6924928;0.7178577;4.364752;0.6927016;0.4938689;4.71566;0.6547483;0.1400306;4.611064;0.7179714;-0.4832612;5.230239;0.4239327;0.4060881;5.556676;0.4410684;1.011484;4.662437;0.654566;1.284565;4.493378;0.7175694;1.718955;3.752727;1.154624;0.8609008;3.506067;1.47194;0.3195822;2.593865;0.9278072;0.1211196;1.319779;0.2363052;0;0;0;0.3195822;2.593865;0.9278072;0.1211196;1.319779;0.2363052;0;0;0
413225.1069;NotLabelled;NONE;16384;-0.4432133;-0.4806094;-0.7394345;0.1606648;8;-3;-3;2308;-2718;2071;65536;0.8647431;0.2257618;-0.04847645;-0.4459834;6;-5;0;3237;-1404;-2182;8192;0.701076;-0.5844875;-0.06648199;0.4030471;-1;0;2;2638;3185;15;32768;0.09418282;-0.8394769;0.5263157;0.09695291;-1;3;-4;3626;1109;1796;256;0.3947368;-0.4501385;-0.5888789;-0.5429363;-6;0;-2;359;4100;-27;128;-0.1108033;0.2465374;0.6870016;0.6745152;1;-6;2;-693;4135;214;4;-0.2285319;-0.1288089;-0.6941173;-0.6703601;-1;-5;0;2029;3604;356;16;0.5941086;-0.533241;0.4847645;0.3573407;1;-7;-1;587;3974;-654;2;0.6592798;-0.7463601;-0.0900277;0.01385042;0;-7;0;635;4264;-353;8;0.2825485;-0.602493;0.3739612;0.6460043;-1;-1;0;163;3463;2409;0.6354074;2.636216;0.9248356;0.641242;3.167921;0.8028653;0.6463655;3.634837;0.6936818;0.7192135;4.365011;0.6920751;0.4941661;4.715143;0.6532248;0.14064;4.609632;0.7166759;-0.4837863;5.225878;0.4189122;0.4054122;5.552745;0.4356456;1.01194;4.663488;0.6532238;1.285526;4.495415;0.7166744;1.722517;3.756989;1.154897;0.8644276;3.510329;1.472118;0.3231468;2.593577;0.9275481;0.1247613;1.31949;0.2360241;0;0;0;0.3231468;2.593577;0.9275481;0.1247613;1.31949;0.2360241;0;0;0
413246.1763;NotLabelled;NONE;16384;-0.4445983;-0.4792244;-0.7400984;0.1578947;7;-3;-3;2312;-2658;2131;65536;0.8657252;0.2271468;-0.04986149;-0.4432133;6;-3;3;3237;-1548;-2114;8192;0.701206;-0.5844875;-0.06509695;0.4030471;-2;0;2;2646;3265;45;32768;0.09556787;-0.8391592;0.5263157;0.09833795;-1;3;-4;3584;1193;1716;256;0.3961219;-0.4487534;-0.589006;-0.5429363;-7;0;-2;391;4092;-59;128;-0.1121884;0.2465374;0.6867768;0.6745152;1;-4;2;-753;4075;190;4;-0.2271468;-0.1301939;-0.6943135;-0.6703601;-3;-7;0;2157;3558;318;16;0.5929757;-0.533241;0.4861496;0.3573407;1;-10;0;537;4028;-678;2;0.6592798;-0.7465259;-0.08864266;0.01385042;0;-8;1;571;4094;-353;8;0.2825485;-0.602493;0.3739612;0.6460043;-1;0;0;277;3429;2363;0.6363597;2.637526;0.9225867;0.6421942;3.16923;0.8006099;0.6473178;3.636145;0.6914208;0.7218128;4.366144;0.687592;0.4975443;4.716665;0.6477547;0.1438004;4.612144;0.7116296;-0.4818234;5.226582;0.412646;0.4065678;5.555565;0.430746;1.0152;4.663842;0.6477538;1.288425;4.495343;0.7116281;1.725576;3.75814;1.151749;0.8676236;3.51158;1.469418;0.3240989;2.594887;0.9252996;0.1245982;1.319381;0.2367198;0;0;0;0.3240989;2.594887;0.9252996;0.1245982;1.319381;0.2367198;0;0;0
413267.0874;NotLabelled;NONE;16384;-0.4445983;-0.4792244;-0.7403925;0.1565097;6;-3;-3;2336;-2622;2097;65536;0.8653606;0.2285319;-0.04986149;-0.4432133;5;-3;2;3117;-1566;-2166;8192;0.7022284;-0.5831025;-0.06648199;0.4030471;-2;1;4;2670;3231;69;32768;0.09695291;-0.8390003;0.5263157;0.09833795;0;3;-5;3596;1163;1576;256;0.3975069;-0.4473684;-0.5891265;-0.5429363;-4;1;-2;271;4018;-75;128;-0.1135734;0.2465374;0.6865491;0.6745152;0;0;3;-781;4075;240;4;-0.2257618;-0.1315789;-0.6958383;-0.6689751;-4;-7;0;2115;3482;188;16;0.5933833;-0.5318559;0.4861496;0.3587258;0;-11;0;275;4034;-840;2;0.6592798;-0.7466325;-0.08725762;0.0166205;0;-6;1;733;4028;-469;8;0.2811634;-0.602493;0.3739612;0.6466083;0;0;1;385;3319;2307;0.6420256;2.637218;0.9216913;0.6478601;3.168921;0.7997077;0.6529836;3.635834;0.6905125;0.7252607;4.366045;0.6848488;0.4999189;4.715782;0.6441966;0.1465098;4.610348;0.708421;-0.4800756;5.221273;0.4043002;0.4075995;5.552041;0.4248579;1.017733;4.664531;0.6441954;1.291484;4.497022;0.7084193;1.72855;3.758596;1.146569;0.8718547;3.508508;1.464873;0.3297649;2.59458;0.9244049;0.1283307;1.319087;0.2363629;0;0;0;0.3297649;2.59458;0.9244049;0.1283307;1.319087;0.2363629;0;0;0
413288.1295;NotLabelled;NONE;16384;-0.4445983;-0.4792244;-0.740684;0.1551246;4;0;-4;2364;-2614;2141;65536;0.8660686;0.2285319;-0.04986149;-0.4418283;4;-1;2;3121;-1480;-2104;8192;0.7033762;-0.5817174;-0.06648199;0.4030471;-2;1;3;2654;3267;107;32768;0.09695291;-0.8388368;0.5263157;0.09972299;0;1;-6;3552;1145;1726;256;0.3975069;-0.4473684;-0.5891265;-0.5429363;-4;2;-3;293;3960;-13;128;-0.1135734;0.2465374;0.6865491;0.6745152;1;-1;2;-747;4115;146;4;-0.2257618;-0.132964;-0.695575;-0.6689751;-4;-7;0;2095;3464;164;16;0.5926473;-0.5304709;0.4875346;0.3601108;0;-5;0;103;4036;-918;2;0.6592798;-0.7466003;-0.08725762;0.01800554;1;-4;1;773;3984;-505;8;0.2811634;-0.602493;0.3739612;0.6466083;0;0;0;439;3327;2279;0.6454492;2.637187;0.9209319;0.6512836;3.168888;0.7989419;0.6564072;3.635801;0.6897413;0.7264609;4.366211;0.6822494;0.5000465;4.715159;0.6407856;0.1469751;4.60881;0.705358;-0.4808655;5.21792;0.4001869;0.4059891;5.550803;0.4219814;1.018014;4.665484;0.6407843;1.292289;4.498968;0.7053561;1.732355;3.762331;1.143514;0.8758087;3.51007;1.4605;0.3331884;2.594549;0.923646;0.1245396;1.319273;0.2373553;0;0;0;0.3331884;2.594549;0.923646;0.1245396;1.319273;0.2373553;0;0;0
413308.0719;NotLabelled;NONE;16384;-0.4445983;-0.4792244;-0.7409727;0.1537396;3;0;-4;2348;-2602;2137;65536;0.8657806;0.2299169;-0.04847645;-0.4418283;3;0;2;3203;-1554;-2074;8192;0.7033762;-0.5817174;-0.06648199;0.4030471;-3;0;2;2498;3145;61;32768;0.09695291;-0.8397042;0.5249307;0.09972299;-2;1;-5;3544;1073;1824;256;0.3975069;-0.4459834;-0.5901757;-0.5429363;-3;0;-3;273;4074;-33;128;-0.1149584;0.2465374;0.6863185;0.6745152;2;0;3;-781;4031;120;4;-0.2243767;-0.134349;-0.695757;-0.6689751;-1;-8;0;2183;3468;90;16;0.5926473;-0.5304709;0.4875346;0.3601108;0;0;0;-23;3936;-838;2;0.6578947;-0.7478211;-0.08725762;0.01800554;1;-1;1;631;3952;-533;8;0.2811634;-0.602493;0.3739612;0.6466083;0;0;0;313;3363;2257;0.6460284;2.635648;0.92404;0.6518629;3.167349;0.8020499;0.6569864;3.634261;0.6928493;0.7270402;4.364672;0.6853575;0.5006257;4.71362;0.6438937;0.1475543;4.607271;0.7084662;-0.4814702;5.214565;0.4021141;0.4052326;5.547884;0.4233977;1.018593;4.663945;0.6438924;1.292868;4.497429;0.7084643;1.735651;3.761368;1.14485;0.8802223;3.507756;1.463769;0.3337676;2.59301;0.9267541;0.1243955;1.319164;0.238031;0;0;0;0.3337676;2.59301;0.9267541;0.1243955;1.319164;0.238031;0;0;0
413329.004;NotLabelled;NONE;16384;-0.4445983;-0.4792244;-0.7409727;0.1537396;3;0;-4;2270;-2616;2137;65536;0.8657806;0.2299169;-0.04847645;-0.4418283;1;0;2;3209;-1576;-2056;8192;0.7033762;-0.5817174;-0.06648199;0.4030471;-3;-1;2;2416;3065;131;32768;0.09833795;-0.8393775;0.5249307;0.101108;-3;1;-5;3560;1057;1606;256;0.398892;-0.4459834;-0.5892404;-0.5429363;-2;0;-3;327;4052;59;128;-0.1149584;0.2465374;0.6863185;0.6745152;2;4;3;-831;4115;214;4;-0.2243767;-0.1357341;-0.6941532;-0.6703601;1;-4;0;2211;3382;58;16;0.593784;-0.5304709;0.4861496;0.3601108;-1;5;1;175;4038;-774;2;0.6578947;-0.7478211;-0.08725762;0.01800554;0;-3;0;607;4062;-437;8;0.2825485;-0.602493;0.3739612;0.6460043;0;3;0;261;3431;2329;0.6501637;2.635634;0.922664;0.655998;3.167334;0.8006673;0.6611215;3.634245;0.6914609;0.7306626;4.364683;0.6821455;0.5039943;4.713369;0.639872;0.1510127;4.606934;0.7047911;-0.4799777;5.212408;0.3988808;0.4055438;5.549035;0.4170617;1.021996;4.664056;0.6398711;1.296403;4.497893;0.7047899;1.740307;3.761832;1.140034;0.8858223;3.508321;1.461555;0.3379029;2.592996;0.9253787;0.1250078;1.319164;0.23771;0;0;0;0.3379029;2.592996;0.9253787;0.1250078;1.319164;0.23771;0;0;0
413350.1922;NotLabelled;NONE;16384;-0.4432133;-0.4778393;-0.7429802;0.1523546;0;1;-5;2382;-2720;2165;65536;0.8654881;0.2313019;-0.04709141;-0.4418283;0;0;2;3195;-1576;-2086;8192;0.7045193;-0.5803324;-0.06648199;0.4030471;-3;-3;1;2502;3099;17;32768;0.09833795;-0.8393775;0.5249307;0.101108;-3;0;-5;3576;1069;1596;256;0.398892;-0.4459834;-0.5892404;-0.5429363;-2;0;-2;351;3988;-37;128;-0.1149584;0.2465374;0.6863185;0.6745152;1;3;2;-867;4009;212;4;-0.2257618;-0.1357341;-0.693704;-0.6703601;1;7;1;2095;3546;264;16;0.5933833;-0.5318559;0.4861496;0.3587258;-2;7;1;527;4048;-718;2;0.6578947;-0.7478211;-0.08725762;0.01800554;0;-4;0;565;4172;-425;8;0.2825485;-0.6038781;0.3725762;0.6455112;-1;9;0;147;3413;2427;0.6397022;2.634679;0.9274731;0.6455365;3.166379;0.8054765;0.6506601;3.63329;0.69627;0.7184854;4.363889;0.6869564;0.490999;4.712042;0.6446838;0.1382682;4.604779;0.7096024;-0.4912604;5.210252;0.4006944;0.3942155;5.546879;0.4209819;1.009115;4.663947;0.6446828;1.283912;4.498428;0.7096009;1.725741;3.762366;1.146952;0.8717079;3.505336;1.466875;0.3274414;2.592041;0.9301875;0.1207558;1.319445;0.2383498;0;0;0;0.3274414;2.592041;0.9301875;0.1207558;1.319445;0.2383498;0;0;0
413371.1181;NotLabelled;NONE;16384;-0.4432133;-0.4778393;-0.7429802;0.1523546;-1;1;-4;2310;-2738;2087;65536;0.8658571;0.2299169;-0.04709141;-0.4418283;-1;1;1;3245;-1496;-2178;8192;0.7037252;-0.5803324;-0.06648199;0.4044321;-3;0;0;2534;3055;47;32768;0.09833795;-0.8383415;0.5263157;0.1024931;-4;-4;-4;3628;989;1664;256;0.398892;-0.4459834;-0.5892404;-0.5429363;-1;2;-1;383;4044;-55;128;-0.1163435;0.2479224;0.6869457;0.6731302;0;0;1;-811;4139;288;4;-0.2271468;-0.134349;-0.6935214;-0.6703601;1;8;1;2011;3556;312;16;0.5941086;-0.533241;0.4847645;0.3573407;-2;5;1;601;3966;-502;2;0.6592798;-0.7465656;-0.08725762;0.01939058;-2;2;1;769;4234;-413;8;0.2867036;-0.6052631;0.368421;0.6447663;0;17;1;263;3371;2421;0.642502;2.633075;0.9293867;0.6483364;3.164775;0.8073901;0.65346;3.631685;0.6981836;0.7212853;4.362285;0.68887;0.4937989;4.710438;0.6465977;0.1410682;4.603175;0.7115166;-0.4925201;5.204943;0.4036725;0.391711;5.544875;0.4231409;1.011915;4.662343;0.6465962;1.286711;4.496824;0.7115141;1.73229;3.761349;1.146041;0.8782572;3.504319;1.465965;0.3302414;2.590436;0.9321013;0.124586;1.319272;0.237331;0;0;0;0.3302414;2.590436;0.9321013;0.124586;1.319272;0.237331;0;0;0
413392.0436;NotLabelled;NONE;16384;-0.4432133;-0.4778393;-0.7429802;0.1523546;0;0;-5;2362;-2712;2107;65536;0.8659313;0.2299169;-0.04570637;-0.4418283;0;1;1;3243;-1522;-2130;8192;0.7038546;-0.5803324;-0.06509695;0.4044321;-4;-1;-3;2456;3069;85;32768;0.09695291;-0.8383324;0.5263157;0.1038781;-6;-6;-2;3658;1047;1714;256;0.398892;-0.4445983;-0.5902862;-0.5429363;0;0;-1;375;4154;-41;128;-0.1163435;0.2465374;0.6860851;0.6745152;-1;8;1;-795;4191;318;4;-0.2285319;-0.134349;-0.6930663;-0.6703601;0;5;0;1975;3534;306;16;0.5941086;-0.533241;0.4847645;0.3573407;-1;0;0;567;3966;-680;2;0.6592798;-0.7465656;-0.08725762;0.01939058;-2;3;3;789;4102;-459;8;0.2867036;-0.6066482;0.367036;0.6442543;0;12;1;401;3265;2273;0.6408954;2.63319;0.9290844;0.6467267;3.164595;0.8058112;0.6518474;3.631242;0.6954837;0.7196727;4.361842;0.6861702;0.4921862;4.709995;0.6438977;0.1394555;4.602731;0.7088163;-0.4940721;5.204499;0.4008469;0.3909981;5.542319;0.4188908;1.010303;4.661899;0.6438967;1.285099;4.49638;0.7088151;1.731009;3.761981;1.144818;0.8779857;3.503497;1.46626;0.3286349;2.590558;0.9319094;0.1247471;1.319381;0.2366413;0;0;0;0.3286349;2.590558;0.9319094;0.1247471;1.319381;0.2366413;0;0;0
413412.9968;NotLabelled;NONE;16384;-0.4418283;-0.4778393;-0.7438048;0.1523546;0;1;-4;2438;-2746;2069;65536;0.8659313;0.2299169;-0.04570637;-0.4418283;0;1;1;3251;-1604;-2108;8192;0.7047753;-0.5803324;-0.06371191;0.4030471;-4;-3;-5;2484;2985;57;32768;0.09695291;-0.8374612;0.5277008;0.1038781;-6;-6;0;3586;1011;1766;256;0.398892;-0.4445983;-0.5902862;-0.5429363;0;1;0;371;4148;-21;128;-0.1149584;0.2451524;0.6868145;0.6745152;-2;14;2;-829;4129;192;4;-0.2285319;-0.134349;-0.6944033;-0.6689751;-1;2;0;2005;3552;344;16;0.5941086;-0.533241;0.4847645;0.3573407;-2;-2;0;447;4070;-730;2;0.6592798;-0.7464025;-0.08864266;0.01939058;-2;5;3;705;3958;-491;8;0.2880886;-0.6066482;0.367036;0.6436361;0;9;1;555;3293;2249;0.6422382;2.631759;0.9312804;0.6480727;3.163457;0.8092774;0.6531962;3.630367;0.7000654;0.7205039;4.360989;0.6889347;0.4927622;4.708876;0.6458558;0.140122;4.601523;0.7111194;-0.4943134;5.203293;0.4050248;0.390381;5.542305;0.4185572;1.010912;4.661145;0.6458547;1.28584;4.495981;0.7111182;1.732845;3.760357;1.143921;0.8817079;3.502693;1.470971;0.3299776;2.58912;0.9339954;0.1253538;1.319381;0.2363204;0;0;0;0.3299776;2.58912;0.9339954;0.1253538;1.319381;0.2363204;0;0;0
413434.1091;NotLabelled;NONE;16384;-0.4418283;-0.4778393;-0.7438048;0.1523546;-2;0;-3;2442;-2662;1989;65536;0.8660033;0.2299169;-0.04432133;-0.4418283;-1;2;0;3267;-1636;-2112;8192;0.7048991;-0.5803324;-0.06232687;0.4030471;-4;-3;-6;2504;3085;67;32768;0.09556787;-0.8374475;0.5277008;0.1052632;-7;-6;0;3500;1023;1724;256;0.398892;-0.4445983;-0.5890092;-0.5443213;0;2;0;383;4030;-19;128;-0.1135734;0.2437673;0.6875375;0.6745152;-2;14;1;-789;4065;138;4;-0.2285319;-0.132964;-0.6946698;-0.6689751;-1;0;0;2035;3504;328;16;0.5941086;-0.533241;0.4847645;0.3573407;-2;0;0;293;4052;-728;2;0.6592798;-0.7464025;-0.08864266;0.01939058;0;3;2;647;3918;-575;8;0.2880886;-0.6080332;0.367036;0.6423278;0;5;1;417;3385;2209;0.6476426;2.631563;0.9299519;0.6534752;3.163092;0.8072131;0.658597;3.62985;0.6973552;0.7259035;4.360472;0.6862168;0.4981569;4.708359;0.6431634;0.1455241;4.601007;0.7084669;-0.4907371;5.202203;0.4050476;0.3939587;5.541214;0.4184799;1.016307;4.660629;0.6431042;1.291242;4.495464;0.7083366;1.737632;3.756957;1.136842;0.8864085;3.49918;1.46358;0.335382;2.588928;0.9327307;0.1253805;1.319381;0.2363063;0;0;0;0.335382;2.588928;0.9327307;0.1253805;1.319381;0.2363063;0;0;0
413455.0432;NotLabelled;NONE;16384;-0.4404432;-0.4792244;-0.7437351;0.1523546;-3;0;-2;2424;-2600;2011;65536;0.8660033;0.2299169;-0.04432133;-0.4418283;-1;3;0;3167;-1572;-1932;8192;0.7050202;-0.5803324;-0.06094183;0.4030471;-3;-4;-6;2572;3059;23;32768;0.09418282;-0.8367302;0.5290859;0.1052632;-6;-6;0;3566;1029;1696;256;0.398892;-0.4445983;-0.5890092;-0.5443213;2;6;0;367;3944;-27;128;-0.1121884;0.2423823;0.6868941;0.6759003;-4;18;2;-865;4067;148;4;-0.2285319;-0.132964;-0.6946698;-0.6689751;0;1;0;2059;3420;194;16;0.5920256;-0.534626;0.4847645;0.3587258;-4;1;0;383;4074;-894;2;0.6592798;-0.7462367;-0.0900277;0.01939058;0;3;0;627;3952;-535;8;0.2880886;-0.6080332;0.367036;0.6423278;0;3;0;499;3265;2227;0.6467512;2.633008;0.9275205;0.6525819;3.164367;0.8040504;0.657702;3.630974;0.6935501;0.7233686;4.361776;0.6846406;0.4948564;4.709278;0.6425472;0.1424409;4.600936;0.7073891;-0.4937046;5.201711;0.4028957;0.3905632;5.541915;0.4142436;1.013113;4.662714;0.6425465;1.288394;4.497971;0.7073882;1.734413;3.758841;1.135206;0.8842041;3.50188;1.465212;0.3344905;2.590377;0.9303628;0.1253392;1.319381;0.236328;0;0;0;0.3344905;2.590377;0.9303628;0.1253392;1.319381;0.236328;0;0;0
413476.1465;NotLabelled;NONE;16384;-0.4390582;-0.4792244;-0.7445536;0.1523546;-2;0;-1;2380;-2560;1915;65536;0.8652952;0.2299169;-0.04432133;-0.4432133;0;1;-1;3189;-1468;-1914;8192;0.7051385;-0.5803324;-0.05955679;0.4030471;-1;-2;-6;2632;3099;41;32768;0.09279778;-0.8367096;0.5290859;0.1066482;-6;-4;-1;3372;1181;1780;256;0.3975069;-0.4445983;-0.5886639;-0.5457063;2;3;0;297;4000;35;128;-0.1080332;0.2396122;0.6871676;0.6772853;-2;17;0;-681;3993;52;4;-0.2299169;-0.132964;-0.6942126;-0.6689751;0;5;1;2003;3468;210;16;0.5931569;-0.534626;0.4833795;0.3587258;-3;5;1;273;4028;-746;2;0.6592798;-0.7462714;-0.0900277;0.01800554;0;3;0;669;3898;-537;8;0.2880886;-0.6080332;0.367036;0.6423278;0;2;0;301;3239;2327;0.6488266;2.634039;0.9206976;0.6546606;3.165697;0.7985201;0.6597837;3.632571;0.6891548;0.7254503;4.363373;0.6802452;0.4969381;4.710876;0.6381519;0.1445226;4.602534;0.7029938;-0.4932048;5.203195;0.4015991;0.3910632;5.543398;0.4129469;1.015194;4.664311;0.638151;1.290475;4.499568;0.7029928;1.736409;3.759225;1.128798;0.8860092;3.504314;1.4599;0.336566;2.591401;0.9234277;0.1274146;1.320406;0.229393;0;0;0;0.336566;2.591401;0.9234277;0.1274146;1.320406;0.229393;0;0;0
413496.2494;NotLabelled;NONE;16384;-0.4390582;-0.4792244;-0.7445536;0.1523546;-1;0;0;2346;-2586;1877;65536;0.8652952;0.2299169;-0.04432133;-0.4432133;0;0;-1;3185;-1430;-1910;8192;0.7052541;-0.5803324;-0.05817174;0.4030471;-1;-2;-6;2602;3027;-3;32768;0.09279778;-0.8367096;0.5290859;0.1066482;-5;-4;-1;3428;1117;1760;256;0.3975069;-0.4445983;-0.5886639;-0.5457063;2;1;0;295;3950;-11;128;-0.1066482;0.2368421;0.6883433;0.6772853;-2;16;0;-671;4041;80;4;-0.2299169;-0.132964;-0.6942126;-0.6689751;1;7;2;1977;3530;198;16;0.5927428;-0.536011;0.4833795;0.3573407;-4;9;0;349;4002;-626;2;0.6592798;-0.7461352;-0.09141274;0.0166205;0;4;0;595;4062;-475;8;0.2880886;-0.6080332;0.365651;0.6431173;0;1;0;221;3363;2235;0.6461633;2.632899;0.9232771;0.6519989;3.164692;0.8016884;0.6571233;3.631686;0.6928402;0.7228657;4.362505;0.686161;0.4944032;4.710156;0.6450352;0.1419537;4.601655;0.7094229;-0.4988556;5.200986;0.4119434;0.3855934;5.540765;0.4218413;1.012655;4.663539;0.6450797;1.287896;4.498576;0.7095225;1.735418;3.757491;1.132362;0.8868591;3.503391;1.468765;0.3339027;2.590258;0.9259564;0.1242571;1.320697;0.2294508;0;0;0;0.3339027;2.590258;0.9259564;0.1242571;1.320697;0.2294508;0;0;0
413517.017;NotLabelled;NONE;16384;-0.4390582;-0.4792244;-0.7445536;0.1523546;0;0;0;2344;-2596;1877;65536;0.8652952;0.2299169;-0.04432133;-0.4432133;0;-1;-1;3247;-1476;-1882;8192;0.705367;-0.5803324;-0.0567867;0.4030471;-1;-3;-5;2602;2985;-73;32768;0.09141274;-0.8358069;0.5304709;0.1080332;-4;-5;-1;3496;1143;1692;256;0.3975069;-0.4445983;-0.5886639;-0.5457063;1;0;1;275;4010;67;128;-0.1052632;0.2354571;0.6890314;0.6772853;-1;12;0;-699;4013;34;4;-0.2313019;-0.132964;-0.6937524;-0.6689751;1;8;3;1977;3534;282;16;0.5926166;-0.5373961;0.4819945;0.3573407;-4;5;0;543;4044;-664;2;0.6592798;-0.7461352;-0.09141274;0.0166205;-1;3;0;573;3972;-445;8;0.2880886;-0.6080332;0.365651;0.6431173;-1;1;1;299;3343;2213;0.6501014;2.632704;0.9220834;0.6559332;3.164167;0.799062;0.6610545;3.630867;0.6889559;0.7267962;4.361685;0.682271;0.4983301;4.709337;0.6411651;0.1458862;4.600835;0.7055839;-0.4942809;5.200497;0.4073891;0.3901687;5.540275;0.417209;1.016582;4.662719;0.6411643;1.291829;4.497756;0.7055826;1.738206;3.754996;1.126689;0.8896765;3.500896;1.463167;0.3378407;2.59007;0.9248868;0.1281339;1.320509;0.2283995;0;0;0;0.3378407;2.59007;0.9248868;0.1281339;1.320509;0.2283995;0;0;0
413538.0071;NotLabelled;NONE;16384;-0.4390582;-0.4792244;-0.7445536;0.1523546;2;0;0;2324;-2644;2057;65536;0.8652952;0.2299169;-0.04432133;-0.4432133;-1;-3;-2;3311;-1544;-1918;8192;0.705367;-0.5803324;-0.0567867;0.4030471;0;-2;-3;2654;3021;-29;32768;0.09141274;-0.8358069;0.5304709;0.1080332;-5;-4;0;3458;1061;1828;256;0.3975069;-0.4445983;-0.5886639;-0.5457063;1;0;1;303;3994;77;128;-0.1038781;0.234072;0.6897131;0.6772853;-1;11;0;-807;4055;18;4;-0.232687;-0.1315789;-0.6935533;-0.6689751;0;7;2;1953;3534;404;16;0.5926166;-0.5373961;0.4819945;0.3573407;-4;6;0;375;4022;-656;2;0.6592798;-0.7461647;-0.09141274;0.01523546;0;1;-1;519;4030;-417;8;0.2880886;-0.6080332;0.365651;0.6431173;-2;0;0;253;3413;2369;0.6484469;2.631956;0.9212575;0.6542771;3.163255;0.7975301;0.6593966;3.629808;0.6868038;0.7251377;4.360627;0.6801116;0.4966672;4.708278;0.63903;0.1442301;4.599776;0.7034861;-0.4959959;5.199834;0.4062138;0.3884547;5.539612;0.4159402;1.014919;4.661661;0.6389741;1.290173;4.496696;0.7033634;1.736392;3.752177;1.121519;0.8888909;3.498757;1.461089;0.3361863;2.589326;0.924122;0.1274693;1.321204;0.2247209;0;0;0;0.3361863;2.589326;0.924122;0.1274693;1.321204;0.2247209;0;0;0
413558.0789;NotLabelled;NONE;16384;-0.4404432;-0.4792244;-0.7437351;0.1523546;2;1;1;2376;-2670;2095;65536;0.8652952;0.2299169;-0.04432133;-0.4432133;-1;-4;-1;3319;-1486;-2138;8192;0.7054772;-0.5803324;-0.05540166;0.4030471;0;-1;-5;2692;3061;29;32768;0.0900277;-0.835777;0.5304709;0.1094183;-5;-3;0;3510;1155;1814;256;0.3975069;-0.4445983;-0.5886639;-0.5457063;1;0;1;315;4030;-43;128;-0.1038781;0.234072;0.6897131;0.6772853;1;11;-1;-759;4127;136;4;-0.234072;-0.1315789;-0.6944212;-0.66759;1;0;3;1833;3544;394;16;0.5920563;-0.5401662;0.4806094;0.3559557;-3;6;0;483;4020;-548;2;0.6592798;-0.7461647;-0.09141274;0.01523546;0;-1;-1;479;3988;-523;8;0.2880886;-0.6080332;0.365651;0.6431173;-1;2;0;321;3417;2365;0.6465389;2.631966;0.9217448;0.6523672;3.163102;0.7973155;0.6574852;3.629508;0.6859727;0.723227;4.360326;0.6792877;0.4947609;4.707977;0.6381819;0.142317;4.599475;0.7026008;-0.4978189;5.199137;0.4043385;0.3866305;5.538916;0.4141586;1.013012;4.66136;0.6381811;1.288259;4.496396;0.7025996;1.734352;3.752432;1.121878;0.8868152;3.499012;1.461358;0.3342784;2.58934;0.9246703;0.1274454;1.321204;0.2247351;0;0;0;0.3342784;2.58934;0.9246703;0.1274454;1.321204;0.2247351;0;0;0
413579.0139;NotLabelled;NONE;16384;-0.4404432;-0.4778393;-0.7446257;0.1523546;2;1;1;2328;-2668;2175;65536;0.8660033;0.2299169;-0.04432133;-0.4418283;-2;-2;0;3235;-1506;-2208;8192;0.7055845;-0.5803324;-0.05401662;0.4030471;-1;-1;-7;2586;2977;67;32768;0.08864266;-0.8350445;0.5318559;0.1094183;-4;-6;3;3604;1135;1650;256;0.3975069;-0.4459834;-0.5876153;-0.5457063;1;0;2;359;4100;-15;128;-0.1024931;0.232687;0.6903887;0.6772853;0;12;-1;-731;4071;142;4;-0.234072;-0.1315789;-0.693087;-0.6689751;0;-5;2;1883;3566;352;16;0.5931779;-0.5401662;0.4792244;0.3559557;-2;4;0;377;3936;-480;2;0.6592798;-0.7461647;-0.09141274;0.01523546;0;-1;0;569;4098;-463;8;0.2880886;-0.6080332;0.365651;0.6431173;-1;1;0;303;3405;2447;0.6539624;2.630797;0.9187517;0.6597906;3.161933;0.7943223;0.6649086;3.628339;0.6829796;0.7306504;4.359158;0.6762945;0.5021843;4.706809;0.6351888;0.1497404;4.598308;0.6996076;-0.4886261;5.198968;0.3995688;0.3958234;5.538746;0.409389;1.020436;4.660192;0.635188;1.295683;4.495228;0.6996064;1.741572;3.750064;1.116966;0.8951627;3.49745;1.459844;0.3417017;2.588172;0.9216771;0.1306625;1.321684;0.2200145;0;0;0;0.3417017;2.588172;0.9216771;0.1306625;1.321684;0.2200145;0;0;0
413601.2353;NotLabelled;NONE;16384;-0.4404432;-0.4778393;-0.7449078;0.1509695;2;0;0;2338;-2702;2155;65536;0.8663698;0.2285319;-0.04432133;-0.4418283;-2;-2;0;3149;-1526;-2176;8192;0.7056892;-0.5803324;-0.05263158;0.4030471;-1;-1;-6;2568;3061;-9;32768;0.08864266;-0.8341608;0.533241;0.1094183;-4;-7;3;3600;1027;1658;256;0.3961219;-0.4459834;-0.5885499;-0.5457063;0;0;4;323;4070;25;128;-0.09972299;0.2313019;0.6898995;0.6786703;-5;14;0;-755;4199;200;4;-0.232687;-0.1315789;-0.6935533;-0.6689751;0;-7;0;1977;3466;262;16;0.5923446;-0.5401662;0.4792244;0.3573407;-1;0;0;429;4038;-462;2;0.6592798;-0.7461352;-0.09141274;0.0166205;0;-3;2;749;4074;-513;8;0.2880886;-0.6094183;0.3642659;0.6425921;0;3;0;213;3303;2221;0.6427459;2.6313;0.9210232;0.6485723;3.162271;0.7958956;0.6536888;3.628531;0.6839396;0.7199416;4.359317;0.679065;0.491723;4.707229;0.63879;0.1391959;4.598814;0.7028996;-0.4980012;5.198993;0.3994288;0.386265;5.539196;0.4109069;1.009942;4.66025;0.6387348;1.285066;4.494936;0.7027785;1.728643;3.748026;1.119481;0.881233;3.497442;1.461374;0.3304854;2.588678;0.9240091;0.126473;1.321988;0.220636;0;0;0;0.3304854;2.588678;0.9240091;0.126473;1.321988;0.220636;0;0;0
413621.9784;NotLabelled;NONE;16384;-0.4404432;-0.4778393;-0.7449078;0.1509695;1;0;0;2380;-2716;2205;65536;0.8663698;0.2285319;-0.04432133;-0.4418283;-3;-2;-1;3109;-1614;-2128;8192;0.7053385;-0.5817174;-0.05263158;0.4016621;0;-2;-6;2640;3189;-11;32768;0.08725762;-0.8334199;0.534626;0.1094183;-2;-8;3;3610;1059;1684;256;0.3961219;-0.4473684;-0.5874977;-0.5457063;1;3;5;287;4038;-33;128;-0.09833795;0.2299169;0.689197;0.6800554;-3;15;-1;-753;4115;156;4;-0.232687;-0.132964;-0.6932891;-0.6689751;0;-3;0;2125;3540;272;16;0.5910786;-0.5415512;0.4792244;0.3573407;-1;0;0;473;4050;-570;2;0.6592798;-0.7461352;-0.09141274;0.0166205;0;-2;2;621;4004;-453;8;0.2894737;-0.6094183;0.3642659;0.6419694;0;2;0;273;3455;2291;0.6450342;2.633328;0.9144976;0.6508641;3.164614;0.7907093;0.6559835;3.631154;0.6799294;0.7239578;4.361783;0.6750606;0.4965635;4.71023;0.6347615;0.1437753;4.602647;0.6988345;-0.4960844;5.200595;0.3965657;0.3890303;5.538684;0.4046101;1.01467;4.662031;0.6347601;1.289398;4.496069;0.6988326;1.734773;3.748512;1.112446;0.888019;3.497789;1.45586;0.3327736;2.590699;0.9173674;0.1260781;1.322563;0.2173915;0;0;0;0.3327736;2.590699;0.9173674;0.1260781;1.322563;0.2173915;0;0;0
413642.128;NotLabelled;NONE;16384;-0.4404432;-0.4764543;-0.7457944;0.1509695;0;2;0;2446;-2626;2199;65536;0.8674386;0.2271468;-0.04432133;-0.4404432;-4;-1;-2;3211;-1558;-2170;8192;0.7054405;-0.5817174;-0.05124654;0.4016621;0;-2;-7;2570;3241;81;32768;0.08725762;-0.8334199;0.534626;0.1094183;-3;-8;4;3686;1121;1708;256;0.3947368;-0.4473684;-0.5884292;-0.5457063;2;3;5;329;4074;-23;128;-0.09695291;0.2285319;0.6898536;0.6800554;-1;15;-3;-751;4197;36;4;-0.232687;-0.132964;-0.6932891;-0.6689751;0;1;0;2181;3590;246;16;0.5910786;-0.5415512;0.4792244;0.3573407;0;5;0;289;4092;-632;2;0.6592798;-0.7462714;-0.0900277;0.01800554;0;-2;0;595;4132;-395;8;0.2894737;-0.6094183;0.3628809;0.6427533;-1;8;0;-29;3545;2277;0.6464091;2.632238;0.9138932;0.6522424;3.163834;0.7914479;0.657365;3.630653;0.6818472;0.7258456;4.361245;0.678802;0.4987017;4.709948;0.639313;0.1458244;4.60245;0.7030388;-0.4932555;5.200398;0.3991243;0.3918357;5.538487;0.4094485;1.016775;4.66139;0.6393114;1.291373;4.49508;0.7030363;1.732557;3.745894;1.11819;0.8847714;3.497196;1.460529;0.3341484;2.589602;0.9166468;0.12853;1.322925;0.213716;0;0;0;0.3341484;2.589602;0.9166468;0.12853;1.322925;0.213716;0;0;0
413663.286;NotLabelled;NONE;16384;-0.4404432;-0.4764543;-0.7457944;0.1509695;0;3;0;2334;-2654;2161;65536;0.8674386;0.2271468;-0.04432133;-0.4404432;-5;-1;-1;3239;-1506;-2198;8192;0.7055397;-0.5817174;-0.04986149;0.4016621;0;-5;-6;2500;3103;47;32768;0.08587258;-0.8326738;0.536011;0.1094183;-4;-6;4;3562;1117;1762;256;0.3947368;-0.4473684;-0.5884292;-0.5457063;2;3;5;467;4114;-27;128;-0.09556787;0.2285319;0.6900468;0.6800554;-2;9;-2;-829;4143;104;4;-0.232687;-0.132964;-0.6932891;-0.6689751;0;4;0;2071;3538;210;16;0.5930324;-0.5415512;0.4778393;0.3559557;0;8;0;347;4042;-612;2;0.6592798;-0.7462714;-0.0900277;0.01800554;-2;-1;0;637;4242;-349;8;0.2908587;-0.6108033;0.3614958;0.6415928;-1;16;1;63;3433;2445;0.6485761;2.632235;0.9130397;0.6544077;3.163673;0.7899081;0.6595286;3.63035;0.6797051;0.7297301;4.360778;0.6766587;0.5034083;4.710015;0.6371689;0.1502787;4.60335;0.7008947;-0.4897438;5.200413;0.397226;0.3960318;5.536803;0.4035157;1.021366;4.660237;0.6371679;1.295571;4.49328;0.700893;1.737335;3.742908;1.113276;0.8903611;3.494209;1.457619;0.3363155;2.589602;0.9158525;0.1290351;1.322926;0.213411;0;0;0;0.3363155;2.589602;0.9158525;0.1290351;1.322926;0.213411;0;0;0
413684.5882;NotLabelled;NONE;16384;-0.4404432;-0.4750692;-0.7463961;0.1523546;-2;6;0;2346;-2692;2179;65536;0.8678697;0.2257618;-0.04293629;-0.4404432;-7;0;-2;3205;-1666;-2242;8192;0.70528;-0.5831025;-0.04847645;0.400277;0;-5;-7;2398;3171;89;32768;0.08310249;-0.8322428;0.5373961;0.1080332;-6;-7;7;3670;985;1576;256;0.3933518;-0.4487534;-0.5895838;-0.5443213;1;0;6;417;4050;-33;128;-0.09418282;0.2271468;0.6906943;0.6800554;-3;8;-2;-783;4123;182;4;-0.232687;-0.1315789;-0.6935533;-0.6689751;2;0;-1;1949;3498;262;16;0.5917646;-0.5429363;0.4778393;0.3559557;0;4;0;263;4086;-702;2;0.6606648;-0.7450455;-0.0900277;0.01800554;-2;0;0;719;4186;-423;8;0.2922437;-0.6121883;0.3601108;0.6404212;-1;13;1;263;3403;2485;0.645834;2.631969;0.9163038;0.6516657;3.163408;0.7931782;0.6567866;3.630086;0.6829802;0.726988;4.360515;0.6799343;0.5006663;4.709751;0.6404448;0.1475366;4.603086;0.7041705;-0.4925196;5.20015;0.4005738;0.3932561;5.536541;0.4068635;1.018624;4.659974;0.6404434;1.292829;4.493017;0.7041686;1.734362;3.741459;1.114635;0.88725;3.494781;1.460089;0.3335734;2.589336;0.9191163;0.1262928;1.32266;0.2166739;0;0;0;0.3335734;2.589336;0.9191163;0.1262928;1.32266;0.2166739;0;0;0
413705.0263;NotLabelled;NONE;16384;-0.4404432;-0.4750692;-0.7463961;0.1523546;-4;5;0;2444;-2718;2133;65536;0.8682289;0.2243767;-0.04293629;-0.4404432;-7;1;-2;3157;-1544;-2264;8192;0.7042266;-0.5844875;-0.04709141;0.400277;0;-7;-8;2350;3233;53;32768;0.08171745;-0.8314842;0.5387812;0.1080332;-8;-8;7;3598;927;1604;256;0.3919668;-0.4501385;-0.5894504;-0.5443213;0;-3;7;445;4088;-75;128;-0.09141274;0.2271468;0.6897007;0.6814404;-1;5;-3;-853;4121;182;4;-0.232687;-0.1315789;-0.6935533;-0.6689751;1;0;-2;2023;3508;312;16;0.5937097;-0.5429363;0.4764543;0.3545706;0;11;1;169;4078;-670;2;0.6606648;-0.7450455;-0.0900277;0.01800554;-3;1;1;747;4118;-495;8;0.2936288;-0.6121883;0.3587258;0.6405649;0;11;0;247;3365;2525;0.6479736;2.633784;0.9098721;0.6538035;3.165065;0.7860643;0.6589229;3.6316;0.6752673;0.7329893;4.361646;0.6718236;0.5085171;4.712054;0.6321574;0.1548314;4.607294;0.6959588;-0.4843348;5.205311;0.3923627;0.401814;5.540766;0.3951283;1.026204;4.659535;0.6321564;1.299525;4.491164;0.6959572;1.737578;3.736813;1.105028;0.8891088;3.495698;1.451079;0.3357129;2.591155;0.9127435;0.1292745;1.323019;0.2126919;0;0;0;0.3357129;2.591155;0.9127435;0.1292745;1.323019;0.2126919;0;0;0
413725.988;NotLabelled;NONE;16384;-0.4390582;-0.4736842;-0.747807;0.1537396;-5;6;0;2408;-2584;2101;65536;0.868653;0.2229917;-0.04155125;-0.4404432;-7;2;-3;3091;-1480;-2194;8192;0.7044064;-0.5844875;-0.04432133;0.400277;0;-8;-10;2326;3187;35;32768;0.07894737;-0.8308529;0.5401662;0.1080332;-10;-9;8;3618;909;1558;256;0.3919668;-0.4515235;-0.5896683;-0.5429363;2;-4;7;421;4036;-51;128;-0.09141274;0.2271468;0.6897007;0.6814404;-3;6;-3;-889;4089;248;4;-0.232687;-0.1315789;-0.6922146;-0.6703601;1;1;-1;2117;3424;236;16;0.5924401;-0.5443213;0.4764543;0.3545706;0;12;2;343;4064;-658;2;0.6606648;-0.7448769;-0.09141274;0.01800554;-2;0;2;755;4136;-435;8;0.2963989;-0.6135734;0.3559557;0.6395084;0;18;1;301;3403;2347;0.6450194;2.633533;0.9133719;0.6508545;3.165288;0.7916155;0.6559784;3.632248;0.6826202;0.7322624;4.362071;0.6810126;0.5088655;4.713257;0.6421618;0.1548467;4.609413;0.7056128;-0.4843573;5.20743;0.4020962;0.4025958;5.540759;0.4036513;1.02639;4.659167;0.6421611;1.299182;4.489808;0.7056121;1.734289;3.733701;1.114587;0.8856252;3.494606;1.461558;0.3327587;2.590894;0.9160656;0.126486;1.322757;0.2159652;0;0;0;0.3327587;2.590894;0.9160656;0.126486;1.322757;0.2159652;0;0;0
413746.9909;NotLabelled;NONE;16384;-0.4390582;-0.4736842;-0.747521;0.1551246;-5;7;1;2292;-2732;2131;65536;0.868304;0.2216066;-0.04155125;-0.4418283;-6;2;-5;3193;-1578;-2118;8192;0.7044922;-0.5844875;-0.04293629;0.400277;-1;-9;-12;2292;3221;73;32768;0.07617728;-0.8302097;0.5415512;0.1080332;-13;-9;9;3578;873;1492;256;0.3919668;-0.4529086;-0.5886052;-0.5429363;3;-4;8;497;3956;-53;128;-0.0900277;0.2271468;0.6898828;0.6814404;-3;9;-3;-811;4037;172;4;-0.232687;-0.1315789;-0.6922146;-0.6703601;3;0;-1;2073;3468;250;16;0.5943766;-0.5443213;0.4750692;0.3531856;0;10;1;405;4024;-730;2;0.6620498;-0.7436113;-0.09141274;0.01939058;-3;1;2;845;4098;-421;8;0.2977839;-0.6149584;0.3545706;0.6383029;0;15;1;281;3307;2273;0.6404322;2.634072;0.9114146;0.6462672;3.165827;0.7896585;0.6513913;3.632787;0.6806631;0.7298145;4.362381;0.6786756;0.507446;4.714202;0.6396564;0.1531278;4.611429;0.7031803;-0.4853839;5.209416;0.3981521;0.4019247;5.541802;0.3982906;1.02481;4.658595;0.639655;1.297108;4.488469;0.703178;1.729412;3.73002;1.110785;0.8797798;3.495099;1.458239;0.3281715;2.591432;0.9141085;0.1289783;1.323111;0.2122953;0;0;0;0.3281715;2.591432;0.9141085;0.1289783;1.323111;0.2122953;0;0;0
413767.42;NotLabelled;NONE;16384;-0.4390582;-0.4736842;-0.7472322;0.1565097;-7;4;3;2256;-2760;2087;65536;0.8685889;0.2202216;-0.04293629;-0.4418283;-7;3;-7;3223;-1502;-2180;8192;0.7035044;-0.5858725;-0.0401662;0.400277;-3;-11;-15;2282;3191;13;32768;0.0734072;-0.8295544;0.5429363;0.1080332;-13;-11;8;3660;857;1494;256;0.3905817;-0.4542936;-0.5897334;-0.5415512;3;-6;9;525;3972;-71;128;-0.08864266;0.2271468;0.6900622;0.6814404;-5;2;-3;-873;4051;88;4;-0.232687;-0.1315789;-0.6922146;-0.6703601;2;1;0;2093;3562;292;16;0.595033;-0.5457063;0.4736842;0.3518005;-1;10;1;415;4016;-730;2;0.6620498;-0.7436113;-0.09141274;0.01939058;-3;1;1;697;3962;-471;8;0.299169;-0.6163435;0.3531856;0.637086;1;12;0;295;3265;2321;0.6352969;2.633817;0.9154785;0.6411321;3.165573;0.7937287;0.6462561;3.632534;0.6847391;0.7251714;4.36208;0.6846004;0.5030508;4.714146;0.6464025;0.1486461;4.611453;0.7095729;-0.4886715;5.211278;0.4056579;0.3995813;5.541128;0.4072021;1.020377;4.65819;0.6464015;1.292543;4.487721;0.7095718;1.724514;3.728106;1.115355;0.8739091;3.497355;1.463224;0.3230362;2.591177;0.9181715;0.1256745;1.322855;0.2158414;0;0;0;0.3230362;2.591177;0.9181715;0.1256745;1.322855;0.2158414;0;0;0
413788.045;NotLabelled;NONE;16384;-0.4390582;-0.4736842;-0.7466466;0.1592798;-6;6;3;2222;-2592;1999;65536;0.8685812;0.2174515;-0.04293629;-0.4432133;-5;3;-7;3075;-1280;-2066;8192;0.7034307;-0.5872576;-0.03462604;0.398892;0;-11;-14;2386;3337;-91;32768;0.06786703;-0.8291183;0.5443213;0.1080332;-14;-8;8;3662;861;1690;256;0.3891967;-0.4556787;-0.5895805;-0.5415512;4;-2;9;517;3968;-91;128;-0.08864266;0.2285319;0.6882333;0.6828254;-4;0;-3;-897;4017;174;4;-0.234072;-0.1301939;-0.6920095;-0.6703601;1;5;0;2077;3500;314;16;0.5953923;-0.5470914;0.4736842;0.3490305;-2;5;0;675;4038;-610;2;0.6620498;-0.7436113;-0.09141274;0.01939058;-3;2;1;683;3978;-405;8;0.300554;-0.6163435;0.3531856;0.6364338;0;10;0;245;3299;2289;0.6354394;2.633914;0.9147562;0.6412745;3.165672;0.7930135;0.6463985;3.632635;0.6840299;0.7291601;4.361753;0.6835283;0.508897;4.714968;0.6451688;0.1539591;4.614176;0.7084081;-0.4820652;5.215833;0.4054051;0.4074113;5.542363;0.4079478;1.025921;4.656283;0.6451687;1.297188;4.484414;0.7084085;1.725662;3.72191;1.112479;0.8749515;3.495325;1.462821;0.3231786;2.591274;0.9174488;0.1259509;1.322953;0.2150813;0;0;0;0.3231786;2.591274;0.9174488;0.1259509;1.322953;0.2150813;0;0;0
413808.9971;NotLabelled;NONE;16384;-0.4390582;-0.4722992;-0.747227;0.1606648;-6;7;4;2160;-2634;2007;65536;0.8688572;0.2160665;-0.04432133;-0.4432133;-6;1;-7;3229;-1298;-2060;8192;0.7024032;-0.5886427;-0.03185596;0.398892;0;-13;-13;2454;3203;-67;32768;0.06509695;-0.8282479;0.5457063;0.1094183;-14;-8;8;3576;959;1656;256;0.3878116;-0.4570637;-0.589421;-0.5415512;4;0;8;525;4030;-53;128;-0.08725762;0.2285319;0.6884103;0.6828254;-6;0;-3;-761;4053;250;4;-0.2354571;-0.1301939;-0.6915395;-0.6703601;1;7;0;2151;3510;312;16;0.5952183;-0.5484765;0.4722992;0.3490305;-2;0;0;689;4088;-638;2;0.6620498;-0.7434397;-0.09279778;0.01939058;-3;2;1;705;3926;-509;8;0.301939;-0.6177285;0.3518005;0.6352013;0;10;0;267;3295;2181;0.6381828;2.633155;0.917509;0.6440246;3.165533;0.7985048;0.6491548;3.63305;0.6919264;0.7341136;4.361914;0.6932873;0.5149273;4.715888;0.6557564;0.1596687;4.616006;0.7186404;-0.4739545;5.221331;0.4179216;0.417228;5.543187;0.418379;1.031772;4.655645;0.6557549;1.302501;4.4828;0.7186381;1.726455;3.714124;1.115724;0.8757676;3.49602;1.471463;0.3259219;2.590502;0.9199644;0.1307152;1.322168;0.2170549;0;0;0;0.3259219;2.590502;0.9199644;0.1307152;1.322168;0.2170549;0;0;0
413829.0507;NotLabelled;NONE;16384;-0.4390582;-0.4722992;-0.7469279;0.1620499;-5;3;5;2034;-2684;2031;65536;0.8684928;0.2146814;-0.04432133;-0.4445983;-5;0;-7;3199;-1274;-2104;8192;0.7013605;-0.5900277;-0.02908587;0.398892;1;-15;-12;2522;3259;-83;32768;0.06232687;-0.827547;0.5470914;0.1094183;-13;-8;7;3650;1075;1620;256;0.3864266;-0.4584487;-0.589255;-0.5415512;4;-1;6;435;3882;-63;128;-0.08587258;0.2299169;0.6867461;0.6842105;-4;4;-4;-751;4005;150;4;-0.2354571;-0.1288089;-0.6917988;-0.6703601;0;8;0;2141;3562;340;16;0.5952183;-0.5484765;0.4722992;0.3490305;-2;2;0;453;4032;-500;2;0.6634349;-0.7420644;-0.09418282;0.01800554;-3;8;0;757;3904;-459;8;0.3033241;-0.6191136;0.3504155;0.6339573;0;7;0;363;3297;2287;0.6362667;2.632368;0.9167744;0.6421087;3.164747;0.7977784;0.6472389;3.632267;0.6912069;0.7343891;4.360865;0.6944368;0.5162799;4.71559;0.6577364;0.1607034;4.61662;0.7202622;-0.4718651;5.222902;0.4192503;0.4205121;5.541426;0.420803;1.032941;4.653793;0.6577359;1.30313;4.479975;0.7202621;1.723416;3.708473;1.115761;0.8738303;3.493113;1.475778;0.3240057;2.589714;0.9192292;0.1301261;1.32283;0.2133448;0;0;0;0.3240057;2.589714;0.9192292;0.1301261;1.32283;0.2133448;0;0;0
413849.0715;NotLabelled;NONE;16384;-0.4390582;-0.4709141;-0.7475004;0.1634349;-5;5;4;2156;-2654;1933;65536;0.8688341;0.2132964;-0.04432133;-0.4445983;-4;0;-6;3109;-1222;-2120;8192;0.6994584;-0.5914127;-0.02770083;0.400277;0;-12;-10;2590;3273;-187;32768;0.06094183;-0.8276501;0.5470914;0.1094183;-10;-8;7;3684;1055;1634;256;0.3864266;-0.4598338;-0.5881749;-0.5415512;4;-1;5;447;3976;-109;128;-0.08587258;0.2299169;0.6867461;0.6842105;-5;2;-3;-725;4039;134;4;-0.2368421;-0.1288089;-0.6926662;-0.6689751;-1;8;0;1955;3508;270;16;0.5952183;-0.5484765;0.4722992;0.3490305;-2;4;0;413;3988;-620;2;0.6634349;-0.7418873;-0.09556787;0.01800554;-1;9;0;619;3858;-479;8;0.3033241;-0.6191136;0.3504155;0.6339573;0;6;0;323;3239;2257;0.6347383;2.633843;0.9148629;0.6405869;3.166832;0.7986288;0.6457231;3.634897;0.6944829;0.7350563;4.363221;0.6996405;0.5180452;4.71869;0.6636485;0.162118;4.62063;0.7256089;-0.4688172;5.227181;0.4217236;0.4244643;5.54316;0.4231392;1.034519;4.655343;0.663947;1.304129;4.480556;0.72627;1.720385;3.70829;1.12453;0.8705626;3.497074;1.486437;0.3224772;2.591177;0.9170789;0.1299377;1.322829;0.2134591;0;0;0;0.3224772;2.591177;0.9170789;0.1299377;1.322829;0.2134591;0;0;0
413869.4195;NotLabelled;NONE;16384;-0.4390582;-0.4709141;-0.7471963;0.1648199;-4;6;4;2026;-2610;1949;65536;0.8691012;0.2119114;-0.04570637;-0.4445983;-4;1;-5;3125;-1172;-2074;8192;0.6995626;-0.5914127;-0.02493075;0.400277;-2;-8;-10;2720;3217;-151;32768;0.05817174;-0.8269324;0.5484765;0.1094183;-9;-7;6;3628;985;1654;256;0.3850415;-0.4612188;-0.5892713;-0.5401662;2;-4;6;511;3968;-85;128;-0.08587258;0.2299169;0.6867461;0.6842105;-5;-1;-3;-725;4017;178;4;-0.2368421;-0.1274238;-0.6929224;-0.6689751;0;5;0;1901;3452;292;16;0.5939391;-0.5498615;0.4722992;0.3490305;-2;5;0;349;3974;-598;2;0.6634349;-0.7419196;-0.09556787;0.0166205;-1;7;0;579;3894;-507;8;0.3033241;-0.6191136;0.3504155;0.6339573;0;1;0;397;3241;2281;0.6370227;2.632215;0.9173092;0.6428713;3.165204;0.8010753;0.6480075;3.633269;0.6969293;0.7378107;4.36152;0.703916;0.5210187;4.717219;0.6688868;0.1650449;4.619231;0.7306926;-0.4646274;5.228309;0.4292534;0.429408;5.542147;0.431109;1.037451;4.65354;0.6688861;1.306965;4.478421;0.7306919;1.720053;3.703427;1.126947;0.8695823;3.494371;1.488585;0.3247617;2.58955;0.9195251;0.1294959;1.322829;0.2137274;0;0;0;0.3247617;2.58955;0.9195251;0.1294959;1.322829;0.2137274;0;0;0
413890.025;NotLabelled;NONE;16384;-0.4390582;-0.4695291;-0.7474517;0.16759;-4;3;2;1996;-2748;1937;65536;0.8694378;0.2105263;-0.04570637;-0.4445983;-4;1;-4;3173;-1080;-2170;8192;0.6996105;-0.5914127;-0.0235457;0.400277;-1;-7;-9;2690;3287;-143;32768;0.0567867;-0.8270287;0.5484765;0.1094183;-7;-6;5;3572;941;1776;256;0.3850415;-0.4626039;-0.5881847;-0.5401662;2;-3;4;481;3938;-85;128;-0.08587258;0.2313019;0.6842105;0.6862808;-4;-2;-2;-767;3983;106;4;-0.2382271;-0.1260388;-0.6927008;-0.6689751;1;2;1;1771;3542;248;16;0.5950378;-0.5498615;0.4709141;0.3490305;-3;0;-1;541;4028;-558;2;0.6634349;-0.7417697;-0.09695291;0.01523546;0;4;0;621;3918;-501;8;0.3033241;-0.6191136;0.3504155;0.6339573;0;-2;0;273;3259;2227;0.6392019;2.634002;0.9109952;0.6450506;3.166991;0.7947612;0.6501868;3.635057;0.6906153;0.7438112;4.362829;0.6972772;0.5288873;4.719646;0.6621039;0.1724076;4.623554;0.7239726;-0.4559043;5.234458;0.4233923;0.4392935;5.544956;0.4263071;1.044978;4.653257;0.6621025;1.313573;4.476754;0.7239701;1.725711;3.6995;1.116774;0.8752737;3.494581;1.48085;0.326941;2.591337;0.913211;0.1325552;1.323155;0.209799;0;0;0;0.326941;2.591337;0.913211;0.1325552;1.323155;0.209799;0;0;0
413910.0166;NotLabelled;NONE;16384;-0.4390582;-0.4695291;-0.7471398;0.1689751;-4;2;1;1982;-2740;1933;65536;0.8689886;0.2091413;-0.04709141;-0.4459834;-2;2;-4;3193;-986;-2070;8192;0.6984827;-0.5927978;-0.02216066;0.400277;1;-5;-5;2612;3337;-215;32768;0.05540166;-0.8262025;0.5498615;0.1094183;-4;-2;1;3600;925;1710;256;0.3850415;-0.4626039;-0.5881847;-0.5401662;1;-1;4;491;3934;-101;128;-0.08587258;0.2313019;0.6842105;0.6862808;-2;-1;-2;-721;4011;80;4;-0.2382271;-0.1260388;-0.6927008;-0.6689751;0;1;2;1851;3588;274;16;0.5948508;-0.5512465;0.4695291;0.3490305;-2;2;-1;345;4066;-672;2;0.6634349;-0.7417697;-0.09695291;0.01523546;0;2;0;565;3974;-397;8;0.3033241;-0.6191136;0.3504155;0.6339573;0;-5;-1;269;3229;2249;0.6312948;2.634357;0.9128581;0.6371523;3.168159;0.8004143;0.6422964;3.636953;0.699597;0.7363786;4.364646;0.7081529;0.5216917;4.721688;0.673822;0.1651307;4.625663;0.7353268;-0.4605737;5.239356;0.4349858;0.4353623;5.547706;0.4388849;1.037741;4.654972;0.6738213;1.306203;4.478141;0.7353258;1.717331;3.699764;1.12696;0.8660425;3.497003;1.490256;0.3190335;2.591677;0.9147465;0.1283885;1.323481;0.2103392;0;0;0;0.3190335;2.591677;0.9147465;0.1283885;1.323481;0.2103392;0;0;0
413930.1318;NotLabelled;NONE;16384;-0.4390582;-0.4695291;-0.7468252;0.1703601;-3;0;0;2078;-2740;1903;65536;0.8693208;0.2077562;-0.04709141;-0.4459834;-1;1;-3;3229;-1114;-2026;8192;0.6984827;-0.5927978;-0.02216066;0.400277;1;-4;-4;2588;3269;-225;32768;0.05401662;-0.8262942;0.5498615;0.1094183;-2;-1;1;3674;983;1626;256;0.3836565;-0.4639889;-0.5879987;-0.5401662;1;1;2;515;3974;-39;128;-0.08587258;0.232687;0.6842105;0.6858124;0;-5;-3;-773;4069;124;4;-0.2382271;-0.1260388;-0.6927008;-0.6689751;0;1;3;1857;3684;240;16;0.5948508;-0.5512465;0.4695291;0.3490305;-1;4;0;419;4012;-400;2;0.6634349;-0.7417697;-0.09695291;0.01523546;1;0;0;617;3892;-445;8;0.301939;-0.6191136;0.3518005;0.6338514;0;-12;-1;257;3323;2343;0.6308277;2.634997;0.9090838;0.6366853;3.168798;0.79664;0.6418294;3.637592;0.6958227;0.7359115;4.365285;0.704379;0.5212246;4.722328;0.6700487;0.1646638;4.626302;0.7315537;-0.4595549;5.241817;0.4318496;0.4376564;5.546417;0.4370698;1.037274;4.655612;0.6700472;1.305736;4.47878;0.7315512;1.713387;3.698765;1.123561;0.8621274;3.497975;1.488017;0.3185665;2.592317;0.9109723;0.1279206;1.32412;0.2065643;0;0;0;0.3185665;2.592317;0.9109723;0.1279206;1.32412;0.2065643;0;0;0
413951.0808;NotLabelled;NONE;16384;-0.4376731;-0.4695291;-0.7476377;0.1703601;-2;0;0;2094;-2788;1911;65536;0.8686088;0.2077562;-0.04709141;-0.4473684;-1;0;-1;3263;-1094;-1950;8192;0.6976871;-0.5927978;-0.02216066;0.4016621;0;-2;-2;2636;3315;-243;32768;0.05401662;-0.8262942;0.5498615;0.1094183;0;-1;1;3712;963;1648;256;0.3836565;-0.4639889;-0.589268;-0.5387812;0;1;2;531;4042;-95;128;-0.08587258;0.232687;0.6842105;0.6858124;0;-7;-2;-857;4105;172;4;-0.2382271;-0.1260388;-0.6927008;-0.6689751;-1;0;4;1833;3572;246;16;0.5935643;-0.5526316;0.4695291;0.3490305;-1;0;-1;509;4038;-480;2;0.6620498;-0.7430061;-0.09695291;0.01523546;2;-2;0;699;4098;-295;8;0.300554;-0.6163435;0.3518005;0.6372004;0;-3;0;-9;3351;2299;0.6305114;2.634997;0.9091959;0.636369;3.1688;0.7967628;0.6415132;3.637596;0.6959547;0.7377587;4.364981;0.7064145;0.5241477;4.722747;0.6729313;0.1672817;4.627628;0.7340701;-0.4555927;5.244961;0.4353125;0.4423511;5.547411;0.4394448;1.039996;4.654496;0.6729301;1.30791;4.476709;0.7340686;1.715425;3.696693;1.126219;0.8641688;3.498062;1.491864;0.3182502;2.592317;0.9110833;0.127849;1.32412;0.2066089;0;0;0;0.3182502;2.592317;0.9110833;0.127849;1.32412;0.2066089;0;0;0
413971.9935;NotLabelled;NONE;16384;-0.4376731;-0.4695291;-0.7476377;0.1703601;-1;0;0;2122;-2804;1941;65536;0.8689389;0.2063712;-0.04709141;-0.4473684;-1;0;-2;3343;-1150;-2086;8192;0.6965079;-0.5941828;-0.02216066;0.4016621;1;0;-1;2514;3343;-131;32768;0.05540166;-0.8262025;0.5498615;0.1094183;0;0;0;3700;943;1744;256;0.3836565;-0.4639889;-0.589268;-0.5387812;0;0;2;555;4096;-119;128;-0.08725762;0.234072;0.6842105;0.685166;0;-6;-1;-899;4125;236;4;-0.2382271;-0.1274238;-0.6924474;-0.6689751;-1;-3;2;1755;3546;264;16;0.5940359;-0.5512465;0.4695291;0.3504155;0;-3;-1;445;4022;-436;2;0.6620498;-0.7430061;-0.09695291;0.01523546;0;-3;0;761;4152;-131;8;0.300554;-0.6163435;0.3518005;0.6372004;-1;-4;0;75;3369;2355;0.6337333;2.635301;0.9052117;0.6395907;3.169104;0.7927785;0.644735;3.6379;0.6919705;0.7426285;4.365095;0.7002202;0.5298129;4.723241;0.6657535;0.1727575;4.629112;0.7273172;-0.4519821;5.245494;0.4305008;0.4460959;5.547542;0.4350168;1.045506;4.653823;0.6657521;1.313042;4.475614;0.7273151;1.72106;3.696576;1.120883;0.8698362;3.497944;1.486602;0.3214722;2.592621;0.9070991;0.131009;1.324424;0.2026419;0;0;0;0.3214722;2.592621;0.9070991;0.131009;1.324424;0.2026419;0;0;0
413993.0069;NotLabelled;NONE;16384;-0.4376731;-0.4709141;-0.7464488;0.1717452;0;0;0;2214;-2816;1989;65536;0.8688627;0.2063712;-0.04847645;-0.4473684;1;0;-1;3413;-1230;-2150;8192;0.6973048;-0.5941828;-0.02216066;0.400277;1;1;0;2526;3341;-209;32768;0.05401662;-0.8272142;0.5484765;0.1094183;0;0;0;3754;877;1792;256;0.3836565;-0.4639889;-0.589268;-0.5387812;0;0;2;599;4092;-107;128;-0.08725762;0.2354571;0.6842105;0.6846913;0;-5;0;-857;4163;184;4;-0.2368421;-0.1274238;-0.6929224;-0.6689751;-1;-5;0;1985;3580;202;16;0.5940359;-0.5512465;0.4695291;0.3504155;2;0;0;245;4042;-508;2;0.6634349;-0.7419196;-0.09556787;0.0166205;0;-3;0;735;4106;-205;8;0.300554;-0.6163435;0.3518005;0.6372004;0;-5;0;75;3449;2403;0.6304923;2.634076;0.9085952;0.6363492;3.167824;0.7959011;0.6414928;3.636571;0.694864;0.7393867;4.363765;0.7031076;0.5265692;4.721912;0.6686532;0.1695174;4.627782;0.7302383;-0.4552297;5.244311;0.4337381;0.443575;5.544208;0.4367992;1.042262;4.652494;0.6686213;1.309802;4.474286;0.7301686;1.715069;3.694554;1.125203;0.8637363;3.493763;1.489489;0.3182311;2.591397;0.9105052;0.1270227;1.324662;0.2036245;0;0;0;0.3182311;2.591397;0.9105052;0.1270227;1.324662;0.2036245;0;0;0
414014.0065;NotLabelled;NONE;16384;-0.4376731;-0.4695291;-0.7473208;0.1717452;2;0;0;2170;-2930;2043;65536;0.8688627;0.2063712;-0.04847645;-0.4473684;1;-2;-1;3443;-1308;-2116;8192;0.6972594;-0.5941828;-0.0235457;0.400277;2;0;1;2462;3437;-149;32768;0.05540166;-0.8271226;0.5484765;0.1094183;0;3;0;3784;883;1674;256;0.3836565;-0.4653739;-0.5881748;-0.5387812;-2;1;1;597;4150;-91;128;-0.08725762;0.2354571;0.6828254;0.6860725;0;-5;0;-857;4159;220;4;-0.2368421;-0.1288089;-0.6913258;-0.6703601;0;-8;0;2039;3566;178;16;0.5940359;-0.5512465;0.4695291;0.3504155;2;-2;0;427;4040;-464;2;0.6634349;-0.7419196;-0.09556787;0.0166205;1;-5;0;585;4118;-391;8;0.300554;-0.6163435;0.3531856;0.6364338;0;-5;0;143;3431;2387;0.6316007;2.635522;0.9057016;0.6374577;3.169273;0.7930185;0.6426014;3.638021;0.691991;0.7404948;4.365216;0.7002407;0.5276793;4.723362;0.6657737;0.1706239;4.629233;0.7273375;-0.4525235;5.248282;0.4327306;0.4466712;5.546975;0.438099;1.043372;4.653944;0.6657723;1.310908;4.475735;0.7273356;1.715695;3.695216;1.121303;0.8645633;3.496777;1.487342;0.3193396;2.592843;0.9076105;0.1270107;1.324661;0.2036325;0;0;0;0.3193396;2.592843;0.9076105;0.1270107;1.324661;0.2036325;0;0;0
414034.3089;NotLabelled;NONE;16384;-0.4390582;-0.4695291;-0.7465079;0.1717452;3;0;0;2278;-2900;2043;65536;0.8688627;0.2063712;-0.04847645;-0.4473684;2;-3;-1;3367;-1266;-2162;8192;0.6964625;-0.5941828;-0.0235457;0.4016621;1;0;1;2522;3471;-63;32768;0.05540166;-0.8271226;0.5484765;0.1094183;0;1;0;3826;945;1526;256;0.3836565;-0.4653739;-0.5894406;-0.5373961;-1;0;0;571;4184;-99;128;-0.08864266;0.2368421;0.6828254;0.6854179;0;-3;0;-929;4157;316;4;-0.2354571;-0.1288089;-0.6917988;-0.6703601;0;-8;-1;2011;3530;140;16;0.5945008;-0.5498615;0.4695291;0.3518005;2;-6;0;397;4022;-576;2;0.6634349;-0.7419196;-0.09556787;0.0166205;0;-5;0;699;4174;-353;8;0.299169;-0.6163435;0.3531856;0.637086;0;-4;0;243;3343;2407;0.6240944;2.634246;0.9104189;0.6299561;3.168428;0.7997983;0.6351041;3.637563;0.7005821;0.7334405;4.364673;0.7107859;0.5208753;4.72304;0.6770654;0.1637108;4.628973;0.7380906;-0.4578785;5.246022;0.4360853;0.4412948;5.544714;0.4442958;1.036525;4.653302;0.6773125;1.303899;4.474769;0.7386379;1.706574;3.69691;1.139967;0.8541654;3.496312;1.501833;0.3118331;2.59156;0.9121497;0.1263664;1.324662;0.2040325;0;0;0;0.3118331;2.59156;0.9121497;0.1263664;1.324662;0.2040325;0;0;0
414053.9892;NotLabelled;NONE;16384;-0.4390582;-0.4695291;-0.7468252;0.1703601;3;0;0;2278;-2798;1991;65536;0.8694962;0.2063712;-0.04986149;-0.4459834;3;-3;-2;3345;-1182;-2178;8192;0.6972594;-0.5941828;-0.0235457;0.400277;0;1;0;2472;3431;-117;32768;0.05540166;-0.8271226;0.5484765;0.1094183;1;0;0;3758;931;1496;256;0.3836565;-0.4653739;-0.5894406;-0.5373961;-2;-1;0;537;4120;-139;128;-0.08864266;0.2368421;0.6828254;0.6854179;-2;-1;1;-891;4097;302;4;-0.234072;-0.1301939;-0.6920095;-0.6703601;-1;-5;-2;2143;3588;184;16;0.5934043;-0.5498615;0.4709141;0.3518005;2;-5;0;351;4062;-548;2;0.6620498;-0.7433004;-0.09418282;0.01800554;2;-3;0;843;4010;-405;8;0.299169;-0.6149584;0.3545706;0.6376549;1;-3;0;209;3317;2299;0.6217823;2.635919;0.9082905;0.6276435;3.170046;0.7974044;0.6327908;3.639132;0.6979551;0.7327801;4.366045;0.7059065;0.5209958;4.724789;0.6713067;0.1636739;4.631714;0.7329276;-0.4571863;5.250863;0.4337358;0.4419913;5.549555;0.4414343;1.036486;4.653885;0.6713057;1.303511;4.47493;0.7329259;1.708068;3.696518;1.131276;0.8558656;3.495919;1.493627;0.3095212;2.593234;0.9100443;0.1224919;1.324886;0.20494;0;0;0;0.3095212;2.593234;0.9100443;0.1224919;1.324886;0.20494;0;0;0
414075.1942;NotLabelled;NONE;16384;-0.4390582;-0.4695291;-0.7468252;0.1703601;4;0;1;2190;-2762;2015;65536;0.8694962;0.2063712;-0.04986149;-0.4459834;3;-3;-2;3257;-1178;-2172;8192;0.6972594;-0.5941828;-0.0235457;0.400277;0;2;0;2432;3473;-35;32768;0.05540166;-0.8271226;0.5484765;0.1094183;1;0;-1;3784;875;1562;256;0.3850415;-0.4653739;-0.5885367;-0.5373961;-2;-1;0;607;4114;-141;128;-0.08864266;0.2368421;0.6814404;0.6867949;-2;1;2;-875;4103;302;4;-0.234072;-0.1301939;-0.6920095;-0.6703601;0;0;-3;2217;3454;250;16;0.5934043;-0.5498615;0.4709141;0.3518005;3;-3;1;411;4030;-564;2;0.6620498;-0.7433004;-0.09418282;0.01800554;2;-2;0;837;4030;-391;8;0.299169;-0.6149584;0.3545706;0.6376549;1;0;0;97;3375;2233;0.6272269;2.635594;0.9076535;0.633088;3.169721;0.7967674;0.6382353;3.638807;0.697318;0.7382245;4.365719;0.7052698;0.5264403;4.724464;0.6706703;0.1691184;4.631388;0.7322911;-0.4530057;5.248721;0.4319735;0.4464188;5.546618;0.4414724;1.041931;4.65356;0.6706691;1.308955;4.474605;0.7322897;1.713105;3.695208;1.129123;0.8609031;3.494608;1.491474;0.3149658;2.592909;0.9094074;0.126091;1.324574;0.2047706;0;0;0;0.3149658;2.592909;0.9094074;0.126091;1.324574;0.2047706;0;0;0
414095.9937;NotLabelled;NONE;16384;-0.4404432;-0.4695291;-0.7460092;0.1703601;3;-3;1;2060;-2834;2103;65536;0.8700421;0.2063712;-0.05263158;-0.4445983;5;-3;-2;3277;-1234;-2196;8192;0.6972594;-0.5941828;-0.0235457;0.400277;0;2;0;2384;3415;-43;32768;0.05540166;-0.8271226;0.5484765;0.1094183;0;0;-1;3726;841;1562;256;0.3850415;-0.4653739;-0.5885367;-0.5373961;-1;0;0;571;4008;-121;128;-0.08864266;0.2368421;0.6814404;0.6867949;-3;6;2;-913;4047;272;4;-0.234072;-0.1301939;-0.6920095;-0.6703601;0;2;-2;2243;3440;286;16;0.5935853;-0.5484765;0.4722992;0.3518005;2;-5;1;469;4048;-676;2;0.6620498;-0.7433004;-0.09418282;0.01800554;0;0;-1;795;4116;-367;8;0.299169;-0.6149584;0.3545706;0.6376549;1;1;1;227;3363;2311;0.6251104;2.6356;0.9085613;0.6309761;3.170151;0.7997345;0.6361277;3.639616;0.7020936;0.7344073;4.366761;0.710043;0.5217801;4.725008;0.6754421;0.164678;4.631092;0.7370631;-0.4567457;5.248425;0.4352991;0.4426542;5.546321;0.4468905;1.037436;4.655315;0.6754415;1.30488;4.47699;0.7370625;1.708107;3.697592;1.134835;0.8550634;3.496992;1.495203;0.312849;2.592909;0.9101376;0.1256143;1.324574;0.2050633;0;0;0;0.312849;2.592909;0.9101376;0.1256143;1.324574;0.2050633;0;0;0
414118.0265;NotLabelled;NONE;16384;-0.4418283;-0.4695291;-0.745505;0.1689751;3;-3;0;2150;-2722;2147;65536;0.8697124;0.2077562;-0.05263158;-0.4445983;4;-2;-2;3245;-1264;-2200;8192;0.6980528;-0.5941828;-0.0235457;0.398892;0;0;-2;2284;3351;-51;32768;0.05540166;-0.8271226;0.5484765;0.1094183;-2;0;-1;3718;795;1490;256;0.3850415;-0.4653739;-0.5885367;-0.5373961;-1;3;0;577;4016;-153;128;-0.08864266;0.2354571;0.6814404;0.687271;-3;5;2;-855;4061;316;4;-0.234072;-0.1288089;-0.6922687;-0.6703601;0;5;0;2053;3498;254;16;0.594862;-0.5470914;0.4722992;0.3518005;1;0;1;409;4054;-934;2;0.6620498;-0.7431235;-0.09556787;0.01800554;0;2;0;717;4092;-415;8;0.299169;-0.6149584;0.3545706;0.6376549;1;1;1;221;3357;2315;0.6255783;2.634967;0.9123321;0.6314441;3.169517;0.8035052;0.6365955;3.638983;0.7058642;0.7348753;4.366127;0.7138137;0.5222479;4.724374;0.6792128;0.1651459;4.630458;0.7408338;-0.4544467;5.24874;0.4372501;0.4455481;5.544646;0.4529111;1.037904;4.654682;0.6792122;1.305349;4.476356;0.7408332;1.708574;3.696958;1.138606;0.8555312;3.496359;1.498974;0.313317;2.592275;0.9139084;0.1260822;1.323941;0.208834;0;0;0;0.313317;2.592275;0.9139084;0.1260822;1.323941;0.208834;0;0;0
414138.0049;NotLabelled;NONE;16384;-0.4418283;-0.4695291;-0.745505;0.1689751;1;-3;0;2170;-2722;2075;65536;0.8696274;0.2077562;-0.05401662;-0.4445983;4;0;-2;3161;-1344;-2160;8192;0.6980981;-0.5941828;-0.02216066;0.398892;-2;0;-3;2274;3307;-75;32768;0.05540166;-0.8271226;0.5484765;0.1094183;-2;0;0;3692;905;1444;256;0.3850415;-0.4653739;-0.5885367;-0.5373961;-1;5;-1;545;4002;-123;128;-0.08864266;0.2354571;0.6814404;0.687271;-4;2;0;-867;3989;248;4;-0.234072;-0.1288089;-0.6922687;-0.6703601;0;4;0;2103;3504;262;16;0.595679;-0.5470914;0.4722992;0.3504155;0;0;0;431;4014;-756;2;0.6620498;-0.7431235;-0.09556787;0.01800554;0;2;0;719;3986;-517;8;0.299169;-0.6149584;0.3545706;0.6376549;0;0;0;227;3379;2299;0.6217592;2.636091;0.9138253;0.627625;3.170639;0.8049859;0.6327766;3.640102;0.707334;0.7310563;4.367247;0.715283;0.5184288;4.725493;0.6806829;0.161327;4.631578;0.7423052;-0.4576638;5.248997;0.4357562;0.4415949;5.547058;0.4528011;1.034085;4.655801;0.6806804;1.30153;4.477476;0.7423005;1.70433;3.697087;1.13856;0.8512879;3.496488;1.49893;0.3094981;2.593399;0.9154025;0.1229533;1.323608;0.212772;0;0;0;0.3094981;2.593399;0.9154025;0.1229533;1.323608;0.212772;0;0;0
414159.082;NotLabelled;NONE;16384;-0.4418283;-0.4695291;-0.745505;0.1689751;1;-3;1;2166;-2604;2067;65536;0.8696274;0.2077562;-0.05401662;-0.4445983;3;0;-2;3193;-1240;-2136;8192;0.6977078;-0.5955678;-0.02216066;0.3975069;-2;1;-4;2232;3247;-61;32768;0.05540166;-0.8271226;0.5484765;0.1094183;-1;-3;0;3586;901;1476;256;0.3836565;-0.4639889;-0.5905314;-0.5373961;0;5;0;559;3910;-149;128;-0.08725762;0.2354571;0.6800554;0.6888184;-6;3;2;-805;4033;306;4;-0.2354571;-0.1288089;-0.6917988;-0.6703601;0;2;0;2125;3452;286;16;0.595679;-0.5470914;0.4722992;0.3504155;0;1;0;459;3976;-706;2;0.6620498;-0.7431558;-0.09556787;0.0166205;-1;6;-1;615;4018;-413;8;0.299169;-0.6149584;0.3545706;0.6376549;0;-2;0;209;3329;2359;0.6225958;2.635533;0.9167888;0.6284615;3.170081;0.8079493;0.633613;3.639544;0.7102975;0.7318927;4.366689;0.7182468;0.5192655;4.724935;0.683646;0.1621634;4.63102;0.745267;-0.4568252;5.248433;0.4386989;0.4427849;5.545292;0.4580119;1.034921;4.655243;0.6836452;1.302366;4.476918;0.7452666;1.70478;3.695421;1.139728;0.8517372;3.494821;1.500095;0.3103345;2.592842;0.918366;0.1237922;1.32305;0.2157348;0;0;0;0.3103345;2.592842;0.918366;0.1237922;1.32305;0.2157348;0;0;0
414179.1138;NotLabelled;NONE;16384;-0.4432133;-0.4695291;-0.7446824;0.1689751;0;-3;0;2122;-2676;2035;65536;0.8696274;0.2077562;-0.05401662;-0.4445983;3;0;-2;3183;-1158;-2084;8192;0.6977078;-0.5955678;-0.02216066;0.3975069;-3;2;-5;2358;3223;-19;32768;0.05540166;-0.8262025;0.5498615;0.1094183;-1;-4;0;3534;849;1524;256;0.3836565;-0.4639889;-0.5905314;-0.5373961;-1;3;-1;461;3950;-109;128;-0.08725762;0.2354571;0.6800554;0.6888184;-4;4;2;-769;3959;298;4;-0.2354571;-0.1288089;-0.6931382;-0.6689751;0;1;0;2155;3478;246;16;0.595679;-0.5470914;0.4722992;0.3504155;0;0;0;459;4056;-694;2;0.6620498;-0.7430061;-0.09695291;0.01523546;0;4;0;661;4010;-421;8;0.299169;-0.6149584;0.3545706;0.6376549;0;0;0;207;3365;2377;0.6260489;2.634096;0.9183382;0.6319197;3.169114;0.8118335;0.6370758;3.638999;0.7162322;0.7366122;4.365992;0.7222766;0.524591;4.724514;0.6868283;0.1673492;4.631373;0.7488148;-0.453166;5.248785;0.4453487;0.4465295;5.545646;0.4601586;1.040126;4.653932;0.6868275;1.307284;4.475304;0.7488143;1.70846;3.692334;1.141613;0.8572311;3.491734;1.506246;0.3137875;2.591398;0.9197142;0.1248704;1.32305;0.2151127;0;0;0;0.3137875;2.591398;0.9197142;0.1248704;1.32305;0.2151127;0;0;0
414200.1117;NotLabelled;NONE;16384;-0.4432133;-0.4695291;-0.7449953;0.16759;0;-3;0;2160;-2786;2057;65536;0.8695403;0.2077562;-0.05540166;-0.4445983;3;0;-2;3235;-1192;-2102;8192;0.6997162;-0.5941828;-0.02077562;0.3961219;-3;2;-5;2302;3223;-49;32768;0.05540166;-0.8262025;0.5498615;0.1094183;-2;-4;0;3618;873;1620;256;0.3836565;-0.4639889;-0.589268;-0.5387812;0;4;-1;485;3960;-109;128;-0.08725762;0.234072;0.6786703;0.690654;-4;4;1;-779;4023;252;4;-0.2354571;-0.1288089;-0.6931382;-0.6689751;0;4;0;2155;3496;292;16;0.595679;-0.5470914;0.4722992;0.3504155;-1;0;0;481;4014;-656;2;0.6620498;-0.7430061;-0.09695291;0.01523546;2;4;-1;669;4044;-383;8;0.299169;-0.6149584;0.3559557;0.6368828;0;-1;0;249;3371;2175;0.631375;2.633914;0.9172165;0.6372457;3.168931;0.8107117;0.6424019;3.638816;0.7151103;0.7419383;4.36581;0.7211548;0.5299169;4.724331;0.6857066;0.1726752;4.631192;0.7476931;-0.4460007;5.249552;0.442407;0.4536944;5.546411;0.457217;1.045452;4.65375;0.6857058;1.31261;4.475122;0.7476925;1.713786;3.692153;1.140492;0.8624637;3.491362;1.504801;0.3191135;2.591216;0.9185924;0.1248702;1.32305;0.2151127;0;0;0;0.3191135;2.591216;0.9185924;0.1248702;1.32305;0.2151127;0;0;0
414221.0236;NotLabelled;NONE;16384;-0.4432133;-0.4709141;-0.7441206;0.16759;1;-3;0;2218;-2702;2005;65536;0.8695403;0.2077562;-0.05540166;-0.4445983;3;0;-1;3235;-1234;-2118;8192;0.7004984;-0.5941828;-0.02077562;0.3947368;-1;0;-3;2388;3361;-167;32768;0.05401662;-0.8251861;0.5512465;0.1108033;0;-1;0;3786;819;1608;256;0.3836565;-0.4639889;-0.589268;-0.5387812;0;6;0;511;4012;-113;128;-0.08725762;0.234072;0.6786703;0.690654;-4;2;1;-815;4045;304;4;-0.2368421;-0.1274238;-0.6929224;-0.6689751;0;5;1;1957;3494;286;16;0.594404;-0.5484765;0.4722992;0.3504155;-2;2;0;457;3968;-554;2;0.6620498;-0.7430061;-0.09695291;0.01523546;1;1;0;619;4010;-459;8;0.299169;-0.6149584;0.3559557;0.6368828;0;-4;0;187;3287;2329;0.6312951;2.633919;0.9174196;0.6371704;3.169339;0.8129547;0.6423305;3.639584;0.7191448;0.740224;4.366779;0.7273945;0.5274086;4.724926;0.6929277;0.1703531;4.630796;0.7544915;-0.4496752;5.247341;0.4482793;0.4503741;5.542999;0.4654315;1.043101;4.655508;0.6929262;1.310637;4.477298;0.7544892;1.713897;3.692751;1.141973;0.862543;3.491961;1.506208;0.3190337;2.591216;0.9186195;0.1248517;1.32305;0.2151231;0;0;0;0.3190337;2.591216;0.9186195;0.1248517;1.32305;0.2151231;0;0;0
414241.0143;NotLabelled;NONE;16384;-0.4432133;-0.4709141;-0.7441206;0.16759;1;-3;-1;2192;-2640;2001;65536;0.8692082;0.2091413;-0.05540166;-0.4445983;3;0;0;3251;-1312;-2168;8192;0.7005381;-0.5941828;-0.01939058;0.3947368;0;0;-2;2402;3339;-79;32768;0.05401662;-0.8251861;0.5512465;0.1108033;0;-1;0;3814;977;1574;256;0.3836565;-0.4626039;-0.590356;-0.5387812;0;7;0;551;4058;-183;128;-0.08725762;0.234072;0.6786703;0.690654;-3;-2;0;-845;4111;274;4;-0.2382271;-0.1274238;-0.6924474;-0.6689751;0;4;1;1911;3474;230;16;0.594404;-0.5484765;0.4722992;0.3504155;-2;0;0;441;4104;-620;2;0.6620498;-0.7430332;-0.09695291;0.01385042;0;4;0;615;4034;-469;8;0.2977839;-0.6149584;0.3559557;0.6375315;0;-1;0;143;3385;2313;0.6325544;2.634272;0.9139545;0.6384298;3.169692;0.8094897;0.6435897;3.639938;0.7156798;0.7414833;4.367133;0.7239296;0.5286678;4.725279;0.6894628;0.1716123;4.63115;0.7510266;-0.4479519;5.248562;0.4456238;0.4520975;5.544221;0.4627758;1.04436;4.655861;0.6894614;1.311896;4.477652;0.7510242;1.714536;3.692145;1.137204;0.8643656;3.491892;1.504487;0.320293;2.591569;0.9151546;0.127964;1.323389;0.2111765;0;0;0;0.320293;2.591569;0.9151546;0.127964;1.323389;0.2111765;0;0;0
414262.008;NotLabelled;NONE;16384;-0.4432133;-0.4709141;-0.7444311;0.166205;0;-3;-1;2240;-2732;2049;65536;0.8691188;0.2091413;-0.0567867;-0.4445983;4;0;-1;3265;-1322;-2080;8192;0.7005381;-0.5941828;-0.01939058;0.3947368;0;0;-1;2500;3379;41;32768;0.05401662;-0.8251861;0.5512465;0.1108033;1;0;0;3622;1071;1588;256;0.3822715;-0.4626039;-0.5912538;-0.5387812;0;9;-1;493;4062;-79;128;-0.08864266;0.234072;0.6772853;0.6918362;-2;-1;1;-839;4061;322;4;-0.2382271;-0.1260388;-0.6927008;-0.6689751;0;3;1;1941;3536;262;16;0.594404;-0.5484765;0.4722992;0.3504155;-1;0;0;333;4052;-468;2;0.6620498;-0.7430332;-0.09695291;0.01385042;1;2;0;599;3962;-437;8;0.2977839;-0.6135734;0.3559557;0.6388646;0;-2;0;243;3389;2295;0.6338435;2.632826;0.9160131;0.6397188;3.168245;0.8115481;0.6448789;3.638492;0.7177383;0.7423158;4.365767;0.7240871;0.5292622;4.723689;0.6887742;0.1722875;4.629493;0.7507027;-0.4480905;5.246904;0.4469561;0.4512681;5.544714;0.4630969;1.044999;4.654596;0.6887733;1.312668;4.476715;0.7507014;1.715926;3.690106;1.133985;0.8667393;3.489855;1.503538;0.3215821;2.590123;0.9172132;0.1285278;1.323388;0.2108337;0;0;0;0.3215821;2.590123;0.9172132;0.1285278;1.323388;0.2108337;0;0;0
414283.8516;NotLabelled;NONE;16384;-0.4432133;-0.4709141;-0.7444311;0.166205;1;-4;0;2224;-2766;2055;65536;0.8691188;0.2091413;-0.0567867;-0.4445983;3;0;-1;3309;-1310;-2044;8192;0.7005381;-0.5941828;-0.01939058;0.3947368;-2;2;0;2462;3345;-21;32768;0.05540166;-0.8250943;0.5512465;0.1108033;1;-1;0;3642;1041;1588;256;0.3822715;-0.4612188;-0.5910721;-0.5401662;-2;2;-1;471;4076;-127;128;-0.08864266;0.234072;0.6772853;0.6918362;-2;-1;2;-711;4057;286;4;-0.2396122;-0.1260388;-0.692223;-0.6689751;0;2;0;1931;3556;266;16;0.5942232;-0.5498615;0.4709141;0.3504155;-1;1;0;387;4024;-518;2;0.6620498;-0.7430577;-0.09695291;0.01246537;0;2;-1;635;4040;-393;8;0.2963989;-0.6135734;0.3573407;0.6387355;0;-1;1;157;3369;2419;0.6352583;2.634292;0.9129842;0.6411375;3.170053;0.8102883;0.6463009;3.640607;0.7180322;0.7454424;4.367651;0.7243831;0.5332285;4.726073;0.6890712;0.1760339;4.632713;0.7509993;-0.446407;5.248311;0.4477907;0.4533454;5.544918;0.4641041;1.048801;4.655771;0.6890701;1.316054;4.477262;0.7509979;1.720358;3.690655;1.133176;0.8720335;3.490402;1.5047;0.322997;2.591585;0.9140318;0.1290174;1.323389;0.2105347;0;0;0;0.322997;2.591585;0.9140318;0.1290174;1.323389;0.2105347;0;0;0
414326.2138;NotLabelled;NONE;16384;-0.4432133;-0.4722992;-0.7438615;0.1648199;0;-1;-1;2212;-2710;1991;65536;0.8686927;0.2105263;-0.05817174;-0.4445983;2;0;0;3293;-1347;-2110;8192;0.7024483;-0.5927978;-0.02077562;0.3933518;0;2;0;2264;3289;-57;32768;0.0567867;-0.8250001;0.5512465;0.1108033;2;1;-1;3612;859;1670;256;0.3822715;-0.4598338;-0.5921502;-0.5401662;-1;0;-1;483;4104;-53;128;-0.0900277;0.234072;0.6759003;0.6930109;-2;-1;1;-797;4069;278;4;-0.2382271;-0.1260388;-0.6927008;-0.6689751;0;0;0;1977;3554;256;16;0.5934043;-0.5498615;0.4709141;0.3518005;0;0;0;367;3994;-524;2;0.6620498;-0.7428757;-0.09833795;0.01246537;1;0;0;633;4004;-379;8;0.2963989;-0.6135734;0.3559557;0.6395084;0;-1;0;205;3353;2327;0.6359463;2.633488;0.9113078;0.6418254;3.16925;0.8086121;0.6469889;3.639803;0.7163561;0.7440281;4.367127;0.7230223;0.5307813;4.72495;0.6878506;0.1738545;4.630531;0.749718;-0.449241;5.246129;0.4478562;0.4505509;5.542736;0.4618508;1.046555;4.656138;0.6878498;1.314319;4.478376;0.7497172;1.719449;3.691769;1.13102;0.8719422;3.489361;1.503243;0.3236849;2.590781;0.9123555;0.1290454;1.324031;0.2064393;0;0;0;0.3236849;2.590781;0.9123555;0.1290454;1.324031;0.2064393;0;0;0
414346.9966;NotLabelled;NONE;16384;-0.4432133;-0.4722992;-0.7438615;0.1648199;0;-2;-1;2194;-2698;2047;65536;0.8686927;0.2105263;-0.05817174;-0.4445983;2;0;0;3306;-1294;-2109;8192;0.7024483;-0.5927978;-0.02077562;0.3933518;0;2;1;2308;3311;-55;32768;0.0567867;-0.8250001;0.5512465;0.1108033;2;1;0;3632;841;1568;256;0.3822715;-0.4598338;-0.5921502;-0.5401662;-1;1;-1;491;4042;-95;128;-0.0900277;0.2354571;0.6759003;0.6925415;0;0;1;-835;4053;288;4;-0.2382271;-0.1260388;-0.6927008;-0.6689751;-1;1;0;1971;3496;258;16;0.5934043;-0.5498615;0.4709141;0.3518005;0;1;0;289;4038;-596;2;0.6620498;-0.7430577;-0.09695291;0.01246537;1;0;0;595;4000;-353;8;0.2963989;-0.6135734;0.3559557;0.6395084;0;-3;0;113;3317;2317;0.6386296;2.635481;0.9047123;0.6445123;3.171577;0.8037772;0.6496791;3.642431;0.7130675;0.7462465;4.369833;0.7178448;0.5327544;4.727425;0.6818327;0.1759102;4.632933;0.7440625;-0.4490093;5.247584;0.4440483;0.4504502;5.545136;0.4593101;1.048573;4.65895;0.6818316;1.316473;4.481521;0.7440611;1.72549;3.69558;1.122579;0.8788372;3.491016;1.495566;0.3263681;2.592771;0.9056085;0.1287064;1.324574;0.203137;0;0;0;0.3263681;2.592771;0.9056085;0.1287064;1.324574;0.203137;0;0;0
414367.4602;NotLabelled;NONE;16384;-0.4432133;-0.4722992;-0.7438615;0.1648199;2;-2;-1;2240;-2762;2051;65536;0.8683559;0.2119114;-0.05817174;-0.4445983;2;0;0;3293;-1217;-2033;8192;0.7024483;-0.5927978;-0.02077562;0.3933518;0;1;1;2346;3275;-9;32768;0.0567867;-0.8250001;0.5512465;0.1108033;1;1;0;3670;941;1528;256;0.3822715;-0.4598338;-0.5921502;-0.5401662;-2;2;-1;477;4046;-21;128;-0.0900277;0.2354571;0.6759003;0.6925415;0;0;1;-857;4071;298;4;-0.2382271;-0.1260388;-0.6927008;-0.6689751;0;0;0;1929;3520;274;16;0.5934043;-0.5498615;0.4709141;0.3518005;0;0;0;457;4030;-558;2;0.6620498;-0.7430577;-0.09695291;0.01246537;0;-3;-1;607;4098;-365;8;0.2963989;-0.6135734;0.3573407;0.6387355;-1;-1;0;139;3419;2257;0.6386294;2.635481;0.9047118;0.6445122;3.17158;0.8037916;0.649679;3.642437;0.7130952;0.7462463;4.369839;0.7178719;0.5327542;4.727431;0.6818597;0.17591;4.632938;0.7440896;-0.4488906;5.247589;0.4438272;0.4505685;5.545141;0.4590885;1.048573;4.658956;0.6818588;1.316473;4.481527;0.7440883;1.72534;3.695586;1.122769;0.8786873;3.491023;1.495756;0.3263679;2.592771;0.9056067;0.1287063;1.324574;0.2031361;0;0;0;0.3263679;2.592771;0.9056067;0.1287063;1.324574;0.2031361;0;0;0
414388.0079;NotLabelled;NONE;16384;-0.4432133;-0.4722992;-0.7438615;0.1648199;2;-1;-1;2240;-2780;2059;65536;0.8683559;0.2119114;-0.05817174;-0.4445983;2;-1;0;3338;-1281;-1995;8192;0.7024483;-0.5927978;-0.02077562;0.3933518;0;0;0;2300;3301;-7;32768;0.0567867;-0.8250001;0.5512465;0.1108033;0;0;-1;3610;873;1536;256;0.3836565;-0.4598338;-0.5912538;-0.5401662;-2;0;0;501;4014;-83;128;-0.09141274;0.2354571;0.6759003;0.6923601;0;1;1;-779;4099;276;4;-0.2382271;-0.1260388;-0.6927008;-0.6689751;0;-2;-1;1979;3516;220;16;0.5934043;-0.5498615;0.4709141;0.3518005;1;-1;0;453;4044;-514;2;0.6620498;-0.7430577;-0.09695291;0.01246537;0;-3;-1;609;4130;-297;8;0.2963989;-0.6135734;0.3573407;0.6387355;-1;-3;0;153;3421;2331;0.6386295;2.635481;0.9047136;0.6445122;3.171579;0.8037934;0.649679;3.642436;0.7130969;0.7462462;4.369839;0.7178742;0.5327542;4.727431;0.6818621;0.1759101;4.632938;0.7440919;-0.4488894;5.24759;0.4438279;0.4498325;5.547286;0.4604903;1.048573;4.658956;0.6818612;1.316473;4.481526;0.7440904;1.725339;3.695585;1.122772;0.8786858;3.491021;1.495759;0.326368;2.592771;0.9056085;0.1287064;1.324574;0.203137;0;0;0;0.326368;2.592771;0.9056085;0.1287064;1.324574;0.203137;0;0;0
414408.9979;NotLabelled;NONE;16384;-0.4432133;-0.4722992;-0.744167;0.1634349;2;0;-2;2222;-2784;2031;65536;0.8683559;0.2119114;-0.05817174;-0.4445983;1;-1;0;3378;-1283;-2067;8192;0.7024483;-0.5927978;-0.02077562;0.3933518;0;1;1;2296;3289;3;32768;0.0567867;-0.8250001;0.5512465;0.1108033;0;0;0;3678;855;1534;256;0.3836565;-0.4598338;-0.5912538;-0.5401662;-2;0;0;491;4078;-93;128;-0.09141274;0.2354571;0.6759003;0.6923601;0;0;1;-787;4005;314;4;-0.2382271;-0.1260388;-0.6927008;-0.6689751;-1;-3;0;1963;3536;256;16;0.5935853;-0.5484765;0.4722992;0.3518005;1;-1;0;423;4020;-566;2;0.6620498;-0.7432371;-0.09556787;0.01246537;0;-2;0;747;4070;-373;8;0.2963989;-0.6135734;0.3573407;0.6387355;0;-1;0;163;3351;2453;0.6365232;2.63548;0.9054443;0.6424055;3.171525;0.8042346;0.6475717;3.642332;0.7132837;0.7424361;4.369958;0.7180592;0.5281076;4.72705;0.6820463;0.1714856;4.631723;0.7442766;-0.4525948;5.246374;0.4425207;0.4460862;5.54607;0.4612725;1.044085;4.659782;0.6820453;1.3124;4.482981;0.7442751;1.72036;3.69704;1.123932;0.872842;3.492476;1.49495;0.3242618;2.592771;0.906364;0.1282339;1.324574;0.2034352;0;0;0;0.3242618;2.592771;0.906364;0.1282339;1.324574;0.2034352;0;0;0
414429.033;NotLabelled;NONE;16384;-0.4432133;-0.4722992;-0.744167;0.1634349;2;0;-2;2222;-2756;2035;65536;0.8683559;0.2119114;-0.05817174;-0.4445983;2;-1;0;3302;-1293;-2069;8192;0.7024483;-0.5927978;-0.02077562;0.3933518;0;0;0;2290;3307;-35;32768;0.0567867;-0.8250001;0.5512465;0.1108033;0;0;0;3656;895;1542;256;0.3836565;-0.4598338;-0.5912538;-0.5401662;-3;1;0;481;3982;-85;128;-0.09141274;0.2354571;0.6759003;0.6923601;0;1;1;-785;4027;372;4;-0.2382271;-0.1260388;-0.6927008;-0.6689751;-1;-3;-1;2047;3426;306;16;0.5935853;-0.5484765;0.4722992;0.3518005;1;0;1;395;4050;-590;2;0.6620498;-0.7432126;-0.09556787;0.01385042;0;-2;0;741;4062;-431;8;0.2963989;-0.6135734;0.3559557;0.6395084;0;2;0;135;3327;2497;0.6370393;2.634847;0.9092094;0.6429216;3.170891;0.8079998;0.6480877;3.641698;0.7170489;0.7429522;4.369326;0.7218245;0.5286238;4.726417;0.685812;0.1720017;4.631089;0.7480422;-0.4533212;5.243923;0.4451644;0.4453598;5.543619;0.4639159;1.044601;4.659149;0.6858107;1.312916;4.482347;0.7480404;1.7209;3.696406;1.127671;0.8733822;3.491842;1.498689;0.3247779;2.592137;0.9101292;0.1287501;1.323941;0.2072;0;0;0;0.3247779;2.592137;0.9101292;0.1287501;1.323941;0.2072;0;0;0
414450.4599;NotLabelled;NONE;16384;-0.4432133;-0.4722992;-0.7444698;0.1620499;3;-1;-2;2228;-2716;2029;65536;0.8683559;0.2119114;-0.05817174;-0.4445983;1;-1;0;3250;-1245;-2101;8192;0.7024483;-0.5927978;-0.02077562;0.3933518;0;0;0;2334;3345;-51;32768;0.0567867;-0.8250001;0.5512465;0.1108033;0;0;0;3738;939;1514;256;0.3836565;-0.4598338;-0.5925162;-0.5387812;-3;2;0;529;4000;-101;128;-0.09141274;0.2354571;0.6759003;0.6923601;0;1;0;-823;4059;344;4;-0.2368421;-0.1260388;-0.6931756;-0.6689751;0;-1;0;2099;3526;256;16;0.5935853;-0.5484765;0.4722992;0.3518005;1;0;1;367;4024;-640;2;0.6620498;-0.7432126;-0.09556787;0.01385042;0;0;0;721;4126;-379;8;0.2963989;-0.6149584;0.3559557;0.6381767;0;5;1;199;3417;2375;0.6370393;2.634847;0.9092094;0.6429216;3.170891;0.8079998;0.6480877;3.641698;0.7170489;0.7429522;4.369326;0.7218245;0.5286238;4.726417;0.685812;0.1720017;4.631089;0.7480422;-0.4533212;5.243923;0.4451644;0.4453598;5.543619;0.4639159;1.044601;4.659149;0.6858107;1.312916;4.482347;0.7480404;1.7209;3.696406;1.127671;0.8733822;3.491842;1.498689;0.3247779;2.592137;0.9101292;0.1287501;1.323941;0.2072;0;0;0;0.3247779;2.592137;0.9101292;0.1287501;1.323941;0.2072;0;0;0
414491.334;NotLabelled;NONE;16384;-0.4432133;-0.4709141;-0.7453467;0.1620499;4;-1;-2;2254;-2704;2079;65536;0.8680167;0.2132964;-0.05817174;-0.4445983;2;-2;0;3294;-1345;-2081;8192;0.7024483;-0.5927978;-0.02077562;0.3933518;0;0;0;2330;3415;-29;32768;0.0567867;-0.8250001;0.5512465;0.1108033;0;0;0;3698;863;1522;256;0.3836565;-0.4584487;-0.5935885;-0.5387812;-2;3;0;521;4048;-121;128;-0.09141274;0.2354571;0.6759003;0.6923601;0;2;0;-813;4031;376;4;-0.2368421;-0.1274238;-0.6929224;-0.6689751;0;-1;-1;2069;3506;240;16;0.594404;-0.5484765;0.4722992;0.3504155;0;0;1;415;4014;-542;2;0.6620498;-0.7432126;-0.09556787;0.01385042;0;-1;1;665;4080;-413;8;0.2963989;-0.6149584;0.3559557;0.6381767;0;3;1;309;3401;2327;0.6382579;2.636287;0.9062559;0.6441402;3.172331;0.8050462;0.6493064;3.643139;0.7140954;0.7458041;4.370562;0.71666;0.5322626;4.728024;0.6796643;0.1754523;4.633683;0.7423178;-0.4511129;5.244697;0.4383332;0.4475697;5.544393;0.4570061;1.048088;4.659599;0.6796628;1.31603;4.482383;0.7423162;1.724048;3.696441;1.121911;0.8765624;3.491878;1.493003;0.3259965;2.593578;0.9071757;0.1287683;1.323941;0.2071884;0;0;0;0.3259965;2.593578;0.9071757;0.1287683;1.323941;0.2071884;0;0;0
414511.9897;NotLabelled;NONE;16384;-0.4432133;-0.4709141;-0.7456465;0.1606648;4;-1;-2;2208;-2758;2083;65536;0.8686309;0.2132964;-0.05955679;-0.4432133;1;-1;-1;3374;-1369;-2157;8192;0.703222;-0.5927978;-0.02077562;0.3919668;0;0;-1;2290;3391;43;32768;0.0567867;-0.8250001;0.5512465;0.1108033;-1;-2;0;3712;857;1528;256;0.3836565;-0.4584487;-0.5935885;-0.5387812;-1;2;0;537;4076;-115;128;-0.0900277;0.234072;0.6759003;0.6930109;-1;8;0;-839;3997;306;4;-0.2368421;-0.1274238;-0.6929224;-0.6689751;0;0;-1;2137;3434;270;16;0.594404;-0.5484765;0.4722992;0.3504155;0;-1;1;435;4018;-706;2;0.6620498;-0.7433894;-0.09418282;0.01385042;0;0;0;667;4000;-485;8;0.2977839;-0.6149584;0.3559557;0.6375315;0;2;1;317;3381;2265;0.6422802;2.634279;0.9107726;0.6481625;3.170323;0.809563;0.6533288;3.64113;0.718612;0.7493441;4.368622;0.7192938;0.5355529;4.725846;0.681461;0.1788265;4.631429;0.7444748;-0.4488702;5.241568;0.4410661;0.4491153;5.543406;0.4587588;1.051424;4.657764;0.6814598;1.319504;4.480886;0.7444729;1.728527;3.694944;1.122984;0.8820286;3.490381;1.496322;0.3300188;2.591569;0.9116923;0.1302053;1.323388;0.2098019;0;0;0;0.3300188;2.591569;0.9116923;0.1302053;1.323388;0.2098019;0;0;0
414552.1279;NotLabelled;NONE;16384;-0.4432133;-0.4709141;-0.7459436;0.1592798;3;-1;-1;2268;-2730;2017;65536;0.8686309;0.2132964;-0.05955679;-0.4432133;1;0;0;3284;-1299;-2121;8192;0.7020918;-0.5941828;-0.01939058;0.3919668;0;-1;-2;2316;3379;-1;32768;0.0567867;-0.824073;0.5526316;0.1108033;-1;-3;0;3612;867;1506;256;0.3836565;-0.4584487;-0.5935885;-0.5387812;-2;0;1;487;3988;-97;128;-0.08864266;0.232687;0.6759003;0.6936556;-1;5;0;-779;4069;336;4;-0.2368421;-0.1274238;-0.6929224;-0.6689751;0;4;-1;2127;3516;328;16;0.594404;-0.5484765;0.4722992;0.3504155;0;4;1;361;4034;-722;2;0.6620498;-0.7432126;-0.09556787;0.01385042;0;3;-1;627;4000;-489;8;0.2977839;-0.6149584;0.3559557;0.6375315;0;2;1;239;3361;2251;0.6422806;2.634279;0.9107963;0.6481633;3.170375;0.8098611;0.6533301;3.641229;0.7191513;0.7493454;4.36872;0.719833;0.5355541;4.725945;0.682;0.1788277;4.631527;0.7450139;-0.450079;5.239842;0.4404505;0.4481246;5.540918;0.4599439;1.051425;4.657863;0.6819987;1.319505;4.480985;0.7450119;1.728077;3.694094;1.122037;0.8815782;3.48953;1.495375;0.3300191;2.59157;0.9116924;0.1302054;1.323389;0.2098022;0;0;0;0.3300191;2.59157;0.9116924;0.1302054;1.323389;0.2098022;0;0;0
414572.2632;NotLabelled;NONE;16384;-0.4432133;-0.4709141;-0.7459436;0.1592798;2;0;0;2246;-2650;2001;65536;0.8686309;0.2132964;-0.05955679;-0.4432133;2;-2;0;3308;-1223;-2049;8192;0.7020918;-0.5941828;-0.01939058;0.3919668;0;0;-2;2310;3341;-5;32768;0.05540166;-0.8241673;0.5526316;0.1108033;0;-1;0;3702;829;1674;256;0.3822715;-0.4584487;-0.5944814;-0.5387812;-2;1;1;471;4028;-103;128;-0.08864266;0.232687;0.6759003;0.6936556;-1;3;0;-805;4029;368;4;-0.2382271;-0.1246537;-0.6929514;-0.6689751;0;6;0;1981;3502;332;16;0.5939391;-0.5498615;0.4722992;0.3490305;0;3;1;523;3996;-636;2;0.6620498;-0.7432126;-0.09556787;0.01385042;0;3;-1;657;4044;-439;8;0.2977839;-0.6163435;0.3559557;0.6361926;0;0;1;235;3325;2387;0.64228;2.63428;0.9108195;0.6481633;3.170427;0.8101549;0.6533306;3.641326;0.7196828;0.7493459;4.368817;0.7203646;0.5355545;4.726042;0.6825317;0.1788282;4.631625;0.7455452;-0.4513004;5.238112;0.4398656;0.4469035;5.539188;0.4593594;1.051425;4.65796;0.6825305;1.319506;4.481081;0.7455441;1.724923;3.692572;1.12259;0.8783257;3.487817;1.495599;0.3300185;2.591569;0.9116925;0.1302053;1.323388;0.2098022;0;0;0;0.3300185;2.591569;0.9116925;0.1302053;1.323388;0.2098022;0;0;0
414593.0013;NotLabelled;NONE;16384;-0.4432133;-0.4709141;-0.7459436;0.1592798;2;-1;0;2200;-2632;2005;65536;0.8686309;0.2132964;-0.05955679;-0.4432133;2;-1;0;3262;-1263;-2059;8192;0.7020918;-0.5941828;-0.01939058;0.3919668;0;0;-1;2362;3327;-51;32768;0.05540166;-0.8241673;0.5526316;0.1108033;0;-1;0;3654;903;1558;256;0.3822715;-0.4584487;-0.5944814;-0.5387812;-2;2;1;503;3946;-119;128;-0.08864266;0.232687;0.6759003;0.6936556;0;7;0;-783;4037;344;4;-0.2382271;-0.1246537;-0.6942859;-0.66759;0;4;0;1961;3474;332;16;0.5939391;-0.5498615;0.4722992;0.3490305;0;3;0;497;3984;-570;2;0.6620498;-0.7432371;-0.09556787;0.01246537;0;1;0;619;4102;-455;8;0.2977839;-0.6163435;0.3545706;0.6369656;0;3;1;135;3339;2495;0.645772;2.635518;0.9070824;0.6516553;3.171665;0.8064178;0.6568226;3.642565;0.7159458;0.7545338;4.36983;0.7166277;0.5415759;4.727552;0.6787949;0.1846304;4.633967;0.7418085;-0.4461897;5.240455;0.4375591;0.452057;5.541531;0.4549605;1.057287;4.658268;0.6787938;1.324954;4.480765;0.741807;1.731226;3.692255;1.117933;0.885644;3.489652;1.494404;0.3335105;2.592808;0.9079553;0.1346578;1.323155;0.2084565;0;0;0;0.3335105;2.592808;0.9079553;0.1346578;1.323155;0.2084565;0;0;0
414613.0193;NotLabelled;NONE;16384;-0.4445983;-0.4709141;-0.7454136;0.1578947;3;-1;0;2222;-2692;2037;65536;0.8682896;0.2146814;-0.05955679;-0.4432133;1;-1;0;3192;-1183;-2133;8192;0.7020918;-0.5941828;-0.01939058;0.3919668;1;0;-1;2376;3293;-113;32768;0.05540166;-0.8241673;0.5526316;0.1108033;1;-1;0;3746;875;1536;256;0.3822715;-0.4570637;-0.595547;-0.5387812;-1;3;0;483;3996;-67;128;-0.08725762;0.2313019;0.6759003;0.6942941;0;7;0;-795;4035;324;4;-0.2396122;-0.1246537;-0.6938091;-0.66759;0;2;0;1991;3518;368;16;0.5934673;-0.5512465;0.4722992;0.3476454;-1;3;0;433;3996;-596;2;0.6620498;-0.7432126;-0.09556787;0.01385042;0;1;0;583;4172;-403;8;0.2977839;-0.6163435;0.3545706;0.6369656;0;6;1;123;3359;2339;0.6510797;2.635317;0.9059185;0.6569629;3.171464;0.8052539;0.6621302;3.642363;0.7147818;0.7598414;4.369629;0.7154639;0.5468835;4.727351;0.6776309;0.189938;4.633766;0.7406446;-0.4408821;5.240253;0.4363951;0.4573647;5.541328;0.4537965;1.062594;4.658067;0.6776297;1.330262;4.480563;0.7406431;1.736533;3.692054;1.116769;0.8909516;3.489451;1.493241;0.3388182;2.592606;0.9067914;0.1346577;1.323155;0.2084565;0;0;0;0.3388182;2.592606;0.9067914;0.1346577;1.323155;0.2084565;0;0;0
414635.5325;NotLabelled;NONE;16384;-0.4445983;-0.4709141;-0.7454136;0.1578947;3;-2;-1;2262;-2660;2063;65536;0.8689952;0.2146814;-0.05955679;-0.4418283;1;-2;0;3312;-1231;-2135;8192;0.7028633;-0.5941828;-0.01939058;0.3905817;1;1;0;2384;3287;-67;32768;0.0567867;-0.824258;0.5526316;0.1094183;1;0;1;3722;857;1562;256;0.3822715;-0.4570637;-0.595547;-0.5387812;-1;3;1;547;3996;-99;128;-0.08587258;0.2299169;0.6759003;0.6949266;0;10;0;-843;4095;344;4;-0.2396122;-0.1246537;-0.6938091;-0.66759;0;0;0;1975;3500;362;16;0.5945669;-0.5512465;0.4709141;0.3476454;0;1;0;457;4008;-614;2;0.6620498;-0.7432371;-0.09556787;0.01246537;-1;2;1;645;4090;-481;8;0.299169;-0.6177285;0.3531856;0.6357431;0;7;0;169;3373;2353;0.6563231;2.633633;0.9069262;0.662207;3.169831;0.806528;0.6673747;3.640775;0.7162897;0.7645922;4.368105;0.7150946;0.5513788;4.725586;0.6764272;0.1945182;4.631918;0.7397994;-0.4364881;5.237544;0.4342231;0.4610564;5.540761;0.4506518;1.067136;4.656651;0.6764263;1.334946;4.47949;0.7397983;1.742211;3.69098;1.114848;0.8976287;3.488378;1.493556;0.3440618;2.590923;0.9077763;0.1391806;1.322909;0.2070462;0;0;0;0.3440618;2.590923;0.9077763;0.1391806;1.322909;0.2070462;0;0;0
414656.1697;NotLabelled;NONE;16384;-0.4445983;-0.4709141;-0.7457057;0.1565097;2;-3;-1;2266;-2678;2135;65536;0.8689952;0.2146814;-0.05955679;-0.4418283;1;-1;0;3366;-1385;-2147;8192;0.7028237;-0.5941828;-0.02077562;0.3905817;2;2;0;2406;3377;-57;32768;0.0567867;-0.824258;0.5526316;0.1094183;2;0;1;3708;889;1556;256;0.3808864;-0.4556787;-0.5974926;-0.5387812;-1;4;0;585;4010;-67;128;-0.08448754;0.2299169;0.6772853;0.6937469;0;11;0;-853;4067;332;4;-0.2396122;-0.1246537;-0.6938091;-0.66759;0;0;0;2019;3520;260;16;0.5945669;-0.5512465;0.4709141;0.3476454;0;0;0;453;4070;-558;2;0.6620498;-0.7430577;-0.09695291;0.01246537;0;0;1;613;4026;-455;8;0.300554;-0.6177285;0.3531856;0.6350895;0;3;0;369;3373;2297;0.6527209;2.63397;0.907194;0.6586053;3.170216;0.807058;0.6637735;3.641204;0.7170503;0.760991;4.368535;0.7158548;0.5477774;4.726016;0.6771874;0.190917;4.632348;0.7405601;-0.4401081;5.237975;0.435023;0.4572951;5.541635;0.4509881;1.063535;4.657082;0.6771861;1.331344;4.47992;0.7405583;1.738172;3.690465;1.114092;0.8922671;3.487141;1.489447;0.3404595;2.591259;0.9080214;0.1355778;1.323244;0.2072919;0;0;0;0.3404595;2.591259;0.9080214;0.1355778;1.323244;0.2072919;0;0;0
414676.9937;NotLabelled;NONE;16384;-0.4445983;-0.4709141;-0.745995;0.1551246;2;-2;0;2260;-2670;2103;65536;0.8689952;0.2146814;-0.05955679;-0.4418283;1;0;1;3332;-1361;-2121;8192;0.7016504;-0.5955678;-0.02077562;0.3905817;2;2;0;2316;3303;-59;32768;0.0567867;-0.824258;0.5526316;0.1094183;1;0;1;3690;859;1576;256;0.3808864;-0.4556787;-0.5962407;-0.5401662;-1;5;1;557;4026;-97;128;-0.08310249;0.2285319;0.6772853;0.6943715;0;10;0;-855;4053;294;4;-0.2396122;-0.1246537;-0.6938091;-0.66759;0;0;0;2007;3572;238;16;0.5945669;-0.5512465;0.4709141;0.3476454;0;5;0;381;4080;-674;2;0.6620498;-0.7430577;-0.09695291;0.01246537;0;-1;1;671;4016;-369;8;0.300554;-0.6177285;0.3531856;0.6350895;0;0;0;303;3335;2201;0.6572297;2.633967;0.9053377;0.6631104;3.169878;0.8034285;0.6682753;3.640566;0.7118632;0.7666779;4.367733;0.7087952;0.554034;4.725462;0.6692959;0.1970431;4.632537;0.7330258;-0.4365492;5.236334;0.4291857;0.460922;5.539995;0.4406904;1.069678;4.655687;0.6692946;1.337221;4.47825;0.7330238;1.74617;3.689885;1.106542;0.9021412;3.48656;1.486095;0.3449682;2.591259;0.9063178;0.1366064;1.323244;0.2066152;0;0;0;0.3449682;2.591259;0.9063178;0.1366064;1.323244;0.2066152;0;0;0
414696.975;NotLabelled;NONE;16384;-0.4445983;-0.4709141;-0.745995;0.1551246;2;-1;-1;2280;-2618;2071;65536;0.8689952;0.2146814;-0.05955679;-0.4418283;0;0;1;3312;-1323;-2079;8192;0.7016504;-0.5955678;-0.02077562;0.3905817;2;1;0;2238;3417;-41;32768;0.0567867;-0.824258;0.5526316;0.1094183;0;1;1;3688;813;1544;256;0.3795014;-0.4556787;-0.5971232;-0.5401662;-2;4;1;533;3988;-39;128;-0.08171745;0.2285319;0.6772853;0.6945359;1;8;0;-877;4087;256;4;-0.2396122;-0.1246537;-0.6938091;-0.66759;0;0;0;2017;3528;258;16;0.5945669;-0.5512465;0.4709141;0.3476454;0;5;0;423;4012;-590;2;0.6620498;-0.7430577;-0.09695291;0.01246537;0;-1;0;679;3958;-447;8;0.300554;-0.6191136;0.3531856;0.6337394;0;2;0;193;3315;2293;0.6570929;2.633968;0.9054109;0.6629741;3.169928;0.8037553;0.6681395;3.640659;0.7124127;0.7649314;4.368047;0.7115634;0.5515134;4.725421;0.673035;0.1947002;4.631516;0.7363218;-0.4401186;5.233337;0.4311249;0.4573511;5.536997;0.4427652;1.067311;4.656788;0.6730638;1.335217;4.479755;0.7363863;1.741471;3.69105;1.112121;0.8973848;3.487725;1.491548;0.3448314;2.591259;0.9063692;0.1365752;1.323244;0.2066356;0;0;0;0.3448314;2.591259;0.9063692;0.1365752;1.323244;0.2066356;0;0;0
414717.0971;NotLabelled;NONE;16384;-0.4445983;-0.4709141;-0.745995;0.1551246;2;0;-1;2250;-2640;2039;65536;0.8686519;0.2160665;-0.05955679;-0.4418283;0;0;1;3382;-1381;-2017;8192;0.7024196;-0.5955678;-0.02077562;0.3891967;2;0;0;2256;3409;7;32768;0.0567867;-0.8244407;0.5526316;0.1080332;1;0;2;3780;879;1480;256;0.3795014;-0.4556787;-0.5971232;-0.5401662;-1;5;2;517;3988;-57;128;-0.08171745;0.2271468;0.6772853;0.69499;0;4;-1;-813;3983;380;4;-0.2396122;-0.1232687;-0.6940565;-0.66759;1;2;0;2023;3578;288;16;0.5940892;-0.5526316;0.4709141;0.3462604;-1;2;0;565;4076;-544;2;0.6620498;-0.7430577;-0.09695291;0.01246537;0;0;0;727;3964;-461;8;0.300554;-0.6191136;0.3518005;0.6345093;-1;3;0;207;3315;2331;0.6591951;2.633968;0.9046326;0.6650769;3.169978;0.8032417;0.6702428;3.640755;0.7121316;0.7687229;4.367916;0.7112828;0.5561351;4.725784;0.6727538;0.1991045;4.632707;0.736039;-0.4371516;5.234523;0.4338393;0.4603428;5.538183;0.443397;1.071772;4.655954;0.6727843;1.339266;4.478299;0.7361077;1.747293;3.689601;1.109931;0.9040899;3.486277;1.491315;0.3469335;2.591259;0.9055679;0.1370542;1.323245;0.2063189;0;0;0;0.3469335;2.591259;0.9055679;0.1370542;1.323245;0.2063189;0;0;0
414738.0396;NotLabelled;NONE;16384;-0.4445983;-0.4709141;-0.745995;0.1551246;2;0;-1;2216;-2740;2023;65536;0.8686519;0.2160665;-0.05955679;-0.4418283;0;-2;1;3310;-1301;-2079;8192;0.7024196;-0.5955678;-0.02077562;0.3891967;4;2;0;2360;3255;-3;32768;0.0567867;-0.8244407;0.5526316;0.1080332;1;0;2;3680;965;1506;256;0.3795014;-0.4542936;-0.5981777;-0.5401662;-1;8;2;553;4022;-75;128;-0.08171745;0.2271468;0.6772853;0.69499;1;4;-1;-821;4025;352;4;-0.2396122;-0.1232687;-0.6940565;-0.66759;0;4;-1;2045;3530;352;16;0.5951845;-0.5526316;0.4695291;0.3462604;0;1;0;443;3980;-596;2;0.6620498;-0.7430577;-0.09695291;0.01246537;0;2;0;649;4000;-485;8;0.300554;-0.6191136;0.3518005;0.6345093;0;0;0;305;3301;2271;0.6624683;2.635173;0.9011109;0.66835;3.17118;0.799705;0.6735159;3.641955;0.7085818;0.771996;4.369116;0.7077267;0.5594058;4.726984;0.6692106;0.2023793;4.633906;0.7325183;-0.4332076;5.235872;0.4292103;0.4635442;5.541673;0.4401202;1.075043;4.657154;0.6692094;1.342541;4.479499;0.7325161;1.749269;3.689669;1.105363;0.9049076;3.487775;1.484942;0.3502068;2.592464;0.9020475;0.1410424;1.322995;0.2052283;0;0;0;0.3502068;2.592464;0.9020475;0.1410424;1.322995;0.2052283;0;0;0
414759.0052;NotLabelled;NONE;16384;-0.4459834;-0.4709141;-0.7454548;0.1537396;4;0;1;2306;-2614;2007;65536;0.8686519;0.2160665;-0.05955679;-0.4418283;2;-3;0;3194;-1387;-2099;8192;0.7012005;-0.5969529;-0.02216066;0.3891967;3;0;0;2226;3243;29;32768;0.0567867;-0.824621;0.5526316;0.1066482;0;0;2;3620;963;1564;256;0.3781163;-0.4542936;-0.5990542;-0.5401662;-1;4;2;527;3986;-41;128;-0.08033241;0.2271468;0.6786703;0.6937994;1;8;-1;-827;4011;252;4;-0.2396122;-0.1232687;-0.6940565;-0.66759;0;3;-1;1965;3530;330;16;0.5951845;-0.5526316;0.4695291;0.3462604;0;5;1;421;4004;-630;2;0.6620498;-0.7430577;-0.09695291;0.01246537;0;3;0;613;4036;-503;8;0.300554;-0.6191136;0.3518005;0.6345093;0;1;0;131;3403;2373;0.6612502;2.635511;0.9004526;0.6671321;3.171518;0.7990469;0.6722979;3.642292;0.7079238;0.7702668;4.369518;0.7052027;0.557412;4.727139;0.6658573;0.2004724;4.633971;0.7295204;-0.4359126;5.235937;0.427891;0.4608651;5.541738;0.4364375;1.073098;4.657671;0.6658565;1.340742;4.480364;0.72952;1.748453;3.690534;1.101291;0.9050951;3.48864;1.483095;0.3489888;2.592802;0.9013894;0.1379885;1.323333;0.2051231;0;0;0;0.3489888;2.592802;0.9013894;0.1379885;1.323333;0.2051231;0;0;0
414779.0038;NotLabelled;NONE;16384;-0.4459834;-0.4695291;-0.7463279;0.1537396;5;0;1;2246;-2632;2093;65536;0.869259;0.2160665;-0.06094183;-0.4404432;2;-3;-1;3182;-1323;-2099;8192;0.7012005;-0.5969529;-0.02216066;0.3891967;2;0;0;2334;3297;-41;32768;0.05540166;-0.8247153;0.5526316;0.1066482;0;0;2;3698;793;1498;256;0.3781163;-0.4529086;-0.6001019;-0.5401662;-1;2;2;603;3908;11;128;-0.07894737;0.2257618;0.6786703;0.6944102;1;5;-1;-829;4009;284;4;-0.2396122;-0.1218837;-0.6943011;-0.66759;0;3;0;1969;3506;330;16;0.5938955;-0.5540166;0.4695291;0.3462604;0;4;0;465;4020;-596;2;0.6620498;-0.7430577;-0.09695291;0.01246537;-1;1;0;659;4042;-499;8;0.301939;-0.6204986;0.3504155;0.633264;0;3;0;275;3389;2323;0.6637228;2.635508;0.8993373;0.6696007;3.171173;0.7961406;0.6747633;3.64164;0.7034445;0.7744132;4.368638;0.7006803;0.5623699;4.726749;0.6614239;0.2052425;4.634408;0.7252383;-0.4321711;5.236522;0.4260877;0.4646263;5.542323;0.4321729;1.077894;4.656088;0.6612056;1.345153;4.478163;0.7247564;1.752609;3.687665;1.095388;0.9091178;3.487202;1.477649;0.3514613;2.592802;0.9004281;0.1385509;1.323333;0.2047437;0;0;0;0.3514613;2.592802;0.9004281;0.1385509;1.323333;0.2047437;0;0;0
414800.1856;NotLabelled;NONE;16384;-0.4473684;-0.4695291;-0.7457829;0.1523546;4;-1;1;2246;-2692;2095;65536;0.869259;0.2160665;-0.06094183;-0.4404432;2;-3;-2;3282;-1361;-2185;8192;0.7012005;-0.5969529;-0.02216066;0.3891967;2;0;0;2268;3421;-125;32768;0.05540166;-0.8248932;0.5526316;0.1052632;0;1;1;3690;825;1496;256;0.3767313;-0.4529086;-0.6009724;-0.5401662;-1;2;2;547;3928;-107;128;-0.07894737;0.2271468;0.6786703;0.6939583;1;1;-1;-837;4031;298;4;-0.2396122;-0.1218837;-0.6943011;-0.66759;0;0;0;1973;3542;296;16;0.5947008;-0.5540166;0.4695291;0.3448753;-1;-1;0;583;4048;-596;2;0.6620498;-0.7430577;-0.09695291;0.01246537;0;0;0;575;4004;-425;8;0.301939;-0.6204986;0.3504155;0.633264;0;0;0;171;3311;2225;0.667969;2.637254;0.892121;0.6738476;3.172966;0.7891653;0.6790105;3.643475;0.696681;0.7781392;4.370533;0.692098;0.5658422;4.728394;0.6519259;0.2087762;4.635957;0.7159448;-0.4288539;5.236164;0.4134431;0.4682008;5.541213;0.4193389;1.081416;4.658102;0.6519243;1.348799;4.480529;0.7159421;1.756098;3.691278;1.089392;0.9136248;3.49297;1.475008;0.3557076;2.594548;0.893191;0.142036;1.32363;0.2003914;0;0;0;0.3557076;2.594548;0.893191;0.142036;1.32363;0.2003914;0;0;0
414821.2053;NotLabelled;NONE;16384;-0.4473684;-0.4695291;-0.7457829;0.1523546;4;0;1;2286;-2586;2155;65536;0.8699594;0.2160665;-0.06094183;-0.4390582;2;-3;-1;3258;-1269;-2213;8192;0.7012005;-0.5969529;-0.02216066;0.3891967;3;0;0;2298;3431;-95;32768;0.05540166;-0.8248932;0.5526316;0.1052632;1;1;1;3678;887;1588;256;0.3767313;-0.4529086;-0.6009724;-0.5401662;0;3;2;553;3950;-79;128;-0.08033241;0.2271468;0.6786703;0.6937994;0;-4;-1;-801;4045;322;4;-0.2396122;-0.1218837;-0.6943011;-0.66759;0;0;0;1929;3590;344;16;0.5938955;-0.5540166;0.4695291;0.3462604;-1;-1;0;501;3994;-592;2;0.6620498;-0.7430577;-0.09695291;0.01246537;0;-2;0;571;3924;-423;8;0.301939;-0.6204986;0.3504155;0.633264;-1;-1;0;257;3293;2231;0.6709917;2.636704;0.8942279;0.6768702;3.172419;0.7912871;0.6820333;3.64293;0.6988159;0.7828384;4.36976;0.6942316;0.5713673;4.728108;0.6540585;0.2140891;4.636495;0.718077;-0.4236126;5.235838;0.4140162;0.4734535;5.540887;0.4178315;1.086778;4.656628;0.6540576;1.35375;4.478438;0.7180765;1.761894;3.689187;1.090603;0.9191306;3.49231;1.476318;0.3587303;2.593998;0.8952968;0.1434526;1.32308;0.2029946;0;0;0;0.3587303;2.593998;0.8952968;0.1434526;1.32308;0.2029946;0;0;0
414842.0186;NotLabelled;NONE;16384;-0.4473684;-0.4695291;-0.7457829;0.1523546;3;0;2;2230;-2658;2121;65536;0.8698612;0.2160665;-0.06232687;-0.4390582;2;-3;-1;3240;-1301;-2179;8192;0.700019;-0.5983379;-0.02216066;0.3891967;3;0;0;2372;3389;-33;32768;0.05540166;-0.8248932;0.5526316;0.1052632;1;1;2;3740;983;1574;256;0.3767313;-0.4529086;-0.6009724;-0.5401662;0;3;1;521;4042;-47;128;-0.08033241;0.2285319;0.6786703;0.6933444;0;-5;0;-793;4079;268;4;-0.2396122;-0.1218837;-0.6943011;-0.66759;0;-1;1;1937;3558;328;16;0.5938955;-0.5540166;0.4695291;0.3462604;-1;0;0;497;3998;-578;2;0.6620498;-0.7430577;-0.09695291;0.01246537;0;-2;0;713;3988;-401;8;0.301939;-0.6204986;0.3504155;0.633264;-1;-1;0;259;3281;2333;0.6700393;2.637253;0.8912722;0.6759173;3.172919;0.7880754;0.6810797;3.643385;0.6953794;0.7818848;4.370214;0.6907949;0.5704138;4.728563;0.6506218;0.2131355;4.63695;0.7146404;-0.4245466;5.236292;0.4105383;0.4723695;5.541789;0.4138912;1.085825;4.657083;0.6506211;1.352797;4.478894;0.7146398;1.760917;3.689642;1.087193;0.9181526;3.492767;1.472908;0.3577779;2.594548;0.892363;0.1425001;1.32363;0.2000612;0;0;0;0.3577779;2.594548;0.892363;0.1425001;1.32363;0.2000612;0;0;0
414862.9851;NotLabelled;NONE;16384;-0.4487534;-0.468144;-0.7458214;0.1523546;3;-1;1;2192;-2676;2183;65536;0.8698612;0.2160665;-0.06232687;-0.4390582;2;-2;-1;3168;-1337;-2175;8192;0.6999738;-0.5983379;-0.0235457;0.3891967;2;0;1;2376;3397;23;32768;0.0567867;-0.8247989;0.5526316;0.1052632;0;1;1;3684;991;1594;256;0.3767313;-0.4529086;-0.6009724;-0.5401662;-1;2;1;561;4048;-17;128;-0.08171745;0.2285319;0.6786703;0.6931825;1;-4;-1;-775;4069;298;4;-0.2396122;-0.1232687;-0.6940565;-0.66759;-1;-2;1;1977;3450;246;16;0.5938955;-0.5540166;0.4695291;0.3462604;-1;-1;-1;459;3996;-650;2;0.6620498;-0.7432371;-0.09556787;0.01246537;0;-1;0;725;4012;-455;8;0.301939;-0.6204986;0.3504155;0.633264;-1;0;0;203;3337;2397;0.6700373;2.637253;0.8912748;0.6759154;3.172922;0.7880926;0.6810779;3.643391;0.6954094;0.7818831;4.37022;0.6908252;0.570412;4.728569;0.6506516;0.2131335;4.636956;0.7146693;-0.424566;5.23629;0.410587;0.4727439;5.540594;0.4162029;1.085823;4.657089;0.6506523;1.352795;4.478899;0.7146719;1.758205;3.68916;1.089145;0.9154402;3.492284;1.474858;0.3577759;2.594548;0.8923644;0.1424997;1.32363;0.2000617;0;0;0;0.3577759;2.594548;0.8923644;0.1424997;1.32363;0.2000617;0;0;0
414883.0275;NotLabelled;NONE;16384;-0.4487534;-0.468144;-0.7458214;0.1523546;2;0;0;2218;-2646;2141;65536;0.8705589;0.2160665;-0.06232687;-0.4376731;0;-1;-1;3174;-1273;-2271;8192;0.6999738;-0.5983379;-0.0235457;0.3891967;1;0;2;2336;3431;-81;32768;0.0567867;-0.8249745;0.5526316;0.1038781;1;2;0;3718;855;1556;256;0.3767313;-0.4542936;-0.6011703;-0.5387812;-1;0;1;573;3972;-19;128;-0.08171745;0.2299169;0.6786703;0.6927243;2;-4;0;-843;4077;268;4;-0.2396122;-0.1232687;-0.6940565;-0.66759;0;-1;1;2001;3474;250;16;0.5938955;-0.5540166;0.4695291;0.3462604;0;0;-1;413;4076;-588;2;0.6620498;-0.7430332;-0.09695291;0.01385042;0;0;0;757;4076;-403;8;0.300554;-0.6204986;0.3504155;0.6339225;0;-2;0;167;3335;2329;0.670822;2.635804;0.8936619;0.6766995;3.171422;0.79022;0.6818615;3.641846;0.6973086;0.7826668;4.368675;0.6927242;0.5711956;4.727025;0.6525512;0.2139174;4.635411;0.7165698;-0.4222989;5.234817;0.409536;0.4750108;5.539121;0.4151495;1.086607;4.655544;0.6525505;1.353578;4.477355;0.7165689;1.75942;3.688699;1.092852;0.9164821;3.489667;1.477079;0.3585606;2.593099;0.8947738;0.1425002;1.32363;0.2000614;0;0;0;0.3585606;2.593099;0.8947738;0.1425002;1.32363;0.2000614;0;0;0
414904.2268;NotLabelled;NONE;16384;-0.4487534;-0.468144;-0.7458214;0.1523546;0;0;0;2214;-2618;2137;65536;0.8705589;0.2160665;-0.06232687;-0.4376731;0;0;0;3280;-1281;-2163;8192;0.6999738;-0.5983379;-0.0235457;0.3891967;1;0;2;2312;3421;-71;32768;0.0567867;-0.8249745;0.5526316;0.1038781;0;1;0;3704;827;1590;256;0.3767313;-0.4542936;-0.6011703;-0.5387812;-1;0;1;505;4078;-1;128;-0.08310249;0.2313019;0.6786703;0.6920983;1;-4;0;-883;4109;224;4;-0.2396122;-0.1232687;-0.6940565;-0.66759;1;-2;0;1949;3506;268;16;0.5930858;-0.5540166;0.4695291;0.3476454;0;0;0;349;4020;-536;2;0.6620498;-0.7432126;-0.09556787;0.01385042;0;0;0;649;4068;-461;8;0.300554;-0.6204986;0.3504155;0.6339225;0;-2;0;207;3393;2327;0.6685526;2.635805;0.8945676;0.6744301;3.171426;0.7911404;0.6795923;3.641852;0.6982418;0.7825164;4.368382;0.6933026;0.5720884;4.727326;0.652972;0.2145488;4.636786;0.7170581;-0.4209072;5.236192;0.4084532;0.4762371;5.540944;0.4158797;1.087289;4.654344;0.6529713;1.353744;4.475407;0.7170575;1.758655;3.686751;1.094342;0.9135709;3.489152;1.474572;0.3562912;2.5931;0.8956783;0.1419926;1.32363;0.200421;0;0;0;0.3562912;2.5931;0.8956783;0.1419926;1.32363;0.200421;0;0;0
414925.0454;NotLabelled;NONE;16384;-0.4487534;-0.466759;-0.7469702;0.1509695;2;0;0;2156;-2648;2219;65536;0.8705589;0.2160665;-0.06232687;-0.4376731;0;0;0;3288;-1267;-2213;8192;0.6999738;-0.5983379;-0.0235457;0.3891967;1;0;1;2256;3387;-61;32768;0.0567867;-0.8259006;0.5512465;0.1038781;0;1;0;3730;811;1568;256;0.3767313;-0.4542936;-0.6011703;-0.5387812;-1;1;1;519;4044;19;128;-0.08310249;0.2313019;0.6786703;0.6920983;1;-2;0;-835;4105;270;4;-0.2382271;-0.1232687;-0.6945331;-0.66759;1;0;0;1963;3532;214;16;0.5930858;-0.5540166;0.4695291;0.3476454;0;0;0;501;4062;-540;2;0.6620498;-0.7432126;-0.09556787;0.01385042;0;-2;0;653;4044;-321;8;0.300554;-0.6204986;0.3518005;0.6331549;0;-3;0;291;3289;2339;0.6676618;2.636347;0.8915845;0.6735388;3.17192;0.7879073;0.6787003;3.642302;0.6947892;0.7816241;4.368833;0.689844;0.5711937;4.727777;0.6495266;0.2136581;4.637237;0.7136348;-0.4218336;5.236787;0.4053841;0.4753111;5.54154;0.412755;1.086394;4.654795;0.6494937;1.352854;4.475858;0.7135633;1.757808;3.687025;1.090433;0.9127477;3.489424;1.470715;0.3554004;2.593642;0.8927168;0.1410585;1.324173;0.1974722;0;0;0;0.3554004;2.593642;0.8927168;0.1410585;1.324173;0.1974722;0;0;0
414945.2406;NotLabelled;NONE;16384;-0.4487534;-0.466759;-0.7469702;0.1509695;1;0;-2;2196;-2648;2225;65536;0.8704587;0.2160665;-0.06371191;-0.4376731;0;0;0;3314;-1337;-2213;8192;0.6999738;-0.5983379;-0.0235457;0.3891967;2;-1;1;2266;3349;-67;32768;0.0567867;-0.8259006;0.5512465;0.1038781;-1;1;1;3672;871;1616;256;0.3767313;-0.4542936;-0.6011703;-0.5387812;-1;0;1;547;4074;-17;128;-0.08310249;0.2313019;0.6786703;0.6920983;0;0;0;-839;4097;236;4;-0.2382271;-0.1232687;-0.6945331;-0.66759;0;1;0;1999;3562;248;16;0.5930858;-0.5540166;0.4695291;0.3476454;0;1;0;483;4062;-566;2;0.6620498;-0.7432126;-0.09556787;0.01385042;1;-3;0;665;4016;-419;8;0.300554;-0.6191136;0.3518005;0.6345093;0;-3;0;207;3345;2313;0.6686896;2.637777;0.8886516;0.6745666;3.17335;0.7849745;0.6797282;3.643734;0.6918566;0.7826523;4.370263;0.6869177;0.5722244;4.729208;0.6465873;0.2146848;4.638668;0.7106733;-0.4222898;5.235327;0.3998853;0.4748544;5.540079;0.407312;1.087425;4.656225;0.6465865;1.35388;4.477288;0.7106727;1.75879;3.688632;1.087959;0.9138072;3.491205;1.468503;0.3564282;2.595073;0.8897839;0.141046;1.324173;0.1974809;0;0;0;0.3564282;2.595073;0.8897839;0.141046;1.324173;0.1974809;0;0;0
414966.0392;NotLabelled;NONE;16384;-0.4487534;-0.466759;-0.7469702;0.1509695;0;0;-2;2224;-2594;2203;65536;0.8705589;0.2160665;-0.06232687;-0.4376731;-1;0;2;3302;-1297;-2175;8192;0.6999738;-0.5983379;-0.0235457;0.3891967;1;-1;1;2354;3355;-1;32768;0.0567867;-0.8259006;0.5512465;0.1038781;-1;0;1;3710;847;1530;256;0.3767313;-0.4542936;-0.6011703;-0.5387812;-2;0;1;537;4026;5;128;-0.08310249;0.232687;0.6786703;0.6916338;2;0;0;-789;4083;252;4;-0.2382271;-0.1232687;-0.6945331;-0.66759;0;1;0;1987;3554;286;16;0.5938955;-0.5540166;0.4695291;0.3462604;0;2;0;467;3998;-548;2;0.6620498;-0.7432126;-0.09556787;0.01385042;0;-3;0;641;3990;-457;8;0.299169;-0.6191136;0.3518005;0.6351635;-1;-2;0;203;3335;2355;0.6686896;2.637777;0.8886516;0.6745666;3.17335;0.7849745;0.6797282;3.643734;0.6918566;0.7826523;4.370263;0.6869177;0.5722244;4.729208;0.6465873;0.2146848;4.638668;0.7106733;-0.4222898;5.235327;0.3998853;0.4752359;5.538889;0.4095768;1.087425;4.656225;0.6465865;1.35388;4.477288;0.7106727;1.75879;3.688632;1.087959;0.9138072;3.491205;1.468503;0.3564282;2.595073;0.8897839;0.141046;1.324173;0.1974809;0;0;0;0.3564282;2.595073;0.8897839;0.141046;1.324173;0.1974809;0;0;0
414986.0018;NotLabelled;NONE;16384;-0.4487534;-0.466759;-0.7469702;0.1509695;0;2;-2;2194;-2674;2147;65536;0.870657;0.2160665;-0.06094183;-0.4376731;-2;0;2;3172;-1327;-2157;8192;0.6992018;-0.5983379;-0.0235457;0.3905817;0;-2;0;2344;3357;-91;32768;0.05540166;-0.8258193;0.5512465;0.1052632;-1;1;0;3738;803;1548;256;0.3767313;-0.4529086;-0.6022145;-0.5387812;-1;1;0;537;3980;-71;128;-0.08448754;0.232687;0.6800554;0.6901038;2;0;-1;-831;4021;266;4;-0.2382271;-0.1232687;-0.6945331;-0.66759;0;0;0;1905;3506;314;16;0.5938955;-0.5540166;0.4695291;0.3462604;0;0;0;497;4036;-522;2;0.6620498;-0.7433623;-0.09418282;0.01523546;0;0;0;685;4014;-347;8;0.299169;-0.6191136;0.3518005;0.6351635;0;-3;0;163;3371;2379;0.6696345;2.637234;0.8915958;0.6755115;3.172809;0.7879332;0.6806732;3.643195;0.6948279;0.7835973;4.369725;0.6898895;0.5731695;4.72867;0.6495587;0.2156298;4.638129;0.7136443;-0.4213438;5.234781;0.4028383;0.4758004;5.539532;0.4102665;1.08837;4.655687;0.6495591;1.354825;4.47675;0.7136457;1.759733;3.688103;1.090954;0.9147502;3.490677;1.471497;0.3573732;2.594529;0.8927268;0.1419921;1.32363;0.2004227;0;0;0;0.3573732;2.594529;0.8927268;0.1419921;1.32363;0.2004227;0;0;0
415007.0194;NotLabelled;NONE;16384;-0.4487534;-0.4653739;-0.747834;0.1509695;0;1;-2;2178;-2604;2187;65536;0.870657;0.2160665;-0.06094183;-0.4376731;-2;0;1;3208;-1281;-2145;8192;0.6992018;-0.5983379;-0.0235457;0.3905817;0;-2;0;2366;3387;-77;32768;0.05540166;-0.8258193;0.5512465;0.1052632;-1;0;0;3600;865;1556;256;0.3767313;-0.4529086;-0.6022145;-0.5387812;-1;0;0;531;3924;-23;128;-0.08448754;0.232687;0.6800554;0.6901038;2;-2;0;-813;4053;208;4;-0.2382271;-0.1232687;-0.6945331;-0.66759;0;-2;0;1997;3554;304;16;0.5938955;-0.5540166;0.4695291;0.3462604;0;-1;0;453;4006;-568;2;0.6620498;-0.7433623;-0.09418282;0.01523546;0;-2;0;649;3998;-381;8;0.299169;-0.6191136;0.3518005;0.6351635;0;-2;0;133;3359;2469;0.6724889;2.637229;0.8902465;0.6783609;3.17235;0.7842612;0.6835181;3.642328;0.6891161;0.7859083;4.368917;0.6822579;0.5751821;4.727606;0.6412194;0.2177676;4.636968;0.7058613;-0.4211587;5.23496;0.4017143;0.4756085;5.540902;0.40401;1.090435;4.654997;0.6409283;1.35708;4.476416;0.7052188;1.764859;3.687092;1.077991;0.9224531;3.490394;1.464578;0.3602276;2.59453;0.8915774;0.1426327;1.32363;0.1999667;0;0;0;0.3602276;2.59453;0.8915774;0.1426327;1.32363;0.1999667;0;0;0
415027.0982;NotLabelled;NONE;16384;-0.4473684;-0.4653739;-0.7486634;0.1509695;0;1;-2;2198;-2630;2081;65536;0.870657;0.2160665;-0.06094183;-0.4376731;-2;-1;2;3198;-1347;-2215;8192;0.6992018;-0.5983379;-0.0235457;0.3905817;0;-2;0;2360;3349;-45;32768;0.05540166;-0.8258193;0.5512465;0.1052632;-1;1;0;3686;915;1580;256;0.3767313;-0.4529086;-0.6034507;-0.5373961;-1;0;0;543;4032;5;128;-0.08448754;0.232687;0.6800554;0.6901038;4;-1;-1;-811;4025;234;4;-0.2382271;-0.1246537;-0.6942859;-0.66759;0;-3;0;1981;3496;290;16;0.5938955;-0.5540166;0.4695291;0.3462604;0;-1;0;433;4008;-578;2;0.6620498;-0.7433623;-0.09418282;0.01523546;0;-4;1;671;4088;-365;8;0.299169;-0.6191136;0.3518005;0.6351635;0;0;0;129;3385;2381;0.6719871;2.637229;0.8904492;0.6778591;3.17235;0.7844638;0.6830162;3.642327;0.6893187;0.7854103;4.368917;0.6825181;0.5747073;4.727606;0.641361;0.2172564;4.636968;0.7058018;-0.420877;5.232716;0.3956433;0.4758888;5.538657;0.3984437;1.08996;4.654998;0.6413599;1.356569;4.476416;0.7058005;1.762959;3.688722;1.083504;0.9203359;3.492025;1.469618;0.3597258;2.594529;0.8917801;0.1425201;1.32363;0.200047;0;0;0;0.3597258;2.594529;0.8917801;0.1425201;1.32363;0.200047;0;0;0
