SEP=;
index;label;segment;RightUpperArm_boneIndex;RightUpperArm_quat9x_w;RightUpperArm_quat9x_x;RightUpperArm_quat9x_y;RightUpperArm_quat9x_z;RightUpperArm_gyroscope_x;RightUpperArm_gyroscope_y;RightUpperArm_gyroscope_z;RightUpperArm_accelerometer_x;RightUpperArm_accelerometer_y;RightUpperArm_accelerometer_z;RightLowerArm_boneIndex;RightLowerArm_quat9x_w;RightLowerArm_quat9x_x;RightLowerArm_quat9x_y;RightLowerArm_quat9x_z;RightLowerArm_gyroscope_x;RightLowerArm_gyroscope_y;RightLowerArm_gyroscope_z;RightLowerArm_accelerometer_x;RightLowerArm_accelerometer_y;RightLowerArm_accelerometer_z;LeftUpperArm_boneIndex;LeftUpperArm_quat9x_w;LeftUpperArm_quat9x_x;LeftUpperArm_quat9x_y;LeftUpperArm_quat9x_z;LeftUpperArm_gyroscope_x;LeftUpperArm_gyroscope_y;LeftUpperArm_gyroscope_z;LeftUpperArm_accelerometer_x;LeftUpperArm_accelerometer_y;LeftUpperArm_accelerometer_z;LeftLowerArm_boneIndex;LeftLowerArm_quat9x_w;LeftLowerArm_quat9x_x;LeftLowerArm_quat9x_y;LeftLowerArm_quat9x_z;LeftLowerArm_gyroscope_x;LeftLowerArm_gyroscope_y;LeftLowerArm_gyroscope_z;LeftLowerArm_accelerometer_x;LeftLowerArm_accelerometer_y;LeftLowerArm_accelerometer_z;Chest_boneIndex;Chest_quat9x_w;Chest_quat9x_x;Chest_quat9x_y;Chest_quat9x_z;Chest_gyroscope_x;Chest_gyroscope_y;Chest_gyroscope_z;Chest_accelerometer_x;Chest_accelerometer_y;Chest_accelerometer_z;Spine_boneIndex;Spine_quat9x_w;Spine_quat9x_x;Spine_quat9x_y;Spine_quat9x_z;Spine_gyroscope_x;Spine_gyroscope_y;Spine_gyroscope_z;Spine_accelerometer_x;Spine_accelerometer_y;Spine_accelerometer_z;RightUpperLeg_boneIndex;RightUpperLeg_quat9x_w;RightUpperLeg_quat9x_x;RightUpperLeg_quat9x_y;RightUpperLeg_quat9x_z;RightUpperLeg_gyroscope_x;RightUpperLeg_gyroscope_y;RightUpperLeg_gyroscope_z;RightUpperLeg_accelerometer_x;RightUpperLeg_accelerometer_y;RightUpperLeg_accelerometer_z;RightLowerLeg_boneIndex;RightLowerLeg_quat9x_w;RightLowerLeg_quat9x_x;RightLowerLeg_quat9x_y;RightLowerLeg_quat9x_z;RightLowerLeg_gyroscope_x;RightLowerLeg_gyroscope_y;RightLowerLeg_gyroscope_z;RightLowerLeg_accelerometer_x;RightLowerLeg_accelerometer_y;RightLowerLeg_accelerometer_z;LeftUpperLeg_boneIndex;LeftUpperLeg_quat9x_w;LeftUpperLeg_quat9x_x;LeftUpperLeg_quat9x_y;LeftUpperLeg_quat9x_z;LeftUpperLeg_gyroscope_x;LeftUpperLeg_gyroscope_y;LeftUpperLeg_gyroscope_z;LeftUpperLeg_accelerometer_x;LeftUpperLeg_accelerometer_y;LeftUpperLeg_accelerometer_z;LeftLowerLeg_boneIndex;LeftLowerLeg_quat9x_w;LeftLowerLeg_quat9x_x;LeftLowerLeg_quat9x_y;LeftLowerLeg_quat9x_z;LeftLowerLeg_gyroscope_x;LeftLowerLeg_gyroscope_y;LeftLowerLeg_gyroscope_z;LeftLowerLeg_accelerometer_x;LeftLowerLeg_accelerometer_y;LeftLowerLeg_accelerometer_z;pelvis_x;pelvis_y;pelvis_z;lowerSpine_x;lowerSpine_y;lowerSpine_z;middleSpine_x;middleSpine_y;middleSpine_z;upperSpine_x;upperSpine_y;upperSpine_z;rightClavicle_x;rightClavicle_y;rightClavicle_z;rightShoulder_x;rightShoulder_y;rightShoulder_z;rightElbow_x;rightElbow_y;rightElbow_z;rightWrist_x;rightWrist_y;rightWrist_z;leftClavicle_x;leftClavicle_y;leftClavicle_z;leftShoulder_x;leftShoulder_y;leftShoulder_z;leftElbow_x;leftElbow_y;leftElbow_z;leftWrist_x;leftWrist_y;leftWrist_z;rightHip_x;rightHip_y;rightHip_z;rightKnee_x;rightKnee_y;rightKnee_z;rightAnkle_x;rightAnkle_y;rightAnkle_z;leftHip_x;leftHip_y;leftHip_z;leftKnee_x;leftKnee_y;leftKnee_z;leftAnkle_x;leftAnkle_y;leftAnkle_z;
495021.0101;NotLabelled;NONE;16384;-0.4418283;0.4155124;-0.7355067;-0.301939;-26;-21;-8;-1306;3202;2165;65536;0.7606463;-0.4168975;0.01939058;0.4972299;3;13;-52;-3017;2250;-1160;8192;0.5443213;-0.5528815;-0.5387812;-0.3282548;-2;0;7;996;3957;705;32768;0.8201107;-0.4113573;0.01385042;-0.3975069;6;0;6;2650;2853;-1202;256;0.09279778;-0.1038781;-0.6925207;-0.7078227;-1;-3;1;-31;3992;-127;128;0.005540166;0.07894737;0.6177285;0.7823989;0;-2;0;-351;3977;1026;4;-0.5138504;0.4612188;-0.5041551;-0.5187125;0;-4;1;187;4070;130;16;0.6426592;-0.7632572;-0.002770083;-0.06648199;0;-1;0;431;4042;812;2;0.5761241;-0.5263157;-0.4238227;-0.4598338;0;0;-3;-335;4140;121;8;0.6537396;-0.7421743;0.04293629;0.1412742;-2;-3;1;-529;4081;599;0.5396537;2.822011;-0.06272274;0.5456388;3.367445;-0.07208544;0.5508993;3.846845;-0.08233771;0.5614891;4.580356;-0.06463841;0.307541;4.911026;-0.09489661;-0.03577437;4.774261;-0.0351531;-0.4926056;4.017869;0.2432439;0.01925952;3.386075;-0.2431989;0.8278307;4.903517;-0.09489781;1.114675;4.757658;-0.03515482;1.267039;3.836015;0.2007177;1.119782;3.207085;-0.4924994;0.2273976;2.779807;-0.06959555;0.1876488;1.321183;-0.1777377;0;0;0;0.2273976;2.779807;-0.06959555;0.1876488;1.321183;-0.1777377;0;0;0
495041.973;NotLabelled;NONE;16384;-0.4432133;0.4044321;-0.7419532;-0.299169;-28;-23;0;-1026;3314;1969;65536;0.7641188;-0.4058172;0.006925208;0.501385;3;7;-56;-3641;2536;-740;8192;0.5429363;-0.5537119;-0.5401662;-0.3268698;0;-1;9;962;3881;771;32768;0.8201072;-0.4099723;0.01523546;-0.398892;5;1;5;2654;2701;-1252;256;0.09418282;-0.1052632;-0.6925207;-0.707435;-1;-5;0;-35;4006;-123;128;0.004155125;0.08033241;0.6177285;0.7822666;1;-6;-1;-411;3991;972;4;-0.5138504;0.4612188;-0.5041551;-0.5187125;0;-4;0;207;3942;186;16;0.6412742;-0.7645404;-0.002770083;-0.06509695;0;-3;0;347;4006;866;2;0.5761241;-0.5263157;-0.4238227;-0.4598338;0;0;-3;-361;4114;93;8;0.6523545;-0.7430461;0.04432133;0.1426593;-2;-2;0;-487;4063;659;0.5293066;2.822191;-0.06138939;0.5352917;3.367625;-0.07075208;0.5405524;3.847025;-0.08100432;0.549728;4.580564;-0.06367993;0.2951426;4.910728;-0.09410536;-0.04790794;4.773333;-0.03428958;-0.5123758;4.021445;0.2436717;0.008560784;3.402198;-0.2492343;0.8154459;4.904223;-0.09410626;1.102571;4.758948;-0.03429079;1.254444;3.83788;0.2041337;1.108538;3.20895;-0.4893687;0.2170506;2.779987;-0.06826222;0.1879948;1.321183;-0.1773714;0;0;0;0.2170506;2.779987;-0.06826222;0.1879948;1.321183;-0.1773714;0;0;0
495062.0695;NotLabelled;NONE;16384;-0.4432133;0.400277;-0.7447584;-0.2977839;-28;-14;3;-938;3298;2179;65536;0.7661597;-0.400277;0;0.5027701;-3;26;-51;-3007;2060;-782;8192;0.5429363;-0.5537119;-0.5401662;-0.3268698;0;0;9;936;3867;695;32768;0.8201072;-0.4099723;0.01523546;-0.398892;3;2;4;2638;2739;-1306;256;0.09556787;-0.1066482;-0.6925207;-0.7070417;0;-7;0;33;4046;-93;128;0.004155125;0.08033241;0.6177285;0.7822666;0;-8;-2;-407;4051;982;4;-0.5138504;0.4612188;-0.5041551;-0.5187125;0;-3;0;255;4200;118;16;0.6412742;-0.7645404;-0.002770083;-0.06509695;0;-2;0;293;3928;804;2;0.5761241;-0.5263157;-0.4238227;-0.4598338;0;0;-1;-361;4126;93;8;0.6523545;-0.7430461;0.04432133;0.1426593;-1;-3;0;-461;4025;617;0.5285425;2.82155;-0.06632823;0.5345277;3.366984;-0.07568255;0.5397883;3.846385;-0.08592743;0.5489866;4.579932;-0.06898317;0.2944111;4.910088;-0.09957789;-0.04864329;4.772734;-0.03968856;-0.529816;4.02907;0.2319096;0.008317456;3.434816;-0.2731352;0.8147141;4.903567;-0.09957904;1.101836;4.758314;-0.0396902;1.251891;3.838429;0.2043797;1.107211;3.212737;-0.4923016;0.2162865;2.779346;-0.07320164;0.1876623;1.320542;-0.1824248;0;0;0;0.2162865;2.779346;-0.07320164;0.1876623;1.320542;-0.1824248;0;0;0
495083.0962;NotLabelled;NONE;16384;-0.4459834;0.3947368;-0.746612;-0.2963989;-32;-11;10;-802;3312;2261;65536;0.7675692;-0.3975069;-0.006925208;0.5027701;-10;15;-47;-2933;1916;-424;8192;0.5415512;-0.5553412;-0.5415512;-0.3240997;0;0;10;996;3895;715;32768;0.8200967;-0.4085872;0.0166205;-0.400277;1;0;4;2882;2663;-1438;256;0.09556787;-0.1080332;-0.6911357;-0.7081857;0;-9;0;69;4068;-161;128;0.002770083;0.08171745;0.6177285;0.7821292;-1;-8;-2;-455;4025;1000;4;-0.5138504;0.4612188;-0.5041551;-0.5187125;0;-1;0;221;4082;158;16;0.6412742;-0.7645442;-0.001385042;-0.06509695;1;-2;0;315;3990;782;2;0.5750158;-0.5263157;-0.4238227;-0.4612188;0;-1;-1;-455;4100;93;8;0.6523545;-0.7430461;0.04432133;0.1426593;-1;-2;0;-447;4001;657;0.5288303;2.82155;-0.0654723;0.5348155;3.366984;-0.07482663;0.5400761;3.846385;-0.08507147;0.5492994;4.57994;-0.06851298;0.2947348;4.91009;-0.09927961;-0.04832387;4.772778;-0.0393158;-0.5353357;4.032874;0.2321421;0.01279003;3.451673;-0.2773289;0.8150377;4.903551;-0.09928071;1.102155;4.758318;-0.03931743;1.25221;3.83843;0.2047388;1.110286;3.212739;-0.4925092;0.2165743;2.779347;-0.07234585;0.1883822;1.320542;-0.1816814;0;0;0;0.2165743;2.779347;-0.07234585;0.1883822;1.320542;-0.1816814;0;0;0
495103.2786;NotLabelled;NONE;16384;-0.4501385;0.3905817;-0.7473978;-0.2936288;-33;-9;14;-938;3324;2057;65536;0.7672831;-0.3961219;-0.01385042;0.5041551;-14;12;-44;-3169;2006;-752;8192;0.5401662;-0.5561438;-0.5429363;-0.3227147;0;-2;9;990;3913;737;32768;0.8200967;-0.4085872;0.0166205;-0.400277;0;-1;4;2864;2683;-1480;256;0.09695291;-0.1094183;-0.6911357;-0.7077847;0;-10;0;79;4084;-207;128;0.001385042;0.08310249;0.6177285;0.7819869;-1;-10;-2;-461;4023;992;4;-0.5124654;0.4598338;-0.5055401;-0.5199628;-1;-5;0;189;4102;132;16;0.6426592;-0.7633803;-0.001385042;-0.06509695;1;-3;0;429;3958;714;2;0.5762805;-0.5249307;-0.4238227;-0.4612188;0;-3;0;-337;4100;99;8;0.6523545;-0.7430461;0.04432133;0.1426593;0;-3;0;-487;4055;603;0.5312693;2.821314;-0.06434989;0.5372545;3.366748;-0.07369974;0.542515;3.846149;-0.08394074;0.5527646;4.579622;-0.06456915;0.2986643;4.910243;-0.09408197;-0.04458962;4.773183;-0.03466179;-0.5403212;4.036688;0.230204;0.01713166;3.465045;-0.2799599;0.8189576;4.902975;-0.09408289;1.105868;4.757113;-0.0346629;1.255473;3.839027;0.2163624;1.113466;3.216588;-0.483773;0.2190133;2.77911;-0.07122383;0.1910433;1.320306;-0.1806164;0;0;0;0.2190133;2.77911;-0.07122383;0.1910433;1.320306;-0.1806164;0;0;0
495123.9895;NotLabelled;NONE;16384;-0.4542936;0.3864266;-0.7475864;-0.2922437;-32;-3;17;-930;3196;2089;65536;0.7676405;-0.3933518;-0.02077562;0.5055401;-10;16;-38;-2821;1988;-1140;8192;0.5401662;-0.5561438;-0.5429363;-0.3227147;-2;-2;8;1052;3925;763;32768;0.8200675;-0.4085872;0.01800554;-0.400277;1;0;5;2882;2659;-1488;256;0.09833795;-0.1108033;-0.6911357;-0.7073781;0;-10;0;111;4102;-195;128;0.001385042;0.08448754;0.6177285;0.7818385;-3;-11;-2;-469;3971;1052;4;-0.5124654;0.4598338;-0.5069252;-0.5186126;-1;-8;1;215;4070;70;16;0.6426592;-0.7634985;0;-0.06371191;1;-5;0;309;4000;690;2;0.5771405;-0.5263157;-0.4224377;-0.4598338;0;-5;0;-413;4150;73;8;0.6523545;-0.7426949;0.04570637;0.1440443;0;-3;0;-521;4015;613;0.530504;2.822156;-0.05917245;0.5364892;3.36759;-0.06852236;0.5417498;3.846992;-0.07876337;0.5520219;4.580474;-0.05978307;0.2979316;4.911088;-0.08947045;-0.045326;4.77407;-0.02997475;-0.5522307;4.041399;0.2241314;0.01712725;3.47862;-0.2827293;0.8182245;4.903804;-0.0894711;1.105131;4.757964;-0.02997547;1.25233;3.841115;0.2269217;1.113094;3.218676;-0.4737697;0.218248;2.779953;-0.0660464;0.1901729;1.321143;-0.1753359;0;0;0;0.218248;2.779953;-0.0660464;0.1901729;1.321143;-0.1753359;0;0;0
495145.0051;NotLabelled;NONE;16384;-0.4612188;0.3808864;-0.7478019;-0.2880886;-24;-2;17;-1164;3086;1541;65536;0.7722101;-0.3836565;-0.03047091;0.5055401;15;-5;-36;-3101;1956;-2052;8192;0.5401662;-0.5555916;-0.5443213;-0.3213296;-2;0;6;1084;3891;749;32768;0.820756;-0.4072022;0.01800554;-0.400277;1;0;7;2894;2627;-1520;256;0.09972299;-0.1108033;-0.6911357;-0.7071841;1;-8;0;79;4076;-165;128;0;0.08587258;0.6163435;0.7827813;-3;-9;-1;-519;4017;1026;4;-0.5110803;0.4584487;-0.5069252;-0.5211991;-1;-12;1;243;4032;72;16;0.6426592;-0.7634985;0;-0.06371191;1;-6;0;313;3990;694;2;0.5771405;-0.5263157;-0.4224377;-0.4598338;1;-7;0;-349;4114;125;8;0.6509695;-0.7439092;0.04570637;0.1440443;0;-2;0;-473;4037;577;0.5354177;2.822222;-0.06167597;0.5414028;3.367656;-0.07100147;0.5466635;3.847059;-0.08122098;0.5569606;4.580551;-0.06263766;0.3028812;4.911156;-0.09250179;-0.04038059;4.774183;-0.03292906;-0.5544544;4.043812;0.2132737;0.02608234;3.491464;-0.2923802;0.8231739;4.903855;-0.09250295;1.110075;4.758038;-0.03293079;1.257275;3.84119;0.2239659;1.118728;3.219822;-0.4778137;0.2231616;2.780019;-0.06855193;0.1905945;1.321105;-0.1751675;0;0;0;0.2231616;2.780019;-0.06855193;0.1905945;1.321105;-0.1751675;0;0;0
495166.1367;NotLabelled;NONE;16384;-0.4639889;0.3781163;-0.7480263;-0.2867036;-15;-10;17;-1324;2890;1469;65536;0.7728321;-0.3767313;-0.03185596;0.5096953;32;-23;-37;-3239;1942;-1884;8192;0.5401662;-0.5563904;-0.5443213;-0.3199446;-2;2;4;1034;3873;791;32768;0.8207338;-0.4058172;0.01939058;-0.4016621;2;0;9;3078;2675;-1584;256;0.101108;-0.1121884;-0.6897507;-0.7081207;1;-5;-1;107;4000;-213;128;0;0.08725762;0.6149584;0.783717;-3;-8;0;-493;3895;1004;4;-0.5110803;0.4570637;-0.5083103;-0.5210665;0;-12;1;263;4050;102;16;0.6426592;-0.7636128;0;-0.06232687;1;-6;0;345;4022;646;2;0.5758742;-0.5277008;-0.4224377;-0.4598338;0;-6;0;-359;4118;69;8;0.6509695;-0.7439092;0.04570637;0.1440443;0;-3;0;-483;4073;593;0.5311837;2.822099;-0.05853152;0.5371693;3.367563;-0.06593329;0.5424302;3.846998;-0.074462;0.5513184;4.580519;-0.05628189;0.2966042;4.910619;-0.08632568;-0.04639343;4.77302;-0.02667499;-0.5738198;4.048056;0.2069461;0.01648451;3.515777;-0.308822;0.81691;4.904317;-0.08632696;1.104092;4.759085;-0.02667689;1.253408;3.843393;0.2331114;1.117843;3.223647;-0.4706808;0.2189279;2.779921;-0.06556836;0.1909359;1.321105;-0.1747955;0;0;0;0.2189279;2.779921;-0.06556836;0.1909359;1.321105;-0.1747955;0;0;0
495186.3122;NotLabelled;NONE;16384;-0.466759;0.3739612;-0.7478596;-0.2880886;-8;-27;18;-1252;2936;1573;65536;0.7734251;-0.3698061;-0.03185596;0.5138504;42;-25;-30;-2633;1440;-1826;8192;0.5401662;-0.5558281;-0.5457063;-0.3185596;-5;2;4;1032;3943;831;32768;0.8219892;-0.4030471;0.0235457;-0.4016621;5;-7;16;3238;2731;-1706;256;0.101108;-0.1121884;-0.6897507;-0.7081207;-1;-3;-1;111;3942;-159;128;-0.001385042;0.08864266;0.6149584;0.7835603;-2;-8;0;-509;3985;962;4;-0.5096953;0.4556787;-0.5083103;-0.52363;-1;-10;1;401;4088;178;16;0.6426592;-0.7636128;0;-0.06232687;1;-8;0;289;3972;710;2;0.5769774;-0.5277008;-0.4224377;-0.4584487;0;-5;0;-329;4090;109;8;0.6509695;-0.7438228;0.04709141;0.1440443;0;-3;0;-511;4049;611;0.533167;2.822116;-0.05787268;0.5391527;3.367603;-0.06332344;0.544414;3.847065;-0.07013732;0.5529019;4.580528;-0.0495584;0.298009;4.910585;-0.07853347;-0.04491596;4.772604;-0.01934759;-0.5793802;4.050679;0.2075873;0.01437282;3.529666;-0.3156724;0.8183182;4.904567;-0.07853323;1.105576;4.759297;-0.0193463;1.253244;3.845173;0.246829;1.119021;3.228699;-0.460088;0.2209115;2.779962;-0.06507254;0.1890717;1.321302;-0.1753259;0;0;0;0.2209115;2.779962;-0.06507254;0.1890717;1.321302;-0.1753259;0;0;0
495208.2303;NotLabelled;NONE;16384;-0.468144;0.368421;-0.7481315;-0.2922437;-4;-40;23;-1144;3088;1675;65536;0.7756146;-0.3614958;-0.02908587;0.5166205;59;-8;-18;-1593;1230;-1298;8192;0.5401662;-0.5544649;-0.5470914;-0.3185596;-8;1;4;1080;3921;931;32768;0.8226261;-0.4016621;0.02493075;-0.4016621;5;-10;21;3250;2761;-1838;256;0.101108;-0.1135734;-0.6897507;-0.7078999;0;-6;-1;9;4018;-153;128;-0.002770083;0.0900277;0.6149584;0.7833987;-1;-7;-1;-471;4075;978;4;-0.5083103;0.4529086;-0.5096953;-0.5260277;-2;-5;1;285;4074;182;16;0.6440443;-0.7625557;0.001385042;-0.06094183;2;-6;0;317;4024;706;2;0.5779889;-0.5277008;-0.4210526;-0.4584487;0;-4;0;-271;4104;77;8;0.6509695;-0.7438228;0.04709141;0.1440443;0;-2;0;-517;4037;607;0.5288498;2.822011;-0.05534738;0.5348356;3.367497;-0.06080726;0.5400969;3.846959;-0.06762916;0.5485848;4.580422;-0.04705021;0.2936919;4.91048;-0.07602483;-0.0492329;4.772498;-0.01683829;-0.5856509;4.049576;0.2021755;0.007454559;3.538542;-0.331553;0.8140011;4.904462;-0.07602555;1.101259;4.759191;-0.01683909;1.252591;3.845303;0.2480826;1.115324;3.235341;-0.4638804;0.2165944;2.779857;-0.06254646;0.1890713;1.321302;-0.1753262;0;0;0;0.2165944;2.779857;-0.06254646;0.1890713;1.321302;-0.1753262;0;0;0
495229.1248;NotLabelled;NONE;16384;-0.468144;0.3628809;-0.7492038;-0.2963989;2;-45;32;-876;3120;1771;65536;0.779285;-0.3518005;-0.02493075;0.5180055;67;0;-3;-1587;914;-856;8192;0.5401662;-0.5538902;-0.5484765;-0.3171745;-10;2;5;996;3877;1081;32768;0.8231599;-0.398892;0.02908587;-0.4030471;7;-8;26;3156;2721;-1952;256;0.1024931;-0.1135734;-0.6897507;-0.7077007;0;-8;0;-7;4050;-137;128;-0.004155125;0.09141274;0.6135734;0.7843176;-1;-8;0;-459;3975;1054;4;-0.5083103;0.4529086;-0.5110803;-0.5246822;0;-4;1;281;4078;188;16;0.6440443;-0.7626613;0.002770083;-0.05955679;1;-4;0;355;3972;658;2;0.5779889;-0.5277008;-0.4210526;-0.4584487;0;-2;0;-265;4136;59;8;0.6509695;-0.7438228;0.04709141;0.1440443;-1;0;0;-483;4059;589;0.5271263;2.82253;-0.04755029;0.533112;3.368016;-0.05302376;0.5383733;3.847479;-0.05985758;0.5482954;4.580923;-0.03927818;0.2940485;4.911478;-0.06825265;-0.04914557;4.774169;-0.009066306;-0.5861107;4.049183;0.2016284;0.001956515;3.546283;-0.3452407;0.8143448;4.904443;-0.06825328;1.101318;4.758611;-0.00906688;1.254289;3.84528;0.2568341;1.117969;3.238045;-0.4576374;0.2148709;2.780376;-0.0547483;0.1875298;1.32209;-0.1709932;0;0;0;0.2148709;2.780376;-0.0547483;0.1875298;1.32209;-0.1709932;0;0;0
495249.9971;NotLabelled;NONE;16384;-0.4736842;0.3490305;-0.7466903;-0.3102493;9;-39;54;22;2992;1919;65536;0.7916939;-0.3365651;-0.01246537;0.5096953;89;58;30;-2565;742;-1878;8192;0.5415512;-0.5519525;-0.5498615;-0.3157895;-13;3;6;1004;3847;1097;32768;0.8243394;-0.3961219;0.033241;-0.4030471;6;-8;32;3324;2575;-1998;256;0.1038781;-0.1149584;-0.6897507;-0.707275;0;-8;0;-53;4058;-131;128;-0.004155125;0.09141274;0.6135734;0.7843176;-2;-7;-1;-403;4001;1080;4;-0.5083103;0.4529086;-0.5110803;-0.5246822;0;-5;1;329;4058;126;16;0.6440443;-0.7626613;0.002770083;-0.05955679;1;-3;0;335;3934;718;2;0.5779889;-0.5277008;-0.4210526;-0.4584487;0;-1;0;-401;4032;37;8;0.6509695;-0.7438228;0.04709141;0.1440443;-1;-1;0;-451;4029;635;0.531877;2.82259;-0.05031189;0.5378629;3.368093;-0.05388045;0.5431244;3.847575;-0.05903992;0.5516384;4.581049;-0.03887483;0.2967569;4.911099;-0.06803387;-0.0461725;4.773164;-0.008767104;-0.5832595;4.046631;0.1962104;-0.003863171;3.551531;-0.3667931;0.8170658;4.905063;-0.06803489;1.104319;4.759815;-0.008768439;1.25938;3.847688;0.2600361;1.120403;3.247606;-0.459946;0.2196218;2.780462;-0.05766895;0.1875932;1.322056;-0.1711844;0;0;0;0.2196218;2.780462;-0.05766895;0.1875932;1.322056;-0.1711844;0;0;0
495271.0102;NotLabelled;NONE;16384;-0.4792244;0.3434903;-0.7428046;-0.3171745;17;-27;68;374;3068;1681;65536;0.8042418;-0.3254848;-0.004155125;0.4972299;113;78;42;-2855;1024;-2794;8192;0.5429363;-0.5484765;-0.5527601;-0.3144044;-16;3;5;914;3913;1269;32768;0.8248094;-0.3933518;0.03739612;-0.4044321;3;-8;39;3478;2495;-2168;256;0.1066482;-0.1177285;-0.6883656;-0.7077563;2;-10;0;-39;3992;-113;128;-0.005540166;0.09418282;0.6135734;0.7839813;-2;-10;-2;-389;3971;1076;4;-0.5083103;0.4515235;-0.5110803;-0.5258746;-1;-5;2;287;4090;186;16;0.6440443;-0.7626613;0.002770083;-0.05955679;1;-2;0;303;4022;686;2;0.5779889;-0.5277008;-0.4210526;-0.4584487;0;-3;0;-335;4114;93;8;0.6509695;-0.7435532;0.04709141;0.1454294;-1;-2;0;-505;4027;537;0.5321037;2.82259;-0.04944164;0.5380896;3.368092;-0.0530102;0.543351;3.847575;-0.05816969;0.5518934;4.58106;-0.03842422;0.2970245;4.911103;-0.06777048;-0.04590981;4.773215;-0.008422686;-0.5800169;4.037323;0.1691179;-0.02857512;3.544373;-0.4230894;0.8173332;4.905047;-0.0677712;1.104582;4.759822;-0.008423388;1.264244;3.848837;0.2615575;1.125021;3.255364;-0.4638345;0.2198485;2.780461;-0.05679867;0.1882699;1.322056;-0.17044;0;0;0;0.2198485;2.780461;-0.05679867;0.1882699;1.322056;-0.17044;0;0;0
495291.0096;NotLabelled;NONE;16384;-0.4861496;0.3393352;-0.7372039;-0.3240997;26;-7;81;428;3224;1511;65536;0.818045;-0.3116343;0.005540166;0.4833795;132;85;51;-3099;1688;-3618;8192;0.5443213;-0.5457063;-0.5557004;-0.3116343;-20;4;3;920;3993;1391;32768;0.8258298;-0.3891967;0.04293629;-0.4058172;3;-11;47;3584;2515;-2378;256;0.1080332;-0.1191136;-0.6883656;-0.7073143;2;-11;0;35;3948;-67;128;-0.006925208;0.09556787;0.6121883;0.7848849;-3;-12;-2;-415;3891;1104;4;-0.5069252;0.4515235;-0.5110803;-0.5272099;-1;-6;1;253;4044;186;16;0.6440443;-0.762655;0.004155125;-0.05955679;2;-3;0;349;3956;718;2;0.5779889;-0.5277008;-0.4210526;-0.4584487;0;-2;-1;-265;4058;113;8;0.6509695;-0.7438228;0.04709141;0.1440443;-2;-1;0;-537;4011;565;0.5319225;2.822313;-0.04403734;0.5379084;3.367815;-0.04760253;0.5431699;3.847299;-0.05275908;0.551326;4.580732;-0.03106782;0.2962845;4.910719;-0.05954634;-0.04657896;4.772493;-0.0005750991;-0.5793305;4.030637;0.1548379;-0.04797;3.538444;-0.4560626;0.8165964;4.904936;-0.05954713;1.10392;4.759705;-0.0005759001;1.269485;3.850559;0.2720377;1.131988;3.264335;-0.4595511;0.2196673;2.780185;-0.05139475;0.1896186;1.322056;-0.1689379;0;0;0;0.2196673;2.780185;-0.05139475;0.1896186;1.322056;-0.1689379;0;0;0
495312.1706;NotLabelled;NONE;16384;-0.4958449;0.3379501;-0.7269859;-0.333795;30;3;90;276;3396;1873;65536;0.829707;-0.299169;0.01800554;0.4709141;135;75;56;-3477;2094;-3374;8192;0.5498615;-0.5401662;-0.557969;-0.3074792;-37;2;-7;882;4357;1505;32768;0.8279884;-0.3808864;0.05955679;-0.4072022;2;-33;61;4008;2469;-2792;256;0.1094183;-0.1191136;-0.6869806;-0.708447;2;-12;-2;145;3914;-217;128;-0.008310249;0.09695291;0.6121883;0.7847015;-3;-11;-2;-473;3917;1002;4;-0.5069252;0.4501385;-0.5124654;-0.5270498;-1;-7;1;269;4014;246;16;0.6454294;-0.7615902;0.004155125;-0.05817174;2;-5;0;433;3988;690;2;0.5779889;-0.5277008;-0.4210526;-0.4584487;0;-1;-1;-379;4136;43;8;0.6509695;-0.7438228;0.04709141;0.1440443;-1;0;0;-569;4003;659;0.530763;2.822221;-0.04346427;0.536749;3.367732;-0.04513612;0.5420107;3.847231;-0.04862848;0.5501976;4.580677;-0.02737388;0.2951697;4.910657;-0.05604714;-0.04769921;4.772481;0.003008649;-0.5769626;4.02379;0.1359391;-0.07217155;3.535562;-0.5001554;0.8154812;4.904852;-0.05604804;1.102798;4.759645;0.00300765;1.275826;3.853093;0.2795967;1.136678;3.276969;-0.4596637;0.2185081;2.780119;-0.0509797;0.1925634;1.321823;-0.1674235;0;0;0;0.2185081;2.780119;-0.0509797;0.1925634;1.321823;-0.1674235;0;0;0
495331.9929;NotLabelled;NONE;16384;-0.5041551;0.333795;-0.7192861;-0.3421052;31;-6;94;38;3628;2505;65536;0.8406016;-0.2867036;0.03185596;0.4584487;136;73;58;-4135;2388;-2884;8192;0.5540166;-0.534626;-0.5607076;-0.3047091;-46;1;-15;866;4311;1543;32768;0.8298133;-0.3767313;0.06925207;-0.4058172;5;-43;69;4042;2447;-3036;256;0.1108033;-0.1204986;-0.6869806;-0.7079974;3;-9;-4;193;3980;-253;128;-0.009695291;0.09833795;0.6108033;0.7855921;-2;-10;-1;-503;3935;1098;4;-0.5055401;0.4487534;-0.5138504;-0.5282114;-2;-6;1;367;4094;130;16;0.6454294;-0.7615814;0.005540166;-0.05817174;2;-6;0;337;3988;660;2;0.5779889;-0.5277008;-0.4210526;-0.4584487;-1;-1;-1;-415;4098;85;8;0.6509695;-0.7435532;0.04709141;0.1454294;-1;1;0;-499;4093;621;0.5309595;2.823073;-0.03891471;0.5369455;3.368585;-0.04061785;0.5422072;3.848083;-0.04413763;0.5485325;4.581475;-0.02052993;0.2926688;4.910896;-0.04815356;-0.04984995;4.771663;0.01044643;-0.5688648;4.011221;0.1137918;-0.09460661;3.524711;-0.5466501;0.8129936;4.906412;-0.04815441;1.100677;4.761745;0.01044542;1.289926;3.858261;0.2864434;1.135302;3.30652;-0.4681826;0.2187046;2.78097;-0.04642741;0.1886593;1.322832;-0.1638588;0;0;0;0.2187046;2.78097;-0.04642741;0.1886593;1.322832;-0.1638588;0;0;0
495353.0114;NotLabelled;NONE;16384;-0.5207756;0.3185596;-0.7047222;-0.3614958;4;-51;102;-188;4232;3595;65536;0.8600818;-0.2631579;0.05540166;0.433518;107;64;47;-4925;3252;-2302;8192;0.563334;-0.5290859;-0.5581717;-0.301939;-55;4;-22;930;4287;1635;32768;0.8324664;-0.3698061;0.08171745;-0.4044321;9;-51;76;4100;2333;-3094;256;0.1121884;-0.1218837;-0.6855956;-0.7088842;4;-5;-7;201;3990;-189;128;-0.01108033;0.09972299;0.6108033;0.7853992;-5;-10;-1;-461;3959;1114;4;-0.5055401;0.4473684;-0.5138504;-0.529385;0;-8;0;417;4040;66;16;0.6454294;-0.761686;0.005540166;-0.0567867;2;-4;0;277;4036;682;2;0.5792505;-0.5263157;-0.4210526;-0.4584487;-1;-5;-1;-449;4124;109;8;0.6495845;-0.7450326;0.04709141;0.1440443;0;0;0;-481;4007;633;0.5341365;2.822824;-0.03741357;0.5401225;3.368338;-0.03723541;0.5453843;3.847845;-0.03910157;0.5517391;4.581252;-0.0159415;0.2958885;4.910666;-0.04376493;-0.04663547;4.771483;0.01492177;-0.5588782;4.00341;0.09238517;-0.1161292;3.51897;-0.5910536;0.816213;4.906162;-0.04376566;1.103891;4.761519;0.01492095;1.307199;3.86095;0.2904478;1.146079;3.321725;-0.4718274;0.2218818;2.780747;-0.04508339;0.1915847;1.3226;-0.1623323;0;0;0;0.2218818;2.780747;-0.04508339;0.1915847;1.3226;-0.1623323;0;0;0
495373.1822;NotLabelled;NONE;16384;-0.5290859;0.3060942;-0.6989933;-0.3711911;-12;-63;97;-232;4098;4011;65536;0.8674906;-0.2548476;0.06371191;0.4224377;78;57;34;-4715;3360;-2162;8192;0.5704909;-0.5221606;-0.5581717;-0.300554;-64;11;-30;768;4279;1701;32768;0.8356209;-0.3614958;0.09279778;-0.4030471;13;-57;82;4006;2243;-3192;256;0.1121884;-0.1204986;-0.6855956;-0.709121;5;-2;-7;181;4008;-221;128;-0.01108033;0.09972299;0.6094183;0.7864743;-6;-7;0;-509;3925;1180;4;-0.5041551;0.4459834;-0.5152354;-0.530527;0;-7;-1;459;4032;118;16;0.6468144;-0.7605101;0.005540166;-0.0567867;2;-5;0;295;4014;668;2;0.5813464;-0.5263157;-0.4196676;-0.4570637;0;-6;0;-357;4098;93;8;0.6495845;-0.7450326;0.04709141;0.1440443;0;-2;0;-505;4027;711;0.5311704;2.822742;-0.03422987;0.5371565;3.368257;-0.03409171;0.5424182;3.847764;-0.03599304;0.5483362;4.581097;-0.0104962;0.2922905;4.910447;-0.03727686;-0.05015226;4.770873;0.02095675;-0.5500939;3.991127;0.04058054;-0.166353;3.516638;-0.684265;0.8126175;4.90625;-0.03727782;1.10038;4.761593;0.02095544;1.320763;3.861837;0.2858056;1.151752;3.341013;-0.4874766;0.2189157;2.780665;-0.04189625;0.1897007;1.322802;-0.1628954;0;0;0;0.2189157;2.780665;-0.04189625;0.1897007;1.322802;-0.1628954;0;0;0
495395.3;NotLabelled;NONE;16384;-0.536011;0.2922437;-0.6959265;-0.3781163;-28;-56;91;164;4232;4295;65536;0.8726674;-0.2493075;0.06925207;0.4141274;51;43;22;-4347;3180;-2332;8192;0.5780819;-0.5138504;-0.5595568;-0.2977839;-72;14;-38;602;4309;1717;32768;0.839022;-0.3531856;0.1052632;-0.400277;19;-59;86;3914;2125;-3326;256;0.1135734;-0.1191136;-0.6828254;-0.7118022;9;7;-11;255;4012;-285;128;-0.01246537;0.101108;0.6066482;0.788416;-9;-1;1;-551;3929;1140;4;-0.5041551;0.4459834;-0.5152354;-0.530527;0;-3;-1;533;4064;178;16;0.6468144;-0.7606009;0.006925208;-0.05540166;2;-4;0;303;4022;652;2;0.5800894;-0.5277008;-0.4196676;-0.4570637;0;-6;0;-303;4128;181;8;0.6495845;-0.7447636;0.04709141;0.1454294;0;-1;0;-597;4073;705;0.5301307;2.823519;-0.03032708;0.5361167;3.36903;-0.02827513;0.5413784;3.84854;-0.02849421;0.5458647;4.581883;-0.002997875;0.2891765;4.910732;-0.02977876;-0.05299307;4.77049;0.02845486;-0.5510173;3.989334;0.01870498;-0.1918782;3.519321;-0.7215008;0.8095106;4.907553;-0.02977961;1.097554;4.763457;0.02845383;1.335449;3.865434;0.2838688;1.157291;3.363807;-0.4999787;0.2178764;2.781469;-0.03815299;0.1876558;1.323595;-0.1587723;0;0;0;0.2178764;2.781469;-0.03815299;0.1876558;1.323595;-0.1587723;0;0;0
495416.0016;NotLabelled;NONE;16384;-0.5457063;0.2797784;-0.6919929;-0.3808864;-47;-37;91;444;4312;4281;65536;0.8764808;-0.2465374;0.07202215;0.4072022;25;32;17;-3889;2900;-2446;8192;0.5990989;-0.4916897;-0.5595568;-0.2936288;-91;18;-57;598;4281;1927;32768;0.8463885;-0.33241;0.1315789;-0.3947368;27;-67;93;3750;2089;-3314;256;0.1121884;-0.1163435;-0.6814404;-0.7138045;10;16;-12;287;4038;-299;128;-0.01246537;0.101108;0.6052631;0.7894798;-9;2;2;-555;3981;1176;4;-0.5041551;0.4459834;-0.5152354;-0.530527;0;-1;-2;615;4050;106;16;0.6468144;-0.7606009;0.006925208;-0.05540166;2;-3;0;329;4044;638;2;0.5800894;-0.5277008;-0.4196676;-0.4570637;-1;-3;0;-253;4174;175;8;0.6495845;-0.7447636;0.04709141;0.1454294;0;2;0;-657;4053;619;0.5298752;2.823436;-0.03055537;0.5358609;3.368919;-0.02472895;0.5411226;3.848421;-0.02163014;0.5418447;4.581582;0.008970082;0.2834723;4.909287;-0.01553234;-0.05797348;4.766888;0.04170895;-0.559504;3.98873;0.006133616;-0.216313;3.522035;-0.7436743;0.803816;4.908778;-0.01553285;1.092595;4.765761;0.04170871;1.351261;3.871455;0.28987;1.163634;3.389678;-0.5041541;0.2176215;2.781442;-0.03869587;0.1873931;1.323567;-0.1593133;0;0;0;0.2176215;2.781442;-0.03869587;0.1873931;1.323567;-0.1593133;0;0;0
495436.0197;NotLabelled;NONE;16384;-0.5554016;0.267313;-0.6892012;-0.3808864;-61;-10;92;598;4312;3915;65536;0.8780093;-0.2479224;0.07202215;0.4030471;-1;41;13;-3167;2172;-96;8192;0.6095961;-0.4778393;-0.5609418;-0.2922437;-100;27;-63;602;4187;2057;32768;0.8503196;-0.3213296;0.1454294;-0.3905817;21;-80;97;4798;1305;-2442;256;0.1108033;-0.1135734;-0.6814404;-0.7144667;10;21;-11;231;4064;-309;128;-0.01108033;0.09972299;0.6038781;0.7907363;-11;6;4;-691;3983;1214;4;-0.5055401;0.4459834;-0.5138504;-0.5305523;0;6;-4;663;3960;152;16;0.6468144;-0.7606009;0.006925208;-0.05540166;1;-1;0;337;3950;586;2;0.5801753;-0.5277008;-0.4210526;-0.4556787;0;0;1;-295;4108;199;8;0.6495845;-0.7451189;0.04570637;0.1440443;1;4;0;-559;4049;633;0.5296389;2.823407;-0.03170171;0.5356244;3.368866;-0.02396938;0.5408859;3.848354;-0.0191952;0.5397148;4.581373;0.01463714;0.2804966;4.908514;-0.008421361;-0.06057987;4.764984;0.04819007;-0.5698727;3.993372;-0.01152745;-0.2405546;3.528246;-0.7684981;0.80084;4.909349;-0.008421898;1.089988;4.766827;0.04818982;1.401167;3.881553;0.2666644;1.190472;3.446745;-0.5484049;0.2173855;2.781441;-0.04000075;0.1864341;1.323567;-0.1604347;0;0;0;0.2173855;2.781441;-0.04000075;0.1864341;1.323567;-0.1604347;0;0;0
495458.0208;NotLabelled;NONE;16384;-0.5844875;0.2479224;-0.6790985;-0.368421;-87;42;90;432;3954;3345;65536;0.8897639;-0.2506925;0.05955679;0.3767313;-22;117;-14;-3243;2808;-1468;8192;0.6218867;-0.4626039;-0.5609418;-0.2908587;-108;33;-71;368;4195;2189;32768;0.8559546;-0.3088643;0.1606648;-0.3822715;31;-112;94;3024;2371;-3572;256;0.1080332;-0.1108033;-0.6800554;-0.7166423;12;25;-9;215;4040;-323;128;-0.009695291;0.09833795;0.602493;0.7919835;-13;11;5;-603;3905;1240;4;-0.5055401;0.4473684;-0.5138504;-0.529385;0;10;-4;733;4030;104;16;0.6481994;-0.7594209;0.006925208;-0.05540166;0;0;0;325;3992;496;2;0.5814322;-0.5263157;-0.4210526;-0.4556787;-1;2;1;-205;4156;157;8;0.6495845;-0.7451189;0.04570637;0.1440443;0;4;1;-555;4027;617;0.5280939;2.823073;-0.02887997;0.534079;3.368501;-0.01920006;0.5393403;3.847968;-0.01271385;0.5367437;4.580962;0.0215719;0.2768898;4.907615;-0.001283839;-0.06390659;4.763385;0.05523944;-0.5847875;4.001534;-0.02596754;-0.2614608;3.533955;-0.7840097;0.7972304;4.90946;-0.001284719;1.086655;4.767466;0.05523825;1.427293;3.889101;0.2570183;1.201885;3.478886;-0.5668159;0.2158409;2.781137;-0.03734103;0.1854683;1.323567;-0.1615501;0;0;0;0.2158409;2.781137;-0.03734103;0.1854683;1.323567;-0.1615501;0;0;0
495478.1882;NotLabelled;NONE;16384;-0.599723;0.2409972;-0.6742108;-0.3573407;-94;58;86;14;4006;2979;65536;0.8952363;-0.2534626;0.05124654;0.3628809;-15;111;-16;-3731;3544;-1680;8192;0.6354232;-0.4473684;-0.5595568;-0.2880886;-112;26;-75;412;4189;2035;32768;0.8604197;-0.2963989;0.1759003;-0.3753462;36;-98;92;3694;2003;-2852;256;0.1066482;-0.1066482;-0.6786703;-0.7187899;15;28;-8;77;4026;-351;128;-0.008310249;0.09695291;0.601108;0.7932214;-11;14;6;-605;3903;1192;4;-0.5069252;0.4473684;-0.5124654;-0.5294031;2;16;-3;661;4006;164;16;0.6481994;-0.7594209;0.006925208;-0.05540166;-1;5;0;269;4002;454;2;0.5793366;-0.5263157;-0.4224377;-0.4570637;-2;7;0;-237;4048;155;8;0.6509695;-0.7442598;0.04432133;0.1426593;0;7;0;-583;4003;531;0.5266853;2.824113;-0.02951658;0.53267;3.369503;-0.0178948;0.537931;3.848944;-0.00970155;0.5348997;4.581757;0.0282414;0.2748513;4.908363;0.00702028;-0.06585827;4.763652;0.06282894;-0.6173266;4.031179;-0.07019866;-0.2912866;3.565898;-0.8284918;0.7951907;4.91052;0.007019818;1.084701;4.768417;0.06282872;1.457413;3.89835;0.2426734;1.215731;3.513669;-0.5888296;0.2144326;2.782207;-0.03813908;0.1825603;1.324344;-0.1584654;0;0;0;0.2144326;2.782207;-0.03813908;0.1825603;1.324344;-0.1584654;0;0;0
495499.0111;NotLabelled;NONE;16384;-0.6149584;0.232687;-0.6705948;-0.3434903;-102;53;77;-392;4062;2935;65536;0.9024341;-0.2548476;0.04155125;0.3448753;-5;147;-19;-3807;3084;-2478;8192;0.6492256;-0.4307479;-0.5581717;-0.2853186;-114;24;-78;544;4077;1899;32768;0.8662912;-0.2825485;0.1897507;-0.365651;40;-113;90;3654;2017;-2952;256;0.101108;-0.101108;-0.6745152;-0.7242814;16;27;-4;-109;4120;-293;128;-0.004155125;0.09279778;0.5983379;0.7958411;-9;17;5;-395;4001;1174;4;-0.5083103;0.4487534;-0.5110803;-0.5282404;2;18;-3;613;4060;230;16;0.6481994;-0.75933;0.005540166;-0.0567867;-2;10;0;323;4014;452;2;0.5766034;-0.5235457;-0.4265928;-0.4598338;-3;14;0;-263;4092;77;8;0.6509695;-0.7446051;0.04293629;0.1412742;0;10;1;-553;4075;601;0.525133;2.823777;-0.02712217;0.5311171;3.369123;-0.01356548;0.5363779;3.848531;-0.003671259;0.5301119;4.58115;0.0374715;0.2686204;4.906694;0.01769947;-0.07144038;4.760236;0.07290532;-0.642031;4.045085;-0.07309076;-0.3140187;3.579782;-0.8305191;0.7889453;4.91115;0.01766312;1.079087;4.770086;0.07282576;1.486226;3.910787;0.228123;1.226494;3.552545;-0.6097254;0.2128805;2.781902;-0.03590548;0.1812687;1.324344;-0.1599413;0;0;0;0.2128805;2.781902;-0.03590548;0.1812687;1.324344;-0.1599413;0;0;0
495519.0418;NotLabelled;NONE;16384;-0.6288089;0.2243767;-0.666841;-0.3310249;-104;38;72;-496;3658;2475;65536;0.9104928;-0.2548476;0.03185596;0.3240997;10;148;-29;-3827;3372;-3086;8192;0.6743759;-0.3961219;-0.5554016;-0.2825485;-119;37;-78;466;3971;1937;32768;0.8773667;-0.2534626;0.2146814;-0.3462604;54;-116;79;3322;2007;-2966;256;0.09833795;-0.09695291;-0.6731302;-0.7265161;16;27;-1;-221;4090;-363;128;-0.002770083;0.0900277;0.5983379;0.7961652;-7;18;5;-369;4009;1234;4;-0.5083103;0.4515235;-0.5096953;-0.5272171;3;20;-3;589;3986;180;16;0.6481994;-0.75933;0.005540166;-0.0567867;-3;14;0;317;3990;480;2;0.575726;-0.5221606;-0.4279778;-0.4612188;-2;15;0;-293;4092;23;8;0.6509695;-0.7449451;0.04155125;0.1398892;0;10;1;-475;4065;603;0.5240803;2.823729;-0.02932546;0.5300632;3.368965;-0.01189372;0.535323;3.848291;0.001406997;0.5279571;4.580275;0.05249153;0.2659745;4.905663;0.03715286;-0.07386172;4.757957;0.0903815;-0.6662868;4.065598;-0.07695134;-0.3423955;3.602551;-0.8375309;0.7862921;4.910902;0.03715247;1.076649;4.769539;0.09038141;1.517434;3.922176;0.2167108;1.236803;3.589739;-0.625025;0.2118285;2.781918;-0.03843047;0.1789808;1.324372;-0.1622756;0;0;0;0.2118285;2.781918;-0.03843047;0.1789808;1.324372;-0.1622756;0;0;0
495539.1776;NotLabelled;NONE;16384;-0.6398892;0.2160665;-0.6644491;-0.3199446;-98;32;64;-662;3198;1989;65536;0.9181332;-0.2506925;0.02216066;0.3060942;33;124;-41;-3773;3272;-4004;8192;0.6863241;-0.3781163;-0.5540166;-0.2811634;-119;43;-76;384;3901;2151;32768;0.8835111;-0.2368421;0.2257618;-0.33518;60;-121;73;3238;2075;-3084;256;0.09556787;-0.09556787;-0.6717451;-0.7283489;16;20;0;-329;3988;-407;128;-0.001385042;0.08725762;0.5969529;0.7975157;-5;18;4;-303;3883;1258;4;-0.5110803;0.4542936;-0.5069252;-0.5248249;3;20;0;251;4120;240;16;0.6468144;-0.7602074;0.001385042;-0.06094183;-6;19;0;313;4008;606;2;0.5748373;-0.5207756;-0.4293629;-0.4626039;-1;16;0;-353;4040;-25;8;0.6509695;-0.7452798;0.0401662;0.1385041;0;9;0;-449;4033;591;0.5197495;2.824183;-0.03584284;0.5257325;3.369419;-0.0184195;0.5309923;3.848745;-0.005126059;0.5219452;4.580452;0.0495102;0.2592137;4.905307;0.03576352;-0.08027843;4.756563;0.0882914;-0.6923417;4.08569;-0.09511365;-0.3698636;3.626343;-0.85853;0.7795178;4.911744;0.03576306;1.070203;4.770793;0.0882912;1.57199;3.951754;0.1635126;1.270468;3.67113;-0.6897885;0.2074978;2.782371;-0.04494707;0.177352;1.324372;-0.1640541;0;0;0;0.2074978;2.782371;-0.04494707;0.177352;1.324372;-0.1640541;0;0;0
495560.0104;NotLabelled;NONE;16384;-0.6495845;0.2091413;-0.6618499;-0.3102493;-91;16;56;-784;3106;2053;65536;0.9246135;-0.2423823;0.01108033;0.2936288;53;84;-56;-3787;3046;-3968;8192;0.6972126;-0.3587258;-0.5540166;-0.2797784;-119;48;-74;342;3755;2437;32768;0.8898976;-0.2202216;0.2354571;-0.3227147;63;-128;67;3344;1785;-2934;256;0.09279778;-0.09279778;-0.6703601;-0.7303386;16;20;0;-271;4040;-465;128;0;0.08448754;0.5969529;0.7978152;-5;15;4;-281;3871;1298;4;-0.5124654;0.4556787;-0.5055401;-0.523608;2;18;0;133;4124;272;16;0.6454294;-0.7612728;0;-0.06232687;-6;19;0;399;4036;652;2;0.5739373;-0.5193906;-0.4307479;-0.4639889;-2;15;0;-423;4098;-3;8;0.6509695;-0.7452798;0.0401662;0.1385041;0;7;0;-425;4015;623;0.520448;2.823448;-0.03935078;0.5264303;3.36862;-0.02004924;0.5316895;3.847898;-0.00510475;0.5237762;4.579348;0.05305274;0.2615465;4.904671;0.04088543;-0.07817248;4.7562;0.09271734;-0.7075551;4.105668;-0.1048057;-0.3831362;3.65657;-0.87348;0.7818598;4.910303;0.04088452;1.072329;4.768652;0.09271625;1.603579;3.966397;0.1420863;1.29372;3.71318;-0.7167826;0.2081967;2.781668;-0.04861073;0.1786557;1.323688;-0.1681084;0;0;0;0.2081967;2.781668;-0.04861073;0.1786557;1.323688;-0.1681084;0;0;0
495580.2238;NotLabelled;NONE;16384;0.6642238;-0.1883656;0.6592798;0.2977839;-80;-48;50;-310;2850;2635;65536;0.9353133;-0.2146814;-0.006925208;0.2811634;87;58;-89;-4293;2672;-3506;8192;0.7084823;-0.3393352;-0.5526316;-0.2783934;-119;54;-70;170;3659;2705;32768;0.896444;-0.2022161;0.2451524;-0.3088643;63;-137;63;3380;1541;-2728;256;0.09141274;-0.09141274;-0.66759;-0.7332196;17;17;1;-261;3942;-495;128;0;0.08310249;0.5955678;0.798995;-5;12;4;-307;3927;1232;4;-0.5138504;0.4570637;-0.5041551;-0.5223774;2;13;0;51;4136;266;16;0.6440443;-0.7622122;-0.001385042;-0.06509695;-7;15;0;511;4056;716;2;0.5732299;-0.5166205;-0.433518;-0.4653739;-2;14;1;-439;4050;3;8;0.6509695;-0.7456092;0.03878116;0.1371191;0;6;0;-469;4015;591;0.5211534;2.822683;-0.04478952;0.5271357;3.367856;-0.02550384;0.5323951;3.847134;-0.01057324;0.5242562;4.578294;0.05107842;0.2619241;4.90359;0.040479;-0.07774562;4.754767;0.09161863;-0.7217215;4.122108;-0.116631;-0.3929047;3.691181;-0.8937911;0.7822357;4.909386;0.04047817;1.072752;4.767579;0.09161744;1.633911;3.984779;0.1161075;1.315588;3.757319;-0.7468641;0.2089021;2.780902;-0.0540482;0.1790321;1.322931;-0.1735719;0;0;0;0.2089021;2.780902;-0.0540482;0.1790321;1.322931;-0.1735719;0;0;0
495600.0195;NotLabelled;NONE;16384;0.6683568;-0.1731302;0.6592798;0.2977839;-77;-69;52;182;2762;2825;65536;0.9407308;-0.1966759;-0.01939058;0.2756233;95;53;-99;-3443;2486;-3480;8192;0.7185991;-0.3185596;-0.5526316;-0.2770083;-121;56;-68;-206;3419;2947;32768;0.9028251;-0.1855956;0.2534626;-0.2936288;64;-149;60;3004;1423;-3126;256;0.0900277;-0.0900277;-0.666205;-0.7348203;17;9;3;-303;3992;-469;128;0.001385042;0.08171745;0.5955678;0.7991366;-7;12;3;-337;3939;1272;4;-0.5152354;0.4584487;-0.5041551;-0.5197931;1;9;-1;107;4092;216;16;0.6440443;-0.7622084;-0.002770083;-0.06509695;-7;11;0;397;4040;778;2;0.5711681;-0.5152354;-0.434903;-0.468144;-1;8;1;-577;4048;-19;8;0.6509695;-0.7459333;0.03739612;0.1357341;-1;4;0;-417;4035;577;0.5246568;2.821676;-0.04806802;0.5306383;3.36678;-0.02692258;0.5358971;3.846005;-0.01035705;0.5271305;4.576644;0.05710945;0.2645155;4.901786;0.04912116;-0.07502031;4.752266;0.09910534;-0.744344;4.156187;-0.1354685;-0.4016213;3.779297;-0.9344;0.784822;4.908032;0.0491204;1.075466;4.766075;0.09910434;1.665025;4.004042;0.09879547;1.341721;3.803931;-0.7690865;0.2124057;2.779927;-0.05748075;0.1826521;1.321964;-0.1771338;0;0;0;0.2124057;2.779927;-0.05748075;0.1826521;1.321964;-0.1771338;0;0;0
495621.0311;NotLabelled;NONE;16384;0.6721491;-0.1551246;0.6592798;0.299169;-76;-71;56;672;2696;2951;65536;0.9447821;-0.1786704;-0.03185596;0.2728532;102;41;-106;-3463;2386;-3490;8192;0.7366455;-0.2783934;-0.5526316;-0.2728532;-120;39;-64;-438;3397;3057;32768;0.9158194;-0.1481994;0.2700831;-0.2576177;76;-161;44;2660;1317;-4016;256;0.08725762;-0.0900277;-0.6620498;-0.7388986;18;2;5;-285;4058;-645;128;0.004155125;0.07894737;0.5941828;0.8004354;-4;9;1;-295;3957;1338;4;-0.5152354;0.4598338;-0.5041551;-0.5185682;0;5;-2;131;4076;156;16;0.6426592;-0.7632572;-0.002770083;-0.06648199;-6;7;-1;403;3998;856;2;0.5711681;-0.5152354;-0.434903;-0.468144;-1;1;2;-613;4060;47;8;0.6509695;-0.7459333;0.03739612;0.1357341;-1;1;0;-435;3981;603;0.5263215;2.82204;-0.05225143;0.532303;3.367144;-0.03109878;0.5375618;3.846368;-0.01452681;0.5285386;4.576714;0.05602002;0.2658077;4.901793;0.04941593;-0.07367223;4.751943;0.09878649;-0.7543934;4.173279;-0.146358;-0.4011719;3.83272;-0.9569448;0.7861119;4.908224;0.04941511;1.076809;4.766162;0.09878546;1.69513;4.027617;0.07628703;1.367458;3.851043;-0.7950574;0.2140705;2.780292;-0.06166491;0.1796225;1.3222;-0.178464;0;0;0;0.2140705;2.780292;-0.06166491;0.1796225;1.3222;-0.178464;0;0;0
495641.1467;NotLabelled;NONE;16384;0.6771182;-0.1385041;0.6578947;0.299169;-76;-64;57;1056;2590;3237;65536;0.9487019;-0.1578947;-0.04570637;0.2700831;107;45;-113;-3865;2290;-3646;8192;0.7462213;-0.2590028;-0.5512465;-0.2686981;-120;34;-63;-234;3427;2943;32768;0.9223815;-0.1288089;0.2742382;-0.2396122;86;-152;35;2396;1323;-4340;256;0.08725762;-0.0900277;-0.6592798;-0.7413712;22;-3;4;-249;4118;-675;128;0.004155125;0.07894737;0.5927978;0.8014617;-3;4;0;-257;4009;1260;4;-0.5152354;0.4612188;-0.5041551;-0.5173367;1;4;-2;101;3996;210;16;0.6412742;-0.764415;-0.004155125;-0.06648199;-5;5;-1;329;3988;842;2;0.5712789;-0.5138504;-0.434903;-0.4695291;-1;-2;2;-613;4026;51;8;0.6509695;-0.7459333;0.03739612;0.1357341;-1;-2;-1;-519;4047;587;0.5305814;2.82127;-0.06004742;0.5365621;3.366298;-0.03700769;0.54182;3.845462;-0.01877671;0.5347132;4.574923;0.06058881;0.2728314;4.900743;0.05795127;-0.06703302;4.751194;0.1055586;-0.7596741;4.192036;-0.1511879;-0.3949165;3.888546;-0.9713356;0.7931506;4.905817;0.05795068;1.083482;4.76241;0.105558;1.754935;4.073974;0.04653907;1.421698;3.948551;-0.8315325;0.2183307;2.779555;-0.06961721;0.1829569;1.321183;-0.1825644;0;0;0;0.2183307;2.779555;-0.06961721;0.1829569;1.321183;-0.1825644;0;0;0
495662.0117;NotLabelled;NONE;16384;0.6816431;-0.1218837;0.6565097;0.299169;-76;-58;58;1248;2654;3421;65536;0.9527163;-0.1371191;-0.05955679;0.2645429;115;74;-121;-4307;2256;-3584;8192;0.7542248;-0.2409972;-0.5498615;-0.265928;-118;43;-62;-124;3303;3027;32768;0.9276212;-0.1080332;0.2783934;-0.2243767;94;-140;28;2356;1273;-4634;256;0.08725762;-0.09141274;-0.6565097;-0.7436564;22;-1;2;-205;4140;-673;128;0.004155125;0.07894737;0.5927978;0.8014617;0;0;-1;-315;4035;1232;4;-0.5138504;0.4626039;-0.5041551;-0.5174776;1;3;-1;59;4144;138;16;0.6398892;-0.7654445;-0.005540166;-0.06786703;-3;8;-1;279;4012;856;2;0.5724145;-0.5138504;-0.434903;-0.468144;-1;-4;2;-575;4136;53;8;0.6509695;-0.7459333;0.03739612;0.1357341;-1;-2;-1;-571;4049;567;0.5301592;2.82091;-0.0688175;0.536139;3.365854;-0.04389539;0.5413963;3.844952;-0.0240095;0.5336235;4.573802;0.06072977;0.2714385;4.899389;0.06053143;-0.06827939;4.749177;0.1070855;-0.7710508;4.209264;-0.1629813;-0.3904568;3.94872;-0.9906658;0.7917528;4.904946;0.06049192;1.082224;4.761463;0.1069987;1.779319;4.100535;0.03277045;1.45059;3.999835;-0.8501698;0.2179089;2.779227;-0.07854304;0.1820206;1.320584;-0.1877618;0;0;0;0.2179089;2.779227;-0.07854304;0.1820206;1.320584;-0.1877618;0;0;0
495702.0023;NotLabelled;NONE;16384;0.6950025;-0.07202215;0.6523545;0.2936288;-89;-44;57;1346;2348;3563;65536;0.9638317;-0.06786703;-0.09833795;0.2382271;130;81;-96;-2279;1516;-4136;8192;0.7678466;-0.200831;-0.5484765;-0.2631579;-117;68;-56;-336;2985;3283;32768;0.9381477;-0.06509695;0.2783934;-0.1952908;107;-131;12;2066;1133;-4244;256;0.08725762;-0.09279778;-0.6509695;-0.7483404;18;0;0;-85;4250;-583;128;0.004155125;0.07894737;0.5927978;0.8014617;4;-2;-3;-307;4107;1210;4;-0.5138504;0.4626039;-0.5041551;-0.5174776;0;-1;-3;115;4104;182;16;0.6385041;-0.7665889;-0.006925208;-0.06786703;-1;3;-1;389;3930;870;2;0.5711681;-0.5152354;-0.434903;-0.468144;0;-5;3;-351;4008;129;8;0.6495845;-0.7468868;0.03739612;0.1371191;-3;-3;-1;-453;4013;521;0.528789;2.820522;-0.07703704;0.5347688;3.365467;-0.05211493;0.540026;3.844565;-0.0322291;0.5329244;4.57278;0.05785814;0.2710395;4.8986;0.06005061;-0.06881686;4.748364;0.1055018;-0.7806882;4.229977;-0.1823233;-0.3832601;4.012204;-1.014443;0.7913588;4.903678;0.06005031;1.081698;4.75959;0.1055017;1.800699;4.124648;0.01516914;1.477541;4.053038;-0.8726531;0.2165386;2.77884;-0.08676261;0.1841375;1.319775;-0.1913474;0;0;0;0.2165386;2.77884;-0.08676261;0.1841375;1.319775;-0.1913474;0;0;0
495723.0079;NotLabelled;NONE;16384;0.7008392;-0.05540166;0.6495845;0.2894737;-90;-45;60;1458;2220;3673;65536;0.9668969;-0.04293629;-0.1080332;0.2271468;134;97;-84;-2285;1284;-4016;8192;0.7779965;-0.1592798;-0.5484765;-0.2617728;-118;61;-53;-926;2649;3479;32768;0.9463716;-0.02493075;0.2742382;-0.1689751;104;-118;1;1948;493;-3742;256;0.08725762;-0.09418282;-0.6468144;-0.7517624;17;0;0;-73;4236;-777;128;0.004155125;0.08033241;0.5955678;0.7992674;12;0;-2;-457;4069;1244;4;-0.5124654;0.4626039;-0.5055401;-0.5174999;0;-3;-3;225;4022;104;16;0.6385041;-0.7665752;-0.008310249;-0.06786703;-1;0;-2;337;3998;774;2;0.5723005;-0.5152354;-0.434903;-0.466759;0;-6;3;-397;4100;135;8;0.6495845;-0.7468868;0.03739612;0.1371191;-4;-3;0;-561;4017;579;0.5280864;2.819888;-0.08175379;0.5340662;3.364833;-0.05683166;0.5393233;3.843931;-0.03694579;0.5322157;4.570751;0.06377287;0.2703226;4.896498;0.0707632;-0.06952334;4.745604;0.1140628;-0.81178;4.297385;-0.2122547;-0.3759181;4.217747;-1.049798;0.7906417;4.90159;0.07076266;1.080991;4.756861;0.1140624;1.842693;4.178462;-0.002297163;1.540659;4.165687;-0.9002953;0.2158361;2.778206;-0.09147932;0.1836472;1.319141;-0.1961297;0;0;0;0.2158361;2.778206;-0.09147932;0.1836472;1.319141;-0.1961297;0;0;0
495743.0038;NotLabelled;NONE;16384;0.7043682;-0.03878116;0.6481994;0.2867036;-94;-48;63;1582;2170;3737;65536;0.969536;-0.01939058;-0.1163435;0.2146814;135;103;-72;-1767;998;-3908;8192;0.7828842;-0.1385041;-0.5484765;-0.2590028;-119;48;-50;-1202;2541;3527;32768;0.9497771;-0.006925208;0.2700831;-0.1578947;98;-108;0;1928;371;-3922;256;0.08725762;-0.09418282;-0.6454294;-0.7529519;16;0;0;-123;4200;-837;128;0.004155125;0.08033241;0.5969529;0.7982335;15;-2;-2;-423;4053;1162;4;-0.5124654;0.4626039;-0.5055401;-0.5174999;0;-4;-3;259;4098;94;16;0.6385041;-0.7665752;-0.008310249;-0.06786703;0;0;-2;297;3982;774;2;0.5710505;-0.5166205;-0.434903;-0.466759;0;-6;1;-371;4154;141;8;0.6481994;-0.747834;0.03739612;0.1385041;-4;-4;0;-575;4033;535;0.527015;2.820438;-0.08618256;0.5329966;3.365541;-0.06500021;0.5382552;3.844764;-0.04840219;0.5314661;4.570447;0.06023028;0.2697118;4.896209;0.07079742;-0.07019356;4.744997;0.112487;-0.8215928;4.32408;-0.2289191;-0.3776653;4.291839;-1.065391;0.7900329;4.901081;0.07079652;1.080325;4.755765;0.1124857;1.880978;4.23702;-0.0221746;1.602238;4.280056;-0.9267399;0.214764;2.778691;-0.09559841;0.1817454;1.319371;-0.1963581;0;0;0;0.214764;2.778691;-0.09559841;0.1817454;1.319371;-0.1963581;0;0;0
495763.0095;NotLabelled;NONE;16384;0.7093347;-0.02077562;0.6454294;0.2825485;-96;-46;64;1658;2094;3703;65536;0.9718986;0.001385042;-0.1204986;0.2022161;132;91;-56;-1163;612;-3562;8192;0.787939;-0.1191136;-0.5470914;-0.2562327;-118;29;-50;-1324;2347;3405;32768;0.9524968;0.008310249;0.265928;-0.1481994;93;-91;1;1986;47;-3766;256;0.08725762;-0.09418282;-0.6426592;-0.7553177;14;-3;0;-15;4126;-799;128;0.002770083;0.08171745;0.599723;0.7960194;16;-3;-3;-415;4037;1194;4;-0.5124654;0.4639889;-0.5055401;-0.5162584;0;0;-3;297;4084;42;16;0.6385041;-0.7665752;-0.008310249;-0.06786703;-1;0;-1;347;3982;702;2;0.5721799;-0.5166205;-0.434903;-0.4653739;0;-6;0;-311;4154;243;8;0.6481994;-0.747834;0.03739612;0.1385041;-5;-4;0;-585;4007;561;0.5270206;2.820471;-0.08632702;0.533003;3.365644;-0.06703299;0.5382622;3.844922;-0.05209509;0.5311289;4.570204;0.05916417;0.2692216;4.895802;0.07090069;-0.07061443;4.744281;0.1120292;-0.8315605;4.349974;-0.2398404;-0.3827348;4.361607;-1.074236;0.7895405;4.900918;0.07093769;1.079899;4.755589;0.1121116;1.899573;4.270025;-0.03155118;1.633489;4.338308;-0.9383721;0.2147693;2.778691;-0.0955864;0.1817562;1.319371;-0.1963479;0;0;0;0.2147693;2.778691;-0.0955864;0.1817562;1.319371;-0.1963479;0;0;0
495784.0308;NotLabelled;NONE;16384;0.7182626;0.01385042;0.6398892;0.2728532;-100;-42;65;1844;1868;3753;65536;0.9742839;0.04432133;-0.1260388;0.1814404;119;84;-27;-1517;-34;-3416;8192;0.7934391;-0.1024931;-0.5457063;-0.2493075;-119;18;-50;-1234;2287;3323;32768;0.9549909;0.02493075;0.2603878;-0.1398892;98;-96;0;2046;63;-3932;256;0.08725762;-0.09556787;-0.6412742;-0.7563202;11;1;1;-91;4214;-743;128;0.002770083;0.08171745;0.602493;0.7939249;21;0;-3;-525;4125;1146;4;-0.5110803;0.4639889;-0.5055401;-0.5176296;0;0;-2;409;4066;104;16;0.6385041;-0.7665752;-0.008310249;-0.06786703;-1;0;-2;239;4018;752;2;0.5721799;-0.5166205;-0.434903;-0.4653739;-1;-6;0;-305;4168;275;8;0.6468144;-0.7487043;0.03878116;0.1398892;-5;-5;0;-601;4079;657;0.5275685;2.820775;-0.0904009;0.5335521;3.366068;-0.07488999;0.5388123;3.845438;-0.06327784;0.5310179;4.56989;0.05322;0.2688083;4.895151;0.06734618;-0.07087983;4.743018;0.1074272;-0.8414232;4.377236;-0.25423;-0.3932202;4.42589;-1.087623;0.7891221;4.900752;0.06734592;1.079623;4.755401;0.1074273;1.915661;4.300976;-0.04360867;1.660713;4.390594;-0.9517703;0.2153165;2.778932;-0.09934643;0.1817351;1.319371;-0.1963675;0;0;0;0.2153165;2.778932;-0.09934643;0.1817351;1.319371;-0.1963675;0;0;0
495825.9895;NotLabelled;NONE;16384;0.7279589;0.04847645;0.632964;0.2590028;-106;-19;70;1988;1544;3453;65536;0.9758657;0.08171745;-0.1232687;0.1606648;116;91;-5;-1703;-378;-3566;8192;0.8083115;-0.05124654;-0.5401662;-0.2285319;-116;12;-50;-1274;1743;3217;32768;0.9604791;0.08033241;0.2423823;-0.1108033;109;-104;-6;1288;-635;-3634;256;0.08587258;-0.09695291;-0.6385041;-0.7586426;6;4;3;79;4266;-743;128;0.004155125;0.08310249;0.6080332;0.7895393;26;4;-3;-527;4199;984;4;-0.5110803;0.4639889;-0.5055401;-0.5176296;0;3;-1;331;4040;56;16;0.6371191;-0.7677104;-0.009695291;-0.06786703;-2;3;-1;219;3988;698;2;0.5721799;-0.5166205;-0.434903;-0.4653739;-1;-1;-1;-193;4082;235;8;0.6454294;-0.7498986;0.03878116;0.1398892;-5;-1;0;-461;3987;719;0.523998;2.820983;-0.09126499;0.5299827;3.366372;-0.07954934;0.5352436;3.845811;-0.07127357;0.5284244;4.569849;0.04783258;0.2666516;4.895407;0.06314011;-0.07323895;4.743586;0.1026863;-0.8599689;4.437928;-0.2793584;-0.415431;4.563023;-1.106724;0.7869725;4.900311;0.0631398;1.077279;4.754427;0.1026862;1.929162;4.332052;-0.05277872;1.689887;4.446132;-0.9624602;0.2117454;2.779079;-0.09989528;0.1821487;1.31937;-0.1959839;0;0;0;0.2117454;2.779079;-0.09989528;0.1821487;1.31937;-0.1959839;0;0;0
495868.0107;NotLabelled;NONE;16384;0.7332759;0.06371191;0.6288089;0.2506925;-103;-11;69;1882;1178;3199;65536;0.9762558;0.09972299;-0.1191136;0.1509695;114;88;3;-1531;-368;-3344;8192;0.8125768;-0.03462604;-0.5373961;-0.2229917;-114;15;-53;-1438;1535;3119;32768;0.9613066;0.09972299;0.2354571;-0.1024931;112;-78;-8;982;-575;-3690;256;0.08310249;-0.09695291;-0.6385041;-0.758951;1;10;4;53;4202;-853;128;0.005540166;0.08310249;0.6149584;0.7841489;27;5;-3;-511;4213;1016;4;-0.5124654;0.4639889;-0.5055401;-0.5162584;0;2;0;269;4066;56;16;0.6371191;-0.7677104;-0.009695291;-0.06786703;-3;5;0;287;4010;738;2;0.5734273;-0.5152354;-0.434903;-0.4653739;-1;0;-1;-159;4032;157;8;0.6440443;-0.7510886;0.03878116;0.1398892;-5;0;0;-483;4111;715;0.5231846;2.820441;-0.09697968;0.5291705;3.365939;-0.09283629;0.5344322;3.845447;-0.09121695;0.5297444;4.568566;0.03344099;0.2689292;4.894765;0.05126472;-0.0714035;4.743643;0.08966967;-0.8726868;4.504673;-0.3092881;-0.4437658;4.693254;-1.132854;0.7892622;4.898141;0.05126426;1.079142;4.751108;0.08966926;1.970888;4.429732;-0.0829016;1.772427;4.626782;-0.9882038;0.2109306;2.778421;-0.1049799;0.1813626;1.318712;-0.2010768;0;0;0;0.2109306;2.778421;-0.1049799;0.1813626;1.318712;-0.2010768;0;0;0
495889.0117;NotLabelled;NONE;16384;0.7459191;0.1080332;0.6177285;0.2243767;-99;-20;60;1456;518;3185;65536;0.9747367;0.1509695;-0.1024931;0.1288089;117;56;17;-1789;-562;-3350;8192;0.8207876;-0.001385042;-0.5304709;-0.2119114;-102;38;-55;-1176;1149;3307;32768;0.9609773;0.1371191;0.2216066;-0.09279778;123;-56;-11;1166;-663;-3812;256;0.08033241;-0.09556787;-0.6385041;-0.7594247;-1;10;5;-19;4110;-829;128;0.008310249;0.08171745;0.6218836;0.7787901;20;12;-3;-391;3947;1032;4;-0.5110803;0.4653739;-0.5055401;-0.5163847;0;0;0;149;4058;50;16;0.6357341;-0.7688178;-0.01246537;-0.06786703;-3;4;0;237;4020;776;2;0.5723742;-0.5152354;-0.4362881;-0.4653739;0;4;-1;-123;4172;197;8;0.6426592;-0.752274;0.03878116;0.1398892;-4;1;0;-597;3991;785;0.5265899;2.820426;-0.09754542;0.5325755;3.365913;-0.1029765;0.5378368;3.845376;-0.109773;0.5361516;4.56839;0.01556988;0.276693;4.895652;0.03370417;-0.06426416;4.745908;0.07196792;-0.8721279;4.539788;-0.3320122;-0.4581398;4.758288;-1.155825;0.7970356;4.896868;0.03370386;1.086302;4.748595;0.0719679;1.987193;4.459738;-0.1103268;1.799643;4.687078;-1.010842;0.2143343;2.778274;-0.1047469;0.1806371;1.318713;-0.2017279;0;0;0;0.2143343;2.778274;-0.1047469;0.1806371;1.318713;-0.2017279;0;0;0
495910.021;NotLabelled;NONE;16384;0.7494317;0.1232687;0.6135734;0.2160665;-100;-29;61;1662;380;3245;65536;0.9731265;0.16759;-0.09695291;0.1246537;119;55;17;-1753;-594;-3460;8192;0.8227869;0.01523546;-0.5277008;-0.2105263;-99;44;-53;-1360;913;3477;32768;0.9601585;0.1565097;0.2132964;-0.0900277;123;-54;-13;982;-749;-3614;256;0.07894737;-0.09556787;-0.6385041;-0.75957;-3;11;5;-27;4052;-739;128;0.009695291;0.08033241;0.6232687;0.7778103;18;11;-2;-543;4157;898;4;-0.5110803;0.4653739;-0.5055401;-0.5163847;0;1;0;259;4078;120;16;0.6357341;-0.7686943;-0.01246537;-0.06925207;-4;3;0;255;4038;762;2;0.5725619;-0.5138504;-0.4376731;-0.4653739;-2;6;-2;-185;4152;275;8;0.6426592;-0.7523441;0.03739612;0.1398892;-3;4;1;-555;4027;783;0.5195773;2.820464;-0.1099732;0.5255611;3.365769;-0.1250702;0.5308203;3.845036;-0.1403624;0.5308169;4.567936;-0.01435545;0.2721277;4.895793;0.004029617;-0.06918918;4.746819;0.04209011;-0.8928797;4.64607;-0.3698719;-0.525903;4.949888;-1.188908;0.7924715;4.895781;0.004130572;1.08138;4.746791;0.04231399;1.996033;4.527773;-0.1667666;1.831487;4.816394;-1.054128;0.2073206;2.77819;-0.116366;0.1763317;1.318251;-0.2084402;0;0;0;0.2073206;2.77819;-0.116366;0.1763317;1.318251;-0.2084402;0;0;0
495931.0685;NotLabelled;NONE;16384;0.7514779;0.1398892;0.6094183;0.2105263;-100;-34;60;1722;328;3273;65536;0.9710455;0.1855956;-0.0900277;0.1204986;123;48;17;-1543;-592;-3228;8192;0.8288499;0.04847645;-0.5193906;-0.2022161;-98;27;-49;-1742;685;3503;32768;0.9575036;0.1939058;0.1966759;-0.08310249;125;-46;-19;392;-845;-3610;256;0.07756232;-0.09556787;-0.6385041;-0.7597127;0;7;4;-1;4096;-861;128;0.01108033;0.07894737;0.6260388;0.7757061;17;8;-2;-471;4133;1006;4;-0.5110803;0.4653739;-0.5055401;-0.5163847;1;2;0;227;4104;78;16;0.634349;-0.7698377;-0.01246537;-0.06925207;-4;2;0;233;3982;808;2;0.5716146;-0.5124654;-0.4390582;-0.466759;-2;11;-1;-315;4112;83;8;0.6412742;-0.7538483;0.03601108;0.1385041;-2;4;0;-571;4057;767;0.5219765;2.820321;-0.1093552;0.5279597;3.365569;-0.1264148;0.5332182;3.844777;-0.1434319;0.5347434;4.567619;-0.01710099;0.2767407;4.896005;0.001481593;-0.06487812;4.747725;0.03954203;-0.8890881;4.672647;-0.3768351;-0.5385557;5.004539;-1.19217;0.7970834;4.894911;0.001480788;1.085689;4.745302;0.03954092;2.006685;4.551566;-0.1666322;1.856902;4.872677;-1.045405;0.2097196;2.778025;-0.1155833;0.1785472;1.318086;-0.2075956;0;0;0;0.2097196;2.778025;-0.1155833;0.1785472;1.318086;-0.2075956;0;0;0
495951.3325;NotLabelled;NONE;16384;0.7538368;0.1565097;0.6052631;0.2022161;-100;-23;56;1754;132;3027;65536;0.968146;0.2049861;-0.08448754;0.1163435;127;37;16;-1231;-566;-3012;8192;0.8304442;0.06509695;-0.5166205;-0.1980609;-99;17;-48;-1586;423;3339;32768;0.9548935;0.2132964;0.1897507;-0.08171745;123;-32;-22;434;-977;-3030;256;0.07479224;-0.09418282;-0.6398892;-0.7589977;-8;8;2;-79;4224;-885;128;0.01246537;0.07756232;0.6301939;0.7724534;20;6;0;-417;4255;982;4;-0.5110803;0.4653739;-0.5055401;-0.5163847;0;2;0;153;4110;168;16;0.634349;-0.7698141;-0.01385042;-0.06925207;-3;1;0;259;4004;822;2;0.5706556;-0.5110803;-0.4404432;-0.468144;-3;9;-1;-339;4092;179;8;0.6412742;-0.7538483;0.03601108;0.1385041;-1;4;0;-563;4097;817;0.5231777;2.819451;-0.1145893;0.5291593;3.364562;-0.135565;0.5344163;3.843636;-0.1560238;0.537446;4.566418;-0.02937382;0.2801274;4.895331;-0.01064666;-0.06179949;4.747746;0.02734782;-0.8881624;4.704198;-0.3892541;-0.556873;5.066219;-1.1998;0.8004669;4.893154;-0.01064715;1.08876;4.742929;0.02734736;2.018148;4.614114;-0.1915582;1.897882;4.996878;-1.049938;0.2109202;2.777112;-0.120489;0.1795831;1.317173;-0.2124452;0;0;0;0.2109202;2.777112;-0.120489;0.1795831;1.317173;-0.2124452;0;0;0
495972.0961;NotLabelled;NONE;16384;0.7563379;0.1703601;0.601108;0.1939058;-93;-19;52;1660;-198;2819;65536;0.9646364;0.2243767;-0.07894737;0.1135734;132;26;13;-1263;-454;-2936;8192;0.8334349;0.07894737;-0.5124654;-0.1911357;-93;17;-45;-1308;211;3347;32768;0.952094;0.232687;0.1814404;-0.08033241;121;-28;-23;602;-831;-2928;256;0.0734072;-0.09418282;-0.6412742;-0.7579633;-9;10;2;27;4136;-895;128;0.01246537;0.07756232;0.632964;0.7701852;18;6;0;-437;4193;1022;4;-0.5110803;0.4653739;-0.5055401;-0.5163847;0;1;0;129;4122;160;16;0.634349;-0.7698141;-0.01385042;-0.06925207;-2;1;0;209;4020;900;2;0.5718931;-0.5096953;-0.4404432;-0.468144;-3;7;0;-305;4138;135;8;0.6412742;-0.7538483;0.03601108;0.1385041;0;6;0;-513;4013;859;0.5201827;2.81973;-0.1168575;0.5261615;3.364582;-0.1437184;0.5314158;3.843408;-0.1693493;0.5364776;4.566522;-0.04467666;0.280084;4.896207;-0.02684639;-0.06225525;4.749686;0.01155531;-0.8918626;4.740908;-0.4007599;-0.5812985;5.135554;-1.204253;0.8004151;4.892567;-0.02684653;1.088286;4.741638;0.01155558;2.020001;4.644773;-0.2138331;1.90799;5.060079;-1.058086;0.2079246;2.777329;-0.1222627;0.1760604;1.317391;-0.2140376;0;0;0;0.2079246;2.777329;-0.1222627;0.1760604;1.317391;-0.2140376;0;0;0
496013.01;NotLabelled;NONE;16384;0.7585149;0.1966759;0.5941828;0.1814404;-80;-25;45;1376;-632;2875;65536;0.955762;0.2631579;-0.07063711;0.1108033;133;24;6;-1115;-970;-2458;8192;0.834493;0.09418282;-0.5096953;-0.1869806;-96;26;-41;-1056;127;3615;32768;0.9490658;0.2506925;0.1731302;-0.08033241;120;-30;-22;498;-995;-2960;256;0.0734072;-0.09279778;-0.6412742;-0.7581341;-8;8;1;-55;4002;-629;128;0.01385042;0.07756232;0.634349;0.7690212;13;2;-1;-435;4027;776;4;-0.5110803;0.466759;-0.5055401;-0.5151331;-2;2;-3;135;4102;156;16;0.632964;-0.7709532;-0.01385042;-0.06925207;-1;1;0;277;3970;860;2;0.569685;-0.5096953;-0.4418283;-0.4695291;-3;7;1;-285;4112;203;8;0.6412742;-0.7541663;0.03462604;0.1371191;0;7;0;-489;3995;785;0.5199613;2.819767;-0.1175631;0.5259377;3.364413;-0.1483394;0.5311899;3.843042;-0.1774113;0.5380743;4.566534;-0.05503905;0.2825112;4.896918;-0.03825159;-0.06019431;4.751381;0.000623608;-0.8898944;4.773551;-0.4110022;-0.5975121;5.200647;-1.204664;0.8028316;4.89197;-0.03825182;1.090323;4.740439;0.000623703;2.023319;4.674608;-0.2305925;1.92515;5.122006;-1.060042;0.2077027;2.777329;-0.1226388;0.1756724;1.31739;-0.214356;0;0;0;0.2077027;2.777329;-0.1226388;0.1756724;1.31739;-0.214356;0;0;0
496034.1825;NotLabelled;NONE;16384;0.7593452;0.2105263;0.5900277;0.1759003;-76;-33;40;1538;-672;2809;65536;0.9503182;0.2839335;-0.06786703;0.1080332;131;17;-1;-1157;-924;-2132;8192;0.8353615;0.1108033;-0.5069252;-0.1814404;-99;36;-40;-1156;-13;3455;32768;0.9457288;0.2686981;0.1648199;-0.07894737;115;-22;-19;772;-1353;-2750;256;0.07202215;-0.09279778;-0.6426592;-0.7570935;-9;9;0;-37;3944;-619;128;0.01385042;0.07756232;0.6357341;0.7678766;16;0;-1;-443;3897;878;4;0.5151331;-0.466759;0.5055401;0.5110803;-1;2;-3;203;4002;158;16;0.632964;-0.7709532;-0.01385042;-0.06925207;-1;0;0;249;3934;926;2;0.5698466;-0.5083103;-0.4432133;-0.4695291;-3;6;2;-353;4112;145;8;0.6412742;-0.7541663;0.03462604;0.1371191;0;6;0;-449;3995;685;0.5215808;2.819076;-0.126466;0.5275561;3.363607;-0.1592169;0.532807;3.842127;-0.1900239;0.538388;4.56563;-0.06765354;0.2822302;4.895553;-0.05086677;-0.06021265;4.749399;-0.01199092;-0.8890935;4.82546;-0.4188089;-0.6289577;5.316867;-1.186042;0.8025587;4.891542;-0.05086732;1.090322;4.74053;-0.01199168;2.024424;4.704458;-0.2452934;1.94013;5.18164;-1.059529;0.209322;2.77662;-0.1313754;0.1765815;1.316461;-0.2192616;0;0;0;0.209322;2.77662;-0.1313754;0.1765815;1.316461;-0.2192616;0;0;0
496054.9935;NotLabelled;NONE;16384;0.7596407;0.2229917;0.5858725;0.1731302;-72;-39;35;1662;-720;2815;65536;0.9445029;0.3033241;-0.06509695;0.1080332;133;12;-12;-1133;-882;-2126;8192;0.8345149;0.1426593;-0.5027701;-0.1745152;-96;33;-30;-1398;-275;3283;32768;0.9387629;0.300554;0.1495845;-0.07756232;103;-30;-17;256;-1459;-1992;256;0.07063711;-0.09141274;-0.6440443;-0.756215;-3;8;0;-15;3818;-743;128;0.01385042;0.07756232;0.6371191;0.7667278;15;1;0;-391;3833;742;4;0.5151331;-0.466759;0.5055401;0.5110803;0;3;-4;271;4020;106;16;0.632964;-0.7709532;-0.01385042;-0.06925207;0;0;0;227;3972;884;2;0.5687667;-0.5083103;-0.4445983;-0.4695291;-3;4;2;-417;4084;133;8;0.6412742;-0.7544791;0.033241;0.1357341;0;3;0;-507;4023;711;0.5325555;2.818634;-0.1243234;0.5385295;3.363042;-0.1590391;0.5437791;3.841448;-0.191573;0.5511779;4.565322;-0.07151416;0.2958485;4.895939;-0.05577505;-0.04695832;4.750769;-0.01642438;-0.8745251;4.854078;-0.4198968;-0.6289854;5.379246;-1.169366;0.8161653;4.890624;-0.05577534;1.103551;4.739015;-0.01642442;2.038254;4.736267;-0.250085;1.967121;5.242436;-1.047908;0.2202966;2.77616;-0.1290672;0.1761832;1.316461;-0.2195817;0;0;0;0.2202966;2.77616;-0.1290672;0.1761832;1.316461;-0.2195817;0;0;0
496075.137;NotLabelled;NONE;16384;0.7589459;0.2354571;0.5831025;0.1689751;-69;-37;33;1562;-934;2651;65536;0.9382131;0.3227147;-0.06509695;0.1066482;129;4;-16;-513;-1452;-1758;8192;0.8340101;0.1578947;-0.5;-0.1717452;-94;29;-28;-1502;-417;3257;32768;0.9349451;0.3157895;0.1426593;-0.07617728;95;-19;-19;-150;-1701;-2226;256;0.07063711;-0.09141274;-0.6440443;-0.756215;-3;8;0;-5;3820;-663;128;0.01385042;0.07617728;0.6398892;0.7645568;16;4;-1;-395;3881;736;4;0.5138747;-0.468144;0.5055401;0.5110803;0;5;-3;241;4152;134;16;0.632964;-0.7709532;-0.01385042;-0.06925207;0;2;0;285;4046;896;2;0.5689184;-0.5069252;-0.4459834;-0.4695291;-1;1;2;-461;4116;199;8;0.6426592;-0.7532997;0.033241;0.1357341;0;5;0;-521;3945;669;0.5320445;2.818651;-0.1253578;0.538017;3.36293;-0.1620406;0.5432654;3.841216;-0.196303;0.551171;4.565466;-0.07856888;0.2960718;4.896308;-0.06388299;-0.04683436;4.751504;-0.02405553;-0.8752289;4.878278;-0.4190492;-0.6468543;5.43446;-1.151377;0.8163848;4.890632;-0.06388295;1.103667;4.738951;-0.02405483;2.036715;4.796259;-0.2573154;1.989008;5.352883;-1.022614;0.2197855;2.77616;-0.1299357;0.1753152;1.316461;-0.2202754;0;0;0;0.2197855;2.77616;-0.1299357;0.1753152;1.316461;-0.2202754;0;0;0
496096.1503;NotLabelled;NONE;16384;0.757405;0.2479224;0.5803324;0.16759;-63;-40;30;1630;-1082;2617;65536;0.9315679;0.3407202;-0.06648199;0.1080332;121;-12;-16;-223;-1978;-1444;8192;0.8332242;0.1717452;-0.4986149;-0.166205;-89;22;-23;-1502;-589;2999;32768;0.9311879;0.3296399;0.1357341;-0.07617728;92;-16;-21;-302;-1875;-2348;256;0.06925207;-0.08864266;-0.6454294;-0.7554916;-4;7;-2;61;3896;-607;128;0.01385042;0.07617728;0.6440443;0.7610599;20;0;0;-481;3911;686;4;0.5152485;-0.468144;0.5055401;0.5096953;0;4;-2;125;4118;176;16;0.632964;-0.7709532;-0.01385042;-0.06925207;0;0;0;285;3972;840;2;0.5689184;-0.5069252;-0.4459834;-0.4695291;0;1;2;-419;4026;177;8;0.6426592;-0.7533595;0.03185596;0.1357341;0;1;0;-459;4013;611;0.5290854;2.819047;-0.1302823;0.5350548;3.363045;-0.170929;0.5403003;3.841067;-0.2086745;0.5482059;4.565319;-0.09094039;0.2931068;4.896161;-0.07625438;-0.0497993;4.751357;-0.03642675;-0.8753092;4.899316;-0.4300898;-0.6560034;5.486189;-1.140921;0.8134198;4.890485;-0.07625461;1.100701;4.738804;-0.03642654;2.033316;4.823244;-0.2630883;1.996777;5.403296;-1.011415;0.2168259;2.776524;-0.1345256;0.1753152;1.316461;-0.2202754;0;0;0;0.2168259;2.776524;-0.1345256;0.1753152;1.316461;-0.2202754;0;0;0
496117.1411;NotLabelled;NONE;16384;0.7567564;0.2700831;0.5720221;0.1648199;-50;-51;33;1802;-1240;2673;65536;0.9176828;0.3739612;-0.06925207;0.1149584;117;-30;-19;-535;-2396;-1926;8192;0.8318993;0.1855956;-0.4972299;-0.1620499;-84;19;-25;-1554;-737;3011;32768;0.92786;0.3421052;0.1274238;-0.07617728;93;-15;-27;-76;-2091;-2570;256;0.06925207;-0.08864266;-0.6454294;-0.7554916;-8;6;-2;53;3862;-529;128;0.01246537;0.07617728;0.6454294;0.7599096;15;-6;1;-493;3933;712;4;0.5139942;-0.4695291;0.5069252;0.5083103;-2;0;-3;41;4076;138;16;0.632964;-0.7708276;-0.01385042;-0.07063711;1;0;0;253;3952;904;2;0.5689184;-0.5069252;-0.4459834;-0.4695291;0;0;2;-371;4010;197;8;0.6426592;-0.7532997;0.033241;0.1357341;0;-2;0;-489;4017;623;0.5320976;2.818923;-0.1312169;0.5380619;3.362446;-0.1777944;0.5433025;3.840028;-0.2207513;0.5503936;4.564664;-0.1053555;0.2949217;4.895264;-0.0917317;-0.04782021;4.750203;-0.05142941;-0.8768888;4.921513;-0.4277636;-0.6698596;5.536565;-1.11816;0.8152408;4.890174;-0.09172502;1.102694;4.738946;-0.05141407;2.031076;4.853645;-0.2821218;2.001889;5.45489;-1.01386;0.2198376;2.776357;-0.134959;0.1739777;1.316461;-0.2213333;0;0;0;0.2198376;2.776357;-0.134959;0.1739777;1.316461;-0.2213333;0;0;0
496137.2377;NotLabelled;NONE;16384;0.7568882;0.2811634;0.566482;0.1648199;-43;-57;37;2032;-1330;2741;65536;0.9098015;0.3905817;-0.07202215;0.1204986;112;-38;-21;-583;-2688;-1638;8192;0.831475;0.1980609;-0.4944598;-0.1578947;-81;28;-28;-1490;-701;2993;32768;0.9236296;0.3559557;0.1191136;-0.07756232;94;-4;-30;48;-2313;-2424;256;0.06925207;-0.08725762;-0.6468144;-0.7544676;-9;6;-3;87;3736;-483;128;0.01246537;0.07756232;0.6468144;0.7585907;9;-4;2;-455;3877;684;4;0.5139942;-0.4695291;0.5069252;0.5083103;-1;0;-4;35;4056;32;16;0.632964;-0.7708276;-0.01385042;-0.07063711;1;-3;0;313;3920;906;2;0.5689184;-0.5069252;-0.4459834;-0.4695291;0;-1;1;-405;4062;245;8;0.6426592;-0.7532997;0.033241;0.1357341;0;-3;0;-537;4005;713;0.5365874;2.81915;-0.1379304;0.5425497;3.362501;-0.1864726;0.5477886;3.839925;-0.2311558;0.5548808;4.56456;-0.11576;0.2994092;4.895161;-0.1021337;-0.04333245;4.750099;-0.06182802;-0.8642589;4.954909;-0.439269;-0.6758756;5.620281;-1.087025;0.8197282;4.890071;-0.1021323;1.107182;4.738844;-0.06182402;2.034957;4.878082;-0.2811894;2.019976;5.497967;-0.9976428;0.2243272;2.77657;-0.1415061;0.1766381;1.316299;-0.22019;0;0;0;0.2243272;2.77657;-0.1415061;0.1766381;1.316299;-0.22019;0;0;0
496158.0085;NotLabelled;NONE;16384;0.7562086;0.2922437;0.5609418;0.16759;-38;-63;38;2174;-1220;2819;65536;0.9020109;0.4058172;-0.07617728;0.1260388;105;-48;-25;-755;-2660;-1348;8192;0.8299636;0.2119114;-0.4916897;-0.1565097;-76;41;-31;-1542;-815;3105;32768;0.9193619;0.368421;0.1121884;-0.08033241;93;10;-30;-36;-2445;-1874;256;0.06786703;-0.08587258;-0.6481994;-0.7535632;-5;6;-2;119;3810;-445;128;0.01108033;0.07756232;0.6481994;0.7574291;7;-2;2;-515;3805;636;4;0.5139942;-0.4695291;0.5069252;0.5083103;-1;-1;-6;81;4070;38;16;0.632964;-0.7709532;-0.01385042;-0.06925207;1;-5;0;317;3958;910;2;0.5689184;-0.5069252;-0.4459834;-0.4695291;0;0;1;-429;4054;275;8;0.6426592;-0.7532997;0.033241;0.1357341;-1;0;0;-583;4047;671;0.5362844;2.819163;-0.138576;0.5422448;3.362334;-0.1890825;0.5474819;3.839594;-0.2354918;0.5535603;4.564652;-0.1227244;0.2976251;4.89494;-0.1102868;-0.04491106;4.749546;-0.06944192;-0.8624438;4.970293;-0.4452609;-0.6848186;5.660097;-1.070094;0.8179507;4.890582;-0.1102873;1.105618;4.739905;-0.06944239;2.029658;4.903015;-0.2881191;2.027992;5.543514;-0.9863641;0.2240241;2.776571;-0.1419854;0.1761666;1.316299;-0.2205674;0;0;0;0.2240241;2.776571;-0.1419854;0.1761666;1.316299;-0.2205674;0;0;0
496179.0005;NotLabelled;NONE;16384;0.7556262;0.3033241;0.5554016;0.1689751;-34;-64;38;2384;-1320;2995;65536;0.8948087;0.4182825;-0.08171745;0.132964;94;-52;-24;-551;-3350;-1290;8192;0.8275667;0.2396122;-0.4833795;-0.1551246;-70;47;-38;-2066;-991;3009;32768;0.9101293;0.3919668;0.09833795;-0.09141274;81;24;-41;178;-3191;-1502;256;0.06786703;-0.08587258;-0.6481994;-0.7535632;1;7;-2;93;3790;-427;128;0.01108033;0.07617728;0.6495845;0.7563823;7;0;2;-493;3907;570;4;0.5127255;-0.4709141;0.5083103;0.5069252;0;-3;-7;139;4068;154;16;0.632964;-0.7709769;-0.01246537;-0.06925207;2;-6;0;245;3998;868;2;0.5689184;-0.5069252;-0.4459834;-0.4695291;0;-2;2;-479;4100;289;8;0.6412742;-0.7545388;0.03185596;0.1357341;-1;1;0;-585;4041;723;0.5336133;2.818799;-0.1499753;0.5395716;3.361784;-0.2024544;0.5448068;3.838872;-0.250597;0.550935;4.564684;-0.1427932;0.2951753;4.895215;-0.133619;-0.04761402;4.750324;-0.09310481;-0.860073;4.983006;-0.4727087;-0.6894749;5.692646;-1.076946;0.8154939;4.89052;-0.1315711;1.102899;4.739944;-0.08857578;2.024545;4.924743;-0.2999836;2.036116;5.581175;-0.9831749;0.2213529;2.776195;-0.1532175;0.1734924;1.315647;-0.2264935;0;0;0;0.2213529;2.776195;-0.1532175;0.1734924;1.315647;-0.2264935;0;0;0
496199.0035;NotLabelled;NONE;16384;0.755531;0.3144044;0.5484765;0.1717452;-35;-64;43;2458;-1446;2999;65536;0.8867458;0.432133;-0.08587258;0.1398892;86;-47;-21;-899;-3554;-1348;8192;0.8281379;0.2520775;-0.4764543;-0.1537396;-65;39;-44;-2036;-1143;3077;32768;0.9063274;0.4016621;0.0900277;-0.09556787;73;9;-45;520;-3155;-1486;256;0.06648199;-0.08310249;-0.6468144;-0.7551855;16;9;-2;223;3890;-505;128;0.01108033;0.07617728;0.6509695;0.7551907;1;-3;1;-539;3991;648;4;0.5113487;-0.4709141;0.5096953;0.5069252;0;-3;-7;253;4088;84;16;0.632964;-0.7711;-0.01246537;-0.06786703;2;-6;0;183;3974;906;2;0.5689184;-0.5069252;-0.4459834;-0.4695291;0;-4;2;-441;4026;213;8;0.6412742;-0.7547867;0.03185596;0.134349;-1;0;1;-527;4009;781;0.5371285;2.819466;-0.1481397;0.5430846;3.362253;-0.202626;0.5483178;3.839159;-0.252532;0.5548774;4.564576;-0.142118;0.2991601;4.895072;-0.130745;-0.04347055;4.750035;-0.08941898;-0.8551477;5.000273;-0.4594057;-0.6916004;5.7301;-1.041129;0.8194828;4.89037;-0.1307459;1.107052;4.739637;-0.08942038;2.017587;4.973562;-0.3003235;2.057088;5.666592;-0.9452553;0.224868;2.77685;-0.1512117;0.1749337;1.316243;-0.2218761;0;0;0;0.224868;2.77685;-0.1512117;0.1749337;1.316243;-0.2218761;0;0;0
496220.0176;NotLabelled;NONE;16384;0.7565091;0.3254848;0.5401662;0.1731302;-33;-59;48;2474;-1488;2785;65536;0.879389;0.4445983;-0.08864266;0.1454294;81;-39;-21;-1057;-3308;-1592;8192;0.8276744;0.2645429;-0.4709141;-0.1523546;-61;35;-52;-2160;-1121;3203;32768;0.902434;0.4113573;0.08033241;-0.09972299;72;-1;-49;774;-3117;-1786;256;0.06371191;-0.08171745;-0.6454294;-0.7567589;15;13;-2;141;3990;-489;128;0.009695291;0.07617728;0.6495845;0.7564014;-2;-3;2;-617;4049;558;4;-0.5083103;0.4709141;-0.5140912;-0.5055401;-1;2;-6;201;4060;100;16;0.634349;-0.770103;-0.01108033;-0.06648199;3;-5;0;187;3970;740;2;0.5688239;-0.5083103;-0.4459834;-0.468144;1;-5;3;-333;4072;219;8;0.6412742;-0.7544791;0.033241;0.1357341;0;-2;1;-531;4067;737;0.5344299;2.819798;-0.1547906;0.5403838;3.362381;-0.2112676;0.5456151;3.839102;-0.2629226;0.550757;4.564081;-0.1496045;0.2943955;4.89403;-0.1369177;-0.04795301;4.748161;-0.09618554;-0.8569331;5.013218;-0.4617339;-0.705244;5.762104;-1.022053;0.8147264;4.890342;-0.1369181;1.102588;4.740006;-0.0961858;2.00482;4.997464;-0.315201;2.057352;5.70359;-0.9448138;0.2221692;2.777171;-0.1576938;0.1709133;1.316407;-0.2240291;0;0;0;0.2221692;2.777171;-0.1576938;0.1709133;1.316407;-0.2240291;0;0;0
496241.0164;NotLabelled;NONE;16384;0.7589598;0.3448753;0.5235457;0.1759003;-28;-56;56;2512;-1502;2795;65536;0.8649116;0.466759;-0.09556787;0.1578947;65;-38;-23;-1017;-3458;-1128;8192;0.8282236;0.2756233;-0.4639889;-0.1509695;-61;36;-57;-2214;-1149;3029;32768;0.8984544;0.4210526;0.07063711;-0.1024931;69;4;-48;878;-2971;-1740;256;0.06232687;-0.08033241;-0.6440443;-0.7582012;15;16;-3;181;3964;-557;128;0.009695291;0.07617728;0.6495845;0.7564014;-4;-1;2;-571;4015;598;4;-0.5083103;0.4722992;-0.5128191;-0.5055401;-1;2;-5;165;4068;118;16;0.634349;-0.770103;-0.01108033;-0.06648199;2;0;1;167;4006;742;2;0.5688239;-0.5083103;-0.4459834;-0.468144;1;-6;2;-269;4152;153;8;0.6412742;-0.7544791;0.033241;0.1357341;0;-1;1;-519;3963;741;0.5384791;2.820915;-0.1639868;0.5444353;3.363703;-0.2184623;0.5496686;3.840612;-0.2683589;0.5562307;4.565078;-0.1518829;0.3005175;4.895471;-0.1377666;-0.04211847;4.750099;-0.09768104;-0.8462647;5.032525;-0.4608811;-0.70669;5.797826;-1.001834;0.8208402;4.890761;-0.1377668;1.108404;4.739684;-0.09768087;2.002832;5.019732;-0.3209435;2.071095;5.738354;-0.9347119;0.2262186;2.778299;-0.1670597;0.1680404;1.317286;-0.2210197;0;0;0;0.2262186;2.778299;-0.1670597;0.1680404;1.317286;-0.2210197;0;0;0
496261.0064;NotLabelled;NONE;16384;0.7601784;0.3545706;0.5152354;0.1759003;-27;-50;54;2668;-1528;2791;65536;0.8583627;0.4764543;-0.09972299;0.1620499;55;-33;-22;-877;-3670;-1004;8192;0.8290952;0.2880886;-0.4556787;-0.1481994;-54;30;-58;-2204;-1477;2831;32768;0.8946447;0.4293629;0.06232687;-0.1066482;60;12;-47;848;-3179;-1350;256;0.06094183;-0.07894737;-0.6426592;-0.7596331;18;16;-3;91;3954;-531;128;0.009695291;0.07617728;0.6495845;0.7564014;-5;2;2;-581;4059;528;4;-0.5083103;0.4722992;-0.5128191;-0.5055401;0;1;-5;287;4010;150;16;0.634349;-0.770103;-0.01108033;-0.06648199;2;1;1;277;3986;700;2;0.5687227;-0.5096953;-0.4459834;-0.466759;2;-6;2;-175;4130;197;8;0.6412742;-0.7544791;0.033241;0.1357341;0;-1;2;-533;4011;705;0.5339646;2.821094;-0.1656662;0.5399207;3.363882;-0.2201416;0.545154;3.840789;-0.2700381;0.551644;4.564788;-0.1506847;0.2958993;4.895098;-0.135265;-0.04672441;4.749537;-0.09576946;-0.8378745;5.063368;-0.4617218;-0.7166814;5.856963;-0.9650274;0.8162225;4.890438;-0.1352656;1.103799;4.73923;-0.09577006;1.989728;5.04055;-0.3251421;2.073779;5.771114;-0.9226351;0.221704;2.778477;-0.1687391;0.1671754;1.317285;-0.2216746;0;0;0;0.221704;2.778477;-0.1687391;0.1671754;1.317285;-0.2216746;0;0;0
496281.9982;NotLabelled;NONE;16384;0.7609187;0.3628809;0.5083103;0.1759003;-27;-46;56;2576;-1676;2799;65536;0.8536239;0.4833795;-0.1024931;0.1648199;49;-26;-17;-695;-3730;-1368;8192;0.8305978;0.3074792;-0.4418283;-0.1426593;-53;22;-61;-2242;-1593;3217;32768;0.8872162;0.4445983;0.04432133;-0.1149584;44;-2;-59;368;-3781;-1576;256;0.05955679;-0.07756232;-0.6398892;-0.7622197;23;17;-3;37;3948;-621;128;0.009695291;0.07479224;0.6495845;0.7565396;0;3;2;-643;4105;606;4;-0.5083103;0.4722992;-0.5141807;-0.5041551;0;4;-5;355;4048;184;16;0.634349;-0.7700009;-0.009695291;-0.06786703;1;-2;0;301;4012;724;2;0.5687227;-0.5096953;-0.4459834;-0.466759;1;-4;2;-121;4132;185;8;0.6412742;-0.7547269;0.033241;0.134349;0;0;1;-471;3999;733;0.5333035;2.821094;-0.1665309;0.5392597;3.363881;-0.2210064;0.544493;3.84079;-0.2709029;0.5509229;4.564311;-0.1486834;0.2951524;4.894538;-0.1319648;-0.04746154;4.748795;-0.09305801;-0.832141;5.079776;-0.4578297;-0.7177131;5.885379;-0.9433268;0.8154758;4.889916;-0.1319655;1.103062;4.738575;-0.09305888;1.978196;5.065166;-0.329181;2.076878;5.805655;-0.9120384;0.2210431;2.778478;-0.1696038;0.1663081;1.317285;-0.2223259;0;0;0;0.2210431;2.778478;-0.1696038;0.1663081;1.317285;-0.2223259;0;0;0
496301.993;NotLabelled;NONE;16384;0.7624148;0.3711911;0.5;0.1759003;-28;-43;59;2622;-1632;2701;65536;0.8487841;0.4903047;-0.1052632;0.16759;45;-20;-10;-703;-3550;-1592;8192;0.8318014;0.3171745;-0.433518;-0.1398892;-52;23;-63;-2290;-1643;3023;32768;0.8854771;0.4487534;0.03185596;-0.1163435;42;-15;-65;654;-2973;-1764;256;0.05540166;-0.0734072;-0.634349;-0.7675568;27;17;-2;-39;4044;-889;128;0.01108033;0.07202215;0.6495845;0.7567893;-1;8;3;-395;4171;668;4;-0.5083103;0.4736842;-0.5129051;-0.5041551;0;7;-3;285;4020;170;16;0.6357341;-0.7689788;-0.009695291;-0.06648199;0;-2;0;241;3974;670;2;0.5686148;-0.5110803;-0.4459834;-0.4653739;0;3;0;-115;4116;135;8;0.6412742;-0.7547269;0.033241;0.134349;-1;2;1;-523;4035;695;0.5423244;2.820638;-0.1691334;0.5482805;3.363424;-0.2236266;0.5535136;3.84033;-0.2735388;0.5596361;4.562912;-0.1458609;0.3037276;4.892896;-0.1266676;-0.0388284;4.746723;-0.08888534;-0.81829;5.09217;-0.4514243;-0.7094642;5.906086;-0.9241761;0.8240529;4.88849;-0.1266677;1.111699;4.736979;-0.08888501;1.968121;5.104185;-0.3337879;2.10078;5.861305;-0.8878257;0.2300638;2.778021;-0.1722049;0.170464;1.316899;-0.2214652;0;0;0;0.2300638;2.778021;-0.1722049;0.170464;1.316899;-0.2214652;0;0;0
496322.2468;NotLabelled;NONE;16384;0.7640447;0.3795014;0.4916897;0.1745152;-26;-36;62;2452;-1660;2595;65536;0.8440178;0.4972299;-0.1066482;0.1703601;42;-19;-8;-647;-3154;-1538;8192;0.8330251;0.3268698;-0.4252077;-0.1357341;-50;16;-61;-2220;-2071;2793;32768;0.8826084;0.4542936;0.02077562;-0.1191136;37;-10;-60;700;-2649;-1780;256;0.05401662;-0.07202215;-0.6315789;-0.7700669;21;12;-4;7;4050;-769;128;0.01246537;0.07202215;0.6495845;0.7567677;0;7;2;-447;4205;538;4;-0.5096953;0.4750692;-0.5116075;-0.5027701;0;8;-1;169;3996;158;16;0.6357341;-0.7688578;-0.009695291;-0.06786703;0;4;1;177;4036;658;2;0.5674784;-0.5110803;-0.4459834;-0.466759;0;5;-1;-41;4142;153;8;0.6412742;-0.7547269;0.033241;0.134349;0;2;2;-559;4037;751;0.5326073;2.821902;-0.1689375;0.5385634;3.364684;-0.2234771;0.5437965;3.841585;-0.2734299;0.5496222;4.562127;-0.1346902;0.2935831;4.89168;-0.1104741;-0.04892072;4.744812;-0.07498127;-0.8243047;5.105721;-0.4311458;-0.7247525;5.927761;-0.8917266;0.8139101;4.887476;-0.1104744;1.101611;4.735514;-0.07498139;1.944465;5.123612;-0.3343142;2.092433;5.883607;-0.8804822;0.2203468;2.779285;-0.172005;0.1640492;1.317984;-0.2198445;0;0;0;0.2203468;2.779285;-0.172005;0.1640492;1.317984;-0.2198445;0;0;0
496343.3028;NotLabelled;NONE;16384;0.7677692;0.3947368;0.4750692;0.1703601;-25;-30;51;2116;-2038;2511;65536;0.8380349;0.5055401;-0.1080332;0.1745152;31;-11;-11;-781;-3176;-1470;8192;0.8333371;0.3365651;-0.4182825;-0.1315789;-51;9;-52;-1706;-2299;2755;32768;0.8802536;0.4584487;0.01108033;-0.1218837;35;1;-47;728;-2857;-1858;256;0.05263158;-0.07063711;-0.6288089;-0.772554;25;14;-4;-21;4174;-991;128;0.01246537;0.07063711;0.6509695;0.7557074;7;8;3;-417;4201;656;4;0.5130547;-0.4764543;0.5083103;0.501385;1;6;1;-33;4134;228;16;0.6357341;-0.7687155;-0.01108033;-0.06925207;-2;4;0;335;3990;674;2;0.5676339;-0.5096953;-0.4473684;-0.466759;0;7;-2;-187;4230;143;8;0.6412742;-0.7550319;0.03185596;0.132964;-1;5;1;-579;4049;807;0.5346643;2.821729;-0.1687426;0.5406203;3.364509;-0.2232977;0.5458535;3.841409;-0.2732643;0.5514539;4.560898;-0.1291558;0.2953139;4.890184;-0.1024987;-0.04714767;4.742951;-0.06812231;-0.8148659;5.120725;-0.4234048;-0.723013;5.950414;-0.8717076;0.8156422;4.886137;-0.1024992;1.103387;4.734001;-0.06812286;1.933477;5.144097;-0.3346722;2.099773;5.908584;-0.8691733;0.2224037;2.779112;-0.1718087;0.1659035;1.317814;-0.2194777;0;0;0;0.2224037;2.779112;-0.1718087;0.1659035;1.317814;-0.2194777;0;0;0
496364.9971;NotLabelled;NONE;16384;0.7697617;0.400277;0.468144;0.16759;-28;-26;45;2062;-2006;2453;65536;0.8353339;0.5096953;-0.1094183;0.1745152;27;2;-11;-519;-3058;-1668;8192;0.8342424;0.3448753;-0.4113573;-0.1260388;-48;11;-42;-1362;-2493;2407;32768;0.8784691;0.4612188;0.005540166;-0.1246537;31;4;-33;816;-2793;-1754;256;0.05124654;-0.06786703;-0.6246537;-0.7762575;29;9;-5;-101;4134;-1163;128;0.01385042;0.06925207;0.6509695;0.7558115;8;11;2;-405;4143;692;4;0.5130547;-0.4764543;0.5083103;0.501385;0;5;1;57;4130;204;16;0.634349;-0.7698377;-0.01246537;-0.06925207;-3;1;0;329;3984;754;2;0.5664921;-0.5096953;-0.4473684;-0.468144;-1;9;-2;-99;4154;47;8;0.6398892;-0.7562061;0.03185596;0.132964;-1;6;1;-473;4043;707;0.5332937;2.821629;-0.1633;0.5392475;3.364203;-0.2198627;0.5444786;3.840916;-0.2715929;0.5498747;4.559316;-0.1221439;0.2936442;4.888326;-0.09305999;-0.04878023;4.74075;-0.05980264;-0.7997638;5.153178;-0.412302;-0.7180998;5.991727;-0.8458505;0.8139735;4.884419;-0.09305337;1.101757;4.73211;-0.05978742;1.918783;5.164171;-0.331939;2.101157;5.931433;-0.857141;0.2210329;2.779002;-0.1661959;0.1654253;1.317864;-0.2195325;0;0;0;0.2210329;2.779002;-0.1661959;0.1654253;1.317864;-0.2195325;0;0;0
496385.2259;NotLabelled;NONE;16384;0.7700769;0.4072022;0.4626039;0.1648199;-32;-21;40;2226;-1882;2299;65536;0.8330734;0.5138504;-0.1094183;0.1731302;29;6;-9;-425;-2882;-1784;8192;0.8334752;0.3587258;-0.4030471;-0.1191136;-39;5;-25;-1596;-2365;2285;32768;0.8731245;0.4709141;-0.002770083;-0.1260388;40;5;-10;448;-2529;-2164;256;0.04986149;-0.06648199;-0.6218836;-0.7786878;21;14;-6;-71;4068;-1125;128;0.01385042;0.06786703;0.6523545;0.7547422;11;11;2;-419;4049;522;4;0.5130547;-0.4764543;0.5083103;0.501385;0;3;3;17;4066;154;16;0.634349;-0.7698377;-0.01246537;-0.06925207;-3;0;0;261;4014;772;2;0.5666412;-0.5083103;-0.4487534;-0.468144;0;8;-3;-105;4086;99;8;0.6398892;-0.7564483;0.03185596;0.1315789;0;3;1;-425;3971;743;0.5310017;2.820938;-0.169664;0.5369555;3.363508;-0.2262641;0.5421866;3.840217;-0.2780274;0.5459329;4.556949;-0.1207255;0.2889492;4.885034;-0.0880605;-0.05313814;4.73632;-0.05644354;-0.7959403;5.161385;-0.4112594;-0.7180905;6.004383;-0.8368081;0.8092861;4.882318;-0.08806098;1.097416;4.730312;-0.05644405;1.902112;5.181509;-0.3342216;2.092659;5.950581;-0.8538439;0.2187411;2.77831;-0.1725566;0.1628117;1.317173;-0.2255558;0;0;0;0.2187411;2.77831;-0.1725566;0.1628117;1.317173;-0.2255558;0;0;0
496406.1542;NotLabelled;NONE;16384;0.7699075;0.4127424;0.4584487;0.1634349;-29;-16;33;2150;-2130;2061;65536;0.8307837;0.5180055;-0.1094183;0.1717452;29;-1;-14;-211;-2810;-1828;8192;0.8327982;0.3642659;-0.400277;-0.1163435;-35;4;-21;-1506;-2489;2171;32768;0.8699064;0.4764543;-0.004155125;-0.1274238;44;14;0;272;-2713;-2024;256;0.04847645;-0.06509695;-0.6191136;-0.7810959;13;10;-6;-147;3880;-1103;128;0.01523546;0.06509695;0.6537396;0.7537605;12;12;2;-385;3921;516;4;0.5144233;-0.4764543;0.5069252;0.501385;0;2;3;-11;4066;198;16;0.634349;-0.7698377;-0.01246537;-0.06925207;-3;6;0;237;3964;830;2;0.5644839;-0.5069252;-0.4501385;-0.4709141;-2;11;-6;-129;4060;127;8;0.6398892;-0.7567449;0.03047091;0.1301939;0;4;0;-457;3985;757;0.5303292;2.820948;-0.1706854;0.5362806;3.363305;-0.2292942;0.5415095;3.839819;-0.2828223;0.5451131;4.555375;-0.1202479;0.2880655;4.883161;-0.08517835;-0.05399441;4.734154;-0.05467042;-0.7908498;5.173434;-0.404536;-0.7164771;6.02052;-0.8225185;0.8084028;4.880544;-0.08517864;1.09656;4.728365;-0.05467039;1.884143;5.20876;-0.332536;2.086934;5.987233;-0.83318;0.2180684;2.77831;-0.1734075;0.1619333;1.317173;-0.2261879;0;0;0;0.2180684;2.77831;-0.1734075;0.1619333;1.317173;-0.2261879;0;0;0
496427.1844;NotLabelled;NONE;16384;0.7691447;0.4182825;0.4556787;0.1606648;-26;-13;21;1944;-2290;1999;65536;0.8278077;0.5221606;-0.1121884;0.1717452;31;-11;-20;-241;-2694;-1946;8192;0.8318751;0.3698061;-0.3975069;-0.1149584;-31;7;-10;-1322;-2635;2083;32768;0.8656654;0.4833795;-0.004155125;-0.1301939;44;22;8;106;-2897;-1752;256;0.04847645;-0.06232687;-0.6177285;-0.7824173;6;8;-2;-185;3878;-989;128;0.01800554;0.06232687;0.6578947;0.7503104;21;14;0;-337;4025;456;4;0.5144233;-0.4764543;0.5069252;0.501385;2;4;2;3;4046;198;16;0.632964;-0.7708513;-0.01246537;-0.07063711;-2;7;0;291;3928;920;2;0.5645689;-0.5055401;-0.4501385;-0.4722992;-2;14;-5;-105;4082;77;8;0.6398892;-0.7567449;0.03047091;0.1301939;0;6;0;-527;4005;801;0.5289395;2.820834;-0.1676516;0.5348884;3.362965;-0.2283124;0.5401151;3.839273;-0.2836434;0.5435984;4.553617;-0.1158236;0.2864971;4.881098;-0.07835989;-0.05554015;4.731815;-0.04895879;-0.7885993;5.181322;-0.3937744;-0.7176369;6.032434;-0.8041019;0.8068348;4.878564;-0.07835981;1.095016;4.726211;-0.04895815;1.875425;5.217828;-0.3274319;2.079434;6.002221;-0.8182443;0.2166786;2.778186;-0.1701994;0.161053;1.317173;-0.226815;0;0;0;0.2166786;2.778186;-0.1701994;0.161053;1.317173;-0.226815;0;0;0
496448.2023;NotLabelled;NONE;16384;0.7672693;0.4252077;0.4529086;0.1592798;-20;-12;0;1842;-2408;1955;65536;0.8206368;0.5318559;-0.1191136;0.1717452;36;-17;-22;167;-3220;-1962;8192;0.8303945;0.3739612;-0.3975069;-0.1121884;-26;7;-1;-1298;-2625;2291;32768;0.8623472;0.4889196;-0.001385042;-0.1315789;41;34;16;-84;-2961;-1844;256;0.04709141;-0.06094183;-0.6163435;-0.7837023;10;10;-1;-109;3896;-1189;128;0.01939058;0.06094183;0.6606648;0.747952;20;13;-1;-443;3997;466;4;0.5158476;-0.4778393;0.5055401;0.5;1;13;0;69;4044;214;16;0.632964;-0.7706994;-0.01385042;-0.07202215;0;3;0;315;3960;906;2;0.5635401;-0.5041551;-0.4515235;-0.4736842;0;15;-4;-151;4140;53;8;0.6398892;-0.7570364;0.02908587;0.1288089;1;5;0;-489;4007;817;0.5319297;2.819763;-0.1727743;0.5378708;3.361177;-0.2395285;0.5430902;3.836833;-0.3002129;0.5439079;4.550591;-0.1298809;0.2855865;4.876975;-0.09126946;-0.05589145;4.726315;-0.06239928;-0.7860823;5.186316;-0.3993699;-0.7160344;6.041927;-0.8003916;0.8059301;4.876383;-0.09126985;1.094677;4.725003;-0.06239974;1.868471;5.226563;-0.3416035;2.072481;6.018466;-0.8202038;0.2196685;2.777089;-0.1748039;0.1637968;1.316076;-0.2311766;0;0;0;0.2196685;2.777089;-0.1748039;0.1637968;1.316076;-0.2311766;0;0;0
496469.0056;NotLabelled;NONE;16384;0.7652389;0.4293629;0.4529086;0.1578947;-20;-17;-6;1894;-2362;2221;65536;0.8175207;0.536011;-0.1218837;0.1717452;35;-15;-17;147;-3430;-1484;8192;0.8286971;0.3781163;-0.3975069;-0.1108033;-25;9;7;-1272;-2743;2325;32768;0.8577367;0.4958449;0.001385042;-0.1357341;46;43;21;-428;-2823;-2240;256;0.04570637;-0.05955679;-0.6149584;-0.7849777;9;9;-1;-33;3920;-1177;128;0.02077562;0.05955679;0.6634349;0.7455706;20;16;-1;-511;3983;448;4;0.517257;-0.4792244;0.5041551;0.4986149;0;13;0;35;4048;216;16;0.632964;-0.7706733;-0.01523546;-0.07202215;0;6;0;269;3974;920;2;0.5624992;-0.5027701;-0.4529086;-0.4750692;-1;14;-4;-229;4102;135;8;0.6398892;-0.7570364;0.02908587;0.1288089;1;4;0;-507;3939;851;0.5315352;2.819829;-0.1731541;0.5374705;3.360727;-0.243973;0.5426848;3.835913;-0.3082284;0.5436203;4.54902;-0.1351936;0.2853531;4.875299;-0.0953472;-0.05615024;4.724588;-0.0670495;-0.7840889;5.194974;-0.3944192;-0.7130272;6.060823;-0.7726415;0.8056966;4.87462;-0.0953474;1.094418;4.723084;-0.06704962;1.864065;5.232379;-0.3437017;2.062763;6.030977;-0.8133287;0.2192738;2.777141;-0.1748373;0.1632914;1.316132;-0.2312135;0;0;0;0.2192738;2.777141;-0.1748373;0.1632914;1.316132;-0.2312135;0;0;0
496491.0102;NotLabelled;NONE;16384;0.7626047;0.433518;0.4529086;0.1592798;-22;-22;-10;2258;-2266;2245;65536;0.8136527;0.5415512;-0.1232687;0.1717452;37;-5;-10;-49;-3390;-1442;8192;0.8233475;0.3878116;-0.398892;-0.1121884;-19;13;23;-1820;-2665;2415;32768;0.849681;0.5083103;0.009695291;-0.1398892;45;27;10;-44;-3221;-1658;256;0.04570637;-0.05955679;-0.6135734;-0.7860608;2;6;-1;25;4008;-1087;128;0.0235457;0.05817174;0.666205;0.7431235;16;16;-1;-495;4173;416;4;0.5173052;-0.4806094;0.5041551;0.4972299;0;10;0;-39;4064;154;16;0.6315789;-0.7716783;-0.01523546;-0.0734072;1;7;0;315;3972;960;2;0.562564;-0.501385;-0.4529086;-0.4764543;-1;15;-3;-239;4040;221;8;0.6412742;-0.7561502;0.02770083;0.1274238;2;3;0;-547;3969;861;0.5283871;2.820061;-0.1745138;0.5343164;3.36041;-0.2494109;0.5395253;3.835099;-0.3172489;0.5405896;4.547546;-0.1415229;0.2823814;4.87372;-0.1004462;-0.05914959;4.722965;-0.07271957;-0.7877849;5.198809;-0.3905118;-0.7174352;6.068858;-0.7591099;0.8027248;4.872945;-0.1004462;1.091419;4.721252;-0.07271919;1.857711;5.237041;-0.3466403;2.053747;6.043324;-0.8040948;0.2161255;2.777362;-0.1758492;0.1600502;1.316356;-0.2322027;0;0;0;0.2161255;2.777362;-0.1758492;0.1600502;1.316356;-0.2322027;0;0;0
496512.0123;NotLabelled;NONE;16384;0.759109;0.4376731;0.4542936;0.1606648;-20;-16;-13;2512;-2268;2085;65536;0.81066;0.5457063;-0.1246537;0.1717452;38;-3;-8;-151;-3544;-1494;8192;0.8204966;0.3905817;-0.4016621;-0.1135734;-19;5;29;-1800;-2515;2557;32768;0.846342;0.5138504;0.009695291;-0.1398892;42;0;3;634;-3409;-1320;256;0.04432133;-0.05817174;-0.6135734;-0.7862439;-4;6;-1;-61;4040;-971;128;0.02493075;0.0567867;0.66759;0.7419416;12;14;-1;-473;4117;398;4;0.5173052;-0.4806094;0.5041551;0.4972299;0;8;0;-29;4122;136;16;0.6315789;-0.7716497;-0.0166205;-0.0734072;2;7;0;301;3966;908;2;0.5615041;-0.5;-0.4542936;-0.4778393;-2;14;-2;-347;4030;179;8;0.6412742;-0.7561502;0.02770083;0.1274238;3;4;0;-557;4103;725;0.5326871;2.819083;-0.1823711;0.5386099;3.35884;-0.2614156;0.5438129;3.832994;-0.332897;0.5446885;4.544822;-0.1546736;0.286394;4.870781;-0.1124545;-0.05509713;4.719839;-0.08525854;-0.7848436;5.198301;-0.3965031;-0.7168377;6.073414;-0.753363;0.8067376;4.870144;-0.1124547;1.095471;4.71843;-0.08525836;1.860529;5.24439;-0.3428011;2.046905;6.06539;-0.7775518;0.2204255;2.776375;-0.1833523;0.1637697;1.315248;-0.2358597;0;0;0;0.2204255;2.776375;-0.1833523;0.1637697;1.315248;-0.2358597;0;0;0
496533.0122;NotLabelled;NONE;16384;0.7566727;0.4404432;0.4556787;0.1606648;-18;-9;-13;2434;-2340;2075;65536;0.8069029;0.5512465;-0.1246537;0.1717452;40;-5;-6;-535;-3826;-1200;8192;0.817787;0.3919668;-0.4058172;-0.1135734;-20;2;32;-1722;-2387;2557;32768;0.8425813;0.5207756;0.006925208;-0.1371191;38;-30;-10;458;-3853;-1150;256;0.04432133;-0.0567867;-0.6163435;-0.7841758;-7;3;0;-19;4000;-917;128;0.02770083;0.05401662;0.6717451;0.7382908;13;10;-1;-439;4095;266;4;0.5186921;-0.4819945;0.5027701;0.4958449;0;7;-1;29;4154;236;16;0.6315789;-0.7715167;-0.0166205;-0.07479224;2;2;0;355;4020;836;2;0.5605348;-0.4972299;-0.4570637;-0.4792244;-3;12;0;-521;4154;133;8;0.6426592;-0.7553024;0.02493075;0.1260388;1;8;0;-555;4039;543;0.5296349;2.819311;-0.1837519;0.5355543;3.358759;-0.2648863;0.5407543;3.832632;-0.3382036;0.5419583;4.544414;-0.159797;0.2838143;4.870481;-0.117494;-0.05774651;4.71969;-0.09033678;-0.7913579;5.199617;-0.3900251;-0.726012;6.078493;-0.738023;0.8041576;4.869604;-0.1174943;1.092821;4.71775;-0.09033707;1.859445;5.244299;-0.3419487;2.044073;6.070971;-0.7665832;0.2173733;2.7766;-0.1845544;0.1605132;1.315473;-0.2368405;0;0;0;0.2173733;2.7766;-0.1845544;0.1605132;1.315473;-0.2368405;0;0;0
496554.1425;NotLabelled;NONE;16384;0.7522842;0.4459834;0.4570637;0.1620499;-14;-20;-10;2584;-2266;2097;65536;0.7983164;0.5623268;-0.1246537;0.1759003;30;-4;-14;-1391;-3974;-176;8192;0.8141807;0.3947368;-0.4099723;-0.1149584;-25;-1;31;-2298;-2143;2713;32768;0.8398287;0.5263157;0;-0.132964;31;-45;-20;878;-3885;-796;256;0.04432133;-0.0567867;-0.6177285;-0.7830852;-8;3;0;-15;3980;-835;128;0.02908587;0.05401662;0.6731302;0.7369749;15;5;-1;-411;4061;264;4;0.5186921;-0.4819945;0.5027701;0.4958449;0;0;0;219;3982;138;16;0.632964;-0.7703807;-0.0166205;-0.07479224;1;0;0;297;3940;704;2;0.5605758;-0.4958449;-0.4570637;-0.4806094;-2;9;-1;-611;4034;163;8;0.6426592;-0.7553024;0.02493075;0.1260388;1;3;0;-445;4047;515;0.5318296;2.819153;-0.1836446;0.5377383;3.357628;-0.2710035;0.5429286;3.830622;-0.3497886;0.5432779;4.543639;-0.1763827;0.2847425;4.869685;-0.1363666;-0.05663691;4.718678;-0.1081477;-0.7926212;5.200105;-0.3994998;-0.7323551;6.083568;-0.7366301;0.8050863;4.869434;-0.1363668;1.093932;4.718122;-0.1081477;1.863469;5.243908;-0.3523541;2.048785;6.077205;-0.7635252;0.2195679;2.776435;-0.1839142;0.162736;1.315309;-0.2362359;0;0;0;0.2195679;2.776435;-0.1839142;0.162736;1.315309;-0.2362359;0;0;0
496574.0905;NotLabelled;NONE;16384;0.7492012;0.4501385;0.4570637;0.1648199;-13;-17;-7;2696;-2264;2137;65536;0.7953733;0.566482;-0.1246537;0.1759003;25;0;-19;-1507;-4084;-514;8192;0.8107227;0.3975069;-0.4141274;-0.1149584;-25;-9;31;-2378;-2223;2725;32768;0.8378414;0.5304709;-0.005540166;-0.1288089;20;-45;-17;1096;-3709;-582;256;0.04432133;-0.05540166;-0.6177285;-0.7831843;-9;3;-2;-15;3926;-735;128;0.02908587;0.05263158;0.6745152;0.7358078;14;3;-1;-435;4037;84;4;0.5186921;-0.4819945;0.5027701;0.4958449;2;1;1;209;3996;134;16;0.632964;-0.770514;-0.0166205;-0.0734072;0;-1;-1;273;4012;634;2;0.5606101;-0.4944598;-0.4570637;-0.4819945;0;5;-2;-709;3988;97;8;0.6426592;-0.7553024;0.02493075;0.1260388;0;-1;0;-433;4033;545;0.530864;2.820095;-0.1791987;0.5367691;3.358225;-0.2686591;0.5419559;3.830909;-0.34929;0.5424868;4.54453;-0.1783921;0.2840343;4.870781;-0.1395223;-0.05738329;4.719961;-0.1107719;-0.7959985;5.203948;-0.3910104;-0.74905;6.096189;-0.7064474;0.804378;4.870398;-0.1395225;1.093186;4.71911;-0.1107721;1.866512;5.244528;-0.3435374;2.058529;6.082127;-0.7427185;0.2186024;2.777377;-0.1792883;0.1617703;1.31625;-0.2316104;0;0;0;0.2186024;2.777377;-0.1792883;0.1617703;1.31625;-0.2316104;0;0;0
496595.1414;NotLabelled;NONE;16384;0.7472232;0.4529086;0.4570637;0.166205;-13;-15;-2;2932;-2258;1853;65536;0.7927037;0.5706371;-0.1246537;0.1745152;26;6;-19;-985;-4220;-922;8192;0.8041762;0.400277;-0.4252077;-0.1108033;-18;-25;39;-1924;-2485;2295;32768;0.8352272;0.536011;-0.01523546;-0.1218837;9;-27;-3;698;-3947;-710;256;0.04432133;-0.05540166;-0.6191136;-0.7820899;-6;0;-3;77;3948;-707;128;0.03047091;0.05263158;0.6772853;0.7332026;11;0;-1;-461;4041;26;4;0.520031;-0.4819945;0.501385;0.4958449;1;3;3;193;4072;158;16;0.632964;-0.770514;-0.0166205;-0.0734072;0;2;-1;237;4054;614;2;0.5594163;-0.4944598;-0.4570637;-0.4833795;0;1;-3;-687;3978;57;8;0.6426592;-0.7553024;0.02493075;0.1260388;-2;-3;0;-571;3977;439;0.527733;2.82026;-0.1807999;0.5336342;3.358047;-0.2723005;0.5388178;3.830421;-0.3547235;0.5381213;4.544044;-0.1838257;0.279108;4.869848;-0.1449558;-0.06204966;4.718442;-0.1162054;-0.803189;5.203307;-0.3881373;-0.7602462;6.098674;-0.6951714;0.7994517;4.870359;-0.1449561;1.088519;4.71957;-0.1162056;1.864148;5.245775;-0.3393284;2.059718;6.086637;-0.7298298;0.2154713;2.777542;-0.1807145;0.1585252;1.316415;-0.2329127;0;0;0;0.2154713;2.777542;-0.1807145;0.1585252;1.316415;-0.2329127;0;0;0
496614.9945;NotLabelled;NONE;16384;0.7463845;0.4556787;0.4556787;0.166205;-11;-14;4;2944;-2362;1923;65536;0.7894762;0.5747922;-0.1260388;0.1745152;23;0;-16;-635;-4456;-500;8192;0.8014126;0.400277;-0.4307479;-0.1094183;-14;-19;33;-2230;-2447;2125;32768;0.8337881;0.5387812;-0.01800554;-0.1191136;10;-18;-3;742;-3847;-750;256;0.04570637;-0.05540166;-0.6204986;-0.7809117;-4;0;-4;165;3966;-725;128;0.03047091;0.05263158;0.6786703;0.7319208;11;-3;0;-575;4009;36;4;0.520031;-0.4819945;0.501385;0.4958449;0;4;5;91;4058;170;16;0.632964;-0.7704828;-0.01800554;-0.0734072;-1;6;-1;303;3942;666;2;0.5606374;-0.4930748;-0.4570637;-0.4833795;1;0;-4;-599;4018;75;8;0.6426592;-0.7553024;0.02493075;0.1260388;-4;0;0;-591;4007;459;0.5270206;2.820137;-0.177146;0.5329139;3.357203;-0.2727911;0.5380902;3.828927;-0.3588546;0.537572;4.543147;-0.1904709;0.2786402;4.869152;-0.1527494;-0.06255549;4.717933;-0.1234674;-0.804692;5.203813;-0.3908291;-0.7635288;6.102229;-0.6890732;0.7989841;4.869533;-0.1527497;1.088014;4.718773;-0.1234674;1.869806;5.245212;-0.3233128;2.073278;6.090048;-0.7009871;0.2147589;2.777421;-0.1767047;0.1585254;1.316415;-0.2329124;0;0;0;0.2147589;2.777421;-0.1767047;0.1585254;1.316415;-0.2329124;0;0;0
496636.1474;NotLabelled;NONE;16384;0.745532;0.4584487;0.4542936;0.166205;-11;-14;5;2924;-2342;2173;65536;0.786517;0.5789474;-0.1274238;0.1731302;16;-5;-13;-421;-4370;-202;8192;0.7984701;0.4016621;-0.434903;-0.1094183;-6;-9;27;-2418;-2517;2017;32768;0.8321576;0.5415512;-0.01939058;-0.1177285;9;-1;3;794;-3689;-526;256;0.04570637;-0.05540166;-0.6218836;-0.7798092;-9;1;-5;3;3966;-903;128;0.03047091;0.05401662;0.6800554;0.7305329;10;-1;0;-553;4049;74;4;0.5200421;-0.4819945;0.5;0.4972299;1;-4;7;31;4118;160;16;0.632964;-0.7703496;-0.01800554;-0.07479224;-4;7;-1;397;3962;686;2;0.560586;-0.4916897;-0.4556787;-0.4861496;0;0;-6;-519;4104;151;8;0.6426592;-0.7553024;0.02493075;0.1260388;-5;-2;0;-575;4061;603;0.5249837;2.820355;-0.177289;0.5308731;3.357054;-0.2749708;0.536046;3.828449;-0.362823;0.534165;4.543298;-0.1971418;0.2746122;4.868949;-0.1606545;-0.06629506;4.717192;-0.1308019;-0.8065367;5.206628;-0.3969277;-0.7663071;6.108231;-0.6855323;0.7949543;4.870321;-0.1606543;1.08427;4.720225;-0.1308009;1.87029;5.244495;-0.319453;2.075706;6.0917;-0.6907105;0.2127221;2.777642;-0.1766729;0.156586;1.316636;-0.2329772;0;0;0;0.2127221;2.777642;-0.1766729;0.156586;1.316636;-0.2329772;0;0;0
496655.9972;NotLabelled;NONE;16384;0.7437854;0.4639889;0.4515235;0.166205;-4;-13;9;2742;-2584;1827;65536;0.7822126;0.5831025;-0.132964;0.1745152;8;-19;-14;-257;-4116;-500;8192;0.7967637;0.4016621;-0.4376731;-0.1108033;3;-8;24;-2256;-2545;2035;32768;0.8304084;0.5443213;-0.0166205;-0.1177285;5;16;15;928;-3675;-468;256;0.04570637;-0.05401662;-0.6260388;-0.7765749;-19;2;0;-73;4076;-869;128;0.03047091;0.05401662;0.6828254;0.7279444;7;0;-3;-579;4205;318;4;0.5186625;-0.4806094;0.501385;0.4986149;0;-10;6;253;4114;156;16;0.632964;-0.7703496;-0.01800554;-0.07479224;-4;-4;-2;467;4024;686;2;0.5617091;-0.4916897;-0.4542936;-0.4861496;1;-1;-7;-417;4174;183;8;0.6412742;-0.7562467;0.02493075;0.1274238;-6;0;0;-621;3937;651;0.5231372;2.820226;-0.173071;0.5290224;3.356551;-0.2727823;0.5341914;3.82761;-0.3624171;0.5324911;4.543041;-0.1992614;0.2730208;4.868884;-0.1639264;-0.06792523;4.717321;-0.133541;-0.8067421;5.210294;-0.3970849;-0.766421;6.114991;-0.6758248;0.7933633;4.870124;-0.163927;1.082641;4.720061;-0.1335413;1.871572;5.243319;-0.312602;2.077482;6.092967;-0.6779581;0.2108756;2.777514;-0.1722801;0.1593246;1.316476;-0.2320219;0;0;0;0.2108756;2.777514;-0.1722801;0.1593246;1.316476;-0.2320219;0;0;0
496676.997;NotLabelled;NONE;16384;0.7442856;0.4653739;0.4487534;0.16759;0;-10;9;2800;-2630;1845;65536;0.779109;0.5858725;-0.1371191;0.1759003;5;-18;-10;-33;-4090;-650;8192;0.7959339;0.400277;-0.4404432;-0.1108033;11;-5;24;-1900;-2623;2081;32768;0.8284609;0.5470914;-0.01246537;-0.1191136;1;31;25;636;-3695;-548;256;0.04570637;-0.05401662;-0.6274238;-0.7754563;-15;0;1;-9;4046;-859;128;0.03047091;0.05540166;0.6828254;0.7278404;3;-2;-3;-629;4099;392;4;0.5198871;-0.4778393;0.5;0.501385;1;-6;7;369;4048;40;16;0.6315789;-0.7716497;-0.0166205;-0.0734072;-7;-5;-1;189;4014;752;2;0.5605074;-0.4916897;-0.4542936;-0.4875346;1;1;-6;-309;4144;243;8;0.6412742;-0.7564787;0.02493075;0.1260388;-6;0;0;-483;3981;735;0.5229379;2.820218;-0.1740087;0.5288146;3.355767;-0.2778052;0.533976;3.82613;-0.3710279;0.5315702;4.543251;-0.2154814;0.2717801;4.869198;-0.1836167;-0.06901858;4.717632;-0.1516315;-0.8055238;5.217616;-0.4083509;-0.7632425;6.125916;-0.6748078;0.7921212;4.870947;-0.1836169;1.081544;4.721498;-0.1516314;1.873291;5.241681;-0.3271881;2.07387;6.094512;-0.6880673;0.2106764;2.777514;-0.1728663;0.1588251;1.316476;-0.2323635;0;0;0;0.2106764;2.777514;-0.1728663;0.1588251;1.316476;-0.2323635;0;0;0
496697.0175;NotLabelled;NONE;16384;0.7442521;0.466759;0.4473684;0.16759;4;-9;11;2700;-2402;2047;65536;0.7785498;0.5858725;-0.1385041;0.1772853;3;-17;-2;-17;-4102;-646;8192;0.7949933;0.3975069;-0.4432133;-0.1163435;16;7;12;-2480;-2051;2495;32768;0.8264997;0.5498615;-0.005540166;-0.1204986;-1;12;9;568;-3967;-946;256;0.04570637;-0.05401662;-0.6288089;-0.7743337;-14;0;2;-53;3988;-731;128;0.03047091;0.05540166;0.6828254;0.7278404;1;-1;-3;-475;4017;418;4;0.5185478;-0.4778393;0.5;0.5027701;1;-4;6;229;4068;140;16;0.6301939;-0.7727812;-0.0166205;-0.0734072;-7;-1;-1;343;3976;812;2;0.5617194;-0.4903047;-0.4542936;-0.4875346;0;6;-6;-349;4040;205;8;0.6398892;-0.7576507;0.02493075;0.1260388;-5;0;0;-573;4069;861;0.5216812;2.818755;-0.1675601;0.5275579;3.354306;-0.2713483;0.5327193;3.824671;-0.3645639;0.5304924;4.54234;-0.2115654;0.2707841;4.868464;-0.1808617;-0.07005315;4.717097;-0.1483424;-0.8044761;5.219126;-0.407031;-0.7604891;6.129821;-0.6648984;0.7911255;4.870082;-0.1808619;1.080511;4.720674;-0.1483423;1.875117;5.23749;-0.320901;2.070436;6.093556;-0.6769737;0.2094197;2.776051;-0.1664183;0.1593787;1.315473;-0.2376054;0;0;0;0.2094197;2.776051;-0.1664183;0.1593787;1.315473;-0.2376054;0;0;0
496717.0211;NotLabelled;NONE;16384;0.7459102;0.466759;0.4445983;0.16759;4;-11;11;2652;-2188;2105;65536;0.7769404;0.5872576;-0.1398892;0.1786704;0;-13;3;-463;-4066;-582;8192;0.7950658;0.3961219;-0.4432133;-0.1204986;13;11;6;-2234;-1963;2737;32768;0.8265136;0.5498615;-0.002770083;-0.1204986;-8;13;7;926;-4041;-954;256;0.04570637;-0.05401662;-0.6301939;-0.7732068;-10;1;3;-173;3774;-835;128;0.03185596;0.05540166;0.6828254;0.7277811;-3;-2;-3;-349;3927;432;4;0.5198207;-0.4764543;0.5;0.5027701;0;-2;6;89;4050;138;16;0.6301939;-0.7729115;-0.0166205;-0.07202215;-7;-6;-2;309;3966;918;2;0.5617228;-0.4889196;-0.4542936;-0.4889196;0;8;-5;-297;4146;255;8;0.6385041;-0.7585869;0.02493075;0.1274238;-5;1;1;-583;4071;869;0.5187715;2.817951;-0.1727269;0.5246482;3.353502;-0.2765152;0.5298097;3.823866;-0.3697308;0.5277622;4.542075;-0.2192859;0.2681358;4.868372;-0.1897453;-0.07274003;4.717209;-0.1566916;-0.8056824;5.221549;-0.4150808;-0.761439;6.132449;-0.672181;0.7884777;4.869859;-0.1897454;1.077825;4.720494;-0.1566914;1.879353;5.227002;-0.3277981;2.065158;6.086924;-0.6796496;0.2065099;2.775247;-0.1715853;0.1603267;1.314515;-0.2422227;0;0;0;0.2065099;2.775247;-0.1715853;0.1603267;1.314515;-0.2422227;0;0;0
496738.9951;NotLabelled;NONE;16384;0.7458664;0.468144;0.4432133;0.16759;3;-10;10;2584;-2302;2169;65536;0.777666;0.5858725;-0.1398892;0.1800554;-3;-3;3;-777;-3842;-1146;8192;0.794641;0.3961219;-0.4432133;-0.1232687;13;11;4;-2286;-2175;2609;32768;0.8261096;0.5498615;0;-0.1232687;-15;21;6;894;-3937;-1184;256;0.04570637;-0.05401662;-0.6315789;-0.7720759;-7;2;4;-173;3808;-781;128;0.03185596;0.0567867;0.6814404;0.7289715;-4;0;-5;-391;3901;496;4;0.5184776;-0.4764543;0.5;0.5041551;0;-3;6;53;4046;168;16;0.6288089;-0.7740387;-0.0166205;-0.07202215;-7;-4;-2;259;3964;934;2;0.5617194;-0.4875346;-0.4542936;-0.4903047;-1;8;-4;-393;4096;151;8;0.6385041;-0.7588183;0.02493075;0.1260388;-3;2;0;-573;3945;887;0.5193364;2.817783;-0.1692936;0.5252129;3.353318;-0.2731663;0.5303742;3.823667;-0.3664562;0.5285068;4.542408;-0.2185706;0.2689625;4.868874;-0.190195;-0.07195171;4.717915;-0.1566066;-0.8018167;5.224551;-0.4191842;-0.7584952;6.136535;-0.6725674;0.7893047;4.870228;-0.1901953;1.078614;4.72091;-0.1566065;1.883304;5.221797;-0.3294091;2.064822;6.082364;-0.6819158;0.2070748;2.775079;-0.1681447;0.1575765;1.314674;-0.243162;0;0;0;0.2070748;2.775079;-0.1681447;0.1575765;1.314674;-0.243162;0;0;0
496758.995;NotLabelled;NONE;16384;0.7466877;0.468144;0.4418283;0.16759;0;-6;8;2676;-2312;2133;65536;0.7789551;0.5844875;-0.1385041;0.1800554;-2;1;5;-645;-3868;-1508;8192;0.795114;0.3947368;-0.4432133;-0.1246537;12;5;5;-2548;-2089;2789;32768;0.8277394;0.5470914;0;-0.1246537;-13;24;-1;612;-3969;-1780;256;0.04432133;-0.05401662;-0.632964;-0.7710217;-2;2;4;-31;4010;-889;128;0.033241;0.0567867;0.6800554;0.730202;-5;0;-4;-569;4171;358;4;0.519747;-0.4750692;0.5;0.5041551;0;-6;5;115;4090;212;16;0.6274238;-0.7753177;-0.01523546;-0.07063711;-6;-8;-2;387;3962;966;2;0.5617979;-0.4861496;-0.4556787;-0.4903047;-1;0;-1;-457;4088;219;8;0.6371191;-0.7600257;0.0235457;0.1260388;-1;3;0;-521;4039;909;0.5164202;2.816967;-0.1742744;0.5223011;3.352896;-0.276094;0.5274663;3.8236;-0.3675805;0.5257797;4.542864;-0.2222598;0.2663178;4.869493;-0.1950511;-0.07463492;4.718742;-0.1609274;-0.8029974;5.227686;-0.4232132;-0.7601078;6.138804;-0.6797685;0.7866604;4.870717;-0.1950517;1.075931;4.721446;-0.1609281;1.88235;5.219643;-0.3334512;2.062434;6.080422;-0.6861769;0.2041586;2.774259;-0.1733022;0.1585179;1.3137;-0.2477697;0;0;0;0.2041586;2.774259;-0.1733022;0.1585179;1.3137;-0.2477697;0;0;0
496780.0063;NotLabelled;NONE;16384;0.7469459;0.4695291;0.4404432;0.166205;-4;0;7;2680;-2174;2269;65536;0.7813341;0.5844875;-0.1301939;0.1759003;1;47;27;101;-3980;-838;8192;0.7953613;0.3933518;-0.4432133;-0.1274238;8;0;1;-2662;-2069;2755;32768;0.8282317;0.5457063;0;-0.1274238;0;5;-25;-68;-4153;-2678;256;0.04293629;-0.05540166;-0.632964;-0.7710018;-3;3;3;-31;4002;-987;128;0.033241;0.05817174;0.6800554;0.730093;0;1;-3;-483;4133;430;4;0.5209248;-0.4722992;0.5;0.5055401;-3;-8;4;165;4092;194;16;0.6260388;-0.776733;-0.01246537;-0.06786703;-6;-17;-3;377;4018;1002;2;0.5617979;-0.4861496;-0.4556787;-0.4903047;0;1;0;-451;4056;187;8;0.6371191;-0.7600257;0.0235457;0.1260388;0;1;0;-319;3947;885;0.5199282;2.815582;-0.1753015;0.5258132;3.351879;-0.2751662;0.5309821;3.822913;-0.3649356;0.5310085;4.542657;-0.2220027;0.2723254;4.869993;-0.1958804;-0.06898533;4.720168;-0.1612591;-0.796264;5.230255;-0.4243324;-0.7545139;6.140286;-0.6848994;0.7926695;4.869977;-0.1958808;1.081584;4.720132;-0.1612597;1.889094;5.215377;-0.337142;2.070141;6.073509;-0.6957759;0.2076667;2.772871;-0.1744975;0.1585701;1.312649;-0.2532476;0;0;0;0.2076667;2.772871;-0.1744975;0.1585701;1.312649;-0.2532476;0;0;0
496800.1505;NotLabelled;NONE;16384;0.7472527;0.4695291;0.4404432;0.1648199;-8;3;6;2510;-2220;2301;65536;0.7830741;0.5844875;-0.1232687;0.1731302;-9;48;22;-1107;-3766;-286;8192;0.7968985;0.3933518;-0.4404432;-0.1274238;-5;8;-13;-2690;-2025;3351;32768;0.8266587;0.5470914;-0.01939058;-0.1301939;8;-44;-74;364;-4155;-1510;256;0.04293629;-0.05540166;-0.632964;-0.7710018;-5;2;4;-179;4034;-1015;128;0.033241;0.05817174;0.6800554;0.730093;0;3;-3;-381;4209;432;4;0.5194996;-0.4709141;0.501385;0.5069252;-6;-9;4;205;4132;160;16;0.6260388;-0.7768922;-0.009695291;-0.06648199;-6;-23;-5;497;3992;956;2;0.5617979;-0.4861496;-0.4556787;-0.4903047;0;-1;0;-367;4024;111;8;0.6371191;-0.7600257;0.0235457;0.1260388;1;-2;-1;-425;4037;827;0.5227872;2.813898;-0.1728348;0.5286721;3.350196;-0.2726898;0.533841;3.821231;-0.3624509;0.5366676;4.540936;-0.2193396;0.2792601;4.869268;-0.1931362;-0.06263108;4.720764;-0.1585524;-0.7873836;5.234553;-0.4213906;-0.7519515;6.143358;-0.6871208;0.7996001;4.867228;-0.1931364;1.087929;4.71625;-0.1585522;1.89773;5.207189;-0.3359677;2.081828;6.063659;-0.6970173;0.2105255;2.771186;-0.1720317;0.1586753;1.311524;-0.2589493;0;0;0;0.2105255;2.771186;-0.1720317;0.1586753;1.311524;-0.2589493;0;0;0
496821.4248;NotLabelled;NONE;16384;0.746987;0.4709141;0.4404432;0.1620499;-10;10;0;2630;-2462;1895;65536;0.7855396;0.5844875;-0.1149584;0.16759;-10;65;18;-523;-3252;-1234;8192;0.7972728;0.3961219;-0.4376731;-0.1260388;-14;7;-9;-2202;-2301;3227;32768;0.8273499;0.5457063;-0.033241;-0.1288089;-11;-67;-77;1208;-4143;-156;256;0.04293629;-0.05401662;-0.632964;-0.7711;-4;1;4;-201;4044;-1027;128;0.03462604;0.0567867;0.6800554;0.7301376;0;0;-2;-305;4305;374;4;0.5194147;-0.4695291;0.5027701;0.5069252;-7;-9;5;163;4170;242;16;0.6246537;-0.7782677;-0.006925208;-0.06371191;-7;-28;-5;497;3986;974;2;0.5617979;-0.4861496;-0.4556787;-0.4903047;2;-1;1;-205;4064;117;8;0.6371191;-0.7600257;0.0235457;0.1260388;1;1;0;-621;4039;833;0.5248326;2.81363;-0.17329;0.5307176;3.349928;-0.2731451;0.5358865;3.820963;-0.3629062;0.5387132;4.540668;-0.2197948;0.2813056;4.869001;-0.1935914;-0.06058557;4.720497;-0.1590077;-0.7843945;5.235682;-0.4217118;-0.7552103;6.14346;-0.691683;0.8016456;4.86696;-0.1935916;1.089975;4.715983;-0.1590075;1.89752;5.208768;-0.3415102;2.114372;6.060996;-0.6943179;0.2125711;2.770918;-0.1724869;0.1605288;1.31125;-0.2591935;0;0;0;0.2125711;2.770918;-0.1724869;0.1605288;1.31125;-0.2591935;0;0;0
496841.9806;NotLabelled;NONE;16384;0.7467648;0.4709141;0.4418283;0.1592798;-6;24;-3;2552;-2516;1475;65536;0.7882311;0.5831025;-0.1094183;0.1634349;0;19;8;-133;-3140;-2552;8192;0.796801;0.3975069;-0.4376731;-0.1246537;-18;-10;-2;-2206;-2493;2635;32768;0.8289725;0.5429363;-0.04986149;-0.1246537;-19;-84;-68;1308;-3315;-612;256;0.04293629;-0.05540166;-0.632964;-0.7710018;-1;-1;3;-219;4200;-987;128;0.03462604;0.0567867;0.6800554;0.7301376;0;-2;-1;-345;4271;386;4;0.5206634;-0.468144;0.5027701;0.5069252;-10;-11;9;211;4186;206;16;0.6246537;-0.7786164;-0.004155125;-0.05955679;-9;-37;-6;565;4140;740;2;0.5605963;-0.4875346;-0.4556787;-0.4903047;2;-1;1;-195;4162;169;8;0.6371191;-0.7602957;0.02216066;0.1246537;0;5;-1;-597;3999;793;0.528415;2.812331;-0.179155;0.5342997;3.34861;-0.2791114;0.5394683;3.819628;-0.3689615;0.5410268;4.539337;-0.2258508;0.2830412;4.867216;-0.199648;-0.05858793;4.71811;-0.1650645;-0.7816572;5.237291;-0.4218727;-0.7581422;6.143866;-0.6964012;0.803384;4.866092;-0.1996476;1.091979;4.715623;-0.1650629;1.89454;5.214847;-0.3519993;2.130616;6.062288;-0.7039943;0.2161534;2.769619;-0.1783431;0.1598929;1.310118;-0.2652375;0;0;0;0.2161534;2.769619;-0.1783431;0.1598929;1.310118;-0.2652375;0;0;0
496863.0074;NotLabelled;NONE;16384;0.7457057;0.4709141;0.4445983;0.1565097;2;15;-4;2226;-2690;1191;65536;0.7882311;0.5831025;-0.1094183;0.1634349;23;-13;1;-781;-3488;-2560;8192;0.7967481;0.398892;-0.4376731;-0.1204986;-14;-32;-5;-2660;-2455;1909;32768;0.8312488;0.5387812;-0.06232687;-0.1218837;-3;-39;-43;1518;-2775;-2692;256;0.04293629;-0.05540166;-0.632964;-0.7710018;0;-3;0;-45;4170;-889;128;0.033241;0.0567867;0.6786703;0.7314895;-2;-5;-1;-463;4167;214;4;0.5216921;-0.4639889;0.5041551;0.5083103;-12;-13;15;257;4088;230;16;0.6232687;-0.7800428;0;-0.05540166;-12;-40;-9;253;4254;524;2;0.5582508;-0.4875346;-0.4570637;-0.4916897;1;7;1;-363;3984;201;8;0.6371191;-0.7600673;0.02216066;0.1260388;0;-6;0;-535;3799;673;0.5283594;2.812001;-0.1763075;0.5342441;3.34828;-0.2762639;0.5394127;3.819299;-0.3661141;0.5422395;4.539002;-0.2230027;0.284832;4.867335;-0.1967991;-0.05705924;4.718831;-0.1622151;-0.7781099;5.239622;-0.4214292;-0.7558814;6.144488;-0.7016454;0.805172;4.865295;-0.1967997;1.093501;4.714317;-0.1622157;1.895852;5.21645;-0.3421408;2.154168;6.05755;-0.6937214;0.2160978;2.769289;-0.1754956;0.1567015;1.310183;-0.2668177;0;0;0;0.2160978;2.769289;-0.1754956;0.1567015;1.310183;-0.2668177;0;0;0
496883.1997;NotLabelled;NONE;16384;0.7451189;0.4709141;0.4445983;0.1592798;1;-17;-2;2476;-2274;2321;65536;0.783128;0.5886427;-0.1121884;0.166205;24;-15;-13;-1833;-4090;-1410;8192;0.796671;0.400277;-0.4376731;-0.1163435;2;-35;-11;-2580;-2707;1293;32768;0.8304961;0.5387812;-0.06925207;-0.1232687;18;3;-24;1754;-3203;-2808;256;0.04293629;-0.05540166;-0.634349;-0.7698627;-8;5;0;55;3958;-919;128;0.033241;0.05817174;0.6800554;0.730093;9;-3;-4;-559;4075;248;4;0.5262684;-0.4556787;0.5027701;0.5124654;-13;-10;36;503;3814;238;16;0.6218836;-0.7817441;0.006925208;-0.04570637;-24;-36;-10;507;4030;-142;2;0.5582508;-0.4875346;-0.4570637;-0.4916897;2;6;0;-503;3886;137;8;0.6371191;-0.7600257;0.0235457;0.1260388;-1;-11;0;-621;3927;649;0.5345146;2.809991;-0.1739306;0.5404035;3.346664;-0.2717542;0.545576;3.818036;-0.359731;0.5484028;4.53774;-0.21662;0.2909953;4.866073;-0.1904166;-0.05089594;4.717569;-0.1558325;-0.7736727;5.238899;-0.4090879;-0.7514439;6.143763;-0.6893045;0.8113352;4.864033;-0.1904171;1.099665;4.713055;-0.1558331;1.898488;5.220783;-0.3357466;2.173508;6.055061;-0.6908935;0.2222528;2.767277;-0.1733021;0.1560369;1.309007;-0.272911;0;0;0;0.2222528;2.767277;-0.1733021;0.1560369;1.309007;-0.272911;0;0;0
496904.0451;NotLabelled;NONE;16384;0.7456465;0.4709141;0.4432133;0.1606648;-3;-15;0;3120;-2254;2267;65536;0.7803391;0.5914127;-0.1149584;0.16759;23;-22;-14;-1419;-4270;-1012;8192;0.7992134;0.3975069;-0.4362881;-0.1135734;15;-20;-14;-1878;-2369;2115;32768;0.8280637;0.5415512;-0.06925207;-0.1274238;20;35;-8;2458;-3911;-1700;256;0.04155125;-0.05401662;-0.6357341;-0.768894;-7;2;0;-201;3996;-911;128;0.033241;0.05955679;0.6814404;0.7286885;10;-8;-6;-475;4111;262;4;0.5296422;-0.4501385;0.501385;0.5152354;-5;-14;49;647;4120;226;16;0.6204986;-0.7830459;0.009695291;-0.04155125;-31;-22;-11;171;4378;-198;2;0.5582371;-0.4861496;-0.4570637;-0.4930748;3;-1;-2;-609;3930;199;8;0.6371191;-0.7597505;0.02493075;0.1274238;0;-17;0;-589;4025;679;0.534688;2.806545;-0.154727;0.540573;3.342843;-0.2545821;0.5457417;3.813878;-0.3443431;0.5487514;4.534089;-0.2038077;0.2914266;4.862578;-0.1787754;-0.05050142;4.714285;-0.1436556;-0.7752051;5.232821;-0.3971382;-0.7565957;6.141717;-0.6642665;0.811766;4.860408;-0.1787757;1.100058;4.709482;-0.1436557;1.895683;5.222789;-0.3219042;2.182564;6.054517;-0.6736335;0.2224264;2.763833;-0.1539239;0.1485796;1.308095;-0.2813186;0;0;0;0.2224264;2.763833;-0.1539239;0.1485796;1.308095;-0.2813186;0;0;0
496925.089;NotLabelled;NONE;16384;0.7444698;0.4722992;0.4432133;0.1620499;-3;4;0;3192;-2240;2413;65536;0.7782726;0.5927978;-0.1177285;0.1703601;18;-28;-12;-979;-4436;-1076;8192;0.8028978;0.3961219;-0.4307479;-0.1135734;-4;17;-14;-2466;-2013;3313;32768;0.8245721;0.5457063;-0.06786703;-0.132964;18;16;-3;2026;-3733;-1784;256;0.04293629;-0.05401662;-0.6357341;-0.7688178;-7;-4;4;-345;3982;-797;128;0.03185596;0.06232687;0.6828254;0.7272207;11;-16;-6;-475;4233;288;4;0.5314537;-0.4445983;0.4972299;0.5221606;-2;-23;59;863;4296;308;16;0.6177285;-0.7853051;0.009695291;-0.0401662;-36;2;-13;249;4514;220;2;0.5581615;-0.4875346;-0.4556787;-0.4930748;7;-14;-6;-633;4112;241;8;0.6371191;-0.7591847;0.02770083;0.1301939;0;-30;0;-447;3943;821;0.5357464;2.803468;-0.1422696;0.5416273;3.339384;-0.2441592;0.5467922;3.810075;-0.3357072;0.5502371;4.53075;-0.1975814;0.2931112;4.859477;-0.1736504;-0.04890678;4.711509;-0.138038;-0.7749668;5.230733;-0.386175;-0.7573326;6.141789;-0.6459087;0.8134493;4.856991;-0.1736385;1.10165;4.70601;-0.1380113;1.894048;5.220347;-0.3273158;2.183336;6.053394;-0.6739169;0.2234848;2.76076;-0.1412914;0.1442847;1.307122;-0.2879952;0;0;0;0.2234848;2.76076;-0.1412914;0.1442847;1.307122;-0.2879952;0;0;0
496945.9979;NotLabelled;NONE;16384;0.7442417;0.4722992;0.4445983;0.1592798;-5;11;0;2846;-2448;2615;65536;0.7754242;0.5955678;-0.1204986;0.1717452;13;-15;-7;-677;-4424;-1024;8192;0.8030077;0.398892;-0.4279778;-0.1135734;-8;3;-18;-2684;-2263;2845;32768;0.8223917;0.5484765;-0.06925207;-0.134349;16;7;-4;1722;-3909;-1264;256;0.04293629;-0.05540166;-0.6371191;-0.7675717;-6;-9;7;-223;4102;-711;128;0.03047091;0.06509695;0.6828254;0.7270373;11;-23;-6;-461;4375;124;4;0.5341557;-0.4362881;0.4958449;0.5277008;-16;-34;64;995;4680;378;16;0.6121883;-0.78973;0.006925208;-0.03878116;-38;1;-14;593;4426;804;2;0.5592036;-0.4889196;-0.4529086;-0.4930748;8;-21;-8;-587;4048;449;8;0.6357341;-0.7597026;0.03185596;0.132964;1;-39;0;-461;3997;973;0.5265005;2.798999;-0.1260881;0.5323771;3.334542;-0.2299177;0.5375383;3.804899;-0.3231696;0.539452;4.525613;-0.1852169;0.2816285;4.853799;-0.1613663;-0.06007471;4.705113;-0.1257201;-0.7852473;5.224039;-0.3770573;-0.7676649;6.136319;-0.63246;0.8019706;4.852418;-0.1613511;1.090491;4.702057;-0.1256861;1.880137;5.21829;-0.3212284;2.17298;6.053867;-0.6586281;0.214239;2.756295;-0.1249428;0.1433869;1.305075;-0.2975667;0;0;0;0.214239;2.756295;-0.1249428;0.1433869;1.305075;-0.2975667;0;0;0
496967.0053;NotLabelled;NONE;16384;0.7445369;0.4722992;0.4445983;0.1578947;-9;10;2;2638;-2634;2497;65536;0.7741416;0.5969529;-0.1218837;0.1717452;11;-2;-3;-407;-4220;-1110;8192;0.8041309;0.398892;-0.4265928;-0.1108033;-11;-10;-18;-2152;-2149;2905;32768;0.8201914;0.5512465;-0.07063711;-0.1357341;14;8;-3;1274;-3653;-1396;256;0.04432133;-0.0567867;-0.6371191;-0.7673918;-5;-12;7;115;4266;-739;128;0.02770083;0.06925207;0.6842105;0.7254605;12;-29;-5;-513;4373;70;4;0.5374783;-0.4252077;0.4944598;0.534626;-21;-45;65;845;4688;54;16;0.6080332;-0.7930642;0.006925208;-0.03601108;-36;-12;-17;717;4312;1240;2;0.5614427;-0.4903047;-0.4501385;-0.4916897;7;-29;-8;-635;4132;333;8;0.6357341;-0.7585262;0.03601108;0.1385041;3;-41;0;-585;4075;1059;0.5260241;2.791353;-0.1188586;0.5319009;3.326916;-0.2225869;0.5370625;3.79729;-0.3157499;0.5404395;4.518489;-0.1803833;0.2832811;4.847279;-0.1576999;-0.05872029;4.699412;-0.1215074;-0.7834501;5.219095;-0.3725577;-0.765409;6.133458;-0.6203705;0.8036194;4.844846;-0.1577002;1.091836;4.694031;-0.1215074;1.878042;5.21454;-0.3195662;2.174717;6.051649;-0.6497444;0.2137625;2.748648;-0.1177221;0.139511;1.30098;-0.316725;0;0;0;0.2137625;2.748648;-0.1177221;0.139511;1.30098;-0.316725;0;0;0
496987.9769;NotLabelled;NONE;16384;0.7451446;0.4722992;0.4459834;0.1509695;-7;10;4;2222;-2712;2199;65536;0.7728519;0.5983379;-0.1232687;0.1717452;0;0;0;27;-3950;-528;8192;0.8052835;0.400277;-0.4238227;-0.1080332;-11;-1;-21;-2110;-2189;2789;32768;0.8190281;0.5526316;-0.07063711;-0.1371191;13;17;1;994;-3465;-1296;256;0.04570637;-0.06094183;-0.6398892;-0.7646822;-8;-11;3;201;4186;-483;128;0.02216066;0.07479224;0.6869806;0.7224768;6;-26;-3;-659;4127;128;4;-0.5387812;0.4168975;-0.4930748;-0.5410995;-18;-22;59;129;4438;184;16;0.6038781;-0.7964098;0.006925208;-0.03185596;-29;-24;-24;-93;4458;1426;2;0.5679853;-0.4944598;-0.4418283;-0.4875346;7;-31;-2;-467;4268;25;8;0.634349;-0.7582935;0.04293629;0.1440443;5;-17;0;-767;4059;997;0.5293697;2.782719;-0.09983894;0.5352425;3.317917;-0.2054345;0.5404004;3.787964;-0.3002374;0.5435287;4.509196;-0.1650483;0.2862568;4.837903;-0.1424453;-0.05569342;4.689928;-0.1062156;-0.7784847;5.211011;-0.3599401;-0.7587406;6.126409;-0.6037682;0.8065959;4.835649;-0.142446;1.094865;4.684944;-0.1062165;1.878861;5.208898;-0.3039471;2.179917;6.047489;-0.6263096;0.2171082;2.740019;-0.09854145;0.1372031;1.297655;-0.3310492;0;0;0;0.2171082;2.740019;-0.09854145;0.1372031;1.297655;-0.3310492;0;0;0
497008.0089;NotLabelled;NONE;16384;0.7457005;0.4722992;0.4459834;0.1481994;-4;15;0;2222;-2720;2093;65536;0.7720846;0.599723;-0.1232687;0.1703601;-5;4;0;231;-3656;-702;8192;0.8060465;0.4016621;-0.4210526;-0.1080332;-3;8;-21;-1944;-2393;2537;32768;0.8171534;0.5554016;-0.06786703;-0.1385041;8;25;5;1034;-3685;-1078;256;0.04709141;-0.06371191;-0.6412742;-0.7632107;-4;-13;3;223;4104;-451;128;0.01939058;0.07894737;0.6869806;0.7221143;0;-26;-2;-589;3969;216;4;-0.5429363;0.4072022;-0.4889196;-0.5480549;9;-10;32;377;3378;2;16;0.5983379;-0.8008367;0.005540166;-0.02493075;-18;-11;-8;-233;3690;2008;2;0.5690128;-0.4972299;-0.4404432;-0.4847645;4;-30;2;-509;4230;169;8;0.634349;-0.7579494;0.04432133;0.1454294;6;-13;-1;-633;4043;833;0.5248134;2.775046;-0.08892758;0.5306779;3.309479;-0.1983329;0.5358283;3.778838;-0.2964817;0.5416694;4.50104;-0.1666641;0.2856343;4.830869;-0.1465051;-0.0568677;4.684453;-0.1091714;-0.7721883;5.213199;-0.3681557;-0.7497597;6.129617;-0.607883;0.8059613;4.826663;-0.1464948;1.093664;4.675149;-0.1091481;1.876056;5.206372;-0.2933739;2.180931;6.045712;-0.6101491;0.212552;2.732356;-0.08730175;0.1335161;1.2943;-0.3453823;0;0;0;0.212552;2.732356;-0.08730175;0.1335161;1.2943;-0.3453823;0;0;0
497028.0565;NotLabelled;NONE;16384;0.7445832;0.4722992;0.4487534;0.1454294;0;21;-3;2066;-2656;1971;65536;0.773378;0.5983379;-0.1218837;0.1703601;-8;12;4;287;-3512;-834;8192;0.8087682;0.4044321;-0.4127424;-0.1094183;3;15;-16;-1926;-2279;2667;32768;0.8149896;0.5581717;-0.06232687;-0.1426593;-1;24;10;1100;-3391;-994;256;0.04709141;-0.06509695;-0.6412742;-0.7630938;1;-14;2;173;4014;-433;128;0.0166205;0.08171745;0.6855956;0.7231907;-6;-24;-2;-785;3897;200;4;-0.5429363;0.4058172;-0.4861496;-0.5515354;11;2;15;559;3508;10;16;0.5941828;-0.8038994;0;-0.02631579;-9;52;6;-1317;3030;2262;2;0.5710723;-0.5;-0.4376731;-0.4819945;4;-34;4;-565;4040;141;8;0.6357341;-0.7564381;0.04570637;0.1468144;7;-22;-4;-313;4049;843;0.5124597;2.763558;-0.07315701;0.5183245;3.298017;-0.182431;0.5234751;3.767401;-0.2804644;0.5305818;4.490088;-0.1534379;0.2751228;4.820438;-0.1345397;-0.06763135;4.674764;-0.09662262;-0.7799882;5.204405;-0.3618709;-0.7556837;6.121657;-0.5982056;0.7954415;4.815325;-0.1345406;1.082882;4.663456;-0.09662378;1.863055;5.196587;-0.284711;2.166692;6.038795;-0.5949963;0.2001985;2.720867;-0.07154243;0.121906;1.289774;-0.3659908;0;0;0;0.2001985;2.720867;-0.07154243;0.121906;1.289774;-0.3659908;0;0;0
497048.9993;NotLabelled;NONE;16384;0.7451601;0.4709141;0.4501385;0.1426593;2;19;-5;1938;-2514;1819;65536;0.7749676;0.5969529;-0.1204986;0.1689751;-11;15;9;181;-3550;-810;8192;0.8101759;0.4044321;-0.4099723;-0.1094183;7;9;-13;-1914;-2183;2509;32768;0.8149531;0.5581717;-0.05955679;-0.1440443;-7;24;16;1358;-3139;-892;256;0.04847645;-0.06648199;-0.6412742;-0.7628877;3;-15;2;225;3946;-455;128;0.01523546;0.08448754;0.6842105;0.7242139;-12;-22;0;-963;3633;186;4;-0.5429363;0.4072022;-0.4847645;-0.5517336;16;17;-3;433;3480;-190;16;0.5914127;-0.8055669;-0.009695291;-0.03462604;0;117;23;-1909;2478;2768;2;0.5730844;-0.5027701;-0.434903;-0.4792244;3;-42;3;-323;4006;-81;8;0.6357341;-0.7557226;0.04847645;0.1495845;6;-20;-4;-569;4033;799;0.5010434;2.758184;-0.0763925;0.5069129;3.293081;-0.1835044;0.5120679;3.762857;-0.279639;0.5204664;4.485529;-0.1526098;0.2655982;4.816337;-0.1337107;-0.07741591;4.671275;-0.09579429;-0.7920077;5.201544;-0.3536744;-0.7678593;6.117789;-0.5939004;0.785907;4.810293;-0.1337112;1.073076;4.65791;-0.09579498;1.844979;5.198162;-0.2972133;2.144895;6.043334;-0.6030247;0.188782;2.715488;-0.07496436;0.1191378;1.286086;-0.3796258;0;0;0;0.188782;2.715488;-0.07496436;0.1191378;1.286086;-0.3796258;0;0;0
497070.0053;NotLabelled;NONE;16384;0.7463305;0.468144;0.4515235;0.1412742;2;14;-5;1900;-2414;1791;65536;0.7765465;0.5955678;-0.1191136;0.16759;-13;15;11;23;-3528;-836;8192;0.8120727;0.4030471;-0.4072022;-0.1108033;9;1;-6;-1706;-2049;2499;32768;0.8161926;0.5567867;-0.05540166;-0.1440443;-13;17;19;1234;-3061;-1050;256;0.04986149;-0.06925207;-0.6412742;-0.7625519;2;-13;1;413;3684;-657;128;0.01385042;0.08587258;0.6828254;0.7253851;-11;-10;1;-1049;3463;394;4;-0.5429363;0.4127424;-0.4819945;-0.5500412;20;34;-20;-45;3354;0;16;0.5872576;-0.8074341;-0.02631579;-0.04986149;12;132;30;-517;2180;3162;2;0.574869;-0.5069252;-0.4307479;-0.4764543;1;-38;2;-169;4212;-37;8;0.6357341;-0.755169;0.04847645;0.1523546;4;-4;-3;-793;3893;609;0.5005127;2.755999;-0.0825389;0.5063868;3.291313;-0.187542;0.5115458;3.761465;-0.2818246;0.5197152;4.484174;-0.15499;0.2647421;4.814905;-0.1361792;-0.07822582;4.669744;-0.09822278;-0.7913932;5.200542;-0.3589434;-0.7653449;6.115792;-0.6027384;0.7850528;4.809027;-0.1361795;1.07227;4.656745;-0.09822306;1.84251;5.19868;-0.3014797;2.140944;6.044407;-0.6072068;0.1882512;2.713297;-0.08129257;0.1245143;1.283649;-0.3860917;0;0;0;0.1882512;2.713297;-0.08129257;0.1245143;1.283649;-0.3860917;0;0;0
