SEP=;
index;label;segment;RightUpperArm_boneIndex;RightUpperArm_quat9x_w;RightUpperArm_quat9x_x;RightUpperArm_quat9x_y;RightUpperArm_quat9x_z;RightUpperArm_gyroscope_x;RightUpperArm_gyroscope_y;RightUpperArm_gyroscope_z;RightUpperArm_accelerometer_x;RightUpperArm_accelerometer_y;RightUpperArm_accelerometer_z;RightLowerArm_boneIndex;RightLowerArm_quat9x_w;RightLowerArm_quat9x_x;RightLowerArm_quat9x_y;RightLowerArm_quat9x_z;RightLowerArm_gyroscope_x;RightLowerArm_gyroscope_y;RightLowerArm_gyroscope_z;RightLowerArm_accelerometer_x;RightLowerArm_accelerometer_y;RightLowerArm_accelerometer_z;LeftUpperArm_boneIndex;LeftUpperArm_quat9x_w;LeftUpperArm_quat9x_x;LeftUpperArm_quat9x_y;LeftUpperArm_quat9x_z;LeftUpperArm_gyroscope_x;LeftUpperArm_gyroscope_y;LeftUpperArm_gyroscope_z;LeftUpperArm_accelerometer_x;LeftUpperArm_accelerometer_y;LeftUpperArm_accelerometer_z;LeftLowerArm_boneIndex;LeftLowerArm_quat9x_w;LeftLowerArm_quat9x_x;LeftLowerArm_quat9x_y;LeftLowerArm_quat9x_z;LeftLowerArm_gyroscope_x;LeftLowerArm_gyroscope_y;LeftLowerArm_gyroscope_z;LeftLowerArm_accelerometer_x;LeftLowerArm_accelerometer_y;LeftLowerArm_accelerometer_z;Chest_boneIndex;Chest_quat9x_w;Chest_quat9x_x;Chest_quat9x_y;Chest_quat9x_z;Chest_gyroscope_x;Chest_gyroscope_y;Chest_gyroscope_z;Chest_accelerometer_x;Chest_accelerometer_y;Chest_accelerometer_z;Spine_boneIndex;Spine_quat9x_w;Spine_quat9x_x;Spine_quat9x_y;Spine_quat9x_z;Spine_gyroscope_x;Spine_gyroscope_y;Spine_gyroscope_z;Spine_accelerometer_x;Spine_accelerometer_y;Spine_accelerometer_z;RightUpperLeg_boneIndex;RightUpperLeg_quat9x_w;RightUpperLeg_quat9x_x;RightUpperLeg_quat9x_y;RightUpperLeg_quat9x_z;RightUpperLeg_gyroscope_x;RightUpperLeg_gyroscope_y;RightUpperLeg_gyroscope_z;RightUpperLeg_accelerometer_x;RightUpperLeg_accelerometer_y;RightUpperLeg_accelerometer_z;RightLowerLeg_boneIndex;RightLowerLeg_quat9x_w;RightLowerLeg_quat9x_x;RightLowerLeg_quat9x_y;RightLowerLeg_quat9x_z;RightLowerLeg_gyroscope_x;RightLowerLeg_gyroscope_y;RightLowerLeg_gyroscope_z;RightLowerLeg_accelerometer_x;RightLowerLeg_accelerometer_y;RightLowerLeg_accelerometer_z;LeftUpperLeg_boneIndex;LeftUpperLeg_quat9x_w;LeftUpperLeg_quat9x_x;LeftUpperLeg_quat9x_y;LeftUpperLeg_quat9x_z;LeftUpperLeg_gyroscope_x;LeftUpperLeg_gyroscope_y;LeftUpperLeg_gyroscope_z;LeftUpperLeg_accelerometer_x;LeftUpperLeg_accelerometer_y;LeftUpperLeg_accelerometer_z;LeftLowerLeg_boneIndex;LeftLowerLeg_quat9x_w;LeftLowerLeg_quat9x_x;LeftLowerLeg_quat9x_y;LeftLowerLeg_quat9x_z;LeftLowerLeg_gyroscope_x;LeftLowerLeg_gyroscope_y;LeftLowerLeg_gyroscope_z;LeftLowerLeg_accelerometer_x;LeftLowerLeg_accelerometer_y;LeftLowerLeg_accelerometer_z;pelvis_x;pelvis_y;pelvis_z;lowerSpine_x;lowerSpine_y;lowerSpine_z;middleSpine_x;middleSpine_y;middleSpine_z;upperSpine_x;upperSpine_y;upperSpine_z;rightClavicle_x;rightClavicle_y;rightClavicle_z;rightShoulder_x;rightShoulder_y;rightShoulder_z;rightElbow_x;rightElbow_y;rightElbow_z;rightWrist_x;rightWrist_y;rightWrist_z;leftClavicle_x;leftClavicle_y;leftClavicle_z;leftShoulder_x;leftShoulder_y;leftShoulder_z;leftElbow_x;leftElbow_y;leftElbow_z;leftWrist_x;leftWrist_y;leftWrist_z;rightHip_x;rightHip_y;rightHip_z;rightKnee_x;rightKnee_y;rightKnee_z;rightAnkle_x;rightAnkle_y;rightAnkle_z;leftHip_x;leftHip_y;leftHip_z;leftKnee_x;leftKnee_y;leftKnee_z;leftAnkle_x;leftAnkle_y;leftAnkle_z;
946225.3775;NotLabelled;NONE;16384;0.7534206;0.4556787;0.4459834;0.1606648;3;-3;0;2564;-2228;2181;65536;0.8058788;0.5789474;-0.04293629;0.1163435;0;-3;1;-478;-3807;-1285;8192;0.8261561;0.3808864;-0.4030471;-0.09972299;-3;-1;0;-1924;-2309;2797;32768;0.8505046;0.5124654;-0.04847645;-0.1080332;0;-3;2;888;-3615;-1816;256;0.04293629;-0.03462604;-0.5900277;-0.8054966;1;2;-1;-179;3878;-1261;128;0.0401662;0.04570637;0.6440443;0.7625645;-1;2;1;-463;4087;760;4;-0.5124654;0.4861496;-0.5157918;-0.4847645;0;0;-1;5;4090;204;16;0.6398892;-0.7674955;0.009695291;-0.03739612;0;1;0;289;4036;740;2;0.5532596;-0.5055401;-0.4653739;-0.4709141;0;0;0;-191;4154;197;8;0.6551247;-0.748325;0.005540166;0.1038781;0;1;0;-531;4039;589;0.5153952;2.824643;-0.2230312;0.521358;3.368031;-0.2711569;0.5265972;3.845489;-0.3154742;0.5067805;4.54517;-0.09521116;0.2390576;4.86027;-0.03369269;-0.09778802;4.697958;-0.01555409;-0.8341131;5.202348;-0.2640403;-0.862949;6.095944;-0.5778097;0.7591929;4.875003;-0.03368817;1.05232;4.730535;-0.01554388;1.803463;5.253436;-0.3165963;2.034281;6.069132;-0.7398566;0.2031351;2.782066;-0.2266422;0.119008;1.32132;-0.2286407;0;0;0;0.2031351;2.782066;-0.2266422;0.119008;1.32132;-0.2286407;0;0;0
946246.1073;NotLabelled;NONE;16384;0.7542565;0.4542936;0.4459834;0.1606648;4;-2;-2;2552;-2270;2219;65536;0.8058788;0.5789474;-0.04293629;0.1163435;0;-3;2;-510;-3879;-1345;8192;0.8261561;0.3808864;-0.4030471;-0.09972299;-2;-1;0;-1934;-2299;2723;32768;0.8505046;0.5124654;-0.04847645;-0.1080332;2;-2;1;992;-3487;-1840;256;0.04293629;-0.03462604;-0.5900277;-0.8054966;1;1;-1;-197;3944;-1273;128;0.0401662;0.04570637;0.6426592;0.7637321;-2;0;0;-469;4053;700;4;-0.5124654;0.4861496;-0.5157918;-0.4847645;0;-1;0;11;4104;180;16;0.6398892;-0.7674955;0.009695291;-0.03739612;0;0;0;305;3968;702;2;0.5520915;-0.5055401;-0.466759;-0.4709141;0;0;0;-211;4098;187;8;0.6551247;-0.748325;0.005540166;0.1038781;-1;1;0;-535;4059;547;0.5153937;2.824643;-0.2230344;0.5213564;3.368029;-0.2711802;0.5265957;3.845486;-0.3155152;0.5067805;4.545167;-0.09525204;0.239058;4.860266;-0.03373166;-0.09778751;4.697954;-0.01559067;-0.8334405;5.200907;-0.2689345;-0.8622788;6.094502;-0.5827039;0.7591934;4.875;-0.03373091;1.052321;4.730531;-0.01558861;1.804052;5.256325;-0.3100634;2.033546;6.072321;-0.7334665;0.2031335;2.782066;-0.2266436;0.1190064;1.32132;-0.2286415;0;0;0;0.2031335;2.782066;-0.2266436;0.1190064;1.32132;-0.2286415;0;0;0
946267.5517;NotLabelled;NONE;16384;0.7542565;0.4542936;0.4459834;0.1606648;3;-1;-2;2550;-2248;2197;65536;0.8056776;0.5789474;-0.04293629;0.1177285;0;-1;2;-542;-3849;-1277;8192;0.8261561;0.3808864;-0.4030471;-0.09972299;0;0;0;-1946;-2261;2757;32768;0.8498435;0.5138504;-0.04847645;-0.1066482;2;0;2;952;-3543;-1770;256;0.04293629;-0.033241;-0.5900277;-0.805555;0;1;-1;-161;3902;-1275;128;0.0401662;0.04570637;0.6426592;0.7637321;-1;0;0;-493;4109;670;4;-0.5110803;0.4861496;-0.5171642;-0.4847645;0;0;0;7;4042;214;16;0.6398892;-0.7674955;0.009695291;-0.03739612;0;0;0;291;3970;684;2;0.5520915;-0.5055401;-0.466759;-0.4709141;0;0;0;-229;4118;165;8;0.6551247;-0.7481315;0.005540166;0.1052632;0;0;0;-529;4051;635;0.515361;2.824629;-0.2228963;0.5213255;3.368187;-0.2690627;0.5265664;3.845802;-0.3116584;0.5067831;4.545484;-0.0913924;0.2390694;4.860583;-0.0298335;-0.09777347;4.698271;-0.01164396;-0.8335381;5.199049;-0.2689406;-0.8624217;6.092644;-0.5827061;0.7592048;4.875316;-0.02990764;1.052335;4.730848;-0.01180764;1.80397;5.255554;-0.308462;2.033402;6.071551;-0.7318984;0.2031009;2.782066;-0.2266731;0.1189735;1.32132;-0.2286588;0;0;0;0.2031009;2.782066;-0.2266731;0.1189735;1.32132;-0.2286588;0;0;0
946288.3175;NotLabelled;NONE;16384;0.7539602;0.4542936;0.4459834;0.1620499;3;-2;-1;2540;-2192;2203;65536;0.8056776;0.5789474;-0.04293629;0.1177285;0;-2;3;-552;-3847;-1309;8192;0.8261561;0.3808864;-0.4030471;-0.09972299;-1;0;0;-1926;-2245;2787;32768;0.8498435;0.5138504;-0.04847645;-0.1066482;2;-1;2;986;-3527;-1784;256;0.04293629;-0.033241;-0.5900277;-0.805555;0;2;-1;-89;3910;-1279;128;0.0401662;0.04570637;0.6426592;0.7637321;-1;0;1;-559;3997;698;4;-0.5110803;0.4861496;-0.5171642;-0.4847645;0;0;0;15;4084;240;16;0.6398892;-0.7674955;0.009695291;-0.03739612;0;1;0;231;3988;742;2;0.5520915;-0.5055401;-0.466759;-0.4709141;0;0;0;-225;4138;177;8;0.6551247;-0.7481315;0.005540166;0.1052632;0;0;0;-535;4005;611;0.515281;2.824606;-0.2274506;0.5212456;3.368163;-0.273617;0.5264866;3.845779;-0.3162127;0.5055243;4.545424;-0.09593894;0.2372854;4.860083;-0.03441334;-0.09929337;4.697218;-0.01627423;-0.8361107;5.19893;-0.268693;-0.8671783;6.092417;-0.5825573;0.7573959;4.875669;-0.03441331;1.05076;4.731681;-0.01627375;1.801166;5.257463;-0.3141288;2.028311;6.075176;-0.7354828;0.2030211;2.782042;-0.2312275;0.1184948;1.32132;-0.2289072;0;0;0;0.2030211;2.782042;-0.2312275;0.1184948;1.32132;-0.2289072;0;0;0
946308.8571;NotLabelled;NONE;16384;0.7553113;0.4529086;0.4445983;0.1634349;3;-1;-2;2584;-2282;2215;65536;0.8067436;0.5775623;-0.04155125;0.1177285;0;-1;3;-662;-3789;-1343;8192;0.8261561;0.3808864;-0.4030471;-0.09972299;-2;0;1;-2018;-2287;2781;32768;0.8500161;0.5138504;-0.04847645;-0.1052632;1;-3;2;1062;-3593;-1818;256;0.04293629;-0.033241;-0.5886427;-0.8065676;1;0;-1;-89;3816;-1305;128;0.0401662;0.04570637;0.6426592;0.7637321;0;0;0;-491;4029;704;4;-0.5110803;0.4861496;-0.5171642;-0.4847645;0;0;0;-7;4046;202;16;0.6398892;-0.7674955;0.009695291;-0.03739612;0;0;0;337;4032;738;2;0.5520915;-0.5055401;-0.466759;-0.4709141;0;0;0;-195;4144;193;8;0.6537396;-0.7493421;0.005540166;0.1052632;0;2;0;-661;4065;621;0.515281;2.824606;-0.2274506;0.5212456;3.368163;-0.273617;0.5264866;3.845779;-0.3162127;0.5055243;4.545424;-0.09593894;0.2372854;4.860083;-0.03441334;-0.09929337;4.697218;-0.01627423;-0.8364589;5.197536;-0.2704364;-0.8675265;6.091023;-0.5843006;0.7573959;4.875669;-0.03441331;1.05076;4.731681;-0.01627375;1.801831;5.257463;-0.3124505;2.028976;6.075174;-0.733804;0.2030211;2.782042;-0.2312275;0.1184948;1.32132;-0.2289072;0;0;0;0.2030211;2.782042;-0.2312275;0.1184948;1.32132;-0.2289072;0;0;0
946328.7675;NotLabelled;NONE;16384;0.7553113;0.4529086;0.4445983;0.1634349;3;-1;-2;2558;-2250;2207;65536;0.8065403;0.5775623;-0.04155125;0.1191136;0;-1;3;-538;-3889;-1323;8192;0.8256823;0.3822715;-0.4030471;-0.09833795;-2;-1;0;-1932;-2263;2789;32768;0.8492677;0.5152354;-0.04986149;-0.1038781;1;-2;2;870;-3525;-1776;256;0.04293629;-0.033241;-0.5886427;-0.8065676;1;0;-1;-135;3878;-1321;128;0.0401662;0.04570637;0.6426592;0.7637321;0;0;1;-479;4033;766;4;-0.5110803;0.4861496;-0.5171642;-0.4847645;0;1;0;-71;4104;228;16;0.6398892;-0.7674955;0.009695291;-0.03739612;0;0;0;223;4010;712;2;0.5520915;-0.5055401;-0.466759;-0.4709141;0;0;0;-35;4162;151;8;0.6537396;-0.7495443;0.004155125;0.1038781;0;6;0;-639;4001;655;0.5152693;2.824606;-0.2274611;0.5212339;3.368163;-0.2736275;0.5264749;3.845779;-0.3162232;0.5054102;4.544661;-0.09355137;0.2371214;4.859059;-0.03092049;-0.09942648;4.696074;-0.01330499;-0.8360597;5.194864;-0.2719719;-0.8685166;6.087095;-0.5892537;0.7572291;4.87474;-0.03092037;1.050621;4.730742;-0.01330449;1.801661;5.256525;-0.3095585;2.027459;6.074533;-0.7310625;0.2030093;2.782042;-0.2312379;0.118483;1.32132;-0.2289133;0;0;0;0.2030093;2.782042;-0.2312379;0.118483;1.32132;-0.2289133;0;0;0
946349.6126;NotLabelled;NONE;16384;0.7553113;0.4529086;0.4445983;0.1634349;3;-3;-2;2666;-2218;2209;65536;0.8065403;0.5775623;-0.04155125;0.1191136;0;-1;3;-714;-3849;-1295;8192;0.8256823;0.3822715;-0.4030471;-0.09833795;-2;0;0;-1988;-2243;2745;32768;0.8492677;0.5152354;-0.04986149;-0.1038781;1;-1;2;1008;-3479;-1752;256;0.04293629;-0.033241;-0.5886427;-0.8065676;1;1;0;-137;3868;-1311;128;0.0401662;0.04570637;0.6426592;0.7637321;-1;0;1;-513;4067;728;4;-0.5110803;0.4861496;-0.5171642;-0.4847645;0;1;0;-47;4098;232;16;0.6398892;-0.7674955;0.009695291;-0.03739612;0;1;0;275;3986;738;2;0.5520915;-0.5055401;-0.466759;-0.4709141;0;0;0;-95;4094;219;8;0.6537396;-0.7495507;0.002770083;0.1038781;-1;8;0;-601;4051;607;0.5152693;2.824606;-0.2274611;0.5212339;3.368163;-0.2736275;0.5264749;3.845779;-0.3162232;0.5054102;4.544661;-0.09355137;0.2371214;4.859059;-0.03092049;-0.09942648;4.696074;-0.01330499;-0.8360464;5.194863;-0.27201;-0.8700262;6.08698;-0.5894513;0.7572291;4.87474;-0.03092037;1.050621;4.730742;-0.01330449;1.800362;5.259464;-0.3076122;2.02693;6.078825;-0.7260604;0.2030093;2.782042;-0.2312379;0.118483;1.32132;-0.2289133;0;0;0;0.2030093;2.782042;-0.2312379;0.118483;1.32132;-0.2289133;0;0;0
946372.3673;NotLabelled;NONE;16384;0.7550103;0.4529086;0.4445983;0.1648199;3;-3;-2;2586;-2224;2171;65536;0.8066105;0.5775623;-0.0401662;0.1191136;0;-1;2;-660;-3923;-1343;8192;0.8256823;0.3822715;-0.4030471;-0.09833795;-1;0;-1;-1950;-2291;2749;32768;0.8492677;0.5152354;-0.04986149;-0.1038781;1;-1;2;928;-3501;-1802;256;0.04293629;-0.03185596;-0.5886427;-0.8066235;2;2;-1;-193;3830;-1273;128;0.0401662;0.04570637;0.6426592;0.7637321;-2;0;0;-505;4061;692;4;-0.5110803;0.4861496;-0.5171642;-0.4847645;0;0;-1;-13;4050;246;16;0.6398892;-0.7674768;0.01108033;-0.03739612;0;0;0;261;4026;774;2;0.5509176;-0.5055401;-0.468144;-0.4709141;-1;3;0;-179;4180;201;8;0.6537396;-0.7497452;0.001385042;0.1024931;0;7;0;-653;4041;699;0.5152693;2.824606;-0.2274611;0.5212339;3.368163;-0.2736275;0.5264749;3.845779;-0.3162232;0.5054102;4.544661;-0.09355137;0.2371214;4.859059;-0.03092049;-0.09942648;4.696074;-0.01330499;-0.8360464;5.194863;-0.27201;-0.8700262;6.08698;-0.5894513;0.7572291;4.87474;-0.03092037;1.050621;4.730742;-0.01330449;1.800362;5.259464;-0.3076122;2.02693;6.078825;-0.7260604;0.2030093;2.782042;-0.2312379;0.118483;1.32132;-0.2289133;0;0;0;0.2030093;2.782042;-0.2312379;0.118483;1.32132;-0.2289133;0;0;0
946393.8466;NotLabelled;NONE;16384;0.7550103;0.4529086;0.4445983;0.1648199;2;-2;-2;2606;-2228;2205;65536;0.8064047;0.5775623;-0.0401662;0.1204986;0;-2;3;-644;-3885;-1325;8192;0.8263569;0.3822715;-0.4016621;-0.09833795;-1;0;-1;-1952;-2271;2761;32768;0.849436;0.5152354;-0.04986149;-0.1024931;0;-1;2;912;-3493;-1796;256;0.04293629;-0.03185596;-0.5872576;-0.8076324;2;2;0;-201;3818;-1339;128;0.0401662;0.04432133;0.6426592;0.7638137;-2;1;1;-521;4013;728;4;-0.5110803;0.4861496;-0.5171642;-0.4847645;0;1;-1;13;4120;228;16;0.6398892;-0.767543;0.01108033;-0.03601108;0;0;0;245;3992;762;2;0.5509176;-0.5055401;-0.468144;-0.4709141;-1;5;0;-143;4166;139;8;0.6537396;-0.7499345;0;0.101108;0;14;0;-611;4035;587;0.5171229;2.824434;-0.2276719;0.5230874;3.367992;-0.2738382;0.5283284;3.845607;-0.3164339;0.5061204;4.54445;-0.09375075;0.2373176;4.858408;-0.03111457;-0.09896307;4.694871;-0.01350133;-0.8376424;5.192268;-0.2689973;-0.8744122;6.084149;-0.5867904;0.757399;4.874939;-0.03111473;1.051026;4.731422;-0.01350132;1.799441;5.260143;-0.3111632;2.025072;6.079506;-0.7301178;0.2048629;2.781871;-0.2314486;0.120342;1.321149;-0.2289349;0;0;0;0.2048629;2.781871;-0.2314486;0.120342;1.321149;-0.2289349;0;0;0
946414.9368;NotLabelled;NONE;16384;0.7563494;0.4515235;0.4432133;0.166205;2;-4;-1;2708;-2240;2223;65536;0.8073949;0.5761772;-0.0401662;0.1204986;1;-1;3;-672;-3887;-1355;8192;0.8257148;0.3836565;-0.4016621;-0.09833795;-2;-1;0;-1934;-2343;2781;32768;0.8486746;0.5166205;-0.04847645;-0.1024931;0;0;2;866;-3547;-1764;256;0.04293629;-0.03185596;-0.5872576;-0.8076324;3;2;-1;-111;3854;-1281;128;0.0401662;0.04432133;0.6412742;0.7649769;-1;1;1;-517;4051;684;4;-0.5110803;0.4875346;-0.5158588;-0.4847645;0;2;-1;31;4044;240;16;0.6398892;-0.767543;0.01108033;-0.03601108;0;1;0;303;3904;760;2;0.5521854;-0.5041551;-0.468144;-0.4709141;-1;4;1;-47;4158;175;8;0.6551247;-0.7489105;0;0.09972299;0;12;0;-437;4025;809;0.5142982;2.82459;-0.2282474;0.5202628;3.368146;-0.274434;0.5255038;3.845759;-0.3170475;0.5031974;4.543832;-0.09197167;0.2343464;4.857527;-0.02823288;-0.1019037;4.693872;-0.01114385;-0.840036;5.191279;-0.268198;-0.8783453;6.083039;-0.5861454;0.7544248;4.874148;-0.02823155;1.048079;4.730623;-0.0111405;1.795672;5.260117;-0.3094949;2.019953;6.079775;-0.7285974;0.2020382;2.782026;-0.2320226;0.1175176;1.321304;-0.2295044;0;0;0;0.2020382;2.782026;-0.2320226;0.1175176;1.321304;-0.2295044;0;0;0
946436.0481;NotLabelled;NONE;16384;0.7560437;0.4515235;0.4432133;0.16759;1;-3;-1;2666;-2226;2239;65536;0.8072547;0.5761772;-0.03878116;0.1218837;1;-1;1;-728;-3879;-1353;8192;0.8257148;0.3836565;-0.4016621;-0.09833795;-2;0;0;-1930;-2307;2749;32768;0.8487605;0.5166205;-0.04986149;-0.101108;0;-2;1;880;-3569;-1836;256;0.04293629;-0.03047091;-0.5858725;-0.8086911;2;2;-1;-187;3932;-1327;128;0.0401662;0.04432133;0.6412742;0.7649769;-1;2;1;-515;4089;756;4;-0.5110803;0.4875346;-0.5171568;-0.4833795;0;3;-2;23;4014;240;16;0.6398892;-0.7674768;0.01108033;-0.03739612;0;0;0;297;3938;746;2;0.5510082;-0.5041551;-0.4695291;-0.4709141;-1;5;0;-183;4122;235;8;0.6551247;-0.7490924;-0.001385042;0.09833795;0;7;0;-417;3987;501;0.5103644;2.824795;-0.2285111;0.5163308;3.368516;-0.2727205;0.5215734;3.846281;-0.3135965;0.4993027;4.544354;-0.08851717;0.2304618;4.858049;-0.02473576;-0.1057855;4.694394;-0.007593395;-0.8434241;5.189304;-0.2708093;-0.8810863;6.080029;-0.5917231;0.7505403;4.874671;-0.02481699;1.044197;4.731145;-0.007772505;1.791264;5.261283;-0.3063004;2.013209;6.082694;-0.7232076;0.1981046;2.782246;-0.2324534;0.1174812;1.321304;-0.2295231;0;0;0;0.1981046;2.782246;-0.2324534;0.1174812;1.321304;-0.2295231;0;0;0
946456.6156;NotLabelled;NONE;16384;0.7560437;0.4515235;0.4432133;0.16759;1;-2;0;2648;-2226;2187;65536;0.8072547;0.5761772;-0.03878116;0.1218837;2;-2;1;-706;-3953;-1309;8192;0.8258786;0.3836565;-0.4016621;-0.09695291;-1;0;0;-1944;-2285;2765;32768;0.8489243;0.5166205;-0.04986149;-0.09972299;0;-1;2;860;-3515;-1772;256;0.04155125;-0.03047091;-0.5858725;-0.8087635;1;2;-1;-181;3856;-1339;128;0.04155125;0.04293629;0.6412742;0.7649819;-2;4;1;-479;4027;784;4;-0.5124654;0.4889196;-0.5144717;-0.4833795;0;4;-1;1;4092;170;16;0.6398892;-0.7674955;0.009695291;-0.03739612;0;1;0;221;4018;786;2;0.5498214;-0.5041551;-0.4695291;-0.4722992;-1;4;0;-183;4024;207;8;0.6551247;-0.7492729;-0.001385042;0.09695291;0;5;0;-545;4003;749;0.5169687;2.824385;-0.2318921;0.5229352;3.368105;-0.2761014;0.5281777;3.845871;-0.3169775;0.5046395;4.543125;-0.0895023;0.2352311;4.856113;-0.02465604;-0.1007216;4.691794;-0.008091614;-0.8397689;5.186267;-0.268161;-0.8817213;6.076624;-0.5895623;0.7552786;4.873672;-0.02465601;1.049193;4.73062;-0.008091092;1.795682;5.26184;-0.3061424;2.017582;6.083197;-0.7231791;0.2047089;2.781835;-0.2358344;0.1198032;1.321149;-0.2292173;0;0;0;0.2047089;2.781835;-0.2358344;0.1198032;1.321149;-0.2292173;0;0;0
946476.7072;NotLabelled;NONE;16384;0.7560437;0.4515235;0.4432133;0.16759;0;-2;-1;2626;-2190;2247;65536;0.8060537;0.5775623;-0.03878116;0.1232687;1;-1;1;-668;-3925;-1269;8192;0.8258786;0.3836565;-0.4016621;-0.09695291;-1;0;0;-1936;-2351;2747;32768;0.8489243;0.5166205;-0.04986149;-0.09972299;1;0;1;872;-3539;-1844;256;0.04155125;-0.03047091;-0.5858725;-0.8087635;1;2;0;-93;3884;-1319;128;0.04155125;0.04293629;0.6412742;0.7649819;-2;4;1;-429;4095;706;4;-0.5124654;0.4889196;-0.5144717;-0.4833795;0;5;0;-45;4106;204;16;0.6398892;-0.7674955;0.009695291;-0.03739612;0;3;0;227;3998;702;2;0.5499051;-0.5027701;-0.4709141;-0.4722992;0;3;0;-185;4144;147;8;0.6551247;-0.7492691;-0.002770083;0.09695291;0;8;0;-543;4027;613;0.5099326;2.824813;-0.2287234;0.5158989;3.368523;-0.273055;0.5211414;3.846279;-0.3140384;0.4991635;4.543534;-0.08640805;0.2304558;4.85711;-0.02149019;-0.1058631;4.693539;-0.004959633;-0.8453372;5.18801;-0.2638136;-0.8878146;6.078368;-0.5851457;0.7505413;4.873507;-0.02149022;1.044135;4.729793;-0.00495939;1.789249;5.262206;-0.3043199;2.009133;6.083855;-0.7218502;0.1976727;2.782262;-0.2326554;0.1170556;1.321321;-0.2296467;0;0;0;0.1976727;2.782262;-0.2326554;0.1170556;1.321321;-0.2296467;0;0;0
946496.7407;NotLabelled;NONE;16384;0.7552148;0.4529086;0.4432133;0.16759;0;-3;0;2592;-2190;2231;65536;0.8060537;0.5775623;-0.03878116;0.1232687;1;0;1;-684;-3879;-1277;8192;0.8258786;0.3836565;-0.4016621;-0.09695291;0;0;0;-1926;-2355;2781;32768;0.8489243;0.5166205;-0.04986149;-0.09972299;0;0;1;842;-3597;-1862;256;0.04155125;-0.03047091;-0.5858725;-0.8087635;0;2;-1;-147;3904;-1259;128;0.04155125;0.04155125;0.6412742;0.7650584;-2;2;1;-479;4055;748;4;-0.5124654;0.4889196;-0.5157695;-0.4819945;0;5;0;-51;4072;240;16;0.6398892;-0.7674955;0.009695291;-0.03739612;0;3;0;319;3982;726;2;0.548716;-0.5027701;-0.4722992;-0.4722992;0;4;0;-113;4116;141;8;0.6551247;-0.7494406;-0.004155125;0.09556787;0;8;0;-471;4011;507;0.5099326;2.824813;-0.2287234;0.5158989;3.368523;-0.273055;0.5211414;3.846279;-0.3140384;0.4991635;4.543534;-0.08640805;0.2304558;4.85711;-0.02149019;-0.1058631;4.693539;-0.004959633;-0.8453347;5.18801;-0.2638203;-0.8900239;6.079274;-0.5823276;0.7505413;4.873507;-0.02149022;1.044135;4.729793;-0.00495939;1.789252;5.262206;-0.3043123;2.009136;6.083855;-0.7218428;0.1976727;2.782262;-0.2326554;0.1170556;1.321321;-0.2296467;0;0;0;0.1976727;2.782262;-0.2326554;0.1170556;1.321321;-0.2296467;0;0;0
946517.8293;NotLabelled;NONE;16384;0.7549061;0.4529086;0.4432133;0.1689751;0;-2;0;2670;-2216;2181;65536;0.8060537;0.5775623;-0.03878116;0.1232687;1;-1;0;-698;-3933;-1291;8192;0.8258786;0.3836565;-0.4016621;-0.09695291;0;0;0;-1948;-2339;2783;32768;0.8490859;0.5166205;-0.04986149;-0.09833795;0;0;0;948;-3587;-1816;256;0.04155125;-0.02908587;-0.5858725;-0.8088145;1;2;-1;-187;3870;-1363;128;0.04155125;0.04155125;0.6398892;0.7662172;-1;2;1;-497;4069;748;4;-0.5124654;0.4889196;-0.5157695;-0.4819945;0;4;0;-119;4112;220;16;0.6398892;-0.7674955;0.009695291;-0.03739612;0;1;0;327;3984;780;2;0.5487894;-0.501385;-0.4722992;-0.4736842;-1;4;0;-177;4118;199;8;0.6551247;-0.749607;-0.005540166;0.09418282;0;6;0;-501;4017;529;0.5142249;2.824558;-0.2322348;0.5201912;3.368267;-0.2765866;0.5254337;3.846021;-0.3175877;0.5034558;4.543277;-0.08995764;0.234748;4.856852;-0.0250399;-0.101571;4.69328;-0.008509249;-0.8410215;5.188998;-0.2650371;-0.8857104;6.080263;-0.5835449;0.7548335;4.873249;-0.02503985;1.048427;4.729535;-0.008508965;1.793544;5.261948;-0.3078622;2.013428;6.083596;-0.7253928;0.201965;2.782007;-0.236165;0.1170555;1.321321;-0.229647;0;0;0;0.201965;2.782007;-0.236165;0.1170555;1.321321;-0.229647;0;0;0
946537.807;NotLabelled;NONE;16384;0.7549061;0.4529086;0.4432133;0.1689751;0;-2;0;2654;-2242;2153;65536;0.8061191;0.5775623;-0.03739612;0.1232687;2;-1;0;-632;-3909;-1329;8192;0.8252338;0.3850415;-0.4016621;-0.09695291;-2;0;0;-1878;-2261;2747;32768;0.8490034;0.5166205;-0.05124654;-0.09833795;1;-2;0;874;-3545;-1922;256;0.04155125;-0.02908587;-0.5844875;-0.8098159;1;2;-1;-157;3896;-1341;128;0.04155125;0.04155125;0.6398892;0.7662172;-1;2;1;-465;4073;730;4;0.5157472;-0.4903047;0.5124654;0.4806094;0;3;0;-103;4090;204;16;0.6398892;-0.7674268;0.009695291;-0.03878116;0;2;0;271;3998;730;2;0.5487894;-0.501385;-0.4722992;-0.4736842;0;3;0;-189;4062;191;8;0.6551247;-0.749607;-0.005540166;0.09418282;0;5;0;-499;4001;835;0.5136563;2.824543;-0.2325516;0.5196243;3.36841;-0.2749292;0.5248684;3.84631;-0.3141957;0.5017918;4.543524;-0.08654952;0.2325843;4.856661;-0.02158311;-0.1034652;4.692542;-0.00500156;-0.8450584;5.185935;-0.2598194;-0.8905131;6.0772;-0.5782186;0.7526425;4.873904;-0.02166614;1.046472;4.730669;-0.005184829;1.790125;5.261984;-0.310077;2.00767;6.083923;-0.7282627;0.2013966;2.782007;-0.2366487;0.116503;1.32132;-0.2299272;0;0;0;0.2013966;2.782007;-0.2366487;0.116503;1.32132;-0.2299272;0;0;0
946559.593;NotLabelled;NONE;16384;0.7549061;0.4529086;0.4432133;0.1689751;0;-1;0;2670;-2212;2225;65536;0.8061191;0.5775623;-0.03739612;0.1232687;1;0;0;-676;-3929;-1291;8192;0.8252338;0.3850415;-0.4016621;-0.09695291;-2;0;0;-1866;-2399;2735;32768;0.8491626;0.5166205;-0.05124654;-0.09695291;1;-2;0;868;-3517;-1850;256;0.04155125;-0.02770083;-0.5844875;-0.8098645;2;0;0;-201;3854;-1373;128;0.04155125;0.04155125;0.6398892;0.7662172;0;2;1;-473;4083;722;4;0.5157472;-0.4903047;0.5124654;0.4806094;0;3;0;-65;4032;250;16;0.6398892;-0.7674431;0.008310249;-0.03878116;0;3;0;275;4016;726;2;0.5475944;-0.501385;-0.4736842;-0.4736842;0;2;0;-201;4118;203;8;0.6551247;-0.7497682;-0.006925208;0.09279778;0;4;0;-589;4049;503;0.5159239;2.824437;-0.2260292;0.521892;3.368303;-0.2684068;0.527136;3.846204;-0.3076733;0.5039347;4.542633;-0.07764949;0.2346729;4.855502;-0.01162712;-0.1013504;4.691272;0.004378239;-0.8422922;5.185593;-0.2505357;-0.8897961;6.076606;-0.5693406;0.7547283;4.87283;-0.01162677;1.048581;4.729588;0.004379287;1.792577;5.263733;-0.2946748;2.012351;6.085332;-0.712361;0.2036643;2.781901;-0.2301264;0.1193416;1.321166;-0.2293592;0;0;0;0.2036643;2.781901;-0.2301264;0.1193416;1.321166;-0.2293592;0;0;0
946580.6853;NotLabelled;NONE;16384;0.7549061;0.4529086;0.4432133;0.1689751;0;-4;0;2694;-2160;2195;65536;0.8061191;0.5775623;-0.03739612;0.1232687;1;0;0;-752;-3925;-1279;8192;0.8252338;0.3850415;-0.4016621;-0.09695291;-3;0;1;-1956;-2315;2763;32768;0.8491626;0.5166205;-0.05124654;-0.09695291;2;-2;0;850;-3517;-1842;256;0.04155125;-0.02770083;-0.5844875;-0.8098645;0;1;0;-197;3888;-1369;128;0.04155125;0.0401662;0.6398892;0.7662911;0;1;1;-435;4063;734;4;0.5158029;-0.4916897;0.5110803;0.4806094;0;3;0;-79;4144;260;16;0.6385041;-0.7685958;0.008310249;-0.03878116;0;3;0;255;3954;766;2;0.5488594;-0.5;-0.4736842;-0.4736842;-1;2;0;-201;4044;189;8;0.6551247;-0.7497682;-0.006925208;0.09279778;0;4;0;-551;4025;551;0.5130321;2.82461;-0.2267092;0.5190001;3.368476;-0.2690868;0.5242442;3.846377;-0.3083532;0.4999123;4.542763;-0.07831652;0.2301428;4.855192;-0.0122879;-0.1056134;4.690417;0.00371488;-0.8476934;5.184739;-0.2478655;-0.895914;6.075751;-0.5665626;0.7501692;4.873365;-0.01228808;1.044254;4.7306;0.003714859;1.786898;5.264746;-0.2986804;2.004398;6.086637;-0.7169849;0.2007724;2.782074;-0.2308063;0.1164516;1.321339;-0.2298498;0;0;0;0.2007724;2.782074;-0.2308063;0.1164516;1.321339;-0.2298498;0;0;0
946600.6618;NotLabelled;NONE;16384;0.7554066;0.4529086;0.4418283;0.1703601;-1;-1;0;2660;-2156;2233;65536;0.8061191;0.5775623;-0.03739612;0.1232687;1;0;0;-658;-3887;-1289;8192;0.8245861;0.3864266;-0.4016621;-0.09695291;-2;0;1;-2000;-2277;2767;32768;0.8483185;0.5180055;-0.05124654;-0.09695291;3;0;0;854;-3555;-1874;256;0.04155125;-0.02770083;-0.5844875;-0.8098645;1;0;0;-201;3886;-1339;128;0.04155125;0.0401662;0.6398892;0.7662911;0;0;0;-435;4053;778;4;0.5158029;-0.4916897;0.5110803;0.4806094;0;1;0;-157;4102;208;16;0.6385041;-0.7685958;0.008310249;-0.03878116;0;2;0;311;3998;802;2;0.5476609;-0.5;-0.4736842;-0.4750692;-1;1;0;-199;4144;143;8;0.6551247;-0.7499242;-0.008310249;0.09141274;0;3;0;-571;4061;579;0.5096136;2.823953;-0.2316508;0.5155816;3.367817;-0.2740489;0.5208257;3.845716;-0.3133334;0.4964936;4.542102;-0.08329655;0.2267241;4.854532;-0.0172682;-0.1090321;4.689757;-0.001265496;-0.8505451;5.184079;-0.254513;-0.8987653;6.075091;-0.57321;0.7467506;4.872705;-0.01726791;1.040835;4.72994;-0.001264766;1.784158;5.264085;-0.3019905;2.001658;6.085974;-0.720295;0.1973539;2.781416;-0.2357462;0.1169866;1.320458;-0.2345876;0;0;0;0.1973539;2.781416;-0.2357462;0.1169866;1.320458;-0.2345876;0;0;0
946620.8963;NotLabelled;NONE;16384;0.7554066;0.4529086;0.4418283;0.1703601;-1;0;0;2654;-2154;2185;65536;0.8061191;0.5775623;-0.03739612;0.1232687;2;0;0;-680;-3939;-1337;8192;0.82391;0.3864266;-0.4030471;-0.09695291;-3;0;1;-1936;-2279;2769;32768;0.8482336;0.5180055;-0.05263158;-0.09695291;4;0;0;906;-3583;-1902;256;0.04155125;-0.02770083;-0.5831025;-0.8108623;1;0;0;-173;3890;-1315;128;0.04155125;0.0401662;0.6398892;0.7662911;0;1;0;-487;4083;732;4;0.51709;-0.4916897;0.5110803;0.4792244;0;0;0;-193;4120;158;16;0.6385041;-0.7685958;0.008310249;-0.03878116;0;0;0;317;3972;796;2;0.5476609;-0.5;-0.4736842;-0.4750692;-1;1;0;-241;4108;185;8;0.6551247;-0.7499242;-0.008310249;0.09141274;0;3;0;-537;4035;571;0.5096136;2.823953;-0.2316508;0.5155816;3.367817;-0.2740489;0.5208257;3.845716;-0.3133334;0.4964936;4.542102;-0.08329655;0.2267241;4.854532;-0.0172682;-0.1090321;4.689757;-0.001265496;-0.8499666;5.183799;-0.2567419;-0.8981873;6.074812;-0.5754392;0.7467506;4.872705;-0.01726791;1.040835;4.72994;-0.001264766;1.783729;5.265813;-0.2999699;2.001148;6.089103;-0.7155545;0.1973539;2.781416;-0.2357462;0.1169866;1.320458;-0.2345876;0;0;0;0.1973539;2.781416;-0.2357462;0.1169866;1.320458;-0.2345876;0;0;0
946641.6581;NotLabelled;NONE;16384;0.7545744;0.4542936;0.4418283;0.1703601;-2;-1;0;2626;-2116;2161;65536;0.8051882;0.5789474;-0.03601108;0.1232687;2;-1;0;-670;-3855;-1321;8192;0.8232589;0.3878116;-0.4030471;-0.09695291;-4;0;2;-1882;-2395;2695;32768;0.8475436;0.5193906;-0.05263158;-0.09556787;5;-1;-1;840;-3567;-1838;256;0.04155125;-0.02770083;-0.5831025;-0.8108623;0;0;0;-195;3854;-1333;128;0.04155125;0.0401662;0.6398892;0.7662911;0;0;0;-479;4049;798;4;0.51709;-0.4916897;0.5110803;0.4792244;0;0;0;-89;4058;204;16;0.6385041;-0.7685958;0.008310249;-0.03878116;0;0;0;269;3970;776;2;0.5476609;-0.5;-0.4736842;-0.4750692;0;-1;0;-195;4078;193;8;0.6551247;-0.7499242;-0.008310249;0.09141274;0;1;0;-529;4005;469;0.5135004;2.823733;-0.2312965;0.5194684;3.367598;-0.2736946;0.5247125;3.845496;-0.312979;0.5002968;4.54109;-0.0805663;0.2304854;4.85325;-0.01344085;-0.1052426;4.688367;0.002039861;-0.8462075;5.182409;-0.2533482;-0.8944469;6.073421;-0.5720425;0.750509;4.871507;-0.01344064;1.044618;4.728734;0.00204052;1.788946;5.263844;-0.2944553;2.008522;6.086795;-0.7095739;0.2012407;2.781197;-0.235392;0.1169726;1.320458;-0.2345946;0;0;0;0.2012407;2.781197;-0.235392;0.1169726;1.320458;-0.2345946;0;0;0
946662.5941;NotLabelled;NONE;16384;0.7545744;0.4542936;0.4418283;0.1703601;-2;-2;0;2662;-2190;2197;65536;0.8051882;0.5789474;-0.03601108;0.1232687;3;0;0;-748;-3907;-1283;8192;0.8232589;0.3878116;-0.4030471;-0.09695291;-4;0;1;-1918;-2325;2773;32768;0.8474565;0.5193906;-0.05401662;-0.09556787;5;0;-1;900;-3591;-1820;256;0.04155125;-0.02770083;-0.5831025;-0.8108623;1;0;0;-223;3882;-1391;128;0.04155125;0.0401662;0.6398892;0.7662911;0;0;0;-475;4077;700;4;0.51709;-0.4916897;0.5110803;0.4792244;0;0;0;-59;4072;274;16;0.6385041;-0.7685246;0.008310249;-0.0401662;0;1;0;275;4000;722;2;0.5464599;-0.5;-0.4750692;-0.4750692;0;-1;0;-133;4108;189;8;0.6551247;-0.7499242;-0.008310249;0.09141274;0;0;0;-587;4033;555;0.5134998;2.823733;-0.2312967;0.5194677;3.367598;-0.2736949;0.5247118;3.845496;-0.3129794;0.5002961;4.54109;-0.08056661;0.2304846;4.85325;-0.01344104;-0.1052434;4.688367;0.002039837;-0.8461689;5.183649;-0.2510523;-0.8971662;6.075432;-0.5671501;0.7505082;4.871507;-0.01344116;1.044618;4.728734;0.002039924;1.788529;5.265563;-0.2923849;2.006678;6.090201;-0.7049026;0.2012401;2.781197;-0.2353922;0.1169722;1.320458;-0.2345947;0;0;0;0.2012401;2.781197;-0.2353922;0.1169722;1.320458;-0.2345947;0;0;0
946683.6958;NotLabelled;NONE;16384;0.7545744;0.4542936;0.4418283;0.1703601;-2;-1;0;2658;-2214;2181;65536;0.8051882;0.5789474;-0.03601108;0.1232687;3;0;0;-734;-3901;-1297;8192;0.8226051;0.3891967;-0.4030471;-0.09695291;-4;0;1;-1932;-2381;2731;32768;0.846606;0.5207756;-0.05401662;-0.09556787;6;1;0;900;-3583;-1776;256;0.04155125;-0.02770083;-0.5831025;-0.8108623;0;0;0;-231;3866;-1409;128;0.04155125;0.0401662;0.6398892;0.7662911;0;-5;0;-507;4045;714;4;0.51709;-0.4916897;0.5110803;0.4792244;0;1;0;-31;4148;210;16;0.6385041;-0.7685246;0.008310249;-0.0401662;0;1;0;311;4008;716;2;0.5464599;-0.5;-0.4750692;-0.4750692;0;-1;0;-165;4112;159;8;0.6551247;-0.7500752;-0.009695291;0.0900277;0;0;0;-607;4043;523;0.5163183;2.82358;-0.2307364;0.5222862;3.367444;-0.2731346;0.5275303;3.845343;-0.3124191;0.5031146;4.540936;-0.08000627;0.2333031;4.853097;-0.01288071;-0.1024249;4.688214;0.002600178;-0.8433504;5.183496;-0.250492;-0.8943477;6.075279;-0.5665898;0.7533268;4.871353;-0.01288082;1.047436;4.728581;0.002600268;1.791348;5.26541;-0.2918245;2.011676;6.089711;-0.7038565;0.2040586;2.781043;-0.2348318;0.1197907;1.320305;-0.2340344;0;0;0;0.2040586;2.781043;-0.2348318;0.1197907;1.320305;-0.2340344;0;0;0
946704.7726;NotLabelled;NONE;16384;0.7537388;0.4556787;0.4418283;0.1703601;-2;-1;0;2678;-2256;2207;65536;0.8051882;0.5789474;-0.03601108;0.1232687;3;0;0;-662;-3839;-1333;8192;0.8226051;0.3891967;-0.4030471;-0.09695291;-3;2;1;-1924;-2365;2715;32768;0.8457525;0.5221606;-0.05401662;-0.09556787;5;2;0;890;-3557;-1726;256;0.04293629;-0.02770083;-0.5831025;-0.8107901;0;0;0;-157;3872;-1345;128;0.04155125;0.0401662;0.6398892;0.7662911;0;0;0;-469;4137;766;4;0.51709;-0.4916897;0.5110803;0.4792244;-1;0;0;-41;4176;212;16;0.6385041;-0.7685383;0.006925208;-0.0401662;0;3;0;251;4016;836;2;0.5464599;-0.5;-0.4750692;-0.4750692;-1;0;1;-189;4086;227;8;0.6551247;-0.7500752;-0.009695291;0.0900277;0;1;0;-617;4055;599;0.5163189;2.82358;-0.2307363;0.5222868;3.367444;-0.2731343;0.527531;3.845343;-0.3124188;0.5031153;4.540936;-0.08000599;0.2333039;4.853097;-0.01288053;-0.1024241;4.688214;0.002600173;-0.8433492;5.183496;-0.2504928;-0.8943462;6.075279;-0.5665907;0.7533275;4.871353;-0.01288033;1.047437;4.72858;0.002600834;1.790912;5.267122;-0.2897885;2.01115;6.092808;-0.6990873;0.2040592;2.781043;-0.2348317;0.1197911;1.320305;-0.2340343;0;0;0;0.2040592;2.781043;-0.2348317;0.1197911;1.320305;-0.2340343;0;0;0
946725.8288;NotLabelled;NONE;16384;0.7540505;0.4556787;0.4418283;0.1689751;-2;0;0;2644;-2244;2139;65536;0.8041905;0.5803324;-0.03601108;0.1232687;4;0;0;-730;-3945;-1337;8192;0.8219483;0.3905817;-0.4030471;-0.09695291;-2;2;1;-1992;-2325;2677;32768;0.8455948;0.5221606;-0.05401662;-0.09695291;5;1;0;850;-3581;-1714;256;0.04155125;-0.02770083;-0.5831025;-0.8108623;0;0;1;-135;3898;-1275;128;0.04155125;0.0401662;0.6398892;0.7662911;-2;0;0;-571;4061;760;4;0.51709;-0.4916897;0.5110803;0.4792244;0;0;0;-33;3982;208;16;0.6385041;-0.7685383;0.006925208;-0.0401662;0;3;0;317;4052;816;2;0.5476609;-0.5;-0.4750692;-0.4736842;-1;0;1;-207;4148;225;8;0.6537396;-0.7511154;-0.009695291;0.09141274;-1;-2;0;-655;4055;705;0.5143317;2.823753;-0.2306305;0.5202996;3.367618;-0.2730285;0.5255437;3.845516;-0.312313;0.4995672;4.541105;-0.08005331;0.2290563;4.852674;-0.01299844;-0.1063014;4.687043;0.002516175;-0.846791;5.183556;-0.2494341;-0.8972739;6.075339;-0.5656146;0.7490376;4.872096;-0.01299866;1.043466;4.729986;0.002515987;1.787416;5.268529;-0.2886641;2.008221;6.095592;-0.6948634;0.202072;2.781217;-0.2347259;0.1178027;1.320478;-0.2340654;0;0;0;0.202072;2.781217;-0.2347259;0.1178027;1.320478;-0.2340654;0;0;0
946747.6627;NotLabelled;NONE;16384;0.7540505;0.4556787;0.4418283;0.1689751;-3;-1;0;2602;-2178;2171;65536;0.8032501;0.5817174;-0.03462604;0.1232687;4;3;0;-692;-3847;-1251;8192;0.8219483;0.3905817;-0.4030471;-0.09695291;-3;1;0;-1964;-2357;2689;32768;0.8447379;0.5235457;-0.05401662;-0.09695291;3;2;0;896;-3587;-1664;256;0.04293629;-0.02770083;-0.5831025;-0.8107901;1;0;1;-147;3854;-1389;128;0.04155125;0.0401662;0.6398892;0.7662911;-2;-1;0;-513;4001;752;4;0.51709;-0.4916897;0.5110803;0.4792244;0;4;0;43;4064;216;16;0.6385041;-0.7685383;0.006925208;-0.0401662;0;7;0;237;3994;754;2;0.5489223;-0.4986149;-0.4750692;-0.4736842;-2;0;1;-185;4078;255;8;0.6537396;-0.7511154;-0.009695291;0.09141274;0;0;0;-735;4065;557;0.5139491;2.823753;-0.2309588;0.5199171;3.367618;-0.2733569;0.5251611;3.845516;-0.3126414;0.5007454;4.54111;-0.08022861;0.230934;4.85327;-0.01310305;-0.1047941;4.688387;0.002377834;-0.844784;5.186297;-0.2482809;-0.8964556;6.079097;-0.5613861;0.7509576;4.871527;-0.01310316;1.045067;4.728755;0.002377912;1.788103;5.269005;-0.2879711;2.009595;6.09577;-0.6944028;0.2016894;2.781217;-0.2350541;0.1174215;1.320478;-0.2342567;0;0;0;0.2016894;2.781217;-0.2350541;0.1174215;1.320478;-0.2342567;0;0;0
946768.636;NotLabelled;NONE;16384;0.7532118;0.4570637;0.4418283;0.1689751;-4;0;0;2598;-2174;2131;65536;0.8034614;0.5817174;-0.03462604;0.1218837;4;1;-1;-664;-3853;-1269;8192;0.8212888;0.3919668;-0.4030471;-0.09695291;-1;2;0;-1984;-2341;2703;32768;0.843878;0.5249307;-0.05401662;-0.09695291;3;3;0;868;-3559;-1616;256;0.04293629;-0.02770083;-0.5817174;-0.8117844;2;0;1;-163;3838;-1371;128;0.04155125;0.04155125;0.6385041;0.7673718;-1;-1;0;-467;4075;764;4;0.51709;-0.4916897;0.5110803;0.4792244;0;7;0;31;4174;330;16;0.6385041;-0.7684759;0.005540166;-0.04155125;1;17;0;345;3944;760;2;0.5477205;-0.4986149;-0.4764543;-0.4736842;-1;-2;1;-213;4096;227;8;0.6537396;-0.7511154;-0.009695291;0.09141274;0;-4;0;-697;4067;555;0.5143317;2.823753;-0.2306305;0.5202996;3.367618;-0.2730285;0.5255437;3.845516;-0.312313;0.4995672;4.541105;-0.08005331;0.2290563;4.852674;-0.01299844;-0.1063014;4.687043;0.002516175;-0.8458824;5.184953;-0.2493461;-0.8998017;6.078504;-0.5599208;0.7490376;4.872096;-0.01299866;1.043466;4.729986;0.002515987;1.786973;5.270237;-0.2866234;2.009032;6.098371;-0.6899464;0.202072;2.781217;-0.2347259;0.1178027;1.320478;-0.2340654;0;0;0;0.202072;2.781217;-0.2347259;0.1178027;1.320478;-0.2340654;0;0;0
946789.8326;NotLabelled;NONE;16384;0.7532118;0.4570637;0.4418283;0.1689751;-3;0;0;2564;-2210;2121;65536;0.8034614;0.5817174;-0.03462604;0.1218837;4;1;-2;-680;-3837;-1269;8192;0.8212888;0.3919668;-0.4030471;-0.09695291;-1;2;0;-1998;-2261;2671;32768;0.843878;0.5249307;-0.05401662;-0.09695291;3;3;0;924;-3583;-1666;256;0.04155125;-0.02908587;-0.5817174;-0.811808;1;0;1;-195;3840;-1389;128;0.04155125;0.04155125;0.6385041;0.7673718;0;-3;-2;-531;4039;680;4;0.5170529;-0.4930748;0.5110803;0.4778393;-1;7;0;-87;4136;350;16;0.6385041;-0.7684085;0.004155125;-0.04293629;0;12;0;469;3984;784;2;0.5477205;-0.4986149;-0.4764543;-0.4736842;-2;-4;2;-233;4240;315;8;0.6537396;-0.7509455;-0.009695291;0.09279778;-1;-5;0;-757;4035;513;0.514722;2.82376;-0.230162;0.5206915;3.367776;-0.270568;0.5259372;3.845815;-0.3081021;0.4999192;4.540605;-0.07346681;0.2293783;4.8519;-0.005268961;-0.1059479;4.686162;0.009783376;-0.8456309;5.184382;-0.2411654;-0.8980909;6.078075;-0.5515808;0.7493566;4.871406;-0.005361021;1.043813;4.729292;0.009580135;1.786724;5.270189;-0.2798809;2.00859;6.099686;-0.6805019;0.2024624;2.781239;-0.2344257;0.1181933;1.3205;-0.2337452;0;0;0;0.2024624;2.781239;-0.2344257;0.1181933;1.3205;-0.2337452;0;0;0
946810.6097;NotLabelled;NONE;16384;0.7535211;0.4570637;0.4418283;0.16759;-3;0;0;2594;-2254;2155;65536;0.8024568;0.5831025;-0.03462604;0.1218837;5;0;-2;-496;-3981;-1203;8192;0.8211241;0.3919668;-0.4030471;-0.09833795;-1;2;1;-1898;-2353;2671;32768;0.8430148;0.5263157;-0.05401662;-0.09695291;1;4;0;894;-3567;-1664;256;0.04155125;-0.02908587;-0.5817174;-0.811808;1;0;2;-165;3906;-1325;128;0.0401662;0.04293629;0.6385041;0.7673693;-1;-4;-2;-567;4059;682;4;0.5184184;-0.4930748;0.5096953;0.4778393;-1;5;0;-175;4062;366;16;0.6385041;-0.7683361;0.002770083;-0.04432133;0;9;0;327;3964;730;2;0.5489153;-0.4986149;-0.4764543;-0.4722992;-3;-6;0;-293;4208;241;8;0.6537396;-0.7509621;-0.008310249;0.09279778;-3;-4;0;-833;4091;407;0.5157379;2.823754;-0.2336123;0.5217075;3.36777;-0.2740183;0.5269531;3.845809;-0.3115523;0.5035775;4.540647;-0.0767822;0.2342289;4.852971;-0.008567926;-0.1017373;4.688526;0.006394122;-0.8409913;5.187663;-0.243997;-0.893201;6.081355;-0.5544548;0.7542785;4.87047;-0.00856775;1.048182;4.727217;0.006394878;1.791586;5.269169;-0.2798086;2.013775;6.098667;-0.6802506;0.2034783;2.781233;-0.2378759;0.1188264;1.320524;-0.2332904;0;0;0;0.2034783;2.781233;-0.2378759;0.1188264;1.320524;-0.2332904;0;0;0
946830.7933;NotLabelled;NONE;16384;0.7526793;0.4584487;0.4418283;0.16759;-3;-2;0;2674;-2296;2131;65536;0.8024568;0.5831025;-0.03462604;0.1218837;4;0;-1;-508;-3915;-1249;8192;0.8204615;0.3933518;-0.4030471;-0.09833795;-1;0;1;-1896;-2321;2713;32768;0.8428544;0.5263157;-0.05401662;-0.09833795;1;3;1;912;-3573;-1658;256;0.04155125;-0.02908587;-0.5817174;-0.811808;0;0;2;-123;3974;-1405;128;0.0401662;0.04293629;0.6385041;0.7673693;1;-2;-1;-571;4105;654;4;0.5196916;-0.4930748;0.5096953;0.4764543;0;3;0;-145;4026;284;16;0.6385041;-0.7682588;0.001385042;-0.04570637;0;11;0;193;3970;744;2;0.5513005;-0.4986149;-0.4750692;-0.4709141;-5;-10;-4;-319;4270;325;8;0.6523545;-0.7519934;-0.008310249;0.09418282;-7;0;0;-673;4097;401;0.5157232;2.823812;-0.229122;0.5216929;3.367836;-0.2694059;0.5269387;3.845885;-0.3068325;0.5035655;4.540722;-0.07206208;0.2342177;4.853046;-0.003844928;-0.1017482;4.688601;0.01112065;-0.8402513;5.189076;-0.2388121;-0.8931408;6.083768;-0.5462629;0.7542672;4.870544;-0.003850147;1.04817;4.727292;0.01110946;1.792293;5.267981;-0.2756183;2.01438;6.098832;-0.6733004;0.2034637;2.781291;-0.233396;0.1192663;1.320549;-0.2329223;0;0;0;0.2034637;2.781291;-0.233396;0.1192663;1.320549;-0.2329223;0;0;0
946852.2557;NotLabelled;NONE;16384;0.7518646;0.4584487;0.4432133;0.16759;-2;0;-1;2700;-2354;2187;65536;0.8013875;0.5844875;-0.03601108;0.1218837;3;-1;-2;-614;-4017;-1159;8192;0.8204615;0.3933518;-0.4030471;-0.09833795;0;2;1;-1980;-2385;2669;32768;0.8429421;0.5263157;-0.05263158;-0.09833795;2;6;2;878;-3581;-1682;256;0.04155125;-0.02908587;-0.5803324;-0.8127987;0;0;2;-117;3938;-1373;128;0.0401662;0.04432133;0.6385041;0.7672905;2;0;-1;-547;4129;684;4;0.5183739;-0.4944598;0.5096953;0.4764543;2;7;-1;-173;4098;44;16;0.6385041;-0.7680889;-0.001385042;-0.04847645;-2;9;0;303;3996;724;2;0.552491;-0.4986149;-0.4736842;-0.4709141;-4;-11;-6;-271;4120;325;8;0.6523545;-0.7519934;-0.008310249;0.09418282;-8;-3;1;-421;4089;419;0.5200459;2.82361;-0.2283677;0.5260156;3.367635;-0.2686514;0.5312614;3.845683;-0.306078;0.5078858;4.540521;-0.07130784;0.2385371;4.852844;-0.003093455;-0.09742905;4.688399;0.01186865;-0.835894;5.190152;-0.2356065;-0.8887805;6.084843;-0.5430577;0.7585867;4.870343;-0.003093302;1.05249;4.72709;0.01186934;1.796173;5.26954;-0.2726642;2.019623;6.10009;-0.6702131;0.2077865;2.78109;-0.2326416;0.1197092;1.320576;-0.2325415;0;0;0;0.2077865;2.78109;-0.2326416;0.1197092;1.320576;-0.2325415;0;0;0
946871.643;NotLabelled;NONE;16384;0.7518646;0.4584487;0.4432133;0.16759;-3;1;-1;2676;-2348;2193;65536;0.8015969;0.5844875;-0.03601108;0.1204986;2;-1;-2;-662;-4093;-1155;8192;0.8204615;0.3933518;-0.4030471;-0.09833795;1;4;1;-2004;-2297;2731;32768;0.8419982;0.5277008;-0.05124654;-0.09972299;1;7;1;900;-3547;-1810;256;0.04155125;-0.02908587;-0.5803324;-0.8127987;0;0;3;-129;3940;-1369;128;0.0401662;0.04432133;0.6398892;0.7661359;3;2;-1;-587;4159;668;4;0.5196804;-0.4958449;0.5083103;0.4750692;4;6;0;-163;4012;106;16;0.6371191;-0.7691496;-0.001385042;-0.04986149;-2;4;-1;213;3904;682;2;0.5548505;-0.4986149;-0.4722992;-0.4695291;-1;-12;-8;-305;4122;267;8;0.6509695;-0.7532067;-0.006925208;0.09418282;-9;-9;0;-351;4049;503;0.5174102;2.823869;-0.2319453;0.5233799;3.367896;-0.2722081;0.5286257;3.845945;-0.3096164;0.5051643;4.539976;-0.07248141;0.2357727;4.852022;-0.003173936;-0.1001649;4.687472;0.01126774;-0.8401331;5.188093;-0.2339993;-0.891642;6.084027;-0.5380486;0.7558196;4.869606;-0.003174528;1.049748;4.726351;0.01126663;1.793397;5.268789;-0.2733757;2.014656;6.099683;-0.6714272;0.2051507;2.781349;-0.236221;0.1205696;1.320635;-0.231759;0;0;0;0.2051507;2.781349;-0.236221;0.1205696;1.320635;-0.231759;0;0;0
946893.1368;NotLabelled;NONE;16384;0.751326;0.4598338;0.4432133;0.166205;-3;0;0;2646;-2412;2171;65536;0.8005852;0.5858725;-0.03601108;0.1204986;1;-1;-3;-692;-4057;-1151;8192;0.8202943;0.3933518;-0.4030471;-0.09972299;1;2;1;-2042;-2325;2693;32768;0.8419982;0.5277008;-0.05124654;-0.09972299;1;7;1;916;-3527;-1744;256;0.0401662;-0.03047091;-0.5817174;-0.811827;-2;2;3;-83;3956;-1345;128;0.04293629;0.04293629;0.6398892;0.7660645;3;3;-1;-495;4103;642;4;0.5170826;-0.4972299;0.5083103;0.4764543;6;3;1;-59;4134;4;16;0.6371191;-0.7691459;-0.002770083;-0.04986149;-2;5;0;135;4114;740;2;0.5560265;-0.4986149;-0.4709141;-0.4695291;-2;-12;-9;-249;4136;273;8;0.6495845;-0.7542273;-0.006925208;0.09556787;-9;-4;0;-475;4071;551;0.5207392;2.82285;-0.2360894;0.5267074;3.366727;-0.2783243;0.5319515;3.844638;-0.3174654;0.5084897;4.53867;-0.08033051;0.2390981;4.850715;-0.01102339;-0.09683958;4.686166;0.003417686;-0.8367929;5.186795;-0.2418743;-0.8867607;6.082867;-0.5457759;0.7591449;4.868299;-0.01102307;1.053073;4.725044;0.00341852;1.79674;5.267493;-0.2811577;2.017104;6.099781;-0.6767898;0.2084796;2.780315;-0.2401987;0.1239877;1.319596;-0.235841;0;0;0;0.2084796;2.780315;-0.2401987;0.1239877;1.319596;-0.235841;0;0;0
946914.8469;NotLabelled;NONE;16384;0.751326;0.4598338;0.4432133;0.166205;-2;1;0;2700;-2300;2163;65536;0.8005217;0.5858725;-0.03739612;0.1204986;1;-1;-2;-622;-3947;-1105;8192;0.8202943;0.3933518;-0.4030471;-0.09972299;1;1;2;-2010;-2401;2751;32768;0.8419161;0.5277008;-0.04986149;-0.101108;0;7;0;898;-3591;-1704;256;0.03878116;-0.03047091;-0.5817174;-0.8118943;-3;2;3;-123;3910;-1351;128;0.04293629;0.04293629;0.6412742;0.7649055;5;1;-1;-503;4119;606;4;0.5184405;-0.4972299;0.5069252;0.4764543;7;1;3;-101;4172;82;16;0.6371191;-0.7691459;-0.002770083;-0.04986149;-1;4;0;201;4060;778;2;0.5584329;-0.4972299;-0.4695291;-0.4695291;-3;-6;-9;-201;4190;115;8;0.6495845;-0.7542273;-0.006925208;0.09556787;-9;0;0;-333;4069;643;0.5111616;2.823418;-0.2409485;0.5171295;3.367277;-0.2834101;0.5223736;3.845172;-0.3227504;0.5016782;4.540048;-0.08784315;0.2335365;4.853395;-0.01956969;-0.103062;4.690246;-0.004643466;-0.8417123;5.193586;-0.2483103;-0.8921453;6.090639;-0.5492268;0.7536498;4.868886;-0.0195609;1.046997;4.724498;-0.004623756;1.791973;5.265862;-0.2878403;2.012616;6.098149;-0.6833172;0.198902;2.780881;-0.2450385;0.1217884;1.319775;-0.2359826;0;0;0;0.198902;2.780881;-0.2450385;0.1217884;1.319775;-0.2359826;0;0;0
946936.7822;NotLabelled;NONE;16384;0.751326;0.4598338;0.4432133;0.166205;-2;2;0;2740;-2298;2079;65536;0.8005217;0.5858725;-0.03739612;0.1204986;0;-3;-3;-626;-3987;-1001;8192;0.8202943;0.3933518;-0.4030471;-0.09972299;1;0;2;-2028;-2353;2829;32768;0.841833;0.5277008;-0.05124654;-0.101108;0;4;-1;898;-3703;-1694;256;0.03878116;-0.03047091;-0.5817174;-0.8118943;-3;2;2;-109;3950;-1319;128;0.04293629;0.04293629;0.6412742;0.7649055;5;1;-1;-487;4083;648;4;0.5171643;-0.4972299;0.5069252;0.4778393;3;0;2;-187;4142;106;16;0.6371191;-0.7691459;-0.002770083;-0.04986149;-1;1;0;213;4058;806;2;0.5584329;-0.4972299;-0.4695291;-0.4695291;0;-3;-8;-75;4158;109;8;0.6481994;-0.7556033;-0.005540166;0.09418282;-8;2;0;-319;4075;657;0.5102894;2.823477;-0.2373521;0.5162555;3.367179;-0.2817888;0.521498;3.844927;-0.3228647;0.5023676;4.539799;-0.08781166;0.2349315;4.853733;-0.01946656;-0.1020321;4.691338;-0.004566741;-0.8412864;5.194575;-0.2466051;-0.8901432;6.091874;-0.547048;0.7550782;4.868056;-0.01946658;1.048101;4.723007;-0.004566327;1.792369;5.264252;-0.2898607;2.011559;6.096588;-0.686042;0.1980295;2.780926;-0.2412752;0.1214016;1.319775;-0.2361818;0;0;0;0.1980295;2.780926;-0.2412752;0.1214016;1.319775;-0.2361818;0;0;0
946980.623;NotLabelled;NONE;16384;0.7524461;0.4598338;0.4418283;0.1648199;0;0;2;2582;-2204;2045;65536;0.7990909;0.5872576;-0.04155125;0.1218837;0;-7;-7;-640;-3857;-1055;8192;0.8194426;0.3933518;-0.4044321;-0.101108;0;-1;1;-1976;-2347;2751;32768;0.8414956;0.5277008;-0.05124654;-0.1038781;-1;7;-1;1078;-3569;-1724;256;0.03878116;-0.03047091;-0.5831025;-0.8109002;-5;0;2;-123;3884;-1301;128;0.04432133;0.04293629;0.6426592;0.763663;2;0;0;-487;4041;692;4;0.515829;-0.4986149;0.5069252;0.4778393;4;-2;-2;-199;4078;242;16;0.6357341;-0.7703832;-0.001385042;-0.04847645;1;-5;0;231;3960;808;2;0.5606716;-0.4986149;-0.4653739;-0.4695291;7;-12;-4;-125;4002;271;8;0.6454294;-0.7582985;-0.006925208;0.09141274;-5;2;0;-355;3995;825;0.5063984;2.823675;-0.2377218;0.5123646;3.367376;-0.2821586;0.517607;3.845124;-0.3232344;0.4984766;4.539996;-0.08818138;0.2310406;4.85393;-0.01983628;-0.1059231;4.691535;-0.004936468;-0.8451437;5.194772;-0.2470784;-0.8940004;6.092071;-0.5475214;0.7511874;4.868254;-0.01983629;1.04421;4.723204;-0.004936054;1.788519;5.26445;-0.290126;2.009875;6.096437;-0.6858348;0.1941386;2.781123;-0.2416449;0.1214015;1.319775;-0.2361817;0;0;0;0.1941386;2.781123;-0.2416449;0.1214015;1.319775;-0.2361817;0;0;0
947000.609;NotLabelled;NONE;16384;0.7524461;0.4598338;0.4418283;0.1648199;0;0;3;2606;-2194;2091;65536;0.7990177;0.5872576;-0.04293629;0.1218837;0;-9;-5;-498;-3895;-973;8192;0.8194426;0.3933518;-0.4044321;-0.101108;1;0;1;-1934;-2313;2699;32768;0.8414068;0.5277008;-0.04986149;-0.1052632;-1;12;-1;926;-3515;-1696;256;0.03878116;-0.03185596;-0.5831025;-0.8108469;-4;0;2;-65;3816;-1281;128;0.04432133;0.04293629;0.6426592;0.763663;2;1;0;-515;3981;748;4;0.5131968;-0.5;0.5069252;0.4792244;3;-2;0;-123;4146;226;16;0.6371191;-0.7692381;-0.001385042;-0.04847645;1;-5;0;347;4052;838;2;0.5605861;-0.5;-0.4639889;-0.4695291;9;-14;-3;-117;4052;259;8;0.6454294;-0.7582985;-0.006925208;0.09141274;-3;0;0;-419;3941;817;0.5030518;2.822896;-0.2473998;0.509016;3.366423;-0.2939236;0.5142567;3.84401;-0.3368334;0.4952168;4.539681;-0.10415;0.2278252;4.853889;-0.03689943;-0.1091662;4.691599;-0.02147809;-0.8459796;5.197353;-0.2657081;-0.8908581;6.096217;-0.5620592;0.7479742;4.868129;-0.03689946;1.040972;4.723083;-0.02147788;1.787647;5.262337;-0.3042467;2.011746;6.093717;-0.6996862;0.1907918;2.780329;-0.2511463;0.1215723;1.318834;-0.2412975;0;0;0;0.1907918;2.780329;-0.2511463;0.1215723;1.318834;-0.2412975;0;0;0
947021.6913;NotLabelled;NONE;16384;0.7527481;0.4598338;0.4418283;0.1634349;0;0;3;2652;-2166;2119;65536;0.7987296;0.5872576;-0.04432133;0.1232687;-1;-8;-4;-556;-3985;-995;8192;0.8194426;0.3933518;-0.4044321;-0.101108;1;1;0;-1904;-2373;2675;32768;0.8412323;0.5277008;-0.04986149;-0.1066482;0;10;0;968;-3553;-1568;256;0.03739612;-0.03185596;-0.5844875;-0.8099142;-3;1;1;-223;3704;-1281;128;0.04432133;0.04155125;0.6440443;0.7625721;1;5;0;-415;3907;732;4;0.5145426;-0.4986149;0.5069252;0.4792244;1;-5;0;-121;4170;96;16;0.6371191;-0.7692394;0;-0.04847645;1;-5;0;217;3992;794;2;0.5616511;-0.501385;-0.4626039;-0.468144;5;-13;-3;-91;4024;301;8;0.6440443;-0.7594753;-0.006925208;0.09141274;-1;0;0;-327;4011;827;0.4955637;2.824099;-0.2470516;0.501528;3.367626;-0.2935754;0.5067687;3.845213;-0.3364852;0.4888557;4.540918;-0.1038117;0.2219734;4.855559;-0.03656582;-0.1152804;4.693816;-0.02114225;-0.8515425;5.19957;-0.2670291;-0.8936938;6.098673;-0.5630572;0.7421448;4.868957;-0.03656581;1.034908;4.723436;-0.02114201;1.782216;5.262689;-0.3022305;2.006403;6.094123;-0.6975099;0.1833037;2.781532;-0.2507982;0.1215009;1.319743;-0.236314;0;0;0;0.1833037;2.781532;-0.2507982;0.1215009;1.319743;-0.236314;0;0;0
947041.9451;NotLabelled;NONE;16384;0.7535594;0.4598338;0.4404432;0.1634349;0;1;5;2580;-2184;2133;65536;0.7986515;0.5872576;-0.04570637;0.1232687;-3;-8;-2;-468;-3887;-1091;8192;0.8194426;0.3933518;-0.4044321;-0.101108;1;3;0;-1946;-2295;2675;32768;0.8411365;0.5277008;-0.04847645;-0.1080332;0;7;0;994;-3503;-1606;256;0.03739612;-0.03185596;-0.5844875;-0.8099142;-2;2;1;-193;3752;-1357;128;0.04570637;0.04155125;0.6440443;0.7624903;2;3;0;-423;4037;738;4;0.5145426;-0.4986149;0.5069252;0.4792244;0;-8;0;-59;4074;94;16;0.6371191;-0.7693254;0;-0.04709141;1;-5;0;221;3902;866;2;0.561552;-0.5027701;-0.4612188;-0.468144;3;-12;-3;-99;4074;223;8;0.6440443;-0.7594753;-0.006925208;0.09141274;0;-2;0;-243;3951;825;0.5010667;2.823817;-0.2428798;0.5070291;3.367169;-0.2914045;0.5122681;3.844595;-0.3360725;0.4960107;4.541083;-0.1056319;0.2298809;4.85658;-0.03941713;-0.1077621;4.695697;-0.02350314;-0.8435165;5.202842;-0.2680408;-0.8856295;6.102061;-0.563723;0.7500831;4.868726;-0.0394171;1.042494;4.722552;-0.02350256;1.78932;5.261806;-0.3058689;2.014242;6.092934;-0.7013724;0.1888066;2.781238;-0.246457;0.1234916;1.319564;-0.2362796;0;0;0;0.1888066;2.781238;-0.246457;0.1234916;1.319564;-0.2362796;0;0;0
947061.7141;NotLabelled;NONE;16384;0.7538584;0.4598338;0.4404432;0.1620499;0;0;3;2518;-2270;1977;65536;0.7992902;0.5858725;-0.04847645;0.1246537;-4;-11;-5;-560;-3743;-1091;8192;0.8194426;0.3933518;-0.4044321;-0.101108;1;1;0;-1962;-2233;2689;32768;0.8409575;0.5277008;-0.04847645;-0.1094183;0;4;0;972;-3479;-1720;256;0.03739612;-0.03185596;-0.5844875;-0.8099142;0;2;1;-205;3796;-1363;128;0.04570637;0.04155125;0.6440443;0.7624903;2;2;0;-427;4073;628;4;0.5118774;-0.4986149;0.5083103;0.4806094;0;-2;1;-121;4086;124;16;0.6371191;-0.7693254;0;-0.04709141;2;-6;0;305;4002;842;2;0.5637273;-0.5041551;-0.4584487;-0.466759;2;-5;-1;11;3986;43;8;0.6440443;-0.7594866;-0.005540166;0.09141274;4;-1;0;-281;3879;905;0.4982578;2.823965;-0.2435152;0.50422;3.367307;-0.2921541;0.5094588;3.844724;-0.3369224;0.4931999;4.541212;-0.106482;0.2270696;4.856709;-0.04026897;-0.1105734;4.695826;-0.02435726;-0.8448126;5.204133;-0.2710259;-0.8848658;6.10359;-0.5662733;0.7472717;4.868855;-0.04026534;1.039682;4.722681;-0.02434899;1.786549;5.261993;-0.3064956;2.010671;6.093179;-0.7023339;0.1859977;2.781385;-0.2470827;0.1206827;1.319711;-0.2369058;0;0;0;0.1859977;2.781385;-0.2470827;0.1206827;1.319711;-0.2369058;0;0;0
947082.5965;NotLabelled;NONE;16384;0.754666;0.4598338;0.4390582;0.1620499;1;0;2;2436;-2246;2007;65536;0.7989877;0.5858725;-0.04986149;0.1260388;-2;-11;-4;-476;-3799;-1245;8192;0.8194426;0.3933518;-0.4044321;-0.101108;1;0;1;-1912;-2349;2789;32768;0.8409575;0.5277008;-0.04847645;-0.1094183;-1;1;0;786;-3593;-1750;256;0.03739612;-0.03185596;-0.5844875;-0.8099142;0;2;0;-189;3810;-1309;128;0.04570637;0.0401662;0.6440443;0.7625645;0;3;0;-427;3999;692;4;0.5118774;-0.4986149;0.5083103;0.4806094;0;-3;0;-203;4074;56;16;0.6371191;-0.7693254;0;-0.04709141;3;0;1;143;4036;888;2;0.5624855;-0.5055401;-0.4584487;-0.466759;4;-3;0;35;3942;71;8;0.6440443;-0.7594866;-0.005540166;0.09141274;5;0;0;-453;3881;897;0.494766;2.824079;-0.2479847;0.5007282;3.367421;-0.2966237;0.505967;3.844837;-0.341392;0.4897096;4.541325;-0.1109515;0.2235797;4.856822;-0.04473651;-0.1140631;4.69594;-0.0288225;-0.8473762;5.20558;-0.2754962;-0.8841618;6.104424;-0.5730274;0.743782;4.868968;-0.04473655;1.036193;4.722795;-0.02882208;1.783055;5.262048;-0.3110943;2.008536;6.092927;-0.7068038;0.1825058;2.781498;-0.2515522;0.1206809;1.319712;-0.2369067;0;0;0;0.1825058;2.781498;-0.2515522;0.1206809;1.319712;-0.2369067;0;0;0
947102.6317;NotLabelled;NONE;16384;0.754666;0.4598338;0.4390582;0.1620499;0;-1;1;2562;-2214;2065;65536;0.799914;0.5844875;-0.05124654;0.1260388;-1;-8;-2;-536;-3729;-1121;8192;0.8194426;0.3933518;-0.4044321;-0.101108;0;0;3;-1946;-2373;2733;32768;0.8409575;0.5277008;-0.04847645;-0.1094183;-2;0;0;934;-3677;-1562;256;0.03739612;-0.03185596;-0.5844875;-0.8099142;0;3;0;-219;3882;-1327;128;0.04570637;0.0401662;0.6440443;0.7625645;1;3;0;-319;4009;744;4;0.5132229;-0.4972299;0.5083103;0.4806094;0;-6;0;-117;4046;140;16;0.6385041;-0.7681763;0;-0.04709141;4;-3;1;191;4010;912;2;0.5612376;-0.5069252;-0.4584487;-0.466759;5;-2;1;33;3976;115;8;0.6440443;-0.7594866;-0.005540166;0.09141274;7;5;0;-637;3947;903;0.4947658;2.824079;-0.2479877;0.500728;3.367419;-0.2966472;0.5059668;3.844834;-0.3414336;0.4897094;4.541322;-0.1109933;0.2235795;4.856819;-0.04477844;-0.1140635;4.695937;-0.02886437;-0.8458893;5.206681;-0.2776624;-0.88217;6.105647;-0.5748864;0.7437817;4.868966;-0.04477847;1.036193;4.722792;-0.02886409;1.783054;5.262045;-0.311138;2.008535;6.092923;-0.7068481;0.1825057;2.781498;-0.2515535;0.1206809;1.319712;-0.2369074;0;0;0;0.1825057;2.781498;-0.2515535;0.1206809;1.319712;-0.2369074;0;0;0
947123.5849;NotLabelled;NONE;16384;0.754666;0.4598338;0.4390582;0.1620499;1;0;1;2596;-2150;2025;65536;0.7996945;0.5844875;-0.05124654;0.1274238;-2;-7;-1;-514;-3797;-1077;8192;0.8194426;0.3933518;-0.4044321;-0.101108;0;-3;3;-2006;-2367;2757;32768;0.8409575;0.5277008;-0.04847645;-0.1094183;-3;-5;0;1028;-3655;-1710;256;0.03739612;-0.03047091;-0.5844875;-0.8099675;-4;1;0;-255;3832;-1325;128;0.04570637;0.0401662;0.6454294;0.7613925;2;-2;0;-387;4079;648;4;-0.5083103;0.4972299;-0.5119223;-0.4819945;0;-6;0;-129;3974;202;16;0.6385041;-0.7682588;0.001385042;-0.04570637;5;-5;0;243;3958;820;2;0.5622638;-0.5083103;-0.4570637;-0.4653739;6;-2;3;19;4030;209;8;0.6454294;-0.7584642;-0.006925208;0.0900277;8;9;0;-575;4049;909;0.4977138;2.824856;-0.2388708;0.503676;3.368196;-0.2875303;0.5089147;3.84561;-0.3323166;0.4926574;4.542099;-0.1018761;0.2265275;4.857595;-0.03566111;-0.1111155;4.696713;-0.01974704;-0.8429407;5.207458;-0.2685462;-0.8764471;6.105681;-0.5683233;0.7467297;4.869741;-0.03566113;1.039141;4.723568;-0.01974671;1.786003;5.262821;-0.3020187;2.011484;6.093699;-0.6977285;0.1854537;2.782275;-0.2424366;0.1200823;1.320605;-0.2321854;0;0;0;0.1854537;2.782275;-0.2424366;0.1200823;1.320605;-0.2321854;0;0;0
947143.5912;NotLabelled;NONE;16384;0.7551717;0.4598338;0.4376731;0.1634349;3;0;0;2578;-2248;2079;65536;0.7996046;0.5844875;-0.05263158;0.1274238;-3;-9;-2;-562;-3779;-1181;8192;0.8194215;0.3919668;-0.4058172;-0.101108;0;-6;2;-2020;-2423;2697;32768;0.8419231;0.5263157;-0.04986149;-0.1080332;-2;-4;0;912;-3677;-1680;256;0.03739612;-0.03047091;-0.5858725;-0.8089663;-5;1;-1;-211;3870;-1345;128;0.04570637;0.0401662;0.6454294;0.7613925;4;0;0;-497;4061;700;4;-0.5083103;0.4972299;-0.5119223;-0.4819945;1;-6;-1;-19;4052;126;16;0.6385041;-0.7682588;0.001385042;-0.04570637;5;-4;0;265;4022;734;2;0.5610085;-0.5096953;-0.4570637;-0.4653739;6;-2;5;75;4142;221;8;0.6468144;-0.7572834;-0.006925208;0.0900277;11;2;-1;-411;4043;809;0.4938344;2.824847;-0.2509246;0.4997947;3.368005;-0.3015666;0.5050316;3.845253;-0.3480949;0.4876135;4.541711;-0.1176475;0.2209631;4.856775;-0.05146322;-0.1164203;4.695344;-0.03559538;-0.8492782;5.206987;-0.2794589;-0.8849678;6.105103;-0.5793093;0.741145;4.869765;-0.05139522;1.03379;4.724067;-0.03544438;1.779467;5.264352;-0.3188758;2.00411;6.09523;-0.7150615;0.1815741;2.782254;-0.2543225;0.1191517;1.320576;-0.2328278;0;0;0;0.1815741;2.782254;-0.2543225;0.1191517;1.320576;-0.2328278;0;0;0
947163.6076;NotLabelled;NONE;16384;0.7551717;0.4598338;0.4376731;0.1634349;2;0;-1;2560;-2250;2031;65536;0.7992902;0.5844875;-0.05401662;0.1288089;-3;-13;-2;-620;-3863;-1119;8192;0.8195912;0.3919668;-0.4058172;-0.09972299;0;-5;2;-1936;-2429;2627;32768;0.8419231;0.5263157;-0.04986149;-0.1080332;-1;-1;1;1042;-3625;-1770;256;0.03739612;-0.03047091;-0.5858725;-0.8089663;-4;2;-1;-205;3838;-1319;128;0.04432133;0.0401662;0.6454294;0.7614744;4;-1;0;-521;4099;672;4;-0.5069252;0.4958449;-0.514632;-0.4819945;0;-7;-1;41;4112;146;16;0.6398892;-0.7671055;0.001385042;-0.04570637;4;-3;1;269;4012;702;2;0.559747;-0.5110803;-0.4570637;-0.4653739;4;0;6;-135;4166;183;8;0.6481994;-0.7560982;-0.006925208;0.0900277;13;-7;-1;-373;4039;773;0.4938121;2.824847;-0.2509407;0.4997723;3.368005;-0.3015828;0.5050092;3.845253;-0.3481111;0.4877127;4.542497;-0.1200421;0.2211157;4.857827;-0.05492185;-0.1162927;4.696506;-0.0384875;-0.8481082;5.206974;-0.2878817;-0.881768;6.105325;-0.5872631;0.7412995;4.870734;-0.05492178;1.033923;4.725044;-0.03848703;1.782043;5.261817;-0.3221519;2.007512;6.091296;-0.7207959;0.1815517;2.782253;-0.2543385;0.1191311;1.320576;-0.2328383;0;0;0;0.1815517;2.782253;-0.2543385;0.1191311;1.320576;-0.2328383;0;0;0
947183.6047;NotLabelled;NONE;16384;0.7560133;0.4584487;0.4376731;0.1634349;3;0;-1;2654;-2160;2135;65536;0.7996585;0.5831025;-0.0567867;0.1315789;-3;-13;-1;-578;-3841;-1083;8192;0.8195912;0.3919668;-0.4058172;-0.09972299;0;-1;0;-1970;-2393;2633;32768;0.8421804;0.5263157;-0.04847645;-0.1066482;0;1;4;990;-3629;-1732;256;0.03739612;-0.02908587;-0.5858725;-0.8090173;-3;1;-1;-157;3828;-1263;128;0.04432133;0.0401662;0.6454294;0.7614744;2;-3;0;-467;4039;644;4;-0.5069252;0.4944598;-0.5146656;-0.4833795;-1;-4;1;85;4110;38;16;0.6412742;-0.7659443;0.002770083;-0.04570637;3;3;1;73;4010;614;2;0.5574737;-0.5110803;-0.4598338;-0.4653739;2;2;5;-225;4110;277;8;0.6509695;-0.7535594;-0.005540166;0.09141274;12;1;0;-815;3995;649;0.4974965;2.825476;-0.2499312;0.5034569;3.368645;-0.3004583;0.5086939;3.845903;-0.3468856;0.4913974;4.543147;-0.1188166;0.2248002;4.858477;-0.05369637;-0.1126083;4.697155;-0.03726216;-0.8444215;5.207623;-0.2866624;-0.8775771;6.106102;-0.5857157;0.7449842;4.871384;-0.05369623;1.037607;4.725694;-0.03726138;1.78483;5.263678;-0.3209993;2.010299;6.093155;-0.7196437;0.1852362;2.782883;-0.2533388;0.1185509;1.321454;-0.2281045;0;0;0;0.1852362;2.782883;-0.2533388;0.1185509;1.321454;-0.2281045;0;0;0
947204.7296;NotLabelled;NONE;16384;0.7560133;0.4584487;0.4376731;0.1634349;4;-1;-1;2630;-2222;2169;65536;0.7993298;0.5831025;-0.05817174;0.132964;-4;-10;0;-508;-3929;-1109;8192;0.8195912;0.3919668;-0.4058172;-0.09972299;0;-2;0;-2044;-2351;2729;32768;0.8421804;0.5263157;-0.04847645;-0.1066482;0;0;3;974;-3679;-1684;256;0.03739612;-0.02908587;-0.5872576;-0.8080124;-3;1;0;-181;3890;-1249;128;0.04432133;0.0401662;0.6468144;0.7602983;3;-5;0;-401;4097;646;4;-0.5069252;0.4944598;-0.5133612;-0.4847645;-1;-4;3;159;4130;34;16;0.6412742;-0.7658641;0.001385042;-0.04709141;1;8;1;177;4042;620;2;0.5574737;-0.5110803;-0.4598338;-0.4653739;0;2;4;-171;4198;337;8;0.6523545;-0.7523492;-0.006925208;0.09141274;11;6;0;-701;4133;489;0.4983808;2.82624;-0.2414869;0.5043411;3.36941;-0.292014;0.5095782;3.846667;-0.3384411;0.4911472;4.543879;-0.1103626;0.2240375;4.858773;-0.04523785;-0.113108;4.696903;-0.02880567;-0.8460876;5.206147;-0.2772823;-0.8781817;6.103909;-0.5785952;0.7441996;4.872528;-0.04523784;1.037059;4.727314;-0.02880527;1.782998;5.265297;-0.3159007;2.004043;6.095444;-0.7156312;0.1861205;2.783648;-0.2448945;0.1198486;1.32214;-0.2234071;0;0;0;0.1861205;2.783648;-0.2448945;0.1198486;1.32214;-0.2234071;0;0;0
947225.6206;NotLabelled;NONE;16384;0.756551;0.4570637;0.4376731;0.1648199;4;-1;-1;2680;-2246;2199;65536;0.8000051;0.5817174;-0.05955679;0.134349;-4;-6;2;-494;-3905;-1255;8192;0.8195912;0.3919668;-0.4058172;-0.09972299;0;-3;-1;-2022;-2341;2803;32768;0.8421804;0.5263157;-0.04847645;-0.1066482;-1;-1;3;952;-3683;-1676;256;0.03739612;-0.02908587;-0.5872576;-0.8080124;-5;1;-1;-213;3872;-1341;128;0.04293629;0.04155125;0.6468144;0.7603033;3;-6;0;-417;4039;630;4;-0.5069252;0.4944598;-0.5133612;-0.4847645;0;-1;3;-13;4092;72;16;0.6412742;-0.765779;0;-0.04847645;1;5;2;283;4052;612;2;0.5563283;-0.5110803;-0.4612188;-0.4653739;-1;5;3;-91;4244;295;8;0.6537396;-0.7513133;-0.006925208;0.0900277;9;6;0;-693;4097;445;0.4945338;2.826514;-0.2377113;0.5004921;3.369496;-0.2902223;0.5057272;3.846581;-0.3383928;0.4873845;4.54457;-0.1127007;0.2203178;4.859728;-0.04867716;-0.1168543;4.697967;-0.03172227;-0.8492972;5.207211;-0.2817767;-0.8808754;6.105107;-0.5827425;0.7404822;4.873401;-0.04867689;1.033318;4.728199;-0.0317214;1.779873;5.266183;-0.3172091;2.000936;6.096328;-0.7169297;0.1822734;2.78391;-0.2409508;0.12028;1.322166;-0.2230158;0;0;0;0.1822734;2.78391;-0.2409508;0.12028;1.322166;-0.2230158;0;0;0
947245.6079;NotLabelled;NONE;16384;0.756551;0.4570637;0.4376731;0.1648199;5;1;-2;2630;-2288;2191;65536;0.7997712;0.5817174;-0.05955679;0.1357341;-4;-5;3;-614;-3963;-1179;8192;0.8197586;0.3919668;-0.4058172;-0.09833795;-1;-1;-2;-1898;-2397;2723;32768;0.842259;0.5263157;-0.04709141;-0.1066482;-2;0;4;966;-3639;-1660;256;0.03739612;-0.02908587;-0.5886427;-0.807004;-5;1;0;-197;3950;-1289;128;0.04155125;0.04155125;0.6468144;0.7603803;1;0;0;-485;4139;660;4;-0.5069252;0.4930748;-0.5133836;-0.4861496;0;0;3;-15;4058;120;16;0.6412742;-0.765779;0;-0.04847645;0;6;1;119;4062;714;2;0.5551772;-0.5110803;-0.4626039;-0.4653739;-1;9;2;-113;4258;273;8;0.6551247;-0.7500917;-0.008310249;0.0900277;9;4;0;-583;4043;383;0.4949531;2.826542;-0.2373055;0.5009115;3.369536;-0.289686;0.5061468;3.846633;-0.3377419;0.4878042;4.544622;-0.1120502;0.2207376;4.85978;-0.04802659;-0.1164345;4.698019;-0.03107136;-0.8498104;5.204653;-0.2836794;-0.8801455;6.101702;-0.5872915;0.7409018;4.873453;-0.0480267;1.033738;4.728251;-0.03107132;1.780334;5.266234;-0.3164522;2.001396;6.09638;-0.7161735;0.1826926;2.783938;-0.240556;0.1206993;1.322195;-0.2226203;0;0;0;0.1826926;2.783938;-0.240556;0.1206993;1.322195;-0.2226203;0;0;0
947266.6845;NotLabelled;NONE;16384;0.757386;0.4556787;0.4376731;0.1648199;5;2;-2;2602;-2246;2223;65536;0.8007768;0.5803324;-0.05955679;0.1357341;-5;-2;4;-754;-3883;-1251;8192;0.8204428;0.3919668;-0.4044321;-0.09833795;0;-1;-1;-1982;-2359;2761;32768;0.8424333;0.5263157;-0.04709141;-0.1052632;-2;-1;4;954;-3543;-1692;256;0.03739612;-0.02908587;-0.5886427;-0.807004;-4;1;0;-129;3942;-1259;128;0.04155125;0.04155125;0.6481994;0.7591999;1;1;1;-517;4121;604;4;-0.5069252;0.4930748;-0.5133836;-0.4861496;0;2;3;43;4024;34;16;0.6412742;-0.76569;0;-0.04986149;1;8;2;149;3988;698;2;0.556449;-0.5096953;-0.4626039;-0.4653739;-1;11;2;-237;4196;277;8;0.6565097;-0.7488798;-0.008310249;0.0900277;8;-2;1;-431;3989;373;0.4946051;2.826599;-0.2333679;0.5005636;3.369604;-0.2856409;0.5057991;3.84671;-0.3336023;0.4875451;4.54547;-0.1103022;0.2205221;4.860887;-0.04738159;-0.1166769;4.699238;-0.02990339;-0.8500413;5.205873;-0.2825431;-0.8819103;6.102819;-0.5862975;0.7406885;4.874479;-0.04738155;1.0335;4.72929;-0.02990276;1.779206;5.268483;-0.3153275;1.998115;6.098988;-0.715489;0.1823447;2.783996;-0.2366275;0.1207092;1.322195;-0.2226142;0;0;0;0.1823447;2.783996;-0.2366275;0.1207092;1.322195;-0.2226142;0;0;0
947287.595;NotLabelled;NONE;16384;0.7574164;0.4542936;0.4390582;0.1648199;3;1;-1;2628;-2220;2201;65536;0.8016447;0.5789474;-0.05817174;0.1371191;-5;1;3;-686;-3847;-1213;8192;0.8206076;0.3919668;-0.4044321;-0.09695291;0;-3;-1;-2032;-2253;2767;32768;0.8426052;0.5263157;-0.04709141;-0.1038781;-1;-1;3;890;-3547;-1760;256;0.03739612;-0.02770083;-0.5900277;-0.8060406;-3;2;0;-23;4000;-1301;128;0.04155125;0.04155125;0.6481994;0.7591999;2;1;1;-487;4079;596;4;-0.5083103;0.4930748;-0.5120122;-0.4861496;1;5;2;65;4024;54;16;0.6412742;-0.7655986;0;-0.05124654;0;10;2;279;3986;730;2;0.5543421;-0.5069252;-0.4653739;-0.468144;-1;19;-1;-439;4010;199;8;0.6578947;-0.7476774;-0.006925208;0.0900277;6;-3;2;-601;4045;401;0.4974037;2.826457;-0.2329138;0.5033601;3.369267;-0.2871728;0.5085936;3.846194;-0.3368792;0.4903397;4.544955;-0.1135792;0.2233166;4.860372;-0.05065885;-0.1138822;4.698722;-0.0331805;-0.8473226;5.204119;-0.2880703;-0.8784459;6.100072;-0.59482;0.7434829;4.873963;-0.05065872;1.036295;4.728774;-0.03318012;1.780507;5.268748;-0.3210189;1.998055;6.09955;-0.721305;0.1851432;2.783842;-0.236005;0.1235077;1.322041;-0.221991;0;0;0;0.1851432;2.783842;-0.236005;0.1235077;1.322041;-0.221991;0;0;0
947308.5845;NotLabelled;NONE;16384;0.7574164;0.4542936;0.4390582;0.1648199;2;2;-1;2606;-2260;2157;65536;0.8027424;0.5775623;-0.0567867;0.1371191;-6;1;1;-734;-3851;-1231;8192;0.8206076;0.3919668;-0.4044321;-0.09695291;0;-2;-1;-1992;-2275;2759;32768;0.8426814;0.5263157;-0.04570637;-0.1038781;-1;-4;2;872;-3647;-1734;256;0.03739612;-0.02770083;-0.5900277;-0.8060406;-4;2;-1;-89;3870;-1269;128;0.04155125;0.04155125;0.6481994;0.7591999;4;0;1;-481;4063;574;4;0.5120498;-0.4944598;0.5069252;0.4861496;1;7;3;35;4070;184;16;0.6412742;-0.7654031;-0.002770083;-0.05401662;-1;16;2;269;3980;686;2;0.5520915;-0.5055401;-0.466759;-0.4709141;0;14;-3;-475;4084;263;8;0.6592798;-0.746468;-0.005540166;0.0900277;4;2;2;-715;4039;481;0.4993594;2.826347;-0.2285886;0.5053158;3.369156;-0.2828476;0.5105492;3.846084;-0.332554;0.4912386;4.545576;-0.1116422;0.2237424;4.860808;-0.04982249;-0.113218;4.69872;-0.03182236;-0.8487124;5.201774;-0.2854244;-0.8833668;6.096374;-0.595725;0.7438881;4.875171;-0.04982264;1.036913;4.730477;-0.03182235;1.779626;5.271656;-0.3212665;1.994936;6.102751;-0.7221496;0.1870989;2.783732;-0.2316799;0.125819;1.321883;-0.2216331;0;0;0;0.1870989;2.783732;-0.2316799;0.125819;1.321883;-0.2216331;0;0;0
947329.743;NotLabelled;NONE;16384;0.7574164;0.4542936;0.4390582;0.1648199;2;3;-1;2566;-2298;2185;65536;0.8027424;0.5775623;-0.0567867;0.1371191;-6;0;0;-730;-3799;-1313;8192;0.8206076;0.3919668;-0.4044321;-0.09695291;0;-2;-1;-2016;-2237;2751;32768;0.8427748;0.5263157;-0.04709141;-0.1024931;-2;-4;1;886;-3563;-1746;256;0.03739612;-0.02770083;-0.5900277;-0.8060406;-5;3;-2;-103;3898;-1281;128;0.04155125;0.04155125;0.6495845;0.7580152;5;1;0;-419;4051;668;4;0.5120498;-0.4944598;0.5069252;0.4861496;1;5;5;69;4038;216;16;0.6412742;-0.7652978;-0.004155125;-0.05540166;-2;19;2;219;3970;652;2;0.552175;-0.5041551;-0.466759;-0.4722992;0;9;-4;-463;4144;287;8;0.6592798;-0.746468;-0.005540166;0.0900277;3;1;3;-579;4039;417;0.495219;2.826647;-0.2169594;0.5011753;3.369456;-0.2712184;0.5064088;3.846384;-0.3209248;0.4870982;4.545875;-0.100013;0.219602;4.861108;-0.03819324;-0.1173585;4.699019;-0.02019312;-0.8528528;5.202073;-0.2737952;-0.8888306;6.09541;-0.5875639;0.7397477;4.875471;-0.0381934;1.032772;4.730776;-0.02019313;1.775486;5.271955;-0.3096372;1.988621;6.1034;-0.7109588;0.1829585;2.784032;-0.2200506;0.1266444;1.321949;-0.2207712;0;0;0;0.1829585;2.784032;-0.2200506;0.1266444;1.321949;-0.2207712;0;0;0
947349.6193;NotLabelled;NONE;16384;0.7582455;0.4529086;0.4390582;0.1648199;2;2;-1;2542;-2234;2087;65536;0.8036381;0.5761772;-0.05817174;0.1371191;-2;2;1;-514;-3873;-1369;8192;0.8206076;0.3919668;-0.4044321;-0.09695291;0;-3;-1;-2028;-2333;2755;32768;0.8438053;0.5249307;-0.04709141;-0.101108;-2;-6;0;848;-3603;-1654;256;0.03739612;-0.02631579;-0.5914127;-0.8050714;-6;3;-1;-121;3886;-1237;128;0.04155125;0.0401662;0.6495845;0.7580898;4;-1;1;-433;4055;718;4;0.5134172;-0.4944598;0.5055401;0.4861496;1;5;6;267;4012;152;16;0.6412742;-0.7650722;-0.006925208;-0.05817174;-4;27;2;191;4010;590;2;0.5522514;-0.5027701;-0.466759;-0.4736842;0;9;-4;-457;4110;173;8;0.6592798;-0.746468;-0.005540166;0.0900277;3;-6;3;-419;4063;455;0.4956285;2.826693;-0.2166817;0.5015826;3.3693;-0.2729296;0.506814;3.846042;-0.3243834;0.4875036;4.545533;-0.1034715;0.2200074;4.860766;-0.04165171;-0.1169532;4.698678;-0.02365169;-0.8524831;5.201732;-0.2771495;-0.8884611;6.095069;-0.5909185;0.7401531;4.875129;-0.04165193;1.033178;4.730434;-0.02365161;1.77585;5.271614;-0.3132008;1.989799;6.103002;-0.7142048;0.1833678;2.784067;-0.2196042;0.1270538;1.321984;-0.220325;0;0;0;0.1833678;2.784067;-0.2196042;0.1270538;1.321984;-0.220325;0;0;0
947369.7333;NotLabelled;NONE;16384;0.7582455;0.4529086;0.4390582;0.1648199;3;0;0;2560;-2238;2133;65536;0.8039722;0.5761772;-0.0567867;0.1357341;-2;5;1;-618;-3777;-1299;8192;0.8200861;0.3919668;-0.4058172;-0.09556787;0;-3;0;-1948;-2303;2765;32768;0.8438053;0.5249307;-0.04709141;-0.101108;-3;-4;1;874;-3543;-1630;256;0.03739612;-0.02631579;-0.5927978;-0.8040521;-5;2;-2;-117;3908;-1271;128;0.04155125;0.0401662;0.6509695;0.7569008;2;-1;1;-581;4079;746;4;0.5147774;-0.4944598;0.5041551;0.4861496;3;9;8;241;4022;182;16;0.6398892;-0.7659856;-0.009695291;-0.06094183;-7;25;2;353;3962;692;2;0.5535092;-0.501385;-0.466759;-0.4736842;0;4;-3;-413;4096;165;8;0.6606648;-0.7452579;-0.002770083;0.0900277;4;-12;2;-369;4043;487;0.4955533;2.826777;-0.2120773;0.5015073;3.369381;-0.2683434;0.5067387;3.846122;-0.3198132;0.486364;4.546334;-0.1012941;0.2183924;4.861378;-0.04057738;-0.1183282;4.69885;-0.02205602;-0.8549761;5.200663;-0.2747655;-0.8888474;6.093231;-0.5909487;0.738516;4.876515;-0.0405767;1.031754;4.73232;-0.02205408;1.773195;5.273509;-0.314721;1.984959;6.103835;-0.7190744;0.1832926;2.78415;-0.2149984;0.1273851;1.322059;-0.2196804;0;0;0;0.1832926;2.78415;-0.2149984;0.1273851;1.322059;-0.2196804;0;0;0
947390.6053;NotLabelled;NONE;16384;0.758769;0.4515235;0.4390582;0.166205;4;-1;0;2594;-2236;2249;65536;0.8043014;0.5761772;-0.05540166;0.134349;-3;15;3;-552;-3879;-1199;8192;0.8209068;0.3905817;-0.4058172;-0.09418282;0;-3;0;-1948;-2335;2693;32768;0.844914;0.5235457;-0.04847645;-0.09833795;-2;-3;2;908;-3525;-1746;256;0.03739612;-0.02493075;-0.5927978;-0.8040963;-5;1;-2;-91;3888;-1243;128;0.04155125;0.0401662;0.6509695;0.7569008;1;0;1;-549;4031;718;4;0.5174757;-0.4944598;0.501385;0.4861496;1;8;8;199;4098;242;16;0.6385041;-0.7668754;-0.01246537;-0.06371191;-9;23;2;247;4024;682;2;0.5523208;-0.501385;-0.466759;-0.4750692;0;0;-3;-329;4026;207;8;0.6606648;-0.7450932;-0.001385042;0.09141274;4;-16;2;-375;4033;473;0.4965773;2.826011;-0.2119457;0.5025291;3.368407;-0.2702022;0.5077583;3.844955;-0.3234208;0.4874668;4.545917;-0.1073108;0.2195363;4.861207;-0.04770329;-0.1172105;4.698794;-0.02865676;-0.8532927;5.200599;-0.2830276;-0.8876813;6.093023;-0.5995616;0.7396623;4.876267;-0.04770331;1.032877;4.732092;-0.02865648;1.775527;5.273701;-0.3174587;1.987309;6.104027;-0.7218022;0.1843165;2.783375;-0.2146977;0.1288379;1.321286;-0.2234528;0;0;0;0.1843165;2.783375;-0.2146977;0.1288379;1.321286;-0.2234528;0;0;0
947411.5899;NotLabelled;NONE;16384;0.758769;0.4515235;0.4390582;0.166205;4;0;0;2602;-2224;2229;65536;0.8059347;0.5747922;-0.05263158;0.1315789;-3;21;6;-522;-3897;-1251;8192;0.8209068;0.3905817;-0.4058172;-0.09418282;1;-2;0;-1926;-2281;2631;32768;0.844914;0.5235457;-0.04847645;-0.09833795;-1;-1;2;920;-3433;-1802;256;0.03601108;-0.02493075;-0.5941828;-0.8031366;-3;1;-2;-119;3864;-1243;128;0.04155125;0.0401662;0.6495845;0.7580898;-2;0;1;-553;3995;644;4;0.5201638;-0.4930748;0.4986149;0.4875346;1;9;10;339;4048;210;16;0.6357341;-0.7684247;-0.01939058;-0.07063711;-14;35;1;191;3956;648;2;0.5522966;-0.501385;-0.4653739;-0.4764543;1;-2;-2;-283;4086;27;8;0.6606648;-0.7449232;0;0.09279778;2;4;1;-831;4073;559;0.4966564;2.825196;-0.2079799;0.5026082;3.367591;-0.2662363;0.5078375;3.844139;-0.3194549;0.4863923;4.545064;-0.1033344;0.2179431;4.859911;-0.04372206;-0.1185358;4.696944;-0.02467796;-0.8561425;5.196113;-0.2798165;-0.8917738;6.088393;-0.596614;0.7380436;4.875827;-0.04372197;1.031495;4.732135;-0.02467747;1.773025;5.273249;-0.3172591;1.983423;6.102451;-0.7246243;0.1843957;2.782559;-0.2107319;0.1297991;1.320507;-0.2274671;0;0;0;0.1843957;2.782559;-0.2107319;0.1297991;1.320507;-0.2274671;0;0;0
947431.5911;NotLabelled;NONE;16384;0.758769;0.4515235;0.4390582;0.166205;3;0;0;2646;-2208;2225;65536;0.8065581;0.5747922;-0.04986149;0.1288089;-2;26;8;-630;-3891;-1201;8192;0.8209068;0.3905817;-0.4058172;-0.09418282;0;0;-1;-2038;-2237;2685;32768;0.844914;0.5235457;-0.04847645;-0.09833795;0;0;2;974;-3513;-1822;256;0.03601108;-0.02493075;-0.5941828;-0.8031366;-3;1;-1;-113;3852;-1241;128;0.0401662;0.04155125;0.6495845;0.7580898;-2;-2;0;-541;4003;708;4;0.5228051;-0.4930748;0.4958449;0.4875346;2;10;12;421;4020;136;16;0.632964;-0.7702002;-0.0235457;-0.07479224;-17;38;2;253;3944;702;2;0.5522966;-0.501385;-0.4653739;-0.4764543;1;-3;-1;-185;4200;57;8;0.6620498;-0.7436925;0;0.09279778;2;8;1;-481;4101;503;0.4984184;2.823529;-0.2028034;0.5043726;3.366134;-0.2590694;0.509604;3.842874;-0.3105392;0.4897979;4.544545;-0.09669815;0.2220892;4.860219;-0.03813504;-0.1147761;4.698112;-0.01859517;-0.8527545;5.19728;-0.2726575;-0.8892834;6.088248;-0.5930302;0.7422259;4.874905;-0.03813525;1.035335;4.730582;-0.01859514;1.776437;5.271696;-0.3122581;1.986182;6.100897;-0.7199599;0.1861578;2.780903;-0.2057244;0.1328376;1.318989;-0.2344144;0;0;0;0.1861578;2.780903;-0.2057244;0.1328376;1.318989;-0.2344144;0;0;0
947451.7178;NotLabelled;NONE;16384;0.7603903;0.4501385;0.4376731;0.166205;3;0;0;2546;-2204;2241;65536;0.8072417;0.5747922;-0.04570637;0.1260388;-2;30;7;-630;-3845;-1297;8192;0.8207467;0.3905817;-0.4058172;-0.09556787;0;2;0;-1924;-2273;2685;32768;0.844914;0.5235457;-0.04847645;-0.09833795;0;0;3;1004;-3507;-1776;256;0.03601108;-0.02493075;-0.5941828;-0.8031366;-2;0;0;-105;3812;-1299;128;0.0401662;0.04155125;0.6495845;0.7580898;-2;-2;0;-601;3985;720;4;0.5241152;-0.4930748;0.4944598;0.4875346;2;9;11;285;4032;400;16;0.6315789;-0.770784;-0.02770083;-0.07894737;-17;31;2;315;4012;732;2;0.5534607;-0.501385;-0.4639889;-0.4764543;2;-2;0;-153;4182;33;8;0.6620498;-0.7438641;0;0.09141274;3;-2;0;-339;4123;457;0.5000277;2.821735;-0.2024327;0.505982;3.364353;-0.2585764;0.5112135;3.841105;-0.3099387;0.4914073;4.542777;-0.09609766;0.2236986;4.85845;-0.03753465;-0.1131669;4.696342;-0.01799492;-0.8511792;5.195511;-0.2719581;-0.8888147;6.086205;-0.5929626;0.7438353;4.873136;-0.03753468;1.036944;4.728812;-0.01799449;1.778007;5.269927;-0.3117573;1.987752;6.099128;-0.7194588;0.187767;2.77911;-0.2053641;0.1354977;1.317337;-0.2420557;0;0;0;0.187767;2.77911;-0.2053641;0.1354977;1.317337;-0.2420557;0;0;0
947473.6003;NotLabelled;NONE;16384;0.7603903;0.4501385;0.4376731;0.166205;3;1;0;2602;-2286;2215;65536;0.8078213;0.5747922;-0.04293629;0.1232687;-1;23;7;-328;-3869;-1399;8192;0.8207467;0.3905817;-0.4058172;-0.09556787;0;0;0;-1952;-2247;2705;32768;0.845074;0.5235457;-0.04847645;-0.09695291;1;-2;2;804;-3611;-1746;256;0.03601108;-0.02493075;-0.5941828;-0.8031366;0;0;0;21;3884;-1273;128;0.04155125;0.04155125;0.6481994;0.7591999;-4;2;0;-675;3951;792;4;0.5254294;-0.4916897;0.4930748;0.4889196;-1;8;10;311;4068;296;16;0.6288089;-0.7726533;-0.03047091;-0.08171745;-17;19;0;365;3958;756;2;0.5534607;-0.501385;-0.4639889;-0.4764543;2;0;0;-203;4166;97;8;0.6620498;-0.7436925;0;0.09279778;3;-8;0;-407;4081;409;0.5014772;2.820917;-0.2012906;0.5074315;3.363534;-0.2574343;0.5126631;3.840287;-0.3087966;0.492857;4.541958;-0.09495555;0.2251483;4.857632;-0.03639245;-0.111717;4.695525;-0.01685259;-0.8482969;5.194523;-0.2752689;-0.8891339;6.084708;-0.5972944;0.745285;4.872318;-0.03639263;1.038394;4.727994;-0.01685251;1.78036;5.267904;-0.3105517;1.990104;6.097105;-0.7182536;0.1892166;2.778292;-0.204222;0.1375025;1.316604;-0.2448953;0;0;0;0.1892166;2.778292;-0.204222;0.1375025;1.316604;-0.2448953;0;0;0
947494.6084;NotLabelled;NONE;16384;0.7603903;0.4501385;0.4376731;0.166205;2;1;0;2470;-2314;2121;65536;0.8091571;0.5734072;-0.0401662;0.1218837;0;7;5;-488;-3771;-1307;8192;0.8200861;0.3919668;-0.4058172;-0.09556787;0;0;0;-2032;-2241;2731;32768;0.845074;0.5235457;-0.04847645;-0.09695291;0;-2;0;872;-3463;-1632;256;0.03601108;-0.02493075;-0.5941828;-0.8031366;-1;1;0;31;3898;-1289;128;0.04155125;0.04155125;0.6468144;0.7603803;-5;4;0;-737;3993;754;4;0.5267257;-0.4916897;0.4916897;0.4889196;1;6;7;209;3974;166;16;0.6260388;-0.7746965;-0.03185596;-0.08310249;-16;15;-1;157;4000;732;2;0.5534607;-0.501385;-0.4639889;-0.4764543;3;1;1;-321;4090;97;8;0.6620498;-0.7436913;0.001385042;0.09279778;2;-7;0;-455;4093;367;0.5029215;2.818927;-0.2012209;0.5088779;3.361737;-0.25548;0.5141113;3.838665;-0.3051863;0.4943053;4.540336;-0.0913457;0.2265967;4.85601;-0.03278281;-0.1102687;4.693902;-0.01324276;-0.8468136;5.192902;-0.2717596;-0.8887814;6.08283;-0.5943462;0.7467333;4.870696;-0.03278305;1.039842;4.726372;-0.0132429;1.781848;5.266283;-0.3068413;1.990237;6.095768;-0.7146558;0.190661;2.776312;-0.2043123;0.1398533;1.314836;-0.2529307;0;0;0;0.190661;2.776312;-0.2043123;0.1398533;1.314836;-0.2529307;0;0;0
947516.6081;NotLabelled;NONE;16384;0.7615097;0.4487534;0.4376731;0.1648199;2;0;0;2462;-2326;2073;65536;0.8094321;0.5734072;-0.03878116;0.1204986;1;5;5;-372;-3745;-1421;8192;0.8207467;0.3905817;-0.4058172;-0.09556787;0;1;0;-1968;-2133;2749;32768;0.8452318;0.5235457;-0.04847645;-0.09556787;-1;-2;0;844;-3445;-1626;256;0.03462604;-0.02493075;-0.5941828;-0.8031976;0;3;0;43;3814;-1331;128;0.04293629;0.04155125;0.6468144;0.7603033;-6;7;0;-705;3913;876;4;0.5292872;-0.4930748;0.4889196;0.4875346;2;14;4;167;4070;274;16;0.6218836;-0.7776167;-0.03462604;-0.08587258;-14;10;0;467;4050;980;2;0.5522653;-0.501385;-0.4639889;-0.4778393;0;4;0;-485;4066;21;8;0.6634349;-0.7422712;0.004155125;0.09418282;0;-9;0;-505;4023;335;0.5042785;2.816904;-0.2057077;0.5102369;3.359909;-0.2579808;0.5154724;3.837015;-0.3059422;0.4956663;4.538686;-0.09210122;0.2279575;4.854361;-0.03353816;-0.1089078;4.692252;-0.01399825;-0.8454878;5.191252;-0.2724143;-0.8894727;6.079759;-0.5986298;0.7480941;4.869046;-0.0335383;1.041203;4.724722;-0.01399821;1.782741;5.266331;-0.3056447;1.99113;6.095818;-0.7134591;0.1920181;2.774301;-0.2089673;0.1418046;1.312941;-0.2615424;0;0;0;0.1920181;2.774301;-0.2089673;0.1418046;1.312941;-0.2615424;0;0;0
947537.6112;NotLabelled;NONE;16384;0.7606918;0.4501385;0.4376731;0.1648199;3;-1;0;2470;-2392;1989;65536;0.8094321;0.5734072;-0.03878116;0.1204986;4;1;2;-612;-3665;-1447;8192;0.8207467;0.3905817;-0.4058172;-0.09556787;1;0;0;-2022;-2163;2699;32768;0.8452318;0.5235457;-0.04847645;-0.09556787;-1;-1;-3;820;-3429;-1730;256;0.03462604;-0.02493075;-0.5941828;-0.8031976;0;4;0;87;3692;-1299;128;0.04432133;0.0401662;0.6454294;0.7614744;-7;9;0;-663;3831;862;4;0.5305632;-0.4930748;0.4875346;0.4875346;3;13;3;11;4094;400;16;0.6204986;-0.7787223;-0.03462604;-0.08587258;-10;-1;-1;521;4124;854;2;0.5498947;-0.501385;-0.4653739;-0.4792244;1;5;0;-431;3996;-7;8;0.6634349;-0.7420942;0.004155125;0.09556787;-1;-1;0;-829;4063;459;0.5062209;2.813891;-0.2146212;0.5121793;3.356885;-0.2670018;0.5174146;3.833982;-0.3150576;0.4991683;4.535655;-0.1010861;0.2321616;4.851913;-0.04246314;-0.105063;4.69055;-0.02295166;-0.8412163;5.18965;-0.2823878;-0.8863202;6.078034;-0.6087861;0.7523297;4.865443;-0.04246311;1.045117;4.720465;-0.02295129;1.786594;5.260375;-0.3178829;1.992954;6.090145;-0.7261522;0.1939604;2.771287;-0.2178718;0.1445678;1.310041;-0.2742598;0;0;0;0.1939604;2.771287;-0.2178718;0.1445678;1.310041;-0.2742598;0;0;0
947558.5824;NotLabelled;NONE;16384;0.7611859;0.4501385;0.4362881;0.166205;3;-5;1;2400;-2352;1919;65536;0.8085144;0.5747922;-0.03739612;0.1204986;8;0;0;-568;-3711;-1457;8192;0.8207467;0.3905817;-0.4058172;-0.09556787;1;0;1;-1994;-2165;2627;32768;0.8451512;0.5235457;-0.04986149;-0.09556787;-1;-1;-1;940;-3399;-1732;256;0.033241;-0.02493075;-0.5941828;-0.8032561;2;6;-1;33;3694;-1291;128;0.04570637;0.0401662;0.6440443;0.7625645;-8;8;0;-667;3893;874;4;0.5318145;-0.4944598;0.4861496;0.4861496;1;10;1;39;4148;296;16;0.6204986;-0.7787827;-0.033241;-0.08587258;-6;-7;-1;309;3986;960;2;0.5498947;-0.501385;-0.4653739;-0.4792244;1;4;0;-381;4096;69;8;0.6634349;-0.7421006;0.002770083;0.09556787;-2;8;0;-759;4107;489;0.5063357;2.812693;-0.2151308;0.512296;3.355862;-0.2656579;0.5175332;3.83312;-0.3120851;0.4992869;4.534794;-0.09811318;0.2322803;4.85105;-0.03948997;-0.1049442;4.689688;-0.01997857;-0.8410116;5.190062;-0.2771946;-0.886116;6.078445;-0.6035923;0.7524484;4.864581;-0.03948994;1.045236;4.719604;-0.01997817;1.786753;5.259513;-0.3148102;1.993113;6.089283;-0.723079;0.1940754;2.7701;-0.2185384;0.1453277;1.308989;-0.2788455;0;0;0;0.1940754;2.7701;-0.2185384;0.1453277;1.308989;-0.2788455;0;0;0
947579.7512;NotLabelled;NONE;16384;0.7619781;0.4501385;0.434903;0.166205;3;-9;1;2376;-2344;1989;65536;0.8084491;0.5747922;-0.03878116;0.1204986;8;-7;-1;-460;-3869;-1287;8192;0.8205842;0.3905817;-0.4058172;-0.09695291;1;0;2;-1918;-2173;2741;32768;0.8451512;0.5235457;-0.04986149;-0.09556787;-2;-2;-2;908;-3389;-1826;256;0.03185596;-0.02216066;-0.5914127;-0.8054347;6;6;-2;-11;3802;-1367;128;0.04709141;0.03739612;0.6412742;0.7649518;-9;12;2;-597;3993;906;4;0.5317892;-0.4958449;0.4861496;0.4847645;1;10;-1;-43;4110;214;16;0.6204986;-0.7789341;-0.033241;-0.08448754;0;-10;0;111;4156;920;2;0.5498563;-0.501385;-0.4639889;-0.4806094;0;5;0;-339;4198;103;8;0.6620498;-0.7435171;0.001385042;0.09418282;-2;5;0;-399;4049;521;0.5079315;2.812476;-0.2152148;0.5138937;3.355815;-0.2638743;0.5191325;3.83323;-0.3086606;0.5024717;4.534904;-0.09456058;0.2361758;4.851743;-0.03584737;-0.101404;4.691126;-0.0163229;-0.8378515;5.190326;-0.2747293;-0.8862562;6.079518;-0.5984407;0.7563726;4.864117;-0.03590976;1.04884;4.718486;-0.0164606;1.789254;5.257373;-0.3158969;1.997073;6.086813;-0.7240977;0.1956713;2.769895;-0.2187807;0.1471536;1.308769;-0.2789179;0;0;0;0.1956713;2.769895;-0.2187807;0.1471536;1.308769;-0.2789179;0;0;0
947599.8023;NotLabelled;NONE;16384;0.7621254;0.4515235;0.432133;0.1689751;3;-11;0;2556;-2328;2135;65536;0.8061263;0.5775623;-0.04155125;0.1218837;6;-9;-4;-622;-3873;-1341;8192;0.8205562;0.3891967;-0.4072022;-0.09695291;1;0;5;-1936;-2189;2779;32768;0.8459249;0.5221606;-0.05124654;-0.09556787;-1;-5;-3;848;-3481;-1954;256;0.03047091;-0.02216066;-0.5900277;-0.8065034;9;6;-2;-3;3860;-1415;128;0.04986149;0.03601108;0.6398892;0.7660019;-11;13;1;-599;3983;924;4;0.5330198;-0.4972299;0.4847645;0.4833795;1;14;-4;-49;4072;132;16;0.6204986;-0.7789341;-0.033241;-0.08448754;3;-1;0;-239;3928;1360;2;0.549947;-0.5;-0.4653739;-0.4806094;-1;6;1;-317;4110;125;8;0.6620498;-0.7435171;0.001385042;0.09418282;-1;-1;-1;-333;4023;477;0.5040811;2.812727;-0.2209262;0.5100468;3.356394;-0.2657877;0.515289;3.83411;-0.3072367;0.4977085;4.534229;-0.0881785;0.2309953;4.850291;-0.02721298;-0.1063696;4.689092;-0.008808642;-0.8423607;5.190268;-0.2646762;-0.8906334;6.079706;-0.5877334;0.7511752;4.863357;-0.02721301;1.043837;4.717979;-0.008808285;1.783959;5.256684;-0.3092957;1.989295;6.086123;-0.7187517;0.1918212;2.770172;-0.2248133;0.1426414;1.308898;-0.2806512;0;0;0;0.1918212;2.770172;-0.2248133;0.1426414;1.308898;-0.2806512;0;0;0
947620.6012;NotLabelled;NONE;16384;0.7618169;0.4515235;0.432133;0.1703601;3;-9;0;2616;-2256;2169;65536;0.8059157;0.5775623;-0.04155125;0.1232687;5;-6;-5;-688;-4005;-1253;8192;0.8197024;0.3891967;-0.4085872;-0.09833795;0;0;5;-1992;-2245;2781;32768;0.8468484;0.5207756;-0.05263158;-0.09418282;0;-7;-4;870;-3555;-1958;256;0.03047091;-0.02077562;-0.5886427;-0.8075517;9;7;-2;-39;3854;-1409;128;0.05124654;0.03462604;0.6385041;0.7671292;-13;11;2;-599;4097;910;4;0.5329802;-0.4986149;0.4847645;0.4819945;3;12;-5;-81;4104;226;16;0.6191136;-0.7800354;-0.033241;-0.08448754;1;-2;0;395;3692;1602;2;0.549947;-0.5;-0.4653739;-0.4806094;-3;8;1;-257;4038;93;8;0.6620498;-0.7435133;0.002770083;0.09418282;-2;0;-1;-393;4009;425;0.5033506;2.812731;-0.2212199;0.5093178;3.356535;-0.264376;0.5145614;3.834379;-0.3043266;0.4984733;4.533742;-0.08275042;0.2324312;4.850143;-0.02062459;-0.105271;4.68959;-0.002769638;-0.8405536;5.191482;-0.2592703;-0.887926;6.083364;-0.575654;0.7526375;4.862113;-0.02062461;1.044994;4.716056;-0.00276944;1.786427;5.252282;-0.3044532;1.993288;6.080016;-0.7165803;0.1910908;2.770189;-0.2252512;0.1421686;1.308899;-0.2808911;0;0;0;0.1910908;2.770189;-0.2252512;0.1421686;1.308899;-0.2808911;0;0;0
947661.6319;NotLabelled;NONE;16384;0.7614681;0.4529086;0.4307479;0.1717452;0;-8;0;2658;-2214;2189;65536;0.8047735;0.5789474;-0.04432133;0.1232687;5;-3;-5;-782;-4019;-1289;8192;0.8190106;0.3891967;-0.4099723;-0.09833795;-2;0;8;-2062;-2241;2789;32768;0.8466718;0.5207756;-0.05540166;-0.09418282;3;-8;-4;1020;-3565;-2072;256;0.02908587;-0.01939058;-0.5872576;-0.8086449;7;6;-2;-109;3878;-1449;128;0.05263158;0.03185596;0.6357341;0.7694526;-12;9;2;-487;4075;858;4;0.5315945;-0.501385;0.4875346;0.4778393;-5;-6;-9;-331;4236;178;16;0.6204986;-0.7805874;-0.0166205;-0.0734072;5;-66;-5;353;4054;1046;2;0.54771;-0.4972299;-0.4695291;-0.4819945;-1;5;2;-243;4110;101;8;0.6620498;-0.7435171;0.001385042;0.09418282;-2;4;-1;-539;4079;507;0.5038173;2.811786;-0.230111;0.5097861;3.355732;-0.2714462;0.515031;3.833707;-0.3097966;0.4977338;4.532273;-0.08581424;0.2311418;4.847991;-0.02257889;-0.1062763;4.686784;-0.005249584;-0.8430498;5.18731;-0.2601377;-0.8926719;6.079071;-0.576519;0.7513261;4.860876;-0.02257916;1.04394;4.715271;-0.005249813;1.787076;5.249506;-0.3062752;1.993862;6.07582;-0.7212827;0.1915577;2.769258;-0.2342962;0.1422228;1.307829;-0.2857992;0;0;0;0.1915577;2.769258;-0.2342962;0.1422228;1.307829;-0.2857992;0;0;0
947702.6353;NotLabelled;NONE;16384;0.7607952;0.4542936;0.4293629;0.1745152;-2;-6;2;2802;-2230;2149;65536;0.8034041;0.5803324;-0.04709141;0.1246537;4;-2;-3;-658;-3977;-1241;8192;0.8167894;0.3905817;-0.4127424;-0.09972299;-6;1;6;-2140;-2331;2779;32768;0.8456889;0.5221606;-0.05955679;-0.09279778;10;-4;-2;1054;-3675;-1944;256;0.02770083;-0.01800554;-0.5831025;-0.8117265;8;2;0;-201;3900;-1393;128;0.05540166;0.02908587;0.6315789;0.7727825;-8;3;0;-477;4145;786;4;0.5264598;-0.501385;0.4930748;0.4778393;0;-16;-14;39;3934;-66;16;0.6232687;-0.7794757;-0.008310249;-0.06232687;9;-31;-3;-697;3980;1054;2;0.546488;-0.4972299;-0.4695291;-0.4833795;-1;1;3;-359;4118;53;8;0.6606648;-0.7447494;0;0.09418282;-2;2;-1;-467;4043;529;0.512946;2.811577;-0.2459925;0.5189178;3.355796;-0.2835677;0.5241655;3.834024;-0.3186141;0.5072295;4.53179;-0.09212242;0.2407976;4.847409;-0.02772982;-0.09669784;4.686305;-0.01094979;-0.8337755;5.187827;-0.2629845;-0.8810616;6.081098;-0.5754408;0.7609881;4.860039;-0.02772999;1.053532;4.71423;-0.01094979;1.797054;5.247683;-0.3124118;2.006593;6.073327;-0.7273699;0.2006868;2.769078;-0.2504951;0.1455798;1.307384;-0.2861478;0;0;0;0.2006868;2.769078;-0.2504951;0.1455798;1.307384;-0.2861478;0;0;0
947723.5984;NotLabelled;NONE;16384;0.7607473;0.4556787;0.4279778;0.1745152;-1;-4;2;2758;-2220;2131;65536;0.8024018;0.5817174;-0.04709141;0.1246537;3;-3;-1;-610;-3933;-1215;8192;0.8152531;0.3919668;-0.4141274;-0.101108;-8;1;6;-2176;-2329;2735;32768;0.8447334;0.5235457;-0.06094183;-0.09279778;12;-2;-3;1000;-3679;-1874;256;0.02770083;-0.01800554;-0.5817174;-0.8127197;6;2;0;-157;3946;-1373;128;0.05540166;0.02770083;0.6301939;0.7739632;-5;4;0;-543;4105;838;4;0.5238956;-0.501385;0.4944598;0.4792244;2;-10;-15;197;3842;-90;16;0.6246537;-0.7787014;-0.006925208;-0.05817174;13;-9;0;-495;4012;796;2;0.546488;-0.4972299;-0.4695291;-0.4833795;-2;-1;4;-307;4088;51;8;0.6606648;-0.7447494;0;0.09418282;-2;0;-1;-477;4003;491;0.5040795;2.813808;-0.2575622;0.5100552;3.358382;-0.2895731;0.5153066;3.836944;-0.31973;0.4987159;4.53232;-0.08597948;0.2324171;4.84733;-0.01814381;-0.1051162;4.686159;-0.002835298;-0.8447568;5.184741;-0.2531877;-0.8913665;6.079389;-0.5617812;0.7526115;4.859807;-0.01832952;1.045122;4.713746;-0.003245682;1.789394;5.243015;-0.3101795;2.002326;6.069325;-0.7220769;0.1918207;2.771358;-0.2625339;0.1343788;1.30945;-0.2821523;0;0;0;0.1918207;2.771358;-0.2625339;0.1343788;1.30945;-0.2821523;0;0;0
947764.7518;NotLabelled;NONE;16384;0.7607473;0.4556787;0.4279778;0.1745152;-1;-4;3;2760;-2232;2149;65536;0.8021029;0.5817174;-0.04847645;0.1260388;4;-5;-1;-610;-3959;-1235;8192;0.8145858;0.3933518;-0.4141274;-0.101108;-9;2;5;-2120;-2347;2689;32768;0.8430103;0.5263157;-0.06094183;-0.09279778;13;-2;-2;1018;-3691;-1778;256;0.02770083;-0.01800554;-0.5817174;-0.8127197;5;0;0;-89;3848;-1391;128;0.05540166;0.02770083;0.6301939;0.7739632;-5;4;0;-547;4069;736;4;0.5225005;-0.5041551;0.4944598;0.4778393;5;12;-9;53;4152;230;16;0.6274238;-0.776229;-0.009695291;-0.06094183;9;5;2;999;3962;984;2;0.5452563;-0.4986149;-0.4709141;-0.4819945;-1;-6;2;-169;4144;113;8;0.6592798;-0.7459757;0;0.09418282;-3;0;-1;-485;4005;481;0.4940724;2.815263;-0.2586589;0.5000494;3.359947;-0.288736;0.5053019;3.838613;-0.3171935;0.488574;4.533187;-0.08107989;0.2222235;4.847936;-0.0122448;-0.1152971;4.686678;0.002421461;-0.8522027;5.190189;-0.2461276;-0.8993182;6.08584;-0.5517174;0.7424165;4.860467;-0.01224466;1.034939;4.714386;0.002422124;1.782663;5.246385;-0.2911083;1.997885;6.073722;-0.6997378;0.1818139;2.772831;-0.2637935;0.1277338;1.310744;-0.2792131;0;0;0;0.1818139;2.772831;-0.2637935;0.1277338;1.310744;-0.2792131;0;0;0
947784.7362;NotLabelled;NONE;16384;0.7606943;0.4570637;0.4265928;0.1745152;-2;-5;2;2604;-2204;2117;65536;0.8021029;0.5817174;-0.04847645;0.1260388;4;-6;-1;-644;-3837;-1277;8192;0.8132094;0.3947368;-0.4155124;-0.101108;-9;2;4;-2110;-2309;2661;32768;0.8420426;0.5277008;-0.06232687;-0.09279778;14;0;-3;960;-3647;-1648;256;0.02770083;-0.01800554;-0.5803324;-0.8137093;5;0;0;-87;3910;-1367;128;0.0567867;0.02631579;0.6288089;0.7750369;-4;4;1;-487;4011;790;4;0.5236868;-0.5055401;0.4944598;0.4750692;2;11;-6;-37;4346;474;16;0.6288089;-0.7751371;-0.006925208;-0.06094183;6;-26;-1;1297;3998;842;2;0.5464775;-0.4986149;-0.4709141;-0.4806094;0;-4;1;-131;4102;203;8;0.6592798;-0.7457996;0;0.09556787;-3;0;0;-543;3993;487;0.4907618;2.817585;-0.2567829;0.4967387;3.362269;-0.28686;0.5019913;3.840935;-0.3153175;0.4852633;4.535509;-0.07920392;0.2189129;4.850258;-0.01036883;-0.1186077;4.689001;0.004297428;-0.8555133;5.192511;-0.2442517;-0.9020931;6.088287;-0.5495571;0.7391059;4.86279;-0.01036868;1.031628;4.716709;0.004298083;1.778967;5.250384;-0.2871638;1.994137;6.080438;-0.6902755;0.1785033;2.775153;-0.2619175;0.1277745;1.312882;-0.2689641;0;0;0;0.1785033;2.775153;-0.2619175;0.1277745;1.312882;-0.2689641;0;0;0
947805.5931;NotLabelled;NONE;16384;0.7614694;0.4570637;0.4252077;0.1745152;-2;-4;3;2648;-2260;2095;65536;0.8008775;0.5831025;-0.04847645;0.1274238;5;-5;0;-558;-3835;-1313;8192;0.8125356;0.3961219;-0.4155124;-0.101108;-9;2;3;-2102;-2335;2673;32768;0.841173;0.5290859;-0.06232687;-0.09279778;14;1;-2;860;-3679;-1616;256;0.02770083;-0.01800554;-0.5789474;-0.8146953;5;0;0;-159;3862;-1339;128;0.0567867;0.02631579;0.6288089;0.7750369;-3;2;0;-473;4105;744;4;0.5236026;-0.5069252;0.4944598;0.4736842;-5;5;-4;-87;4288;434;16;0.6288089;-0.7753759;-0.002770083;-0.05817174;4;-31;-3;377;4038;748;2;0.5464775;-0.4986149;-0.4709141;-0.4806094;0;1;1;-51;4064;243;8;0.6592798;-0.7457996;0;0.09556787;-3;-2;0;-463;4007;557;0.4990212;2.818024;-0.2555571;0.5049993;3.362804;-0.2838474;0.5102528;3.84156;-0.3107345;0.4934992;4.535325;-0.07225563;0.2271295;4.849811;-0.002297308;-0.1103714;4.688469;0.01188684;-0.8458303;5.19352;-0.2378204;-0.8924584;6.089295;-0.5431185;0.7473212;4.862396;-0.002357304;1.039862;4.716297;0.01175452;1.788181;5.249891;-0.2773325;2.005436;6.080945;-0.67725;0.1867629;2.775609;-0.260842;0.1319112;1.313473;-0.2640339;0;0;0;0.1867629;2.775609;-0.260842;0.1319112;1.313473;-0.2640339;0;0;0
947825.6028;NotLabelled;NONE;16384;0.7614694;0.4570637;0.4252077;0.1745152;-1;-4;2;2556;-2284;2127;65536;0.8007924;0.5831025;-0.04986149;0.1274238;6;-5;-1;-570;-3759;-1327;8192;0.8111793;0.398892;-0.4155124;-0.101108;-8;4;2;-2056;-2373;2617;32768;0.8384411;0.533241;-0.06371191;-0.09279778;12;1;-1;842;-3773;-1458;256;0.02908587;-0.01800554;-0.5775623;-0.8156295;5;0;0;-185;3906;-1369;128;0.0567867;0.02631579;0.6288089;0.7750369;-4;0;0;-421;4115;770;4;0.5222911;-0.5069252;0.4958449;0.4736842;-5;0;-4;-99;4076;68;16;0.6301939;-0.7744575;-0.001385042;-0.05540166;4;-4;-1;-197;4008;662;2;0.5464775;-0.4986149;-0.4709141;-0.4806094;0;5;1;-167;4090;237;8;0.6578947;-0.7470216;0;0.09556787;-2;-5;-1;-511;4015;571;0.5006428;2.817719;-0.2604458;0.5066208;3.362499;-0.288736;0.5118743;3.841256;-0.3156231;0.4950404;4.534205;-0.07478854;0.2286356;4.848423;-0.003770836;-0.1088488;4.686999;0.009853624;-0.8427674;5.193969;-0.2404922;-0.8915303;6.090624;-0.5428636;0.748826;4.861063;-0.003770649;1.041381;4.714946;0.009854354;1.789384;5.251148;-0.2751982;2.006639;6.083542;-0.6723226;0.1883844;2.775304;-0.2657308;0.1332738;1.313175;-0.2648315;0;0;0;0.1883844;2.775304;-0.2657308;0.1332738;1.313175;-0.2648315;0;0;0
947846.5906;NotLabelled;NONE;16384;0.7610902;0.4584487;0.4238227;0.1759003;-2;-5;0;2598;-2218;2165;65536;0.7994726;0.5844875;-0.05124654;0.1288089;4;-1;0;-586;-3785;-1259;8192;0.8104967;0.400277;-0.4155124;-0.101108;-7;4;2;-1994;-2393;2619;32768;0.8366729;0.536011;-0.06371191;-0.09279778;11;0;-2;850;-3749;-1448;256;0.02908587;-0.0166205;-0.5775623;-0.815659;5;0;-1;-209;3924;-1379;128;0.0567867;0.02493075;0.6274238;0.7762042;-4;0;0;-413;4105;758;4;0.523544;-0.5069252;0.4958449;0.4722992;-4;-2;-4;-113;3938;70;16;0.6315789;-0.7733247;-0.002770083;-0.05540166;4;13;0;-95;4014;696;2;0.5452809;-0.4986149;-0.4722992;-0.4806094;-2;4;1;-219;4136;191;8;0.6578947;-0.7468418;0.001385042;0.09695291;-2;-5;0;-619;4027;647;0.4977143;2.818799;-0.2605282;0.5036923;3.36358;-0.2888184;0.5089458;3.842336;-0.3157055;0.4904963;4.534457;-0.07262026;0.2233563;4.847813;-0.0005612541;-0.1137448;4.685549;0.01256555;-0.8472708;5.19252;-0.2389276;-0.8934866;6.089416;-0.5409855;0.7435154;4.861682;-0.000561133;1.036416;4.716213;0.01256602;1.784061;5.255724;-0.2671295;2.003994;6.091738;-0.6550707;0.1854559;2.776385;-0.2658131;0.1298723;1.314281;-0.2610078;0;0;0;0.1854559;2.776385;-0.2658131;0.1298723;1.314281;-0.2610078;0;0;0
947866.5911;NotLabelled;NONE;16384;0.7602541;0.4598338;0.4238227;0.1759003;-2;-4;0;2662;-2208;2109;65536;0.7997821;0.5844875;-0.04986149;0.1274238;5;1;-1;-696;-3819;-1225;8192;0.8098112;0.4016621;-0.4155124;-0.101108;-7;4;2;-2108;-2439;2651;32768;0.8356771;0.5373961;-0.06509695;-0.09279778;9;0;-2;1012;-3711;-1354;256;0.02908587;-0.0166205;-0.5775623;-0.815659;3;1;-1;-199;3898;-1405;128;0.0567867;0.02493075;0.6274238;0.7762042;-4;-1;0;-501;4015;770;4;0.5222287;-0.5069252;0.4972299;0.4722992;2;-1;-4;49;3918;-70;16;0.6315789;-0.7730952;-0.006925208;-0.05817174;4;14;0;137;3850;702;2;0.5453442;-0.4972299;-0.4736842;-0.4806094;-2;1;1;-269;4080;185;8;0.6578947;-0.7468418;0.001385042;0.09695291;-2;-3;-1;-553;4047;571;0.498131;2.819798;-0.2560321;0.50411;3.364675;-0.2823942;0.5093646;3.843523;-0.3075869;0.48984;4.53561;-0.06448817;0.2222084;4.848536;0.007612932;-0.1146305;4.685732;0.02078403;-0.8487511;5.192811;-0.2287488;-0.895788;6.090816;-0.5273647;0.7423445;4.863238;0.007540889;1.035479;4.718239;0.02062509;1.781364;5.258403;-0.2624911;2.000297;6.097022;-0.64534;0.1858729;2.777401;-0.2614792;0.1264358;1.31545;-0.2567752;0;0;0;0.1858729;2.777401;-0.2614792;0.1264358;1.31545;-0.2567752;0;0;0
947887.5925;NotLabelled;NONE;16384;0.7602541;0.4598338;0.4238227;0.1759003;-2;-2;-1;2652;-2232;2149;65536;0.798768;0.5858725;-0.04986149;0.1274238;4;2;0;-644;-3881;-1145;8192;0.80841;0.4030471;-0.4168975;-0.101108;-7;1;1;-2130;-2417;2593;32768;0.8347849;0.5387812;-0.06509695;-0.09279778;7;-3;0;1002;-3681;-1376;256;0.02908587;-0.0166205;-0.5761772;-0.816638;1;0;-1;-223;3840;-1383;128;0.0567867;0.02493075;0.6274238;0.7762042;-2;0;0;-517;3999;774;4;0.5221993;-0.5083103;0.4958449;0.4722992;4;2;-1;-95;4064;8;16;0.632964;-0.7719479;-0.008310249;-0.05817174;1;8;0;433;3960;722;2;0.5452985;-0.4986149;-0.4736842;-0.4792244;0;-1;1;-53;4064;137;8;0.6565097;-0.7478788;0.001385042;0.09833795;-1;-3;0;-523;4087;601;0.4972368;2.820042;-0.259247;0.5032157;3.364919;-0.2856092;0.5084702;3.843767;-0.3108019;0.488912;4.535854;-0.06770588;0.2212703;4.848781;0.004358053;-0.1155704;4.685976;0.01748251;-0.848985;5.195183;-0.2297821;-0.896499;6.093062;-0.5287021;0.7414066;4.863482;0.00435815;1.03454;4.718484;0.01748294;1.780747;5.26128;-0.2596846;2.001855;6.100837;-0.6392127;0.1849786;2.777646;-0.264694;0.1250885;1.315731;-0.2559933;0;0;0;0.1849786;2.777646;-0.264694;0.1250885;1.315731;-0.2559933;0;0;0
947909.7576;NotLabelled;NONE;16384;0.7602541;0.4598338;0.4238227;0.1759003;-2;-1;-2;2612;-2210;2089;65536;0.798768;0.5858725;-0.04986149;0.1274238;3;0;0;-378;-3951;-1057;8192;0.807718;0.4044321;-0.4168975;-0.101108;-6;0;2;-2092;-2441;2521;32768;0.8340423;0.5401662;-0.06509695;-0.09141274;6;-1;0;848;-3655;-1358;256;0.02908587;-0.0166205;-0.5761772;-0.816638;0;0;-1;-197;3800;-1331;128;0.0567867;0.02493075;0.6274238;0.7762042;-1;1;1;-503;4025;760;4;0.5221993;-0.5083103;0.4958449;0.4722992;3;4;-1;-33;4176;152;16;0.632964;-0.7718423;-0.008310249;-0.05955679;0;0;-1;595;3982;796;2;0.5452985;-0.4986149;-0.4736842;-0.4792244;1;0;2;-173;4036;205;8;0.6565097;-0.7478788;0.001385042;0.09833795;-1;-3;-1;-531;4043;529;0.4903159;2.821345;-0.2550412;0.4962951;3.366222;-0.2814034;0.5015496;3.84507;-0.306596;0.4819437;4.536327;-0.061153;0.2142769;4.848979;0.01199715;-0.1225458;4.686097;0.02460194;-0.8559722;5.195304;-0.2226268;-0.9041166;6.094157;-0.5185041;0.7344114;4.863736;0.0119971;1.027561;4.718723;0.02460213;1.7748;5.262329;-0.2481651;1.995852;6.103168;-0.6248764;0.1780578;2.778949;-0.2604883;0.1222287;1.316875;-0.2514479;0;0;0;0.1780578;2.778949;-0.2604883;0.1222287;1.316875;-0.2514479;0;0;0
947929.6297;NotLabelled;NONE;16384;0.7594804;0.4598338;0.4252077;0.1759003;-2;-1;-2;2700;-2214;2121;65536;0.798768;0.5858725;-0.04986149;0.1274238;1;1;0;-798;-3915;-1147;8192;0.807023;0.4058172;-0.4168975;-0.101108;-4;0;1;-2020;-2419;2543;32768;0.8331437;0.5415512;-0.06509695;-0.09141274;4;2;1;1088;-3777;-1300;256;0.02908587;-0.0166205;-0.5761772;-0.816638;2;-1;0;-239;3892;-1369;128;0.0567867;0.02493075;0.6274238;0.7762042;0;1;0;-427;4119;872;4;0.5208474;-0.5096953;0.4958449;0.4722992;2;2;-1;-61;4180;246;16;0.632964;-0.7718423;-0.008310249;-0.05955679;0;-2;-1;301;4034;848;2;0.5452985;-0.4986149;-0.4736842;-0.4792244;1;0;2;-267;4122;273;8;0.6565097;-0.7478788;0.001385042;0.09833795;-2;-3;0;-585;4025;555;0.4931457;2.821196;-0.2544294;0.4991248;3.366074;-0.2807916;0.5043794;3.844922;-0.3059842;0.4847734;4.536179;-0.06054121;0.2171066;4.848831;0.01260894;-0.119716;4.685948;0.02521373;-0.8531424;5.195156;-0.222015;-0.9012868;6.094008;-0.5178924;0.7372413;4.863587;0.01260889;1.03039;4.718574;0.02521392;1.777218;5.263805;-0.2454265;1.996834;6.106247;-0.6193881;0.1808876;2.7788;-0.2598766;0.1250585;1.316727;-0.2508362;0;0;0;0.1808876;2.7788;-0.2598766;0.1250585;1.316727;-0.2508362;0;0;0
947950.5996;NotLabelled;NONE;16384;0.7594804;0.4598338;0.4252077;0.1759003;-1;2;-3;2668;-2300;2135;65536;0.799073;0.5858725;-0.04847645;0.1260388;-1;3;2;-348;-3917;-1117;8192;0.8070396;0.4072022;-0.4155124;-0.101108;0;3;-1;-2098;-2489;2607;32768;0.8323489;0.5429363;-0.06371191;-0.09141274;2;4;2;878;-3827;-1312;256;0.03047091;-0.0166205;-0.5761772;-0.8165874;3;-1;0;-203;3938;-1397;128;0.0567867;0.0235457;0.6274238;0.7762475;-1;0;0;-403;4123;860;4;0.5208474;-0.5096953;0.4958449;0.4722992;0;0;0;-39;4138;100;16;0.632964;-0.7718423;-0.008310249;-0.05955679;0;4;0;163;4002;836;2;0.5440922;-0.4986149;-0.4750692;-0.4792244;0;0;2;-257;4150;243;8;0.6565097;-0.7476916;0.002770083;0.09972299;-2;-5;0;-569;4009;495;0.4895277;2.821296;-0.2587831;0.4955069;3.366174;-0.2851453;0.5007614;3.845022;-0.3103379;0.4811555;4.536279;-0.06489494;0.2134887;4.848931;0.008255223;-0.123334;4.686048;0.02086001;-0.8582322;5.194145;-0.2242748;-0.9063767;6.092997;-0.5201524;0.7336233;4.863687;0.008255169;1.026772;4.718674;0.0208602;1.773187;5.265524;-0.2476461;1.992759;6.109233;-0.6187661;0.1772697;2.7789;-0.2642303;0.1250585;1.316726;-0.2508361;0;0;0;0.1772697;2.7789;-0.2642303;0.1250585;1.316726;-0.2508361;0;0;0
947970.6065;NotLabelled;NONE;16384;0.7587032;0.4598338;0.4265928;0.1759003;0;1;-3;2556;-2204;2079;65536;0.799073;0.5858725;-0.04847645;0.1260388;-2;3;1;-750;-3799;-1153;8192;0.8070396;0.4072022;-0.4155124;-0.101108;1;3;-2;-2080;-2471;2561;32768;0.8312904;0.5443213;-0.06371191;-0.09279778;0;3;3;1074;-3767;-1274;256;0.03047091;-0.0166205;-0.5761772;-0.8165874;3;0;0;-181;3910;-1359;128;0.0567867;0.02493075;0.6260388;0.7773218;-4;-3;0;-377;4087;884;4;0.5221;-0.5096953;0.4958449;0.4709141;-1;0;-1;-139;4154;56;16;0.632964;-0.7718261;-0.009695291;-0.05955679;0;6;0;137;3952;854;2;0.5440922;-0.4986149;-0.4750692;-0.4792244;0;0;1;-159;4132;319;8;0.6565097;-0.7476916;0.002770083;0.09972299;-2;-5;0;-625;4037;327;0.489951;2.821297;-0.2585;0.4959301;3.366173;-0.2848866;0.5011846;3.84502;-0.3101008;0.4800152;4.536268;-0.06476232;0.211642;4.848325;0.008339363;-0.1248118;4.684684;0.02096701;-0.8593168;5.192781;-0.2253439;-0.9075007;6.091511;-0.5215889;0.731742;4.864257;0.008339658;1.025218;4.719909;0.02096793;1.770201;5.269204;-0.2465205;1.988173;6.114523;-0.6149117;0.1776929;2.778901;-0.2639451;0.1254604;1.316727;-0.2506351;0;0;0;0.1776929;2.778901;-0.2639451;0.1254604;1.316727;-0.2506351;0;0;0
947991.746;NotLabelled;NONE;16384;0.7587032;0.4598338;0.4265928;0.1759003;0;-1;-3;2562;-2258;2101;65536;0.799073;0.5858725;-0.04847645;0.1260388;-3;6;1;-578;-3823;-1087;8192;0.8070515;0.4085872;-0.4141274;-0.101108;1;1;-2;-2036;-2439;2585;32768;0.8314438;0.5443213;-0.06371191;-0.09141274;-2;0;4;910;-3765;-1382;256;0.03047091;-0.0166205;-0.5747922;-0.817563;2;0;0;-185;3846;-1345;128;0.05540166;0.02493075;0.6260388;0.7774217;-4;-5;0;-399;3963;784;4;0.5207443;-0.5110803;0.4958449;0.4709141;0;-3;-3;-253;4034;34;16;0.632964;-0.771718;-0.009695291;-0.06094183;1;-1;0;211;3894;850;2;0.5440922;-0.4986149;-0.4750692;-0.4792244;0;-1;1;-195;4162;353;8;0.6551247;-0.7489054;0.002770083;0.09972299;-3;-2;0;-707;4077;481;0.491468;2.82133;-0.2582403;0.4974481;3.366298;-0.2826525;0.5027035;3.845233;-0.3061316;0.4815342;4.536481;-0.06079341;0.2131611;4.848538;0.01230836;-0.1232927;4.684897;0.02493634;-0.8592295;5.19188;-0.2193872;-0.9074137;6.090609;-0.5156324;0.733261;4.86447;0.0123082;1.026737;4.720122;0.02493642;1.771761;5.269416;-0.2424401;1.991092;6.115661;-0.6078876;0.1792101;2.778954;-0.2638514;0.1231018;1.316921;-0.2507827;0;0;0;0.1792101;2.778954;-0.2638514;0.1231018;1.316921;-0.2507827;0;0;0
948012.6079;NotLabelled;NONE;16384;0.7587032;0.4598338;0.4265928;0.1759003;0;0;-4;2620;-2176;2067;65536;0.7991558;0.5858725;-0.04709141;0.1260388;-5;4;4;-314;-3985;-1001;8192;0.8070515;0.4085872;-0.4141274;-0.101108;1;0;-3;-2036;-2433;2585;32768;0.8315488;0.5443213;-0.06232687;-0.09141274;-3;0;3;786;-3775;-1420;256;0.03047091;-0.0166205;-0.5747922;-0.817563;0;-1;0;-219;3840;-1471;128;0.05540166;0.02493075;0.6260388;0.7774217;-2;-3;0;-461;4019;810;4;0.5207443;-0.5110803;0.4958449;0.4709141;0;-6;-3;-163;4026;152;16;0.632964;-0.7718261;-0.009695291;-0.05955679;1;-4;0;173;3996;814;2;0.5440394;-0.5;-0.4750692;-0.4778393;2;-4;1;-173;4190;237;8;0.6551247;-0.7489054;0.002770083;0.09972299;-3;-4;0;-561;4033;607;0.4906704;2.821269;-0.2619818;0.4966505;3.366243;-0.28625;0.501906;3.845185;-0.3096025;0.4806893;4.535596;-0.06192283;0.2122908;4.847375;0.01226283;-0.1241444;4.683657;0.02437137;-0.8601283;5.190639;-0.2198116;-0.908328;6.089368;-0.5160545;0.7323892;4.863361;0.01226303;1.025882;4.719003;0.0243721;1.768989;5.270739;-0.2433107;1.986895;6.117309;-0.6088576;0.1784124;2.778894;-0.2676048;0.125916;1.316773;-0.2501627;0;0;0;0.1784124;2.778894;-0.2676048;0.125916;1.316773;-0.2501627;0;0;0
948034.4054;NotLabelled;NONE;16384;0.7583808;0.4598338;0.4265928;0.1772853;0;0;-4;2720;-2202;2087;65536;0.8001693;0.5844875;-0.04709141;0.1260388;-6;5;0;-1026;-3859;-965;8192;0.8070515;0.4085872;-0.4141274;-0.101108;1;0;-3;-2068;-2461;2573;32768;0.8315488;0.5443213;-0.06232687;-0.09141274;-5;1;4;1082;-3671;-1426;256;0.03185596;-0.0166205;-0.5747922;-0.8175102;0;-1;0;-185;3868;-1449;128;0.05401662;0.02493075;0.6260388;0.7775192;-1;-2;0;-451;3983;796;4;0.519422;-0.5110803;0.4972299;0.4709141;0;-4;-1;-61;4120;142;16;0.632964;-0.7718261;-0.009695291;-0.05955679;1;0;-1;241;4004;744;2;0.5440394;-0.5;-0.4750692;-0.4778393;1;-5;2;-175;4098;233;8;0.6537396;-0.7499294;0.002770083;0.101108;-3;-4;0;-491;4051;649;0.4878433;2.821417;-0.2626067;0.4938234;3.366391;-0.2868749;0.499079;3.845333;-0.3102275;0.4778622;4.535744;-0.06254743;0.2094637;4.847524;0.01163834;-0.1269716;4.683805;0.02374688;-0.8629577;5.190788;-0.2204279;-0.913228;6.089278;-0.5170503;0.7295622;4.86351;0.01163854;1.023055;4.719151;0.02374756;1.766159;5.270888;-0.2439426;1.98192;6.117805;-0.6099544;0.1755853;2.779043;-0.2682298;0.1230889;1.316921;-0.2507884;0;0;0;0.1755853;2.779043;-0.2682298;0.1230889;1.316921;-0.2507884;0;0;0
948055.7337;NotLabelled;NONE;16384;0.7584389;0.4584487;0.4279778;0.1772853;2;2;-3;2666;-2206;2111;65536;0.8016903;0.5831025;-0.04570637;0.1232687;-5;9;1;-216;-3869;-1335;8192;0.8077607;0.4085872;-0.4127424;-0.101108;3;0;-5;-2058;-2409;2531;32768;0.8327072;0.5429363;-0.06094183;-0.0900277;-4;1;5;572;-3685;-1580;256;0.033241;-0.0166205;-0.5747922;-0.8174551;-1;-4;0;-219;3848;-1379;128;0.05401662;0.02631579;0.6260388;0.7774736;-1;-3;0;-397;4039;904;4;0.5207812;-0.5096953;0.4972299;0.4709141;0;-1;0;-3;4116;158;16;0.632964;-0.7718261;-0.009695291;-0.05955679;1;-1;0;223;3962;802;2;0.5451859;-0.501385;-0.4736842;-0.4764543;3;-6;3;-159;3986;127;8;0.6537396;-0.749923;0.004155125;0.101108;-2;-4;0;-519;3977;645;0.4887122;2.821347;-0.266322;0.4946924;3.366327;-0.2904496;0.4999481;3.845275;-0.3136786;0.4771709;4.535675;-0.0661076;0.2080682;4.846858;0.008030797;-0.1279956;4.682381;0.02016736;-0.8641252;5.187931;-0.2265332;-0.9133077;6.085447;-0.526274;0.7281291;4.864021;0.008025013;1.021948;4.720329;0.0201547;1.765898;5.271996;-0.2453191;1.982239;6.118915;-0.6109881;0.1764543;2.778973;-0.2719569;0.1234869;1.316921;-0.2505933;0;0;0;0.1764543;2.778973;-0.2719569;0.1234869;1.316921;-0.2505933;0;0;0
948077.5923;NotLabelled;NONE;16384;0.7584389;0.4584487;0.4279778;0.1772853;2;1;-4;2612;-2222;2121;65536;0.8016903;0.5831025;-0.04570637;0.1232687;-4;-2;0;-706;-3885;-1067;8192;0.8084669;0.4085872;-0.4113573;-0.101108;3;2;-6;-2102;-2487;2601;32768;0.8328074;0.5429363;-0.05955679;-0.0900277;-5;6;7;1092;-3711;-1504;256;0.033241;-0.01800554;-0.5747922;-0.8174257;1;-3;0;-233;3820;-1373;128;0.05263158;0.02631579;0.6260388;0.7775685;0;-5;0;-405;4043;882;4;0.5207812;-0.5096953;0.4972299;0.4709141;-1;1;0;-5;4084;20;16;0.632964;-0.7718261;-0.009695291;-0.05955679;0;-1;0;295;3988;810;2;0.5451859;-0.501385;-0.4736842;-0.4764543;3;-5;3;-147;4074;63;8;0.6537396;-0.7497349;0.004155125;0.1024931;-2;-4;0;-461;4027;663;0.4927577;2.821268;-0.2616524;0.4987379;3.36625;-0.2857561;0.5039935;3.845199;-0.308964;0.4796503;4.535586;-0.06150649;0.209843;4.846172;0.01257624;-0.1258481;4.680936;0.02473412;-0.8634946;5.184197;-0.2221178;-0.9105576;6.080722;-0.5251451;0.7298638;4.864511;0.01257656;1.024007;4.721486;0.02473498;1.76652;5.274053;-0.2428859;1.979952;6.120379;-0.6116196;0.1804997;2.778895;-0.2672894;0.1238906;1.316921;-0.2503939;0;0;0;0.1804997;2.778895;-0.2672894;0.1238906;1.316921;-0.2503939;0;0;0
948097.5951;NotLabelled;NONE;16384;0.7581139;0.4584487;0.4279778;0.1786704;2;0;-5;2574;-2160;2117;65536;0.8026958;0.5817174;-0.04570637;0.1232687;-2;1;1;-674;-3779;-1403;8192;0.8091702;0.4085872;-0.4099723;-0.101108;4;3;-7;-2108;-2441;2591;32768;0.8329054;0.5429363;-0.05817174;-0.0900277;-6;-1;7;896;-3735;-1550;256;0.03462604;-0.01800554;-0.5747922;-0.8173682;1;-4;0;-291;3842;-1399;128;0.05124654;0.02631579;0.6260388;0.777661;0;-5;0;-371;4067;920;4;0.5195254;-0.5096953;0.4972299;0.4722992;0;-4;0;-267;4102;18;16;0.632964;-0.7719479;-0.008310249;-0.05817174;0;-5;0;251;3978;840;2;0.5439089;-0.5027701;-0.4736842;-0.4764543;2;-1;1;-157;4070;125;8;0.6523545;-0.7509404;0.004155125;0.1024931;-2;-3;0;-501;4057;671;0.4933595;2.821267;-0.2612336;0.4993397;3.366255;-0.2852013;0.5045954;3.845209;-0.3082896;0.481356;4.535639;-0.06084549;0.2120453;4.846656;0.01323394;-0.1239089;4.681957;0.02539857;-0.8604352;5.185155;-0.2249005;-0.9068149;6.081679;-0.5280333;0.7320946;4.864167;0.01322827;1.026009;4.720673;0.02538635;1.76828;5.273999;-0.2413326;1.980395;6.120665;-0.6100467;0.1811016;2.778895;-0.266882;0.1244546;1.316921;-0.2501142;0;0;0;0.1811016;2.778895;-0.266882;0.1244546;1.316921;-0.2501142;0;0;0
948117.7333;NotLabelled;NONE;16384;0.758167;0.4570637;0.4293629;0.1786704;2;0;-6;2666;-2158;2119;65536;0.8026958;0.5817174;-0.04570637;0.1232687;-1;-1;0;-734;-3953;-1233;8192;0.809868;0.4072022;-0.4099723;-0.101108;3;0;-7;-2096;-2447;2619;32768;0.8339549;0.5415512;-0.05817174;-0.08864266;-5;1;7;774;-3677;-1654;256;0.03462604;-0.01800554;-0.5747922;-0.8173682;0;-3;0;-259;3858;-1511;128;0.05124654;0.02770083;0.6260388;0.777613;-1;-6;0;-427;4033;922;4;0.5181963;-0.5096953;0.4986149;0.4722992;0;-6;0;-287;4106;110;16;0.634349;-0.7709134;-0.008310249;-0.0567867;0;-7;0;273;3972;850;2;0.5450416;-0.5041551;-0.4722992;-0.4750692;3;-5;2;-65;4128;185;8;0.6523545;-0.7509314;0.005540166;0.1024931;0;-3;0;-581;4081;673;0.4894353;2.821362;-0.2616748;0.4954156;3.366355;-0.2855101;0.5006713;3.845315;-0.3084822;0.4758689;4.535735;-0.06115681;0.2058551;4.846154;0.01286783;-0.1297258;4.680698;0.02505898;-0.8669331;5.182523;-0.2259899;-0.9122063;6.078051;-0.5322183;0.7258635;4.864841;0.01286197;1.020102;4.722013;0.02504627;1.761176;5.276166;-0.243279;1.971732;6.123169;-0.6121125;0.1771774;2.778992;-0.2673343;0.1243875;1.316876;-0.2503872;0;0;0;0.1771774;2.778992;-0.2673343;0.1243875;1.316876;-0.2503872;0;0;0
948138.6012;NotLabelled;NONE;16384;0.758167;0.4570637;0.4293629;0.1786704;1;0;-5;2820;-2222;2149;65536;0.8036978;0.5803324;-0.04570637;0.1232687;-5;-1;0;-680;-4015;-1101;8192;0.8105677;0.4072022;-0.4085872;-0.101108;3;1;-8;-2072;-2417;2595;32768;0.8340504;0.5415512;-0.0567867;-0.08864266;-5;1;4;768;-3717;-1622;256;0.03601108;-0.01939058;-0.5747922;-0.8172767;0;-4;0;-97;3958;-1465;128;0.04986149;0.02770083;0.6246537;0.7788159;-1;-8;0;-473;4079;882;4;0.5181963;-0.5096953;0.4986149;0.4722992;0;-6;-1;-213;4036;162;16;0.634349;-0.7709271;-0.006925208;-0.0567867;2;-4;0;163;3944;824;2;0.5437572;-0.5055401;-0.4722992;-0.4750692;3;-4;4;-137;4170;217;8;0.6523545;-0.7509314;0.005540166;0.1024931;0;-2;0;-599;4031;713;0.4865256;2.822375;-0.2616112;0.4925059;3.367369;-0.2854231;0.4977617;3.84633;-0.3083746;0.4729566;4.536748;-0.06104937;0.2029419;4.847169;0.01297229;-0.132639;4.681712;0.0251596;-0.871756;5.181238;-0.2248598;-0.9170261;6.076766;-0.5310888;0.7229503;4.865855;0.01297222;1.017188;4.723028;0.02515982;1.758266;5.275627;-0.2463432;1.967486;6.121674;-0.6181202;0.1742677;2.780005;-0.2672727;0.1210321;1.317956;-0.2463113;0;0;0;0.1742677;2.780005;-0.2672727;0.1210321;1.317956;-0.2463113;0;0;0
948159.5984;NotLabelled;NONE;16384;0.7570985;0.4556787;0.432133;0.1800554;-1;4;-5;2766;-2182;2169;65536;0.8044826;0.5789474;-0.04570637;0.1246537;-5;-2;1;-832;-3973;-1309;8192;0.8119581;0.4072022;-0.4058172;-0.101108;1;2;-8;-2058;-2445;2601;32768;0.8350411;0.5401662;-0.05540166;-0.08864266;-4;1;3;774;-3595;-1680;256;0.03739612;-0.01939058;-0.5747922;-0.8172144;-2;-6;0;-231;3852;-1461;128;0.04847645;0.02908587;0.6246537;0.7788529;0;-7;0;-473;4033;884;4;0.5182222;-0.5083103;0.5;0.4722992;-1;-7;-1;-139;4112;102;16;0.634349;-0.7710279;-0.006925208;-0.05540166;1;-4;0;165;3926;820;2;0.5449642;-0.5055401;-0.4722992;-0.4736842;2;-3;4;-151;4144;227;8;0.6523545;-0.7507411;0.005540166;0.1038781;0;-3;0;-541;4109;621;0.4898708;2.822164;-0.2606201;0.4958521;3.367245;-0.2823576;0.5011088;3.84629;-0.303486;0.475887;4.536741;-0.05629395;0.2056785;4.846995;0.01771286;-0.1297901;4.681318;0.02999145;-0.8670474;5.179878;-0.2273378;-0.9105565;6.074402;-0.5367429;0.7256743;4.866029;0.0176187;1.020009;4.7234;0.02978353;1.761624;5.275783;-0.2406887;1.970062;6.122161;-0.6121519;0.1776131;2.779816;-0.2664558;0.1243006;1.317768;-0.2456909;0;0;0;0.1776131;2.779816;-0.2664558;0.1243006;1.317768;-0.2456909;0;0;0
948179.7551;NotLabelled;NONE;16384;0.7574265;0.4556787;0.432133;0.1786704;-1;5;-4;2728;-2136;2097;65536;0.8054776;0.5775623;-0.04570637;0.1246537;-5;1;1;-740;-3877;-1385;8192;0.8126489;0.4072022;-0.4044321;-0.101108;2;3;-7;-2026;-2409;2587;32768;0.835187;0.5401662;-0.05540166;-0.08725762;-4;3;3;752;-3597;-1744;256;0.03739612;-0.02077562;-0.5747922;-0.8171805;-1;-6;0;-201;3860;-1439;128;0.04709141;0.03047091;0.6246537;0.7788849;2;-7;0;-447;4055;890;4;0.5156133;-0.5083103;0.501385;0.4736842;-2;-9;0;-141;4036;148;16;0.634349;-0.7710391;-0.005540166;-0.05540166;1;-3;0;253;3946;820;2;0.5436761;-0.5069252;-0.4722992;-0.4736842;0;-3;2;-125;4110;203;8;0.6509695;-0.7519424;0.005540166;0.1038781;0;-3;0;-587;3981;571;0.4915597;2.822161;-0.2605408;0.4975411;3.367248;-0.2821309;0.5027978;3.846299;-0.3031299;0.4759685;4.536737;-0.0560707;0.2050453;4.846394;0.01782782;-0.1300502;4.67996;0.03007416;-0.8716792;5.17461;-0.2221885;-0.9155341;6.068004;-0.5347894;0.7249966;4.866602;0.01782773;1.019651;4.724641;0.03007434;1.757849;5.279693;-0.2442573;1.964871;6.125129;-0.6186466;0.1793022;2.779815;-0.2663888;0.1219177;1.317914;-0.2460999;0;0;0;0.1793022;2.779815;-0.2663888;0.1219177;1.317914;-0.2460999;0;0;0
948200.9773;NotLabelled;NONE;16384;0.7566347;0.4556787;0.433518;0.1786704;-2;5;-4;2716;-2212;2135;65536;0.805262;0.5775623;-0.04570637;0.1260388;-3;-3;0;-688;-3887;-1401;8192;0.8133367;0.4072022;-0.4030471;-0.101108;3;3;-6;-1996;-2437;2601;32768;0.8360261;0.5387812;-0.05401662;-0.08864266;-3;5;3;760;-3611;-1712;256;0.03878116;-0.02077562;-0.5747922;-0.8171158;0;-6;0;-171;3844;-1467;128;0.04709141;0.03047091;0.6260388;0.7777721;4;-5;0;-481;4083;882;4;0.5156282;-0.5069252;0.5027701;0.4736842;-3;-5;0;-135;4094;154;16;0.634349;-0.7710478;-0.004155125;-0.05540166;1;-4;0;279;4002;774;2;0.5436761;-0.5069252;-0.4722992;-0.4736842;0;-5;1;-221;4074;193;8;0.6509695;-0.7519309;0.006925208;0.1038781;0;-3;0;-535;4047;591;0.4910564;2.822038;-0.2642796;0.4970378;3.36713;-0.2857271;0.5022947;3.846187;-0.3066006;0.4765701;4.536672;-0.05955604;0.2061423;4.846763;0.01433894;-0.1292182;4.680864;0.02659265;-0.8688007;5.176833;-0.2290655;-0.9113051;6.069205;-0.5447589;0.7261253;4.866141;0.01433244;1.020553;4.723711;0.02657878;1.758525;5.279503;-0.2468583;1.964992;6.125234;-0.6208878;0.1787988;2.779694;-0.2701396;0.1248323;1.317727;-0.2456421;0;0;0;0.1787988;2.779694;-0.2701396;0.1248323;1.317727;-0.2456421;0;0;0
948221.5997;NotLabelled;NONE;16384;0.7566347;0.4556787;0.433518;0.1786704;-2;4;-4;2638;-2204;2125;65536;0.8062537;0.5761772;-0.04570637;0.1260388;-2;-4;0;-740;-3921;-1449;8192;0.8133367;0.4072022;-0.4030471;-0.101108;3;3;-6;-2000;-2419;2597;32768;0.8361717;0.5387812;-0.05401662;-0.08725762;-2;1;2;818;-3577;-1852;256;0.03878116;-0.02216066;-0.5747922;-0.8170795;0;-5;1;-213;3874;-1535;128;0.04570637;0.03185596;0.6260388;0.7777992;5;-6;0;-473;4123;860;4;0.5169862;-0.5055401;0.5027701;0.4736842;-3;-6;1;-103;4056;98;16;0.634349;-0.7710478;-0.004155125;-0.05540166;0;-3;0;255;3940;790;2;0.5447881;-0.5083103;-0.4709141;-0.4722992;0;-7;0;-131;4136;155;8;0.6509695;-0.7517242;0.008310249;0.1052632;0;-5;0;-513;4151;621;0.4978679;2.821719;-0.2636061;0.5038484;3.366732;-0.2869996;0.5091044;3.845711;-0.3095834;0.4818142;4.536184;-0.06267259;0.2106847;4.845676;0.01115706;-0.1243001;4.679023;0.02343626;-0.8655697;5.173932;-0.2293758;-0.909094;6.066187;-0.5452582;0.7306225;4.86623;0.01115718;1.025371;4.724468;0.02343678;1.761657;5.281143;-0.2527367;1.968054;6.125625;-0.6296145;0.1856101;2.779354;-0.2693028;0.1275883;1.317535;-0.2452542;0;0;0;0.1856101;2.779354;-0.2693028;0.1275883;1.317535;-0.2452542;0;0;0
948241.7734;NotLabelled;NONE;16384;0.7561654;0.4556787;0.434903;0.1772853;-2;3;-4;2742;-2178;2069;65536;0.8061739;0.5761772;-0.04709141;0.1260388;0;-1;0;-672;-3937;-1467;8192;0.8140216;0.4072022;-0.4016621;-0.101108;2;1;-5;-2100;-2421;2721;32768;0.83626;0.5387812;-0.05263158;-0.08725762;-3;2;2;686;-3647;-1676;256;0.0401662;-0.02216066;-0.5747922;-0.8170125;-3;-6;1;-199;3944;-1473;128;0.04570637;0.033241;0.6260388;0.7777412;5;-7;-1;-467;4105;880;4;0.5157174;-0.5041551;0.5041551;0.4750692;-2;-6;2;-131;4100;80;16;0.634349;-0.7711461;-0.004155125;-0.05401662;0;0;0;217;4032;772;2;0.5459858;-0.5083103;-0.4709141;-0.4709141;0;-7;0;-43;4172;45;8;0.6509695;-0.7517242;0.008310249;0.1052632;0;-4;0;-531;4011;657;0.5020506;2.821637;-0.2587665;0.5080313;3.366655;-0.2820211;0.5132874;3.84564;-0.3044828;0.4870991;4.536161;-0.05758733;0.216464;4.846087;0.01623532;-0.1187864;4.67997;0.02851793;-0.8594354;5.174878;-0.2261064;-0.9015833;6.066102;-0.5450714;0.7364339;4.865811;0.01623541;1.030956;4.723579;0.02851835;1.767915;5.280253;-0.2458534;1.973771;6.125027;-0.6223757;0.1897929;2.779273;-0.2644747;0.1281438;1.317535;-0.2449645;0;0;0;0.1897929;2.779273;-0.2644747;0.1281438;1.317535;-0.2449645;0;0;0
948262.6023;NotLabelled;NONE;16384;0.7553672;0.4556787;0.4362881;0.1772853;-3;4;-3;2798;-2210;2177;65536;0.8062537;0.5761772;-0.04570637;0.1260388;0;6;1;-674;-3981;-1321;8192;0.8153826;0.4072022;-0.398892;-0.101108;0;1;-5;-2006;-2431;2677;32768;0.8370912;0.5373961;-0.05124654;-0.08864266;-1;3;1;792;-3707;-1730;256;0.0401662;-0.0235457;-0.5747922;-0.8169738;-4;-6;1;-151;3902;-1419;128;0.04432133;0.033241;0.6274238;0.7767045;6;-6;0;-483;4081;942;4;0.5157174;-0.5041551;0.5041551;0.4750692;-1;-7;2;-219;4154;34;16;0.634349;-0.7710478;-0.004155125;-0.05540166;0;3;1;225;3970;802;2;0.5446931;-0.5096953;-0.4709141;-0.4709141;0;-6;0;31;4194;97;8;0.6509695;-0.7517242;0.008310249;0.1052632;0;-1;0;-585;4045;609;0.4997549;2.821785;-0.2590833;0.5057356;3.366805;-0.2823148;0.5109916;3.84579;-0.3047563;0.4832415;4.5363;-0.05799952;0.2119063;4.845629;0.01575926;-0.122968;4.678756;0.02807327;-0.86338;5.173914;-0.2267536;-0.9029352;6.065383;-0.5453691;0.7318304;4.866528;0.01575838;1.026673;4.724964;0.02807155;1.76305;5.282436;-0.246244;1.967354;6.127528;-0.622895;0.1874972;2.779421;-0.2647935;0.1257181;1.317688;-0.2454016;0;0;0;0.1874972;2.779421;-0.2647935;0.1257181;1.317688;-0.2454016;0;0;0
948283.5922;NotLabelled;NONE;16384;0.7545655;0.4556787;0.4376731;0.1772853;-4;5;-2;2846;-2278;2183;65536;0.8062537;0.5761772;-0.04570637;0.1260388;1;2;0;-636;-3835;-1407;8192;0.8153826;0.4072022;-0.398892;-0.101108;1;1;-4;-2018;-2461;2673;32768;0.8370912;0.5373961;-0.05124654;-0.08864266;-2;7;1;800;-3649;-1740;256;0.04155125;-0.02493075;-0.5761772;-0.8158871;-4;-6;2;-165;3958;-1405;128;0.04293629;0.03462604;0.6288089;0.775601;7;-8;0;-565;4113;856;4;0.5144344;-0.5027701;0.5055401;0.4764543;-1;-8;1;-193;4078;126;16;0.634349;-0.7710478;-0.004155125;-0.05540166;1;2;0;257;3972;812;2;0.5470792;-0.5096953;-0.4695291;-0.4695291;1;-6;1;-21;4058;143;8;0.6509695;-0.7517242;0.008310249;0.1052632;0;-1;0;-471;3989;543;0.5031716;2.821652;-0.2581643;0.5091512;3.36659;-0.283233;0.5144063;3.845497;-0.3072889;0.4877581;4.536056;-0.06054813;0.2169168;4.845819;0.01320286;-0.1182236;4.679482;0.0255198;-0.8599883;5.173522;-0.2275382;-0.900902;6.064747;-0.5466643;0.7368736;4.865888;0.01320302;1.03149;4.723854;0.02552032;1.765074;5.282947;-0.2529462;1.969565;6.126785;-0.6322993;0.1909136;2.779269;-0.2637202;0.1290906;1.317535;-0.2444676;0;0;0;0.1909136;2.779269;-0.2637202;0.1290906;1.317535;-0.2444676;0;0;0
948303.8059;NotLabelled;NONE;16384;0.7548896;0.4556787;0.4376731;0.1759003;-4;4;-3;2714;-2198;2113;65536;0.806331;0.5761772;-0.04432133;0.1260388;4;2;0;-808;-3905;-1417;8192;0.8160587;0.4072022;-0.3975069;-0.101108;0;1;-4;-1974;-2375;2597;32768;0.8371748;0.5373961;-0.04986149;-0.08864266;-2;9;1;900;-3655;-1606;256;0.04293629;-0.02493075;-0.5761772;-0.8158154;-3;-6;2;-169;3874;-1377;128;0.04155125;0.03601108;0.6301939;0.7744884;6;-7;-1;-501;4037;894;4;0.5144344;-0.5027701;0.5055401;0.4764543;-1;-8;1;-69;4014;134;16;0.634349;-0.7710391;-0.005540166;-0.05540166;0;0;0;251;3976;792;2;0.5457855;-0.5110803;-0.4695291;-0.4695291;1;-5;0;-71;4022;123;8;0.6509695;-0.7517242;0.008310249;0.1052632;0;-6;0;-441;4047;605;0.5042888;2.821667;-0.2575667;0.5102676;3.366518;-0.2844559;0.5155218;3.845342;-0.3101117;0.4884855;4.536775;-0.06587321;0.2174753;4.846664;0.006719401;-0.1175817;4.6802;0.01959082;-0.8598272;5.173109;-0.2342638;-0.8994847;6.064332;-0.5535476;0.7374218;4.866998;0.006719515;1.032109;4.725161;0.01959144;1.766784;5.284254;-0.2559856;1.972765;6.128092;-0.6345303;0.1920306;2.779265;-0.2629695;0.1300517;1.317535;-0.243957;0;0;0;0.1920306;2.779265;-0.2629695;0.1300517;1.317535;-0.243957;0;0;0
