SEP=;
index;label;segment;RightUpperArm_boneIndex;RightUpperArm_quat9x_w;RightUpperArm_quat9x_x;RightUpperArm_quat9x_y;RightUpperArm_quat9x_z;RightUpperArm_gyroscope_x;RightUpperArm_gyroscope_y;RightUpperArm_gyroscope_z;RightUpperArm_accelerometer_x;RightUpperArm_accelerometer_y;RightUpperArm_accelerometer_z;RightLowerArm_boneIndex;RightLowerArm_quat9x_w;RightLowerArm_quat9x_x;RightLowerArm_quat9x_y;RightLowerArm_quat9x_z;RightLowerArm_gyroscope_x;RightLowerArm_gyroscope_y;RightLowerArm_gyroscope_z;RightLowerArm_accelerometer_x;RightLowerArm_accelerometer_y;RightLowerArm_accelerometer_z;LeftUpperArm_boneIndex;LeftUpperArm_quat9x_w;LeftUpperArm_quat9x_x;LeftUpperArm_quat9x_y;LeftUpperArm_quat9x_z;LeftUpperArm_gyroscope_x;LeftUpperArm_gyroscope_y;LeftUpperArm_gyroscope_z;LeftUpperArm_accelerometer_x;LeftUpperArm_accelerometer_y;LeftUpperArm_accelerometer_z;LeftLowerArm_boneIndex;LeftLowerArm_quat9x_w;LeftLowerArm_quat9x_x;LeftLowerArm_quat9x_y;LeftLowerArm_quat9x_z;LeftLowerArm_gyroscope_x;LeftLowerArm_gyroscope_y;LeftLowerArm_gyroscope_z;LeftLowerArm_accelerometer_x;LeftLowerArm_accelerometer_y;LeftLowerArm_accelerometer_z;Chest_boneIndex;Chest_quat9x_w;Chest_quat9x_x;Chest_quat9x_y;Chest_quat9x_z;Chest_gyroscope_x;Chest_gyroscope_y;Chest_gyroscope_z;Chest_accelerometer_x;Chest_accelerometer_y;Chest_accelerometer_z;Spine_boneIndex;Spine_quat9x_w;Spine_quat9x_x;Spine_quat9x_y;Spine_quat9x_z;Spine_gyroscope_x;Spine_gyroscope_y;Spine_gyroscope_z;Spine_accelerometer_x;Spine_accelerometer_y;Spine_accelerometer_z;RightUpperLeg_boneIndex;RightUpperLeg_quat9x_w;RightUpperLeg_quat9x_x;RightUpperLeg_quat9x_y;RightUpperLeg_quat9x_z;RightUpperLeg_gyroscope_x;RightUpperLeg_gyroscope_y;RightUpperLeg_gyroscope_z;RightUpperLeg_accelerometer_x;RightUpperLeg_accelerometer_y;RightUpperLeg_accelerometer_z;RightLowerLeg_boneIndex;RightLowerLeg_quat9x_w;RightLowerLeg_quat9x_x;RightLowerLeg_quat9x_y;RightLowerLeg_quat9x_z;RightLowerLeg_gyroscope_x;RightLowerLeg_gyroscope_y;RightLowerLeg_gyroscope_z;RightLowerLeg_accelerometer_x;RightLowerLeg_accelerometer_y;RightLowerLeg_accelerometer_z;LeftUpperLeg_boneIndex;LeftUpperLeg_quat9x_w;LeftUpperLeg_quat9x_x;LeftUpperLeg_quat9x_y;LeftUpperLeg_quat9x_z;LeftUpperLeg_gyroscope_x;LeftUpperLeg_gyroscope_y;LeftUpperLeg_gyroscope_z;LeftUpperLeg_accelerometer_x;LeftUpperLeg_accelerometer_y;LeftUpperLeg_accelerometer_z;LeftLowerLeg_boneIndex;LeftLowerLeg_quat9x_w;LeftLowerLeg_quat9x_x;LeftLowerLeg_quat9x_y;LeftLowerLeg_quat9x_z;LeftLowerLeg_gyroscope_x;LeftLowerLeg_gyroscope_y;LeftLowerLeg_gyroscope_z;LeftLowerLeg_accelerometer_x;LeftLowerLeg_accelerometer_y;LeftLowerLeg_accelerometer_z;pelvis_x;pelvis_y;pelvis_z;lowerSpine_x;lowerSpine_y;lowerSpine_z;middleSpine_x;middleSpine_y;middleSpine_z;upperSpine_x;upperSpine_y;upperSpine_z;rightClavicle_x;rightClavicle_y;rightClavicle_z;rightShoulder_x;rightShoulder_y;rightShoulder_z;rightElbow_x;rightElbow_y;rightElbow_z;rightWrist_x;rightWrist_y;rightWrist_z;leftClavicle_x;leftClavicle_y;leftClavicle_z;leftShoulder_x;leftShoulder_y;leftShoulder_z;leftElbow_x;leftElbow_y;leftElbow_z;leftWrist_x;leftWrist_y;leftWrist_z;rightHip_x;rightHip_y;rightHip_z;rightKnee_x;rightKnee_y;rightKnee_z;rightAnkle_x;rightAnkle_y;rightAnkle_z;leftHip_x;leftHip_y;leftHip_z;leftKnee_x;leftKnee_y;leftKnee_z;leftAnkle_x;leftAnkle_y;leftAnkle_z;
719589.5307;NotLabelled;NONE;16384;-0.468144;0.4764543;-0.6008831;-0.4390582;1;-7;-1;-528;4174;671;65536;0.7549213;-0.4030471;0.08864266;0.5096953;8;-4;-5;-2793;2940;-568;8192;0.5637119;-0.534626;-0.5861247;-0.2299169;-14;1;50;1738;3469;897;32768;0.6633959;-0.4695291;0.2077562;-0.5443213;21;31;-17;3699;1539;-1374;256;0.07756232;-0.04847645;-0.6939058;-0.7142331;0;-2;-1;-93;4204;-125;128;0.033241;0.04986149;0.6204986;0.7819145;0;-1;-1;-547;4085;818;4;-0.5041551;0.4875346;-0.5121284;-0.4958449;0;-2;-1;137;4152;68;16;0.6412742;-0.7665714;-0.005540166;-0.033241;0;2;0;127;4064;704;2;0.5586407;-0.5304709;-0.4473684;-0.4542936;0;-3;0;-43;4224;135;8;0.6481994;-0.749255;0.03878116;0.1301939;-1;-2;0;-529;4081;697;0.4584537;2.828691;-0.2030045;0.464438;3.374017;-0.217365;0.4696976;3.853303;-0.2320099;0.4394556;4.586309;-0.2161938;0.167505;4.902258;-0.2472911;-0.167675;4.746757;-0.187184;-0.3251829;3.844248;-0.04934819;0.04367582;3.178687;-0.6139434;0.6874066;4.923712;-0.2472923;0.9819161;4.794191;-0.1871858;1.323372;3.944935;0.1135571;0.6626648;3.574368;-0.455595;0.146197;2.786426;-0.2094589;0.09948342;1.324059;-0.2220314;0;0;0;0.146197;2.786426;-0.2094589;0.09948342;1.324059;-0.2220314;0;0;0
719609.6773;NotLabelled;NONE;16384;-0.466759;0.4750692;-0.6020424;-0.4404432;1;-5;-2;-498;4176;749;65536;0.7556592;-0.4016621;0.08864266;0.5096953;6;-3;-3;-2829;2882;-538;8192;0.5595568;-0.534626;-0.5916949;-0.2257618;-12;25;48;1798;3353;989;32768;0.6649469;-0.468144;0.2022161;-0.5457063;34;21;-13;4437;1543;-790;256;0.07756232;-0.04847645;-0.6939058;-0.7142331;1;1;-1;-39;4118;-87;128;0.033241;0.04986149;0.6204986;0.7819145;0;1;0;-551;4017;822;4;-0.5041551;0.4875346;-0.5107838;-0.4972299;0;-1;-1;121;4124;82;16;0.6412742;-0.7665101;-0.005540166;-0.03462604;0;2;0;143;4018;694;2;0.5586407;-0.5304709;-0.4473684;-0.4542936;0;-1;0;1;4166;93;8;0.6468144;-0.750451;0.03878116;0.1301939;-1;0;0;-457;4037;721;0.4595185;2.828699;-0.2067653;0.4655027;3.374025;-0.2211007;0.4707622;3.853312;-0.2357235;0.4388387;4.586188;-0.2173921;0.1661585;4.901616;-0.2473687;-0.1686544;4.74514;-0.1877473;-0.3284689;3.842936;-0.05057652;0.04052453;3.180681;-0.6189596;0.6860093;4.924263;-0.2473696;0.9808247;4.795217;-0.1877487;1.326748;3.954027;0.130078;0.6723162;3.578004;-0.4427333;0.1472617;2.786434;-0.2132218;0.09989966;1.324059;-0.2218446;0;0;0;0.1472617;2.786434;-0.2132218;0.09989966;1.324059;-0.2218446;0;0;0
719630.5017;NotLabelled;NONE;16384;-0.466759;0.4750692;-0.6020424;-0.4404432;0;-2;-3;-490;4152;727;65536;0.7554954;-0.4016621;0.0900277;0.5096953;4;-2;-1;-2847;2842;-582;8192;0.5512465;-0.5277008;-0.6060645;-0.2243767;-16;52;39;1304;3377;1275;32768;0.6706934;-0.4612188;0.1952908;-0.5470914;45;-12;-6;4091;1059;-256;256;0.07756232;-0.04847645;-0.6939058;-0.7142331;0;2;-1;-91;4014;-73;128;0.033241;0.04986149;0.6204986;0.7819145;0;1;0;-545;3989;860;4;-0.5041551;0.4861496;-0.5121022;-0.4972299;0;-1;-1;95;4046;90;16;0.6412742;-0.7664989;-0.006925208;-0.03462604;0;2;0;127;3998;690;2;0.5586407;-0.5304709;-0.4473684;-0.4542936;0;0;1;-63;4094;131;8;0.6468144;-0.750451;0.03878116;0.1301939;-1;1;0;-411;4001;681;0.4576717;2.828732;-0.2027507;0.4636559;3.374059;-0.2170861;0.4689154;3.853346;-0.2317089;0.436992;4.586223;-0.2133775;0.1643117;4.90165;-0.243354;-0.1705012;4.745174;-0.1837327;-0.329718;3.842902;-0.04631309;0.03821085;3.182067;-0.617034;0.6841626;4.924297;-0.243355;0.978978;4.79525;-0.1837341;1.328162;3.960612;0.1475126;0.681394;3.57977;-0.4307939;0.1454149;2.786468;-0.2092072;0.1026628;1.323974;-0.2210902;0;0;0;0.1454149;2.786468;-0.2092072;0.1026628;1.323974;-0.2210902;0;0;0
719650.5288;NotLabelled;NONE;16384;-0.468144;0.4750692;-0.6019787;-0.4390582;-1;0;-3;-500;3980;773;65536;0.7562302;-0.400277;0.0900277;0.5096953;3;-1;0;-2791;2786;-558;8192;0.5470914;-0.5221606;-0.6145684;-0.2243767;-15;49;34;1106;3417;1249;32768;0.6773165;-0.4542936;0.1925208;-0.5457063;49;-18;-5;3889;1027;-186;256;0.07756232;-0.04847645;-0.6939058;-0.7142331;-1;4;0;-59;3942;-121;128;0.033241;0.04986149;0.6204986;0.7819145;-1;-2;0;-489;3939;974;4;-0.5041551;0.4875346;-0.5107838;-0.4972299;0;0;0;51;4002;14;16;0.6412742;-0.7664989;-0.006925208;-0.03462604;0;1;0;101;3984;688;2;0.5597642;-0.5304709;-0.4473684;-0.4529086;0;0;0;-29;4092;161;8;0.6468144;-0.750451;0.03878116;0.1301939;0;0;0;-463;3995;683;0.4592148;2.828717;-0.2024732;0.4651991;3.374043;-0.2168086;0.4704585;3.853331;-0.2314314;0.4385351;4.586207;-0.2131;0.1658548;4.901634;-0.2430765;-0.1689581;4.745159;-0.1834552;-0.3281749;3.842886;-0.04603561;0.03774625;3.180838;-0.6166413;0.6857057;4.924282;-0.2430775;0.9805211;4.795235;-0.1834566;1.336362;3.971835;0.1682021;0.7050288;3.588046;-0.4250208;0.1469581;2.786453;-0.2089297;0.1003081;1.324084;-0.2215139;0;0;0;0.1469581;2.786453;-0.2089297;0.1003081;1.324084;-0.2215139;0;0;0
719671.6754;NotLabelled;NONE;16384;-0.468144;0.4750692;-0.6019787;-0.4390582;-1;2;-3;-496;3978;779;65536;0.7552948;-0.400277;0.0900277;0.5110803;0;0;0;-2787;2792;-616;8192;0.5443213;-0.5180055;-0.6205156;-0.2243767;-14;44;28;1000;3417;1331;32768;0.6817768;-0.4487534;0.1897507;-0.5457063;49;-21;-6;3593;909;-250;256;0.07617728;-0.04709141;-0.6939058;-0.7144748;-2;6;0;-29;3968;-111;128;0.033241;0.04986149;0.6204986;0.7819145;-1;0;0;-479;3977;964;4;-0.5041551;0.4875346;-0.5107838;-0.4972299;0;0;0;91;4032;26;16;0.6412742;-0.7664989;-0.006925208;-0.03462604;0;1;0;133;3968;694;2;0.5597642;-0.5304709;-0.4473684;-0.4529086;0;0;0;-73;4164;155;8;0.6468144;-0.750451;0.03878116;0.1301939;0;1;0;-505;4033;695;0.455317;2.828842;-0.2031744;0.4613013;3.374168;-0.2175098;0.4665608;3.853456;-0.2321326;0.4346373;4.586332;-0.2138013;0.161957;4.90176;-0.2437778;-0.1728559;4.745284;-0.1841564;-0.3347143;3.843388;-0.04735482;0.03013937;3.182765;-0.6202913;0.6818079;4.924407;-0.2437788;0.9766233;4.79536;-0.1841578;1.337296;3.97831;0.1772532;0.7177783;3.594243;-0.4281216;0.1430603;2.786578;-0.209631;0.1003081;1.324084;-0.221514;0;0;0;0.1430603;2.786578;-0.209631;0.1003081;1.324084;-0.221514;0;0;0
719692.5835;NotLabelled;NONE;16384;-0.468144;0.4764543;-0.6018926;-0.4376731;-3;4;-4;-556;3918;735;65536;0.7562302;-0.400277;0.0900277;0.5096953;-1;2;1;-2793;2702;-588;8192;0.5415512;-0.5138504;-0.6258687;-0.2257618;-10;36;23;936;3309;1293;32768;0.6868731;-0.4432133;0.1883656;-0.5443213;49;-20;-5;3645;753;-160;256;0.07479224;-0.04570637;-0.6952909;-0.7133636;-1;8;-1;-169;4034;-161;128;0.033241;0.04986149;0.6204986;0.7819145;-2;3;1;-473;4047;1004;4;-0.5041551;0.4875346;-0.5107838;-0.4972299;0;2;-1;151;4108;56;16;0.6412742;-0.7664989;-0.006925208;-0.03462604;0;0;0;93;4028;748;2;0.5597642;-0.5304709;-0.4473684;-0.4529086;0;1;0;-11;4208;153;8;0.6468144;-0.750451;0.03878116;0.1301939;0;1;0;-553;4083;739;0.4544894;2.828842;-0.2037369;0.4604737;3.374168;-0.2180722;0.4657332;3.853456;-0.232695;0.4338243;4.586325;-0.2140509;0.1611497;4.901771;-0.2438881;-0.1736652;4.745276;-0.1843274;-0.3344399;3.84338;-0.04625362;0.02934426;3.18323;-0.6204141;0.6810011;4.924408;-0.2438889;0.975815;4.795329;-0.1843283;1.343016;3.982823;0.1807356;0.7306702;3.59921;-0.4321765;0.1422326;2.786578;-0.2101935;0.09943398;1.324084;-0.2219078;0;0;0;0.1422326;2.786578;-0.2101935;0.09943398;1.324084;-0.2219078;0;0;0
719713.4862;NotLabelled;NONE;16384;-0.4695291;0.4764543;-0.6018193;-0.4362881;-3;4;-4;-516;3890;661;65536;0.7554954;-0.4016621;0.0900277;0.5096953;-1;3;1;-2819;2776;-646;8192;0.5401662;-0.5096953;-0.6304465;-0.2257618;-6;33;16;906;3243;1287;32768;0.6922548;-0.4376731;0.1855956;-0.5429363;49;-23;-6;3421;519;-260;256;0.0734072;-0.04293629;-0.6952909;-0.7136796;0;14;-2;-209;4130;-85;128;0.03462604;0.04847645;0.6204986;0.7819415;-2;9;3;-483;4011;886;4;-0.5041551;0.4875346;-0.5107838;-0.4972299;-1;3;-1;149;4116;72;16;0.6412742;-0.7664989;-0.006925208;-0.03462604;0;0;1;119;4018;702;2;0.5586545;-0.5304709;-0.4487534;-0.4529086;0;4;0;5;4156;167;8;0.6468144;-0.7505213;0.03739612;0.1301939;0;2;0;-497;4047;693;0.4536771;2.828842;-0.2042845;0.4596614;3.374168;-0.2186199;0.4649209;3.853456;-0.2332427;0.4332661;4.586395;-0.2171184;0.1607064;4.901833;-0.2480785;-0.1741721;4.74566;-0.188031;-0.335361;3.844178;-0.04775508;0.02501211;3.183555;-0.6235202;0.6805657;4.924288;-0.2480795;0.9753255;4.795311;-0.1880324;1.344367;3.985894;0.1820041;0.7381777;3.60323;-0.4375859;0.1414204;2.786578;-0.2107411;0.09857687;1.324084;-0.22229;0;0;0;0.1414204;2.786578;-0.2107411;0.09857687;1.324084;-0.22229;0;0;0
719733.5276;NotLabelled;NONE;16384;-0.4695291;0.4764543;-0.602821;-0.434903;-3;4;-3;-570;3932;639;65536;0.7556592;-0.4016621;0.08864266;0.5096953;-1;2;1;-2843;2756;-648;8192;0.536011;-0.5055401;-0.6358141;-0.2299169;3;24;1;832;3075;1155;32768;0.7029437;-0.4279778;0.1800554;-0.5387812;49;-30;-7;3445;479;-304;256;0.07202215;-0.04155125;-0.6952909;-0.7139026;-1;14;-2;-245;4100;-91;128;0.03462604;0.04709141;0.6204986;0.7820262;0;8;2;-465;4011;834;4;-0.5041551;0.4875346;-0.5121284;-0.4958449;0;5;-1;151;4092;64;16;0.6412742;-0.7664989;-0.006925208;-0.03462604;0;1;1;93;4002;662;2;0.5586545;-0.5304709;-0.4487534;-0.4529086;0;6;0;-7;4126;189;8;0.6468144;-0.7507603;0.03739612;0.1288089;1;3;0;-525;4047;635;0.452426;2.828843;-0.2051266;0.4584103;3.374166;-0.2195612;0.4636698;3.853452;-0.2342713;0.430605;4.586323;-0.2178439;0.1574383;4.901247;-0.2486689;-0.177138;4.744406;-0.18868;-0.3401329;3.843303;-0.04805138;0.01792134;3.181255;-0.6236258;0.6772534;4.924703;-0.24867;0.9722619;4.796268;-0.1886813;1.347853;3.990524;0.1827785;0.7482976;3.607264;-0.442867;0.1401693;2.786578;-0.2115749;0.09725803;1.324083;-0.22287;0;0;0;0.1401693;2.786578;-0.2115749;0.09725803;1.324083;-0.22287;0;0;0
719754.4833;NotLabelled;NONE;16384;-0.4695291;0.4778393;-0.6017237;-0.434903;-3;5;-3;-514;3912;607;65536;0.7565916;-0.4016621;0.08864266;0.5083103;0;1;1;-2853;2766;-660;8192;0.534626;-0.5027701;-0.6381646;-0.232687;10;22;-5;776;3009;1099;32768;0.7090899;-0.4224377;0.1772853;-0.536011;52;-30;-8;3239;431;-428;256;0.07063711;-0.03878116;-0.6952909;-0.7141968;-3;15;-2;-187;4028;-105;128;0.03601108;0.04570637;0.6204986;0.7820458;-1;9;3;-479;3961;850;4;-0.5055401;0.4889196;-0.5094356;-0.4958449;0;7;0;135;4016;44;16;0.6412742;-0.7664989;-0.006925208;-0.03462604;0;3;1;107;4000;668;2;0.5577282;-0.5290859;-0.4501385;-0.4542936;0;7;0;37;4132;141;8;0.6468144;-0.7507603;0.03739612;0.1288089;1;3;0;-481;4033;623;0.4561433;2.828725;-0.2090218;0.4621275;3.374047;-0.2234817;0.467387;3.853332;-0.238214;0.4343363;4.586196;-0.2214912;0.161175;4.901138;-0.2521855;-0.1734033;4.744279;-0.1922545;-0.3377045;3.843906;-0.04850681;0.02008619;3.183071;-0.6256366;0.6809905;4.924584;-0.2521848;0.9759976;4.796121;-0.1922522;1.351981;3.991286;0.1807801;0.7698672;3.604956;-0.4592832;0.1438866;2.786459;-0.215468;0.09637974;1.324083;-0.2232519;0;0;0;0.1438866;2.786459;-0.215468;0.09637974;1.324083;-0.2232519;0;0;0
719774.4992;NotLabelled;NONE;16384;-0.4709141;0.4778393;-0.6016408;-0.433518;-2;4;-2;-616;3904;587;65536;0.7565916;-0.4016621;0.08864266;0.5083103;0;0;1;-2859;2768;-596;8192;0.534626;-0.5027701;-0.6366342;-0.2368421;18;18;-12;736;3087;1037;32768;0.7154554;-0.4168975;0.1731302;-0.533241;55;-26;-9;3287;499;-528;256;0.06925207;-0.03739612;-0.6952909;-0.7144063;-3;16;-2;-173;4054;-101;128;0.03739612;0.04432133;0.6204986;0.7820605;-5;9;3;-451;3923;908;4;-0.5055401;0.4889196;-0.5094356;-0.4958449;0;9;0;55;4086;80;16;0.6412742;-0.7664989;-0.006925208;-0.03462604;-1;2;0;151;3982;678;2;0.5567901;-0.5277008;-0.4515235;-0.4556787;0;11;-1;17;4068;183;8;0.6481994;-0.7498692;0.03601108;0.1274238;1;7;0;-529;4049;683;0.4503661;2.828843;-0.2064353;0.4563502;3.374163;-0.2209992;0.4616097;3.853445;-0.2358229;0.4271535;4.586238;-0.2188082;0.1533884;4.900668;-0.2493744;-0.1808878;4.743144;-0.1895027;-0.3420027;3.842431;-0.04428636;0.01117086;3.181118;-0.6237096;0.6731579;4.925111;-0.2493696;0.9684115;4.797189;-0.189491;1.346535;3.992041;0.1806891;0.7716931;3.604411;-0.4651347;0.1381093;2.786576;-0.2128727;0.09505747;1.324084;-0.2238174;0;0;0;0.1381093;2.786576;-0.2128727;0.09505747;1.324084;-0.2238174;0;0;0
719795.5048;NotLabelled;NONE;16384;-0.4709141;0.4792244;-0.6015356;-0.432133;-1;5;-1;-714;3974;663;65536;0.7565916;-0.4016621;0.08864266;0.5083103;0;3;0;-2989;2900;-554;8192;0.533241;-0.501385;-0.6373284;-0.2409972;24;17;-17;814;3191;1033;32768;0.7203414;-0.4113573;0.1703601;-0.5318559;56;-23;-9;3433;633;-444;256;0.06786703;-0.03462604;-0.6966759;-0.7133287;-4;16;0;-223;4038;-73;128;0.03739612;0.04293629;0.6191136;0.7832345;-6;10;3;-483;3969;926;4;0.5107913;-0.4903047;0.5055401;0.4930748;0;10;0;-37;4044;50;16;0.6412742;-0.7664213;-0.008310249;-0.03601108;-1;1;1;95;4008;794;2;0.5558402;-0.5263157;-0.4529086;-0.4570637;0;14;0;3;4142;119;8;0.6481994;-0.7498692;0.03601108;0.1274238;1;7;1;-489;4059;713;0.4495239;2.828845;-0.2069883;0.4555081;3.374162;-0.2216601;0.4607675;3.85344;-0.2365787;0.426329;4.586227;-0.2192789;0.1525703;4.900676;-0.2497151;-0.1817077;4.743136;-0.1898942;-0.3457454;3.842834;-0.0454058;0.005136356;3.181522;-0.6262197;0.6723405;4.925106;-0.2497165;0.9675927;4.797155;-0.1898965;1.340011;3.987674;0.1766004;0.7755404;3.597329;-0.4766926;0.1372672;2.786576;-0.2134166;0.09417243;1.324084;-0.2241912;0;0;0;0.1372672;2.786576;-0.2134166;0.09417243;1.324084;-0.2241912;0;0;0
719815.4902;NotLabelled;NONE;16384;-0.4709141;0.4792244;-0.6015356;-0.432133;-2;4;0;-822;4012;653;65536;0.7565916;-0.4016621;0.08864266;0.5083103;0;4;-3;-3065;2926;-574;8192;0.5318559;-0.501385;-0.636366;-0.2465374;30;16;-23;918;3211;1155;32768;0.7262309;-0.4044321;0.166205;-0.5304709;56;-28;-9;3819;691;-198;256;0.06371191;-0.03185596;-0.6980609;-0.7124864;-4;14;0;-255;3986;-41;128;0.03878116;0.0401662;0.6177285;0.7844069;-6;13;4;-491;3939;980;4;0.5108289;-0.4916897;0.5041551;0.4930748;0;9;-1;-37;4076;46;16;0.6412742;-0.7664213;-0.008310249;-0.03601108;0;1;1;95;3974;778;2;0.5547088;-0.5263157;-0.4542936;-0.4570637;-1;14;0;-51;4142;133;8;0.6481994;-0.7501685;0.03462604;0.1260388;1;6;1;-437;4049;725;0.4515276;2.828681;-0.1992035;0.4575123;3.374046;-0.2119644;0.4627723;3.853374;-0.2252034;0.4271345;4.58616;-0.2104561;0.152868;4.900053;-0.2420298;-0.1811626;4.742177;-0.1817168;-0.3447339;3.842295;-0.03411431;0.002756737;3.180983;-0.6169632;0.6725976;4.925333;-0.2420307;0.9680484;4.798072;-0.1817178;1.338322;3.985935;0.181058;0.7803305;3.596046;-0.4780478;0.1392711;2.786436;-0.205792;0.09328099;1.32411;-0.2244093;0;0;0;0.1392711;2.786436;-0.205792;0.09328099;1.32411;-0.2244093;0;0;0
719836.5053;NotLabelled;NONE;16384;-0.4709141;0.4792244;-0.6025282;-0.4307479;-2;3;1;-814;3978;675;65536;0.757486;-0.400277;0.08725762;0.5083103;0;4;-6;-3063;2960;-610;8192;0.5304709;-0.5027701;-0.6308891;-0.2603878;40;9;-29;992;3411;1201;32768;0.7384155;-0.3891967;0.1620499;-0.5263157;59;-44;0;4173;1117;-302;256;0.06232687;-0.02908587;-0.6980609;-0.7127274;-4;13;0;-285;3988;-47;128;0.0401662;0.03878116;0.6163435;0.7854956;-7;11;4;-319;3999;1058;4;0.5108289;-0.4916897;0.5041551;0.4930748;0;9;-2;41;4128;142;16;0.6412742;-0.7664213;-0.008310249;-0.03601108;0;1;1;145;4014;788;2;0.5537413;-0.5249307;-0.4556787;-0.4584487;0;14;0;-97;4072;125;8;0.6481994;-0.7504625;0.033241;0.1246537;2;7;0;-509;4057;681;0.4455245;2.828785;-0.2008283;0.4515096;3.374189;-0.2117933;0.4567701;3.853558;-0.2234539;0.4227916;4.586461;-0.2107429;0.1492413;4.900886;-0.2432237;-0.185154;4.743935;-0.1825181;-0.3472772;3.844053;-0.03332627;-0.005479835;3.182741;-0.6195323;0.6690268;4.924987;-0.2432247;0.9641805;4.797225;-0.1825195;1.330313;3.980093;0.1731727;0.7794757;3.590519;-0.4921082;0.1332683;2.786561;-0.207567;0.09109095;1.32411;-0.2253071;0;0;0;0.1332683;2.786561;-0.207567;0.09109095;1.32411;-0.2253071;0;0;0
719857.5062;NotLabelled;NONE;16384;-0.4722992;0.4792244;-0.6014431;-0.4307479;-2;2;1;-804;4012;685;65536;0.7576443;-0.400277;0.08587258;0.5083103;0;6;-9;-3159;3012;-584;8192;0.5304709;-0.5041551;-0.6262824;-0.2686981;44;3;-33;974;3507;1225;32768;0.7446914;-0.3808864;0.1620499;-0.5235457;63;-49;2;4119;1109;-490;256;0.06094183;-0.02770083;-0.6980609;-0.7129023;-5;11;1;-323;4068;-125;128;0.04155125;0.03739612;0.6163435;0.7854908;-7;10;3;-413;4005;1054;4;0.5108289;-0.4930748;0.5041551;0.4916897;0;9;-1;55;4038;122;16;0.6398892;-0.7675118;-0.008310249;-0.03739612;0;2;2;137;4044;746;2;0.5539041;-0.5235457;-0.4556787;-0.4598338;0;12;1;-181;4104;97;8;0.6495845;-0.7492639;0.033241;0.1246537;2;7;0;-453;4003;605;0.4442944;2.828763;-0.2014607;0.4502799;3.3742;-0.2106114;0.4555407;3.853605;-0.2206773;0.4201509;4.586436;-0.2077087;0.145995;4.900346;-0.2400747;-0.1880964;4.742729;-0.1794189;-0.3516999;3.843598;-0.02734604;-0.01254474;3.184927;-0.6180432;0.665733;4.925448;-0.2400756;0.9611334;4.798233;-0.17942;1.309511;3.96683;0.1606948;0.7782165;3.583783;-0.5239871;0.1320384;2.786561;-0.2083513;0.08975711;1.32411;-0.2258418;0;0;0;0.1320384;2.786561;-0.2083513;0.08975711;1.32411;-0.2258418;0;0;0
719877.5158;NotLabelled;NONE;16384;-0.4722992;0.4792244;-0.6014431;-0.4307479;-2;0;3;-884;3986;671;65536;0.7578;-0.400277;0.08448754;0.5083103;0;7;-11;-3055;2924;-592;8192;0.5290859;-0.5069252;-0.6215798;-0.2770083;50;-2;-36;1122;3629;1139;32768;0.7527532;-0.3711911;0.1606648;-0.5193906;67;-40;1;3683;1219;-766;256;0.05955679;-0.02631579;-0.699446;-0.7117133;-2;9;2;-329;4034;-117;128;0.04155125;0.03462604;0.6149584;0.7867025;-6;9;3;-361;4055;1004;4;0.5108213;-0.4944598;0.5041551;0.4903047;0;10;-1;-51;4098;76;16;0.6398892;-0.7675118;-0.008310249;-0.03739612;0;0;1;219;3994;724;2;0.5517701;-0.5221606;-0.4584487;-0.4612188;0;6;0;-251;4122;87;8;0.6495845;-0.7495532;0.03185596;0.1232687;2;2;1;-463;4055;575;0.4475087;2.827842;-0.2100438;0.4534942;3.373278;-0.2193155;0.4587551;3.852681;-0.2294876;0.4233798;4.585508;-0.2162682;0.1492294;4.899434;-0.2485224;-0.1848641;4.741803;-0.1879148;-0.3481264;3.842307;-0.03763957;-0.009294704;3.184851;-0.6298727;0.668968;4.924526;-0.2485235;0.9643668;4.797285;-0.1879164;1.30182;3.956779;0.1406425;0.7776434;3.579979;-0.5529347;0.1352526;2.78564;-0.2169243;0.09240496;1.323161;-0.230288;0;0;0;0.1352526;2.78564;-0.2169243;0.09240496;1.323161;-0.230288;0;0;0
719897.6759;NotLabelled;NONE;16384;-0.4736842;0.4792244;-0.6013442;-0.4293629;-3;-1;3;-810;3940;647;65536;0.7597076;-0.3975069;0.08033241;0.5083103;0;7;-17;-2979;2942;-678;8192;0.5290859;-0.5096953;-0.6155259;-0.2853186;54;-4;-40;1116;3707;1061;32768;0.7586122;-0.3628809;0.1565097;-0.5180055;66;-17;1;3389;1199;-882;256;0.05817174;-0.02631579;-0.699446;-0.7118279;-1;7;2;-231;4070;-89;128;0.04293629;0.033241;0.6149584;0.7866878;-6;7;3;-317;4069;1006;4;0.5121696;-0.4958449;0.5027701;0.4889196;-1;5;0;-69;4118;86;16;0.6398892;-0.7675255;-0.006925208;-0.03739612;-1;0;1;173;4026;726;2;0.5517701;-0.5221606;-0.4584487;-0.4612188;0;5;1;-295;4174;53;8;0.6495845;-0.7497796;0.03185596;0.1218837;2;1;1;-489;4069;545;0.4471585;2.827835;-0.2143779;0.4531442;3.373299;-0.2217724;0.4584054;3.852734;-0.2302947;0.4232156;4.585613;-0.2196741;0.1491512;4.899492;-0.2530858;-0.1849928;4.742162;-0.1919781;-0.3477093;3.842667;-0.04111215;-0.009151176;3.186426;-0.6348491;0.6688962;4.924452;-0.2530867;0.9642521;4.79735;-0.1919791;1.287689;3.947891;0.127525;0.7745811;3.576462;-0.5771363;0.1349027;2.785656;-0.2214153;0.09151988;1.323161;-0.2306411;0;0;0;0.1349027;2.785656;-0.2214153;0.09151988;1.323161;-0.2306411;0;0;0
719918.727;NotLabelled;NONE;16384;-0.4736842;0.4792244;-0.6013442;-0.4293629;-3;-2;3;-774;3896;721;65536;0.7597909;-0.3961219;0.07756232;0.5096953;1;6;-17;-2939;2914;-672;8192;0.5277008;-0.5124654;-0.610486;-0.2936288;58;-2;-43;1112;3717;1141;32768;0.7624311;-0.3545706;0.1523546;-0.5193906;63;4;2;3467;1195;-992;256;0.05817174;-0.02493075;-0.699446;-0.7118777;0;6;1;-283;4012;-79;128;0.04293629;0.03185596;0.6135734;0.7878257;-7;5;2;-429;4015;1036;4;0.5134882;-0.4958449;0.5027701;0.4875346;-1;1;0;-115;4064;122;16;0.6398892;-0.7675255;-0.006925208;-0.03739612;0;-2;0;179;4046;720;2;0.5506094;-0.5221606;-0.4584487;-0.4626039;0;2;1;-285;4090;15;8;0.6509695;-0.7485775;0.03185596;0.1218837;2;0;1;-473;4013;507;0.4490263;2.827723;-0.214307;0.455012;3.373185;-0.2218269;0.4602732;3.852618;-0.2304593;0.4265202;4.585561;-0.2196005;0.1530716;4.899988;-0.2529095;-0.1813803;4.743294;-0.1918521;-0.3461215;3.844154;-0.04105964;-0.005079918;3.194456;-0.6405427;0.6728645;4.923928;-0.2529036;0.9679707;4.796227;-0.1918381;1.278048;3.937292;0.1153362;0.7784686;3.569187;-0.6006994;0.1367705;2.785542;-0.2213341;0.09344157;1.323046;-0.2305347;0;0;0;0.1367705;2.785542;-0.2213341;0.09344157;1.323046;-0.2305347;0;0;0
719939.5276;NotLabelled;NONE;16384;-0.4750692;0.4778393;-0.6013538;-0.4293629;-3;-2;3;-686;3990;667;65536;0.7607889;-0.3947368;0.07479224;0.5096953;1;6;-18;-2901;2910;-650;8192;0.5263157;-0.5166205;-0.5984262;-0.3130194;59;5;-43;996;3815;1221;32768;0.7652677;-0.3393352;0.1440443;-0.5277008;58;13;8;4211;1485;-656;256;0.0567867;-0.02493075;-0.6980609;-0.7133475;0;3;1;-171;4046;-89;128;0.04293629;0.03185596;0.6121883;0.7889025;-8;2;1;-445;3959;1062;4;0.5134882;-0.4958449;0.5027701;0.4875346;0;0;-1;-89;4092;166;16;0.6398892;-0.7675255;-0.006925208;-0.03739612;0;-1;1;137;4014;782;2;0.5517597;-0.5221606;-0.4570637;-0.4626039;0;0;1;-285;4128;27;8;0.6509695;-0.7485775;0.03185596;0.1218837;1;0;1;-409;4027;585;0.4525082;2.827573;-0.2139576;0.4584942;3.373058;-0.2195776;0.4637556;3.852519;-0.2265401;0.4285768;4.585394;-0.2156799;0.1545165;4.899289;-0.2489848;-0.179629;4.741943;-0.1879229;-0.3443939;3.842839;-0.03695089;-0.0005482659;3.197537;-0.6395727;0.6742619;4.92424;-0.2489859;0.9696168;4.797114;-0.1879245;1.264;3.929834;0.1111363;0.776619;3.56743;-0.6161263;0.1402527;2.785418;-0.2211434;0.09298305;1.323045;-0.23072;0;0;0;0.1402527;2.785418;-0.2211434;0.09298305;1.323045;-0.23072;0;0;0
719960.5151;NotLabelled;NONE;16384;-0.4750692;0.4778393;-0.6013538;-0.4293629;-2;-2;3;-690;4056;643;65536;0.7616407;-0.3933518;0.0734072;0.5096953;2;6;-17;-2887;2844;-660;8192;0.5249307;-0.5180055;-0.5932733;-0.3227147;59;1;-43;946;3901;1311;32768;0.7671605;-0.33241;0.1398892;-0.5304709;54;4;10;4281;1511;-490;256;0.0567867;-0.02493075;-0.6980609;-0.7133475;0;1;2;-231;3962;-103;128;0.04432133;0.03047091;0.6108033;0.7899535;-9;2;0;-457;3941;1074;4;0.5134882;-0.4958449;0.5027701;0.4875346;-1;-1;0;-27;4094;164;16;0.6398892;-0.7675255;-0.006925208;-0.03739612;0;-1;0;155;3968;784;2;0.5517597;-0.5221606;-0.4570637;-0.4626039;1;-1;1;-259;4120;93;8;0.6509695;-0.7485775;0.03185596;0.1218837;0;-1;1;-435;4099;551;0.452055;2.827548;-0.2140836;0.4580412;3.373049;-0.2177812;0.4633029;3.852531;-0.2230541;0.4294002;4.585415;-0.2091173;0.1558796;4.899922;-0.241052;-0.178527;4.742903;-0.1805828;-0.3453384;3.843779;-0.03199709;9.644777E-05;3.2024;-0.637889;0.6756675;4.92397;-0.241053;0.9708129;4.796077;-0.1805838;1.232783;3.910502;0.09401759;0.7674986;3.562376;-0.6543845;0.1397999;2.785418;-0.2214299;0.09251077;1.323046;-0.2309098;0;0;0;0.1397999;2.785418;-0.2214299;0.09251077;1.323046;-0.2309098;0;0;0
719981.6597;NotLabelled;NONE;16384;-0.4750692;0.4778393;-0.6013538;-0.4293629;-2;-3;3;-746;4052;697;65536;0.762616;-0.3919668;0.07063711;0.5096953;1;5;-18;-2871;2900;-670;8192;0.5249307;-0.5207756;-0.5854435;-0.33241;56;-5;-44;904;4037;1365;32768;0.7690798;-0.3268698;0.1371191;-0.5318559;45;2;13;4103;1433;-464;256;0.0567867;-0.02493075;-0.6980609;-0.7133475;1;0;2;-313;3968;-91;128;0.04432133;0.03047091;0.6094183;0.7910224;-8;2;0;-399;3999;1106;4;0.5121284;-0.4958449;0.5041551;0.4875346;0;0;0;-59;4076;214;16;0.6398892;-0.7675368;-0.005540166;-0.03739612;0;-2;0;179;3996;738;2;0.5504456;-0.5235457;-0.4570637;-0.4626039;1;-2;0;-205;4038;73;8;0.6509695;-0.7485775;0.03185596;0.1218837;0;0;1;-413;4021;509;0.4520546;2.827523;-0.2139342;0.458041;3.373034;-0.2158415;0.4633029;3.85253;-0.2195407;0.4294002;4.585415;-0.2056039;0.1558796;4.899922;-0.2375387;-0.1785271;4.742903;-0.1770694;-0.3453361;3.843778;-0.02848144;0.0009181276;3.205099;-0.6367527;0.6756675;4.92397;-0.2375396;0.9708127;4.796076;-0.1770705;1.216607;3.902547;0.08649262;0.7632257;3.55985;-0.6716577;0.1397997;2.785418;-0.2214299;0.09251063;1.323046;-0.2309098;0;0;0;0.1397997;2.785418;-0.2214299;0.09251063;1.323046;-0.2309098;0;0;0
720002.5284;NotLabelled;NONE;16384;-0.4764543;0.4750692;-0.6014622;-0.4307479;-3;-7;3;-740;3932;731;65536;0.763359;-0.3891967;0.06786703;0.5110803;2;5;-17;-2847;2822;-624;8192;0.5249307;-0.5221606;-0.5802135;-0.3393352;51;-12;-44;970;4013;1459;32768;0.7694938;-0.3213296;0.1371191;-0.534626;35;5;18;4123;1385;-612;256;0.05540166;-0.02493075;-0.6980609;-0.7134564;2;0;2;-269;4044;-169;128;0.04432133;0.03047091;0.6080332;0.7920876;-7;1;0;-425;4021;1146;4;0.5121284;-0.4958449;0.5041551;0.4875346;0;-1;0;3;4058;160;16;0.6398892;-0.7675368;-0.005540166;-0.03739612;0;-2;0;187;4016;768;2;0.5504456;-0.5235457;-0.4570637;-0.4626039;1;-3;1;-185;4106;45;8;0.6509695;-0.7485173;0.033241;0.1218837;0;-2;0;-441;4089;587;0.4549697;2.827379;-0.2175454;0.460956;3.372894;-0.2175355;0.466218;3.8524;-0.2195496;0.4323153;4.585284;-0.2056128;0.1587947;4.899791;-0.2375476;-0.175612;4.742772;-0.1770783;-0.3424232;3.843647;-0.02849258;0.006667882;3.208918;-0.6392716;0.6785825;4.923839;-0.2375485;0.9737279;4.795946;-0.1770794;1.201673;3.893598;0.07208839;0.7574397;3.555341;-0.6934353;0.1427151;2.785301;-0.2252011;0.0948821;1.322925;-0.2306354;0;0;0;0.1427151;2.785301;-0.2252011;0.0948821;1.322925;-0.2306354;0;0;0
720022.8286;NotLabelled;NONE;16384;-0.4764543;0.4750692;-0.6014622;-0.4307479;-5;-7;2;-682;3930;719;65536;0.7648866;-0.3864266;0.06648199;0.5110803;1;7;-16;-2819;2790;-688;8192;0.5263157;-0.5235457;-0.5735812;-0.3462604;47;-17;-46;876;3965;1477;32768;0.768889;-0.3157895;0.1371191;-0.5387812;19;22;27;4323;1277;-690;256;0.05540166;-0.02493075;-0.6980609;-0.7134564;3;0;2;-283;4086;-143;128;0.04432133;0.03047091;0.6066482;0.7931488;-8;0;0;-413;3961;1126;4;0.5121284;-0.4958449;0.5041551;0.4875346;0;-3;0;47;4098;166;16;0.6398892;-0.7675368;-0.005540166;-0.03739612;0;-2;0;221;3984;722;2;0.5515927;-0.5235457;-0.4556787;-0.4626039;1;-3;1;-183;4120;33;8;0.6509695;-0.7485173;0.033241;0.1218837;0;-2;0;-465;4031;591;0.4545293;2.827352;-0.217664;0.4605155;3.372863;-0.2157396;0.4657775;3.852374;-0.2160708;0.4333159;4.585319;-0.201907;0.1604137;4.900373;-0.2337407;-0.1743003;4.743993;-0.1733152;-0.3429001;3.844454;-0.0293211;0.007782578;3.215678;-0.645323;0.6802478;4.923398;-0.2337416;0.975142;4.794907;-0.1733162;1.19152;3.886798;0.06499985;0.7503266;3.557084;-0.7059892;0.1422749;2.785301;-0.2254794;0.0944315;1.322925;-0.2308203;0;0;0;0.1422749;2.785301;-0.2254794;0.0944315;1.322925;-0.2308203;0;0;0
720043.5076;NotLabelled;NONE;16384;-0.4764543;0.4736842;-0.6025536;-0.4307479;-4;-7;0;-594;4036;715;65536;0.7651224;-0.3864266;0.06371191;0.5110803;1;7;-13;-2805;2756;-672;8192;0.5304709;-0.5277008;-0.5589634;-0.3573407;35;-21;-46;756;4277;1365;32768;0.7638224;-0.3088643;0.1426593;-0.5484765;-5;23;45;4903;1395;-864;256;0.05540166;-0.02493075;-0.6966759;-0.7148089;3;2;2;-257;4094;-161;128;0.04432133;0.03047091;0.6066482;0.7931488;-8;0;0;-469;3955;1080;4;0.5134658;-0.4944598;0.5041551;0.4875346;0;-2;-1;11;4042;146;16;0.6398892;-0.7675455;-0.004155125;-0.03739612;0;-1;0;225;3976;718;2;0.5515927;-0.5235457;-0.4556787;-0.4626039;0;-2;0;-109;4112;19;8;0.6509695;-0.7485173;0.033241;0.1218837;0;0;0;-493;4007;605;0.4545291;2.827325;-0.2175046;0.4605153;3.372826;-0.2136679;0.4657773;3.852334;-0.2123182;0.4333157;4.585279;-0.1981544;0.1604134;4.900333;-0.229988;-0.1743005;4.743954;-0.1695625;-0.3429002;3.844415;-0.0255684;0.007416569;3.219868;-0.6460651;0.6802477;4.923359;-0.2299888;0.9751419;4.794867;-0.1695635;1.179884;3.880674;0.05539578;0.7427079;3.56048;-0.7218689;0.1422751;2.7853;-0.2254793;0.09443159;1.322926;-0.2308203;0;0;0;0.1422751;2.7853;-0.2254793;0.09443159;1.322926;-0.2308203;0;0;0
720064.5042;NotLabelled;NONE;16384;-0.4764543;0.4722992;-0.6036398;-0.4307479;-4;-5;0;-596;4170;713;65536;0.7659342;-0.3850415;0.06232687;0.5110803;0;6;-9;-2819;2772;-704;8192;0.533241;-0.5290859;-0.5513979;-0.3628809;28;-25;-47;680;4425;1335;32768;0.7608821;-0.3060942;0.1481994;-0.5526316;-14;20;54;5113;1399;-1000;256;0.05401662;-0.02493075;-0.6966759;-0.7149149;1;0;5;-139;4002;-105;128;0.04432133;0.03047091;0.6038781;0.79526;-9;0;-1;-533;3939;1132;4;0.5121022;-0.4944598;0.5055401;0.4875346;0;0;-1;77;4044;184;16;0.6398892;-0.7675455;-0.004155125;-0.03739612;0;0;0;157;3968;716;2;0.5514362;-0.5249307;-0.4556787;-0.4612188;0;-1;1;-63;4102;43;8;0.6509695;-0.7485173;0.033241;0.1218837;-1;-1;0;-407;4001;621;0.4603521;2.82706;-0.212813;0.4663382;3.372561;-0.2089764;0.4716002;3.852069;-0.2076266;0.4389806;4.584947;-0.1906248;0.166004;4.900062;-0.2211939;-0.1686653;4.743376;-0.1613158;-0.33928;3.844188;-0.01750947;0.01502162;3.222151;-0.6382645;0.6858331;4.923202;-0.2211949;0.9807656;4.794542;-0.1613171;1.163992;3.869791;0.03752579;0.7220691;3.570929;-0.745528;0.148098;2.785036;-0.2207877;0.09678356;1.322801;-0.2305587;0;0;0;0.148098;2.785036;-0.2207877;0.09678356;1.322801;-0.2305587;0;0;0
720084.7237;NotLabelled;NONE;16384;-0.4764543;0.4722992;-0.6036398;-0.4307479;-3;-5;0;-630;4210;707;65536;0.7659342;-0.3850415;0.06232687;0.5110803;1;4;-6;-2805;2810;-734;8192;0.536011;-0.5304709;-0.5445892;-0.367036;20;-28;-48;680;4429;1467;32768;0.755998;-0.3047091;0.1551246;-0.5581717;-24;15;64;5209;1323;-1232;256;0.05401662;-0.02631579;-0.6966759;-0.7148653;3;0;6;-177;4054;-109;128;0.04432133;0.03185596;0.602493;0.7962556;-10;0;-1;-541;3891;1136;4;0.5121022;-0.4944598;0.5055401;0.4875346;0;0;0;45;4132;214;16;0.6398892;-0.7675455;-0.004155125;-0.03739612;0;1;0;181;4006;740;2;0.5514362;-0.5249307;-0.4556787;-0.4612188;1;-1;0;-109;4106;47;8;0.6509695;-0.7485173;0.033241;0.1218837;0;-1;0;-405;4025;637;0.4603546;2.827006;-0.2168987;0.4663404;3.372466;-0.2092455;0.4716022;3.851954;-0.2045408;0.4404335;4.584889;-0.1873062;0.1680666;4.90055;-0.2176749;-0.1668877;4.744507;-0.1577143;-0.3388589;3.846702;-0.007044286;0.01482819;3.227422;-0.630899;0.6879404;4.922667;-0.2178703;0.9826421;4.793406;-0.1581455;1.156946;3.865072;0.0318244;0.7065406;3.578852;-0.751119;0.1481012;2.785039;-0.2251912;0.0962479;1.322801;-0.2307829;0;0;0;0.1481012;2.785039;-0.2251912;0.0962479;1.322801;-0.2307829;0;0;0
720104.752;NotLabelled;NONE;16384;-0.4764543;0.4709141;-0.604721;-0.4307479;-3;-5;2;-622;4120;731;65536;0.7666289;-0.3836565;0.06232687;0.5110803;2;3;-2;-2801;2724;-760;8192;0.5436531;-0.5304709;-0.536011;-0.368421;6;-29;-49;580;4477;1589;32768;0.751663;-0.301939;0.166205;-0.5623268;-35;19;80;5369;1235;-1660;256;0.05263158;-0.02770083;-0.6966759;-0.7149162;4;0;8;-203;4120;-153;128;0.04432133;0.03185596;0.601108;0.7973017;-11;0;-1;-551;3987;1170;4;0.5121022;-0.4944598;0.5055401;0.4875346;0;0;-1;47;4064;182;16;0.6398892;-0.7675455;-0.004155125;-0.03739612;0;0;0;155;3962;738;2;0.5514362;-0.5249307;-0.4556787;-0.4612188;0;-1;0;-107;4164;65;8;0.6509695;-0.7487415;0.033241;0.1204986;-1;0;0;-491;3993;547;0.4608851;2.826976;-0.2163883;0.4668705;3.372406;-0.2068031;0.4721321;3.851874;-0.2004;0.4423766;4.584868;-0.1831785;0.1706329;4.901056;-0.2136498;-0.1646454;4.745662;-0.1538144;-0.3373427;3.846828;-0.01028021;0.01781428;3.227548;-0.6332996;0.6905486;4.922165;-0.2136505;0.984977;4.792336;-0.1538149;1.150424;3.858858;0.01800455;0.6913636;3.586336;-0.7648005;0.1486319;2.785038;-0.2248415;0.09679195;1.322801;-0.2305553;0;0;0;0.1486319;2.785038;-0.2248415;0.09679195;1.322801;-0.2305553;0;0;0
720124.7387;NotLabelled;NONE;16384;-0.4764543;0.4695291;-0.6048098;-0.432133;-2;-7;4;-570;4104;779;65536;0.7675505;-0.3836565;0.06232687;0.5096953;1;3;2;-2967;2768;-714;8192;0.5494654;-0.5304709;-0.5290859;-0.3698061;-10;-30;-53;414;4479;1627;32768;0.7457224;-0.299169;0.1786704;-0.567867;-42;14;99;6213;1057;-2062;256;0.05263158;-0.02770083;-0.6952909;-0.7162634;3;1;8;-143;4100;-131;128;0.04570637;0.03185596;0.599723;0.7982659;-13;3;0;-525;3999;1186;4;0.5121022;-0.4944598;0.5055401;0.4875346;0;1;0;-47;4110;156;16;0.6398892;-0.7675455;-0.004155125;-0.03739612;0;1;0;195;3990;700;2;0.5514362;-0.5249307;-0.4556787;-0.4612188;0;0;0;-21;4096;67;8;0.6509695;-0.7485173;0.033241;0.1218837;-1;0;0;-375;4075;641;0.4608928;2.826946;-0.2162247;0.4668778;3.37234;-0.2047374;0.4721391;3.851782;-0.1966624;0.4452483;4.584882;-0.1792265;0.1747419;4.902139;-0.2096022;-0.1611404;4.748038;-0.1498081;-0.3358867;3.849562;-0.006511785;0.01810644;3.231788;-0.6316839;0.6947362;4.921215;-0.209603;0.9886556;4.790219;-0.149809;1.153774;3.853556;0.004048347;0.6804722;3.600512;-0.7768113;0.14864;2.785038;-0.224836;0.09680022;1.322801;-0.2305518;0;0;0;0.14864;2.785038;-0.224836;0.09680022;1.322801;-0.2305518;0;0;0
720145.6757;NotLabelled;NONE;16384;-0.4778393;0.468144;-0.6047907;-0.432133;-2;-7;4;-548;4028;809;65536;0.7674368;-0.3836565;0.06371191;0.5096953;0;1;3;-2831;2742;-714;8192;0.5680394;-0.5221606;-0.5166205;-0.3711911;-40;-30;-72;-6;4553;1615;32768;0.7362874;-0.2853186;0.2146814;-0.5747922;-36;-25;145;7197;827;-2926;256;0.05124654;-0.02908587;-0.6952909;-0.7163089;0;-3;9;-43;4030;-87;128;0.04570637;0.03185596;0.5983379;0.7993046;-14;3;0;-549;3991;1104;4;0.5121022;-0.4944598;0.5055401;0.4875346;0;1;0;-133;4080;166;16;0.6385041;-0.7686981;-0.004155125;-0.03739612;0;2;0;195;4014;764;2;0.5514362;-0.5249307;-0.4556787;-0.4612188;0;0;0;-61;4100;29;8;0.6509695;-0.7485173;0.033241;0.1218837;0;-1;0;-435;4041;635;0.4608408;2.826918;-0.2161095;0.4668254;3.37227;-0.2028266;0.4720863;3.851684;-0.1931731;0.4450412;4.584705;-0.1729014;0.1744566;4.902017;-0.2019721;-0.1613741;4.747614;-0.1426722;-0.3357544;3.849206;0.001497902;0.01698656;3.230925;-0.623881;0.6944465;4.921208;-0.2020551;0.9884124;4.790046;-0.1428549;1.152521;3.851402;-0.0004086196;0.6626447;3.620831;-0.7779984;0.1485883;2.785039;-0.22487;0.09674731;1.322801;-0.2305739;0;0;0;0.1485883;2.785039;-0.22487;0.09674731;1.322801;-0.2305739;0;0;0
720166.5274;NotLabelled;NONE;16384;-0.4778393;0.466759;-0.60487;-0.433518;-3;-8;2;-548;3950;875;65536;0.7676617;-0.3850415;0.06371191;0.5083103;0;1;4;-2867;2700;-718;8192;0.5792637;-0.5152354;-0.5110803;-0.3711911;-53;-17;-87;-86;4715;1551;32768;0.7331281;-0.2728532;0.2368421;-0.5761772;-28;-57;168;7377;567;-2960;256;0.04847645;-0.033241;-0.6952909;-0.7163209;6;6;9;181;4016;-103;128;0.04709141;0.03047091;0.5941828;0.8023719;-16;6;1;-645;3941;1140;4;0.5121022;-0.4944598;0.5055401;0.4875346;0;0;0;-15;4048;156;16;0.6385041;-0.7686981;-0.004155125;-0.03739612;0;1;0;189;3958;804;2;0.5501145;-0.5263157;-0.4556787;-0.4612188;-1;0;-1;-5;4140;73;8;0.6509695;-0.7487415;0.033241;0.1204986;0;0;0;-465;4043;671;0.4615557;2.826006;-0.2206451;0.4675398;3.371309;-0.2054646;0.4728003;3.850686;-0.194143;0.4486168;4.583801;-0.1736674;0.1792786;4.902177;-0.202688;-0.1571618;4.74907;-0.1434814;-0.3339813;3.850228;-0.00510966;0.01686175;3.230691;-0.6303141;0.6993396;4.919335;-0.2026888;0.9927819;4.787009;-0.1434824;1.171353;3.845415;-0.04454318;0.6446728;3.681087;-0.8148626;0.1493035;2.784158;-0.2295631;0.09746367;1.32192;-0.2352768;0;0;0;0.1493035;2.784158;-0.2295631;0.09746367;1.32192;-0.2352768;0;0;0
720187.727;NotLabelled;NONE;16384;-0.4764543;0.4653739;-0.607026;-0.433518;-2;-6;0;-464;3966;887;65536;0.7675455;-0.3850415;0.06509695;0.5083103;-2;2;5;-2891;2638;-624;8192;0.5907719;-0.5055401;-0.5055401;-0.3739612;-65;0;-105;-94;4839;1443;32768;0.7317334;-0.2562327;0.2617728;-0.5747922;-21;-78;191;7223;389;-2592;256;0.04709141;-0.033241;-0.6939058;-0.717755;8;9;7;157;3910;71;128;0.04847645;0.03047091;0.5927978;0.8033134;-14;6;1;-625;3941;1184;4;0.5121022;-0.4944598;0.5055401;0.4875346;0;1;-1;23;4056;126;16;0.6385041;-0.7686893;-0.005540166;-0.03739612;0;1;0;199;4032;800;2;0.5501145;-0.5263157;-0.4556787;-0.4612188;-1;1;0;35;4100;45;8;0.6509695;-0.7487415;0.033241;0.1204986;0;0;0;-427;4029;681;0.4620326;2.825913;-0.2198725;0.4680146;3.371034;-0.1991534;0.4732735;3.850271;-0.1829627;0.4562386;4.583577;-0.1620868;0.1900167;4.904578;-0.1909287;-0.1478995;4.754726;-0.1317994;-0.3247581;3.855494;0.00396236;0.02745293;3.233946;-0.6184704;0.7102202;4.916666;-0.1909298;1.002359;4.781453;-0.1318011;1.193471;3.84018;-0.0559245;0.6512024;3.719638;-0.8235189;0.1497815;2.784158;-0.22925;0.09795367;1.32192;-0.2350725;0;0;0;0.1497815;2.784158;-0.22925;0.09795367;1.32192;-0.2350725;0;0;0
720208.6331;NotLabelled;NONE;16384;-0.4778393;0.4639889;-0.6069975;-0.433518;-3;-2;-1;-284;3996;873;65536;0.7677655;-0.3864266;0.06509695;0.5069252;-4;4;8;-2859;2572;-692;8192;0.6054993;-0.4903047;-0.5;-0.3781163;-77;20;-122;-286;4831;1321;32768;0.7289136;-0.2368421;0.2894737;-0.5734072;-15;-86;215;6951;195;-2364;256;0.04432133;-0.033241;-0.6939058;-0.7179314;8;10;7;189;4054;-61;128;0.04847645;0.02908587;0.5900277;0.8054014;-14;7;0;-591;3949;1146;4;0.5121022;-0.4944598;0.5055401;0.4875346;0;1;-2;-39;4064;178;16;0.6385041;-0.7686893;-0.005540166;-0.03739612;0;1;-1;233;4006;820;2;0.5501145;-0.5263157;-0.4556787;-0.4612188;-1;1;0;9;4126;21;8;0.6509695;-0.7487415;0.033241;0.1204986;0;1;0;-461;4015;673;0.4592119;2.826007;-0.2202906;0.4651932;3.371057;-0.197794;0.4704515;3.850239;-0.1800406;0.4547074;4.583481;-0.1561467;0.1890477;4.905066;-0.1836426;-0.1491263;4.755566;-0.125098;-0.3274142;3.857021;0.0133206;0.02153862;3.234224;-0.6096987;0.7092717;4.916238;-0.1836435;1.001178;4.780271;-0.1250993;1.205069;3.839784;-0.07832012;0.6454748;3.769543;-0.8397059;0.1469611;2.784282;-0.2298154;0.09512185;1.322045;-0.2355352;0;0;0;0.1469611;2.784282;-0.2298154;0.09512185;1.322045;-0.2355352;0;0;0
720230.5047;NotLabelled;NONE;16384;-0.4792244;0.4639889;-0.6068932;-0.432133;-5;10;-2;-352;4060;887;65536;0.7671605;-0.3891967;0.06648199;0.5055401;-9;11;11;-2893;2584;-710;8192;0.6198274;-0.4722992;-0.4944598;-0.3850415;-84;42;-139;-546;4803;1345;32768;0.7266995;-0.2132964;0.3199446;-0.5692521;-10;-99;233;6693;1;-1890;256;0.0401662;-0.033241;-0.6911357;-0.7208419;17;10;7;-3;3982;-83;128;0.04986149;0.02770083;0.5886427;0.8063785;-13;10;0;-555;3903;1160;4;0.5120797;-0.4958449;0.5055401;0.4861496;1;5;-2;85;4088;132;16;0.6385041;-0.7686781;-0.006925208;-0.03739612;0;4;-1;139;4000;744;2;0.5491249;-0.5249307;-0.4570637;-0.4626039;0;3;-1;-39;4068;19;8;0.6495845;-0.7499434;0.033241;0.1204986;0;0;0;-455;4049;635;0.4583219;2.825941;-0.2205493;0.4643013;3.370824;-0.1943189;0.4695583;3.849873;-0.1732827;0.4567195;4.583159;-0.1490193;0.1923355;4.905807;-0.1763503;-0.1464276;4.75762;-0.1178774;-0.3265264;3.859128;0.0185252;0.0200848;3.234325;-0.6037931;0.7125997;4.91492;-0.1763512;1.003965;4.777767;-0.1178787;1.227278;3.840567;-0.1100181;0.6485307;3.827891;-0.8601369;0.1460718;2.784282;-0.2303831;0.09421071;1.322045;-0.2359019;0;0;0;0.1460718;2.784282;-0.2303831;0.09421071;1.322045;-0.2359019;0;0;0
720250.6297;NotLabelled;NONE;16384;-0.4806094;0.4639889;-0.6067826;-0.4307479;-7;14;-1;-438;3964;871;65536;0.7675705;-0.3919668;0.06648199;0.5027701;-11;12;13;-2953;2584;-744;8192;0.6334563;-0.4515235;-0.4889196;-0.3947368;-85;58;-155;-798;4673;1233;32768;0.7227675;-0.1883656;0.3504155;-0.5650969;-6;-100;250;6307;23;-1512;256;0.03878116;-0.03185596;-0.6883656;-0.7236255;19;15;6;-103;3986;-115;128;0.05124654;0.02631579;0.5872576;0.8073474;-13;11;0;-523;3883;1222;4;0.510735;-0.4972299;0.5055401;0.4861496;1;6;-2;33;4080;90;16;0.6385041;-0.7686781;-0.006925208;-0.03739612;0;3;-1;157;4020;722;2;0.5491249;-0.5249307;-0.4570637;-0.4626039;-1;4;-1;-63;4140;79;8;0.6495845;-0.7499434;0.033241;0.1204986;-1;0;0;-473;4071;637;0.4550199;2.826023;-0.2254921;0.4609983;3.370821;-0.1975279;0.4662544;3.8498;-0.1749675;0.4574874;4.582917;-0.1445595;0.1948952;4.907246;-0.1691476;-0.144679;4.760455;-0.1118685;-0.3266067;3.862411;0.02506319;0.01561059;3.23287;-0.5949057;0.7152019;4.913471;-0.1691485;1.005808;4.774219;-0.1118698;1.247667;3.842286;-0.1476639;0.6495761;3.89362;-0.8807666;0.1427701;2.784397;-0.2354694;0.09046228;1.322165;-0.2366937;0;0;0;0.1427701;2.784397;-0.2354694;0.09046228;1.322165;-0.2366937;0;0;0
720271.5075;NotLabelled;NONE;16384;-0.4819945;0.4653739;-0.6065834;-0.4279778;-9;15;0;-550;4010;785;65536;0.7677679;-0.3933518;0.06648199;0.501385;-12;15;15;-2961;2612;-760;8192;0.6611336;-0.4044321;-0.4736842;-0.4182825;-76;65;-181;-1266;4583;1335;32768;0.7111673;-0.1301939;0.4127424;-0.5540166;-3;-116;267;5343;-143;-760;256;0.03601108;-0.03185596;-0.6869806;-0.7250835;21;17;6;-285;4054;-183;128;0.05263158;0.02631579;0.5858725;0.8082641;-13;8;-1;-435;3995;1284;4;0.5134135;-0.4972299;0.5041551;0.4847645;1;6;-1;15;4090;92;16;0.6385041;-0.7685958;-0.008310249;-0.03878116;0;1;-1;213;4082;766;2;0.5492926;-0.5235457;-0.4584487;-0.4626039;-2;3;-1;-43;4082;93;8;0.6495845;-0.7500035;0.03185596;0.1204986;0;1;0;-481;4071;627;0.4505266;2.82611;-0.230323;0.456504;3.370816;-0.2006318;0.4617594;3.849721;-0.1765531;0.4527708;4.582574;-0.1403751;0.1900742;4.907004;-0.1623659;-0.1494449;4.759662;-0.1061869;-0.3328476;3.862512;0.03457604;0.006993968;3.228987;-0.5826365;0.7103791;4.913391;-0.1624052;1.001038;4.773782;-0.1062729;1.26029;3.849382;-0.1871939;0.6463577;3.966564;-0.8993336;0.1382772;2.784515;-0.240443;0.08950472;1.322165;-0.2370573;0;0;0;0.1382772;2.784515;-0.240443;0.08950472;1.322165;-0.2370573;0;0;0
720292.5631;NotLabelled;NONE;16384;-0.4847645;0.466759;-0.604283;-0.4265928;-10;16;2;-598;3972;781;65536;0.7682663;-0.3961219;0.06509695;0.4986149;-11;16;14;-3021;2782;-748;8192;0.6738665;-0.3808864;-0.4639889;-0.4307479;-70;67;-188;-1348;4407;1293;32768;0.7030748;-0.101108;0.4445983;-0.5457063;-6;-119;268;4627;-215;-494;256;0.03185596;-0.02908587;-0.6828254;-0.7293069;21;14;7;-193;4030;-397;128;0.05540166;0.02493075;0.5831025;0.8101238;-11;6;-3;-375;3951;1352;4;0.5120685;-0.4986149;0.5041551;0.4847645;1;6;-2;1;4118;92;16;0.6385041;-0.7685958;-0.008310249;-0.03878116;0;2;-1;95;4062;752;2;0.5492926;-0.5235457;-0.4584487;-0.4626039;-1;5;-1;-85;4114;73;8;0.6495845;-0.7500035;0.03185596;0.1204986;0;1;0;-497;4073;659;0.4535539;2.82599;-0.2259228;0.4595302;3.370596;-0.1944774;0.4647847;3.849422;-0.1688564;0.4585913;4.582145;-0.1295807;0.1971355;4.907665;-0.1502055;-0.1429454;4.761383;-0.09465727;-0.3292391;3.864637;0.04488188;0.008337468;3.229125;-0.5715303;0.7174609;4.912066;-0.1502064;1.007583;4.771113;-0.09465855;1.301036;3.872695;-0.2817535;0.667944;4.130492;-0.9378948;0.1413049;2.784428;-0.2361878;0.08905784;1.322194;-0.2370647;0;0;0;0.1413049;2.784428;-0.2361878;0.08905784;1.322194;-0.2370647;0;0;0
720333.7061;NotLabelled;NONE;16384;-0.4889196;0.466759;-0.6038544;-0.4224377;-10;4;6;-796;3890;595;65536;0.7707343;-0.4016621;0.06509695;0.4903047;-2;15;7;-3047;2928;-778;8192;0.6984771;-0.33241;-0.4404432;-0.4556787;-61;60;-188;-1558;4181;1521;32768;0.6852121;-0.04570637;0.501385;-0.5263157;-13;-125;258;3473;-373;-320;256;0.02770083;-0.02908587;-0.6772853;-0.7346232;24;7;9;-281;4120;-469;128;0.05817174;0.0235457;0.5789474;0.8129463;-9;8;-3;-335;3837;1606;4;0.5133873;-0.5;0.5027701;0.4833795;1;6;0;-5;4058;102;16;0.6385041;-0.7685795;-0.009695291;-0.03878116;0;3;-1;153;4012;752;2;0.5482841;-0.5221606;-0.4598338;-0.4639889;-1;4;0;-171;4098;109;8;0.6495845;-0.7500035;0.03185596;0.1204986;0;0;-1;-463;3989;649;0.4476472;2.826042;-0.2313701;0.4536213;3.370439;-0.1964689;0.4588739;3.849092;-0.1678095;0.4539363;4.581302;-0.1197671;0.1930357;4.907492;-0.1364682;-0.1472904;4.761136;-0.08264026;-0.3331154;3.864133;0.05586343;0.0005821846;3.225874;-0.5598228;0.7133678;4.911003;-0.1364691;1.003253;4.7689;-0.08264145;1.308272;3.887678;-0.324894;0.6614639;4.212669;-0.9362929;0.1353989;2.784546;-0.2419203;0.08673352;1.322194;-0.237925;0;0;0;0.1353989;2.784546;-0.2419203;0.08673352;1.322194;-0.237925;0;0;0
720355.5166;NotLabelled;NONE;16384;-0.4903047;0.466759;-0.6036986;-0.4210526;-9;-1;6;-832;3976;567;65536;0.7716136;-0.4016621;0.06509695;0.4889196;1;12;5;-3045;2984;-782;8192;0.7096294;-0.3088643;-0.4279778;-0.466759;-55;51;-184;-1656;4067;1499;32768;0.6750568;-0.01800554;0.5290859;-0.5138504;-19;-116;246;2701;-729;-128;256;0.02631579;-0.02908587;-0.6745152;-0.7372183;20;5;10;-217;4176;-457;128;0.05817174;0.0235457;0.5775623;0.8139308;-10;6;-5;-437;3931;1384;4;0.5133911;-0.501385;0.501385;0.4833795;0;4;0;-67;4048;72;16;0.6385041;-0.7685795;-0.009695291;-0.03878116;0;1;-1;107;4006;750;2;0.5495998;-0.5207756;-0.4598338;-0.4639889;-1;4;-1;-215;4078;131;8;0.6495845;-0.7500611;0.03047091;0.1204986;0;0;0;-455;4025;647;0.4438156;2.826057;-0.2318644;0.4497856;3.370089;-0.1916704;0.4550349;3.848441;-0.1583572;0.4540845;4.579826;-0.09889401;0.1949632;4.907653;-0.1104756;-0.1461536;4.76233;-0.05890226;-0.3389612;3.866716;0.07905237;-0.01083836;3.219539;-0.530286;0.7153068;4.908332;-0.1104764;1.004415;4.76383;-0.05890325;1.331299;3.92795;-0.4092239;0.6743686;4.368605;-0.9308096;0.1315685;2.784665;-0.2428509;0.08300237;1.32231;-0.2386062;0;0;0;0.1315685;2.784665;-0.2428509;0.08300237;1.32231;-0.2386062;0;0;0
720376.6926;NotLabelled;NONE;16384;-0.4903047;0.4653739;-0.604767;-0.4210526;-7;-4;4;-728;3972;577;65536;0.7724895;-0.4016621;0.06509695;0.4875346;4;9;3;-2933;2918;-790;8192;0.7302913;-0.267313;-0.400277;-0.4847645;-46;29;-170;-1786;3593;1663;32768;0.6494575;0.02770083;0.5817174;-0.4889196;-43;-73;224;1813;-977;-64;256;0.0235457;-0.02908587;-0.6717451;-0.7398365;16;4;11;-243;4126;-659;128;0.05955679;0.0235457;0.5775623;0.8138306;-6;2;-5;-393;3967;1392;4;0.5133911;-0.501385;0.501385;0.4833795;0;2;0;-131;4080;40;16;0.6385041;-0.7685608;-0.01108033;-0.03878116;0;0;-1;81;4012;830;2;0.5484276;-0.5207756;-0.4598338;-0.4653739;-1;3;0;-245;4082;115;8;0.6495845;-0.7500611;0.03047091;0.1204986;0;0;0;-499;3995;647;0.4393362;2.826146;-0.2322631;0.4453047;3.370037;-0.19021;0.4505527;3.848272;-0.1552622;0.4508727;4.579182;-0.09019369;0.1923212;4.907537;-0.09925911;-0.1490477;4.762415;-0.04879806;-0.344156;3.867274;0.08898447;-0.01833645;3.219598;-0.5210596;0.7126654;4.907313;-0.09925978;1.001522;4.761918;-0.04879886;1.338137;3.952799;-0.4491647;0.678508;4.444903;-0.918751;0.1270894;2.784792;-0.2434027;0.0825544;1.32231;-0.2387617;0;0;0;0.1270894;2.784792;-0.2434027;0.0825544;1.32231;-0.2387617;0;0;0
720397.4886;NotLabelled;NONE;16384;-0.4916897;0.4639889;-0.6047066;-0.4210526;-5;-5;2;-590;3940;711;65536;0.773244;-0.4016621;0.06648199;0.4861496;7;6;3;-2911;2858;-768;8192;0.7394332;-0.2493075;-0.3864266;-0.4916897;-43;15;-159;-1882;3327;1699;32768;0.6361474;0.04432133;0.6052631;-0.4764543;-52;-54;210;1677;-1087;-306;256;0.02216066;-0.03185596;-0.66759;-0.7435171;14;-2;10;-95;4068;-689;128;0.05955679;0.02493075;0.5761772;0.8147707;-2;-1;-5;-437;3915;1448;4;0.5133911;-0.501385;0.501385;0.4833795;1;1;-1;-135;4022;102;16;0.6385041;-0.7685608;-0.01108033;-0.03878116;0;0;-1;123;4018;762;2;0.5484276;-0.5207756;-0.4598338;-0.4653739;0;1;0;-221;4108;143;8;0.6495845;-0.7500611;0.03047091;0.1204986;0;0;-1;-469;4039;639;0.4360521;2.826261;-0.2329239;0.4420207;3.370163;-0.191007;0.4472688;3.848407;-0.1561788;0.4503638;4.578782;-0.085434;0.1930622;4.908178;-0.09194916;-0.1488573;4.763967;-0.04261841;-0.3454912;3.869249;0.09574227;-0.02310563;3.221077;-0.5155979;0.7134014;4.905975;-0.09194969;1.001702;4.759097;-0.04261874;1.349739;4.007019;-0.5340708;0.6841041;4.580022;-0.8895809;0.1238053;2.784905;-0.2440523;0.07928808;1.322423;-0.2392454;0;0;0;0.1238053;2.784905;-0.2440523;0.07928808;1.322423;-0.2392454;0;0;0
720418.5167;NotLabelled;NONE;16384;-0.4916897;0.4639889;-0.6037399;-0.4224377;-2;-6;2;-680;3910;777;65536;0.773962;-0.400277;0.06648199;0.4861496;9;5;2;-2881;2878;-756;8192;0.7484301;-0.232687;-0.3739612;-0.4958449;-41;6;-144;-1858;3211;1545;32768;0.6191136;0.05817174;0.6298742;-0.4653739;-56;-47;192;1261;-1007;-606;256;0.02216066;-0.033241;-0.666205;-0.7446978;15;-3;9;-139;3974;-749;128;0.05955679;0.02631579;0.5761772;0.8147271;0;-2;-5;-377;3999;1448;4;0.5133387;-0.5027701;0.501385;0.4819945;0;1;0;-203;4064;32;16;0.6385041;-0.7685608;-0.01108033;-0.03878116;0;1;0;165;3990;742;2;0.5484276;-0.5207756;-0.4598338;-0.4653739;0;-1;0;-249;4050;161;8;0.6495845;-0.7500611;0.03047091;0.1204986;0;-1;0;-543;4017;639;0.436612;2.826222;-0.2324825;0.442579;3.369974;-0.1886701;0.4478258;3.848094;-0.1521752;0.4548154;4.577595;-0.07316713;0.1992781;4.908414;-0.07596543;-0.1434123;4.765483;-0.02828639;-0.3427408;3.870877;0.1069103;-0.0221458;3.221025;-0.503588;0.7195981;4.903431;-0.07596619;1.007104;4.754465;-0.02828732;1.360098;4.03105;-0.5577602;0.6916676;4.630909;-0.859684;0.1243658;2.784905;-0.2437669;0.07983749;1.322423;-0.2390624;0;0;0;0.1243658;2.784905;-0.2437669;0.07983749;1.322423;-0.2390624;0;0;0
720438.5273;NotLabelled;NONE;16384;-0.4903047;0.4612188;-0.6060139;-0.4238227;0;-9;2;-600;3862;903;65536;0.7754242;-0.398892;0.06786703;0.4847645;7;4;0;-2867;2812;-746;8192;0.7570934;-0.2188366;-0.3628809;-0.4972299;-37;-6;-128;-1724;3093;1361;32768;0.6052631;0.06925207;0.6499831;-0.4542936;-59;-37;172;687;-1119;-600;256;0.02216066;-0.03462604;-0.6634349;-0.7471038;18;-3;8;-99;4124;-681;128;0.05955679;0.02631579;0.5747922;0.8157048;-1;-5;-5;-657;3815;1420;4;0.5133387;-0.5027701;0.501385;0.4819945;0;0;0;-129;4098;70;16;0.6385041;-0.7685608;-0.01108033;-0.03878116;0;0;0;109;4038;804;2;0.5484276;-0.5207756;-0.4598338;-0.4653739;0;-3;0;-249;4134;115;8;0.6495845;-0.7498373;0.03047091;0.1218837;0;-1;0;-539;4099;621;0.4374437;2.826193;-0.2362749;0.4434105;3.369942;-0.1924235;0.4486573;3.84806;-0.1558945;0.4568873;4.577249;-0.07417312;0.2019144;4.90851;-0.07574998;-0.1410211;4.765987;-0.02861509;-0.338394;3.870587;0.1041708;-0.01772255;3.222221;-0.5078645;0.7222252;4.90264;-0.07575071;1.009475;4.753008;-0.02861607;1.368862;4.057991;-0.5908133;0.6982362;4.681666;-0.8338704;0.1251973;2.784876;-0.2475625;0.08033574;1.322423;-0.2388948;0;0;0;0.1251973;2.784876;-0.2475625;0.08033574;1.322423;-0.2388948;0;0;0
720458.7092;NotLabelled;NONE;16384;-0.4903047;0.4612188;-0.6060139;-0.4238227;0;-9;2;-622;3782;877;65536;0.7754242;-0.398892;0.06786703;0.4847645;7;6;-1;-2853;2774;-786;8192;0.7648728;-0.2063712;-0.3518005;-0.4986149;-32;-9;-115;-1608;3001;1283;32768;0.5914127;0.07756232;0.6691614;-0.4432133;-62;-24;151;271;-1289;-624;256;0.02216066;-0.03601108;-0.6606648;-0.7494892;16;-5;6;-13;4176;-557;128;0.05817174;0.02908587;0.5747922;0.8157107;-1;-10;-6;-107;3819;1384;4;0.5133387;-0.5027701;0.501385;0.4819945;0;-4;0;-135;4108;0;16;0.6385041;-0.7686481;-0.009695291;-0.03739612;0;-3;0;49;4078;838;2;0.5507557;-0.5207756;-0.4584487;-0.4639889;0;-3;0;-231;4100;183;8;0.6495845;-0.7498373;0.03047091;0.1218837;0;-2;0;-487;4035;619;0.4379665;2.826154;-0.2358588;0.4439318;3.36975;-0.1901526;0.4491772;3.84774;-0.1519924;0.4585272;4.57629;-0.06486404;0.2040671;4.907948;-0.0640052;-0.139093;4.76561;-0.01795758;-0.3382687;3.870581;0.1146338;-0.02068955;3.222042;-0.4988296;0.7243683;4.901273;-0.06400579;1.011382;4.750852;-0.01795815;1.376963;4.081706;-0.6069149;0.7044557;4.720652;-0.7999694;0.1257206;2.784876;-0.2472991;0.08084084;1.322423;-0.2387252;0;0;0;0.1257206;2.784876;-0.2472991;0.08084084;1.322423;-0.2387252;0;0;0
720479.5281;NotLabelled;NONE;16384;-0.4903047;0.4598338;-0.6060962;-0.4252077;-1;-10;3;-584;3728;917;65536;0.7768762;-0.3975069;0.06925207;0.4833795;7;7;-2;-2853;2756;-830;8192;0.7781506;-0.1855956;-0.333795;-0.4986149;-24;-17;-88;-1734;2563;1217;32768;0.567867;0.08587258;0.6995365;-0.4252077;-62;9;112;279;-1265;-1164;256;0.02216066;-0.03739612;-0.6592798;-0.7506402;13;-7;5;89;4070;-583;128;0.05817174;0.03047091;0.5747922;0.8156602;-2;-10;-5;-445;3951;1484;4;0.5106749;-0.5027701;0.5027701;0.4833795;0;-6;0;-135;4078;-6;16;0.6385041;-0.7686481;-0.009695291;-0.03739612;0;-4;0;103;4032;768;2;0.5507557;-0.5207756;-0.4584487;-0.4639889;0;-4;1;-273;4094;205;8;0.6495845;-0.7497796;0.03185596;0.1218837;0;-2;0;-447;4023;651;0.4380414;2.826119;-0.2358957;0.4440065;3.369698;-0.1899765;0.4492517;3.847673;-0.1516292;0.4597088;4.575542;-0.05911548;0.2057572;4.907575;-0.05582833;-0.1376253;4.765428;-0.0108667;-0.3370831;3.870398;0.1212996;-0.01820014;3.221859;-0.4914868;0.7260475;4.900103;-0.05582927;1.012825;4.748905;-0.0108681;1.382315;4.104473;-0.6244318;0.7071215;4.753376;-0.7687466;0.1257956;2.784846;-0.2473533;0.0808976;1.322392;-0.2388752;0;0;0;0.1257956;2.784846;-0.2473533;0.0808976;1.322392;-0.2388752;0;0;0
720499.5102;NotLabelled;NONE;16384;-0.4903047;0.4584487;-0.6071445;-0.4252077;-2;-11;1;-516;3784;929;65536;0.7775834;-0.3961219;0.06925207;0.4833795;7;6;-3;-2667;2804;-804;8192;0.7844692;-0.1772853;-0.3254848;-0.4972299;-15;-21;-74;-1640;2281;1285;32768;0.5554016;0.08448754;0.7129306;-0.4196676;-58;24;97;395;-1277;-1400;256;0.0235457;-0.0401662;-0.6565097;-0.7528793;7;-6;2;167;4012;-691;128;0.05540166;0.033241;0.5734072;0.816719;-1;-11;-4;-467;3863;1378;4;0.5120348;-0.501385;0.5027701;0.4833795;0;-7;0;-179;4078;22;16;0.6385041;-0.7686481;-0.009695291;-0.03739612;0;-4;0;85;3956;746;2;0.5507557;-0.5207756;-0.4584487;-0.4639889;0;-4;1;-227;4104;157;8;0.6495845;-0.7495532;0.03185596;0.1232687;0;-2;0;-471;4035;637;0.4350485;2.82619;-0.2400124;0.4410135;3.369766;-0.1940529;0.4462587;3.847738;-0.1556701;0.45793;4.575242;-0.0604706;0.2045348;4.907686;-0.05597187;-0.1390882;4.765949;-0.01155347;-0.338621;3.870557;0.1180203;-0.02282208;3.221868;-0.4962036;0.7248118;4.899343;-0.05597258;1.011333;4.747499;-0.01155426;1.38751;4.146137;-0.6635755;0.7068908;4.802168;-0.7281507;0.1228027;2.784918;-0.2514735;0.0814018;1.322392;-0.2387041;0;0;0;0.1228027;2.784918;-0.2514735;0.0814018;1.322392;-0.2387041;0;0;0
720520.506;NotLabelled;NONE;16384;-0.4889196;0.4570637;-0.6083329;-0.4265928;-1;-10;0;-476;3882;821;65536;0.7791459;-0.3947368;0.06925207;0.4819945;7;3;0;-2609;2770;-842;8192;0.7894056;-0.1717452;-0.3185596;-0.4958449;-6;-25;-62;-1600;2143;1369;32768;0.5457063;0.08310249;0.7237383;-0.4141274;-52;32;83;367;-1363;-1530;256;0.0235457;-0.04155125;-0.6565097;-0.7528042;4;-7;2;179;3996;-695;128;0.05401662;0.03462604;0.5734072;0.8167542;-1;-12;-4;-485;3851;1412;4;0.5093565;-0.501385;0.5041551;0.4847645;0;-7;0;-57;4064;-44;16;0.6385041;-0.7687305;-0.008310249;-0.03601108;0;-4;0;91;4030;746;2;0.5506094;-0.5221606;-0.4584487;-0.4626039;1;-6;2;-223;4128;139;8;0.6495845;-0.7495532;0.03185596;0.1232687;0;-3;0;-487;4035;611;0.4401473;2.826069;-0.234666;0.4461102;3.369455;-0.1865219;0.4513536;3.847269;-0.1462182;0.4639162;4.574052;-0.04575947;0.2109344;4.906769;-0.03889299;-0.1328714;4.765142;0.004451055;-0.3360162;3.870704;0.1349908;-0.01765037;3.223523;-0.4794984;0.7312006;4.897778;-0.03888063;1.017526;4.74526;0.004479036;1.403157;4.160336;-0.6569031;0.7201282;4.816188;-0.6903236;0.127902;2.784843;-0.2463066;0.08285289;1.322392;-0.2382043;0;0;0;0.127902;2.784843;-0.2463066;0.08285289;1.322392;-0.2382043;0;0;0
720540.4917;NotLabelled;NONE;16384;-0.4875346;0.4542936;-0.6105426;-0.4279778;2;-10;-1;-484;3894;837;65536;0.7797218;-0.3933518;0.07063711;0.4819945;7;-1;3;-2671;2690;-874;8192;0.7936252;-0.1689751;-0.3116343;-0.4944598;0;-27;-49;-1646;2147;1243;32768;0.534626;0.07894737;0.7339806;-0.4113573;-45;41;70;285;-1517;-1900;256;0.02493075;-0.04432133;-0.6551247;-0.7538075;4;-7;1;217;4002;-611;128;0.05401662;0.03601108;0.5720221;0.817665;-2;-11;-4;-487;3861;1396;4;0.5093565;-0.501385;0.5041551;0.4847645;0;-6;0;-17;4106;4;16;0.6385041;-0.7687305;-0.008310249;-0.03601108;0;-2;0;97;4008;734;2;0.5517597;-0.5221606;-0.4570637;-0.4626039;2;-7;1;-209;4026;177;8;0.6495845;-0.7495532;0.03185596;0.1232687;0;-3;0;-499;4009;647;0.436697;2.82611;-0.2391339;0.4426598;3.369482;-0.1908303;0.4479031;3.847284;-0.1503862;0.4617926;4.574042;-0.04992448;0.2094177;4.90722;-0.04305012;-0.1346445;4.766221;0.0003018901;-0.3367298;3.871193;0.1284276;-0.01939982;3.225066;-0.4877043;0.7296668;4.897281;-0.04305078;1.015715;4.744242;0.0003010631;1.398231;4.17618;-0.6773885;0.7125106;4.830045;-0.6833674;0.1244517;2.784888;-0.2507876;0.0828954;1.322364;-0.2383497;0;0;0;0.1244517;2.784888;-0.2507876;0.0828954;1.322364;-0.2383497;0;0;0
720560.6621;NotLabelled;NONE;16384;-0.4875346;0.4542936;-0.6095694;-0.4293629;2;-9;-1;-450;3960;899;65536;0.7795951;-0.3933518;0.07202215;0.4819945;6;-1;4;-2709;2794;-900;8192;0.7972199;-0.166205;-0.3060942;-0.4930748;5;-21;-38;-1788;2085;1323;32768;0.5249307;0.07479224;0.7421433;-0.4099723;-39;46;59;551;-1741;-2118;256;0.02493075;-0.04570637;-0.6551247;-0.7537248;5;-5;1;169;3980;-601;128;0.05263158;0.03878116;0.5720221;0.8176287;-3;-10;-4;-593;3835;1392;4;0.5093979;-0.5;0.5041551;0.4861496;-1;-7;0;-51;4100;62;16;0.6385041;-0.7687941;-0.008310249;-0.03462604;0;-4;0;183;3976;764;2;0.5527514;-0.5235457;-0.4556787;-0.4612188;2;-11;1;-197;4078;165;8;0.6481994;-0.7504625;0.033241;0.1246537;0;-5;1;-505;4033;659;0.4382178;2.826069;-0.2382183;0.4441788;3.36927;-0.1880246;0.4494205;3.846928;-0.1459186;0.4643016;4.573307;-0.04288547;0.2123858;4.906806;-0.03485819;-0.1318752;4.766129;0.00796004;-0.3369991;3.871908;0.1368922;-0.01913334;3.226131;-0.4793307;0.7326205;4.896148;-0.03484143;1.018453;4.742562;0.007997692;1.405363;4.182383;-0.6737454;0.7181405;4.834478;-0.6568912;0.125973;2.784887;-0.2500271;0.08434179;1.322363;-0.2378418;0;0;0;0.125973;2.784887;-0.2500271;0.08434179;1.322363;-0.2378418;0;0;0
720581.5149;NotLabelled;NONE;16384;-0.4861496;0.4529086;-0.6117025;-0.4293629;0;-9;-1;-496;3960;951;65536;0.7801633;-0.3919668;0.0734072;0.4819945;5;0;5;-2805;2800;-918;8192;0.8014988;-0.1648199;-0.2977839;-0.4916897;13;-14;-24;-2128;2055;1573;32768;0.5096953;0.06648199;0.7542197;-0.4085872;-26;42;42;857;-1967;-2358;256;0.02493075;-0.04570637;-0.6537396;-0.7549264;2;-4;1;171;4000;-581;128;0.05124654;0.0401662;0.5720221;0.8176498;-5;-9;-3;-603;3825;1436;4;0.5093828;-0.4986149;0.5055401;0.4861496;-1;-7;1;-7;4032;76;16;0.6385041;-0.7688079;-0.006925208;-0.03462604;0;-3;1;89;4000;734;2;0.553731;-0.5249307;-0.4542936;-0.4598338;2;-11;1;-145;4142;121;8;0.6481994;-0.7503999;0.03462604;0.1246537;0;-5;1;-521;4047;637;0.4355018;2.826183;-0.2344561;0.4414625;3.369365;-0.1840664;0.4467041;3.847009;-0.141788;0.4629095;4.573359;-0.03875127;0.2116011;4.907315;-0.03071487;-0.132914;4.767264;0.01211239;-0.3355211;3.87185;0.1366637;-0.01843916;3.224903;-0.4787348;0.7318156;4.895712;-0.03071314;1.017369;4.741606;0.01211689;1.400646;4.192716;-0.6807709;0.7131126;4.843642;-0.6436292;0.123257;2.785006;-0.246281;0.08201379;1.322442;-0.2382195;0;0;0;0.123257;2.785006;-0.246281;0.08201379;1.322442;-0.2382195;0;0;0
720602.0326;NotLabelled;NONE;16384;-0.4861496;0.4529086;-0.610728;-0.4307479;0;-8;-1;-494;3970;965;65536;0.7800317;-0.3919668;0.07479224;0.4819945;5;0;6;-2845;2834;-926;8192;0.8027448;-0.166205;-0.2936288;-0.4916897;21;-11;-19;-2220;2075;1709;32768;0.501385;0.06094183;0.7594879;-0.4099723;-18;58;35;533;-2087;-2852;256;0.02631579;-0.04709141;-0.6537396;-0.7547943;0;-2;2;229;3952;-603;128;0.05124654;0.04155125;0.5706371;0.8185478;-7;-9;-3;-607;3789;1448;4;0.5080574;-0.4986149;0.5055401;0.4875346;0;-6;0;53;4058;48;16;0.6385041;-0.7688079;-0.006925208;-0.03462604;0;-1;1;97;4036;758;2;0.5524147;-0.5263157;-0.4542936;-0.4598338;2;-9;1;-99;4120;103;8;0.6481994;-0.7503999;0.03462604;0.1246537;-1;-5;1;-495;3997;685;0.4418773;2.825958;-0.2338339;0.4478379;3.369126;-0.1832942;0.4530793;3.846758;-0.1408839;0.4691412;4.572729;-0.03518644;0.2177698;4.906607;-0.02594662;-0.1267225;4.766335;0.01634064;-0.3307771;3.871592;0.1433214;-0.01687444;3.225003;-0.474081;0.7379863;4.895101;-0.02594683;1.023565;4.740891;0.01634079;1.398025;4.201496;-0.6887162;0.7103504;4.849639;-0.6194274;0.1296332;2.784784;-0.2456711;0.08439323;1.322336;-0.2379743;0;0;0;0.1296332;2.784784;-0.2456711;0.08439323;1.322336;-0.2379743;0;0;0
720622.5019;NotLabelled;NONE;16384;-0.4847645;0.4515235;-0.6128508;-0.4307479;0;-7;-2;-446;3938;953;65536;0.780752;-0.3919668;0.07617728;0.4806094;4;0;6;-2775;2812;-980;8192;0.803465;-0.16759;-0.2908587;-0.4916897;29;-8;-15;-2472;2213;1683;32768;0.4944598;0.05401662;0.7630435;-0.4127424;-9;64;29;871;-2085;-3096;256;0.02493075;-0.04847645;-0.6537396;-0.7547536;1;-2;3;165;4042;-691;128;0.04986149;0.04293629;0.567867;0.820486;-7;-5;-2;-617;3787;1522;4;-0.5055401;0.4972299;-0.5094129;-0.4875346;-1;-6;0;5;4088;92;16;0.6385041;-0.7688079;-0.006925208;-0.03462604;0;-2;1;123;4032;764;2;0.5546984;-0.5263157;-0.4529086;-0.4584487;2;-8;1;-27;4096;33;8;0.6481994;-0.7503999;0.03462604;0.1246537;-1;-5;1;-437;4001;723;0.4388769;2.826031;-0.233592;0.4448355;3.369021;-0.1811639;0.4500753;3.846502;-0.1370931;0.4659391;4.572492;-0.03150077;0.2144764;4.906303;-0.02230826;-0.1299772;4.765944;0.02000072;-0.3322604;3.870409;0.1442099;-0.01800477;3.222653;-0.4717872;0.7346963;4.894939;-0.02230898;1.020318;4.740814;0.01999982;1.390897;4.203013;-0.6883196;0.7042293;4.850918;-0.6077308;0.1266326;2.784898;-0.2455843;0.08532244;1.322336;-0.2376435;0;0;0;0.1266326;2.784898;-0.2455843;0.08532244;1.322336;-0.2376435;0;0;0
720642.6797;NotLabelled;NONE;16384;-0.4833795;0.4501385;-0.6149601;-0.4307479;-1;-5;-4;-514;4026;949;65536;0.7804767;-0.3919668;0.07894737;0.4806094;1;1;6;-2849;2822;-988;8192;0.8027365;-0.1717452;-0.2880886;-0.4930748;34;-6;-12;-2580;2305;1713;32768;0.4889196;0.04847645;0.7662285;-0.4141274;3;46;18;1179;-2079;-3238;256;0.02493075;-0.04986149;-0.6523545;-0.755861;2;-1;3;75;4040;-663;128;0.04847645;0.04432133;0.566482;0.8214522;-7;-4;-2;-651;3867;1478;4;-0.5055401;0.4972299;-0.5080838;-0.4889196;0;-4;0;11;4054;126;16;0.6385041;-0.7688191;-0.005540166;-0.03462604;0;-3;0;197;3980;766;2;0.5545254;-0.5277008;-0.4529086;-0.4570637;1;-6;1;-25;4130;79;8;0.6481994;-0.7503347;0.03601108;0.1246537;-1;-3;1;-499;4053;679;0.4436956;2.825749;-0.2402431;0.44965;3.368355;-0.1839843;0.4548863;3.845514;-0.1365449;0.4735844;4.57142;-0.03083824;0.2234271;4.906209;-0.02159405;-0.1215723;4.767189;0.02069151;-0.3255827;3.872365;0.1471778;-0.01435377;3.223009;-0.4686717;0.7435986;4.892813;-0.02159463;1.028616;4.737568;0.02069093;1.394423;4.20002;-0.6902959;0.708336;4.847404;-0.6010386;0.1314522;2.784702;-0.2525496;0.08539088;1.322337;-0.2376181;0;0;0;0.1314522;2.784702;-0.2525496;0.08539088;1.322337;-0.2376181;0;0;0
720662.8245;NotLabelled;NONE;16384;-0.4833795;0.4501385;-0.6149601;-0.4307479;-2;-4;-4;-450;3978;961;65536;0.7806316;-0.3933518;0.07894737;0.4792244;1;1;7;-2863;2846;-958;8192;0.8022763;-0.1745152;-0.2853186;-0.4944598;36;-2;-8;-2496;2237;1985;32768;0.4847645;0.04432133;0.7676167;-0.4168975;9;39;10;1095;-2487;-2914;256;0.02631579;-0.04986149;-0.6523545;-0.755814;0;-3;3;59;4038;-637;128;0.04847645;0.04570637;0.566482;0.8213763;-6;-5;-3;-535;3839;1512;4;-0.5055401;0.4958449;-0.5094356;-0.4889196;0;0;0;73;4108;140;16;0.6371191;-0.7699673;-0.005540166;-0.03462604;0;0;0;117;4004;772;2;0.5543351;-0.5290859;-0.4515235;-0.4570637;1;-5;1;19;4152;13;8;0.6468144;-0.751529;0.03601108;0.1246537;0;-1;1;-413;4041;669;0.4422353;2.825757;-0.2360282;0.4481874;3.368155;-0.1777909;0.4534217;3.845137;-0.1286115;0.4732772;4.57062;-0.02024335;0.2236602;4.905777;-0.009811364;-0.1215703;4.767161;0.03191134;-0.3278392;3.873526;0.1630514;-0.01937184;3.221851;-0.4517373;0.7438094;4.89154;-0.00978066;1.028568;4.735679;0.03197989;1.388549;4.191224;-0.6767216;0.7022354;4.83741;-0.580781;0.1299924;2.784756;-0.2484968;0.08828403;1.322226;-0.2371715;0;0;0;0.1299924;2.784756;-0.2484968;0.08828403;1.322226;-0.2371715;0;0;0
720683.5311;NotLabelled;NONE;16384;-0.4833795;0.4501385;-0.6149601;-0.4307479;-3;-4;-5;-436;3902;915;65536;0.7804903;-0.3933518;0.08033241;0.4792244;1;1;5;-2857;2826;-986;8192;0.8021483;-0.1800554;-0.2797784;-0.4958449;26;0;-4;-2814;2267;2279;32768;0.4764543;0.03601108;0.7686956;-0.4252077;6;62;2;1167;-2563;-2870;256;0.02631579;-0.05124654;-0.6523545;-0.7557214;1;-1;3;137;4014;-695;128;0.04847645;0.04709141;0.5650969;0.8222517;-3;-4;-2;-607;3793;1456;4;-0.5055401;0.4958449;-0.5094356;-0.4889196;0;0;0;79;4136;218;16;0.6371191;-0.7699673;-0.005540166;-0.03462604;-1;1;0;153;3990;722;2;0.5541517;-0.5304709;-0.4515235;-0.4556787;1;-1;1;37;4128;-25;8;0.6468144;-0.7512979;0.03601108;0.1260388;0;-1;0;-421;4043;639;0.447276;2.824744;-0.2400743;0.4532281;3.367136;-0.1817938;0.4584623;3.844115;-0.1325765;0.4768069;4.569654;-0.02431959;0.2264901;4.90429;-0.0139225;-0.1184471;4.764959;0.02784326;-0.3246549;3.87085;0.1558107;-0.01513488;3.217218;-0.4563667;0.7466679;4.89114;-0.01392287;1.031755;4.735883;0.02784318;1.383973;4.191776;-0.6850135;0.698849;4.838881;-0.5867972;0.1350332;2.783743;-0.2525464;0.08934747;1.321329;-0.2417311;0;0;0;0.1350332;2.783743;-0.2525464;0.08934747;1.321329;-0.2417311;0;0;0
720704.605;NotLabelled;NONE;16384;-0.4819945;0.4487534;-0.6170558;-0.4307479;-3;-4;-6;-456;3956;887;65536;0.7803465;-0.3933518;0.08171745;0.4792244;2;0;5;-2815;2772;-956;8192;0.8014605;-0.1814404;-0.2783934;-0.4972299;20;-2;-2;-2868;2249;2301;32768;0.4736842;0.02908587;0.7683911;-0.4293629;4;57;0;1681;-2525;-3054;256;0.02631579;-0.05263158;-0.6523545;-0.7556262;0;-2;2;97;4046;-663;128;0.04847645;0.04709141;0.5650969;0.8222517;-2;-4;-3;-607;3823;1526;4;-0.5055401;0.4958449;-0.5094356;-0.4889196;0;1;0;5;4094;158;16;0.6371191;-0.7699673;-0.005540166;-0.03462604;0;1;0;183;4014;766;2;0.5541517;-0.5304709;-0.4515235;-0.4556787;2;-2;0;-5;4040;13;8;0.6468144;-0.7512302;0.03739612;0.1260388;0;-2;0;-383;4031;647;0.4478064;2.8247;-0.2396358;0.4537562;3.366887;-0.1794758;0.4589885;3.843693;-0.1286056;0.4786481;4.569197;-0.0203436;0.2289382;4.904285;-0.009944215;-0.116251;4.76558;0.03182059;-0.3227203;3.87147;0.159365;-0.01397476;3.216686;-0.4519712;0.7490913;4.890194;-0.009944588;1.033896;4.734419;0.03182037;1.373509;4.186347;-0.6841098;0.6930534;4.83821;-0.5848965;0.135564;2.783743;-0.2522618;0.08985559;1.321329;-0.2415426;0;0;0;0.135564;2.783743;-0.2522618;0.08985559;1.321329;-0.2415426;0;0;0
720724.499;NotLabelled;NONE;16384;-0.4819945;0.4487534;-0.6170558;-0.4307479;-2;-3;-6;-440;3944;891;65536;0.7818912;-0.3919668;0.08171745;0.4778393;2;0;5;-2829;2684;-998;8192;0.8011457;-0.1828255;-0.2783934;-0.4972299;15;-4;-1;-2830;2241;2191;32768;0.4709141;0.02216066;0.7679915;-0.433518;4;49;0;1923;-2581;-3126;256;0.02631579;-0.05401662;-0.6509695;-0.7567222;0;-2;3;85;4028;-671;128;0.04709141;0.04986149;0.5637119;0.8231192;-2;-2;-3;-573;3825;1540;4;-0.5055401;0.4958449;-0.5094356;-0.4889196;0;0;0;-79;4076;212;16;0.6371191;-0.7699037;-0.005540166;-0.03601108;-1;0;0;189;4016;752;2;0.5528225;-0.5318559;-0.4515235;-0.4556787;1;-2;0;-61;4110;39;8;0.6468144;-0.7512302;0.03739612;0.1260388;0;-1;0;-467;4005;671;0.4483368;2.8247;-0.2393501;0.4542866;3.366887;-0.1791901;0.4595189;3.843693;-0.1283199;0.4804938;4.569159;-0.02005236;0.2313917;4.9047;-0.009650424;-0.1140484;4.76662;0.03211325;-0.3224643;3.873228;0.1615113;-0.01449548;3.217294;-0.4489827;0.7515185;4.889666;-0.009650856;1.036041;4.733374;0.03211293;1.37296;4.183994;-0.6840876;0.6914594;4.835256;-0.5881533;0.1360944;2.783743;-0.2519763;0.09036348;1.321329;-0.2413532;0;0;0;0.1360944;2.783743;-0.2519763;0.09036348;1.321329;-0.2413532;0;0;0
720746.5043;NotLabelled;NONE;16384;-0.4819945;0.4487534;-0.6180204;-0.4293629;-2;-3;-5;-446;3914;891;65536;0.7817452;-0.3919668;0.08310249;0.4778393;3;-1;5;-2913;2668;-1002;8192;0.8016866;-0.1842105;-0.2783934;-0.4958449;11;0;1;-2660;2313;2157;32768;0.468144;0.0166205;0.7682562;-0.4362881;7;45;0;1737;-2587;-3154;256;0.02631579;-0.05401662;-0.6509695;-0.7567222;0;-2;3;139;4056;-641;128;0.04709141;0.04986149;0.5637119;0.8231192;-3;-4;-3;-555;3835;1534;4;-0.5055401;0.4958449;-0.5094356;-0.4889196;0;0;1;-113;4100;164;16;0.6371191;-0.7699037;-0.005540166;-0.03601108;0;1;0;165;3966;872;2;0.5528225;-0.5318559;-0.4515235;-0.4556787;1;-3;0;-65;4118;65;8;0.6468144;-0.7512302;0.03739612;0.1260388;0;-1;0;-457;4027;665;0.4516949;2.824565;-0.2382984;0.4576422;3.366525;-0.1761256;0.4628724;3.843138;-0.1234855;0.484996;4.568168;-0.01256272;0.2364301;4.904068;-0.0009597354;-0.1092353;4.766388;0.04026198;-0.3179205;3.872997;0.1692253;-0.01090348;3.218178;-0.4429425;0.7565321;4.8882;-0.0009602457;1.040799;4.731302;0.04026167;1.377611;4.1799;-0.6744328;0.6950551;4.83055;-0.5819168;0.139453;2.783654;-0.2510891;0.09369946;1.32124;-0.240564;0;0;0;0.139453;2.783654;-0.2510891;0.09369946;1.32124;-0.240564;0;0;0
720766.5251;NotLabelled;NONE;16384;-0.4806094;0.4473684;-0.6200997;-0.4293629;-3;-4;-2;-434;3900;883;65536;0.7815968;-0.3919668;0.08448754;0.4778393;3;-1;4;-2959;2772;-930;8192;0.8005085;-0.1855956;-0.2783934;-0.4972299;7;7;3;-2800;2391;2029;32768;0.4653739;0.01246537;0.7676467;-0.4404432;8;31;-1;1935;-2775;-2918;256;0.02631579;-0.05540166;-0.6509695;-0.756622;0;-3;3;139;4040;-669;128;0.04709141;0.05124654;0.5637119;0.823034;-2;-2;-3;-569;3835;1550;4;-0.5055401;0.4958449;-0.5094356;-0.4889196;0;-1;0;-121;4034;172;16;0.6371191;-0.7699037;-0.005540166;-0.03601108;0;0;0;175;4030;838;2;0.5539509;-0.5318559;-0.4501385;-0.4556787;0;-1;0;-39;4116;29;8;0.6468144;-0.7512302;0.03739612;0.1260388;0;0;0;-445;3995;677;0.4516949;2.824565;-0.2382967;0.4576422;3.366525;-0.176124;0.4628724;3.843138;-0.1234839;0.484996;4.568169;-0.01256061;0.23643;4.904068;-0.0009575188;-0.1092352;4.766388;0.04026414;-0.3201859;3.873812;0.171171;-0.01523463;3.217848;-0.4408028;0.7565321;4.8882;-0.0009580106;1.040799;4.731302;0.04026383;1.377012;4.178309;-0.6734829;0.6937511;4.828178;-0.5806821;0.139453;2.783654;-0.2510874;0.09369937;1.321241;-0.2405631;0;0;0;0.139453;2.783654;-0.2510874;0.09369937;1.321241;-0.2405631;0;0;0
720809.5709;NotLabelled;NONE;16384;-0.4806094;0.4473684;-0.6200997;-0.4293629;-3;-3;-2;-466;3858;873;65536;0.782139;-0.3905817;0.08587258;0.4778393;3;-1;3;-2953;2758;-898;8192;0.799163;-0.1855956;-0.2797784;-0.4986149;0;7;1;-3118;2461;1917;32768;0.4639889;0.009695291;0.7661284;-0.4445983;12;9;-1;1837;-2947;-2952;256;0.02631579;-0.0567867;-0.6509695;-0.7565193;0;-2;2;159;4024;-651;128;0.04709141;0.05124654;0.5623268;0.823981;-2;-3;-3;-605;3821;1528;4;-0.5055401;0.4944598;-0.51078;-0.4889196;0;-1;-1;-67;4024;152;16;0.6371191;-0.7699037;-0.005540166;-0.03601108;0;0;0;183;3966;770;2;0.5550873;-0.5318559;-0.4501385;-0.4542936;0;0;0;15;4104;9;8;0.6468144;-0.7512302;0.03739612;0.1260388;0;-1;0;-403;4029;651;0.4522237;2.824564;-0.2379989;0.458171;3.366518;-0.1757815;0.4634011;3.843127;-0.1231021;0.4868365;4.568116;-0.0121727;0.2388788;4.904464;-0.0005668364;-0.107035;4.767411;0.04065349;-0.3199105;3.875563;0.1734042;-0.01573593;3.218455;-0.4377283;0.7589512;4.887656;-0.0005671233;1.042934;4.730243;0.04065345;1.37809;4.174802;-0.6716886;0.6960958;4.82646;-0.58217;0.139982;2.783654;-0.2507932;0.09420626;1.321241;-0.2403653;0;0;0;0.139982;2.783654;-0.2507932;0.09420626;1.321241;-0.2403653;0;0;0
720829.5186;NotLabelled;NONE;16384;-0.4806094;0.4459834;-0.6210966;-0.4293629;-1;-3;-1;-408;3936;931;65536;0.7811377;-0.3905817;0.08725762;0.4792244;4;-2;1;-2971;2712;-864;8192;0.797262;-0.1842105;-0.2811634;-0.501385;0;8;0;-2912;2479;1919;32768;0.4653739;0.01108033;0.7636529;-0.4473684;11;-1;-5;1549;-2907;-2602;256;0.02631579;-0.05817174;-0.6509695;-0.7564141;2;-2;1;225;3992;-657;128;0.04709141;0.05263158;0.5623268;0.8238937;-3;-1;-3;-599;3795;1510;4;-0.5055401;0.4944598;-0.51078;-0.4889196;0;-1;0;-21;4066;154;16;0.6371191;-0.7699037;-0.005540166;-0.03601108;0;0;0;225;3992;812;2;0.553757;-0.533241;-0.4501385;-0.4542936;0;-4;0;-157;4090;47;8;0.6468144;-0.75116;0.03878116;0.1260388;0;-2;0;-471;4033;653;0.4566932;2.824395;-0.237076;0.4626381;3.366137;-0.173028;0.4678663;3.842565;-0.1187387;0.4926136;4.567508;-0.007802546;0.245265;4.904305;0.003806397;-0.1008963;4.767877;0.04502542;-0.3140409;3.87603;0.1773438;-0.01175541;3.219318;-0.4351499;0.7653061;4.886555;0.00380601;1.049003;4.728629;0.04502523;1.386325;4.171606;-0.6650549;0.7057947;4.82556;-0.5813363;0.1444519;2.783529;-0.2500201;0.0947126;1.321241;-0.2401662;0;0;0;0.1444519;2.783529;-0.2500201;0.0947126;1.321241;-0.2401662;0;0;0
720869.7296;NotLabelled;NONE;16384;-0.4806094;0.4459834;-0.6210966;-0.4293629;0;-3;-1;-466;3896;1005;65536;0.7818286;-0.3891967;0.08725762;0.4792244;2;-2;1;-2935;2768;-872;8192;0.7962182;-0.1828255;-0.2825485;-0.5027701;-2;11;0;-2814;2401;1945;32768;0.4653739;0.01246537;0.7628185;-0.4487534;8;-2;-6;1607;-2729;-2386;256;0.02631579;-0.05817174;-0.6509695;-0.7564141;1;-1;1;207;4040;-665;128;0.04709141;0.05401662;0.5609418;0.8247477;-2;0;-2;-653;3837;1528;4;-0.5055401;0.4944598;-0.51078;-0.4889196;0;-1;0;-31;4098;146;16;0.6371191;-0.7699037;-0.005540166;-0.03601108;0;0;0;171;4000;782;2;0.5548799;-0.533241;-0.4487534;-0.4542936;1;-4;0;-133;4088;79;8;0.6468144;-0.7509263;0.03878116;0.1274238;0;-2;0;-449;3991;605;0.45722;2.824393;-0.2367685;0.4631648;3.36613;-0.1726741;0.468393;3.842553;-0.118344;0.4944523;4.56745;-0.007401168;0.2477136;4.904693;0.004210837;-0.09869404;4.768892;0.04542864;-0.3141018;3.877483;0.1770368;-0.01143657;3.220029;-0.4344728;0.7677218;4.886003;0.004210278;1.051133;4.727562;0.04542796;1.391369;4.170529;-0.6632525;0.7129211;4.827654;-0.5878652;0.1449786;2.783529;-0.2497163;0.09521854;1.32124;-0.2399666;0;0;0;0.1449786;2.783529;-0.2497163;0.09521854;1.32124;-0.2399666;0;0;0
720890.4335;NotLabelled;NONE;16384;-0.4792244;0.4459834;-0.6212078;-0.4307479;0;-1;0;-404;3960;921;65536;0.780978;-0.3891967;0.08725762;0.4806094;0;-1;0;-2941;2748;-916;8192;0.7960423;-0.1814404;-0.2839335;-0.5027701;-7;11;0;-2820;2367;1959;32768;0.466759;0.01246537;0.7619718;-0.4487534;4;-10;-8;1671;-2885;-2064;256;0.02631579;-0.05955679;-0.6495845;-0.7574962;1;0;1;193;4064;-681;128;0.04847645;0.05540166;0.5609418;0.8245756;-2;0;-2;-577;3813;1610;4;-0.5041551;0.4944598;-0.5121471;-0.4889196;0;-1;0;-33;4068;148;16;0.6371191;-0.7699037;-0.005540166;-0.03601108;0;0;0;131;4036;722;2;0.5546794;-0.534626;-0.4487534;-0.4529086;0;-4;0;-57;4148;35;8;0.6468144;-0.7509263;0.03878116;0.1274238;0;-3;0;-473;4035;639;0.4572195;2.824348;-0.2366139;0.463162;3.36586;-0.170645;0.468388;3.842092;-0.1146663;0.4944472;4.566989;-0.003723159;0.2477085;4.904232;0.007888898;-0.09869915;4.768431;0.04910646;-0.314107;3.877023;0.180714;-0.01255292;3.221108;-0.4329949;0.7677168;4.885542;0.007888466;1.051128;4.727101;0.04910628;1.393686;4.170476;-0.6587763;0.7174537;4.830117;-0.585486;0.1449787;2.783529;-0.249715;0.0952187;1.32124;-0.2399659;0;0;0;0.1449787;2.783529;-0.249715;0.0952187;1.32124;-0.2399659;0;0;0
720911.486;NotLabelled;NONE;16384;-0.4792244;0.4445983;-0.6221998;-0.4307479;0;0;0;-414;3930;993;65536;0.780978;-0.3891967;0.08725762;0.4806094;0;-1;-1;-2879;2758;-846;8192;0.7951092;-0.1772853;-0.2867036;-0.5041551;-11;4;0;-3010;2215;1841;32768;0.4709141;0.01385042;0.7602037;-0.4473684;-4;-22;-10;1683;-2827;-2294;256;0.02631579;-0.05955679;-0.6495845;-0.7574962;1;0;1;193;4064;-627;128;0.04847645;0.05540166;0.5609418;0.8245756;-2;0;-2;-663;3839;1468;4;-0.5055401;0.4944598;-0.51078;-0.4889196;0;-1;0;-19;4084;116;16;0.6371191;-0.7699037;-0.005540166;-0.03601108;0;2;0;145;4022;790;2;0.555797;-0.534626;-0.4473684;-0.4529086;0;-4;0;-71;4130;85;8;0.6454294;-0.7521171;0.03878116;0.1274238;0;-4;0;-477;4015;677;0.4582188;2.824301;-0.2403701;0.4641613;3.365817;-0.1744392;0.4693874;3.842053;-0.1184938;0.4965786;4.566498;-0.004899219;0.2503722;4.904086;0.007913209;-0.09625551;4.768683;0.04858946;-0.3096468;3.87673;0.1797835;-0.00560537;3.221214;-0.4331233;0.7703503;4.884573;0.007911861;1.053505;4.725535;0.04858701;1.402416;4.1698;-0.6568877;0.7250872;4.828753;-0.5876521;0.1459779;2.783481;-0.253468;0.09574021;1.32124;-0.2397592;0;0;0;0.1459779;2.783481;-0.253468;0.09574021;1.32124;-0.2397592;0;0;0
720931.4845;NotLabelled;NONE;16384;-0.4806094;0.4445983;-0.6211305;-0.4307479;0;0;1;-450;3928;995;65536;0.7808134;-0.3878116;0.08725762;0.4819945;-1;-1;-2;-2919;2790;-924;8192;0.7952214;-0.1745152;-0.2880886;-0.5041551;-13;0;1;-2882;2189;1713;32768;0.4736842;0.0166205;0.7600522;-0.4445983;-3;-34;-9;1731;-2771;-2306;256;0.02631579;-0.05955679;-0.6495845;-0.7574962;1;0;1;257;4020;-687;128;0.04847645;0.05540166;0.5609418;0.8245756;-1;0;-2;-615;3795;1530;4;-0.5055401;0.4944598;-0.5094507;-0.4903047;0;-1;0;-29;4012;84;16;0.6371191;-0.7699037;-0.005540166;-0.03601108;0;0;0;125;3970;780;2;0.5569228;-0.534626;-0.4473684;-0.4515235;0;-5;0;-55;4154;85;8;0.6454294;-0.7518084;0.0401662;0.1288089;-1;-4;0;-489;4057;653;0.4577627;2.824349;-0.2363024;0.4637052;3.365865;-0.1703715;0.4689313;3.842101;-0.1144262;0.4961223;4.566545;-0.0008313879;0.249916;4.904134;0.01198051;-0.09671171;4.768732;0.05265608;-0.3117884;3.877223;0.1841269;-0.007745966;3.221707;-0.428779;0.7698939;4.884621;0.01198019;1.053048;4.725583;0.05265595;1.407631;4.173038;-0.6524965;0.7276746;4.829827;-0.5886635;0.1455219;2.783529;-0.2494003;0.0957408;1.32124;-0.2397589;0;0;0;0.1455219;2.783529;-0.2494003;0.0957408;1.32124;-0.2397589;0;0;0
720951.8497;NotLabelled;NONE;16384;-0.4806094;0.4445983;-0.6211305;-0.4307479;0;1;1;-460;3982;1005;65536;0.7809669;-0.3878116;0.08587258;0.4819945;-2;0;-3;-2951;2824;-902;8192;0.7950211;-0.1731302;-0.2894737;-0.5041551;-11;2;3;-2694;2223;1617;32768;0.4778393;0.02077562;0.7589636;-0.4418283;-1;-40;-7;1669;-2877;-2456;256;0.02493075;-0.05955679;-0.6495845;-0.757543;1;1;1;219;3968;-665;128;0.04847645;0.05540166;0.5595568;0.8255162;0;0;-2;-679;3845;1510;4;-0.5055401;0.4944598;-0.5094507;-0.4903047;0;0;1;-1;4088;70;16;0.6371191;-0.7699037;-0.005540166;-0.03601108;0;1;0;95;3942;760;2;0.5567023;-0.536011;-0.4459834;-0.4515235;0;-5;0;-87;4160;105;8;0.6454294;-0.7518084;0.0401662;0.1288089;0;-2;0;-443;4075;735;0.4533289;2.824512;-0.2328586;0.4592714;3.366028;-0.1669276;0.4644974;3.842264;-0.1109823;0.4916884;4.566709;0.002612442;0.2454821;4.904297;0.01542434;-0.1011456;4.768895;0.0560999;-0.3165553;3.877099;0.1850478;-0.01247364;3.223525;-0.429909;0.76546;4.884784;0.01542403;1.048614;4.725746;0.05609979;1.408082;4.176054;-0.6488085;0.7265787;4.831284;-0.5854489;0.141088;2.783692;-0.2459566;0.0957409;1.32124;-0.2397588;0;0;0;0.141088;2.783692;-0.2459566;0.0957409;1.32124;-0.2397588;0;0;0
720973.4901;NotLabelled;NONE;16384;-0.4806094;0.4445983;-0.6211305;-0.4307479;1;3;0;-448;3974;991;65536;0.7801104;-0.3878116;0.08587258;0.4833795;-3;0;-3;-2895;2788;-970;8192;0.794816;-0.1717452;-0.2908587;-0.5041551;-9;7;2;-2748;2259;1599;32768;0.4806094;0.02493075;0.7586969;-0.4390582;0;-36;-5;1307;-2745;-2624;256;0.02493075;-0.06094183;-0.6495845;-0.7574329;-1;3;2;191;4040;-697;128;0.04847645;0.0567867;0.5595568;0.825422;0;2;-2;-583;3835;1566;4;-0.5041551;0.4944598;-0.5108213;-0.4903047;0;-2;0;-23;4076;58;16;0.6371191;-0.7699037;-0.005540166;-0.03601108;0;0;0;203;3976;754;2;0.5567023;-0.536011;-0.4459834;-0.4515235;0;-4;0;5;4140;115;8;0.6454294;-0.7518084;0.0401662;0.1288089;0;-2;0;-411;4005;701;0.4528853;2.824468;-0.232963;0.4588253;3.365758;-0.1652054;0.4640493;3.841803;-0.1076537;0.492759;4.56617;0.006054528;0.2472613;4.904273;0.01891794;-0.09964995;4.769591;0.05957036;-0.3148147;3.877795;0.1889263;-0.009774685;3.225373;-0.4267788;0.7671972;4.883669;0.01891741;1.050017;4.724031;0.05956981;1.411405;4.175178;-0.6450115;0.72877;4.8294;-0.5834413;0.140645;2.783691;-0.2462101;0.09530915;1.321241;-0.2399308;0;0;0;0.140645;2.783691;-0.2462101;0.09530915;1.321241;-0.2399308;0;0;0
720994.524;NotLabelled;NONE;16384;-0.4819945;0.4459834;-0.6200224;-0.4293629;0;5;1;-434;3946;969;65536;0.7802617;-0.3878116;0.08448754;0.4833795;-4;2;-3;-2903;2818;-1046;8192;0.794606;-0.1703601;-0.2922437;-0.5041551;-7;10;3;-2840;2219;1637;32768;0.4833795;0.02908587;0.7583871;-0.4362881;5;-36;-6;1133;-2759;-2738;256;0.0235457;-0.05955679;-0.6495845;-0.7575874;0;3;2;207;3968;-701;128;0.04986149;0.0567867;0.5595568;0.8253395;0;1;-1;-567;3811;1546;4;-0.5041551;0.4944598;-0.5108213;-0.4903047;0;-2;0;53;4104;40;16;0.6371191;-0.7699037;-0.005540166;-0.03601108;0;0;0;167;4004;820;2;0.5589274;-0.536011;-0.4445983;-0.4501385;0;-3;0;-39;4062;79;8;0.6454294;-0.7518084;0.0401662;0.1288089;0;-1;0;-453;4025;697;0.4538735;2.824429;-0.2367257;0.4598134;3.365714;-0.1689197;0.4650373;3.841753;-0.1113252;0.4950555;4.566067;0.002391614;0.2501688;4.904612;0.01525896;-0.0969851;4.770556;0.05590967;-0.3124349;3.878761;0.1847903;-0.00494691;3.226743;-0.4301253;0.7700666;4.883069;0.01525839;1.052598;4.72292;0.05590904;1.418788;4.174908;-0.6468444;0.735686;4.828818;-0.5871701;0.1416332;2.783654;-0.2499768;0.09581573;1.321241;-0.2397282;0;0;0;0.1416332;2.783654;-0.2499768;0.09581573;1.321241;-0.2397282;0;0;0
721015.4945;NotLabelled;NONE;16384;-0.4833795;0.4459834;-0.6189432;-0.4293629;0;5;1;-464;3962;933;65536;0.7804104;-0.3878116;0.08310249;0.4833795;-4;2;-3;-2889;2796;-1004;8192;0.791889;-0.16759;-0.2963989;-0.5069252;-3;7;5;-2952;2217;1589;32768;0.4889196;0.03739612;0.7568489;-0.432133;11;-34;-9;1465;-2797;-2446;256;0.0235457;-0.06094183;-0.6495845;-0.7574772;0;3;2;225;4020;-681;128;0.04986149;0.0567867;0.5595568;0.8253395;0;3;-1;-603;3813;1488;4;-0.5041551;0.4930748;-0.5108289;-0.4916897;0;0;0;-1;4084;86;16;0.6371191;-0.7698925;-0.006925208;-0.03601108;0;2;0;89;4036;774;2;0.5575958;-0.5373961;-0.4445983;-0.4501385;0;-1;0;-5;4106;11;8;0.6454294;-0.7518084;0.0401662;0.1288089;0;-1;0;-457;4005;697;0.4528951;2.824431;-0.2372848;0.4588352;3.365727;-0.169566;0.4640591;3.841776;-0.1120483;0.4942879;4.566065;0.001768559;0.2494999;4.904679;0.01468105;-0.09769349;4.77072;0.05531105;-0.3132464;3.879021;0.1846959;-0.006103065;3.228162;-0.4316168;0.7693914;4.882985;0.01468071;1.051875;4.722748;0.05531104;1.418569;4.175576;-0.6478354;0.7353699;4.829185;-0.5860007;0.1406547;2.783654;-0.2505288;0.09487769;1.32124;-0.2401012;0;0;0;0.1406547;2.783654;-0.2505288;0.09487769;1.32124;-0.2401012;0;0;0
721036.5024;NotLabelled;NONE;16384;-0.4833795;0.4459834;-0.6189432;-0.4293629;0;5;1;-456;3940;1013;65536;0.779867;-0.3891967;0.08171745;0.4833795;-4;2;-4;-2809;2778;-972;8192;0.7904803;-0.16759;-0.2977839;-0.5083103;-1;8;7;-2948;2217;1559;32768;0.4930748;0.04293629;0.7546456;-0.4307479;12;-52;-9;1639;-2939;-2274;256;0.02216066;-0.06094183;-0.6495845;-0.757519;0;4;1;269;4004;-667;128;0.04986149;0.0567867;0.5595568;0.8253395;-1;2;0;-637;3803;1508;4;-0.5041551;0.4930748;-0.5108289;-0.4916897;0;1;0;33;4082;72;16;0.6371191;-0.7698925;-0.006925208;-0.03601108;0;2;0;163;3980;804;2;0.5575958;-0.5373961;-0.4445983;-0.4501385;0;0;0;-21;4064;141;8;0.6454294;-0.7518084;0.0401662;0.1288089;0;0;0;-499;4075;751;0.4505754;2.824585;-0.2333299;0.4565154;3.36588;-0.165611;0.4617395;3.841929;-0.1080934;0.4932763;4.566161;0.005732171;0.2491003;4.905218;0.01864854;-0.09833437;4.771884;0.05927677;-0.3144749;3.8799;0.1856728;-0.003967177;3.230199;-0.4301767;0.7689519;4.882583;0.01864831;1.051146;4.721836;0.05927691;1.425507;4.174176;-0.6394352;0.7426326;4.828559;-0.5823849;0.138335;2.783808;-0.2465738;0.09302582;1.321356;-0.2401927;0;0;0;0.138335;2.783808;-0.2465738;0.09302582;1.321356;-0.2401927;0;0;0
721057.6541;NotLabelled;NONE;16384;-0.4833795;0.4459834;-0.6189432;-0.4293629;0;5;2;-450;3928;997;65536;0.779867;-0.3891967;0.08171745;0.4833795;-4;3;-3;-2863;2788;-1062;8192;0.7899571;-0.16759;-0.299169;-0.5083103;0;9;7;-2874;2209;1619;32768;0.4972299;0.04986149;0.7522791;-0.4293629;10;-50;-7;1297;-3001;-2304;256;0.02216066;-0.05955679;-0.6495845;-0.7576292;-2;4;1;229;4002;-693;128;0.05124654;0.0567867;0.5595568;0.8252547;-1;2;0;-603;3783;1602;4;-0.5055401;0.4930748;-0.5107913;-0.4903047;0;2;0;-1;4124;78;16;0.6371191;-0.7698925;-0.006925208;-0.03601108;0;1;0;117;4020;788;2;0.5575958;-0.5373961;-0.4445983;-0.4501385;0;0;-1;-13;4102;103;8;0.6454294;-0.7515698;0.0401662;0.1301939;0;0;0;-469;4075;729;0.4501317;2.824584;-0.2335779;0.4560717;3.36588;-0.1658591;0.4612957;3.841928;-0.1083414;0.4943516;4.566077;0.005587965;0.2508875;4.905642;0.01855133;-0.09682644;4.773033;0.05915849;-0.3127394;3.881048;0.1859428;-0.0001584999;3.230969;-0.4284568;0.7706904;4.881918;0.01855104;1.052546;4.720572;0.05915828;1.4263;4.171231;-0.6385571;0.7447127;4.8273;-0.585644;0.1378914;2.783807;-0.2468219;0.09259368;1.321356;-0.2403593;0;0;0;0.1378914;2.783807;-0.2468219;0.09259368;1.321356;-0.2403593;0;0;0
721077.5056;NotLabelled;NONE;16384;-0.4847645;0.4459834;-0.617859;-0.4293629;0;6;2;-388;3940;991;65536;0.7800108;-0.3891967;0.08033241;0.4833795;-4;5;-4;-2803;2804;-1014;8192;0.7885376;-0.16759;-0.300554;-0.5096953;1;11;7;-2864;2265;1571;32768;0.501385;0.05540166;0.7507079;-0.4265928;13;-46;-8;1037;-2833;-2702;256;0.02077562;-0.05955679;-0.6495845;-0.7576684;-1;4;0;155;4000;-737;128;0.05124654;0.0567867;0.5595568;0.8252547;0;4;0;-635;3797;1540;4;-0.5055401;0.4944598;-0.5094507;-0.4903047;0;3;0;27;4024;78;16;0.6371191;-0.7698925;-0.006925208;-0.03601108;0;1;0;83;4006;748;2;0.5575958;-0.5373961;-0.4445983;-0.4501385;0;0;0;-73;4166;85;8;0.6454294;-0.7515698;0.0401662;0.1301939;0;0;0;-523;4007;681;0.4535812;2.824461;-0.2332865;0.4595214;3.365767;-0.1656582;0.4647455;3.841826;-0.1082202;0.4964935;4.566034;0.005699933;0.2524166;4.905159;0.0186592;-0.09505741;4.771924;0.05926821;-0.3107028;3.879938;0.1865074;0.0005795248;3.229859;-0.4285513;0.7722614;4.882374;0.01865885;1.054408;4.721539;0.05926792;1.428296;4.17101;-0.6374398;0.7492788;4.830037;-0.5883732;0.1413408;2.783681;-0.246523;0.09208576;1.321356;-0.2405545;0;0;0;0.1413408;2.783681;-0.246523;0.09208576;1.321356;-0.2405545;0;0;0
721097.5039;NotLabelled;NONE;16384;-0.4875346;0.4473684;-0.615635;-0.4279778;-2;8;2;-504;3942;1005;65536;0.7810087;-0.3891967;0.07894737;0.4819945;-4;5;-3;-2831;2788;-1062;8192;0.7871107;-0.16759;-0.301939;-0.5110803;3;8;9;-2948;2247;1521;32768;0.5041551;0.06232687;0.7498782;-0.4238227;16;-43;-11;889;-2769;-2796;256;0.01939058;-0.05955679;-0.6495845;-0.7577051;0;4;0;185;4024;-707;128;0.05124654;0.0567867;0.5595568;0.8252547;0;3;1;-527;3751;1578;4;-0.5055401;0.4944598;-0.5094507;-0.4903047;0;3;0;-53;4072;32;16;0.6371191;-0.7698925;-0.006925208;-0.03601108;0;1;0;123;4056;730;2;0.5575958;-0.5373961;-0.4445983;-0.4501385;0;2;0;-67;4156;83;8;0.6454294;-0.7518084;0.0401662;0.1288089;0;1;0;-461;4023;727;0.4491947;2.824586;-0.2340063;0.4551349;3.365893;-0.1663781;0.460359;3.841951;-0.1089401;0.4936265;4.566075;0.005078085;0.250262;4.905711;0.01808179;-0.09749113;4.773199;0.0586709;-0.3132258;3.880932;0.1837606;-0.0009889267;3.232016;-0.4320416;0.770058;4.881834;0.0180812;1.051866;4.720401;0.05867016;1.425133;4.168183;-0.6370326;0.7463888;4.827647;-0.5901176;0.1369542;2.783807;-0.2472428;0.09165297;1.321356;-0.2407197;0;0;0;0.1369542;2.783807;-0.2472428;0.09165297;1.321356;-0.2407197;0;0;0
721117.7155;NotLabelled;NONE;16384;-0.4889196;0.4473684;-0.6154979;-0.4265928;-3;7;2;-496;3848;999;65536;0.7820004;-0.3891967;0.07756232;0.4806094;-3;5;-3;-2731;2752;-1040;8192;0.7839372;-0.1689751;-0.3047091;-0.5138504;6;8;12;-2876;2319;1729;32768;0.5124654;0.07202215;0.744136;-0.4224377;15;-39;-13;1285;-2987;-2326;256;0.01939058;-0.05955679;-0.6495845;-0.7577051;0;4;0;141;4076;-665;128;0.05124654;0.05540166;0.5595568;0.8253489;-1;2;0;-573;3845;1524;4;-0.5055401;0.4944598;-0.5094507;-0.4903047;0;3;0;-7;4122;78;16;0.6371191;-0.7698265;-0.006925208;-0.03739612;0;2;0;153;4046;782;2;0.5575958;-0.5373961;-0.4445983;-0.4501385;-1;2;0;-17;4118;75;8;0.6454294;-0.7515698;0.0401662;0.1301939;0;0;0;-463;4067;687;0.4487502;2.824586;-0.2342522;0.4546904;3.365893;-0.166624;0.4599145;3.841951;-0.109186;0.4947018;4.565989;0.004925102;0.2520508;4.906134;0.01797088;-0.09597998;4.774347;0.05854088;-0.3123686;3.881888;0.1811116;-0.0003208816;3.233712;-0.435565;0.7717955;4.881165;0.01797031;1.053264;4.719136;0.05854033;1.425907;4.165223;-0.6361486;0.7494509;4.826987;-0.5885781;0.1365098;2.783807;-0.2474887;0.09122017;1.321356;-0.2408841;0;0;0;0.1365098;2.783807;-0.2474887;0.09122017;1.321356;-0.2408841;0;0;0
721138.6994;NotLabelled;NONE;16384;-0.4889196;0.4473684;-0.6154979;-0.4265928;-2;6;3;-558;3788;1035;65536;0.7821365;-0.3891967;0.07617728;0.4806094;-2;5;-4;-2781;2732;-1010;8192;0.7821868;-0.1703601;-0.3060942;-0.5152354;6;6;13;-2928;2339;1749;32768;0.5166205;0.07756232;0.7414864;-0.4210526;13;-43;-15;1185;-2997;-2348;256;0.01939058;-0.05817174;-0.6495845;-0.7578127;-1;4;0;119;3984;-673;128;0.05263158;0.05540166;0.5595568;0.8252617;0;1;1;-601;3837;1552;4;-0.5055401;0.4944598;-0.5094507;-0.4903047;0;1;0;-43;4140;78;16;0.6371191;-0.7698265;-0.006925208;-0.03739612;0;1;0;163;4008;810;2;0.5578229;-0.536011;-0.4459834;-0.4501385;0;1;0;-87;4098;73;8;0.6454294;-0.7515698;0.0401662;0.1301939;1;0;0;-501;4023;717;0.4515635;2.8245;-0.2336545;0.4575037;3.365813;-0.1660769;0.4627279;3.841877;-0.1086834;0.497515;4.565915;0.005427405;0.2548641;4.906059;0.01847299;-0.09316676;4.774272;0.05904292;-0.312107;3.882353;0.1810036;0.0008646734;3.234913;-0.4359786;0.7746087;4.881091;0.01847257;1.056077;4.719061;0.05904262;1.428296;4.159751;-0.631537;0.7547901;4.825348;-0.5975074;0.1393232;2.783719;-0.246887;0.09403371;1.321268;-0.2402818;0;0;0;0.1393232;2.783719;-0.246887;0.09403371;1.321268;-0.2402818;0;0;0
721159.5897;NotLabelled;NONE;16384;-0.4903047;0.4473684;-0.6153545;-0.4252077;-3;5;3;-508;3836;1001;65536;0.7821365;-0.3891967;0.07617728;0.4806094;-2;6;-4;-2797;2778;-964;8192;0.7816435;-0.1703601;-0.3074792;-0.5152354;6;4;13;-3008;2381;1697;32768;0.5207756;0.08310249;0.7395447;-0.4182825;13;-41;-17;759;-2935;-2758;256;0.01939058;-0.05817174;-0.6495845;-0.7578127;-2;4;0;185;4026;-721;128;0.05124654;0.05540166;0.5595568;0.8253489;0;1;1;-557;3789;1538;4;-0.5055401;0.4944598;-0.5094507;-0.4903047;0;1;0;-121;4116;100;16;0.6371191;-0.7698265;-0.006925208;-0.03739612;0;0;0;121;4004;820;2;0.5578229;-0.536011;-0.4459834;-0.4501385;0;1;0;-91;4074;125;8;0.6454294;-0.7515698;0.0401662;0.1301939;1;1;0;-467;4071;661;0.4510419;2.824502;-0.2339548;0.4569823;3.365827;-0.1664722;0.4622066;3.841901;-0.1091622;0.4956865;4.566002;0.00493928;0.2524217;4.905707;0.01798067;-0.09537063;4.773293;0.05855276;-0.3140525;3.881374;0.1809758;-0.000318978;3.235096;-0.4368368;0.7722107;4.881678;0.01798013;1.053971;4.720158;0.0585521;1.423668;4.157157;-0.6303825;0.7518635;4.824678;-0.6006718;0.1388014;2.78372;-0.2471794;0.09352592;1.321268;-0.2404792;0;0;0;0.1388014;2.78372;-0.2471794;0.09352592;1.321268;-0.2404792;0;0;0
721180.5546;NotLabelled;NONE;16384;-0.4916897;0.4473684;-0.6142484;-0.4252077;-3;6;3;-504;3892;993;65536;0.7822702;-0.3891967;0.07479224;0.4806094;-2;6;-3;-2791;2780;-978;8192;0.7807938;-0.1717452;-0.3088643;-0.5152354;6;0;13;-3040;2373;1653;32768;0.5249307;0.08864266;0.7367406;-0.4168975;16;-39;-21;811;-2827;-2942;256;0.01939058;-0.05817174;-0.6509695;-0.7566233;-2;4;-1;207;3950;-721;128;0.05124654;0.05401662;0.5595568;0.8254406;1;2;2;-571;3791;1542;4;-0.5055401;0.4944598;-0.5094507;-0.4903047;0;2;0;-9;4000;62;16;0.6371191;-0.7698925;-0.006925208;-0.03601108;0;0;0;85;4012;732;2;0.5578229;-0.536011;-0.4459834;-0.4501385;0;2;0;-97;4108;75;8;0.6454294;-0.7518084;0.0401662;0.1288089;1;0;0;-467;4083;671;0.4510421;2.8245;-0.2339483;0.4569823;3.365813;-0.1663707;0.4622065;3.841877;-0.1089772;0.4956864;4.565978;0.005123958;0.2524217;4.905684;0.0181652;-0.09537063;4.773269;0.05873714;-0.3165963;3.881893;0.1805446;-0.002862848;3.235614;-0.4372675;0.7722106;4.881654;0.01816469;1.053971;4.720133;0.05873682;1.425231;4.155937;-0.6283759;0.7539151;4.824105;-0.6023988;0.1388015;2.78372;-0.2471808;0.09352599;1.321268;-0.2404799;0;0;0;0.1388015;2.78372;-0.2471808;0.09352599;1.321268;-0.2404799;0;0;0
721202.5303;NotLabelled;NONE;16384;-0.4930748;0.4487534;-0.613084;-0.4238227;-2;6;2;-580;3856;989;65536;0.7832505;-0.3891967;0.0734072;0.4792244;-1;5;-5;-2791;2786;-888;8192;0.7796295;-0.1745152;-0.3102493;-0.5152354;6;-3;13;-2898;2287;1671;32768;0.5304709;0.09279778;0.7330338;-0.4155124;17;-40;-25;1017;-2735;-2600;256;0.01800554;-0.0567867;-0.6509695;-0.7567627;0;3;-2;263;3960;-655;128;0.05263158;0.05263158;0.5595568;0.8254429;1;2;2;-659;3841;1550;4;-0.5055401;0.4958449;-0.5094356;-0.4889196;0;2;0;-23;4054;36;16;0.6371191;-0.7698265;-0.006925208;-0.03739612;0;1;0;127;4012;778;2;0.5578229;-0.536011;-0.4459834;-0.4501385;0;1;0;-59;4172;93;8;0.6454294;-0.7518084;0.0401662;0.1288089;1;0;0;-463;4055;677;0.448206;2.824589;-0.2345609;0.4541463;3.365908;-0.1670328;0.4593705;3.841977;-0.1096828;0.4930197;4.566482;0.001772888;0.2498275;4.906283;0.013617;-0.09798543;4.77409;0.05473012;-0.319484;3.882437;0.1739863;-0.003737129;3.237321;-0.4440153;0.7696114;4.882146;0.01361646;1.051346;4.720716;0.0547294;1.422463;4.153346;-0.6298419;0.7529533;4.823524;-0.6096842;0.1359655;2.783807;-0.2477893;0.09069067;1.321355;-0.2410845;0;0;0;0.1359655;2.783807;-0.2477893;0.09069067;1.321355;-0.2410845;0;0;0
721223.5401;NotLabelled;NONE;16384;-0.4930748;0.4487534;-0.6140391;-0.4224377;-1;4;1;-576;3840;1021;65536;0.7833791;-0.3891967;0.07202215;0.4792244;-1;5;-6;-2841;2764;-964;8192;0.7787654;-0.1759003;-0.3116343;-0.5152354;4;0;16;-2772;2325;1803;32768;0.536011;0.09695291;0.7292399;-0.4141274;15;-53;-31;915;-2457;-2246;256;0.01800554;-0.0567867;-0.6509695;-0.7567627;-2;1;-2;233;4022;-681;128;0.05263158;0.05263158;0.5595568;0.8254429;1;2;3;-615;3831;1528;4;0.5094356;-0.4958449;0.5055401;0.4889196;0;3;0;11;4118;52;16;0.6371191;-0.7698265;-0.006925208;-0.03739612;0;1;0;179;4012;766;2;0.5578229;-0.536011;-0.4459834;-0.4501385;0;1;0;-103;4112;77;8;0.6454294;-0.7518084;0.0401662;0.1288089;0;0;0;-505;4043;597;0.4504856;2.824467;-0.2384618;0.4564261;3.365805;-0.1710798;0.4616505;3.841889;-0.1138584;0.4955088;4.566373;-0.002324916;0.2524146;4.906244;0.009556863;-0.09543603;4.774146;0.05065727;-0.3165276;3.882537;0.171001;-0.002273634;3.238152;-0.4485223;0.7721915;4.881956;0.009551167;1.053879;4.72044;0.0506454;1.417886;4.148115;-0.6336191;0.7484713;4.818548;-0.6197858;0.1382451;2.783682;-0.2516781;0.09256204;1.321268;-0.2408517;0;0;0;0.1382451;2.783682;-0.2516781;0.09256204;1.321268;-0.2408517;0;0;0
721244.6609;NotLabelled;NONE;16384;-0.4944598;0.4487534;-0.6129243;-0.4224377;0;3;2;-558;3810;937;65536;0.7835052;-0.3891967;0.07063711;0.4792244;-1;4;-7;-2805;2798;-926;8192;0.7762439;-0.1786704;-0.3185596;-0.5138504;1;-4;28;-2604;2295;1693;32768;0.5526316;0.1108033;0.717898;-0.4085872;23;-67;-46;651;-2139;-2806;256;0.01800554;-0.05540166;-0.6509695;-0.7568653;-3;0;-3;113;4024;-743;128;0.05263158;0.05263158;0.5609418;0.8245023;3;1;4;-503;3855;1584;4;0.5094356;-0.4958449;0.5055401;0.4889196;0;2;0;-21;4054;120;16;0.6371191;-0.7698925;-0.006925208;-0.03601108;0;0;0;173;3996;688;2;0.5578229;-0.536011;-0.4459834;-0.4501385;0;1;-1;-111;4088;99;8;0.6454294;-0.7518084;0.0401662;0.1288089;0;0;0;-457;4065;679;0.449221;2.824547;-0.2269599;0.4551614;3.365884;-0.1595779;0.4603858;3.841969;-0.1023565;0.4942429;4.566453;0.009177178;0.2511486;4.906322;0.02105637;-0.09670249;4.774225;0.06215325;-0.3205153;3.883474;0.1838064;-0.004187122;3.240252;-0.4358697;0.7709254;4.882035;0.02105613;1.052613;4.72052;0.06215335;1.419201;4.144853;-0.6179168;0.7499544;4.815579;-0.6131469;0.1369805;2.783762;-0.2401763;0.09256446;1.321268;-0.2408508;0;0;0;0.1369805;2.783762;-0.2401763;0.09256446;1.321268;-0.2408508;0;0;0
721266.4959;NotLabelled;NONE;16384;-0.4944598;0.4487534;-0.6129243;-0.4224377;0;2;2;-670;3802;967;65536;0.7841917;-0.3878116;0.07063711;0.4792244;0;4;-7;-2785;2814;-942;8192;0.7750493;-0.1828255;-0.3213296;-0.5124654;2;-9;36;-2272;2219;1557;32768;0.5609418;0.1163435;0.7113332;-0.4072022;29;-58;-53;589;-2033;-2812;256;0.01800554;-0.05540166;-0.6509695;-0.7568653;-5;0;-3;97;4048;-755;128;0.05124654;0.05124654;0.5609418;0.8246768;5;1;3;-495;3843;1570;4;0.5094356;-0.4958449;0.5055401;0.4889196;0;3;0;-73;4102;104;16;0.6371191;-0.7698925;-0.006925208;-0.03601108;0;1;0;89;4022;772;2;0.5580326;-0.534626;-0.4459834;-0.4515235;0;2;-1;-71;4176;153;8;0.6454294;-0.7518084;0.0401662;0.1288089;0;-1;0;-455;3987;639;0.4458965;2.824678;-0.2279775;0.4518395;3.36624;-0.1624234;0.457066;3.842515;-0.1068095;0.4896129;4.56706;0.004714914;0.2459042;4.90649;0.01658998;-0.1017074;4.773764;0.05768881;-0.3255429;3.882733;0.1772353;-0.008454423;3.240676;-0.4432598;0.7657242;4.883143;0.01658967;1.047703;4.722137;0.05768863;1.418278;4.137165;-0.6122029;0.7504238;4.809011;-0.6316757;0.1336555;2.783848;-0.2410447;0.08923803;1.321355;-0.2416254;0;0;0;0.1336555;2.783848;-0.2410447;0.08923803;1.321355;-0.2416254;0;0;0
721287.5151;NotLabelled;NONE;16384;-0.4944598;0.4487534;-0.6129243;-0.4224377;-1;1;1;-646;3758;903;65536;0.7843152;-0.3878116;0.06925207;0.4792244;0;3;-9;-2797;2762;-896;8192;0.7735665;-0.1869806;-0.3268698;-0.5096953;3;-9;45;-2108;2181;1493;32768;0.5706371;0.1218837;0.7026408;-0.4072022;34;-54;-65;425;-1755;-2582;256;0.01939058;-0.05401662;-0.6523545;-0.7557379;-5;0;-4;145;3992;-777;128;0.05124654;0.05124654;0.5609418;0.8246768;4;1;4;-531;3803;1642;4;0.5094356;-0.4958449;0.5055401;0.4889196;0;3;1;-85;4084;96;16;0.6371191;-0.7698265;-0.006925208;-0.03739612;0;2;0;111;4014;746;2;0.5580326;-0.534626;-0.4459834;-0.4515235;0;1;-2;-129;4124;87;8;0.6454294;-0.7518084;0.0401662;0.1288089;0;-2;1;-435;4057;665;0.445897;2.824677;-0.2279727;0.4518399;3.366233;-0.1623699;0.4570663;3.842503;-0.1067132;0.4896127;4.567049;0.004811421;0.245904;4.906478;0.01668584;-0.1017077;4.773752;0.05778347;-0.3255438;3.882732;0.177409;-0.009576339;3.242227;-0.4452581;0.7657239;4.883132;0.01668708;1.047703;4.722126;0.05778694;1.417378;4.129422;-0.6057773;0.7508371;4.801953;-0.6405965;0.1336561;2.783849;-0.2410438;0.08923867;1.321356;-0.2416249;0;0;0;0.1336561;2.783849;-0.2410438;0.08923867;1.321356;-0.2416249;0;0;0
721308.5076;NotLabelled;NONE;16384;-0.4944598;0.4487534;-0.6129243;-0.4224377;2;0;-1;-500;3730;981;65536;0.7850718;-0.3850415;0.06648199;0.4806094;2;0;-10;-2713;2628;-850;8192;0.7720088;-0.1911357;-0.33241;-0.5069252;3;-5;57;-1974;2209;1505;32768;0.5803324;0.1260388;0.6939127;-0.4072022;37;-43;-80;113;-1445;-2324;256;0.02077562;-0.05401662;-0.6523545;-0.7557011;-2;-4;-5;201;3840;-707;128;0.04986149;0.05124654;0.5623268;0.823818;7;0;4;-591;3753;1558;4;0.5094356;-0.4958449;0.5055401;0.4889196;-1;0;1;-121;4080;58;16;0.6371191;-0.7698265;-0.006925208;-0.03739612;0;1;0;153;3986;750;2;0.5580326;-0.534626;-0.4459834;-0.4515235;0;0;-2;-163;4106;57;8;0.6454294;-0.7515698;0.0401662;0.1301939;1;-3;0;-463;4053;725;0.4486234;2.824589;-0.2274458;0.4545663;3.366145;-0.161843;0.4597927;3.842415;-0.1061864;0.4896686;4.567492;0.00259272;0.2447041;4.906059;0.01322605;-0.1024062;4.772201;0.0548855;-0.3261964;3.88117;0.1745179;-0.00839898;3.241832;-0.448417;0.7646071;4.88464;0.0132255;1.047188;4.724839;0.05488485;1.419759;4.122798;-0.5985778;0.7560338;4.796751;-0.6537483;0.1363824;2.783761;-0.2405169;0.09196459;1.321268;-0.2410808;0;0;0;0.1363824;2.783761;-0.2405169;0.09196459;1.321268;-0.2410808;0;0;0
721329.5046;NotLabelled;NONE;16384;-0.4944598;0.4501385;-0.6119079;-0.4224377;4;0;0;-666;3738;951;65536;0.7850718;-0.3850415;0.06648199;0.4806094;3;-1;-11;-2781;2618;-898;8192;0.7678916;-0.1966759;-0.3407202;-0.5055401;2;0;71;-1704;2361;1493;32768;0.5927978;0.1288089;0.6811181;-0.4099723;43;-53;-96;697;-965;-2158;256;0.02216066;-0.05401662;-0.6523545;-0.7556617;-3;-8;-5;109;3932;-763;128;0.04986149;0.04986149;0.5637119;0.822956;7;0;5;-545;3775;1582;4;0.5108063;-0.4958449;0.5041551;0.4889196;-1;0;1;-71;4094;62;16;0.6371191;-0.7698265;-0.006925208;-0.03739612;0;0;0;129;4030;794;2;0.5591367;-0.534626;-0.4445983;-0.4515235;1;-2;-2;-95;4108;71;8;0.6454294;-0.7514945;0.04155125;0.1301939;0;-2;0;-473;4035;651;0.4490581;2.824631;-0.2273405;0.4550032;3.366395;-0.163472;0.4602316;3.84284;-0.1093405;0.4885897;4.567992;-0.0006522536;0.242917;4.906046;0.009939771;-0.1039121;4.771467;0.05161748;-0.3279288;3.880436;0.1708251;-0.005984925;3.247004;-0.4560021;0.7628637;4.885715;0.009939566;1.045779;4.726511;0.0516177;1.422668;4.115188;-0.5906539;0.7612414;4.789215;-0.668057;0.1368166;2.783762;-0.2402699;0.09239995;1.321268;-0.2409141;0;0;0;0.1368166;2.783762;-0.2402699;0.09239995;1.321268;-0.2409141;0;0;0
721350.9285;NotLabelled;NONE;16384;-0.4944598;0.4501385;-0.6119079;-0.4224377;6;-1;1;-714;3646;931;65536;0.7850168;-0.3836565;0.06509695;0.4819945;3;-2;-13;-2733;2596;-928;8192;0.7567095;-0.2105263;-0.3628809;-0.501385;1;10;109;-1284;2609;1833;32768;0.6177285;0.1315789;0.6545593;-0.4155124;40;-26;-116;877;-1091;-1522;256;0.0235457;-0.05401662;-0.6523545;-0.7556198;-7;-12;-4;-7;4052;-793;128;0.04847645;0.04986149;0.5650969;0.8220884;8;0;5;-565;3809;1562;4;0.5108063;-0.4958449;0.5041551;0.4889196;0;0;0;-45;4038;84;16;0.6371191;-0.7698265;-0.006925208;-0.03739612;0;0;0;143;3940;818;2;0.5591367;-0.534626;-0.4445983;-0.4515235;0;-4;-2;-121;4148;71;8;0.6454294;-0.7514945;0.04155125;0.1301939;1;-3;0;-463;3983;741;0.4489761;2.824683;-0.2231961;0.4549236;3.366664;-0.1612059;0.460154;3.843295;-0.1087262;0.4870046;4.568519;-0.0001363307;0.2406257;4.906059;0.01043465;-0.1059169;4.77076;0.05216327;-0.3283272;3.87885;0.16775;-0.005308311;3.245418;-0.4585239;0.7606139;4.886818;0.01038735;1.043866;4.728211;0.05205944;1.42598;4.105193;-0.5757241;0.7690163;4.779011;-0.6859803;0.1367341;2.783768;-0.2359719;0.09281328;1.321269;-0.240755;0;0;0;0.1367341;2.783768;-0.2359719;0.09281328;1.321269;-0.240755;0;0;0
721371.5002;NotLabelled;NONE;16384;-0.4930748;0.4501385;-0.6120678;-0.4238227;6;-6;3;-746;3592;903;65536;0.7856275;-0.3808864;0.06371191;0.4833795;5;-2;-16;-2839;2718;-956;8192;0.7489721;-0.2202216;-0.3767313;-0.4986149;2;4;125;-1290;2701;1691;32768;0.6301939;0.1288089;0.6395143;-0.4210526;36;4;-137;349;-1105;-1610;256;0.02631579;-0.05540166;-0.6537396;-0.7542298;-9;-15;-5;-21;4008;-767;128;0.04847645;0.04847645;0.566482;0.8212175;11;-2;5;-417;3823;1510;4;0.5121284;-0.4958449;0.5041551;0.4875346;0;2;1;-59;4054;134;16;0.6371191;-0.7698265;-0.006925208;-0.03739612;0;1;0;127;3962;756;2;0.5589103;-0.536011;-0.4432133;-0.4515235;0;-3;-2;-75;4126;99;8;0.6454294;-0.7514945;0.04155125;0.1301939;1;-2;0;-473;4039;653;0.4494237;2.824724;-0.2230793;0.4553734;3.366901;-0.1628301;0.4606057;3.843698;-0.1118815;0.4859294;4.568992;-0.003390461;0.2388439;4.906017;0.007112518;-0.1074184;4.769999;0.0488307;-0.3298602;3.878496;0.1674596;-0.003587104;3.248255;-0.460345;0.7588711;4.887864;0.007112056;1.04245;4.729856;0.04883026;1.433143;4.070076;-0.5345426;0.7862248;4.739459;-0.7112113;0.1371814;2.783768;-0.2357126;0.0932696;1.321268;-0.2405787;0;0;0;0.1371814;2.783768;-0.2357126;0.0932696;1.321268;-0.2405787;0;0;0
721391.7365;NotLabelled;NONE;16384;-0.4930748;0.4501385;-0.6111064;-0.4252077;6;-9;3;-646;3682;819;65536;0.7855555;-0.3795014;0.06232687;0.4847645;7;-4;-18;-2829;2750;-1062;8192;0.740952;-0.2299169;-0.3919668;-0.4944598;3;0;143;-1210;2943;1521;32768;0.6453224;0.1191136;0.6204986;-0.4293629;30;27;-165;-55;-1089;-1404;256;0.02908587;-0.0567867;-0.6537396;-0.7540251;-10;-19;-6;73;3988;-741;128;0.04709141;0.04847645;0.567867;0.8203411;12;-6;5;-397;3899;1544;4;0.5121284;-0.4958449;0.5041551;0.4875346;0;0;2;-115;4032;58;16;0.6371191;-0.7698265;-0.006925208;-0.03739612;0;0;0;177;4016;788;2;0.5589103;-0.536011;-0.4432133;-0.4515235;0;-1;-1;-111;4094;11;8;0.6454294;-0.7514166;0.04293629;0.1301939;1;0;0;-531;4049;659;0.4546883;2.824642;-0.2219856;0.4606403;3.367025;-0.1636177;0.4658744;3.843996;-0.1143234;0.4896497;4.569765;-0.00869938;0.2418401;4.906296;0.0005074032;-0.104123;4.769698;0.04280975;-0.3247125;3.877656;0.160841;0.006074678;3.252193;-0.4693747;0.7619052;4.889263;0.0005069375;1.04583;4.732033;0.04280937;1.442853;4.050068;-0.5099753;0.8031273;4.714116;-0.7280976;0.1424454;2.783644;-0.2344649;0.09462953;1.321268;-0.240047;0;0;0;0.1424454;2.783644;-0.2344649;0.09462953;1.321268;-0.240047;0;0;0
721412.5512;NotLabelled;NONE;16384;-0.4903047;0.4487534;-0.6124187;-0.4279778;8;-14;0;-594;3788;815;65536;0.7866061;-0.3739612;0.06094183;0.4875346;13;-9;-20;-2833;2838;-1090;8192;0.731618;-0.2423823;-0.4085872;-0.4889196;3;-8;161;-1244;3281;1477;32768;0.6603265;0.1052632;0.601108;-0.4376731;24;37;-203;-399;-1083;-1276;256;0.033241;-0.0567867;-0.6551247;-0.75265;-10;-20;-8;27;4058;-783;128;0.04570637;0.04847645;0.5692521;0.819459;14;-7;5;-437;3901;1490;4;0.5121284;-0.4958449;0.5041551;0.4875346;0;0;2;-121;4124;118;16;0.6371191;-0.7698128;-0.008310249;-0.03739612;1;1;0;81;4012;724;2;0.5589103;-0.536011;-0.4432133;-0.4515235;0;-1;0;-181;4090;63;8;0.6468144;-0.7502247;0.04293629;0.1301939;1;0;1;-463;4033;683;0.456028;2.824682;-0.2213097;0.461982;3.36725;-0.1646889;0.4672178;3.844377;-0.1169311;0.4892835;4.570234;-0.01154025;0.2406816;4.906184;-0.002438851;-0.1049582;4.768784;0.03991106;-0.32393;3.875929;0.1547698;0.01253085;3.253685;-0.4756287;0.7607855;4.890376;-0.00243935;1.04508;4.733829;0.03991054;1.44979;4.029958;-0.4787914;0.8165733;4.680441;-0.7502636;0.1437848;2.783643;-0.2336459;0.09600173;1.321268;-0.2395016;0;0;0;0.1437848;2.783643;-0.2336459;0.09600173;1.321268;-0.2395016;0;0;0
721434.5053;NotLabelled;NONE;16384;-0.4875346;0.4487534;-0.6136594;-0.4293629;9;-15;-2;-624;3966;775;65536;0.7869547;-0.3698061;0.05955679;0.4903047;16;-12;-19;-2879;2816;-1080;8192;0.7207515;-0.2576177;-0.4279778;-0.4806094;4;-21;174;-1580;3807;1515;32768;0.6761543;0.08864266;0.5775623;-0.4487534;22;49;-244;-355;-827;-1108;256;0.0401662;-0.05955679;-0.6551247;-0.752098;-7;-20;-8;83;4150;-677;128;0.04155125;0.04847645;0.5734072;0.8167789;17;-9;6;-583;3961;1442;4;0.5108063;-0.4958449;0.5041551;0.4889196;-1;-2;3;-147;4114;90;16;0.6371191;-0.7698128;-0.008310249;-0.03739612;1;2;1;173;3996;800;2;0.5600057;-0.536011;-0.4418283;-0.4515235;1;-4;0;-195;4114;73;8;0.6468144;-0.7502247;0.04293629;0.1301939;1;0;0;-521;4007;679;0.4549293;2.824838;-0.2209814;0.4608853;3.367586;-0.1661134;0.4661228;3.844864;-0.1198969;0.4838295;4.571279;-0.01756509;0.2332106;4.905761;-0.009845994;-0.1115914;4.766462;0.03312607;-0.328132;3.873002;0.1478717;0.01161116;3.259212;-0.4890217;0.7534001;4.893085;-0.009846568;1.038636;4.738431;0.03312537;1.44836;4.009692;-0.4457699;0.8202075;4.639916;-0.7713909;0.1426856;2.78376;-0.2331738;0.09493466;1.321385;-0.2392871;0;0;0;0.1426856;2.78376;-0.2331738;0.09493466;1.321385;-0.2392871;0;0;0
721454.7598;NotLabelled;NONE;16384;-0.4861496;0.4487534;-0.6128132;-0.432133;9;-18;-4;-522;4090;819;65536;0.7873873;-0.367036;0.05955679;0.4916897;18;-16;-18;-2973;2902;-1140;8192;0.6999655;-0.2908587;-0.4626039;-0.4598338;21;-36;188;-1410;4151;1889;32768;0.7140303;0.03878116;0.5166205;-0.4709141;1;82;-310;1295;65;-828;256;0.04293629;-0.06094183;-0.6565097;-0.7506248;-12;-24;-7;-1;4214;-723;128;0.0401662;0.04847645;0.5747922;0.8158742;18;-7;5;-557;3967;1420;4;0.51078;-0.4944598;0.5055401;0.4889196;-1;-8;1;-41;4096;120;16;0.6371191;-0.7698265;-0.006925208;-0.03739612;1;-3;0;211;4060;806;2;0.5600057;-0.536011;-0.4418283;-0.4515235;0;-4;0;-203;4146;17;8;0.6468144;-0.7502247;0.04293629;0.1301939;1;3;0;-509;4119;643;0.4540955;2.82508;-0.2200626;0.460057;3.368337;-0.1704837;0.4652992;3.846043;-0.1289182;0.4781025;4.572666;-0.02734695;0.225231;4.905457;-0.0199715;-0.1186218;4.763878;0.023155;-0.3339277;3.870163;0.1382476;0.01525103;3.26329;-0.5001689;0.7454944;4.896293;-0.01997201;1.031769;4.743614;0.02315462;1.449331;3.987424;-0.4035695;0.8341241;4.592104;-0.7955757;0.1418505;2.783885;-0.2318211;0.09810494;1.321384;-0.238005;0;0;0;0.1418505;2.783885;-0.2318211;0.09810494;1.321384;-0.238005;0;0;0
721475.496;NotLabelled;NONE;16384;-0.4833795;0.4473684;-0.6150349;-0.433518;9;-19;-5;-540;4214;897;65536;0.7874726;-0.3628809;0.06094183;0.4944598;19;-16;-17;-2987;2852;-1114;8192;0.6875389;-0.3102493;-0.4792244;-0.4487534;25;-42;198;-1370;4009;1973;32768;0.7316521;0.006925208;0.4819945;-0.4819945;-9;105;-338;1325;83;-698;256;0.04709141;-0.06232687;-0.6578947;-0.7490476;-20;-27;-6;-67;4256;-681;128;0.03739612;0.04986149;0.5775623;0.8139638;20;-7;4;-583;4055;1422;4;0.5107913;-0.4930748;0.5055401;0.4903047;-1;-7;1;7;4132;176;16;0.6371191;-0.7698265;-0.006925208;-0.03739612;2;-1;1;119;4030;766;2;0.5622075;-0.536011;-0.4404432;-0.4501385;0;-3;0;-77;4152;33;8;0.6468144;-0.7505417;0.04155125;0.1288089;0;3;0;-355;4025;609;0.4617488;2.824875;-0.2185275;0.467712;3.36829;-0.1707221;0.4729557;3.846129;-0.1307161;0.4842707;4.573192;-0.03215273;0.2307156;4.905489;-0.02613566;-0.1128426;4.763383;0.01760133;-0.3239192;3.86835;0.1302595;0.02782936;3.265151;-0.5102245;0.7509966;4.897396;-0.02613625;1.037588;4.745485;0.01760077;1.45383;3.941331;-0.3115724;0.8615726;4.454772;-0.8439242;0.1495034;2.783642;-0.2301403;0.1018132;1.321268;-0.2370895;0;0;0;0.1495034;2.783642;-0.2301403;0.1018132;1.321268;-0.2370895;0;0;0
721495.5465;NotLabelled;NONE;16384;-0.4806094;0.4473684;-0.6162268;-0.434903;8;-22;-9;-500;4204;995;65536;0.7869998;-0.3601108;0.06094183;0.4972299;17;-20;-17;-3091;2868;-1064;8192;0.6739533;-0.3310249;-0.4958449;-0.4362881;32;-49;202;-1440;4227;1905;32768;0.7471449;-0.02908587;0.4432133;-0.4944598;-17;124;-356;2263;549;-750;256;0.05124654;-0.06371191;-0.6592798;-0.7474388;-22;-28;-5;-135;4206;-699;128;0.03601108;0.04986149;0.5803324;0.8120538;19;-9;5;-487;3973;1420;4;0.5094168;-0.4930748;0.5069252;0.4903047;-1;-6;2;-67;4146;170;16;0.6371191;-0.7698265;-0.006925208;-0.03739612;1;0;0;95;4052;806;2;0.5622075;-0.536011;-0.4404432;-0.4501385;-1;0;0;-129;4096;-15;8;0.6468144;-0.7505417;0.04155125;0.1288089;1;1;0;-553;4065;681;0.4628606;2.824944;-0.2137284;0.4688271;3.368659;-0.1694499;0.4740736;3.846747;-0.1325451;0.4824136;4.574281;-0.0372081;0.2274991;4.90556;-0.0326472;-0.1154714;4.762242;0.0117435;-0.3266395;3.867395;0.125707;0.02678354;3.268727;-0.5180975;0.7478088;4.899598;-0.03264809;1.035022;4.749059;0.01174223;1.445913;3.92176;-0.2621574;0.8707448;4.371544;-0.8660312;0.1506144;2.783637;-0.2250513;0.1035999;1.321268;-0.2363142;0;0;0;0.1506144;2.783637;-0.2250513;0.1035999;1.321268;-0.2363142;0;0;0
721516.7897;NotLabelled;NONE;16384;-0.4778393;0.4459834;-0.6184021;-0.4362881;5;-22;-12;-416;4310;1117;65536;0.786145;-0.3559557;0.06232687;0.501385;14;-21;-16;-3255;2860;-1138;8192;0.6618108;-0.3518005;-0.5096953;-0.4224377;37;-53;194;-1582;4563;1781;32768;0.7625418;-0.06648199;0.4016621;-0.5027701;-15;87;-366;4449;1229;-1168;256;0.05540166;-0.06509695;-0.6620498;-0.7445691;-21;-24;-5;-7;4220;-541;128;0.03462604;0.04986149;0.5831025;0.8101274;20;-11;3;-375;3997;1392;4;0.5094205;-0.4916897;0.5069252;0.4916897;-1;-7;3;-137;4122;118;16;0.6385041;-0.7686781;-0.006925208;-0.03739612;3;0;0;167;4000;754;2;0.5622075;-0.536011;-0.4404432;-0.4501385;0;-1;0;-153;4172;-13;8;0.6468144;-0.7505417;0.04155125;0.1288089;1;2;0;-415;3973;657;0.4652598;2.825023;-0.2169275;0.4712296;3.369023;-0.1762994;0.4764786;3.847348;-0.1426046;0.4818671;4.575331;-0.05054858;0.2256095;4.90559;-0.04746813;-0.1167747;4.761083;-0.002414238;-0.3260401;3.865995;0.1131568;0.03222271;3.271462;-0.5318044;0.7459393;4.901742;-0.04746866;1.033763;4.752572;-0.002414763;1.436456;3.904037;-0.2171323;0.8837845;4.278082;-0.8897632;0.1530128;2.783641;-0.2279497;0.105386;1.321268;-0.2355239;0;0;0;0.1530128;2.783641;-0.2279497;0.105386;1.321268;-0.2355239;0;0;0
721541.7782;NotLabelled;NONE;16384;-0.4722992;0.4445983;-0.6226621;-0.4376731;-2;-17;-19;-280;4426;1289;65536;0.7850804;-0.3504155;0.06232687;0.5069252;8;-11;-14;-3445;2698;-1296;8192;0.6473095;-0.3725762;-0.5235457;-0.4099723;38;-47;189;-1374;4437;1971;32768;0.7812653;-0.09972299;0.3601108;-0.5;-18;-5;-376;5301;1331;-1472;256;0.06094183;-0.06786703;-0.666205;-0.7401696;-20;-19;-3;-17;4076;-527;128;0.03047091;0.05263158;0.5872576;0.8071121;20;-12;2;-485;3927;1320;4;-0.5069252;0.4903047;-0.5107538;-0.4916897;-2;-8;4;-117;4074;120;16;0.6385041;-0.7686781;-0.006925208;-0.03739612;2;0;1;149;4020;808;2;0.5608837;-0.5373961;-0.4404432;-0.4501385;-2;-1;0;-107;4144;11;8;0.6468144;-0.7505417;0.04155125;0.1288089;1;3;0;-421;4023;665;0.4653668;2.825988;-0.2074579;0.4713393;3.370249;-0.1704931;0.4765908;3.84879;-0.1400192;0.4792794;4.577525;-0.05398697;0.2217993;4.906845;-0.05363479;-0.1200478;4.761447;-0.007383199;-0.3302458;3.865777;0.1017984;0.03080438;3.276222;-0.5461711;0.7421398;4.904925;-0.05360988;1.030514;4.757201;-0.007327437;1.424848;3.893048;-0.1686203;0.898371;4.179594;-0.9024465;0.1531188;2.784533;-0.2181783;0.1062312;1.322165;-0.230049;0;0;0;0.1531188;2.784533;-0.2181783;0.1062312;1.322165;-0.230049;0;0;0
721562.5154;NotLabelled;NONE;16384;-0.4695291;0.4445983;-0.6257216;-0.4362881;-5;-11;-20;-244;4428;1261;65536;0.7849105;-0.3490305;0.06094183;0.5083103;2;-4;-16;-3445;2620;-1216;8192;0.6208231;-0.4099723;-0.5470914;-0.3836565;37;-67;168;-1540;4435;1671;32768;0.8249245;-0.1634349;0.2783934;-0.4639889;-88;-90;-376;3871;521;-510;256;0.06371191;-0.06925207;-0.66759;-0.7385584;-21;-13;-2;-15;3972;-421;128;0.02770083;0.05263158;0.5900277;0.8051894;19;-10;2;-525;3913;1268;4;-0.5069252;0.4889196;-0.5107463;-0.4930748;-3;-11;3;-135;4144;62;16;0.6385041;-0.7686781;-0.006925208;-0.03739612;3;-3;0;245;3998;870;2;0.5622075;-0.536011;-0.4404432;-0.4501385;-3;0;0;-69;4156;29;8;0.6468144;-0.7508535;0.0401662;0.1274238;0;5;0;-489;4073;665;0.4731192;2.825955;-0.2127015;0.4790955;3.370554;-0.1811066;0.48435;3.849373;-0.155354;0.4845055;4.579123;-0.07836807;0.2258804;4.907524;-0.08207648;-0.1154559;4.761522;-0.03399253;-0.3248872;3.867368;0.08829746;0.04350419;3.286119;-0.5630352;0.7462244;4.907416;-0.08207703;1.035113;4.761283;-0.03399301;1.41482;3.881364;-0.1331953;0.9216655;4.074857;-0.9187822;0.1608703;2.784396;-0.2229788;0.1088696;1.322165;-0.2288116;0;0;0;0.1608703;2.784396;-0.2229788;0.1088696;1.322165;-0.2288116;0;0;0
721583.5404;NotLabelled;NONE;16384;-0.468144;0.4445983;-0.6277204;-0.434903;-12;-6;-20;-384;4338;1361;65536;0.7854493;-0.3462604;0.05817174;0.5096953;-4;0;-18;-3535;2556;-1164;8192;0.6108552;-0.4279778;-0.5540166;-0.3698061;35;-65;145;-1362;4789;2005;32768;0.8405114;-0.2049861;0.2423823;-0.4390582;-156;-47;-381;1651;557;-174;256;0.06509695;-0.07063711;-0.6703601;-0.7357922;-20;-9;-1;17;3976;-343;128;0.02631579;0.05401662;0.5927978;0.8031068;19;-8;1;-571;3879;1280;4;-0.5041551;0.4861496;-0.5147774;-0.4944598;-2;-13;0;75;4064;168;16;0.6398892;-0.7676117;-0.004155125;-0.03601108;3;-10;0;107;4008;750;2;0.5611197;-0.536011;-0.4418283;-0.4501385;-1;2;1;21;4160;25;8;0.6481994;-0.7496582;0.0401662;0.1274238;1;6;0;-457;4045;619;0.4736618;2.826028;-0.2081483;0.4796402;3.370826;-0.1802067;0.4848964;3.849807;-0.1576662;0.4836956;4.579889;-0.08389831;0.2244607;4.907789;-0.08905415;-0.1166042;4.761366;-0.04032639;-0.3286635;3.868618;0.08758041;0.04553663;3.290713;-0.5634163;0.7448041;4.908648;-0.08905506;1.033964;4.763265;-0.04032776;1.387354;3.866958;-0.03544033;0.959215;3.856172;-0.8806435;0.161412;2.784401;-0.2181237;0.1101935;1.322165;-0.2281777;0;0;0;0.161412;2.784401;-0.2181237;0.1101935;1.322165;-0.2281777;0;0;0
721604.5322;NotLabelled;NONE;16384;-0.468144;0.4432133;-0.6306062;-0.432133;-21;-4;-20;-384;4188;1395;65536;0.7856495;-0.3462604;0.05540166;0.5096953;-9;3;-21;-3715;2542;-1280;8192;0.6023004;-0.4432133;-0.5595568;-0.3573407;19;-62;115;-1348;4949;2293;32768;0.8478152;-0.2534626;0.2077562;-0.4168975;-201;-3;-376;2369;1987;-842;256;0.06648199;-0.07063711;-0.6717451;-0.7344038;-15;-4;-1;129;4002;-373;128;0.02631579;0.05401662;0.5941828;0.8020826;17;-7;2;-637;3873;1266;4;-0.5041551;0.4847645;-0.5147513;-0.4958449;-2;-11;0;153;4024;222;16;0.6398892;-0.7676117;-0.004155125;-0.03601108;5;-5;0;95;4006;716;2;0.5611197;-0.536011;-0.4418283;-0.4501385;-2;1;0;-35;4060;77;8;0.6481994;-0.7497311;0.03878116;0.1274238;0;5;0;-435;3985;579;0.4799691;2.826683;-0.2064473;0.4859495;3.371657;-0.1821927;0.4912073;3.85078;-0.1628939;0.4904109;4.581416;-0.09482694;0.2313581;4.90941;-0.1025456;-0.1097883;4.76356;-0.05268112;-0.3244826;3.871948;0.07870165;0.05535363;3.300325;-0.5745734;0.7517017;4.909979;-0.1025461;1.04078;4.764821;-0.05268154;1.3816;3.864952;-0.004166424;0.9799198;3.740042;-0.853188;0.1677187;2.784989;-0.2161176;0.1119756;1.3229;-0.2229909;0;0;0;0.1677187;2.784989;-0.2161176;0.1119756;1.3229;-0.2229909;0;0;0
721626.4943;NotLabelled;NONE;16384;-0.468144;0.4418283;-0.6344005;-0.4279778;-30;-3;-19;-476;4100;1491;65536;0.785641;-0.3448753;0.05124654;0.5110803;-17;7;-25;-3583;2360;-1276;8192;0.5966154;-0.4542936;-0.5637119;-0.3462604;-4;-54;80;-1342;4809;2709;32768;0.8511754;-0.3033241;0.1759003;-0.3905817;-210;-58;-345;5891;3893;-2898;256;0.06648199;-0.07063711;-0.6731302;-0.7331346;-9;0;-3;341;3968;-449;128;0.02493075;0.05540166;0.5969529;0.7999727;16;-4;4;-611;3891;1246;4;-0.5027701;0.4833795;-0.5160707;-0.4972299;-2;-9;0;257;4102;184;16;0.6398892;-0.767618;-0.002770083;-0.03601108;4;-3;0;265;4050;758;2;0.5600263;-0.536011;-0.4432133;-0.4501385;-4;0;-2;-149;4120;119;8;0.6481994;-0.7499651;0.03878116;0.1260388;0;0;1;-471;4039;643;0.4796018;2.826721;-0.2023506;0.4855831;3.371776;-0.1799809;0.4908415;3.850962;-0.1623391;0.488833;4.581869;-0.09726787;0.2292369;4.909398;-0.1063322;-0.1116679;4.763189;-0.0558717;-0.3332629;3.873686;0.07831818;0.05194132;3.304606;-0.5740339;0.7495788;4.91083;-0.1063327;1.038897;4.766357;-0.05587226;1.36952;3.865435;0.02958319;0.9891751;3.622271;-0.8034812;0.1673509;2.784994;-0.2118648;0.1123949;1.322899;-0.2227807;0;0;0;0.1673509;2.784994;-0.2118648;0.1123949;1.322899;-0.2227807;0;0;0
