SEP=;
index;label;segment;RightUpperArm_boneIndex;RightUpperArm_quat9x_w;RightUpperArm_quat9x_x;RightUpperArm_quat9x_y;RightUpperArm_quat9x_z;RightUpperArm_gyroscope_x;RightUpperArm_gyroscope_y;RightUpperArm_gyroscope_z;RightUpperArm_accelerometer_x;RightUpperArm_accelerometer_y;RightUpperArm_accelerometer_z;RightLowerArm_boneIndex;RightLowerArm_quat9x_w;RightLowerArm_quat9x_x;RightLowerArm_quat9x_y;RightLowerArm_quat9x_z;RightLowerArm_gyroscope_x;RightLowerArm_gyroscope_y;RightLowerArm_gyroscope_z;RightLowerArm_accelerometer_x;RightLowerArm_accelerometer_y;RightLowerArm_accelerometer_z;LeftUpperArm_boneIndex;LeftUpperArm_quat9x_w;LeftUpperArm_quat9x_x;LeftUpperArm_quat9x_y;LeftUpperArm_quat9x_z;LeftUpperArm_gyroscope_x;LeftUpperArm_gyroscope_y;LeftUpperArm_gyroscope_z;LeftUpperArm_accelerometer_x;LeftUpperArm_accelerometer_y;LeftUpperArm_accelerometer_z;LeftLowerArm_boneIndex;LeftLowerArm_quat9x_w;LeftLowerArm_quat9x_x;LeftLowerArm_quat9x_y;LeftLowerArm_quat9x_z;LeftLowerArm_gyroscope_x;LeftLowerArm_gyroscope_y;LeftLowerArm_gyroscope_z;LeftLowerArm_accelerometer_x;LeftLowerArm_accelerometer_y;LeftLowerArm_accelerometer_z;Chest_boneIndex;Chest_quat9x_w;Chest_quat9x_x;Chest_quat9x_y;Chest_quat9x_z;Chest_gyroscope_x;Chest_gyroscope_y;Chest_gyroscope_z;Chest_accelerometer_x;Chest_accelerometer_y;Chest_accelerometer_z;Spine_boneIndex;Spine_quat9x_w;Spine_quat9x_x;Spine_quat9x_y;Spine_quat9x_z;Spine_gyroscope_x;Spine_gyroscope_y;Spine_gyroscope_z;Spine_accelerometer_x;Spine_accelerometer_y;Spine_accelerometer_z;RightUpperLeg_boneIndex;RightUpperLeg_quat9x_w;RightUpperLeg_quat9x_x;RightUpperLeg_quat9x_y;RightUpperLeg_quat9x_z;RightUpperLeg_gyroscope_x;RightUpperLeg_gyroscope_y;RightUpperLeg_gyroscope_z;RightUpperLeg_accelerometer_x;RightUpperLeg_accelerometer_y;RightUpperLeg_accelerometer_z;RightLowerLeg_boneIndex;RightLowerLeg_quat9x_w;RightLowerLeg_quat9x_x;RightLowerLeg_quat9x_y;RightLowerLeg_quat9x_z;RightLowerLeg_gyroscope_x;RightLowerLeg_gyroscope_y;RightLowerLeg_gyroscope_z;RightLowerLeg_accelerometer_x;RightLowerLeg_accelerometer_y;RightLowerLeg_accelerometer_z;LeftUpperLeg_boneIndex;LeftUpperLeg_quat9x_w;LeftUpperLeg_quat9x_x;LeftUpperLeg_quat9x_y;LeftUpperLeg_quat9x_z;LeftUpperLeg_gyroscope_x;LeftUpperLeg_gyroscope_y;LeftUpperLeg_gyroscope_z;LeftUpperLeg_accelerometer_x;LeftUpperLeg_accelerometer_y;LeftUpperLeg_accelerometer_z;LeftLowerLeg_boneIndex;LeftLowerLeg_quat9x_w;LeftLowerLeg_quat9x_x;LeftLowerLeg_quat9x_y;LeftLowerLeg_quat9x_z;LeftLowerLeg_gyroscope_x;LeftLowerLeg_gyroscope_y;LeftLowerLeg_gyroscope_z;LeftLowerLeg_accelerometer_x;LeftLowerLeg_accelerometer_y;LeftLowerLeg_accelerometer_z;pelvis_x;pelvis_y;pelvis_z;lowerSpine_x;lowerSpine_y;lowerSpine_z;middleSpine_x;middleSpine_y;middleSpine_z;upperSpine_x;upperSpine_y;upperSpine_z;rightClavicle_x;rightClavicle_y;rightClavicle_z;rightShoulder_x;rightShoulder_y;rightShoulder_z;rightElbow_x;rightElbow_y;rightElbow_z;rightWrist_x;rightWrist_y;rightWrist_z;leftClavicle_x;leftClavicle_y;leftClavicle_z;leftShoulder_x;leftShoulder_y;leftShoulder_z;leftElbow_x;leftElbow_y;leftElbow_z;leftWrist_x;leftWrist_y;leftWrist_z;rightHip_x;rightHip_y;rightHip_z;rightKnee_x;rightKnee_y;rightKnee_z;rightAnkle_x;rightAnkle_y;rightAnkle_z;leftHip_x;leftHip_y;leftHip_z;leftKnee_x;leftKnee_y;leftKnee_z;leftAnkle_x;leftAnkle_y;leftAnkle_z;
1168167.0889;NotLabelled;NONE;16384;0.7395071;0.4653739;0.4529086;0.1772853;-4;-3;2;2634;-2332;1857;65536;0.7839458;0.6052631;-0.05955679;0.1246537;2;7;-1;-254;-3890;-940;8192;0.805611;0.400277;-0.4113573;-0.1468144;-6;0;-5;-2208;-2275;2651;32768;0.8089153;0.5650969;-0.1385041;-0.08448754;4;-5;-13;919;-3669;-1257;256;-0.03601108;0.05817174;-0.5927978;-0.8024401;6;4;-3;-73;3870;-1301;128;0.09695291;-0.02216066;0.6440443;0.7584959;0;5;2;-485;4115;578;4;0.5224124;-0.4986149;0.5027701;0.4750692;0;7;-2;-133;4102;250;16;0.6315789;-0.7674105;-0.03739612;-0.1038781;-2;4;0;455;4000;930;2;0.5454357;-0.4944598;-0.4819945;-0.4750692;-2;12;3;-17;4228;161;8;0.6578947;-0.7366208;0.03047091;0.1537396;0;8;0;-615;3979;551;0.5084618;2.820713;-0.2601979;0.5144156;3.363296;-0.31668;0.5196468;3.840015;-0.3683395;0.5124037;4.541908;-0.154429;0.2503883;4.862318;-0.09583393;-0.08932476;4.706263;-0.07630911;-0.8802954;5.186018;-0.1266021;-0.965898;6.098529;-0.3670045;0.7707046;4.867691;-0.09583408;1.061183;4.718142;-0.07630908;1.769081;5.215309;-0.5005499;2.020657;6.060134;-0.8480663;0.1962011;2.778086;-0.2631005;0.1174384;1.317077;-0.2526724;0;0;0;0.1962011;2.778086;-0.2631005;0.1174384;1.317077;-0.2526724;0;0;0
1168187.2145;NotLabelled;NONE;16384;0.7403536;0.4653739;0.4515235;0.1772853;-4;-6;2;2640;-2314;1935;65536;0.7830937;0.6066482;-0.05955679;0.1232687;3;1;-4;-414;-3910;-1088;8192;0.8058621;0.400277;-0.4113573;-0.1454294;-7;3;-4;-2220;-2295;2607;32768;0.8086769;0.5650969;-0.1398892;-0.08448754;3;-11;-15;1071;-3817;-1435;256;-0.03601108;0.05817174;-0.5914127;-0.8034614;9;4;-3;-81;3902;-1207;128;0.09833795;-0.02216066;0.6440443;0.7583176;1;7;1;-467;4127;616;4;0.5223462;-0.5;0.5027701;0.4736842;0;10;-2;-161;4068;216;16;0.6315789;-0.7672217;-0.03739612;-0.1052632;-1;3;0;297;4010;932;2;0.5454638;-0.4930748;-0.4833795;-0.4750692;-1;13;2;-201;4086;217;8;0.6578947;-0.7369085;0.03047091;0.1523546;0;6;0;-655;3965;589;0.5029904;2.819284;-0.2728934;0.508944;3.361834;-0.3296859;0.5141748;3.838525;-0.3816183;0.5063367;4.539714;-0.1654362;0.2440489;4.859708;-0.1057986;-0.09553013;4.7033;-0.0867722;-0.8820091;5.191805;-0.1205888;-0.9695699;6.105039;-0.3575106;0.7643604;4.865526;-0.1057921;1.054967;4.716163;-0.08675746;1.753165;5.218383;-0.5210032;2.011562;6.062421;-0.8654139;0.1907298;2.776655;-0.2757697;0.1165548;1.315439;-0.2614641;0;0;0;0.1907298;2.776655;-0.2757697;0.1165548;1.315439;-0.2614641;0;0;0
1168208.1929;NotLabelled;NONE;16384;0.7394812;0.466759;0.4515235;0.1772853;-2;-5;0;2902;-2270;1947;65536;0.7829872;0.6066482;-0.06094183;0.1232687;4;-1;-4;-390;-3928;-950;8192;0.805187;0.4030471;-0.4099723;-0.1454294;-5;-1;-1;-2438;-2287;2535;32768;0.8075921;0.5650969;-0.1468144;-0.08310249;4;-10;-11;1285;-3451;-1445;256;-0.03601108;0.05955679;-0.5900277;-0.8043777;6;3;-2;-83;3942;-1313;128;0.09833795;-0.0235457;0.6440443;0.7582758;1;7;2;-449;4103;570;4;0.5235989;-0.5;0.5027701;0.4722992;0;9;-3;-259;3992;128;16;0.6315789;-0.767153;-0.03878116;-0.1052632;-1;7;0;251;3944;872;2;0.5430211;-0.4930748;-0.4847645;-0.4764543;-3;10;0;-249;4034;221;8;0.6578947;-0.7369645;0.02908587;0.1523546;0;4;0;-621;4005;535;0.5053223;2.819087;-0.2765415;0.5112755;3.361608;-0.3336122;0.5165061;3.838271;-0.3857889;0.5088434;4.538716;-0.1671998;0.2466338;4.858565;-0.1064503;-0.09298091;4.702173;-0.08794357;-0.8783769;5.19184;-0.1292749;-0.9643546;6.105996;-0.3632014;0.7669465;4.864261;-0.1064505;1.057519;4.714765;-0.08794369;1.757489;5.21803;-0.5181085;2.018014;6.06159;-0.8620833;0.1930617;2.776456;-0.2793942;0.1194344;1.315257;-0.2610765;0;0;0;0.1930617;2.776456;-0.2793942;0.1194344;1.315257;-0.2610765;0;0;0
1168229.0442;NotLabelled;NONE;16384;0.7391167;0.468144;0.4501385;0.1786704;0;-2;1;2738;-2280;1951;65536;0.7818029;0.6080332;-0.06232687;0.1232687;7;-3;-3;-248;-4104;-1006;8192;0.8040342;0.4044321;-0.4113573;-0.1440443;-5;-7;0;-2304;-2095;2527;32768;0.8073391;0.5650969;-0.1481994;-0.08310249;5;-3;-8;1291;-3563;-1525;256;-0.03601108;0.05955679;-0.5900277;-0.8043777;2;4;-2;-75;3928;-1357;128;0.09972299;-0.02493075;0.6454294;0.7568716;0;7;2;-465;4065;574;4;0.5248486;-0.501385;0.501385;0.4709141;0;6;-2;-247;4068;206;16;0.6315789;-0.767153;-0.03878116;-0.1052632;0;8;0;287;3916;902;2;0.5430599;-0.4916897;-0.4847645;-0.4778393;0;7;0;-325;3990;233;8;0.6578947;-0.7369645;0.02908587;0.1523546;0;1;0;-687;4027;531;0.5061718;2.819157;-0.2771866;0.512125;3.361676;-0.3342754;0.5173554;3.838338;-0.3864681;0.5087163;4.538016;-0.165474;0.2460595;4.857285;-0.1036163;-0.09333404;4.700353;-0.0856343;-0.8782185;5.191168;-0.1228702;-0.9626569;6.105525;-0.356572;0.7663637;4.863714;-0.1036164;1.057148;4.714564;-0.0856342;1.754554;5.22201;-0.5150495;2.023566;6.063685;-0.8571061;0.1939111;2.776527;-0.2800378;0.1164926;1.315533;-0.2610179;0;0;0;0.1939111;2.776527;-0.2800378;0.1164926;1.315533;-0.2610179;0;0;0
1168250.1907;NotLabelled;NONE;16384;0.7391167;0.468144;0.4501385;0.1786704;0;-8;2;2718;-2200;2001;65536;0.7818029;0.6080332;-0.06232687;0.1232687;8;-5;-1;-316;-4026;-908;8192;0.8042811;0.4044321;-0.4113573;-0.1426593;-6;-4;-1;-2112;-2183;2543;32768;0.8070836;0.5650969;-0.1495845;-0.08310249;5;-1;-5;1401;-3587;-1451;256;-0.03601108;0.05955679;-0.5900277;-0.8043777;1;4;-2;5;3918;-1237;128;0.09972299;-0.02493075;0.6454294;0.7568716;0;2;1;-485;4031;520;4;0.5235219;-0.5027701;0.501385;0.4709141;0;3;-2;-235;4092;208;16;0.6301939;-0.768029;-0.0401662;-0.1066482;0;5;0;369;3984;882;2;0.5430599;-0.4916897;-0.4847645;-0.4778393;0;1;0;-177;4118;315;8;0.6578947;-0.7369645;0.02908587;0.1523546;0;0;0;-649;4059;483;0.5060045;2.819178;-0.2773453;0.511955;3.361453;-0.3367113;0.5171831;3.837891;-0.3909046;0.5085441;4.53757;-0.1699105;0.2458871;4.856838;-0.1080529;-0.09350644;4.699907;-0.09007089;-0.8778422;5.191604;-0.1272239;-0.9602186;6.106977;-0.3576679;0.7661914;4.863266;-0.1080529;1.056975;4.714117;-0.09007055;1.755497;5.223529;-0.5153257;2.026644;6.064715;-0.856899;0.1937436;2.776536;-0.2800031;0.1164928;1.315533;-0.261018;0;0;0;0.1937436;2.776536;-0.2800031;0.1164928;1.315533;-0.261018;0;0;0
1168271.0398;NotLabelled;NONE;16384;0.7390803;0.4695291;0.4487534;0.1786704;0;-12;3;2802;-2214;1969;65536;0.7806119;0.6094183;-0.06371191;0.1232687;8;-1;0;-226;-4056;-922;8192;0.8045256;0.4044321;-0.4113573;-0.1412742;-4;0;0;-2128;-2253;2545;32768;0.8058538;0.566482;-0.1509695;-0.08310249;6;-1;-1;1271;-3533;-1427;256;-0.03601108;0.06094183;-0.5900277;-0.804274;0;3;-2;-97;3860;-1305;128;0.09972299;-0.02631579;0.6454294;0.7568247;4;3;1;-427;4143;526;4;0.5234377;-0.5027701;0.5027701;0.4695291;0;0;-2;-223;4104;244;16;0.6301939;-0.768029;-0.0401662;-0.1066482;1;1;-1;387;4066;862;2;0.5430741;-0.4903047;-0.4861496;-0.4778393;-1;2;0;-261;4152;165;8;0.6578947;-0.7369645;0.02908587;0.1523546;0;0;0;-611;4021;505;0.5019801;2.818521;-0.2848457;0.5079306;3.360796;-0.3442116;0.5131587;3.837234;-0.398405;0.5045196;4.536913;-0.1774109;0.2418627;4.856181;-0.1155532;-0.09753084;4.69925;-0.09757127;-0.8818631;5.190947;-0.1348011;-0.9642392;6.106319;-0.365245;0.762167;4.86261;-0.1155533;1.052951;4.71346;-0.09757094;1.750648;5.224162;-0.5226323;2.023931;6.064856;-0.8637143;0.1897192;2.775879;-0.2875035;0.1168495;1.3147;-0.2650207;0;0;0;0.1897192;2.775879;-0.2875035;0.1168495;1.3147;-0.2650207;0;0;0
1168291.0515;NotLabelled;NONE;16384;0.7387025;0.4709141;0.4473684;0.1800554;0;-3;0;2806;-2280;2037;65536;0.7784414;0.6121883;-0.06371191;0.1232687;8;0;2;-384;-4018;-864;8192;0.8038278;0.4058172;-0.4113573;-0.1412742;-6;0;1;-2210;-2171;2501;32768;0.8058538;0.566482;-0.1509695;-0.08310249;6;0;0;1197;-3561;-1443;256;-0.03739612;0.06232687;-0.5886427;-0.8051191;1;3;-1;-131;3980;-1287;128;0.09972299;-0.02631579;0.6468144;0.7556414;3;0;0;-475;4151;422;4;0.5234377;-0.5027701;0.5027701;0.4695291;0;-6;-2;-155;4088;156;16;0.6315789;-0.7668904;-0.0401662;-0.1066482;1;-5;0;219;3998;796;2;0.5430741;-0.4903047;-0.4861496;-0.4778393;-1;1;0;-313;4088;185;8;0.6578947;-0.7369645;0.02908587;0.1523546;-1;0;0;-563;4017;499;0.5047592;2.818268;-0.2898682;0.5107097;3.360541;-0.3492518;0.5159377;3.836978;-0.4034606;0.5061498;4.53664;-0.1824618;0.242969;4.855476;-0.1206019;-0.09616649;4.697987;-0.1026209;-0.8791127;5.19201;-0.1382028;-0.9599403;6.108382;-0.3651933;0.7632622;4.862759;-0.1206019;1.05429;4.714087;-0.1026206;1.750167;5.226076;-0.5291156;2.025178;6.06735;-0.8673663;0.1924984;2.775626;-0.2925245;0.1162554;1.314701;-0.2652819;0;0;0;0.1924984;2.775626;-0.2925245;0.1162554;1.314701;-0.2652819;0;0;0
1168312.0416;NotLabelled;NONE;16384;0.7387025;0.4709141;0.4473684;0.1800554;0;-1;0;2650;-2220;2025;65536;0.778333;0.6121883;-0.06232687;0.1246537;5;1;3;-504;-3898;-802;8192;0.8033695;0.4072022;-0.4113573;-0.1398892;-7;-3;0;-2212;-2137;2531;32768;0.8050202;0.567867;-0.1509695;-0.08171745;6;-4;0;1295;-3617;-1349;256;-0.03739612;0.06232687;-0.5886427;-0.8051191;1;3;0;-115;3988;-1253;128;0.09972299;-0.02631579;0.6468144;0.7556414;1;-2;0;-495;4085;542;4;0.5221038;-0.5027701;0.5041551;0.4695291;0;-6;-1;-131;4048;164;16;0.6315789;-0.7668904;-0.0401662;-0.1066482;1;-4;0;245;3942;774;2;0.5443108;-0.4903047;-0.4847645;-0.4778393;0;0;0;-261;4080;251;8;0.6578947;-0.7369085;0.03047091;0.1523546;-1;-2;0;-701;4019;497;0.5038239;2.819206;-0.2860605;0.5097721;3.361258;-0.3474223;0.514998;3.837494;-0.4033692;0.5057996;4.536451;-0.180126;0.2428859;4.855306;-0.1172316;-0.09637918;4.698041;-0.09974086;-0.8789068;5.192943;-0.1321651;-0.9605934;6.110895;-0.3523617;0.7631847;4.862156;-0.1172317;1.05409;4.713187;-0.09974068;1.748401;5.226785;-0.5268525;2.022089;6.068059;-0.8661733;0.1915631;2.776554;-0.2885486;0.115427;1.315629;-0.2610087;0;0;0;0.1915631;2.776554;-0.2885486;0.115427;1.315629;-0.2610087;0;0;0
1168332.0338;NotLabelled;NONE;16384;0.7387025;0.4709141;0.4473684;0.1800554;0;-1;-1;2680;-2162;2093;65536;0.7772416;0.6135734;-0.06232687;0.1246537;3;2;2;-484;-3922;-808;8192;0.8026659;0.4085872;-0.4113573;-0.1398892;-6;-2;0;-2250;-2237;2527;32768;0.8040414;0.5692521;-0.1509695;-0.08171745;5;0;1;1135;-3603;-1327;256;-0.03739612;0.06371191;-0.5886427;-0.8050107;-2;3;0;-159;3928;-1277;128;0.09972299;-0.02631579;0.6468144;0.7556414;0;-1;0;-433;4029;676;4;0.5221038;-0.5027701;0.5041551;0.4695291;0;-5;-2;-17;4130;236;16;0.6315789;-0.767153;-0.03878116;-0.1052632;0;-2;0;307;3974;810;2;0.5443108;-0.4903047;-0.4847645;-0.4778393;0;-3;0;-163;4074;369;8;0.6578947;-0.7369085;0.03047091;0.1523546;0;-3;0;-641;4097;527;0.5033866;2.819146;-0.290121;0.5093347;3.361198;-0.3514829;0.5145605;3.837434;-0.4074298;0.5053622;4.536391;-0.1841866;0.2424486;4.855247;-0.1212922;-0.09681651;4.697981;-0.1038015;-0.8793412;5.192883;-0.136295;-0.9646995;6.11055;-0.3562902;0.7627475;4.862097;-0.1212923;1.053653;4.713127;-0.1038013;1.747266;5.229616;-0.528554;2.01989;6.072505;-0.8647109;0.1911258;2.776495;-0.2926092;0.115427;1.315629;-0.2610087;0;0;0;0.1911258;2.776495;-0.2926092;0.115427;1.315629;-0.2610087;0;0;0
1168373.0338;NotLabelled;NONE;16384;0.7383636;0.4709141;0.4473684;0.1814404;0;-2;-2;2678;-2202;2061;65536;0.7775723;0.6135734;-0.06094183;0.1232687;-1;4;4;-432;-4082;-738;8192;0.801488;0.4099723;-0.4127424;-0.1385041;-6;1;1;-2322;-2297;2405;32768;0.8031987;0.5706371;-0.1509695;-0.08033241;6;0;0;1209;-3679;-1291;256;-0.03878116;0.06371191;-0.5900277;-0.8039304;-2;-2;0;-63;3798;-1167;128;0.09833795;-0.02493075;0.6468144;0.7558699;0;-3;0;-475;4021;556;4;0.5221038;-0.5027701;0.5041551;0.4695291;-1;-2;-1;-9;4026;178;16;0.6315789;-0.767153;-0.03878116;-0.1052632;0;-3;0;315;3996;854;2;0.5442755;-0.4916897;-0.4847645;-0.4764543;-1;-4;0;-177;4080;203;8;0.6565097;-0.737797;0.03185596;0.1537396;-1;-4;0;-617;4009;595;0.5021881;2.81905;-0.2912679;0.5081362;3.361103;-0.3526298;0.513362;3.837338;-0.4085766;0.5030183;4.536278;-0.1853284;0.2395824;4.854701;-0.1224318;-0.09942456;4.69688;-0.1049422;-0.8820204;5.191782;-0.1356802;-0.9678519;6.110223;-0.3522338;0.7598693;4.862404;-0.1224316;1.051018;4.713911;-0.1049415;1.743818;5.231997;-0.5290763;2.01606;6.075943;-0.8628824;0.1899272;2.776399;-0.2937561;0.1142995;1.315533;-0.2619857;0;0;0;0.1899272;2.776399;-0.2937561;0.1142995;1.315533;-0.2619857;0;0;0
1168414.0419;NotLabelled;NONE;16384;0.7395837;0.4695291;0.4473684;0.1800554;0;1;-1;2602;-2188;2025;65536;0.779093;0.6121883;-0.05817174;0.1218837;-4;5;2;-546;-3890;-964;8192;0.800778;0.4113573;-0.4127424;-0.1385041;-4;2;0;-2324;-2289;2463;32768;0.8022129;0.5720221;-0.1509695;-0.08033241;6;-1;0;1049;-3705;-1195;256;-0.03878116;0.06371191;-0.5900277;-0.8039304;0;0;0;-117;3874;-1179;128;0.09833795;-0.02493075;0.6468144;0.7558699;0;-2;0;-469;4129;518;4;0.523434;-0.501385;0.5041551;0.4695291;0;-2;0;9;4062;182;16;0.6315789;-0.7674105;-0.03739612;-0.1038781;1;-1;0;337;4008;722;2;0.5442755;-0.4916897;-0.4847645;-0.4764543;0;-3;0;-241;4074;225;8;0.6565097;-0.7374459;0.033241;0.1551246;0;-4;0;-599;4011;485;0.5017135;2.819049;-0.2915482;0.507662;3.361135;-0.3526097;0.5128881;3.837402;-0.4082927;0.5039108;4.537172;-0.1876013;0.2410997;4.856341;-0.1258832;-0.09821831;4.699253;-0.1078351;-0.8817792;5.192711;-0.1371731;-0.9683951;6.111049;-0.3538498;0.7614009;4.863019;-0.1258832;1.052256;4.714018;-0.1078348;1.745515;5.23405;-0.5288259;2.016155;6.079592;-0.8598862;0.1894526;2.776399;-0.294062;0.1138763;1.315533;-0.2621697;0;0;0;0.1894526;2.776399;-0.294062;0.1138763;1.315533;-0.2621697;0;0;0
1168434.2561;NotLabelled;NONE;16384;0.7395837;0.4695291;0.4473684;0.1800554;0;0;0;2608;-2212;2011;65536;0.779093;0.6121883;-0.05817174;0.1218837;-3;2;0;-438;-3896;-956;8192;0.8005372;0.4113573;-0.4127424;-0.1398892;-1;2;2;-2248;-2235;2469;32768;0.8004906;0.5747922;-0.1495845;-0.08033241;4;6;2;1087;-3631;-1121;256;-0.03739612;0.06371191;-0.5900277;-0.803996;1;-1;0;-121;3902;-1351;128;0.09833795;-0.02493075;0.6468144;0.7558699;0;-3;0;-471;4131;596;4;0.523434;-0.501385;0.5041551;0.4695291;0;-1;0;-37;4134;238;16;0.6315789;-0.7674105;-0.03739612;-0.1038781;0;-1;0;349;4050;656;2;0.5442755;-0.4916897;-0.4847645;-0.4764543;1;-6;0;-199;4140;361;8;0.6565097;-0.7374459;0.033241;0.1551246;0;-7;0;-613;4105;511;0.5055953;2.81879;-0.2888032;0.5115439;3.360877;-0.3498646;0.5167699;3.837144;-0.4055476;0.5077927;4.536913;-0.1848563;0.2449815;4.856082;-0.1231382;-0.09433648;4.698994;-0.1050901;-0.8776029;5.192765;-0.1369106;-0.966751;6.110027;-0.3570929;0.7652828;4.862761;-0.1231382;1.056138;4.713759;-0.1050898;1.749533;5.235375;-0.5238923;2.020546;6.081955;-0.851976;0.1933344;2.77614;-0.2913169;0.1133321;1.315439;-0.2628768;0;0;0;0.1933344;2.77614;-0.2913169;0.1133321;1.315439;-0.2628768;0;0;0
1168454.2159;NotLabelled;NONE;16384;0.7395837;0.4695291;0.4473684;0.1800554;1;-1;-1;2764;-2200;2037;65536;0.779093;0.6121883;-0.05817174;0.1218837;-2;0;0;-410;-3946;-1050;8192;0.8005372;0.4127424;-0.4113573;-0.1398892;0;0;2;-2386;-2373;2439;32768;0.8007481;0.5747922;-0.1481994;-0.08033241;3;4;4;1179;-3599;-1113;256;-0.03739612;0.06371191;-0.5900277;-0.803996;4;-1;0;-87;3882;-1267;128;0.09695291;-0.02493075;0.6468144;0.7560487;-1;0;0;-531;4067;580;4;0.523434;-0.501385;0.5041551;0.4695291;0;0;0;-91;4046;158;16;0.632964;-0.7662686;-0.03739612;-0.1038781;0;0;0;273;4000;774;2;0.5467126;-0.4916897;-0.4833795;-0.4750692;0;-7;2;-125;4262;303;8;0.6565097;-0.7370894;0.03462604;0.1565097;-1;-8;0;-637;3979;567;0.5060726;2.81879;-0.288486;0.5120211;3.360877;-0.3495474;0.5172472;3.837144;-0.4052305;0.5067157;4.53684;-0.1843775;0.2431963;4.855411;-0.1225849;-0.09577179;4.697565;-0.1045722;-0.8789297;5.191336;-0.1389609;-0.9677166;6.108598;-0.3592891;0.7634811;4.863245;-0.122585;1.054667;4.714887;-0.104572;1.750319;5.23521;-0.5212333;2.020487;6.084338;-0.8433794;0.1938117;2.77614;-0.2909997;0.1137629;1.315438;-0.2626906;0;0;0;0.1938117;2.77614;-0.2909997;0.1137629;1.315438;-0.2626906;0;0;0
1168476.1237;NotLabelled;NONE;16384;0.7395837;0.4695291;0.4473684;0.1800554;2;0;-2;2820;-2230;1983;65536;0.7801793;0.6108033;-0.05817174;0.1218837;0;1;0;-410;-4030;-1106;8192;0.8005372;0.4127424;-0.4113573;-0.1398892;1;0;2;-2170;-2331;2437;32768;0.7997521;0.5761772;-0.1481994;-0.08033241;2;1;3;1059;-3711;-1069;256;-0.03739612;0.06371191;-0.5900277;-0.803996;3;-2;0;-47;3938;-1181;128;0.09695291;-0.02493075;0.6468144;0.7560487;-1;0;0;-511;4065;544;4;0.523434;-0.501385;0.5041551;0.4695291;0;-1;0;-31;4064;170;16;0.6315789;-0.7673418;-0.03878116;-0.1038781;0;2;0;255;3914;786;2;0.5454638;-0.4930748;-0.4833795;-0.4750692;1;-6;0;-177;4142;253;8;0.6551247;-0.7383207;0.03462604;0.1565097;-1;-4;0;-739;4013;535;0.5063102;2.819705;-0.2837304;0.5122589;3.361822;-0.3445127;0.5174855;3.838118;-0.3999504;0.5069539;4.537815;-0.1790975;0.2434344;4.856385;-0.1173048;-0.09553357;4.698539;-0.09929202;-0.8787468;5.19231;-0.1323968;-0.9675338;6.109572;-0.3527254;0.7637195;4.864219;-0.1173049;1.054905;4.71586;-0.09929172;1.74813;5.238703;-0.5168449;2.016177;6.088322;-0.8394669;0.1940493;2.777056;-0.2862678;0.1140004;1.316354;-0.2579588;0;0;0;0.1940493;2.777056;-0.2862678;0.1140004;1.316354;-0.2579588;0;0;0
1168496.1203;NotLabelled;NONE;16384;0.7395837;0.4695291;0.4473684;0.1800554;3;-1;-1;2724;-2338;2005;65536;0.7802814;0.6108033;-0.0567867;0.1218837;0;0;1;-492;-4016;-1108;8192;0.8005372;0.4113573;-0.4127424;-0.1398892;0;1;2;-2344;-2197;2585;32768;0.8000075;0.5761772;-0.1468144;-0.08033241;0;1;1;1245;-3741;-1039;256;-0.03601108;0.06371191;-0.5900277;-0.8040593;0;-1;0;-35;3922;-1267;128;0.09695291;-0.02493075;0.6468144;0.7560487;-1;1;0;-537;4095;588;4;0.5220964;-0.501385;0.5055401;0.4695291;0;-2;0;-29;4036;186;16;0.6315789;-0.767153;-0.03878116;-0.1052632;0;2;0;303;3946;828;2;0.5454638;-0.4930748;-0.4833795;-0.4750692;0;-4;0;-41;4082;199;8;0.6551247;-0.7383207;0.03462604;0.1565097;-2;-1;1;-687;4025;519;0.503724;2.819059;-0.2881143;0.5096728;3.361177;-0.3488966;0.5148994;3.837472;-0.4043343;0.5043678;4.537169;-0.1834813;0.2408483;4.85574;-0.1216887;-0.09811974;4.697894;-0.1036759;-0.8813329;5.191665;-0.1367807;-0.9701558;6.108139;-0.3603491;0.7611333;4.863574;-0.1216887;1.052319;4.715215;-0.1036756;1.745544;5.238058;-0.5212288;2.013966;6.088691;-0.8408526;0.1914631;2.776411;-0.2906517;0.1114142;1.315709;-0.2623427;0;0;0;0.1914631;2.776411;-0.2906517;0.1114142;1.315709;-0.2623427;0;0;0
1168517.1803;NotLabelled;NONE;16384;0.739284;0.468144;0.4487534;0.1814404;0;-1;0;2782;-2148;2039;65536;0.7802814;0.6108033;-0.0567867;0.1218837;1;-1;0;-634;-3910;-1102;8192;0.800294;0.4113573;-0.4127424;-0.1412742;1;2;0;-2470;-2183;2533;32768;0.8000075;0.5761772;-0.1468144;-0.08033241;-2;0;1;1381;-3633;-1151;256;-0.03601108;0.06371191;-0.5886427;-0.8050738;-1;0;0;-103;3876;-1235;128;0.09833795;-0.02631579;0.6468144;0.7558229;0;5;0;-481;4039;612;4;0.5220964;-0.501385;0.5055401;0.4695291;0;1;0;-79;4096;246;16;0.6315789;-0.767153;-0.03878116;-0.1052632;-1;2;0;291;3994;760;2;0.5454638;-0.4930748;-0.4833795;-0.4750692;1;-2;0;-167;4118;257;8;0.6551247;-0.7379594;0.03601108;0.1578947;-2;-7;0;-559;4051;601;0.5066392;2.818824;-0.2915054;0.5125881;3.360941;-0.3522877;0.5178146;3.837237;-0.4077255;0.5057287;4.536859;-0.1867152;0.2415019;4.854829;-0.1248501;-0.09711448;4.696226;-0.1068717;-0.8802153;5.189997;-0.1425436;-0.9707299;6.10627;-0.3662599;0.7617683;4.863819;-0.1248502;1.053283;4.716105;-0.1068714;1.749617;5.236428;-0.5223927;2.016444;6.087551;-0.8420488;0.1943783;2.776175;-0.2940429;0.1147352;1.315532;-0.261795;0;0;0;0.1943783;2.776175;-0.2940429;0.1147352;1.315532;-0.261795;0;0;0
1168538.2591;NotLabelled;NONE;16384;0.739284;0.468144;0.4487534;0.1814404;1;-1;0;2796;-2156;2005;65536;0.7800637;0.6108033;-0.0567867;0.1232687;2;-2;0;-592;-3912;-1032;8192;0.800294;0.4113573;-0.4127424;-0.1412742;1;-2;0;-2390;-2263;2531;32768;0.8001202;0.5761772;-0.1454294;-0.08171745;0;1;0;1119;-3761;-1327;256;-0.03739612;0.06371191;-0.5886427;-0.8050107;0;2;0;-105;3856;-1259;128;0.09972299;-0.02631579;0.6468144;0.7556414;-1;5;0;-447;4067;618;4;0.523434;-0.501385;0.5041551;0.4695291;0;1;0;-33;4076;178;16;0.6315789;-0.7670817;-0.0401662;-0.1052632;0;3;0;263;3972;738;2;0.5466389;-0.4944598;-0.4819945;-0.4736842;1;-3;-1;-187;4064;259;8;0.6537396;-0.739118;0.03739612;0.1578947;-1;-8;0;-603;3999;561;0.5066308;2.818825;-0.2915367;0.5125792;3.360909;-0.3526151;0.5178053;3.837175;-0.4083129;0.5059069;4.536038;-0.1849076;0.2417631;4.853861;-0.1219385;-0.09689176;4.695282;-0.1044832;-0.8824279;5.18528;-0.1385959;-0.9729494;6.101553;-0.3623099;0.7620318;4.862722;-0.1219385;1.053511;4.714873;-0.1044829;1.75003;5.233903;-0.5213106;2.016846;6.085027;-0.8409742;0.1943698;2.776175;-0.294049;0.1147276;1.315532;-0.2617987;0;0;0;0.1943698;2.776175;-0.294049;0.1147276;1.315532;-0.2617987;0;0;0
1168559.049;NotLabelled;NONE;16384;0.740123;0.468144;0.4473684;0.1814404;0;-2;0;2768;-2102;2033;65536;0.7799616;0.6108033;-0.05817174;0.1232687;1;0;0;-566;-3954;-902;8192;0.8010068;0.4113573;-0.4113573;-0.1412742;1;-1;0;-2382;-2277;2527;32768;0.8001202;0.5761772;-0.1454294;-0.08171745;-1;0;0;1065;-3739;-1309;256;-0.03739612;0.06371191;-0.5886427;-0.8050107;3;2;0;-127;3888;-1281;128;0.09972299;-0.02631579;0.6454294;0.7568247;-1;3;0;-519;4041;602;4;0.523434;-0.501385;0.5041551;0.4695291;0;1;0;-75;4058;232;16;0.6315789;-0.7668904;-0.0401662;-0.1066482;-1;3;0;337;3980;752;2;0.5466389;-0.4944598;-0.4819945;-0.4736842;1;-3;0;-109;4034;201;8;0.6537396;-0.7387493;0.03878116;0.1592798;-1;-10;1;-577;4091;599;0.5042588;2.819157;-0.2874605;0.5102068;3.361209;-0.3488223;0.5154326;3.837445;-0.4047692;0.505089;4.536385;-0.1815209;0.2416532;4.854808;-0.118624;-0.09735375;4.696987;-0.1011343;-0.8829445;5.186985;-0.133963;-0.9754407;6.103153;-0.3572906;0.7619402;4.862511;-0.1186242;1.053089;4.714018;-0.1011344;1.748926;5.233047;-0.5190995;2.014557;6.084124;-0.8398764;0.1919978;2.776506;-0.2899486;0.1119496;1.315804;-0.2616374;0;0;0;0.1919978;2.776506;-0.2899486;0.1119496;1.315804;-0.2616374;0;0;0
1168579.3187;NotLabelled;NONE;16384;0.740123;0.468144;0.4473684;0.1814404;0;0;-1;2776;-2128;2035;65536;0.7799616;0.6108033;-0.05817174;0.1232687;0;2;0;-480;-4010;-956;8192;0.8010068;0.4113573;-0.4113573;-0.1412742;0;-1;-1;-2202;-2335;2509;32768;0.8002605;0.5761772;-0.1454294;-0.08033241;0;-1;0;1103;-3693;-1323;256;-0.03739612;0.06509695;-0.5886427;-0.8048998;2;2;0;-129;3906;-1287;128;0.09972299;-0.02770083;0.6454294;0.7567753;0;2;0;-475;4105;640;4;0.523434;-0.501385;0.5041551;0.4695291;1;0;0;-69;4040;230;16;0.6315789;-0.7668904;-0.0401662;-0.1066482;-1;3;0;331;3988;866;2;0.5466389;-0.4944598;-0.4819945;-0.4736842;0;-2;0;-57;4094;275;8;0.6537396;-0.7386753;0.0401662;0.1592798;0;-10;1;-639;4087;597;0.5071501;2.818972;-0.2869218;0.5131006;3.361245;-0.3463053;0.5183286;3.837682;-0.4005142;0.5079849;4.536621;-0.1772659;0.2445491;4.855044;-0.1143691;-0.09445791;4.697223;-0.09687954;-0.8791961;5.188415;-0.1321714;-0.9696336;6.104789;-0.3554988;0.764836;4.862747;-0.1143691;1.055985;4.714254;-0.09687909;1.749949;5.234227;-0.5167811;2.01558;6.085303;-0.8375578;0.1948893;2.77633;-0.289578;0.114841;1.315628;-0.2612669;0;0;0;0.1948893;2.77633;-0.289578;0.114841;1.315628;-0.2612669;0;0;0
1168600.0495;NotLabelled;NONE;16384;0.739284;0.468144;0.4487534;0.1814404;0;1;-1;2760;-2172;2069;65536;0.7801793;0.6108033;-0.05817174;0.1218837;0;2;-1;-446;-4016;-962;8192;0.8012498;0.4113573;-0.4113573;-0.1398892;0;0;0;-2288;-2325;2479;32768;0.8002605;0.5761772;-0.1454294;-0.08033241;0;0;-1;1041;-3701;-1321;256;-0.03739612;0.06509695;-0.5886427;-0.8048998;1;0;0;-143;3948;-1379;128;0.09972299;-0.02770083;0.6454294;0.7567753;0;4;0;-505;4065;604;4;0.523434;-0.501385;0.5041551;0.4695291;0;0;0;-119;4092;196;16;0.6315789;-0.7668904;-0.0401662;-0.1066482;-1;0;0;349;3954;892;2;0.5466038;-0.4958449;-0.4806094;-0.4736842;0;-6;-1;-135;4062;163;8;0.6523545;-0.7395228;0.04155125;0.1606648;-1;-9;0;-631;3987;681;0.5064999;2.818972;-0.2873601;0.5124504;3.361243;-0.3467607;0.5176785;3.837678;-0.4009846;0.5061892;4.536598;-0.1777306;0.2422316;4.854589;-0.1148312;-0.09651628;4.696211;-0.09734301;-0.881332;5.187403;-0.1308735;-0.9722702;6.103778;-0.3539973;0.7625054;4.863144;-0.1148311;1.053898;4.715128;-0.09734238;1.746917;5.2351;-0.5188019;2.010371;6.086711;-0.8399548;0.194239;2.77633;-0.290015;0.1142545;1.315629;-0.2615243;0;0;0;0.194239;2.77633;-0.290015;0.1142545;1.315629;-0.2615243;0;0;0
1168620.048;NotLabelled;NONE;16384;0.739284;0.468144;0.4487534;0.1814404;0;2;-1;2724;-2170;2007;65536;0.7802814;0.6108033;-0.0567867;0.1218837;-1;3;0;-402;-3958;-840;8192;0.8012498;0.4113573;-0.4113573;-0.1398892;0;0;0;-2308;-2309;2455;32768;0.8002605;0.5761772;-0.1454294;-0.08033241;0;0;0;1133;-3593;-1327;256;-0.03739612;0.06509695;-0.5872576;-0.8059109;-1;0;0;-57;3888;-1321;128;0.101108;-0.02908587;0.6454294;0.7565396;-3;1;0;-419;4103;580;4;0.5221038;-0.5027701;0.5041551;0.4695291;0;1;0;-103;4120;188;16;0.6315789;-0.7668904;-0.0401662;-0.1066482;0;3;0;347;4010;866;2;0.547801;-0.4958449;-0.4806094;-0.4722992;1;-6;-2;-103;4084;191;8;0.6523545;-0.7392205;0.04155125;0.1620499;-1;-8;0;-677;4011;631;0.5064999;2.818972;-0.2873601;0.5124504;3.361243;-0.3467607;0.5176785;3.837678;-0.4009846;0.5061892;4.536598;-0.1777306;0.2422316;4.854589;-0.1148312;-0.09651628;4.696211;-0.09734301;-0.8821784;5.18621;-0.1284201;-0.9715081;6.102683;-0.3517862;0.7625054;4.863144;-0.1148311;1.053898;4.715128;-0.09734238;1.746031;5.236391;-0.5186632;2.009485;6.088001;-0.839816;0.194239;2.77633;-0.290015;0.1142545;1.315629;-0.2615243;0;0;0;0.194239;2.77633;-0.290015;0.1142545;1.315629;-0.2615243;0;0;0
1168640.0505;NotLabelled;NONE;16384;0.739284;0.468144;0.4487534;0.1814404;0;1;-2;2702;-2114;1963;65536;0.7804964;0.6108033;-0.0567867;0.1204986;-1;4;-1;-432;-3954;-800;8192;0.8010068;0.4113573;-0.4113573;-0.1412742;1;1;1;-2298;-2249;2457;32768;0.8002605;0.5761772;-0.1454294;-0.08033241;1;3;0;1103;-3623;-1261;256;-0.03739612;0.06509695;-0.5886427;-0.8048998;-3;0;0;-131;3894;-1327;128;0.101108;-0.02908587;0.6440443;0.757719;-1;-2;-1;-415;4059;538;4;0.5221038;-0.5027701;0.5041551;0.4695291;0;1;0;-141;4106;244;16;0.6301939;-0.7679552;-0.04155125;-0.1066482;0;3;0;353;4046;826;2;0.547759;-0.4972299;-0.4792244;-0.4722992;0;-4;0;-65;4104;305;8;0.6509695;-0.7399753;0.04432133;0.1634349;-1;-6;0;-671;4031;673;0.5020631;2.819138;-0.2908403;0.5080132;3.361376;-0.3505456;0.5132409;3.83778;-0.405037;0.5019428;4.535934;-0.1793935;0.2380703;4.853776;-0.1153923;-0.1007171;4.695428;-0.09842665;-0.8863805;5.185425;-0.1294704;-0.9777752;6.101696;-0.352829;0.7583461;4.862199;-0.1153921;1.049702;4.714049;-0.098426;1.741817;5.235313;-0.5197757;2.005261;6.086924;-0.840936;0.1898022;2.776495;-0.2934693;0.114247;1.315629;-0.2615272;0;0;0;0.1898022;2.776495;-0.2934693;0.114247;1.315629;-0.2615272;0;0;0
1168661.1909;NotLabelled;NONE;16384;0.7387804;0.468144;0.4501385;0.1800554;0;2;-3;2748;-2266;1933;65536;0.780709;0.6108033;-0.0567867;0.1191136;-1;6;0;-278;-3988;-858;8192;0.8010068;0.4113573;-0.4113573;-0.1412742;1;2;2;-2304;-2269;2501;32768;0.8002605;0.5761772;-0.1454294;-0.08033241;1;2;1;1177;-3647;-1203;256;-0.03739612;0.06509695;-0.5886427;-0.8048998;-2;0;0;-157;3838;-1263;128;0.101108;-0.02908587;0.6454294;0.7565396;3;-3;-2;-477;4065;542;4;0.5221038;-0.5027701;0.5041551;0.4695291;0;0;1;-151;4106;250;16;0.6301939;-0.7677616;-0.04155125;-0.1080332;0;0;0;347;3986;816;2;0.547759;-0.4972299;-0.4792244;-0.4722992;0;-1;0;-107;4178;177;8;0.6509695;-0.7399753;0.04432133;0.1634349;0;-3;0;-671;4103;625;0.4994979;2.818473;-0.2950395;0.5054504;3.360924;-0.3527688;0.5106802;3.837524;-0.4055242;0.4991909;4.536444;-0.1822704;0.2352334;4.854434;-0.1193713;-0.1035144;4.696058;-0.101883;-0.8891764;5.186056;-0.1329605;-0.9789569;6.102428;-0.3565641;0.7555072;4.86299;-0.1193712;1.0469;4.714975;-0.1018823;1.739919;5.234947;-0.5233418;2.003372;6.086556;-0.8444946;0.1872371;2.775839;-0.2978363;0.1116807;1.314973;-0.2658957;0;0;0;0.1872371;2.775839;-0.2978363;0.1116807;1.314973;-0.2658957;0;0;0
1168682.0578;NotLabelled;NONE;16384;0.7387804;0.468144;0.4501385;0.1800554;0;3;-4;2762;-2214;1973;65536;0.780709;0.6108033;-0.0567867;0.1191136;-1;5;0;-300;-4026;-848;8192;0.8007613;0.4113573;-0.4113573;-0.1426593;2;0;3;-2428;-2287;2539;32768;0.8005109;0.5761772;-0.1440443;-0.08033241;0;1;2;1237;-3667;-1211;256;-0.03739612;0.06509695;-0.5886427;-0.8048998;-2;0;0;-55;3866;-1319;128;0.101108;-0.02770083;0.6454294;0.7565916;4;-2;0;-479;4019;608;4;0.5221038;-0.5027701;0.5041551;0.4695291;0;-1;1;-173;4048;118;16;0.6301939;-0.7677616;-0.04155125;-0.1080332;0;0;0;283;3976;862;2;0.547759;-0.4972299;-0.4792244;-0.4722992;0;0;0;-91;4096;209;8;0.6509695;-0.7399753;0.04432133;0.1634349;0;-1;0;-577;3945;615;0.502393;2.818309;-0.294832;0.5083431;3.360547;-0.3545372;0.5135708;3.836951;-0.4090286;0.5020815;4.535871;-0.1857745;0.238124;4.853861;-0.1228752;-0.1006238;4.695485;-0.1053871;-0.8862171;5.185735;-0.1341407;-0.9743901;6.102204;-0.3579857;0.7583976;4.862417;-0.1228751;1.04979;4.714401;-0.1053863;1.742809;5.234374;-0.526845;2.006263;6.085986;-0.8479978;0.1901321;2.775666;-0.2974609;0.1145759;1.314799;-0.2655211;0;0;0;0.1901321;2.775666;-0.2974609;0.1145759;1.314799;-0.2655211;0;0;0
1168702.0456;NotLabelled;NONE;16384;0.7387804;0.468144;0.4501385;0.1800554;0;5;-3;2778;-2252;1959;65536;0.7809191;0.6108033;-0.0567867;0.1177285;-1;3;1;-304;-3978;-900;8192;0.800294;0.4113573;-0.4127424;-0.1412742;2;-5;4;-2390;-2225;2545;32768;0.8005109;0.5761772;-0.1440443;-0.08033241;-1;-2;3;1309;-3685;-1175;256;-0.03739612;0.06371191;-0.5886427;-0.8050107;0;-1;0;-93;3928;-1329;128;0.101108;-0.02770083;0.6468144;0.7554078;7;1;0;-503;4151;588;4;0.5221038;-0.5027701;0.5041551;0.4695291;0;-3;1;-103;4014;110;16;0.6301939;-0.7677616;-0.04155125;-0.1080332;0;0;0;283;3968;820;2;0.547759;-0.4972299;-0.4792244;-0.4722992;1;-2;0;-123;4082;247;8;0.6509695;-0.7399753;0.04432133;0.1634349;0;-3;0;-543;4055;515;0.5023929;2.818309;-0.2948293;0.508343;3.360548;-0.3545174;0.5135708;3.836955;-0.4089938;0.5020815;4.535874;-0.1857395;0.238124;4.853865;-0.12284;-0.1006238;4.695488;-0.1053517;-0.8862169;5.185739;-0.1341054;-0.9743898;6.102208;-0.3579503;0.7583976;4.862421;-0.1228399;1.04979;4.714405;-0.1053512;1.743693;5.233087;-0.5269475;2.005023;6.085181;-0.8485487;0.1901321;2.775666;-0.2974597;0.1145759;1.3148;-0.2655204;0;0;0;0.1901321;2.775666;-0.2974597;0.1145759;1.3148;-0.2655204;0;0;0
1168723.2453;NotLabelled;NONE;16384;0.7388116;0.466759;0.4515235;0.1800554;1;0;-2;2696;-2270;2025;65536;0.7809191;0.6108033;-0.0567867;0.1177285;-2;0;0;-498;-4024;-810;8192;0.8010044;0.4099723;-0.4127424;-0.1412742;1;-5;3;-2404;-2195;2559;32768;0.8005109;0.5761772;-0.1440443;-0.08033241;-1;-4;2;1197;-3779;-1237;256;-0.03739612;0.06371191;-0.5886427;-0.8050107;0;0;0;-165;3948;-1355;128;0.101108;-0.02770083;0.6468144;0.7554078;4;1;0;-475;4109;642;4;0.523434;-0.501385;0.5041551;0.4695291;0;-2;1;-69;4030;234;16;0.6301939;-0.7677616;-0.04155125;-0.1080332;0;0;0;257;4010;810;2;0.5489013;-0.4986149;-0.4778393;-0.4709141;2;-5;0;-111;4144;279;8;0.6509695;-0.739891;0.04570637;0.1634349;0;-4;0;-587;4027;535;0.5030603;2.818318;-0.2945713;0.509008;3.360336;-0.3562377;0.5142336;3.836541;-0.4124522;0.5038899;4.53548;-0.1892038;0.240454;4.853903;-0.1263071;-0.0985532;4.696082;-0.1088176;-0.8840827;5.186332;-0.1392606;-0.9701446;6.102895;-0.3635415;0.7607409;4.861606;-0.1263069;1.05189;4.713113;-0.1088169;1.747694;5.232143;-0.5268369;2.009746;6.084238;-0.8478514;0.1907994;2.775665;-0.2970337;0.1151716;1.314799;-0.2652634;0;0;0;0.1907994;2.775665;-0.2970337;0.1151716;1.314799;-0.2652634;0;0;0
1168743.9426;NotLabelled;NONE;16384;0.7388116;0.466759;0.4515235;0.1800554;2;0;-3;2772;-2210;2025;65536;0.7809191;0.6108033;-0.0567867;0.1177285;-2;3;0;-526;-4012;-836;8192;0.8002892;0.4099723;-0.4141274;-0.1412742;1;-1;0;-2430;-2237;2553;32768;0.8003983;0.5761772;-0.1454294;-0.07894737;-1;0;3;1223;-3711;-1253;256;-0.03601108;0.06371191;-0.5900277;-0.8040593;-7;0;0;-97;3854;-1321;128;0.101108;-0.02908587;0.6481994;0.7541676;6;0;0;-575;4083;550;4;0.5221882;-0.501385;0.5041551;0.4709141;0;-1;1;-91;4080;202;16;0.6301939;-0.7679552;-0.04155125;-0.1066482;0;0;0;311;3920;828;2;0.5489013;-0.4986149;-0.4778393;-0.4709141;1;0;-1;-147;4102;211;8;0.6509695;-0.7395837;0.04570637;0.1648199;-1;-1;0;-687;3979;641;0.5074808;2.818154;-0.291112;0.5134285;3.360172;-0.3527784;0.5186541;3.836376;-0.4089929;0.5083103;4.535316;-0.1857446;0.2448745;4.853739;-0.1228478;-0.09413268;4.695917;-0.1053583;-0.8811153;5.183835;-0.135744;-0.9671776;6.100399;-0.3600249;0.7651614;4.861442;-0.1228476;1.056311;4.712949;-0.1053576;1.752014;5.230396;-0.5255004;2.014066;6.082491;-0.8465148;0.1952198;2.775501;-0.2935744;0.1151717;1.3148;-0.2652633;0;0;0;0.1952198;2.775501;-0.2935744;0.1151717;1.3148;-0.2652633;0;0;0
1168765.0545;NotLabelled;NONE;16384;0.7379634;0.466759;0.4529086;0.1800554;1;3;-4;2874;-2140;2011;65536;0.7820004;0.6094183;-0.0567867;0.1177285;-3;4;0;-386;-4070;-954;8192;0.8002892;0.4099723;-0.4141274;-0.1412742;3;-2;0;-2324;-2281;2571;32768;0.8006487;0.5761772;-0.1440443;-0.07894737;-2;3;3;1283;-3783;-1147;256;-0.03739612;0.06371191;-0.5900277;-0.803996;-6;0;1;-79;3882;-1309;128;0.101108;-0.02908587;0.6481994;0.7541676;7;1;0;-485;4107;530;4;0.5221882;-0.501385;0.5041551;0.4709141;0;-2;1;-95;4002;166;16;0.6301939;-0.7677616;-0.04155125;-0.1080332;0;1;0;299;3926;764;2;0.54771;-0.4986149;-0.4778393;-0.4722992;0;0;-3;-101;4086;249;8;0.6495845;-0.7408004;0.04570637;0.1648199;-2;-2;0;-605;4039;507;0.5012763;2.818552;-0.2907611;0.5072215;3.360339;-0.354424;0.5124447;3.836333;-0.4123925;0.5003356;4.535955;-0.1913835;0.2361025;4.853925;-0.1295459;-0.1025157;4.695322;-0.1116026;-0.889388;5.183354;-0.1430049;-0.9750535;6.099918;-0.3674377;0.7563689;4.862916;-0.1294918;1.047882;4.715201;-0.1114828;1.746949;5.233238;-0.5252674;2.01023;6.08538;-0.8451465;0.1890152;2.77589;-0.2930537;0.1127465;1.314973;-0.2654449;0;0;0;0.1890152;2.77589;-0.2930537;0.1127465;1.314973;-0.2654449;0;0;0
1168786.0481;NotLabelled;NONE;16384;0.7388376;0.4653739;0.4529086;0.1800554;2;5;-3;2814;-2256;1987;65536;0.7820004;0.6094183;-0.0567867;0.1177285;-3;1;3;-320;-4190;-868;8192;0.8002892;0.4099723;-0.4141274;-0.1412742;2;-2;0;-2404;-2213;2455;32768;0.8008966;0.5761772;-0.1426593;-0.07894737;-3;0;4;1285;-3767;-1157;256;-0.03739612;0.06371191;-0.5900277;-0.803996;-3;0;0;-65;3990;-1247;128;0.101108;-0.02908587;0.6495845;0.7529749;7;1;0;-487;4107;564;4;0.5221882;-0.501385;0.5041551;0.4709141;1;0;1;-69;4018;176;16;0.6301939;-0.7677616;-0.04155125;-0.1080332;0;1;0;259;3958;874;2;0.5489153;-0.4986149;-0.4764543;-0.4722992;0;-1;-3;-117;4094;271;8;0.6495845;-0.7408004;0.04570637;0.1648199;-1;-4;1;-551;4013;517;0.5036599;2.818379;-0.2907096;0.5096051;3.360166;-0.3543724;0.5148283;3.83616;-0.412341;0.5042967;4.535857;-0.191488;0.2407773;4.854427;-0.1296954;-0.09819072;4.696581;-0.1116825;-0.8860487;5.183303;-0.1383265;-0.9721541;6.099066;-0.3658397;0.7610622;4.862262;-0.1296954;1.052248;4.713902;-0.1116824;1.749152;5.230408;-0.5309952;2.009753;6.083031;-0.8517865;0.1913989;2.775717;-0.2930022;0.1151783;1.3148;-0.2652605;0;0;0;0.1913989;2.775717;-0.2930022;0.1151783;1.3148;-0.2652605;0;0;0
1168807.0438;NotLabelled;NONE;16384;0.7388376;0.4653739;0.4529086;0.1800554;2;3;-1;2814;-2192;2067;65536;0.7820004;0.6094183;-0.0567867;0.1177285;-3;0;3;-356;-4034;-876;8192;0.8009972;0.4085872;-0.4141274;-0.1412742;3;-4;0;-2502;-2219;2549;32768;0.8008966;0.5761772;-0.1426593;-0.07894737;-3;-2;3;1239;-3775;-1193;256;-0.03739612;0.06371191;-0.5914127;-0.8029778;-2;0;0;-55;3940;-1257;128;0.101108;-0.02908587;0.6509695;0.7517778;5;1;0;-545;4119;564;4;0.5221882;-0.501385;0.5041551;0.4709141;0;0;1;-51;4038;208;16;0.6301939;-0.7677616;-0.04155125;-0.1080332;0;1;0;339;3988;816;2;0.5489153;-0.4986149;-0.4764543;-0.4722992;0;-3;-2;-135;4174;235;8;0.6495845;-0.7407137;0.04709141;0.1648199;0;-3;0;-593;4093;703;0.50366;2.818387;-0.2908796;0.5096025;3.359937;-0.3565247;0.5148234;3.835716;-0.4162348;0.5042919;4.535413;-0.195382;0.2407724;4.853983;-0.1335897;-0.09819574;4.696137;-0.1155768;-0.8866303;5.181718;-0.1457627;-0.9727355;6.097481;-0.3732764;0.7610573;4.861817;-0.1335896;1.052243;4.713459;-0.1155765;1.749793;5.229963;-0.5338134;2.008272;6.083065;-0.8550513;0.1913988;2.775717;-0.2930036;0.1151783;1.314799;-0.2652611;0;0;0;0.1913988;2.775717;-0.2930036;0.1151783;1.314799;-0.2652611;0;0;0
1168827.0524;NotLabelled;NONE;16384;0.7388583;0.4639889;0.4542936;0.1800554;4;0;-1;2780;-2138;2067;65536;0.7828683;0.6080332;-0.0567867;0.1191136;-4;0;2;-468;-3900;-940;8192;0.8009972;0.4085872;-0.4141274;-0.1412742;3;-5;0;-2378;-2197;2599;32768;0.8008966;0.5761772;-0.1426593;-0.07894737;-5;-2;3;1235;-3781;-1165;256;-0.03739612;0.06371191;-0.5914127;-0.8029778;-4;0;-1;-47;3982;-1235;128;0.101108;-0.02908587;0.6509695;0.7517778;5;0;1;-507;4119;552;4;0.5209359;-0.501385;0.5041551;0.4722992;0;-2;1;-51;4094;188;16;0.6301939;-0.7677616;-0.04155125;-0.1080332;0;0;0;317;4018;856;2;0.5501702;-0.4972299;-0.4764543;-0.4722992;0;0;-1;-115;4142;197;8;0.6495845;-0.7407137;0.04709141;0.1648199;0;-1;0;-663;4055;737;0.5036673;2.818394;-0.291041;0.509607;3.3597;-0.3586705;0.5148254;3.835258;-0.420124;0.5041054;4.535705;-0.2016715;0.2405021;4.854418;-0.140985;-0.09842706;4.696549;-0.1224488;-0.8868614;5.182129;-0.1526543;-0.9729607;6.097893;-0.3801695;0.7607852;4.862384;-0.140985;1.052008;4.714162;-0.1224484;1.74943;5.229082;-0.5428476;2.007916;6.082183;-0.8640778;0.191406;2.775717;-0.2929959;0.115185;1.3148;-0.2652568;0;0;0;0.191406;2.775717;-0.2929959;0.115185;1.3148;-0.2652568;0;0;0
1168848.0434;NotLabelled;NONE;16384;0.7388583;0.4639889;0.4542936;0.1800554;5;4;-2;2804;-2154;2039;65536;0.7828683;0.6080332;-0.0567867;0.1191136;-3;0;3;-438;-3962;-1080;8192;0.8017022;0.4072022;-0.4141274;-0.1412742;3;-1;-2;-2352;-2227;2585;32768;0.8022715;0.5747922;-0.1412742;-0.07756232;-6;2;2;1133;-3727;-1303;256;-0.03601108;0.06371191;-0.5927978;-0.8020192;-7;0;0;-199;3930;-1179;128;0.1024931;-0.02908587;0.6523545;0.7503884;3;1;1;-451;4055;592;4;0.5222654;-0.5;0.5041551;0.4722992;0;-3;0;-95;4090;244;16;0.6301939;-0.7677616;-0.04155125;-0.1080332;0;0;0;331;3968;892;2;0.5489153;-0.4986149;-0.4764543;-0.4722992;0;0;0;-81;4102;155;8;0.6495845;-0.7407137;0.04709141;0.1648199;0;1;0;-633;3997;701;0.4998296;2.8186;-0.2904739;0.5057694;3.359906;-0.3581034;0.5109878;3.835464;-0.4195568;0.5002677;4.535911;-0.2011048;0.2366645;4.854624;-0.1404185;-0.1022647;4.696755;-0.1218821;-0.8921393;5.179994;-0.1520057;-0.9798877;6.094851;-0.3825078;0.7569475;4.862591;-0.1404185;1.04817;4.714368;-0.1218818;1.745633;5.229286;-0.5422145;2.004119;6.082388;-0.8634455;0.1875684;2.775923;-0.2924288;0.1151851;1.3148;-0.2652576;0;0;0;0.1875684;2.775923;-0.2924288;0.1151851;1.3148;-0.2652576;0;0;0
1168869.2456;NotLabelled;NONE;16384;0.7397263;0.4626039;0.4542936;0.1800554;4;2;-2;2686;-2176;2077;65536;0.7840412;0.6066482;-0.05540166;0.1191136;-4;0;2;-460;-4020;-1022;8192;0.8031175;0.4058172;-0.4127424;-0.1412742;3;-1;-2;-2276;-2197;2529;32768;0.803262;0.5734072;-0.1412742;-0.07756232;-5;0;2;1229;-3689;-1403;256;-0.03601108;0.06371191;-0.5941828;-0.8009937;-7;0;0;-103;3912;-1181;128;0.1024931;-0.03047091;0.6523545;0.7503334;1;1;1;-463;4037;522;4;0.5222654;-0.5;0.5041551;0.4722992;0;-1;0;-43;4032;184;16;0.6301939;-0.7677616;-0.04155125;-0.1080332;0;-2;0;385;3962;884;2;0.5489153;-0.4986149;-0.4764543;-0.4722992;0;1;0;-95;4078;257;8;0.6495845;-0.7408004;0.04570637;0.1648199;0;2;0;-559;4007;559;0.5047419;2.818442;-0.2868996;0.5106786;3.359458;-0.3568086;0.5158942;3.834753;-0.4202647;0.5034316;4.535869;-0.204062;0.2390385;4.854123;-0.1444117;-0.09950063;4.695477;-0.1253856;-0.8893275;5.178716;-0.1567352;-0.97669;6.093574;-0.3873835;0.7593002;4.863374;-0.1444116;1.050887;4.715931;-0.1253849;1.748865;5.229259;-0.5468073;2.00393;6.082334;-0.8708321;0.1924807;2.775757;-0.2886603;0.1156288;1.3148;-0.2650644;0;0;0;0.1924807;2.775757;-0.2886603;0.1156288;1.3148;-0.2650644;0;0;0
1168890.0368;NotLabelled;NONE;16384;0.7405907;0.4612188;0.4542936;0.1800554;5;1;-1;2612;-2154;2101;65536;0.7840412;0.6066482;-0.05540166;0.1191136;-3;-1;3;-464;-3878;-1036;8192;0.8031175;0.4058172;-0.4127424;-0.1412742;4;-3;-2;-2288;-2279;2555;32768;0.803262;0.5734072;-0.1412742;-0.07756232;-5;0;4;1241;-3625;-1333;256;-0.03601108;0.06371191;-0.5941828;-0.8009937;-6;0;0;-75;3868;-1191;128;0.1024931;-0.03047091;0.6523545;0.7503334;3;0;1;-443;4057;478;4;0.5222654;-0.5;0.5041551;0.4722992;0;0;0;-13;4050;206;16;0.6301939;-0.7677616;-0.04155125;-0.1080332;0;-1;0;339;3938;826;2;0.5489153;-0.4986149;-0.4764543;-0.4722992;-1;0;0;-241;4190;261;8;0.6495845;-0.7411073;0.04570637;0.1634349;0;1;0;-585;4011;563;0.5047508;2.818442;-0.2868948;0.5106876;3.359457;-0.3568188;0.5159031;3.834748;-0.420288;0.5032519;4.5366;-0.2064974;0.2387754;4.854992;-0.1479576;-0.09972532;4.696328;-0.1284069;-0.8901566;5.178413;-0.1621888;-0.9796188;6.092252;-0.3960509;0.7590348;4.864373;-0.1479576;1.050657;4.71707;-0.1284064;1.746682;5.229735;-0.5538474;2.001381;6.08178;-0.8808547;0.1924896;2.775757;-0.2886543;0.115637;1.3148;-0.265061;0;0;0;0.1924896;2.775757;-0.2886543;0.115637;1.3148;-0.265061;0;0;0
1168911.0397;NotLabelled;NONE;16384;0.7405907;0.4612188;0.4542936;0.1800554;5;0;-1;2770;-2048;2131;65536;0.785111;0.6052631;-0.05540166;0.1191136;-4;0;4;-406;-3906;-1130;8192;0.8033599;0.4058172;-0.4127424;-0.1398892;3;-4;-1;-2280;-2245;2661;32768;0.804491;0.5720221;-0.1398892;-0.07756232;-6;1;4;1057;-3695;-1433;256;-0.03601108;0.06371191;-0.5955678;-0.7999644;-4;0;-1;-111;3888;-1233;128;0.1024931;-0.03047091;0.6537396;0.749127;4;0;1;-465;4053;530;4;0.5222654;-0.5;0.5041551;0.4722992;0;0;0;61;4056;198;16;0.6301939;-0.7677616;-0.04155125;-0.1080332;1;-1;0;299;3980;828;2;0.5489677;-0.4972299;-0.4778393;-0.4722992;-1;2;0;-251;4092;247;8;0.6495845;-0.7411073;0.04570637;0.1634349;0;2;0;-563;4063;601;0.5047508;2.818442;-0.2868948;0.5106876;3.359457;-0.3568188;0.5159031;3.834748;-0.420288;0.5032519;4.5366;-0.2064974;0.2387754;4.854992;-0.1479576;-0.09972532;4.696328;-0.1284069;-0.8907619;5.177252;-0.1644958;-0.980224;6.091091;-0.3983573;0.7590348;4.864373;-0.1479576;1.050657;4.71707;-0.1284064;1.746682;5.229734;-0.5538467;2.001381;6.081779;-0.8808539;0.1924896;2.775757;-0.2886543;0.115637;1.3148;-0.265061;0;0;0;0.1924896;2.775757;-0.2886543;0.115637;1.3148;-0.265061;0;0;0
1168931.2321;NotLabelled;NONE;16384;0.7414514;0.4598338;0.4542936;0.1800554;4;0;-2;2802;-2090;2167;65536;0.7859656;0.6038781;-0.05540166;0.1204986;-4;0;5;-594;-3882;-1144;8192;0.8040581;0.4044321;-0.4127424;-0.1398892;4;-3;-2;-2308;-2169;2679;32768;0.804491;0.5720221;-0.1398892;-0.07756232;-5;0;3;1117;-3651;-1455;256;-0.03601108;0.06371191;-0.5969529;-0.7989313;-7;0;-1;-91;3930;-1129;128;0.1024931;-0.03047091;0.6537396;0.749127;1;5;1;-457;4077;506;4;0.5222654;-0.5;0.5041551;0.4722992;0;0;0;19;4022;214;16;0.6301939;-0.7677616;-0.04155125;-0.1080332;0;0;0;237;3960;804;2;0.5489677;-0.4972299;-0.4778393;-0.4722992;-2;4;0;-179;4032;147;8;0.6495845;-0.7411073;0.04570637;0.1634349;0;3;0;-579;3965;619;0.5047598;2.818448;-0.287057;0.5106936;3.359202;-0.3589696;0.5159064;3.834258;-0.4241858;0.5030657;4.536838;-0.2128128;0.2385059;4.855362;-0.1553855;-0.09995624;4.696682;-0.1353098;-0.8909956;5.177606;-0.171338;-0.9804907;6.090614;-0.4084112;0.758763;4.864874;-0.1553854;1.050421;4.717712;-0.1353093;1.745541;5.231668;-0.5606703;1.997743;6.083141;-0.8910868;0.1924984;2.775757;-0.2886471;0.1156451;1.3148;-0.2650567;0;0;0;0.1924984;2.775757;-0.2886471;0.1156451;1.3148;-0.2650567;0;0;0
1168951.0527;NotLabelled;NONE;16384;0.7414592;0.4584487;0.4556787;0.1800554;3;3;-4;2664;-2082;2139;65536;0.7871242;0.602493;-0.05401662;0.1204986;-2;1;3;-516;-3844;-1242;8192;0.8057014;0.4030471;-0.4113573;-0.1385041;1;-3;-3;-2204;-2207;2627;32768;0.8065855;0.5692521;-0.1398892;-0.07617728;-5;-2;2;1145;-3605;-1535;256;-0.03601108;0.06509695;-0.5969529;-0.7988196;-6;0;-1;-191;3932;-1239;128;0.1024931;-0.03185596;0.6537396;0.7490694;1;8;1;-445;4117;460;4;0.5222654;-0.5;0.5041551;0.4722992;0;0;0;-41;4110;264;16;0.6301939;-0.7678353;-0.0401662;-0.1080332;0;0;0;333;4016;824;2;0.547773;-0.4972299;-0.4778393;-0.4736842;0;4;-1;-175;4056;135;8;0.6495845;-0.7411073;0.04570637;0.1634349;0;2;0;-573;4031;547;0.5047688;2.818448;-0.2870508;0.5107027;3.359202;-0.3589635;0.5159156;3.834258;-0.4241796;0.5028852;4.53756;-0.21523;0.2382417;4.856214;-0.1589175;-0.100182;4.697518;-0.1383163;-0.8918173;5.177275;-0.1767539;-0.9829345;6.089345;-0.4167988;0.7584964;4.865856;-0.1589175;1.05019;4.718838;-0.138316;1.745233;5.231186;-0.5657378;1.997445;6.08266;-0.8961467;0.1925074;2.775757;-0.2886408;0.1156534;1.3148;-0.265053;0;0;0;0.1925074;2.775757;-0.2886408;0.1156534;1.3148;-0.265053;0;0;0
1168971.0622;NotLabelled;NONE;16384;0.7414618;0.4570637;0.4570637;0.1800554;3;2;-4;2690;-2092;2139;65536;0.7871242;0.602493;-0.05401662;0.1204986;-1;1;3;-492;-3958;-1274;8192;0.8057014;0.4030471;-0.4113573;-0.1385041;1;-4;-2;-2170;-2305;2623;32768;0.8067151;0.5692521;-0.1398892;-0.07479224;-4;-1;4;1139;-3631;-1577;256;-0.03462604;0.06509695;-0.5983379;-0.7978441;-5;0;-1;-105;3864;-1171;128;0.1038781;-0.033241;0.6537396;0.7488184;0;2;0;-445;4095;586;4;0.5222654;-0.5;0.5041551;0.4722992;0;0;-1;-35;4052;256;16;0.6301939;-0.7678353;-0.0401662;-0.1080332;0;-1;0;325;4030;862;2;0.547773;-0.4972299;-0.4778393;-0.4736842;-1;1;0;-315;4146;209;8;0.6495845;-0.7411073;0.04570637;0.1634349;0;2;0;-605;4057;577;0.5071149;2.818162;-0.2874672;0.5130487;3.358914;-0.3593938;0.5182616;3.833968;-0.4246222;0.5035971;4.537251;-0.2157162;0.2382997;4.855465;-0.1599993;-0.09990467;4.696208;-0.1401486;-0.8936797;5.172285;-0.1801716;-0.9869082;6.083291;-0.4234211;0.7585364;4.865973;-0.1588413;1.050427;4.71944;-0.1375875;1.742679;5.233526;-0.5674452;1.992691;6.083394;-0.9036082;0.1948536;2.775471;-0.2890561;0.1179995;1.314515;-0.2654305;0;0;0;0.1948536;2.775471;-0.2890561;0.1179995;1.314515;-0.2654305;0;0;0
1168992.0389;NotLabelled;NONE;16384;0.7414618;0.4570637;0.4570637;0.1800554;2;0;-3;2650;-2078;2213;65536;0.7879694;0.601108;-0.05401662;0.1218837;0;1;4;-540;-3978;-1362;8192;0.8059383;0.4030471;-0.4113573;-0.1371191;1;-4;0;-2210;-2323;2631;32768;0.8079293;0.567867;-0.1385041;-0.07479224;-3;0;6;1087;-3611;-1563;256;-0.03462604;0.06509695;-0.599723;-0.7968035;-3;0;-1;-111;3916;-1203;128;0.1038781;-0.03462604;0.6537396;0.7487556;0;-1;0;-469;4081;524;4;0.5209248;-0.5;0.5055401;0.4722992;0;0;0;-39;4042;266;16;0.6301939;-0.7678353;-0.0401662;-0.1080332;0;-1;0;327;3948;866;2;0.5490271;-0.4958449;-0.4778393;-0.4736842;-1;1;0;-321;4046;213;8;0.6495845;-0.7414113;0.04570637;0.1620499;0;2;0;-535;3943;565;0.5069616;2.818171;-0.2875272;0.5128949;3.358881;-0.3597658;0.5181074;3.833898;-0.4252683;0.5021622;4.537809;-0.218588;0.2362032;4.85555;-0.1633189;-0.1015647;4.695528;-0.1422264;-0.8960834;5.170559;-0.179834;-0.9894413;6.081573;-0.4230108;0.7564136;4.867337;-0.163319;1.048709;4.721589;-0.1422262;1.740619;5.234533;-0.5739969;1.989009;6.084916;-0.910059;0.1947003;2.775479;-0.2890894;0.1178587;1.314522;-0.2654599;0;0;0;0.1947003;2.775479;-0.2890894;0.1178587;1.314522;-0.2654599;0;0;0
1169013.1912;NotLabelled;NONE;16384;0.7402681;0.4570637;0.4584487;0.1814404;1;-2;-4;2836;-2006;2255;65536;0.7880631;0.601108;-0.05263158;0.1218837;2;2;5;-658;-3924;-1328;8192;0.8066295;0.4016621;-0.4113573;-0.1371191;1;-2;-1;-2234;-2261;2667;32768;0.8080563;0.567867;-0.1385041;-0.0734072;-2;0;6;1103;-3595;-1581;256;-0.03462604;0.06509695;-0.599723;-0.7968035;-1;0;-1;-141;3926;-1177;128;0.1038781;-0.03462604;0.6537396;0.7487556;0;0;1;-497;4101;522;4;0.5222654;-0.5;0.5041551;0.4722992;0;1;0;-55;4062;212;16;0.6315789;-0.7666965;-0.0401662;-0.1080332;0;0;0;347;3966;800;2;0.5490271;-0.4958449;-0.4778393;-0.4736842;0;0;0;-271;4044;207;8;0.6495845;-0.7414954;0.04432133;0.1620499;0;0;0;-515;3993;537;0.5065104;2.818124;-0.2915891;0.5124437;3.358832;-0.3638419;0.5176563;3.833847;-0.4293568;0.5015168;4.538464;-0.2251112;0.2354731;4.856327;-0.1709614;-0.1022561;4.696293;-0.1493429;-0.8967713;5.171326;-0.1870168;-0.9917403;6.081377;-0.4331521;0.7556806;4.868246;-0.1709611;1.048011;4.722646;-0.1493418;1.739095;5.236881;-0.5808976;1.984984;6.086649;-0.9203357;0.1942491;2.775432;-0.29315;0.1178693;1.314522;-0.2654553;0;0;0;0.1942491;2.775432;-0.29315;0.1178693;1.314522;-0.2654553;0;0;0
1169034.0392;NotLabelled;NONE;16384;0.7411215;0.4556787;0.4584487;0.1814404;0;0;-3;2796;-2090;2175;65536;0.7880631;0.601108;-0.05263158;0.1218837;2;2;4;-652;-3928;-1252;8192;0.8066295;0.4016621;-0.4113573;-0.1371191;0;-1;-3;-2256;-2095;2685;32768;0.8082925;0.567867;-0.1371191;-0.0734072;-1;1;3;1097;-3689;-1601;256;-0.03462604;0.06509695;-0.599723;-0.7968035;0;0;-1;-127;3972;-1191;128;0.1038781;-0.03462604;0.6537396;0.7487556;0;1;0;-457;4123;504;4;0.5222654;-0.5;0.5041551;0.4722992;0;0;0;-5;4070;210;16;0.6315789;-0.7666965;-0.0401662;-0.1080332;0;0;0;315;4004;794;2;0.547829;-0.4958449;-0.4778393;-0.4750692;1;0;0;-261;4094;217;8;0.6495845;-0.7414954;0.04432133;0.1620499;0;-1;0;-669;4013;533;0.5071806;2.819098;-0.2827955;0.513114;3.359807;-0.3550482;0.5183263;3.834821;-0.4205632;0.5021871;4.539438;-0.2163175;0.2361435;4.857301;-0.1621675;-0.1015856;4.697267;-0.1405486;-0.8978003;5.169649;-0.1755787;-0.9948475;6.079487;-0.4216919;0.756351;4.869219;-0.1621677;1.048682;4.72362;-0.1405486;1.739611;5.236221;-0.5742897;1.984059;6.08649;-0.9135163;0.1949193;2.776406;-0.2843564;0.1180768;1.315449;-0.26073;0;0;0;0.1949193;2.776406;-0.2843564;0.1180768;1.315449;-0.26073;0;0;0
1169055.0506;NotLabelled;NONE;16384;0.740263;0.4556787;0.4598338;0.1814404;0;0;-5;2734;-2114;2215;65536;0.7881544;0.601108;-0.05124654;0.1218837;5;3;1;-592;-4020;-1236;8192;0.8068637;0.4016621;-0.4113573;-0.1357341;-1;0;-2;-2240;-2237;2629;32768;0.8092638;0.566482;-0.1371191;-0.0734072;0;1;3;1113;-3617;-1591;256;-0.03462604;0.06509695;-0.599723;-0.7968035;0;0;0;-161;3958;-1205;128;0.1038781;-0.03462604;0.6537396;0.7487556;0;0;0;-465;4159;526;4;0.5222654;-0.5;0.5041551;0.4722992;0;0;0;-29;4036;246;16;0.6315789;-0.7666965;-0.0401662;-0.1080332;0;0;0;333;3970;796;2;0.547829;-0.4958449;-0.4778393;-0.4750692;0;-1;0;-241;4140;229;8;0.6495845;-0.7414954;0.04432133;0.1620499;-1;0;0;-641;4045;663;0.5071806;2.819098;-0.2827955;0.513114;3.359807;-0.3550482;0.5183263;3.834821;-0.4205632;0.5021871;4.539438;-0.2163175;0.2361435;4.857301;-0.1621675;-0.1015856;4.697267;-0.1405486;-0.898396;5.168468;-0.177858;-0.9954434;6.078307;-0.4239709;0.756351;4.869219;-0.1621677;1.048682;4.72362;-0.1405486;1.739611;5.236221;-0.5742897;1.981916;6.086937;-0.9139326;0.1949193;2.776406;-0.2843564;0.1180768;1.315449;-0.26073;0;0;0;0.1949193;2.776406;-0.2843564;0.1180768;1.315449;-0.26073;0;0;0
1169075.039;NotLabelled;NONE;16384;0.7399221;0.4556787;0.4598338;0.1828255;0;-1;-4;2740;-2090;2149;65536;0.7882432;0.601108;-0.04986149;0.1218837;6;2;2;-598;-3998;-1196;8192;0.8075683;0.4016621;-0.4099723;-0.1357341;-1;0;-1;-2282;-2275;2645;32768;0.8094972;0.566482;-0.1357341;-0.0734072;1;1;4;1103;-3623;-1487;256;-0.033241;0.06509695;-0.599723;-0.7968624;-2;-1;0;-97;3974;-1183;128;0.1038781;-0.033241;0.6537396;0.7488184;1;0;0;-471;4119;618;4;0.5222654;-0.5;0.5041551;0.4722992;0;0;1;-49;4112;224;16;0.6315789;-0.7666965;-0.0401662;-0.1080332;0;0;0;251;3970;810;2;0.547829;-0.4958449;-0.4778393;-0.4750692;0;-3;-1;-223;4138;185;8;0.6495845;-0.7414954;0.04432133;0.1620499;0;-1;0;-569;4057;623;0.5071806;2.819098;-0.2827955;0.513114;3.359807;-0.3550482;0.5183263;3.834821;-0.4205632;0.5021871;4.539438;-0.2163175;0.2361435;4.857301;-0.1621675;-0.1015856;4.697267;-0.1405486;-0.8992119;5.167277;-0.1753554;-0.9983369;6.076901;-0.4214391;0.756351;4.869219;-0.1621677;1.048682;4.72362;-0.1405486;1.738744;5.2375;-0.5741571;1.980675;6.087138;-0.9167549;0.1949193;2.776406;-0.2843564;0.1180768;1.315449;-0.26073;0;0;0;0.1949193;2.776406;-0.2843564;0.1180768;1.315449;-0.26073;0;0;0
1169096.0422;NotLabelled;NONE;16384;0.7390595;0.4556787;0.4612188;0.1828255;-1;-2;-3;2854;-2046;2145;65536;0.7869694;0.602493;-0.04986149;0.1232687;6;2;3;-682;-3964;-1126;8192;0.8075683;0.4016621;-0.4099723;-0.1357341;0;-1;-1;-2186;-2215;2591;32768;0.8086508;0.567867;-0.1357341;-0.07202215;1;1;3;1035;-3633;-1453;256;-0.033241;0.06509695;-0.599723;-0.7968624;-3;-1;0;-35;3912;-1115;128;0.1038781;-0.03462604;0.6537396;0.7487556;2;0;1;-497;4081;506;4;0.5222654;-0.5;0.5041551;0.4722992;0;0;0;-95;4164;202;16;0.6315789;-0.7666965;-0.0401662;-0.1080332;0;0;0;305;3998;812;2;0.5502295;-0.4958449;-0.4764543;-0.4736842;1;0;0;-155;4094;215;8;0.6495845;-0.7411073;0.04570637;0.1634349;0;-1;0;-561;3997;605;0.5076536;2.819098;-0.2824696;0.513587;3.359808;-0.3547082;0.5187994;3.834824;-0.4202107;0.5011083;4.539362;-0.2158163;0.2343651;4.856626;-0.1615979;-0.1030103;4.695844;-0.1400112;-0.9014462;5.164386;-0.1760206;-1.002238;6.073791;-0.422235;0.7545451;4.86969;-0.161598;1.047196;4.72473;-0.1400109;1.736082;5.239519;-0.5744126;1.976437;6.089601;-0.9170192;0.1953922;2.776406;-0.2840318;0.1185105;1.315449;-0.2605332;0;0;0;0.1953922;2.776406;-0.2840318;0.1185105;1.315449;-0.2605332;0;0;0
1169117.0388;NotLabelled;NONE;16384;0.7390595;0.4556787;0.4612188;0.1828255;-2;0;-4;2794;-2010;2223;65536;0.7870559;0.602493;-0.04847645;0.1232687;5;4;2;-676;-3966;-1106;8192;0.8075683;0.4016621;-0.4099723;-0.1357341;-1;-1;-1;-2182;-2143;2619;32768;0.8088821;0.567867;-0.134349;-0.07202215;2;0;2;973;-3649;-1439;256;-0.033241;0.06509695;-0.599723;-0.7968624;-1;0;0;-113;3892;-1207;128;0.1038781;-0.033241;0.6537396;0.7488184;1;-1;0;-473;4059;554;4;0.5222654;-0.5;0.5041551;0.4722992;0;0;0;-115;4044;236;16;0.6315789;-0.7666965;-0.0401662;-0.1080332;0;-1;0;319;3950;850;2;0.5502295;-0.4958449;-0.4764543;-0.4736842;1;0;0;-197;4082;329;8;0.6495845;-0.7411073;0.04570637;0.1634349;0;0;0;-591;4087;643;0.5076534;2.819098;-0.2824709;0.5135866;3.359806;-0.3547236;0.5187992;3.834821;-0.4202386;0.5011083;4.539358;-0.2158442;0.2343651;4.856622;-0.1616257;-0.1030105;4.69584;-0.1400389;-0.902257;5.163185;-0.1735394;-1.004596;6.073335;-0.4163374;0.754545;4.869687;-0.161626;1.047196;4.724727;-0.1400392;1.73608;5.239516;-0.5744427;1.975363;6.091166;-0.9138854;0.195392;2.776406;-0.2840318;0.1185104;1.315448;-0.2605332;0;0;0;0.195392;2.776406;-0.2840318;0.1185104;1.315448;-0.2605332;0;0;0
1169137.6065;NotLabelled;NONE;16384;0.7390595;0.4556787;0.4612188;0.1828255;-3;1;-4;2676;-2110;2171;65536;0.7870559;0.602493;-0.04847645;0.1232687;3;6;1;-682;-4006;-946;8192;0.8075683;0.4016621;-0.4099723;-0.1357341;-2;-1;-1;-2292;-2153;2593;32768;0.8088821;0.567867;-0.134349;-0.07202215;2;0;0;1009;-3633;-1421;256;-0.033241;0.06509695;-0.599723;-0.7968624;0;0;0;-139;3828;-1197;128;0.1038781;-0.033241;0.6537396;0.7488184;0;-1;0;-479;4019;574;4;0.5222654;-0.5;0.5041551;0.4722992;0;0;0;-67;3998;216;16;0.6315789;-0.7668904;-0.0401662;-0.1066482;0;-1;0;307;3958;828;2;0.5502295;-0.4958449;-0.4764543;-0.4736842;0;-1;0;-255;4104;237;8;0.6495845;-0.7411073;0.04570637;0.1634349;0;0;0;-621;3985;585;0.5076531;2.819098;-0.2824698;0.5135864;3.359808;-0.3547083;0.5187989;3.834824;-0.4202108;0.5011081;4.539361;-0.2158164;0.2343649;4.856626;-0.1615977;-0.1030105;4.695843;-0.1400106;-0.9022571;5.163188;-0.1735229;-1.00667;6.073112;-0.4162807;0.7545449;4.869691;-0.1615985;1.047196;4.72473;-0.1400119;1.73608;5.239508;-0.5744291;1.973219;6.091598;-0.9142772;0.1953917;2.776406;-0.284032;0.1185101;1.315449;-0.2605333;0;0;0;0.1953917;2.776406;-0.284032;0.1185101;1.315449;-0.2605333;0;0;0
1169158.0459;NotLabelled;NONE;16384;0.7376786;0.4570637;0.4626039;0.1814404;-5;0;-3;2722;-2034;2131;65536;0.7862939;0.6038781;-0.04709141;0.1218837;1;3;0;-422;-3876;-912;8192;0.8078118;0.4030471;-0.4085872;-0.134349;-2;0;-2;-2156;-2203;2573;32768;0.8088821;0.567867;-0.134349;-0.07202215;1;0;0;953;-3605;-1385;256;-0.033241;0.06509695;-0.599723;-0.7968624;0;0;0;-57;3832;-1199;128;0.1038781;-0.033241;0.6537396;0.7488184;0;-2;0;-507;4037;590;4;0.5222654;-0.5;0.5041551;0.4722992;0;1;0;-55;4038;188;16;0.6315789;-0.7668904;-0.0401662;-0.1066482;0;0;0;265;3990;830;2;0.5502295;-0.4958449;-0.4764543;-0.4736842;0;-3;0;-213;4080;215;8;0.6495845;-0.7411073;0.04570637;0.1634349;0;-2;0;-545;3993;637;0.5047644;2.819278;-0.2828591;0.5106977;3.359988;-0.3550977;0.5159101;3.835004;-0.4206001;0.4982191;4.539542;-0.2162057;0.2314759;4.856805;-0.1619874;-0.1058996;4.696023;-0.1404007;-0.9051462;5.163368;-0.1739031;-1.009559;6.073293;-0.4166608;0.7516559;4.86987;-0.1619874;1.044307;4.724911;-0.1404004;1.733192;5.239699;-0.5748023;1.970332;6.091789;-0.9146501;0.192503;2.776586;-0.2844212;0.1156213;1.315629;-0.2609226;0;0;0;0.192503;2.776586;-0.2844212;0.1156213;1.315629;-0.2609226;0;0;0
1169179.1926;NotLabelled;NONE;16384;0.7368083;0.4570637;0.4639889;0.1814404;-4;1;-4;2724;-2106;2067;65536;0.7862939;0.6038781;-0.04709141;0.1218837;0;3;0;-496;-3948;-958;8192;0.8078118;0.4030471;-0.4085872;-0.134349;0;0;1;-2116;-2303;2459;32768;0.8090042;0.567867;-0.134349;-0.07063711;1;0;2;919;-3585;-1307;256;-0.033241;0.06509695;-0.599723;-0.7968624;0;-1;0;-113;3886;-1139;128;0.1038781;-0.033241;0.6537396;0.7488184;0;0;0;-477;4055;520;4;0.5222654;-0.5;0.5041551;0.4722992;0;0;0;-75;4068;212;16;0.6301939;-0.768029;-0.0401662;-0.1066482;0;2;0;307;3950;790;2;0.5502295;-0.4958449;-0.4764543;-0.4736842;1;-2;-1;-191;4124;169;8;0.6495845;-0.7411073;0.04570637;0.1634349;0;-4;0;-583;3983;619;0.5047644;2.819278;-0.2828591;0.5106977;3.359988;-0.3550977;0.5159101;3.835004;-0.4206001;0.4982191;4.539542;-0.2162057;0.2314759;4.856805;-0.1619874;-0.1058996;4.696023;-0.1404007;-0.9044811;5.164815;-0.1692364;-1.009338;6.075486;-0.4089839;0.7516559;4.86987;-0.1619874;1.044307;4.724911;-0.1404004;1.730548;5.243505;-0.5744611;1.967688;6.095592;-0.9143087;0.192503;2.776586;-0.2844212;0.1156213;1.315629;-0.2609226;0;0;0;0.192503;2.776586;-0.2844212;0.1156213;1.315629;-0.2609226;0;0;0
1169200.0408;NotLabelled;NONE;16384;0.7368083;0.4570637;0.4639889;0.1814404;-3;1;-5;2732;-2144;2001;65536;0.7865073;0.6038781;-0.04709141;0.1204986;1;4;0;-456;-3960;-904;8192;0.8078118;0.4030471;-0.4085872;-0.134349;0;0;1;-2184;-2229;2539;32768;0.8090042;0.567867;-0.134349;-0.07063711;1;0;2;941;-3675;-1295;256;-0.033241;0.06371191;-0.599723;-0.7969744;2;0;0;-115;3908;-1215;128;0.1038781;-0.033241;0.6537396;0.7488184;0;-2;0;-459;4059;476;4;0.5222654;-0.5;0.5041551;0.4722992;0;0;0;-111;4062;230;16;0.6301939;-0.7678353;-0.0401662;-0.1080332;0;1;0;321;3958;792;2;0.5489781;-0.4972299;-0.4764543;-0.4736842;0;-2;0;-171;4130;243;8;0.6495845;-0.7410205;0.04709141;0.1634349;0;-1;0;-627;4033;625;0.5045601;2.81835;-0.287584;0.5104934;3.35906;-0.3598226;0.5157058;3.834076;-0.4253251;0.4980149;4.538613;-0.2209307;0.2312716;4.855877;-0.1667123;-0.1061038;4.695095;-0.1451256;-0.9054772;5.162683;-0.1714432;-1.010334;6.073355;-0.4111904;0.7514516;4.868942;-0.1667124;1.044103;4.723983;-0.1451253;1.730344;5.242577;-0.579186;1.966039;6.095149;-0.918824;0.1922987;2.775657;-0.2891462;0.115417;1.3147;-0.2656476;0;0;0;0.1922987;2.775657;-0.2891462;0.115417;1.3147;-0.2656476;0;0;0
1169220.0496;NotLabelled;NONE;16384;0.7359343;0.4570637;0.4653739;0.1814404;-2;0;-4;2742;-2094;2073;65536;0.7854419;0.6052631;-0.04709141;0.1204986;1;4;0;-518;-3982;-830;8192;0.8078118;0.4030471;-0.4085872;-0.134349;0;0;2;-2232;-2285;2537;32768;0.8082592;0.5692521;-0.132964;-0.07063711;1;0;2;983;-3623;-1317;256;-0.033241;0.06371191;-0.5983379;-0.7980148;1;-1;1;-161;3906;-1281;128;0.1024931;-0.033241;0.6537396;0.7490092;1;-2;0;-455;4079;512;4;0.5222654;-0.5;0.5041551;0.4722992;0;0;0;-139;4058;168;16;0.6301939;-0.7678353;-0.0401662;-0.1080332;0;2;0;279;4026;790;2;0.5501772;-0.4972299;-0.4750692;-0.4736842;0;-4;0;-181;4082;247;8;0.6495845;-0.7407137;0.04709141;0.1648199;0;-2;0;-545;4037;613;0.5080948;2.818171;-0.2867609;0.5140281;3.358881;-0.3589995;0.5192406;3.833898;-0.4245021;0.5027257;4.538466;-0.220116;0.2365124;4.856174;-0.1659013;-0.1011311;4.695956;-0.1443127;-0.9004437;5.163545;-0.1724066;-1.00318;6.074337;-0.4126127;0.7567134;4.868372;-0.1659015;1.049122;4.722924;-0.1443128;1.736326;5.241518;-0.5768476;1.972775;6.094091;-0.9159611;0.1958335;2.775479;-0.288323;0.1188997;1.314522;-0.2649952;0;0;0;0.1958335;2.775479;-0.288323;0.1188997;1.314522;-0.2649952;0;0;0
1169241.1952;NotLabelled;NONE;16384;0.7362744;0.4570637;0.4653739;0.1800554;-2;0;-3;2764;-2130;2035;65536;0.7854419;0.6052631;-0.04709141;0.1204986;0;2;0;-566;-3990;-824;8192;0.8071097;0.4030471;-0.4099723;-0.134349;0;0;1;-2208;-2213;2557;32768;0.8083791;0.5692521;-0.132964;-0.06925207;0;0;1;1037;-3729;-1307;256;-0.03185596;0.06371191;-0.5983379;-0.7980713;0;-1;1;-167;3968;-1201;128;0.1024931;-0.03185596;0.6537396;0.7490694;0;-3;0;-413;4145;476;4;0.5222654;-0.5;0.5041551;0.4722992;0;-2;0;-69;4092;204;16;0.6301939;-0.7678353;-0.0401662;-0.1080332;0;3;0;291;3988;818;2;0.5513666;-0.4972299;-0.4750692;-0.4722992;0;-3;0;-147;4120;203;8;0.6495845;-0.7407137;0.04709141;0.1648199;0;-3;0;-573;3999;633;0.5080831;2.81817;-0.2867434;0.5140169;3.35892;-0.3586841;0.5192297;3.833972;-0.423925;0.5029044;4.537834;-0.217104;0.2367736;4.855419;-0.1617703;-0.1009076;4.69521;-0.1407081;-0.9010097;5.161592;-0.1662616;-1.003714;6.073227;-0.403264;0.7569775;4.867489;-0.1617705;1.049352;4.721895;-0.1407082;1.736547;5.240488;-0.5732579;1.971201;6.094567;-0.9098205;0.1958218;2.775479;-0.2883309;0.1188891;1.314522;-0.2650001;0;0;0;0.1958218;2.775479;-0.2883309;0.1188891;1.314522;-0.2650001;0;0;0
1169261.2357;NotLabelled;NONE;16384;0.7345344;0.4584487;0.466759;0.1800554;0;1;-3;2842;-2100;2107;65536;0.785735;0.6052631;-0.04570637;0.1191136;0;1;0;-574;-4050;-882;8192;0.8071097;0.4030471;-0.4099723;-0.134349;0;1;1;-2270;-2211;2483;32768;0.8083791;0.5692521;-0.132964;-0.06925207;0;0;0;1125;-3701;-1323;256;-0.03185596;0.06371191;-0.5983379;-0.7980713;-2;-1;1;-175;3880;-1125;128;0.1024931;-0.03185596;0.6537396;0.7490694;-3;-3;0;-477;4061;532;4;0.5209248;-0.5;0.5055401;0.4722992;0;-4;0;-73;4044;162;16;0.6301939;-0.7677616;-0.04155125;-0.1080332;0;0;0;347;3974;838;2;0.5513666;-0.4972299;-0.4750692;-0.4722992;0;0;0;-113;4030;285;8;0.6481994;-0.7418368;0.04847645;0.1648199;0;0;0;-673;3979;661;0.5085617;2.81817;-0.2864168;0.5144955;3.358922;-0.3583432;0.5197083;3.833976;-0.4235717;0.5018302;4.537758;-0.2166073;0.2349992;4.854743;-0.1612077;-0.1023273;4.693785;-0.1401766;-0.9015166;5.16165;-0.1671665;-1.003827;6.073284;-0.4043395;0.7551752;4.867961;-0.1612078;1.047871;4.723009;-0.1401765;1.737668;5.240698;-0.5696553;1.971432;6.095254;-0.9056232;0.1963003;2.775479;-0.2880056;0.1193289;1.314522;-0.2648024;0;0;0;0.1963003;2.775479;-0.2880056;0.1193289;1.314522;-0.2648024;0;0;0
1169282.0467;NotLabelled;NONE;16384;0.7345344;0.4584487;0.466759;0.1800554;0;0;-2;2832;-2086;2107;65536;0.785735;0.6052631;-0.04570637;0.1191136;0;2;0;-616;-4070;-894;8192;0.806878;0.4030471;-0.4099723;-0.1357341;1;0;0;-2332;-2177;2577;32768;0.8082592;0.5692521;-0.132964;-0.07063711;0;2;0;1119;-3723;-1367;256;-0.03185596;0.06371191;-0.599723;-0.7970309;-1;-1;1;-137;3930;-1123;128;0.101108;-0.03185596;0.6537396;0.7492576;-4;-4;0;-453;4089;558;4;0.5209948;-0.4986149;0.5055401;0.4736842;0;-3;0;29;4104;212;16;0.6315789;-0.7668904;-0.0401662;-0.1066482;1;-5;0;275;3932;756;2;0.5513666;-0.4972299;-0.4750692;-0.4722992;0;0;0;-221;4154;261;8;0.6481994;-0.7419261;0.04709141;0.1648199;0;0;0;-623;4109;641;0.5057733;2.818401;-0.2901557;0.5117071;3.359153;-0.3620822;0.51692;3.834207;-0.4273106;0.4990419;4.537989;-0.2203463;0.2322109;4.854974;-0.1649466;-0.1051157;4.694016;-0.1439156;-0.9044818;5.16183;-0.1660918;-1.00727;6.073366;-0.403443;0.7523869;4.868192;-0.1649467;1.045082;4.72324;-0.1439155;1.73488;5.240929;-0.5733948;1.968644;6.095485;-0.9093624;0.193512;2.77571;-0.2917446;0.1169808;1.3148;-0.2644705;0;0;0;0.193512;2.77571;-0.2917446;0.1169808;1.3148;-0.2644705;0;0;0
1169302.0923;NotLabelled;NONE;16384;0.7350566;0.4570637;0.466759;0.1814404;0;0;0;2864;-2064;2087;65536;0.785735;0.6052631;-0.04570637;0.1191136;-2;2;0;-604;-4104;-886;8192;0.806878;0.4030471;-0.4099723;-0.1357341;1;0;0;-2358;-2189;2641;32768;0.8082592;0.5692521;-0.132964;-0.07063711;0;1;-1;1169;-3693;-1335;256;-0.03185596;0.06232687;-0.5983379;-0.7981806;2;-1;1;-77;3952;-1243;128;0.101108;-0.03185596;0.6523545;0.7504638;0;0;0;-493;4063;522;4;0.5209948;-0.4986149;0.5055401;0.4736842;0;-1;0;63;4084;222;16;0.6315789;-0.7668904;-0.0401662;-0.1066482;0;-1;0;185;4000;798;2;0.5513666;-0.4972299;-0.4750692;-0.4722992;0;-2;1;-269;4172;257;8;0.6481994;-0.7419261;0.04709141;0.1648199;0;-1;0;-561;3963;661;0.5059909;2.819268;-0.28212;0.5119252;3.360059;-0.353753;0.5171384;3.835149;-0.4187237;0.4990711;4.539638;-0.2141943;0.2321583;4.856748;-0.1599137;-0.1051309;4.695781;-0.1383561;-0.9044955;5.163595;-0.1605827;-1.007273;6.07513;-0.3979384;0.7523312;4.870091;-0.1599139;1.04506;4.725285;-0.1383561;1.735759;5.241698;-0.5679206;1.970986;6.095778;-0.9040825;0.1937296;2.776578;-0.2837338;0.1166343;1.315628;-0.2604714;0;0;0;0.1937296;2.776578;-0.2837338;0.1166343;1.315628;-0.2604714;0;0;0
1169323.0248;NotLabelled;NONE;16384;0.7350566;0.4570637;0.466759;0.1814404;0;2;0;2900;-2074;2065;65536;0.785735;0.6052631;-0.04570637;0.1191136;-2;1;0;-628;-3996;-912;8192;0.806878;0.4030471;-0.4099723;-0.1357341;1;0;-1;-2226;-2195;2585;32768;0.8082592;0.5692521;-0.132964;-0.07063711;0;1;-1;1143;-3653;-1279;256;-0.03185596;0.06232687;-0.5983379;-0.7981806;1;-1;1;-87;3916;-1199;128;0.101108;-0.03185596;0.6523545;0.7504638;1;-1;0;-461;4109;442;4;0.5209948;-0.4986149;0.5055401;0.4736842;0;0;1;9;4098;182;16;0.6315789;-0.7668904;-0.0401662;-0.1066482;0;3;0;317;3976;780;2;0.5501145;-0.4986149;-0.4750692;-0.4722992;0;-2;0;-145;4086;221;8;0.6481994;-0.7418368;0.04847645;0.1648199;0;-1;0;-551;3995;627;0.5066093;2.819263;-0.2815271;0.5125465;3.360313;-0.3511721;0.5177623;3.835638;-0.4143962;0.501056;4.539451;-0.2074402;0.234753;4.856882;-0.1520443;-0.102841;4.696485;-0.1310114;-0.9036251;5.161658;-0.1572353;-1.005885;6.073194;-0.3948146;0.7549503;4.869233;-0.1520443;1.047404;4.723794;-0.1310113;1.739085;5.240208;-0.5589933;1.975045;6.094286;-0.8946415;0.1943481;2.776578;-0.2833104;0.1172022;1.315628;-0.2602163;0;0;0;0.1943481;2.776578;-0.2833104;0.1172022;1.315628;-0.2602163;0;0;0
1169343.0526;NotLabelled;NONE;16384;0.7353971;0.4570637;0.466759;0.1800554;-1;1;0;2804;-2066;2077;65536;0.785735;0.6052631;-0.04570637;0.1191136;-1;1;0;-496;-3892;-1040;8192;0.806878;0.4030471;-0.4099723;-0.1357341;1;0;0;-2244;-2239;2585;32768;0.8082592;0.5692521;-0.132964;-0.07063711;-1;0;-1;975;-3669;-1315;256;-0.03185596;0.06232687;-0.5983379;-0.7981806;0;0;0;-141;3934;-1267;128;0.101108;-0.03185596;0.6523545;0.7504638;1;-1;0;-449;4075;502;4;0.5209948;-0.4986149;0.5055401;0.4736842;0;0;0;-23;4052;224;16;0.6315789;-0.7666965;-0.0401662;-0.1080332;0;0;0;355;3990;844;2;0.5513075;-0.4986149;-0.4736842;-0.4722992;2;0;0;-167;4128;209;8;0.6481994;-0.7418368;0.04847645;0.1648199;0;0;0;-601;4057;591;0.5066093;2.819263;-0.2815271;0.5125465;3.360313;-0.3511721;0.5177623;3.835638;-0.4143962;0.501056;4.539451;-0.2074402;0.234753;4.856882;-0.1520443;-0.102841;4.696485;-0.1310114;-0.9036284;5.161658;-0.1571333;-1.005888;6.073194;-0.3947126;0.7549503;4.869233;-0.1520443;1.047404;4.723794;-0.1310113;1.73903;5.240209;-0.5590817;1.97499;6.094286;-0.8947299;0.1943481;2.776578;-0.2833104;0.1172022;1.315628;-0.2602163;0;0;0;0.1943481;2.776578;-0.2833104;0.1172022;1.315628;-0.2602163;0;0;0
1169364.1124;NotLabelled;NONE;16384;0.7345344;0.4584487;0.466759;0.1800554;0;1;0;2716;-2200;2025;65536;0.7867182;0.6038781;-0.04709141;0.1191136;0;0;-1;-490;-3940;-996;8192;0.806878;0.4030471;-0.4099723;-0.1357341;0;0;0;-2248;-2293;2537;32768;0.8082592;0.5692521;-0.132964;-0.07063711;-1;0;-1;923;-3701;-1321;256;-0.03185596;0.06232687;-0.5983379;-0.7981806;-1;0;0;-99;3932;-1227;128;0.101108;-0.03185596;0.6523545;0.7504638;0;0;0;-495;4107;524;4;0.5209948;-0.4986149;0.5055401;0.4736842;0;0;0;-89;4036;284;16;0.6315789;-0.7666965;-0.0401662;-0.1080332;0;0;0;299;3974;830;2;0.552491;-0.4986149;-0.4736842;-0.4709141;0;0;0;-97;4184;279;8;0.6481994;-0.7418368;0.04847645;0.1648199;0;1;0;-589;4019;563;0.5094962;2.819082;-0.2811201;0.5154334;3.360133;-0.350765;0.5206492;3.835457;-0.4139891;0.5039428;4.539271;-0.2070331;0.2376399;4.856701;-0.1516373;-0.09995415;4.696304;-0.1306044;-0.8998725;5.162964;-0.1568462;-1.002132;6.074498;-0.3944255;0.7578372;4.869052;-0.1516373;1.050291;4.723613;-0.1306043;1.741917;5.240028;-0.5586747;1.977877;6.094106;-0.8943229;0.197235;2.776398;-0.2829033;0.1200891;1.315448;-0.2598093;0;0;0;0.197235;2.776398;-0.2829033;0.1200891;1.315448;-0.2598093;0;0;0
1169384.045;NotLabelled;NONE;16384;0.7345344;0.4584487;0.466759;0.1800554;0;-1;0;2690;-2080;2011;65536;0.7856532;0.6052631;-0.04709141;0.1191136;0;-1;-1;-560;-3924;-966;8192;0.806878;0.4030471;-0.4099723;-0.1357341;3;0;0;-2136;-2241;2543;32768;0.8082592;0.5692521;-0.132964;-0.07063711;-1;1;0;1013;-3659;-1311;256;-0.03185596;0.06232687;-0.5983379;-0.7981806;-3;0;1;-111;3976;-1253;128;0.101108;-0.03047091;0.6523545;0.7505213;0;0;0;-483;4147;532;4;0.5209948;-0.4986149;0.5055401;0.4736842;0;0;0;-123;4086;274;16;0.6315789;-0.7666965;-0.0401662;-0.1080332;0;0;0;241;3986;818;2;0.552491;-0.4986149;-0.4736842;-0.4709141;0;0;0;-155;4066;193;8;0.6481994;-0.7418368;0.04847645;0.1648199;0;0;0;-601;4033;637;0.5094962;2.819082;-0.2811201;0.5154334;3.360133;-0.350765;0.5206492;3.835457;-0.4139891;0.5039428;4.539271;-0.2070331;0.2376399;4.856701;-0.1516373;-0.09995415;4.696304;-0.1306044;-0.8992689;5.164119;-0.1545587;-0.9994924;6.075029;-0.3953791;0.7578372;4.869052;-0.1516373;1.050291;4.723613;-0.1306043;1.741917;5.240028;-0.5586747;1.977877;6.094106;-0.8943229;0.197235;2.776398;-0.2829033;0.1200891;1.315448;-0.2598093;0;0;0;0.197235;2.776398;-0.2829033;0.1200891;1.315448;-0.2598093;0;0;0
1169425.1945;NotLabelled;NONE;16384;0.7345344;0.4584487;0.466759;0.1800554;0;1;0;2810;-2078;2077;65536;0.7856532;0.6052631;-0.04709141;0.1191136;0;0;-1;-504;-3956;-936;8192;0.8066437;0.4030471;-0.4099723;-0.1371191;3;1;0;-2280;-2133;2545;32768;0.8082592;0.5692521;-0.132964;-0.07063711;0;3;0;1081;-3639;-1337;256;-0.03185596;0.06232687;-0.599723;-0.7971405;-2;1;1;-93;3876;-1153;128;0.1024931;-0.03047091;0.6523545;0.7503334;0;-1;-1;-447;4031;460;4;0.5209948;-0.4986149;0.5055401;0.4736842;0;-1;1;-19;4052;198;16;0.6315789;-0.7666965;-0.0401662;-0.1080332;0;-1;0;351;3988;778;2;0.552491;-0.4986149;-0.4736842;-0.4709141;1;-1;0;-175;4106;209;8;0.6481994;-0.7418368;0.04847645;0.1648199;0;0;0;-545;3983;681;0.5094959;2.819082;-0.2811192;0.5154331;3.360135;-0.3507498;0.5206491;3.835461;-0.4139612;0.5039425;4.539274;-0.2070054;0.2376397;4.856705;-0.1516095;-0.09995425;4.696308;-0.1305766;-0.899269;5.164124;-0.1545309;-0.9994597;6.075878;-0.3921518;0.7578369;4.869056;-0.1516097;1.050291;4.723618;-0.1305766;1.741917;5.240032;-0.558647;1.977876;6.09411;-0.8942952;0.1972347;2.776398;-0.2829036;0.1200889;1.315449;-0.2598095;0;0;0;0.1972347;2.776398;-0.2829036;0.1200889;1.315449;-0.2598095;0;0;0
1169446.0873;NotLabelled;NONE;16384;0.7348726;0.4584487;0.466759;0.1786704;0;1;0;2698;-2034;2077;65536;0.7858619;0.6052631;-0.04709141;0.1177285;0;0;-1;-516;-4064;-922;8192;0.8073343;0.4016621;-0.4099723;-0.1371191;3;0;1;-2276;-2217;2627;32768;0.8082592;0.5692521;-0.132964;-0.07063711;-1;0;0;1095;-3725;-1333;256;-0.03185596;0.06232687;-0.599723;-0.7971405;0;0;1;-129;3854;-1215;128;0.1024931;-0.03047091;0.6523545;0.7503334;1;-1;-2;-503;4071;578;4;0.5223168;-0.4972299;0.5055401;0.4736842;0;-1;1;-43;3996;224;16;0.6315789;-0.7666965;-0.0401662;-0.1080332;0;1;0;341;3902;838;2;0.5512378;-0.5;-0.4736842;-0.4709141;0;-3;0;-93;4118;191;8;0.6481994;-0.7418368;0.04847645;0.1648199;0;0;0;-561;3997;607;0.5095081;2.819083;-0.2811358;0.5154448;3.360098;-0.3510597;0.5206603;3.83539;-0.4145289;0.5037684;4.53991;-0.2100078;0.2373851;4.857467;-0.1557312;-0.1001724;4.697062;-0.1341721;-0.8994864;5.164878;-0.1581454;-0.9996672;6.076632;-0.3957705;0.7575795;4.869942;-0.1557311;1.050066;4.724647;-0.1341714;1.742575;5.239786;-0.5623517;1.978549;6.093864;-0.8979902;0.1972468;2.776398;-0.2828953;0.1200998;1.315449;-0.2598044;0;0;0;0.1972468;2.776398;-0.2828953;0.1200998;1.315449;-0.2598044;0;0;0
1169487.0634;NotLabelled;NONE;16384;0.7348726;0.4584487;0.466759;0.1786704;0;2;0;2792;-2052;2141;65536;0.7868426;0.6038781;-0.04847645;0.1177285;-1;1;-1;-542;-3994;-992;8192;0.8080219;0.400277;-0.4099723;-0.1371191;2;0;0;-2300;-2177;2615;32768;0.8082592;0.5692521;-0.132964;-0.07063711;-2;0;0;1047;-3627;-1393;256;-0.033241;0.06094183;-0.599723;-0.797191;-2;0;2;-105;3916;-1235;128;0.1024931;-0.03047091;0.6523545;0.7503334;0;0;-1;-459;4103;544;4;0.5223168;-0.4972299;0.5055401;0.4736842;0;1;0;-37;4084;196;16;0.6301939;-0.7678353;-0.0401662;-0.1080332;0;3;0;303;4012;868;2;0.5512378;-0.5;-0.4736842;-0.4709141;1;1;0;-155;4024;249;8;0.6481994;-0.7415278;0.04847645;0.166205;0;0;0;-589;4069;597;0.513902;2.818895;-0.2776714;0.5198388;3.35991;-0.3475954;0.5250543;3.835202;-0.4110645;0.5081623;4.539722;-0.2065434;0.2417791;4.857278;-0.1522668;-0.09577842;4.696875;-0.1307078;-0.8942177;5.166175;-0.1548163;-0.9928063;6.078044;-0.3926628;0.7619735;4.869753;-0.1522667;1.05446;4.724459;-0.130707;1.746855;5.237973;-0.5610189;1.982829;6.092051;-0.8966575;0.2016408;2.77621;-0.279431;0.1200998;1.315449;-0.2598044;0;0;0;0.2016408;2.77621;-0.279431;0.1200998;1.315449;-0.2598044;0;0;0
1169528.2076;NotLabelled;NONE;16384;0.7357348;0.4570637;0.466759;0.1786704;0;1;1;2668;-2066;2103;65536;0.7868426;0.6038781;-0.04847645;0.1177285;-2;0;-1;-502;-3918;-1012;8192;0.8077857;0.400277;-0.4099723;-0.1385041;2;0;0;-2350;-2199;2585;32768;0.809233;0.567867;-0.132964;-0.07063711;0;0;-2;1021;-3619;-1457;256;-0.033241;0.06094183;-0.599723;-0.797191;-1;1;1;-79;3864;-1181;128;0.1024931;-0.02908587;0.6523545;0.7503884;0;0;-1;-495;4113;550;4;0.5209948;-0.4986149;0.5055401;0.4736842;0;0;0;-91;4084;192;16;0.6301939;-0.7678353;-0.0401662;-0.1080332;0;0;0;305;3950;766;2;0.5512378;-0.5;-0.4736842;-0.4709141;0;0;0;-221;4114;253;8;0.6481994;-0.7418368;0.04847645;0.1648199;0;0;0;-547;4031;635;0.5138891;2.817968;-0.282286;0.5198259;3.358983;-0.35221;0.5250413;3.834275;-0.4156792;0.5108781;4.538899;-0.2113079;0.2457266;4.857496;-0.1571;-0.09244974;4.698406;-0.1355084;-0.8908758;5.167706;-0.1600618;-0.9872942;6.078944;-0.4011956;0.7659655;4.867956;-0.1571002;1.057887;4.721534;-0.1355081;1.7504;5.233416;-0.5675703;1.986561;6.087493;-0.9030772;0.2016279;2.775283;-0.2840455;0.1200761;1.314522;-0.2644643;0;0;0;0.2016279;2.775283;-0.2840455;0.1200761;1.314522;-0.2644643;0;0;0
1169549.19;NotLabelled;NONE;16384;0.7357348;0.4570637;0.466759;0.1786704;0;0;0;2758;-2084;2095;65536;0.7868426;0.6038781;-0.04847645;0.1177285;-2;0;-3;-538;-3918;-1042;8192;0.8077857;0.400277;-0.4099723;-0.1385041;3;0;0;-2322;-2131;2629;32768;0.809233;0.567867;-0.132964;-0.07063711;0;2;-2;930;-3664;-1374;256;-0.033241;0.06094183;-0.599723;-0.797191;0;1;1;-121;3916;-1155;128;0.1024931;-0.02908587;0.6523545;0.7503884;0;0;-1;-529;4095;466;4;0.5209948;-0.4986149;0.5055401;0.4736842;0;0;0;-87;4124;214;16;0.6301939;-0.7678353;-0.0401662;-0.1080332;0;1;0;245;3962;752;2;0.5512378;-0.5;-0.4736842;-0.4709141;0;-1;0;-143;4032;241;8;0.6481994;-0.7418368;0.04847645;0.1648199;0;0;0;-555;3983;629;0.509497;2.818156;-0.2857515;0.5154337;3.359173;-0.3556606;0.5206492;3.834467;-0.4191166;0.5064859;4.539091;-0.2147453;0.2413345;4.857687;-0.1605375;-0.09684189;4.698597;-0.1389458;-0.8958729;5.16674;-0.165787;-0.9922915;6.077979;-0.4069211;0.7615733;4.868147;-0.1605377;1.053495;4.721725;-0.1389458;1.746872;5.232332;-0.5711318;1.982684;6.085336;-0.9096035;0.1972357;2.775471;-0.2875122;0.120076;1.314522;-0.2644643;0;0;0;0.1972357;2.775471;-0.2875122;0.120076;1.314522;-0.2644643;0;0;0
1169591.0491;NotLabelled;NONE;16384;0.7351897;0.4570637;0.468144;0.1772853;0;2;0;2736;-2078;2115;65536;0.7880229;0.602493;-0.04986149;0.1163435;0;-1;-1;-490;-3986;-988;8192;0.8084705;0.398892;-0.4099723;-0.1385041;1;-1;2;-2310;-2195;2595;32768;0.8091109;0.567867;-0.132964;-0.07202215;-1;-2;-1;1102;-3639;-1413;256;-0.03462604;0.05955679;-0.599723;-0.7972367;0;0;2;-131;3936;-1231;128;0.1024931;-0.02908587;0.6523545;0.7503884;1;-3;-2;-509;4083;498;4;0.5223168;-0.4972299;0.5055401;0.4736842;0;-2;1;-55;4090;162;16;0.6301939;-0.7678353;-0.0401662;-0.1080332;0;0;0;299;4002;842;2;0.5512378;-0.5;-0.4736842;-0.4709141;0;0;0;-169;4166;295;8;0.6481994;-0.7418368;0.04847645;0.1648199;0;0;0;-607;4025;623;0.509497;2.818156;-0.2857515;0.5154337;3.359173;-0.3556606;0.5206492;3.834467;-0.4191166;0.5064859;4.539091;-0.2147453;0.2413345;4.857687;-0.1605375;-0.09684189;4.698597;-0.1389458;-0.8958731;5.16674;-0.1657861;-0.9922915;6.077978;-0.40692;0.7615733;4.868147;-0.1605377;1.053495;4.721725;-0.1389458;1.746872;5.232331;-0.571133;1.982683;6.085335;-0.9096044;0.1972357;2.775471;-0.2875122;0.120076;1.314522;-0.2644643;0;0;0;0.1972357;2.775471;-0.2875122;0.120076;1.314522;-0.2644643;0;0;0
1169632.2013;NotLabelled;NONE;16384;0.7351897;0.4570637;0.468144;0.1772853;0;0;1;2744;-2036;2099;65536;0.7880229;0.602493;-0.04986149;0.1163435;0;-2;-1;-490;-4018;-1028;8192;0.8077666;0.398892;-0.4113573;-0.1385041;1;-1;3;-2240;-2159;2625;32768;0.8091109;0.567867;-0.132964;-0.07202215;0;0;0;1036;-3661;-1423;256;-0.03462604;0.05955679;-0.599723;-0.7972367;-1;0;2;-129;3882;-1179;128;0.1024931;-0.02770083;0.6523545;0.7504408;1;-3;-1;-469;4041;588;4;0.5223168;-0.4972299;0.5055401;0.4736842;0;-1;0;-71;4078;264;16;0.6301939;-0.7678353;-0.0401662;-0.1080332;0;0;0;339;3952;804;2;0.5512378;-0.5;-0.4736842;-0.4709141;1;0;0;-235;4070;159;8;0.6481994;-0.7418368;0.04847645;0.1648199;0;-1;0;-571;4011;617;0.5140473;2.817968;-0.2821722;0.519984;3.358985;-0.3520811;0.5251996;3.834279;-0.4155371;0.5137647;4.538996;-0.2113181;0.2498492;4.85863;-0.1571803;-0.08894089;4.700855;-0.1355559;-0.8878711;5.169279;-0.1604299;-0.9805234;6.079977;-0.4050535;0.7701246;4.867075;-0.1571803;1.061477;4.719528;-0.1355554;1.754969;5.228497;-0.5694841;1.992415;6.081021;-0.9080236;0.201786;2.775283;-0.283933;0.1202234;1.314522;-0.2643973;0;0;0;0.201786;2.775283;-0.283933;0.1202234;1.314522;-0.2643973;0;0;0
1169652.0435;NotLabelled;NONE;16384;0.7360698;0.4570637;0.466759;0.1772853;0;0;0;2734;-2122;2185;65536;0.7879341;0.602493;-0.05124654;0.1163435;-1;0;-2;-588;-3932;-1006;8192;0.8077666;0.398892;-0.4113573;-0.1385041;2;0;1;-2242;-2129;2599;32768;0.8091109;0.567867;-0.132964;-0.07202215;0;1;-1;990;-3715;-1367;256;-0.03462604;0.05955679;-0.601108;-0.7961929;-3;1;2;-135;3944;-1235;128;0.1024931;-0.02770083;0.6523545;0.7504408;0;-3;-2;-505;4153;606;4;0.5223168;-0.4972299;0.5055401;0.4736842;0;-1;0;-121;4022;206;16;0.6301939;-0.7678353;-0.0401662;-0.1080332;0;0;0;331;3954;780;2;0.5512378;-0.5;-0.4736842;-0.4709141;0;0;0;-195;4074;239;8;0.6481994;-0.7415278;0.04847645;0.166205;0;-2;0;-653;4041;639;0.5140473;2.817968;-0.282171;0.519984;3.358987;-0.352065;0.5251995;3.834282;-0.4155078;0.5137648;4.539;-0.2112889;0.2498493;4.858633;-0.1571511;-0.08894095;4.700859;-0.1355266;-0.8878711;5.169282;-0.1604016;-0.9805231;6.07998;-0.4050254;0.7701246;4.867078;-0.1571511;1.061477;4.719532;-0.1355261;1.756856;5.227589;-0.5674992;1.994301;6.080112;-0.9060385;0.201786;2.775283;-0.283933;0.1202233;1.314522;-0.2643974;0;0;0;0.201786;2.775283;-0.283933;0.1202233;1.314522;-0.2643974;0;0;0
1169672.2197;NotLabelled;NONE;16384;0.7360698;0.4570637;0.466759;0.1772853;0;1;0;2760;-2124;2177;65536;0.7879341;0.602493;-0.05124654;0.1163435;-2;2;-3;-538;-3940;-1030;8192;0.8082106;0.3975069;-0.4113573;-0.1398892;2;2;1;-2294;-2179;2641;32768;0.8091109;0.567867;-0.132964;-0.07202215;0;2;-2;1102;-3689;-1399;256;-0.03462604;0.05955679;-0.601108;-0.7961929;0;0;2;-61;3916;-1085;128;0.1024931;-0.02631579;0.6523545;0.7504907;-1;-2;-2;-519;4127;550;4;0.5210574;-0.4972299;0.5055401;0.4750692;0;-2;0;-3;4066;268;16;0.6301939;-0.7678353;-0.0401662;-0.1080332;0;0;0;307;3992;854;2;0.5512378;-0.5;-0.4736842;-0.4709141;0;-2;0;-215;4124;217;8;0.6481994;-0.7415278;0.04847645;0.166205;0;-1;0;-623;4105;627;0.5140552;2.817968;-0.2821653;0.519992;3.358987;-0.3520593;0.5252074;3.834282;-0.4155022;0.513594;4.5397;-0.2137237;0.2495996;4.859456;-0.160707;-0.08915429;4.701676;-0.1385555;-0.887295;5.1713;-0.1660052;-0.9778637;6.082203;-0.4106492;0.769873;4.868024;-0.1607072;1.061259;4.720622;-0.1385557;1.756662;5.22868;-0.5704904;1.994117;6.081204;-0.9090235;0.201794;2.775283;-0.2839274;0.1202307;1.314522;-0.264394;0;0;0;0.201794;2.775283;-0.2839274;0.1202307;1.314522;-0.264394;0;0;0
1169693.0581;NotLabelled;NONE;16384;0.7360698;0.4570637;0.466759;0.1772853;0;3;0;2794;-2036;2157;65536;0.7881374;0.602493;-0.05124654;0.1149584;-2;1;-2;-504;-3986;-1010;8192;0.8082106;0.3975069;-0.4113573;-0.1398892;2;2;0;-2346;-2101;2653;32768;0.8087575;0.567867;-0.134349;-0.0734072;0;1;-3;1124;-3655;-1391;256;-0.03462604;0.05955679;-0.601108;-0.7961929;1;0;1;-95;3920;-1155;128;0.1024931;-0.02631579;0.6523545;0.7504907;-1;-1;-1;-451;4043;582;4;0.5210574;-0.4972299;0.5055401;0.4750692;0;-3;0;-37;4100;176;16;0.6301939;-0.7678353;-0.0401662;-0.1080332;0;1;0;293;4018;894;2;0.552425;-0.5;-0.4722992;-0.4709141;0;-2;0;-219;4100;183;8;0.6481994;-0.7415278;0.04847645;0.166205;0;-2;0;-583;3999;647;0.5102131;2.818184;-0.281636;0.5161497;3.359205;-0.3515143;0.5213652;3.834502;-0.4149434;0.5097518;4.53992;-0.2131652;0.2457575;4.859675;-0.1601486;-0.09299655;4.701897;-0.1379971;-0.891138;5.171521;-0.1654249;-0.9817067;6.082423;-0.4100698;0.7660308;4.868244;-0.1601488;1.057417;4.720841;-0.1379971;1.753537;5.22598;-0.5721952;1.990992;6.078504;-0.9107283;0.1979517;2.775499;-0.2833993;0.1202306;1.314521;-0.2643948;0;0;0;0.1979517;2.775499;-0.2833993;0.1202306;1.314521;-0.2643948;0;0;0
1169714.1057;NotLabelled;NONE;16384;0.7372599;0.4556787;0.466759;0.1759003;0;0;1;2704;-2088;2165;65536;0.7881374;0.602493;-0.05124654;0.1149584;-1;0;-2;-490;-3926;-1140;8192;0.8079697;0.3975069;-0.4113573;-0.1412742;1;0;1;-2326;-2161;2621;32768;0.8087575;0.567867;-0.134349;-0.0734072;0;0;-1;1156;-3695;-1361;256;-0.03462604;0.05817174;-0.599723;-0.797339;1;0;1;-93;3910;-1167;128;0.1024931;-0.02631579;0.6523545;0.7504907;-2;0;0;-481;4067;576;4;0.5210574;-0.4972299;0.5055401;0.4750692;0;0;0;41;4080;188;16;0.6301939;-0.7678353;-0.0401662;-0.1080332;0;2;0;279;4014;812;2;0.552425;-0.5;-0.4722992;-0.4709141;1;-2;0;-223;4098;147;8;0.6481994;-0.7415278;0.04847645;0.166205;0;-2;0;-609;4031;615;0.5102131;2.818184;-0.281636;0.5161497;3.359205;-0.3515143;0.5213652;3.834502;-0.4149434;0.5097518;4.53992;-0.2131652;0.2457575;4.859675;-0.1601486;-0.09299655;4.701897;-0.1379971;-0.8911381;5.171521;-0.1654244;-0.9801209;6.082521;-0.4102877;0.7660308;4.868244;-0.1601488;1.057417;4.720841;-0.1379971;1.753537;5.225979;-0.5721955;1.994579;6.077581;-0.9105147;0.1979517;2.775499;-0.2833993;0.1202306;1.314521;-0.2643948;0;0;0;0.1979517;2.775499;-0.2833993;0.1202306;1.314521;-0.2643948;0;0;0
1169735.057;NotLabelled;NONE;16384;0.7372599;0.4556787;0.466759;0.1759003;0;0;1;2710;-2140;2153;65536;0.7891942;0.601108;-0.05124654;0.1149584;-1;0;-1;-490;-3902;-1114;8192;0.8079697;0.3975069;-0.4113573;-0.1412742;2;1;2;-2310;-2173;2605;32768;0.8087575;0.567867;-0.134349;-0.0734072;0;0;-1;1078;-3679;-1427;256;-0.03462604;0.05817174;-0.599723;-0.797339;1;0;1;-63;3894;-1209;128;0.1024931;-0.02631579;0.6523545;0.7504907;-1;0;0;-439;4055;546;4;0.5210574;-0.4972299;0.5055401;0.4750692;0;0;-1;15;4102;174;16;0.6315789;-0.7666227;-0.04155125;-0.1080332;0;2;0;315;3956;810;2;0.552425;-0.5;-0.4722992;-0.4709141;1;-2;0;-167;4042;241;8;0.6481994;-0.7415278;0.04847645;0.166205;0;-2;0;-555;3989;565;0.5108342;2.818184;-0.2812009;0.5167708;3.359205;-0.3510793;0.5219865;3.834502;-0.4145084;0.5117275;4.53924;-0.2102948;0.2483455;4.859313;-0.1561595;-0.09070741;4.702105;-0.1345339;-0.888512;5.172041;-0.1661107;-0.9769576;6.08304;-0.4111689;0.7686344;4.86689;-0.1561595;1.05974;4.718857;-0.1345333;1.757664;5.222713;-0.5673247;1.999447;6.074314;-0.9051145;0.1985728;2.775499;-0.2829643;0.1208102;1.314521;-0.2641303;0;0;0;0.1985728;2.775499;-0.2829643;0.1208102;1.314521;-0.2641303;0;0;0
1169756.0397;NotLabelled;NONE;16384;0.7372599;0.4556787;0.466759;0.1759003;0;1;1;2740;-2072;2181;65536;0.7893947;0.601108;-0.05124654;0.1135734;-1;2;-2;-450;-3892;-1056;8192;0.8079697;0.3975069;-0.4113573;-0.1412742;1;1;2;-2300;-2117;2613;32768;0.8087575;0.567867;-0.134349;-0.0734072;0;1;-1;1088;-3715;-1369;256;-0.03462604;0.05817174;-0.599723;-0.797339;0;-1;1;-75;3872;-1265;128;0.1024931;-0.02631579;0.6523545;0.7504907;0;-2;-1;-507;4091;516;4;0.5210574;-0.4972299;0.5055401;0.4750692;0;0;0;-79;4068;224;16;0.6301939;-0.7677616;-0.04155125;-0.1080332;0;1;1;345;3976;876;2;0.5511683;-0.501385;-0.4722992;-0.4709141;1;-2;0;-227;4084;247;8;0.6481994;-0.7414359;0.04986149;0.166205;-1;-3;0;-633;4089;539;0.5086343;2.819389;-0.2761544;0.514571;3.360409;-0.3460327;0.5197867;3.835706;-0.4094618;0.5095277;4.540444;-0.2052483;0.2461457;4.860518;-0.151113;-0.09290724;4.703309;-0.1294874;-0.8907118;5.173245;-0.1610642;-0.9791805;6.08338;-0.4093069;0.7664347;4.868094;-0.151113;1.057541;4.720061;-0.1294868;1.755464;5.223917;-0.5622782;1.997247;6.075519;-0.900068;0.1963729;2.776704;-0.2779178;0.1186104;1.315726;-0.2590837;0;0;0;0.1963729;2.776704;-0.2779178;0.1186104;1.315726;-0.2590837;0;0;0
1169776.5332;NotLabelled;NONE;16384;0.7372599;0.4556787;0.466759;0.1759003;0;0;0;2660;-2116;2149;65536;0.7893036;0.601108;-0.05263158;0.1135734;-1;1;-3;-418;-3866;-1134;8192;0.8070194;0.3975069;-0.4127424;-0.1426593;1;2;2;-2418;-2163;2691;32768;0.8087575;0.567867;-0.134349;-0.0734072;0;0;-2;1047;-3748;-1469;256;-0.03462604;0.05817174;-0.599723;-0.797339;-1;0;1;-61;3970;-1171;128;0.101108;-0.02493075;0.6523545;0.7507258;0;0;-1;-503;4137;600;4;0.5210574;-0.4972299;0.5055401;0.4750692;0;-2;1;-81;4086;200;16;0.6315789;-0.7666227;-0.04155125;-0.1080332;0;-1;0;333;4050;768;2;0.5511683;-0.501385;-0.4722992;-0.4709141;0;-2;0;-277;4126;231;8;0.6481994;-0.7411241;0.04986149;0.16759;0;-2;0;-615;4065;667;0.5084842;2.818462;-0.2808824;0.5144209;3.359483;-0.3507607;0.5196366;3.83478;-0.4141898;0.5093777;4.539518;-0.2099762;0.2459957;4.859591;-0.155841;-0.09305728;4.702383;-0.1342153;-0.8908619;5.172319;-0.1657922;-0.9777482;6.082547;-0.4142494;0.7662846;4.867168;-0.1558409;1.05739;4.719135;-0.1342147;1.755314;5.222991;-0.5670062;1.997097;6.074592;-0.9047959;0.1962229;2.775777;-0.2826458;0.1184603;1.314799;-0.2638116;0;0;0;0.1962229;2.775777;-0.2826458;0.1184603;1.314799;-0.2638116;0;0;0
1169797.0391;NotLabelled;NONE;16384;0.7375889;0.4556787;0.466759;0.1745152;0;1;0;2760;-2120;2127;65536;0.7893036;0.601108;-0.05263158;0.1135734;0;3;-2;-468;-3946;-1094;8192;0.8077002;0.3961219;-0.4127424;-0.1426593;1;0;1;-2394;-2195;2623;32768;0.8086306;0.567867;-0.134349;-0.07479224;0;0;-3;1149;-3698;-1395;256;-0.03462604;0.0567867;-0.599723;-0.7974388;-1;0;1;-107;4006;-1229;128;0.101108;-0.02493075;0.6523545;0.7507258;0;-1;-1;-477;4149;520;4;0.5210574;-0.4972299;0.5055401;0.4750692;0;-2;1;-35;4066;170;16;0.6315789;-0.7666227;-0.04155125;-0.1080332;0;0;0;249;3960;742;2;0.5523521;-0.501385;-0.4709141;-0.4709141;0;-2;-1;-191;4128;191;8;0.6468144;-0.7423332;0.04986149;0.16759;-1;-2;0;-525;4027;583;0.508634;2.819388;-0.2761287;0.5145713;3.360448;-0.3456993;0.5197872;3.835782;-0.4088579;0.5095283;4.540519;-0.2046445;0.2461463;4.860592;-0.1505093;-0.09290665;4.703383;-0.1288835;-0.8907107;5.17332;-0.1604727;-0.9755161;6.083743;-0.4089368;0.7664353;4.86817;-0.1505093;1.057541;4.720137;-0.1288831;1.758198;5.221785;-0.5598167;1.999982;6.073386;-0.8976066;0.1963727;2.776704;-0.2779182;0.1186102;1.315726;-0.259084;0;0;0;0.1963727;2.776704;-0.2779182;0.1186102;1.315726;-0.259084;0;0;0
1169818.0576;NotLabelled;NONE;16384;0.7375889;0.4556787;0.466759;0.1745152;0;0;0;2722;-2086;2185;65536;0.7895016;0.601108;-0.05263158;0.1121884;0;0;-1;-436;-4028;-1148;8192;0.8077002;0.3961219;-0.4127424;-0.1426593;0;0;2;-2312;-2179;2661;32768;0.8083993;0.567867;-0.1357341;-0.07479224;1;0;0;1209;-3796;-1481;256;-0.03462604;0.0567867;-0.599723;-0.7974388;-2;-1;1;-47;3982;-1239;128;0.101108;-0.02493075;0.6523545;0.7507258;0;-4;0;-455;4107;536;4;0.5210574;-0.4972299;0.5055401;0.4750692;0;-3;1;-109;4070;194;16;0.6315789;-0.7666227;-0.04155125;-0.1080332;0;-1;0;369;3946;830;2;0.5523521;-0.501385;-0.4709141;-0.4709141;1;-3;-1;-165;4072;193;8;0.6468144;-0.7422389;0.05124654;0.16759;0;-2;0;-595;4087;641;0.5092506;2.819387;-0.2756918;0.5151877;3.360448;-0.3452624;0.5204036;3.835781;-0.408421;0.5113205;4.540535;-0.2042123;0.248473;4.861049;-0.150079;-0.09084171;4.704406;-0.1284521;-0.8876221;5.175817;-0.1636841;-0.9718759;6.08624;-0.4123359;0.7687737;4.867758;-0.1500795;1.059632;4.71924;-0.1284524;1.762069;5.219246;-0.5583949;2.006047;6.070359;-0.8958398;0.1969893;2.776704;-0.2774816;0.1191851;1.315725;-0.25882;0;0;0;0.1969893;2.776704;-0.2774816;0.1191851;1.315725;-0.25882;0;0;0
1169839.0604;NotLabelled;NONE;16384;0.7367106;0.4556787;0.468144;0.1745152;-1;0;0;2796;-2064;2133;65536;0.7895016;0.601108;-0.05263158;0.1121884;1;0;0;-422;-4016;-1130;8192;0.8069909;0.3961219;-0.4141274;-0.1426593;0;0;1;-2394;-2221;2595;32768;0.8083993;0.567867;-0.1357341;-0.07479224;1;0;0;1241;-3776;-1429;256;-0.03462604;0.0567867;-0.599723;-0.7974388;-2;-1;0;-119;3952;-1195;128;0.101108;-0.0235457;0.6523545;0.7507705;0;-4;-1;-431;4093;574;4;0.5223756;-0.4958449;0.5055401;0.4750692;0;-6;1;-29;4046;212;16;0.6315789;-0.7666227;-0.04155125;-0.1080332;0;-1;0;329;4040;856;2;0.55353;-0.501385;-0.4709141;-0.4695291;0;-3;0;-135;4144;219;8;0.6468144;-0.7422389;0.05124654;0.16759;0;-4;0;-545;4171;651;0.5092509;2.819387;-0.2756919;0.515188;3.360448;-0.3452624;0.5204039;3.835781;-0.408421;0.5113207;4.540535;-0.2042123;0.2484731;4.861049;-0.1500793;-0.09084168;4.704406;-0.1284526;-0.8876982;5.175817;-0.1619166;-0.9703686;6.086329;-0.4107792;0.7687739;4.867758;-0.1500794;1.059632;4.71924;-0.128452;1.761113;5.219247;-0.559952;2.00723;6.069913;-0.8969667;0.1969895;2.776704;-0.2774815;0.1191854;1.315725;-0.25882;0;0;0;0.1969895;2.776704;-0.2774815;0.1191854;1.315725;-0.25882;0;0;0
1169859.298;NotLabelled;NONE;16384;0.7358522;0.4570637;0.468144;0.1745152;-1;0;0;2726;-2114;2149;65536;0.7896972;0.601108;-0.05263158;0.1108033;1;2;0;-518;-3918;-1028;8192;0.8077002;0.3961219;-0.4127424;-0.1426593;0;0;0;-2460;-2045;2723;32768;0.8083993;0.567867;-0.1357341;-0.07479224;1;0;-1;1209;-3726;-1369;256;-0.03462604;0.0567867;-0.599723;-0.7974388;-1;-1;0;-87;3916;-1157;128;0.09972299;-0.0235457;0.6523545;0.7509557;0;-2;0;-493;4117;610;4;0.5211126;-0.4958449;0.5055401;0.4764543;0;-1;0;31;4142;226;16;0.6315789;-0.7666965;-0.0401662;-0.1080332;0;0;0;299;3960;848;2;0.5547053;-0.501385;-0.4695291;-0.4695291;0;-2;0;-169;4090;225;8;0.6468144;-0.7419248;0.05124654;0.1689751;0;-2;0;-601;3973;699;0.5136243;2.819189;-0.2722114;0.5195615;3.360251;-0.3417664;0.5247775;3.835586;-0.4049114;0.5156942;4.54034;-0.2007024;0.2528467;4.860854;-0.1465692;-0.08646797;4.70421;-0.1249425;-0.8841288;5.174433;-0.1558797;-0.966799;6.084944;-0.4047418;0.7731475;4.867563;-0.1465691;1.064006;4.719044;-0.124942;1.767358;5.218128;-0.5544611;2.013474;6.068796;-0.891475;0.201363;2.776505;-0.2740023;0.1191854;1.315726;-0.2588192;0;0;0;0.201363;2.776505;-0.2740023;0.1191854;1.315726;-0.2588192;0;0;0
1169881.043;NotLabelled;NONE;16384;0.7361792;0.4570637;0.468144;0.1731302;-2;3;0;2738;-2098;2157;65536;0.7897883;0.601108;-0.05124654;0.1108033;0;5;0;-392;-3984;-1014;8192;0.8067448;0.3961219;-0.4141274;-0.1440443;-1;0;0;-2358;-2061;2645;32768;0.8083993;0.567867;-0.1357341;-0.07479224;2;1;-2;1225;-3708;-1355;256;-0.03462604;0.05540166;-0.599723;-0.7975363;-1;-1;1;-57;3886;-1233;128;0.09972299;-0.02216066;0.6523545;0.7509979;0;-3;0;-499;4025;598;4;0.5210832;-0.4944598;0.5069252;0.4764543;0;0;0;23;4012;230;16;0.6315789;-0.7666227;-0.04155125;-0.1080332;0;0;0;279;3982;826;2;0.5534503;-0.5027701;-0.4695291;-0.4695291;0;-2;0;-171;4064;229;8;0.6468144;-0.7419248;0.05124654;0.1689751;0;0;0;-605;4035;681;0.5121354;2.819127;-0.2719887;0.5180731;3.360226;-0.3412556;0.5232894;3.835595;-0.4041475;0.5142064;4.540349;-0.1999384;0.251359;4.860862;-0.1458049;-0.0879557;4.70422;-0.124178;-0.8850139;5.175607;-0.152841;-0.9661012;6.086203;-0.4019139;0.7716596;4.867572;-0.1458054;1.062518;4.719053;-0.1241787;1.764004;5.219061;-0.5556703;2.01012;6.069728;-0.8926846;0.1998742;2.776444;-0.2738042;0.1215408;1.315449;-0.2591333;0;0;0;0.1998742;2.776444;-0.2738042;0.1215408;1.315449;-0.2591333;0;0;0
1169901.052;NotLabelled;NONE;16384;0.7361792;0.4570637;0.468144;0.1731302;-2;2;0;2636;-2034;2107;65536;0.7897883;0.601108;-0.05124654;0.1108033;0;3;1;-418;-3932;-1100;8192;0.8069909;0.3961219;-0.4141274;-0.1426593;-1;1;-1;-2292;-2153;2615;32768;0.8082699;0.567867;-0.1357341;-0.07617728;1;2;-1;1197;-3702;-1383;256;-0.03462604;0.05540166;-0.599723;-0.7975363;-1;-1;0;-73;3804;-1133;128;0.09972299;-0.02216066;0.6523545;0.7509979;0;-3;0;-535;4083;562;4;0.5210832;-0.4944598;0.5069252;0.4764543;0;-2;0;69;4032;166;16;0.6315789;-0.7666965;-0.0401662;-0.1080332;0;0;0;295;3994;840;2;0.5534503;-0.5027701;-0.4695291;-0.4695291;0;-1;0;-119;4136;225;8;0.6468144;-0.7419248;0.05124654;0.1689751;0;0;0;-611;3993;701;0.514341;2.81918;-0.2718424;0.5202786;3.360281;-0.3410935;0.525495;3.835652;-0.4039716;0.5175874;4.540422;-0.1997666;0.2552749;4.861373;-0.1456354;-0.08430079;4.705297;-0.1240078;-0.8804132;5.178162;-0.1545466;-0.9630292;6.088571;-0.4038013;0.7755861;4.867215;-0.1456352;1.066196;4.718212;-0.1240072;1.771344;5.216003;-0.5520796;2.018209;6.066671;-0.8885468;0.2020796;2.776497;-0.2736594;0.1197597;1.315726;-0.258554;0;0;0;0.2020796;2.776497;-0.2736594;0.1197597;1.315726;-0.258554;0;0;0
1169921.1922;NotLabelled;NONE;16384;0.7365036;0.4570637;0.468144;0.1717452;-2;0;0;2732;-2108;2123;65536;0.7900701;0.601108;-0.04986149;0.1094183;2;5;1;-388;-3816;-1108;8192;0.8063095;0.3975069;-0.4141274;-0.1426593;-1;2;-1;-2362;-2137;2611;32768;0.8072951;0.5692521;-0.1357341;-0.07617728;1;1;-2;1187;-3652;-1365;256;-0.03462604;0.05540166;-0.599723;-0.7975363;0;0;0;-41;3880;-1153;128;0.09833795;-0.02216066;0.6509695;0.752381;0;-2;0;-487;4025;580;4;0.5198134;-0.4944598;0.5069252;0.4778393;0;-2;0;-9;4082;168;16;0.6315789;-0.7666965;-0.0401662;-0.1080332;0;0;0;309;3964;854;2;0.5534503;-0.5027701;-0.4695291;-0.4695291;-1;0;0;-171;4072;263;8;0.6468144;-0.7419248;0.05124654;0.1689751;0;0;0;-653;3985;641;0.5166972;2.818903;-0.2721511;0.5226347;3.360004;-0.3414022;0.5278512;3.835375;-0.4042801;0.5199437;4.540145;-0.2000753;0.2576313;4.861096;-0.1459438;-0.08194414;4.70502;-0.1243162;-0.8780566;5.177885;-0.1548531;-0.9606724;6.088293;-0.4041076;0.7779425;4.866938;-0.1459441;1.068553;4.717935;-0.1243162;1.772855;5.217018;-0.5522745;2.021163;6.06719;-0.8889306;0.2044359;2.77622;-0.273968;0.122116;1.315449;-0.2588626;0;0;0;0.2044359;2.77622;-0.273968;0.122116;1.315449;-0.2588626;0;0;0
1169942.1715;NotLabelled;NONE;16384;0.7365036;0.4570637;0.468144;0.1717452;-2;0;0;2700;-2146;2021;65536;0.7890143;0.602493;-0.04986149;0.1094183;3;5;2;-280;-3904;-1026;8192;0.8063095;0.3975069;-0.4141274;-0.1426593;-1;0;-1;-2226;-2151;2573;32768;0.8069291;0.5692521;-0.1371191;-0.07756232;0;0;-1;1193;-3614;-1325;256;-0.03462604;0.05540166;-0.599723;-0.7975363;1;0;0;-65;3890;-1175;128;0.09833795;-0.02077562;0.6509695;0.7524205;0;-1;0;-559;4065;568;4;0.5198134;-0.4944598;0.5069252;0.4778393;0;0;0;5;4058;232;16;0.6315789;-0.7666965;-0.0401662;-0.1080332;0;0;0;301;3982;794;2;0.5534503;-0.5027701;-0.4695291;-0.4695291;0;1;0;-165;4094;167;8;0.6468144;-0.7419248;0.05124654;0.1689751;0;1;0;-597;4009;629;0.5128426;2.819112;-0.271451;0.5187835;3.360499;-0.33843;0.5240026;3.83613;-0.3993119;0.5160951;4.5409;-0.1951066;0.2537825;4.861851;-0.1409752;-0.0857931;4.705775;-0.1193479;-0.88102;5.180115;-0.1500746;-0.9641354;6.090423;-0.3995312;0.7740938;4.867692;-0.140975;1.064704;4.718688;-0.1193471;1.769165;5.219412;-0.5451248;2.017811;6.070654;-0.8788149;0.2005814;2.776437;-0.2734616;0.1221162;1.315449;-0.2588621;0;0;0;0.2005814;2.776437;-0.2734616;0.1221162;1.315449;-0.2588621;0;0;0
1169962.0374;NotLabelled;NONE;16384;0.7356423;0.4584487;0.468144;0.1717452;-2;0;0;2630;-2128;2085;65536;0.7892052;0.602493;-0.04986149;0.1080332;2;4;2;-334;-3912;-960;8192;0.8063095;0.3975069;-0.4141274;-0.1426593;-1;0;-1;-2268;-2151;2575;32768;0.807061;0.5692521;-0.1371191;-0.07617728;0;-2;0;1173;-3572;-1283;256;-0.03462604;0.05540166;-0.599723;-0.7975363;0;0;1;-31;3930;-1145;128;0.09833795;-0.02077562;0.6509695;0.7524205;-2;-1;0;-517;4047;554;4;0.5198134;-0.4944598;0.5069252;0.4778393;0;1;0;39;4048;244;16;0.6315789;-0.7666965;-0.0401662;-0.1080332;0;0;0;297;3984;814;2;0.5534503;-0.5027701;-0.4695291;-0.4695291;0;0;0;-213;4124;201;8;0.6468144;-0.7419248;0.05124654;0.1689751;0;0;0;-565;4045;613;0.5128423;2.819112;-0.2714515;0.5187831;3.360501;-0.3384142;0.5240023;3.836133;-0.3992818;0.5160949;4.540904;-0.1950768;0.2537825;4.861855;-0.1409453;-0.08579315;4.705779;-0.1193176;-0.8810228;5.18012;-0.1499701;-0.9641115;6.091295;-0.3962445;0.7740936;4.867696;-0.1409456;1.064704;4.718693;-0.1193177;1.769124;5.219416;-0.5451622;2.021351;6.069703;-0.8785999;0.2005811;2.776437;-0.2734632;0.1221159;1.315448;-0.2588629;0;0;0;0.2005811;2.776437;-0.2734632;0.1221159;1.315448;-0.2588629;0;0;0
1169982.0428;NotLabelled;NONE;16384;0.7356423;0.4584487;0.468144;0.1717452;-2;-1;0;2620;-2154;2089;65536;0.7892914;0.602493;-0.04847645;0.1080332;1;3;1;-316;-3888;-1010;8192;0.8063357;0.398892;-0.4127424;-0.1426593;0;0;-1;-2230;-2149;2581;32768;0.807061;0.5692521;-0.1371191;-0.07617728;0;-2;0;1039;-3668;-1253;256;-0.03462604;0.05540166;-0.599723;-0.7975363;0;0;0;25;3854;-1151;128;0.09833795;-0.02077562;0.6509695;0.7524205;-1;0;0;-513;4043;542;4;0.5198134;-0.4944598;0.5069252;0.4778393;0;1;0;53;4038;154;16;0.6315789;-0.7666965;-0.0401662;-0.1080332;0;0;0;285;3994;818;2;0.5534503;-0.5027701;-0.4695291;-0.4695291;0;0;0;-199;4160;201;8;0.6468144;-0.7419248;0.05124654;0.1689751;0;0;0;-539;4039;609;0.5128423;2.819112;-0.2714515;0.5187831;3.360501;-0.3384142;0.5240023;3.836133;-0.3992818;0.5160949;4.540904;-0.1950768;0.2537825;4.861855;-0.1409453;-0.08579315;4.705779;-0.1193176;-0.8804147;5.181279;-0.1476806;-0.9619181;6.092542;-0.3941627;0.7740936;4.867696;-0.1409456;1.064704;4.718693;-0.1193177;1.769124;5.219415;-0.5451626;2.019904;6.070205;-0.8784105;0.2005811;2.776437;-0.2734632;0.1221159;1.315448;-0.2588629;0;0;0;0.2005811;2.776437;-0.2734632;0.1221159;1.315448;-0.2588629;0;0;0
1170002.1424;NotLabelled;NONE;16384;0.7356423;0.4584487;0.468144;0.1717452;-2;-1;-1;2722;-2134;2063;65536;0.7892914;0.602493;-0.04847645;0.1080332;2;4;1;-438;-3952;-1036;8192;0.8063357;0.398892;-0.4127424;-0.1426593;-1;0;0;-2316;-2153;2625;32768;0.807061;0.5692521;-0.1371191;-0.07617728;-1;-3;-1;1119;-3770;-1311;256;-0.033241;0.05540166;-0.599723;-0.7975951;0;0;0;-75;3952;-1147;128;0.09833795;-0.02077562;0.6509695;0.7524205;0;0;0;-505;4069;566;4;0.5211605;-0.4944598;0.5055401;0.4778393;0;0;0;-9;4072;156;16;0.6315789;-0.7666965;-0.0401662;-0.1080332;0;0;0;291;4040;770;2;0.5534503;-0.5027701;-0.4695291;-0.4695291;0;0;1;-235;4074;257;8;0.6468144;-0.7419248;0.05124654;0.1689751;0;0;0;-569;4013;689;0.5128423;2.819112;-0.2714515;0.5187831;3.360501;-0.3384142;0.5240023;3.836133;-0.3992818;0.5160949;4.540904;-0.1950768;0.2537825;4.861855;-0.1409453;-0.08579315;4.705779;-0.1193176;-0.8804147;5.181279;-0.1476806;-0.9639975;6.092357;-0.3941506;0.7740936;4.867696;-0.1409456;1.064704;4.718693;-0.1193177;1.767379;5.221976;-0.5450258;2.018159;6.072766;-0.8782738;0.2005811;2.776437;-0.2734632;0.1221159;1.315448;-0.2588629;0;0;0;0.2005811;2.776437;-0.2734632;0.1221159;1.315448;-0.2588629;0;0;0
1170022.2381;NotLabelled;NONE;16384;0.7359642;0.4584487;0.468144;0.1703601;-1;0;-2;2674;-2244;1999;65536;0.7885048;0.6038781;-0.04709141;0.1066482;2;6;0;-508;-3828;-1018;8192;0.8063357;0.398892;-0.4127424;-0.1426593;-1;0;-2;-2350;-2161;2559;32768;0.8068244;0.5692521;-0.1385041;-0.07617728;-1;-4;-1;1199;-3668;-1255;256;-0.033241;0.05540166;-0.599723;-0.7975951;0;0;0;-105;3888;-1191;128;0.09833795;-0.02077562;0.6509695;0.7524205;-1;0;0;-489;4077;510;4;0.5211605;-0.4944598;0.5055401;0.4778393;0;0;0;-55;4090;180;16;0.6315789;-0.7666965;-0.0401662;-0.1080332;0;1;0;323;4014;840;2;0.5534503;-0.5027701;-0.4695291;-0.4695291;0;1;0;-235;4056;175;8;0.6468144;-0.7419248;0.05124654;0.1689751;0;0;0;-575;4031;639;0.5137106;2.819125;-0.2670327;0.5196514;3.360514;-0.3339955;0.5248707;3.836146;-0.394863;0.5154094;4.540855;-0.1905147;0.2523898;4.861216;-0.1363173;-0.08684066;4.704387;-0.1147206;-0.881414;5.179888;-0.144407;-0.9645861;6.090965;-0.3910156;0.7726869;4.868205;-0.1363175;1.063625;4.719839;-0.1147206;1.767009;5.223123;-0.5392578;2.018343;6.073912;-0.8720876;0.2014494;2.77645;-0.2690445;0.1225469;1.315449;-0.2586591;0;0;0;0.2014494;2.77645;-0.2690445;0.1225469;1.315449;-0.2586591;0;0;0
1170043.1665;NotLabelled;NONE;16384;0.7350997;0.4598338;0.468144;0.1703601;0;-3;-1;2704;-2138;2117;65536;0.7885048;0.6038781;-0.04709141;0.1066482;0;5;1;-244;-4102;-918;8192;0.8063357;0.398892;-0.4127424;-0.1426593;1;1;-1;-2232;-2181;2585;32768;0.806954;0.5692521;-0.1385041;-0.07479224;-1;0;1;1213;-3686;-1279;256;-0.033241;0.05540166;-0.599723;-0.7975951;-1;0;0;-79;3910;-1151;128;0.09833795;-0.02077562;0.6509695;0.7524205;-1;0;0;-505;4093;564;4;0.522427;-0.4944598;0.5055401;0.4764543;0;0;0;-19;4120;222;16;0.6315789;-0.7666965;-0.0401662;-0.1080332;0;0;0;311;4024;796;2;0.5534503;-0.5027701;-0.4695291;-0.4695291;0;0;0;-113;4104;201;8;0.6468144;-0.7419248;0.05124654;0.1689751;0;1;0;-579;4039;631;0.5137106;2.819125;-0.2670327;0.5196514;3.360514;-0.3339955;0.5248707;3.836146;-0.394863;0.5154094;4.540855;-0.1905147;0.2523898;4.861216;-0.1363173;-0.08684066;4.704387;-0.1147206;-0.8805255;5.181363;-0.1445212;-0.9641572;6.093205;-0.3881309;0.7726869;4.868205;-0.1363175;1.063625;4.719839;-0.1147206;1.767009;5.223123;-0.5392578;2.020476;6.073457;-0.8716335;0.2014494;2.77645;-0.2690445;0.1225469;1.315449;-0.2586591;0;0;0;0.2014494;2.77645;-0.2690445;0.1225469;1.315449;-0.2586591;0;0;0
1170064.099;NotLabelled;NONE;16384;0.7347773;0.4598338;0.468144;0.1717452;0;-3;-1;2762;-2140;2201;65536;0.7886909;0.6038781;-0.04709141;0.1052632;-1;3;3;-272;-4104;-928;8192;0.8070431;0.398892;-0.4113573;-0.1426593;1;3;-1;-2290;-2131;2655;32768;0.806954;0.5692521;-0.1385041;-0.07479224;-3;1;1;1167;-3734;-1327;256;-0.033241;0.05401662;-0.599723;-0.7976902;0;0;0;-67;3920;-1159;128;0.09833795;-0.02077562;0.6495845;0.7536166;-1;0;0;-521;4077;530;4;0.5198134;-0.4944598;0.5069252;0.4778393;0;-1;0;-69;4126;238;16;0.6315789;-0.7666965;-0.0401662;-0.1080332;0;-2;0;373;3984;832;2;0.5534503;-0.5027701;-0.4695291;-0.4695291;0;0;1;-183;4198;215;8;0.6468144;-0.7419248;0.05124654;0.1689751;0;1;0;-659;4029;647;0.5175565;2.818908;-0.26753;0.5234972;3.360297;-0.3344927;0.5287166;3.835929;-0.3953603;0.5192553;4.540639;-0.1910119;0.2562357;4.861;-0.1368145;-0.08299478;4.70417;-0.1152178;-0.8760682;5.182299;-0.1427222;-0.9597;6.094142;-0.3863315;0.7765327;4.867989;-0.1368147;1.067471;4.719622;-0.1152179;1.770855;5.222906;-0.539755;2.022874;6.073744;-0.8719437;0.2052953;2.776234;-0.2695417;0.1225469;1.315448;-0.2586591;0;0;0;0.2052953;2.776234;-0.2695417;0.1225469;1.315448;-0.2586591;0;0;0
1170085.0634;NotLabelled;NONE;16384;0.7347773;0.4598338;0.468144;0.1717452;0;-1;-1;2882;-2114;2185;65536;0.7887724;0.6038781;-0.04570637;0.1052632;-3;4;5;-368;-4096;-972;8192;0.8070431;0.398892;-0.4113573;-0.1426593;0;3;-3;-2328;-2131;2563;32768;0.8079293;0.567867;-0.1385041;-0.07479224;-3;-2;0;1177;-3720;-1375;256;-0.033241;0.05540166;-0.599723;-0.7975951;0;0;0;-125;3956;-1111;128;0.09833795;-0.02077562;0.6495845;0.7536166;-1;0;0;-545;4141;560;4;0.5198134;-0.4944598;0.5069252;0.4778393;0;-1;-1;3;3948;214;16;0.6315789;-0.7668904;-0.0401662;-0.1066482;0;-3;0;227;3990;836;2;0.5534503;-0.5027701;-0.4695291;-0.4695291;0;-1;1;-187;4108;177;8;0.6468144;-0.7419248;0.05124654;0.1689751;0;1;0;-561;3981;643;0.5139034;2.819104;-0.2705011;0.5198468;3.360735;-0.3354773;0.5250685;3.836588;-0.3945996;0.5167826;4.541313;-0.1902555;0.2542976;4.862113;-0.1360601;-0.08519395;4.705849;-0.1144626;-0.8790936;5.182503;-0.1436811;-0.9605957;6.094434;-0.3876776;0.7746055;4.868233;-0.1360603;1.065296;4.719382;-0.1144626;1.767798;5.223591;-0.5393624;2.020553;6.074428;-0.8709908;0.2016423;2.776437;-0.2726819;0.1231209;1.315448;-0.2583864;0;0;0;0.2016423;2.776437;-0.2726819;0.1231209;1.315448;-0.2583864;0;0;0
1170106.0493;NotLabelled;NONE;16384;0.7347773;0.4598338;0.468144;0.1717452;0;0;0;2788;-2182;2163;65536;0.7887724;0.6038781;-0.04570637;0.1052632;-2;3;5;-368;-4028;-1082;8192;0.8070431;0.398892;-0.4113573;-0.1426593;0;0;-4;-2464;-2125;2625;32768;0.8079293;0.567867;-0.1385041;-0.07479224;-4;-3;-1;1215;-3684;-1281;256;-0.033241;0.05401662;-0.599723;-0.7976902;1;0;0;-33;3922;-1139;128;0.09833795;-0.02077562;0.6495845;0.7536166;-2;2;0;-481;4089;520;4;0.5198134;-0.4944598;0.5069252;0.4778393;0;0;0;45;4006;140;16;0.6315789;-0.7668904;-0.0401662;-0.1066482;0;0;0;285;3986;730;2;0.5534503;-0.5027701;-0.4695291;-0.4695291;0;-1;1;-277;4092;299;8;0.6468144;-0.7419248;0.05124654;0.1689751;0;0;0;-527;3959;689;0.5104147;2.819284;-0.2713823;0.5163581;3.360916;-0.3363584;0.5215798;3.836768;-0.3954808;0.5121186;4.541477;-0.1911323;0.249099;4.861838;-0.136935;-0.09013144;4.705009;-0.1153384;-0.8840966;5.181662;-0.1427283;-0.9682177;6.09341;-0.3865203;0.7693961;4.868826;-0.1369352;1.060334;4.72046;-0.1153384;1.761855;5.224669;-0.5418549;2.01355;6.074439;-0.8770108;0.1981535;2.776617;-0.2735631;0.1196641;1.315628;-0.2590934;0;0;0;0.1981535;2.776617;-0.2735631;0.1196641;1.315628;-0.2590934;0;0;0
1170126.0406;NotLabelled;NONE;16384;0.7347773;0.4598338;0.468144;0.1717452;0;0;0;2700;-2166;2099;65536;0.7899098;0.602493;-0.04432133;0.1052632;-3;2;4;-538;-3944;-1060;8192;0.8070622;0.400277;-0.4099723;-0.1426593;0;1;-5;-2190;-2205;2633;32768;0.8079293;0.567867;-0.1385041;-0.07479224;-3;2;0;1095;-3608;-1425;256;-0.033241;0.05401662;-0.599723;-0.7976902;1;0;0;-31;3864;-1191;128;0.09833795;-0.02216066;0.6495845;0.7535772;0;1;0;-477;4015;512;4;0.5198134;-0.4944598;0.5069252;0.4778393;1;1;0;-41;4088;154;16;0.6315789;-0.7668904;-0.0401662;-0.1066482;0;1;0;273;3974;804;2;0.5546224;-0.5027701;-0.4695291;-0.468144;0;0;0;-169;4100;269;8;0.6468144;-0.7419248;0.05124654;0.1689751;0;0;0;-631;4097;633;0.5110216;2.819285;-0.2709415;0.5169651;3.360916;-0.3359177;0.5221866;3.836769;-0.3950399;0.5139005;4.541493;-0.1906958;0.2514156;4.862293;-0.1365007;-0.08807588;4.70603;-0.1149033;-0.8819782;5.182683;-0.1440568;-0.9655577;6.094431;-0.3880347;0.7717235;4.868414;-0.1365004;1.062414;4.719563;-0.1149025;1.76488;5.223772;-0.5398597;2.017318;6.073541;-0.874456;0.1987605;2.776618;-0.2731223;0.1202392;1.315629;-0.258827;0;0;0;0.1987605;2.776618;-0.2731223;0.1202392;1.315629;-0.258827;0;0;0
1170147.0457;NotLabelled;NONE;16384;0.7347773;0.4598338;0.468144;0.1717452;1;-3;1;2698;-2104;2117;65536;0.7897239;0.602493;-0.04432133;0.1066482;-5;0;5;-438;-4136;-824;8192;0.8077643;0.400277;-0.4085872;-0.1426593;2;5;-4;-2312;-2259;2549;32768;0.8091097;0.566482;-0.1357341;-0.07756232;-1;8;3;1157;-3700;-1447;256;-0.033241;0.05401662;-0.5983379;-0.7987296;0;0;0;-49;3882;-1101;128;0.09833795;-0.02216066;0.6495845;0.7535772;-1;0;0;-503;4045;534;4;0.5198134;-0.4944598;0.5069252;0.4778393;0;0;0;-49;4062;200;16;0.6315789;-0.7668904;-0.0401662;-0.1066482;0;1;0;349;4018;836;2;0.5546224;-0.5027701;-0.4695291;-0.468144;0;-1;1;-241;4190;133;8;0.6468144;-0.7419248;0.05124654;0.1689751;0;0;0;-617;3995;639;0.5110217;2.819285;-0.2709429;0.5169653;3.360914;-0.3359358;0.5221869;3.836764;-0.3950727;0.5139007;4.54149;-0.1907285;0.2514156;4.862289;-0.1365334;-0.08807604;4.706026;-0.1149362;-0.881978;5.18268;-0.1440759;-0.9676716;6.09338;-0.3912153;0.7717236;4.86841;-0.136533;1.062414;4.719559;-0.1149349;1.763131;5.226339;-0.539723;2.01557;6.076108;-0.8743192;0.1987606;2.776618;-0.2731224;0.1202392;1.315629;-0.258827;0;0;0;0.1987606;2.776618;-0.2731224;0.1202392;1.315629;-0.258827;0;0;0
1170167.0412;NotLabelled;NONE;16384;0.7347773;0.4598338;0.468144;0.1717452;1;-3;2;2796;-2100;2167;65536;0.7908551;0.601108;-0.04293629;0.1066482;-6;3;6;-476;-4036;-984;8192;0.8082178;0.400277;-0.4072022;-0.1440443;1;3;-5;-2380;-2095;2597;32768;0.8091097;0.566482;-0.1357341;-0.07756232;0;3;2;1211;-3664;-1517;256;-0.033241;0.05401662;-0.5983379;-0.7987296;0;0;0;-105;3916;-1195;128;0.09972299;-0.02216066;0.6495845;0.7533951;0;2;0;-551;4129;532;4;0.5198134;-0.4944598;0.5069252;0.4778393;0;0;0;-55;4094;252;16;0.6315789;-0.7669617;-0.03878116;-0.1066482;0;-1;0;291;3966;822;2;0.5546224;-0.5027701;-0.4695291;-0.468144;0;-1;0;-143;4084;187;8;0.6468144;-0.7422389;0.05124654;0.16759;0;0;0;-539;3981;655;0.5110161;2.819285;-0.270947;0.5169594;3.360914;-0.3359398;0.5221812;3.836764;-0.3950767;0.5140574;4.540781;-0.1882976;0.2516449;4.861448;-0.1329831;-0.08788008;4.705186;-0.1119121;-0.8817831;5.181839;-0.1410493;-0.9690654;6.092443;-0.3879854;0.7719542;4.867456;-0.1329831;1.062613;4.718467;-0.1119117;1.761454;5.226157;-0.5386981;2.012178;6.074753;-0.8775355;0.1987549;2.776618;-0.2731265;0.1202339;1.315629;-0.2588296;0;0;0;0.1987549;2.776618;-0.2731265;0.1202339;1.315629;-0.2588296;0;0;0
1170188.2318;NotLabelled;NONE;16384;0.7356579;0.4598338;0.466759;0.1717452;0;-2;3;2734;-2146;2175;65536;0.7909291;0.601108;-0.04155125;0.1066482;-7;9;7;-542;-3976;-1056;8192;0.8082178;0.400277;-0.4072022;-0.1440443;0;4;-6;-2266;-2147;2607;32768;0.8092412;0.566482;-0.1357341;-0.07617728;1;-2;0;1073;-3552;-1581;256;-0.033241;0.05401662;-0.5983379;-0.7987296;0;0;0;-65;3944;-1229;128;0.09972299;-0.02216066;0.6495845;0.7533951;0;3;0;-489;4081;490;4;0.5198134;-0.4944598;0.5069252;0.4778393;0;0;0;-37;4072;198;16;0.6315789;-0.7669617;-0.03878116;-0.1066482;0;-2;0;303;3954;780;2;0.5546224;-0.5027701;-0.4695291;-0.468144;0;0;0;-167;4126;181;8;0.6468144;-0.7422389;0.05124654;0.16759;0;1;0;-621;4027;541;0.5133727;2.819009;-0.2712707;0.5193158;3.360604;-0.336547;0.5245371;3.836423;-0.3959331;0.5164135;4.54044;-0.189154;0.2540009;4.861108;-0.1338395;-0.08552397;4.704845;-0.1127685;-0.8794274;5.181499;-0.1418959;-0.9688243;6.091039;-0.3919786;0.7743104;4.867115;-0.1338395;1.064969;4.718126;-0.1127682;1.762792;5.225462;-0.5416367;2.013516;6.074058;-0.8804741;0.2011115;2.776341;-0.273426;0.1225905;1.315352;-0.2591291;0;0;0;0.2011115;2.776341;-0.273426;0.1225905;1.315352;-0.2591291;0;0;0
1170209.0545;NotLabelled;NONE;16384;0.7347903;0.4612188;0.466759;0.1717452;0;-1;3;2782;-2132;2061;65536;0.7920513;0.599723;-0.0401662;0.1066482;-2;7;3;-606;-3756;-1170;8192;0.8082272;0.4016621;-0.4058172;-0.1440443;0;6;-5;-2304;-2155;2625;32768;0.8091097;0.566482;-0.1357341;-0.07756232;-1;1;2;1345;-3758;-1159;256;-0.033241;0.05401662;-0.5983379;-0.7987296;-1;0;0;-93;3942;-1225;128;0.09972299;-0.02216066;0.6495845;0.7533951;0;1;0;-527;4103;506;4;0.5198134;-0.4944598;0.5069252;0.4778393;0;0;-1;-13;4096;150;16;0.6301939;-0.7681001;-0.03878116;-0.1066482;0;-2;0;289;4002;770;2;0.5546224;-0.5027701;-0.4695291;-0.468144;1;0;0;-71;4110;267;8;0.6468144;-0.7423332;0.04986149;0.16759;0;2;0;-625;4083;593;0.5133727;2.819009;-0.2712707;0.5193158;3.360604;-0.336547;0.5245371;3.836423;-0.3959331;0.5164135;4.54044;-0.189154;0.2540009;4.861108;-0.1338395;-0.08552397;4.704845;-0.1127685;-0.8786139;5.18269;-0.1444276;-0.9700923;6.092034;-0.3944694;0.7743104;4.867115;-0.1338395;1.064969;4.718126;-0.1127682;1.762797;5.225462;-0.5416285;2.012079;6.074555;-0.8802825;0.2011115;2.776341;-0.273426;0.1225905;1.315352;-0.2591291;0;0;0;0.2011115;2.776341;-0.273426;0.1225905;1.315352;-0.2591291;0;0;0
1170229.045;NotLabelled;NONE;16384;0.7347903;0.4612188;0.466759;0.1717452;0;0;2;2778;-2152;1983;65536;0.793352;0.5983379;-0.03878116;0.1052632;-1;2;0;-884;-3950;-1342;8192;0.8089212;0.4016621;-0.4044321;-0.1440443;-1;3;-3;-2278;-2295;2669;32768;0.8092412;0.566482;-0.1357341;-0.07617728;-4;0;5;1227;-3912;-1255;256;-0.033241;0.05401662;-0.599723;-0.7976902;-4;0;0;-91;3980;-1179;128;0.09972299;-0.02216066;0.6495845;0.7533951;-1;2;0;-497;4201;462;4;0.5198134;-0.4944598;0.5069252;0.4778393;0;0;0;17;4064;214;16;0.6301939;-0.7681001;-0.03878116;-0.1066482;0;0;0;257;3978;770;2;0.5546224;-0.5027701;-0.4695291;-0.468144;0;-1;0;-161;4196;213;8;0.6468144;-0.7423332;0.04986149;0.16759;0;2;0;-547;3991;677;0.5132473;2.818081;-0.2759979;0.5191904;3.359676;-0.3412743;0.5244117;3.835495;-0.4006603;0.5162881;4.539512;-0.1938812;0.2538755;4.860179;-0.1385667;-0.08564944;4.703917;-0.1174957;-0.8781352;5.182909;-0.1468497;-0.9717351;6.091173;-0.4000152;0.7741848;4.866186;-0.1385667;1.064844;4.717197;-0.1174954;1.760918;5.22709;-0.5461727;2.011642;6.075686;-0.8850099;0.2009861;2.775412;-0.2781532;0.122465;1.314423;-0.2638563;0;0;0;0.2009861;2.775412;-0.2781532;0.122465;1.314423;-0.2638563;0;0;0
1170250.2695;NotLabelled;NONE;16384;0.7356684;0.4612188;0.4653739;0.1717452;0;0;2;2860;-2038;2139;65536;0.7934185;0.5983379;-0.03739612;0.1052632;-3;-3;2;-688;-4058;-860;8192;0.808232;0.4030471;-0.4044321;-0.1440443;-2;-3;-3;-2450;-2201;2607;32768;0.809701;0.566482;-0.132964;-0.07617728;-4;6;4;1155;-3698;-1393;256;-0.033241;0.05401662;-0.599723;-0.7976902;-8;0;0;-15;3998;-1225;128;0.09972299;-0.02216066;0.6495845;0.7533951;-1;1;0;-499;4123;494;4;0.5198134;-0.4944598;0.5069252;0.4778393;0;0;0;13;4052;182;16;0.6301939;-0.7681001;-0.03878116;-0.1066482;-1;1;0;303;3930;810;2;0.5546224;-0.5027701;-0.4695291;-0.468144;0;2;0;-211;4012;189;8;0.6468144;-0.7422389;0.05124654;0.16759;0;1;0;-569;3969;657;0.513253;2.818081;-0.2759934;0.519196;3.359676;-0.3412698;0.5244174;3.835495;-0.4006558;0.5161314;4.540221;-0.1963116;0.2536464;4.86102;-0.1421162;-0.08584516;4.704757;-0.1205188;-0.8783303;5.183749;-0.1498885;-0.9724799;6.091026;-0.4063637;0.7739543;4.867141;-0.1421162;1.064645;4.71829;-0.1205183;1.75885;5.229105;-0.5511252;2.008139;6.078197;-0.8897741;0.2009918;2.775413;-0.2781488;0.1224704;1.314423;-0.2638537;0;0;0;0.2009918;2.775413;-0.2781488;0.1224704;1.314423;-0.2638537;0;0;0
1170271.0495;NotLabelled;NONE;16384;0.7356684;0.4612188;0.4653739;0.1717452;-2;-1;2;2942;-2052;2127;65536;0.7932335;0.5983379;-0.03739612;0.1066482;-2;4;0;-770;-4042;-954;8192;0.8084776;0.4030471;-0.4044321;-0.1426593;-1;-1;-5;-2424;-2199;2537;32768;0.8105369;0.5650969;-0.132964;-0.07756232;-3;2;4;1179;-3682;-1455;256;-0.03185596;0.05401662;-0.601108;-0.7967035;-10;0;0;-155;3920;-1181;128;0.09972299;-0.02216066;0.6495845;0.7533951;0;0;0;-525;4141;554;4;0.5198134;-0.4944598;0.5069252;0.4778393;0;0;0;45;4058;242;16;0.6301939;-0.7681001;-0.03878116;-0.1066482;-1;0;0;379;4012;866;2;0.5534503;-0.5027701;-0.4695291;-0.4695291;1;1;0;-239;4046;179;8;0.6468144;-0.7423332;0.04986149;0.16759;0;1;0;-617;4031;575;0.513253;2.818081;-0.2759934;0.519196;3.359676;-0.3412698;0.5244174;3.835495;-0.4006558;0.5161314;4.540221;-0.1963116;0.2536464;4.86102;-0.1421162;-0.08584516;4.704757;-0.1205188;-0.8775117;5.184941;-0.1524048;-0.9737479;6.092017;-0.4088162;0.7739543;4.867141;-0.1421162;1.064645;4.71829;-0.1205183;1.758973;5.230736;-0.5489832;2.003985;6.080722;-0.8885105;0.2009918;2.775413;-0.2781488;0.1224704;1.314423;-0.2638537;0;0;0;0.2009918;2.775413;-0.2781488;0.1224704;1.314423;-0.2638537;0;0;0
1170292.0432;NotLabelled;NONE;16384;0.7356684;0.4612188;0.4653739;0.1717452;-1;1;3;2956;-2296;1999;65536;0.7932335;0.5983379;-0.03739612;0.1066482;-2;0;0;-484;-4104;-948;8192;0.809169;0.4030471;-0.4030471;-0.1426593;0;0;-5;-2390;-2249;2589;32768;0.8107629;0.5650969;-0.1315789;-0.07756232;-5;8;4;991;-3946;-1219;256;-0.03185596;0.05401662;-0.602493;-0.7956567;-10;0;0;-35;3966;-1079;128;0.09972299;-0.02216066;0.6495845;0.7533951;0;1;0;-493;4105;546;4;0.5198134;-0.4944598;0.5069252;0.4778393;0;0;1;-83;4064;214;16;0.6301939;-0.7681001;-0.03878116;-0.1066482;0;0;0;353;3970;836;2;0.5534503;-0.5027701;-0.4695291;-0.4695291;0;0;0;-103;4138;289;8;0.6468144;-0.7423332;0.04986149;0.16759;0;1;0;-539;4049;595;0.5137225;2.818081;-0.2756538;0.5196655;3.359676;-0.3409301;0.5248868;3.835495;-0.4003161;0.5148844;4.540862;-0.1982744;0.2516207;4.8612;-0.1451369;-0.08749238;4.704186;-0.1230424;-0.8791039;5.18437;-0.1562655;-0.9764775;6.091335;-0.4126425;0.7719122;4.868581;-0.1451369;1.062961;4.720506;-0.123042;1.757144;5.234222;-0.5502194;2.003843;6.082629;-0.8924652;0.2014614;2.775413;-0.2778091;0.1229159;1.314423;-0.2636465;0;0;0;0.2014614;2.775413;-0.2778091;0.1229159;1.314423;-0.2636465;0;0;0
