SEP=;
index;label;segment;RightUpperArm_boneIndex;RightUpperArm_quat9x_w;RightUpperArm_quat9x_x;RightUpperArm_quat9x_y;RightUpperArm_quat9x_z;RightUpperArm_gyroscope_x;RightUpperArm_gyroscope_y;RightUpperArm_gyroscope_z;RightUpperArm_accelerometer_x;RightUpperArm_accelerometer_y;RightUpperArm_accelerometer_z;RightLowerArm_boneIndex;RightLowerArm_quat9x_w;RightLowerArm_quat9x_x;RightLowerArm_quat9x_y;RightLowerArm_quat9x_z;RightLowerArm_gyroscope_x;RightLowerArm_gyroscope_y;RightLowerArm_gyroscope_z;RightLowerArm_accelerometer_x;RightLowerArm_accelerometer_y;RightLowerArm_accelerometer_z;LeftUpperArm_boneIndex;LeftUpperArm_quat9x_w;LeftUpperArm_quat9x_x;LeftUpperArm_quat9x_y;LeftUpperArm_quat9x_z;LeftUpperArm_gyroscope_x;LeftUpperArm_gyroscope_y;LeftUpperArm_gyroscope_z;LeftUpperArm_accelerometer_x;LeftUpperArm_accelerometer_y;LeftUpperArm_accelerometer_z;LeftLowerArm_boneIndex;LeftLowerArm_quat9x_w;LeftLowerArm_quat9x_x;LeftLowerArm_quat9x_y;LeftLowerArm_quat9x_z;LeftLowerArm_gyroscope_x;LeftLowerArm_gyroscope_y;LeftLowerArm_gyroscope_z;LeftLowerArm_accelerometer_x;LeftLowerArm_accelerometer_y;LeftLowerArm_accelerometer_z;Chest_boneIndex;Chest_quat9x_w;Chest_quat9x_x;Chest_quat9x_y;Chest_quat9x_z;Chest_gyroscope_x;Chest_gyroscope_y;Chest_gyroscope_z;Chest_accelerometer_x;Chest_accelerometer_y;Chest_accelerometer_z;Spine_boneIndex;Spine_quat9x_w;Spine_quat9x_x;Spine_quat9x_y;Spine_quat9x_z;Spine_gyroscope_x;Spine_gyroscope_y;Spine_gyroscope_z;Spine_accelerometer_x;Spine_accelerometer_y;Spine_accelerometer_z;RightUpperLeg_boneIndex;RightUpperLeg_quat9x_w;RightUpperLeg_quat9x_x;RightUpperLeg_quat9x_y;RightUpperLeg_quat9x_z;RightUpperLeg_gyroscope_x;RightUpperLeg_gyroscope_y;RightUpperLeg_gyroscope_z;RightUpperLeg_accelerometer_x;RightUpperLeg_accelerometer_y;RightUpperLeg_accelerometer_z;RightLowerLeg_boneIndex;RightLowerLeg_quat9x_w;RightLowerLeg_quat9x_x;RightLowerLeg_quat9x_y;RightLowerLeg_quat9x_z;RightLowerLeg_gyroscope_x;RightLowerLeg_gyroscope_y;RightLowerLeg_gyroscope_z;RightLowerLeg_accelerometer_x;RightLowerLeg_accelerometer_y;RightLowerLeg_accelerometer_z;LeftUpperLeg_boneIndex;LeftUpperLeg_quat9x_w;LeftUpperLeg_quat9x_x;LeftUpperLeg_quat9x_y;LeftUpperLeg_quat9x_z;LeftUpperLeg_gyroscope_x;LeftUpperLeg_gyroscope_y;LeftUpperLeg_gyroscope_z;LeftUpperLeg_accelerometer_x;LeftUpperLeg_accelerometer_y;LeftUpperLeg_accelerometer_z;LeftLowerLeg_boneIndex;LeftLowerLeg_quat9x_w;LeftLowerLeg_quat9x_x;LeftLowerLeg_quat9x_y;LeftLowerLeg_quat9x_z;LeftLowerLeg_gyroscope_x;LeftLowerLeg_gyroscope_y;LeftLowerLeg_gyroscope_z;LeftLowerLeg_accelerometer_x;LeftLowerLeg_accelerometer_y;LeftLowerLeg_accelerometer_z;pelvis_x;pelvis_y;pelvis_z;lowerSpine_x;lowerSpine_y;lowerSpine_z;middleSpine_x;middleSpine_y;middleSpine_z;upperSpine_x;upperSpine_y;upperSpine_z;rightClavicle_x;rightClavicle_y;rightClavicle_z;rightShoulder_x;rightShoulder_y;rightShoulder_z;rightElbow_x;rightElbow_y;rightElbow_z;rightWrist_x;rightWrist_y;rightWrist_z;leftClavicle_x;leftClavicle_y;leftClavicle_z;leftShoulder_x;leftShoulder_y;leftShoulder_z;leftElbow_x;leftElbow_y;leftElbow_z;leftWrist_x;leftWrist_y;leftWrist_z;rightHip_x;rightHip_y;rightHip_z;rightKnee_x;rightKnee_y;rightKnee_z;rightAnkle_x;rightAnkle_y;rightAnkle_z;leftHip_x;leftHip_y;leftHip_z;leftKnee_x;leftKnee_y;leftKnee_z;leftAnkle_x;leftAnkle_y;leftAnkle_z;
63430.105;NotLabelled;NONE;16384;0.764775;0.4556787;0.4224377;0.1703601;0;-2;0;2544;-2224;2195;65536;0.8024162;0.5734072;-0.02493075;0.1634349;0;0;0;-1037;-3806;-1180;8192;0.8208227;0.398892;-0.3961219;-0.101108;0;0;2;-1988;-2383;2677;32768;0.8236876;0.5470914;-0.1218837;-0.08587258;0;-1;0;1053;-3762;-1518;256;0.05817174;-0.04432133;-0.5914127;-0.8030459;0;1;0;-191;3936;-1245;128;0.01108033;0.07063711;0.6454294;0.760466;0;2;0;-409;4039;638;4;0.5108551;-0.4916897;0.5027701;0.4944598;0;0;1;71;4060;104;16;0.6385041;-0.7662585;-0.0235457;-0.06786703;0;-1;0;183;3974;780;2;0.551584;-0.5110803;-0.4584487;-0.4736842;0;0;0;-259;4140;133;8;0.6551247;-0.7490821;-0.004155125;0.09833795;0;0;0;-581;4075;559;0.481423;2.826719;-0.1948439;0.4873853;3.370065;-0.2434474;0.4926241;3.847484;-0.2881845;0.4638647;4.548277;-0.07249033;0.192145;4.860345;-0.01307435;-0.1426165;4.693889;0.006062403;-0.8499495;5.204759;-0.3054203;-0.9450309;6.084002;-0.6455528;0.7120513;4.881684;-0.01307417;1.006985;4.741072;0.006063193;1.755554;5.291788;-0.2481659;2.081871;6.124668;-0.5606005;0.1691628;2.784139;-0.1984143;0.1316436;1.32161;-0.2198705;0;0;0;0.1691628;2.784139;-0.1984143;0.1316436;1.32161;-0.2198705;0;0;0
63450.1687;NotLabelled;NONE;16384;0.764775;0.4556787;0.4224377;0.1703601;1;-1;0;2652;-2232;2175;65536;0.802458;0.5734072;-0.0235457;0.1634349;0;0;0;-1115;-3758;-1170;8192;0.8208227;0.398892;-0.3961219;-0.101108;0;0;1;-2056;-2377;2563;32768;0.8236876;0.5470914;-0.1218837;-0.08587258;0;0;0;1105;-3730;-1470;256;0.05817174;-0.04432133;-0.5914127;-0.8030459;0;1;0;-259;3924;-1217;128;0.01108033;0.07063711;0.6454294;0.760466;0;2;0;-405;4067;638;4;0.5108551;-0.4916897;0.5027701;0.4944598;0;2;1;55;4076;104;16;0.6385041;-0.7662585;-0.0235457;-0.06786703;0;0;0;139;4034;726;2;0.551584;-0.5110803;-0.4584487;-0.4736842;0;0;0;-303;4096;117;8;0.6551247;-0.7490821;-0.004155125;0.09833795;0;0;0;-539;4045;557;0.4814229;2.826719;-0.1948438;0.4873852;3.370065;-0.2434473;0.492624;3.847484;-0.2881844;0.4638647;4.548277;-0.07249025;0.192145;4.860345;-0.0130742;-0.1426166;4.693889;0.006062612;-0.8482975;5.205843;-0.3073792;-0.9413136;6.085468;-0.647091;0.7120513;4.881684;-0.01307417;1.006985;4.741072;0.006063074;1.755553;5.291788;-0.2481666;2.081482;6.12588;-0.5577598;0.1691628;2.784139;-0.1984144;0.1316435;1.32161;-0.2198705;0;0;0;0.1691628;2.784139;-0.1984144;0.1316435;1.32161;-0.2198705;0;0;0
63492.2561;NotLabelled;NONE;16384;0.764775;0.4556787;0.4224377;0.1703601;1;0;0;2608;-2230;2137;65536;0.8021746;0.5734072;-0.0235457;0.1648199;-1;-1;0;-1017;-3804;-1242;8192;0.8201528;0.398892;-0.3975069;-0.101108;0;0;0;-1990;-2337;2635;32768;0.8236876;0.5470914;-0.1218837;-0.08587258;0;1;0;1101;-3664;-1512;256;0.0567867;-0.04432133;-0.5914127;-0.803145;0;0;0;-207;3958;-1229;128;0.01108033;0.07063711;0.6454294;0.760466;0;0;0;-425;4005;678;4;0.5108551;-0.4916897;0.5027701;0.4944598;0;2;0;35;4100;110;16;0.6385041;-0.7662147;-0.02493075;-0.06786703;0;3;0;233;3972;760;2;0.551584;-0.5110803;-0.4584487;-0.4736842;1;0;0;-269;4090;103;8;0.6551247;-0.7490821;-0.004155125;0.09833795;0;-1;0;-577;4021;557;0.481423;2.826719;-0.1948439;0.4873853;3.370065;-0.2434474;0.4926241;3.847484;-0.2881845;0.4638647;4.548277;-0.07249033;0.192145;4.860345;-0.01307435;-0.1426165;4.693889;0.006062403;-0.8482974;5.205843;-0.3073804;-0.9433793;6.085085;-0.6475129;0.7120513;4.881684;-0.01307417;1.006985;4.741072;0.006063193;1.755554;5.291788;-0.2481659;2.081482;6.12588;-0.5577587;0.1691628;2.784139;-0.1984143;0.1316436;1.32161;-0.2198705;0;0;0;0.1691628;2.784139;-0.1984143;0.1316436;1.32161;-0.2198705;0;0;0
63533.4022;NotLabelled;NONE;16384;0.764775;0.4556787;0.4224377;0.1703601;1;0;0;2572;-2182;2141;65536;0.8021328;0.5734072;-0.02493075;0.1648199;-1;0;0;-1015;-3834;-1176;8192;0.8201482;0.400277;-0.3961219;-0.101108;0;1;0;-1954;-2349;2595;32768;0.8236876;0.5470914;-0.1218837;-0.08587258;0;1;0;1135;-3638;-1488;256;0.05817174;-0.04432133;-0.5914127;-0.8030459;0;0;0;-275;3866;-1241;128;0.01108033;0.06925207;0.6454294;0.7605934;0;0;0;-411;4083;700;4;0.5122145;-0.4916897;0.501385;0.4944598;0;0;1;33;4096;48;16;0.6385041;-0.7662147;-0.02493075;-0.06786703;0;2;0;237;4020;764;2;0.5527323;-0.5110803;-0.4570637;-0.4736842;0;-1;-1;-237;4088;139;8;0.6551247;-0.7490886;-0.002770083;0.09833795;-1;-2;0;-627;4001;519;0.4787275;2.826897;-0.195455;0.4846898;3.370243;-0.2440584;0.4899286;3.847661;-0.2887955;0.4627242;4.548451;-0.07288675;0.1916973;4.861102;-0.01337183;-0.1434318;4.695382;0.005718406;-0.8496318;5.207336;-0.3065523;-0.9467808;6.086332;-0.6467366;0.7116495;4.881289;-0.01337178;1.006271;4.740018;0.005718708;1.755786;5.289948;-0.2474192;2.0812;6.124041;-0.5575527;0.1664674;2.784317;-0.1990255;0.1289125;1.321788;-0.2204193;0;0;0;0.1664674;2.784317;-0.1990255;0.1289125;1.321788;-0.2204193;0;0;0
63554.0198;NotLabelled;NONE;16384;0.7652891;0.4542936;0.4224377;0.1717452;2;0;0;2632;-2258;2123;65536;0.8031211;0.5720221;-0.02493075;0.1648199;-2;0;0;-1001;-3762;-1230;8192;0.8201482;0.400277;-0.3961219;-0.101108;1;0;0;-1942;-2357;2619;32768;0.8238913;0.5470914;-0.1204986;-0.08587258;-1;0;0;1123;-3658;-1502;256;0.05817174;-0.04432133;-0.5914127;-0.8030459;0;0;0;-237;3930;-1219;128;0.01108033;0.06925207;0.6454294;0.7605934;0;0;0;-385;4111;728;4;0.5108551;-0.4916897;0.5027701;0.4944598;0;0;1;11;4058;98;16;0.6385041;-0.7662147;-0.02493075;-0.06786703;0;1;0;147;4022;706;2;0.5540097;-0.5096953;-0.4570637;-0.4736842;0;0;-2;-243;4130;183;8;0.6551247;-0.7489054;-0.002770083;0.09972299;-2;-4;0;-533;4059;497;0.4784117;2.826849;-0.191161;0.4843739;3.370193;-0.2397823;0.4896128;3.84761;-0.2845351;0.4608536;4.548404;-0.06884103;0.1891341;4.860472;-0.009424679;-0.1456274;4.694015;0.009712435;-0.8513091;5.20597;-0.3037273;-0.9458288;6.085353;-0.6436511;0.7090402;4.881811;-0.009425133;1.003974;4.741199;0.009711802;1.752005;5.293591;-0.2424493;2.077933;6.127685;-0.5520425;0.1661516;2.784269;-0.1947299;0.1292779;1.321788;-0.2202052;0;0;0;0.1661516;2.784269;-0.1947299;0.1292779;1.321788;-0.2202052;0;0;0
63595.0367;NotLabelled;NONE;16384;0.7655986;0.4542936;0.4224377;0.1703601;1;1;0;2542;-2298;2135;65536;0.8031211;0.5720221;-0.02493075;0.1648199;-2;0;0;-917;-3802;-1216;8192;0.8201482;0.400277;-0.3961219;-0.101108;1;0;0;-1882;-2407;2593;32768;0.8238913;0.5470914;-0.1204986;-0.08587258;-1;0;0;1091;-3684;-1512;256;0.05817174;-0.04432133;-0.5914127;-0.8030459;-1;0;0;-247;3886;-1235;128;0.01108033;0.07063711;0.6454294;0.760466;0;0;0;-457;4037;660;4;0.5122145;-0.4916897;0.501385;0.4944598;0;-2;1;45;4076;40;16;0.6385041;-0.7662147;-0.02493075;-0.06786703;-1;-1;0;203;4008;602;2;0.5540097;-0.5096953;-0.4570637;-0.4736842;-1;0;-2;-301;4074;117;8;0.6551247;-0.7489093;-0.001385042;0.09972299;-2;-4;0;-551;4051;493;0.4790571;2.826897;-0.1951801;0.4850193;3.370241;-0.2438014;0.4902581;3.847659;-0.2885543;0.4614989;4.548452;-0.07286015;0.1897794;4.86052;-0.0134438;-0.144982;4.694063;0.005693316;-0.8514535;5.203403;-0.3102185;-0.9450772;6.081751;-0.653052;0.7096855;4.881859;-0.01344424;1.004619;4.741247;0.005692691;1.752651;5.293641;-0.2464666;2.076574;6.12817;-0.556986;0.166797;2.784317;-0.198749;0.1292778;1.321788;-0.2202052;0;0;0;0.166797;2.784317;-0.198749;0.1292778;1.321788;-0.2202052;0;0;0
63615.0441;NotLabelled;NONE;16384;0.7655986;0.4542936;0.4224377;0.1703601;0;1;0;2554;-2184;2159;65536;0.8031211;0.5720221;-0.02493075;0.1648199;-2;1;0;-977;-3802;-1228;8192;0.8206509;0.398892;-0.3961219;-0.1024931;2;0;0;-2002;-2369;2615;32768;0.8238913;0.5470914;-0.1204986;-0.08587258;-2;0;0;1067;-3610;-1506;256;0.05817174;-0.04432133;-0.5914127;-0.8030459;-1;0;0;-191;3910;-1283;128;0.01108033;0.07063711;0.6454294;0.760466;0;0;0;-449;4069;664;4;0.5122145;-0.4916897;0.501385;0.4944598;0;0;1;15;4118;74;16;0.6385041;-0.7662147;-0.02493075;-0.06786703;0;-2;0;155;3934;678;2;0.5540097;-0.5096953;-0.4570637;-0.4736842;0;0;-2;-233;4122;95;8;0.6551247;-0.7487235;-0.001385042;0.101108;-2;-5;0;-529;4083;617;0.4784122;2.826849;-0.1911598;0.4843744;3.370194;-0.2397633;0.4896133;3.847613;-0.2845004;0.4608544;4.548407;-0.06880629;0.1891349;4.860475;-0.009389758;-0.1456266;4.694018;0.009747624;-0.8511861;5.204691;-0.3060496;-0.9448102;6.083039;-0.6488832;0.7090411;4.881814;-0.009390578;1.003975;4.741202;0.009746194;1.752007;5.293587;-0.2424332;2.07593;6.128116;-0.5529531;0.1661519;2.784269;-0.1947304;0.1292779;1.321788;-0.2202054;0;0;0;0.1661519;2.784269;-0.1947304;0.1292779;1.321788;-0.2202054;0;0;0
63636.0494;NotLabelled;NONE;16384;0.7655986;0.4542936;0.4224377;0.1703601;1;0;-1;2628;-2288;2187;65536;0.8041475;0.5706371;-0.0235457;0.1648199;-2;2;0;-977;-3782;-1248;8192;0.8206509;0.398892;-0.3961219;-0.1024931;2;0;0;-1992;-2349;2621;32768;0.8237458;0.5470914;-0.1204986;-0.08725762;-2;0;0;1133;-3642;-1514;256;0.05817174;-0.04570637;-0.5914127;-0.8029683;-2;0;0;-177;3890;-1267;128;0.01108033;0.07063711;0.6454294;0.760466;1;0;0;-431;4043;726;4;0.5122145;-0.4916897;0.501385;0.4944598;0;-1;1;85;4074;80;16;0.6385041;-0.7662147;-0.02493075;-0.06786703;-1;0;0;189;3990;738;2;0.5528225;-0.5096953;-0.4570637;-0.4750692;0;0;-2;-249;4086;121;8;0.6537396;-0.7499332;-0.001385042;0.101108;-2;-4;0;-551;4053;563;0.4784122;2.826849;-0.1911593;0.4843745;3.370194;-0.2397628;0.4896133;3.847613;-0.2844999;0.4608539;4.548407;-0.06880571;0.1891342;4.860475;-0.009389672;-0.1456273;4.694018;0.009747136;-0.8511858;5.204702;-0.3060351;-0.9448095;6.08305;-0.6488688;0.7090405;4.881814;-0.009389654;1.003974;4.741202;0.009747595;1.753458;5.290728;-0.2443576;2.077382;6.125257;-0.5548774;0.166152;2.784269;-0.1947298;0.1292781;1.321788;-0.2202051;0;0;0;0.166152;2.784269;-0.1947298;0.1292781;1.321788;-0.2202051;0;0;0
63657.048;NotLabelled;NONE;16384;0.7648327;0.4542936;0.4238227;0.1703601;0;1;-1;2616;-2326;2187;65536;0.8044302;0.5706371;-0.0235457;0.1634349;-1;1;1;-1015;-3790;-1254;8192;0.821318;0.398892;-0.3947368;-0.1024931;1;0;0;-1988;-2357;2631;32768;0.8237458;0.5470914;-0.1204986;-0.08725762;-1;0;-1;1155;-3660;-1568;256;0.05955679;-0.04570637;-0.5914127;-0.8028667;-1;0;0;-179;3892;-1227;128;0.009695291;0.07063711;0.6454294;0.7604849;1;0;0;-447;4101;726;4;0.5122033;-0.4903047;0.501385;0.4958449;0;-3;2;53;4112;92;16;0.6385041;-0.7660908;-0.02493075;-0.06925207;0;0;0;271;3956;768;2;0.5551495;-0.5096953;-0.4556787;-0.4736842;-1;-1;-3;-215;4092;113;8;0.6537396;-0.7499345;0;0.101108;-2;-3;0;-609;4031;629;0.4788463;2.826849;-0.1907878;0.4848086;3.370194;-0.2393912;0.4900474;3.847613;-0.2841283;0.4624431;4.548458;-0.06844856;0.1912383;4.860973;-0.009039134;-0.1437971;4.69507;0.01010071;-0.8486488;5.205754;-0.3072559;-0.9426749;6.082671;-0.6536245;0.711179;4.881456;-0.00903894;1.00588;4.740358;0.01010156;1.75593;5.289884;-0.2423294;2.081934;6.123945;-0.5519251;0.1665861;2.784269;-0.1943583;0.1297693;1.321788;-0.2199159;0;0;0;0.1665861;2.784269;-0.1943583;0.1297693;1.321788;-0.2199159;0;0;0
63678.0462;NotLabelled;NONE;16384;0.7656537;0.4529086;0.4238227;0.1703601;0;1;0;2642;-2214;2163;65536;0.8044302;0.5706371;-0.0235457;0.1634349;-1;0;1;-1017;-3858;-1244;8192;0.821318;0.398892;-0.3947368;-0.1024931;2;0;0;-2048;-2369;2657;32768;0.8237458;0.5470914;-0.1204986;-0.08725762;0;1;0;1111;-3632;-1618;256;0.05955679;-0.04570637;-0.5914127;-0.8028667;-1;-1;1;-219;3842;-1237;128;0.009695291;0.07063711;0.6454294;0.7604849;1;-2;0;-411;4047;698;4;0.5122033;-0.4903047;0.501385;0.4958449;0;-3;2;39;4052;66;16;0.6385041;-0.7662147;-0.02493075;-0.06786703;0;-1;0;213;4026;730;2;0.5539647;-0.5096953;-0.4556787;-0.4750692;-1;0;-2;-299;4160;53;8;0.6537396;-0.7499345;0;0.101108;-2;-3;0;-563;4041;547;0.4813268;2.826669;-0.1856577;0.4872891;3.370015;-0.23425;0.492528;3.847435;-0.2789773;0.4633698;4.548285;-0.06351762;0.191473;4.860218;-0.004209079;-0.1431945;4.693579;0.01497936;-0.8486552;5.203174;-0.3027737;-0.9406122;6.080335;-0.6490803;0.7113671;4.881851;-0.004209772;1.00638;4.741412;0.01497793;1.755904;5.29172;-0.2373114;2.08242;6.125782;-0.546366;0.1690667;2.784089;-0.1892292;0.132865;1.321668;-0.2187865;0;0;0;0.1690667;2.784089;-0.1892292;0.132865;1.321668;-0.2187865;0;0;0
63699.383;NotLabelled;NONE;16384;0.7656537;0.4529086;0.4238227;0.1703601;0;1;0;2660;-2254;2165;65536;0.8044302;0.5706371;-0.0235457;0.1634349;0;1;1;-1009;-3818;-1280;8192;0.821318;0.398892;-0.3947368;-0.1024931;1;0;0;-2016;-2383;2709;32768;0.8246641;0.5457063;-0.1204986;-0.08725762;-1;2;0;1083;-3686;-1588;256;0.05955679;-0.04570637;-0.5914127;-0.8028667;-1;-2;0;-169;3880;-1275;128;0.009695291;0.07063711;0.6454294;0.7604849;1;-2;-1;-409;4073;710;4;0.5108589;-0.4903047;0.501385;0.4972299;0;-3;1;121;4106;116;16;0.6385041;-0.7662147;-0.02493075;-0.06786703;0;-1;0;159;4030;870;2;0.5552359;-0.5083103;-0.4556787;-0.4750692;0;2;-2;-273;4142;117;8;0.6523545;-0.7509519;0;0.1024931;-2;-3;0;-491;4051;701;0.478596;2.826789;-0.1865714;0.4845583;3.370135;-0.2351637;0.4897972;3.847555;-0.279891;0.4606385;4.548405;-0.06443131;0.1887417;4.860338;-0.005123332;-0.145926;4.693699;0.01406441;-0.8517814;5.202026;-0.3048418;-0.9437375;6.079187;-0.6511486;0.7086357;4.881971;-0.005123064;1.003649;4.741532;0.01406544;1.752753;5.291846;-0.2394533;2.07927;6.125908;-0.5485075;0.1663358;2.784209;-0.1901428;0.1301343;1.321788;-0.2197002;0;0;0;0.1663358;2.784209;-0.1901428;0.1301343;1.321788;-0.2197002;0;0;0
63720.0365;NotLabelled;NONE;16384;0.7656537;0.4529086;0.4238227;0.1703601;0;2;0;2608;-2270;2241;65536;0.8054109;0.5692521;-0.0235457;0.1634349;-1;1;1;-1041;-3792;-1216;8192;0.821318;0.398892;-0.3947368;-0.1024931;1;1;-2;-1998;-2305;2715;32768;0.8248652;0.5457063;-0.1191136;-0.08725762;0;2;-1;1135;-3610;-1614;256;0.05955679;-0.04709141;-0.5914127;-0.8027866;-1;-1;1;-169;3922;-1249;128;0.009695291;0.07063711;0.6468144;0.7593073;1;-2;-1;-443;4083;728;4;0.5121846;-0.4889196;0.501385;0.4972299;0;-3;1;67;4072;70;16;0.6385041;-0.7662147;-0.02493075;-0.06786703;0;1;0;229;4002;808;2;0.5552359;-0.5083103;-0.4556787;-0.4750692;0;0;-2;-237;4072;79;8;0.6523545;-0.7509519;0;0.1024931;-1;-4;0;-541;4031;667;0.4746772;2.826892;-0.1871415;0.4806394;3.370238;-0.2357339;0.4858782;3.847658;-0.2804612;0.4567197;4.548508;-0.06500138;0.1848229;4.860441;-0.005693123;-0.1498448;4.693802;0.01349489;-0.8557006;5.202128;-0.3054104;-0.9476579;6.079289;-0.6517169;0.704717;4.882074;-0.005693242;0.9997299;4.741635;0.01349482;1.748834;5.291949;-0.240025;2.075745;6.124798;-0.5519205;0.162417;2.784312;-0.1907129;0.130134;1.321788;-0.2197002;0;0;0;0.162417;2.784312;-0.1907129;0.130134;1.321788;-0.2197002;0;0;0
63740.0418;NotLabelled;NONE;16384;0.7656537;0.4529086;0.4238227;0.1703601;0;1;0;2666;-2242;2247;65536;0.8054502;0.5692521;-0.02216066;0.1634349;-1;3;1;-1053;-3818;-1248;8192;0.8219822;0.398892;-0.3933518;-0.1024931;1;1;-2;-1970;-2303;2721;32768;0.8248652;0.5457063;-0.1191136;-0.08725762;0;1;-1;1183;-3620;-1578;256;0.05955679;-0.04709141;-0.5927978;-0.8017644;-1;-1;1;-185;3914;-1239;128;0.008310249;0.07202215;0.6468144;0.7591936;0;-2;0;-469;4029;744;4;0.5108251;-0.4889196;0.5027701;0.4972299;0;-2;1;91;4100;86;16;0.6385041;-0.7662147;-0.02493075;-0.06786703;0;-1;0;217;4062;770;2;0.5552359;-0.5083103;-0.4556787;-0.4750692;0;-3;-1;-207;4082;169;8;0.6523545;-0.7509519;0;0.1024931;-1;-3;0;-557;4049;641;0.4784756;2.826731;-0.18241;0.4844359;3.369896;-0.2329842;0.489673;3.84715;-0.2794529;0.46163;4.548051;-0.06401289;0.190237;4.860434;-0.00476186;-0.1447087;4.694346;0.0143669;-0.8490057;5.20384;-0.3061203;-0.9392189;6.079947;-0.6555386;0.710166;4.881209;-0.004665107;1.004943;4.740285;0.01458111;1.75527;5.291512;-0.2332739;2.080931;6.124799;-0.5453105;0.1662153;2.784138;-0.1858136;0.1306652;1.321788;-0.2193848;0;0;0;0.1662153;2.784138;-0.1858136;0.1306652;1.321788;-0.2193848;0;0;0
63761.1815;NotLabelled;NONE;16384;0.7659605;0.4529086;0.4238227;0.1689751;-1;2;0;2590;-2236;2215;65536;0.8054502;0.5692521;-0.02216066;0.1634349;0;3;1;-947;-3782;-1246;8192;0.8218083;0.398892;-0.3933518;-0.1038781;0;1;-2;-1928;-2335;2681;32768;0.8247175;0.5457063;-0.1191136;-0.08864266;0;1;-1;1135;-3578;-1570;256;0.05955679;-0.04847645;-0.5927978;-0.8016819;0;-1;1;-181;3854;-1239;128;0.008310249;0.0734072;0.6468144;0.7590609;0;-2;0;-425;4013;794;4;0.5094733;-0.4889196;0.5027701;0.4986149;0;-2;0;105;4082;118;16;0.6385041;-0.7662585;-0.0235457;-0.06786703;0;0;0;89;4014;776;2;0.5552359;-0.5083103;-0.4556787;-0.4750692;0;-4;0;-229;4110;111;8;0.6523545;-0.7509519;0;0.1024931;-1;0;0;-569;4055;627;0.4791234;2.826801;-0.1864427;0.4850836;3.369969;-0.2369923;0.4903207;3.847225;-0.2834393;0.4624657;4.548868;-0.07040533;0.1911546;4.861521;-0.01221365;-0.143832;4.695586;0.007501636;-0.8489518;5.203913;-0.3130277;-0.9412787;6.079634;-0.662863;0.7110888;4.882166;-0.01221392;1.005831;4.741233;0.007501543;1.754153;5.292332;-0.2466242;2.079776;6.125618;-0.558699;0.1668631;2.784209;-0.1898485;0.1306392;1.321788;-0.2194003;0;0;0;0.1668631;2.784209;-0.1898485;0.1306392;1.321788;-0.2194003;0;0;0
63782.0499;NotLabelled;NONE;16384;0.7659605;0.4529086;0.4238227;0.1689751;0;1;0;2550;-2258;2221;65536;0.8054871;0.5692521;-0.02077562;0.1634349;0;2;0;-985;-3724;-1268;8192;0.8231401;0.3975069;-0.3919668;-0.1038781;1;0;-1;-1930;-2291;2679;32768;0.8247175;0.5457063;-0.1191136;-0.08864266;0;2;0;1069;-3546;-1572;256;0.05955679;-0.04847645;-0.5914127;-0.8027042;0;-1;1;-121;3902;-1221;128;0.008310249;0.0734072;0.6454294;0.7602389;-1;-2;0;-485;4051;754;4;0.5107988;-0.4875346;0.5027701;0.4986149;0;0;0;137;4092;118;16;0.6371191;-0.7675318;-0.0235457;-0.06648199;0;0;0;195;4000;816;2;0.5552359;-0.5083103;-0.4556787;-0.4750692;0;2;0;-227;4146;131;8;0.6509695;-0.7521528;0;0.1024931;0;0;0;-587;3981;689;0.4779822;2.826727;-0.186304;0.4839424;3.369896;-0.2368363;0.4891795;3.847154;-0.2832682;0.4624841;4.548846;-0.07024805;0.19169;4.861948;-0.01206286;-0.1435705;4.696568;0.007655255;-0.8470648;5.206239;-0.3143072;-0.9386117;6.08196;-0.6643475;0.7116578;4.881733;-0.01206283;1.006167;4.740314;0.00765568;1.755968;5.290229;-0.2446699;2.083669;6.12305;-0.5558108;0.1657219;2.784135;-0.1897112;0.1334905;1.32161;-0.2187542;0;0;0;0.1657219;2.784135;-0.1897112;0.1334905;1.32161;-0.2187542;0;0;0
63803.113;NotLabelled;NONE;16384;0.7651925;0.4529086;0.4252077;0.1689751;-1;1;0;2548;-2310;2187;65536;0.8057669;0.5692521;-0.02077562;0.1620499;0;2;0;-921;-3724;-1316;8192;0.8231401;0.3975069;-0.3919668;-0.1038781;1;0;-1;-1828;-2339;2607;32768;0.8245675;0.5457063;-0.1191136;-0.0900277;-1;1;0;1047;-3566;-1536;256;0.06094183;-0.04847645;-0.5914127;-0.8026002;0;0;1;-175;3880;-1205;128;0.008310249;0.0734072;0.6454294;0.7602389;-2;-2;0;-435;4033;728;4;0.5107988;-0.4875346;0.5027701;0.4986149;-1;-1;-1;89;4080;122;16;0.6371191;-0.7675318;-0.0235457;-0.06648199;0;-1;0;225;3956;778;2;0.5552359;-0.5083103;-0.4556787;-0.4750692;0;2;1;-273;4096;65;8;0.6509695;-0.7521528;0;0.1024931;0;0;0;-567;4053;629;0.4795763;2.825779;-0.1872205;0.4855387;3.369129;-0.2357706;0.4907775;3.846553;-0.2804608;0.4639304;4.547503;-0.06502959;0.1930638;4.860334;-0.005734548;-0.1421515;4.6948;0.0134595;-0.8456088;5.204472;-0.3085839;-0.9392506;6.079803;-0.6590431;0.7130263;4.880253;-0.005734503;1.007575;4.738842;0.01345995;1.756575;5.287855;-0.243168;2.084256;6.120675;-0.5543295;0.1673162;2.783199;-0.1907955;0.131743;1.320849;-0.2243395;0;0;0;0.1673162;2.783199;-0.1907955;0.131743;1.320849;-0.2243395;0;0;0
63824.0726;NotLabelled;NONE;16384;0.7654971;0.4529086;0.4252077;0.16759;0;0;0;2498;-2242;2163;65536;0.8067436;0.567867;-0.02077562;0.1620499;0;2;0;-971;-3670;-1340;8192;0.8231401;0.3975069;-0.3919668;-0.1038781;2;2;-1;-1924;-2311;2653;32768;0.8247664;0.5457063;-0.1177285;-0.0900277;-1;1;0;1017;-3520;-1582;256;0.06094183;-0.04847645;-0.5914127;-0.8026002;0;0;1;-173;3884;-1307;128;0.008310249;0.07479224;0.6454294;0.7601039;-1;0;0;-469;4061;708;4;0.5107988;-0.4875346;0.5027701;0.4986149;-1;0;-1;61;4084;118;16;0.6385041;-0.76638;-0.0235457;-0.06648199;0;-2;0;193;3962;686;2;0.5552359;-0.5083103;-0.4556787;-0.4750692;0;0;0;-303;4094;93;8;0.6509695;-0.7521528;0;0.1024931;0;0;0;-573;4001;563;0.4798932;2.825779;-0.1869423;0.4858555;3.369129;-0.2354925;0.4910944;3.846553;-0.2801827;0.4626937;4.547511;-0.06497771;0.1911349;4.859761;-0.005786851;-0.1437137;4.693493;0.01345637;-0.8483661;5.202086;-0.3076781;-0.9399377;6.077666;-0.6580662;0.7110522;4.880831;-0.005786881;1.005912;4.740078;0.01345679;1.755292;5.289091;-0.2420617;2.084872;6.121443;-0.5524693;0.167633;2.7832;-0.1905173;0.1321155;1.320849;-0.2241204;0;0;0;0.167633;2.7832;-0.1905173;0.1321155;1.320849;-0.2241204;0;0;0
63845.0434;NotLabelled;NONE;16384;0.7662648;0.4529086;0.4238227;0.16759;0;0;0;2484;-2270;2097;65536;0.8067436;0.567867;-0.02077562;0.1620499;1;2;0;-931;-3714;-1278;8192;0.8231401;0.3975069;-0.3919668;-0.1038781;1;1;0;-1920;-2347;2653;32768;0.8247664;0.5457063;-0.1177285;-0.0900277;-1;0;0;1123;-3594;-1586;256;0.06094183;-0.04847645;-0.5914127;-0.8026002;0;0;1;-155;3868;-1273;128;0.006925208;0.07479224;0.6454294;0.7601178;0;0;0;-457;4033;706;4;0.5107988;-0.4875346;0.5027701;0.4986149;-1;0;0;57;3956;70;16;0.6385041;-0.76638;-0.0235457;-0.06648199;0;0;0;133;3986;666;2;0.5552359;-0.5083103;-0.4556787;-0.4750692;0;-2;0;-281;4096;177;8;0.6509695;-0.7521528;0;0.1024931;0;-1;0;-551;4015;627;0.4788888;2.826661;-0.1822818;0.4848511;3.370013;-0.230814;0.4900899;3.847438;-0.2754884;0.4616892;4.548396;-0.06028342;0.1901303;4.860647;-0.00109262;-0.1447183;4.694379;0.01815063;-0.8484604;5.204317;-0.3028447;-0.9391257;6.078833;-0.6561145;0.7100477;4.881716;-0.001092523;1.004908;4.740963;0.01815125;1.754288;5.289976;-0.2373672;2.081866;6.12277;-0.5487075;0.1666285;2.784082;-0.1858583;0.1311111;1.321732;-0.2194615;0;0;0;0.1666285;2.784082;-0.1858583;0.1311111;1.321732;-0.2194615;0;0;0
63866.0389;NotLabelled;NONE;16384;0.7654971;0.4529086;0.4252077;0.16759;0;0;-1;2474;-2284;2155;65536;0.8057669;0.5692521;-0.02077562;0.1620499;1;1;-1;-1001;-3756;-1234;8192;0.8237982;0.3975069;-0.3905817;-0.1038781;1;0;0;-1980;-2359;2661;32768;0.8247664;0.5457063;-0.1177285;-0.0900277;-1;0;0;1117;-3624;-1606;256;0.06094183;-0.04847645;-0.5914127;-0.8026002;0;0;0;-243;3908;-1225;128;0.006925208;0.07479224;0.6454294;0.7601178;0;0;0;-407;4093;734;4;0.5107988;-0.4875346;0.5027701;0.4986149;0;1;0;45;4070;40;16;0.6385041;-0.76638;-0.0235457;-0.06648199;0;2;0;157;3946;734;2;0.5552359;-0.5083103;-0.4556787;-0.4750692;0;-1;0;-275;4072;167;8;0.6509695;-0.7521528;0;0.1024931;0;0;0;-617;4045;673;0.4788891;2.826661;-0.1822813;0.4848514;3.370013;-0.2308115;0.4900903;3.847438;-0.2754841;0.4616896;4.548397;-0.06027919;0.1901308;4.860647;-0.001088448;-0.1447178;4.694378;0.01815452;-0.8467856;5.205392;-0.3047913;-0.9374512;6.079908;-0.658061;0.7100481;4.881716;-0.001088247;1.004908;4.740963;0.01815563;1.754288;5.289976;-0.2373622;2.081866;6.122771;-0.5487021;0.1666289;2.784081;-0.1858581;0.1311113;1.321731;-0.2194614;0;0;0;0.1666289;2.784081;-0.1858581;0.1311113;1.321731;-0.2194614;0;0;0
63887.0168;NotLabelled;NONE;16384;0.7654971;0.4529086;0.4252077;0.16759;0;0;-1;2596;-2328;2249;65536;0.8060787;0.5692521;-0.01939058;0.1606648;0;1;-1;-995;-3886;-1230;8192;0.8236224;0.3975069;-0.3905817;-0.1052632;1;1;1;-1952;-2355;2729;32768;0.8256811;0.5443213;-0.1177285;-0.0900277;-1;1;0;1151;-3634;-1600;256;0.06094183;-0.04986149;-0.5914127;-0.8025154;0;0;0;-187;3934;-1287;128;0.006925208;0.07479224;0.6454294;0.7601178;0;0;0;-421;4047;692;4;0.5107988;-0.4875346;0.5027701;0.4986149;0;0;0;103;4106;62;16;0.6385041;-0.76638;-0.0235457;-0.06648199;-1;0;0;167;4016;768;2;0.5552359;-0.5083103;-0.4556787;-0.4750692;0;1;0;-235;4092;87;8;0.6509695;-0.7521528;0;0.1024931;0;0;0;-487;4057;629;0.4788891;2.826661;-0.1822813;0.4848514;3.370013;-0.2308115;0.4900903;3.847438;-0.2754841;0.4616896;4.548397;-0.06027919;0.1901308;4.860647;-0.001088448;-0.1447178;4.694378;0.01815452;-0.8484594;5.204318;-0.302841;-0.9400308;6.079898;-0.6532292;0.7100481;4.881716;-0.001088247;1.004908;4.740963;0.01815563;1.752917;5.290759;-0.2396858;2.080495;6.123553;-0.5510257;0.1666289;2.784081;-0.1858581;0.1311113;1.321731;-0.2194614;0;0;0;0.1666289;2.784081;-0.1858581;0.1311113;1.321731;-0.2194614;0;0;0
63908.0417;NotLabelled;NONE;16384;0.7654971;0.4529086;0.4252077;0.16759;0;0;0;2630;-2264;2143;65536;0.8060787;0.5692521;-0.01939058;0.1606648;0;1;0;-1045;-3868;-1142;8192;0.8236224;0.3975069;-0.3905817;-0.1052632;2;0;0;-1946;-2261;2687;32768;0.8256811;0.5443213;-0.1177285;-0.0900277;-1;1;0;1177;-3666;-1570;256;0.06094183;-0.04986149;-0.5914127;-0.8025154;0;0;0;-113;3948;-1237;128;0.006925208;0.07479224;0.6454294;0.7601178;0;0;0;-459;4097;706;4;0.5107988;-0.4875346;0.5027701;0.4986149;0;0;-1;133;4096;126;16;0.6385041;-0.76638;-0.0235457;-0.06648199;0;0;0;201;4016;716;2;0.5552359;-0.5083103;-0.4556787;-0.4750692;0;2;0;-291;4128;47;8;0.6509695;-0.7521528;0;0.1024931;0;0;0;-463;3989;587;0.4793032;2.826661;-0.1819094;0.4852655;3.370013;-0.2304396;0.4905043;3.847439;-0.2751123;0.4632602;4.548448;-0.05992152;0.192217;4.861146;-0.0007370077;-0.1429055;4.695431;0.01850949;-0.8459293;5.205371;-0.3040556;-0.9373053;6.080811;-0.6548443;0.7121682;4.881357;-0.0007373244;1.006796;4.740119;0.0185093;1.756288;5.288736;-0.2375275;2.084963;6.12031;-0.5509685;0.167043;2.784082;-0.1854861;0.1316006;1.321732;-0.2191684;0;0;0;0.167043;2.784082;-0.1854861;0.1316006;1.321732;-0.2191684;0;0;0
63928.1765;NotLabelled;NONE;16384;0.7654971;0.4529086;0.4252077;0.16759;-1;0;0;2572;-2272;2173;65536;0.8060787;0.5692521;-0.01939058;0.1606648;0;2;0;-943;-3814;-1180;8192;0.8236317;0.3961219;-0.3919668;-0.1052632;1;0;0;-2012;-2309;2717;32768;0.8255289;0.5443213;-0.1177285;-0.09141274;-1;0;0;1195;-3702;-1638;256;0.06094183;-0.04986149;-0.5914127;-0.8025154;0;0;0;-187;3892;-1229;128;0.006925208;0.07479224;0.6454294;0.7601178;0;0;0;-421;4055;668;4;0.5107988;-0.4875346;0.5027701;0.4986149;0;0;0;79;4084;116;16;0.6385041;-0.76638;-0.0235457;-0.06648199;0;0;0;163;3986;746;2;0.5540963;-0.5083103;-0.4570637;-0.4750692;0;0;0;-287;4094;173;8;0.6509695;-0.7521528;0;0.1024931;0;-1;0;-519;4007;627;0.4793032;2.826661;-0.1819094;0.4852655;3.370013;-0.2304396;0.4905043;3.847439;-0.2751123;0.4632602;4.548448;-0.05992152;0.192217;4.861146;-0.0007370077;-0.1429055;4.695431;0.01850949;-0.8459293;5.205371;-0.3040556;-0.9373053;6.080811;-0.6548443;0.7121682;4.881357;-0.0007373244;1.006796;4.740119;0.0185093;1.756288;5.288736;-0.2375275;2.084963;6.12031;-0.5509685;0.167043;2.784082;-0.1854861;0.1316006;1.321732;-0.2191684;0;0;0;0.167043;2.784082;-0.1854861;0.1316006;1.321732;-0.2191684;0;0;0
63950.0856;NotLabelled;NONE;16384;0.7654971;0.4529086;0.4252077;0.16759;-1;0;0;2586;-2284;2145;65536;0.8063535;0.5692521;-0.01939058;0.1592798;0;1;0;-949;-3796;-1198;8192;0.8236317;0.3961219;-0.3919668;-0.1052632;1;0;0;-2056;-2301;2743;32768;0.8255289;0.5443213;-0.1177285;-0.09141274;-1;0;-1;1155;-3662;-1628;256;0.06094183;-0.04986149;-0.5914127;-0.8025154;1;0;0;-167;3944;-1237;128;0.006925208;0.07479224;0.6454294;0.7601178;0;0;0;-431;4051;702;4;0.5107988;-0.4875346;0.5027701;0.4986149;0;0;-1;19;4096;62;16;0.6385041;-0.76638;-0.0235457;-0.06648199;0;1;0;227;3968;724;2;0.5540963;-0.5083103;-0.4570637;-0.4750692;0;0;0;-269;4056;131;8;0.6509695;-0.7521528;0;0.1024931;0;0;0;-517;3999;593;0.4793032;2.826661;-0.1819094;0.4852655;3.370013;-0.2304396;0.4905043;3.847439;-0.2751123;0.4632602;4.548448;-0.05992152;0.192217;4.861146;-0.0007370077;-0.1429055;4.695431;0.01850949;-0.8459293;5.205371;-0.3040556;-0.9373053;6.080811;-0.6548443;0.7121682;4.881357;-0.0007373244;1.006796;4.740119;0.0185093;1.75819;5.286256;-0.237254;2.088243;6.117364;-0.5504825;0.167043;2.784082;-0.1854861;0.1316006;1.321732;-0.2191684;0;0;0;0.167043;2.784082;-0.1854861;0.1316006;1.321732;-0.2191684;0;0;0
63971.0324;NotLabelled;NONE;16384;0.765799;0.4529086;0.4252077;0.166205;0;1;0;2616;-2244;2141;65536;0.8063535;0.5692521;-0.01939058;0.1592798;0;2;0;-957;-3818;-1166;8192;0.8236317;0.3961219;-0.3919668;-0.1052632;1;0;0;-1964;-2279;2739;32768;0.8255289;0.5443213;-0.1177285;-0.09141274;-1;0;0;1213;-3598;-1582;256;0.06094183;-0.04986149;-0.5914127;-0.8025154;0;0;0;-149;3918;-1227;128;0.006925208;0.07617728;0.6454294;0.7599803;-1;-1;0;-417;4073;706;4;0.5107988;-0.4875346;0.5027701;0.4986149;0;0;0;3;4044;72;16;0.6385041;-0.7664213;-0.02216066;-0.06648199;0;0;0;241;4034;834;2;0.5540963;-0.5083103;-0.4570637;-0.4750692;0;-2;1;-317;4118;99;8;0.6509695;-0.7521528;0;0.1024931;0;0;0;-577;4021;615;0.4793032;2.826661;-0.1819094;0.4852655;3.370013;-0.2304396;0.4905043;3.847439;-0.2751123;0.4632602;4.548448;-0.05992152;0.192217;4.861146;-0.0007370077;-0.1429055;4.695431;0.01850949;-0.8459293;5.205371;-0.3040556;-0.9358187;6.081057;-0.6546155;0.7121682;4.881357;-0.0007373244;1.006796;4.740119;0.0185093;1.75819;5.286256;-0.237254;2.088243;6.117364;-0.5504825;0.167043;2.784082;-0.1854861;0.1316006;1.321732;-0.2191684;0;0;0;0.167043;2.784082;-0.1854861;0.1316006;1.321732;-0.2191684;0;0;0
63992.0601;NotLabelled;NONE;16384;0.765799;0.4529086;0.4252077;0.166205;0;0;0;2582;-2264;2119;65536;0.8063535;0.5692521;-0.01939058;0.1592798;0;0;0;-937;-3772;-1294;8192;0.8236317;0.3961219;-0.3919668;-0.1052632;0;0;0;-1936;-2295;2671;32768;0.8255289;0.5443213;-0.1177285;-0.09141274;0;1;0;1065;-3582;-1612;256;0.06094183;-0.04986149;-0.5914127;-0.8025154;0;0;1;-219;3892;-1215;128;0.006925208;0.07617728;0.6440443;0.7611544;0;0;0;-465;4037;706;4;0.5108251;-0.4889196;0.5027701;0.4972299;0;0;-1;21;4078;118;16;0.6385041;-0.7664213;-0.02216066;-0.06648199;0;0;0;221;4062;904;2;0.5540963;-0.5083103;-0.4570637;-0.4750692;1;0;1;-297;4144;77;8;0.6509695;-0.7521528;0;0.1024931;-1;-1;0;-497;4007;601;0.4816633;2.826484;-0.1815443;0.4876257;3.369838;-0.2300562;0.4928647;3.847265;-0.274713;0.4656208;4.548273;-0.05952205;0.1945777;4.860972;-0.0003371723;-0.1405448;4.695257;0.0189098;-0.8426573;5.20653;-0.3035285;-0.9325473;6.082216;-0.6540881;0.7145289;4.881183;-0.0003382266;1.009156;4.739945;0.01890796;1.76055;5.286074;-0.2368763;2.090603;6.117181;-0.5501055;0.1694033;2.783905;-0.1851226;0.1339608;1.321554;-0.2188049;0;0;0;0.1694033;2.783905;-0.1851226;0.1339608;1.321554;-0.2188049;0;0;0
64012.0782;NotLabelled;NONE;16384;0.7654971;0.4529086;0.4252077;0.16759;0;0;0;2578;-2246;2177;65536;0.8063535;0.5692521;-0.01939058;0.1592798;0;0;0;-967;-3774;-1256;8192;0.8236317;0.3961219;-0.3919668;-0.1052632;0;2;0;-2012;-2309;2679;32768;0.8255289;0.5443213;-0.1177285;-0.09141274;0;1;0;1119;-3630;-1670;256;0.06094183;-0.04986149;-0.5914127;-0.8025154;0;0;0;-221;3826;-1251;128;0.006925208;0.07617728;0.6440443;0.7611544;0;-1;0;-505;4065;694;4;0.5094582;-0.4889196;0.5041551;0.4972299;0;-2;-1;79;4064;118;16;0.6371191;-0.7676917;-0.02216066;-0.06509695;0;-1;0;177;3982;792;2;0.5540963;-0.5083103;-0.4570637;-0.4750692;1;0;1;-269;4104;83;8;0.6509695;-0.7521528;0;0.1024931;-1;-3;0;-499;4045;673;0.4822311;2.826541;-0.1853189;0.4881954;3.370067;-0.2318515;0.4934361;3.847654;-0.274769;0.4662309;4.548662;-0.05957326;0.1951984;4.861362;-0.0003397316;-0.1399207;4.695646;0.01896744;-0.842162;5.205753;-0.3050339;-0.9321146;6.081438;-0.6555774;0.7151495;4.881573;-0.0004340112;1.00978;4.740334;0.01875922;1.761072;5.285536;-0.2392935;2.091069;6.116643;-0.5525815;0.1699712;2.783975;-0.1890647;0.1339217;1.321555;-0.2188287;0;0;0;0.1699712;2.783975;-0.1890647;0.1339217;1.321555;-0.2188287;0;0;0
64034.426;NotLabelled;NONE;16384;0.7662648;0.4529086;0.4238227;0.16759;0;-1;0;2572;-2264;2171;65536;0.8063535;0.5692521;-0.01939058;0.1592798;0;0;1;-1001;-3772;-1256;8192;0.8236317;0.3961219;-0.3919668;-0.1052632;0;0;0;-1926;-2315;2717;32768;0.8255289;0.5443213;-0.1177285;-0.09141274;0;0;0;1185;-3598;-1648;256;0.06094183;-0.04986149;-0.5900277;-0.8035342;0;0;0;-223;3862;-1267;128;0.006925208;0.07617728;0.6440443;0.7611544;0;-1;0;-487;4073;756;4;0.5094582;-0.4889196;0.5041551;0.4972299;0;-1;-1;11;4120;42;16;0.6371191;-0.7675729;-0.02216066;-0.06648199;0;-1;0;251;3970;804;2;0.5552359;-0.5083103;-0.4556787;-0.4750692;0;-2;1;-343;4070;129;8;0.6509695;-0.7521528;0;0.1024931;0;-2;0;-493;4013;629;0.4812156;2.825839;-0.1948886;0.4871798;3.369365;-0.2414213;0.4924205;3.846952;-0.2843388;0.4651763;4.547961;-0.06914791;0.194133;4.86066;-0.009963393;-0.1409896;4.694944;0.009283144;-0.8440133;5.204884;-0.3132819;-0.9339029;6.080569;-0.6638417;0.7140843;4.880871;-0.009963661;1.008712;4.739632;0.009282887;1.760106;5.285769;-0.2464804;2.090161;6.116878;-0.5597088;0.1689555;2.783273;-0.1986343;0.132237;1.320793;-0.2243797;0;0;0;0.1689555;2.783273;-0.1986343;0.132237;1.320793;-0.2243797;0;0;0
64056.1905;NotLabelled;NONE;16384;0.7662648;0.4529086;0.4238227;0.16759;0;0;0;2608;-2252;2219;65536;0.8063535;0.5692521;-0.01939058;0.1592798;0;0;0;-963;-3770;-1266;8192;0.8242894;0.3961219;-0.3905817;-0.1052632;0;0;0;-1916;-2313;2697;32768;0.8266367;0.5429363;-0.1163435;-0.09141274;0;0;0;1177;-3626;-1680;256;0.06094183;-0.04986149;-0.5900277;-0.8035342;0;0;0;-189;3852;-1251;128;0.005540166;0.07617728;0.6440443;0.7611657;0;-2;0;-447;4097;748;4;0.5094582;-0.4889196;0.5041551;0.4972299;0;-2;-1;49;4104;144;16;0.6385041;-0.7665401;-0.02216066;-0.06509695;0;-2;0;277;4070;818;2;0.5539647;-0.5096953;-0.4556787;-0.4750692;0;-3;1;-241;4106;173;8;0.6509695;-0.7521528;0;0.1024931;0;-1;0;-545;4023;651;0.4839365;2.825718;-0.1939822;0.4899008;3.369245;-0.2405148;0.4951415;3.846831;-0.2834323;0.4677421;4.547091;-0.06583601;0.1966247;4.859514;-0.005544126;-0.1384518;4.693645;0.01317851;-0.839819;5.204659;-0.3112873;-0.9297314;6.080345;-0.6618413;0.7165706;4.879861;-0.005543783;1.011238;4.738636;0.01317963;1.762615;5.284773;-0.2426327;2.092649;6.11588;-0.5558828;0.1716765;2.783153;-0.1977281;0.1349562;1.320672;-0.2234709;0;0;0;0.1716765;2.783153;-0.1977281;0.1349562;1.320672;-0.2234709;0;0;0
64077.0943;NotLabelled;NONE;16384;0.7662648;0.4529086;0.4238227;0.16759;0;1;0;2610;-2304;2243;65536;0.8063535;0.5692521;-0.01939058;0.1592798;0;1;0;-987;-3792;-1320;8192;0.8242894;0.3961219;-0.3905817;-0.1052632;0;0;0;-1992;-2311;2729;32768;0.8266367;0.5429363;-0.1163435;-0.09141274;1;0;0;1121;-3666;-1602;256;0.06094183;-0.04986149;-0.5900277;-0.8035342;0;0;0;-191;3912;-1317;128;0.005540166;0.07617728;0.6440443;0.7611657;0;-1;0;-419;4099;746;4;0.5094582;-0.4889196;0.5041551;0.4972299;0;-3;-2;53;4076;50;16;0.6385041;-0.7665401;-0.02216066;-0.06509695;0;-3;0;269;4086;674;2;0.5551495;-0.5096953;-0.4556787;-0.4736842;0;-2;1;-209;4134;117;8;0.6509695;-0.7521528;0;0.1024931;0;0;0;-523;4015;659;0.4801976;2.826722;-0.1902417;0.4861619;3.370248;-0.2367769;0.4914025;3.847835;-0.2796968;0.4640031;4.548095;-0.06210059;0.1928857;4.860517;-0.001808636;-0.1421907;4.694649;0.01691402;-0.8435577;5.205663;-0.3075517;-0.9334701;6.081348;-0.6581055;0.7128318;4.880865;-0.001808375;1.007499;4.739639;0.01691493;1.757509;5.286561;-0.241224;2.085933;6.116881;-0.5582308;0.1679376;2.784156;-0.1939873;0.1312174;1.321676;-0.2197301;0;0;0;0.1679376;2.784156;-0.1939873;0.1312174;1.321676;-0.2197301;0;0;0
64098.0365;NotLabelled;NONE;16384;0.765799;0.4529086;0.4252077;0.166205;-1;0;0;2580;-2302;2191;65536;0.806658;0.5692521;-0.01800554;0.1578947;0;2;0;-1001;-3792;-1284;8192;0.8241114;0.3961219;-0.3905817;-0.1066482;-1;0;0;-2032;-2309;2693;32768;0.8264823;0.5429363;-0.1163435;-0.09279778;1;-1;-2;1191;-3676;-1660;256;0.06094183;-0.04986149;-0.5900277;-0.8035342;0;0;0;-207;3940;-1241;128;0.005540166;0.07756232;0.6440443;0.7610258;-2;-2;0;-497;4055;738;4;0.5080838;-0.4889196;0.5055401;0.4972299;0;-1;-2;59;4102;162;16;0.6385041;-0.7665789;-0.02077562;-0.06509695;1;-2;0;221;4026;580;2;0.5551495;-0.5096953;-0.4556787;-0.4736842;0;-2;2;-211;4158;109;8;0.6509695;-0.7521528;0;0.1024931;0;0;0;-589;4051;631;0.4801976;2.826722;-0.1902417;0.4861619;3.370248;-0.2367769;0.4914025;3.847835;-0.2796968;0.4640031;4.548095;-0.06210059;0.1928857;4.860517;-0.001808636;-0.1421907;4.694649;0.01691402;-0.8435577;5.205663;-0.3075517;-0.9334701;6.081348;-0.6581055;0.7128318;4.880865;-0.001808375;1.007499;4.739639;0.01691493;1.757509;5.286561;-0.241224;2.085933;6.116881;-0.5582308;0.1679376;2.784156;-0.1939873;0.1312174;1.321676;-0.2197301;0;0;0;0.1679376;2.784156;-0.1939873;0.1312174;1.321676;-0.2197301;0;0;0
64120.128;NotLabelled;NONE;16384;0.765799;0.4529086;0.4252077;0.166205;0;0;0;2608;-2220;2191;65536;0.806658;0.5692521;-0.01800554;0.1578947;1;1;0;-1005;-3798;-1314;8192;0.8241114;0.3961219;-0.3905817;-0.1066482;-1;0;0;-1932;-2339;2685;32768;0.8264823;0.5429363;-0.1163435;-0.09279778;1;0;-2;1147;-3686;-1640;256;0.06094183;-0.04986149;-0.5900277;-0.8035342;0;0;0;-159;3892;-1297;128;0.005540166;0.07756232;0.6440443;0.7610258;-1;-1;0;-461;4035;724;4;0.5080838;-0.4889196;0.5055401;0.4972299;-1;0;-2;31;4096;104;16;0.6385041;-0.7665789;-0.02077562;-0.06509695;0;0;0;147;4044;602;2;0.5550562;-0.5110803;-0.4556787;-0.4722992;0;-1;3;-259;4100;101;8;0.6509695;-0.7521528;0;0.1024931;0;1;0;-565;4013;679;0.4832116;2.826595;-0.1939165;0.4891759;3.370123;-0.2404331;0.4944165;3.847711;-0.2833365;0.4670172;4.547971;-0.06574026;0.1958998;4.860394;-0.005448274;-0.1391766;4.694525;0.01327441;-0.841309;5.20581;-0.3091037;-0.9318114;6.081357;-0.6598474;0.7158458;4.880741;-0.005448028;1.010513;4.739515;0.0132753;1.761427;5.285258;-0.2447292;2.091225;6.115114;-0.5615247;0.1709516;2.784029;-0.1976637;0.1335774;1.3215;-0.2193666;0;0;0;0.1709516;2.784029;-0.1976637;0.1335774;1.3215;-0.2193666;0;0;0
64141.356;NotLabelled;NONE;16384;0.7649782;0.4542936;0.4252077;0.166205;-1;0;0;2556;-2262;2169;65536;0.806658;0.5692521;-0.01800554;0.1578947;1;0;0;-1005;-3770;-1310;8192;0.8241114;0.3961219;-0.3905817;-0.1066482;-1;1;0;-1974;-2323;2693;32768;0.8255708;0.5443213;-0.1163435;-0.09279778;1;0;-1;1221;-3634;-1644;256;0.06094183;-0.04986149;-0.5900277;-0.8035342;0;-1;0;-181;3888;-1271;128;0.004155125;0.07756232;0.6426592;0.7622046;-1;-1;0;-477;4027;706;4;0.5080838;-0.4889196;0.5055401;0.4972299;0;0;-1;57;4056;116;16;0.6385041;-0.7665789;-0.02077562;-0.06509695;0;-1;0;179;4054;734;2;0.5550562;-0.5110803;-0.4556787;-0.4722992;0;-3;2;-245;4116;21;8;0.6509695;-0.7521528;0;0.1024931;1;0;0;-479;4059;575;0.4832116;2.826595;-0.1939165;0.4891759;3.370123;-0.2404331;0.4944165;3.847711;-0.2833365;0.4670172;4.547971;-0.06574026;0.1958998;4.860394;-0.005448274;-0.1391766;4.694525;0.01327441;-0.841309;5.20581;-0.3091037;-0.9318114;6.081357;-0.6598474;0.7158458;4.880741;-0.005448028;1.010513;4.739515;0.0132753;1.761427;5.285258;-0.2447292;2.091225;6.115114;-0.5615247;0.1709516;2.784029;-0.1976637;0.1335774;1.3215;-0.2193666;0;0;0;0.1709516;2.784029;-0.1976637;0.1335774;1.3215;-0.2193666;0;0;0
64162.0285;NotLabelled;NONE;16384;0.7649782;0.4542936;0.4252077;0.166205;-1;0;0;2624;-2292;2177;65536;0.806658;0.5692521;-0.01800554;0.1578947;2;0;0;-959;-3748;-1282;8192;0.8241114;0.3961219;-0.3905817;-0.1066482;0;1;0;-1988;-2291;2691;32768;0.8255708;0.5443213;-0.1163435;-0.09279778;1;1;0;1221;-3518;-1544;256;0.06094183;-0.04986149;-0.5900277;-0.8035342;0;-1;0;-181;3908;-1253;128;0.004155125;0.07894737;0.6426592;0.7620624;-1;-2;0;-435;4013;678;4;0.5080838;-0.4889196;0.5055401;0.4972299;0;-2;0;67;4126;130;16;0.6385041;-0.7665789;-0.02077562;-0.06509695;0;-2;0;239;3972;746;2;0.5537777;-0.5124654;-0.4556787;-0.4722992;0;-4;2;-213;4148;123;8;0.6509695;-0.7521528;0;0.1024931;1;0;0;-499;4035;565;0.4832114;2.826581;-0.1937512;0.4891774;3.370274;-0.2382981;0.4944198;3.848014;-0.2794708;0.4670204;4.548274;-0.06187485;0.195903;4.860697;-0.001583114;-0.1391734;4.694828;0.01713963;-0.8414433;5.207387;-0.302905;-0.9319459;6.082935;-0.6536492;0.7158489;4.881044;-0.001582772;1.010516;4.739819;0.01714066;1.761431;5.285562;-0.2408644;2.090836;6.116647;-0.5548333;0.1709515;2.784029;-0.197665;0.1335773;1.3215;-0.2193672;0;0;0;0.1709515;2.784029;-0.197665;0.1335773;1.3215;-0.2193672;0;0;0
64182.2066;NotLabelled;NONE;16384;0.7652778;0.4542936;0.4252077;0.1648199;-2;0;0;2538;-2290;2219;65536;0.806658;0.5692521;-0.01800554;0.1578947;2;1;0;-927;-3808;-1286;8192;0.8241114;0.3961219;-0.3905817;-0.1066482;0;0;0;-1906;-2285;2711;32768;0.8255708;0.5443213;-0.1163435;-0.09279778;1;0;0;1151;-3558;-1532;256;0.06094183;-0.04986149;-0.5900277;-0.8035342;1;-1;0;-171;3908;-1225;128;0.004155125;0.07894737;0.6426592;0.7620624;-1;-2;0;-513;4045;708;4;-0.5055401;0.4889196;-0.5080838;-0.4972299;-1;-3;-1;-15;4104;104;16;0.6385041;-0.7666152;-0.01939058;-0.06509695;0;-4;0;247;3994;716;2;0.554956;-0.5124654;-0.4556787;-0.4709141;0;-3;1;-195;4152;129;8;0.6509695;-0.7521528;0;0.1024931;0;1;0;-593;4003;557;0.4832116;2.826581;-0.1937484;0.4891776;3.370275;-0.238277;0.4944201;3.848017;-0.2794335;0.4670207;4.548277;-0.06183726;0.1959033;4.860699;-0.001545373;-0.1391731;4.694831;0.01717728;-0.8414423;5.20739;-0.3028691;-0.9319449;6.082939;-0.6536131;0.7158493;4.881047;-0.001545057;1.010516;4.73982;0.01717839;1.761432;5.285564;-0.2408243;2.090838;6.116649;-0.5547929;0.1709518;2.784029;-0.1976638;0.1335775;1.3215;-0.2193667;0;0;0;0.1709518;2.784029;-0.1976638;0.1335775;1.3215;-0.2193667;0;0;0
64203.0701;NotLabelled;NONE;16384;0.7652778;0.4542936;0.4252077;0.1648199;-2;0;0;2546;-2262;2205;65536;0.806658;0.5692521;-0.01800554;0.1578947;2;1;0;-845;-3802;-1208;8192;0.8241114;0.3961219;-0.3905817;-0.1066482;-1;0;1;-1906;-2291;2699;32768;0.8255708;0.5443213;-0.1163435;-0.09279778;0;-2;0;1117;-3588;-1580;256;0.06094183;-0.04986149;-0.5900277;-0.8035342;0;0;0;-135;3922;-1285;128;0.004155125;0.07894737;0.6426592;0.7620624;0;0;0;-481;3975;754;4;-0.5055401;0.4889196;-0.5080838;-0.4972299;0;-2;-2;25;4070;44;16;0.6385041;-0.7667316;-0.01939058;-0.06371191;1;-3;0;137;4042;668;2;0.554956;-0.5124654;-0.4556787;-0.4709141;0;-2;2;-97;4114;43;8;0.6509695;-0.7523403;0;0.101108;0;1;0;-513;3983;583;0.4867193;2.826462;-0.2008425;0.4926854;3.370157;-0.245371;0.4979278;3.847898;-0.2865276;0.4705284;4.548158;-0.06893131;0.199411;4.86058;-0.008639432;-0.1356654;4.694712;0.01008322;-0.8370177;5.208615;-0.3098194;-0.9275205;6.084163;-0.6605632;0.719357;4.880928;-0.008639142;1.014024;4.739702;0.01008433;1.764939;5.285445;-0.2479206;2.094344;6.11653;-0.5618892;0.1744595;2.78391;-0.2047579;0.135937;1.32132;-0.2190036;0;0;0;0.1744595;2.78391;-0.2047579;0.135937;1.32132;-0.2190036;0;0;0
64224.0746;NotLabelled;NONE;16384;0.7652778;0.4542936;0.4252077;0.1648199;-2;0;0;2562;-2332;2175;65536;0.8056788;0.5706371;-0.01800554;0.1578947;1;1;1;-943;-3694;-1124;8192;0.8241114;0.3961219;-0.3905817;-0.1066482;-1;0;0;-1976;-2373;2613;32768;0.8253744;0.5443213;-0.1177285;-0.09279778;0;0;0;1167;-3588;-1540;256;0.06094183;-0.04986149;-0.5900277;-0.8035342;0;0;1;-175;3940;-1293;128;0.004155125;0.07894737;0.6426592;0.7620624;0;0;0;-461;4071;762;4;-0.5055401;0.4889196;-0.5080838;-0.4972299;0;0;-1;91;4090;78;16;0.6385041;-0.7667316;-0.01939058;-0.06371191;0;-1;0;207;3982;756;2;0.5536737;-0.5138504;-0.4556787;-0.4709141;1;1;2;-233;4062;115;8;0.6509695;-0.7523403;0;0.101108;0;0;0;-507;4039;685;0.4839866;2.82659;-0.2017492;0.4899527;3.370285;-0.2462777;0.4951951;3.848026;-0.2874343;0.4677957;4.548286;-0.06983802;0.1966783;4.860708;-0.009546138;-0.1383982;4.69484;0.009176515;-0.8397505;5.208743;-0.3107261;-0.9302533;6.084291;-0.6614699;0.7166243;4.881056;-0.009545818;1.011291;4.73983;0.009177655;1.762206;5.285573;-0.2488273;2.091612;6.116658;-0.5627959;0.1717267;2.784038;-0.2056645;0.1332042;1.321447;-0.2199103;0;0;0;0.1717267;2.784038;-0.2056645;0.1332042;1.321447;-0.2199103;0;0;0
64244.3206;NotLabelled;NONE;16384;0.7644539;0.4556787;0.4252077;0.1648199;-1;0;-1;2518;-2244;2117;65536;0.805949;0.5706371;-0.01800554;0.1565097;0;2;1;-999;-3782;-1186;8192;0.8241114;0.3961219;-0.3905817;-0.1066482;0;0;0;-1978;-2323;2661;32768;0.8255708;0.5443213;-0.1163435;-0.09279778;0;0;0;1205;-3592;-1552;256;0.06094183;-0.04986149;-0.5900277;-0.8035342;0;0;1;-175;3904;-1189;128;0.004155125;0.07894737;0.6426592;0.7620624;0;0;0;-471;4061;702;4;-0.5055401;0.4875346;-0.5094129;-0.4972299;0;0;-1;37;3996;84;16;0.6385041;-0.7667654;-0.01800554;-0.06371191;0;-1;0;231;4022;738;2;0.5548488;-0.5138504;-0.4556787;-0.4695291;0;0;2;-227;4124;129;8;0.6509695;-0.7523403;0;0.101108;0;1;0;-599;4025;533;0.4839866;2.82659;-0.2017492;0.4899527;3.370285;-0.2462777;0.4951951;3.848026;-0.2874343;0.4677957;4.548286;-0.06983802;0.1966783;4.860708;-0.009546138;-0.1383982;4.69484;0.009176515;-0.8397505;5.208743;-0.3107261;-0.9311512;6.085349;-0.6585812;0.7166243;4.881056;-0.009545818;1.011291;4.73983;0.009177655;1.762206;5.285573;-0.2488273;2.093616;6.116211;-0.5618653;0.1717267;2.784038;-0.2056645;0.1332042;1.321447;-0.2199103;0;0;0;0.1717267;2.784038;-0.2056645;0.1332042;1.321447;-0.2199103;0;0;0
64265.0891;NotLabelled;NONE;16384;0.7639794;0.4556787;0.4265928;0.1634349;-1;1;-1;2566;-2222;2101;65536;0.8059788;0.5706371;-0.0166205;0.1565097;0;2;0;-949;-3754;-1166;8192;0.8241114;0.3961219;-0.3905817;-0.1066482;0;0;0;-1956;-2345;2677;32768;0.8255708;0.5443213;-0.1163435;-0.09279778;0;1;1;1127;-3552;-1604;256;0.06094183;-0.04986149;-0.5900277;-0.8035342;0;0;0;-215;3844;-1229;128;0.004155125;0.07894737;0.6426592;0.7620624;0;-1;0;-421;4051;690;4;-0.5055401;0.4889196;-0.5080838;-0.4972299;0;0;0;-5;4072;100;16;0.6385041;-0.7667654;-0.01800554;-0.06371191;0;-1;0;213;3984;734;2;0.5548488;-0.5138504;-0.4556787;-0.4695291;0;-1;1;-171;4174;41;8;0.6509695;-0.7523403;0;0.101108;0;0;0;-451;4033;647;0.4902809;2.826296;-0.2007801;0.4962469;3.36999;-0.2453087;0.5014893;3.847731;-0.2864653;0.47409;4.547992;-0.06886894;0.2029725;4.860414;-0.008577071;-0.1321039;4.694546;0.01014558;-0.8335888;5.209719;-0.3074154;-0.9235;6.086571;-0.655041;0.7229185;4.880761;-0.008576766;1.017586;4.739535;0.01014671;1.7685;5.285278;-0.2478583;2.097906;6.116364;-0.5618268;0.178021;2.783744;-0.2046955;0.1355634;1.321268;-0.219547;0;0;0;0.178021;2.783744;-0.2046955;0.1355634;1.321268;-0.219547;0;0;0
64286.2089;NotLabelled;NONE;16384;0.7639794;0.4556787;0.4265928;0.1634349;-1;0;0;2600;-2338;2107;65536;0.8059788;0.5706371;-0.0166205;0.1565097;0;1;0;-929;-3774;-1208;8192;0.8234442;0.3975069;-0.3905817;-0.1066482;0;0;0;-1996;-2333;2681;32768;0.8246559;0.5457063;-0.1163435;-0.09279778;0;1;0;1149;-3688;-1552;256;0.06094183;-0.04986149;-0.5886427;-0.8045494;0;0;1;-227;3902;-1237;128;0.004155125;0.07894737;0.6426592;0.7620624;0;-1;0;-449;4061;668;4;-0.5055401;0.4889196;-0.5080838;-0.4972299;0;0;0;43;4072;68;16;0.6385041;-0.7667654;-0.01800554;-0.06371191;0;0;0;187;4000;714;2;0.5548488;-0.5138504;-0.4556787;-0.4695291;0;0;1;-135;4174;43;8;0.6509695;-0.7523403;0;0.101108;0;0;0;-543;4049;633;0.4863457;2.826411;-0.2013859;0.4923118;3.370105;-0.2459145;0.4975542;3.847847;-0.2870711;0.4701548;4.548107;-0.06947477;0.1990375;4.860529;-0.0091829;-0.1360389;4.694661;0.009539753;-0.8382713;5.210104;-0.3059233;-0.9302583;6.086577;-0.6539606;0.7189834;4.880877;-0.009182587;1.013651;4.73965;0.009540886;1.764565;5.285393;-0.2484641;2.093971;6.116478;-0.5624326;0.1740859;2.783859;-0.2053013;0.1355634;1.321268;-0.219547;0;0;0;0.1740859;2.783859;-0.2053013;0.1355634;1.321268;-0.219547;0;0;0
64307.3728;NotLabelled;NONE;16384;0.7639794;0.4556787;0.4265928;0.1634349;0;1;-1;2602;-2304;2131;65536;0.8059788;0.5706371;-0.0166205;0.1565097;0;2;0;-903;-3784;-1162;8192;0.8234442;0.3975069;-0.3905817;-0.1066482;0;1;0;-2014;-2381;2679;32768;0.8246559;0.5457063;-0.1163435;-0.09279778;0;1;0;1187;-3640;-1572;256;0.06094183;-0.05124654;-0.5886427;-0.8044624;0;0;1;-135;3866;-1283;128;0.004155125;0.08033241;0.6426592;0.7619177;0;-1;0;-471;4099;736;4;-0.5055401;0.4889196;-0.5080838;-0.4972299;0;-1;-1;21;4104;98;16;0.6385041;-0.7667654;-0.01800554;-0.06371191;0;0;0;227;4070;764;2;0.5535629;-0.5152354;-0.4556787;-0.4695291;0;0;1;-201;4190;147;8;0.6509695;-0.7523403;0;0.101108;0;0;0;-573;4003;623;0.4863319;2.82641;-0.2013978;0.492298;3.370105;-0.2459264;0.4975404;3.847846;-0.2870829;0.4699872;4.547349;-0.06708658;0.1987961;4.859493;-0.005688764;-0.1362343;4.693473;0.01251101;-0.838488;5.208918;-0.3029041;-0.9304991;6.08539;-0.6509355;0.7187368;4.879977;-0.005688921;1.013443;4.738764;0.01251104;1.763809;5.286203;-0.2434909;2.0928;6.118509;-0.5546477;0.1740721;2.783858;-0.2053131;0.1355486;1.321268;-0.2195562;0;0;0;0.1740721;2.783858;-0.2053131;0.1355486;1.321268;-0.2195562;0;0;0
64328.0584;NotLabelled;NONE;16384;0.7639794;0.4556787;0.4265928;0.1634349;0;2;-1;2550;-2266;2187;65536;0.8062739;0.5706371;-0.01523546;0.1551246;-2;2;1;-947;-3830;-1138;8192;0.8234442;0.3975069;-0.3905817;-0.1066482;0;0;0;-2058;-2257;2755;32768;0.8246559;0.5457063;-0.1163435;-0.09279778;0;0;0;1179;-3650;-1578;256;0.06094183;-0.05124654;-0.5900277;-0.8034471;-1;0;0;-215;3988;-1213;128;0.004155125;0.08033241;0.6426592;0.7619177;0;-1;0;-491;4075;692;4;-0.5041551;0.4889196;-0.5094582;-0.4972299;0;-1;0;-31;4136;124;16;0.6385041;-0.7667654;-0.01800554;-0.06371191;0;0;0;225;3992;712;2;0.5535629;-0.5152354;-0.4556787;-0.4695291;-1;-1;1;-269;4048;83;8;0.6509695;-0.7523403;0;0.101108;0;1;0;-543;4037;557;0.486791;2.82641;-0.2010062;0.4927571;3.370106;-0.2455156;0.4979995;3.847849;-0.2866553;0.471595;4.547401;-0.06667292;0.200917;4.859991;-0.005281471;-0.1343858;4.694522;0.01292131;-0.8359314;5.209966;-0.304065;-0.927163;6.086439;-0.6523012;0.7208906;4.879621;-0.005281612;1.015365;4.737925;0.01292139;1.766302;5.285364;-0.2414005;2.095989;6.117671;-0.5518204;0.1745311;2.783858;-0.2049232;0.1360396;1.321268;-0.2192524;0;0;0;0.1745311;2.783858;-0.2049232;0.1360396;1.321268;-0.2192524;0;0;0
64348.0271;NotLabelled;NONE;16384;0.7639794;0.4556787;0.4265928;0.1634349;0;2;-1;2536;-2262;2191;65536;0.8062739;0.5706371;-0.01523546;0.1551246;-2;3;0;-941;-3826;-1224;8192;0.8241114;0.3961219;-0.3905817;-0.1066482;1;-1;0;-2006;-2305;2765;32768;0.8246559;0.5457063;-0.1163435;-0.09279778;-1;-1;-1;1115;-3720;-1560;256;0.06094183;-0.05124654;-0.5900277;-0.8034471;0;0;0;-195;3938;-1279;128;0.004155125;0.08033241;0.6426592;0.7619177;0;-2;0;-459;4031;652;4;-0.5041551;0.4889196;-0.5094582;-0.4972299;0;0;0;21;4096;100;16;0.6385041;-0.7667654;-0.01800554;-0.06371191;0;0;0;223;4036;774;2;0.5535629;-0.5152354;-0.4556787;-0.4695291;0;-1;1;-215;4080;65;8;0.6509695;-0.7523403;0;0.101108;0;0;0;-543;4003;569;0.4874044;2.826428;-0.2050433;0.4933704;3.370124;-0.2495526;0.4986128;3.847867;-0.2906923;0.4723664;4.548175;-0.07310969;0.2017638;4.861045;-0.01282378;-0.1335854;4.695729;0.00590213;-0.8351108;5.211173;-0.311129;-0.9269098;6.087514;-0.6595479;0.7217425;4.880537;-0.01282397;1.016177;4.738826;0.005902141;1.76713;5.286264;-0.2483718;2.096836;6.118571;-0.5587704;0.1751445;2.783876;-0.2089601;0.1360536;1.321268;-0.2192436;0;0;0;0.1751445;2.783876;-0.2089601;0.1360536;1.321268;-0.2192436;0;0;0
64369.0993;NotLabelled;NONE;16384;0.7648038;0.4542936;0.4265928;0.1634349;1;1;0;2582;-2318;2167;65536;0.8062739;0.5706371;-0.01523546;0.1551246;-2;3;0;-975;-3804;-1250;8192;0.8241114;0.3961219;-0.3905817;-0.1066482;0;0;0;-2026;-2345;2699;32768;0.8246559;0.5457063;-0.1163435;-0.09279778;-1;-1;-1;1149;-3656;-1522;256;0.06094183;-0.05124654;-0.5900277;-0.8034471;0;0;0;-157;3884;-1287;128;0.004155125;0.08033241;0.6426592;0.7619177;0;-1;0;-487;4061;722;4;-0.5041551;0.4889196;-0.5094582;-0.4972299;0;0;0;-13;4112;112;16;0.6385041;-0.7667654;-0.01800554;-0.06371191;0;0;0;197;4006;772;2;0.5535629;-0.5152354;-0.4556787;-0.4695291;1;0;0;-225;4144;29;8;0.6509695;-0.7523403;0;0.101108;0;-1;0;-577;4045;577;0.4874044;2.826428;-0.2050433;0.4933704;3.370124;-0.2495526;0.4986128;3.847867;-0.2906923;0.4723664;4.548175;-0.07310969;0.2017638;4.861045;-0.01282378;-0.1335854;4.695729;0.00590213;-0.8351108;5.211173;-0.311129;-0.9269098;6.087514;-0.6595479;0.7217425;4.880537;-0.01282397;1.016177;4.738826;0.005902141;1.767666;5.28457;-0.2504241;2.097373;6.116874;-0.5608232;0.1751445;2.783876;-0.2089601;0.1360536;1.321268;-0.2192436;0;0;0;0.1751445;2.783876;-0.2089601;0.1360536;1.321268;-0.2192436;0;0;0
64390.1604;NotLabelled;NONE;16384;0.7650985;0.4542936;0.4265928;0.1620499;0;1;0;2558;-2282;2175;65536;0.8072523;0.5692521;-0.01523546;0.1551246;-1;1;0;-909;-3776;-1260;8192;0.8247664;0.3961219;-0.3891967;-0.1066482;1;0;0;-1936;-2345;2643;32768;0.8255708;0.5443213;-0.1163435;-0.09279778;-1;0;0;1197;-3588;-1558;256;0.06232687;-0.05124654;-0.5900277;-0.8033408;-1;0;0;-161;3904;-1219;128;0.004155125;0.08171745;0.6426592;0.7617704;0;-1;0;-461;4087;726;4;-0.5041551;0.4889196;-0.5094582;-0.4972299;0;0;0;-7;4064;98;16;0.6385041;-0.7667654;-0.01800554;-0.06371191;0;0;0;209;4004;734;2;0.5535629;-0.5152354;-0.4556787;-0.4695291;0;1;0;-225;4134;185;8;0.6509695;-0.7523403;0;0.101108;0;0;0;-623;4017;601;0.4874044;2.826428;-0.2050433;0.4933704;3.370124;-0.2495526;0.4986128;3.847867;-0.2906923;0.4723664;4.548175;-0.07310969;0.2017638;4.861045;-0.01282378;-0.1335854;4.695729;0.00590213;-0.8349794;5.209905;-0.3134708;-0.9267781;6.086246;-0.6618897;0.7217425;4.880537;-0.01282397;1.016177;4.738826;0.005902141;1.767666;5.28457;-0.2504241;2.097373;6.116874;-0.5608232;0.1751445;2.783876;-0.2089601;0.1360536;1.321268;-0.2192436;0;0;0;0.1751445;2.783876;-0.2089601;0.1360536;1.321268;-0.2192436;0;0;0
64411.1246;NotLabelled;NONE;16384;0.7650985;0.4542936;0.4265928;0.1620499;1;0;0;2540;-2292;2201;65536;0.8072523;0.5692521;-0.01523546;0.1551246;-1;0;0;-929;-3742;-1246;8192;0.8241114;0.3961219;-0.3905817;-0.1066482;1;0;0;-1968;-2279;2655;32768;0.8255708;0.5443213;-0.1163435;-0.09279778;-2;0;0;1139;-3590;-1570;256;0.06232687;-0.05263158;-0.5900277;-0.8032513;-1;0;0;-167;3984;-1239;128;0.004155125;0.08171745;0.6426592;0.7617704;0;-1;0;-483;4071;726;4;-0.5041551;0.4889196;-0.5094582;-0.4972299;0;-1;0;37;4100;88;16;0.6385041;-0.7667654;-0.01800554;-0.06371191;0;-1;0;247;3940;746;2;0.5535629;-0.5152354;-0.4556787;-0.4695291;0;0;0;-195;4040;139;8;0.6523545;-0.7511396;0;0.101108;0;1;0;-553;4057;579;0.4877507;2.826428;-0.2047509;0.4937168;3.370126;-0.2492411;0.4989592;3.84787;-0.290364;0.4711594;4.548191;-0.07301351;0.1998637;4.86048;-0.01283474;-0.1351187;4.694428;0.005941644;-0.8350615;5.209947;-0.3144494;-0.9253852;6.085227;-0.6659071;0.7197983;4.881123;-0.01283468;1.014545;4.740071;0.005941987;1.765095;5.286599;-0.251461;2.095721;6.117683;-0.5641452;0.1754908;2.783876;-0.2086694;0.1364171;1.321268;-0.2190177;0;0;0;0.1754908;2.783876;-0.2086694;0.1364171;1.321268;-0.2190177;0;0;0
64431.2184;NotLabelled;NONE;16384;0.7650985;0.4542936;0.4265928;0.1620499;1;0;0;2560;-2330;2221;65536;0.8072523;0.5692521;-0.01523546;0.1551246;-1;0;1;-969;-3778;-1292;8192;0.8247664;0.3961219;-0.3891967;-0.1066482;1;0;0;-1970;-2305;2685;32768;0.8255708;0.5443213;-0.1163435;-0.09279778;-2;0;0;1139;-3606;-1604;256;0.06232687;-0.05263158;-0.5900277;-0.8032513;-1;0;0;-133;3892;-1247;128;0.002770083;0.08171745;0.6426592;0.7617766;1;0;-1;-443;4063;720;4;-0.5041551;0.4875346;-0.5107838;-0.4972299;0;0;0;49;4078;94;16;0.6385041;-0.7667654;-0.01800554;-0.06371191;0;0;0;177;4006;768;2;0.5535629;-0.5152354;-0.4556787;-0.4695291;0;0;0;-171;4126;97;8;0.6523545;-0.7511396;0;0.101108;0;0;0;-535;4019;603;0.4882166;2.826428;-0.2043594;0.4941827;3.370126;-0.2488495;0.4994251;3.84787;-0.2899724;0.4727784;4.54824;-0.07263611;0.2019975;4.860978;-0.01246382;-0.1332579;4.695477;0.006315712;-0.8317618;5.210996;-0.3172004;-0.9213002;6.086275;-0.6688596;0.7219651;4.880764;-0.01246379;1.016479;4.739227;0.006315887;1.769526;5.28497;-0.2453998;2.100849;6.116055;-0.5573443;0.1759568;2.783877;-0.2082778;0.1369063;1.321268;-0.2187128;0;0;0;0.1759568;2.783877;-0.2082778;0.1369063;1.321268;-0.2187128;0;0;0
64452.1028;NotLabelled;NONE;16384;0.7650985;0.4542936;0.4265928;0.1620499;1;1;0;2526;-2206;2145;65536;0.8072523;0.5692521;-0.01523546;0.1551246;-1;0;0;-989;-3770;-1296;8192;0.8254302;0.3947368;-0.3891967;-0.1066482;1;0;0;-1894;-2295;2717;32768;0.8253744;0.5443213;-0.1177285;-0.09279778;-2;0;0;1167;-3606;-1602;256;0.06232687;-0.05263158;-0.5900277;-0.8032513;-1;0;1;-189;3872;-1275;128;0.002770083;0.08171745;0.6426592;0.7617766;1;0;0;-463;3997;768;4;-0.5041551;0.4889196;-0.5094582;-0.4972299;0;0;0;5;4070;170;16;0.6385041;-0.7667654;-0.01800554;-0.06371191;0;0;0;163;4012;746;2;0.5547346;-0.5152354;-0.4556787;-0.468144;-1;0;0;-139;4156;99;8;0.6523545;-0.7511396;0;0.101108;0;0;0;-593;4009;667;0.4921373;2.826314;-0.2037318;0.4981034;3.37001;-0.2482342;0.5033457;3.847754;-0.2893678;0.4766991;4.548123;-0.07203144;0.2059182;4.860861;-0.0118591;-0.1293373;4.695361;0.006920353;-0.8285628;5.210879;-0.3150324;-0.9181013;6.086159;-0.6666912;0.7258858;4.880648;-0.01185913;1.0204;4.73911;0.006920666;1.771522;5.285639;-0.248807;2.102846;6.116724;-0.5607516;0.1798775;2.783762;-0.2076493;0.1369061;1.321268;-0.2187127;0;0;0;0.1798775;2.783762;-0.2076493;0.1369061;1.321268;-0.2187127;0;0;0
64472.1212;NotLabelled;NONE;16384;0.7650985;0.4542936;0.4265928;0.1620499;1;0;0;2488;-2306;2215;65536;0.8082272;0.567867;-0.01523546;0.1551246;-1;0;0;-1013;-3790;-1272;8192;0.8254302;0.3947368;-0.3891967;-0.1066482;1;0;0;-1910;-2295;2703;32768;0.8255708;0.5443213;-0.1163435;-0.09279778;-2;0;0;1163;-3510;-1578;256;0.06232687;-0.05263158;-0.5900277;-0.8032513;-1;0;1;-165;3896;-1287;128;0.002770083;0.08171745;0.6426592;0.7617766;1;-1;-1;-461;3997;746;4;-0.5041551;0.4875346;-0.5107838;-0.4972299;0;0;0;-33;4106;104;16;0.6385041;-0.7668791;-0.01800554;-0.06232687;0;0;0;245;3990;788;2;0.5547346;-0.5152354;-0.4556787;-0.468144;-1;1;0;-217;4088;87;8;0.6509695;-0.7523403;0;0.101108;0;0;0;-515;4009;683;0.4882164;2.826428;-0.2043601;0.4941825;3.370125;-0.2488624;0.4994249;3.847868;-0.289996;0.4727782;4.548238;-0.07265967;0.2019972;4.860975;-0.01248734;-0.1332582;4.695475;0.006292112;-0.8324835;5.210993;-0.3156615;-0.9220217;6.086273;-0.6673207;0.7219647;4.880762;-0.01248738;1.016479;4.739224;0.006292403;1.768141;5.28405;-0.2514782;2.101464;6.114689;-0.56248;0.1759565;2.783876;-0.2082776;0.1369061;1.321268;-0.2187127;0;0;0;0.1759565;2.783876;-0.2082776;0.1369061;1.321268;-0.2187127;0;0;0
64493.0528;NotLabelled;NONE;16384;0.7659192;0.4529086;0.4265928;0.1620499;1;0;-1;2498;-2310;2221;65536;0.8085167;0.567867;-0.01385042;0.1537396;-1;0;0;-885;-3806;-1306;8192;0.8254302;0.3947368;-0.3891967;-0.1066482;2;-1;0;-1954;-2259;2659;32768;0.8264823;0.5429363;-0.1163435;-0.09279778;-2;0;1;1057;-3532;-1596;256;0.06232687;-0.05263158;-0.5900277;-0.8032513;-1;0;0;-155;3912;-1203;128;0.002770083;0.08310249;0.6426592;0.7616268;0;0;-1;-507;4029;722;4;-0.5041551;0.4875346;-0.5107838;-0.4972299;0;0;0;-11;4090;126;16;0.6385041;-0.7667654;-0.01800554;-0.06371191;0;0;0;193;3998;774;2;0.5524198;-0.5152354;-0.4570637;-0.4695291;0;1;0;-147;4120;141;8;0.6509695;-0.7523403;0;0.101108;0;0;0;-519;4051;589;0.4894073;2.826442;-0.2046452;0.4953733;3.370139;-0.2491475;0.5006158;3.847882;-0.2902811;0.4739691;4.548252;-0.07294482;0.2031881;4.86099;-0.01277247;-0.1320673;4.695489;0.00600699;-0.8312926;5.211007;-0.3159467;-0.919929;6.085218;-0.6704835;0.7231557;4.880776;-0.01277249;1.01767;4.739239;0.006007284;1.769331;5.284064;-0.2517633;2.100655;6.115149;-0.5637079;0.1771474;2.78389;-0.2085627;0.134176;1.321397;-0.219626;0;0;0;0.1771474;2.78389;-0.2085627;0.134176;1.321397;-0.219626;0;0;0
64517.8154;NotLabelled;NONE;16384;0.7659192;0.4529086;0.4265928;0.1620499;0;0;0;2516;-2338;2159;65536;0.8084918;0.567867;-0.01523546;0.1537396;0;0;0;-915;-3714;-1334;8192;0.8254302;0.3947368;-0.3891967;-0.1066482;2;-1;1;-1892;-2335;2673;32768;0.8264823;0.5429363;-0.1163435;-0.09279778;-2;0;0;1099;-3616;-1562;256;0.06232687;-0.05263158;-0.5900277;-0.8032513;-1;0;1;-125;3866;-1253;128;0.002770083;0.08310249;0.6426592;0.7616268;0;0;0;-485;4071;716;4;-0.5041551;0.4875346;-0.5107838;-0.4972299;0;0;0;-11;4104;76;16;0.6385041;-0.7667654;-0.01800554;-0.06371191;0;0;0;255;3988;742;2;0.5524198;-0.5152354;-0.4570637;-0.4695291;0;0;0;-111;4072;111;8;0.6523545;-0.7513248;0;0.09972299;0;0;0;-527;3975;563;0.492137;2.826314;-0.2037295;0.4981031;3.370012;-0.2482124;0.5033455;3.847757;-0.2893288;0.4766991;4.548126;-0.07199234;0.2059183;4.860864;-0.01181952;-0.1293371;4.695364;0.00696047;-0.8284245;5.209594;-0.3173431;-0.9176646;6.083673;-0.6720537;0.725886;4.880651;-0.01182033;1.0204;4.739113;0.006958991;1.77206;5.283929;-0.2508334;2.103793;6.113786;-0.5656025;0.1798772;2.783762;-0.2076487;0.1369058;1.321268;-0.2187124;0;0;0;0.1798772;2.783762;-0.2076487;0.1369058;1.321268;-0.2187124;0;0;0
64538.0385;NotLabelled;NONE;16384;0.7659192;0.4529086;0.4265928;0.1620499;1;0;0;2538;-2276;2169;65536;0.8082272;0.567867;-0.01523546;0.1551246;0;0;0;-1025;-3762;-1322;8192;0.8254371;0.3933518;-0.3905817;-0.1066482;2;-1;1;-2028;-2293;2749;32768;0.8273905;0.5415512;-0.1163435;-0.09279778;-2;-1;0;1163;-3610;-1624;256;0.06094183;-0.05263158;-0.5900277;-0.8033575;-1;0;0;-141;3942;-1231;128;0.002770083;0.08310249;0.6426592;0.7616268;0;0;0;-439;4079;706;4;-0.5041551;0.4875346;-0.5107838;-0.4972299;0;-1;0;7;4006;178;16;0.6385041;-0.7667654;-0.01800554;-0.06371191;0;0;0;181;4002;768;2;0.5524198;-0.5152354;-0.4570637;-0.4695291;0;0;0;-179;4134;61;8;0.6523545;-0.7513248;0;0.09972299;0;1;0;-533;4061;625;0.4921376;2.826314;-0.203729;0.4981037;3.370012;-0.2482119;0.5033461;3.847757;-0.2893284;0.4766995;4.548126;-0.07199186;0.2059186;4.860864;-0.01181949;-0.1293369;4.695364;0.0069599;-0.8284228;5.209606;-0.3173284;-0.9155796;6.084062;-0.6716279;0.7258861;4.88065;-0.01181947;1.020401;4.739113;0.006960362;1.772062;5.283938;-0.2508097;2.103795;6.113795;-0.5655785;0.1798778;2.783762;-0.2076481;0.1369062;1.321268;-0.218712;0;0;0;0.1798778;2.783762;-0.2076481;0.1369062;1.321268;-0.218712;0;0;0
64559.0493;NotLabelled;NONE;16384;0.7659192;0.4529086;0.4265928;0.1620499;1;0;0;2520;-2306;2175;65536;0.8082272;0.567867;-0.01523546;0.1551246;0;0;-1;-961;-3758;-1340;8192;0.8254371;0.3933518;-0.3905817;-0.1066482;1;-2;0;-2006;-2321;2713;32768;0.8273905;0.5415512;-0.1163435;-0.09279778;-2;0;0;1185;-3600;-1684;256;0.06094183;-0.05263158;-0.5900277;-0.8033575;-1;0;0;-149;3890;-1245;128;0.002770083;0.08310249;0.6426592;0.7616268;0;0;0;-451;4015;704;4;-0.5041551;0.4875346;-0.5107838;-0.4972299;0;0;0;71;4116;146;16;0.6385041;-0.7667654;-0.01800554;-0.06371191;0;0;0;233;4040;724;2;0.5535629;-0.5152354;-0.4556787;-0.4695291;0;0;0;-169;4094;103;8;0.6523545;-0.7513248;0;0.09972299;1;0;0;-539;4031;635;0.4917933;2.826314;-0.204027;0.4977595;3.370012;-0.2485099;0.5030018;3.847757;-0.2896264;0.477908;4.548111;-0.07205686;0.2078208;4.861427;-0.01177725;-0.1278001;4.696664;0.006951232;-0.8274227;5.210907;-0.3161786;-0.9166462;6.085116;-0.6705681;0.727831;4.880063;-0.01177694;1.022031;4.737868;0.006952286;1.775164;5.280202;-0.2517738;2.106777;6.108822;-0.5699098;0.1795334;2.783762;-0.2079462;0.1365437;1.321268;-0.2189389;0;0;0;0.1795334;2.783762;-0.2079462;0.1365437;1.321268;-0.2189389;0;0;0
64580.2678;NotLabelled;NONE;16384;0.7659192;0.4529086;0.4265928;0.1620499;1;0;0;2506;-2272;2243;65536;0.8082272;0.567867;-0.01523546;0.1551246;0;0;-1;-977;-3850;-1280;8192;0.8260957;0.3919668;-0.3905817;-0.1066482;1;-1;0;-1934;-2217;2665;32768;0.8273905;0.5415512;-0.1163435;-0.09279778;-1;0;0;1177;-3552;-1690;256;0.06094183;-0.05401662;-0.5900277;-0.8032656;-1;0;0;-151;3866;-1301;128;0.002770083;0.08310249;0.6426592;0.7616268;0;-1;0;-497;4095;706;4;-0.5041551;0.4875346;-0.5107838;-0.4972299;0;1;0;43;4050;96;16;0.6385041;-0.7667654;-0.01800554;-0.06371191;0;-1;0;213;3988;772;2;0.5535941;-0.5152354;-0.4570637;-0.468144;0;1;0;-197;4134;97;8;0.6523545;-0.7511396;0;0.101108;0;0;0;-569;4037;603;0.4917933;2.826314;-0.204027;0.4977595;3.370012;-0.2485099;0.5030018;3.847757;-0.2896264;0.477908;4.548111;-0.07205686;0.2078208;4.861427;-0.01177725;-0.1278001;4.696664;0.006951232;-0.8274227;5.210907;-0.3161786;-0.9166462;6.085116;-0.6705681;0.727831;4.880063;-0.01177694;1.022031;4.737868;0.006952286;1.775164;5.280202;-0.2517738;2.106777;6.108822;-0.5699098;0.1795334;2.783762;-0.2079462;0.1365437;1.321268;-0.2189389;0;0;0;0.1795334;2.783762;-0.2079462;0.1365437;1.321268;-0.2189389;0;0;0
64600.2866;NotLabelled;NONE;16384;0.7659192;0.4529086;0.4265928;0.1620499;0;0;0;2604;-2310;2273;65536;0.8082272;0.567867;-0.01523546;0.1551246;0;0;0;-1005;-3872;-1310;8192;0.8260957;0.3919668;-0.3905817;-0.1066482;1;0;0;-2030;-2259;2737;32768;0.8273905;0.5415512;-0.1163435;-0.09279778;-1;0;0;1159;-3552;-1632;256;0.06094183;-0.05401662;-0.5900277;-0.8032656;0;0;0;-167;3894;-1245;128;0.002770083;0.08310249;0.6426592;0.7616268;0;-1;-1;-503;4089;748;4;-0.5041551;0.4875346;-0.5107838;-0.4972299;0;1;0;-15;4004;152;16;0.6385041;-0.7667654;-0.01800554;-0.06371191;0;0;0;163;3960;720;2;0.5524198;-0.5152354;-0.4570637;-0.4695291;0;2;0;-195;4096;87;8;0.6523545;-0.7513248;0;0.09972299;0;0;0;-541;3999;577;0.4922574;2.826314;-0.2036252;0.4982235;3.370012;-0.2481082;0.5034659;3.847757;-0.2892247;0.4795255;4.548156;-0.0716677;0.2099546;4.861917;-0.01139355;-0.1259371;4.697707;0.007337976;-0.8248359;5.211948;-0.3173538;-0.9132675;6.08616;-0.6719415;0.7299947;4.879696;-0.01139385;1.02396;4.737018;0.007337689;1.778205;5.277639;-0.2517341;2.110529;6.106258;-0.5691285;0.1799976;2.783762;-0.2075444;0.1370324;1.321268;-0.2186331;0;0;0;0.1799976;2.783762;-0.2075444;0.1370324;1.321268;-0.2186331;0;0;0
64621.0427;NotLabelled;NONE;16384;0.7659192;0.4529086;0.4265928;0.1620499;0;0;0;2536;-2278;2263;65536;0.8082272;0.567867;-0.01523546;0.1551246;-1;1;0;-957;-3788;-1278;8192;0.8260957;0.3919668;-0.3905817;-0.1066482;1;1;0;-1972;-2289;2699;32768;0.8273905;0.5415512;-0.1163435;-0.09279778;-1;0;0;1189;-3542;-1634;256;0.06094183;-0.05401662;-0.5914127;-0.8022465;-1;1;1;-133;3878;-1225;128;0.002770083;0.08310249;0.6426592;0.7616268;0;0;-1;-503;4037;704;4;-0.5041551;0.4875346;-0.5107838;-0.4972299;0;0;0;11;4106;118;16;0.6385041;-0.7667654;-0.01800554;-0.06371191;0;2;0;167;3968;702;2;0.5535941;-0.5152354;-0.4570637;-0.468144;0;0;1;-183;4116;59;8;0.6523545;-0.7513235;-0.001385042;0.09972299;0;-1;0;-491;4047;571;0.4922574;2.826314;-0.2036252;0.4982235;3.370012;-0.2481082;0.5034659;3.847757;-0.2892247;0.4795255;4.548156;-0.0716677;0.2099546;4.861917;-0.01139355;-0.1259371;4.697707;0.007337976;-0.8248359;5.211948;-0.3173538;-0.9132675;6.08616;-0.6719415;0.7299947;4.879696;-0.01139385;1.02396;4.737018;0.007337689;1.778205;5.277639;-0.2517341;2.110529;6.106258;-0.5691285;0.1799976;2.783762;-0.2075444;0.1370324;1.321268;-0.2186331;0;0;0;0.1799976;2.783762;-0.2075444;0.1370324;1.321268;-0.2186331;0;0;0
64642.0357;NotLabelled;NONE;16384;0.7654382;0.4529086;0.4279778;0.1606648;1;0;0;2538;-2300;2239;65536;0.8091986;0.566482;-0.01523546;0.1551246;-1;0;0;-985;-3738;-1358;8192;0.8259158;0.3919668;-0.3905817;-0.1080332;1;0;0;-1980;-2229;2753;32768;0.8282954;0.5401662;-0.1163435;-0.09279778;0;0;0;1161;-3502;-1670;256;0.06094183;-0.05401662;-0.5914127;-0.8022465;0;0;1;-103;3882;-1241;128;0.002770083;0.08310249;0.6426592;0.7616268;0;0;0;-531;4075;694;4;-0.5041551;0.4875346;-0.5107838;-0.4972299;0;0;0;75;4092;138;16;0.6385041;-0.7667654;-0.01800554;-0.06371191;0;0;0;247;4000;718;2;0.5535941;-0.5152354;-0.4570637;-0.468144;1;-1;0;-225;4146;59;8;0.6523545;-0.7513235;-0.001385042;0.09972299;0;0;0;-577;3975;599;0.4922696;2.826314;-0.2036147;0.4982358;3.370012;-0.2480977;0.5034782;3.847757;-0.2892141;0.4797043;4.548903;-0.07406211;0.2102122;4.862944;-0.01489583;-0.1257266;4.698891;0.004358791;-0.8246061;5.213132;-0.3203744;-0.9130167;6.087342;-0.6749675;0.7302572;4.88058;-0.01489541;1.024182;4.737885;0.004359961;1.778441;5.278509;-0.2546672;2.110784;6.107126;-0.5720419;0.1800098;2.783762;-0.207534;0.1370455;1.321268;-0.2186251;0;0;0;0.1800098;2.783762;-0.207534;0.1370455;1.321268;-0.2186251;0;0;0
64662.0254;NotLabelled;NONE;16384;0.7654382;0.4529086;0.4279778;0.1606648;0;0;0;2518;-2244;2177;65536;0.8094629;0.566482;-0.01523546;0.1537396;-1;0;0;-931;-3740;-1294;8192;0.8259158;0.3919668;-0.3905817;-0.1080332;0;-1;0;-1978;-2251;2725;32768;0.8282954;0.5401662;-0.1163435;-0.09279778;-1;0;0;1137;-3554;-1686;256;0.06094183;-0.05401662;-0.5914127;-0.8022465;-1;0;1;-141;3908;-1263;128;0.002770083;0.08310249;0.6440443;0.760456;1;-1;-1;-529;4051;704;4;-0.5041551;0.4875346;-0.5107838;-0.4972299;0;0;0;7;4152;140;16;0.6385041;-0.7667654;-0.01800554;-0.06371191;0;1;0;195;3990;700;2;0.5535941;-0.5152354;-0.4570637;-0.468144;0;-1;0;-237;4114;147;8;0.6523545;-0.7513235;-0.001385042;0.09972299;1;1;0;-613;4045;607;0.4922696;2.826314;-0.2036147;0.4982358;3.370012;-0.2480977;0.5034782;3.847757;-0.2892141;0.4797043;4.548903;-0.07406211;0.2102122;4.862944;-0.01489583;-0.1257266;4.698891;0.004358791;-0.8253727;5.21341;-0.3182752;-0.9128807;6.086543;-0.6757388;0.7302572;4.88058;-0.01489541;1.024182;4.737885;0.004359961;1.779332;5.277329;-0.2545291;2.112082;6.104703;-0.5747137;0.1800098;2.783762;-0.207534;0.1370455;1.321268;-0.2186251;0;0;0;0.1800098;2.783762;-0.207534;0.1370455;1.321268;-0.2186251;0;0;0
64683.3113;NotLabelled;NONE;16384;0.7654382;0.4529086;0.4279778;0.1606648;0;0;0;2490;-2324;2271;65536;0.8091986;0.566482;-0.01523546;0.1551246;0;0;0;-923;-3742;-1286;8192;0.8259158;0.3919668;-0.3905817;-0.1080332;0;0;0;-1980;-2295;2761;32768;0.8282954;0.5401662;-0.1163435;-0.09279778;0;0;0;1111;-3594;-1670;256;0.06094183;-0.05401662;-0.5914127;-0.8022465;0;0;1;-105;3906;-1267;128;0.002770083;0.08310249;0.6440443;0.760456;1;-1;0;-487;4065;716;4;-0.5041551;0.4875346;-0.5107838;-0.4972299;0;0;0;-1;4088;124;16;0.6385041;-0.7667316;-0.01939058;-0.06371191;0;1;0;263;4052;726;2;0.5547346;-0.5152354;-0.4556787;-0.468144;0;0;1;-263;4194;123;8;0.6523545;-0.7513235;-0.001385042;0.09972299;1;1;0;-627;4035;555;0.49227;2.826328;-0.2037802;0.4982343;3.369861;-0.2502408;0.5034751;3.847453;-0.293095;0.4797012;4.5486;-0.07794252;0.2102093;4.86264;-0.01877608;-0.1257295;4.698587;0.0004783645;-0.8254284;5.213108;-0.3220409;-0.9114609;6.086483;-0.6792667;0.7302543;4.880277;-0.01877576;1.024179;4.737582;0.0004796088;1.779287;5.277025;-0.2585318;2.112037;6.104399;-0.5787159;0.1800101;2.783762;-0.2075321;0.1370455;1.321268;-0.2186242;0;0;0;0.1800101;2.783762;-0.2075321;0.1370455;1.321268;-0.2186242;0;0;0
64704.1954;NotLabelled;NONE;16384;0.766211;0.4529086;0.4265928;0.1606648;0;0;0;2448;-2380;2163;65536;0.8091986;0.566482;-0.01523546;0.1551246;0;0;0;-905;-3736;-1320;8192;0.8259158;0.3919668;-0.3905817;-0.1080332;0;0;0;-1996;-2257;2733;32768;0.8282954;0.5401662;-0.1163435;-0.09279778;0;0;-1;1143;-3628;-1690;256;0.06094183;-0.05401662;-0.5914127;-0.8022465;-1;0;1;-155;3912;-1273;128;0.002770083;0.08310249;0.6440443;0.760456;0;0;-1;-495;4057;722;4;-0.5041551;0.4875346;-0.5107838;-0.4972299;0;0;0;7;4092;122;16;0.6385041;-0.7667316;-0.01939058;-0.06371191;0;1;0;207;3986;714;2;0.5547346;-0.5152354;-0.4556787;-0.468144;0;-1;0;-161;4130;113;8;0.6523545;-0.7513235;-0.001385042;0.09972299;0;0;0;-527;4037;573;0.4899133;2.826507;-0.2041606;0.4958776;3.37004;-0.2506212;0.5011183;3.847632;-0.2934754;0.4773445;4.548779;-0.07832322;0.2078525;4.86282;-0.01915689;-0.1280864;4.698766;9.759888E-05;-0.8277326;5.213286;-0.3225362;-0.9152405;6.086418;-0.6799995;0.7278974;4.880456;-0.01915655;1.021822;4.737761;9.88245E-05;1.776972;5.277205;-0.2587901;2.109723;6.104578;-0.5789745;0.1776533;2.783942;-0.2079125;0.1346888;1.321447;-0.2190039;0;0;0;0.1776533;2.783942;-0.2079125;0.1346888;1.321447;-0.2190039;0;0;0
64725.023;NotLabelled;NONE;16384;0.766211;0.4529086;0.4265928;0.1606648;0;0;0;2516;-2294;2237;65536;0.8091986;0.566482;-0.01523546;0.1551246;-1;0;-1;-941;-3756;-1354;8192;0.8259158;0.3919668;-0.3905817;-0.1080332;0;0;1;-1954;-2227;2715;32768;0.828139;0.5401662;-0.1163435;-0.09418282;0;0;-1;1127;-3560;-1634;256;0.06094183;-0.05401662;-0.5914127;-0.8022465;-1;1;1;-93;3912;-1243;128;0.002770083;0.08310249;0.6440443;0.760456;0;0;-1;-535;4043;664;4;-0.5041551;0.4875346;-0.5107838;-0.4972299;0;1;0;3;4082;166;16;0.6385041;-0.7667316;-0.01939058;-0.06371191;0;0;0;221;3994;778;2;0.553445;-0.5166205;-0.4556787;-0.468144;0;-2;0;-141;4154;75;8;0.6523545;-0.7513235;-0.001385042;0.09972299;0;-1;0;-509;4021;549;0.4899133;2.826507;-0.2041606;0.4958776;3.37004;-0.2506212;0.5011183;3.847632;-0.2934754;0.4773445;4.548779;-0.07832322;0.2078525;4.86282;-0.01915689;-0.1280864;4.698766;9.759888E-05;-0.8260471;5.214348;-0.3244868;-0.9135552;6.08748;-0.6819502;0.7278974;4.880456;-0.01915655;1.021822;4.737761;9.88245E-05;1.776972;5.277205;-0.2587901;2.109723;6.104578;-0.5789745;0.1776533;2.783942;-0.2079125;0.1346888;1.321447;-0.2190039;0;0;0;0.1776533;2.783942;-0.2079125;0.1346888;1.321447;-0.2190039;0;0;0
64745.0339;NotLabelled;NONE;16384;0.766211;0.4529086;0.4265928;0.1606648;0;0;0;2536;-2276;2243;65536;0.8094356;0.566482;-0.0166205;0.1537396;0;0;0;-913;-3806;-1296;8192;0.8265716;0.3905817;-0.3905817;-0.1080332;0;-1;1;-1968;-2239;2747;32768;0.828139;0.5401662;-0.1163435;-0.09418282;0;-1;-1;1229;-3608;-1668;256;0.05955679;-0.05401662;-0.5914127;-0.8023505;0;0;0;-97;3876;-1223;128;0.002770083;0.08310249;0.6440443;0.760456;0;0;0;-511;4101;694;4;-0.5041551;0.4875346;-0.5107838;-0.4972299;0;1;0;-21;4018;128;16;0.6385041;-0.7667316;-0.01939058;-0.06371191;0;0;0;237;4048;772;2;0.553445;-0.5166205;-0.4556787;-0.468144;-1;0;0;-223;4136;99;8;0.6523545;-0.7513235;-0.001385042;0.09972299;0;0;0;-537;4025;555;0.4899133;2.826507;-0.2041606;0.4958776;3.37004;-0.2506212;0.5011183;3.847632;-0.2934754;0.4773445;4.548779;-0.07832322;0.2078525;4.86282;-0.01915689;-0.1280864;4.698766;9.759888E-05;-0.8260471;5.214348;-0.3244868;-0.9135552;6.08748;-0.6819502;0.7278974;4.880456;-0.01915655;1.021822;4.737761;9.88245E-05;1.776972;5.277205;-0.2587901;2.111089;6.104113;-0.5787545;0.1776533;2.783942;-0.2079125;0.1346888;1.321447;-0.2190039;0;0;0;0.1776533;2.783942;-0.2079125;0.1346888;1.321447;-0.2190039;0;0;0
64765.7557;NotLabelled;NONE;16384;0.7673168;0.4515235;0.4265928;0.1592798;0;0;0;2604;-2326;2255;65536;0.8091713;0.566482;-0.0166205;0.1551246;-1;0;0;-955;-3824;-1346;8192;0.8259158;0.3905817;-0.3919668;-0.1080332;0;-1;0;-1946;-2241;2759;32768;0.828139;0.5401662;-0.1163435;-0.09418282;0;-1;0;1247;-3600;-1662;256;0.05955679;-0.05540166;-0.5914127;-0.802256;-1;0;0;-89;3962;-1271;128;0.002770083;0.08448754;0.6440443;0.7603033;1;0;0;-469;4079;670;4;-0.5041551;0.4875346;-0.5107838;-0.4972299;1;1;0;-13;4092;78;16;0.6385041;-0.7667316;-0.01939058;-0.06371191;0;1;0;189;3986;762;2;0.5546136;-0.5166205;-0.4556787;-0.466759;0;1;0;-159;4058;123;8;0.6523545;-0.7513235;-0.001385042;0.09972299;0;-1;0;-519;4001;615;0.4895676;2.826507;-0.2044556;0.4955319;3.37004;-0.2509162;0.5007727;3.847632;-0.2937703;0.4785514;4.548759;-0.07838869;0.2097551;4.863376;-0.01911654;-0.1265456;4.700059;8.816272E-05;-0.8250449;5.215641;-0.3233368;-0.909586;6.089391;-0.680003;0.7298379;4.879862;-0.01911637;1.023446;4.736512;8.907914E-05;1.778691;5.274238;-0.2620773;2.112275;6.101146;-0.5825964;0.1773076;2.783942;-0.2082075;0.1343248;1.321448;-0.2192274;0;0;0;0.1773076;2.783942;-0.2082075;0.1343248;1.321448;-0.2192274;0;0;0
64786.2388;NotLabelled;NONE;16384;0.7673168;0.4515235;0.4265928;0.1592798;0;0;0;2532;-2302;2213;65536;0.8091713;0.566482;-0.0166205;0.1551246;0;0;0;-921;-3794;-1324;8192;0.8259158;0.3905817;-0.3919668;-0.1080332;0;0;0;-2020;-2311;2749;32768;0.828139;0.5401662;-0.1163435;-0.09418282;0;0;0;1231;-3538;-1700;256;0.05955679;-0.05540166;-0.5914127;-0.802256;-2;1;0;-137;3930;-1233;128;0.002770083;0.08448754;0.6440443;0.7603033;1;0;0;-515;4075;652;4;-0.5041551;0.4875346;-0.5107838;-0.4972299;0;0;0;1;4062;144;16;0.6385041;-0.7667316;-0.01939058;-0.06371191;0;3;0;213;3968;730;2;0.5546136;-0.5166205;-0.4556787;-0.466759;0;0;0;-183;4132;71;8;0.6523545;-0.7513235;-0.001385042;0.09972299;0;-2;0;-499;3999;621;0.4900324;2.826507;-0.2040575;0.4959967;3.370042;-0.250499;0.5012375;3.847635;-0.2933363;0.4801731;4.548802;-0.07796583;0.2118963;4.863862;-0.01869893;-0.1246733;4.701101;0.0005080588;-0.8213903;5.216735;-0.3266563;-0.9066105;6.090244;-0.6837489;0.7320056;4.87949;-0.01869851;1.025377;4.735656;0.0005093217;1.782564;5.272599;-0.2576301;2.116863;6.099507;-0.5774034;0.1777724;2.783942;-0.2078111;0.1348143;1.321447;-0.2189269;0;0;0;0.1777724;2.783942;-0.2078111;0.1348143;1.321447;-0.2189269;0;0;0
64807.0556;NotLabelled;NONE;16384;0.7673168;0.4515235;0.4265928;0.1592798;0;0;0;2464;-2292;2189;65536;0.8091713;0.566482;-0.0166205;0.1551246;0;0;0;-891;-3782;-1308;8192;0.8259158;0.3905817;-0.3919668;-0.1080332;0;0;1;-2026;-2239;2747;32768;0.828139;0.5401662;-0.1163435;-0.09418282;0;0;0;1133;-3598;-1690;256;0.05955679;-0.05540166;-0.5914127;-0.802256;-1;1;0;-133;3884;-1191;128;0.002770083;0.08448754;0.6440443;0.7603033;0;0;0;-547;4123;652;4;-0.5041551;0.4875346;-0.5107838;-0.4972299;0;0;0;51;4040;180;16;0.6385041;-0.7665789;-0.02077562;-0.06509695;0;12;0;-9;4006;636;2;0.5546136;-0.5166205;-0.4556787;-0.466759;0;-2;0;-151;4078;115;8;0.6537396;-0.7501187;-0.001385042;0.09972299;1;0;-2;-545;4033;625;0.4900324;2.826507;-0.2040575;0.4959967;3.370042;-0.250499;0.5012375;3.847635;-0.2933363;0.4801731;4.548802;-0.07796583;0.2118963;4.863862;-0.01869893;-0.1246733;4.701101;0.0005080588;-0.8213909;5.216735;-0.326655;-0.906611;6.090244;-0.6837475;0.7320056;4.87949;-0.01869851;1.025377;4.735656;0.0005093217;1.782563;5.272598;-0.2576315;2.116863;6.099506;-0.5774047;0.1777724;2.783942;-0.2078111;0.1348143;1.321447;-0.2189269;0;0;0;0.1777724;2.783942;-0.2078111;0.1348143;1.321447;-0.2189269;0;0;0
64829.0574;NotLabelled;NONE;16384;0.7673168;0.4515235;0.4265928;0.1592798;0;-1;1;2552;-2374;2205;65536;0.8101392;0.5650969;-0.0166205;0.1551246;0;0;0;-905;-3796;-1342;8192;0.8259158;0.3905817;-0.3919668;-0.1080332;0;0;1;-2024;-2185;2793;32768;0.828139;0.5401662;-0.1163435;-0.09418282;0;0;0;1243;-3568;-1672;256;0.05955679;-0.05540166;-0.5914127;-0.802256;-1;1;0;-107;3936;-1161;128;0.002770083;0.08448754;0.6440443;0.7603033;0;0;0;-541;4063;678;4;-0.5041551;0.4875346;-0.5107838;-0.4972299;1;1;1;99;4034;132;16;0.6385041;-0.7665401;-0.02216066;-0.06509695;0;14;0;129;3990;728;2;0.5546136;-0.5166205;-0.4556787;-0.466759;0;-3;0;-43;4128;83;8;0.6537396;-0.7501187;-0.001385042;0.09972299;1;-1;-1;-451;4073;627;0.4904016;2.82656;-0.2035114;0.4963659;3.370094;-0.2499528;0.5016067;3.847687;-0.2927902;0.4805424;4.548855;-0.07741964;0.2122655;4.863914;-0.01815278;-0.1243041;4.701154;0.00105422;-0.8210219;5.216787;-0.3261089;-0.9062418;6.090297;-0.6832013;0.7323748;4.879542;-0.01815236;1.025746;4.735708;0.001055479;1.782932;5.272651;-0.2570855;2.117232;6.099559;-0.5768585;0.1781415;2.783994;-0.2072649;0.1351835;1.3215;-0.2183807;0;0;0;0.1781415;2.783994;-0.2072649;0.1351835;1.3215;-0.2183807;0;0;0
64849.0727;NotLabelled;NONE;16384;0.7677966;0.4515235;0.4252077;0.1606648;0;0;0;2536;-2350;2235;65536;0.8101096;0.5650969;-0.01800554;0.1551246;0;-1;-1;-983;-3834;-1276;8192;0.8259158;0.3905817;-0.3919668;-0.1080332;0;-1;1;-1968;-2321;2785;32768;0.8290408;0.5387812;-0.1163435;-0.09418282;0;0;-1;1213;-3548;-1690;256;0.05955679;-0.05540166;-0.5914127;-0.802256;-1;1;0;-31;3930;-1213;128;0.002770083;0.08448754;0.6440443;0.7603033;1;1;0;-551;4081;670;4;-0.5041551;0.4889196;-0.5094582;-0.4972299;1;4;1;81;4058;98;16;0.6385041;-0.76638;-0.0235457;-0.06648199;0;10;0;297;3978;738;2;0.5546136;-0.5166205;-0.4556787;-0.466759;0;-1;0;-35;4118;71;8;0.6537396;-0.7499332;-0.001385042;0.101108;1;0;-1;-561;4025;591;0.4880442;2.826736;-0.203892;0.4940086;3.37027;-0.2503334;0.4992494;3.847864;-0.2931708;0.478185;4.549031;-0.07780024;0.2099082;4.86409;-0.01853337;-0.1266615;4.70133;0.0006736293;-0.8233792;5.216963;-0.3264894;-0.9076939;6.089386;-0.6864444;0.7300174;4.879719;-0.01853295;1.023389;4.735885;0.0006749034;1.780575;5.272827;-0.2574661;2.114874;6.099735;-0.577239;0.1757842;2.784171;-0.2076455;0.1328262;1.321676;-0.2187614;0;0;0;0.1757842;2.784171;-0.2076455;0.1328262;1.321676;-0.2187614;0;0;0
64870.036;NotLabelled;NONE;16384;0.7680851;0.4515235;0.4252077;0.1592798;0;0;1;2450;-2324;2209;65536;0.8101096;0.5650969;-0.01800554;0.1551246;0;0;0;-923;-3784;-1312;8192;0.8259158;0.3905817;-0.3919668;-0.1080332;0;-1;0;-1992;-2245;2629;32768;0.8290408;0.5387812;-0.1163435;-0.09418282;0;0;0;1125;-3528;-1674;256;0.05955679;-0.05540166;-0.5927978;-0.8012331;-2;1;0;-55;3950;-1231;128;0.004155125;0.08448754;0.6454294;0.7591215;1;2;0;-591;4057;676;4;-0.5055401;0.4889196;-0.5080838;-0.4972299;1;5;1;71;4124;174;16;0.6385041;-0.7662147;-0.02493075;-0.06786703;0;14;0;337;4034;696;2;0.5546136;-0.5166205;-0.4556787;-0.466759;0;0;0;-75;4066;87;8;0.6537396;-0.7499332;-0.001385042;0.101108;1;0;-1;-543;4065;563;0.4844888;2.826906;-0.2039692;0.4904531;3.37044;-0.2504105;0.4956939;3.848033;-0.2932479;0.4746296;4.549201;-0.07787742;0.2063527;4.86426;-0.01861053;-0.130217;4.701499;0.0005964711;-0.8261572;5.216852;-0.3286568;-0.9083878;6.08965;-0.6881829;0.7264619;4.879889;-0.01861012;1.019834;4.736054;0.0005977452;1.777019;5.272996;-0.2575433;2.111722;6.098651;-0.5801196;0.1722288;2.78434;-0.2077227;0.1331909;1.321731;-0.2182055;0;0;0;0.1722288;2.78434;-0.2077227;0.1331909;1.321731;-0.2182055;0;0;0
64890.0572;NotLabelled;NONE;16384;0.7680851;0.4515235;0.4252077;0.1592798;0;0;0;2476;-2340;2193;65536;0.8101096;0.5650969;-0.01800554;0.1551246;0;0;-1;-899;-3740;-1330;8192;0.8259158;0.3905817;-0.3919668;-0.1080332;1;0;1;-1980;-2223;2711;32768;0.8288453;0.5387812;-0.1177285;-0.09418282;0;0;-1;1175;-3534;-1646;256;0.05817174;-0.05540166;-0.5927978;-0.8013349;-2;1;0;-87;3934;-1227;128;0.004155125;0.08448754;0.6454294;0.7591215;2;4;0;-493;4045;690;4;0.5081027;-0.4903047;0.5055401;0.4958449;1;5;1;9;4042;114;16;0.6385041;-0.7656888;-0.02908587;-0.07202215;0;22;0;135;4020;790;2;0.5546136;-0.5166205;-0.4556787;-0.466759;1;1;0;-49;4134;127;8;0.6537396;-0.7499294;-0.002770083;0.101108;2;-1;-1;-469;4059;541;0.4842395;2.826958;-0.1995147;0.490202;3.37032;-0.2479247;0.4954411;3.847755;-0.2924917;0.4745482;4.549663;-0.07953081;0.2063522;4.864998;-0.02137312;-0.1302643;4.702397;-0.001642197;-0.825318;5.219082;-0.3306791;-0.9075306;6.09188;-0.6902097;0.7264656;4.880483;-0.02137285;1.019796;4.736635;-0.001641393;1.776957;5.273578;-0.259855;2.111676;6.099233;-0.5824143;0.1719794;2.784379;-0.2031017;0.1335631;1.321788;-0.2176323;0;0;0;0.1719794;2.784379;-0.2031017;0.1335631;1.321788;-0.2176323;0;0;0
64911.0325;NotLabelled;NONE;16384;0.7680851;0.4515235;0.4252077;0.1592798;0;0;0;2442;-2300;2149;65536;0.8101096;0.5650969;-0.01800554;0.1551246;-1;0;-1;-917;-3752;-1284;8192;0.8259111;0.3891967;-0.3933518;-0.1080332;0;-1;1;-1978;-2207;2813;32768;0.8288453;0.5387812;-0.1177285;-0.09418282;0;-1;-1;1169;-3534;-1634;256;0.05817174;-0.05540166;-0.5927978;-0.8013349;-2;2;0;-55;3868;-1241;128;0.004155125;0.08448754;0.6454294;0.7591215;1;8;0;-543;4045;702;4;0.509477;-0.4903047;0.5041551;0.4958449;0;7;1;-117;4110;90;16;0.6385041;-0.765447;-0.03185596;-0.0734072;0;16;0;347;4082;744;2;0.5533202;-0.5180055;-0.4556787;-0.466759;2;2;0;-97;4066;143;8;0.6537396;-0.7499332;-0.001385042;0.101108;2;0;-2;-617;3997;693;0.4844;2.827114;-0.1945153;0.4903625;3.370476;-0.2429252;0.4956015;3.847911;-0.2874922;0.476261;4.549795;-0.07430562;0.2087626;4.865703;-0.01604374;-0.1282118;4.703839;0.003638461;-0.823764;5.220525;-0.324344;-0.9065749;6.093322;-0.6837373;0.728909;4.88004;-0.01604414;1.02192;4.735537;0.003638119;1.778689;5.27248;-0.255724;2.11488;6.097687;-0.5778966;0.17214;2.784535;-0.1981022;0.1342642;1.321968;-0.2160997;0;0;0;0.17214;2.784535;-0.1981022;0.1342642;1.321968;-0.2160997;0;0;0
64931.0456;NotLabelled;NONE;16384;0.7680851;0.4515235;0.4252077;0.1592798;0;0;0;2490;-2374;2207;65536;0.8101096;0.5650969;-0.01800554;0.1551246;0;0;-1;-933;-3760;-1300;8192;0.8259111;0.3891967;-0.3933518;-0.1080332;0;-1;2;-1902;-2175;2735;32768;0.8288453;0.5387812;-0.1177285;-0.09418282;0;-2;-2;1231;-3546;-1688;256;0.05817174;-0.05540166;-0.5927978;-0.8013349;-2;3;0;-71;3946;-1251;128;0.005540166;0.08310249;0.6468144;0.758086;2;7;0;-543;4077;706;4;0.5094883;-0.4916897;0.5041551;0.4944598;1;5;0;-49;4034;60;16;0.6385041;-0.7651173;-0.033241;-0.07617728;2;19;0;5;3994;810;2;0.5521489;-0.5180055;-0.4556787;-0.468144;2;5;0;-99;4078;31;8;0.6551247;-0.7485313;-0.002770083;0.1024931;2;0;-2;-641;3989;619;0.4817068;2.827316;-0.1902524;0.4876693;3.370678;-0.2386623;0.4929084;3.848114;-0.2832293;0.4735678;4.549997;-0.07004268;0.2060695;4.865905;-0.01178078;-0.130905;4.704041;0.007901412;-0.8264571;5.220727;-0.3200811;-0.9092679;6.093524;-0.6794742;0.7262158;4.880242;-0.01178119;1.019227;4.735739;0.007901073;1.777878;5.270178;-0.2511344;2.114069;6.095385;-0.573307;0.1694468;2.784737;-0.1938393;0.1322484;1.322209;-0.2158727;0;0;0;0.1694468;2.784737;-0.1938393;0.1322484;1.322209;-0.2158727;0;0;0
64952.0458;NotLabelled;NONE;16384;0.7688503;0.4515235;0.4238227;0.1592798;1;0;0;2466;-2304;2183;65536;0.8103417;0.5650969;-0.01939058;0.1537396;-1;0;-2;-919;-3754;-1242;8192;0.82525;0.3891967;-0.3947368;-0.1080332;0;-3;3;-1942;-2267;2711;32768;0.8286473;0.5387812;-0.1191136;-0.09418282;-1;-3;-2;1159;-3518;-1680;256;0.05817174;-0.05401662;-0.5941828;-0.8004031;-2;3;0;-77;3886;-1255;128;0.006925208;0.08310249;0.6468144;0.7580746;2;7;0;-519;4089;700;4;0.5094883;-0.4916897;0.5041551;0.4944598;2;4;0;-5;4020;90;16;0.6385041;-0.7648528;-0.03601108;-0.07756232;2;28;1;61;4004;730;2;0.5523018;-0.5166205;-0.4570637;-0.468144;2;8;0;-55;4152;59;8;0.6551247;-0.7485352;-0.001385042;0.1024931;4;-13;-3;-319;3955;527;0.485378;2.827322;-0.1927355;0.4913385;3.370503;-0.2431397;0.4965757;3.847772;-0.2894591;0.4772351;4.549655;-0.07627258;0.2097367;4.865563;-0.01801064;-0.1272377;4.7037;0.001671635;-0.8228366;5.220385;-0.3262119;-0.9056472;6.093183;-0.685605;0.729883;4.8799;-0.01801106;1.022895;4.735398;0.001671076;1.781509;5.269836;-0.2574723;2.117699;6.095044;-0.579645;0.1731178;2.78473;-0.1961535;0.1352915;1.322164;-0.2142567;0;0;0;0.1731178;2.78473;-0.1961535;0.1352915;1.322164;-0.2142567;0;0;0
64972.0431;NotLabelled;NONE;16384;0.7688503;0.4515235;0.4238227;0.1592798;0;0;0;2536;-2260;2209;65536;0.8103417;0.5650969;-0.01939058;0.1537396;-1;0;-2;-853;-3792;-1270;8192;0.8260818;0.3878116;-0.3947368;-0.1066482;0;-3;3;-2000;-2169;2735;32768;0.8295462;0.5373961;-0.1191136;-0.09418282;-1;-3;-3;1231;-3464;-1678;256;0.0567867;-0.05401662;-0.5941828;-0.8005025;-3;3;0;-131;3900;-1251;128;0.006925208;0.08171745;0.6468144;0.7582251;2;8;1;-501;4035;674;4;0.5108551;-0.4916897;0.5027701;0.4944598;1;6;1;-11;4060;44;16;0.6385041;-0.7643598;-0.0401662;-0.08033241;2;27;1;207;3964;768;2;0.5511248;-0.5166205;-0.4570637;-0.4695291;5;8;0;-79;4010;-23;8;0.6551247;-0.748152;0;0.1052632;4;-26;-2;-311;3945;531;0.4829206;2.827569;-0.1928518;0.4888811;3.370751;-0.243253;0.4941183;3.84802;-0.2895696;0.4737848;4.550601;-0.07878846;0.2058436;4.866336;-0.02163352;-0.1309086;4.704074;-0.001429193;-0.8254809;5.221808;-0.3298335;-0.9055167;6.095211;-0.6883852;0.7259697;4.881393;-0.02163374;1.019179;4.737365;-0.001429379;1.778618;5.271019;-0.2597733;2.116114;6.095776;-0.5817326;0.1706603;2.784978;-0.1962701;0.1327945;1.322412;-0.2142907;0;0;0;0.1706603;2.784978;-0.1962701;0.1327945;1.322412;-0.2142907;0;0;0
64993.0285;NotLabelled;NONE;16384;0.7688503;0.4515235;0.4238227;0.1592798;0;0;0;2454;-2268;2171;65536;0.8103417;0.5650969;-0.01939058;0.1537396;-1;0;-1;-923;-3722;-1346;8192;0.8260818;0.3878116;-0.3947368;-0.1066482;0;-3;3;-1952;-2229;2637;32768;0.8295462;0.5373961;-0.1191136;-0.09418282;0;-2;-1;1239;-3498;-1722;256;0.0567867;-0.05401662;-0.5941828;-0.8005025;-3;3;0;-161;3858;-1255;128;0.009695291;0.07894737;0.6481994;0.757305;4;12;0;-443;4029;684;4;0.5122183;-0.4930748;0.501385;0.4930748;1;6;2;27;4040;126;16;0.6385041;-0.7634457;-0.04570637;-0.08587258;1;23;0;125;3950;770;2;0.5487877;-0.5166205;-0.4584487;-0.4709141;6;10;0;-129;4058;61;8;0.6551247;-0.7477518;0.002770083;0.1080332;4;-30;-2;-433;4065;683;0.4802035;2.827852;-0.1881874;0.486164;3.371031;-0.2386074;0.4914012;3.848299;-0.2849407;0.4726197;4.550857;-0.07393877;0.2053763;4.867165;-0.01668248;-0.1317328;4.70564;0.003473449;-0.826851;5.223375;-0.3237734;-0.907483;6.096776;-0.682191;0.7255343;4.881073;-0.01668221;1.018425;4.736392;0.003474593;1.777072;5.269512;-0.2582755;2.114422;6.09301;-0.5835932;0.1679433;2.78526;-0.1916041;0.1307294;1.322731;-0.2135858;0;0;0;0.1679433;2.78526;-0.1916041;0.1307294;1.322731;-0.2135858;0;0;0
65013.0644;NotLabelled;NONE;16384;0.7688503;0.4515235;0.4238227;0.1592798;0;0;0;2510;-2264;2135;65536;0.8103417;0.5650969;-0.01939058;0.1537396;-1;0;-1;-877;-3748;-1240;8192;0.8254185;0.3878116;-0.3961219;-0.1066482;0;-3;4;-1938;-2259;2707;32768;0.8293462;0.5373961;-0.1204986;-0.09418282;0;-2;0;1239;-3560;-1692;256;0.0567867;-0.05401662;-0.5955678;-0.7994726;-2;4;0;-153;3862;-1277;128;0.01108033;0.07756232;0.6481994;0.7574291;4;14;0;-479;4041;742;4;0.512237;-0.4944598;0.5;0.4930748;1;6;1;23;4054;48;16;0.6385041;-0.762958;-0.04847645;-0.08864266;2;24;0;101;4028;680;2;0.5475962;-0.5166205;-0.4584487;-0.4722992;3;10;-1;-173;4100;145;8;0.6551247;-0.747331;0.005540166;0.1108033;4;-27;-2;-605;4015;795;0.4814073;2.828174;-0.1855635;0.4873657;3.371161;-0.2380142;0.4926009;3.848252;-0.2861316;0.4737896;4.55081;-0.07513247;0.2065382;4.867118;-0.01791396;-0.1305739;4.705594;0.002194412;-0.8255861;5.224548;-0.3233406;-0.9061676;6.097951;-0.6817703;0.7266961;4.881027;-0.01784015;1.019584;4.736346;0.002358019;1.778316;5.27044;-0.2571513;2.115713;6.093938;-0.5824218;0.169147;2.78557;-0.1888082;0.1320236;1.32304;-0.2108609;0;0;0;0.169147;2.78557;-0.1888082;0.1320236;1.32304;-0.2108609;0;0;0
65034.091;NotLabelled;NONE;16384;0.7688503;0.4515235;0.4238227;0.1592798;0;0;-1;2518;-2344;2119;65536;0.8103417;0.5650969;-0.01939058;0.1537396;-1;0;-1;-883;-3766;-1280;8192;0.8254185;0.3878116;-0.3961219;-0.1066482;0;-4;3;-1948;-2299;2711;32768;0.8293462;0.5373961;-0.1204986;-0.09418282;0;-3;-1;1099;-3574;-1714;256;0.0567867;-0.05263158;-0.5955678;-0.799565;-2;4;0;-173;3908;-1267;128;0.01246537;0.07617728;0.6495845;0.7563608;3;13;0;-433;4109;700;4;0.512237;-0.4944598;0.5;0.4930748;2;8;1;77;4198;68;16;0.6371191;-0.7637722;-0.05124654;-0.0900277;2;26;0;159;4034;740;2;0.5453389;-0.5152354;-0.4598338;-0.4750692;4;15;-1;-45;4108;-77;8;0.6537396;-0.7476403;0.01108033;0.1163435;0;-29;0;-491;4045;621;0.4779868;2.828443;-0.184739;0.4839451;3.371428;-0.2372183;0.4891803;3.848515;-0.2853608;0.4705672;4.551801;-0.07677969;0.2034031;4.868375;-0.02063663;-0.133751;4.70701;4.446134E-05;-0.8288549;5.224744;-0.3272332;-0.9094714;6.098146;-0.6856549;0.7235649;4.882144;-0.02063668;1.016415;4.737456;4.458427E-05;1.776428;5.269794;-0.2593224;2.115802;6.092841;-0.5836756;0.1657263;2.785838;-0.1879811;0.1326083;1.323203;-0.2094622;0;0;0;0.1657263;2.785838;-0.1879811;0.1326083;1.323203;-0.2094622;0;0;0
65055.0168;NotLabelled;NONE;16384;0.7680851;0.4515235;0.4252077;0.1592798;1;0;-1;2494;-2340;2139;65536;0.8103073;0.5650969;-0.02077562;0.1537396;0;-1;-3;-931;-3754;-1288;8192;0.8249303;0.3878116;-0.3975069;-0.1052632;0;-4;3;-1952;-2381;2789;32768;0.8295023;0.5373961;-0.1204986;-0.09279778;0;-2;0;1141;-3646;-1614;256;0.05540166;-0.05263158;-0.5955678;-0.7996622;-2;5;0;-145;3946;-1225;128;0.01385042;0.07479224;0.6495845;0.7564749;1;13;1;-453;4057;754;4;0.5122483;-0.4958449;0.4986149;0.4930748;2;9;0;131;4116;44;16;0.6371191;-0.7632496;-0.05401662;-0.09279778;1;26;0;53;4010;696;2;0.5430511;-0.5138504;-0.4612188;-0.4778393;0;17;-2;-295;4196;123;8;0.6537396;-0.7471578;0.01385042;0.1191136;0;-27;0;-691;4017;501;0.4767073;2.827858;-0.1895303;0.4826634;3.370644;-0.244031;0.4878966;3.847549;-0.2939496;0.4680853;4.5508;-0.08536209;0.2003876;4.866929;-0.0292538;-0.1365011;4.705004;-0.008623978;-0.8329421;5.223949;-0.3311089;-0.9143028;6.09735;-0.6893624;0.7205257;4.881563;-0.02917796;1.013613;4.73736;-0.008455873;1.772557;5.270666;-0.2689644;2.111256;6.093714;-0.5940226;0.1644467;2.785242;-0.1926011;0.1312839;1.322607;-0.2140131;0;0;0;0.1644467;2.785242;-0.1926011;0.1312839;1.322607;-0.2140131;0;0;0
65075.0358;NotLabelled;NONE;16384;0.7680851;0.4515235;0.4252077;0.1592798;1;-2;0;2560;-2328;2129;65536;0.8103073;0.5650969;-0.02077562;0.1537396;0;-3;-2;-927;-3804;-1308;8192;0.8242615;0.3878116;-0.398892;-0.1052632;0;-3;3;-1918;-2349;2777;32768;0.8295023;0.5373961;-0.1204986;-0.09279778;0;-2;0;1187;-3672;-1700;256;0.05540166;-0.05124654;-0.5955678;-0.7997521;-3;6;-1;-173;3960;-1219;128;0.01385042;0.0734072;0.6495845;0.7566106;2;11;1;-499;4139;674;4;0.5149189;-0.4958449;0.4972299;0.4916897;2;11;1;233;4034;4;16;0.6371191;-0.7626022;-0.05817174;-0.09556787;1;33;0;-71;3978;662;2;0.5431395;-0.5124654;-0.4612188;-0.4792244;0;17;-4;-413;4162;195;8;0.6523545;-0.7478647;0.0166205;0.1218837;-1;-21;0;-747;4137;425;0.4729404;2.82813;-0.1889361;0.4788964;3.370912;-0.2434742;0.4841296;3.847814;-0.2934257;0.4659;4.551044;-0.0846194;0.1989084;4.867744;-0.02837373;-0.1383333;4.706556;-0.007742718;-0.836923;5.223264;-0.3291687;-0.9168473;6.097032;-0.6868506;0.7190775;4.881231;-0.02837202;1.01185;4.736377;-0.007738411;1.770891;5.269143;-0.2690622;2.107642;6.092666;-0.5949392;0.1606798;2.785514;-0.1920037;0.1314958;1.322785;-0.2127797;0;0;0;0.1606798;2.785514;-0.1920037;0.1314958;1.322785;-0.2127797;0;0;0
65096.024;NotLabelled;NONE;16384;0.7685621;0.4515235;0.4238227;0.1606648;3;-4;0;2684;-2288;2211;65536;0.8102706;0.5650969;-0.02216066;0.1537396;1;-5;-2;-939;-3780;-1266;8192;0.8249118;0.3864266;-0.398892;-0.1052632;0;-4;4;-2004;-2317;2847;32768;0.8294537;0.5373961;-0.1218837;-0.09141274;-1;-4;0;1187;-3664;-1626;256;0.05401662;-0.05124654;-0.5955678;-0.7998468;-2;6;-1;-163;3994;-1213;128;0.01523546;0.07202215;0.6509695;0.7555259;3;11;1;-459;4127;596;4;0.5175536;-0.4986149;0.4930748;0.4903047;3;17;3;115;4148;44;16;0.6371191;-0.7611418;-0.06509695;-0.1024931;0;26;0;139;4064;622;2;0.5433442;-0.5096953;-0.4626039;-0.4806094;0;11;-6;-525;4202;209;8;0.6523545;-0.747571;0.01939058;0.1232687;-3;-16;0;-697;4083;453;0.4739002;2.828353;-0.1835857;0.4798562;3.371133;-0.2381423;0.4850894;3.848033;-0.2881103;0.4656932;4.551228;-0.07929459;0.1981763;4.867484;-0.02304363;-0.1387973;4.705736;-0.002413273;-0.8375691;5.222422;-0.3234793;-0.9182903;6.09619;-0.6809822;0.7183224;4.881835;-0.02304392;1.011335;4.737467;-0.002413511;1.771584;5.269434;-0.261849;2.107608;6.092957;-0.5884761;0.1616396;2.785737;-0.1866518;0.1292293;1.323146;-0.2119198;0;0;0;0.1616396;2.785737;-0.1866518;0.1292293;1.323146;-0.2119198;0;0;0
65116.0323;NotLabelled;NONE;16384;0.7685621;0.4515235;0.4238227;0.1606648;4;-3;0;2670;-2318;2209;65536;0.8102706;0.5650969;-0.02216066;0.1537396;1;-6;-2;-929;-3844;-1260;8192;0.8242406;0.3864266;-0.400277;-0.1052632;-1;-6;4;-1984;-2319;2829;32768;0.8294537;0.5373961;-0.1218837;-0.09141274;-2;-5;0;1205;-3688;-1652;256;0.05401662;-0.04986149;-0.5969529;-0.7989013;-4;5;-1;-161;3984;-1153;128;0.0166205;0.06925207;0.6509695;0.7557556;2;9;1;-371;4159;676;4;0.517535;-0.5;0.4916897;0.4903047;3;14;5;81;4066;-2;16;0.6371191;-0.7607119;-0.06786703;-0.1038781;-1;24;0;79;3986;530;2;0.5434148;-0.5083103;-0.4626039;-0.4819945;0;7;-6;-505;4134;107;8;0.6523545;-0.7473413;0.01939058;0.1246537;-3;-11;0;-645;4073;349;0.4700046;2.828896;-0.1768002;0.4759584;3.371468;-0.2333894;0.4811894;3.848177;-0.2851431;0.463346;4.551351;-0.07611695;0.1965279;4.86818;-0.01976921;-0.1408014;4.70717;0.0008154996;-0.8393965;5.223576;-0.3210834;-0.9186276;6.097709;-0.6780278;0.7167042;4.881383;-0.01976936;1.009397;4.736362;0.0008153319;1.769691;5.266607;-0.2619945;2.105824;6.090156;-0.5884405;0.157744;2.786268;-0.1796938;0.130251;1.323638;-0.2081979;0;0;0;0.157744;2.786268;-0.1796938;0.130251;1.323638;-0.2081979;0;0;0
65137.0286;NotLabelled;NONE;16384;0.7685621;0.4515235;0.4238227;0.1606648;3;-2;0;2648;-2260;2243;65536;0.8099675;0.5650969;-0.0235457;0.1551246;1;-6;-2;-955;-3914;-1234;8192;0.8244163;0.3864266;-0.400277;-0.1038781;-2;-8;3;-2038;-2239;2755;32768;0.8303494;0.536011;-0.1218837;-0.09141274;-1;-5;0;1175;-3578;-1670;256;0.05263158;-0.04709141;-0.5983379;-0.7981253;-5;6;-1;-219;3910;-1237;128;0.01800554;0.06925207;0.6523545;0.7545287;3;7;0;-389;4055;628;4;0.5188473;-0.5;0.4903047;0.4903047;3;10;6;123;4032;-90;16;0.6357341;-0.761235;-0.07063711;-0.1066482;-3;23;0;87;4058;624;2;0.5447107;-0.5055401;-0.4612188;-0.4847645;-1;6;-6;-445;4042;131;8;0.6509695;-0.7479622;0.0235457;0.1274238;-5;-11;0;-581;4057;501;0.463429;2.82926;-0.1773303;0.4693827;3.371825;-0.2339832;0.4746136;3.848529;-0.2857928;0.4557597;4.55239;-0.07918426;0.18849;4.869034;-0.02394816;-0.1486138;4.70762;-0.002840068;-0.8478666;5.224026;-0.3233084;-0.9278752;6.098159;-0.6800799;0.7086472;4.882971;-0.02394834;1.001543;4.738434;-0.002839983;1.762657;5.267897;-0.2648491;2.098078;6.091447;-0.5920271;0.1511683;2.786632;-0.1802184;0.1276738;1.323917;-0.2080134;0;0;0;0.1511683;2.786632;-0.1802184;0.1276738;1.323917;-0.2080134;0;0;0
65157.0515;NotLabelled;NONE;16384;0.7682712;0.4515235;0.4238227;0.1620499;4;-3;0;2616;-2228;2257;65536;0.8099675;0.5650969;-0.0235457;0.1551246;0;-5;-2;-937;-3852;-1210;8192;0.8239158;0.3864266;-0.4016621;-0.1024931;0;-5;2;-1922;-2257;2761;32768;0.8305008;0.536011;-0.1218837;-0.0900277;0;-2;0;1127;-3562;-1642;256;0.05263158;-0.04709141;-0.5983379;-0.7981253;-4;5;-1;-231;3882;-1143;128;0.01800554;0.06786703;0.6523545;0.7546545;2;6;0;-403;4045;640;4;0.5188178;-0.501385;0.4889196;0.4903047;2;7;5;157;4140;-50;16;0.6357341;-0.7607775;-0.0734072;-0.1080332;-3;19;0;171;4022;762;2;0.54476;-0.5041551;-0.4612188;-0.4861496;-1;6;-5;-499;4126;97;8;0.6509695;-0.747725;0.0235457;0.1288089;-6;-7;1;-667;4003;455;0.463358;2.828563;-0.1774435;0.4693094;3.370913;-0.2361223;0.4745382;3.84742;-0.2897119;0.4550159;4.551908;-0.08531483;0.1874542;4.868488;-0.03113245;-0.1495122;4.706843;-0.009595526;-0.8524861;5.224427;-0.3198606;-0.9339984;6.098702;-0.6759459;0.7075991;4.882884;-0.03105766;1.000617;4.738673;-0.009429574;1.757719;5.270327;-0.2785304;2.091553;6.092609;-0.610484;0.1510972;2.785925;-0.1801596;0.1282017;1.323277;-0.2117271;0;0;0;0.1510972;2.785925;-0.1801596;0.1282017;1.323277;-0.2117271;0;0;0
65177.2244;NotLabelled;NONE;16384;0.7695524;0.4501385;0.4224377;0.1634349;5;-3;1;2516;-2126;2249;65536;0.8093467;0.5650969;-0.02631579;0.1578947;-1;-6;0;-1019;-3788;-1160;8192;0.824059;0.3850415;-0.4030471;-0.101108;0;-4;2;-1892;-2265;2765;32768;0.8305008;0.536011;-0.1218837;-0.0900277;-1;-2;0;1117;-3502;-1642;256;0.05263158;-0.04570637;-0.5983379;-0.7982058;-2;5;-1;-231;3854;-1061;128;0.01800554;0.06786703;0.6523545;0.7546545;0;5;1;-371;3997;640;4;0.5201195;-0.501385;0.4875346;0.4903047;1;5;4;103;4114;-112;16;0.634349;-0.7614001;-0.07479224;-0.1108033;-3;14;0;191;4036;782;2;0.5448022;-0.5027701;-0.4612188;-0.4875346;-1;4;-4;-469;4100;195;8;0.6495845;-0.7489285;0.0235457;0.1288089;-4;-3;2;-693;4047;609;0.4571246;2.828922;-0.1776149;0.463076;3.37127;-0.236311;0.4683048;3.847775;-0.2899159;0.4488119;4.552263;-0.08551607;0.1812581;4.868843;-0.03129515;-0.1557051;4.707199;-0.009709524;-0.857808;5.222274;-0.3260609;-0.9393715;6.096549;-0.6821349;0.7014028;4.883239;-0.03129536;0.9944237;4.739028;-0.009709716;1.753545;5.270112;-0.2742101;2.085973;6.092868;-0.6064016;0.1448639;2.786283;-0.1803296;0.1260441;1.323564;-0.2112338;0;0;0;0.1448639;2.786283;-0.1803296;0.1260441;1.323564;-0.2112338;0;0;0
65198.0571;NotLabelled;NONE;16384;0.7695524;0.4501385;0.4224377;0.1634349;5;-3;2;2432;-2146;2275;65536;0.8093467;0.5650969;-0.02631579;0.1578947;-2;-5;0;-1025;-3660;-1148;8192;0.824059;0.3850415;-0.4030471;-0.101108;0;-3;1;-1866;-2243;2719;32768;0.8305008;0.536011;-0.1218837;-0.0900277;0;-3;0;1083;-3562;-1660;256;0.05124654;-0.04432133;-0.599723;-0.7973342;-1;5;-2;-189;3878;-1095;128;0.01800554;0.06648199;0.6523545;0.7547778;-1;4;1;-399;3947;718;4;0.5201085;-0.501385;0.4861496;0.4916897;3;6;0;191;4046;76;16;0.632964;-0.7622122;-0.07617728;-0.1121884;-3;12;0;43;4016;804;2;0.5448022;-0.5027701;-0.4612188;-0.4875346;-1;0;-3;-361;4128;329;8;0.6495845;-0.7492076;0.02216066;0.1274238;-4;15;2;-1243;3959;677;0.460098;2.828032;-0.1766115;0.4660492;3.37038;-0.2353077;0.471278;3.846885;-0.2889126;0.4506111;4.551337;-0.08450308;0.1825302;4.86747;-0.03027769;-0.1541632;4.705263;-0.008694233;-0.8561255;5.218765;-0.327901;-0.9372714;6.093327;-0.6833631;0.7026502;4.882732;-0.03027785;0.995911;4.739009;-0.008694202;1.755435;5.268795;-0.2746355;2.087125;6.091551;-0.6075637;0.1478372;2.785393;-0.1793262;0.1297305;1.322751;-0.2140761;0;0;0;0.1478372;2.785393;-0.1793262;0.1297305;1.322751;-0.2140761;0;0;0
65219.1748;NotLabelled;NONE;16384;0.7708238;0.4487534;0.4210526;0.1648199;5;-4;2;2436;-2092;2241;65536;0.8090754;0.5650969;-0.02631579;0.1592798;-3;-5;0;-1009;-3606;-1210;8192;0.8233801;0.3850415;-0.4044321;-0.101108;0;-2;1;-1884;-2243;2803;32768;0.8306497;0.536011;-0.1218837;-0.08864266;-1;-3;-1;1053;-3534;-1720;256;0.05124654;-0.04432133;-0.599723;-0.7973342;0;4;-2;-213;3808;-1169;128;0.01939058;0.06648199;0.6523545;0.7547435;-2;1;0;-351;3949;700;4;0.5213702;-0.5027701;0.4847645;0.4903047;2;7;0;273;4148;74;16;0.6315789;-0.7630159;-0.07756232;-0.1135734;-3;5;0;261;3992;892;2;0.5449043;-0.501385;-0.4626039;-0.4875346;-4;1;-1;-273;4176;289;8;0.6495845;-0.7495187;0.01939058;0.1260388;-7;26;3;-711;4059;457;0.4562753;2.82724;-0.1775453;0.4622266;3.369586;-0.2362587;0.4674553;3.846089;-0.2898788;0.4473098;4.5512;-0.08769882;0.1794662;4.867707;-0.03449787;-0.1573532;4.705829;-0.01243309;-0.8605376;5.219331;-0.3289389;-0.9430491;6.093893;-0.6840865;0.6995978;4.882572;-0.03449801;0.9927466;4.738693;-0.01243296;1.751243;5.268478;-0.2812923;2.081651;6.091235;-0.6154925;0.1440146;2.784601;-0.1802585;0.1304159;1.321992;-0.2183007;0;0;0;0.1440146;2.784601;-0.1802585;0.1304159;1.321992;-0.2183007;0;0;0
65241.0513;NotLabelled;NONE;16384;0.7708238;0.4487534;0.4210526;0.1648199;5;-4;2;2468;-2162;2215;65536;0.8090291;0.5650969;-0.02770083;0.1592798;-3;-5;0;-969;-3624;-1310;8192;0.823549;0.3850415;-0.4044321;-0.09972299;0;0;1;-1860;-2305;2795;32768;0.8315419;0.534626;-0.1218837;-0.08864266;0;-2;-1;1017;-3516;-1768;256;0.05124654;-0.04293629;-0.5983379;-0.7984498;1;2;-1;-235;3810;-1159;128;0.01939058;0.06509695;0.6509695;0.7560589;-4;1;1;-417;3957;714;4;0.5226546;-0.5027701;0.4833795;0.4903047;1;6;-1;287;4044;-32;16;0.6315789;-0.7631554;-0.07617728;-0.1135734;-3;-3;0;173;4062;816;2;0.5461755;-0.5;-0.4626039;-0.4875346;-3;7;0;-303;4044;217;8;0.6495845;-0.750272;0.0166205;0.1218837;-4;22;3;-429;4127;507;0.4575427;2.826479;-0.1814233;0.463494;3.368821;-0.2401741;0.4687228;3.845321;-0.2938268;0.4485773;4.550431;-0.09164688;0.1807336;4.866939;-0.03844598;-0.156086;4.70506;-0.01638113;-0.8584275;5.216983;-0.3372871;-0.942422;6.091322;-0.6926327;0.7008653;4.881803;-0.03844598;0.994014;4.737925;-0.01638091;1.753883;5.266936;-0.282879;2.08293;6.090162;-0.6172602;0.1452819;2.78384;-0.1841334;0.1319362;1.321224;-0.2220061;0;0;0;0.1452819;2.78384;-0.1841334;0.1319362;1.321224;-0.2220061;0;0;0
65261.2659;NotLabelled;NONE;16384;0.7720858;0.4473684;0.4196676;0.166205;5;-5;1;2472;-2150;2211;65536;0.8097212;0.5637119;-0.02770083;0.1606648;-4;-4;0;-945;-3684;-1384;8192;0.8242278;0.3850415;-0.4030471;-0.09972299;0;1;0;-1864;-2269;2729;32768;0.8315419;0.534626;-0.1218837;-0.08864266;0;1;0;1107;-3506;-1712;256;0.05124654;-0.04293629;-0.5983379;-0.7984498;3;2;-2;-181;3820;-1221;128;0.01939058;0.06509695;0.6495845;0.7572492;-5;2;2;-389;3991;796;4;0.5213187;-0.5041551;0.4833795;0.4903047;0;13;-3;285;4090;-86;16;0.6315789;-0.7631554;-0.07617728;-0.1135734;-3;1;0;23;3978;846;2;0.5438454;-0.4986149;-0.4653739;-0.4889196;-3;8;1;-521;3980;-33;8;0.6481994;-0.7519424;0.01523546;0.1191136;-2;7;0;-537;4095;457;0.4586983;2.826185;-0.1774207;0.4646519;3.368738;-0.2341956;0.4698827;3.84543;-0.2861125;0.4484223;4.549794;-0.08148475;0.179985;4.865608;-0.0271592;-0.1565249;4.703014;-0.005622942;-0.8595443;5.214937;-0.3250409;-0.94226;6.089646;-0.6797791;0.7000875;4.881458;-0.02715923;0.9935107;4.738059;-0.005622596;1.751934;5.268275;-0.2738392;2.080561;6.090226;-0.6117562;0.1464376;2.783556;-0.1802986;0.1338099;1.321038;-0.2219931;0;0;0;0.1464376;2.783556;-0.1802986;0.1338099;1.321038;-0.2219931;0;0;0
65282.0499;NotLabelled;NONE;16384;0.7717864;0.4473684;0.4196676;0.16759;3;-6;0;2514;-2234;2215;65536;0.8103594;0.5623268;-0.02908587;0.1620499;-1;-4;0;-1021;-3656;-1470;8192;0.824059;0.3850415;-0.4030471;-0.101108;0;1;1;-1852;-2247;2695;32768;0.8315419;0.534626;-0.1218837;-0.08864266;0;0;0;1175;-3558;-1730;256;0.05124654;-0.04293629;-0.5983379;-0.7984498;4;3;-3;-211;3852;-1205;128;0.01939058;0.06371191;0.6481994;0.7585528;-6;3;1;-405;4053;764;4;0.5225592;-0.5055401;0.4819945;0.4889196;1;16;-3;225;4108;-92;16;0.6301939;-0.7642995;-0.07617728;-0.1135734;-4;2;0;151;4014;826;2;0.545112;-0.4972299;-0.4653739;-0.4889196;-2;0;0;-573;3998;71;8;0.6495845;-0.7510157;0.01246537;0.1177285;0;21;0;-1035;4055;563;0.4553847;2.826322;-0.1818021;0.4613405;3.369079;-0.2365865;0.4665735;3.845958;-0.2867545;0.4451129;4.550323;-0.08212677;0.1766756;4.866136;-0.02780116;-0.1598342;4.703543;-0.006265011;-0.8620011;5.213879;-0.3300679;-0.9453479;6.087276;-0.6878766;0.6967781;4.881986;-0.0278012;0.9902014;4.738588;-0.006264508;1.747247;5.269574;-0.2768377;2.075874;6.091524;-0.6147542;0.1431241;2.783704;-0.1848489;0.13381;1.321038;-0.2219932;0;0;0;0.1431241;2.783704;-0.1848489;0.13381;1.321038;-0.2219932;0;0;0
65303.0471;NotLabelled;NONE;16384;0.7722361;0.4473684;0.4182825;0.1689751;3;-7;0;2490;-2228;2181;65536;0.8103594;0.5623268;-0.02908587;0.1620499;0;-6;-1;-995;-3620;-1470;8192;0.824059;0.3850415;-0.4030471;-0.101108;0;1;2;-1882;-2243;2767;32768;0.8315419;0.534626;-0.1218837;-0.08864266;0;-2;0;1145;-3592;-1760;256;0.05263158;-0.04155125;-0.5969529;-0.7994689;4;3;-3;-247;3894;-1255;128;0.01939058;0.06371191;0.6481994;0.7585528;-7;2;1;-381;4085;706;4;0.5237857;-0.5069252;0.4806094;0.4875346;3;20;-3;129;4110;-2;16;0.6301939;-0.7642995;-0.07617728;-0.1135734;-4;-2;1;223;3994;842;2;0.545112;-0.4972299;-0.4653739;-0.4889196;-3;-3;0;-271;4188;333;8;0.6495845;-0.7515022;0.008310249;0.1149584;0;40;2;-893;4009;765;0.4563488;2.825413;-0.1864353;0.4623068;3.368365;-0.2392496;0.4675417;3.845423;-0.2876864;0.4460812;4.549788;-0.08305871;0.1776438;4.865602;-0.0287331;-0.158866;4.703008;-0.007196886;-0.8619394;5.212018;-0.3311187;-0.9438242;6.08447;-0.6915666;0.6977463;4.881451;-0.02873309;0.9911695;4.738052;-0.007196486;1.749095;5.267839;-0.27766;2.077723;6.089789;-0.6155763;0.1440884;2.782806;-0.1896492;0.13505;1.320133;-0.2265761;0;0;0;0.1440884;2.782806;-0.1896492;0.13505;1.320133;-0.2265761;0;0;0
65325.0201;NotLabelled;NONE;16384;0.7719318;0.4473684;0.4182825;0.1703601;4;-8;0;2544;-2248;2193;65536;0.8100303;0.5623268;-0.03047091;0.1634349;1;-7;-2;-1009;-3722;-1468;8192;0.824059;0.3850415;-0.4030471;-0.101108;-1;0;2;-1942;-2311;2783;32768;0.8314842;0.534626;-0.1232687;-0.08725762;0;-4;0;1105;-3652;-1812;256;0.05124654;-0.04155125;-0.5955678;-0.8005912;4;4;-2;-193;3842;-1249;128;0.01939058;0.06371191;0.6468144;0.7597342;-7;1;0;-427;4051;700;4;0.5248522;-0.5110803;0.4778393;0.4847645;2;15;-3;135;4044;-6;16;0.6288089;-0.7652326;-0.07617728;-0.1149584;-4;0;1;81;3990;732;2;0.5463511;-0.4972299;-0.4653739;-0.4875346;-5;-2;1;-173;4168;257;8;0.6509695;-0.7509685;0.002770083;0.1108033;-1;44;2;-499;4057;815;0.4559432;2.825421;-0.186764;0.4619012;3.368373;-0.2395782;0.4671361;3.845431;-0.2880151;0.4428149;4.549047;-0.08114046;0.1730929;4.863583;-0.02578217;-0.1627461;4.699546;-0.004731875;-0.8653032;5.208286;-0.3301942;-0.9474056;6.080737;-0.6905922;0.6931263;4.881562;-0.02578211;0.9871364;4.739298;-0.004731178;1.744858;5.269084;-0.2757663;2.073282;6.091035;-0.6138811;0.1436828;2.782815;-0.1899779;0.1349132;1.320133;-0.2266576;0;0;0;0.1436828;2.782815;-0.1899779;0.1349132;1.320133;-0.2266576;0;0;0
65345.3094;NotLabelled;NONE;16384;0.7716248;0.4473684;0.4182825;0.1717452;3;-9;-1;2590;-2180;2177;65536;0.8100303;0.5623268;-0.03047091;0.1634349;2;-6;-1;-1073;-3734;-1412;8192;0.8234105;0.3864266;-0.4030471;-0.101108;-3;0;3;-1954;-2327;2853;32768;0.8314842;0.534626;-0.1232687;-0.08725762;0;-5;0;1153;-3604;-1782;256;0.05124654;-0.03878116;-0.5941828;-0.8017585;4;3;-2;-185;3944;-1347;128;0.01800554;0.06371191;0.6454294;0.7609451;-7;1;1;-405;4019;774;4;0.5247791;-0.5124654;0.4778393;0.4833795;0;12;-3;91;4058;-64;16;0.6288089;-0.7652326;-0.07617728;-0.1149584;-5;-1;1;79;4012;646;2;0.5451683;-0.4972299;-0.466759;-0.4875346;-3;0;2;-97;4140;193;8;0.6509695;-0.7515749;0;0.1066482;0;32;1;-167;3891;981;0.4555547;2.824561;-0.1953902;0.4615147;3.367702;-0.2462192;0.4667515;3.844935;-0.2929118;0.4438861;4.547821;-0.08341013;0.1748051;4.862684;-0.02680272;-0.1613532;4.699237;-0.006266989;-0.8660527;5.205463;-0.3310167;-0.9482276;6.078068;-0.6910231;0.694873;4.879631;-0.02688551;0.9886058;4.736706;-0.006449461;1.745286;5.265492;-0.282304;2.073748;6.087476;-0.6203008;0.1432943;2.781967;-0.1987722;0.1383707;1.319147;-0.2302859;0;0;0;0.1432943;2.781967;-0.1987722;0.1383707;1.319147;-0.2302859;0;0;0
65367.2263;NotLabelled;NONE;16384;0.7720647;0.4473684;0.4168975;0.1731302;2;-7;-1;2650;-2122;2207;65536;0.8096963;0.5623268;-0.03185596;0.1648199;3;-4;-1;-987;-3860;-1344;8192;0.8229001;0.3864266;-0.4044321;-0.09972299;-5;-1;3;-1914;-2389;2673;32768;0.8315638;0.534626;-0.1246537;-0.08448754;2;-4;2;1121;-3518;-1700;256;0.05124654;-0.03878116;-0.5941828;-0.8017585;3;3;-2;-203;3852;-1295;128;0.01939058;0.06232687;0.6440443;0.7621983;-8;0;1;-455;4079;734;4;0.5273063;-0.5124654;0.4764543;0.4819945;0;10;-2;-73;4044;-94;16;0.6274238;-0.7667115;-0.07479224;-0.1135734;-6;-2;0;13;3912;668;2;0.5452176;-0.4972299;-0.468144;-0.4861496;-3;3;4;-27;4094;21;8;0.6509695;-0.7521515;-0.001385042;0.1024931;0;23;1;-193;4073;667;0.4552096;2.824629;-0.1999587;0.4611717;3.367956;-0.248769;0.4664102;3.845358;-0.2936877;0.4410579;4.547426;-0.081745;0.1708657;4.861139;-0.02405579;-0.1647144;4.696437;-0.00410375;-0.8710931;5.202524;-0.3254041;-0.9548331;6.075128;-0.6850507;0.6908706;4.879921;-0.02405567;0.9851052;4.737964;-0.004103228;1.740642;5.269472;-0.2778508;2.067631;6.091456;-0.617274;0.1429494;2.782047;-0.2035118;0.1373676;1.319147;-0.2308869;0;0;0;0.1429494;2.782047;-0.2035118;0.1373676;1.319147;-0.2308869;0;0;0
65388.0391;NotLabelled;NONE;16384;0.7717528;0.4473684;0.4168975;0.1745152;0;-5;-2;2568;-2244;2163;65536;0.8096963;0.5623268;-0.03185596;0.1648199;3;-4;0;-971;-3744;-1344;8192;0.8215655;0.3878116;-0.4058172;-0.09972299;-5;0;3;-1916;-2253;2631;32768;0.8317702;0.534626;-0.1232687;-0.08448754;4;-3;3;1077;-3554;-1704;256;0.05124654;-0.03739612;-0.5941828;-0.8018243;2;3;-2;-217;3890;-1285;128;0.01800554;0.06232687;0.6426592;0.7634004;-7;1;1;-471;4067;746;4;0.5259567;-0.5138504;0.4764543;0.4819945;0;4;-1;5;4024;-98;16;0.6274238;-0.7667115;-0.07479224;-0.1135734;-6;-10;0;177;3998;670;2;0.5440252;-0.4972299;-0.4695291;-0.4861496;-2;10;3;-267;4116;-29;8;0.6509695;-0.7526869;-0.005540166;0.09833795;-1;23;2;-319;4083;455;0.4590825;2.823453;-0.2009955;0.4650463;3.366949;-0.2478799;0.4702867;3.844507;-0.2911063;0.4449342;4.546576;-0.07916333;0.1747421;4.860289;-0.02147389;-0.160838;4.695586;-0.001522001;-0.8664077;5.20141;-0.3250075;-0.9495429;6.074172;-0.6844136;0.694747;4.87907;-0.02147377;0.9889815;4.737113;-0.001521379;1.745071;5.269052;-0.2728998;2.071379;6.09154;-0.6117512;0.1468225;2.780884;-0.2047116;0.13827;1.318084;-0.2363536;0;0;0;0.1468225;2.780884;-0.2047116;0.13827;1.318084;-0.2363536;0;0;0
65409.3217;NotLabelled;NONE;16384;0.7706335;0.4487534;0.4168975;0.1759003;0;-5;-3;2598;-2280;2139;65536;0.8084491;0.5637119;-0.03185596;0.166205;3;-4;0;-1015;-3728;-1286;8192;0.8215655;0.3878116;-0.4058172;-0.09972299;-5;0;4;-2026;-2319;2655;32768;0.831018;0.536011;-0.1232687;-0.08310249;6;-2;2;1059;-3636;-1636;256;0.05124654;-0.03739612;-0.5927978;-0.8028488;2;2;-2;-209;3898;-1245;128;0.01800554;0.06232687;0.6426592;0.7634004;-5;1;1;-467;4035;646;4;0.5259567;-0.5138504;0.4764543;0.4819945;1;2;-1;61;4122;-66;16;0.6274238;-0.7671805;-0.07202215;-0.1121884;-7;-17;0;195;4006;752;2;0.5428515;-0.4958449;-0.4709141;-0.4875346;0;12;2;-337;4054;9;8;0.6523545;-0.7520075;-0.006925208;0.09418282;0;26;2;-423;4025;371;0.4553222;2.823546;-0.2057466;0.461288;3.367212;-0.2506179;0.4665301;3.844928;-0.2920756;0.4400169;4.546949;-0.08011997;0.1693063;4.860214;-0.02242468;-0.1660009;4.694957;-0.002475303;-0.8731841;5.199451;-0.324509;-0.9571192;6.072212;-0.6837293;0.6892793;4.879856;-0.02242486;0.9837483;4.738385;-0.002475157;1.740138;5.271261;-0.2711611;2.063651;6.094181;-0.6116433;0.1430624;2.780992;-0.2096328;0.1377435;1.318084;-0.2366617;0;0;0;0.1430624;2.780992;-0.2096328;0.1377435;1.318084;-0.2366617;0;0;0
65430.0355;NotLabelled;NONE;16384;0.7706335;0.4487534;0.4168975;0.1759003;1;-4;-3;2554;-2190;2213;65536;0.8083934;0.5637119;-0.033241;0.166205;3;-2;-2;-1077;-3762;-1216;8192;0.8209103;0.3891967;-0.4058172;-0.09972299;-4;2;2;-2028;-2257;2677;32768;0.831018;0.536011;-0.1232687;-0.08310249;6;0;1;989;-3640;-1600;256;0.05124654;-0.03739612;-0.5927978;-0.8028488;0;3;-1;-239;3994;-1251;128;0.01939058;0.06232687;0.6412742;0.7645304;-6;0;1;-399;4149;710;4;0.5272081;-0.5138504;0.4750692;0.4819945;0;1;3;71;4066;36;16;0.6260388;-0.7687667;-0.06925207;-0.1108033;-12;-7;0;19;4012;496;2;0.5416647;-0.4944598;-0.4722992;-0.4889196;0;12;1;-349;4020;105;8;0.6523545;-0.7523186;-0.009695291;0.09141274;-1;16;3;-171;3951;405;0.457358;2.823223;-0.2063528;0.4633237;3.366889;-0.2512241;0.4685659;3.844604;-0.2926818;0.4419338;4.545888;-0.07830974;0.1711653;4.858895;-0.01950243;-0.1641048;4.6935;-7.807463E-05;-0.8723739;5.197976;-0.3197462;-0.958662;6.071614;-0.6762676;0.6911343;4.878645;-0.0195023;0.9856354;4.737168;-7.739663E-05;1.741959;5.270045;-0.268948;2.063761;6.094708;-0.6068256;0.1450981;2.780669;-0.2102391;0.1397775;1.317761;-0.2372684;0;0;0;0.1450981;2.780669;-0.2102391;0.1397775;1.317761;-0.2372684;0;0;0
65450.239;NotLabelled;NONE;16384;0.770316;0.4487534;0.4168975;0.1772853;0;-5;-2;2552;-2144;2175;65536;0.8083934;0.5637119;-0.033241;0.166205;2;-3;-2;-1025;-3756;-1200;8192;0.8209103;0.3891967;-0.4058172;-0.09972299;-4;2;1;-2050;-2249;2741;32768;0.830123;0.5373961;-0.1232687;-0.08310249;5;-1;0;1055;-3678;-1536;256;0.05124654;-0.03739612;-0.5927978;-0.8028488;1;0;-2;-221;3862;-1161;128;0.01939058;0.06094183;0.6412742;0.7646421;-3;0;1;-395;4045;666;4;0.5272081;-0.5138504;0.4750692;0.4819945;-1;-2;8;135;4012;-14;16;0.6246537;-0.7700906;-0.06925207;-0.1094183;-14;-6;0;209;4028;568;2;0.5416647;-0.4944598;-0.4722992;-0.4889196;1;8;1;-463;3980;33;8;0.6523545;-0.7523352;-0.008310249;0.09141274;0;-5;1;-257;3927;513;0.4596993;2.821855;-0.2075641;0.4656668;3.365677;-0.2504957;0.4709104;3.843537;-0.2902489;0.4442784;4.54482;-0.07587653;0.1735099;4.857829;-0.01706892;-0.1617603;4.692433;0.002355497;-0.869974;5.196909;-0.317435;-0.9541798;6.070924;-0.6735301;0.6934791;4.877579;-0.017069;0.9879802;4.736101;0.002355561;1.743861;5.270686;-0.2643626;2.065662;6.09535;-0.6022403;0.1474395;2.779314;-0.2116144;0.1429744;1.316478;-0.2424253;0;0;0;0.1474395;2.779314;-0.2116144;0.1429744;1.316478;-0.2424253;0;0;0
65471.028;NotLabelled;NONE;16384;0.770316;0.4487534;0.4168975;0.1772853;1;-5;-2;2548;-2180;2237;65536;0.8074258;0.5650969;-0.033241;0.166205;2;-4;-2;-979;-3798;-1178;8192;0.8200827;0.3905817;-0.4058172;-0.101108;-4;0;2;-2040;-2307;2713;32768;0.8293624;0.5387812;-0.1232687;-0.08171745;4;-3;0;1091;-3664;-1552;256;0.05124654;-0.03601108;-0.5927978;-0.8029121;0;0;-2;-219;3922;-1207;128;0.01800554;0.06094183;0.6398892;0.7658353;-3;-5;0;-411;4033;618;4;0.5285327;-0.5124654;0.4736842;0.4833795;0;-8;13;87;4094;100;16;0.6232687;-0.771769;-0.06509695;-0.1080332;-17;-30;-1;793;4100;630;2;0.5404112;-0.4944598;-0.4722992;-0.4903047;4;0;0;-593;4012;137;8;0.6523545;-0.7523352;-0.008310249;0.09141274;-1;-3;2;-1133;3999;753;0.4581599;2.820956;-0.2132804;0.4641274;3.364778;-0.2562309;0.4693711;3.842636;-0.2960007;0.442739;4.543919;-0.08162874;0.1719706;4.856927;-0.02282129;-0.1632996;4.691532;-0.003396858;-0.8724677;5.194674;-0.3231732;-0.9566737;6.068689;-0.679269;0.6919394;4.876678;-0.02282137;0.9864407;4.7352;-0.0033966;1.742274;5.269785;-0.2702476;2.063744;6.095717;-0.6053276;0.1459002;2.778416;-0.2173291;0.1414351;1.31558;-0.2481393;0;0;0;0.1459002;2.778416;-0.2173291;0.1414351;1.31558;-0.2481393;0;0;0
65491.1892;NotLabelled;NONE;16384;0.7712269;0.4473684;0.4155124;0.1800554;1;-3;-2;2722;-2228;2327;65536;0.8070812;0.5650969;-0.03462604;0.16759;0;-2;0;-877;-3860;-1162;8192;0.818904;0.3919668;-0.4072022;-0.09972299;-4;-1;2;-1916;-2341;2701;32768;0.8292907;0.5387812;-0.1246537;-0.08033241;3;-4;0;1079;-3696;-1498;256;0.05263158;-0.03601108;-0.5927978;-0.8028225;0;-2;-1;-305;3920;-1201;128;0.0166205;0.06232687;0.6398892;0.7657552;0;-7;0;-411;4059;702;4;0.5299409;-0.5096953;0.4736842;0.4847645;-3;-14;17;-37;4184;226;16;0.6232687;-0.7728917;-0.05817174;-0.1038781;-18;-62;-5;1117;3996;736;2;0.5416044;-0.4958449;-0.4709141;-0.4889196;1;-12;2;-323;4324;303;8;0.6523545;-0.7526093;-0.01246537;0.08864266;-4;21;4;-787;4081;709;0.4617658;2.819235;-0.2103878;0.4677349;3.363211;-0.2513313;0.4729801;3.841213;-0.2893376;0.4451913;4.542447;-0.07495175;0.1739069;4.855007;-0.01613809;-0.1610899;4.689058;0.003283195;-0.870909;5.192201;-0.3150463;-0.9567539;6.067301;-0.6680707;0.6938425;4.875615;-0.016138;0.9885768;4.734623;0.003283858;1.744271;5.269699;-0.2629766;2.063294;6.097358;-0.5961306;0.1495062;2.77671;-0.214606;0.1463435;1.314058;-0.2533045;0;0;0;0.1495062;2.77671;-0.214606;0.1463435;1.314058;-0.2533045;0;0;0
