SEP=;
index;label;segment;RightUpperArm_boneIndex;RightUpperArm_quat9x_w;RightUpperArm_quat9x_x;RightUpperArm_quat9x_y;RightUpperArm_quat9x_z;RightUpperArm_gyroscope_x;RightUpperArm_gyroscope_y;RightUpperArm_gyroscope_z;RightUpperArm_accelerometer_x;RightUpperArm_accelerometer_y;RightUpperArm_accelerometer_z;RightLowerArm_boneIndex;RightLowerArm_quat9x_w;RightLowerArm_quat9x_x;RightLowerArm_quat9x_y;RightLowerArm_quat9x_z;RightLowerArm_gyroscope_x;RightLowerArm_gyroscope_y;RightLowerArm_gyroscope_z;RightLowerArm_accelerometer_x;RightLowerArm_accelerometer_y;RightLowerArm_accelerometer_z;LeftUpperArm_boneIndex;LeftUpperArm_quat9x_w;LeftUpperArm_quat9x_x;LeftUpperArm_quat9x_y;LeftUpperArm_quat9x_z;LeftUpperArm_gyroscope_x;LeftUpperArm_gyroscope_y;LeftUpperArm_gyroscope_z;LeftUpperArm_accelerometer_x;LeftUpperArm_accelerometer_y;LeftUpperArm_accelerometer_z;LeftLowerArm_boneIndex;LeftLowerArm_quat9x_w;LeftLowerArm_quat9x_x;LeftLowerArm_quat9x_y;LeftLowerArm_quat9x_z;LeftLowerArm_gyroscope_x;LeftLowerArm_gyroscope_y;LeftLowerArm_gyroscope_z;LeftLowerArm_accelerometer_x;LeftLowerArm_accelerometer_y;LeftLowerArm_accelerometer_z;Chest_boneIndex;Chest_quat9x_w;Chest_quat9x_x;Chest_quat9x_y;Chest_quat9x_z;Chest_gyroscope_x;Chest_gyroscope_y;Chest_gyroscope_z;Chest_accelerometer_x;Chest_accelerometer_y;Chest_accelerometer_z;Spine_boneIndex;Spine_quat9x_w;Spine_quat9x_x;Spine_quat9x_y;Spine_quat9x_z;Spine_gyroscope_x;Spine_gyroscope_y;Spine_gyroscope_z;Spine_accelerometer_x;Spine_accelerometer_y;Spine_accelerometer_z;RightUpperLeg_boneIndex;RightUpperLeg_quat9x_w;RightUpperLeg_quat9x_x;RightUpperLeg_quat9x_y;RightUpperLeg_quat9x_z;RightUpperLeg_gyroscope_x;RightUpperLeg_gyroscope_y;RightUpperLeg_gyroscope_z;RightUpperLeg_accelerometer_x;RightUpperLeg_accelerometer_y;RightUpperLeg_accelerometer_z;RightLowerLeg_boneIndex;RightLowerLeg_quat9x_w;RightLowerLeg_quat9x_x;RightLowerLeg_quat9x_y;RightLowerLeg_quat9x_z;RightLowerLeg_gyroscope_x;RightLowerLeg_gyroscope_y;RightLowerLeg_gyroscope_z;RightLowerLeg_accelerometer_x;RightLowerLeg_accelerometer_y;RightLowerLeg_accelerometer_z;LeftUpperLeg_boneIndex;LeftUpperLeg_quat9x_w;LeftUpperLeg_quat9x_x;LeftUpperLeg_quat9x_y;LeftUpperLeg_quat9x_z;LeftUpperLeg_gyroscope_x;LeftUpperLeg_gyroscope_y;LeftUpperLeg_gyroscope_z;LeftUpperLeg_accelerometer_x;LeftUpperLeg_accelerometer_y;LeftUpperLeg_accelerometer_z;LeftLowerLeg_boneIndex;LeftLowerLeg_quat9x_w;LeftLowerLeg_quat9x_x;LeftLowerLeg_quat9x_y;LeftLowerLeg_quat9x_z;LeftLowerLeg_gyroscope_x;LeftLowerLeg_gyroscope_y;LeftLowerLeg_gyroscope_z;LeftLowerLeg_accelerometer_x;LeftLowerLeg_accelerometer_y;LeftLowerLeg_accelerometer_z;pelvis_x;pelvis_y;pelvis_z;lowerSpine_x;lowerSpine_y;lowerSpine_z;middleSpine_x;middleSpine_y;middleSpine_z;upperSpine_x;upperSpine_y;upperSpine_z;rightClavicle_x;rightClavicle_y;rightClavicle_z;rightShoulder_x;rightShoulder_y;rightShoulder_z;rightElbow_x;rightElbow_y;rightElbow_z;rightWrist_x;rightWrist_y;rightWrist_z;leftClavicle_x;leftClavicle_y;leftClavicle_z;leftShoulder_x;leftShoulder_y;leftShoulder_z;leftElbow_x;leftElbow_y;leftElbow_z;leftWrist_x;leftWrist_y;leftWrist_z;rightHip_x;rightHip_y;rightHip_z;rightKnee_x;rightKnee_y;rightKnee_z;rightAnkle_x;rightAnkle_y;rightAnkle_z;leftHip_x;leftHip_y;leftHip_z;leftKnee_x;leftKnee_y;leftKnee_z;leftAnkle_x;leftAnkle_y;leftAnkle_z;
1850753.668;NotLabelled;NONE;16384;0.7076777;0.5817174;0.3961219;0.06232687;37;3;-23;2206;-2946;1442;65536;0.6233642;0.2811634;-0.5152354;-0.5166205;16;-6;-3;3843;492;-1324;8192;0.5844875;-0.7344614;-0.3448753;0.001385042;-3;-12;0;1838;3398;-388;32768;0.5041551;-0.7114963;0.432133;-0.2299169;-11;0;-1;3917;1594;770;256;0.06648199;-0.2894737;-0.6246537;-0.7222139;-15;5;-3;836;4032;-888;128;-0.02631579;0.2105263;0.6094183;0.7639343;-1;-1;1;-660;3868;1136;4;-0.599723;0.132964;-0.468144;-0.6352118;-6;-15;9;2268;3152;484;16;0.6966759;-0.7004874;0.01800554;-0.1537396;6;-17;-4;795;4149;42;2;0.5609418;-0.7220957;-0.3088643;-0.2617728;5;-23;0;676;4106;-396;8;0.3587258;-0.7751508;0.365651;0.3698061;0;-25;-4;1199;3543;2227;0.6685572;2.452207;1.151455;0.6745434;2.997716;1.153643;0.6798055;3.477227;1.153543;0.8704385;4.166807;1.316643;0.7080829;4.550397;1.351953;0.3389482;4.496038;1.38235;-0.1518694;5.21994;1.076748;0.7575371;5.048326;1.280034;1.209616;4.411754;1.351953;1.447924;4.18947;1.38235;1.617154;3.365335;1.851858;0.8105388;2.873538;1.77909;0.3563028;2.410158;1.143618;0.2680916;1.305822;0.1878358;0;0;0;0.3563028;2.410158;1.143618;0.2680916;1.305822;0.1878358;0;0;0
1850773.6573;NotLabelled;NONE;16384;0.7127771;0.5706371;0.4016621;0.07063711;41;7;-21;2406;-2826;1854;65536;0.6279022;0.2811634;-0.5166205;-0.5096953;13;-26;3;3655;486;-1738;8192;0.5844875;-0.7351062;-0.3434903;0.002770083;-1;-12;-1;2110;3530;-482;32768;0.501385;-0.7117658;0.434903;-0.2299169;-12;0;3;3983;1758;466;256;0.06786703;-0.2880886;-0.6274238;-0.7202349;-14;5;-5;914;4236;-718;128;-0.02631579;0.2119114;0.6080332;0.7646546;-8;-5;0;-836;3830;1472;4;-0.5983379;0.1301939;-0.468144;-0.637089;-5;-24;5;2122;3064;400;16;0.6980609;-0.6996736;0.01939058;-0.1509695;9;-20;-3;783;3969;244;2;0.5623268;-0.7226082;-0.3074792;-0.2590028;2;-16;1;1048;4198;-746;8;0.3587258;-0.773833;0.367036;0.3711911;0;-19;-4;1203;3653;2249;0.6655129;2.452075;1.153788;0.6714993;2.997573;1.157911;0.6767611;3.477082;1.159512;0.8668033;4.167409;1.32012;0.7041162;4.550983;1.354059;0.3350306;4.496413;1.384672;-0.1619246;5.212058;1.069685;0.7461553;5.039782;1.278274;1.20577;4.412776;1.354529;1.444272;4.190811;1.385712;1.616788;3.367065;1.854709;0.8092697;2.875544;1.790615;0.3532591;2.410055;1.14579;0.263785;1.306498;0.1892249;0;0;0;0.3532591;2.410055;1.14579;0.263785;1.306498;0.1892249;0;0;0
1850814.6735;NotLabelled;NONE;16384;0.7153401;0.5650969;0.4044321;0.0734072;31;-1;-19;2580;-2688;1854;65536;0.6307021;0.2797784;-0.5193906;-0.5041551;19;-40;0;3991;406;-1910;8192;0.5844875;-0.7357453;-0.3421052;0.004155125;1;-6;0;2190;3676;-470;32768;0.5;-0.7118925;0.4362881;-0.2299169;-9;0;7;4037;1926;472;256;0.06925207;-0.2880886;-0.6288089;-0.7188939;-9;-27;2;758;3950;-544;128;-0.02770083;0.2119114;0.6066482;0.765705;-2;-5;0;-846;4058;1370;4;-0.5955678;0.1274238;-0.4695291;-0.6392218;-5;-35;0;2200;2988;522;16;0.7002258;-0.6980609;0.02077562;-0.1481994;10;-21;-3;1051;4029;314;2;0.5623268;-0.7236905;-0.3060942;-0.2576177;2;-18;3;852;4116;-908;8;0.3573407;-0.7724882;0.3698061;0.3725762;2;-20;-5;1287;3627;2199;0.6654706;2.449882;1.157209;0.6714566;2.995362;1.163322;0.6767185;3.474861;1.166672;0.8659021;4.166752;1.321457;0.702573;4.550261;1.352975;0.3336884;4.495215;1.38512;-0.1712989;5.195999;1.050127;0.7379411;5.031565;1.259986;1.204494;4.413023;1.352975;1.443519;4.191761;1.38512;1.616674;3.36655;1.851296;0.8058493;2.879715;1.793497;0.353217;2.407891;1.149045;0.2602748;1.307153;0.1895693;0;0;0;0.353217;2.407891;1.149045;0.2602748;1.307153;0.1895693;0;0;0
1850834.6579;NotLabelled;NONE;16384;0.7165994;0.5609418;0.4072022;0.07756232;21;-7;-14;2464;-2802;2020;65536;0.633426;0.2783934;-0.5221606;-0.4986149;18;-30;3;4455;340;-1584;8192;0.5844875;-0.7357453;-0.3421052;0.004155125;1;-7;-1;1954;3756;-270;32768;0.4972299;-0.7129816;0.4376731;-0.2299169;-8;1;11;3955;1946;498;256;0.07202215;-0.2894737;-0.6274238;-0.7192754;15;-26;2;704;3104;-994;128;-0.02770083;0.2119114;0.6066482;0.765705;5;-5;0;-916;3976;1752;4;-0.5914127;0.1246537;-0.4709141;-0.6425981;-6;-33;-4;2674;3026;504;16;0.7020959;-0.6966759;0.0235457;-0.1454294;10;-21;-1;1041;4081;316;2;0.5623268;-0.7252541;-0.3047091;-0.2548476;3;-16;5;962;4190;-656;8;0.3573407;-0.7704803;0.3711911;0.3753462;4;-15;-6;1155;3645;2071;0.6607671;2.450114;1.161602;0.6667528;2.995572;1.169484;0.6720145;3.475057;1.17439;0.8605112;4.16776;1.326355;0.6967884;4.55122;1.356376;0.3279695;4.49592;1.388833;-0.1783149;5.188495;1.039057;0.7299417;5.026674;1.255115;1.198852;4.41451;1.356801;1.438118;4.193629;1.389773;1.609714;3.370129;1.859538;0.7974505;2.885644;1.802182;0.3485138;2.408151;1.153291;0.2541213;1.307782;0.1935316;0;0;0;0.3485138;2.408151;1.153291;0.2541213;1.307782;0.1935316;0;0;0
1850854.8406;NotLabelled;NONE;16384;0.7169232;0.5609418;0.4058172;0.08171745;11;-21;-7;2756;-3054;1994;65536;0.6372019;0.2742382;-0.5263157;-0.4916897;5;-47;-14;3109;-222;-2710;8192;0.5844875;-0.7370269;-0.3393352;0.004155125;0;-11;-4;1930;3786;-266;32768;0.4944598;-0.7136083;0.4390582;-0.2313019;-10;2;11;3639;1790;432;256;0.07202215;-0.2908587;-0.6260388;-0.7199232;5;1;0;1178;3626;-894;128;-0.02908587;0.2132964;0.6066482;0.765269;7;-10;0;-696;3806;1194;4;-0.5872576;0.1218837;-0.4736842;-0.6449001;-7;-5;-4;3326;3006;570;16;0.7041067;-0.6952909;0.02908587;-0.1412742;8;-27;-1;1317;4181;-20;2;0.5623268;-0.7263193;-0.3033241;-0.2534626;1;-11;5;974;4132;-620;8;0.3573407;-0.7691347;0.3725762;0.3767313;5;-10;-5;1191;3569;2039;0.6532202;2.450981;1.166194;0.6592057;2.996439;1.174076;0.6644677;3.475924;1.178982;0.8507632;4.168836;1.332705;0.685815;4.551689;1.363738;0.3171803;4.495121;1.396106;-0.1927361;5.181108;1.038704;0.7137607;5.021902;1.263902;1.188315;4.416591;1.363738;1.428293;4.196394;1.396106;1.598373;3.371376;1.863753;0.7841119;2.890206;1.80682;0.3409668;2.409018;1.157883;0.2501894;1.307749;0.1988071;0;0;0;0.3409668;2.409018;1.157883;0.2501894;1.307749;0.1988071;0;0;0
1850875.7823;NotLabelled;NONE;16384;0.7176841;0.5595568;0.4058172;0.08448754;6;-24;-7;2634;-2858;1998;65536;0.6387219;0.2700831;-0.5304709;-0.4875346;10;-35;-23;3423;78;-3112;8192;0.5844875;-0.7376695;-0.3379501;0.002770083;-1;-6;-5;2130;3810;-324;32768;0.4930748;-0.7137132;0.4404432;-0.2313019;-10;-2;8;3473;1994;276;256;0.07063711;-0.2880886;-0.6246537;-0.7223732;14;13;-6;1122;3768;-714;128;-0.033241;0.2146814;0.6066482;0.7647123;-5;-16;0;-898;3732;1266;4;-0.5872576;0.1204986;-0.4736842;-0.6451603;-8;3;-3;3198;2904;482;16;0.7062327;-0.6939058;0.03047091;-0.1371191;7;-20;-1;767;4207;-346;2;0.5623268;-0.7268012;-0.3033241;-0.2520775;0;-7;6;756;3990;-652;8;0.3587258;-0.7678167;0.3739612;0.3767313;5;-5;-4;1107;3573;1885;0.655523;2.45241;1.169087;0.6615089;2.997869;1.176864;0.6667705;3.477355;1.181677;0.8535174;4.169546;1.338074;0.688871;4.552429;1.370327;0.3201562;4.496065;1.402133;-0.1899526;5.179463;1.040076;0.7148992;5.020212;1.271765;1.191254;4.416894;1.370327;1.431009;4.196373;1.402134;1.597131;3.369902;1.868634;0.7799523;2.893641;1.812222;0.3432696;2.410444;1.160784;0.2492744;1.307051;0.2044648;0;0;0;0.3432696;2.410444;1.160784;0.2492744;1.307051;0.2044648;0;0;0
1850897.6823;NotLabelled;NONE;16384;0.7168831;0.5609418;0.4044321;0.08864266;-1;-24;-3;2698;-2918;1968;65536;0.6385313;0.267313;-0.534626;-0.4847645;5;-4;-26;3375;232;-2298;8192;0.5872576;-0.7354662;-0.3379501;0.002770083;-7;0;-5;2164;3718;-160;32768;0.4930748;-0.7133327;0.4432133;-0.2271468;-8;-13;-6;2961;2194;356;256;0.06648199;-0.2853186;-0.6232687;-0.7250584;22;28;-7;766;3448;-1022;128;-0.03462604;0.2160665;0.6052631;0.765358;1;-14;1;-780;3830;950;4;-0.5886427;0.1191136;-0.4736842;-0.6441545;-5;1;-1;2910;2720;376;16;0.7077969;-0.6925207;0.03185596;-0.1357341;5;-10;0;709;4177;-458;2;0.5623268;-0.727756;-0.3033241;-0.2493075;0;-5;2;582;3890;-616;8;0.3587258;-0.7664588;0.3753462;0.3781163;2;-4;-1;1181;3505;1757;0.6567677;2.451557;1.170512;0.6627535;2.997022;1.177832;0.6680152;3.476512;1.182244;0.8527249;4.168608;1.341459;0.6870079;4.550918;1.374997;0.3184151;4.493434;1.406212;-0.1950254;5.173697;1.042962;0.7095442;5.010511;1.273008;1.189756;4.416744;1.374996;1.430077;4.196754;1.406211;1.595874;3.368649;1.869921;0.7768608;2.894772;1.820469;0.3445142;2.409584;1.162248;0.2432114;1.308212;0.2043464;0;0;0;0.3445142;2.409584;1.162248;0.2432114;1.308212;0.2043464;0;0;0
1850917.7157;NotLabelled;NONE;16384;0.714358;0.5637119;0.4044321;0.09141274;-10;-3;0;2726;-2782;1574;65536;0.6329049;0.267313;-0.5387812;-0.4875346;4;25;-21;4181;478;-2156;8192;0.5886427;-0.7349939;-0.3365651;0.002770083;-10;1;-6;2246;3582;-58;32768;0.4930748;-0.7133476;0.4445983;-0.2243767;-10;-14;-10;3195;2316;436;256;0.06371191;-0.2811634;-0.6218836;-0.7281131;23;41;-10;844;3780;-1108;128;-0.03739612;0.2174515;0.6052631;0.7648352;0;-5;3;-530;3674;1046;4;-0.5872576;0.1191136;-0.4736842;-0.6454175;-1;0;-1;2778;2604;188;16;0.7094131;-0.6911357;0.03185596;-0.134349;2;-3;0;939;4125;-444;2;0.5623268;-0.727756;-0.3033241;-0.2493075;-1;-1;1;598;3838;-806;8;0.3601108;-0.765809;0.3753462;0.3781163;2;1;-1;1257;3539;1799;0.6673968;2.448128;1.175136;0.6733824;2.993566;1.184255;0.6786439;3.473039;1.190249;0.8640072;4.164095;1.353175;0.6987684;4.546479;1.388193;0.3300278;4.489381;1.418347;-0.1917613;5.16657;1.061303;0.7125946;4.9989;1.288953;1.201322;4.411581;1.38862;1.441259;4.191096;1.419291;1.619692;3.363034;1.878367;0.801173;2.887237;1.840544;0.3551437;2.406183;1.166722;0.2420996;1.308102;0.2063585;0;0;0;0.3551437;2.406183;1.166722;0.2420996;1.308102;0.2063585;0;0;0
1850938.7896;NotLabelled;NONE;16384;0.7132628;0.5650969;0.4044321;0.09141274;-13;-2;1;2510;-2826;1410;65536;0.6301726;0.2686981;-0.5387812;-0.4903047;3;22;-17;4055;502;-1738;8192;0.5900277;-0.7332497;-0.3379501;0.001385042;-11;4;-5;2224;3554;-170;32768;0.4930748;-0.7137777;0.4459834;-0.2202216;-8;-15;-13;3429;2266;268;256;0.05955679;-0.2756233;-0.6204986;-0.7317556;23;37;-13;766;4028;-948;128;-0.03878116;0.2160665;0.6038781;0.7662523;-7;-3;3;-492;3634;920;4;-0.5872576;0.1177285;-0.4736842;-0.6456715;0;-5;0;2892;2626;360;16;0.7094131;-0.6911357;0.03185596;-0.134349;0;-1;0;1019;4085;-394;2;0.5623268;-0.7288043;-0.301939;-0.2479224;-1;-4;2;808;3932;-992;8;0.3601108;-0.765809;0.3753462;0.3781163;3;1;-2;1387;3473;2019;0.6727701;2.449887;1.172982;0.6787555;2.995331;1.181787;0.6840173;3.474807;1.187503;0.8676707;4.165628;1.353334;0.7015002;4.547465;1.38989;0.3328911;4.489352;1.419712;-0.1938277;5.166699;1.070286;0.7092493;4.989534;1.295811;1.204378;4.413779;1.38989;1.444839;4.193749;1.419711;1.625262;3.36273;1.872625;0.8072932;2.885181;1.84691;0.3605169;2.407938;1.164594;0.2391607;1.308589;0.2066985;0;0;0;0.3605169;2.407938;1.164594;0.2391607;1.308589;0.2066985;0;0;0
1850958.7702;NotLabelled;NONE;16384;0.7123397;0.566482;0.4044321;0.0900277;-16;0;1;2466;-2772;1390;65536;0.6268166;0.2686981;-0.5401662;-0.4930748;0;13;-16;4041;608;-1772;8192;0.5914127;-0.732133;-0.3379501;0.001385042;-10;9;-7;2000;3516;-252;32768;0.4944598;-0.7132225;0.4473684;-0.2160665;-5;-10;-14;3275;2144;340;256;0.0567867;-0.2714681;-0.6204986;-0.733527;4;33;-11;780;3888;-1294;128;-0.03878116;0.2160665;0.6038781;0.7662523;-10;0;2;-676;3774;1118;4;-0.5872576;0.1163435;-0.4736842;-0.6459226;0;-4;2;2936;2838;390;16;0.7107598;-0.6897507;0.03185596;-0.134349;-1;-3;-1;1169;4101;-286;2;0.5623268;-0.728229;-0.3033241;-0.2479224;-2;0;3;1032;3958;-878;8;0.3614958;-0.7651562;0.3753462;0.3781163;4;5;-2;1231;3493;1961;0.6906787;2.447834;1.17007;0.6966641;2.993247;1.180544;0.7019255;3.472704;1.187728;0.8839258;4.163164;1.356856;0.7169071;4.544482;1.394917;0.3483865;4.485462;1.424042;-0.1843805;5.163496;1.085284;0.720969;4.983775;1.299385;1.220066;4.411857;1.394916;1.460955;4.192203;1.424041;1.650058;3.360291;1.871744;0.8336865;2.879417;1.862513;0.3784259;2.40591;1.161543;0.2420159;1.308589;0.2033478;0;0;0;0.3784259;2.40591;1.161543;0.2420159;1.308589;0.2033478;0;0;0
1850979.6702;NotLabelled;NONE;16384;0.7106208;0.567867;0.4058172;0.08864266;-16;7;0;2384;-2852;1352;65536;0.6257246;0.2686981;-0.5401662;-0.4944598;2;12;-6;4103;832;-1698;8192;0.5927978;-0.7310134;-0.3379501;0;-10;8;-9;1902;3430;-288;32768;0.4944598;-0.7140558;0.4473684;-0.2132964;-6;-8;-16;3387;1742;530;256;0.06232687;-0.2714681;-0.6191136;-0.7342471;-7;-56;0;356;3790;-980;128;-0.03878116;0.2146814;0.602493;0.7677305;-1;0;2;-520;3850;1046;4;-0.5886427;0.1149584;-0.4722992;-0.645924;-4;0;5;2760;3110;584;16;0.7108907;-0.6897507;0.03462604;-0.132964;-3;-13;-5;1311;4093;6;2;0.5609418;-0.7287188;-0.3047091;-0.2479224;-1;5;2;972;3928;-916;8;0.3614958;-0.7658341;0.3739612;0.3781163;4;3;-2;1279;3497;1905;0.7015939;2.445657;1.172468;0.7075792;2.99107;1.182942;0.7128405;3.470527;1.190126;0.8938842;4.161133;1.359683;0.7263461;4.542204;1.39794;0.357901;4.48267;1.426974;-0.1778206;5.162607;1.096795;0.7279986;4.977053;1.303819;1.229683;4.410257;1.39794;1.470864;4.190911;1.426974;1.666557;3.358302;1.870529;0.8526813;2.87313;1.872117;0.389341;2.403733;1.163941;0.2412738;1.308444;0.2051516;0;0;0;0.389341;2.403733;1.163941;0.2412738;1.308444;0.2051516;0;0;0
1850999.8125;NotLabelled;NONE;16384;0.7088897;0.5692521;0.4072022;0.08725762;-15;13;-6;2156;-3012;1274;65536;0.6251281;0.2700831;-0.5401662;-0.4944598;7;11;6;4127;1124;-1786;8192;0.5941828;-0.729888;-0.3379501;0;0;5;-5;2118;3210;-422;32768;0.4958449;-0.7142612;0.4487534;-0.2063712;-1;-13;-17;3557;1886;604;256;0.06648199;-0.2742382;-0.6191136;-0.7328519;-13;-24;4;548;3830;-914;128;-0.0401662;0.2146814;0.602493;0.7676592;5;-1;2;-650;3920;1412;4;-0.5886427;0.1135734;-0.4722992;-0.646169;-7;-3;6;2600;3090;556;16;0.7099888;-0.6911357;0.03601108;-0.1301939;-4;-18;-7;1219;4127;-18;2;0.5609418;-0.7281381;-0.3060942;-0.2479224;-2;6;-1;696;3988;-528;8;0.3642659;-0.7645203;0.3739612;0.3781163;2;3;0;1073;3559;1861;0.6945685;2.440467;1.181783;0.7005531;2.985842;1.194115;0.7058144;3.465271;1.202932;0.880244;4.157249;1.373828;0.7091363;4.536689;1.412491;0.3412231;4.473698;1.44097;-0.1911127;5.153339;1.104762;0.7126873;4.965812;1.318716;1.213673;4.409409;1.412905;1.45684;4.192259;1.441886;1.646168;3.359567;1.888041;0.8341658;2.871266;1.886852;0.3823158;2.398573;1.173102;0.2422804;1.307814;0.207962;0;0;0;0.3823158;2.398573;1.173102;0.2422804;1.307814;0.207962;0;0;0
1851020.668;NotLabelled;NONE;16384;0.705061;0.5706371;0.4127424;0.08310249;-26;10;-15;2474;-3152;1466;65536;0.6229578;0.2811634;-0.5318559;-0.5;-14;41;34;3867;444;-748;8192;0.5941828;-0.7298867;-0.3379501;-0.001385042;2;6;-6;2134;3512;-416;32768;0.4958449;-0.7141847;0.4501385;-0.2036011;0;-12;-13;3789;1750;800;256;0.06786703;-0.2742382;-0.6204986;-0.7315524;-20;1;0;764;3920;-1256;128;-0.0401662;0.2146814;0.601108;0.7687442;3;-1;1;-754;3746;1476;4;-0.5886427;0.1121884;-0.4722992;-0.6464109;-9;-5;6;2536;3066;544;16;0.7104912;-0.6911357;0.03601108;-0.1274238;-3;-15;-7;957;4067;64;2;0.5609418;-0.7270809;-0.3074792;-0.2493075;-3;6;-1;516;3924;-654;8;0.3642659;-0.7645203;0.3739612;0.3781163;1;1;0;1137;3443;1843;0.6868098;2.439169;1.18143;0.6927945;2.984549;1.193567;0.6980559;3.463981;1.202212;0.8709046;4.156616;1.372045;0.6988686;4.535665;1.410429;0.3311502;4.471768;1.439404;-0.2027528;5.153351;1.109678;0.6990113;4.967163;1.333177;1.20373;4.409679;1.410429;1.447485;4.193189;1.439404;1.63876;3.358312;1.880619;0.8312538;2.862615;1.878177;0.3745571;2.397272;1.172765;0.2413194;1.30856;0.2043575;0;0;0;0.3745571;2.397272;1.172765;0.2413194;1.30856;0.2043575;0;0;0
1851041.6683;NotLabelled;NONE;16384;0.7013386;0.5734072;0.4155124;0.08171745;-27;14;-14;2322;-3294;1190;65536;0.6248043;0.2825485;-0.5263157;-0.5027701;-24;21;22;3343;586;-1086;8192;0.5941828;-0.7298828;-0.3379501;-0.002770083;5;3;-7;2294;3568;-576;32768;0.4958449;-0.7145782;0.4501385;-0.2022161;0;-6;-13;3409;1914;590;256;0.06648199;-0.2728532;-0.6232687;-0.7298407;-22;3;-5;628;3944;-1050;128;-0.04155125;0.2146814;0.601108;0.7686706;-7;-4;0;-656;3806;984;4;-0.5886427;0.1108033;-0.4736842;-0.6456359;-9;-12;4;2456;2944;542;16;0.7095618;-0.6925207;0.03739612;-0.1246537;-3;-12;-6;813;4071;24;2;0.5623268;-0.7255331;-0.3074792;-0.2506925;-1;2;-1;446;3772;-666;8;0.3642659;-0.7645203;0.3739612;0.3781163;0;-4;0;1247;3431;1839;0.6826581;2.438291;1.181568;0.6886424;2.983624;1.195613;0.6939033;3.463023;1.205936;0.8661373;4.156522;1.372844;0.6937113;4.535526;1.409892;0.326094;4.471331;1.439486;-0.2132326;5.152968;1.118822;0.6920331;4.980954;1.339508;1.198715;4.41011;1.409892;1.442742;4.194011;1.439486;1.631773;3.358232;1.879958;0.8253409;2.860785;1.879605;0.3704058;2.396424;1.172744;0.236642;1.309764;0.202107;0;0;0;0.3704058;2.396424;1.172744;0.236642;1.309764;0.202107;0;0;0
1851062.6833;NotLabelled;NONE;16384;0.6977298;0.5761772;0.4182825;0.07894737;-26;9;-18;2146;-3172;852;65536;0.6254609;0.2839335;-0.5207756;-0.5069252;-35;18;26;4141;962;-4;8192;0.5927978;-0.7309924;-0.3379501;-0.005540166;7;13;-7;2552;3736;-692;32768;0.4972299;-0.715265;0.4487534;-0.199446;3;-11;-21;3091;2176;578;256;0.07202215;-0.2742382;-0.6232687;-0.7287951;-5;-30;-4;718;3508;-862;128;-0.04155125;0.2160665;0.601108;0.7682825;-3;-5;1;-530;3872;736;4;-0.5872576;0.1080332;-0.4736842;-0.6473643;-10;-15;2;2500;2858;344;16;0.7098038;-0.6925207;0.03739612;-0.1232687;-2;-10;-5;787;4145;-6;2;0.5623268;-0.7255331;-0.3074792;-0.2506925;0;-2;-2;324;3738;-944;8;0.3642659;-0.7645203;0.3739612;0.3781163;-2;-4;0;1285;3581;1677;0.6951696;2.438174;1.174038;0.7011539;2.983512;1.187883;0.7064149;3.462915;1.198031;0.8803823;4.157129;1.360096;0.7088152;4.536734;1.394933;0.3411132;4.473511;1.425548;-0.2044981;5.155456;1.116375;0.7049448;4.988553;1.323387;1.213553;4.410252;1.394933;1.457174;4.193836;1.425549;1.646598;3.357158;1.864141;0.8411413;2.85816;1.869456;0.3829172;2.396304;1.165231;0.238456;1.310484;0.1951868;0;0;0;0.3829172;2.396304;1.165231;0.238456;1.310484;0.1951868;0;0;0
1851083.8021;NotLabelled;NONE;16384;0.6937593;0.5789474;0.4210526;0.07894737;-23;11;-17;2660;-3376;754;65536;0.6266728;0.2839335;-0.5138504;-0.5124654;-38;21;24;3547;938;-644;8192;0.5914127;-0.7308021;-0.3407202;-0.008310249;9;24;-7;2476;3586;-538;32768;0.5;-0.7144801;0.4487534;-0.1952908;6;-12;-30;3115;2080;706;256;0.07479224;-0.2756233;-0.6232687;-0.7279932;-5;-14;-6;904;4090;-650;128;-0.04293629;0.2146814;0.601108;0.7685945;4;0;5;-412;3832;1084;4;-0.5858725;0.1066482;-0.4750692;-0.6478339;-4;-4;1;2560;2916;246;16;0.7104386;-0.6925207;0.03878116;-0.1191136;0;-10;-2;731;4061;-110;2;0.5623268;-0.7261186;-0.3060942;-0.2506925;0;-8;-3;550;3850;-710;8;0.3628809;-0.7645003;0.3753462;0.3781163;0;-3;0;1299;3585;1899;0.683926;2.43595;1.179088;0.6899104;2.981287;1.192988;0.6951712;3.460689;1.203184;0.8647701;4.156312;1.363834;0.6907947;4.534876;1.398025;0.3235191;4.469362;1.428938;-0.2229512;5.152785;1.124582;0.6873403;4.989054;1.330393;1.196331;4.411625;1.398025;1.441346;4.196833;1.428938;1.621115;3.35904;1.869463;0.8190178;2.854633;1.868901;0.3716737;2.39408;1.170276;0.234475;1.311074;0.1960418;0;0;0;0.3716737;2.39408;1.170276;0.234475;1.311074;0.1960418;0;0;0
1851104.6569;NotLabelled;NONE;16384;0.6910664;0.5803324;0.4238227;0.07756232;-12;14;-19;2536;-3420;434;65536;0.6288974;0.2839335;-0.5069252;-0.5166205;-31;18;16;3451;1112;-736;8192;0.5900277;-0.7285727;-0.3476454;-0.01385042;9;28;0;2336;3290;-110;32768;0.5069252;-0.7144211;0.4445983;-0.1869806;11;-2;-30;3655;2554;376;256;0.08171745;-0.2770083;-0.6218836;-0.7279075;2;-14;-8;916;3910;-888;128;-0.04432133;0.2119114;0.601108;0.7692843;-2;7;7;-552;3906;1074;4;-0.5858725;0.1052632;-0.4750692;-0.6480604;-2;-2;0;2572;2914;394;16;0.7106695;-0.6925207;0.03878116;-0.1177285;0;-8;-1;749;4161;-98;2;0.5623268;-0.7261186;-0.3060942;-0.2506925;0;1;-1;882;3944;-896;8;0.3628809;-0.7651787;0.3739612;0.3781163;-1;0;1;1337;3491;1881;0.6771203;2.437576;1.177283;0.6831048;2.982919;1.190925;0.6883657;3.462327;1.200895;0.8564326;4.158482;1.360843;0.6816118;4.536686;1.394714;0.3144917;4.470375;1.425775;-0.2361766;5.152716;1.126606;0.6763536;4.990895;1.323836;1.187425;4.414576;1.394714;1.43293;4.200366;1.425775;1.607127;3.362891;1.869135;0.8091992;2.851939;1.864;0.3648679;2.395702;1.168493;0.2291681;1.312232;0.1945647;0;0;0;0.3648679;2.395702;1.168493;0.2291681;1.312232;0.1945647;0;0;0
1851124.8625;NotLabelled;NONE;16384;0.6871732;0.5817174;0.4279778;0.07894737;3;-2;-17;2636;-3362;682;65536;0.6293868;0.2825485;-0.501385;-0.5221606;-10;9;3;4027;880;-782;8192;0.5886427;-0.728308;-0.3504155;-0.0166205;7;29;3;2268;3362;-118;32768;0.5096953;-0.7145298;0.4418283;-0.1855956;14;2;-24;3505;2604;518;256;0.08310249;-0.2770083;-0.6218836;-0.7277507;3;0;-8;944;3844;-706;128;-0.04432133;0.2105263;0.602493;0.7685808;10;6;7;-840;3888;1068;4;-0.5844875;0.1052632;-0.4750692;-0.6493098;-2;-1;0;2650;2956;488;16;0.7108206;-0.6925207;0.0401662;-0.1163435;0;-11;-1;951;4109;-126;2;0.5623268;-0.7261186;-0.3060942;-0.2506925;0;2;-4;794;3920;-740;8;0.3628809;-0.7651787;0.3739612;0.3781163;-1;2;0;1111;3523;1949;0.6636805;2.436096;1.181969;0.669665;2.981448;1.1953;0.6749262;3.46086;1.204996;0.8364382;4.158426;1.365556;0.658078;4.534948;1.399706;0.2915888;4.465176;1.430638;-0.2596495;5.147087;1.131535;0.6542833;4.989197;1.32543;1.165012;4.417577;1.399706;1.412506;4.205649;1.430638;1.579536;3.368817;1.877951;0.7934614;2.840006;1.862665;0.3514281;2.394217;1.173205;0.2248062;1.312807;0.1957706;0;0;0;0.3514281;2.394217;1.173205;0.2248062;1.312807;0.1957706;0;0;0
1851144.6763;NotLabelled;NONE;16384;0.685674;0.5831025;0.4279778;0.08171745;15;-9;-13;2746;-3344;588;65536;0.6276103;0.2839335;-0.501385;-0.5235457;6;7;2;4467;940;-1072;8192;0.5872576;-0.7273816;-0.3545706;-0.01800554;5;25;3;2230;3474;-112;32768;0.5124654;-0.7146144;0.4390582;-0.1842105;15;5;-17;3677;2584;374;256;0.08310249;-0.2756233;-0.6218836;-0.7282764;2;8;-7;924;3812;-826;128;-0.04432133;0.2091413;0.602493;0.7689588;4;10;7;-894;3854;1360;4;-0.5844875;0.1052632;-0.4750692;-0.6493098;-3;0;0;2590;2990;464;16;0.7109663;-0.6925207;0.04155125;-0.1149584;1;-13;-1;913;4121;-86;2;0.5623268;-0.7261186;-0.3060942;-0.2506925;0;2;-4;878;3992;-698;8;0.3628809;-0.7651787;0.3739612;0.3781163;0;3;0;1355;3419;2083;0.6599635;2.43743;1.180985;0.6659486;2.982826;1.192359;0.6712097;3.462271;1.200335;0.8313178;4.160255;1.360475;0.6521934;4.536433;1.394434;0.2858518;4.46593;1.425455;-0.2732354;5.143723;1.131607;0.6427767;4.984607;1.314366;1.159366;4.420098;1.394433;1.407297;4.208693;1.425454;1.570637;3.37216;1.874683;0.788716;2.837353;1.855488;0.3477107;2.395521;1.172383;0.2247025;1.3128;0.1959391;0;0;0;0.3477107;2.395521;1.172383;0.2247025;1.3128;0.1959391;0;0;0
1851165.6722;NotLabelled;NONE;16384;0.6863422;0.5817174;0.4279778;0.08587258;23;-16;-10;2916;-3184;632;65536;0.6281359;0.2853186;-0.501385;-0.5221606;23;5;3;4417;846;-1000;8192;0.5872576;-0.725989;-0.3573407;-0.01939058;1;25;3;2070;3550;-64;32768;0.5138504;-0.7144694;0.4376731;-0.1842105;15;8;-11;3807;2510;390;256;0.08171745;-0.2742382;-0.6218836;-0.7289557;1;17;-6;768;4016;-832;128;-0.04432133;0.2077562;0.602493;0.7693342;0;8;5;-706;3978;1332;4;-0.5844875;0.1038781;-0.4764543;-0.6485175;-3;-3;0;2542;2952;406;16;0.7113264;-0.6925207;0.04293629;-0.1121884;1;-12;-1;823;4087;-76;2;0.5623268;-0.7256389;-0.3060942;-0.2520775;-1;5;-2;934;3924;-860;8;0.3628809;-0.7658541;0.3725762;0.3781163;1;3;0;1245;3499;1999;0.6629215;2.437424;1.179952;0.6689066;2.982821;1.191276;0.6741678;3.462265;1.199207;0.8329828;4.160562;1.359279;0.6531612;4.536409;1.393207;0.2869517;4.465229;1.424242;-0.276074;5.140971;1.133203;0.6399571;4.981233;1.315324;1.160549;4.421016;1.393207;1.408872;4.210074;1.424242;1.573235;3.375448;1.876635;0.7954435;2.834682;1.856646;0.3506687;2.395514;1.171355;0.2253878;1.312793;0.1951991;0;0;0;0.3506687;2.395514;1.171355;0.2253878;1.312793;0.1951991;0;0;0
1851186.6745;NotLabelled;NONE;16384;0.686489;0.5817174;0.4265928;0.09141274;28;-17;-4;2942;-3072;810;65536;0.6262747;0.2894737;-0.5027701;-0.5207756;35;3;2;4301;450;-1010;8192;0.5872576;-0.7245806;-0.3601108;-0.02077562;1;21;4;2114;3608;-172;32768;0.5166205;-0.7133179;0.4362881;-0.1842105;16;8;-5;3711;2496;386;256;0.08171745;-0.2714681;-0.6232687;-0.7288097;0;21;-7;734;4010;-828;128;-0.04432133;0.2063712;0.6038781;0.7686207;1;4;5;-504;3914;998;4;-0.5831025;0.1038781;-0.4764543;-0.6497632;-2;-5;0;2588;2854;382;16;0.7115435;-0.6925207;0.04293629;-0.1108033;2;-9;0;765;4115;-64;2;0.5623268;-0.7250531;-0.3074792;-0.2520775;0;4;-1;672;3952;-648;8;0.3628809;-0.7658541;0.3725762;0.3781163;0;0;0;1207;3575;1939;0.6716948;2.437146;1.177107;0.6776801;2.982544;1.188381;0.6829413;3.461989;1.196268;0.8418705;4.160179;1.356691;0.6621159;4.536043;1.390779;0.2958894;4.464918;1.421739;-0.2708708;5.136324;1.127927;0.6460789;4.979834;1.308237;1.169482;4.420555;1.390779;1.417762;4.209552;1.42174;1.585039;3.375438;1.874011;0.8087703;2.832455;1.854955;0.3594421;2.395235;1.168514;0.2242098;1.313356;0.1927532;0;0;0;0.3594421;2.395235;1.168514;0.2242098;1.313356;0.1927532;0;0;0
1851207.8134;NotLabelled;NONE;16384;0.6899718;0.5789474;0.4238227;0.09556787;33;-18;0;2992;-2976;1042;65536;0.624405;0.2936288;-0.5055401;-0.5180055;42;3;0;4209;424;-874;8192;0.5858725;-0.7228405;-0.365651;-0.0235457;5;21;2;2042;3616;-326;32768;0.5193906;-0.7131149;0.432133;-0.1869806;16;8;-4;3455;2188;648;256;0.08033241;-0.267313;-0.6232687;-0.7304975;0;19;-7;668;3988;-804;128;-0.04432133;0.2049861;0.6038781;0.7689913;-5;7;5;-550;3988;954;4;-0.5817174;0.1024931;-0.4764543;-0.6512229;-2;-4;-2;2590;3036;458;16;0.7130181;-0.6911357;0.04432133;-0.1094183;3;-6;1;927;4127;-48;2;0.5623268;-0.72457;-0.3074792;-0.2534626;0;-1;-3;614;3872;-702;8;0.3628809;-0.7658541;0.3725762;0.3781163;0;-2;0;1271;3521;1859;0.6733639;2.439057;1.172645;0.6793492;2.984491;1.181962;0.6846109;3.463963;1.188129;0.8417597;4.163168;1.345858;0.6610049;4.538662;1.378718;0.2950001;4.466649;1.410245;-0.2756017;5.134054;1.114758;0.6413646;4.981439;1.298274;1.168685;4.424562;1.378718;1.417567;4.214355;1.410245;1.587888;3.380756;1.862331;0.8138283;2.834666;1.84224;0.3611108;2.397115;1.164214;0.2229737;1.313921;0.190322;0;0;0;0.3611108;2.397115;1.164214;0.2229737;1.313921;0.190322;0;0;0
1851228.6624;NotLabelled;NONE;16384;0.6947678;0.5747922;0.4196676;0.1038781;36;-18;4;2854;-2918;1272;65536;0.619815;0.3033241;-0.5124654;-0.5110803;46;-1;-8;3783;290;-916;8192;0.5844875;-0.7231641;-0.367036;-0.02631579;9;14;2;1998;3602;-350;32768;0.5207756;-0.712578;0.4307479;-0.1883656;14;12;-6;3429;2054;614;256;0.08171745;-0.265928;-0.6232687;-0.7308493;2;-4;-6;612;3798;-702;128;-0.04293629;0.200831;0.602493;0.7712493;0;8;7;-556;3908;1046;4;-0.5817174;0.1024931;-0.4778393;-0.6502073;-2;-5;-3;2564;3008;396;16;0.7131418;-0.6911357;0.04570637;-0.1080332;3;-9;1;941;4229;2;2;0.5637119;-0.7240801;-0.3060942;-0.2534626;0;0;-3;834;3940;-780;8;0.3628809;-0.7651787;0.3739612;0.3781163;1;1;0;1243;3533;1965;0.6806436;2.438157;1.174434;0.6866292;2.983592;1.183702;0.6918908;3.463063;1.189826;0.8465701;4.162772;1.347769;0.6644939;4.537618;1.380726;0.2987429;4.46431;1.412209;-0.2721786;5.12913;1.111558;0.6448783;4.980327;1.297733;1.172572;4.425304;1.380726;1.42219;4.215963;1.412208;1.596559;3.384076;1.865899;0.8244463;2.835259;1.845166;0.3683906;2.396214;1.166008;0.2220403;1.313763;0.1924884;0;0;0;0.3683906;2.396214;1.166008;0.2220403;1.313763;0.1924884;0;0;0
1851248.6805;NotLabelled;NONE;16384;0.6978645;0.5720221;0.4168975;0.1094183;36;-18;5;2790;-2714;1500;65536;0.6165878;0.3074792;-0.5166205;-0.5083103;44;-2;-12;3965;270;-1162;8192;0.5831025;-0.7235261;-0.368421;-0.02770083;12;13;1;2056;3554;-274;32768;0.5207756;-0.7135088;0.4279778;-0.1911357;12;18;-6;3605;2082;596;256;0.08310249;-0.265928;-0.6218836;-0.7318723;1;0;-5;566;3902;-1008;128;-0.04293629;0.199446;0.602493;0.7716087;0;5;7;-500;3802;928;4;-0.5803324;0.1024931;-0.4792244;-0.6504256;-3;-3;-5;2650;2936;414;16;0.7143915;-0.6897507;0.04709141;-0.1080332;3;-8;3;875;4093;-72;2;0.5637119;-0.7240801;-0.3060942;-0.2534626;0;1;-3;890;3872;-802;8;0.3642659;-0.7645203;0.3739612;0.3781163;1;0;0;1271;3505;1931;0.685868;2.439338;1.172117;0.691853;2.984736;1.183346;0.6971145;3.464184;1.191194;0.849087;4.16459;1.348665;0.6655557;4.538745;1.381407;0.3000973;4.464032;1.412988;-0.2691692;5.122918;1.096549;0.643814;4.982875;1.307847;1.174068;4.428412;1.381407;1.424504;4.220067;1.412989;1.595205;3.387726;1.867243;0.8236927;2.838207;1.843052;0.3736152;2.397426;1.163527;0.2224127;1.313756;0.1921078;0;0;0;0.3736152;2.397426;1.163527;0.2224127;1.313756;0.1921078;0;0;0
1851269.6624;NotLabelled;NONE;16384;0.7011074;0.5692521;0.4141274;0.1135734;34;-12;5;2940;-2678;1614;65536;0.6139767;0.3102493;-0.5207756;-0.5055401;40;-3;-10;4085;200;-1084;8192;0.5817174;-0.7238801;-0.3698061;-0.02908587;14;19;2;2138;3486;-314;32768;0.5221606;-0.7137803;0.4252077;-0.1925208;14;20;-6;3427;2218;472;256;0.08448754;-0.265928;-0.6218836;-0.7317137;1;-1;-5;574;3974;-1002;128;-0.04293629;0.1980609;0.602493;0.7719653;0;7;6;-576;3824;1224;4;-0.5789474;0.1024931;-0.4792244;-0.6516588;-2;-3;-4;2712;2904;414;16;0.7142988;-0.6897507;0.04847645;-0.1080332;4;-5;4;983;4077;-98;2;0.5623268;-0.7251562;-0.3060942;-0.2534626;0;3;-4;762;3866;-736;8;0.3642659;-0.7645203;0.3739612;0.3781163;1;0;0;1151;3559;1901;0.685418;2.441123;1.175064;0.6914032;2.986523;1.186245;0.6966645;3.465971;1.194051;0.8464373;4.166366;1.353667;0.6617641;4.539872;1.387386;0.2965119;4.463972;1.418517;-0.270328;5.118824;1.089596;0.6392871;4.980468;1.31599;1.170605;4.431065;1.387386;1.421645;4.223379;1.418517;1.58838;3.391512;1.875107;0.8167618;2.842333;1.846946;0.3731653;2.399211;1.166478;0.2216872;1.313015;0.1979273;0;0;0;0.3731653;2.399211;1.166478;0.2216872;1.313015;0.1979273;0;0;0
1851290.685;NotLabelled;NONE;16384;0.7048215;0.5650969;0.4127424;0.1163435;28;-7;6;2722;-2782;1672;65536;0.6117276;0.3144044;-0.5249307;-0.501385;35;-2;-9;3979;306;-1334;8192;0.5789474;-0.7245634;-0.3725762;-0.03185596;18;21;1;2082;3542;-132;32768;0.5235457;-0.7140356;0.4224377;-0.1939058;16;20;-6;3455;2272;616;256;0.08587258;-0.265928;-0.6218836;-0.7315524;1;0;-4;584;3982;-928;128;-0.04432133;0.1966759;0.6038781;0.7711585;4;3;6;-592;3896;1030;4;-0.5789474;0.1024931;-0.4792244;-0.6516588;-2;-1;-3;2696;2908;480;16;0.7144117;-0.6897507;0.04986149;-0.1066482;3;-5;3;999;4121;-152;2;0.5637119;-0.7240801;-0.3060942;-0.2534626;0;2;-4;708;4026;-788;8;0.3642659;-0.7645203;0.3739612;0.3781163;2;0;0;1331;3511;1991;0.683925;2.441863;1.17555;0.6899102;2.987264;1.186685;0.6951715;3.466712;1.194449;0.8435307;4.167503;1.353647;0.6580981;4.540649;1.387176;0.2930056;4.464019;1.418394;-0.2705117;5.116081;1.078405;0.6358199;4.978158;1.317857;1.16716;4.432883;1.387175;1.418628;4.225729;1.418394;1.581898;3.394342;1.877104;0.811913;2.843133;1.844233;0.3716722;2.39995;1.166969;0.2238219;1.31244;0.1993322;0;0;0;0.3716722;2.39995;1.166969;0.2238219;1.31244;0.1993322;0;0;0
1851311.6734;NotLabelled;NONE;16384;0.7065083;0.5637119;0.4113573;0.1177285;23;-9;6;2632;-2656;1714;65536;0.6108944;0.3157895;-0.5277008;-0.4986149;30;-1;-8;4025;290;-1478;8192;0.5747922;-0.7255279;-0.3767313;-0.03601108;19;13;4;1978;3478;-82;32768;0.5249307;-0.7147486;0.4168975;-0.199446;14;25;-1;3571;2488;350;256;0.08725762;-0.265928;-0.6204986;-0.732564;0;1;-3;654;3926;-942;128;-0.04432133;0.1966759;0.6038781;0.7711585;3;8;7;-642;3916;1372;4;-0.5789474;0.101108;-0.4806094;-0.6508546;-3;0;-2;2722;2926;496;16;0.7156485;-0.6883656;0.05124654;-0.1066482;2;-4;3;917;4181;-170;2;0.5637119;-0.7230063;-0.3074792;-0.2548476;-1;7;-4;718;3954;-836;8;0.3642659;-0.7652038;0.3739612;0.3767313;3;0;0;1325;3513;1901;0.6831467;2.441889;1.175446;0.6891323;2.987329;1.184431;0.694394;3.466804;1.190307;0.8414645;4.167989;1.348968;0.6553;4.540774;1.38245;0.2903933;4.463418;1.414042;-0.2696388;5.113517;1.064667;0.63336;4.97924;1.31836;1.164581;4.434049;1.382051;1.416501;4.227427;1.413162;1.573529;3.395193;1.872514;0.8051872;2.841956;1.835534;0.3708936;2.399942;1.167042;0.223919;1.312432;0.1992723;0;0;0;0.3708936;2.399942;1.167042;0.223919;1.312432;0.1992723;0;0;0
1851332.6842;NotLabelled;NONE;16384;0.7090466;0.5609418;0.4099723;0.1204986;18;-10;6;2782;-2704;1750;65536;0.6081799;0.3185596;-0.5304709;-0.4972299;25;-1;-7;3991;290;-1358;8192;0.5734072;-0.7258332;-0.3781163;-0.03739612;16;9;8;2128;3478;28;32768;0.5249307;-0.7155801;0.4141274;-0.2022161;16;28;3;3525;2676;194;256;0.08448754;-0.2631579;-0.6218836;-0.7327145;-7;26;0;586;4080;-876;128;-0.04432133;0.1939058;0.6052631;0.7707741;7;7;5;-592;3796;1040;4;-0.5789474;0.101108;-0.4806094;-0.6508546;-2;2;-3;2806;2828;522;16;0.7155479;-0.6883656;0.05263158;-0.1066482;2;-2;3;943;4107;-324;2;0.5637119;-0.7225167;-0.3074792;-0.2562327;-1;7;-4;578;3940;-804;8;0.365651;-0.7645429;0.3739612;0.3767313;3;0;0;1171;3497;1851;0.685604;2.440283;1.18184;0.6915897;2.985723;1.190825;0.6968513;3.465198;1.196702;0.8415957;4.166358;1.357597;0.6542666;4.538485;1.3919;0.2895504;4.459942;1.422762;-0.2678115;5.107857;1.065155;0.6325752;4.974826;1.328601;1.163866;4.433289;1.3919;1.416361;4.227334;1.422762;1.564415;3.398391;1.890961;0.7967818;2.844913;1.844189;0.373351;2.398336;1.173436;0.2230362;1.311662;0.2052402;0;0;0;0.373351;2.398336;1.173436;0.2230362;1.311662;0.2052402;0;0;0
1851353.7905;NotLabelled;NONE;16384;0.7128741;0.5567867;0.4085872;0.1218837;10;2;7;2606;-2804;1724;65536;0.6083187;0.3199446;-0.534626;-0.4916897;19;-6;-5;4035;474;-1640;8192;0.5706371;-0.7265676;-0.3808864;-0.03739612;13;3;10;2114;3550;122;32768;0.5263157;-0.7153723;0.4113573;-0.2049861;17;33;9;3439;2822;202;256;0.08448754;-0.2617728;-0.6232687;-0.7320335;-8;9;3;520;4218;-1106;128;-0.04432133;0.1925208;0.6066482;0.770032;0;10;5;-648;3876;1106;4;-0.5789474;0.101108;-0.4806094;-0.6508546;-1;6;-3;2894;2720;400;16;0.7168778;-0.6869806;0.05263158;-0.1066482;1;0;4;801;4099;-274;2;0.5637119;-0.7220239;-0.3074792;-0.2576177;-1;4;-3;534;3852;-720;8;0.365651;-0.7645429;0.3739612;0.3767313;2;0;0;1247;3527;1785;0.6978623;2.43973;1.179516;0.7038482;2.985199;1.186505;0.7091099;3.464692;1.190625;0.8548856;4.166054;1.349699;0.6680775;4.538518;1.383172;0.3032715;4.460546;1.414416;-0.2551647;5.105669;1.053452;0.6448891;4.97298;1.318205;1.177534;4.432632;1.383172;1.429767;4.226414;1.414417;1.579029;3.39797;1.883115;0.8109506;2.844792;1.840258;0.3856087;2.397753;1.171279;0.2272303;1.311079;0.2043696;0;0;0;0.3856087;2.397753;1.171279;0.2272303;1.311079;0.2043696;0;0;0
1851374.6703;NotLabelled;NONE;16384;0.7136661;0.5567867;0.4072022;0.1218837;7;-2;8;2636;-2736;1616;65536;0.6074872;0.3213296;-0.536011;-0.4903047;16;-2;-3;4119;304;-1564;8192;0.5692521;-0.7277231;-0.3808864;-0.03601108;9;-2;11;2006;3740;114;32768;0.5263157;-0.7165459;0.4072022;-0.2091413;17;33;13;3343;2810;236;256;0.08448754;-0.2617728;-0.6246537;-0.7308519;-10;6;2;604;4082;-976;128;-0.04155125;0.1897507;0.6052631;0.7719616;-7;13;3;-394;3938;1260;4;-0.5789474;0.1024931;-0.4806094;-0.6506379;1;6;-3;2908;2820;458;16;0.7167747;-0.6869806;0.05401662;-0.1066482;1;4;4;925;4103;-286;2;0.5637119;-0.7220239;-0.3074792;-0.2576177;0;4;-3;580;3890;-760;8;0.365651;-0.7652239;0.3739612;0.3753462;2;0;0;1241;3539;1881;0.6982197;2.439551;1.182669;0.7042056;2.985042;1.187704;0.7094678;3.464547;1.190107;0.8547276;4.166603;1.346566;0.6676081;4.539016;1.378847;0.3028959;4.460828;1.410641;-0.2522573;5.103695;1.040701;0.6459658;4.974385;1.313228;1.17716;4.43359;1.378847;1.429602;4.227711;1.410641;1.577556;3.402149;1.884805;0.8100768;2.848397;1.83874;0.3859657;2.397544;1.174595;0.2250297;1.31087;0.2081076;0;0;0;0.3859657;2.397544;1.174595;0.2250297;1.31087;0.2081076;0;0;0
1851394.6747;NotLabelled;NONE;16384;0.7155319;0.5554016;0.4058172;0.1218837;6;0;8;2726;-2780;1552;65536;0.606645;0.3227147;-0.5373961;-0.4889196;14;0;0;3987;386;-1444;8192;0.5692521;-0.7277902;-0.3808864;-0.03462604;7;-10;11;1830;3778;144;32768;0.5263157;-0.7156927;0.4058172;-0.2146814;17;32;17;3513;2848;198;256;0.08448754;-0.2617728;-0.6260388;-0.7296659;-13;7;2;564;4160;-922;128;-0.0401662;0.1869806;0.6038781;0.7737934;-12;15;3;-448;3952;1200;4;-0.5803324;0.1024931;-0.4806094;-0.6494029;2;6;-3;2892;2834;518;16;0.7165673;-0.6869806;0.05401662;-0.1080332;0;6;3;1041;4147;-266;2;0.5637119;-0.7209364;-0.3088643;-0.2590028;-2;6;-2;684;3974;-802;8;0.367036;-0.7645605;0.3739612;0.3753462;2;5;0;1227;3573;1757;0.6993027;2.440971;1.181704;0.7052885;2.986437;1.188944;0.7105502;3.465929;1.193285;0.8565859;4.16839;1.347184;0.6698411;4.54109;1.378299;0.3050787;4.463358;1.410629;-0.2486419;5.107357;1.040509;0.6484734;4.979252;1.317222;1.179293;4.435183;1.378299;1.431564;4.229177;1.41063;1.579511;3.405318;1.887748;0.8119481;2.851988;1.838144;0.3870493;2.398998;1.173446;0.2276029;1.310282;0.2090119;0;0;0;0.3870493;2.398998;1.173446;0.2276029;1.310282;0.2090119;0;0;0
1851414.6765;NotLabelled;NONE;16384;0.7163156;0.5554016;0.4044321;0.1218837;8;0;10;2774;-2762;1340;65536;0.6065312;0.3227147;-0.5387812;-0.4875346;16;-2;0;4077;332;-1416;8192;0.567867;-0.7289359;-0.3808864;-0.033241;4;-13;12;1936;3758;240;32768;0.5263157;-0.7155747;0.4030471;-0.2202216;17;32;20;3571;2694;268;256;0.08448754;-0.2603878;-0.6274238;-0.7289714;-11;7;3;586;4104;-820;128;-0.03878116;0.1855956;0.602493;0.7752757;-15;16;3;-550;3952;1154;4;-0.5817174;0.1038781;-0.4806094;-0.6479419;2;12;0;2914;2886;552;16;0.7164602;-0.6869806;0.05263158;-0.1094183;-3;4;1;1019;4117;-346;2;0.5637119;-0.7204373;-0.3088643;-0.2603878;-2;6;-3;642;3868;-710;8;0.367036;-0.7645605;0.3739612;0.3753462;1;2;0;1175;3505;1843;0.7030549;2.439034;1.184439;0.7090404;2.984469;1.193683;0.7143018;3.463942;1.199786;0.861003;4.166799;1.351225;0.6746113;4.539783;1.381035;0.3097757;4.46251;1.413637;-0.2402694;5.105526;1.036397;0.6555108;4.978625;1.317949;1.183963;4.433393;1.381405;1.436039;4.227264;1.414456;1.584847;3.406114;1.895957;0.8145005;2.857347;1.839311;0.3908017;2.397091;1.176014;0.2297168;1.309696;0.2103624;0;0;0;0.3908017;2.397091;1.176014;0.2297168;1.309696;0.2103624;0;0;0
1851434.6775;NotLabelled;NONE;16384;0.7181665;0.5540166;0.4030471;0.1218837;8;-3;12;2624;-2804;1348;65536;0.6060392;0.3254848;-0.5401662;-0.4847645;18;-2;1;4035;320;-1394;8192;0.567867;-0.7298354;-0.3795014;-0.02908587;-1;-15;7;1710;3692;74;32768;0.5235457;-0.7156659;0.400277;-0.2313019;5;28;25;3563;1988;644;256;0.08725762;-0.2631579;-0.6274238;-0.7276492;0;-24;2;466;3810;-934;128;-0.03739612;0.1842105;0.601108;0.7767478;-12;17;2;-514;3740;1128;4;-0.5831025;0.1038781;-0.4792244;-0.6477228;2;16;1;2824;2832;530;16;0.7162473;-0.6869806;0.05263158;-0.1108033;-3;6;1;945;4137;-262;2;0.5637119;-0.7199352;-0.3088643;-0.2617728;-2;6;-3;674;3888;-750;8;0.368421;-0.764573;0.3739612;0.3739612;1;5;0;1215;3579;1873;0.7069112;2.439728;1.182725;0.7128963;2.985126;1.194011;0.7181576;3.464571;1.20191;0.8644381;4.1681;1.350611;0.6777489;4.541019;1.379358;0.3130325;4.463531;1.412777;-0.2365593;5.109049;1.039165;0.6593086;4.982208;1.320465;1.187198;4.435096;1.379358;1.43951;4.229316;1.412776;1.589597;3.408121;1.893804;0.8172466;2.862577;1.833456;0.3946585;2.397817;1.174131;0.2301174;1.309705;0.2098716;0;0;0;0.3946585;2.397817;1.174131;0.2301174;1.309705;0.2098716;0;0;0
1851476.8146;NotLabelled;NONE;16384;0.7220744;0.5526316;0.3975069;0.1232687;15;-10;12;2652;-2568;1422;65536;0.6053044;0.33241;-0.5429363;-0.4778393;28;0;2;3589;288;-1198;8192;0.5692521;-0.7309582;-0.3753462;-0.02770083;3;-10;-2;1774;3510;-374;32768;0.5180055;-0.7169621;0.400277;-0.2396122;-2;16;20;3373;1552;278;256;0.0900277;-0.267313;-0.6246537;-0.7281803;10;2;0;528;3426;-822;128;-0.03601108;0.1828255;0.5969529;0.7803366;-2;0;-1;-620;3572;1302;4;-0.5858725;0.1052632;-0.4778393;-0.6460206;1;8;1;2528;2866;680;16;0.7148009;-0.6883656;0.05124654;-0.1121884;-4;9;0;1133;4085;-104;2;0.5637119;-0.7188339;-0.3102493;-0.2631579;-1;7;-3;260;3784;-784;8;0.368421;-0.765249;0.3725762;0.3739612;0;1;1;1249;3523;1787;0.6974376;2.436594;1.190474;0.7034221;2.981945;1.203796;0.7086831;3.461358;1.213483;0.8547553;4.165082;1.361461;0.6679456;4.537966;1.389879;0.3032623;4.460388;1.423448;-0.2399046;5.106278;1.041186;0.6522255;4.983874;1.336006;1.17743;4.432216;1.389879;1.429819;4.226554;1.423448;1.579157;3.407514;1.908367;0.8004919;2.872884;1.833281;0.3851852;2.394715;1.18171;0.2306197;1.309115;0.2129791;0;0;0;0.3851852;2.394715;1.18171;0.2306197;1.309115;0.2129791;0;0;0
1851497.0491;NotLabelled;NONE;16384;0.7244112;0.5512465;0.3947368;0.1246537;15;-5;11;2682;-2614;1598;65536;0.6023705;0.33518;-0.5457063;-0.4764543;26;-1;-2;3505;70;-982;8192;0.5692521;-0.7316678;-0.3739612;-0.02770083;5;-9;-8;1678;3452;-350;32768;0.5152354;-0.7180262;0.400277;-0.2423823;-7;16;16;3249;1492;506;256;0.09141274;-0.267313;-0.6232687;-0.7291938;13;-6;-1;456;3590;-1054;128;-0.03601108;0.1842105;0.5969529;0.7800108;-3;-4;-2;-428;3538;1250;4;-0.5872576;0.1066482;-0.4778393;-0.6445341;0;9;2;2572;2932;674;16;0.7145821;-0.6883656;0.05124654;-0.1135734;-4;5;-2;1207;4057;-92;2;0.5637119;-0.7183254;-0.3102493;-0.2645429;-1;1;-2;302;3856;-698;8;0.368421;-0.765249;0.3725762;0.3739612;-1;1;1;1195;3493;1921;0.6848956;2.434921;1.193401;0.6908784;2.980099;1.212543;0.6961379;3.459382;1.227347;0.8417383;4.162254;1.379775;0.6547417;4.534883;1.410219;0.2900481;4.456959;1.442858;-0.2411335;5.105236;1.048005;0.6441671;4.994904;1.36717;1.164269;4.429338;1.410219;1.416699;4.223577;1.442858;1.56179;3.402599;1.925786;0.7756163;2.880515;1.84125;0.3726445;2.393139;1.184154;0.2307901;1.309327;0.2114836;0;0;0;0.3726445;2.393139;1.184154;0.2307901;1.309327;0.2114836;0;0;0
1851518.6827;NotLabelled;NONE;16384;0.7259759;0.5498615;0.3933518;0.1260388;15;1;10;2506;-2660;1548;65536;0.6025265;0.3365651;-0.5470914;-0.4736842;22;-3;-6;3449;214;-1042;8192;0.567867;-0.7340968;-0.3711911;-0.02908587;6;-4;-8;1914;3312;-310;32768;0.5124654;-0.7195381;0.400277;-0.2437673;-8;13;10;3007;1624;316;256;0.09279778;-0.2700831;-0.6204986;-0.7303597;16;-14;0;538;3612;-986;128;-0.03601108;0.1842105;0.5955678;0.7810689;2;-6;-3;-546;3600;1270;4;-0.5886427;0.1052632;-0.4764543;-0.6445237;-2;0;4;2708;2956;660;16;0.7134645;-0.6897507;0.05124654;-0.1121884;-4;-4;-5;1065;4113;-74;2;0.5637119;-0.7183254;-0.3102493;-0.2645429;0;0;0;598;3876;-816;8;0.368421;-0.765249;0.3725762;0.3739612;-1;3;1;1189;3557;1881;0.6849175;2.435053;1.194615;0.6909002;2.98023;1.213803;0.6961597;3.45951;1.228648;0.8395569;4.162372;1.383194;0.6514233;4.534349;1.414603;0.2869462;4.455235;1.446798;-0.2382858;5.103665;1.044309;0.6431442;4.99357;1.374093;1.161265;4.430335;1.414603;1.414293;4.22524;1.446798;1.556068;3.403565;1.929524;0.7667351;2.886306;1.844766;0.3726663;2.393271;1.185364;0.2325354;1.308731;0.2132562;0;0;0;0.3726663;2.393271;1.185364;0.2325354;1.308731;0.2132562;0;0;0
1851538.676;NotLabelled;NONE;16384;0.728304;0.5470914;0.3933518;0.1246537;12;1;10;2496;-2748;1590;65536;0.6003129;0.3379501;-0.5498615;-0.4722992;16;-5;-10;3561;178;-1050;8192;0.567867;-0.7339204;-0.3711911;-0.033241;5;13;-11;2256;3504;-136;32768;0.5096953;-0.7207328;0.4016621;-0.2437673;-3;-6;-2;2785;2110;278;256;0.09556787;-0.2728532;-0.6177285;-0.7313203;14;-19;1;568;3520;-1028;128;-0.03739612;0.1855956;0.5955678;0.7806758;5;-7;-3;-488;3628;1240;4;-0.5886427;0.1052632;-0.4764543;-0.6445237;-3;-1;4;2720;2898;644;16;0.7136809;-0.6897507;0.05124654;-0.1108033;-4;-1;-5;977;4147;-164;2;0.5637119;-0.7183254;-0.3102493;-0.2645429;0;0;0;396;3858;-720;8;0.367036;-0.7659142;0.3725762;0.3739612;-2;0;1;1271;3525;1893;0.6767347;2.431219;1.196921;0.6827167;2.976326;1.218001;0.6879754;3.455552;1.234509;0.830964;4.157433;1.393824;0.6426811;4.529144;1.427407;0.2781845;4.449718;1.458601;-0.2420136;5.097194;1.048115;0.6357325;4.9904;1.388636;1.152553;4.425276;1.427407;1.405598;4.220045;1.458601;1.537275;3.396845;1.941587;0.745999;2.882938;1.854591;0.3644839;2.38947;1.187514;0.2317479;1.309511;0.2092873;0;0;0;0.3644839;2.38947;1.187514;0.2317479;1.309511;0.2092873;0;0;0
1851559.6908;NotLabelled;NONE;16384;0.7318618;0.5443213;0.3905817;0.1246537;8;7;8;2534;-2836;1506;65536;0.5983557;0.3365651;-0.5540166;-0.4709141;3;-8;-15;3675;366;-1210;8192;0.567867;-0.7330875;-0.3725762;-0.03601108;0;19;-9;1980;3676;-98;32768;0.5110803;-0.7194448;0.4030471;-0.2423823;0;-15;-8;2927;2400;296;256;0.09833795;-0.2770083;-0.6135734;-0.7328873;7;-24;4;310;3654;-1170;128;-0.0401662;0.1897507;0.5969529;0.7784784;7;-11;-5;-394;3652;850;4;-0.5900277;0.1038781;-0.4764543;-0.6434811;-2;-2;4;2596;2832;558;16;0.712652;-0.6911357;0.04986149;-0.1094183;-4;2;-6;897;4181;-270;2;0.5637119;-0.7183254;-0.3102493;-0.2645429;0;-5;1;436;3942;-672;8;0.367036;-0.7659142;0.3725762;0.3739612;-2;2;1;1095;3549;1851;0.6643267;2.431815;1.198667;0.6703086;2.976927;1.219616;0.6755676;3.456157;1.236008;0.8167229;4.157425;1.399595;0.6275274;4.528491;1.435138;0.2631839;4.448029;1.465448;-0.2465518;5.095244;1.041644;0.625286;4.987572;1.396753;1.137642;4.425821;1.435114;1.391134;4.221006;1.465396;1.509764;3.394905;1.94681;0.7166165;2.884261;1.857666;0.3520756;2.390063;1.18927;0.2277757;1.310104;0.209936;0;0;0;0.3520756;2.390063;1.18927;0.2277757;1.310104;0.209936;0;0;0
1851580.6739;NotLabelled;NONE;16384;0.7331241;0.5429363;0.3905817;0.1232687;11;7;6;2328;-2820;1466;65536;0.5986233;0.333795;-0.5554016;-0.4709141;2;-3;-15;3727;504;-1290;8192;0.5692521;-0.7311642;-0.3739612;-0.03878116;1;16;-7;1946;3758;180;32768;0.5124654;-0.7198473;0.4030471;-0.2382271;1;-20;-12;3215;2532;410;256;0.1024931;-0.2811634;-0.6108033;-0.7330495;6;-31;5;412;3928;-910;128;-0.04155125;0.1911357;0.5983379;0.7770022;10;-13;-7;-470;3818;1270;4;-0.5886427;0.1024931;-0.4764543;-0.64497;-1;-6;3;2524;2784;486;16;0.7127476;-0.6911357;0.04847645;-0.1094183;-4;5;-4;615;4099;-378;2;0.5637119;-0.718922;-0.3088643;-0.2645429;0;-6;3;484;3920;-954;8;0.367036;-0.7659142;0.3725762;0.3739612;-4;0;1;1281;3491;1671;0.6528196;2.429778;1.199047;0.6588024;2.974968;1.217876;0.6640621;3.454258;1.232407;0.8038054;4.154187;1.402802;0.6139611;4.524611;1.441442;0.2496869;4.443305;1.470298;-0.2518759;5.090907;1.03743;0.6126192;4.978145;1.40855;1.124235;4.422736;1.441442;1.377989;4.21804;1.470298;1.493156;3.39088;1.950732;0.701899;2.879174;1.851451;0.3405683;2.38799;1.189826;0.2237533;1.31145;0.2058173;0;0;0;0.3405683;2.38799;1.189826;0.2237533;1.31145;0.2058173;0;0;0
1851601.6816;NotLabelled;NONE;16384;0.734379;0.5415512;0.3905817;0.1218837;11;9;4;2360;-2820;1510;65536;0.598107;0.33241;-0.5567867;-0.4709141;0;-7;-13;3773;656;-1268;8192;0.5706371;-0.7292202;-0.3753462;-0.04155125;-2;13;-7;1884;3912;190;32768;0.5152354;-0.7180021;0.4044321;-0.2354571;0;-22;-13;3345;2520;494;256;0.1052632;-0.2853186;-0.6094183;-0.7322037;5;-28;5;496;4028;-1044;128;-0.04293629;0.1925208;0.5983379;0.7765847;5;-10;-6;-570;3922;1220;4;-0.5886427;0.101108;-0.4764543;-0.6451886;1;-8;3;2744;2624;370;16;0.7128404;-0.6911357;0.04709141;-0.1094183;-3;7;-4;761;4035;-284;2;0.5637119;-0.718922;-0.3088643;-0.2645429;0;-5;2;420;3842;-802;8;0.365651;-0.7658992;0.3725762;0.3753462;-5;0;1;1299;3501;1795;0.6350471;2.429667;1.202779;0.6410306;2.974923;1.219572;0.6462909;3.454265;1.232312;0.7840165;4.153673;1.406443;0.5931578;4.523394;1.44679;0.2290701;4.440983;1.474856;-0.2647906;5.088977;1.033796;0.5947495;4.972007;1.414986;1.103698;4.422863;1.44679;1.357961;4.21869;1.474856;1.467873;3.389567;1.953134;0.6810392;2.872408;1.847184;0.3227954;2.387846;1.193727;0.2187154;1.312036;0.2074923;0;0;0;0.3227954;2.387846;1.193727;0.2187154;1.312036;0.2074923;0;0;0
1851622.6565;NotLabelled;NONE;16384;0.7353984;0.5401662;0.3905817;0.1218837;11;7;3;2274;-2808;1506;65536;0.5975841;0.3310249;-0.5581717;-0.4709141;0;-10;-10;3871;742;-1340;8192;0.5720221;-0.7280538;-0.3753462;-0.04293629;-4;3;-7;1650;3792;248;32768;0.5166205;-0.7175759;0.4058172;-0.2313019;-5;-20;-11;3481;2462;576;256;0.1080332;-0.2880886;-0.6080332;-0.731867;4;-21;3;722;3910;-818;128;-0.04432133;0.1939058;0.5983379;0.7761623;7;-4;-4;-586;3812;1086;4;-0.5886427;0.101108;-0.4750692;-0.6462091;5;-5;4;2846;2826;480;16;0.7129306;-0.6911357;0.04570637;-0.1094183;-4;4;-6;995;4091;-80;2;0.5637119;-0.7200232;-0.3074792;-0.2631579;0;-7;2;490;3868;-868;8;0.365651;-0.7658992;0.3725762;0.3753462;-4;4;1;1325;3535;1913;0.621589;2.42817;1.207062;0.6275727;2.97343;1.223708;0.6328328;3.452775;1.236318;0.7707744;4.151722;1.412123;0.5800507;4.521426;1.453249;0.2159179;4.439099;1.480976;-0.2665282;5.087594;1.028174;0.5880817;4.967491;1.419344;1.09055;4.420686;1.453223;1.344718;4.216344;1.480919;1.4457;3.385149;1.957566;0.6625982;2.864515;1.841464;0.3093371;2.386345;1.198022;0.2140985;1.312617;0.2086311;0;0;0;0.3093371;2.386345;1.198022;0.2140985;1.312617;0.2086311;0;0;0
1851642.672;NotLabelled;NONE;16384;0.7371467;0.5387812;0.3891967;0.1218837;13;2;0;2390;-2922;1612;65536;0.5970541;0.3296399;-0.5595568;-0.4709141;0;-10;-6;3791;770;-1464;8192;0.5761772;-0.7261146;-0.3725762;-0.04432133;-9;-5;-9;1850;3844;-16;32768;0.5166205;-0.7170517;0.4113573;-0.2229917;-11;-26;-10;3565;2374;316;256;0.1121884;-0.2922437;-0.6066482;-0.730743;2;-37;1;150;4512;-1158;128;-0.04432133;0.1952908;0.5983379;0.775815;5;-7;-5;-534;4026;1220;4;-0.5886427;0.09972299;-0.4736842;-0.6474399;2;1;2;2666;3090;678;16;0.7115853;-0.6925207;0.04570637;-0.1094183;-3;-1;-5;1053;4143;148;2;0.5623268;-0.7216093;-0.3074792;-0.2617728;0;-2;2;790;3932;-884;8;0.3642659;-0.7672306;0.3711911;0.3753462;-3;2;1;1259;3509;1963;0.6047422;2.427552;1.21007;0.6107258;2.972817;1.226564;0.6159862;3.452165;1.23904;0.7528417;4.150922;1.416441;0.5615688;4.520262;1.458284;0.1975411;4.437355;1.485655;-0.2846832;5.084861;1.031207;0.5657631;4.961625;1.430395;1.072212;4.420253;1.458283;1.326659;4.216216;1.485654;1.429827;3.383473;1.95912;0.6500117;2.858794;1.839174;0.2924905;2.385725;1.201043;0.209957;1.313192;0.2092153;0;0;0;0.2924905;2.385725;1.201043;0.209957;1.313192;0.2092153;0;0;0
1851662.7818;NotLabelled;NONE;16384;0.7384325;0.536011;0.3905817;0.1218837;12;4;-2;2500;-2828;1802;65536;0.5976081;0.3282548;-0.5609418;-0.4695291;1;-10;-3;3719;786;-1652;8192;0.5775623;-0.7257234;-0.3711911;-0.04432133;-12;-6;-11;1922;3810;-4;32768;0.5180055;-0.7161589;0.4141274;-0.2174515;-15;-31;-11;3553;2276;482;256;0.1163435;-0.2963989;-0.6038781;-0.7307141;3;-28;3;666;3904;-1016;128;-0.04570637;0.1966759;0.599723;0.7743138;9;-9;-5;-554;3968;1058;4;-0.5886427;0.09972299;-0.4736842;-0.6474399;1;3;2;2498;3080;700;16;0.7105345;-0.6939058;0.04432133;-0.1080332;-2;2;-4;899;4065;118;2;0.5623268;-0.7216093;-0.3074792;-0.2617728;0;-2;1;708;3860;-642;8;0.3642659;-0.7678991;0.3698061;0.3753462;-3;3;0;1255;3549;2021;0.5902392;2.424403;1.213257;0.5962229;2.969666;1.229797;0.6014829;3.449014;1.242314;0.7371571;4.147724;1.420806;0.5452752;4.51669;1.463148;0.1813741;4.433152;1.490287;-0.2917127;5.080829;1.026569;0.5528523;4.954456;1.437103;1.056079;4.417507;1.463148;1.310848;4.21384;1.490287;1.412081;3.376627;1.956229;0.6347014;2.848411;1.835999;0.2779874;2.382577;1.204226;0.2105108;1.313343;0.20771;0;0;0;0.2779874;2.382577;1.204226;0.2105108;1.313343;0.20771;0;0;0
1851683.6668;NotLabelled;NONE;16384;0.739703;0.533241;0.3919668;0.1218837;4;4;-2;2442;-2834;2012;65536;0.5989068;0.3254848;-0.5623268;-0.468144;0;-4;3;3917;606;-1862;8192;0.5803324;-0.7249247;-0.368421;-0.04432133;-14;-12;-10;1954;3688;-6;32768;0.5166205;-0.7159942;0.4182825;-0.2132964;-18;-32;-8;3647;2454;322;256;0.1191136;-0.300554;-0.602493;-0.7297132;-2;-10;4;614;4162;-1040;128;-0.04709141;0.199446;0.601108;0.772446;9;-5;-5;-630;3986;1066;4;-0.5886427;0.101108;-0.4736842;-0.6472251;0;0;0;2490;3074;612;16;0.7105345;-0.6939058;0.04432133;-0.1080332;-1;6;-3;931;4047;268;2;0.5623268;-0.7221103;-0.3074792;-0.2603878;0;-3;2;738;4008;-862;8;0.3642659;-0.7678991;0.3698061;0.3753462;-3;0;0;1213;3519;2015;0.5737435;2.4257;1.209696;0.5797276;2.971022;1.224185;0.5849884;3.450413;1.234899;0.7185979;4.148618;1.416889;0.5256748;4.516853;1.460832;0.1619771;4.432199;1.487226;-0.304913;5.077052;1.013405;0.5337154;4.949694;1.435636;1.036746;4.419058;1.460832;1.292042;4.215954;1.487226;1.388738;3.377349;1.951626;0.615157;2.84495;1.825488;0.2614912;2.38384;1.200835;0.2066587;1.314606;0.2035434;0;0;0;0.2614912;2.38384;1.200835;0.2066587;1.314606;0.2035434;0;0;0
1851703.677;NotLabelled;NONE;16384;0.7399648;0.5318559;0.3933518;0.1218837;0;4;-2;2610;-2734;2068;65536;0.5999869;0.3254848;-0.5623268;-0.466759;-3;-1;6;4059;362;-1884;8192;0.5831025;-0.7234864;-0.367036;-0.04293629;-15;-18;-8;2164;3744;-150;32768;0.5166205;-0.7151833;0.4224377;-0.2077562;-20;-31;-5;3671;2540;384;256;0.1204986;-0.3033241;-0.601108;-0.7294818;-4;-9;6;598;4114;-1062;128;-0.04709141;0.199446;0.601108;0.772446;2;-2;-6;-602;4010;1110;4;-0.5886427;0.101108;-0.4736842;-0.6472251;-1;-4;0;2400;3038;476;16;0.709052;-0.6952909;0.04293629;-0.1094183;0;4;-2;915;4159;136;2;0.5623268;-0.7221103;-0.3074792;-0.2603878;0;-3;2;766;4050;-694;8;0.3642659;-0.7678991;0.3698061;0.3753462;-3;1;0;1123;3407;1881;0.5592501;2.42782;1.210096;0.565235;2.973191;1.222573;0.570496;3.452618;1.231517;0.7042983;4.150386;1.415044;0.5114981;4.518601;1.459689;0.1477572;4.43403;1.485756;-0.3133975;5.076033;1.00254;0.5206384;4.946581;1.433147;1.022532;4.420609;1.45969;1.27774;4.217352;1.485757;1.371964;3.375989;1.945654;0.5983579;2.844049;1.817747;0.2469976;2.385928;1.201402;0.2044603;1.314606;0.2057519;0;0;0;0.2469976;2.385928;1.201402;0.2044603;1.314606;0.2057519;0;0;0
1851723.6706;NotLabelled;NONE;16384;0.7399648;0.5318559;0.3933518;0.1218837;-6;2;0;2520;-2624;2032;65536;0.6012819;0.3254848;-0.5609418;-0.466759;-7;3;9;3987;408;-1898;8192;0.5858725;-0.7228073;-0.3642659;-0.0401662;-18;-17;-5;2368;3804;-220;32768;0.5152354;-0.7157356;0.4252077;-0.2036011;-19;-29;-2;3723;2634;490;256;0.1218837;-0.3047091;-0.602493;-0.7275293;-7;-11;6;570;4160;-1040;128;-0.04847645;0.200831;0.602493;0.7709209;4;-5;-6;-438;4024;1072;4;-0.5872576;0.101108;-0.4750692;-0.647468;-1;-6;-2;2378;3058;444;16;0.7091345;-0.6952909;0.04155125;-0.1094183;0;-3;-3;799;4101;-50;2;0.5623268;-0.7226082;-0.3074792;-0.2590028;-1;-2;1;706;3872;-712;8;0.3628809;-0.7685546;0.3698061;0.3753462;-2;1;0;1311;3529;1947;0.5542219;2.427937;1.20794;0.5602068;2.973309;1.220417;0.565468;3.452736;1.229362;0.6995496;4.149916;1.414902;0.5069249;4.51811;1.460471;0.1431243;4.433664;1.486108;-0.3160944;5.073711;0.9984747;0.5152692;4.946402;1.43485;1.017905;4.419842;1.460471;1.27299;4.216373;1.486108;1.36999;3.373839;1.94327;0.5976363;2.839936;1.815969;0.2419695;2.386045;1.199246;0.2061183;1.314723;0.2033332;0;0;0;0.2419695;2.386045;1.199246;0.2061183;1.314723;0.2033332;0;0;0
1851744.6594;NotLabelled;NONE;16384;0.7399648;0.5318559;0.3933518;0.1218837;-9;5;0;2486;-2644;1962;65536;0.6027812;0.3254848;-0.5581717;-0.468144;-10;7;15;4109;338;-2004;8192;0.5872576;-0.7231495;-0.3614958;-0.03878116;-16;-13;-3;2370;3736;-366;32768;0.5138504;-0.715033;0.4293629;-0.200831;-18;-26;-1;3583;2534;580;256;0.1246537;-0.3060942;-0.602493;-0.7264777;-11;-12;6;498;4106;-956;128;-0.04847645;0.2022161;0.602493;0.7705588;5;-7;-5;-390;4000;942;4;-0.5844875;0.09972299;-0.4750692;-0.6501838;0;-6;-2;2648;2868;334;16;0.7093468;-0.6952909;0.04155125;-0.1080332;0;0;0;781;4151;-82;2;0.5623268;-0.7231032;-0.3074792;-0.2576177;0;-3;2;684;3982;-852;8;0.3628809;-0.7692195;0.368421;0.3753462;-1;0;0;1265;3547;1935;0.5500531;2.431084;1.204495;0.5560383;2.976499;1.214907;0.5612997;3.455956;1.222037;0.6962116;4.153757;1.404619;0.5039842;4.522324;1.448833;0.1401215;4.438341;1.475101;-0.316929;5.078388;0.9854346;0.514407;4.953102;1.422448;1.014868;4.423553;1.448832;1.269772;4.219942;1.475101;1.370442;3.376473;1.929744;0.5980512;2.841652;1.806599;0.2378003;2.389159;1.195973;0.2030598;1.315286;0.2027721;0;0;0;0.2378003;2.389159;1.195973;0.2030598;1.315286;0.2027721;0;0;0
1851764.6708;NotLabelled;NONE;16384;0.739454;0.5318559;0.3947368;0.1204986;-14;9;-1;2508;-2690;1940;65536;0.6045877;0.3268698;-0.5554016;-0.468144;-10;7;17;3733;242;-1790;8192;0.5900277;-0.7218605;-0.3601108;-0.033241;-9;-12;4;2192;3632;-366;32768;0.5110803;-0.7164214;0.433518;-0.1939058;-14;-14;-1;3485;2422;762;256;0.1260388;-0.3074792;-0.6038781;-0.7245013;-12;-12;6;526;3922;-848;128;-0.04986149;0.2022161;0.6038781;0.7693853;4;-10;-4;-492;3914;1026;4;-0.5844875;0.09972299;-0.4764543;-0.6491695;0;-6;-1;2798;2990;356;16;0.7107018;-0.6939058;0.04155125;-0.1080332;1;0;0;947;4095;-52;2;0.5623268;-0.7231032;-0.3074792;-0.2576177;0;-4;2;670;3928;-714;8;0.3628809;-0.7692195;0.368421;0.3753462;0;0;0;1193;3529;1929;0.5390654;2.432223;1.203707;0.5450505;2.977637;1.214165;0.5503119;3.457094;1.221335;0.6837813;4.155457;1.402823;0.4907783;4.523679;1.446532;0.1271032;4.438958;1.473028;-0.3246577;5.078963;0.9784231;0.5071539;4.955587;1.415076;1.001872;4.426001;1.44654;1.257218;4.222974;1.473046;1.354587;3.378407;1.926368;0.5808622;2.845497;1.803308;0.2268125;2.390299;1.195181;0.1998527;1.315839;0.2023731;0;0;0;0.2268125;2.390299;1.195181;0.1998527;1.315839;0.2023731;0;0;0
1851784.6537;NotLabelled;NONE;16384;0.7363538;0.533241;0.400277;0.1149584;-16;19;-9;2388;-2818;1714;65536;0.6096308;0.3268698;-0.5498615;-0.468144;-17;1;13;3627;450;-1330;8192;0.5900277;-0.7219229;-0.3601108;-0.03185596;-4;-13;9;2048;3414;-388;32768;0.5096953;-0.716942;0.434903;-0.1925208;-11;-6;-2;3213;2220;846;256;0.1301939;-0.3102493;-0.6052631;-0.7214232;-8;-9;4;542;3740;-830;128;-0.05263158;0.2049861;0.6038781;0.7684672;6;-10;-3;-480;3754;844;4;-0.5831025;0.09972299;-0.4764543;-0.6504138;0;-2;0;2818;2910;504;16;0.7107018;-0.6939058;0.04155125;-0.1080332;0;1;0;959;4177;-60;2;0.5623268;-0.7235951;-0.3074792;-0.2562327;0;-4;1;814;4044;-614;8;0.3628809;-0.7692195;0.368421;0.3753462;-1;3;0;1127;3495;1901;0.5365442;2.433362;1.206734;0.5425298;2.978812;1.215075;0.5477915;3.458294;1.220385;0.6822472;4.15726;1.398797;0.4896861;4.525856;1.44128;0.1259651;4.441619;1.468672;-0.3269618;5.083767;0.9779255;0.5060055;4.965549;1.413801;1.000679;4.427655;1.440921;1.255858;4.224478;1.467878;1.362896;3.379659;1.918541;0.5887661;2.845049;1.805834;0.2242908;2.391405;1.198385;0.1958867;1.315725;0.2069399;0;0;0;0.2242908;2.391405;1.198385;0.1958867;1.315725;0.2069399;0;0;0
1851824.6798;NotLabelled;NONE;16384;0.7350566;0.533241;0.4030471;0.1135734;-15;21;-12;2362;-2904;1664;65536;0.611795;0.3254848;-0.5470914;-0.4695291;-20;0;11;3579;612;-1146;8192;0.5900277;-0.722729;-0.3587258;-0.02908587;-1;-17;9;1964;3368;-256;32768;0.5083103;-0.7182946;0.434903;-0.1911357;-12;0;-4;3165;2112;870;256;0.1315789;-0.3116343;-0.6052631;-0.7205744;-8;-4;3;574;3756;-866;128;-0.05401662;0.2063712;0.6052631;0.7669092;3;-10;-3;-496;3782;762;4;-0.5831025;0.09833795;-0.4750692;-0.6516367;-1;0;0;2796;2890;446;16;0.7107018;-0.6939058;0.04155125;-0.1080332;0;2;0;893;4141;-128;2;0.5623268;-0.7235951;-0.3074792;-0.2562327;0;-1;0;700;3916;-702;8;0.3628809;-0.7692195;0.368421;0.3753462;-1;2;1;1143;3407;2005;0.5225151;2.434698;1.207515;0.5285007;2.980154;1.215508;0.5337624;3.459639;1.220512;0.6675625;4.159747;1.39489;0.4746363;4.52838;1.435351;0.1110132;4.443925;1.463363;-0.3452191;5.085876;0.9754289;0.4895525;4.975698;1.409956;0.9857308;4.430707;1.435351;1.24113;4.22795;1.463364;1.346347;3.385777;1.919377;0.5723037;2.851912;1.802616;0.2102617;2.392736;1.199194;0.193768;1.315725;0.2089251;0;0;0;0.2102617;2.392736;1.199194;0.193768;1.315725;0.2089251;0;0;0
1851845.784;NotLabelled;NONE;16384;0.733187;0.533241;0.4072022;0.1108033;-14;24;-16;2392;-2882;1528;65536;0.612868;0.3240997;-0.5443213;-0.4722992;-22;-5;11;3705;732;-1116;8192;0.5886427;-0.7246481;-0.3573407;-0.02631579;-1;-19;8;1998;3388;-248;32768;0.5069252;-0.7196394;0.434903;-0.1897507;-14;1;-4;3247;2054;718;256;0.1315789;-0.3116343;-0.6066482;-0.7194088;-11;-3;2;656;3764;-914;128;-0.05540166;0.2077562;0.6052631;0.7664363;5;-11;-4;-504;3734;742;4;-0.5831025;0.09833795;-0.4750692;-0.6516367;-1;0;2;2672;2846;428;16;0.7107018;-0.6939058;0.04155125;-0.1080332;-1;2;-1;1001;4123;-138;2;0.5637119;-0.7225167;-0.3074792;-0.2562327;0;0;0;636;3902;-744;8;0.3628809;-0.770555;0.367036;0.3739612;-2;3;1;1101;3415;1935;0.5146998;2.43143;1.211794;0.5206859;2.976912;1.217702;0.5259479;3.456413;1.220873;0.6597028;4.156666;1.394706;0.4667453;4.52531;1.434917;0.1031348;4.440839;1.463045;-0.3544676;5.081952;0.9752926;0.4821161;4.97253;1.406513;0.9778496;4.427688;1.434917;1.233274;4.224977;1.463045;1.337888;3.383897;1.92121;0.5640356;2.849469;1.805766;0.2024462;2.389437;1.203647;0.1929187;1.315724;0.20971;0;0;0;0.2024462;2.389437;1.203647;0.1929187;1.315724;0.20971;0;0;0
1851866.6672;NotLabelled;NONE;16384;0.7312784;0.533241;0.4113573;0.1080332;-12;28;-18;2298;-2902;1388;65536;0.6157051;0.3213296;-0.5415512;-0.4736842;-23;-7;12;3671;780;-1064;8192;0.5886427;-0.7254683;-0.3559557;-0.02216066;-2;-19;8;2080;3392;-286;32768;0.5041551;-0.7219455;0.434903;-0.1883656;-14;3;-4;3283;2196;486;256;0.132964;-0.3116343;-0.6080332;-0.7179834;-12;-2;4;626;3714;-1000;128;-0.0567867;0.2091413;0.6052631;0.7659581;4;-15;-3;-644;3648;1084;4;-0.5831025;0.09833795;-0.4750692;-0.6516367;-2;-2;4;2650;2840;476;16;0.7107018;-0.6939058;0.04155125;-0.1080332;-3;1;-1;1051;4201;-148;2;0.5637119;-0.7231045;-0.3060942;-0.2562327;0;-3;0;482;3844;-770;8;0.3628809;-0.7712132;0.365651;0.3739612;-3;10;3;1037;3559;1959;0.5150477;2.431433;1.21172;0.5210338;2.976917;1.217444;0.5262956;3.456419;1.220453;0.6609975;4.157099;1.391817;0.4685051;4.526107;1.4309;0.1048129;4.442165;1.459551;-0.3583205;5.082646;0.9762081;0.4817058;4.971885;1.400337;0.979493;4.427876;1.4309;1.234694;4.224957;1.459552;1.338606;3.385637;1.921091;0.5644479;2.850662;1.810322;0.202794;2.389437;1.203588;0.1929794;1.315725;0.2096539;0;0;0;0.202794;2.389437;1.203588;0.1929794;1.315725;0.2096539;0;0;0
1851886.7175;NotLabelled;NONE;16384;0.7277652;0.5304709;0.4224377;0.1024931;-2;18;-15;2138;-2982;1304;65536;0.6230178;0.3144044;-0.536011;-0.4750692;-15;-11;9;3379;718;-1400;8192;0.5886427;-0.7263523;-0.3545706;-0.01385042;-5;-11;11;1886;3540;-218;32768;0.501385;-0.7252911;0.434903;-0.1828255;-9;2;-5;3265;2224;366;256;0.1357341;-0.3144044;-0.6094183;-0.7150773;-10;-9;2;612;3572;-1106;128;-0.06094183;0.2132964;0.6038781;0.7655861;2;-19;-3;-562;3590;1286;4;-0.5831025;0.09279778;-0.4736842;-0.653455;-4;-7;11;3190;2744;660;16;0.7096362;-0.6952909;0.0401662;-0.1066482;-4;-5;-7;1137;3981;-198;2;0.5637119;-0.7235938;-0.3060942;-0.2548476;-2;0;2;412;3938;-728;8;0.3614958;-0.772518;0.3642659;0.3739612;-5;1;3;1191;3495;1883;0.5133753;2.431436;1.211985;0.5193615;2.976922;1.217521;0.5246235;3.456424;1.220364;0.6589279;4.157928;1.388641;0.4661848;4.526952;1.426314;0.1025802;4.442856;1.455619;-0.3649058;5.082708;0.9756451;0.478644;4.971516;1.392607;0.9772475;4.429111;1.426314;1.232627;4.226512;1.455619;1.338936;3.389192;1.920236;0.563652;2.854651;1.815411;0.2011217;2.389437;1.203868;0.192688;1.315725;0.2099217;0;0;0;0.2011217;2.389437;1.203868;0.192688;1.315725;0.2099217;0;0;0
1851927.669;NotLabelled;NONE;16384;0.7271535;0.5304709;0.4238227;0.101108;-1;9;-16;2368;-3146;1428;65536;0.6249025;0.3130194;-0.534626;-0.4750692;-10;-9;5;3523;788;-1474;8192;0.5886427;-0.7270743;-0.3531856;-0.01108033;-6;-10;9;1836;3704;-270;32768;0.501385;-0.7256389;0.434903;-0.1814404;-8;1;-7;3195;2102;300;256;0.1398892;-0.3185596;-0.6080332;-0.713615;-2;-17;0;752;3726;-1110;128;-0.06509695;0.2174515;0.6038781;0.7640736;4;-13;0;-636;3784;1198;4;-0.5831025;0.08864266;-0.4736842;-0.6540316;-6;-15;8;3142;2764;440;16;0.7084037;-0.6966759;0.04155125;-0.1052632;-4;-13;-9;925;4199;90;2;0.5637119;-0.7241781;-0.3047091;-0.2548476;0;-6;1;270;3842;-754;8;0.3614958;-0.773187;0.3642659;0.3725762;-5;0;3;1337;3465;1999;0.5047811;2.42305;1.216969;0.510767;2.968521;1.223818;0.5160287;3.448016;1.227815;0.6512421;4.150199;1.392494;0.4589291;4.51961;1.428524;0.09526324;4.43605;1.458589;-0.3806744;5.070809;0.9801613;0.4684407;4.959459;1.385627;0.9698869;4.421223;1.428524;1.225078;4.218497;1.458588;1.33525;3.385929;1.930782;0.5618498;2.847433;1.832487;0.1925275;2.381071;1.208744;0.1902277;1.316933;0.2045209;0;0;0;0.1925275;2.381071;1.208744;0.1902277;1.316933;0.2045209;0;0;0
1851948.68;NotLabelled;NONE;16384;0.7255318;0.5304709;0.4265928;0.101108;1;9;-17;2464;-3068;1574;65536;0.6255944;0.3116343;-0.534626;-0.4750692;-8;-7;4;3789;824;-1566;8192;0.5900277;-0.7259706;-0.3531856;-0.009695291;-8;-10;6;1918;3716;-272;32768;0.5;-0.7269384;0.434903;-0.1800554;-9;-2;-9;3333;2010;238;256;0.1412742;-0.3199446;-0.6066482;-0.7139013;-1;-17;-1;766;3942;-1128;128;-0.06648199;0.2188366;0.6038781;0.7635587;2;-15;-1;-572;3856;1292;4;-0.5817174;0.08587258;-0.4736842;-0.6556325;-8;-17;5;2754;2886;678;16;0.7088099;-0.6966759;0.04155125;-0.1024931;-3;-12;-9;967;4125;142;2;0.5637119;-0.724664;-0.3047091;-0.2534626;0;-10;5;692;3882;-808;8;0.3601108;-0.773833;0.3642659;0.3725762;-4;0;2;1299;3537;1957;0.4979973;2.41686;1.221847;0.5039833;2.962339;1.228065;0.5092453;3.441838;1.231509;0.6434591;4.144032;1.396953;0.4506306;4.513142;1.433332;0.08707392;4.429049;1.463235;-0.3842479;5.064032;0.9805535;0.4618144;4.953411;1.392546;0.9617233;4.415457;1.433332;1.217187;4.213051;1.463235;1.323142;3.381595;1.938346;0.5518;2.841628;1.83226;0.1857437;2.374872;1.213674;0.1913888;1.317024;0.2028395;0;0;0;0.1857437;2.374872;1.213674;0.1913888;1.317024;0.2028395;0;0;0
1851969.6749;NotLabelled;NONE;16384;0.7247143;0.5290859;0.4293629;0.1024931;0;9;-17;2488;-2982;1600;65536;0.6262824;0.3102493;-0.534626;-0.4750692;-5;-2;5;3907;830;-1482;8192;0.5900277;-0.7266599;-0.3518005;-0.008310249;-9;-7;2;2010;3850;-192;32768;0.5;-0.72645;0.4362881;-0.1786704;-10;-7;-10;3633;2108;156;256;0.1468144;-0.3240997;-0.6052631;-0.7120825;-4;-47;-3;76;4528;-1382;128;-0.06786703;0.2202216;0.6038781;0.7630385;5;-13;-1;-826;4238;1286;4;-0.5803324;0.08448754;-0.4750692;-0.6560376;-7;-16;3;2610;2862;742;16;0.7076451;-0.6980609;0.04155125;-0.101108;-3;-5;-7;807;4039;188;2;0.5637119;-0.7257274;-0.3033241;-0.2520775;0;-7;5;786;3972;-882;8;0.3587258;-0.7744761;0.3642659;0.3725762;-4;0;1;1295;3579;2017;0.490129;2.415079;1.222328;0.496115;2.960561;1.228328;0.501377;3.44006;1.23158;0.6346083;4.141994;1.398915;0.4412885;4.51076;1.436158;0.07782531;4.426125;1.465661;-0.3960294;5.058993;0.9826841;0.4488567;4.947142;1.396754;0.9525059;4.413732;1.436158;1.208214;4.211576;1.465662;1.316274;3.380364;1.940727;0.5451159;2.839929;1.835692;0.1778752;2.373087;1.214173;0.1865426;1.318096;0.2003793;0;0;0;0.1778752;2.373087;1.214173;0.1865426;1.318096;0.2003793;0;0;0
1851989.7794;NotLabelled;NONE;16384;0.7238919;0.5290859;0.4307479;0.1024931;0;5;-17;2532;-2944;1710;65536;0.6274621;0.3102493;-0.533241;-0.4750692;-5;-1;7;3993;584;-1586;8192;0.5927978;-0.7250994;-0.3504155;-0.005540166;-10;-11;0;2166;3832;-198;32768;0.4986149;-0.7270743;0.4390582;-0.1731302;-10;-14;-9;3733;2362;444;256;0.1495845;-0.3268698;-0.6038781;-0.7114154;-2;-20;-2;716;3998;-852;128;-0.06925207;0.2216066;0.6038781;0.7625129;4;-7;0;-708;4118;1370;4;-0.5789474;0.08171745;-0.4750692;-0.6576104;-2;-2;-1;3156;2798;290;16;0.7079216;-0.6980609;0.0401662;-0.09972299;-3;3;-5;599;4129;-42;2;0.5637119;-0.7266837;-0.3033241;-0.2493075;0;-6;4;816;3976;-1014;8;0.3587258;-0.7744761;0.3642659;0.3725762;-3;0;0;1301;3519;1921;0.4787717;2.416213;1.218781;0.4847578;2.961696;1.224558;0.4900196;3.441197;1.227614;0.6209406;4.143561;1.394969;0.4264086;4.511688;1.432221;0.06322569;4.425857;1.46172;-0.4079741;5.054439;0.9706162;0.4315848;4.94135;1.395055;0.9379425;4.416341;1.43222;1.194314;4.215027;1.46172;1.295856;3.384005;1.93855;0.5262343;2.843359;1.823776;0.166518;2.374217;1.210644;0.1852717;1.318705;0.1975297;0;0;0;0.166518;2.374217;1.210644;0.1852717;1.318705;0.1975297;0;0;0
1852010.6797;NotLabelled;NONE;16384;0.7230514;0.5277008;0.433518;0.1038781;-2;4;-18;2710;-2898;1794;65536;0.6286365;0.3102493;-0.5318559;-0.4750692;-7;0;11;4229;522;-1440;8192;0.5941828;-0.7246429;-0.3490305;-0.004155125;-11;-9;1;2442;3816;-136;32768;0.4986149;-0.7268909;0.4404432;-0.1703601;-10;-14;-7;3831;2550;644;256;0.1509695;-0.3268698;-0.602493;-0.7122966;-6;-1;-1;830;4058;-1114;128;-0.07063711;0.2216066;0.6038781;0.7623858;2;-1;0;-694;4004;1380;4;-0.5789474;0.08171745;-0.4750692;-0.6576104;2;4;-1;3122;2838;256;16;0.7066305;-0.699446;0.03878116;-0.09972299;-3;6;-2;653;4137;-74;2;0.5623268;-0.727756;-0.3033241;-0.2493075;-1;-4;2;884;4072;-850;8;0.3587258;-0.7738082;0.3642659;0.3739612;-3;2;0;1217;3485;1943;0.465879;2.414413;1.219918;0.471865;2.959899;1.225469;0.4771269;3.439402;1.228324;0.6070802;4.141653;1.396903;0.4120534;4.509458;1.434732;0.04897702;4.423098;1.463997;-0.4163258;5.050817;0.9662116;0.4211462;4.939668;1.395261;0.9237127;4.414787;1.434695;1.180342;4.213761;1.463915;1.281199;3.382321;1.940161;0.5129086;2.839321;1.827609;0.1536253;2.372415;1.211801;0.1794785;1.319752;0.1958823;0;0;0;0.1536253;2.372415;1.211801;0.1794785;1.319752;0.1958823;0;0;0
1852031.6769;NotLabelled;NONE;16384;0.7197007;0.5277008;0.4390582;0.1038781;-5;11;-15;2750;-2822;1832;65536;0.633167;0.3102493;-0.5277008;-0.4736842;-9;0;15;4135;316;-1674;8192;0.5955678;-0.7235116;-0.3490305;-0.002770083;-11;-6;2;2454;3644;-244;32768;0.4986149;-0.7266942;0.4418283;-0.16759;-10;-10;-6;3675;2562;616;256;0.1537396;-0.3268698;-0.6038781;-0.7105291;-10;-1;0;590;4104;-1006;128;-0.06925207;0.2202216;0.6052631;0.7618157;4;7;0;-580;4008;1040;4;-0.5803324;0.08310249;-0.4750692;-0.6562145;5;13;-2;2932;2822;300;16;0.7067052;-0.699446;0.03739612;-0.09972299;-3;7;0;715;4147;-54;2;0.5623268;-0.7276506;-0.3047091;-0.2479224;-2;2;1;1052;3976;-756;8;0.3587258;-0.775126;0.3628809;0.3725762;-1;2;0;1355;3397;2041;0.4648437;2.414998;1.214922;0.4708297;2.960486;1.220199;0.4760916;3.43999;1.222814;0.6037132;4.142238;1.393175;0.4074931;4.509326;1.431799;0.04467928;4.421735;1.460663;-0.4279788;5.044928;0.9641216;0.4101105;4.935715;1.392462;0.9194521;4.41629;1.431799;1.176708;4.216013;1.460663;1.283593;3.3843;1.935112;0.5162793;2.839615;1.824047;0.1525899;2.372995;1.206827;0.1805073;1.320332;0.1909632;0;0;0;0.1525899;2.372995;1.206827;0.1805073;1.320332;0.1909632;0;0;0
1852052.6902;NotLabelled;NONE;16384;0.7198687;0.5263157;0.4404432;0.1038781;-7;3;-10;2470;-2664;1746;65536;0.6332822;0.3102493;-0.5263157;-0.4750692;-12;3;16;4227;260;-1824;8192;0.5955678;-0.7235169;-0.3490305;0;-10;-3;2;2354;3466;-324;32768;0.4972299;-0.7282751;0.4418283;-0.1648199;-9;-7;-5;3527;2488;640;256;0.1551246;-0.3268698;-0.6052631;-0.709048;-9;1;0;652;3984;-888;128;-0.06786703;0.2188366;0.6052631;0.7623393;-1;9;0;-536;3984;884;4;-0.5817174;0.08587258;-0.4736842;-0.6556325;8;21;-4;2808;2808;346;16;0.7067052;-0.699446;0.03739612;-0.09972299;-4;9;2;907;4167;108;2;0.5623268;-0.727069;-0.3060942;-0.2479224;-4;8;2;1188;3946;-888;8;0.3587258;-0.775126;0.3628809;0.3725762;0;5;0;1327;3371;2139;0.4590544;2.416278;1.212964;0.4650407;2.961781;1.216572;0.4703027;3.44129;1.21772;0.5963011;4.144748;1.384253;0.3991854;4.511536;1.421129;0.03662276;4.423179;1.450802;-0.4437169;5.042029;0.9562028;0.3976145;4.940607;1.38008;0.9113789;4.4198;1.421128;1.16917;4.220332;1.450802;1.278615;3.388902;1.925166;0.5124096;2.842531;1.814735;0.1468005;2.374251;1.205009;0.1777498;1.320845;0.1900028;0;0;0;0.1468005;2.374251;1.205009;0.1777498;1.320845;0.1900028;0;0;0
1852072.7496;NotLabelled;NONE;16384;0.7178017;0.5277008;0.4418283;0.1052632;-9;-3;-8;2520;-2510;1766;65536;0.6359302;0.3116343;-0.5235457;-0.4736842;-9;6;19;4005;114;-1928;8192;0.5955678;-0.7235169;-0.3490305;0;-7;-2;3;2326;3372;-318;32768;0.4972299;-0.7277455;0.4432133;-0.1634349;-6;-6;-4;3531;2326;684;256;0.1551246;-0.3268698;-0.6066482;-0.7078633;-10;7;0;674;4032;-816;128;-0.06786703;0.2188366;0.6066482;0.7612375;3;12;0;-562;3918;1110;4;-0.5831025;0.08725762;-0.4722992;-0.6552184;7;17;-4;2732;2920;458;16;0.7050066;-0.700831;0.03601108;-0.1024931;-5;16;4;747;4095;128;2;0.5609418;-0.7275543;-0.3074792;-0.2479224;-2;10;1;918;3774;-836;8;0.3587258;-0.775126;0.3628809;0.3725762;1;4;-1;1365;3329;1975;0.4514794;2.41786;1.211342;0.4574656;2.963361;1.215176;0.4627276;3.44287;1.216524;0.5884227;4.147121;1.379904;0.3911104;4.513945;1.415341;0.02862519;4.425496;1.445679;-0.4522492;5.042395;0.9491659;0.3897525;4.940901;1.371693;0.9033601;4.422523;1.415341;1.161296;4.223343;1.445679;1.273196;3.393774;1.922721;0.5076268;2.845502;1.817418;0.1392253;2.375836;1.203367;0.1774761;1.320845;0.1902592;0;0;0;0.1392253;2.375836;1.203367;0.1774761;1.320845;0.1902592;0;0;0
1852093.7532;NotLabelled;NONE;16384;0.7159258;0.5290859;0.4432133;0.1052632;-12;-4;-7;2550;-2550;1680;65536;0.6382999;0.3116343;-0.5193906;-0.4750692;-7;9;20;3753;200;-1728;8192;0.5955678;-0.7228458;-0.3504155;0.001385042;-2;0;3;2168;3246;-280;32768;0.4958449;-0.7286898;0.4432133;-0.1634349;-3;0;-1;3403;2106;734;256;0.1551246;-0.3254848;-0.6080332;-0.7073129;-8;10;-1;676;3858;-714;128;-0.06648199;0.2160665;0.6080332;0.761046;4;14;1;-598;3890;936;4;-0.5844875;0.0900277;-0.4722992;-0.6536076;5;20;-2;2806;2976;508;16;0.7046677;-0.700831;0.03462604;-0.1052632;-6;16;3;1175;4151;100;2;0.5609418;-0.7259032;-0.3102493;-0.2493075;-2;11;0;976;3844;-578;8;0.3587258;-0.775126;0.3628809;0.3725762;4;3;-1;1169;3413;2039;0.4528488;2.416903;1.209656;0.4588352;2.962413;1.211586;0.4640971;3.441924;1.21126;0.5908018;4.146562;1.372176;0.3939852;4.513759;1.406489;0.03140455;4.425883;1.437346;-0.4539272;5.041208;0.9432239;0.3905492;4.946809;1.362444;0.9061161;4.421673;1.406489;1.163813;4.222265;1.437346;1.275557;3.392695;1.914424;0.5099685;2.844191;1.810478;0.1405944;2.374851;1.201841;0.1828979;1.320378;0.1883534;0;0;0;0.1405944;2.374851;1.201841;0.1828979;1.320378;0.1883534;0;0;0
1852113.962;NotLabelled;NONE;16384;0.7149002;0.5304709;0.4432133;0.1052632;-11;-7;-3;2574;-2500;1608;65536;0.6391888;0.3144044;-0.5166205;-0.4750692;-6;11;19;3685;154;-1524;8192;0.5955678;-0.7228418;-0.3504155;0.002770083;0;0;2;2196;3214;-348;32768;0.4944598;-0.7296304;0.4432133;-0.1634349;-3;0;0;3279;2014;674;256;0.1537396;-0.3240997;-0.6094183;-0.7070593;-7;15;0;656;3762;-686;128;-0.06509695;0.2146814;0.6080332;0.7615575;5;15;2;-554;3724;976;4;-0.5886427;0.09418282;-0.4709141;-0.650284;-1;22;1;2466;2946;496;16;0.700831;-0.7044594;0.03462604;-0.1066482;-7;2;-1;1023;4143;80;2;0.5609418;-0.7242351;-0.3130194;-0.2506925;-2;17;1;954;3910;-726;8;0.3601108;-0.7744835;0.3628809;0.3725762;5;3;-1;1291;3447;2291;0.4565064;2.419277;1.207983;0.4624928;2.964791;1.208187;0.4677549;3.444298;1.206343;0.5941234;4.149569;1.364732;0.397101;4.516761;1.397892;0.03459406;4.42877;1.429281;-0.455794;5.043828;0.9398426;0.3938105;4.953196;1.349422;0.9092889;4.424993;1.397892;1.167128;4.225851;1.429281;1.28281;3.397983;1.908372;0.5158841;2.850502;1.808993;0.1442519;2.377201;1.200312;0.1851526;1.319863;0.1897569;0;0;0;0.1442519;2.377201;1.200312;0.1851526;1.319863;0.1897569;0;0;0
1852134.6588;NotLabelled;NONE;16384;0.7126305;0.533241;0.4432133;0.1066482;-7;-4;-3;2826;-2566;1652;65536;0.6415808;0.3185596;-0.5110803;-0.4750692;-2;6;15;3627;120;-1150;8192;0.5955678;-0.7228418;-0.3504155;0.002770083;3;2;2;2242;3228;-380;32768;0.4944598;-0.7296304;0.4432133;-0.1634349;-2;0;0;3113;1984;606;256;0.1537396;-0.3213296;-0.6108033;-0.7071285;-6;15;-1;556;3608;-674;128;-0.06371191;0.2132964;0.6094183;0.7609565;6;13;2;-416;3608;800;4;-0.5914127;0.09556787;-0.4709141;-0.6475629;-3;16;3;2348;2934;538;16;0.700831;-0.7044594;0.03462604;-0.1066482;-6;0;-3;803;4073;-80;2;0.5595568;-0.7247064;-0.3144044;-0.2506925;0;12;2;608;3814;-640;8;0.3601108;-0.7751309;0.3614958;0.3725762;5;1;-2;1039;3351;2087;0.4694275;2.419775;1.197949;0.4754138;2.965289;1.19837;0.4806757;3.444796;1.196716;0.6080125;4.150304;1.353265;0.4114718;4.517829;1.385587;0.04886782;4.430377;1.417362;-0.4452631;5.046268;0.9327567;0.4075426;4.96201;1.337009;0.9235425;4.42541;1.385586;1.181143;4.226019;1.417362;1.300635;3.399094;1.897143;0.532236;2.852644;1.803644;0.1571729;2.377701;1.190259;0.1974754;1.319341;0.1807512;0;0;0;0.1571729;2.377701;1.190259;0.1974754;1.319341;0.1807512;0;0;0
1852154.6688;NotLabelled;NONE;16384;0.711383;0.534626;0.4432133;0.1080332;-3;-1;-2;2730;-2614;1530;65536;0.6426817;0.3185596;-0.5096953;-0.4750692;-3;1;11;3699;108;-1050;8192;0.5941828;-0.7233087;-0.3518005;0.002770083;5;4;3;2246;3306;-290;32768;0.4930748;-0.7305671;0.4432133;-0.1634349;-1;2;-2;3079;2098;656;256;0.1523546;-0.3185596;-0.6135734;-0.7062829;-5;12;0;416;3704;-668;128;-0.06371191;0.2091413;0.6135734;0.7587677;9;5;2;-444;3730;764;4;-0.5927978;0.09556787;-0.4709141;-0.6462952;-3;9;4;2410;2878;450;16;0.699446;-0.7060425;0.03462604;-0.1052632;-4;-2;-4;715;4153;-114;2;0.5595568;-0.7236229;-0.3157895;-0.2520775;0;5;2;166;3772;-548;8;0.3614958;-0.774486;0.3614958;0.3725762;2;-7;-2;1087;3533;1989;0.4773807;2.419209;1.197686;0.4833673;2.964722;1.196409;0.4886291;3.444222;1.193264;0.6142662;4.150604;1.347222;0.4168103;4.517741;1.378362;0.05445027;4.42948;1.410681;-0.4454553;5.045663;0.9324111;0.4126625;4.97287;1.327547;0.9291147;4.426625;1.378362;1.187243;4.228007;1.410681;1.308895;3.401081;1.889919;0.5400357;2.854631;1.800282;0.1651261;2.377113;1.190138;0.1983814;1.319341;0.1797563;0;0;0;0.1651261;2.377113;1.190138;0.1983814;1.319341;0.1797563;0;0;0
1852174.6826;NotLabelled;NONE;16384;0.711383;0.534626;0.4432133;0.1080332;0;2;-1;2754;-2674;1652;65536;0.6430905;0.3199446;-0.5083103;-0.4750692;-4;0;10;3915;146;-1080;8192;0.5927978;-0.7237701;-0.3531856;0.002770083;6;4;4;2220;3348;-80;32768;0.4930748;-0.7317137;0.4418283;-0.1620499;-1;3;-5;3069;2258;804;256;0.1509695;-0.3171745;-0.6149584;-0.7059991;-6;7;0;434;3904;-800;128;-0.06371191;0.2091413;0.6149584;0.7576456;7;1;2;-434;3826;722;4;-0.5927978;0.09556787;-0.4709141;-0.6462952;-3;5;5;2410;2832;412;16;0.699446;-0.7062476;0.03462604;-0.1038781;-4;-5;-5;669;4229;-16;2;0.5595568;-0.7242258;-0.3144044;-0.2520775;0;-6;0;28;3822;-588;8;0.3601108;-0.7738157;0.3628809;0.3739612;0;-13;-2;883;3527;1849;0.4895575;2.418412;1.191399;0.4955436;2.963879;1.184253;0.5008048;3.443317;1.175949;0.6270341;4.15054;1.325499;0.4298333;4.517979;1.354633;0.06745529;4.430136;1.387873;-0.4374222;5.045775;0.9141496;0.4246983;4.974894;1.300829;0.9420824;4.426553;1.354633;1.200125;4.227975;1.387874;1.322946;3.402459;1.86924;0.5524672;2.857049;1.787525;0.1773019;2.376236;1.184341;0.201764;1.319824;0.172287;0;0;0;0.1773019;2.376236;1.184341;0.201764;1.319824;0.172287;0;0;0
1852195.879;NotLabelled;NONE;16384;0.7115583;0.533241;0.4445983;0.1080332;1;10;0;2794;-2674;1644;65536;0.6452703;0.3199446;-0.5055401;-0.4750692;-4;-4;9;4019;26;-1142;8192;0.5927978;-0.7237701;-0.3531856;0.002770083;5;0;6;2064;3322;-44;32768;0.4930748;-0.7325482;0.4404432;-0.1620499;-3;6;-4;3095;2406;884;256;0.1523546;-0.3171745;-0.6163435;-0.7044921;-9;4;2;894;3830;-842;128;-0.06509695;0.2077562;0.6149584;0.7579089;8;-6;2;-370;3784;612;4;-0.5941828;0.09556787;-0.4709141;-0.6450221;-3;-2;5;2382;2916;478;16;0.699446;-0.7065165;0.033241;-0.1024931;-5;-5;-6;731;4181;18;2;0.5609418;-0.7243516;-0.3116343;-0.2520775;0;-11;0;244;3780;-670;8;0.3587258;-0.7724833;0.365651;0.3753462;-7;-8;3;1015;3423;1749;0.4939508;2.418952;1.188091;0.4999364;2.964391;1.179024;0.5051972;3.443797;1.169032;0.6324602;4.151245;1.316629;0.4357455;4.519002;1.345024;0.07329428;4.431694;1.378873;-0.4370653;5.048986;0.9132428;0.4275647;4.981287;1.294855;0.9478807;4.42694;1.34472;1.205712;4.228128;1.3782;1.332592;3.402334;1.858033;0.563358;2.854264;1.782628;0.1816947;2.376752;1.181194;0.2011444;1.32034;0.1690315;0;0;0;0.1816947;2.376752;1.181194;0.2011444;1.32034;0.1690315;0;0;0
1852217.6725;NotLabelled;NONE;16384;0.7117673;0.533241;0.4445983;0.1066482;1;13;1;2476;-2642;1586;65536;0.6445818;0.3213296;-0.5055401;-0.4750692;-4;-7;7;3883;86;-1262;8192;0.5900277;-0.72466;-0.3559557;0.005540166;5;2;12;1974;3412;-34;32768;0.4916897;-0.7351348;0.4376731;-0.1620499;0;13;-1;3145;2502;370;256;0.1523546;-0.3171745;-0.6163435;-0.7044921;-9;0;3;442;3726;-794;128;-0.06648199;0.2091413;0.6163435;0.7562809;8;-14;0;-454;3610;840;4;-0.5914127;0.0900277;-0.4709141;-0.6483563;-7;-24;9;2870;2558;590;16;0.6980609;-0.7082805;0.033241;-0.09972299;-11;0;-11;1061;4159;-192;2;0.5623268;-0.7244641;-0.3088643;-0.2520775;1;-10;0;30;3740;-808;8;0.3573407;-0.7724683;0.367036;0.3753462;-10;-8;5;1165;3541;1775;0.4898021;2.418606;1.185978;0.4957877;2.96404;1.176624;0.5010483;3.443441;1.166379;0.6278937;4.151606;1.310867;0.4309529;4.519359;1.337696;0.0685631;4.431972;1.371993;-0.4394907;5.04568;0.899159;0.4268014;4.981795;1.277648;0.9431458;4.427619;1.337695;1.201109;4.229117;1.371993;1.324594;3.40502;1.855615;0.5563092;2.855745;1.7793;0.1775461;2.376403;1.179105;0.1973431;1.321357;0.165524;0;0;0;0.1775461;2.376403;1.179105;0.1973431;1.321357;0.165524;0;0;0
1852237.6582;NotLabelled;NONE;16384;0.7125107;0.5304709;0.4473684;0.1038781;4;13;0;2400;-2572;1464;65536;0.64838;0.3199446;-0.5041551;-0.4722992;-1;-5;4;3477;272;-1428;8192;0.5886427;-0.7251046;-0.3573407;0.005540166;3;2;14;1776;3354;6;32768;0.4916897;-0.7359577;0.4362881;-0.1620499;0;14;-2;2975;2312;346;256;0.1537396;-0.3171745;-0.6177285;-0.7029765;-10;-9;4;388;3602;-838;128;-0.06925207;0.2105263;0.6163435;0.7556477;6;-20;0;-494;3582;1042;4;-0.5914127;0.08587258;-0.4709141;-0.6489197;-11;-28;16;3136;2366;620;16;0.6966759;-0.7098997;0.03185596;-0.09833795;-19;0;-18;1139;4213;-410;2;0.5623268;-0.7256389;-0.3060942;-0.2520775;2;-16;-1;-174;3800;-824;8;0.3559557;-0.7724336;0.367036;0.3767313;-14;-10;6;1031;3523;1721;0.4928387;2.413793;1.183507;0.4988239;2.959186;1.172016;0.5040842;3.438543;1.159893;0.6309294;4.146707;1.30438;0.4339887;4.51446;1.33121;0.07159883;4.427074;1.365507;-0.4352729;5.042131;0.8931561;0.4303828;4.979519;1.27331;0.9461815;4.42272;1.33121;1.204144;4.224219;1.365507;1.327229;3.404907;1.857291;0.5595282;2.854294;1.784849;0.1805824;2.371562;1.176813;0.1979156;1.322286;0.1572164;0;0;0;0.1805824;2.371562;1.176813;0.1979156;1.322286;0.1572164;0;0;0
1852260.8305;NotLabelled;NONE;16384;0.7135397;0.5290859;0.4473684;0.1038781;4;15;-2;2230;-2516;1534;65536;0.64838;0.3199446;-0.5041551;-0.4722992;0;-3;2;3319;338;-1284;8192;0.5886427;-0.7244085;-0.3587258;0.006925208;2;0;14;1514;3332;196;32768;0.4916897;-0.736471;0.434903;-0.1634349;0;14;-3;3021;2328;198;256;0.1565097;-0.3213296;-0.6177285;-0.7004737;-7;-18;3;476;3314;-920;128;-0.07617728;0.2160665;0.6163435;0.7534142;7;-27;-1;-552;3298;1090;4;-0.5900277;0.07894737;-0.4695291;-0.652056;-15;-25;25;3288;2158;786;16;0.6952909;-0.7116944;0.03047091;-0.09556787;-26;0;-28;1353;4249;-528;2;0.5637119;-0.7257274;-0.3033241;-0.2520775;1;-21;-3;-242;3666;-936;8;0.3531856;-0.772369;0.368421;0.3781163;-21;-14;9;745;3431;1511;0.4957127;2.408271;1.18264;0.5016977;2.953654;1.170672;0.5069577;3.433;1.158129;0.6334779;4.141867;1.29942;0.4363308;4.509613;1.324796;0.07402217;4.422154;1.359758;-0.4325974;5.036032;0.8856079;0.434544;4.977926;1.263082;0.9485805;4.418189;1.324795;1.206693;4.219998;1.359758;1.327749;3.402137;1.854454;0.5609471;2.850334;1.781559;0.1834564;2.366035;1.175986;0.1977543;1.323172;0.1497833;0;0;0;0.1834564;2.366035;1.175986;0.1977543;1.323172;0.1497833;0;0;0
1852280.7025;NotLabelled;NONE;16384;0.7138959;0.5277008;0.4487534;0.1024931;2;15;-4;2060;-2536;1538;65536;0.648309;0.3199446;-0.5055401;-0.4709141;0;-3;0;3305;388;-1324;8192;0.5872576;-0.7255172;-0.3587258;0.008310249;0;-4;14;1390;3400;160;32768;0.4916897;-0.7372872;0.433518;-0.1634349;-1;12;-3;2957;2060;-18;256;0.1592798;-0.3227147;-0.6177285;-0.6992114;-5;-18;4;510;3284;-890;128;-0.07894737;0.2188366;0.6163435;0.7523288;3;-24;-2;-734;3266;1110;4;-0.5914127;0.07202215;-0.468144;-0.6525986;-12;-17;35;3766;1980;694;16;0.6925207;-0.7150464;0.02770083;-0.09141274;-32;0;-36;1191;4205;-660;2;0.5650969;-0.7263748;-0.299169;-0.2520775;0;-18;-12;-594;3486;-786;8;0.3476454;-0.7742184;0.3698061;0.3781163;-34;-12;14;723;3511;991;0.4838436;2.398966;1.185114;0.4898282;2.944321;1.171935;0.4950881;3.423639;1.158329;0.6231599;4.132481;1.298342;0.4267856;4.500673;1.323232;0.06432188;4.414018;1.358587;-0.4312599;5.028141;0.8732225;0.431996;4.970036;1.259499;0.9388462;4.408197;1.323039;1.196575;4.209535;1.358161;1.310264;3.392329;1.85568;0.5441957;2.840763;1.773818;0.171587;2.356716;1.178561;0.1948494;1.324479;0.1418329;0;0;0;0.171587;2.356716;1.178561;0.1948494;1.324479;0.1418329;0;0;0
1852301.6526;NotLabelled;NONE;16384;0.7142438;0.5263157;0.4501385;0.101108;1;15;-6;2114;-2606;1588;65536;0.6489906;0.3185596;-0.5055401;-0.4709141;-1;-5;-1;3225;450;-1236;8192;0.5872576;-0.7247937;-0.3601108;0.01108033;-2;-8;10;1254;3436;44;32768;0.4916897;-0.7380998;0.432133;-0.1634349;-2;8;-5;2973;1968;-90;256;0.1606648;-0.3254848;-0.6177285;-0.6976087;-1;-18;3;554;3272;-992;128;-0.08171745;0.2216066;0.6163435;0.7512213;0;-16;-3;-596;3200;1296;4;-0.5941828;0.06509695;-0.4639889;-0.6537763;-8;-9;46;4138;1816;696;16;0.6897507;-0.7181678;0.02493075;-0.08864266;-30;2;-31;887;3841;-390;2;0.5692521;-0.7260234;-0.2908587;-0.2534626;-3;-23;-18;-146;3836;-680;8;0.3365651;-0.7770886;0.3711911;0.3808864;-48;-6;22;1109;3733;1621;0.4802437;2.387372;1.181966;0.4862282;2.932715;1.168288;0.491488;3.41202;1.154243;0.6182798;4.121346;1.292955;0.4212436;4.489231;1.317158;0.05893445;4.40199;1.352657;-0.4386041;5.014448;0.8671885;0.4210862;4.956386;1.261344;0.9334694;4.397675;1.317158;1.191553;4.19954;1.352657;1.305845;3.385089;1.854534;0.5410817;2.832334;1.768593;0.1679872;2.345115;1.175454;0.1927241;1.326444;0.1254279;0;0;0;0.1679872;2.345115;1.175454;0.1927241;1.326444;0.1254279;0;0;0
1852322.7538;NotLabelled;NONE;16384;0.7137064;0.5249307;0.4529086;0.09972299;0;16;-8;2174;-2568;1596;65536;0.6489906;0.3185596;-0.5055401;-0.4709141;-4;-6;-2;3285;476;-1220;8192;0.5886427;-0.7243092;-0.3587258;0.01385042;-8;-9;-4;1412;3286;28;32768;0.4903047;-0.7404352;0.4307479;-0.1606648;-6;-6;-5;3107;1730;-394;256;0.1620499;-0.3268698;-0.6163435;-0.6978658;0;-15;1;506;3358;-1128;128;-0.08310249;0.2229917;0.6149584;0.7517944;-2;-18;-5;-452;3296;1384;4;-0.5969529;0.04986149;-0.4584487;-0.6564951;-15;-23;34;3132;1670;920;16;0.6842105;-0.7244323;0.01939058;-0.08171745;-36;1;-41;1253;4073;-40;2;0.5706371;-0.726104;-0.2867036;-0.2548476;0;-16;-20;-36;3918;-1426;8;0.3296399;-0.780709;0.3698061;0.3808864;-56;0;26;1101;3847;1763;0.4707285;2.370916;1.184581;0.4767129;2.916246;1.170387;0.4819727;3.395537;1.155888;0.610227;4.104722;1.29399;0.4139424;4.473025;1.317916;0.05146188;4.38655;1.353542;-0.443041;4.998405;0.8642262;0.4147567;4.939053;1.262294;0.925981;4.380427;1.317915;1.183666;4.181799;1.353541;1.298836;3.370109;1.859673;0.5354224;2.816167;1.769475;0.158472;2.328653;1.178112;0.1921975;1.327775;0.1113585;0;0;0;0.158472;2.328653;1.178112;0.1921975;1.327775;0.1113585;0;0;0
1852343.6734;NotLabelled;NONE;16384;0.7140356;0.5235457;0.4542936;0.09833795;0;12;-10;2044;-2584;1630;65536;0.6496687;0.3171745;-0.5055401;-0.4709141;-6;-7;-2;3261;498;-1400;8192;0.5900277;-0.7245489;-0.3559557;0.01385042;-10;-11;-9;1408;3374;-14;32768;0.4903047;-0.7399272;0.432133;-0.1592798;-5;-14;-3;3105;1806;-418;256;0.1634349;-0.3282548;-0.6149584;-0.6981146;5;-9;1;446;3446;-1226;128;-0.08448754;0.2257618;0.6135734;0.7519449;0;-19;-6;-604;3498;1534;4;-0.5983379;0.04293629;-0.4556787;-0.6576512;-9;-25;35;3578;1762;494;16;0.6800554;-0.728857;0.0166205;-0.07756232;-38;-2;-43;1123;3943;-14;2;0.5720221;-0.7262031;-0.2811634;-0.2576177;-3;-9;-26;-698;3890;-1266;8;0.3213296;-0.7848177;0.368421;0.3808864;-69;-9;30;801;3965;1525;0.4681447;2.34037;1.182887;0.4741295;2.88574;1.170346;0.4793896;3.365073;1.157301;0.6067085;4.074062;1.297254;0.4099602;4.442063;1.322021;0.04757035;4.355053;1.357263;-0.447609;4.965193;0.8664931;0.4084377;4.905841;1.268312;0.9221123;4.350095;1.322021;1.180026;4.151694;1.357262;1.297932;3.3405;1.86356;0.5362324;2.783637;1.776934;0.1558884;2.298127;1.17628;0.1906423;1.330287;0.07949526;0;0;0;0.1558884;2.298127;1.17628;0.1906423;1.330287;0.07949526;0;0;0
1852363.7759;NotLabelled;NONE;16384;0.7122656;0.5235457;0.4570637;0.09833795;-6;0;-9;2338;-2790;1772;65536;0.6516808;0.3130194;-0.5055401;-0.4709141;-7;-5;-4;3423;446;-1762;8192;0.5927978;-0.7236428;-0.3531856;0.01385042;-12;-12;-13;1594;3588;-36;32768;0.4916897;-0.7376786;0.434903;-0.1578947;-4;-21;-1;3341;1940;-320;256;0.1634349;-0.3296399;-0.6135734;-0.6986804;10;-10;2;670;3502;-1214;128;-0.08448754;0.2285319;0.6121883;0.752237;-4;-16;-6;-798;3518;1724;4;-0.5983379;0.03601108;-0.4529086;-0.6599763;-5;-17;35;3856;2028;410;16;0.6759003;-0.7333596;0.01246537;-0.07202215;-38;-8;-43;647;4009;128;2;0.5747922;-0.7246522;-0.2756233;-0.2617728;-9;-11;-34;-1440;3662;-452;8;0.3102493;-0.7885668;0.367036;0.3836565;-78;-29;32;1383;3957;1895;0.4664776;2.325437;1.1764;0.4724629;2.870843;1.16554;0.4777233;3.350214;1.153972;0.6041029;4.059006;1.295765;0.4068886;4.4267;1.321369;0.04459077;4.339154;1.356227;-0.4485756;4.948691;0.8626882;0.4063862;4.888043;1.266618;0.9191539;4.335365;1.321369;1.177297;4.137196;1.356227;1.293479;3.32372;1.859253;0.5322058;2.766615;1.770459;0.1542215;2.283215;1.169652;0.1924482;1.331079;0.05932105;0;0;0;0.1542215;2.283215;1.169652;0.1924482;1.331079;0.05932105;0;0;0
1852384.6719;NotLabelled;NONE;16384;0.7113749;0.5235457;0.4584487;0.09833795;-10;-1;-8;2484;-2736;1812;65536;0.6512686;0.3116343;-0.5069252;-0.4709141;-8;-1;-5;3643;400;-1884;8192;0.5955678;-0.7227396;-0.3504155;0.01246537;-15;-10;-17;1702;3676;-66;32768;0.4916897;-0.7358027;0.4390582;-0.1551246;-3;-27;0;3575;2042;-320;256;0.166205;-0.3379501;-0.6052631;-0.7013003;16;-10;2;902;3668;-1150;128;-0.08587258;0.2354571;0.6066482;0.7544295;-9;-18;-8;-776;3610;1568;4;-0.601108;0.02908587;-0.4487534;-0.6606387;-10;-10;37;3614;2204;752;16;0.6717451;-0.7377294;0.009695291;-0.06648199;-40;-1;-45;461;4105;284;2;0.5803324;-0.7207994;-0.2700831;-0.265928;-10;-24;-36;-1064;3982;246;8;0.2950138;-0.7930799;0.368421;0.3850415;-86;-32;36;859;3905;2111;0.4620082;2.312131;1.164328;0.4679937;2.857574;1.155453;0.4732546;3.336983;1.14563;0.5999808;4.045197;1.289975;0.4029762;4.412921;1.31674;0.04060304;4.325478;1.351066;-0.4557518;4.932792;0.8579844;0.4001548;4.868221;1.259297;0.9151853;4.321271;1.316739;1.173184;4.122822;1.351066;1.291076;3.306425;1.848935;0.5303965;2.749168;1.756101;0.1497523;2.269934;1.157415;0.1908315;1.332173;0.03501715;0;0;0;0.1497523;2.269934;1.157415;0.1908315;1.332173;0.03501715;0;0;0
1852405.796;NotLabelled;NONE;16384;0.7103536;0.5249307;0.4584487;0.09833795;-14;-4;-6;2594;-2778;1768;65536;0.6509268;0.3102493;-0.5069252;-0.4722992;-8;5;-5;3781;346;-1840;8192;0.5983379;-0.7224542;-0.3462604;0.01246537;-15;-8;-19;1728;3666;-194;32768;0.4930748;-0.731829;0.4445983;-0.1537396;0;-31;1;3551;2044;-240;256;0.16759;-0.3407202;-0.601108;-0.7032016;21;-34;4;550;4104;-1292;128;-0.08587258;0.2382271;0.6038781;0.7557811;-21;-18;-10;-566;3772;1306;4;-0.602493;0.0235457;-0.4459834;-0.661473;-10;-18;36;3374;1856;902;16;0.66759;-0.7419041;0.004155125;-0.06232687;-45;6;-49;517;4217;500;2;0.5858725;-0.7188767;-0.2631579;-0.265928;-8;-35;-33;-4;4064;-848;8;0.2825485;-0.7975747;0.367036;0.3864266;-92;-12;44;947;3901;2021;0.4388018;2.293367;1.160243;0.4447882;2.83888;1.158866;0.45005;3.318379;1.155633;0.5761515;4.023767;1.313714;0.3789865;4.390896;1.346734;0.0165168;4.302774;1.378187;-0.4725874;4.908972;0.8765596;0.374745;4.84121;1.295168;0.8912104;4.29933;1.346733;1.149131;4.100303;1.378187;1.259305;3.280053;1.87147;0.4998407;2.723483;1.765493;0.126547;2.251269;1.152703;0.1907378;1.332554;0.01573305;0;0;0;0.126547;2.251269;1.152703;0.1907378;1.332554;0.01573305;0;0;0
1852426.6787;NotLabelled;NONE;16384;0.7082981;0.5277008;0.4584487;0.09833795;-17;-5;-3;2568;-2590;1686;65536;0.650579;0.3088643;-0.5069252;-0.4736842;-7;10;-6;3819;314;-1860;8192;0.6038781;-0.7205186;-0.3407202;0.009695291;-13;-9;-17;1636;3616;-72;32768;0.4944598;-0.726355;0.4529086;-0.1509695;2;-27;3;3541;2138;-46;256;0.1689751;-0.3448753;-0.5969529;-0.7043832;23;-20;0;420;3716;-1170;128;-0.08587258;0.2409972;0.601108;0.7571099;-16;-18;-10;-544;3606;1156;4;-0.6038781;0.0166205;-0.4432133;-0.6622817;-9;-19;32;3270;1562;672;16;0.6620498;-0.7473053;0;-0.0567867;-50;9;-53;787;4033;414;2;0.5941828;-0.7139389;-0.2520775;-0.2714681;-30;-8;-42;-360;3818;38;8;0.2534626;-0.8097852;0.3614958;0.3864266;-98;-4;52;1539;3361;2383;0.428882;2.279685;1.148513;0.4348683;2.825194;1.15101;0.4401304;3.304705;1.151183;0.5644934;4.008862;1.315986;0.3665048;4.375257;1.352072;0.004169881;4.286094;1.38211;-0.4832649;4.893125;0.8798658;0.3615749;4.822123;1.302952;0.8789192;4.284761;1.352072;1.137205;4.085991;1.38211;1.246651;3.262104;1.869457;0.4868668;2.707776;1.754417;0.1166278;2.237643;1.14065;0.1892375;1.332842;-0.006923363;0;0;0;0.1166278;2.237643;1.14065;0.1892375;1.332842;-0.006923363;0;0;0
1852446.7268;NotLabelled;NONE;16384;0.7062259;0.5304709;0.4584487;0.09833795;-21;-4;0;2400;-2360;1506;65536;0.6495683;0.3088643;-0.5069252;-0.4750692;-6;18;-5;3761;178;-1786;8192;0.6066482;-0.7195128;-0.3379501;0.008310249;-12;-8;-17;1614;3518;-16;32768;0.4958449;-0.7239609;0.4556787;-0.1495845;4;-24;4;3523;2106;74;256;0.1689751;-0.3448753;-0.5941828;-0.7067215;16;-6;1;534;3652;-1322;128;-0.08587258;0.2437673;0.5955678;0.7605934;-28;-13;-10;-814;3344;1904;4;-0.6094183;0.006925208;-0.4376731;-0.6610625;-4;8;24;3596;1812;422;16;0.6495845;-0.7588334;-0.01108033;-0.04570637;-51;4;-53;37;3903;596;2;0.601108;-0.7085662;-0.2493075;-0.2728532;-30;-15;-37;640;3732;-264;8;0.2396122;-0.8164782;0.3573407;0.3850415;-95;17;55;1225;2735;2727;0.4219438;2.262431;1.134999;0.4279297;2.807908;1.141363;0.4331917;3.287406;1.144934;0.5571243;3.990033;1.316454;0.3589931;4.356036;1.355609;-0.003369927;4.266521;1.384227;-0.4887702;4.875192;0.8819972;0.3525005;4.800947;1.311588;0.8714274;4.265655;1.355609;1.129709;4.066669;1.384227;1.238525;3.235333;1.858902;0.4780504;2.684256;1.733286;0.1096903;2.220444;1.126814;0.1917067;1.332101;-0.03291684;0;0;0;0.1096903;2.220444;1.126814;0.1917067;1.332101;-0.03291684;0;0;0
1852467.6794;NotLabelled;NONE;16384;0.7033148;0.536011;0.4570637;0.09556787;-27;-5;3;2306;-2348;1404;65536;0.6469834;0.3102493;-0.5041551;-0.4806094;-7;25;-2;3425;88;-1214;8192;0.6094183;-0.7178338;-0.3365651;0.006925208;-11;-4;-16;1622;3312;-80;32768;0.4972299;-0.7203748;0.4598338;-0.1495845;5;-20;7;3279;2040;50;256;0.1689751;-0.3476454;-0.5900277;-0.7088423;20;-9;1;470;3458;-1444;128;-0.08448754;0.2479224;0.5914127;0.7626449;-28;-17;-12;-624;3342;1526;4;-0.6121883;0.004155125;-0.4362881;-0.6594398;-6;-2;22;3094;2060;574;16;0.6426592;-0.764918;-0.0166205;-0.0401662;-54;11;-56;25;4021;666;2;0.6038781;-0.706158;-0.2479224;-0.2742382;-30;4;-26;1050;3888;-1686;8;0.2257618;-0.8253279;0.3504155;0.3808864;-89;29;55;1727;2299;2985;0.4240951;2.229438;1.096093;0.4300795;2.774773;1.110073;0.4353402;3.254174;1.120339;0.5567434;3.955976;1.296968;0.3574694;4.321166;1.337879;-0.004741192;4.230469;1.36465;-0.4897422;4.833711;0.8555316;0.3502243;4.757545;1.287332;0.8701481;4.232189;1.339043;1.128879;4.033724;1.367224;1.236673;3.205365;1.847304;0.4769543;2.654227;1.71745;0.1118428;2.18757;1.087275;0.1960199;1.328546;-0.0941861;0;0;0;0.1118428;2.18757;1.087275;0.1960199;1.328546;-0.0941861;0;0;0
1852487.6762;NotLabelled;NONE;16384;0.7003163;0.5401662;0.4570637;0.09418282;-31;-2;2;2300;-2414;1322;65536;0.6453298;0.3116343;-0.5027701;-0.4833795;-10;26;-3;3403;230;-980;8192;0.6108033;-0.7179621;-0.333795;0.005540166;-8;0;-17;1490;3292;6;32768;0.4972299;-0.718599;0.4626039;-0.1495845;6;-18;7;3113;1902;-140;256;0.1689751;-0.3518005;-0.5844875;-0.7113776;24;-13;3;368;3092;-1412;128;-0.08448754;0.2534626;0.5844875;0.7661546;-19;-12;-11;-732;3168;1504;4;-0.6121883;0.001385042;-0.433518;-0.6612758;-4;-8;23;2892;1854;396;16;0.6371191;-0.7696271;-0.0235457;-0.03462604;-58;12;-58;125;4025;658;2;0.6052631;-0.7029055;-0.2506925;-0.2770083;-35;18;-20;1076;3892;-1166;8;0.2132964;-0.8327947;0.3434903;0.3781163;-86;23;51;1905;2381;2851;0.4241359;2.216492;1.072144;0.4301182;2.761637;1.092207;0.4353774;3.240894;1.107821;0.556309;3.94091;1.291713;0.356856;4.3056;1.336065;-0.005357623;4.214516;1.361445;-0.4872318;4.826231;0.859518;0.3521133;4.747452;1.292058;0.8695637;4.216787;1.336992;1.128326;4.018132;1.363496;1.234794;3.185559;1.836529;0.4746814;2.637076;1.698028;0.1118847;2.174725;1.062821;0.2001271;1.325358;-0.1253064;0;0;0;0.1118847;2.174725;1.062821;0.2001271;1.325358;-0.1253064;0;0;0
1852508.6643;NotLabelled;NONE;16384;0.6974602;0.5443213;0.4570637;0.09141274;-35;0;2;2288;-2518;1302;65536;0.6443555;0.3116343;-0.5;-0.4875346;-17;25;-3;3405;210;-740;8192;0.6121883;-0.7174341;-0.33241;0.004155125;-8;0;-18;1298;3308;86;32768;0.4986149;-0.716744;0.4639889;-0.1495845;7;-20;6;2917;1790;-90;256;0.1689751;-0.3531856;-0.5817174;-0.7129601;26;-15;7;438;3124;-1420;128;-0.08310249;0.2562327;0.5831025;0.76644;-19;-6;-11;-870;3110;1364;4;-0.6135734;0;-0.432133;-0.6609;0;-6;25;3096;1786;34;16;0.6288089;-0.776418;-0.03047091;-0.02908587;-59;14;-58;-77;3987;518;2;0.6135734;-0.6934924;-0.2520775;-0.2811634;-28;14;-20;112;3498;-890;8;0.1869806;-0.8453963;0.33241;0.3739612;-83;11;40;1645;1545;3235;0.4107978;2.20541;1.048639;0.4167753;2.750122;1.078203;0.4220308;3.229033;1.10217;0.5429599;3.926491;1.295539;0.343533;4.29058;1.344696;-0.0187062;4.199213;1.368657;-0.5046366;4.820041;0.8820643;0.3323185;4.740606;1.319092;0.8562281;4.201689;1.344696;1.11495;4.002659;1.368656;1.221119;3.161869;1.826996;0.4604391;2.615844;1.682045;0.09854844;2.163812;1.038529;0.1993038;1.322424;-0.1542711;0;0;0;0.09854844;2.163812;1.038529;0.1993038;1.322424;-0.1542711;0;0;0
1852528.6707;NotLabelled;NONE;16384;0.6945566;0.5484765;0.4570637;0.08864266;-39;3;1;2420;-2676;1184;65536;0.643341;0.3116343;-0.4972299;-0.4916897;-25;24;-3;3549;316;-584;8192;0.6135734;-0.7169019;-0.3310249;0.001385042;-8;-6;-19;1158;3300;98;32768;0.4986149;-0.7149431;0.466759;-0.1495845;5;-23;5;2945;1726;14;256;0.16759;-0.3559557;-0.5775623;-0.7152838;22;-15;9;486;3324;-1382;128;-0.08171745;0.2576177;0.5803324;0.768225;-16;-2;-13;-740;3214;1260;4;-0.6163435;-0.001385042;-0.4293629;-0.660126;5;12;26;2952;1766;270;16;0.6218836;-0.7818618;-0.03739612;-0.0235457;-60;18;-58;-453;3971;568;2;0.6149584;-0.6911941;-0.2534626;-0.2825485;-27;-4;-11;696;3590;-920;8;0.1745152;-0.8513467;0.3254848;0.3725762;-81;14;36;1835;1537;3015;0.4118302;2.194198;1.016637;0.4178064;2.738781;1.048492;0.4230607;3.217588;1.074473;0.5431473;3.913848;1.272624;0.34334;4.277425;1.323974;-0.01884508;4.185582;1.346907;-0.506442;4.811272;0.8682737;0.3316551;4.729863;1.302742;0.8561136;4.188988;1.323974;1.114985;3.990031;1.346908;1.220538;3.147036;1.801322;0.4607408;2.60127;1.650872;0.09958142;2.152643;1.006338;0.2049759;1.316892;-0.1900189;0;0;0;0.09958142;2.152643;1.006338;0.2049759;1.316892;-0.1900189;0;0;0
1852549.8435;NotLabelled;NONE;16384;0.6916047;0.5526316;0.4570637;0.08587258;-40;8;0;2288;-2648;996;65536;0.6418857;0.3102493;-0.4944598;-0.4972299;-32;20;-2;3671;526;-566;8192;0.6177285;-0.716499;-0.3240997;0;-7;-14;-23;1360;3322;64;32768;0.5;-0.709978;0.4736842;-0.1468144;-3;-26;7;3269;1682;130;256;0.16759;-0.3587258;-0.5747922;-0.7161309;18;-9;9;472;3424;-1274;128;-0.08033241;0.2590028;0.5789474;0.76895;-13;-3;-14;-502;3430;1016;4;-0.6218836;-0.004155125;-0.4210526;-0.6602713;12;4;30;3216;1960;-212;16;0.6066482;-0.7929166;-0.05540166;-0.01385042;-60;25;-53;-749;3859;968;2;0.6177285;-0.6892861;-0.2534626;-0.2811634;-22;-3;-6;516;3560;-398;8;0.1606648;-0.8562425;0.3213296;0.3711911;-78;0;31;2083;1719;3173;0.4052305;2.179914;0.9903235;0.4112037;2.724244;1.026262;0.4164558;3.202842;1.055834;0.5371857;3.896688;1.261905;0.3378155;4.259972;1.316895;-0.02454787;4.168422;1.338119;-0.5132715;4.798881;0.8669518;0.3254867;4.715517;1.299771;0.8504574;4.170775;1.316894;1.108991;3.97119;1.338119;1.212058;3.125119;1.787358;0.4513949;2.581841;1.632354;0.09298235;2.138438;0.9796877;0.207331;1.311515;-0.2219695;0;0;0;0.09298235;2.138438;0.9796877;0.207331;1.311515;-0.2219695;0;0;0
1852570.6896;NotLabelled;NONE;16384;0.6888017;0.5554016;0.4584487;0.08310249;-37;9;-3;2334;-2756;956;65536;0.6403642;0.3088643;-0.4916897;-0.5027701;-36;19;0;3735;624;-590;8192;0.6204986;-0.7159728;-0.3199446;0;-6;-20;-22;1398;3406;106;32768;0.4986149;-0.7081654;0.4778393;-0.1468144;-6;-27;9;3305;1852;156;256;0.166205;-0.3601108;-0.5734072;-0.7168684;15;-1;10;524;3566;-1270;128;-0.07756232;0.2603878;0.5775623;0.7698078;-10;-4;-14;-672;3460;1114;4;-0.6232687;-0.005540166;-0.4155124;-0.6624612;16;3;31;3080;2094;176;16;0.5983379;-0.7986479;-0.06371191;-0.009695291;-62;28;-51;-647;3801;1162;2;0.6204986;-0.6867935;-0.2534626;-0.2811634;-22;1;-8;202;3692;-536;8;0.1495845;-0.8597918;0.3171745;0.3711911;-79;3;33;1401;2239;2665;0.3866034;2.144612;0.9332334;0.3925751;2.688789;0.971404;0.3978257;3.167261;1.002938;0.5189648;3.859596;1.213799;0.3198712;4.222691;1.270991;-0.04260254;4.131343;1.291178;-0.5310068;4.766479;0.8259979;0.3083468;4.677961;1.256634;0.8324288;4.133011;1.270991;1.09075;3.933045;1.291178;1.19267;3.080812;1.728884;0.4317806;2.539835;1.567084;0.07435587;2.10318;0.9224136;0.2120198;1.297194;-0.2909675;0;0;0;0.07435587;2.10318;0.9224136;0.2120198;1.297194;-0.2909675;0;0;0
1852591.6622;NotLabelled;NONE;16384;0.6809575;0.5637119;0.4612188;0.07617728;-32;12;-4;2574;-3076;958;65536;0.640996;0.3047091;-0.4833795;-0.5124654;-35;9;2;3767;660;-582;8192;0.6218836;-0.7166155;-0.3157895;0;-6;-22;-21;1674;3536;40;32768;0.4972299;-0.7066075;0.4819945;-0.1454294;-9;-28;11;3291;2034;280;256;0.1634349;-0.3614958;-0.5720221;-0.717914;14;1;11;530;3546;-1220;128;-0.07756232;0.2631579;0.5761772;0.7699038;-11;-6;-15;-708;3582;1252;4;-0.6260388;-0.005540166;-0.4099723;-0.6633005;22;12;30;2896;2228;122;16;0.5900277;-0.8041344;-0.07202215;-0.006925208;-63;27;-48;-509;3931;1168;2;0.6232687;-0.6842806;-0.2534626;-0.2811634;-25;-2;-11;-64;3634;-294;8;0.1385041;-0.8637586;0.3130194;0.3698061;-81;3;33;1687;2203;2809;0.3769346;2.125064;0.9049222;0.3829041;2.669056;0.9456494;0.3881531;3.147376;0.9794314;0.5107654;3.838483;1.19344;0.3124874;4.201794;1.25208;-0.05021727;4.111217;1.271584;-0.5421395;4.749154;0.814005;0.2996368;4.65551;1.238788;0.8248309;4.1109;1.252081;1.082662;3.910233;1.271585;1.186941;3.054793;1.702423;0.422832;2.518549;1.540042;0.06468767;2.083683;0.8938918;0.2173604;1.288283;-0.3246678;0;0;0;0.06468767;2.083683;0.8938918;0.2173604;1.288283;-0.3246678;0;0;0
1852611.6916;NotLabelled;NONE;16384;0.6780171;0.566482;0.4626039;0.0734072;-28;11;-3;2652;-3028;922;65536;0.6410544;0.301939;-0.4806094;-0.5166205;-34;6;0;3885;656;-606;8192;0.6232687;-0.7172309;-0.3116343;0;-6;-22;-19;1818;3608;-58;32768;0.4958449;-0.7059692;0.4847645;-0.1440443;-11;-27;12;3233;2204;396;256;0.1606648;-0.3642659;-0.5692521;-0.7193395;10;-3;12;564;3656;-1210;128;-0.0734072;0.265928;0.5747922;0.7703945;-3;-1;-13;-560;3622;972;4;-0.6288089;-0.005540166;-0.4058172;-0.6632354;22;7;31;2954;2286;194;16;0.5817174;-0.8095399;-0.07894737;-0.004155125;-62;27;-46;-937;3791;1338;2;0.6260388;-0.6806574;-0.2548476;-0.2825485;-25;8;-15;370;3666;-726;8;0.1260388;-0.866662;0.3102493;0.3698061;-83;2;35;1567;2215;2719;0.3699577;2.105772;0.8782585;0.3759257;2.649614;0.9209449;0.3811734;3.127808;0.9564497;0.5065314;3.817204;1.174352;0.3097525;4.181036;1.234785;-0.05335575;4.091911;1.253441;-0.5548294;4.737762;0.8178623;0.2961668;4.638478;1.222517;0.8217019;4.087948;1.234785;1.078652;3.886075;1.253441;1.182594;3.027954;1.678999;0.4157177;2.494927;1.519089;0.05771127;2.064432;0.8670667;0.2240882;1.278809;-0.3560334;0;0;0;0.05771127;2.064432;0.8670667;0.2240882;1.278809;-0.3560334;0;0;0
1852631.8073;NotLabelled;NONE;16384;0.6759883;0.5692521;0.4626039;0.07063711;-25;12;-1;2652;-3000;888;65536;0.6410618;0.299169;-0.4778393;-0.5207756;-32;5;0;3913;638;-686;8192;0.6246537;-0.7172242;-0.3088643;0;-6;-20;-17;2008;3630;-98;32768;0.4944598;-0.7043546;0.4889196;-0.1426593;-14;-25;10;3215;2222;354;256;0.1592798;-0.365651;-0.567867;-0.7200391;5;-4;12;552;3738;-1100;128;-0.0734072;0.267313;0.5761772;0.7688791;0;1;-13;-480;3632;918;4;-0.6315789;-0.005540166;-0.400277;-0.6639696;23;14;28;2964;2302;162;16;0.5734072;-0.8146093;-0.08725762;-0.001385042;-60;24;-44;-803;3767;1398;2;0.6315789;-0.6732414;-0.2562327;-0.2867036;-26;21;-20;160;3630;-568;8;0.1024931;-0.8749068;0.300554;0.365651;-83;5;37;1471;1741;2895;0.3661973;2.087537;0.8532279;0.3721626;2.631141;0.8988503;0.377408;3.109137;0.9369365;0.5056762;3.795989;1.16109;0.3105258;4.160207;1.224404;-0.05303121;4.072649;1.241696;-0.5572358;4.721092;0.8131762;0.2962379;4.617383;1.211453;0.8220277;4.064689;1.224404;1.077986;3.86144;1.241696;1.180609;3.000667;1.662188;0.4121624;2.469587;1.503349;0.05395132;2.046258;0.8417947;0.2332806;1.268823;-0.3847022;0;0;0;0.05395132;2.046258;0.8417947;0.2332806;1.268823;-0.3847022;0;0;0
1852652.6643;NotLabelled;NONE;16384;0.6740116;0.5706371;0.4639889;0.06925207;-20;13;-1;2650;-2982;860;65536;0.6415091;0.2977839;-0.4750692;-0.5235457;-29;4;-1;4035;606;-650;8192;0.6260388;-0.7189633;-0.301939;0;-3;-19;-10;2124;3566;-262;32768;0.4916897;-0.7029806;0.4944598;-0.1398892;-14;-19;8;3459;2444;456;256;0.1578947;-0.367036;-0.567867;-0.7196394;1;0;11;588;3678;-1240;128;-0.07202215;0.2686981;0.5761772;0.7685272;-1;-1;-13;-502;3688;996;4;-0.6357341;-0.005540166;-0.3905817;-0.6657758;22;2;27;2984;2162;302;16;0.5567867;-0.8244744;-0.101108;0.002770083;-58;26;-43;-583;3697;1652;2;0.634349;-0.6689091;-0.2576177;-0.2894737;-28;10;-19;318;3768;-298;8;0.0900277;-0.8787333;0.2950138;0.3642659;-83;6;34;1953;1237;3181;0.3577679;2.066792;0.8269544;0.363735;2.610542;0.8708016;0.3689817;3.08866;0.9073269;0.4986932;3.774216;1.134595;0.3043551;4.138616;1.199345;-0.05942267;4.051847;1.215955;-0.5636971;4.704009;0.7931991;0.292624;4.595888;1.184123;0.8156287;4.041884;1.199345;1.07109;3.837953;1.215955;1.173247;2.97527;1.632627;0.4023451;2.447405;1.474972;0.0455218;2.025476;0.8156672;0.2405175;1.257978;-0.4146914;0;0;0;0.0455218;2.025476;0.8156672;0.2405175;1.257978;-0.4146914;0;0;0
1852673.8214;NotLabelled;NONE;16384;0.673116;0.5720221;0.4639889;0.06648199;-14;12;0;2588;-2810;786;65536;0.6425668;0.2950138;-0.4722992;-0.5263157;-24;2;-1;3959;620;-642;8192;0.6260388;-0.7195421;-0.300554;0.001385042;0;-15;-4;2218;3564;-252;32768;0.4903047;-0.7032466;0.4958449;-0.1385041;-11;-13;7;3339;2418;536;256;0.1578947;-0.368421;-0.567867;-0.7189313;-5;-4;11;478;3768;-1196;128;-0.07063711;0.2686981;0.5761772;0.7686557;0;2;-11;-538;3598;1094;4;-0.6371191;-0.005540166;-0.3850415;-0.6676762;22;1;28;3076;2172;416;16;0.5484765;-0.8289575;-0.1094183;0.005540166;-55;30;-44;-879;3719;1720;2;0.6357341;-0.6653074;-0.2603878;-0.2922437;-25;23;-16;438;3820;-516;8;0.07617728;-0.8819953;0.2908587;0.3628809;-80;0;29;2017;411;3617;0.3500066;2.027199;0.7792961;0.3559732;2.570918;0.823528;0.3612196;3.049009;0.8603917;0.4934282;3.73381;1.088497;0.3004392;4.098864;1.153601;-0.06366831;4.013445;1.169984;-0.5702568;4.665965;0.7505626;0.2884646;4.556655;1.135849;0.8113453;4.000209;1.153666;1.066032;3.7953;1.17013;1.164768;2.928903;1.579864;0.3902497;2.404917;1.427061;0.03776035;1.985891;0.767977;0.2593455;1.235234;-0.4682564;0;0;0;0.03776035;1.985891;0.767977;0.2593455;1.235234;-0.4682564;0;0;0
1852694.8089;NotLabelled;NONE;16384;0.6712467;0.5734072;0.4653739;0.06371191;-3;9;3;2450;-2812;1022;65536;0.6424459;0.2922437;-0.4695291;-0.5304709;-12;-1;0;3799;500;-726;8192;0.6260388;-0.7201151;-0.299169;0.002770083;3;-10;0;2264;3420;-316;32768;0.4875346;-0.7041939;0.4972299;-0.1385041;-9;-4;7;3309;2346;580;256;0.1578947;-0.3698061;-0.5692521;-0.7171226;-5;-4;10;458;3626;-1218;128;-0.06925207;0.2686981;0.5761772;0.7687817;0;0;-10;-490;3586;1148;4;-0.6385041;-0.006925208;-0.3808864;-0.6687227;19;4;28;3052;2200;208;16;0.5401662;-0.8332542;-0.1177285;0.006925208;-53;32;-45;-1033;3593;1734;2;0.6371191;-0.6634364;-0.2617728;-0.2922437;-17;-1;-7;424;3856;-218;8;0.06371191;-0.8853558;0.2853186;0.3614958;-77;-1;23;2111;501;3525;0.3396497;2.005813;0.7530303;0.345616;2.549505;0.7975793;0.3508621;3.027575;0.8347218;0.4843481;3.712106;1.062891;0.2920344;4.077506;1.128057;-0.07222688;3.992752;1.144469;-0.5779763;4.648731;0.7294557;0.2831523;4.536913;1.108601;0.8027592;3.977916;1.128057;1.057072;3.77254;1.144469;1.155484;2.905963;1.553902;0.3801818;2.382642;1.402814;0.0274035;1.964511;0.7416853;0.2670729;1.222529;-0.4964097;0;0;0;0.0274035;1.964511;0.7416853;0.2670729;1.222529;-0.4964097;0;0;0
1852715.701;NotLabelled;NONE;16384;0.6713767;0.5734072;0.4653739;0.06232687;0;8;3;2588;-2950;1300;65536;0.6430741;0.2908587;-0.4695291;-0.5304709;-8;-4;-2;3693;434;-816;8192;0.6246537;-0.7213169;-0.299169;0.002770083;6;-4;1;2128;3540;-306;32768;0.4861496;-0.7051508;0.4972299;-0.1385041;-5;1;5;3199;2296;500;256;0.1578947;-0.3711911;-0.5692521;-0.7164066;-1;-5;9;552;3688;-1108;128;-0.06786703;0.2700831;0.5775623;0.7673793;4;0;-9;-666;3706;1204;4;-0.6398892;-0.006925208;-0.3767313;-0.6697518;18;-5;28;3138;2154;290;16;0.5318559;-0.8373467;-0.1260388;0.009695291;-53;31;-44;-917;3641;1918;2;0.6385041;-0.6621035;-0.2617728;-0.2922437;-9;-6;-3;412;3942;-730;8;0.04986149;-0.8871307;0.2825485;0.3614958;-74;-14;20;1909;525;3455;0.3376237;1.983382;0.7309453;0.3435897;2.527049;0.7758079;0.3488357;3.005097;0.8132263;0.4846714;3.6899;1.039184;0.2935787;4.056119;1.10333;-0.07094425;3.972593;1.120227;-0.5777733;4.630535;0.7096586;0.2855815;4.514343;1.082371;0.8039791;3.95488;1.10333;1.057638;3.748736;1.120227;1.155309;2.882269;1.530069;0.3773776;2.362127;1.381536;0.02537766;1.942086;0.7195744;0.2769675;1.209667;-0.5218453;0;0;0;0.02537766;1.942086;0.7195744;0.2769675;1.209667;-0.5218453;0;0;0
1852737.7865;NotLabelled;NONE;16384;0.6726841;0.5720221;0.4653739;0.06094183;1;10;3;2564;-2958;1358;65536;0.6419291;0.2908587;-0.4695291;-0.5318559;-7;-5;-4;3807;566;-936;8192;0.6232687;-0.7225073;-0.299169;0.004155125;7;-1;1;2010;3568;-292;32768;0.4861496;-0.7051508;0.4972299;-0.1385041;-3;3;3;3229;2186;412;256;0.1578947;-0.3725762;-0.5692521;-0.7156873;0;-4;8;602;3848;-1230;128;-0.06786703;0.2700831;0.5789474;0.7663349;6;2;-7;-624;3808;1186;4;-0.6412742;-0.008310249;-0.3711911;-0.6715024;20;-8;26;3402;2198;196;16;0.5249307;-0.8406221;-0.132964;0.01108033;-53;26;-43;-721;3621;1952;2;0.6412742;-0.6606416;-0.2617728;-0.2894737;-11;-4;1;472;4110;-132;8;0.02631579;-0.8894523;0.2783934;0.3614958;-71;-14;14;1951;573;3671;0.3314284;1.962509;0.7049839;0.3373958;2.506295;0.748379;0.3426428;2.984442;0.7845069;0.4797319;3.668968;1.010547;0.2893112;4.035531;1.074731;-0.07536513;3.952673;1.09161;-0.5799619;4.611947;0.6804301;0.2829811;4.494415;1.053676;0.7995246;3.933354;1.074731;1.052804;3.726742;1.091611;1.146211;2.860764;1.503475;0.36753;2.341589;1.35549;0.01918209;1.921183;0.6937337;0.284886;1.195788;-0.5488694;0;0;0;0.01918209;1.921183;0.6937337;0.284886;1.195788;-0.5488694;0;0;0
1852759.8293;NotLabelled;NONE;16384;0.6726841;0.5720221;0.4653739;0.06094183;1;5;3;2466;-3006;1522;65536;0.643177;0.2880886;-0.4695291;-0.5318559;-6;-4;-5;3959;610;-1134;8192;0.6218836;-0.7236998;-0.299169;0.004155125;6;-1;-2;2118;3696;-156;32768;0.4847645;-0.7068043;0.4958449;-0.1398892;-1;0;1;3567;2240;272;256;0.1578947;-0.3725762;-0.5692521;-0.7156873;0;0;7;700;4050;-1230;128;-0.06648199;0.2700831;0.5789474;0.7664562;5;4;-7;-670;4014;1098;4;-0.6412742;-0.008310249;-0.367036;-0.6737825;18;0;26;3776;2330;334;16;0.5166205;-0.8448243;-0.1385041;0.01385042;-50;17;-42;-1051;3539;1984;2;0.6412742;-0.661299;-0.2631579;-0.2867036;-8;-4;2;384;4086;-186;8;0.01523546;-0.8900096;0.2756233;0.3628809;-71;-8;12;1721;989;3399;0.3236615;1.939303;0.687488;0.3296304;2.483233;0.7290332;0.3348788;2.961501;0.7635345;0.4732223;3.645746;0.9896583;0.2834749;4.012651;1.053881;-0.08135378;3.930463;1.070742;-0.5823644;4.590592;0.6565608;0.2794519;4.471197;1.031813;0.7934994;3.909536;1.053881;1.046397;3.702455;1.070742;1.137073;2.837787;1.485955;0.3587702;2.318613;1.335991;0.01141474;1.897939;0.6763903;0.2932459;1.184128;-0.569364;0;0;0;0.01141474;1.897939;0.6763903;0.2932459;1.184128;-0.569364;0;0;0
1852779.9726;NotLabelled;NONE;16384;0.6728081;0.5720221;0.4653739;0.05955679;0;2;1;2580;-2992;1574;65536;0.6427832;0.2867036;-0.4709141;-0.5318559;-7;-4;-3;4031;674;-1334;8192;0.6204986;-0.7248877;-0.299169;0.004155125;6;0;-3;2210;3780;-180;32768;0.4833795;-0.7077522;0.4958449;-0.1398892;-1;-2;3;3777;2382;292;256;0.1565097;-0.3725762;-0.5706371;-0.7148881;-2;4;7;722;4162;-1148;128;-0.06648199;0.2714681;0.5803324;0.764918;7;0;-8;-820;4138;1334;4;-0.6454294;-0.006925208;-0.3587258;-0.6743062;20;4;21;3294;2250;-50;16;0.501385;-0.8517308;-0.1509695;0.01939058;-46;20;-36;-1577;3477;1996;2;0.6412742;-0.661299;-0.2631579;-0.2867036;-3;-1;1;-68;4092;-276;8;0.004155125;-0.8899924;0.2742382;0.3642659;-70;-16;9;2105;991;3455;0.3209827;1.919419;0.6640608;0.3269514;2.463325;0.7059126;0.3321997;2.941574;0.7406836;0.4705431;3.625819;0.9668073;0.2807957;3.992724;1.03103;-0.08403295;3.910535;1.047891;-0.5853581;4.570664;0.6340901;0.2775151;4.448582;1.006034;0.7908202;3.889609;1.03103;1.043718;3.682529;1.047891;1.131751;2.818373;1.464737;0.3523231;2.300467;1.316231;0.008736074;1.878061;0.6529378;0.3024091;1.169966;-0.5933433;0;0;0;0.008736074;1.878061;0.6529378;0.3024091;1.169966;-0.5933433;0;0;0
1852800.6936;NotLabelled;NONE;16384;0.6739832;0.5706371;0.4653739;0.05955679;0;0;-1;2598;-2900;1758;65536;0.6440116;0.2839335;-0.4709141;-0.5318559;-5;-2;0;4019;610;-1508;8192;0.6204986;-0.7243211;-0.300554;0.002770083;6;2;-3;2226;3856;-138;32768;0.4833795;-0.7065043;0.4972299;-0.1412742;0;-3;5;3661;2416;446;256;0.1565097;-0.3725762;-0.5720221;-0.7137803;-5;5;7;732;4208;-1020;128;-0.06509695;0.2714681;0.5817174;0.7639845;0;2;-9;-850;4164;1212;4;-0.6468144;-0.005540166;-0.3545706;-0.675189;23;2;23;3418;2130;76;16;0.4944598;-0.8544865;-0.1578947;0.02077562;-45;31;-33;-1703;3471;1850;2;0.6412742;-0.6618977;-0.2631579;-0.2853186;-3;-10;1;2;4180;-426;8;-0.004155125;-0.8898501;0.2728532;0.365651;-69;-23;5;2155;857;3523;0.3131371;1.878085;0.620064;0.3191072;2.422126;0.6601313;0.3243567;2.900486;0.6933331;0.4650804;3.584759;0.9178977;0.2765853;3.952435;0.9814013;-0.08850747;3.871499;0.9986031;-0.5893608;4.532954;0.5863514;0.2734669;4.407572;0.9573026;0.7862635;3.84762;0.9814013;1.038478;3.639736;0.9986036;1.124025;2.776105;1.417052;0.343198;2.259187;1.272509;0.000890106;1.836691;0.6090878;0.3146941;1.141917;-0.6397814;0;0;0;0.000890106;1.836691;0.6090878;0.3146941;1.141917;-0.6397814;0;0;0
1852821.6738;NotLabelled;NONE;16384;0.6740729;0.5692521;0.466759;0.06094183;0;0;-2;2784;-2866;1804;65536;0.6451529;0.2839335;-0.4709141;-0.5304709;-5;-1;2;4053;554;-1578;8192;0.6191136;-0.7255054;-0.300554;0.002770083;7;1;0;2256;3882;-104;32768;0.4833795;-0.7065043;0.4972299;-0.1412742;-1;-1;5;3617;2558;444;256;0.1551246;-0.3725762;-0.5720221;-0.7140827;-2;6;6;666;4148;-1074;128;-0.06509695;0.2714681;0.5817174;0.7639845;3;5;-8;-692;4126;1006;4;-0.6495845;-0.005540166;-0.3490305;-0.6754162;25;16;22;3688;2226;-106;16;0.4875346;-0.8571539;-0.1648199;0.02077562;-43;31;-29;-1693;3409;1904;2;0.6426592;-0.6605531;-0.2631579;-0.2853186;-1;-11;2;108;4238;-366;8;-0.01523546;-0.8891589;0.2728532;0.367036;-67;-25;0;2187;397;3597;0.3072271;1.861939;0.5943701;0.3131985;2.406093;0.632882;0.3184488;2.884545;0.6647162;0.4602311;3.569975;0.8850503;0.2722808;3.938294;0.9463919;-0.09291822;3.85798;0.9642385;-0.5917422;4.517117;0.5458571;0.2721061;4.390073;0.9138548;0.7818107;3.832764;0.9468179;1.033739;3.624632;0.9651806;1.1183;2.763325;1.388588;0.336085;2.248804;1.243004;-0.00502032;1.820514;0.5835222;0.321356;1.126864;-0.6627473;0;0;0;-0.00502032;1.820514;0.5835222;0.321356;1.126864;-0.6627473;0;0;0
1852841.6845;NotLabelled;NONE;16384;0.6740729;0.5692521;0.466759;0.06094183;0;0;-1;2796;-2850;1862;65536;0.6451529;0.2839335;-0.4709141;-0.5304709;-2;-3;1;4013;412;-1556;8192;0.6191136;-0.7255054;-0.300554;0.002770083;8;1;2;2290;3992;-92;32768;0.4819945;-0.7071719;0.4972299;-0.1426593;0;2;4;3627;2658;476;256;0.1537396;-0.3711911;-0.5747922;-0.7128781;-4;5;6;562;4206;-1000;128;-0.06232687;0.2714681;0.5844875;0.762099;7;-1;-9;-644;4146;1194;4;-0.6509695;-0.004155125;-0.3448753;-0.6762266;24;7;19;3394;2334;46;16;0.4819945;-0.8588911;-0.1717452;0.02216066;-41;20;-27;-1333;3449;2270;2;0.6412742;-0.6648055;-0.2617728;-0.2797784;5;-17;7;734;4340;-426;8;-0.03878116;-0.8867155;0.2728532;0.3711911;-62;-30;-4;2555;-81;3573;0.3037066;1.836686;0.5847131;0.309678;2.38084;0.6232251;0.3149284;2.859293;0.6550593;0.4580343;3.543586;0.8780533;0.2707943;3.912025;0.9408327;-0.09455806;3.832345;0.9583782;-0.5966699;4.490326;0.5421173;0.2680417;4.364081;0.9083587;0.7801204;3.805513;0.9408324;1.031648;3.596828;0.9583779;1.115083;2.733612;1.378106;0.3325986;2.219509;1.232491;-0.008540809;1.795261;0.5738652;0.3290794;1.115936;-0.6772898;0;0;0;-0.008540809;1.795261;0.5738652;0.3290794;1.115936;-0.6772898;0;0;0
