SEP=;
index;label;segment;RightUpperArm_boneIndex;RightUpperArm_quat9x_w;RightUpperArm_quat9x_x;RightUpperArm_quat9x_y;RightUpperArm_quat9x_z;RightUpperArm_gyroscope_x;RightUpperArm_gyroscope_y;RightUpperArm_gyroscope_z;RightUpperArm_accelerometer_x;RightUpperArm_accelerometer_y;RightUpperArm_accelerometer_z;RightLowerArm_boneIndex;RightLowerArm_quat9x_w;RightLowerArm_quat9x_x;RightLowerArm_quat9x_y;RightLowerArm_quat9x_z;RightLowerArm_gyroscope_x;RightLowerArm_gyroscope_y;RightLowerArm_gyroscope_z;RightLowerArm_accelerometer_x;RightLowerArm_accelerometer_y;RightLowerArm_accelerometer_z;LeftUpperArm_boneIndex;LeftUpperArm_quat9x_w;LeftUpperArm_quat9x_x;LeftUpperArm_quat9x_y;LeftUpperArm_quat9x_z;LeftUpperArm_gyroscope_x;LeftUpperArm_gyroscope_y;LeftUpperArm_gyroscope_z;LeftUpperArm_accelerometer_x;LeftUpperArm_accelerometer_y;LeftUpperArm_accelerometer_z;LeftLowerArm_boneIndex;LeftLowerArm_quat9x_w;LeftLowerArm_quat9x_x;LeftLowerArm_quat9x_y;LeftLowerArm_quat9x_z;LeftLowerArm_gyroscope_x;LeftLowerArm_gyroscope_y;LeftLowerArm_gyroscope_z;LeftLowerArm_accelerometer_x;LeftLowerArm_accelerometer_y;LeftLowerArm_accelerometer_z;Chest_boneIndex;Chest_quat9x_w;Chest_quat9x_x;Chest_quat9x_y;Chest_quat9x_z;Chest_gyroscope_x;Chest_gyroscope_y;Chest_gyroscope_z;Chest_accelerometer_x;Chest_accelerometer_y;Chest_accelerometer_z;Spine_boneIndex;Spine_quat9x_w;Spine_quat9x_x;Spine_quat9x_y;Spine_quat9x_z;Spine_gyroscope_x;Spine_gyroscope_y;Spine_gyroscope_z;Spine_accelerometer_x;Spine_accelerometer_y;Spine_accelerometer_z;RightUpperLeg_boneIndex;RightUpperLeg_quat9x_w;RightUpperLeg_quat9x_x;RightUpperLeg_quat9x_y;RightUpperLeg_quat9x_z;RightUpperLeg_gyroscope_x;RightUpperLeg_gyroscope_y;RightUpperLeg_gyroscope_z;RightUpperLeg_accelerometer_x;RightUpperLeg_accelerometer_y;RightUpperLeg_accelerometer_z;RightLowerLeg_boneIndex;RightLowerLeg_quat9x_w;RightLowerLeg_quat9x_x;RightLowerLeg_quat9x_y;RightLowerLeg_quat9x_z;RightLowerLeg_gyroscope_x;RightLowerLeg_gyroscope_y;RightLowerLeg_gyroscope_z;RightLowerLeg_accelerometer_x;RightLowerLeg_accelerometer_y;RightLowerLeg_accelerometer_z;LeftUpperLeg_boneIndex;LeftUpperLeg_quat9x_w;LeftUpperLeg_quat9x_x;LeftUpperLeg_quat9x_y;LeftUpperLeg_quat9x_z;LeftUpperLeg_gyroscope_x;LeftUpperLeg_gyroscope_y;LeftUpperLeg_gyroscope_z;LeftUpperLeg_accelerometer_x;LeftUpperLeg_accelerometer_y;LeftUpperLeg_accelerometer_z;LeftLowerLeg_boneIndex;LeftLowerLeg_quat9x_w;LeftLowerLeg_quat9x_x;LeftLowerLeg_quat9x_y;LeftLowerLeg_quat9x_z;LeftLowerLeg_gyroscope_x;LeftLowerLeg_gyroscope_y;LeftLowerLeg_gyroscope_z;LeftLowerLeg_accelerometer_x;LeftLowerLeg_accelerometer_y;LeftLowerLeg_accelerometer_z;pelvis_x;pelvis_y;pelvis_z;lowerSpine_x;lowerSpine_y;lowerSpine_z;middleSpine_x;middleSpine_y;middleSpine_z;upperSpine_x;upperSpine_y;upperSpine_z;rightClavicle_x;rightClavicle_y;rightClavicle_z;rightShoulder_x;rightShoulder_y;rightShoulder_z;rightElbow_x;rightElbow_y;rightElbow_z;rightWrist_x;rightWrist_y;rightWrist_z;leftClavicle_x;leftClavicle_y;leftClavicle_z;leftShoulder_x;leftShoulder_y;leftShoulder_z;leftElbow_x;leftElbow_y;leftElbow_z;leftWrist_x;leftWrist_y;leftWrist_z;rightHip_x;rightHip_y;rightHip_z;rightKnee_x;rightKnee_y;rightKnee_z;rightAnkle_x;rightAnkle_y;rightAnkle_z;leftHip_x;leftHip_y;leftHip_z;leftKnee_x;leftKnee_y;leftKnee_z;leftAnkle_x;leftAnkle_y;leftAnkle_z;
808184.8916;NotLabelled;NONE;16384;-0.33241;0.4930748;-0.7587247;-0.265928;7;-1;31;-2744;2296;1152;65536;0.6263084;-0.432133;0.4404432;0.4764543;6;-23;41;-898;4050;-153;8192;0.6798283;-0.66759;-0.2686981;-0.1412742;1;19;-5;276;4584;956;32768;0.8015682;-0.5554016;0.1163435;-0.1883656;28;-8;19;1355;3283;-613;256;0.1315789;-0.1731302;-0.8399258;-0.4972299;18;-20;2;658;3288;1708;128;-0.07894737;0.1135734;0.7923479;0.5941828;-24;-29;-6;-216;3576;-1258;4;-0.5914127;0.1828255;-0.4695291;-0.629562;-22;-45;-7;2582;2968;0;16;0.7308204;-0.6689751;0.01800554;-0.134349;11;-36;0;843;3963;-572;2;0.5955678;-0.6533743;-0.3711911;-0.2839335;14;-48;-1;762;3216;-616;8;0.365651;-0.7797108;0.3365651;0.3808864;-10;-67;0;1855;3073;1219;0.6519954;2.529295;1.065356;0.6571336;2.997532;0.7854476;0.6616389;3.408074;0.5376718;0.7636366;4.053195;0.2031889;0.5507348;4.363154;0.02058086;0.1986208;4.321607;0.1407004;-0.2405691;3.648882;0.6020936;-0.2664819;2.742384;0.3275276;1.064695;4.281897;0.02057868;1.335074;4.14193;0.1406972;1.477686;3.194856;0.2455162;1.269124;2.386754;-0.2031047;0.3397683;2.489734;1.082133;0.2051054;1.311277;0.2254161;0;0;0;0.3397683;2.489734;1.082133;0.2051054;1.311277;0.2254161;0;0;0
808204.6752;NotLabelled;NONE;16384;-0.33241;0.4930748;-0.7577481;-0.2686981;14;-7;25;-3006;2418;972;65536;0.6233349;-0.4307479;0.4459834;0.4764543;16;-29;25;-1252;4354;-457;8192;0.6789897;-0.66759;-0.2700831;-0.1426593;-8;-1;-7;106;4856;1094;32768;0.8033981;-0.5526316;0.1191136;-0.1869806;4;-20;12;1255;3431;-769;256;0.132964;-0.1772853;-0.8380176;-0.4986149;20;-18;0;576;3284;1726;128;-0.08033241;0.1177285;0.7905603;0.5955678;-24;-21;-4;-200;3522;-1590;4;-0.5886427;0.1786704;-0.4722992;-0.6312767;-20;-36;-5;2402;2578;50;16;0.7325155;-0.66759;0.02077562;-0.1315789;7;-33;0;757;3875;-672;2;0.5955678;-0.6576819;-0.365651;-0.2811634;21;-46;-2;1034;3178;-858;8;0.3614958;-0.7773354;0.3448753;0.3822715;-7;-52;3;1591;3141;1275;0.660273;2.530964;1.073027;0.6654379;3.001627;0.7972176;0.6699666;3.414318;0.5530367;0.7747225;4.060673;0.2218064;0.5631654;4.372346;0.04055792;0.210798;4.331572;0.1601983;-0.229166;3.653888;0.6135244;-0.2607038;2.743302;0.3534546;1.076807;4.289102;0.04055578;1.346548;4.147503;0.1601952;1.486596;3.199761;0.2624013;1.277031;2.397594;-0.1962913;0.3480444;2.491258;1.089427;0.1985292;1.309829;0.239291;0;0;0;0.3480444;2.491258;1.089427;0.1985292;1.309829;0.239291;0;0;0
808225.6951;NotLabelled;NONE;16384;-0.3296399;0.4889196;-0.7586577;-0.2770083;14;-44;12;-2812;2670;1070;65536;0.6208186;-0.4210526;0.4556787;0.4792244;32;-47;-5;-560;4222;-595;8192;0.6836299;-0.666205;-0.2631579;-0.1398892;-11;-31;-13;638;4534;1100;32768;0.801482;-0.5567867;0.1232687;-0.1800554;-28;-23;-7;1351;3695;-1171;256;0.1371191;-0.1800554;-0.8342665;-0.5027701;18;-15;-6;266;3478;1822;128;-0.08171745;0.1204986;0.7868511;0.599723;-23;-9;0;-28;3600;-1200;4;-0.5858725;0.1759003;-0.4750692;-0.6325517;-12;-20;-5;2614;2554;214;16;0.7344247;-0.666205;0.0235457;-0.1274238;2;-25;0;845;3933;-658;2;0.5955678;-0.6619036;-0.3601108;-0.2783934;24;-42;-5;1306;3486;-528;8;0.3587258;-0.7754563;0.3504155;0.3836565;-3;-32;9;1365;3073;1469;0.6586659;2.529359;1.08031;0.663847;3.001486;0.8070129;0.6683899;3.415472;0.5650347;0.7764577;4.063301;0.237771;0.5665219;4.377024;0.05818209;0.2138512;4.337165;0.1772361;-0.2260998;3.656075;0.6254408;-0.2634056;2.744558;0.3694276;1.079774;4.291409;0.05817974;1.348739;4.147853;0.1772327;1.486921;3.200095;0.2818057;1.280646;2.400896;-0.1835093;0.3464365;2.489567;1.09648;0.1948954;1.309304;0.245084;0;0;0;0.3464365;2.489567;1.09648;0.1948954;1.309304;0.245084;0;0;0
808247.7216;NotLabelled;NONE;16384;-0.3268698;0.4833795;-0.7613585;-0.2825485;12;-50;9;-2438;2844;1204;65536;0.6183106;-0.4155124;0.4612188;0.4819945;34;-47;-6;-110;3964;-341;8192;0.6873924;-0.66482;-0.2590028;-0.1357341;-13;-38;-10;934;4196;838;32768;0.7995937;-0.5609418;0.1246537;-0.1745152;-33;-22;-9;1531;3981;-1301;256;0.1398892;-0.1814404;-0.831829;-0.5055401;19;-16;-8;192;3504;1672;128;-0.08310249;0.1218837;0.7843727;0.602493;-20;-8;0;122;3670;-1152;4;-0.5844875;0.1731302;-0.4750692;-0.634594;-5;-3;0;3076;2940;362;16;0.734618;-0.666205;0.02493075;-0.1260388;0;-15;0;885;4167;-696;2;0.5941828;-0.666539;-0.3559557;-0.2756233;23;-34;-6;1386;3612;-416;8;0.3559557;-0.7754761;0.3531856;0.3836565;-2;-20;10;1033;3221;2059;0.6492039;2.530212;1.085728;0.6544194;3.005495;0.8179592;0.658993;3.422276;0.5808283;0.7663732;4.074086;0.2613354;0.5561459;4.389457;0.08500212;0.2033292;4.347507;0.2028992;-0.230728;3.659348;0.6460264;-0.279942;2.750146;0.3838717;1.06957;4.304877;0.08499998;1.338597;4.160486;0.202896;1.47773;3.211863;0.2979342;1.27221;2.408215;-0.1599942;0.3369723;2.490233;1.101393;0.1880682;1.309279;0.2504918;0;0;0;0.3369723;2.490233;1.101393;0.1880682;1.309279;0.2504918;0;0;0
808267.782;NotLabelled;NONE;16384;-0.3240997;0.4778393;-0.7644802;-0.2867036;10;-45;8;-2288;2950;1174;65536;0.6156802;-0.4099723;0.466759;0.4847645;31;-37;-2;-470;3930;-193;8192;0.6897493;-0.66482;-0.2548476;-0.1315789;-14;-37;-6;1088;4022;606;32768;0.7973438;-0.5650969;0.1260388;-0.1703601;-35;-18;-5;1491;3907;-1301;256;0.1426593;-0.1842105;-0.829057;-0.5083103;19;-21;-8;230;3590;1694;128;-0.08310249;0.1218837;0.7833068;0.6038781;-22;-3;0;-30;3756;-1378;4;-0.5858725;0.1731302;-0.4750692;-0.6333156;0;4;7;3106;3478;376;16;0.7360593;-0.66482;0.02631579;-0.1246537;-1;-7;0;873;4243;-596;2;0.5900277;-0.6736985;-0.3504155;-0.2742382;17;-15;-9;1300;4146;-244;8;0.3545706;-0.7761104;0.3531856;0.3836565;0;-1;7;815;3351;2851;0.6426786;2.527683;1.09179;0.6479166;3.004991;0.8276483;0.6525099;3.423565;0.5936984;0.7588657;4.077975;0.2792159;0.54817;4.394201;0.1049846;0.1953019;4.35061;0.2221307;-0.2371144;3.659111;0.6616461;-0.2913778;2.750947;0.3968963;1.061775;4.310731;0.1049827;1.330971;4.166044;0.2221283;1.474579;3.217595;0.3121139;1.270796;2.408807;-0.1374665;0.3304458;2.487587;1.107123;0.1866517;1.309243;0.2517346;0;0;0;0.3304458;2.487587;1.107123;0.1866517;1.309243;0.2517346;0;0;0
808288.7105;NotLabelled;NONE;16384;-0.3213296;0.4736842;-0.7666628;-0.2908587;9;-36;5;-2194;3152;1152;65536;0.6152688;-0.4058172;0.4709141;0.4847645;29;-24;0;-880;3924;-203;8192;0.6928739;-0.6634349;-0.2520775;-0.1274238;-14;-36;-4;1096;3904;462;32768;0.7950416;-0.5692521;0.1274238;-0.166205;-33;-20;-1;1563;3909;-1199;256;0.1440443;-0.1855956;-0.827657;-0.5096953;17;-21;-6;492;3660;1674;128;-0.08448754;0.1232687;0.7818716;0.6052631;-16;-11;-2;-164;3894;-1394;4;-0.5886427;0.1731302;-0.4722992;-0.6328185;1;15;14;2160;3400;366;16;0.7349887;-0.666205;0.02770083;-0.1232687;-3;-3;0;1031;4135;-364;2;0.5900277;-0.6745679;-0.3476454;-0.2756233;14;-13;-8;1226;4330;-276;8;0.3531856;-0.7767935;0.3545706;0.3822715;0;-14;2;753;3497;2977;0.6333773;2.526128;1.100094;0.638625;3.004351;0.8376113;0.6432272;3.423734;0.6051158;0.7500076;4.080775;0.2963153;0.5395479;4.39846;0.124471;0.1865201;4.353884;0.2407607;-0.246922;3.660667;0.6765458;-0.3057681;2.753529;0.4092755;1.053154;4.314994;0.124469;1.32219;4.169321;0.2407581;1.46765;3.220972;0.3287914;1.264997;2.407764;-0.1132629;0.3211438;2.485979;1.115277;0.1823458;1.308712;0.2575852;0;0;0;0.3211438;2.485979;1.115277;0.1823458;1.308712;0.2575852;0;0;0
808309.672;NotLabelled;NONE;16384;-0.3199446;0.4709141;-0.7673605;-0.2950138;11;-29;2;-2126;3198;1188;65536;0.614776;-0.4016621;0.4736842;0.4861496;28;-25;-2;-1018;4096;-227;8192;0.6946256;-0.6634349;-0.2493075;-0.1232687;-17;-37;-3;1200;3908;360;32768;0.7922317;-0.5734072;0.1315789;-0.1620499;-29;-30;3;1987;4063;-1329;256;0.1468144;-0.1883656;-0.8248292;-0.5124654;16;-15;-4;766;3694;1594;128;-0.08448754;0.1246537;0.7805775;0.6066482;-14;-7;-3;-344;4010;-1050;4;-0.5914127;0.1731302;-0.4695291;-0.6322969;0;14;15;1978;3078;494;16;0.7349887;-0.666205;0.02770083;-0.1232687;-4;-9;0;1115;4137;-424;2;0.5886427;-0.6771947;-0.3448753;-0.2756233;12;-12;-7;1044;4382;-248;8;0.3518005;-0.7754687;0.3573407;0.3836565;1;-20;-1;653;3545;2875;0.6267825;2.522237;1.104097;0.6320423;3.001549;0.8436096;0.6366552;3.421899;0.6128646;0.7438205;4.080245;0.3069912;0.5335767;4.398649;0.1362164;0.1803972;4.353569;0.2518503;-0.253374;3.660031;0.6867944;-0.3187991;2.754239;0.4165028;1.047185;4.315198;0.1365389;1.316073;4.169043;0.2525647;1.466515;3.2216;0.341984;1.263318;2.404042;-0.09171736;0.3145484;2.482025;1.119097;0.1839003;1.309175;0.2541044;0;0;0;0.3145484;2.482025;1.119097;0.1839003;1.309175;0.2541044;0;0;0
808329.6695;NotLabelled;NONE;16384;-0.3144044;0.4653739;-0.770331;-0.301939;18;-30;-1;-2044;3462;1354;65536;0.6132138;-0.3905817;0.4792244;0.4916897;25;-35;-8;-1224;4046;-319;8192;0.6982355;-0.6634349;-0.2437673;-0.1135734;-20;-29;-5;1154;4028;56;32768;0.7899353;-0.5761772;0.1412742;-0.1551246;-13;-27;14;1679;3997;-1521;256;0.1481994;-0.1925208;-0.8218912;-0.5152354;16;-6;0;910;3764;1378;128;-0.08448754;0.1274238;0.7779681;0.6094183;-14;-10;-3;-514;4054;-964;4;-0.5941828;0.1731302;-0.468144;-0.6307249;-1;7;15;2078;2956;580;16;0.7351662;-0.666205;0.02908587;-0.1218837;-5;-4;0;823;4143;-368;2;0.5886427;-0.6778982;-0.3434903;-0.2756233;8;-11;-5;1012;4568;36;8;0.3518005;-0.7741416;0.3587258;0.3850415;2;-23;-3;857;3611;2501;0.6138862;2.517856;1.113284;0.6191579;2.998243;0.854785;0.6237811;3.419545;0.6257834;0.7310934;4.080481;0.3255983;0.5209379;4.4003;0.157379;0.1676775;4.354197;0.2723606;-0.2628323;3.655416;0.7021217;-0.3304713;2.751055;0.4276149;1.034556;4.31691;0.1573771;1.303375;4.169805;0.2723576;1.456987;3.222432;0.3569957;1.250265;2.40194;-0.06943834;0.3016514;2.477582;1.128104;0.1818757;1.309175;0.2555572;0;0;0;0.3016514;2.477582;1.128104;0.1818757;1.309175;0.2555572;0;0;0
808349.7135;NotLabelled;NONE;16384;-0.3102493;0.4626039;-0.7714918;-0.3074792;23;-33;-4;-1928;3420;1464;65536;0.6123184;-0.3850415;0.4819945;0.4944598;22;-37;-8;-1130;4000;-267;8192;0.7009515;-0.6620498;-0.2409972;-0.1108033;-21;-18;-6;1050;4076;-2;32768;0.7897058;-0.5761772;0.1440443;-0.1537396;-4;-20;14;1779;3819;-1379;256;0.1468144;-0.1939058;-0.8200709;-0.5180055;15;-2;0;980;3762;1286;128;-0.08448754;0.1288089;0.7766528;0.6108033;-8;0;-3;-572;4034;-812;4;-0.5955678;0.1717452;-0.466759;-0.6308237;0;0;14;2348;2966;642;16;0.7339087;-0.66759;0.02908587;-0.1218837;-5;-2;1;913;4107;-406;2;0.5886427;-0.6785983;-0.3421052;-0.2756233;4;-12;-4;712;4324;-106;8;0.3504155;-0.7727899;0.3614958;0.3864266;2;-24;-3;1065;3761;2085;0.614413;2.505121;1.138537;0.6197082;2.987643;0.8840453;0.6243522;3.410836;0.6585585;0.7321603;4.07662;0.3694681;0.5221081;4.400105;0.2082771;0.1694104;4.353199;0.3246526;-0.2522358;3.64487;0.7475164;-0.3269246;2.746845;0.4546521;1.035413;4.314939;0.2035518;1.304415;4.164881;0.3142056;1.463521;3.216871;0.3793031;1.245478;2.399372;-0.04724228;0.3021771;2.464725;1.152992;0.182188;1.30697;0.26639;0;0;0;0.3021771;2.464725;1.152992;0.182188;1.30697;0.26639;0;0;0
808390.6743;NotLabelled;NONE;16384;-0.3033241;0.4570637;-0.7736198;-0.3171745;26;-25;-7;-1484;3474;1620;65536;0.6071951;-0.3753462;0.4889196;0.501385;12;-42;0;-958;3694;-413;8192;0.704247;-0.6592798;-0.2396122;-0.1094183;-13;2;-9;816;4122;-72;32768;0.7906962;-0.5734072;0.1509695;-0.1523546;14;-11;10;1699;3789;-1365;256;0.1454294;-0.1952908;-0.8173494;-0.5221606;14;5;1;940;4010;1162;128;-0.08310249;0.1301939;0.7743844;0.6135734;-14;0;-2;-444;4166;-890;4;-0.5969529;0.16759;-0.4639889;-0.632673;0;-8;11;2752;3190;520;16;0.7338525;-0.66759;0.03047091;-0.1218837;-5;-4;2;873;4247;-302;2;0.5886427;-0.6820455;-0.33518;-0.2756233;6;-14;-8;76;3972;-630;8;0.3504155;-0.7674493;0.3698061;0.3891967;-1;-12;2;1043;3717;1579;0.60774;2.511039;1.121688;0.6130469;2.994622;0.8692163;0.6177012;3.418753;0.6455005;0.7296342;4.083972;0.3566786;0.5217845;4.407758;0.1932509;0.1679452;4.361783;0.3064898;-0.249014;3.656158;0.7384252;-0.325084;2.757706;0.4472295;1.034915;4.321418;0.1932489;1.302565;4.17087;0.3064865;1.467906;3.225013;0.3858088;1.250113;2.404679;-0.03538811;0.2955034;2.470583;1.135961;0.1827737;1.309623;0.2526027;0;0;0;0.2955034;2.470583;1.135961;0.1827737;1.309623;0.2526027;0;0;0
808411.6664;NotLabelled;NONE;16384;-0.299169;0.4556787;-0.7743398;-0.3213296;28;-15;-8;-1422;3324;1620;65536;0.6052157;-0.3711911;0.4916897;0.5041551;8;-39;5;-1240;3652;-699;8192;0.7053249;-0.6578947;-0.2396122;-0.1108033;-10;9;-8;640;4190;-38;32768;0.7926977;-0.5706371;0.1509695;-0.1523546;22;-4;6;1819;3711;-1333;256;0.1440443;-0.1952908;-0.8158189;-0.5249307;14;7;0;792;4048;1014;128;-0.08310249;0.1301939;0.7721815;0.6163435;-15;2;-1;-408;4296;-550;4;-0.5969529;0.1648199;-0.4626039;-0.6344125;1;0;3;2762;2756;644;16;0.7325312;-0.6689751;0.03185596;-0.1218837;-3;2;4;865;4035;-202;2;0.5886427;-0.683512;-0.3310249;-0.2770083;8;-16;-10;70;4112;-524;8;0.3490305;-0.7680802;0.3698061;0.3891967;-4;-9;3;1181;3589;2007;0.6083332;2.501426;1.135229;0.613661;2.986928;0.886469;0.6183338;3.412761;0.6660093;0.731741;4.080796;0.3843523;0.5246499;4.406577;0.2239521;0.1705441;4.359938;0.3360819;-0.2326581;3.648254;0.7711238;-0.3148;2.75179;0.4754833;1.037655;4.319491;0.22395;1.304885;4.167375;0.336079;1.475757;3.221976;0.4088753;1.251531;2.406332;-0.0180155;0.2960952;2.460863;1.149165;0.1852859;1.309067;0.2536496;0;0;0;0.2960952;2.460863;1.149165;0.1852859;1.309067;0.2536496;0;0;0
808451.6768;NotLabelled;NONE;16384;-0.2922437;0.4556787;-0.7728992;-0.3310249;30;-9;-6;-1466;3430;1718;65536;0.597905;-0.3642659;0.4986149;0.5110803;2;-39;9;-1382;3500;-901;8192;0.7050215;-0.6565097;-0.2409972;-0.1177285;-1;27;-6;472;4110;332;32768;0.7971032;-0.5637119;0.1509695;-0.1551246;32;8;3;1867;3591;-1221;256;0.1426593;-0.1952908;-0.8142737;-0.5277008;12;7;-1;772;3928;888;128;-0.08171745;0.1301939;0.7701105;0.6191136;-16;4;0;-400;4260;-404;4;-0.5983379;0.1634349;-0.4612188;-0.6344745;3;10;0;2868;2598;688;16;0.7310317;-0.6703601;0.03185596;-0.1232687;-3;8;4;935;3995;-228;2;0.5900277;-0.6836538;-0.3282548;-0.2770083;4;-15;-9;172;4054;-614;8;0.3490305;-0.7674118;0.3711911;0.3891967;-6;-7;2;1065;3611;2119;0.6143219;2.496377;1.138305;0.6196688;2.983615;0.8929637;0.6243587;3.410987;0.6755021;0.7380977;4.080769;0.3981604;0.5311931;4.407559;0.2395859;0.1769659;4.360239;0.3510442;-0.2179256;3.646457;0.7902544;-0.3032749;2.750954;0.4926185;1.044193;4.320448;0.2395836;1.311297;4.167617;0.3510406;1.483002;3.222078;0.4199412;1.260876;2.40842;-0.01180995;0.3020829;2.455717;1.151932;0.1908345;1.30897;0.2500145;0;0;0;0.3020829;2.455717;1.151932;0.1908345;1.30897;0.2500145;0;0;0
808473.6713;NotLabelled;NONE;16384;-0.2894737;0.4542936;-0.7729661;-0.33518;30;-10;-5;-1396;3466;1714;65536;0.593359;-0.3601108;0.5027701;0.5152354;-2;-40;12;-1416;3482;-1061;8192;0.7046514;-0.6551247;-0.2437673;-0.1218837;1;33;-3;318;4082;452;32768;0.7997437;-0.5595568;0.1495845;-0.1578947;34;15;0;1689;3499;-1097;256;0.1412742;-0.1952908;-0.810899;-0.533241;8;6;-1;856;3888;638;128;-0.08033241;0.1315789;0.7666615;0.6232687;-16;-3;-3;-550;4018;-304;4;-0.601108;0.1648199;-0.4598338;-0.6325002;7;16;0;2982;2614;682;16;0.7308559;-0.6703601;0.03047091;-0.1246537;-3;14;5;1097;3941;-260;2;0.5900277;-0.6849769;-0.3254848;-0.2770083;6;-20;-7;376;4058;-830;8;0.3476454;-0.7680402;0.3711911;0.3891967;-5;-1;3;1111;3653;2095;0.6207086;2.492133;1.140274;0.6260741;2.98108;0.8983546;0.6307806;3.409965;0.683895;0.7448543;4.08147;0.4108911;0.538138;4.409265;0.2541535;0.1837894;4.361267;0.3649338;-0.191524;3.640313;0.8095618;-0.2814745;2.744639;0.5138005;1.051133;4.322121;0.254151;1.318108;4.168576;0.3649302;1.484871;3.221779;0.4285038;1.266587;2.41461;-0.01716137;0.3084686;2.451378;1.153591;0.1960436;1.308876;0.246448;0;0;0;0.3084686;2.451378;1.153591;0.1960436;1.308876;0.246448;0;0;0
808494.675;NotLabelled;NONE;16384;-0.2867036;0.4542936;-0.7721852;-0.3393352;27;-6;-8;-1094;3482;1794;65536;0.5894194;-0.3587258;0.5055401;0.5180055;-5;-36;15;-1358;3496;-1119;8192;0.7037565;-0.6537396;-0.2479224;-0.1260388;5;35;0;276;3926;614;32768;0.8025967;-0.5554016;0.1468144;-0.1606648;32;19;-2;1693;3337;-1059;256;0.1412742;-0.1952908;-0.8099865;-0.534626;5;8;0;886;3906;576;128;-0.08033241;0.134349;0.7639192;0.6260388;-13;-6;-3;-672;4016;-268;4;-0.602493;0.166205;-0.4570637;-0.6328276;10;18;1;2948;2818;638;16;0.7304345;-0.6703601;0.02908587;-0.1274238;-5;22;4;981;3911;-318;2;0.5900277;-0.6862863;-0.3227147;-0.2770083;4;-20;-5;696;4264;-488;8;0.3476454;-0.7687081;0.3698061;0.3891967;-4;4;1;1139;3597;2209;0.6184926;2.490843;1.14303;0.6238879;2.982485;0.9066406;0.6286206;3.413762;0.6970315;0.7427707;4.08885;0.4330442;0.536186;4.418317;0.2796766;0.1814771;4.368408;0.3884411;-0.1873562;3.649613;0.8419015;-0.2795384;2.753767;0.5473528;1.049305;4.331913;0.2805858;1.316071;4.177352;0.3904529;1.481953;3.231077;0.4633985;1.267834;2.427762;0.0088377;0.306251;2.44994;1.155848;0.195608;1.308905;0.2466416;0;0;0;0.306251;2.44994;1.155848;0.195608;1.308905;0.2466416;0;0;0
808514.6979;NotLabelled;NONE;16384;-0.2853186;0.4542936;-0.7714757;-0.3421052;25;1;-9;-1028;3566;1816;65536;0.5854238;-0.3573407;0.5083103;0.5207756;-10;-30;21;-1356;3496;-1161;8192;0.7030461;-0.6523545;-0.2506925;-0.1315789;7;35;3;86;3918;736;32768;0.8044493;-0.5526316;0.1440443;-0.1634349;29;19;-3;1723;3183;-1059;256;0.1398892;-0.1952908;-0.8093112;-0.536011;0;7;2;940;4044;606;128;-0.08033241;0.1357341;0.7625368;0.6274238;-10;-7;-4;-686;4092;-168;4;-0.6052631;0.16759;-0.4556787;-0.6308146;12;18;2;2792;3088;766;16;0.7284766;-0.6717451;0.02770083;-0.1315789;-6;32;6;985;4167;-422;2;0.5900277;-0.6881385;-0.3199446;-0.2756233;0;-5;0;792;4084;-672;8;0.3476454;-0.7700346;0.367036;0.3891967;-2;8;0;1355;3573;2067;0.6143093;2.488858;1.147045;0.6197264;2.982499;0.9148575;0.6244785;3.415548;0.7089342;0.7377897;4.091568;0.4469794;0.5307656;4.42137;0.2949274;0.1762294;4.370839;0.4039685;-0.1831139;3.643851;0.8519518;-0.2761877;2.746881;0.561124;1.043951;4.335354;0.2949255;1.310969;4.180644;0.4039655;1.477095;3.233647;0.466207;1.268425;2.433567;0.003478646;0.3020664;2.447848;1.159485;0.1978925;1.308392;0.2475382;0;0;0;0.3020664;2.447848;1.159485;0.1978925;1.308392;0.2475382;0;0;0
808534.8182;NotLabelled;NONE;16384;-0.2839335;0.4542936;-0.7707529;-0.3448753;22;8;-9;-1122;3636;1880;65536;0.5805208;-0.3573407;0.5110803;0.5235457;-15;-24;26;-1386;3518;-1277;8192;0.7012607;-0.6523545;-0.2534626;-0.1357341;7;31;8;-22;3938;726;32768;0.8053228;-0.5512465;0.1412742;-0.166205;23;18;-5;1701;3077;-1143;256;0.1385041;-0.1952908;-0.8086306;-0.5373961;-2;8;2;956;4044;596;128;-0.07894737;0.1371191;0.7612917;0.6288089;0;0;-3;-654;4206;-282;4;-0.6080332;0.1703601;-0.4515235;-0.6303963;7;13;7;2714;3178;706;16;0.7256072;-0.6731302;0.02077562;-0.1412742;-8;32;0;1473;4135;-286;2;0.5900277;-0.6881385;-0.3199446;-0.2756233;-2;2;0;778;4040;-670;8;0.3490305;-0.7707654;0.365651;0.3878116;-1;12;0;1143;3477;1997;0.6220913;2.48681;1.146533;0.6275193;2.981441;0.9164616;0.6322811;3.415368;0.7123954;0.7462981;4.092106;0.4526103;0.5396313;4.422555;0.3014799;0.1849956;4.371983;0.4101772;-0.1686124;3.642649;0.8589111;-0.2626689;2.744545;0.5719261;1.052744;4.336108;0.3014779;1.319575;4.180833;0.4101745;1.483232;3.23325;0.4699927;1.278329;2.435356;0.001839161;0.3098479;2.445747;1.158781;0.2051159;1.30774;0.2450912;0;0;0;0.3098479;2.445747;1.158781;0.2051159;1.30774;0.2450912;0;0;0
808555.6743;NotLabelled;NONE;16384;-0.2825485;0.4556787;-0.7691983;-0.3476454;21;13;-9;-1286;3660;1900;65536;0.5768129;-0.3573407;0.5138504;0.5249307;-18;-18;32;-1410;3666;-1367;8192;0.7004915;-0.6509695;-0.2576177;-0.1385041;6;24;12;-232;4044;774;32768;0.8071168;-0.5484765;0.1385041;-0.1689751;16;15;-7;1697;3073;-1155;256;0.1371191;-0.1952908;-0.8079447;-0.5387812;-2;10;2;932;4032;670;128;-0.07756232;0.1371191;0.7614341;0.6288089;-1;2;-3;-630;4250;-402;4;-0.6108033;0.1703601;-0.4487534;-0.629696;6;12;6;2742;3006;644;16;0.7251007;-0.6731302;0.01939058;-0.1440443;-9;28;-2;1297;4095;-228;2;0.5886427;-0.6886791;-0.3213296;-0.2756233;-4;8;0;768;4064;-620;8;0.3490305;-0.7721156;0.3642659;0.3864266;0;15;0;1245;3419;1959;0.6187956;2.484354;1.147948;0.6242341;2.979961;0.9199879;0.6290054;3.414754;0.7177736;0.7437325;4.092203;0.4601644;0.5374253;4.423298;0.3099585;0.1826893;4.372687;0.4183108;-0.1651706;3.641023;0.8677437;-0.2589848;2.740824;0.5873213;1.050465;4.336416;0.3099566;1.317107;4.180576;0.4183076;1.477528;3.232513;0.4792577;1.274961;2.435701;0.008252144;0.3065515;2.443239;1.160007;0.2113085;1.307168;0.2428759;0;0;0;0.3065515;2.443239;1.160007;0.2113085;1.307168;0.2428759;0;0;0
808575.8978;NotLabelled;NONE;16384;-0.2797784;0.4584487;-0.7666715;-0.3518005;17;13;-10;-1184;3530;1938;65536;0.5657756;-0.3628809;0.5207756;0.5263157;-25;-12;42;-1408;3730;-1333;8192;0.6996832;-0.6495845;-0.2617728;-0.1412742;2;5;18;-264;4208;764;32768;0.8078189;-0.5484765;0.134349;-0.1689751;-2;7;-15;1795;2945;-1067;256;0.134349;-0.1939058;-0.8087433;-0.5387812;-5;12;0;954;3908;776;128;-0.07617728;0.1357341;0.7606766;0.6301939;2;13;0;-542;4060;-230;4;-0.6121883;0.1703601;-0.4473684;-0.6293365;6;13;7;2778;2864;610;16;0.7230726;-0.6745152;0.01523546;-0.1481994;-11;31;-2;1037;4013;-124;2;0.5886427;-0.6873798;-0.3240997;-0.2756233;-6;17;2;826;3930;-694;8;0.3504155;-0.7721405;0.3628809;0.3864266;0;14;0;1399;3433;1893;0.6191304;2.479169;1.154597;0.6245692;2.974768;0.9266201;0.6293404;3.409554;0.7243907;0.7447818;4.087708;0.4689634;0.5388368;4.419446;0.3196852;0.1840003;4.3688;0.4276906;-0.1566059;3.634626;0.8785832;-0.2520053;2.73284;0.6038477;1.051802;4.332128;0.3196828;1.318253;4.175722;0.427687;1.480407;3.228026;0.4897613;1.281615;2.433432;0.01343155;0.3068865;2.438055;1.166658;0.2137994;1.306632;0.2435778;0;0;0;0.3068865;2.438055;1.166658;0.2137994;1.306632;0.2435778;0;0;0
808596.7712;NotLabelled;NONE;16384;-0.2797784;0.4598338;-0.7658416;-0.3518005;11;20;-11;-1190;3420;1884;65536;0.5618047;-0.367036;0.5221606;0.5263157;-30;-5;46;-1334;3636;-1415;8192;0.6994419;-0.6495845;-0.2631579;-0.1398892;0;-3;18;-124;4244;668;32768;0.8076218;-0.5498615;0.1315789;-0.16759;-11;0;-20;1855;2987;-1197;256;0.132964;-0.1925208;-0.8083791;-0.5401662;-5;13;-1;922;3740;756;128;-0.0734072;0.132964;0.7614378;0.6301939;9;20;0;-510;3962;-250;4;-0.6135734;0.1703601;-0.4432133;-0.6309256;35;-16;20;2304;3076;1028;16;0.7199565;-0.6772853;0.01246537;-0.1509695;-14;36;-1;1107;4029;-158;2;0.5872576;-0.6866958;-0.3268698;-0.2770083;-6;24;1;616;3818;-576;8;0.3518005;-0.7728519;0.3614958;0.3850415;0;14;0;1167;3455;1831;0.6264855;2.477333;1.151569;0.631931;2.973569;0.9249834;0.6367084;3.408921;0.7239745;0.7528231;4.086639;0.4676971;0.5472025;4.418416;0.3180576;0.1923344;4.368282;0.4261986;-0.1345577;3.630743;0.881727;-0.23203;2.722237;0.6309004;1.060074;4.330547;0.3180552;1.32638;4.173988;0.4261943;1.490525;3.226661;0.4886591;1.29519;2.430007;0.01434577;0.314241;2.436185;1.163505;0.2172581;1.307094;0.2379742;0;0;0;0.314241;2.436185;1.163505;0.2172581;1.307094;0.2379742;0;0;0
808616.6741;NotLabelled;NONE;16384;-0.2797784;0.4626039;-0.7641715;-0.3518005;8;26;-14;-1510;3082;1776;65536;0.556468;-0.3711911;0.5249307;0.5263157;-29;4;41;-1804;3836;-1789;8192;0.6979057;-0.6509695;-0.2645429;-0.1385041;0;-11;18;-32;4052;542;32768;0.8071882;-0.5512465;0.1301939;-0.166205;-12;-4;-21;2287;3355;-1893;256;0.1315789;-0.1911357;-0.8089342;-0.5401662;-5;10;-2;808;3614;778;128;-0.07202215;0.1315789;0.7629542;0.6288089;11;15;1;-542;3928;-526;4;-0.6149584;0.1731302;-0.4376731;-0.6326882;21;38;24;2368;2996;648;16;0.7178258;-0.6786703;0.008310249;-0.1551246;-16;37;-2;963;4049;-72;2;0.5858725;-0.6829519;-0.33241;-0.2825485;-5;26;2;-82;3798;-570;8;0.3531856;-0.7748389;0.3573407;0.3836565;-5;8;2;1049;3549;1871;0.6252835;2.473136;1.148679;0.6307253;2.96903;0.9213436;0.6354994;3.404078;0.7196777;0.7508429;4.082487;0.4648844;0.5448539;4.414319;0.3158755;0.1900109;4.363503;0.4237797;-0.1342562;3.625788;0.8808976;-0.2303719;2.714209;0.6409349;1.057837;4.327105;0.3158737;1.324303;4.170655;0.4237771;1.491183;3.223956;0.4884884;1.298182;2.424155;0.01853442;0.3130393;2.432006;1.160681;0.2229952;1.307817;0.2285076;0;0;0;0.3130393;2.432006;1.160681;0.2229952;1.307817;0.2285076;0;0;0
808637.0457;NotLabelled;NONE;16384;-0.2783934;0.4653739;-0.7636316;-0.3504155;3;26;-16;-1788;2986;1632;65536;0.5527323;-0.3767313;0.5249307;0.5263157;-22;15;24;-2496;3928;-2243;8192;0.6984497;-0.6509695;-0.2645429;-0.1357341;0;-12;19;340;4038;500;32768;0.8070289;-0.5526316;0.1288089;-0.1634349;-4;-1;-15;2395;3599;-2381;256;0.1315789;-0.1897507;-0.8092602;-0.5401662;-7;6;-3;678;3718;874;128;-0.07202215;0.1301939;0.7631918;0.6288089;7;7;2;-362;3844;-510;4;-0.6191136;0.1745152;-0.433518;-0.6311141;13;29;10;2492;2238;-302;16;0.7156377;-0.6800554;0.004155125;-0.1592798;-18;39;-3;961;4003;-128;2;0.5858725;-0.6810209;-0.33518;-0.2839335;-4;17;3;-206;3854;-446;8;0.3531856;-0.7748389;0.3573407;0.3836565;-8;4;2;823;3529;1873;0.6143801;2.471176;1.147232;0.6198112;2.966085;0.9177585;0.6245756;3.400257;0.7142166;0.7395064;4.078447;0.4586554;0.5333107;4.410005;0.30932;0.1785153;4.359117;0.4173465;-0.1416746;3.621058;0.8767779;-0.2376898;2.706047;0.6502109;1.046341;4.323066;0.309318;1.312912;4.166879;0.4173438;1.48016;3.220589;0.4869077;1.287238;2.418339;0.0211128;0.3021365;2.430098;1.159427;0.2260236;1.308204;0.2232543;0;0;0;0.3021365;2.430098;1.159427;0.2260236;1.308204;0.2232543;0;0;0
808657.6692;NotLabelled;NONE;16384;-0.2783934;0.468144;-0.7632044;-0.3476454;0;17;-15;-2022;3104;1550;65536;0.5521507;-0.3795014;0.5235457;0.5263157;-9;16;-2;-2664;4124;-2535;8192;0.6971632;-0.6523545;-0.265928;-0.132964;0;-2;20;636;4072;484;32768;0.8072488;-0.5526316;0.1274238;-0.1634349;7;11;-8;2321;3519;-2297;256;0.1315789;-0.1897507;-0.8092602;-0.5401662;-10;0;-4;656;3710;926;128;-0.07202215;0.1288089;0.7634268;0.6288089;6;-1;4;-286;3816;-552;4;-0.6204986;0.1745152;-0.4307479;-0.6316504;7;-7;3;3046;2948;814;16;0.708095;-0.6855956;-0.002770083;-0.1689751;-20;47;-2;1161;4189;-50;2;0.5858725;-0.6791748;-0.3365651;-0.2867036;-5;12;3;-254;3862;-404;8;0.3518005;-0.7761054;0.3559557;0.3836565;-11;-1;3;1055;3621;1939;0.6111294;2.466451;1.148901;0.6165587;2.961199;0.9190816;0.6213217;3.395229;0.7152356;0.7347535;4.07341;0.4589818;0.5278218;4.404375;0.3093522;0.1731543;4.352833;0.4174887;-0.1447561;3.616847;0.881802;-0.2361238;2.698662;0.6664317;1.041037;4.318539;0.3093503;1.307961;4.163032;0.417486;1.47878;3.217469;0.4882615;1.288292;2.412156;0.02677214;0.2988859;2.425382;1.161128;0.2286205;1.308564;0.2184516;0;0;0;0.2988859;2.425382;1.161128;0.2286205;1.308564;0.2184516;0;0;0
808677.6738;NotLabelled;NONE;16384;-0.2770083;0.468144;-0.7643372;-0.3462604;-7;-7;0;-1742;3508;1560;65536;0.5575665;-0.3753462;0.5193906;0.5277008;7;-1;-41;-2014;3662;-1863;8192;0.694482;-0.6523545;-0.2728532;-0.132964;0;20;21;376;4144;566;32768;0.8086437;-0.5498615;0.1232687;-0.1689751;12;19;-2;2089;3295;-1399;256;0.132964;-0.1897507;-0.8099568;-0.5387812;-12;-7;-6;532;3816;1016;128;-0.0734072;0.1288089;0.7644337;0.6274238;6;-5;4;-210;3898;-502;4;-0.6204986;0.1745152;-0.4293629;-0.6325926;0;7;7;2984;3842;860;16;0.7057164;-0.6869806;-0.006925208;-0.1731302;-16;34;-8;1337;4209;120;2;0.5858725;-0.6791748;-0.3365651;-0.2867036;-4;-5;4;-268;3808;-518;8;0.3504155;-0.7767318;0.3559557;0.3836565;-13;-3;3;1041;3737;2037;0.6200228;2.462503;1.138213;0.6254503;2.957091;0.9080499;0.6302117;3.39098;0.7039028;0.7436156;4.069161;0.447637;0.5366675;4.400127;0.2980299;0.1820119;4.348584;0.4062054;-0.1376165;3.615041;0.8731972;-0.2251844;2.695754;0.6609695;1.049883;4.31429;0.2979721;1.316818;4.158782;0.4060786;1.489509;3.213994;0.4824134;1.301126;2.408022;0.02121007;0.3077794;2.421443;1.15047;0.2435919;1.308357;0.2029578;0;0;0;0.3077794;2.421443;1.15047;0.2435919;1.308357;0.2029578;0;0;0
808697.8145;NotLabelled;NONE;16384;-0.2797784;0.4653739;-0.7650195;-0.3462604;-11;-4;10;-1660;3654;1518;65536;0.562112;-0.368421;0.5166205;0.5304709;8;1;-44;-1694;3622;-1379;8192;0.6946878;-0.6509695;-0.2756233;-0.132964;1;21;23;96;4064;664;32768;0.8084776;-0.5498615;0.1204986;-0.1717452;8;17;-3;2081;3213;-1191;256;0.1385041;-0.1897507;-0.8108659;-0.536011;-13;-13;-9;312;3850;1046;128;-0.07756232;0.1301939;0.7649242;0.6260388;14;-11;4;-96;4140;-502;4;-0.6232687;0.1745152;-0.4279778;-0.6308055;-4;10;7;2536;3650;1180;16;0.7039909;-0.6883656;-0.009695291;-0.1745152;-13;8;-15;1965;4103;348;2;0.5872576;-0.6792467;-0.33518;-0.2853186;-3;-15;6;96;4098;-432;8;0.3490305;-0.7773033;0.3545706;0.3850415;-13;2;4;1027;3817;2151;0.6165813;2.461293;1.135888;0.6219998;2.955065;0.90398;0.6267533;3.38823;0.6983018;0.7393155;4.065703;0.4398001;0.5319331;4.396016;0.289355;0.1774269;4.344503;0.3980333;-0.1449347;3.612063;0.8648772;-0.2298894;2.696051;0.6379344;1.045223;4.310629;0.2890719;1.312399;4.155695;0.3974085;1.488883;3.212265;0.4814775;1.305556;2.409083;0.01341951;0.3043383;2.420276;1.148303;0.2458813;1.308566;0.1988064;0;0;0;0.3043383;2.420276;1.148303;0.2458813;1.308566;0.1988064;0;0;0
808718.6615;NotLabelled;NONE;16384;-0.2825485;0.4639889;-0.7648427;-0.3462604;-11;4;17;-1736;3622;1320;65536;0.5672908;-0.3642659;0.5124654;0.5318559;6;8;-38;-1188;3746;-983;8192;0.6927576;-0.6509695;-0.2797784;-0.134349;5;14;23;88;4048;682;32768;0.8083875;-0.5498615;0.1191136;-0.1731302;3;18;-5;1825;3123;-1127;256;0.1412742;-0.1911357;-0.8100623;-0.536011;-9;-16;-8;528;3930;1244;128;-0.08033241;0.1301939;0.7657702;0.6246537;11;-14;5;-128;4200;-584;4;-0.6246537;0.1731302;-0.4293629;-0.628873;-10;-4;8;2228;3152;1150;16;0.7016149;-0.6911357;-0.009695291;-0.1731302;-10;-15;-23;1875;3999;372;2;0.5872576;-0.6810842;-0.333795;-0.2825485;-1;-4;10;774;4364;-352;8;0.3462604;-0.7791705;0.3531856;0.3850415;-13;3;6;719;3719;2507;0.6064906;2.458632;1.136896;0.611902;2.951761;0.9036236;0.6166491;3.384356;0.696749;0.7257617;4.060794;0.4340917;0.5166901;4.389163;0.2817418;0.162489;4.336566;0.3908939;-0.1679316;3.604372;0.8524593;-0.2500437;2.692561;0.6082118;1.030394;4.306303;0.2817397;1.298376;4.153347;0.3908908;1.478119;3.211094;0.481038;1.300983;2.407831;0.01074064;0.2942481;2.417649;1.149433;0.244484;1.309327;0.1954914;0;0;0;0.2942481;2.417649;1.149433;0.244484;1.309327;0.1954914;0;0;0
808740.6641;NotLabelled;NONE;16384;-0.2867036;0.4639889;-0.7632949;-0.3462604;-10;11;19;-1890;3570;1264;65536;0.5715424;-0.3614958;0.5096953;0.5318559;5;14;-30;-998;3818;-777;8192;0.6919;-0.6509695;-0.2825485;-0.132964;8;3;21;112;4086;622;32768;0.8081928;-0.5498615;0.1163435;-0.1759003;-2;18;-9;1783;3059;-1035;256;0.1440443;-0.1911357;-0.8104897;-0.534626;-7;-7;-7;726;3958;1378;128;-0.08310249;0.1315789;0.7652377;0.6246537;1;-9;5;-414;4178;-418;4;-0.6246537;0.1703601;-0.4307479;-0.6286823;-10;-15;7;2296;2878;1224;16;0.7015944;-0.6925207;-0.009695291;-0.16759;-11;-33;-29;1621;4209;166;2;0.5872576;-0.6808645;-0.3365651;-0.2797784;-7;2;13;808;4386;-156;8;0.3434903;-0.781021;0.3518005;0.3850415;-13;-3;3;927;3673;2619;0.6104829;2.457685;1.130395;0.6158855;2.949998;0.8954052;0.6206248;3.381869;0.6870241;0.7290814;4.058734;0.4251952;0.5196964;4.387066;0.2731969;0.1655294;4.333969;0.3822179;-0.1708555;3.600223;0.8369591;-0.248746;2.692095;0.57805;1.033487;4.304743;0.2731949;1.301607;4.151936;0.3822149;1.481282;3.2103;0.4787238;1.308059;2.406993;0.007046103;0.2982408;2.416746;1.143087;0.246659;1.31012;0.1872743;0;0;0;0.2982408;2.416746;1.143087;0.246659;1.31012;0.1872743;0;0;0
808761.6827;NotLabelled;NONE;16384;-0.2894737;0.4639889;-0.7622487;-0.3462604;-8;11;19;-2074;3460;1130;65536;0.5748707;-0.3601108;0.5069252;0.5318559;4;15;-23;-894;3866;-643;8192;0.690026;-0.6523545;-0.2839335;-0.132964;9;-8;17;236;4132;648;32768;0.8073402;-0.5512465;0.1135734;-0.1772853;-9;14;-14;1871;3083;-1161;256;0.1454294;-0.1911357;-0.8102422;-0.534626;-1;-1;-6;694;3878;1432;128;-0.08310249;0.1315789;0.7652377;0.6246537;2;-2;5;-470;4204;-242;4;-0.6246537;0.1648199;-0.4307479;-0.6301574;-6;-15;5;2896;2776;606;16;0.7003464;-0.6966759;-0.009695291;-0.1551246;-12;-17;-25;305;4101;188;2;0.5872576;-0.6800568;-0.3393352;-0.2783934;-11;7;13;656;4348;-232;8;0.3421052;-0.7816287;0.3518005;0.3850415;-14;-14;0;879;3557;2479;0.606276;2.457373;1.125611;0.6116805;2.949867;0.8910007;0.6164216;3.381899;0.682952;0.7231021;4.058229;0.4190211;0.5128445;4.385588;0.2661306;0.1588602;4.331959;0.375484;-0.1818937;3.595632;0.8227411;-0.258088;2.690361;0.5535272;1.026834;4.304517;0.2661286;1.295379;4.152695;0.3754808;1.477793;3.212176;0.4775761;1.308456;2.408773;0.00465095;0.2940339;2.416425;1.138269;0.2394366;1.312554;0.1794432;0;0;0;0.2940339;2.416425;1.138269;0.2394366;1.312554;0.1794432;0;0;0
808781.6621;NotLabelled;NONE;16384;-0.2950138;0.4639889;-0.7594892;-0.3476454;-2;9;13;-2116;3536;1030;65536;0.5814899;-0.3573407;0.5027701;0.5304709;7;10;-18;-954;4190;-539;8192;0.6893237;-0.6551247;-0.2811634;-0.1288089;6;-21;0;720;4260;506;32768;0.8041058;-0.5567867;0.1094183;-0.1772853;-21;7;-22;1891;3207;-1309;256;0.1454294;-0.1911357;-0.8102422;-0.534626;0;-1;-4;772;3896;1474;128;-0.08448754;0.1315789;0.765086;0.6246537;7;-4;4;-628;4114;-584;4;-0.6232687;0.1634349;-0.4307479;-0.6318873;0;-23;1;2352;3104;288;16;0.6966759;-0.7012333;-0.01108033;-0.1509695;-10;-10;-22;473;4225;318;2;0.5872576;-0.6799299;-0.3407202;-0.2770083;-11;4;13;248;4208;-354;8;0.3393352;-0.7808417;0.3531856;0.3878116;-18;-23;-1;955;3571;2259;0.5973842;2.454288;1.111903;0.6027887;2.946782;0.8772923;0.6075296;3.378814;0.6692436;0.7131357;4.055338;0.4053788;0.5023586;4.382376;0.2525164;0.1484586;4.328172;0.3618592;-0.1950266;3.590135;0.8041797;-0.2687987;2.686883;0.5276059;1.016477;4.302125;0.2525145;1.285262;4.150721;0.3618565;1.465624;3.210372;0.4690462;1.298895;2.405116;-0.001643658;0.2851421;2.41334;1.124561;0.226712;1.317737;0.1565219;0;0;0;0.2851421;2.41334;1.124561;0.226712;1.317737;0.1565219;0;0;0
808801.6717;NotLabelled;NONE;16384;-0.2977839;0.4653739;-0.7575582;-0.3476454;-2;12;11;-2218;3516;1008;65536;0.5814899;-0.3573407;0.5027701;0.5304709;7;6;-15;-922;4260;-549;8192;0.6893877;-0.6565097;-0.2783934;-0.1274238;2;-19;-6;974;4104;448;32768;0.8031605;-0.5595568;0.1066482;-0.1745152;-24;2;-25;1869;3451;-1293;256;0.1468144;-0.1911357;-0.8099924;-0.534626;0;-2;-2;516;3764;1462;128;-0.08587258;0.1315789;0.7660607;0.6232687;6;-3;3;-212;4178;-1086;4;-0.6191136;0.1634349;-0.432133;-0.6350185;-1;-17;-4;1680;3340;288;16;0.6966759;-0.7018007;-0.01246537;-0.1481994;-9;-10;-19;517;4199;196;2;0.5886427;-0.6780341;-0.3421052;-0.2770083;-11;-9;11;48;4092;-702;8;0.33518;-0.7799333;0.3545706;0.3919668;-22;-35;-4;1099;3527;2087;0.596885;2.455393;1.093899;0.6022894;2.947895;0.8593048;0.6070305;3.379933;0.6512702;0.7126374;4.056458;0.3874058;0.5018609;4.383496;0.2345426;0.1479605;4.329291;0.3438843;-0.1966532;3.586326;0.7769815;-0.2701403;2.687118;0.487463;1.015979;4.303245;0.2345422;1.284763;4.15184;0.3438851;1.463809;3.211684;0.4548917;1.297308;2.399967;-0.004653573;0.2846428;2.414445;1.106556;0.2268256;1.319855;0.1373346;0;0;0;0.2846428;2.414445;1.106556;0.2268256;1.319855;0.1373346;0;0;0
808822.786;NotLabelled;NONE;16384;-0.299169;0.466759;-0.7555208;-0.3490305;-1;12;10;-2212;3506;1030;65536;0.5835317;-0.3559557;0.501385;0.5304709;7;4;-13;-828;4132;-471;8192;0.6899453;-0.6565097;-0.2770083;-0.1274238;1;-10;-10;1186;4038;400;32768;0.8009146;-0.5637119;0.1038781;-0.1731302;-23;-1;-24;1861;3737;-1349;256;0.1481994;-0.1911357;-0.8097401;-0.534626;0;-4;-1;356;3714;1652;128;-0.08587258;0.1301939;0.7674218;0.6218836;5;-4;2;-130;4086;-1202;4;-0.6177285;0.1648199;-0.433518;-0.6350653;-4;-12;-6;1904;3192;80;16;0.6952909;-0.7037252;-0.01385042;-0.1454294;-8;0;-15;215;4129;368;2;0.5900277;-0.6799045;-0.3393352;-0.2728532;-6;-27;5;208;3972;-624;8;0.3254848;-0.776633;0.3614958;0.400277;-26;-50;-9;1315;3281;1907;0.5862935;2.461416;1.08399;0.5916891;2.95309;0.8476664;0.596422;3.384396;0.6381154;0.7009523;4.061112;0.3743165;0.489656;4.387828;0.2214819;0.1358414;4.33305;0.3308144;-0.2101535;3.588169;0.759498;-0.2829663;2.68896;0.4698091;1.003901;4.308397;0.2214798;1.272926;4.157413;0.3308112;1.4495;3.216771;0.441677;1.287694;2.400347;-0.01115644;0.2740519;2.420512;1.096801;0.2207055;1.321389;0.1324662;0;0;0;0.2740519;2.420512;1.096801;0.2207055;1.321389;0.1324662;0;0;0
808842.673;NotLabelled;NONE;16384;-0.300554;0.468144;-0.7541128;-0.3490305;-1;11;10;-2226;3402;1082;65536;0.5843744;-0.3545706;0.501385;0.5304709;4;2;-7;-730;3998;-419;8192;0.6894349;-0.6578947;-0.2756233;-0.1260388;2;-4;-10;1292;3828;364;32768;0.7997317;-0.566482;0.1024931;-0.1703601;-19;3;-22;1557;3849;-1387;256;0.1481994;-0.1911357;-0.8106529;-0.533241;-2;-5;0;286;3554;1718;128;-0.08725762;0.1301939;0.7683861;0.6204986;6;-6;2;-94;3998;-1022;4;-0.6149584;0.1648199;-0.434903;-0.6368045;2;-11;-3;2674;2882;10;16;0.6939058;-0.7053466;-0.01523546;-0.1440443;-6;1;-14;829;4183;420;2;0.5914127;-0.6817304;-0.3365651;-0.2686981;-6;-37;5;478;3832;-364;8;0.3199446;-0.7748352;0.365651;0.4044321;-23;-46;-10;1535;3057;2141;0.5813031;2.467271;1.069533;0.5866875;2.957938;0.8311253;0.5914108;3.38835;0.6197459;0.6948648;4.065258;0.3560112;0.4830494;4.39165;0.2032039;0.129321;4.336296;0.3125263;-0.2152971;3.588831;0.7378047;-0.2870206;2.691163;0.4431082;0.997421;4.31304;0.2032018;1.266685;4.162475;0.3125232;1.442229;3.221465;0.4218956;1.282256;2.399928;-0.02225804;0.269062;2.426421;1.082533;0.2174368;1.322824;0.1232278;0;0;0;0.269062;2.426421;1.082533;0.2174368;1.322824;0.1232278;0;0;0
808863.8016;NotLabelled;NONE;16384;-0.301939;0.4695291;-0.7526972;-0.3490305;-4;13;11;-2178;3234;1066;65536;0.5835317;-0.3559557;0.501385;0.5304709;1;7;-1;-648;3870;-457;8192;0.6891803;-0.6578947;-0.2756233;-0.1274238;8;2;-8;1286;3682;376;32768;0.7985795;-0.5692521;0.09833795;-0.1689751;-13;11;-19;1433;3865;-1221;256;0.1495845;-0.1925208;-0.8100706;-0.533241;-2;-11;-1;188;3442;1732;128;-0.08864266;0.1301939;0.7693442;0.6191136;10;-11;2;-6;3732;-1040;4;-0.6149584;0.1648199;-0.432133;-0.6386874;0;-2;3;2384;3350;588;16;0.6925207;-0.7072004;-0.01800554;-0.1412742;-4;0;-12;719;4165;324;2;0.5941828;-0.6857747;-0.3310249;-0.2590028;0;-35;10;1130;3662;-470;8;0.3144044;-0.7729487;0.3698061;0.4085872;-19;-40;-9;1597;2965;2029;0.5802394;2.471567;1.057706;0.5856146;2.961397;0.8175815;0.5903296;3.391066;0.6046963;0.6941727;4.067042;0.3387345;0.4825324;4.393104;0.184982;0.1288159;4.338375;0.2946558;-0.2151994;3.589851;0.7185609;-0.2881128;2.693148;0.4212301;0.9968436;4.314099;0.18498;1.266045;4.163678;0.2946527;1.4401;3.222563;0.4054789;1.28153;2.397099;-0.03184462;0.2679988;2.430764;1.070861;0.21623;1.323715;0.1155483;0;0;0;0.2679988;2.430764;1.070861;0.21623;1.323715;0.1155483;0;0;0
808883.6748;NotLabelled;NONE;16384;-0.3047091;0.4695291;-0.7522216;-0.3476454;-10;17;13;-2186;3170;1010;65536;0.5839425;-0.3573407;0.501385;0.5290859;-3;13;5;-638;3758;-507;8192;0.6875975;-0.6592798;-0.2756233;-0.1288089;12;6;-4;1102;3606;424;32768;0.7969347;-0.5720221;0.09556787;-0.1689751;-8;15;-16;1355;3889;-1073;256;0.1523546;-0.1925208;-0.8104647;-0.5318559;0;-16;-1;106;3464;1710;128;-0.09141274;0.1301939;0.7701329;0.6177285;5;-16;0;106;3578;-1204;4;-0.6135734;0.1648199;-0.433518;-0.6390808;-7;-6;1;1980;3314;578;16;0.6925207;-0.7077115;-0.01939058;-0.1385041;-2;-7;-13;941;4183;282;2;0.5941828;-0.6891678;-0.3282548;-0.2534626;1;-39;12;1456;3628;-564;8;0.3102493;-0.7710876;0.3725762;0.4127424;-14;-35;-9;1695;2927;1917;0.5621362;2.470506;1.051345;0.5675022;2.959494;0.8095101;0.5722092;3.388416;0.5951241;0.6764698;4.064629;0.3299288;0.4650353;4.390978;0.1765018;0.1112699;4.336321;0.2860547;-0.233776;3.586738;0.7072417;-0.3043699;2.689071;0.4122725;0.979303;4.311688;0.1764996;1.248403;4.160998;0.2860515;1.42037;3.219471;0.3966356;1.267934;2.389453;-0.03420234;0.249896;2.429749;1.064654;0.2104489;1.32548;0.1055428;0;0;0;0.249896;2.429749;1.064654;0.2104489;1.32548;0.1055428;0;0;0
808903.6692;NotLabelled;NONE;16384;-0.3116343;0.4736842;-0.748043;-0.3448753;-17;23;17;-2434;3000;792;65536;0.5833542;-0.3642659;0.5;0.5263157;-9;23;15;-628;3724;-555;8192;0.6854473;-0.6606648;-0.2770083;-0.1301939;13;2;0;1096;3590;580;32768;0.7954457;-0.5747922;0.08864266;-0.1703601;-2;16;-8;1259;3581;-987;256;0.1537396;-0.1939058;-0.8098728;-0.5318559;0;-17;-2;-24;3396;1742;128;-0.09418282;0.1315789;0.7706733;0.6163435;6;-22;0;276;3652;-1354;4;-0.6121883;0.1634349;-0.434903;-0.6398233;-12;-20;3;2014;3100;388;16;0.6911357;-0.7093334;-0.01939058;-0.1371191;-2;-10;-14;849;4121;296;2;0.5927978;-0.6930234;-0.3268698;-0.2479224;3;-31;13;1478;3580;-470;8;0.3074792;-0.7694339;0.3767313;0.4141274;-7;-30;-8;2037;2887;1829;0.553627;2.474215;1.04406;0.5589839;2.962364;0.8005362;0.5636826;3.390543;0.5846688;0.6661925;4.066199;0.317381;0.4539022;4.391572;0.163066;0.1003197;4.336396;0.2729485;-0.2504621;3.58664;0.6890591;-0.3205438;2.688479;0.3954751;0.9683593;4.313522;0.1630644;1.237872;4.163813;0.2729461;1.405061;3.221736;0.3861528;1.255473;2.388423;-0.03928757;0.2413874;2.433504;1.057522;0.204112;1.326816;0.1011168;0;0;0;0.2413874;2.433504;1.057522;0.204112;1.326816;0.1011168;0;0;0
808924.6628;NotLabelled;NONE;16384;-0.3144044;0.4750692;-0.7472771;-0.3421052;-19;20;18;-2630;2804;710;65536;0.5832374;-0.368421;0.5;0.5235457;-9;27;15;-666;3772;-457;8192;0.6835471;-0.6620498;-0.2783934;-0.1301939;12;0;-1;1044;3578;684;32768;0.7942981;-0.5761772;0.08725762;-0.1717452;-3;13;-5;1311;3457;-937;256;0.1592798;-0.1966759;-0.8090422;-0.5304709;-3;-15;-4;154;3198;1636;128;-0.09972299;0.134349;0.7728073;0.6121883;14;-19;1;182;3624;-1116;4;-0.6108033;0.1592798;-0.4362881;-0.6412503;-15;-31;7;2298;3038;176;16;0.6911357;-0.7098632;-0.01939058;-0.134349;-2;-11;-14;691;4141;164;2;0.5914127;-0.6963248;-0.3254848;-0.2437673;7;-33;18;1702;3450;-692;8;0.3047091;-0.7677417;0.3808864;0.4155124;2;-26;-8;2319;2707;1861;0.5540605;2.47487;1.037933;0.5594099;2.962348;0.7930695;0.5641021;3.389932;0.5760268;0.6670277;4.06583;0.3095117;0.4549422;4.391492;0.1555246;0.1013109;4.336388;0.2652855;-0.2553242;3.58474;0.6729224;-0.3210412;2.683336;0.3884086;0.9693562;4.31316;0.1555226;1.238768;4.16318;0.2652825;1.40193;3.22094;0.3829199;1.259793;2.383082;-0.03609908;0.2418213;2.434196;1.051516;0.2048017;1.327122;0.09554754;0;0;0;0.2418213;2.434196;1.051516;0.2048017;1.327122;0.09554754;0;0;0
808945.7969;NotLabelled;NONE;16384;-0.3171745;0.4764543;-0.7458562;-0.3407202;-18;10;14;-2710;2734;570;65536;0.5830778;-0.3725762;0.5;0.5207756;-6;25;13;-514;4008;-365;8192;0.6827666;-0.6634349;-0.2770083;-0.1301939;9;-8;-2;900;3556;662;32768;0.794449;-0.5761772;0.08587258;-0.1717452;-7;6;-1;1343;3377;-853;256;0.1606648;-0.1980609;-0.8093373;-0.5290859;-6;-12;-3;182;3180;1624;128;-0.1024931;0.1371191;0.7730542;0.6108033;10;-19;1;28;3378;-1196;4;-0.6080332;0.1551246;-0.4376731;-0.643952;-15;-31;10;2670;2944;146;16;0.6911357;-0.7103819;-0.01939058;-0.1315789;-4;-12;-14;647;4105;-16;2;0.5872576;-0.7053248;-0.3227147;-0.2313019;19;-43;24;1972;3214;-838;8;0.3033241;-0.7648177;0.3878116;0.4155124;18;-13;-8;1919;2583;2165;0.5439687;2.471914;1.040351;0.5492941;2.957181;0.7911346;0.5539647;3.382806;0.5702741;0.6559768;4.058636;0.3032338;0.4434482;4.383903;0.1490238;0.08990183;4.328419;0.258867;-0.276699;3.577859;0.6596066;-0.339501;2.674567;0.3804697;0.9579642;4.306243;0.1490222;1.227584;4.156698;0.2588651;1.387178;3.214724;0.3833178;1.249405;2.375812;-0.0350517;0.2317309;2.431363;1.054328;0.2000407;1.327964;0.09393029;0;0;0;0.2317309;2.431363;1.054328;0.2000407;1.327964;0.09393029;0;0;0
808966.6863;NotLabelled;NONE;16384;-0.3185596;0.4764543;-0.7458973;-0.3393352;-15;2;7;-2596;2720;482;65536;0.5816416;-0.3767313;0.5;0.5193906;0;18;7;-396;4100;-291;8192;0.6819793;-0.66482;-0.2756233;-0.1301939;5;-19;-5;836;3508;620;32768;0.7934427;-0.5775623;0.08587258;-0.1717452;-11;0;0;1243;3225;-883;256;0.1620499;-0.1980609;-0.8090611;-0.5290859;-6;-9;-2;136;3158;1662;128;-0.1038781;0.1385041;0.7737153;0.6094183;11;-17;1;78;3334;-1390;4;-0.6066482;0.1509695;-0.4362881;-0.6471776;-12;-15;16;3156;2882;44;16;0.6911357;-0.7108894;-0.01939058;-0.1288089;-5;-10;-13;573;4279;-98;2;0.5831025;-0.7109865;-0.3227147;-0.2243767;17;-30;23;2472;3636;-606;8;0.3060942;-0.7630083;0.3891967;0.4155124;23;2;-6;1421;2637;2205;0.5410587;2.470082;1.039835;0.5463785;2.954859;0.7896673;0.5510443;3.380051;0.5679728;0.6538839;4.055192;0.2995109;0.4417459;4.380427;0.1446981;0.08815937;4.325646;0.2547654;-0.2818282;3.57465;0.6515539;-0.3442884;2.669503;0.3784131;0.9561566;4.302073;0.1446963;1.225609;4.152391;0.2547626;1.381596;3.209951;0.3802561;1.247462;2.370424;-0.03806114;0.2288212;2.429559;1.053898;0.1961227;1.328784;0.09052613;0;0;0;0.2288212;2.429559;1.053898;0.1961227;1.328784;0.09052613;0;0;0
808986.6656;NotLabelled;NONE;16384;-0.3185596;0.4764543;-0.7465258;-0.3379501;-12;-5;0;-2520;2754;456;65536;0.5819779;-0.3781163;0.5;0.5180055;4;9;2;-288;4128;-199;8192;0.6841685;-0.666205;-0.2686981;-0.1260388;0;-32;-13;1054;3554;402;32768;0.7903953;-0.5817174;0.08864266;-0.1703601;-18;-12;1;1195;3247;-817;256;0.1634349;-0.1980609;-0.8105878;-0.5263157;-8;-5;0;338;3414;1904;128;-0.1066482;0.1385041;0.7755132;0.6066482;8;-11;0;-134;3414;-1656;4;-0.6121883;0.1481994;-0.4307479;-0.6463115;1;25;22;2838;3140;-100;16;0.6897507;-0.7129332;-0.02077562;-0.1246537;-7;0;-7;351;4155;330;2;0.5817174;-0.7129871;-0.3227147;-0.2216066;7;-4;19;2582;3828;-668;8;0.3088643;-0.7626449;0.3891967;0.4141274;25;11;-6;1247;3041;2039;0.5334542;2.464346;1.04352;0.5387664;2.948444;0.7920394;0.5434257;3.373034;0.5691934;0.6451935;4.048363;0.3007964;0.4325398;4.373275;0.1460114;0.07903929;4.31792;0.2560683;-0.2947513;3.567587;0.6505423;-0.3554552;2.660187;0.3845752;0.9470748;4.29574;0.1460093;1.216764;4.146478;0.2560657;1.369185;3.203583;0.3825284;1.234336;2.363072;-0.03357828;0.2212169;2.423861;1.057702;0.1923347;1.329584;0.08683561;0;0;0;0.2212169;2.423861;1.057702;0.1923347;1.329584;0.08683561;0;0;0
809006.6769;NotLabelled;NONE;16384;-0.3157895;0.4764543;-0.7483264;-0.3365651;-5;-9;-11;-2006;3230;632;65536;0.5820175;-0.3781163;0.501385;0.5166205;14;0;-2;-440;4058;-173;8192;0.6854752;-0.66759;-0.2631579;-0.1232687;-2;-38;-17;1228;3794;246;32768;0.7898102;-0.5831025;0.0900277;-0.16759;-19;-17;0;1237;3517;-831;256;0.1634349;-0.1980609;-0.8114855;-0.5249307;-12;0;2;556;3632;1998;128;-0.1066482;0.1398892;0.7774243;0.6038781;14;-2;-1;-376;3708;-1646;4;-0.6149584;0.1495845;-0.4279778;-0.645202;2;33;18;2192;3372;64;16;0.6883656;-0.714229;-0.02216066;-0.1246537;-6;6;-1;133;4155;498;2;0.5789474;-0.7133489;-0.3268698;-0.2216066;2;32;12;2000;4002;-508;8;0.3144044;-0.7611305;0.3891967;0.4127424;26;18;-6;1211;3319;1953;0.5222605;2.451541;1.047543;0.5275536;2.933895;0.7927322;0.532196;3.356938;0.5669652;0.6334746;4.030559;0.2941298;0.4205372;4.354501;0.1377098;0.06724588;4.299858;0.2487885;-0.3093867;3.548339;0.6382725;-0.3707441;2.640485;0.3740145;0.9350685;4.276944;0.1372122;1.204962;4.128363;0.2476898;1.356399;3.183911;0.3632446;1.214081;2.341181;-0.04582739;0.2100246;2.411155;1.062028;0.1874914;1.330977;0.07533292;0;0;0;0.2100246;2.411155;1.062028;0.1874914;1.330977;0.07533292;0;0;0
809027.8189;NotLabelled;NONE;16384;-0.3130194;0.4764543;-0.7494892;-0.3365651;-2;0;-13;-1912;3484;792;65536;0.5820505;-0.3781163;0.5027701;0.5152354;14;-3;0;-522;3982;-141;8192;0.6861997;-0.6689751;-0.2590028;-0.1204986;-1;-36;-21;1432;4066;140;32768;0.7880205;-0.5858725;0.09279778;-0.1648199;-20;-19;0;1257;3883;-753;256;0.1620499;-0.1966759;-0.8156542;-0.5193906;-18;12;9;712;3904;2110;128;-0.1052632;0.1371191;0.7834317;0.5969529;23;16;-4;-574;4160;-1758;4;-0.6191136;0.1523546;-0.4265928;-0.6414866;0;38;12;1586;3422;194;16;0.6869806;-0.715517;-0.0235457;-0.1246537;-3;6;2;187;4201;468;2;0.5775623;-0.7121229;-0.3310249;-0.2229917;0;38;3;1096;4026;-438;8;0.3199446;-0.7610258;0.3878116;0.4099723;25;24;-4;1269;3375;1787;0.5161946;2.448724;1.045246;0.5214703;2.929491;0.7874545;0.5260972;3.35113;0.5590736;0.628057;4.023795;0.2841406;0.415459;4.347409;0.1265858;0.06207009;4.293409;0.237668;-0.3154806;3.547833;0.6375459;-0.380147;2.639907;0.3743265;0.9299268;4.269432;0.1265835;1.199646;4.120985;0.2376645;1.34916;3.176598;0.3562236;1.206017;2.332416;-0.04955065;0.2039595;2.408428;1.060001;0.1880912;1.331185;0.06997435;0;0;0;0.2039595;2.408428;1.060001;0.1880912;1.331185;0.06997435;0;0;0
809047.8504;NotLabelled;NONE;16384;-0.3116343;0.4778393;-0.7498053;-0.33518;0;8;-12;-1946;3700;1038;65536;0.5817505;-0.3767313;0.5041551;0.5152354;13;-5;5;-758;4002;-185;8192;0.6871579;-0.6703601;-0.2534626;-0.1191136;-1;-30;-22;1542;4280;18;32768;0.7863646;-0.5886427;0.09418282;-0.1620499;-16;-22;-1;1391;4267;-715;256;0.1606648;-0.1952908;-0.8180169;-0.5166205;-21;18;8;538;3866;2092;128;-0.1038781;0.134349;0.7861975;0.5941828;26;16;-2;-278;4152;-1612;4;-0.6232687;0.1537396;-0.4238227;-0.6389638;2;25;7;1642;3238;242;16;0.6869806;-0.7152274;-0.02493075;-0.1260388;0;6;6;111;4163;500;2;0.5747922;-0.7095605;-0.3365651;-0.2299169;3;18;-4;124;3618;-624;8;0.3282548;-0.7611204;0.3850415;0.4058172;17;13;-3;979;3443;1875;0.5236918;2.448207;1.037822;0.5289134;2.924042;0.7710342;0.5334922;3.341311;0.5347641;0.6358842;4.009824;0.2500383;0.423376;4.331794;0.0890298;0.07038765;4.280288;0.2025439;-0.2998606;3.52891;0.5983692;-0.3700407;2.620924;0.3367745;0.9376317;4.252441;0.08764219;1.207495;4.104824;0.1994774;1.3573;3.158037;0.2965769;1.206254;2.312088;-0.1026006;0.2114598;2.408197;1.053397;0.1892385;1.331369;0.06303952;0;0;0;0.2114598;2.408197;1.053397;0.1892385;1.331369;0.06303952;0;0;0
809067.6804;NotLabelled;NONE;16384;-0.3116343;0.4806094;-0.7480327;-0.33518;0;15;-6;-2046;3674;1188;65536;0.5793383;-0.3767313;0.5069252;0.5152354;9;-2;13;-878;3908;-327;8192;0.6886763;-0.6703601;-0.2493075;-0.1191136;-1;-23;-20;1646;4356;-40;32768;0.7855555;-0.5900277;0.09695291;-0.1592798;-13;-22;-1;1269;4625;-759;256;0.1592798;-0.1911357;-0.8210084;-0.5138504;-20;21;6;356;3760;1876;128;-0.1024931;0.1315789;0.7889317;0.5914127;23;10;-2;112;4086;-1510;4;-0.6246537;0.1551246;-0.4224377;-0.6381932;4;16;3;1998;3186;304;16;0.6869806;-0.7152274;-0.02493075;-0.1260388;3;8;11;-19;4081;514;2;0.5747922;-0.7086569;-0.3365651;-0.232687;7;10;-9;-2;3910;-512;8;0.3310249;-0.7606199;0.3836565;0.4058172;9;1;-2;675;3623;1823;0.5213624;2.444147;1.042259;0.5265593;2.917729;0.7714933;0.5311164;3.333004;0.5317343;0.6346128;3.999266;0.2421724;0.4226736;4.320231;0.07843257;0.06946038;4.269925;0.1917855;-0.3038317;3.528222;0.6027099;-0.377093;2.620625;0.3406094;0.9368513;4.240362;0.07843041;1.206395;4.09332;0.1917822;1.351714;3.147446;0.3035058;1.197203;2.299146;-0.08930564;0.2091319;2.404268;1.058197;0.1889217;1.331391;0.06351995;0;0;0;0.2091319;2.404268;1.058197;0.1889217;1.331391;0.06351995;0;0;0
809088.6681;NotLabelled;NONE;16384;-0.3116343;0.4819945;-0.7471411;-0.33518;-2;18;-1;-2108;3640;1360;65536;0.5784518;-0.3781163;0.5083103;0.5138504;4;1;21;-858;3906;-457;8192;0.6901664;-0.6703601;-0.2451524;-0.1191136;1;-16;-16;1786;4288;-62;32768;0.7848983;-0.5914127;0.09833795;-0.1565097;-7;-12;0;1083;4745;-727;256;0.1578947;-0.1897507;-0.823323;-0.5110803;-17;12;5;244;3774;1872;128;-0.1038781;0.1301939;0.7910491;0.5886427;14;6;-2;230;3980;-1514;4;-0.6274238;0.1606648;-0.4224377;-0.6340919;5;15;-5;2366;3210;716;16;0.6869806;-0.7139227;-0.02631579;-0.132964;11;14;20;337;4197;668;2;0.5747922;-0.7085906;-0.333795;-0.2368421;6;-2;-15;-298;4080;-206;8;0.33241;-0.758573;0.3850415;0.4072022;2;-12;-2;539;3793;2109;0.5259975;2.443624;1.04073;0.5311695;2.914935;0.7660275;0.5357045;3.328197;0.5228165;0.6365253;3.992022;0.2267842;0.4232638;4.310699;0.06031489;0.07038713;4.260282;0.1746624;-0.2972024;3.518084;0.5898119;-0.3756427;2.609504;0.3326602;0.9377086;4.232569;0.06031245;1.207912;4.087521;0.1746582;1.351774;3.140632;0.2794604;1.19111;2.291515;-0.1090934;0.2137685;2.40388;1.057029;0.1894174;1.33139;0.06202582;0;0;0;0.2137685;2.40388;1.057029;0.1894174;1.33139;0.06202582;0;0;0
809108.7972;NotLabelled;NONE;16384;-0.3157895;0.4861496;-0.7439349;-0.33241;-6;24;7;-2398;3514;1324;65536;0.5744951;-0.3822715;0.5124654;0.5110803;-8;11;31;-780;3892;-609;8192;0.6895574;-0.6717451;-0.2423823;-0.1204986;6;5;-3;1510;4378;134;32768;0.7847235;-0.5914127;0.09972299;-0.1565097;2;0;3;1197;4839;-737;256;0.1578947;-0.1883656;-0.8244988;-0.5096953;-16;2;3;450;3932;1828;128;-0.1038781;0.1288089;0.7923043;0.5872576;10;7;-2;128;4020;-1470;4;-0.6274238;0.1634349;-0.4224377;-0.6333836;4;10;-7;2352;2966;788;16;0.6869806;-0.7131861;-0.02493075;-0.1371191;14;13;22;685;4105;654;2;0.5775623;-0.7078186;-0.3296399;-0.2382271;5;-19;-15;-282;4324;-196;8;0.33241;-0.7571226;0.3864266;0.4085872;-3;-26;-3;825;3951;2449;0.5356133;2.448408;1.041614;0.5407624;2.917643;0.763381;0.5452772;3.329069;0.5170747;0.646365;3.990582;0.2160031;0.4332043;4.308209;0.04741055;0.08041199;4.258966;0.1625276;-0.2835919;3.516524;0.580391;-0.3655972;2.60704;0.3275824;0.9475776;4.229609;0.0474081;1.217779;4.085167;0.1625238;1.359797;3.137301;0.2607972;1.196388;2.286761;-0.123475;0.2233855;2.408787;1.058236;0.1966341;1.329938;0.07019459;0;0;0;0.2233855;2.408787;1.058236;0.1966341;1.329938;0.07019459;0;0;0
809129.6756;NotLabelled;NONE;16384;-0.3171745;0.4875346;-0.7430564;-0.3310249;-7;26;13;-2478;3512;1362;65536;0.5707632;-0.3878116;0.5138504;0.5096953;-13;18;36;-704;4036;-697;8192;0.6888254;-0.6717451;-0.2437673;-0.1218837;4;8;1;1264;4516;318;32768;0.7845463;-0.5914127;0.101108;-0.1565097;4;1;4;1127;4639;-779;256;0.1592798;-0.1883656;-0.8267875;-0.5055401;-11;-7;2;620;3924;1706;128;-0.1038781;0.1274238;0.7955903;0.5831025;12;-7;-1;-192;4162;-1014;4;-0.6274238;0.1648199;-0.4224377;-0.6330246;2;0;-11;2452;2848;886;16;0.6883656;-0.7113102;-0.02493075;-0.1398892;18;6;21;877;4143;494;2;0.5789474;-0.7081424;-0.3254848;-0.2396122;6;-25;-12;-136;4414;-250;8;0.3296399;-0.7561654;0.3891967;0.4099723;-7;-33;-4;855;4075;2313;0.5423028;2.450971;1.043868;0.5474394;2.919058;0.763708;0.5519431;3.329467;0.5157118;0.6519036;3.989866;0.2118291;0.4381869;4.306487;0.04205298;0.08553712;4.257223;0.1575975;-0.2806472;3.514451;0.5729626;-0.3683675;2.601925;0.3333877;0.9526709;4.228615;0.0420512;1.223149;4.085035;0.1575946;1.35945;3.136116;0.2537727;1.193273;2.286182;-0.1306548;0.2300758;2.411419;1.060667;0.2045216;1.328358;0.07721095;0;0;0;0.2300758;2.411419;1.060667;0.2045216;1.328358;0.07721095;0;0;0
809150.7761;NotLabelled;NONE;16384;-0.3213296;0.4889196;-0.7403562;-0.3310249;-6;23;16;-2580;3536;1384;65536;0.5681846;-0.3933518;0.5152354;0.5069252;-16;22;39;-720;4242;-779;8192;0.6883336;-0.6717451;-0.2451524;-0.1218837;3;10;7;1052;4644;352;32768;0.7855884;-0.5900277;0.101108;-0.1565097;2;1;4;1113;4485;-773;256;0.1606648;-0.1897507;-0.8270484;-0.5041551;-9;-13;0;648;3962;1534;128;-0.1052632;0.1288089;0.7951851;0.5831025;6;-15;-1;-218;4234;-810;4;-0.6274238;0.166205;-0.4238227;-0.6317354;1;-13;-16;2520;2804;864;16;0.6911357;-0.7081587;-0.02216066;-0.1426593;21;-2;20;957;4109;390;2;0.5817174;-0.7113385;-0.3144044;-0.2382271;5;-36;-7;-44;4364;-354;8;0.3240997;-0.7534193;0.3947368;0.4141274;-12;-22;1;1037;4013;1795;0.5396854;2.452252;1.049978;0.5447882;2.917257;0.7647288;0.549262;3.324938;0.5122714;0.6493026;3.982388;0.2020903;0.4355906;4.297578;0.02966592;0.08306743;4.249676;0.1461646;-0.2858517;3.507291;0.5597975;-0.3723596;2.591483;0.3326215;0.9500134;4.219304;0.02966356;1.220544;4.076596;0.1461608;1.355715;3.127655;0.2437065;1.188154;2.27833;-0.141466;0.2274605;2.412886;1.067244;0.2051022;1.327727;0.08602669;0;0;0;0.2274605;2.412886;1.067244;0.2051022;1.327727;0.08602669;0;0;0
809170.8;NotLabelled;NONE;16384;-0.3240997;0.4903047;-0.7382298;-0.3310249;-2;17;18;-2706;3494;1438;65536;0.5655229;-0.398892;0.5166205;0.5041551;-17;21;37;-872;4388;-773;8192;0.6875919;-0.6717451;-0.2465374;-0.1232687;0;10;12;832;4616;456;32768;0.7853112;-0.5900277;0.101108;-0.1578947;0;0;1;1287;4339;-803;256;0.1620499;-0.1925208;-0.8269812;-0.5027701;-6;-18;-2;692;3994;1258;128;-0.1080332;0.1315789;0.7943597;0.5831025;1;-21;0;-124;4288;-674;4;-0.6232687;0.16759;-0.4252077;-0.6345456;1;-26;-23;2656;2808;776;16;0.6939058;-0.7052052;-0.02077562;-0.1440443;23;-9;18;775;4207;258;2;0.5831025;-0.713092;-0.3088643;-0.2368421;6;-34;-4;44;4016;-680;8;0.3213296;-0.7523504;0.3961219;0.4168975;-14;-19;1;1079;3787;1921;0.5406548;2.454337;1.0621;0.5457599;2.91955;0.7771919;0.5502356;3.327415;0.5250327;0.6511329;3.984088;0.213484;0.4378242;4.299236;0.04048476;0.0852685;4.252083;0.1571897;-0.285173;3.506777;0.5641562;-0.3720366;2.588266;0.3483093;0.9521331;4.220216;0.04048252;1.222493;4.077353;0.1571862;1.358266;3.128726;0.2569201;1.193797;2.280294;-0.1315414;0.2284298;2.414958;1.079336;0.2070756;1.32629;0.1019915;0;0;0;0.2284298;2.414958;1.079336;0.2070756;1.32629;0.1019915;0;0;0
809191.6491;NotLabelled;NONE;16384;-0.3268698;0.4903047;-0.7363838;-0.33241;2;9;19;-2732;3594;1390;65536;0.562777;-0.4044321;0.5180055;0.501385;-16;17;32;-912;4622;-719;8192;0.6868396;-0.6717451;-0.2493075;-0.1218837;-2;7;19;626;4636;488;32768;0.7845463;-0.5914127;0.101108;-0.1565097;-5;-5;-1;1299;4231;-759;256;0.1648199;-0.1952908;-0.8249385;-0.5041551;-1;-22;-6;502;3864;1060;128;-0.1108033;0.134349;0.793514;0.5831025;1;-30;0;-88;4306;-492;4;-0.6135734;0.1689751;-0.432133;-0.6389337;0;-38;-35;2718;2782;660;16;0.7006599;-0.6980609;-0.01523546;-0.1468144;25;-7;22;729;4183;284;2;0.5831025;-0.7153347;-0.3047091;-0.2354571;8;-33;-1;218;4008;-738;8;0.3185596;-0.7527596;0.3961219;0.4182825;-18;-22;1;1089;3841;2149;0.5293144;2.460234;1.068001;0.5344241;2.92587;0.783785;0.538904;3.33411;0.5322329;0.6421493;3.990097;0.2200085;0.4299656;4.305848;0.04672563;0.07725842;4.260099;0.1635323;-0.2953808;3.512757;0.5647179;-0.3823748;2.591676;0.360177;0.9439823;4.22495;0.04672325;1.213837;4.081218;0.1635287;1.348154;3.13257;0.2650241;1.184492;2.284714;-0.1250309;0.2170892;2.42083;1.085173;0.204651;1.325599;0.1150326;0;0;0;0.2170892;2.42083;1.085173;0.204651;1.325599;0.1150326;0;0;0
809212.652;NotLabelled;NONE;16384;-0.3282548;0.4889196;-0.7354323;-0.33518;7;-8;11;-2524;3472;1224;65536;0.5576904;-0.4113573;0.5193906;0.5;-11;2;13;-772;4726;-751;8192;0.6855298;-0.6717451;-0.2548476;-0.1177285;-2;-2;29;414;4090;554;32768;0.7831771;-0.5941828;0.09972299;-0.1537396;-15;-1;-10;1235;3841;-851;256;0.16759;-0.1980609;-0.8237191;-0.5041551;1;-32;-7;518;3768;1126;128;-0.1135734;0.1385041;0.7924072;0.5831025;0;-38;2;-152;4172;-372;4;-0.6080332;0.1689751;-0.4362881;-0.6414014;0;-36;-35;2862;2620;656;16;0.7028796;-0.6952909;-0.01246537;-0.1495845;25;2;23;723;4099;136;2;0.5844875;-0.7164161;-0.300554;-0.234072;6;-33;2;146;4196;-644;8;0.3144044;-0.7522318;0.3975069;0.4210526;-24;-36;0;807;3625;2453;0.5232376;2.473713;1.081441;0.528352;2.93978;0.797933;0.5328361;3.348401;0.5470012;0.6367061;4.006011;0.2384179;0.4248429;4.322811;0.0666652;0.07201111;4.276626;0.1829224;-0.3027268;3.52601;0.5759585;-0.3894464;2.602492;0.3825915;0.9388153;4.241632;0.06666279;1.208492;4.097121;0.1829187;1.345208;3.149458;0.2902468;1.184468;2.300133;-0.09782183;0.211012;2.434283;1.098548;0.2016265;1.322911;0.1469058;0;0;0;0.211012;2.434283;1.098548;0.2016265;1.322911;0.1469058;0;0;0
809233.6886;NotLabelled;NONE;16384;-0.3282548;0.4875346;-0.735084;-0.3379501;9;-16;5;-2368;3420;1242;65536;0.5566661;-0.4127424;0.5193906;0.5;-8;-1;2;-856;4564;-801;8192;0.6851953;-0.6717451;-0.2576177;-0.1135734;2;-3;33;512;3894;498;32768;0.7815145;-0.5969529;0.09833795;-0.1523546;-17;2;-13;1203;3607;-809;256;0.1717452;-0.2022161;-0.8218515;-0.5041551;3;-36;-6;500;3698;1054;128;-0.1177285;0.1440443;0.7897883;0.5844875;-1;-39;0;-246;4014;-468;4;-0.6038781;0.1703601;-0.4390582;-0.6430681;3;-34;-30;3164;2494;754;16;0.7060738;-0.6911357;-0.01246537;-0.1537396;24;12;24;965;3995;18;2;0.5844875;-0.7190421;-0.2963989;-0.2313019;3;-43;4;-166;4058;-608;8;0.3088643;-0.7499332;0.400277;0.4265928;-30;-58;-5;809;3643;2541;0.521649;2.47986;1.087305;0.5267705;2.946576;0.8048674;0.531261;3.355772;0.5548744;0.6361057;4.013954;0.2478462;0.4247208;4.331428;0.0767473;0.07178611;4.285437;0.1927692;-0.3033268;3.531216;0.578478;-0.3870288;2.604326;0.4005308;0.9385865;4.249575;0.07674497;1.208031;4.104444;0.1927655;1.35186;3.159223;0.311707;1.195581;2.306389;-0.07044017;0.2094229;2.44039;1.104314;0.2034176;1.320838;0.1622806;0;0;0;0.2094229;2.44039;1.104314;0.2034176;1.320838;0.1622806;0;0;0
809253.703;NotLabelled;NONE;16384;-0.3254848;0.4861496;-0.7359538;-0.3407202;10;-19;1;-2222;3364;1184;65536;0.555419;-0.4127424;0.5193906;0.501385;-6;-4;-5;-816;4482;-825;8192;0.6827103;-0.6731302;-0.2617728;-0.1108033;4;0;37;490;3778;418;32768;0.7800047;-0.599723;0.09556787;-0.1509695;-19;9;-16;1189;3475;-867;256;0.1786704;-0.2132964;-0.8167073;-0.5055401;6;-45;-2;748;3532;1112;128;-0.1246537;0.1551246;0.7866207;0.5844875;-4;-48;-2;-678;3710;-592;4;-0.5983379;0.1689751;-0.4418283;-0.6467047;0;-44;-24;3442;2716;690;16;0.7078837;-0.6883656;-0.01108033;-0.1578947;21;15;23;1303;3917;68;2;0.5886427;-0.7248017;-0.2811634;-0.2216066;2;-85;7;300;4228;-614;8;0.2922437;-0.7426071;0.4127424;0.4390582;-30;-80;-8;1533;3681;2103;0.5065035;2.485924;1.097232;0.5116454;2.954489;0.8178722;0.5161539;3.365322;0.5705777;0.6224391;4.024378;0.2659275;0.4117625;4.342858;0.09582867;0.0586743;4.297137;0.2114896;-0.317565;3.540203;0.5907299;-0.3981307;2.61265;0.4147979;0.9254696;4.260015;0.09582651;1.194568;4.113957;0.2114868;1.343396;3.170609;0.3388336;1.191697;2.314882;-0.03866661;0.1942763;2.446343;1.113958;0.1989592;1.319058;0.1811855;0;0;0;0.1942763;2.446343;1.113958;0.1989592;1.319058;0.1811855;0;0;0
809274.8124;NotLabelled;NONE;16384;-0.3240997;0.4847645;-0.7368356;-0.3421052;12;-20;-1;-2216;3396;1292;65536;0.5552324;-0.4113573;0.5180055;0.5041551;-3;-8;-13;-750;4348;-841;8192;0.6823042;-0.6731302;-0.2645429;-0.1066482;2;0;39;360;3802;330;32768;0.7783034;-0.602493;0.09418282;-0.1495845;-21;9;-18;1337;3337;-919;256;0.1828255;-0.2188366;-0.8143185;-0.5055401;10;-43;-1;862;3548;1274;128;-0.1288089;0.1620499;0.7845524;0.5844875;-5;-52;-1;-776;3670;-636;4;-0.5927978;0.166205;-0.4445983;-0.6506144;-11;-55;-18;3254;3042;246;16;0.7096511;-0.6855956;-0.009695291;-0.1620499;22;7;17;1729;3649;146;2;0.5900277;-0.7293306;-0.2728532;-0.2132964;6;-82;9;1226;4130;-644;8;0.2853186;-0.7381089;0.4196676;0.4445983;-28;-75;-7;1543;3575;1757;0.4818658;2.488402;1.110071;0.4870282;2.958827;0.8338552;0.4915546;3.371305;0.589317;0.6041808;4.033175;0.2931651;0.3966275;4.355574;0.1266455;0.04291182;4.311473;0.2410111;-0.3387192;3.553554;0.612826;-0.4127315;2.625614;0.4360608;0.9095982;4.268288;0.1266432;1.177177;4.118466;0.2410073;1.32514;3.177021;0.3826501;1.184949;2.317858;0.008520961;0.1696373;2.44871;1.126509;0.1967005;1.316697;0.1998632;0;0;0;0.1696373;2.44871;1.126509;0.1967005;1.316697;0.1998632;0;0;0
809295.6847;NotLabelled;NONE;16384;-0.3213296;0.4833795;-0.737667;-0.3448753;13;-24;-1;-2202;3498;1340;65536;0.5560179;-0.4085872;0.5180055;0.5055401;-1;-13;-20;-760;4260;-827;8192;0.6804911;-0.6745152;-0.267313;-0.1024931;1;-6;37;306;4000;248;32768;0.7756665;-0.6066482;0.09141274;-0.1481994;-25;5;-22;1549;3277;-885;256;0.1855956;-0.2243767;-0.8121814;-0.5055401;9;-39;-1;756;3640;1418;128;-0.1315789;0.1689751;0.7826294;0.5844875;-5;-39;0;-556;3906;-990;4;-0.5872576;0.1634349;-0.4487534;-0.6534814;-17;-48;-19;2726;3060;446;16;0.7117133;-0.6828254;-0.006925208;-0.1648199;22;-23;4;2313;3681;252;2;0.5914127;-0.732247;-0.267313;-0.2063712;5;-63;9;1352;3968;-784;8;0.2783934;-0.7334106;0.4265928;0.4501385;-22;-73;-7;1823;3487;1611;0.4714474;2.488761;1.122823;0.4766229;2.960404;0.8486943;0.4811612;3.373963;0.6059864;0.5965939;4.036848;0.3132041;0.3904288;4.360864;0.1481052;0.03644726;4.317565;0.2619538;-0.3492597;3.559277;0.6287773;-0.416088;2.631537;0.4481425;0.9030586;4.271598;0.1481032;1.16996;4.120183;0.2619506;1.321785;3.180795;0.4128625;1.186487;2.318837;0.04338968;0.1592181;2.448997;1.13907;0.1961479;1.314199;0.2161779;0;0;0;0.1592181;2.448997;1.13907;0.1961479;1.314199;0.2161779;0;0;0
809337.6654;NotLabelled;NONE;16384;-0.3171745;0.4806094;-0.7399713;-0.3476454;12;-30;0;-2078;3554;1236;65536;0.557816;-0.4044321;0.5166205;0.5083103;0;-17;-23;-912;4150;-813;8192;0.6784767;-0.6759003;-0.2714681;-0.09556787;0;-13;25;708;4244;236;32768;0.7716248;-0.6135734;0.08587258;-0.1440443;-29;0;-34;1611;3603;-1015;256;0.1883656;-0.2299169;-0.8091251;-0.5069252;10;-29;-1;672;3872;1462;128;-0.134349;0.1717452;0.7805173;0.5858725;-14;-20;0;-326;4040;-934;4;-0.5761772;0.1551246;-0.4584487;-0.6586205;-27;-56;-13;3268;3074;312;16;0.7178726;-0.6786703;-0.001385042;-0.1551246;15;-39;-5;1007;4251;-578;2;0.5900277;-0.7367744;-0.2631579;-0.199446;5;-50;8;1402;3906;-1278;8;0.2714681;-0.7293727;0.433518;0.4542936;-19;-67;-7;1649;3371;1697;0.467827;2.490397;1.133586;0.4730164;2.96329;0.8616176;0.4775669;3.377954;0.6208037;0.5967995;4.041652;0.3314059;0.3925153;4.367578;0.1677352;0.03820652;4.32561;0.2810626;-0.3475479;3.566322;0.6457613;-0.4119129;2.639528;0.4594619;0.9046608;4.275574;0.1677333;1.170648;4.122173;0.2810602;1.323836;3.18491;0.4433818;1.192491;2.31883;0.08221495;0.155597;2.45056;1.149635;0.1957547;1.311541;0.232093;0;0;0;0.155597;2.45056;1.149635;0.1957547;1.311541;0.232093;0;0;0
809358.6784;NotLabelled;NONE;16384;-0.3088643;0.4709141;-0.7457469;-0.3559557;6;-20;-7;-1596;3318;1106;65536;0.5603482;-0.3919668;0.5138504;0.5180055;0;-13;-29;-942;4004;-811;8192;0.6745152;-0.6798707;-0.2728532;-0.09141274;9;-5;13;1002;3794;224;32768;0.7667103;-0.6218836;0.07894737;-0.1385041;-25;10;-36;1735;3677;-933;256;0.1939058;-0.2382271;-0.8054038;-0.5069252;1;-15;1;780;3464;1720;128;-0.1385041;0.1786704;0.7771885;0.5872576;-7;-12;0;-670;3682;-1356;4;-0.567867;0.1440443;-0.4626039;-0.6654141;-16;-43;-2;3268;2446;-262;16;0.7232331;-0.6745152;0;-0.1481994;5;-14;-6;395;4145;-1182;2;0.5886427;-0.7436874;-0.2548476;-0.1883656;0;-25;0;2226;3964;-918;8;0.2576177;-0.7190047;0.4487534;0.4639889;-4;-34;-6;2057;2963;1827;0.4606949;2.497405;1.136903;0.4659002;2.971744;0.867465;0.4704646;3.387688;0.6288702;0.5930091;4.053207;0.3450921;0.3903863;4.381346;0.1837951;0.03572867;4.339993;0.2962543;-0.350611;3.580784;0.6604961;-0.4095372;2.655605;0.4646183;0.9021277;4.28712;0.1837928;1.167276;4.131641;0.2962506;1.325331;3.198011;0.4740925;1.20041;2.324221;0.1296037;0.1484639;2.457482;1.15272;0.1770263;1.312339;0.2423952;0;0;0;0.1484639;2.457482;1.15272;0.1770263;1.312339;0.2423952;0;0;0
809398.7486;NotLabelled;NONE;16384;-0.3074792;0.4695291;-0.7465298;-0.3573407;4;-10;-10;-1602;3250;1020;65536;0.5631978;-0.3878116;0.5110803;0.5207756;0;-9;-32;-930;3878;-855;8192;0.6717451;-0.6827918;-0.2728532;-0.0900277;12;-3;9;1106;3724;234;32768;0.7651224;-0.6246537;0.07479224;-0.1371191;-22;15;-33;1739;3689;-883;256;0.1939058;-0.2396122;-0.8058633;-0.5055401;1;-3;3;880;3332;1906;128;-0.1385041;0.1800554;0.7768688;0.5872576;-2;-13;-3;-778;3604;-1464;4;-0.5650969;0.1412742;-0.4626039;-0.6683597;-5;-19;4;2900;2664;-624;16;0.7250835;-0.6731302;0;-0.1454294;0;-6;-7;859;4117;-890;2;0.5900277;-0.7434126;-0.2534626;-0.1869806;-3;-7;3;2400;3872;-952;8;0.2562327;-0.7177376;0.4501385;0.4653739;4;-11;-6;2489;2857;1931;0.4317501;2.493679;1.15278;0.4369798;2.970238;0.8872875;0.4415659;3.388148;0.6521526;0.5686356;4.055133;0.3738591;0.3682819;4.385787;0.2148819;0.01320644;4.34573;0.3264881;-0.3725756;3.58426;0.6865795;-0.4174456;2.663604;0.4670914;0.8794329;4.288408;0.2148799;1.143448;4.130408;0.3264855;1.294702;3.198752;0.5199153;1.179532;2.315885;0.1957725;0.1195179;2.453627;1.168237;0.1539252;1.313465;0.2518827;0;0;0;0.1195179;2.453627;1.168237;0.1539252;1.313465;0.2518827;0;0;0
809419.6659;NotLabelled;NONE;16384;-0.3047091;0.4695291;-0.7476646;-0.3573407;0;-3;-11;-1646;3148;1008;65536;0.5647285;-0.3836565;0.5096953;0.5235457;3;-4;-32;-886;3732;-951;8192;0.6703601;-0.6835976;-0.2742382;-0.0900277;13;-3;3;1104;3700;206;32768;0.7632484;-0.6274238;0.07063711;-0.1371191;-18;17;-27;1779;3591;-943;256;0.1925208;-0.2396122;-0.8061953;-0.5055401;1;8;4;854;3374;1954;128;-0.1385041;0.1814404;0.777592;0.5858725;0;-7;-4;-706;3552;-1662;4;-0.5637119;0.1398892;-0.4612188;-0.6707735;1;-4;8;2864;3012;-640;16;0.72536;-0.6731302;0;-0.1440443;-5;-8;-9;1095;4147;-544;2;0.5886427;-0.7440368;-0.2548476;-0.1869806;-2;12;3;2268;3648;-1166;8;0.2562327;-0.7177643;0.4515235;0.4639889;13;10;-5;2197;2727;1631;0.4215667;2.49259;1.156151;0.4267991;2.969406;0.891121;0.4313877;3.387544;0.6563923;0.560387;4.053627;0.3768291;0.3609837;4.384598;0.2173145;0.00582768;4.345826;0.3291188;-0.3789123;3.583921;0.6894049;-0.4184709;2.665618;0.4592915;0.8718359;4.285664;0.2173123;1.135409;4.127066;0.3291156;1.281912;3.196018;0.529023;1.170145;2.309719;0.2131591;0.1093341;2.452523;1.171566;0.1461013;1.314121;0.2531156;0;0;0;0.1093341;2.452523;1.171566;0.1461013;1.314121;0.2531156;0;0;0
809440.6727;NotLabelled;NONE;16384;-0.3033241;0.4695291;-0.7482276;-0.3573407;-1;-1;-9;-1704;3034;966;65536;0.567492;-0.3795014;0.5083103;0.5249307;6;-2;-33;-972;3632;-979;8192;0.6689751;-0.6860557;-0.2714681;-0.0900277;7;-10;-12;1200;3644;152;32768;0.7614568;-0.6301939;0.06509695;-0.1371191;-7;8;-15;1605;3639;-1297;256;0.1911357;-0.2368421;-0.8082083;-0.5041551;2;20;4;850;3358;1932;128;-0.1385041;0.1814404;0.7786336;0.5844875;0;10;-2;-504;3626;-1736;4;-0.567867;0.1398892;-0.4570637;-0.6701125;2;27;13;3062;3060;-518;16;0.7243463;-0.6745152;0;-0.1426593;-10;6;-5;713;4143;-338;2;0.5872576;-0.7432126;-0.2603878;-0.1869806;0;25;1;2156;3396;-960;8;0.2603878;-0.7180542;0.4515235;0.4612188;18;29;-1;2061;2823;1393;0.4175207;2.490745;1.15703;0.4227462;2.966918;0.8908448;0.4273286;3.384486;0.655103;0.5573791;4.050328;0.3754535;0.3584978;4.381594;0.2159024;0.003283516;4.3434;0.3277203;-0.3798897;3.583155;0.6931435;-0.4167922;2.666865;0.4547159;0.8691921;4.281849;0.2159;1.132516;4.122847;0.3277166;1.278142;3.192351;0.5308098;1.167156;2.303185;0.2228274;0.1052887;2.450715;1.17255;0.1446303;1.314622;0.2513524;0;0;0;0.1052887;2.450715;1.17255;0.1446303;1.314622;0.2513524;0;0;0
809461.8039;NotLabelled;NONE;16384;-0.301939;0.4695291;-0.749447;-0.3559557;-5;-2;-3;-1732;3148;966;65536;0.5728683;-0.3711911;0.5055401;0.5277008;10;-5;-32;-1048;3454;-871;8192;0.6689751;-0.6871454;-0.2686981;-0.0900277;0;-12;-21;1312;3730;4;32768;0.7618219;-0.6301939;0.06371191;-0.1357341;0;2;-12;1395;3717;-1135;256;0.1883656;-0.234072;-0.8096643;-0.5041551;1;27;4;644;3240;1882;128;-0.1371191;0.1786704;0.7805554;0.5831025;5;17;0;-220;3662;-1810;4;-0.5720221;0.1412742;-0.4529086;-0.6691084;7;49;17;2662;3172;-340;16;0.7230527;-0.6759003;-0.001385042;-0.1426593;-11;9;-3;581;4179;-400;2;0.5858725;-0.7419933;-0.265928;-0.1883656;-3;40;-3;1698;3390;-938;8;0.2645429;-0.7200431;0.4487534;0.4584487;19;40;1;1703;2757;1357;0.4189452;2.484217;1.159618;0.4241606;2.959482;0.891817;0.428734;3.376246;0.6546577;0.5573965;4.040675;0.3710323;0.3578024;4.370697;0.2098001;0.002775252;4.332577;0.3222352;-0.377707;3.573164;0.6921737;-0.4148321;2.659372;0.4443746;0.8686571;4.271775;0.2097978;1.132362;4.113843;0.3222322;1.273313;3.182508;0.5247688;1.163747;2.290036;0.2259768;0.1067136;2.44424;1.175286;0.1473646;1.315486;0.2451668;0;0;0;0.1067136;2.44424;1.175286;0.1473646;1.315486;0.2451668;0;0;0
809481.7916;NotLabelled;NONE;16384;-0.301939;0.4695291;-0.749447;-0.3559557;-7;-5;0;-1706;3218;948;65536;0.5754827;-0.367036;0.5041551;0.5290859;10;-1;-29;-996;3464;-779;8192;0.6703601;-0.6866902;-0.265928;-0.09141274;-5;-7;-29;1434;3700;138;32768;0.76308;-0.6288089;0.06232687;-0.1357341;1;1;-10;1329;3649;-943;256;0.1869806;-0.2313019;-0.8099178;-0.5055401;1;31;2;560;3198;1864;128;-0.1357341;0.1759003;0.7814262;0.5831025;-4;25;-1;-102;3500;-1700;4;-0.5789474;0.1440443;-0.4487534;-0.6653507;10;50;20;2042;3082;-150;16;0.7217515;-0.6772853;-0.002770083;-0.1426593;-12;15;0;347;4161;-306;2;0.5831025;-0.7377294;-0.2756233;-0.199446;-4;50;-16;1028;3472;-906;8;0.2742382;-0.725057;0.4418283;0.4515235;18;45;3;1445;2933;1557;0.4211797;2.479552;1.159296;0.4263792;2.953365;0.8889335;0.4309385;3.368844;0.6495288;0.5587719;4.032621;0.3640096;0.3587553;4.361994;0.2019769;0.003826872;4.323821;0.3147052;-0.3755235;3.566728;0.6905154;-0.4123572;2.658193;0.4240506;0.8697107;4.263595;0.201975;1.133636;4.106242;0.3147026;1.273078;3.173989;0.5140421;1.164216;2.280554;0.2178829;0.1089492;2.43966;1.175197;0.1503801;1.316365;0.2385265;0;0;0;0.1089492;2.43966;1.175197;0.1503801;1.316365;0.2385265;0;0;0
809502.6798;NotLabelled;NONE;16384;-0.301939;0.468144;-0.750313;-0.3559557;-9;-1;1;-1614;3268;990;65536;0.577177;-0.3642659;0.5027701;0.5304709;8;1;-24;-768;3450;-737;8192;0.6717451;-0.6860291;-0.2631579;-0.09418282;-5;-3;-36;1440;3808;216;32768;0.763325;-0.6288089;0.06232687;-0.134349;5;-1;-7;1237;3865;-843;256;0.1814404;-0.2229917;-0.8135006;-0.5055401;3;31;3;702;3340;1914;128;-0.1301939;0.16759;0.7841904;0.5831025;-3;34;0;-210;3460;-1782;4;-0.5844875;0.1468144;-0.4445983;-0.6626856;14;52;18;2006;3080;-30;16;0.7198793;-0.6786703;-0.005540166;-0.1454294;-13;24;4;497;4079;-174;2;0.5831025;-0.7342523;-0.2797784;-0.2063712;-5;54;-20;902;3528;-860;8;0.2797784;-0.7280301;0.4376731;0.4473684;19;50;4;1479;3123;1865;0.4226634;2.474862;1.159472;0.427857;2.948141;0.8881771;0.4324111;3.363147;0.6479539;0.5579133;4.027523;0.3627912;0.3567436;4.356267;0.2009091;0.001942009;4.316775;0.3135823;-0.3748969;3.559682;0.6919113;-0.412127;2.6539;0.4162845;0.8680453;4.259684;0.2009075;1.132517;4.103211;0.3135798;1.271643;3.169474;0.5060744;1.164934;2.276183;0.2086989;0.110433;2.435001;1.175459;0.1526927;1.317221;0.2322514;0;0;0;0.110433;2.435001;1.175459;0.1526927;1.317221;0.2322514;0;0;0
809522.703;NotLabelled;NONE;16384;-0.3033241;0.468144;-0.7497541;-0.3559557;-11;6;2;-1712;3300;976;65536;0.5801159;-0.3614958;0.501385;0.5304709;5;5;-17;-664;3534;-577;8192;0.6745152;-0.6839792;-0.2603878;-0.09695291;-5;1;-36;1520;3912;292;32768;0.7645755;-0.6274238;0.06094183;-0.134349;10;-1;-3;1313;4103;-737;256;0.1786704;-0.2188366;-0.8143797;-0.5069252;5;37;4;626;3436;1872;128;-0.1274238;0.1620499;0.7858082;0.5831025;-1;46;0;-264;3562;-1710;4;-0.5914127;0.1509695;-0.4390582;-0.6592929;16;56;18;2244;3000;140;16;0.7179928;-0.6800554;-0.006925208;-0.1481994;-12;28;6;463;4065;-72;2;0.5817174;-0.7316363;-0.2853186;-0.2119114;-5;50;-17;980;3894;-584;8;0.2853186;-0.7325587;0.432133;0.4418283;22;58;4;1531;3303;2133;0.4412706;2.470659;1.157601;0.446447;2.942363;0.8835744;0.4509858;3.355974;0.6409565;0.5718492;4.018914;0.3504991;0.3683606;4.345112;0.186381;0.01397678;4.304234;0.299872;-0.3567305;3.547343;0.6846082;-0.3977088;2.643482;0.403268;0.8802671;4.251787;0.186379;1.145889;4.097875;0.2998689;1.285658;3.162231;0.4823829;1.174355;2.268485;0.1880757;0.1290413;2.430892;1.173837;0.1602521;1.317596;0.2249123;0;0;0;0.1290413;2.430892;1.173837;0.1602521;1.317596;0.2249123;0;0;0
809542.6843;NotLabelled;NONE;16384;-0.3047091;0.468144;-0.7498487;-0.3545706;-14;13;4;-1750;3454;972;65536;0.58131;-0.3614958;0.5;0.5304709;2;11;-7;-706;3568;-583;8192;0.6759003;-0.6832622;-0.2576177;-0.09972299;-4;6;-34;1574;3952;332;32768;0.7657101;-0.6260388;0.06094183;-0.134349;13;-3;3;1371;4349;-681;256;0.1745152;-0.2146814;-0.8155226;-0.5083103;6;38;4;518;3772;1914;128;-0.1232687;0.1565097;0.7875919;0.5831025;-6;49;0;-282;3734;-1590;4;-0.5969529;0.1551246;-0.434903;-0.6560815;15;48;16;2246;3218;338;16;0.7160679;-0.6814404;-0.009695291;-0.1509695;-11;23;7;855;4167;186;2;0.5817174;-0.7283713;-0.2894737;-0.2174515;-2;52;-14;988;4148;-630;8;0.2922437;-0.734759;0.4279778;0.4376731;24;59;3;1391;3623;2211;0.4462439;2.465487;1.158727;0.4514091;2.936184;0.8829741;0.4559381;3.348904;0.6388428;0.5740266;4.012155;0.3479556;0.3691724;4.337407;0.183656;0.01497337;4.295134;0.2972131;-0.3521443;3.53741;0.6837467;-0.395976;2.635957;0.3952018;0.8814604;4.246199;0.183654;1.147729;4.093458;0.29721;1.289056;3.155902;0.4683585;1.178662;2.26232;0.1732128;0.1340152;2.425779;1.175122;0.1676341;1.31742;0.2205175;0;0;0;0.1340152;2.425779;1.175122;0.1676341;1.31742;0.2205175;0;0;0
809563.7862;NotLabelled;NONE;16384;-0.3102493;0.4709141;-0.7471423;-0.3518005;-12;25;10;-2284;3744;1078;65536;0.5821015;-0.3642659;0.5;0.5277008;0;17;9;-698;4164;-645;8192;0.6786703;-0.6810209;-0.2534626;-0.1066482;-6;7;-28;1328;4510;456;32768;0.7686207;-0.6218836;0.06371191;-0.1357341;16;-3;19;1225;4647;-693;256;0.1717452;-0.2105263;-0.8163289;-0.5096953;5;40;5;454;3990;1822;128;-0.1191136;0.1509695;0.7882858;0.5844875;-6;43;0;-200;3996;-1296;4;-0.6052631;0.1606648;-0.4293629;-0.6507618;7;40;10;2384;3210;688;16;0.7119007;-0.6842105;-0.01108033;-0.1578947;-7;23;11;795;4147;248;2;0.5803324;-0.7255728;-0.2950138;-0.2229917;-1;47;-13;852;4270;-714;8;0.299169;-0.7376357;0.4224377;0.433518;24;55;0;1099;3613;2429;0.4541216;2.463354;1.155076;0.459276;2.933059;0.8776361;0.4637955;3.3449;0.6320253;0.5801331;4.00826;0.3406821;0.3744187;4.33287;0.1761906;0.02034356;4.289759;0.2898179;-0.3451633;3.532694;0.6791598;-0.3908088;2.631814;0.3891069;0.886941;4.24299;0.1761881;1.153618;4.091013;0.2898141;1.293764;3.151695;0.45204;1.181673;2.258774;0.1555372;0.1418936;2.423706;1.171625;0.1732326;1.317744;0.2141674;0;0;0;0.1418936;2.423706;1.171625;0.1732326;1.317744;0.2141674;0;0;0
809583.6743;NotLabelled;NONE;16384;-0.3130194;0.4722992;-0.7457622;-0.3504155;-9;15;10;-2478;3776;1186;65536;0.5828656;-0.367036;0.5;0.5249307;1;13;17;-562;4428;-769;8192;0.6822493;-0.6772853;-0.2520775;-0.1108033;-9;2;-26;1278;4682;492;32768;0.7701267;-0.6191136;0.06648199;-0.1385041;17;-6;26;1367;4747;-741;256;0.16759;-0.2049861;-0.8177354;-0.5110803;6;48;4;472;4056;1726;128;-0.1121884;0.1412742;0.7880071;0.5886427;-3;40;1;-294;4398;-988;4;-0.6108033;0.1634349;-0.4279778;-0.6457889;8;42;6;2548;3102;428;16;0.7109433;-0.6842105;-0.01246537;-0.1620499;-5;26;13;689;4117;190;2;0.5789474;-0.7228113;-0.299169;-0.2299169;-4;43;-13;444;4258;-708;8;0.3047091;-0.7401385;0.4168975;0.4307479;18;39;-4;801;3759;2379;0.4695967;2.45805;1.154448;0.4747508;2.927737;0.8769779;0.4792701;3.339562;0.6313401;0.592825;4.003263;0.3396755;0.3857494;4.326938;0.1750485;0.03186568;4.282407;0.2887251;-0.3341021;3.524558;0.6761027;-0.3843667;2.622705;0.3898626;0.8986409;4.239189;0.1750459;1.165956;4.088376;0.2887214;1.301773;3.145728;0.4344714;1.187141;2.256277;0.1286544;0.1573687;2.418403;1.171001;0.1902597;1.316177;0.2092962;0;0;0;0.1573687;2.418403;1.171001;0.1902597;1.316177;0.2092962;0;0;0
809604.6841;NotLabelled;NONE;16384;-0.3144044;0.4709141;-0.7467044;-0.3490305;-7;4;6;-2294;3768;1268;65536;0.5808512;-0.368421;0.5027701;0.5235457;4;3;23;-504;4572;-853;8192;0.6841825;-0.6759003;-0.2493075;-0.1135734;-12;-2;-25;1246;4668;478;32768;0.7717267;-0.6163435;0.07063711;-0.1398892;17;-8;30;1553;4733;-863;256;0.1634349;-0.199446;-0.8190785;-0.5124654;2;44;6;624;4252;1620;128;-0.1094183;0.1357341;0.7883345;0.5900277;-11;39;-1;-346;4416;-1290;4;-0.6135734;0.16759;-0.4238227;-0.6448377;16;41;1;2614;2980;102;16;0.7082941;-0.6855956;-0.01385042;-0.16759;-4;28;16;633;4137;144;2;0.5803324;-0.7163303;-0.3033241;-0.2409972;-8;30;-22;-260;4806;-472;8;0.3102493;-0.7394202;0.4155124;0.4293629;9;2;-6;811;4257;2043;0.4911;2.45578;1.156272;0.4962678;2.926705;0.8809088;0.5007991;3.339626;0.6371186;0.611114;4.003395;0.3443671;0.4024555;4.325817;0.1792809;0.04881797;4.279782;0.2931247;-0.3137393;3.521526;0.6829063;-0.3697177;2.618712;0.4007902;0.9157593;4.240512;0.1792788;1.18382;4.091156;0.2931216;1.323049;3.146945;0.4248678;1.201183;2.260823;0.1122605;0.1788712;2.416059;1.172631;0.1975516;1.315143;0.2090476;0;0;0;0.1788712;2.416059;1.172631;0.1975516;1.315143;0.2090476;0;0;0
809625.7955;NotLabelled;NONE;16384;-0.3157895;0.4709141;-0.7461197;-0.3490305;-4;2;-2;-1980;3594;1480;65536;0.5800564;-0.3698061;0.5055401;0.5207756;7;-1;27;-548;4640;-883;8192;0.6858194;-0.6745152;-0.2479224;-0.1149584;-12;-1;-25;1064;4610;448;32768;0.7730344;-0.6135734;0.07479224;-0.1426593;17;-8;36;1595;4669;-943;256;0.1551246;-0.1897507;-0.8221245;-0.5138504;-5;40;8;1080;4248;1160;128;-0.09972299;0.1260388;0.7901902;0.5914127;9;47;-1;-572;4542;-362;4;-0.6177285;0.1731302;-0.4210526;-0.6412114;20;42;-3;2510;3006;200;16;0.7072384;-0.6855956;-0.0166205;-0.1717452;-2;34;20;485;4141;254;2;0.5817174;-0.7132022;-0.3047091;-0.2451524;-12;20;-26;-16;4436;-486;8;0.3130194;-0.7382519;0.4155124;0.4293629;8;12;-4;1471;3703;1639;0.5039054;2.454111;1.15323;0.5090744;2.92513;0.8780286;0.5136066;3.338134;0.63438;0.6206697;4.001997;0.3406346;0.4104291;4.323174;0.1751294;0.05704311;4.275611;0.2891255;-0.3044918;3.518251;0.6815903;-0.3684153;2.613878;0.4062377;0.924136;4.24033;0.1751276;1.192936;4.092426;0.2891232;1.331593;3.146761;0.4106367;1.201741;2.264088;0.09155399;0.1916766;2.414384;1.169575;0.2101607;1.313714;0.2057057;0;0;0;0.1916766;2.414384;1.169575;0.2101607;1.313714;0.2057057;0;0;0
809647.048;NotLabelled;NONE;16384;-0.3144044;0.4709141;-0.7473503;-0.3476454;-2;10;-10;-1830;3630;1640;65536;0.577989;-0.3711911;0.5083103;0.5193906;5;-1;29;-682;4526;-841;8192;0.6890565;-0.6717451;-0.2451524;-0.1177285;-15;2;-22;898;4460;268;32768;0.7741553;-0.6108033;0.08033241;-0.1454294;20;-9;42;1655;4457;-867;256;0.1509695;-0.1855956;-0.8238448;-0.5138504;-1;43;7;1164;3988;900;128;-0.09556787;0.1204986;0.7915667;0.5914127;9;38;0;-454;4338;-224;4;-0.6204986;0.1786704;-0.4182825;-0.6388256;23;31;-14;2600;2896;564;16;0.7054499;-0.6855956;-0.01939058;-0.1786704;0;47;26;63;4041;482;2;0.5831025;-0.7106262;-0.3047091;-0.2493075;-12;26;-18;802;3610;-904;8;0.3157895;-0.7386545;0.4141274;0.4279778;9;15;-3;1733;3765;1569;0.5281849;2.455925;1.146038;0.5333483;2.92645;0.8699921;0.5378756;3.339018;0.6256035;0.6402608;4.002202;0.328677;0.4277461;4.321182;0.1618306;0.07477052;4.271779;0.2763149;-0.2771904;3.513589;0.6758157;-0.3540411;2.608153;0.407344;0.941998;4.241792;0.1618281;1.211869;4.096233;0.2763108;1.353598;3.14989;0.3886622;1.210175;2.271241;0.06432801;0.2159564;2.416228;1.16246;0.2176761;1.313201;0.2011134;0;0;0;0.2159564;2.416228;1.16246;0.2176761;1.313201;0.2011134;0;0;0
809667.6547;NotLabelled;NONE;16384;-0.3144044;0.4736842;-0.7462419;-0.3462604;-3;17;-16;-1994;3618;1820;65536;0.5759076;-0.3725762;0.5124654;0.5166205;2;1;30;-840;4374;-873;8192;0.6933389;-0.66759;-0.2423823;-0.1218837;-18;8;-18;550;4088;158;32768;0.7782024;-0.602493;0.09279778;-0.1509695;21;-24;43;1625;4051;-851;256;0.1454294;-0.1814404;-0.8240346;-0.5166205;4;46;6;766;3630;952;128;-0.09279778;0.1177285;0.7902375;0.5941828;-24;27;-1;-214;4082;-402;4;-0.6246537;0.1911357;-0.4155124;-0.6329489;24;44;-25;3294;2830;366;16;0.7018213;-0.6842105;-0.02493075;-0.1966759;-2;64;27;1217;4277;278;2;0.5817174;-0.7090967;-0.3074792;-0.2534626;-5;35;-12;28;3834;-1152;8;0.3185596;-0.7390413;0.4127424;0.4265928;9;21;-3;1431;3685;1579;0.5250252;2.460773;1.138515;0.5301802;2.930531;0.8611681;0.5347002;3.342421;0.6156383;0.6392608;4.003999;0.3158969;0.4280895;4.321541;0.1446633;0.07390333;4.272134;0.2553443;-0.2828246;3.518026;0.6583275;-0.3635812;2.6104;0.3985384;0.9424572;4.24317;0.1511068;1.211258;4.09884;0.2695932;1.353539;3.152151;0.3782708;1.202726;2.277261;0.04719597;0.2127972;2.42112;1.155057;0.2245729;1.312103;0.2006986;0;0;0;0.2127972;2.42112;1.155057;0.2245729;1.312103;0.2006986;0;0;0
809688.6735;NotLabelled;NONE;16384;-0.3130194;0.4750692;-0.7484904;-0.3407202;-10;-1;-15;-1824;3528;1626;65536;0.5701125;-0.3795014;0.5180055;0.5124654;-7;7;36;-998;3912;-993;8192;0.6955047;-0.66482;-0.2423823;-0.1246537;-16;14;-15;548;3868;212;32768;0.7802789;-0.5983379;0.09972299;-0.1523546;24;-23;43;1515;3871;-781;256;0.1426593;-0.1772853;-0.8245535;-0.5180055;3;40;3;392;3792;1044;128;-0.09141274;0.1163435;0.7864097;0.599723;-31;15;-1;-124;3862;-80;4;-0.6274238;0.1980609;-0.4113573;-0.6307902;30;46;-15;3426;2718;368;16;0.6984017;-0.6842105;-0.03047091;-0.2077562;-6;85;31;893;4209;64;2;0.5817174;-0.706488;-0.3088643;-0.2590028;0;29;-10;-434;3936;-876;8;0.3213296;-0.7394125;0.4113573;0.4252077;7;18;-2;1109;3671;1707;0.5583079;2.464849;1.138397;0.5634795;2.936129;0.8636416;0.5680143;3.349365;0.6203844;0.6678302;4.012866;0.3232908;0.454081;4.330982;0.1563736;0.1013025;4.280247;0.270883;-0.241242;3.525405;0.6846541;-0.335956;2.617054;0.4322141;0.9686351;4.253576;0.1563719;1.23907;4.109088;0.2708806;1.383601;3.160134;0.3537809;1.209838;2.298142;0.0008453131;0.2460789;2.425107;1.154701;0.2479581;1.306101;0.2120024;0;0;0;0.2460789;2.425107;1.154701;0.2479581;1.306101;0.2120024;0;0;0
809710.6679;NotLabelled;NONE;16384;-0.3116343;0.4736842;-0.7505724;-0.3393352;-13;-6;-14;-1518;3464;1416;65536;0.5682419;-0.3822715;0.5193906;0.5110803;-12;9;37;-1038;3736;-1063;8192;0.697159;-0.6620498;-0.2437673;-0.1274238;-12;25;-9;374;3610;276;32768;0.7821782;-0.5941828;0.1052632;-0.1551246;26;-17;43;1353;3585;-671;256;0.1385041;-0.1731302;-0.8243999;-0.5207756;2;28;4;420;3630;784;128;-0.08864266;0.1135734;0.7839482;0.6038781;-11;21;-1;-114;3882;260;4;0.6326472;-0.2049861;0.4072022;0.6260388;33;57;-5;3446;2728;794;16;0.6951557;-0.6828254;-0.03739612;-0.2216066;-10;105;31;1075;4135;-214;2;0.5831025;-0.7027636;-0.3088643;-0.265928;-4;9;-7;-326;3674;-336;8;0.3254848;-0.739926;0.4085872;0.4238227;1;8;0;1049;3523;1869;0.5636051;2.466572;1.135416;0.5688159;2.941415;0.8668655;0.5733853;3.357805;0.6290498;0.6703916;4.021769;0.3320575;0.455298;4.339;0.1651837;0.1027357;4.286751;0.2796775;-0.2425954;3.538561;0.7031011;-0.3453494;2.625476;0.4717687;0.9701762;4.263778;0.1651813;1.241219;4.120421;0.2796742;1.387822;3.171071;0.3539482;1.203698;2.315094;-0.008252382;0.2513739;2.42662;1.151151;0.2595711;1.303644;0.2132198;0;0;0;0.2513739;2.42662;1.151151;0.2595711;1.303644;0.2132198;0;0;0
809730.8373;NotLabelled;NONE;16384;-0.3116343;0.4736842;-0.751197;-0.3379501;-13;0;-13;-1424;3254;1386;65536;0.5653702;-0.3864266;0.5221606;0.5083103;-14;10;39;-1122;3656;-1057;8192;0.696987;-0.6606648;-0.2465374;-0.1301939;-5;29;-2;130;3478;318;32768;0.784002;-0.5900277;0.1108033;-0.1578947;27;-9;42;1321;3345;-599;256;0.1357341;-0.1703601;-0.823683;-0.5235457;2;9;3;478;3584;608;128;-0.08864266;0.1135734;0.7828794;0.6052631;2;-3;-2;-194;3632;-1080;4;0.6384411;-0.2105263;0.4016621;0.6218836;25;59;4;2896;3088;1062;16;0.6897035;-0.6828254;-0.04432133;-0.2368421;-11;103;23;1949;4009;-68;2;0.5844875;-0.7016941;-0.3074792;-0.267313;-3;3;-5;426;3850;-676;8;0.3254848;-0.7406891;0.4072022;0.4238227;0;6;1;1145;3567;1817;0.5752397;2.465926;1.1382;0.5804771;2.943187;0.8739731;0.5850699;3.361721;0.6399487;0.6799563;4.026994;0.3452097;0.4638633;4.344044;0.1792856;0.1114266;4.290215;0.2934345;-0.2315937;3.544654;0.723323;-0.3379521;2.629949;0.5001608;0.9789943;4.270574;0.1792832;1.250469;4.127761;0.293431;1.400083;3.178352;0.3606162;1.205197;2.328531;-0.01034445;0.2630069;2.425833;1.153541;0.2713721;1.30034;0.2186318;0;0;0;0.2630069;2.425833;1.153541;0.2713721;1.30034;0.2186318;0;0;0
809752.667;NotLabelled;NONE;16384;-0.3116343;0.4722992;-0.7533073;-0.33518;-10;4;-12;-1506;3134;1314;65536;0.5624702;-0.3905817;0.5235457;0.5069252;-14;11;39;-1146;3674;-981;8192;0.6967902;-0.6592798;-0.2493075;-0.132964;1;29;4;-98;3496;478;32768;0.7859547;-0.5858725;0.1149584;-0.1606648;26;-4;40;1333;3143;-543;256;0.134349;-0.1703601;-0.8230283;-0.5249307;0;6;5;544;3578;826;128;-0.08725762;0.1135734;0.783035;0.6052631;-3;9;-2;-280;3820;-554;4;0.6449968;-0.2146814;0.3975069;0.6163435;18;52;7;2304;2754;988;16;0.6858152;-0.6828254;-0.05124654;-0.2465374;-12;65;7;3061;3879;-178;2;0.5844875;-0.7005559;-0.3088643;-0.2686981;-5;16;-4;500;4064;-392;8;0.3268698;-0.74163;0.4058172;0.4224377;0;15;2;1123;3491;1755;0.5862805;2.460698;1.142649;0.5915279;2.938874;0.8800808;0.5961295;3.358217;0.6475105;0.6893966;4.025034;0.3557609;0.4725485;4.342226;0.1910974;0.1201884;4.286943;0.3047874;-0.2215112;3.542916;0.7383697;-0.3325419;2.625899;0.527303;0.9878766;4.270151;0.1910954;1.259667;4.12757;0.3047842;1.410576;3.178236;0.3700944;1.206174;2.334744;-0.01007587;0.274047;2.420552;1.157839;0.2879899;1.296266;0.2215452;0;0;0;0.274047;2.420552;1.157839;0.2879899;1.296266;0.2215452;0;0;0
809773.6731;NotLabelled;NONE;16384;-0.3102493;0.4736842;-0.7536243;-0.333795;-7;4;-12;-1590;3014;1296;65536;0.5595174;-0.3947368;0.5249307;0.5055401;-13;11;37;-1080;3584;-907;8192;0.6934648;-0.6592798;-0.2562327;-0.1371191;8;14;10;-370;3642;528;32768;0.788377;-0.5789474;0.1232687;-0.16759;14;0;29;1403;2749;-495;256;0.132964;-0.1703601;-0.8232532;-0.5249307;-2;7;4;656;3670;896;128;-0.08587258;0.1121884;0.7823156;0.6066482;-3;15;-1;-404;3800;-214;4;0.6496155;-0.2188366;0.3919668;0.6135734;6;0;6;2114;2404;1270;16;0.6800554;-0.6853171;-0.05401662;-0.2548476;-14;12;-3;2141;3533;102;2;0.5844875;-0.6987944;-0.3116343;-0.2700831;-6;18;-1;356;3800;-506;8;0.3282548;-0.7425619;0.4044321;0.4210526;0;19;3;1351;3439;1873;0.5888135;2.457178;1.145106;0.5940608;2.935346;0.8825237;0.5986624;3.354681;0.6499408;0.6926326;4.022323;0.3603081;0.4761304;4.340213;0.1965381;0.123673;4.284882;0.309902;-0.2228163;3.544195;0.7453998;-0.3338805;2.624913;0.5444445;0.9913958;4.267693;0.1965361;1.263013;4.124525;0.3098989;1.414777;3.175265;0.3743171;1.204873;2.337625;-0.01566499;0.2765802;2.417032;1.160298;0.2942153;1.294872;0.2215204;0;0;0;0.2765802;2.417032;1.160298;0.2942153;1.294872;0.2215204;0;0;0
809793.6776;NotLabelled;NONE;16384;-0.3088643;0.4750692;-0.7545426;-0.3310249;-1;6;-10;-1836;2864;1220;65536;0.5544562;-0.4016621;0.5277008;0.5027701;-9;4;29;-968;3510;-795;8192;0.6931894;-0.6592798;-0.2562327;-0.1385041;9;6;8;-344;3866;460;32768;0.7883613;-0.5775623;0.1260388;-0.1703601;5;-1;21;1377;2697;-583;256;0.1315789;-0.1689751;-0.8228768;-0.5263157;0;16;3;484;3558;972;128;-0.08448754;0.1108033;0.7815882;0.6080332;-3;13;0;-238;3692;-188;4;0.6500804;-0.2174515;0.3919668;0.6135734;-3;-10;6;2298;2836;1598;16;0.6786703;-0.6867963;-0.05263158;-0.2548476;-15;-9;-10;2513;3643;316;2;0.5844875;-0.6976376;-0.3130194;-0.2714681;-3;21;5;84;3768;-510;8;0.3296399;-0.744234;0.4016621;0.4196676;0;14;2;1201;3545;1905;0.594199;2.451872;1.143082;0.5994545;2.930783;0.8818578;0.6040634;3.350777;0.6504661;0.6990618;4.018246;0.3607699;0.4830491;4.336455;0.1969732;0.1305082;4.281678;0.3103469;-0.2148426;3.543146;0.750384;-0.3259252;2.621692;0.559648;0.9982018;4.263137;0.1969713;1.269599;4.11956;0.3103436;1.420956;3.170713;0.3814404;1.197889;2.344876;-0.02601606;0.2819652;2.411683;1.15815;0.3103783;1.291892;0.2168111;0;0;0;0.2819652;2.411683;1.15815;0.3103783;1.291892;0.2168111;0;0;0
809813.8949;NotLabelled;NONE;16384;-0.3074792;0.4764543;-0.7548413;-0.3296399;3;2;-6;-1820;2870;1234;65536;0.5523729;-0.4044321;0.5290859;0.501385;-6;0;25;-808;3574;-761;8192;0.6915908;-0.6606648;-0.2562327;-0.1398892;10;0;6;-266;3964;502;32768;0.7878379;-0.5775623;0.1274238;-0.1717452;-3;-2;10;1269;2803;-679;256;0.1301939;-0.16759;-0.8233801;-0.5263157;0;8;0;384;3538;906;128;-0.08448754;0.1094183;0.7807041;0.6094183;-1;14;0;20;3700;-216;4;0.6501645;-0.2146814;0.3933518;0.6135734;-12;-11;10;2424;3432;1364;16;0.6786703;-0.6875152;-0.04986149;-0.2534626;-10;-24;-14;2247;3881;276;2;0.5831025;-0.6964639;-0.3157895;-0.2742382;-2;3;8;-348;3896;-404;8;0.3310249;-0.7451447;0.400277;0.4182825;-6;0;6;1043;3819;1753;0.6061091;2.448775;1.141799;0.6113728;2.928428;0.8819407;0.6159888;3.34908;0.651747;0.7101892;4.017318;0.3635669;0.4938046;4.335603;0.2004102;0.1413012;4.280105;0.3135499;-0.2046957;3.545301;0.7592841;-0.3167646;2.620474;0.586275;1.009055;4.262971;0.2004084;1.280607;4.119503;0.3135473;1.430462;3.170322;0.3833666;1.20037;2.348112;-0.0275051;0.2938748;2.408543;1.156743;0.3166536;1.291089;0.2124776;0;0;0;0.2938748;2.408543;1.156743;0.3166536;1.291089;0.2124776;0;0;0
809833.6746;NotLabelled;NONE;16384;-0.3074792;0.4764543;-0.754235;-0.3310249;7;2;-2;-1994;3046;1322;65536;0.5500237;-0.4058172;0.5304709;0.501385;-3;-10;23;-572;3568;-701;8192;0.6915908;-0.6606648;-0.2562327;-0.1398892;12;-3;5;-70;3898;516;32768;0.7876126;-0.5775623;0.1288089;-0.1717452;-11;0;0;1315;2923;-783;256;0.1301939;-0.16759;-0.8224931;-0.5277008;2;3;-1;518;3696;866;128;-0.08310249;0.1080332;0.7799629;0.6108033;-4;14;0;-4;3806;-586;4;0.6493748;-0.2105263;0.3947368;0.6149584;-22;-29;18;2196;4144;1098;16;0.6786703;-0.6897271;-0.04709141;-0.2479224;-3;-41;-20;1651;4389;556;2;0.5831025;-0.6964639;-0.3157895;-0.2742382;-1;-3;6;-174;4212;-488;8;0.3296399;-0.7457584;0.400277;0.4182825;-8;-1;8;1049;3933;1803;0.6211928;2.445315;1.143512;0.6264647;2.925718;0.8850421;0.631088;3.347034;0.6560664;0.7248083;4.015052;0.3672223;0.5081915;4.333035;0.2037854;0.1557404;4.277416;0.3170277;-0.1883117;3.544797;0.7678354;-0.3018058;2.618726;0.6025863;1.023489;4.260744;0.203783;1.295151;4.117565;0.3170242;1.441229;3.167902;0.3882658;1.206051;2.347045;-0.02243394;0.3089581;2.405041;1.158329;0.3209987;1.290316;0.2106456;0;0;0;0.3089581;2.405041;1.158329;0.3209987;1.290316;0.2106456;0;0;0
809854.7765;NotLabelled;NONE;16384;-0.3060942;0.4778393;-0.753922;-0.3310249;10;5;-2;-1856;3308;1260;65536;0.5459858;-0.4058172;0.534626;0.501385;0;-18;23;-544;3656;-701;8192;0.6904957;-0.6620498;-0.2548476;-0.1412742;14;-6;6;38;3890;480;32768;0.7855738;-0.5803324;0.1288089;-0.1717452;-16;3;-7;1455;3129;-881;256;0.132964;-0.1703601;-0.8214803;-0.5277008;-6;-24;0;370;4180;1254;128;-0.08310249;0.1066482;0.7801535;0.6108033;20;-13;3;30;4660;-1410;4;0.645936;-0.2036011;0.3975069;0.6191136;-28;-61;17;1448;4022;1110;16;0.6800554;-0.6919596;-0.04432133;-0.2382271;1;-74;-30;1811;4349;1066;2;0.5844875;-0.6953019;-0.3157895;-0.2742382;-2;-8;5;404;4362;-734;8;0.3282548;-0.7471102;0.398892;0.4182825;-10;4;8;1233;3765;1987;0.6269269;2.442501;1.140586;0.6322069;2.923645;0.8834997;0.6368375;3.345618;0.6557368;0.7303491;4.014623;0.3691174;0.5136542;4.332986;0.206525;0.1611476;4.276768;0.3192989;-0.1814766;3.543881;0.7707571;-0.2947665;2.616851;0.6108299;1.029;4.261036;0.2067136;1.300665;4.117675;0.3197173;1.446633;3.168221;0.3939112;1.209581;2.348062;-0.01710421;0.3146916;2.402184;1.155278;0.3204165;1.291765;0.2024944;0;0;0;0.3146916;2.402184;1.155278;0.3204165;1.291765;0.2024944;0;0;0
809875.6699;NotLabelled;NONE;16384;-0.3060942;0.4792244;-0.752432;-0.33241;11;9;-3;-2010;3662;1046;65536;0.5432595;-0.4058172;0.5373961;0.501385;3;-23;22;-788;4144;-725;8192;0.688112;-0.66482;-0.2548476;-0.1398892;19;-8;9;384;3964;386;32768;0.7850767;-0.5817174;0.1274238;-0.1703601;-17;7;-10;1775;3409;-1077;256;0.1357341;-0.1731302;-0.8213367;-0.5263157;-10;-33;1;230;4316;1610;128;-0.08587258;0.1094183;0.7816323;0.6080332;15;-31;2;18;4494;-1238;4;0.6410738;-0.1980609;0.4016621;0.6232687;-28;-54;11;1316;3888;316;16;0.6842105;-0.6919222;-0.03878116;-0.2271468;3;-78;-34;775;4487;1274;2;0.5831025;-0.6975483;-0.3157895;-0.2714681;-1;-8;7;824;4168;-934;8;0.3268698;-0.7477173;0.398892;0.4182825;-9;1;6;1497;3645;2121;0.6199652;2.440756;1.137586;0.6252436;2.921752;0.880221;0.6298727;3.343593;0.652214;0.7242273;4.013035;0.3668949;0.5079315;4.331997;0.2049467;0.1553626;4.276017;0.3176443;-0.1883938;3.542466;0.7671584;-0.3040496;2.614593;0.6139515;1.023183;4.259377;0.2049447;1.294672;4.115442;0.317641;1.435111;3.165036;0.3903122;1.198395;2.342986;-0.01710123;0.3077301;2.400448;1.152303;0.3112342;1.295419;0.1932631;0;0;0;0.3077301;2.400448;1.152303;0.3112342;1.295419;0.1932631;0;0;0
809896.8594;NotLabelled;NONE;16384;-0.301939;0.4833795;-0.7502209;-0.33518;19;6;-8;-2374;3782;1338;65536;0.534626;-0.4016621;0.5477818;0.5027701;14;-35;14;-772;4752;-1019;8192;0.6811166;-0.6717451;-0.2562327;-0.1385041;32;-3;17;670;4106;306;32768;0.7809989;-0.5872576;0.1232687;-0.1731302;-14;23;-5;2131;3883;-883;256;0.1371191;-0.1772853;-0.8219904;-0.5235457;-17;-34;1;392;4338;1902;128;-0.0900277;0.1121884;0.782921;0.6052631;13;-34;1;-58;4492;-1008;4;0.6314757;-0.1883656;0.4127424;0.6288089;-29;-48;-11;2372;3378;762;16;0.6869806;-0.6951349;-0.033241;-0.2091413;15;-54;-16;403;3931;1314;2;0.5831025;-0.6980857;-0.3157895;-0.2700831;0;-10;10;1010;4238;-808;8;0.3254848;-0.7483212;0.398892;0.4182825;-6;-5;2;1643;3605;2223;0.610617;2.442755;1.137552;0.6158791;2.922261;0.8774225;0.6204937;3.342782;0.6469911;0.7161192;4.011689;0.3608386;0.5004249;4.330879;0.1985385;0.147766;4.275733;0.3113649;-0.1964312;3.540381;0.7575886;-0.3132716;2.611973;0.6085802;1.015532;4.257243;0.1985363;1.286756;4.11291;0.3113617;1.423535;3.162581;0.391626;1.192009;2.338232;-0.01412135;0.2983828;2.402531;1.15252;0.299154;1.298381;0.1924623;0;0;0;0.2983828;2.402531;1.15252;0.299154;1.298381;0.1924623;0;0;0
809917.6756;NotLabelled;NONE;16384;-0.299169;0.4847645;-0.7498168;-0.3365651;17;0;-10;-2508;3804;1240;65536;0.5318559;-0.3975069;0.5522184;0.5041551;18;-36;8;-892;4802;-1135;8192;0.6772754;-0.6759003;-0.2562327;-0.1371191;35;-13;18;824;4292;224;32768;0.7787211;-0.5900277;0.1204986;-0.1759003;-13;29;0;2063;3925;-839;256;0.1398892;-0.1800554;-0.8226809;-0.5207756;-22;-21;3;586;4136;2002;128;-0.09418282;0.1163435;0.7839617;0.602493;21;-26;0;-250;4274;-1294;4;-0.6246537;0.1842105;-0.4196676;-0.6322605;-30;-42;-20;2280;3504;554;16;0.6897507;-0.6949694;-0.03047091;-0.200831;21;-63;-17;653;3801;1276;2;0.5817174;-0.701977;-0.3144044;-0.2645429;0;-20;5;1248;4154;-620;8;0.3227147;-0.7480058;0.400277;0.4196676;-3;-22;-5;1511;3551;1905;0.6154639;2.452194;1.116207;0.6207095;2.930217;0.8533618;0.6253097;3.349425;0.6205485;0.7250795;4.016682;0.331972;0.5113544;4.336674;0.1686483;0.1584084;4.284197;0.281849;-0.1780676;3.547729;0.7321031;-0.3043139;2.618864;0.5940103;1.025978;4.259728;0.168646;1.296329;4.114057;0.2818457;1.423087;3.163988;0.3797067;1.192148;2.335241;-0.01732266;0.3032305;2.412056;1.131423;0.2825504;1.304484;0.1755385;0;0;0;0.3032305;2.412056;1.131423;0.2825504;1.304484;0.1755385;0;0;0
809937.6567;NotLabelled;NONE;16384;-0.2963989;0.4847645;-0.7502938;-0.3379501;12;-10;-13;-2434;3686;1274;65536;0.5290859;-0.3933518;0.5578263;0.5041551;18;-34;4;-848;4620;-1119;8192;0.6717451;-0.6816741;-0.2562327;-0.1357341;35;-18;14;1152;4356;44;32768;0.7764069;-0.5927978;0.1177285;-0.1786704;-12;30;0;1789;4011;-681;256;0.1412742;-0.1814404;-0.8238879;-0.5180055;-22;-7;4;674;3892;1928;128;-0.09556787;0.1177285;0.7857093;0.599723;17;-8;0;-462;4318;-1688;4;-0.6204986;0.1828255;-0.4265928;-0.6321194;-33;-34;-27;1824;3582;418;16;0.6925207;-0.6951695;-0.02493075;-0.1911357;26;-72;-13;869;4011;912;2;0.5817174;-0.7030147;-0.3144044;-0.2617728;-2;-10;0;1468;4156;-742;8;0.3213296;-0.7455513;0.4030471;0.4224377;-1;-27;-7;1333;3457;1769;0.6111196;2.460379;1.107841;0.6163509;2.937083;0.8426117;0.6209383;3.355124;0.607708;0.7223237;4.020857;0.3161886;0.509358;4.340718;0.1516227;0.1563459;4.289686;0.2652768;-0.1785139;3.553262;0.7168043;-0.3090452;2.625017;0.5785285;1.023771;4.262381;0.1516204;1.293801;4.116467;0.2652736;1.414168;3.166676;0.3733692;1.184736;2.3361;-0.02070159;0.2988873;2.420317;1.123274;0.2710064;1.307119;0.1741318;0;0;0;0.2988873;2.420317;1.123274;0.2710064;1.307119;0.1741318;0;0;0
809958.8416;NotLabelled;NONE;16384;-0.2936288;0.4847645;-0.7507577;-0.3393352;4;-11;-17;-2016;3614;1370;65536;0.5277008;-0.3905817;0.5598276;0.5055401;15;-27;3;-566;4376;-1113;8192;0.66759;-0.6868019;-0.2548476;-0.132964;34;-18;9;1346;4224;-10;32768;0.7737302;-0.5955678;0.1149584;-0.1828255;-14;28;-1;1667;3983;-597;256;0.1398892;-0.1828255;-0.8289853;-0.5096953;-23;1;11;768;3436;1998;128;-0.09556787;0.1163435;0.7901125;0.5941828;19;5;-2;-396;3878;-1582;4;-0.6163435;0.1814404;-0.433518;-0.631872;-33;-31;-27;1908;3404;318;16;0.6989096;-0.6911357;-0.02077562;-0.1828255;30;-64;-8;333;4405;386;2;0.5817174;-0.7030147;-0.3144044;-0.2617728;-4;0;-2;1288;4046;-670;8;0.3213296;-0.7432591;0.4058172;0.4238227;0;-22;-10;1441;3365;1759;0.6157151;2.470074;1.095451;0.620928;2.945112;0.8272476;0.6254991;3.361676;0.5897354;0.7280285;4.025635;0.2945932;0.5155931;4.345058;0.1284991;0.1625691;4.295368;0.2427098;-0.1704967;3.55921;0.6959955;-0.3089612;2.63186;0.559444;1.029842;4.26565;0.1284968;1.299662;4.119781;0.2427062;1.4109;3.170466;0.3639603;1.181277;2.338097;-0.02619696;0.3034837;2.43011;1.111156;0.2631701;1.309029;0.1717879;0;0;0;0.3034837;2.43011;1.111156;0.2631701;1.309029;0.1717879;0;0;0
809979.6609;NotLabelled;NONE;16384;-0.2908587;0.4847645;-0.7524588;-0.3379501;-4;2;-20;-1824;3524;1342;65536;0.5263157;-0.3878116;0.563048;0.5055401;10;-16;7;-228;4188;-967;8192;0.6634349;-0.6910816;-0.2548476;-0.1315789;31;-15;3;1566;4002;-38;32768;0.7713363;-0.5983379;0.1121884;-0.1855956;-16;25;-1;1341;3959;-417;256;0.1385041;-0.1828255;-0.8317575;-0.5055401;-23;8;12;696;3314;2110;128;-0.09418282;0.1163435;0.7923539;0.5914127;19;1;-4;-286;3650;-1486;4;-0.6108033;0.1786704;-0.4404432;-0.6332504;-26;-37;-26;2464;2916;34;16;0.7038615;-0.6883656;-0.0166205;-0.1745152;33;-61;-4;319;4327;-230;2;0.5817174;-0.7029083;-0.3157895;-0.2603878;-5;0;-1;1146;3788;-844;8;0.3199446;-0.74075;0.4085872;0.4265928;3;-14;-11;1591;3203;1693;0.6181317;2.479382;1.093756;0.6233016;2.950507;0.8187358;0.627835;3.363605;0.575246;0.734785;4.021245;0.2677808;0.5244147;4.339293;0.0964978;0.1713446;4.294523;0.2125858;-0.156495;3.558637;0.6701039;-0.2972607;2.631708;0.5330476;1.038012;4.25577;0.09649581;1.306995;4.10984;0.2125826;1.412099;3.161162;0.3438811;1.178633;2.327706;-0.04164624;0.3059028;2.439649;1.110084;0.2477489;1.310793;0.1810194;0;0;0;0.3059028;2.439649;1.110084;0.2477489;1.310793;0.1810194;0;0;0
810000.8218;NotLabelled;NONE;16384;-0.2908587;0.4861496;-0.7528042;-0.33518;-11;21;-21;-1748;3276;1242;65536;0.5235457;-0.3878116;0.5656246;0.5055401;2;-4;16;4;3998;-903;8192;0.6565097;-0.6979235;-0.2548476;-0.1301939;23;0;2;1730;3764;-198;32768;0.7663687;-0.6052631;0.1066482;-0.1869806;-20;18;-6;921;4015;-165;256;0.1371191;-0.1814404;-0.8339664;-0.5027701;-21;14;13;634;3174;2194;128;-0.09418282;0.1163435;0.7954384;0.5872576;19;5;-6;-186;3496;-1504;4;-0.601108;0.1745152;-0.4473684;-0.6388075;-12;-22;-21;2970;2476;-56;16;0.714605;-0.6814404;-0.006925208;-0.1578947;31;-58;-1;655;4077;-372;2;0.5817174;-0.7029083;-0.3157895;-0.2603878;-3;-4;-1;1094;3670;-612;8;0.3213296;-0.7393839;0.4099723;0.4265928;7;-7;-10;1585;3189;1581;0.6250359;2.487505;1.088703;0.6301849;2.956723;0.8104399;0.6346997;3.368133;0.5641075;0.7432011;4.022402;0.2500665;0.5335234;4.339555;0.07629395;0.1806049;4.297184;0.1937345;-0.1438676;3.561466;0.6539159;-0.2903594;2.635239;0.5181162;1.046814;4.254171;0.07574219;1.315578;4.108384;0.1925159;1.415843;3.159515;0.3261901;1.179053;2.32434;-0.05354947;0.3128082;2.447886;1.105328;0.2356898;1.312341;0.1858438;0;0;0;0.3128082;2.447886;1.105328;0.2356898;1.312341;0.1858438;0;0;0
810020.8471;NotLabelled;NONE;16384;-0.2922437;0.4944598;-0.7511077;-0.3254848;-20;36;-19;-2378;2834;912;65536;0.5193906;-0.3947368;0.5707884;0.4986149;-8;25;39;172;3714;-747;8192;0.6537396;-0.7002697;-0.2562327;-0.1288089;22;1;5;1864;3730;-232;32768;0.7634507;-0.6094183;0.1038781;-0.1869806;-21;12;-6;989;4181;-33;256;0.134349;-0.1786704;-0.8375024;-0.4986149;-18;19;13;446;3066;2152;128;-0.09418282;0.1149584;0.797677;0.5844875;13;10;-6;-68;3284;-1698;4;-0.599723;0.1745152;-0.4487534;-0.6391378;-8;0;-18;3172;2662;16;16;0.7197713;-0.6772853;-0.001385042;-0.1523546;28;-46;1;747;3925;-402;2;0.5817174;-0.7022844;-0.3171745;-0.2603878;-2;10;-5;1202;3408;-572;8;0.3240997;-0.7389726;0.4099723;0.4252077;11;11;-4;1521;3023;1491;0.6136392;2.496785;1.0939;0.6187565;2.963123;0.8108371;0.6232433;3.371984;0.5602962;0.732128;4.023851;0.24143;0.5226327;4.339855;0.06535947;0.1697048;4.298583;0.1831631;-0.1588939;3.568947;0.6500514;-0.3077888;2.642289;0.5199353;1.035866;4.25413;0.06535721;1.304552;4.109028;0.1831596;1.393897;3.162429;0.3388613;1.154783;2.321162;-0.02567017;0.3014135;2.457338;1.110966;0.2112709;1.314064;0.2023095;0;0;0;0.3014135;2.457338;1.110966;0.2112709;1.314064;0.2023095;0;0;0
810041.8926;NotLabelled;NONE;16384;-0.2922437;0.5;-0.7498193;-0.3199446;-23;29;-19;-2552;2682;750;65536;0.5166205;-0.4016621;0.5720842;0.4944598;-11;33;44;6;3704;-717;8192;0.6495845;-0.7038723;-0.2576177;-0.1274238;20;0;9;1950;3724;-294;32768;0.7604887;-0.6135734;0.101108;-0.1869806;-19;8;-2;1195;4313;-119;256;0.1315789;-0.1772853;-0.8398778;-0.4958449;-15;21;13;460;2934;2134;128;-0.09141274;0.1135734;0.7992098;0.5831025;12;21;-5;-88;3208;-1580;4;-0.599723;0.1745152;-0.4487534;-0.6391378;-2;13;-11;2972;2902;-12;16;0.7235143;-0.6745152;0.001385042;-0.1468144;24;-44;1;917;4073;-582;2;0.5803324;-0.7022884;-0.3185596;-0.2617728;-2;24;-7;1020;3448;-656;8;0.3268698;-0.7393152;0.4085872;0.4238227;12;22;-1;1645;3093;1469;0.6179076;2.498023;1.101238;0.6230018;2.962241;0.8147128;0.6274681;3.369227;0.5611362;0.7360893;4.017312;0.2345644;0.5264252;4.331383;0.05526501;0.1737034;4.291671;0.1742166;-0.1591458;3.57084;0.6516507;-0.3171713;2.642963;0.5427082;1.039612;4.245374;0.0552628;1.308446;4.101488;0.1742129;1.397591;3.156024;0.3367715;1.154673;2.311113;-0.01664382;0.3056834;2.458704;1.118623;0.2056559;1.313114;0.2139255;0;0;0;0.3056834;2.458704;1.118623;0.2056559;1.313114;0.2139255;0;0;0
810062.6877;NotLabelled;NONE;16384;-0.2922437;0.5027701;-0.7503104;-0.3144044;-25;23;-18;-2598;2654;600;65536;0.5152354;-0.4099723;0.5710136;0.4903047;-11;36;41;-100;3716;-591;8192;0.6468144;-0.7056512;-0.2603878;-0.1260388;17;0;10;2190;3702;-452;32768;0.7571175;-0.6177285;0.101108;-0.1869806;-16;8;2;1153;4329;-73;256;0.1288089;-0.1745152;-0.8417019;-0.4944598;-11;23;13;384;2894;2080;128;-0.08864266;0.1108033;0.8009182;0.5817174;10;25;-6;-52;3210;-1594;4;-0.601108;0.1772853;-0.4487534;-0.637071;4;12;-4;2662;2870;-146;16;0.7284424;-0.6703601;0.005540166;-0.1412742;21;-43;-1;793;4049;-748;2;0.5803324;-0.6994597;-0.3213296;-0.265928;-2;27;-9;720;3442;-532;8;0.3310249;-0.7398131;0.4072022;0.4210526;13;27;1;1579;3195;1513;0.6162622;2.498265;1.105809;0.6213435;2.961307;0.8173859;0.6257983;3.36725;0.5621454;0.7353275;4.012666;0.2306265;0.5260778;4.325824;0.04925743;0.1734261;4.287719;0.1689405;-0.1592206;3.572366;0.6546832;-0.3186572;2.643062;0.5610312;1.039087;4.238767;0.04925513;1.307778;4.09522;0.1689373;1.394368;3.151239;0.3412106;1.148406;2.30278;-0.001435101;0.3040386;2.459017;1.123368;0.1977498;1.313428;0.2193852;0;0;0;0.3040386;2.459017;1.123368;0.1977498;1.313428;0.2193852;0;0;0
810083.798;NotLabelled;NONE;16384;-0.2922437;0.5055401;-0.7507501;-0.3088643;-23;20;-16;-2610;2672;570;65536;0.5124654;-0.4155124;0.5730509;0.4861496;-9;33;36;-182;3792;-575;8192;0.6426592;-0.7089019;-0.2631579;-0.1232687;18;9;14;2248;3684;-464;32768;0.7558254;-0.6191136;0.09972299;-0.1883656;-9;12;7;1109;4385;-185;256;0.1232687;-0.1703601;-0.8441917;-0.4930748;-6;28;13;502;2924;2100;128;-0.08310249;0.1052632;0.8032608;0.5803324;1;25;-6;-82;3242;-1306;4;-0.601108;0.1772853;-0.4473684;-0.6380444;7;0;-1;2304;2578;-166;16;0.7304804;-0.6689751;0.008310249;-0.1371191;15;-28;0;347;3695;-546;2;0.5803324;-0.6971191;-0.3240997;-0.2686981;0;28;-9;530;3564;-590;8;0.333795;-0.7409002;0.4058172;0.4182825;11;26;5;1553;3047;1751;0.6154583;2.500288;1.111913;0.6205247;2.961976;0.8213257;0.6249663;3.36672;0.5641878;0.7336063;4.010508;0.2292289;0.5239072;4.322527;0.04642242;0.1713962;4.284719;0.166612;-0.1632746;3.575277;0.6595808;-0.3210841;2.644414;0.5796686;1.036997;4.235945;0.04641968;1.305926;4.093269;0.166608;1.394166;3.150868;0.3465207;1.140791;2.300367;0.01450199;0.3032356;2.461124;1.129672;0.1904544;1.312668;0.230123;0;0;0;0.3032356;2.461124;1.129672;0.1904544;1.312668;0.230123;0;0;0
810103.6835;NotLabelled;NONE;16384;-0.2922437;0.5083103;-0.7505776;-0.3047091;-21;19;-13;-2536;2746;586;65536;0.5110803;-0.4210526;0.572587;0.4833795;-5;30;30;-226;3816;-493;8192;0.634349;-0.7127113;-0.2728532;-0.1232687;13;35;18;1876;3666;-592;32768;0.7546049;-0.6191136;0.09833795;-0.1939058;7;24;15;1207;4157;-487;256;0.1191136;-0.16759;-0.8461482;-0.4916897;-4;30;12;494;3110;2054;128;-0.08033241;0.1024931;0.8028989;0.5817174;0;27;-5;18;3402;-1414;4;-0.602493;0.1814404;-0.4459834;-0.6365378;9;25;-4;2644;2922;396;16;0.732484;-0.666205;0.008310249;-0.1398892;5;20;12;827;3769;-348;2;0.5789474;-0.6960106;-0.3254848;-0.2728532;0;26;-10;442;3504;-468;8;0.33518;-0.742589;0.4044321;0.4155124;7;19;6;1537;3065;1875;0.6247082;2.49887;1.112602;0.6297559;2.958845;0.8193115;0.6341808;3.362074;0.559804;0.7419386;4.003782;0.2205959;0.531772;4.314579;0.0362502;0.1795124;4.27741;0.1573732;-0.1456338;3.570985;0.6609333;-0.3069712;2.639513;0.59669;1.04489;4.228166;0.03577417;1.314105;4.086336;0.1563224;1.407576;3.145228;0.3403182;1.148133;2.294027;0.01484424;0.3124867;2.45981;1.13061;0.1898118;1.312662;0.2306879;0;0;0;0.3124867;2.45981;1.13061;0.1898118;1.312662;0.2306879;0;0;0
810124.8223;NotLabelled;NONE;16384;-0.2922437;0.5138504;-0.749584;-0.2977839;-16;17;-8;-2568;2848;658;65536;0.5110803;-0.4279778;0.5721027;0.4778393;2;24;14;-538;3774;-319;8192;0.6301939;-0.7134712;-0.2797784;-0.1246537;15;46;18;1690;3886;-530;32768;0.75484;-0.6177285;0.09695291;-0.1980609;16;30;16;1177;4189;-637;256;0.1163435;-0.1634349;-0.8473455;-0.4916897;-1;31;11;394;3306;2094;128;-0.07756232;0.09833795;0.8036906;0.5817174;-4;31;-5;146;3576;-1716;4;-0.6038781;0.1842105;-0.4432133;-0.6363645;5;29;1;2904;3618;438;16;0.732937;-0.66482;0.008310249;-0.1440443;4;30;16;1333;4423;-308;2;0.5789474;-0.6942679;-0.3268698;-0.2756233;3;23;-13;418;3450;-656;8;0.33518;-0.7441142;0.4030471;0.4141274;3;10;4;965;3205;2145;0.6289152;2.500485;1.116828;0.6339699;2.961108;0.8245558;0.638401;3.364911;0.5659408;0.7464355;4.004791;0.2233855;0.5364036;4.314705;0.03740776;0.184124;4.278315;0.1587086;-0.1477261;3.579204;0.6680694;-0.3080696;2.64689;0.6144173;1.049487;4.228081;0.03740555;1.318638;4.086773;0.1587055;1.409697;3.151222;0.3701955;1.143314;2.301991;0.04518151;0.3166933;2.461386;1.134742;0.192049;1.310746;0.239561;0;0;0;0.3166933;2.461386;1.134742;0.192049;1.310746;0.239561;0;0;0
810144.6685;NotLabelled;NONE;16384;-0.2936288;0.5166205;-0.7482327;-0.2950138;-16;15;-5;-2462;3010;640;65536;0.5124654;-0.4307479;0.5699358;0.4764543;3;22;5;-656;3804;-355;8192;0.6260388;-0.7138906;-0.2867036;-0.1274238;19;53;17;1418;4002;-324;32768;0.754849;-0.6163435;0.09418282;-0.2036011;22;35;13;1167;4119;-707;256;0.1135734;-0.1592798;-0.8493128;-0.4903047;-1;26;11;242;3484;2300;128;-0.07479224;0.09556787;0.8042871;0.5817174;1;29;-6;138;3778;-1828;4;-0.6066482;0.1855956;-0.4418283;-0.634287;7;19;9;2790;3818;440;16;0.7333779;-0.6634349;0.006925208;-0.1481994;5;21;12;1543;4483;-268;2;0.5775623;-0.6926357;-0.3268698;-0.2825485;4;2;-12;406;4050;-196;8;0.3365651;-0.7442122;0.400277;0.4155124;0;-3;-6;795;3621;2421;0.6352195;2.498687;1.121825;0.6402689;2.958817;0.8287785;0.6446953;3.362185;0.5694845;0.7500319;4.001538;0.2251102;0.5386865;4.310101;0.03837383;0.1866094;4.272648;0.1599391;-0.1460459;3.580719;0.6785002;-0.3083924;2.64815;0.6366236;1.052109;4.225514;0.03837186;1.321875;4.085612;0.1599368;1.415272;3.152475;0.3808593;1.144917;2.305203;0.05401623;0.3229979;2.459618;1.139811;0.1989751;1.308732;0.2448596;0;0;0;0.3229979;2.459618;1.139811;0.1989751;1.308732;0.2448596;0;0;0
810164.803;NotLabelled;NONE;16384;-0.2950138;0.5180055;-0.7478173;-0.2922437;-17;19;0;-2358;3152;668;65536;0.5138504;-0.4307479;0.5686874;0.4764543;3;22;-2;-756;3854;-315;8192;0.6218836;-0.7133825;-0.2950138;-0.1315789;19;54;16;1190;4050;-168;32768;0.7564787;-0.6135734;0.0900277;-0.2077562;28;40;8;1111;3993;-785;256;0.1108033;-0.1565097;-0.8501933;-0.4903047;-2;22;12;248;3582;2322;128;-0.07202215;0.09141274;0.8060216;0.5803324;0;22;-8;30;3906;-1718;4;-0.6080332;0.1855956;-0.4404432;-0.633924;8;13;10;2434;3150;398;16;0.7325377;-0.6634349;0.005540166;-0.1523546;4;21;12;971;4167;-366;2;0.5789474;-0.6921315;-0.3254848;-0.2825485;2;-2;-9;374;4408;-156;8;0.33518;-0.7433158;0.4016621;0.4168975;-1;-25;-8;695;3835;2731;0.6473866;2.495868;1.126578;0.6524323;2.955673;0.8330219;0.6568555;3.358754;0.5732818;0.7596783;3.996444;0.2250842;0.5471019;4.303187;0.03675488;0.1952696;4.265241;0.1588753;-0.1349799;3.575075;0.6813076;-0.2958096;2.642149;0.6415446;1.060811;4.220357;0.03675264;1.331168;4.082089;0.1588719;1.425664;3.150984;0.3877541;1.151777;2.305631;0.0588873;0.3351651;2.456819;1.144611;0.2034692;1.307246;0.249068;0;0;0;0.3351651;2.456819;1.144611;0.2034692;1.307246;0.249068;0;0;0
810185.8381;NotLabelled;NONE;16384;-0.2977839;0.5207756;-0.7458703;-0.2894737;-16;31;7;-2452;3404;866;65536;0.5166205;-0.432133;0.5651157;0.4764543;1;25;-8;-820;3950;-313;8192;0.6191136;-0.7121148;-0.301939;-0.1357341;16;51;14;1078;4074;4;32768;0.7582049;-0.6108033;0.08448754;-0.2119114;33;44;2;1171;3785;-963;256;0.1038781;-0.1537396;-0.8523679;-0.4889196;0;19;17;812;3768;2182;128;-0.06648199;0.0900277;0.8066533;0.5803324;-5;8;-10;-488;4124;-1362;4;-0.6121883;0.1869806;-0.4362881;-0.6323894;14;39;11;2650;2780;182;16;0.7329239;-0.6620498;0.004155125;-0.1565097;3;27;13;891;4169;-520;2;0.5803324;-0.6910539;-0.3240997;-0.2839335;-2;-3;-9;350;4854;-226;8;0.33518;-0.7425373;0.4016621;0.4182825;-2;-1;-6;617;4475;2199;0.6591221;2.492481;1.12853;0.6641519;2.950824;0.8326944;0.668561;3.35261;0.5709559;0.7701745;3.989835;0.2215551;0.5570109;4.295861;0.03272495;0.2052808;4.257529;0.1550194;-0.1246293;3.569346;0.6802744;-0.2850998;2.636418;0.6391621;1.070863;4.213924;0.03272212;1.341496;4.07635;0.1550152;1.436986;3.147178;0.391224;1.165026;2.302999;0.05777699;0.3469018;2.453523;1.146773;0.2098045;1.306236;0.2491114;0;0;0;0.3469018;2.453523;1.146773;0.2098045;1.306236;0.2491114;0;0;0
810206.7168;NotLabelled;NONE;16384;-0.301939;0.5235457;-0.7427905;-0.2880886;-11;38;15;-2684;3580;1118;65536;0.5193906;-0.432133;0.5637408;0.4750692;0;28;-10;-662;4200;-417;8192;0.6149584;-0.7095727;-0.3130194;-0.1426593;6;47;9;714;4372;176;32768;0.7619895;-0.6038781;0.07479224;-0.2216066;29;38;-3;1913;3521;-983;256;0.101108;-0.1523546;-0.8529495;-0.4889196;4;20;21;994;3966;1946;128;-0.06371191;0.0900277;0.8058788;0.5817174;-4;7;-12;-800;4412;-1186;4;-0.6149584;0.1911357;-0.432133;-0.6313117;21;38;9;2430;2778;16;16;0.7317255;-0.6620498;0.002770083;-0.1620499;2;38;17;451;3995;-360;2;0.5803324;-0.6910539;-0.3240997;-0.2839335;-8;-5;-7;220;5214;-74;8;0.33518;-0.7410037;0.4030471;0.4196676;1;-5;-4;1197;4373;1883;0.6723239;2.486019;1.136454;0.6773517;2.944177;0.8403332;0.681759;3.3458;0.5783444;0.7850292;3.980844;0.225476;0.5726442;4.286518;0.03520265;0.2209039;4.24992;0.1579971;-0.1046297;3.562434;0.6868834;-0.2622577;2.629113;0.6437277;1.086242;4.203;0.0352006;1.356556;4.065246;0.1579939;1.455343;3.13722;0.3973355;1.184744;2.293498;0.06163263;0.3601037;2.447071;1.154724;0.2158409;1.304714;0.251913;0;0;0;0.3601037;2.447071;1.154724;0.2158409;1.304714;0.251913;0;0;0
810226.8928;NotLabelled;NONE;16384;-0.3102493;0.5304709;-0.734947;-0.2867036;-1;38;19;-2832;3846;1322;65536;0.5249307;-0.434903;0.5576113;0.4736842;1;18;-12;-410;4770;-545;8192;0.6121883;-0.7086542;-0.3185596;-0.1468144;1;41;5;390;4670;112;32768;0.7644438;-0.599723;0.07063711;-0.2257618;28;36;-6;2013;3715;-1257;256;0.09556787;-0.1523546;-0.8527932;-0.4903047;7;20;23;904;4066;1870;128;-0.06232687;0.09141274;0.8058312;0.5817174;-9;5;-15;-392;4506;-882;4;-0.6177285;0.1980609;-0.4265928;-0.6302395;28;10;-8;2512;3188;628;16;0.7294345;-0.6606648;-0.004155125;-0.1772853;5;64;26;315;4249;-76;2;0.5831025;-0.6893682;-0.3227147;-0.2839335;-12;-3;-10;142;4622;-458;8;0.3365651;-0.741128;0.4016621;0.4196676;1;15;-3;1001;3621;1743;0.6740328;2.484427;1.138672;0.6790714;2.943568;0.8440769;0.6834883;3.34606;0.583426;0.7870376;3.980691;0.2298964;0.5747837;4.286284;0.03934824;0.2230443;4.249998;0.1622375;-0.1014474;3.560514;0.689159;-0.2609867;2.627645;0.6433323;1.088337;4.202494;0.03934598;1.358598;4.06472;0.1622344;1.458766;3.138329;0.407265;1.196983;2.297706;0.05710763;0.361812;2.445419;1.1568;0.2241756;1.303121;0.2528819;0;0;0;0.361812;2.445419;1.1568;0.2241756;1.303121;0.2528819;0;0;0
810247.6929;NotLabelled;NONE;16384;-0.3130194;0.533241;-0.7317609;-0.2867036;-1;31;16;-3112;3698;1450;65536;0.5277008;-0.434903;0.5549905;0.4736842;0;15;-18;-546;4844;-745;8192;0.6121883;-0.7061906;-0.3227147;-0.1495845;-1;33;2;370;4766;132;32768;0.7662786;-0.5969529;0.06509695;-0.2285319;28;35;-10;2091;3709;-1439;256;0.09141274;-0.1509695;-0.8534947;-0.4903047;6;23;22;664;3882;1680;128;-0.05817174;0.09141274;0.8041356;0.5844875;-14;16;-19;-144;4402;-422;4;-0.6177285;0.2022161;-0.4238227;-0.6307887;26;23;-11;3112;3246;888;16;0.7282132;-0.6592798;-0.009695291;-0.1869806;7;70;27;1067;4141;104;2;0.5844875;-0.6882696;-0.3213296;-0.2853186;-5;1;-6;686;3614;-1024;8;0.3393352;-0.7421432;0.398892;0.4182825;0;15;-3;1357;3631;1481;0.6759245;2.483317;1.143777;0.6809645;2.942587;0.8493831;0.6853825;3.345193;0.5889089;0.7923709;3.980207;0.2370944;0.5817855;4.287395;0.04725975;0.2298086;4.252606;0.1699024;-0.09182389;3.557159;0.6907056;-0.2476512;2.623981;0.6388296;1.094898;4.200947;0.04725772;1.364388;4.061454;0.169899;1.464819;3.135863;0.4178275;1.205674;2.297262;0.06092548;0.3637035;2.444301;1.161887;0.2372053;1.299509;0.2594968;0;0;0;0.3637035;2.444301;1.161887;0.2372053;1.299509;0.2594968;0;0;0
