SEP=;
index;label;segment;RightUpperArm_boneIndex;RightUpperArm_quat9x_w;RightUpperArm_quat9x_x;RightUpperArm_quat9x_y;RightUpperArm_quat9x_z;RightUpperArm_gyroscope_x;RightUpperArm_gyroscope_y;RightUpperArm_gyroscope_z;RightUpperArm_accelerometer_x;RightUpperArm_accelerometer_y;RightUpperArm_accelerometer_z;RightLowerArm_boneIndex;RightLowerArm_quat9x_w;RightLowerArm_quat9x_x;RightLowerArm_quat9x_y;RightLowerArm_quat9x_z;RightLowerArm_gyroscope_x;RightLowerArm_gyroscope_y;RightLowerArm_gyroscope_z;RightLowerArm_accelerometer_x;RightLowerArm_accelerometer_y;RightLowerArm_accelerometer_z;LeftUpperArm_boneIndex;LeftUpperArm_quat9x_w;LeftUpperArm_quat9x_x;LeftUpperArm_quat9x_y;LeftUpperArm_quat9x_z;LeftUpperArm_gyroscope_x;LeftUpperArm_gyroscope_y;LeftUpperArm_gyroscope_z;LeftUpperArm_accelerometer_x;LeftUpperArm_accelerometer_y;LeftUpperArm_accelerometer_z;LeftLowerArm_boneIndex;LeftLowerArm_quat9x_w;LeftLowerArm_quat9x_x;LeftLowerArm_quat9x_y;LeftLowerArm_quat9x_z;LeftLowerArm_gyroscope_x;LeftLowerArm_gyroscope_y;LeftLowerArm_gyroscope_z;LeftLowerArm_accelerometer_x;LeftLowerArm_accelerometer_y;LeftLowerArm_accelerometer_z;Chest_boneIndex;Chest_quat9x_w;Chest_quat9x_x;Chest_quat9x_y;Chest_quat9x_z;Chest_gyroscope_x;Chest_gyroscope_y;Chest_gyroscope_z;Chest_accelerometer_x;Chest_accelerometer_y;Chest_accelerometer_z;Spine_boneIndex;Spine_quat9x_w;Spine_quat9x_x;Spine_quat9x_y;Spine_quat9x_z;Spine_gyroscope_x;Spine_gyroscope_y;Spine_gyroscope_z;Spine_accelerometer_x;Spine_accelerometer_y;Spine_accelerometer_z;RightUpperLeg_boneIndex;RightUpperLeg_quat9x_w;RightUpperLeg_quat9x_x;RightUpperLeg_quat9x_y;RightUpperLeg_quat9x_z;RightUpperLeg_gyroscope_x;RightUpperLeg_gyroscope_y;RightUpperLeg_gyroscope_z;RightUpperLeg_accelerometer_x;RightUpperLeg_accelerometer_y;RightUpperLeg_accelerometer_z;RightLowerLeg_boneIndex;RightLowerLeg_quat9x_w;RightLowerLeg_quat9x_x;RightLowerLeg_quat9x_y;RightLowerLeg_quat9x_z;RightLowerLeg_gyroscope_x;RightLowerLeg_gyroscope_y;RightLowerLeg_gyroscope_z;RightLowerLeg_accelerometer_x;RightLowerLeg_accelerometer_y;RightLowerLeg_accelerometer_z;LeftUpperLeg_boneIndex;LeftUpperLeg_quat9x_w;LeftUpperLeg_quat9x_x;LeftUpperLeg_quat9x_y;LeftUpperLeg_quat9x_z;LeftUpperLeg_gyroscope_x;LeftUpperLeg_gyroscope_y;LeftUpperLeg_gyroscope_z;LeftUpperLeg_accelerometer_x;LeftUpperLeg_accelerometer_y;LeftUpperLeg_accelerometer_z;LeftLowerLeg_boneIndex;LeftLowerLeg_quat9x_w;LeftLowerLeg_quat9x_x;LeftLowerLeg_quat9x_y;LeftLowerLeg_quat9x_z;LeftLowerLeg_gyroscope_x;LeftLowerLeg_gyroscope_y;LeftLowerLeg_gyroscope_z;LeftLowerLeg_accelerometer_x;LeftLowerLeg_accelerometer_y;LeftLowerLeg_accelerometer_z;pelvis_x;pelvis_y;pelvis_z;lowerSpine_x;lowerSpine_y;lowerSpine_z;middleSpine_x;middleSpine_y;middleSpine_z;upperSpine_x;upperSpine_y;upperSpine_z;rightClavicle_x;rightClavicle_y;rightClavicle_z;rightShoulder_x;rightShoulder_y;rightShoulder_z;rightElbow_x;rightElbow_y;rightElbow_z;rightWrist_x;rightWrist_y;rightWrist_z;leftClavicle_x;leftClavicle_y;leftClavicle_z;leftShoulder_x;leftShoulder_y;leftShoulder_z;leftElbow_x;leftElbow_y;leftElbow_z;leftWrist_x;leftWrist_y;leftWrist_z;rightHip_x;rightHip_y;rightHip_z;rightKnee_x;rightKnee_y;rightKnee_z;rightAnkle_x;rightAnkle_y;rightAnkle_z;leftHip_x;leftHip_y;leftHip_z;leftKnee_x;leftKnee_y;leftKnee_z;leftAnkle_x;leftAnkle_y;leftAnkle_z;
1102412.6509;NotLabelled;NONE;16384;0.8795516;0.3434903;0.3074792;0.1177285;-16;-11;-23;1674;-2034;2900;65536;-0.5318559;-0.1869806;0.7579026;0.3282548;-9;19;22;2262;1153;-3045;8192;0.4155124;-0.7347603;-0.5318559;-0.06786703;-22;9;-3;3040;2574;-214;32768;0.5069252;-0.7442766;0.2770083;-0.33518;7;-17;-17;2979;2359;1361;256;-0.1565097;-0.06648199;-0.7091833;-0.6842105;-1;-7;-20;1122;3708;254;128;0.07756232;0.09556787;0.6689751;0.7330233;-7;-8;9;-786;3784;256;4;0.6348433;-0.1731302;0.4265928;0.6204986;-6;3;3;2686;2930;198;16;0.7084932;-0.6745152;-0.0401662;-0.2036011;-11;-6;-4;899;4091;-306;2;0.5775623;-0.6823097;-0.3490305;-0.2811634;3;-9;0;750;3900;-300;8;0.3808864;-0.7931126;0.3240997;0.3476454;-4;-16;4;1135;3397;1979;1.212336;2.447411;0.8453317;1.218244;2.98574;0.7570741;1.223433;3.458602;0.6774999;1.454664;4.153557;0.6324239;1.311233;4.541887;0.5743253;0.9444216;4.52052;0.6459635;0.3025235;5.011904;0.1933731;1.202357;4.727827;0.2793832;1.804965;4.377612;0.5743243;2.036148;4.157278;0.6459622;2.443515;3.50137;1.222253;1.744494;2.966015;1.572326;0.9000747;2.404693;0.8451389;0.306636;1.308457;0.07900865;0;0;0;0.9000747;2.404693;0.8451389;0.306636;1.308457;0.07900865;0;0;0
1102433.7363;NotLabelled;NONE;16384;0.8778487;0.3448753;0.3102493;0.1191136;-14;-13;-22;1680;-1996;2872;65536;-0.534626;-0.1897507;0.7546571;0.3296399;-7;22;22;2320;1007;-3003;8192;0.4182825;-0.7321802;-0.533241;-0.06786703;-24;10;-6;3030;2570;-334;32768;0.5096953;-0.7437274;0.2783934;-0.3310249;7;-20;-16;2921;2229;1281;256;-0.1537396;-0.06509695;-0.7099173;-0.6842105;2;-4;-21;1098;3706;130;128;0.07617728;0.09418282;0.66759;0.7346089;-8;-4;10;-848;3850;428;4;0.6361941;-0.1731302;0.4265928;0.6191136;-6;0;2;2386;2902;232;16;0.7075692;-0.6759003;-0.0401662;-0.2022161;-12;-1;-3;587;4117;-274;2;0.5775623;-0.6830165;-0.3476454;-0.2811634;5;-11;0;766;3896;-376;8;0.3795014;-0.7926009;0.3254848;0.3490305;-2;-12;4;1083;3381;2111;1.208386;2.447668;0.8446655;1.214295;2.986067;0.7568421;1.219485;3.458994;0.6776493;1.445461;4.155848;0.6353198;1.299141;4.543278;0.5784338;0.9324203;4.518861;0.6495614;0.2882164;5.011073;0.201168;1.188569;4.728045;0.2851723;1.794111;4.382771;0.5784326;2.026884;4.163952;0.6495596;2.437024;3.507261;1.222986;1.73937;2.9682;1.570087;0.8961249;2.40495;0.8444357;0.3064461;1.308714;0.07540786;0;0;0;0.8961249;2.40495;0.8444357;0.3064461;1.308714;0.07540786;0;0;0
1102454.6836;NotLabelled;NONE;16384;0.875389;0.3476454;0.3130194;0.1218837;-14;-15;-20;1752;-1944;2844;65536;-0.536011;-0.1925208;0.7523632;0.3310249;-5;25;20;2424;891;-3025;8192;0.4210526;-0.7297053;-0.534626;-0.06648199;-23;13;-8;2952;2540;-316;32768;0.5124654;-0.7425309;0.2797784;-0.3282548;8;-22;-17;2959;2079;1251;256;-0.1495845;-0.06371191;-0.7109299;-0.6842105;1;-6;-22;982;3658;162;128;0.0734072;0.09418282;0.666205;0.7361466;-8;-6;12;-832;3870;328;4;0.6352194;-0.1717452;0.4265928;0.6204986;-4;-2;3;2412;2848;306;16;0.7066386;-0.6772853;-0.0401662;-0.200831;-12;5;-2;665;4095;-256;2;0.5775623;-0.6837197;-0.3462604;-0.2811634;8;-8;0;902;3818;-360;8;0.3781163;-0.7926928;0.3268698;0.3490305;0;-12;4;1171;3377;2239;1.205502;2.447433;0.8428656;1.211414;2.986195;0.7572914;1.216608;3.459448;0.6800742;1.43849;4.157621;0.6378288;1.289937;4.54416;0.580664;0.923283;4.517582;0.6513592;0.2782629;5.007701;0.2018464;1.180221;4.728498;0.2813164;1.785852;4.386599;0.5812982;2.019836;4.169186;0.6527624;2.429541;3.512827;1.226879;1.73406;2.969077;1.571015;0.8932406;2.404716;0.8424431;0.3038606;1.309525;0.07170027;0;0;0;0.8932406;2.404716;0.8424431;0.3038606;1.309525;0.07170027;0;0;0
1102475.6622;NotLabelled;NONE;16384;0.8717349;0.3518005;0.3157895;0.1288089;-13;-20;-18;1896;-2002;2834;65536;-0.5387812;-0.200831;0.746969;0.333795;-2;28;20;2560;833;-2955;8192;0.4252077;-0.7272919;-0.534626;-0.06648199;-22;13;-10;3004;2652;-288;32768;0.5152354;-0.741833;0.2797784;-0.3254848;9;-22;-17;2983;2165;1247;256;-0.1412742;-0.06094183;-0.711538;-0.6855956;0;-10;-25;940;3756;124;128;0.06925207;0.09279778;0.66482;0.7379751;-11;-10;10;-684;3810;332;4;0.6365197;-0.1703601;0.4252077;0.6204986;-2;6;7;2642;3068;430;16;0.7048324;-0.6786703;-0.04155125;-0.2022161;-12;1;0;811;4167;-98;2;0.5761772;-0.6854543;-0.3462604;-0.2797784;8;-6;2;806;3986;-360;8;0.3781163;-0.7915449;0.3296399;0.3490305;0;-11;3;959;3367;2277;1.201455;2.446883;0.842248;1.207372;2.98603;0.7591388;1.212569;3.459632;0.6840867;1.428882;4.159523;0.6413885;1.27721;4.544866;0.5843396;0.9108725;4.515414;0.6555356;0.2611046;5.008102;0.2157745;1.164096;4.73167;0.2931663;1.774352;4.391219;0.5843384;2.010139;4.175673;0.6555344;2.42576;3.516247;1.22183;1.730837;2.969153;1.56177;0.8891937;2.404169;0.8416145;0.3013272;1.310317;0.06781882;0;0;0;0.8891937;2.404169;0.8416145;0.3013272;1.310317;0.06781882;0;0;0
1102495.6862;NotLabelled;NONE;16384;0.8691872;0.3545706;0.3185596;0.1315789;-12;-21;-17;1942;-1982;2862;65536;-0.5401662;-0.2049861;0.7442147;0.33518;-1;28;19;2658;929;-2853;8192;0.4307479;-0.7219707;-0.5373961;-0.06648199;-20;13;-10;3054;2720;-50;32768;0.5207756;-0.7404456;0.2811634;-0.3185596;11;-21;-16;3013;2431;1263;256;-0.1371191;-0.05955679;-0.7111322;-0.6869806;2;-12;-26;938;3862;158;128;0.06648199;0.09141274;0.6634349;0.7396472;-12;-7;11;-720;3932;590;4;0.6365197;-0.1703601;0.4252077;0.6204986;-3;5;7;2466;3142;502;16;0.7034962;-0.6800554;-0.04155125;-0.2022161;-11;-1;0;831;4051;34;2;0.5747922;-0.6885677;-0.3434903;-0.2783934;10;-13;3;490;3950;-266;8;0.3753462;-0.7905093;0.333795;0.3504155;-1;-19;4;789;3645;2041;1.196133;2.442677;0.8496611;1.202054;2.982219;0.7691561;1.207255;3.456177;0.6963916;1.412734;4.159477;0.6562644;1.255162;4.542612;0.6003507;0.8892553;4.507247;0.6710682;0.2362081;4.999617;0.2358328;1.142019;4.732144;0.311745;1.754626;4.39669;0.6003494;1.993656;4.184587;0.6710663;2.40864;3.521264;1.233266;1.71327;2.969487;1.564611;0.8838712;2.399966;0.848805;0.3008858;1.310555;0.06511484;0;0;0;0.8838712;2.399966;0.848805;0.3008858;1.310555;0.06511484;0;0;0
1102516.681;NotLabelled;NONE;16384;0.8674718;0.3559557;0.3199446;0.1357341;-11;-20;-17;2068;-2048;2966;65536;-0.5401662;-0.2091413;0.7424314;0.3365651;-1;26;18;2712;955;-2901;8192;0.434903;-0.7184388;-0.5387812;-0.06648199;-21;13;-8;3054;2886;4;32768;0.5235457;-0.7402681;0.2811634;-0.3144044;10;-21;-18;3019;2583;1465;256;-0.1315789;-0.05817174;-0.7122926;-0.6869806;2;-11;-26;1018;3908;304;128;0.06371191;0.09141274;0.6620498;0.7411306;-13;-7;11;-742;3920;312;4;0.6382352;-0.1689751;0.4252077;0.6191136;-5;0;6;2176;3124;682;16;0.7026326;-0.6814404;-0.0401662;-0.200831;-9;-2;0;943;4087;108;2;0.5747922;-0.6898147;-0.3421052;-0.2770083;9;-15;0;440;4138;-182;8;0.3739612;-0.7899644;0.33518;0.3518005;-1;-16;6;955;3465;2029;1.192381;2.442855;0.8489265;1.198305;2.982747;0.7708061;1.20351;3.457022;0.7001364;1.403653;4.16201;0.6627427;1.243216;4.544129;0.6080363;0.8775188;4.505718;0.6782439;0.2220244;4.998595;0.2472813;1.129215;4.735693;0.3226798;1.74378;4.402025;0.6080351;1.984351;4.1915;0.6782422;2.404106;3.524415;1.232389;1.713107;2.963382;1.557273;0.8801193;2.400148;0.8478665;0.3008735;1.310737;0.06140865;0;0;0;0.8801193;2.400148;0.8478665;0.3008735;1.310737;0.06140865;0;0;0
1102536.8138;NotLabelled;NONE;16384;0.8659512;0.3573407;0.3213296;0.1385041;-11;-17;-19;2098;-1996;3000;65536;-0.5415512;-0.2132964;0.7389713;0.3393352;-2;24;20;2882;915;-2845;8192;0.4376731;-0.7157114;-0.5401662;-0.06648199;-23;10;-8;3082;2924;104;32768;0.5263157;-0.7389466;0.2825485;-0.3116343;7;-21;-18;3017;2757;1453;256;-0.1274238;-0.0567867;-0.7118225;-0.6883656;0;-10;-26;878;4000;328;128;0.06094183;0.0900277;0.6606648;0.7427672;-11;-12;12;-696;4064;348;4;0.6382352;-0.1689751;0.4252077;0.6191136;-8;-7;3;2266;3096;774;16;0.7012867;-0.6828254;-0.0401662;-0.200831;-9;-4;0;1023;4145;240;2;0.5747922;-0.6904998;-0.3407202;-0.2770083;8;-18;0;458;3858;-328;8;0.3725762;-0.7894384;0.3379501;0.3518005;-2;-20;6;975;3481;2079;1.192918;2.439529;0.8505341;1.198847;2.979762;0.7748009;1.204055;3.454345;0.7062284;1.397272;4.161254;0.668689;1.233094;4.541771;0.6139182;0.8677939;4.499789;0.684153;0.2111504;4.990965;0.2529977;1.119011;4.731501;0.3321529;1.735027;4.404582;0.6139171;1.977654;4.19644;0.6841513;2.399018;3.526317;1.233389;1.710381;2.959359;1.552961;0.8806569;2.396829;0.84927;0.3008766;1.310872;0.05843961;0;0;0;0.8806569;2.396829;0.84927;0.3008766;1.310872;0.05843961;0;0;0
1102557.6861;NotLabelled;NONE;16384;0.8638963;0.3587258;0.3240997;0.1412742;-12;-14;-18;2038;-1900;2950;65536;-0.5443213;-0.2160665;0.7354858;0.3407202;-5;23;22;2910;829;-2809;8192;0.4418283;-0.7132816;-0.5401662;-0.06509695;-24;8;-7;3098;2900;116;32768;0.5290859;-0.738709;0.2825485;-0.3074792;5;-20;-18;3059;2715;1239;256;-0.1232687;-0.05540166;-0.7126628;-0.6883656;-3;-15;-25;730;3958;256;128;0.05817174;0.0900277;0.6592798;0.7442185;-12;-15;11;-704;4036;320;4;0.6380383;-0.166205;0.4265928;0.6191136;-9;-4;2;2394;2938;612;16;0.7000135;-0.6842105;-0.03878116;-0.200831;-7;-4;0;1039;4065;176;2;0.5747922;-0.6924128;-0.3379501;-0.2756233;10;-15;1;546;3880;-514;8;0.3711911;-0.7882809;0.3407202;0.3531856;-2;-23;5;1187;3537;2185;1.189264;2.439669;0.8497083;1.195196;2.980224;0.7763139;1.200407;3.455099;0.7097958;1.388249;4.163595;0.6749841;1.221218;4.543041;0.6214185;0.8561831;4.498016;0.6911437;0.1984929;4.988414;0.2607;1.107444;4.732092;0.3375377;1.724185;4.409694;0.6214175;1.96833;4.20316;0.6911421;2.39094;3.531294;1.237285;1.702371;2.96111;1.551211;0.8770027;2.396974;0.8482448;0.3009448;1.311018;0.05469871;0;0;0;0.8770027;2.396974;0.8482448;0.3009448;1.311018;0.05469871;0;0;0
1102578.7487;NotLabelled;NONE;16384;0.8617608;0.3614958;0.3254848;0.1440443;-14;-14;-19;2070;-1890;2962;65536;-0.5457063;-0.2202216;0.7325783;0.3421052;-8;20;24;2774;875;-2861;8192;0.4445983;-0.7106303;-0.5415512;-0.06371191;-24;8;-7;3120;2890;68;32768;0.5304709;-0.7394332;0.2825485;-0.3033241;6;-19;-19;3019;2695;1069;256;-0.1121884;-0.05401662;-0.7145969;-0.6883656;0;-17;-26;760;3850;166;128;0.05124654;0.0900277;0.6578947;0.7459513;-9;-11;13;-564;3936;496;4;0.6374698;-0.1648199;0.4279778;0.6191136;-9;-6;0;2424;2938;628;16;0.698657;-0.6855956;-0.03878116;-0.200831;-5;-7;0;865;4057;134;2;0.5747922;-0.6943066;-0.33518;-0.2742382;12;-24;3;648;4046;-626;8;0.368421;-0.7883783;0.3434903;0.3531856;-1;-21;4;1187;3491;2173;1.195953;2.436423;0.8469303;1.201889;2.977291;0.7758784;1.207103;3.45245;0.7114185;1.389373;4.162392;0.6764426;1.219364;4.540503;0.6228046;0.8546978;4.492627;0.6925604;0.1944345;4.981508;0.2643358;1.104907;4.729475;0.3372435;1.723363;4.411109;0.6228034;1.969126;4.206515;0.6925588;2.394688;3.532399;1.233613;1.7092;2.956348;1.543546;0.883692;2.393735;0.8452668;0.3036998;1.310539;0.05081489;0;0;0;0.883692;2.393735;0.8452668;0.3036998;1.310539;0.05081489;0;0;0
1102600.7884;NotLabelled;NONE;16384;0.8569402;0.365651;0.3310249;0.1495845;-15;-19;-22;2146;-1966;2910;65536;-0.5498615;-0.2257618;0.7264606;0.3448753;-7;25;23;2774;831;-3043;8192;0.4473684;-0.7090128;-0.5415512;-0.06232687;-24;12;-6;3090;2936;128;32768;0.533241;-0.7386026;0.2839335;-0.299169;8;-21;-20;2967;2659;987;256;-0.1066482;-0.05263158;-0.7142129;-0.6897507;0;-15;-27;760;3896;154;128;0.04847645;0.0900277;0.6565097;0.7473553;-10;-14;12;-646;3994;556;4;0.6349627;-0.1620499;0.4307479;0.6204986;-7;-12;-1;2768;2970;528;16;0.6982355;-0.6869806;-0.03601108;-0.1980609;-3;-10;0;815;4115;232;2;0.5720221;-0.7008447;-0.3296399;-0.2700831;11;-25;3;654;3850;-670;8;0.3642659;-0.786628;0.3490305;0.3559557;-4;-28;3;1079;3353;2129;1.188357;2.43617;0.8520784;1.194296;2.977388;0.7837502;1.199514;3.452866;0.7216829;1.369308;4.16589;0.6866299;1.192694;4.540956;0.6329576;0.8289255;4.486702;0.7027277;0.171356;4.976556;0.2714807;1.082455;4.729342;0.3526074;1.698885;4.42042;0.6329565;1.948199;4.220173;0.7027265;2.37247;3.545763;1.244428;1.687428;2.964821;1.54611;0.8760956;2.39349;0.850183;0.3033753;1.310645;0.04999733;0;0;0;0.8760956;2.39349;0.850183;0.3033753;1.310645;0.04999733;0;0;0
1102621.685;NotLabelled;NONE;16384;0.8550745;0.367036;0.33241;0.1537396;-17;-20;-22;2374;-1996;2878;65536;-0.5526316;-0.2285319;0.7228245;0.3462604;-7;26;24;2932;817;-2953;8192;0.4542936;-0.7024578;-0.5443213;-0.06232687;-26;11;-9;2754;2754;236;32768;0.5401662;-0.7368877;0.2839335;-0.2908587;8;-23;-19;2973;2537;949;256;-0.101108;-0.05124654;-0.7151189;-0.6897507;2;-16;-28;674;3980;130;128;0.04570637;0.0900277;0.6551247;0.748744;-11;-11;12;-594;4008;716;4;0.6326624;-0.1620499;0.432133;0.6218836;-6;-5;-2;2822;3102;538;16;0.6983055;-0.6869806;-0.03462604;-0.1980609;-3;-3;4;803;4177;198;2;0.5720221;-0.7026722;-0.3268698;-0.2686981;11;-25;2;670;3872;-540;8;0.3628809;-0.7847834;0.3531856;0.3573407;-4;-33;2;1235;3439;2179;1.189205;2.436629;0.8486178;1.195147;2.97813;0.7825621;1.200368;3.453863;0.7224913;1.363335;4.168608;0.6901674;1.183172;4.542154;0.6377017;0.8198838;4.484156;0.7069612;0.1555919;4.972505;0.2843975;1.069289;4.732951;0.3590207;1.690497;4.426483;0.6377004;1.941664;4.228386;0.7069596;2.366824;3.553004;1.246749;1.683131;2.96758;1.542773;0.8769438;2.393958;0.8465288;0.3035388;1.310704;0.04738734;0;0;0;0.8769438;2.393958;0.8465288;0.3035388;1.310704;0.04738734;0;0;0
1102643.6764;NotLabelled;NONE;16384;0.8522925;0.3698061;0.33518;0.1565097;-20;-19;-21;2372;-2020;2882;65536;-0.5540166;-0.232687;0.7197673;0.3476454;-9;27;23;3020;695;-2811;8192;0.4584487;-0.6987957;-0.5457063;-0.06094183;-29;9;-11;2772;2698;332;32768;0.5429363;-0.7359447;0.2853186;-0.2867036;6;-27;-17;3033;2481;927;256;-0.09695291;-0.04986149;-0.7144547;-0.6911357;2;-13;-27;764;3996;16;128;0.04155125;0.0900277;0.6523545;0.7514001;-14;-22;10;-692;4098;522;4;0.6343732;-0.1606648;0.432133;0.6204986;-6;2;-1;2628;3042;604;16;0.6983055;-0.6869806;-0.03462604;-0.1980609;-3;0;4;769;4125;-6;2;0.5720221;-0.7044812;-0.3240997;-0.267313;10;-23;1;676;4082;-726;8;0.3601108;-0.7835407;0.3559557;0.3601108;-5;-34;1;1171;3527;2115;1.185336;2.439186;0.8508438;1.191281;2.980956;0.7870395;1.196504;3.456935;0.7289467;1.352485;4.17323;0.6964768;1.168682;4.54499;0.6439466;0.8059802;4.483461;0.7132334;0.1403533;4.9698;0.2904513;1.055407;4.734811;0.3629328;1.677112;4.434277;0.6439457;1.930204;4.238655;0.7132322;2.361497;3.559143;1.242877;1.684458;2.96131;1.529237;0.8730748;2.396524;0.8485634;0.3058515;1.310095;0.04932089;0;0;0;0.8730748;2.396524;0.8485634;0.3058515;1.310095;0.04932089;0;0;0
1102663.6709;NotLabelled;NONE;16384;0.8488655;0.3739612;0.3379501;0.1592798;-21;-20;-20;2458;-2046;2854;65536;-0.5554016;-0.2368421;0.7159915;0.3504155;-12;25;23;3220;643;-2687;8192;0.4639889;-0.6951295;-0.5457063;-0.06094183;-30;7;-13;2714;2702;186;32768;0.5443213;-0.7354493;0.2880886;-0.2825485;4;-31;-15;2991;2445;1009;256;-0.09141274;-0.04847645;-0.7152798;-0.6911357;5;-8;-26;728;3950;50;128;0.03878116;0.09141274;0.6509695;0.7525812;-12;-16;9;-670;3990;762;4;0.6334276;-0.1606648;0.433518;0.6204986;-7;4;0;2414;2984;676;16;0.6983055;-0.6869806;-0.03462604;-0.1980609;-2;2;5;895;4099;154;2;0.5706371;-0.7073916;-0.3213296;-0.265928;10;-20;1;670;4046;-638;8;0.3573407;-0.7822714;0.3601108;0.3614958;-4;-40;0;1333;3513;2209;1.186898;2.435655;0.856083;1.192849;2.977919;0.7966214;1.198077;3.454348;0.742344;1.348576;4.171932;0.7125852;1.161963;4.542457;0.6612541;0.7996911;4.477896;0.7300328;0.1315299;4.96421;0.311238;1.04793;4.7343;0.3830049;1.671227;4.435652;0.6612529;1.925762;4.241731;0.7300312;2.361576;3.561078;1.254488;1.686557;2.958863;1.536401;0.8746374;2.393013;0.8534333;0.3056247;1.310095;0.05070473;0;0;0;0.8746374;2.393013;0.8534333;0.3056247;1.310095;0.05070473;0;0;0
1102683.6755;NotLabelled;NONE;16384;0.8462944;0.3767313;0.3393352;0.1634349;-23;-18;-18;2642;-1998;2672;65536;-0.5567867;-0.2396122;0.7126251;0.3531856;-12;23;20;3126;591;-2617;8192;0.468144;-0.6924585;-0.5457063;-0.05955679;-31;6;-15;2814;2732;114;32768;0.5470914;-0.7338865;0.2908587;-0.2783934;2;-36;-14;2957;2441;1103;256;-0.08725762;-0.04709141;-0.7145513;-0.6925207;4;-7;-24;668;3994;126;128;0.03601108;0.09141274;0.6495845;0.7539144;-14;-14;8;-796;3960;496;4;0.6338332;-0.1606648;0.434903;0.6191136;-7;0;-2;2268;2978;792;16;0.6983728;-0.6869806;-0.033241;-0.1980609;-1;-1;4;915;4045;162;2;0.5706371;-0.7090534;-0.3199446;-0.2631579;10;-22;4;660;4076;-558;8;0.3545706;-0.7796726;0.365651;0.3642659;-5;-42;0;1093;3313;2041;1.182797;2.437714;0.8580205;1.188751;2.980217;0.8007823;1.193981;3.456865;0.7484583;1.337471;4.175878;0.7185552;1.14725;4.544554;0.6671602;0.7856286;4.476476;0.7359659;0.11498;4.96444;0.3231116;1.032387;4.738246;0.3938017;1.657533;4.442722;0.667159;1.91395;4.251307;0.7359643;2.352559;3.566428;1.252529;1.678383;2.962029;1.531769;0.8705365;2.395083;0.8551822;0.3053085;1.310096;0.05257536;0;0;0;0.8705365;2.395083;0.8551822;0.3053085;1.310096;0.05257536;0;0;0
1102704.7237;NotLabelled;NONE;16384;0.8406757;0.3836565;0.3434903;0.16759;-22;-14;-18;2604;-2008;2538;65536;-0.5609418;-0.2451524;0.7053738;0.3573407;-13;20;18;3280;641;-2397;8192;0.4722992;-0.6897494;-0.5457063;-0.05817174;-29;5;-15;2954;2746;108;32768;0.5484765;-0.7333137;0.2936288;-0.2742382;2;-37;-13;3057;2491;1125;256;-0.07894737;-0.04432133;-0.7143512;-0.6939058;6;-10;-20;490;4064;-14;128;0.03185596;0.09279778;0.6454294;0.7574924;-14;-14;6;-630;3990;654;4;0.6316078;-0.1565097;0.4376731;0.6204986;-10;-20;-2;2566;3024;650;16;0.6984991;-0.6869806;-0.03047091;-0.1980609;0;-9;2;945;4159;114;2;0.5706371;-0.7114248;-0.3157895;-0.2617728;10;-29;2;370;3738;-650;8;0.3504155;-0.778291;0.3698061;0.367036;-8;-54;-2;1167;3427;2025;1.185087;2.438031;0.858445;1.191043;2.98076;0.8033813;1.196276;3.457613;0.7529679;1.334249;4.177812;0.7257756;1.141232;4.545198;0.67558;0.7800977;4.47409;0.7438768;0.1073957;4.961599;0.3338335;1.025499;4.737443;0.4019385;1.652283;4.447297;0.6755788;1.910118;4.25761;0.7438751;2.352484;3.571002;1.254909;1.679213;2.963554;1.529685;0.8728269;2.395412;0.855422;0.3076791;1.309482;0.0540353;0;0;0;0.8728269;2.395412;0.855422;0.3076791;1.309482;0.0540353;0;0;0
1102726.7352;NotLabelled;NONE;16384;0.8370683;0.3878116;0.3462604;0.1703601;-21;-12;-17;2660;-2206;2532;65536;-0.5623268;-0.2479224;0.7018855;0.3601108;-13;17;18;3434;695;-2379;8192;0.4792244;-0.6850722;-0.5457063;-0.0567867;-21;5;-9;3080;2738;118;32768;0.5526316;-0.7315773;0.2977839;-0.265928;4;-26;-11;3173;2659;1335;256;-0.07617728;-0.04432133;-0.7133045;-0.6952909;6;-7;-18;626;4110;148;128;0.02908587;0.09279778;0.6440443;0.7587816;-16;-14;5;-768;3942;564;4;0.6286548;-0.1551246;0.4404432;0.6218836;-10;-17;-1;2572;3018;468;16;0.6989494;-0.6869806;-0.02908587;-0.1966759;0;-11;2;969;4087;98;2;0.5706371;-0.7165633;-0.3074792;-0.2576177;10;-38;-1;518;4084;-724;8;0.3421052;-0.7713016;0.3822715;0.3767313;-10;-58;-4;1205;3319;2003;1.191998;2.434816;0.86288;1.19796;2.978142;0.8140632;1.203199;3.455544;0.7691388;1.329992;4.177887;0.7445077;1.131326;4.542404;0.6954457;0.7712972;4.465464;0.7632607;0.0944523;4.955941;0.3637096;1.014729;4.738863;0.4250589;1.643835;4.452446;0.6954446;1.904542;4.266551;0.7632592;2.349285;3.578288;1.269987;1.676209;2.968659;1.540374;0.8797378;2.392235;0.8593276;0.3124244;1.308238;0.05685365;0;0;0;0.8797378;2.392235;0.8593276;0.3124244;1.308238;0.05685365;0;0;0
1102747.6715;NotLabelled;NONE;16384;0.8349205;0.3905817;0.3476454;0.1717452;-20;-9;-15;2792;-2166;2394;65536;-0.5637119;-0.2493075;0.699568;0.3614958;-14;14;16;3378;633;-2305;8192;0.4819945;-0.6832398;-0.5457063;-0.05540166;-17;5;-6;3090;2680;164;32768;0.5540166;-0.7309662;0.299169;-0.2631579;5;-21;-10;3063;2611;1295;256;-0.0734072;-0.04293629;-0.7123275;-0.6966759;3;-9;-15;558;4096;54;128;0.02770083;0.09418282;0.6426592;0.7598364;-9;-12;5;-954;3994;596;4;0.6269865;-0.1523546;0.4418283;0.6232687;-9;-16;1;2508;2974;536;16;0.6993939;-0.6869806;-0.02770083;-0.1952908;0;-11;2;1021;4107;74;2;0.5706371;-0.7193195;-0.3033241;-0.2548476;7;-34;0;860;3918;-840;8;0.3379501;-0.7676205;0.3891967;0.3808864;-9;-55;-3;1533;3327;1893;1.191194;2.437702;0.8610908;1.197158;2.981214;0.8143907;1.202399;3.458787;0.7713259;1.326475;4.181695;0.7495764;1.126463;4.545645;0.7017904;0.7666836;4.467082;0.7690628;0.08727285;4.958807;0.3754425;1.008264;4.744001;0.434017;1.639309;4.457626;0.7017892;1.900672;4.272456;0.7690611;2.351614;3.58071;1.265461;1.683117;2.964594;1.532484;0.878934;2.395135;0.8573592;0.3121928;1.308223;0.05843117;0;0;0;0.878934;2.395135;0.8573592;0.3121928;1.308223;0.05843117;0;0;0
1102768.9071;NotLabelled;NONE;16384;0.8321714;0.3933518;0.3504155;0.1731302;-20;-2;-12;2782;-2258;2322;65536;-0.566482;-0.2520775;0.6948852;0.3642659;-14;13;15;3508;619;-2253;8192;0.4833795;-0.6811504;-0.5470914;-0.05540166;-14;9;-3;2978;2646;62;32768;0.5554016;-0.7298434;0.300554;-0.2617728;6;-16;-9;2937;2463;1155;256;-0.07063711;-0.04293629;-0.7126076;-0.6966759;1;-6;-13;548;3952;-94;128;0.02216066;0.09695291;0.6398892;0.7620045;-10;-20;1;-670;3834;892;4;0.6273214;-0.1509695;0.4418283;0.6232687;-9;-14;4;2510;2964;532;16;0.6994473;-0.6869806;-0.02631579;-0.1952908;-1;-10;2;903;4113;150;2;0.5706371;-0.7220306;-0.299169;-0.2520775;8;-31;0;748;3738;-730;8;0.333795;-0.7652264;0.3947368;0.3836565;-7;-51;-3;1517;3309;1677;1.193943;2.436144;0.8622559;1.199909;2.97983;0.8176292;1.205151;3.457564;0.7763863;1.325053;4.181252;0.7573461;1.122966;4.54421;0.7107604;0.7636065;4.463322;0.7775216;0.08277021;4.956461;0.3881571;1.004365;4.743533;0.4440244;1.636313;4.459161;0.7107593;1.898703;4.275264;0.7775201;2.353172;3.582999;1.269964;1.685946;2.964732;1.535189;0.8816829;2.393592;0.8583488;0.312075;1.308209;0.05938158;0;0;0;0.8816829;2.393592;0.8583488;0.312075;1.308209;0.05938158;0;0;0
1102790.687;NotLabelled;NONE;16384;0.8299809;0.3961219;0.3518005;0.1745152;-19;-2;-9;2560;-2224;2234;65536;-0.567867;-0.2534626;0.6917863;0.367036;-13;12;13;3278;663;-2289;8192;0.4833795;-0.6811504;-0.5470914;-0.05540166;-11;10;-1;2740;2644;108;32768;0.5567867;-0.7297763;0.300554;-0.2590028;8;-11;-8;2947;2355;1127;256;-0.06786703;-0.04155125;-0.7116027;-0.6980609;1;0;-11;504;3862;-224;128;0.01939058;0.09972299;0.6385041;0.7628838;-7;-32;1;-502;3788;778;4;-0.6232687;0.1481994;-0.4432133;-0.6270049;-8;-9;4;2352;3066;612;16;0.6998833;-0.6869806;-0.02493075;-0.1939058;-1;-6;3;997;4065;146;2;0.5706371;-0.7246971;-0.2950138;-0.2493075;10;-29;0;744;3724;-892;8;0.3310249;-0.7621518;0.400277;0.3864266;-4;-46;-2;1709;3261;1703;1.196128;2.433091;0.867321;1.202098;2.977105;0.8268968;1.207344;3.455144;0.7893469;1.324431;4.179293;0.7703189;1.120936;4.541463;0.7237386;0.7618932;4.459178;0.7904976;0.07877347;4.952821;0.4057986;1.001599;4.743733;0.455531;1.634609;4.45841;0.7237372;1.897712;4.275534;0.7904956;2.352778;3.58322;1.28232;1.684669;2.964118;1.543339;0.8838686;2.390569;0.8630588;0.3144459;1.30758;0.06071936;0;0;0;0.8838686;2.390569;0.8630588;0.3144459;1.30758;0.06071936;0;0;0
1102811.6945;NotLabelled;NONE;16384;0.8261306;0.4016621;0.3545706;0.1745152;-16;-5;-5;2386;-2330;2132;65536;-0.5692521;-0.2562327;0.6873966;0.3711911;-11;13;8;3146;919;-2139;8192;0.4847645;-0.679049;-0.5484765;-0.05540166;-8;6;-1;2636;2698;172;32768;0.5567867;-0.7292043;0.301939;-0.2590028;7;-8;-7;2897;2323;1109;256;-0.06509695;-0.03878116;-0.7120178;-0.6980609;0;10;-9;364;3862;-64;128;0.01246537;0.1038781;0.6357341;0.7647851;2;-31;0;-352;3868;650;4;-0.6218836;0.1454294;-0.4459834;-0.6270645;-13;-19;1;2110;3200;828;16;0.6986145;-0.6883656;-0.02216066;-0.1939058;3;-16;6;1117;4093;354;2;0.5692521;-0.7278496;-0.2922437;-0.2465374;11;-32;2;638;3706;-928;8;0.3268698;-0.7596016;0.4058172;0.3891967;-3;-47;-3;1697;3277;1829;1.194805;2.433588;0.8685637;1.200777;2.977754;0.8302387;1.206024;3.455934;0.7945332;1.318919;4.180814;0.778218;1.113352;4.541966;0.7328399;0.754755;4.457356;0.7990859;0.07015298;4.952317;0.4187402;0.9933686;4.743892;0.4637877;1.627499;4.461895;0.7328389;1.89162;4.280304;0.7990846;2.345536;3.587991;1.291972;1.679884;2.965466;1.551122;0.8825458;2.391083;0.8641244;0.3143279;1.307564;0.06164497;0;0;0;0.8825458;2.391083;0.8641244;0.3143279;1.307564;0.06164497;0;0;0
1102833.4143;NotLabelled;NONE;16384;0.824778;0.4044321;0.3545706;0.1745152;-14;-7;-4;2424;-2354;2152;65536;-0.5692521;-0.2562327;0.6858935;0.3739612;-10;12;6;3260;1013;-2149;8192;0.4861496;-0.6769354;-0.5498615;-0.05540166;-5;8;-2;2838;2954;380;32768;0.5595568;-0.7280617;0.301939;-0.2562327;5;-9;-9;3005;2545;851;256;-0.06371191;-0.03739612;-0.7122172;-0.6980609;0;9;-8;446;3960;-98;128;0.008310249;0.1066482;0.6357341;0.7644601;2;-24;0;-560;3936;862;4;-0.6191136;0.1426593;-0.4487534;-0.628464;-13;-26;-1;2414;3092;858;16;0.7004409;-0.6869806;-0.01939058;-0.1925208;6;-23;5;1119;4043;396;2;0.567867;-0.7340498;-0.2839335;-0.2409972;13;-34;5;756;3880;-850;8;0.3213296;-0.7553279;0.4141274;0.3933518;0;-35;-1;1559;3315;1903;1.208681;2.431884;0.8588146;1.214656;2.976324;0.8246022;1.219906;3.45476;0.7925108;1.327094;4.180499;0.7758851;1.11869;4.540004;0.7303694;0.7607734;4.452603;0.7966741;0.07275456;4.952329;0.4289319;0.9966471;4.745197;0.4652117;1.63345;4.46398;0.7303686;1.898996;4.2845;0.7966731;2.356257;3.592162;1.286424;1.689408;2.970921;1.545574;0.8964224;2.389415;0.8540284;0.3201515;1.306377;0.05665788;0;0;0;0.8964224;2.389415;0.8540284;0.3201515;1.306377;0.05665788;0;0;0
1102852.6764;NotLabelled;NONE;16384;0.8231191;0.4072022;0.3545706;0.1759003;-11;-6;-6;2506;-2314;2098;65536;-0.5692521;-0.2576177;0.684617;0.3753462;-9;8;6;3302;1041;-2017;8192;0.4875346;-0.6759386;-0.5498615;-0.05540166;-4;10;0;2902;3018;474;32768;0.5609418;-0.7274818;0.301939;-0.2548476;4;-8;-9;3043;2835;763;256;-0.06371191;-0.03601108;-0.7122885;-0.6980609;-1;8;-7;280;4094;46;128;0.005540166;0.1094183;0.6357341;0.7640936;0;-27;-2;-476;3776;682;4;-0.6163435;0.1398892;-0.4515235;-0.6298239;-13;-26;-2;2708;2808;760;16;0.701299;-0.6869806;-0.01523546;-0.1897507;7;-27;5;1065;4123;278;2;0.567867;-0.7360176;-0.2811634;-0.2382271;12;-32;7;862;3816;-870;8;0.3199446;-0.7528997;0.4182825;0.3947368;1;-33;-1;1745;3423;1775;1.216398;2.431862;0.8590697;1.222372;2.976306;0.8249075;1.227623;3.454744;0.79286;1.331956;4.180896;0.7760873;1.122138;4.539569;0.7305065;0.76457;4.450776;0.796839;0.07709275;4.95373;0.4325017;1.000556;4.744056;0.4649166;1.637193;4.46557;0.7305055;1.903445;4.287148;0.7968379;2.36307;3.594809;1.284368;1.698884;2.969365;1.540232;0.9041389;2.389393;0.8542794;0.32219;1.305632;0.06203199;0;0;0;0.9041389;2.389393;0.8542794;0.32219;1.305632;0.06203199;0;0;0
1102872.6667;NotLabelled;NONE;16384;0.8215363;0.4085872;0.3559557;0.1772853;-6;-2;-10;2522;-2248;2102;65536;-0.5692521;-0.2576177;0.6830909;0.3781163;-5;5;8;3266;1035;-2061;8192;0.4875346;-0.6748096;-0.5512465;-0.05540166;-3;11;3;2850;3082;682;32768;0.5623268;-0.7268962;0.301939;-0.2534626;6;-5;-7;3115;2941;655;256;-0.06232687;-0.03462604;-0.7124797;-0.6980609;-3;-1;-6;256;4184;18;128;0.001385042;0.1121884;0.6357341;0.7637107;5;-27;-2;-428;3966;894;4;-0.6149584;0.1371191;-0.4529086;-0.6307918;-11;-21;-2;2868;2724;650;16;0.7030802;-0.6855956;-0.01246537;-0.1883656;8;-25;4;1033;4081;64;2;0.566482;-0.739463;-0.2783934;-0.234072;12;-25;9;602;3898;-1118;8;0.3185596;-0.7504357;0.4224377;0.3961219;0;-27;0;1583;3585;1581;1.226441;2.43192;0.8523386;1.232416;2.976365;0.818208;1.237666;3.454805;0.7861884;1.340555;4.18116;0.7692698;1.130024;4.539406;0.7236242;0.7726347;4.449916;0.7899841;0.08376905;4.954944;0.4311809;1.007493;4.745872;0.4598161;1.645225;4.466432;0.7236233;1.911833;4.288552;0.7899834;2.373876;3.59533;1.273961;1.711523;2.9678;1.529466;0.9141824;2.389451;0.8475454;0.3250012;1.304951;0.0616807;0;0;0;0.9141824;2.389451;0.8475454;0.3250012;1.304951;0.0616807;0;0;0
1102893.6849;NotLabelled;NONE;16384;0.8209348;0.4085872;0.3573407;0.1772853;-2;0;-11;2484;-2300;2184;65536;-0.5706371;-0.2590028;0.6814095;0.3781163;-2;0;9;3352;983;-2073;8192;0.4875346;-0.6736758;-0.5526316;-0.05540166;-4;9;8;2742;3228;676;32768;0.5637119;-0.7263048;0.301939;-0.2520775;7;-3;-6;3183;3017;485;256;-0.05955679;-0.03462604;-0.7127166;-0.6980609;-4;-8;-5;236;4288;-44;128;0;0.1163435;0.6357341;0.76309;3;-28;-2;-650;3822;802;4;-0.6121883;0.134349;-0.4542936;-0.6330822;-9;-19;-3;2736;2758;606;16;0.7052066;-0.6842105;-0.009695291;-0.1855956;9;-23;6;1081;4037;6;2;0.5650969;-0.7425063;-0.2742382;-0.232687;12;-25;8;298;3966;-1134;8;0.3171745;-0.7487236;0.4252077;0.3975069;-1;-28;1;1341;3493;1593;1.233851;2.429415;0.8559737;1.239826;2.97386;0.8218298;1.245076;3.452299;0.7897986;1.345109;4.179049;0.772744;1.133169;4.536457;0.727039;0.7761365;4.445574;0.7934259;0.08489183;4.950161;0.4385994;1.00816;4.738589;0.4633267;1.648653;4.465508;0.7270364;1.91596;4.288691;0.793421;2.37938;3.596359;1.277356;1.71835;2.966751;1.531168;0.9215923;2.386945;0.8511816;0.3271216;1.304162;0.06693514;0;0;0;0.9215923;2.386945;0.8511816;0.3271216;1.304162;0.06693514;0;0;0
1102914.6653;NotLabelled;NONE;16384;0.8191195;0.4085872;0.3601108;0.1800554;2;2;-12;2740;-2566;2496;65536;-0.5734072;-0.2590028;0.6790801;0.3781163;0;-8;7;3500;975;-2267;8192;0.4889196;-0.670499;-0.5554016;-0.05401662;-7;8;11;2666;3414;718;32768;0.5650969;-0.7262824;0.300554;-0.2506925;7;-2;-8;3183;3013;553;256;-0.05817174;-0.03601108;-0.7127624;-0.6980609;-2;-11;-4;386;4268;-166;128;-0.002770083;0.1191136;0.6357341;0.7626575;2;-26;-2;-614;3976;840;4;-0.6066482;0.1288089;-0.4570637;-0.637557;-2;-28;-9;3114;2356;356;16;0.7082778;-0.6814404;-0.006925208;-0.1842105;10;2;13;785;4057;-600;2;0.5637119;-0.7450056;-0.2714681;-0.2313019;12;-29;5;178;4028;-1142;8;0.3157895;-0.7469921;0.4279778;0.398892;-5;-21;2;1129;3663;1643;1.232989;2.42876;0.8633569;1.238963;2.973208;0.8292661;1.244214;3.451651;0.7972814;1.341421;4.178784;0.7802372;1.128095;4.535367;0.734533;0.7714175;4.443096;0.800913;0.08136591;4.946728;0.4424286;1.005383;4.738535;0.4678167;1.643851;4.46642;0.7345381;1.911842;4.290643;0.800925;2.372817;3.599277;1.288562;1.712116;2.967599;1.538053;0.9207301;2.386291;0.8585605;0.3264293;1.30398;0.07353357;0;0;0;0.9207301;2.386291;0.8585605;0.3264293;1.30398;0.07353357;0;0;0
1102955.6724;NotLabelled;NONE;16384;0.8191991;0.4072022;0.3614958;0.1800554;4;3;-12;2792;-2466;2620;65536;-0.5734072;-0.2590028;0.6798495;0.3767313;0;-10;8;3720;941;-2469;8192;0.4903047;-0.6684458;-0.5567867;-0.05263158;-11;-5;4;2450;3570;852;32768;0.566482;-0.7261541;0.300554;-0.2479224;-5;-6;-10;3471;2811;515;256;-0.05401662;-0.03878116;-0.712944;-0.6980609;-3;-16;1;496;4494;-10;128;-0.005540166;0.1232687;0.6357341;0.7619818;4;-16;-4;-862;4204;728;4;-0.6038781;0.1274238;-0.4570637;-0.6404586;5;-20;-8;3498;2256;322;16;0.710209;-0.6786703;-0.006925208;-0.1869806;8;20;13;553;3991;-676;2;0.5650969;-0.7477211;-0.2645429;-0.2271468;5;-22;2;736;4464;-1036;8;0.3130194;-0.745824;0.4307479;0.400277;-2;-1;1;1583;3707;2347;1.237249;2.426828;0.8739054;1.243224;2.971275;0.8397945;1.248474;3.449717;0.8077924;1.345714;4.17685;0.7908917;1.132404;4.53345;0.7452543;0.7757215;4.441183;0.8116112;0.0806741;4.940718;0.4570664;1.005431;4.735553;0.4800467;1.648157;4.464481;0.745253;1.916139;4.288679;0.8116093;2.383276;3.599616;1.296636;1.724152;2.964606;1.541802;0.9249901;2.38436;0.8691106;0.3277538;1.302945;0.08507642;0;0;0;0.9249901;2.38436;0.8691106;0.3277538;1.302945;0.08507642;0;0;0
1102976.6795;NotLabelled;NONE;16384;0.8184213;0.4044321;0.365651;0.1814404;4;11;-11;2960;-2252;2906;65536;-0.5775623;-0.2562327;0.6789106;0.3739612;0;-15;9;3702;797;-2847;8192;0.4944598;-0.6680009;-0.5540166;-0.04847645;-16;-17;0;2584;3468;768;32768;0.5650969;-0.728063;0.301939;-0.2437673;-16;-14;-5;3437;2835;413;256;-0.04847645;-0.04570637;-0.7129319;-0.6980609;-1;-22;4;388;4528;-254;128;-0.006925208;0.1274238;0.6357341;0.7612867;1;-10;-6;-874;4334;1114;4;-0.599723;0.1260388;-0.4556787;-0.6456032;15;-13;-7;3776;2960;768;16;0.7105614;-0.6759003;-0.01108033;-0.1952908;1;35;14;1053;4221;-56;2;0.5650969;-0.7494586;-0.2631579;-0.2229917;0;-8;8;1186;4240;-1298;8;0.3116343;-0.7457108;0.4293629;0.4030471;-5;-20;-7;1893;3529;2173;1.230336;2.425516;0.8941345;1.236311;2.969962;0.8600152;1.241561;3.448403;0.8280058;1.337453;4.175721;0.8114159;1.123485;4.531945;0.7659165;0.7669705;4.438989;0.8322152;0.07735749;4.936024;0.4638149;1.002045;4.732092;0.497895;1.639365;4.463933;0.7659146;1.907669;4.2886;0.8322117;2.369905;3.601001;1.323963;1.71147;2.962645;1.562191;0.9180771;2.383047;0.8893403;0.3307835;1.301243;0.09836306;0;0;0;0.9180771;2.383047;0.8893403;0.3307835;1.301243;0.09836306;0;0;0
1102997.663;NotLabelled;NONE;16384;0.8187904;0.4030471;0.367036;0.1800554;0;13;-9;2896;-2388;2960;65536;-0.5803324;-0.2562327;0.677308;0.3725762;-3;-12;11;3626;837;-2995;8192;0.4972299;-0.6683353;-0.5512465;-0.04709141;-17;-21;-4;2640;3270;734;32768;0.5637119;-0.7289044;0.3047091;-0.2409972;-22;-18;-4;3393;2705;747;256;-0.04847645;-0.04709141;-0.7128417;-0.6980609;2;-8;5;644;4356;-372;128;-0.006925208;0.1274238;0.6357341;0.7612867;1;2;-5;-820;4298;1268;4;-0.599723;0.1288089;-0.4542936;-0.6460325;15;13;-7;3758;3180;576;16;0.7089668;-0.6759003;-0.01385042;-0.200831;0;42;11;1105;4101;-48;2;0.5637119;-0.750911;-0.2631579;-0.2216066;-5;-10;5;1024;4212;-1250;8;0.3116343;-0.7441606;0.4307479;0.4044321;-7;-14;-9;1393;3655;1417;1.212992;2.423484;0.924904;1.218966;2.967932;0.8908178;1.224217;3.446376;0.8588374;1.32168;4.173505;0.8431094;1.108489;4.530242;0.7979918;0.7517638;4.437977;0.8641268;0.05917912;4.927892;0.491784;0.9840931;4.727201;0.5371186;1.624221;4.461117;0.7979904;1.892135;4.285128;0.864125;2.357708;3.597317;1.35242;1.699334;2.957096;1.58576;0.9007328;2.381016;0.9201072;0.334814;1.298927;0.1140802;0;0;0;0.9007328;2.381016;0.9201072;0.334814;1.298927;0.1140802;0;0;0
1103017.8968;NotLabelled;NONE;16384;0.8168364;0.4044321;0.3711911;0.1772853;-15;11;-3;2798;-2476;2814;65536;-0.5831025;-0.2534626;0.6759698;0.3725762;-18;-2;9;3568;925;-2871;8192;0.5;-0.668737;-0.5484765;-0.04432133;-20;-27;-7;2580;3000;558;32768;0.5623268;-0.7291359;0.3088643;-0.2382271;-27;-20;-1;3265;2587;843;256;-0.04847645;-0.04847645;-0.7113898;-0.699446;4;7;7;718;4196;-488;128;-0.005540166;0.1288089;0.6357341;0.7610649;0;9;-4;-1008;4088;882;4;-0.601108;0.132964;-0.4529086;-0.6448749;15;40;-8;3076;3196;594;16;0.7069087;-0.6759003;-0.0166205;-0.2077562;-1;49;13;1367;4129;190;2;0.5650969;-0.7502772;-0.2631579;-0.2202216;-7;3;0;966;4082;-1196;8;0.3102493;-0.7416157;0.433518;0.4072022;-5;-16;-7;2013;3539;1209;1.20821;2.425061;0.9281129;1.214184;2.969509;0.8940268;1.219435;3.447953;0.8620462;1.318341;4.17489;0.8465043;1.105859;4.532061;0.8014692;0.7489499;4.440487;0.8675691;0.0562457;4.929052;0.4936789;0.9821833;4.73262;0.5367027;1.621453;4.461912;0.8014678;1.889016;4.285377;0.867567;2.355691;3.595408;1.351751;1.69815;2.955879;1.589304;0.8959507;2.382593;0.9233162;0.3394316;1.297689;0.1145333;0;0;0;0.8959507;2.382593;0.9233162;0.3394316;1.297689;0.1145333;0;0;0
1103038.7427;NotLabelled;NONE;16384;0.8161151;0.4058172;0.3725762;0.1745152;-19;13;-2;2606;-2212;2532;65536;-0.5858725;-0.2520775;0.6733226;0.3739612;-20;1;10;3398;777;-2651;8192;0.5055401;-0.6706362;-0.5415512;-0.03739612;-17;-29;-9;2940;2620;-98;32768;0.5554016;-0.7326569;0.3171745;-0.232687;-29;-23;3;2991;2243;841;256;-0.05401662;-0.04709141;-0.7097186;-0.700831;3;16;9;408;3928;-14;128;-0.002770083;0.1274238;0.6385041;0.7589914;9;12;-5;-240;3912;716;4;-0.6066482;0.1426593;-0.4529086;-0.6375736;4;18;-11;1670;3222;1080;16;0.7047753;-0.6745152;-0.02077562;-0.2188366;0;24;10;1857;3933;652;2;0.566482;-0.7474324;-0.265928;-0.2229917;-7;15;-4;494;3722;-944;8;0.3116343;-0.7402228;0.434903;0.4072022;1;9;0;2005;3359;1501;1.205556;2.426801;0.9303829;1.211531;2.971254;0.8963817;1.216781;3.449702;0.8644758;1.31714;4.176501;0.8519933;1.105394;4.534276;0.8083149;0.7482654;4.44314;0.873835;0.05304676;4.932861;0.5061761;0.9789993;4.735658;0.5451564;1.620847;4.463103;0.8083138;1.888021;4.285764;0.8738337;2.357454;3.595022;1.354232;1.699486;2.957436;1.595788;0.8932974;2.384333;0.9255789;0.346582;1.295751;0.1150539;0;0;0;0.8932974;2.384333;0.9255789;0.346582;1.295751;0.1150539;0;0;0
1103060.6813;NotLabelled;NONE;16384;0.8150861;0.4072022;0.3739612;0.1731302;-19;12;0;2314;-1818;2304;65536;-0.5872576;-0.2506925;0.6718608;0.3753462;-19;4;11;2920;587;-2473;8192;0.5069252;-0.6730775;-0.5373961;-0.03462604;-11;-24;-8;3216;2592;-64;32768;0.5526316;-0.7339845;0.3199446;-0.2313019;-23;-17;3;2973;2343;1017;256;-0.05540166;-0.04709141;-0.7096118;-0.700831;0;7;8;278;3730;134;128;-0.001385042;0.1260388;0.6398892;0.7580594;10;8;-6;-190;3724;854;4;-0.6066482;0.1454294;-0.4542936;-0.6359603;-1;3;-11;2070;2932;1192;16;0.7034716;-0.6745152;-0.02077562;-0.2229917;2;11;8;1713;3895;554;2;0.566482;-0.7465233;-0.267313;-0.2243767;-5;15;0;556;3628;-1108;8;0.3116343;-0.7417942;0.433518;0.4058172;3;9;0;1791;3247;1609;1.218027;2.432958;0.9181882;1.223999;2.977155;0.880303;1.229247;3.455363;0.8449841;1.333846;4.181604;0.8351707;1.124211;4.540762;0.7926765;0.7665235;4.451475;0.85769;0.0682189;4.944208;0.5000393;0.9947089;4.746899;0.5220226;1.639241;4.466587;0.7926754;1.905343;4.287458;0.8576886;2.386781;3.59556;1.324345;1.732785;2.964258;1.591808;0.905768;2.390457;0.9137118;0.3592796;1.292184;0.1162113;0;0;0;0.905768;2.390457;0.9137118;0.3592796;1.292184;0.1162113;0;0;0
1103081.6879;NotLabelled;NONE;16384;0.8143397;0.4085872;0.3753462;0.1703601;-17;9;0;2194;-1716;2208;65536;-0.5886427;-0.2506925;0.6690898;0.3781163;-18;2;8;2692;523;-2317;8192;0.5069252;-0.6742508;-0.536011;-0.033241;-3;-18;-5;3352;2498;28;32768;0.5498615;-0.7357178;0.3227147;-0.2285319;-18;-11;1;2815;2541;1043;256;-0.05540166;-0.04847645;-0.7095186;-0.700831;0;3;6;278;3544;82;128;-0.001385042;0.1260388;0.6412742;0.7568882;10;6;-6;-404;3562;750;4;-0.6066482;0.1454294;-0.4570637;-0.6339724;-8;0;-9;2540;2904;1082;16;0.7030311;-0.6745152;-0.02077562;-0.2243767;3;2;4;1693;3839;370;2;0.5650969;-0.7470756;-0.2686981;-0.2243767;-2;7;4;504;3666;-1044;8;0.3130194;-0.7412108;0.433518;0.4058172;2;5;-1;1659;3223;1559;1.225794;2.436195;0.9096994;1.231764;2.980252;0.8698457;1.237011;3.458329;0.8327971;1.343022;4.184365;0.8229291;1.134067;4.543931;0.7805359;0.7762383;4.455342;0.8457246;0.07513656;4.951174;0.4979651;1.001428;4.752258;0.5126201;1.648951;4.468751;0.7802834;1.914735;4.289104;0.8451672;2.399684;3.594551;1.304185;1.746548;2.966087;1.580292;0.9135345;2.393679;0.905389;0.3671832;1.290049;0.1152242;0;0;0;0.9135345;2.393679;0.905389;0.3671832;1.290049;0.1152242;0;0;0
1103102.7015;NotLabelled;NONE;16384;0.8139321;0.4099723;0.3753462;0.1689751;-14;8;-1;2172;-1834;2162;65536;-0.5900277;-0.2493075;0.6676015;0.3795014;-15;1;7;2678;671;-2163;8192;0.5069252;-0.6754163;-0.534626;-0.03185596;0;-8;1;3242;2396;88;32768;0.5484765;-0.7361428;0.3240997;-0.2285319;-10;-4;0;2631;2715;1109;256;-0.0567867;-0.04847645;-0.7094091;-0.700831;3;0;6;382;3616;142;128;0;0.1274238;0.6426592;0.7554815;13;3;-5;-484;3574;366;4;-0.6052631;0.1454294;-0.4584487;-0.6342962;-13;-13;-7;2606;3122;920;16;0.7030706;-0.6745152;-0.01939058;-0.2243767;4;-9;0;1769;3893;250;2;0.5650969;-0.7461583;-0.2700831;-0.2257618;0;5;2;200;3546;-1036;8;0.3130194;-0.7412108;0.433518;0.4058172;1;0;-1;1657;3273;1703;1.23179;2.437985;0.904296;1.237758;2.981893;0.8624598;1.243003;3.459832;0.823669;1.350456;4.185658;0.8140461;1.142234;4.545649;0.7716362;0.7841969;4.45775;0.8366137;0.0851004;4.955324;0.4873085;1.011265;4.755526;0.4971992;1.656969;4.469451;0.7716354;1.922362;4.28926;0.8366125;2.405206;3.596767;1.300928;1.753378;2.969871;1.583609;0.9195301;2.395453;0.9001533;0.369439;1.289326;0.116098;0;0;0;0.9195301;2.395453;0.9001533;0.369439;1.289326;0.116098;0;0;0
1103123.6641;NotLabelled;NONE;16384;0.812879;0.4113573;0.3767313;0.16759;-7;8;-4;2246;-2012;2220;65536;-0.5914127;-0.2479224;0.6668914;0.3795014;-12;-2;7;2860;757;-2051;8192;0.5055401;-0.6765783;-0.534626;-0.02908587;3;-6;5;3004;2360;320;32768;0.5470914;-0.7382076;0.3227147;-0.2271468;-6;0;0;2669;2641;1165;256;-0.0567867;-0.04986149;-0.709313;-0.700831;4;-6;6;448;3776;360;128;0;0.1274238;0.6440443;0.7543011;12;4;-5;-350;3650;208;4;-0.6038781;0.1426593;-0.4612188;-0.6342372;-17;-27;-3;2522;3174;618;16;0.7048733;-0.6731302;-0.01800554;-0.2229917;5;-21;-5;1669;3951;-32;2;0.5650969;-0.7461583;-0.2700831;-0.2257618;-1;0;2;572;3806;-920;8;0.3144044;-0.7413816;0.433518;0.4044321;4;14;1;1627;3301;1693;1.236605;2.439648;0.8987145;1.242572;2.983405;0.8549573;1.247816;3.461204;0.8144786;1.356685;4.186819;0.8048531;1.149167;4.547215;0.7624424;0.7909582;4.460016;0.8274203;0.09209102;4.960335;0.4815942;1.017962;4.75896;0.4845738;1.663752;4.470013;0.7624414;1.928793;4.289305;0.8274187;2.412947;3.5972;1.29095;1.760939;2.972392;1.577812;0.9243456;2.397102;0.8947341;0.3722892;1.288562;0.1154841;0;0;0;0.9243456;2.397102;0.8947341;0.3722892;1.288562;0.1154841;0;0;0
1103144.7074;NotLabelled;NONE;16384;0.8129061;0.4085872;0.3808864;0.1648199;4;10;-6;2290;-1860;2484;65536;-0.5941828;-0.2465374;0.6649397;0.3795014;-3;-12;4;2908;647;-2453;8192;0.5041551;-0.677669;-0.534626;-0.02770083;4;-9;6;2830;2464;466;32768;0.5470914;-0.7382076;0.3227147;-0.2271468;-7;5;1;2581;2581;1173;256;-0.05540166;-0.05263158;-0.7092224;-0.700831;1;-13;7;582;3858;526;128;0;0.1274238;0.6468144;0.751927;8;-2;-5;-322;3804;-76;4;-0.5969529;0.134349;-0.466759;-0.6385402;-16;-34;5;2490;2600;-82;16;0.7071204;-0.6731302;-0.01385042;-0.2160665;3;-30;-13;1093;4005;-512;2;0.5637119;-0.7466158;-0.2728532;-0.2243767;0;8;6;1030;3882;-810;8;0.3171745;-0.7448665;0.4293629;0.400277;6;25;4;1621;3111;1623;1.242231;2.438981;0.9003329;1.248197;2.982574;0.8545864;1.253438;3.460222;0.8123598;1.363742;4.185624;0.8029338;1.156939;4.546441;0.7606115;0.7985564;4.459933;0.8255514;0.09968805;4.962071;0.4823762;1.025477;4.760308;0.4840809;1.67137;4.468219;0.7606105;1.936051;4.286971;0.8255502;2.42143;3.598405;1.293054;1.772232;2.971942;1.582666;0.9299712;2.39642;0.8965206;0.3713042;1.288303;0.1213914;0;0;0;0.9299712;2.39642;0.8965206;0.3713042;1.288303;0.1213914;0;0;0
1103165.7476;NotLabelled;NONE;16384;0.812951;0.4072022;0.3822715;0.1648199;10;8;-4;2438;-1720;2626;65536;-0.5969529;-0.2437673;0.6650551;0.3767313;2;-14;1;2754;471;-2827;8192;0.5041551;-0.6788669;-0.533241;-0.02493075;-1;-20;-4;2956;2758;538;32768;0.5429363;-0.7418705;0.3213296;-0.2271468;-14;0;2;2671;2733;775;256;-0.05263158;-0.05817174;-0.710367;-0.699446;-1;-18;5;676;3926;526;128;0;0.1274238;0.6481994;0.7507334;3;0;-4;-544;4024;192;4;-0.5955678;0.1301939;-0.466759;-0.6406907;-7;-25;5;3048;2390;-264;16;0.710128;-0.6717451;-0.01246537;-0.2105263;0;-26;-12;553;4177;-682;2;0.5623268;-0.7466428;-0.2756233;-0.2243767;0;17;5;806;3576;-1012;8;0.3199446;-0.7452219;0.4279778;0.398892;3;15;3;1511;3113;1619;1.24618;2.43908;0.8974901;1.252142;2.982322;0.8477568;1.25738;3.459648;0.802027;1.369137;4.184833;0.7930197;1.16306;4.546086;0.7508832;0.804499;4.460259;0.8157439;0.1041814;4.958908;0.47044;1.030221;4.75829;0.4714032;1.677333;4.466836;0.750882;1.941645;4.285021;0.815742;2.424825;3.598642;1.288708;1.773923;2.972178;1.574469;0.9339199;2.396492;0.8940153;0.3658313;1.289622;0.1239676;0;0;0;0.9339199;2.396492;0.8940153;0.3658313;1.289622;0.1239676;0;0;0
1103186.7256;NotLabelled;NONE;16384;0.814051;0.4044321;0.3822715;0.166205;13;4;-1;2446;-1618;2848;65536;-0.5969529;-0.2437673;0.6666166;0.3739612;7;-11;-1;2754;339;-3113;8192;0.5041551;-0.6810828;-0.5304709;-0.0235457;-7;-21;-9;3090;2738;534;32768;0.5415512;-0.7427039;0.3227147;-0.2257618;-16;-8;2;2705;2889;757;256;-0.05124654;-0.06094183;-0.7102361;-0.699446;2;-13;4;794;3930;426;128;0;0.1274238;0.6495845;0.7495353;4;5;-2;-726;3978;72;4;-0.5941828;0.1274238;-0.4653739;-0.6435348;0;-6;5;3390;2690;-504;16;0.711321;-0.6717451;-0.01385042;-0.2063712;-2;-6;-8;237;3925;-596;2;0.5623268;-0.74613;-0.2770083;-0.2243767;2;5;-1;498;3486;-1096;8;0.3199446;-0.7467545;0.4265928;0.3975069;1;8;3;1619;3383;1573;1.232498;2.436054;0.9163582;1.238458;2.979111;0.8646277;1.243694;3.456264;0.817143;1.358355;4.180968;0.8061603;1.153711;4.542933;0.7631474;0.7948357;4.458717;0.8283831;0.0970514;4.954889;0.4744899;1.023382;4.75584;0.4838698;1.667662;4.46162;0.7631462;1.93127;4.278919;0.8283813;2.410923;3.594311;1.307463;1.759096;2.969296;1.594285;0.9202379;2.393454;0.9130525;0.3560509;1.291434;0.1332433;0;0;0;0.9202379;2.393454;0.9130525;0.3560509;1.291434;0.1332433;0;0;0
1103207.7896;NotLabelled;NONE;16384;0.8151379;0.4016621;0.3822715;0.16759;11;0;1;2502;-1714;2994;65536;-0.5983379;-0.2423823;0.6674277;0.3711911;9;-5;-4;2884;353;-3283;8192;0.5069252;-0.6812251;-0.5277008;-0.02216066;-12;-18;-14;3256;2626;538;32768;0.5401662;-0.7429234;0.3254848;-0.2243767;-16;-16;3;2681;2981;885;256;-0.04986149;-0.06371191;-0.7100915;-0.699446;5;-5;4;716;3878;406;128;0.001385042;0.1274238;0.6509695;0.7483314;4;12;-1;-556;3936;68;4;-0.5955678;0.1274238;-0.4626039;-0.6442513;4;21;7;2926;3236;-102;16;0.7103832;-0.6731302;-0.01523546;-0.2049861;-5;7;-3;753;4009;-244;2;0.5609418;-0.7467545;-0.2770083;-0.2257618;1;3;-7;692;3994;-840;8;0.3213296;-0.7476287;0.4265928;0.3947368;4;14;4;1781;3441;1511;1.216618;2.434785;0.9272709;1.222575;2.977647;0.8735402;1.227809;3.454623;0.8242981;1.343925;4.179101;0.8138028;1.140013;4.541505;0.771006;0.7809625;4.457968;0.8361491;0.08438018;4.949808;0.4739397;1.011076;4.753143;0.4927621;1.6538;4.459161;0.7710049;1.917034;4.27589;0.8361475;2.392867;3.590698;1.318196;1.740312;2.966525;1.605192;0.9043571;2.392174;0.9241347;0.3450484;1.294222;0.1351274;0;0;0;0.9043571;2.392174;0.9241347;0.3450484;1.294222;0.1351274;0;0;0
1103228.6735;NotLabelled;NONE;16384;0.816497;0.398892;0.3822715;0.16759;9;-5;3;2490;-1692;3112;65536;-0.5983379;-0.2423823;0.6689608;0.368421;9;-1;-6;3042;321;-3261;8192;0.5096953;-0.6813419;-0.5249307;-0.02077562;-14;-18;-14;3242;2526;352;32768;0.5387812;-0.7435416;0.3282548;-0.2216066;-15;-19;2;2779;2957;1007;256;-0.04986149;-0.06371191;-0.7100915;-0.699446;7;0;3;542;3996;474;128;0.001385042;0.1260388;0.6523545;0.7473593;2;14;0;-372;3988;168;4;-0.5983379;0.1301939;-0.4612188;-0.6421202;3;27;13;2194;3364;214;16;0.7103832;-0.6731302;-0.01523546;-0.2049861;-6;5;-2;1265;4131;64;2;0.5609418;-0.7463344;-0.2770083;-0.2271468;1;12;-10;1360;3932;-924;8;0.3227147;-0.7500611;0.4238227;0.3919668;10;30;8;1723;3323;1721;1.20402;2.432733;0.9342235;1.209975;2.975396;0.8785187;1.215208;3.45219;0.8275421;1.332771;4.176442;0.8174918;1.129567;4.539281;0.775033;0.7703786;4.456419;0.8402771;0.076694;4.945248;0.4685542;1.003677;4.750581;0.4931512;1.643188;4.455908;0.774749;1.906083;4.272064;0.8396503;2.379041;3.582894;1.318846;1.724744;2.960775;1.60634;0.8917596;2.39011;0.9312547;0.3400536;1.295887;0.1317829;0;0;0;0.8917596;2.39011;0.9312547;0.3400536;1.295887;0.1317829;0;0;0
1103248.8267;NotLabelled;NONE;16384;0.8175594;0.3961219;0.3822715;0.1689751;1;5;1;2538;-1528;3278;65536;-0.5983379;-0.2437673;0.6699765;0.365651;2;0;-3;3032;297;-3067;8192;0.5110803;-0.6814489;-0.5235457;-0.01800554;-14;-18;-14;3292;2444;328;32768;0.5373961;-0.7447506;0.3296399;-0.2188366;-13;-20;3;2683;2927;1193;256;-0.04986149;-0.06371191;-0.7100915;-0.699446;6;-3;2;436;3942;510;128;0.002770083;0.1232687;0.6537396;0.7466068;0;20;0;-256;3992;304;4;-0.601108;0.1301939;-0.4584487;-0.6415165;-7;-3;12;1848;3100;652;16;0.7077765;-0.6759003;-0.01385042;-0.2049861;-5;-10;-2;1129;3959;226;2;0.5595568;-0.7454921;-0.2797784;-0.2299169;1;25;-8;1524;3958;-806;8;0.3268698;-0.7519794;0.4210526;0.3878116;16;48;12;1779;3323;1765;1.200391;2.43314;0.9361406;1.206344;2.975591;0.8784042;1.211574;3.45219;0.8256426;1.329143;4.176441;0.815657;1.125962;4.539282;0.7730863;0.7667381;4.45642;0.8381324;0.07143748;4.940725;0.46352;0.9988005;4.748491;0.4925181;1.639583;4.455908;0.7730854;1.902442;4.272064;0.8381312;2.379494;3.582397;1.312532;1.72661;2.961053;1.604868;0.8881304;2.390506;0.9333442;0.3399806;1.295887;0.1319699;0;0;0;0.8881304;2.390506;0.9333442;0.3399806;1.295887;0.1319699;0;0;0
1103269.7288;NotLabelled;NONE;16384;0.8175806;0.3947368;0.3836565;0.1689751;-1;5;-1;2508;-1570;3210;65536;-0.5983379;-0.2423823;0.6712323;0.3642659;-3;-3;-2;3124;405;-2975;8192;0.5152354;-0.6826499;-0.5180055;-0.01385042;-8;-24;-10;3212;2776;412;32768;0.534626;-0.7463202;0.33241;-0.2160665;-17;-11;3;2843;2929;1679;256;-0.04847645;-0.06648199;-0.7099335;-0.699446;4;-7;5;450;4214;628;128;0.008310249;0.1163435;0.6551247;0.7464629;-9;33;2;-372;4122;-108;4;-0.601108;0.1274238;-0.4598338;-0.6410813;-10;-16;7;2162;3146;478;16;0.7082019;-0.6759003;-0.01246537;-0.2036011;-4;-12;0;1043;4247;110;2;0.5567867;-0.7421277;-0.2894737;-0.2354571;0;45;-9;1494;3894;-868;8;0.33518;-0.7592846;0.4113573;0.3767313;19;47;10;1399;3353;2093;1.203808;2.42798;0.9335324;1.209759;2.97021;0.8737606;1.214987;3.446609;0.8192106;1.332556;4.17086;0.8092248;1.129375;4.533701;0.7666541;0.770151;4.450838;0.8317004;0.07380801;4.930749;0.4533865;1.001939;4.742893;0.4862532;1.642996;4.450327;0.7666532;1.905855;4.266483;0.8316991;2.386913;3.577744;1.303396;1.736785;2.955972;1.60092;0.8915478;2.385337;0.9309092;0.3444401;1.295678;0.1220979;0;0;0;0.8915478;2.385337;0.9309092;0.3444401;1.295678;0.1220979;0;0;0
1103289.7177;NotLabelled;NONE;16384;0.817597;0.3933518;0.3850415;0.1689751;-5;10;-5;2628;-1542;3098;65536;-0.599723;-0.2409972;0.6704946;0.3642659;-8;-8;1;3146;451;-2923;8192;0.5166205;-0.6837254;-0.5152354;-0.01246537;-5;-28;-9;3304;2958;428;32768;0.5318559;-0.7480789;0.333795;-0.2146814;-20;-7;3;3069;2899;1563;256;-0.04709141;-0.06925207;-0.7097619;-0.699446;1;-18;9;528;4408;610;128;0.01108033;0.1121884;0.6551247;0.7470627;-11;35;1;-428;4302;-16;4;-0.5983379;0.1260388;-0.4612188;-0.6429487;-8;-16;2;2300;3298;320;16;0.7076695;-0.6772853;-0.01246537;-0.200831;-1;-9;4;569;4307;8;2;0.5554016;-0.7391997;-0.2950138;-0.2409972;-1;47;-13;1048;3904;-1022;8;0.3393352;-0.761725;0.4072022;0.3725762;16;33;5;1279;3109;2541;1.206199;2.425095;0.9372957;1.212147;2.967091;0.8754349;1.217372;3.443275;0.8190497;1.336392;4.167296;0.8095972;1.133943;4.530574;0.7672631;0.7745458;4.448384;0.8322082;0.07901271;4.925776;0.4492477;1.006713;4.737242;0.4895409;1.647396;4.446172;0.7672622;1.909878;4.261756;0.8322068;2.39221;3.570717;1.299216;1.742322;2.950668;1.600833;0.8939379;2.382441;0.9348499;0.3438103;1.29564;0.1242433;0;0;0;0.8939379;2.382441;0.9348499;0.3438103;1.29564;0.1242433;0;0;0
1103311.0431;NotLabelled;NONE;16384;0.8172379;0.3919668;0.3878116;0.16759;-7;17;-9;2616;-1660;2982;65536;-0.602493;-0.2396122;0.6692575;0.3628809;-11;-11;5;3282;429;-2887;8192;0.5166205;-0.6868815;-0.5110803;-0.009695291;-2;-29;-7;3262;2932;420;32768;0.5290859;-0.7491974;0.3365651;-0.2132964;-23;-3;4;3257;2999;1451;256;-0.04570637;-0.0734072;-0.7094347;-0.699446;0;-24;11;460;4468;456;128;0.01523546;0.1080332;0.6551247;0.7476017;-3;32;0;-578;4460;54;4;-0.5969529;0.1246537;-0.4612188;-0.6445044;-1;-2;0;2634;3264;98;16;0.7076926;-0.6772853;-0.01108033;-0.200831;0;-1;9;451;4289;118;2;0.5554016;-0.7367185;-0.2977839;-0.2451524;-3;30;-20;568;3862;-776;8;0.3421052;-0.7626374;0.4044321;0.3711911;12;22;-1;945;3541;2785;1.197192;2.428333;0.9347308;1.20314;2.97032;0.8727934;1.208365;3.446497;0.8163407;1.328833;4.170286;0.8074444;1.127116;4.533998;0.7653572;0.7675468;4.452478;0.8301964;0.07241078;4.927351;0.4433999;0.9999177;4.738387;0.4860674;1.640399;4.44857;0.7653564;1.902504;4.263581;0.8301954;2.382839;3.571109;1.297137;1.732556;2.952895;1.601656;0.8849311;2.385679;0.9322916;0.3389463;1.297218;0.1211123;0;0;0;0.8849311;2.385679;0.9322916;0.3389463;1.297218;0.1211123;0;0;0
1103331.6806;NotLabelled;NONE;16384;0.8171452;0.3905817;0.3905817;0.1648199;-7;19;-11;2714;-1838;2888;65536;-0.6052631;-0.2382271;0.6672495;0.3628809;-13;-14;10;3400;559;-2885;8192;0.5180055;-0.6879113;-0.5083103;-0.008310249;0;-29;-3;3174;2934;392;32768;0.5263157;-0.7505239;0.3379501;-0.2132964;-24;0;5;3179;3005;1393;256;-0.04293629;-0.07756232;-0.7091656;-0.699446;0;-30;13;508;4474;186;128;0.01800554;0.1052632;0.6578947;0.7454998;12;33;1;-560;4390;-8;4;-0.5983379;0.1260388;-0.4612188;-0.6429487;3;20;1;2564;3270;216;16;0.707298;-0.6772853;-0.01108033;-0.2022161;4;3;14;645;4195;222;2;0.5554016;-0.7353228;-0.2977839;-0.2493075;-1;19;-18;998;4306;-1036;8;0.3448753;-0.7627959;0.4030471;0.3698061;13;14;-4;1333;3683;2731;1.192519;2.426796;0.9429346;1.198467;2.968771;0.880886;1.203692;3.444935;0.8243357;1.327032;4.168251;0.8163161;1.126768;4.53281;0.7746178;0.7668659;4.452642;0.8392904;0.07224296;4.925281;0.4488547;1.000072;4.738611;0.4945117;1.639709;4.445346;0.774617;1.901065;4.259243;0.8392893;2.377164;3.566488;1.310135;1.724711;2.951323;1.616183;0.8802583;2.384142;0.9405048;0.3406065;1.296511;0.1239912;0;0;0;0.8802583;2.384142;0.9405048;0.3406065;1.296511;0.1239912;0;0;0
1103352.6982;NotLabelled;NONE;16384;0.815292;0.3891967;0.3975069;0.1606648;-9;24;-10;2878;-2504;2920;65536;-0.6108033;-0.232687;0.6649036;0.3614958;-18;-20;10;3588;817;-2679;8192;0.5180055;-0.6899773;-0.5055401;-0.005540166;0;-28;0;2972;2808;304;32768;0.5221606;-0.7534206;0.3379501;-0.2132964;-25;3;6;3133;2759;1331;256;-0.04155125;-0.08310249;-0.7099848;-0.6980609;-4;-30;15;614;4318;-40;128;0.02216066;0.1024931;0.6592798;0.7445497;9;29;0;-746;4258;550;4;-0.601108;0.1288089;-0.4598338;-0.6408045;6;30;0;2354;3448;690;16;0.708225;-0.6759003;-0.01108033;-0.2036011;6;8;19;923;4247;422;2;0.5567867;-0.7327642;-0.299169;-0.2520775;-8;18;-19;1180;4736;-626;8;0.3476454;-0.7629392;0.4016621;0.368421;15;18;-5;1083;3815;2343;1.186715;2.426966;0.9493047;1.192657;2.968452;0.8831317;1.197878;3.444173;0.8229579;1.322663;4.167249;0.8157163;1.123089;4.532261;0.7746772;0.7630925;4.452735;0.8396157;0.07356785;4.927342;0.4425863;1.00152;4.741722;0.4899951;1.635853;4.443767;0.7740452;1.8969;4.257058;0.8382192;2.365327;3.559285;1.309348;1.709824;2.94729;1.615234;0.874454;2.384295;0.9472257;0.3420496;1.295833;0.12707;0;0;0;0.874454;2.384295;0.9472257;0.3420496;1.295833;0.12707;0;0;0
1103373.8267;NotLabelled;NONE;16384;0.8147448;0.3891967;0.400277;0.1565097;-13;31;-6;2990;-2830;2872;65536;-0.6135734;-0.2285319;0.6637934;0.3614958;-22;-22;5;3736;935;-2673;8192;0.5180055;-0.6920151;-0.5027701;-0.002770083;0;-31;0;2690;2872;142;32768;0.5180055;-0.755663;0.3393352;-0.2132964;-27;3;9;3103;2509;1175;256;-0.03878116;-0.08725762;-0.7096429;-0.6980609;-7;-24;17;778;4160;-346;128;0.02216066;0.101108;0.6620498;0.7422776;14;9;-3;-752;4274;968;4;-0.6038781;0.1357341;-0.4598338;-0.6367578;1;14;-15;2366;3802;1242;16;0.7106127;-0.6717451;-0.006925208;-0.2091413;19;-3;24;1329;4841;658;2;0.5595568;-0.7260089;-0.3033241;-0.2603878;-20;34;-20;956;3814;-1010;8;0.3545706;-0.763261;0.3975069;0.365651;11;16;-6;1971;3537;1367;1.174627;2.426468;0.9651846;1.180566;2.967685;0.8968403;1.185784;3.44316;0.8347591;1.314934;4.165454;0.8261047;1.117601;4.531575;0.7841247;0.7570759;4.454358;0.848918;0.06251392;4.923485;0.4541622;0.9903942;4.737311;0.5007912;1.629822;4.43999;0.7841238;1.889683;4.251846;0.8489168;2.357654;3.55835;1.326768;1.699877;2.9494;1.633844;0.8623655;2.383788;0.9632904;0.3420926;1.294924;0.135916;0;0;0;0.8623655;2.383788;0.9632904;0.3420926;1.294924;0.135916;0;0;0
1103394.695;NotLabelled;NONE;16384;0.8148507;0.3891967;0.4016621;0.1523546;-17;30;0;2762;-2892;2596;65536;-0.6163435;-0.2243767;0.6626436;0.3614958;-26;-19;1;3622;1143;-2787;8192;0.5180055;-0.6979826;-0.4944598;0;0;-31;-5;2936;3182;-236;32768;0.5096953;-0.7594272;0.3434903;-0.2132964;-26;-3;11;3535;2215;649;256;-0.04293629;-0.09279778;-0.7087002;-0.6980609;-2;14;17;710;4096;-1160;128;0.02493075;0.1024931;0.66482;0.7395188;15;7;-8;-892;4388;1372;4;-0.602493;0.1371191;-0.4626039;-0.6357658;-2;5;-21;2788;3474;1238;16;0.712835;-0.6689751;-0.004155125;-0.2105263;24;-7;22;1177;4693;382;2;0.5595568;-0.7234161;-0.3047091;-0.265928;-15;33;-20;-324;3442;-1312;8;0.3573407;-0.7626311;0.3975069;0.3642659;10;4;-6;1741;3827;1119;1.172268;2.428538;0.9838148;1.178201;2.969225;0.9114041;1.183414;3.444221;0.8457503;1.314014;4.166265;0.8381485;1.117426;4.532841;0.7966358;0.7567301;4.456255;0.8612288;0.06530817;4.927245;0.463191;0.9924682;4.738221;0.5126033;1.629462;4.440229;0.7966349;1.888929;4.251473;0.8612278;2.352751;3.55868;1.344116;1.691786;2.95402;1.652824;0.8600064;2.385845;0.9822674;0.3552698;1.289144;0.1556196;0;0;0;0.8600064;2.385845;0.9822674;0.3552698;1.289144;0.1556196;0;0;0
1103415.8063;NotLabelled;NONE;16384;0.8142702;0.3905817;0.4030471;0.1481994;-19;20;3;2570;-3002;2314;65536;-0.6177285;-0.2202216;0.6619905;0.3628809;-26;-10;-1;3462;1397;-2817;8192;0.5180055;-0.7009063;-0.4903047;0.001385042;1;-20;-9;3196;3254;-392;32768;0.5069252;-0.7593907;0.3476454;-0.2132964;-18;-7;14;3745;2263;315;256;-0.04570637;-0.09279778;-0.7071597;-0.699446;0;21;15;836;4124;-824;128;0.02631579;0.1024931;0.66759;0.736971;22;14;-9;-1004;4120;1152;4;-0.602493;0.1385041;-0.4639889;-0.6344549;-3;-1;-20;2952;2954;1040;16;0.7154313;-0.666205;-0.002770083;-0.2105263;22;-11;16;901;4303;266;2;0.5609418;-0.7213833;-0.3033241;-0.2700831;-7;4;-19;-894;3722;-1468;8;0.3587258;-0.7619806;0.3975069;0.3642659;8;8;-6;1605;3703;1317;1.177094;2.431417;0.9872839;1.183022;2.971536;0.9107409;1.188229;3.446015;0.8414568;1.328729;4.166213;0.8353271;1.137207;4.535533;0.7944678;0.775469;4.463778;0.8587809;0.08506422;4.937533;0.4622632;1.011865;4.745644;0.5071651;1.647923;4.435903;0.794467;1.904751;4.243477;0.8587799;2.363616;3.547467;1.34178;1.700671;2.952753;1.665209;0.8648329;2.388714;0.986089;0.3604261;1.286303;0.1668696;0;0;0;0.8648329;2.388714;0.986089;0.3604261;1.286303;0.1668696;0;0;0
1103435.7461;NotLabelled;NONE;16384;0.8136822;0.3933518;0.4030471;0.1440443;-19;10;6;2486;-2842;2166;65536;-0.6177285;-0.2174515;0.6621455;0.3642659;-21;-1;-5;3338;1365;-2773;8192;0.5180055;-0.7018746;-0.4889196;0;6;0;-8;3162;3340;-486;32768;0.5055401;-0.7586501;0.3504155;-0.2146814;-5;-5;14;3721;2395;293;256;-0.04986149;-0.09279778;-0.7068789;-0.699446;0;11;16;642;4042;-862;128;0.02908587;0.1038781;0.66759;0.7366728;0;7;-13;-1196;3732;1362;4;-0.601108;0.1385041;-0.4653739;-0.6347542;2;-11;-15;3226;2050;1314;16;0.7167225;-0.66482;-0.001385042;-0.2105263;10;-5;6;165;3681;222;2;0.5623268;-0.7204719;-0.299169;-0.2742382;-4;-4;-14;-620;3688;-1348;8;0.3614958;-0.7606704;0.3975069;0.3642659;4;4;-7;1689;3715;1447;1.183134;2.433219;0.9878001;1.189055;2.972737;0.9071331;1.194255;3.446673;0.8342264;1.337476;4.166353;0.8307828;1.147325;4.536551;0.791481;0.7853611;4.465916;0.8557628;0.0917913;4.947012;0.473878;1.017847;4.749557;0.5089409;1.657661;4.43499;0.7907472;1.913801;4.241347;0.8541414;2.37515;3.540107;1.327105;1.711311;2.951093;1.659021;0.8708725;2.390509;0.9869575;0.3616718;1.284858;0.1751017;0;0;0;0.8708725;2.390509;0.9869575;0.3616718;1.284858;0.1751017;0;0;0
1103456.6692;NotLabelled;NONE;16384;0.8132671;0.3961219;0.4016621;0.1426593;-18;6;10;2396;-2608;1954;65536;-0.6163435;-0.2160665;0.6615905;0.368421;-16;6;-9;3186;1221;-2419;8192;0.5180055;-0.7018746;-0.4889196;0;14;10;-2;2686;3204;-344;32768;0.5055401;-0.7565739;0.3531856;-0.2174515;6;4;15;3683;2241;463;256;-0.05263158;-0.09279778;-0.7053045;-0.700831;4;11;13;648;3790;-994;128;0.03185596;0.1052632;0.66482;0.7388635;-9;3;-16;-1078;3438;1708;4;-0.599723;0.1371191;-0.4653739;-0.636363;9;-18;-10;3496;1566;998;16;0.7167185;-0.66482;-0.002770083;-0.2105263;-2;18;-5;559;3251;2;2;0.5637119;-0.7194341;-0.2977839;-0.2756233;-2;-3;-6;-346;3676;-1248;8;0.3614958;-0.7599449;0.398892;0.3642659;3;-6;-7;1617;3679;1493;1.189769;2.434495;0.9852427;1.19569;2.973997;0.9044709;1.20089;3.447919;0.8314719;1.348343;4.166745;0.8282306;1.160427;4.538052;0.7886541;0.7979627;4.469547;0.8524168;0.1070107;4.954543;0.470718;1.032179;4.752;0.4996689;1.670158;4.433494;0.7886532;1.925065;4.238351;0.8524157;2.382965;3.538494;1.330747;1.717097;2.954221;1.666948;0.8775076;2.391784;0.9844092;0.3640233;1.283716;0.1785686;0;0;0;0.8775076;2.391784;0.9844092;0.3640233;1.283716;0.1785686;0;0;0
1103476.8518;NotLabelled;NONE;16384;0.8124128;0.4030471;0.398892;0.1357341;-13;7;21;2138;-2542;1718;65536;-0.6135734;-0.2146814;0.6615078;0.3739612;-10;7;-14;3010;959;-1695;8192;0.5152354;-0.703905;-0.4889196;-0.002770083;19;12;1;2256;2982;-256;32768;0.5055401;-0.7553672;0.3531856;-0.2216066;15;15;15;3351;1967;525;256;-0.05401662;-0.09279778;-0.702216;-0.7038206;8;12;12;616;3536;-894;128;0.03462604;0.1066482;0.6606648;0.7422596;-21;9;-18;-1084;3174;1376;4;-0.601108;0.1357341;-0.4612188;-0.638375;13;12;-7;3894;1690;446;16;0.7128202;-0.66759;-0.01108033;-0.2146814;-24;33;-23;797;3055;-212;2;0.5650969;-0.7200871;-0.2922437;-0.2770083;-4;-6;0;-126;3896;-830;8;0.3642659;-0.7586818;0.3975069;0.365651;-1;9;-2;1239;3529;1487;1.190546;2.434465;0.9834266;1.196472;2.974545;0.9066123;1.201679;3.448989;0.8370901;1.351869;4.167254;0.8367534;1.1654;4.539426;0.7984678;0.8026259;4.472055;0.861676;0.1123247;4.962325;0.4855793;1.036095;4.752769;0.5086467;1.674729;4.432929;0.7984668;1.928839;4.236569;0.8616747;2.389134;3.536712;1.337703;1.718813;2.957409;1.673658;0.8782843;2.391761;0.982255;0.3619835;1.284494;0.1771142;0;0;0;0.8782843;2.391761;0.982255;0.3619835;1.284494;0.1771142;0;0;0
1103497.6664;NotLabelled;NONE;16384;0.8128472;0.4058172;0.3961219;0.132964;-8;10;26;2062;-2512;1798;65536;-0.6121883;-0.2132964;0.662454;0.3753462;-9;3;-20;2882;1121;-1631;8192;0.5110803;-0.7049603;-0.4916897;-0.008310249;24;13;-1;1600;2682;-374;32768;0.5069252;-0.752172;0.3518005;-0.2313019;22;16;20;3001;1101;267;256;-0.06094183;-0.09279778;-0.6980609;-0.7073794;19;21;14;816;3062;-878;128;0.0401662;0.1094183;0.6578947;0.7440355;0;-2;-14;-1258;3148;930;4;-0.602493;0.1385041;-0.4584487;-0.6384696;22;36;-3;3310;2334;-106;16;0.7079527;-0.6717451;-0.0166205;-0.2174515;-29;58;-16;2549;3541;-554;2;0.5650969;-0.7200871;-0.2922437;-0.2770083;-4;5;2;192;3812;-774;8;0.3642659;-0.7594059;0.3961219;0.365651;-4;6;0;1247;3405;1553;1.180969;2.430719;0.9845306;1.186904;2.971615;0.9136903;1.192119;3.446799;0.8494163;1.343545;4.16478;0.8553781;1.157784;4.537583;0.8198931;0.7947837;4.470314;0.8818956;0.1115913;4.976238;0.5136318;1.033181;4.757049;0.5342479;1.666929;4.430205;0.8198923;1.920588;4.232882;0.8818947;2.375082;3.532166;1.362216;1.699871;2.9568;1.695129;0.8687074;2.388031;0.9828492;0.3558753;1.287667;0.1661114;0;0;0;0.8687074;2.388031;0.9828492;0.3558753;1.287667;0.1661114;0;0;0
1103517.9912;NotLabelled;NONE;16384;0.8141677;0.4072022;0.3933518;0.1288089;-6;11;28;1946;-2482;1818;65536;-0.6108033;-0.2105263;0.663043;0.3781163;-8;2;-25;2576;1259;-1793;8192;0.5083103;-0.7059338;-0.4930748;-0.01246537;25;12;-7;1480;2846;-334;32768;0.5083103;-0.7505929;0.3504155;-0.2354571;21;8;20;2903;997;353;256;-0.06509695;-0.09279778;-0.6966759;-0.7083739;20;24;15;834;3150;-628;128;0.04155125;0.1108033;0.6578947;0.7437544;-12;-1;-16;-1036;3140;1160;4;-0.6066482;0.1440443;-0.4542936;-0.6362755;28;46;-5;2520;2936;408;16;0.7043151;-0.6731302;-0.02216066;-0.2243767;-12;69;2;3571;4019;-1078;2;0.5650969;-0.7189887;-0.2936288;-0.2783934;-5;11;2;-338;3620;-694;8;0.3642659;-0.7601267;0.3947368;0.365651;-7;9;2;931;3529;1603;1.178711;2.43359;0.9666062;1.184652;2.974967;0.8995399;1.189871;3.450587;0.8385814;1.348181;4.16698;0.8521039;1.166094;4.541894;0.8199847;0.8023257;4.477506;0.8805338;0.1214648;4.990658;0.5179994;1.04208;4.766891;0.5318317;1.674181;4.429619;0.8199837;1.925792;4.229245;0.8805327;2.374949;3.527873;1.364898;1.691105;2.959476;1.692111;0.8664498;2.390915;0.9646032;0.3550295;1.290164;0.147501;0;0;0;0.8664498;2.390915;0.9646032;0.3550295;1.290164;0.147501;0;0;0
1103539.6716;NotLabelled;NONE;16384;0.8165945;0.4072022;0.3891967;0.1260388;-4;4;29;1718;-2532;1892;65536;-0.6066482;-0.2091413;0.6664957;0.3795014;-6;2;-30;2508;1253;-1991;8192;0.5069252;-0.7068436;-0.4930748;-0.0166205;27;6;-15;1584;2806;-40;32768;0.5096953;-0.7476851;0.3518005;-0.2396122;17;2;21;3025;1201;311;256;-0.06925207;-0.09141274;-0.6952909;-0.7095199;19;23;15;674;3336;-568;128;0.04432133;0.1135734;0.6551247;0.7456195;-14;-2;-18;-1020;3280;966;4;-0.6108033;0.1495845;-0.4515235;-0.6329852;15;45;-2;2604;2852;1446;16;0.7019278;-0.6731302;-0.02631579;-0.2313019;4;22;9;3323;3895;-604;2;0.566482;-0.7173593;-0.2936288;-0.2797784;-3;1;4;-582;3662;-480;8;0.3642659;-0.7608443;0.3933518;0.365651;-9;10;3;1153;3453;1883;1.175779;2.434134;0.9623845;1.18172;2.975502;0.8952525;1.18694;3.451115;0.834236;1.349459;4.16652;0.8498955;1.169605;4.542591;0.8187283;0.8054251;4.480177;0.8788655;0.129176;5.000124;0.5173808;1.047965;4.76869;0.5253084;1.677022;4.427324;0.8187273;1.927409;4.2253;0.878864;2.371346;3.522777;1.366363;1.68478;2.956078;1.690809;0.8635183;2.391459;0.9603872;0.3590878;1.289869;0.140077;0;0;0;0.8635183;2.391459;0.9603872;0.3590878;1.289869;0.140077;0;0;0
1103561.6785;NotLabelled;NONE;16384;0.8180837;0.4085872;0.3850415;0.1246537;1;-1;30;1798;-2304;2006;65536;-0.6038781;-0.2063712;0.6690798;0.3808864;0;3;-34;2508;1299;-2261;8192;0.5055401;-0.7087273;-0.4916897;-0.01939058;26;0;-19;1934;2974;166;32768;0.5096953;-0.7461377;0.3531856;-0.2423823;15;0;23;3217;1693;315;256;-0.0734072;-0.09141274;-0.6925207;-0.7118077;21;16;14;742;3570;-552;128;0.04570637;0.1163435;0.6537396;0.7463241;-10;-8;-20;-954;3506;918;4;-0.6149584;0.1509695;-0.4501385;-0.6296108;3;23;14;3196;2634;1040;16;0.7019278;-0.6731302;-0.02631579;-0.2313019;-3;16;-7;1609;3569;-60;2;0.567867;-0.7168028;-0.2936288;-0.2783934;-4;-2;6;-168;3734;-330;8;0.3628809;-0.7622197;0.3919668;0.365651;-9;5;3;1275;3471;2093;1.177912;2.434941;0.9595078;1.183858;2.976782;0.8963007;1.189082;3.452824;0.8387325;1.354396;4.167534;0.8567336;1.176101;4.544398;0.8262075;0.8115436;4.483263;0.8853615;0.1377991;5.005385;0.5223392;1.054652;4.766479;0.5323638;1.683056;4.427122;0.8270161;1.932507;4.223942;0.8871502;2.375162;3.522021;1.376679;1.683913;2.959548;1.698526;0.8656508;2.392282;0.9571764;0.3647673;1.288543;0.1375818;0;0;0;0.8656508;2.392282;0.9571764;0.3647673;1.288543;0.1375818;0;0;0
1103581.8357;NotLabelled;NONE;16384;0.822359;0.4085872;0.3767313;0.1218837;5;-3;32;1932;-2256;2474;65536;-0.5955678;-0.2036011;0.6757612;0.3836565;6;5;-33;2770;1171;-2485;8192;0.5041551;-0.710498;-0.4903047;-0.02493075;23;0;-19;2160;3202;274;32768;0.5096953;-0.7441167;0.3545706;-0.2465374;13;-3;26;3185;2171;285;256;-0.07617728;-0.0900277;-0.6897507;-0.7143781;24;16;15;758;3684;-530;128;0.04709141;0.1191136;0.6509695;0.7482199;-10;-8;-19;-992;3630;1216;4;-0.6163435;0.1495845;-0.4473684;-0.6305606;15;-6;11;2150;2484;194;16;0.7009556;-0.6731302;-0.02770083;-0.234072;-2;8;-6;1283;3503;-2;2;0.567867;-0.7184028;-0.2936288;-0.2742382;-2;-11;19;482;3890;-590;8;0.3601108;-0.7649481;0.3891967;0.365651;-10;-8;-2;1477;3349;1955;1.186102;2.432233;0.9563974;1.192051;2.974302;0.8951815;1.197277;3.450553;0.8393629;1.366788;4.164146;0.8620293;1.19071;4.542244;0.8339857;0.8258021;4.482864;0.8927683;0.157605;5.012816;0.5308387;1.072386;4.766026;0.5390711;1.696967;4.421988;0.8339848;1.945223;4.216956;0.892767;2.381981;3.508975;1.378855;1.688408;2.95048;1.702626;0.8738412;2.389582;0.9538967;0.3656732;1.288543;0.1351556;0;0;0;0.8738412;2.389582;0.9538967;0.3656732;1.288543;0.1351556;0;0;0
1103602.0805;NotLabelled;NONE;16384;0.8244535;0.4085872;0.3725762;0.1204986;2;-2;32;1986;-2434;2814;65536;-0.5914127;-0.2036011;0.6786167;0.3850415;2;5;-32;2902;1223;-2477;8192;0.5041551;-0.7120623;-0.4875346;-0.033241;17;0;-19;2432;3372;384;32768;0.5124654;-0.7376695;0.3601108;-0.2520775;10;-9;23;3117;2531;657;256;-0.08033241;-0.0900277;-0.6855956;-0.717914;29;16;14;676;3682;-602;128;0.04847645;0.1218837;0.6481994;0.7500879;-17;-8;-17;-842;3790;1076;4;-0.6149584;0.1523546;-0.4445983;-0.6332034;6;0;-5;2168;3054;1164;16;0.6997833;-0.6731302;-0.033241;-0.2368421;-3;28;-3;1075;3951;180;2;0.567867;-0.7188873;-0.2950138;-0.2714681;-3;-11;17;640;3868;-878;8;0.3587258;-0.7649355;0.3891967;0.367036;-11;-4;-2;1363;3449;1761;1.192147;2.425774;0.9606372;1.198101;2.968281;0.9034424;1.203331;3.444933;0.8511565;1.374208;4.158018;0.8789868;1.19892;4.536646;0.8532478;0.8338001;4.477587;0.9110283;0.1754451;5.01463;0.5415924;1.085971;4.753094;0.5599808;1.704939;4.415391;0.8532466;1.952694;4.209472;0.9110267;2.381946;3.496496;1.396497;1.683843;2.94338;1.719766;0.8798868;2.383143;0.9577952;0.368831;1.28785;0.133166;0;0;0;0.8798868;2.383143;0.9577952;0.368831;1.28785;0.133166;0;0;0
1103622.6872;NotLabelled;NONE;16384;0.8267179;0.4085872;0.368421;0.1177285;-1;-2;30;2048;-2618;2950;65536;-0.5872576;-0.200831;0.6822535;0.3864266;-2;3;-32;2944;1491;-2723;8192;0.5055401;-0.7128364;-0.4847645;-0.03601108;11;-5;-21;2464;3598;404;32768;0.5124654;-0.7358352;0.3628809;-0.2534626;4;-16;21;3215;2507;943;256;-0.08864266;-0.08725762;-0.6786703;-0.7238336;28;36;15;978;4188;-262;128;0.04847645;0.1274238;0.6454294;0.7515545;-7;-25;-16;-724;4240;258;4;-0.6149584;0.1537396;-0.4445983;-0.6328686;4;-11;-2;2370;4046;1002;16;0.6978397;-0.6745152;-0.03601108;-0.2382271;-1;15;-12;1153;4389;304;2;0.566482;-0.7204493;-0.2963989;-0.2686981;-4;-7;17;920;3928;-848;8;0.3573407;-0.764918;0.3891967;0.368421;-10;-3;-2;1665;3577;1709;1.177982;2.430071;0.9604972;1.18394;2.972988;0.9073216;1.189175;3.450014;0.8585671;1.364193;4.161751;0.8940914;1.191211;4.541656;0.8717893;0.8256049;4.48418;0.9280708;0.1722532;5.024704;0.5548482;1.081123;4.757707;0.5764112;1.696503;4.417407;0.8717884;1.942891;4.209441;0.9280695;2.359351;3.487278;1.411099;1.650954;2.942885;1.72669;0.8657217;2.387463;0.957314;0.364118;1.289465;0.1304814;0;0;0;0.8657217;2.387463;0.957314;0.364118;1.289465;0.1304814;0;0;0
1103642.782;NotLabelled;NONE;16384;0.8274577;0.4099723;0.365651;0.1163435;-4;2;26;2040;-2658;3116;65536;-0.5844875;-0.1980609;0.684652;0.3878116;-7;2;-29;3136;1653;-2791;8192;0.5069252;-0.7135855;-0.4819945;-0.03878116;6;-12;-23;2648;3834;406;32768;0.5124654;-0.7339832;0.365651;-0.2548476;-5;-23;20;3451;2695;1151;256;-0.09418282;-0.08448754;-0.6772853;-0.7247593;18;33;15;1022;4602;182;128;0.04570637;0.132964;0.6426592;0.7531405;2;-43;-18;-530;4800;-198;4;-0.6135734;0.1523546;-0.4459834;-0.6335729;-5;-20;6;2606;4654;600;16;0.6981627;-0.6745152;-0.03878116;-0.2368421;2;-7;-22;1763;5081;64;2;0.566482;-0.7209058;-0.2977839;-0.265928;-3;-2;15;648;3960;-856;8;0.3559557;-0.7648954;0.3891967;0.3698061;-9;-3;-2;1587;3651;1635;1.186811;2.433083;0.9422806;1.192773;2.976396;0.8933105;1.198012;3.453784;0.8482513;1.378704;4.163383;0.8960302;1.208931;4.545014;0.8792111;0.8426374;4.489653;0.9330908;0.1905459;5.034709;0.564283;1.09679;4.758582;0.5808226;1.713185;4.416615;0.8792102;1.957628;4.205738;0.9330898;2.376234;3.478514;1.406576;1.668422;2.938178;1.730344;0.8745511;2.390501;0.9387413;0.3642472;1.290445;0.1200058;0;0;0;0.8745511;2.390501;0.9387413;0.3642472;1.290445;0.1200058;0;0;0
1103663.7401;NotLabelled;NONE;16384;0.8290605;0.4099723;0.3628809;0.1135734;-4;6;19;2006;-2538;3062;65536;-0.5831025;-0.1952908;0.6850539;0.3905817;-9;-2;-23;3176;1717;-2823;8192;0.5083103;-0.715316;-0.4778393;-0.0401662;2;-18;-22;3006;3984;410;32768;0.5110803;-0.7326464;0.3711911;-0.2534626;-13;-27;18;3737;3037;1225;256;-0.09833795;-0.08448754;-0.6759003;-0.7255;3;20;19;882;4796;376;128;0.04293629;0.1398892;0.6426592;0.7520483;-3;-34;-20;-592;4546;234;4;-0.6108033;0.1495845;-0.4459834;-0.6369008;-3;-29;5;2642;4142;-116;16;0.6991373;-0.6759003;-0.03878116;-0.2299169;4;-37;-22;1691;4793;560;2;0.5650969;-0.7230063;-0.2977839;-0.2631579;-2;-9;15;690;3954;-1062;8;0.3545706;-0.7655385;0.3891967;0.3698061;-8;-5;-2;1633;3449;1885;1.19269;2.435646;0.929656;1.198657;2.979338;0.8850933;1.203899;3.457076;0.8439065;1.387644;4.165797;0.8930505;1.219536;4.548191;0.8768427;0.8529806;4.494322;0.9304538;0.2018653;5.043606;0.5662226;1.105827;4.759803;0.5764948;1.723228;4.417606;0.8768418;1.966729;4.205574;0.9304528;2.384572;3.473338;1.396834;1.676787;2.93709;1.727388;0.8804305;2.393094;0.9257436;0.3578434;1.292664;0.1153017;0;0;0;0.8804305;2.393094;0.9257436;0.3578434;1.292664;0.1153017;0;0;0
1103684.1383;NotLabelled;NONE;16384;0.8316883;0.4085872;0.3601108;0.1080332;-2;16;11;1810;-2018;3058;65536;-0.5817174;-0.1911357;0.6866105;0.3919668;-8;-6;-9;2772;1353;-3085;8192;0.5096953;-0.7170918;-0.4736842;-0.0401662;1;-23;-13;3298;4002;348;32768;0.5083103;-0.7324566;0.3753462;-0.2534626;-16;-20;16;3719;3377;1081;256;-0.101108;-0.08587258;-0.6759003;-0.7249565;-3;5;16;780;4590;98;128;0.04155125;0.1454294;0.6412742;0.7522573;1;-30;-19;-670;4342;190;4;-0.6080332;0.1468144;-0.4459834;-0.6401874;-3;-21;-1;2602;2988;520;16;0.6992266;-0.6772853;-0.03739612;-0.2257618;2;-21;-15;997;3941;938;2;0.5650969;-0.7260565;-0.2963989;-0.2562327;2;-29;13;982;4052;-520;8;0.3531856;-0.7648352;0.3891967;0.3725762;0;-1;-2;1385;3179;2305;1.185911;2.437454;0.922441;1.191878;2.981178;0.8782731;1.197121;3.458947;0.8374336;1.385181;4.166414;0.8882881;1.219432;4.549867;0.8728465;0.8525203;4.498127;0.9261206;0.2046714;5.05109;0.5616292;1.106302;4.759815;0.5660051;1.722313;4.416193;0.8728458;1.964476;4.202552;0.9261199;2.380008;3.465763;1.38737;1.67223;2.934438;1.725795;0.8736513;2.394905;0.9184952;0.3465887;1.296318;0.1084513;0;0;0;0.8736513;2.394905;0.9184952;0.3465887;1.296318;0.1084513;0;0;0
1103704.9711;NotLabelled;NONE;16384;0.8327222;0.4072022;0.3601108;0.1052632;-3;17;8;1634;-2036;3022;65536;-0.5817174;-0.1883656;0.6873757;0.3919668;-7;-4;-2;2628;1347;-3107;8192;0.5096953;-0.7207967;-0.468144;-0.03878116;-1;-18;0;3486;3580;50;32768;0.5041551;-0.7329462;0.3808864;-0.2520775;-11;-2;8;3311;3253;897;256;-0.1024931;-0.08725762;-0.6759003;-0.7245965;0;-2;12;666;4244;-148;128;0.0401662;0.1481994;0.6412742;0.7517918;0;-14;-14;-586;3892;654;4;-0.6080332;0.1481994;-0.4487534;-0.6379285;-3;10;-10;2092;3074;138;16;0.6986969;-0.6786703;-0.03878116;-0.2229917;6;-3;-5;793;3973;280;2;0.5650969;-0.7275095;-0.2963989;-0.2520775;0;-22;12;1690;3986;-314;8;0.3518005;-0.7654733;0.3891967;0.3725762;1;0;-4;1289;3239;2309;1.183651;2.43708;0.9186506;1.18962;2.980984;0.8767645;1.194865;3.45892;0.83793;1.387171;4.165299;0.8880256;1.223716;4.549722;0.8722442;0.8565161;4.500234;0.9256681;0.2144763;5.057335;0.5572243;1.11347;4.758013;0.5609123;1.725788;4.413042;0.8722431;1.966682;4.198006;0.9256665;2.380645;3.457901;1.382999;1.671622;2.932599;1.728154;0.8713917;2.394548;0.914512;0.3426144;1.297813;0.1030774;0;0;0;0.8713917;2.394548;0.914512;0.3426144;1.297813;0.1030774;0;0;0
1103725.6954;NotLabelled;NONE;16384;0.8337433;0.4058172;0.3601108;0.1024931;-7;12;4;1534;-2224;2972;65536;-0.5817174;-0.1869806;0.6877537;0.3919668;-9;-1;2;2464;1477;-2995;8192;0.5096953;-0.7217675;-0.466759;-0.03739612;-3;-11;2;3290;3366;94;32768;0.5041551;-0.7322248;0.3822715;-0.2520775;-8;-1;2;3117;3037;865;256;-0.1024931;-0.0900277;-0.6759003;-0.7242575;0;0;6;964;3818;-48;128;0.03878116;0.1509695;0.6426592;0.7501289;7;-10;-7;-628;3944;392;4;-0.6066482;0.1509695;-0.4487534;-0.6385973;0;2;-12;2000;3250;-288;16;0.7009159;-0.6772853;-0.03878116;-0.2202216;8;-11;-5;551;4029;28;2;0.5650969;-0.7283713;-0.2977839;-0.2479224;-2;-8;12;1842;3920;-870;8;0.3531856;-0.7655385;0.3878116;0.3725762;4;7;-5;1299;3243;2171;1.179963;2.443958;0.9049756;1.185932;2.987875;0.8632565;1.191177;3.465823;0.8245687;1.386276;4.171462;0.8742896;1.224339;4.55652;0.8583401;0.856953;4.508507;0.9118376;0.2169592;5.066103;0.5405904;1.114738;4.763157;0.5443501;1.725867;4.417858;0.8583394;1.965917;4.2019;0.9118368;2.37562;3.459869;1.369886;1.666043;2.941527;1.724302;0.8677032;2.401427;0.9008228;0.3357694;1.300005;0.09784413;0;0;0;0.8677032;2.401427;0.9008228;0.3357694;1.300005;0.09784413;0;0;0
1103745.7433;NotLabelled;NONE;16384;0.8340791;0.4058172;0.3601108;0.09972299;-9;10;0;1456;-2300;2868;65536;-0.5831025;-0.1842105;0.6873282;0.3919668;-12;1;4;2404;1623;-2835;8192;0.5110803;-0.7209257;-0.466759;-0.03462604;-8;-7;2;3034;3142;72;32768;0.5027701;-0.7336512;0.3822715;-0.2506925;-8;-3;-1;3037;2709;993;256;-0.1024931;-0.0900277;-0.6772853;-0.7229625;-1;1;5;950;3872;-40;128;0.03739612;0.1523546;0.6440443;0.74873;7;-10;-5;-766;4012;346;4;-0.6052631;0.1537396;-0.4501385;-0.6382759;3;5;-13;2150;3346;-150;16;0.7012716;-0.6772853;-0.0401662;-0.2188366;9;-1;0;365;4269;-160;2;0.5637119;-0.7287768;-0.300554;-0.2465374;-6;9;10;1540;4056;-692;8;0.3545706;-0.7662961;0.3850415;0.3725762;8;26;-3;1241;3401;2097;1.16289;2.450319;0.9111075;1.168858;2.99409;0.867529;1.174101;3.471903;0.8272072;1.37189;4.176788;0.8769811;1.211423;4.562463;0.8610554;0.8438562;4.515849;0.9145423;0.2074172;5.073922;0.5379416;1.104561;4.769169;0.5453816;1.712419;4.421888;0.8610548;1.951643;4.205012;0.9145419;2.359513;3.463387;1.374878;1.647512;2.946397;1.726394;0.8506307;2.407774;0.9071119;0.3292942;1.301157;0.104326;0;0;0;0.8506307;2.407774;0.9071119;0.3292942;1.301157;0.104326;0;0;0
1103766.9245;NotLabelled;NONE;16384;0.8336443;0.4058172;0.3614958;0.09833795;-10;10;-5;1466;-2326;2762;65536;-0.5844875;-0.1828255;0.6857285;0.3933518;-12;0;6;2386;1619;-2717;8192;0.5124654;-0.7200072;-0.466759;-0.033241;-11;-10;1;2760;3002;-54;32768;0.5027701;-0.7345919;0.3822715;-0.2479224;-11;-7;-3;3103;2355;1039;256;-0.1024931;-0.09141274;-0.6772853;-0.7227886;-4;0;4;1052;3944;128;128;0.03739612;0.1537396;0.6454294;0.7472527;7;-7;-3;-842;3930;250;4;-0.6038781;0.1565097;-0.4501385;-0.6389142;4;18;-14;2184;3346;14;16;0.7030365;-0.6759003;-0.0401662;-0.2174515;12;2;4;579;4139;158;2;0.5637119;-0.7280959;-0.3033241;-0.2451524;-6;7;11;1302;4046;-644;8;0.3573407;-0.767068;0.3822715;0.3711911;12;33;-2;1407;3405;2103;1.153746;2.458112;0.9041672;1.159711;3.001726;0.8586754;1.164953;3.479394;0.8166726;1.362782;4.184465;0.8635894;1.20229;4.570075;0.846384;0.8347808;4.523656;0.9004334;0.2000052;5.083831;0.5241444;1.096403;4.776824;0.5280513;1.703288;4.429508;0.8463833;1.942572;4.212838;0.9004325;2.355827;3.472599;1.358189;1.646298;2.955169;1.71403;0.8414857;2.415553;0.9003333;0.3241701;1.302476;0.1039014;0;0;0;0.8414857;2.415553;0.9003333;0.3241701;1.302476;0.1039014;0;0;0
1103787.6667;NotLabelled;NONE;16384;0.8333647;0.4058172;0.3628809;0.09556787;-7;9;-9;1558;-2468;2712;65536;-0.5858725;-0.1800554;0.6852794;0.3933518;-10;-5;7;2500;1649;-2609;8192;0.5138504;-0.7199792;-0.4653739;-0.03185596;-12;-13;0;2778;3038;-54;32768;0.501385;-0.7360033;0.3822715;-0.2465374;-14;-9;-4;3123;2251;1207;256;-0.101108;-0.09279778;-0.6786703;-0.721507;-6;-5;2;894;4006;194;128;0.03601108;0.1537396;0.6454294;0.7473207;4;-4;-1;-596;4050;44;4;-0.6052631;0.1620499;-0.4515235;-0.6352345;4;27;-22;2082;3284;180;16;0.7043655;-0.6745152;-0.0401662;-0.2174515;16;-13;6;987;4119;388;2;0.5623268;-0.7265834;-0.3116343;-0.2423823;-5;15;12;1124;4002;-734;8;0.365651;-0.7712306;0.3725762;0.3642659;14;52;0;799;3603;1303;1.141104;2.463686;0.9083227;1.147068;3.00713;0.8608472;1.152308;3.484641;0.8171011;1.351484;4.189331;0.8640432;1.19173;4.575248;0.8468491;0.8241324;4.52953;0.9008936;0.1889724;5.09005;0.5257684;1.084807;4.78138;0.5263848;1.692459;4.433723;0.8468483;1.931328;4.216595;0.9008923;2.346848;3.476574;1.356949;1.640022;2.956241;1.713933;0.8288441;2.421113;0.9046567;0.3204649;1.302924;0.1096337;0;0;0;0.8288441;2.421113;0.9046567;0.3204649;1.302924;0.1096337;0;0;0
1103827.8568;NotLabelled;NONE;16384;0.8316053;0.4044321;0.368421;0.09556787;0;7;-19;1740;-2198;2690;65536;-0.5886427;-0.1772853;0.6836257;0.3933518;-3;-7;13;2576;1391;-2803;8192;0.5166205;-0.7208939;-0.4612188;-0.02631579;-11;-20;-2;3168;3286;-124;32768;0.4972299;-0.7392062;0.3850415;-0.2409972;-20;-7;-4;3439;2551;1167;256;-0.09972299;-0.09418282;-0.6800554;-0.720215;-11;-15;1;918;4130;212;128;0.03462604;0.1537396;0.6468144;0.7461879;3;0;-1;-600;4144;274;4;-0.6038781;0.166205;-0.4542936;-0.6335018;4;11;-34;1760;3212;496;16;0.706192;-0.6731302;-0.03878116;-0.2160665;22;-6;13;257;3981;648;2;0.5609418;-0.7264606;-0.3144044;-0.2423823;-2;18;9;774;3878;-584;8;0.3711911;-0.7725429;0.367036;0.3614958;11;44;0;1021;3647;1501;1.132636;2.471652;0.9074523;1.1386;3.015102;0.8600406;1.14384;3.492618;0.8163506;1.342963;4.197482;0.8608568;1.183142;4.583319;0.8425723;0.8155997;4.537727;0.8970953;0.1818881;5.099645;0.5216154;1.076941;4.788716;0.5222911;1.68389;4.441862;0.8425713;1.922837;4.224939;0.897094;2.33902;3.484354;1.351626;1.633238;2.963603;1.710065;0.8203762;2.42908;0.9037811;0.3191425;1.302715;0.1157915;0;0;0;0.8203762;2.42908;0.9037811;0.3191425;1.302715;0.1157915;0;0;0
1103848.869;NotLabelled;NONE;16384;0.8308853;0.4030471;0.3711911;0.09695291;1;5;-20;1898;-2222;2804;65536;-0.5914127;-0.1772853;0.6820286;0.3919668;0;-8;15;2688;1187;-2871;8192;0.5180055;-0.7217156;-0.4584487;-0.02493075;-11;-16;0;3390;3288;-164;32768;0.4958449;-0.7403108;0.3864266;-0.2382271;-17;-5;-6;3523;2785;1063;256;-0.09695291;-0.09695291;-0.6814404;-0.7189153;-12;-21;0;884;4128;-52;128;0.03462604;0.1537396;0.6481994;0.744985;0;0;-1;-726;4074;456;4;-0.599723;0.1772853;-0.4612188;-0.6294279;-2;26;-40;1964;3354;478;16;0.7097997;-0.66759;-0.03739612;-0.2216066;31;2;24;1261;4001;480;2;0.5609418;-0.7247911;-0.3171745;-0.2437673;-4;19;3;512;4046;-600;8;0.3753462;-0.7731373;0.3642659;0.3587258;11;39;0;1125;3727;1703;1.124775;2.480925;0.9041296;1.130736;3.024199;0.8547476;1.135975;3.501554;0.8093265;1.335053;4.20658;0.8513857;1.175169;4.592339;0.832006;0.8076809;4.546878;0.8870088;0.1685408;5.104356;0.5141202;1.063273;4.792515;0.5117545;1.675933;4.450941;0.8320053;1.914955;4.234223;0.8870079;2.335142;3.49407;1.338552;1.634778;2.97335;1.707507;0.8125145;2.438339;0.900625;0.3178509;1.302444;0.1222249;0;0;0;0.8125145;2.438339;0.900625;0.3178509;1.302444;0.1222249;0;0;0
1103869.6797;NotLabelled;NONE;16384;0.8303136;0.4016621;0.3739612;0.09695291;1;3;-16;1934;-2288;2930;65536;-0.5941828;-0.1772853;0.6812068;0.3891967;0;-6;16;2724;1137;-2965;8192;0.5193906;-0.72081;-0.4584487;-0.02216066;-12;-9;5;3392;3266;-216;32768;0.4944598;-0.7416804;0.3864266;-0.2368421;-11;-2;-8;3353;2829;957;256;-0.0900277;-0.101108;-0.6828254;-0.7179286;-8;-19;-5;936;3806;-190;128;0.03462604;0.1523546;0.6495845;0.7440625;5;2;4;-754;3822;498;4;-0.599723;0.1842105;-0.4653739;-0.6243604;1;37;-42;2188;3334;-10;16;0.7133932;-0.6634349;-0.03462604;-0.2229917;35;-13;23;1113;4095;354;2;0.5609418;-0.7231045;-0.3199446;-0.2451524;-7;23;-2;734;4056;-586;8;0.3781163;-0.7756468;0.3601108;0.3545706;10;43;3;1251;3557;2019;1.115259;2.501405;0.9006131;1.121219;3.044491;0.8491991;1.126455;3.521673;0.8019924;1.325414;4.226852;0.8420041;1.165432;4.612522;0.8217086;0.7979959;4.567131;0.8771126;0.1567326;5.120494;0.5017457;1.052821;4.812563;0.5019854;1.666226;4.471232;0.8217076;1.905337;4.254713;0.8771116;2.322957;3.513186;1.328783;1.62289;2.991973;1.697605;0.8029987;2.458807;0.8972807;0.3257752;1.298146;0.144962;0;0;0;0.8029987;2.458807;0.8972807;0.3257752;1.298146;0.144962;0;0;0
1103890.7223;NotLabelled;NONE;16384;0.8295254;0.4016621;0.3753462;0.09833795;0;2;-13;1954;-2206;2884;65536;-0.5955678;-0.1772853;0.680787;0.3878116;0;-1;15;2750;1065;-3049;8192;0.5193906;-0.7208513;-0.4584487;-0.02077562;-12;-1;6;3192;3100;-304;32768;0.4944598;-0.7432784;0.3850415;-0.234072;-5;0;-11;3227;2597;837;256;-0.08587258;-0.1024931;-0.6842105;-0.716922;-9;-18;-8;922;3772;-170;128;0.033241;0.1509695;0.6495845;0.744408;1;2;5;-682;3704;838;4;-0.5983379;0.1911357;-0.468144;-0.6215304;3;4;-53;1486;3298;368;16;0.7174234;-0.6592798;-0.03047091;-0.2229917;44;-26;27;635;4045;554;2;0.5609418;-0.7209257;-0.3227147;-0.2479224;-8;32;0;838;3934;-730;8;0.3822715;-0.7767885;0.3559557;0.3518005;11;43;2;1313;3651;1949;1.103529;2.511278;0.9096804;1.109487;3.054163;0.8561894;1.114722;3.531161;0.8071578;1.310622;4.237249;0.8462152;1.148956;4.622194;0.8254927;0.7817402;4.575274;0.8810834;0.1431122;5.125578;0.4968344;1.040862;4.822764;0.5088996;1.65036;4.483085;0.8254921;1.890431;4.267679;0.8810829;2.30571;3.527571;1.337218;1.602257;3.006003;1.699028;0.7912692;2.468667;0.906524;0.3280822;1.295101;0.1655392;0;0;0;0.7912692;2.468667;0.906524;0.3280822;1.295101;0.1655392;0;0;0
1103912.7041;NotLabelled;NONE;16384;0.8289366;0.400277;0.3781163;0.09833795;-1;0;-12;1832;-2134;2826;65536;-0.5983379;-0.1786704;0.6787806;0.3864266;2;4;15;2532;1119;-3053;8192;0.5207756;-0.7190421;-0.4598338;-0.01800554;-12;4;6;2858;2960;-346;32768;0.4958449;-0.7435068;0.3836565;-0.232687;0;2;-13;3099;2335;735;256;-0.08310249;-0.1038781;-0.6855956;-0.7157248;-8;-17;-9;892;3568;-330;128;0.03185596;0.1509695;0.6495845;0.7444686;0;-5;6;-792;3738;810;4;-0.5927978;0.1966759;-0.4736842;-0.6209128;-6;-1;-59;1032;3070;970;16;0.7230647;-0.6537396;-0.02631579;-0.2216066;46;-32;30;1305;3875;46;2;0.5609418;-0.7185723;-0.3268698;-0.2493075;-3;27;3;670;3854;-784;8;0.3850415;-0.7791804;0.3518005;0.3476454;14;41;3;1111;3781;1891;1.093786;2.520519;0.9158208;1.099743;3.063406;0.8623486;1.104978;3.540405;0.8133334;1.297999;4.247384;0.8505781;1.134738;4.63161;0.8290451;0.7677543;4.583314;0.8849905;0.1289408;5.13182;0.4984849;1.027457;4.831567;0.5161898;1.63671;4.494564;0.8290443;1.8777;4.280279;0.8849893;2.29196;3.541356;1.343961;1.590233;3.015647;1.703122;0.7815254;2.477908;0.9126629;0.3315177;1.291779;0.1836581;0;0;0;0.7815254;2.477908;0.9126629;0.3315177;1.291779;0.1836581;0;0;0
1103933.1446;NotLabelled;NONE;16384;0.8268304;0.4016621;0.3808864;0.09972299;-10;-4;-12;1660;-2150;2766;65536;-0.601108;-0.1814404;0.6755909;0.3864266;-3;9;14;2482;1153;-2771;8192;0.5207756;-0.7181877;-0.4612188;-0.0166205;-12;7;6;2570;2770;-250;32768;0.4972299;-0.7430138;0.3836565;-0.2313019;5;1;-13;3125;2083;723;256;-0.07894737;-0.1052632;-0.6855956;-0.7159928;-4;-15;-11;908;3446;-448;128;0.03047091;0.1495845;0.6495845;0.7448061;0;-6;7;-866;3616;782;4;-0.5900277;0.200831;-0.4792244;-0.617963;-3;4;-46;2126;2870;146;16;0.7298644;-0.6468144;-0.02077562;-0.2202216;44;-40;27;1243;3985;-604;2;0.5595568;-0.7167814;-0.3310249;-0.2520775;-2;11;5;646;4018;-456;8;0.3933518;-0.7823989;0.3421052;0.3407202;16;45;6;1071;3135;2307;1.08799;2.532793;0.9145683;1.093947;3.075686;0.8611513;1.099182;3.55269;0.8121848;1.290963;4.260165;0.8462587;1.126773;4.643993;0.8246822;0.760248;4.595098;0.883058;0.1142656;5.138133;0.500765;1.014758;4.843636;0.5142648;1.629019;4.507981;0.821919;1.870799;4.294351;0.8769485;2.296038;3.559844;1.332962;1.596492;3.030313;1.69076;0.7757292;2.490183;0.9114056;0.3327613;1.288393;0.2040591;0;0;0;0.7757292;2.490183;0.9114056;0.3327613;1.288393;0.2040591;0;0;0
1103953.9185;NotLabelled;NONE;16384;0.8260226;0.4016621;0.3822715;0.101108;-11;-2;-13;1868;-2286;2712;65536;-0.602493;-0.1814404;0.674356;0.3864266;-6;10;13;2578;1307;-2611;8192;0.5235457;-0.7144103;-0.4639889;-0.01523546;-12;6;3;1944;2694;-198;32768;0.5;-0.7434371;0.3808864;-0.2285319;5;-3;-12;3025;1563;995;256;-0.07617728;-0.1052632;-0.6855956;-0.7162928;-2;-10;-10;1006;3452;-380;128;0.02908587;0.1495845;0.6481994;0.746067;-3;-5;8;-1052;3506;964;4;-0.5803324;0.2049861;-0.4847645;-0.6214486;-3;-22;-40;3080;3272;838;16;0.7418213;-0.6357341;-0.006925208;-0.2132964;37;-63;17;1937;3925;-1108;2;0.5595568;-0.7154956;-0.333795;-0.2520775;-4;18;8;1048;3830;-566;8;0.3961219;-0.784007;0.3379501;0.3379501;10;24;0;985;3113;2589;1.079231;2.539372;0.9294935;1.085189;3.082266;0.8760883;1.090423;3.559271;0.827132;1.279067;4.267493;0.8631665;1.113415;4.650664;0.8410924;0.746762;4.60018;0.8972743;0.105228;5.144692;0.5096285;1.00769;4.856626;0.5290598;1.616228;4.516737;0.8410916;1.858568;4.304041;0.8972731;2.276579;3.569425;1.359746;1.573505;3.037436;1.706823;0.7669708;2.496762;0.9263299;0.3327499;1.28339;0.2334806;0;0;0;0.7669708;2.496762;0.9263299;0.3327499;1.28339;0.2334806;0;0;0
1103974.7116;NotLabelled;NONE;16384;0.8247048;0.4030471;0.3836565;0.101108;-14;0;-13;1792;-2336;2654;65536;-0.6038781;-0.1828255;0.6719437;0.3878116;-9;8;13;2694;1271;-2435;8192;0.5235457;-0.7144385;-0.4639889;-0.01385042;-11;-3;0;1956;2740;-204;32768;0.5;-0.7438615;0.3808864;-0.2271468;0;-7;-9;3165;1407;1049;256;-0.07202215;-0.1052632;-0.6855956;-0.7167225;0;0;-7;1152;3620;-350;128;0.02770083;0.1495845;0.6454294;0.7485172;-6;-1;5;-1126;3598;512;4;-0.5775623;0.2077562;-0.4889196;-0.6198521;1;3;-23;3520;2976;316;16;0.748125;-0.6301939;-0.001385042;-0.2077562;28;-44;13;1477;3925;-1544;2;0.5581717;-0.7151135;-0.3379501;-0.2506925;3;-8;7;-444;3452;-696;8;0.3961219;-0.784007;0.3379501;0.3379501;3;-16;-3;937;3425;2159;1.069454;2.546032;0.9511519;1.075414;3.089127;0.899823;1.08065;3.566316;0.8526912;1.266412;4.275268;0.889339;1.099212;4.657781;0.8675389;0.7327552;4.605764;0.9236007;0.08971518;5.148438;0.5358734;0.9926071;4.861753;0.5557304;1.602564;4.525893;0.8675383;1.845753;4.314138;0.9236003;2.26991;3.580609;1.382188;1.569929;3.041106;1.723875;0.7571936;2.503435;0.9478123;0.338504;1.273741;0.2744541;0;0;0;0.7571936;2.503435;0.9478123;0.338504;1.273741;0.2744541;0;0;0
1103995.8128;NotLabelled;NONE;16384;0.8220487;0.4058172;0.3864266;0.101108;-14;-2;-12;1894;-2414;2566;65536;-0.6052631;-0.1828255;0.6690869;0.3905817;-11;6;12;2800;1247;-2503;8192;0.5263157;-0.7133005;-0.4626039;-0.01385042;-11;-8;-5;2260;2836;-278;32768;0.5;-0.7435725;0.3822715;-0.2257618;-5;-11;-7;3269;1603;1029;256;-0.07202215;-0.1052632;-0.6855956;-0.7167225;0;0;-7;1088;3770;-318;128;0.02770083;0.1509695;0.6454294;0.7482391;-9;-4;4;-1116;3842;552;4;-0.5775623;0.2091413;-0.4889196;-0.6193862;4;7;2;4144;3344;280;16;0.751987;-0.6260388;0.001385042;-0.2063712;15;-11;13;1737;3747;-1898;2;0.5595568;-0.7158186;-0.33518;-0.2493075;3;-37;4;-74;3842;-20;8;0.3947368;-0.7817011;0.3421052;0.3407202;0;-42;-5;807;3567;1819;1.061127;2.550727;0.9596351;1.067091;3.094192;0.9123958;1.072331;3.571722;0.8688575;1.253765;4.281748;0.9063804;1.084246;4.663262;0.8849717;0.7180965;4.608953;0.9408627;0.07536124;5.152504;0.5538591;0.9789027;4.867883;0.5738842;1.588392;4.53444;0.884971;1.832848;4.324104;0.9408619;2.2566;3.591786;1.401754;1.556316;3.050881;1.740591;0.7488669;2.508156;0.9559491;0.3343168;1.27017;0.2953454;0;0;0;0.7488669;2.508156;0.9559491;0.3343168;1.27017;0.2953454;0;0;0
1104017.0959;NotLabelled;NONE;16384;0.8213635;0.4072022;0.3864266;0.101108;-13;-4;-10;1958;-2502;2462;65536;-0.6066482;-0.1828255;0.6670194;0.3919668;-10;6;10;2782;1287;-2559;8192;0.5277008;-0.7131996;-0.4612188;-0.01246537;-11;-6;-9;2600;2886;-296;32768;0.5;-0.7432784;0.3836565;-0.2243767;-6;-14;-4;3323;1793;791;256;-0.07063711;-0.1052632;-0.6855956;-0.7168604;0;-3;-8;926;3844;-354;128;0.02631579;0.1509695;0.6440443;0.7494816;-10;-5;3;-1068;3704;922;4;-0.5803324;0.2105263;-0.4875346;-0.6174164;0;24;12;3222;3614;870;16;0.7527533;-0.6246537;0.002770083;-0.2077562;6;0;8;1893;3919;-1558;2;0.5595568;-0.7187058;-0.3310249;-0.2465374;2;-32;5;586;3802;-862;8;0.3919668;-0.7794352;0.3476454;0.3434903;-1;-50;-3;1127;3525;1551;1.059171;2.548996;0.9719158;1.065135;3.092465;0.924718;1.070376;3.569999;0.8812159;1.25181;4.280025;0.9187387;1.082291;4.661538;0.89733;0.7161412;4.607228;0.9532209;0.07082822;5.152499;0.5729842;0.9742072;4.866945;0.5857306;1.586437;4.532717;0.8973292;1.830893;4.32238;0.9532201;2.25522;3.587425;1.40936;1.555635;3.046386;1.749424;0.7469116;2.506426;0.9682264;0.3344944;1.266765;0.3094295;0;0;0;0.7469116;2.506426;0.9682264;0.3344944;1.266765;0.3094295;0;0;0
1104036.6878;NotLabelled;NONE;16384;0.8182888;0.4113573;0.3878116;0.1038781;-8;-10;-6;2070;-2330;2370;65536;-0.6066482;-0.1842105;0.6658219;0.3933518;-2;13;7;2868;1173;-2605;8192;0.5290859;-0.7130678;-0.4598338;-0.01246537;-10;-1;-10;2880;3078;-256;32768;0.5;-0.7426742;0.3864266;-0.2216066;-2;-17;-2;3353;2173;707;256;-0.06786703;-0.1052632;-0.6855956;-0.7171279;0;-3;-9;798;3756;-436;128;0.02631579;0.1509695;0.6412742;0.7518531;-10;-9;3;-846;3822;1032;4;-0.5831025;0.2105263;-0.4847645;-0.6169875;0;12;13;1876;3422;686;16;0.7527533;-0.6246537;0.002770083;-0.2077562;-2;1;3;1823;4027;-1174;2;0.5609418;-0.7232702;-0.3227147;-0.2409972;9;-40;-1;168;3420;-1274;8;0.3864266;-0.7708575;0.3642659;0.3518005;-3;-76;-4;1771;3447;869;1.06156;2.545413;0.9807109;1.067526;3.089056;0.9355686;1.072768;3.566751;0.8938729;1.252758;4.277129;0.9316755;1.082468;4.658306;0.9103919;0.7164233;4.603234;0.966228;0.07197948;5.150099;0.5868077;0.9754824;4.864804;0.5960934;1.586874;4.530508;0.9103912;1.83175;4.320647;0.9662272;2.257071;3.585157;1.420576;1.557516;3.043982;1.760487;0.7493001;2.502857;0.9768474;0.3379897;1.26447;0.3149711;0;0;0;0.7493001;2.502857;0.9768474;0.3379897;1.26447;0.3149711;0;0;0
1104057.6621;NotLabelled;NONE;16384;0.8174139;0.4127424;0.3878116;0.1052632;-8;-12;-5;2006;-2424;2396;65536;-0.6066482;-0.1855956;0.6646165;0.3947368;0;15;6;2928;1157;-2531;8192;0.5304709;-0.712038;-0.4598338;-0.01246537;-5;9;-3;3022;3246;34;32768;0.5027701;-0.7401748;0.3891967;-0.2188366;7;-10;-7;3209;2609;1027;256;-0.06648199;-0.1038781;-0.6855956;-0.7174596;2;1;-11;662;3790;-416;128;0.02493075;0.1509695;0.6398892;0.7530794;-10;-11;5;-616;3930;734;4;-0.5831025;0.2063712;-0.4847645;-0.6183897;-3;-20;12;1644;3438;716;16;0.7508305;-0.6260388;0.002770083;-0.2105263;-7;10;1;1447;3899;-466;2;0.5609418;-0.7266309;-0.3171745;-0.2382271;15;-51;-3;8;3372;-1314;8;0.3822715;-0.7650434;0.3753462;0.3573407;-3;-88;-3;1811;3195;839;1.056742;2.541476;0.9918196;1.062711;3.085439;0.9507073;1.067957;3.563429;0.9125527;1.245056;4.274505;0.950897;1.073225;4.655003;0.9298557;0.7073969;4.598405;0.985586;0.06050991;5.147004;0.6128849;0.964228;4.862443;0.6236645;1.578145;4.529253;0.9298548;1.823861;4.320346;0.985585;2.248196;3.583117;1.438032;1.548702;3.041664;1.777625;0.7444826;2.49895;0.9876156;0.3367516;1.26447;0.3162943;0;0;0;0.7444826;2.49895;0.9876156;0.3367516;1.26447;0.3162943;0;0;0
1104078.6669;NotLabelled;NONE;16384;0.8158295;0.4155124;0.3878116;0.1066482;-10;-13;-5;2072;-2426;2386;65536;-0.6066482;-0.1883656;0.6621817;0.3975069;-2;15;7;3032;1337;-2335;8192;0.5318559;-0.7100807;-0.4612188;-0.01385042;-5;9;0;3082;3146;142;32768;0.5041551;-0.7403679;0.3878116;-0.2174515;8;-5;-10;3187;2825;1033;256;-0.06509695;-0.101108;-0.6855956;-0.7179821;0;5;-12;616;3894;-196;128;0.02216066;0.1509695;0.6385041;0.7543405;-8;-16;6;-530;3960;468;4;-0.5817174;0.2036011;-0.4847645;-0.6206084;-2;-24;13;1948;3532;686;16;0.7492832;-0.6274238;0.002770083;-0.2119114;-8;10;1;1415;3959;-218;2;0.5609418;-0.7305133;-0.3102493;-0.2354571;19;-56;-6;266;3268;-1346;8;0.3767313;-0.7610511;0.3836565;0.3628809;-9;-71;0;1085;3319;971;1.068858;2.535905;0.9930591;1.074829;3.080019;0.9539859;1.080076;3.558148;0.9176231;1.254357;4.269907;0.9562113;1.081023;4.649728;0.9352789;0.7154174;4.591666;0.9909614;0.06801307;5.1407;0.6198044;0.971989;4.856887;0.6284574;1.586437;4.525977;0.9352782;1.832973;4.318027;0.9909607;2.25836;3.579935;1.441007;1.559335;3.036084;1.777723;0.7565985;2.493394;0.9886829;0.3424742;1.264016;0.3119359;0;0;0;0.7565985;2.493394;0.9886829;0.3424742;1.264016;0.3119359;0;0;0
1104100.0427;NotLabelled;NONE;16384;0.8149402;0.4168975;0.3878116;0.1080332;-8;-10;-8;2080;-2430;2340;65536;-0.6066482;-0.1897507;0.6609522;0.398892;-2;14;10;3090;1385;-2231;8192;0.5318559;-0.7082738;-0.4639889;-0.01385042;-4;13;4;3094;3138;218;32768;0.5055401;-0.7405531;0.3864266;-0.2160665;12;0;-11;3059;2965;885;256;-0.06094183;-0.09695291;-0.6869806;-0.7175959;-5;-1;-12;568;4044;-40;128;0.0166205;0.1523546;0.6385041;0.7542044;0;-14;1;-654;3686;814;4;-0.5817174;0.200831;-0.4847645;-0.6215103;-3;-10;14;1982;3430;710;16;0.7492832;-0.6274238;0.002770083;-0.2119114;-7;2;0;1627;4013;-420;2;0.5609418;-0.73487;-0.301939;-0.232687;19;-55;-7;824;3878;-622;8;0.3725762;-0.7582429;0.3905817;0.365651;-8;-47;4;1417;3779;1417;1.075855;2.533659;0.9905599;1.081828;3.077916;0.9535373;1.087076;3.55618;0.9189764;1.257165;4.268939;0.9577846;1.081601;4.647741;0.9369506;0.7163395;4.587512;0.9925902;0.06745087;5.13853;0.6270058;0.9719434;4.856247;0.6296108;1.587734;4.526965;0.9369497;1.835486;4.320452;0.9925892;2.262768;3.581179;1.438887;1.566704;3.033608;1.775709;0.763596;2.491166;0.9860107;0.3465096;1.264191;0.3067237;0;0;0;0.763596;2.491166;0.9860107;0.3465096;1.264191;0.3067237;0;0;0
1104141.6766;NotLabelled;NONE;16384;0.8122923;0.4196676;0.3891967;0.1121884;2;-10;-12;2052;-2194;2400;65536;-0.6080332;-0.1939058;0.6576279;0.400277;7;7;12;2772;1091;-2403;8192;0.5318559;-0.7036884;-0.4709141;-0.01385042;-2;25;8;2700;3186;196;32768;0.5124654;-0.7390648;0.3808864;-0.2146814;21;6;-13;3247;2583;385;256;-0.05401662;-0.09695291;-0.6883656;-0.7168229;-4;-21;-16;540;3924;-242;128;0.01108033;0.1551246;0.6357341;0.7560792;-8;-19;0;-688;3900;1196;4;-0.5803324;0.1966759;-0.4847645;-0.6241284;-5;-26;1;1608;3236;682;16;0.7481148;-0.6288089;0.004155125;-0.2119114;-1;-11;0;1219;4011;-184;2;0.5595568;-0.7410011;-0.2936288;-0.2271468;5;-19;7;810;4626;-488;8;0.365651;-0.7566727;0.3975069;0.368421;-6;-19;0;1021;3877;2645;1.080836;2.530223;0.9935732;1.086809;3.074485;0.9566329;1.092057;3.552754;0.9221444;1.253786;4.267572;0.9587741;1.07377;4.644224;0.9369661;0.7092782;4.57987;0.9930317;0.05962937;5.1313;0.6294252;0.9643701;4.849802;0.6293318;1.581287;4.529401;0.9369653;1.831485;4.325975;0.9930305;2.261557;3.588463;1.439562;1.567982;3.037188;1.775473;0.7685773;2.48773;0.989017;0.3467196;1.264191;0.3064866;0;0;0;0.7685773;2.48773;0.989017;0.3467196;1.264191;0.3064866;0;0;0
1104162.8771;NotLabelled;NONE;16384;0.8106872;0.4182825;0.3919668;0.1191136;8;-16;-13;2348;-2410;2828;65536;-0.6080332;-0.1980609;0.6580697;0.3975069;15;8;8;3082;1031;-2807;8192;0.533241;-0.6988341;-0.4764543;-0.0166205;-7;25;1;2038;3272;460;32768;0.5193906;-0.7356448;0.3781163;-0.2146814;24;-1;-12;3385;2201;203;256;-0.04847645;-0.09695291;-0.6883656;-0.7172189;-2;-24;-18;622;3932;-410;128;0.008310249;0.1578947;0.632964;0.7578633;-11;-33;0;-880;3968;1260;4;-0.5761772;0.1925208;-0.4875346;-0.6271089;-8;-39;-1;1894;3416;784;16;0.747331;-0.6301939;0.005540166;-0.2105263;1;-12;0;1355;3887;-176;2;0.5595568;-0.7429351;-0.2908587;-0.2243767;4;-34;10;858;4300;-628;8;0.3642659;-0.7545236;0.400277;0.3711911;-3;-22;0;1193;3851;2251;1.079217;2.526056;1.001664;1.085193;3.070578;0.9687729;1.090443;3.549091;0.9378429;1.245041;4.265572;0.9727274;1.061261;4.640355;0.9501391;0.6974584;4.572494;1.006546;0.04630184;5.122777;0.6438987;0.9529038;4.847352;0.6470662;1.5699;4.530607;0.9501385;1.822145;4.329822;1.006545;2.255893;3.596783;1.456869;1.562878;3.033967;1.774289;0.7669582;2.483599;0.9967661;0.347723;1.264217;0.3052408;0;0;0;0.7669582;2.483599;0.9967661;0.347723;1.264217;0.3052408;0;0;0
1104184.0253;NotLabelled;NONE;16384;0.8100658;0.4182825;0.3919668;0.1232687;3;-17;-11;2498;-2608;3044;65536;-0.6080332;-0.200831;0.6580653;0.3961219;10;8;6;3300;1069;-2885;8192;0.534626;-0.696793;-0.4778393;-0.01800554;-12;15;-4;1868;3470;538;32768;0.5235457;-0.7326936;0.3781163;-0.2146814;18;-10;-10;3395;2197;349;256;-0.04293629;-0.09833795;-0.6869806;-0.7187098;4;-20;-17;776;4028;-642;128;0.004155125;0.1620499;0.6301939;0.7593275;-9;-32;1;-1114;4152;1056;4;-0.5692521;0.1855956;-0.4916897;-0.6322559;-10;-42;-1;2560;3404;364;16;0.7492447;-0.6288089;0.008310249;-0.2077562;2;-19;0;1593;4037;-688;2;0.5595568;-0.745254;-0.2880886;-0.2202216;4;-33;11;994;3920;-858;8;0.3628809;-0.7537719;0.4016621;0.3725762;-2;-23;-1;1369;3535;1907;1.077916;2.526624;1.000511;1.083894;3.071374;0.9716436;1.089147;3.550101;0.944249;1.237944;4.267771;0.9799249;1.051146;4.641081;0.9576905;0.6878914;4.570224;1.013943;0.0319427;5.111571;0.6465147;0.940798;4.844053;0.6610996;1.560655;4.535445;0.9576894;1.814502;4.336646;1.013941;2.247571;3.603975;1.465515;1.552232;3.033698;1.763968;0.7656572;2.484203;0.995275;0.3469042;1.264907;0.3033062;0;0;0;0.7656572;2.484203;0.995275;0.3469042;1.264907;0.3033062;0;0;0
1104204.7097;NotLabelled;NONE;16384;0.8089224;0.4196676;0.3919668;0.1260388;-5;-15;-9;2576;-2526;3036;65536;-0.6080332;-0.2036011;0.6572136;0.3961219;2;13;7;3478;1087;-2867;8192;0.5387812;-0.6935477;-0.4778393;-0.01939058;-16;4;-8;1992;3548;614;32768;0.5249307;-0.7313899;0.3795014;-0.2132964;8;-19;-9;3423;2225;535;256;-0.03739612;-0.09833795;-0.6855956;-0.7203401;2;-5;-13;752;4174;-410;128;-0.001385042;0.166205;0.6288089;0.7595876;-3;-21;2;-814;4042;668;4;-0.5650969;0.1800554;-0.4930748;-0.6364926;-10;-36;2;2822;3120;114;16;0.7499716;-0.6288089;0.01108033;-0.2049861;0;-19;-1;1419;3943;-856;2;0.5595568;-0.7475325;-0.2853186;-0.2160665;6;-33;9;1022;3696;-1084;8;0.3614958;-0.7522689;0.4044321;0.3739612;-1;-25;-1;1581;3423;1497;1.073405;2.525123;1.010581;1.079385;3.07007;0.9857107;1.08464;3.548985;0.9618293;1.228813;4.267402;1.001269;1.039713;4.639627;0.9803651;0.6767818;4.566212;1.035415;0.02676211;5.101294;0.6487738;0.9367597;4.838697;0.6760677;1.549878;4.53721;0.9810742;1.804843;4.339749;1.036984;2.228514;3.609322;1.50094;1.528703;3.03618;1.783004;0.7611466;2.482742;1.005008;0.3431255;1.263852;0.3118816;0;0;0;0.7611466;2.482742;1.005008;0.3431255;1.263852;0.3118816;0;0;0
1104225.7636;NotLabelled;NONE;16384;0.8079851;0.4210526;0.3919668;0.1274238;-11;-12;-8;2486;-2394;2996;65536;-0.6080332;-0.2049861;0.6559455;0.3975069;-4;16;10;3442;1075;-2975;8192;0.5415512;-0.6923421;-0.4764543;-0.01939058;-19;-4;-10;2296;3608;580;32768;0.5263157;-0.7297527;0.3822715;-0.2105263;0;-22;-8;3403;2441;593;256;-0.03462604;-0.09695291;-0.6842105;-0.7219815;1;-2;-11;532;4258;-406;128;-0.004155125;0.16759;0.6288089;0.7592732;0;-12;1;-810;3974;804;4;-0.5637119;0.1772853;-0.4930748;-0.6384952;-5;-19;4;2892;2992;-158;16;0.7507014;-0.6288089;0.01246537;-0.2022161;0;-15;-1;1235;3905;-1040;2;0.5595568;-0.7497707;-0.2825485;-0.2119114;6;-27;5;1044;3704;-914;8;0.3601108;-0.7507474;0.4072022;0.3753462;0;-18;0;1463;3483;1287;1.07173;2.522124;1.018076;1.077711;3.067154;0.9951183;1.082967;3.546151;0.9729176;1.221214;4.265546;1.015599;1.02903;4.636287;0.9964985;0.6667469;4.559619;1.051379;0.01302824;5.096646;0.6737788;0.9239162;4.837881;0.7072574;1.540025;4.538092;0.9964976;1.796643;4.342492;1.051378;2.22545;3.605193;1.499474;1.523999;3.030992;1.775239;0.7594724;2.479763;1.012343;0.3419619;1.263616;0.3141096;0;0;0;0.7594724;2.479763;1.012343;0.3419619;1.263616;0.3141096;0;0;0
1104245.9405;NotLabelled;NONE;16384;0.8063678;0.4224377;0.3933518;0.1288089;-17;-7;-9;2392;-2134;2846;65536;-0.6094183;-0.2063712;0.6533801;0.398892;-9;18;13;3196;933;-2789;8192;0.5457063;-0.6900274;-0.4750692;-0.01939058;-21;-8;-11;2582;3478;480;32768;0.5277008;-0.7288188;0.3836565;-0.2077562;-6;-22;-6;3415;2641;593;256;-0.033241;-0.09556787;-0.6842105;-0.7222311;1;0;-11;456;4090;-366;128;-0.005540166;0.1689751;0.6274238;0.7601026;-1;-7;2;-786;3880;954;4;-0.5637119;0.1745152;-0.4916897;-0.6403238;1;5;3;2794;3092;92;16;0.7525748;-0.6274238;0.01385042;-0.199446;-1;-13;-1;1137;3965;-958;2;0.5567867;-0.7526054;-0.2825485;-0.2091413;2;5;1;1534;3818;-1094;8;0.3587258;-0.7499025;0.4099723;0.3753462;2;1;1;1445;3435;1661;1.069531;2.520279;1.022526;1.075513;3.065307;0.9994875;1.080769;3.5443;0.9772158;1.214553;4.264349;1.022978;1.020106;4.633976;1.005256;0.6582595;4.554855;1.059532;0.004434466;5.092223;0.6825994;0.9155607;4.834285;0.7159805;1.531696;4.538927;1.005255;1.78947;4.344684;1.059531;2.219011;3.604976;1.502931;1.517747;3.029602;1.776719;0.7572738;2.477917;1.016799;0.3394311;1.26418;0.3145832;0;0;0;0.7572738;2.477917;1.016799;0.3394311;1.26418;0.3145832;0;0;0
1104266.8325;NotLabelled;NONE;16384;0.8028165;0.4265928;0.3961219;0.1288089;-23;-3;-13;2248;-2282;2546;65536;-0.6121883;-0.2091413;0.6464673;0.4044321;-19;14;16;3020;1085;-2497;8192;0.5484765;-0.6888198;-0.4736842;-0.01800554;-19;-8;-9;2806;3412;348;32768;0.5277008;-0.7281394;0.3864266;-0.2049861;-7;-21;-8;3339;2703;511;256;-0.03185596;-0.09418282;-0.6842105;-0.7224755;2;0;-11;430;4036;-368;128;-0.005540166;0.16759;0.6274238;0.7604092;-1;1;4;-694;3928;1006;4;-0.5650969;0.1759003;-0.4916897;-0.6387219;3;9;-5;2482;3120;412;16;0.7529405;-0.6274238;0.01385042;-0.1980609;0;-12;0;995;3991;-490;2;0.5567867;-0.752084;-0.2839335;-0.2091413;0;12;-3;1198;3866;-946;8;0.3601108;-0.7499306;0.4099723;0.3739612;3;6;1;1447;3473;1833;1.067354;2.515446;1.034376;1.073336;3.060552;1.013285;1.078593;3.539623;0.992725;1.209507;4.260186;1.038674;1.013616;4.629046;1.02088;0.6520492;4.548491;1.074915;-0.004117988;5.083994;0.6994018;0.9078344;4.828412;0.7279933;1.525576;4.536016;1.021192;1.78408;4.342783;1.075604;2.216486;3.601549;1.513636;1.516946;3.023731;1.786687;0.7550962;2.473105;1.028486;0.3362922;1.263894;0.3190702;0;0;0;0.7550962;2.473105;1.028486;0.3362922;1.263894;0.3190702;0;0;0
1104287.664;NotLabelled;NONE;16384;0.8006523;0.4293629;0.3975069;0.1288089;-25;-3;-15;2276;-2326;2478;65536;-0.6135734;-0.2091413;0.6434081;0.4072022;-20;13;18;3064;1163;-2565;8192;0.5540166;-0.6863478;-0.4709141;-0.01523546;-18;-4;-8;2872;3196;344;32768;0.5290859;-0.7275754;0.3891967;-0.1980609;-6;-21;-10;3343;2649;657;256;-0.02908587;-0.09279778;-0.6842105;-0.7227715;3;-2;-12;474;4022;-368;128;-0.005540166;0.16759;0.6260388;0.7615499;-4;4;5;-478;3884;998;4;-0.566482;0.1800554;-0.4916897;-0.6363328;0;22;-10;2350;3462;560;16;0.7532767;-0.6274238;0.01523546;-0.1966759;3;3;2;1389;3967;-274;2;0.5554016;-0.7521974;-0.2853186;-0.2105263;0;13;-3;1050;4016;-974;8;0.3601108;-0.7506862;0.4085872;0.3739612;3;9;0;1365;3725;1927;1.06615;2.516809;1.032204;1.072132;3.061914;1.011068;1.077389;3.540982;0.9904688;1.205489;4.26205;1.03644;1.008134;4.630138;1.018811;0.6469198;4.548151;1.073046;-0.01319433;5.087735;0.7105163;0.8998739;4.834888;0.7236266;1.520457;4.539126;1.018811;1.779753;4.346907;1.073046;2.216168;3.603007;1.5025;1.51794;3.02493;1.778347;0.7538928;2.474468;1.026317;0.3342115;1.264564;0.318604;0;0;0;0.7538928;2.474468;1.026317;0.3342115;1.264564;0.318604;0;0;0
1104307.8164;NotLabelled;NONE;16384;0.797025;0.433518;0.400277;0.1288089;-26;-4;-16;2354;-2468;2414;65536;-0.6149584;-0.2091413;0.6403193;0.4099723;-19;14;18;3214;1177;-2555;8192;0.5567867;-0.6841026;-0.4709141;-0.01523546;-17;-4;-8;2870;3152;296;32768;0.5290859;-0.7272075;0.3919668;-0.1939058;-4;-19;-9;3299;2657;567;256;-0.02770083;-0.09141274;-0.6828254;-0.7243106;5;-2;-13;508;4168;-476;128;-0.005540166;0.166205;0.6260388;0.7618535;-5;3;5;-580;4090;926;4;-0.567867;0.1828255;-0.4916897;-0.6343052;-1;17;-7;2104;3474;444;16;0.7529137;-0.6274238;0.01523546;-0.1980609;3;8;2;1529;3935;-380;2;0.5554016;-0.7512814;-0.2867036;-0.2119114;0;13;-1;942;4108;-888;8;0.3614958;-0.7514613;0.4072022;0.3725762;4;9;0;1247;3575;1973;1.060732;2.520837;1.028908;1.066714;3.066015;1.00974;1.071972;3.545154;0.9908708;1.195762;4.266961;1.037046;0.996215;4.633868;1.019508;0.6354939;4.549713;1.073703;-0.02592529;5.091366;0.7166813;0.8870745;4.838037;0.7239013;1.509072;4.545918;1.019507;1.769508;4.355234;1.073702;2.212376;3.609201;1.492721;1.519366;3.025746;1.770399;0.7484742;2.478517;1.022856;0.3341335;1.26445;0.3191367;0;0;0;0.7484742;2.478517;1.022856;0.3341335;1.26445;0.3191367;0;0;0
1104328.6892;NotLabelled;NONE;16384;0.7948136;0.4362881;0.4016621;0.1288089;-26;-8;-15;2444;-2438;2302;65536;-0.6163435;-0.2105263;0.6367441;0.4127424;-18;18;19;3294;1123;-2569;8192;0.5581717;-0.6839554;-0.4695291;-0.01385042;-16;0;-8;2900;3238;250;32768;0.5304709;-0.7261833;0.3933518;-0.1911357;-2;-18;-9;3313;2571;595;256;-0.02216066;-0.0900277;-0.6814404;-0.7259772;3;-3;-12;540;4010;-346;128;-0.005540166;0.1634349;0.6260388;0.7624525;0;4;4;-776;4040;764;4;-0.5692521;0.1842105;-0.4916897;-0.6326609;-1;17;-5;2088;3286;370;16;0.752548;-0.6274238;0.01523546;-0.199446;1;7;2;1597;3949;-628;2;0.5554016;-0.750359;-0.2880886;-0.2132964;-1;12;0;464;3920;-888;8;0.3628809;-0.751543;0.4058172;0.3725762;3;9;0;1209;3605;1747;1.061063;2.522583;1.02614;1.067046;3.067759;1.006928;1.072304;3.546897;0.9880193;1.193086;4.269023;1.037096;0.9920381;4.63517;1.020858;0.631632;4.549316;1.074483;-0.03294098;5.093563;0.7273991;0.8799686;4.839805;0.7272339;1.505254;4.549334;1.020857;1.766438;4.359516;1.074481;2.212121;3.612202;1.4882;1.521836;3.027069;1.769115;0.7488061;2.480263;1.020093;0.3363872;1.26378;0.3194224;0;0;0;0.7488061;2.480263;1.020093;0.3363872;1.26378;0.3194224;0;0;0
1104349.8165;NotLabelled;NONE;16384;0.7915885;0.4404432;0.4030471;0.1301939;-24;-8;-13;2532;-2428;2294;65536;-0.6177285;-0.2119114;0.6331307;0.4155124;-16;22;18;3328;975;-2431;8192;0.5595568;-0.6828227;-0.4695291;-0.01385042;-13;3;-5;2808;3176;224;32768;0.5304709;-0.7269067;0.3933518;-0.1883656;0;-13;-10;3221;2657;679;256;-0.02077562;-0.08864266;-0.6814404;-0.7261885;4;-1;-13;490;3956;-358;128;-0.005540166;0.1620499;0.6260388;0.7627481;1;3;4;-786;3836;778;4;-0.5706371;0.1855956;-0.4916897;-0.6310062;0;11;-4;2098;3180;214;16;0.7521796;-0.6274238;0.01523546;-0.200831;1;6;2;1247;3989;-856;2;0.5554016;-0.7499639;-0.2880886;-0.2146814;-1;5;0;176;3792;-820;8;0.3628809;-0.751543;0.4058172;0.3725762;2;2;0;1267;3631;1645;1.05784;2.522592;1.029294;1.063823;3.067765;1.009994;1.069081;3.546899;0.9910073;1.18244;4.270009;1.04322;0.9776694;4.634147;1.028388;0.6181244;4.544387;1.081394;-0.04611935;5.090609;0.7367917;0.8672312;4.838453;0.7344352;1.491736;4.553563;1.028387;1.754812;4.366199;1.081393;2.199956;3.618509;1.495013;1.509871;3.030941;1.771299;0.745583;2.480271;1.023254;0.3368214;1.263105;0.3216262;0;0;0;0.745583;2.480271;1.023254;0.3368214;1.263105;0.3216262;0;0;0
1104369.6933;NotLabelled;NONE;16384;0.7860413;0.4473684;0.4058172;0.1315789;-22;-6;-6;2760;-2344;2290;65536;-0.6191136;-0.2160665;0.6266804;0.4210526;-14;23;13;3398;803;-2259;8192;0.5609418;-0.6817121;-0.4695291;-0.01246537;-13;2;-3;2602;3098;212;32768;0.5318559;-0.7262519;0.3933518;-0.1869806;2;-8;-10;3253;2601;723;256;-0.01939058;-0.08725762;-0.6800554;-0.7276914;3;-1;-12;410;3942;-266;128;-0.006925208;0.1606648;0.6260388;0.7630297;0;1;4;-570;3786;834;4;-0.5706371;0.1869806;-0.4916897;-0.6305971;1;5;-2;2074;3220;332;16;0.7533594;-0.6260388;0.01385042;-0.200831;0;3;1;1353;3877;-996;2;0.5554016;-0.7499639;-0.2880886;-0.2146814;1;-1;0;702;3854;-1038;8;0.3628809;-0.751543;0.4058172;0.3725762;0;0;1;1381;3501;1685;1.060784;2.522592;1.027957;1.066767;3.067762;1.008614;1.072024;3.546896;0.9895892;1.182535;4.270441;1.041859;0.9763338;4.633772;1.027051;0.6171442;4.542594;1.080046;-0.04979565;5.090942;0.7441382;0.8639633;4.840463;0.7340609;1.490713;4.555212;1.027051;1.754524;4.368881;1.080046;2.201318;3.620574;1.490761;1.514608;3.030214;1.769493;0.7485267;2.48027;1.021921;0.3391823;1.262426;0.3218118;0;0;0;0.7485267;2.48027;1.021921;0.3391823;1.262426;0.3218118;0;0;0
1104390.6616;NotLabelled;NONE;16384;0.7837402;0.4501385;0.4072022;0.1315789;-21;-3;-3;2580;-2292;2258;65536;-0.6191136;-0.2188366;0.6238456;0.4238227;-14;23;12;3416;761;-2309;8192;0.5637119;-0.6794473;-0.4695291;-0.01108033;-10;-3;-2;2468;3068;380;32768;0.533241;-0.7259442;0.3933518;-0.1842105;0;-1;-8;3229;2363;657;256;-0.01800554;-0.08587258;-0.6800554;-0.7278917;2;2;-11;396;3912;-404;128;-0.006925208;0.1606648;0.6260388;0.7630297;-1;0;4;-606;3824;850;4;-0.5692521;0.1855956;-0.4930748;-0.6311764;-2;-15;1;2106;3448;658;16;0.7533327;-0.6260388;0.01523546;-0.200831;-2;-1;0;1481;3847;-758;2;0.5554016;-0.7499639;-0.2880886;-0.2146814;0;-2;0;910;3750;-920;8;0.3628809;-0.752228;0.4058172;0.3711911;0;0;1;1409;3511;1667;1.054503;2.52425;1.030708;1.060485;3.069418;1.01125;1.065743;3.548547;0.9921244;1.173235;4.272335;1.047242;0.9655432;4.634867;1.033711;0.606703;4.542003;1.086144;-0.06446817;5.094207;0.7653187;0.8501514;4.84766;0.7433575;1.480242;4.558431;1.03371;1.744791;4.372988;1.086143;2.194916;3.6253;1.494343;1.509454;3.03266;1.771303;0.7422454;2.481927;1.024681;0.3351615;1.262359;0.3262576;0;0;0;0.7422454;2.481927;1.024681;0.3351615;1.262359;0.3262576;0;0;0
1104410.7281;NotLabelled;NONE;16384;0.7829431;0.4515235;0.4072022;0.1315789;-21;-2;-3;2604;-2390;2396;65536;0.6228423;0.2202216;-0.6177285;-0.4265928;-16;21;11;3496;791;-2149;8192;0.5650969;-0.6782958;-0.4695291;-0.01108033;-9;-3;-2;2502;3042;314;32768;0.533241;-0.7266929;0.3919668;-0.1842105;0;-2;-6;3095;2299;601;256;-0.0166205;-0.08448754;-0.6800554;-0.7280867;3;2;-10;338;3976;-356;128;-0.008310249;0.1606648;0.6260388;0.7630159;-1;1;4;-742;3918;920;4;-0.567867;0.1842105;-0.4930748;-0.6328276;-6;-19;4;2174;3428;702;16;0.7533327;-0.6260388;0.01523546;-0.200831;-4;-2;0;1577;3873;-578;2;0.5554016;-0.750359;-0.2880886;-0.2132964;0;0;-1;926;3880;-880;8;0.3628809;-0.752228;0.4058172;0.3711911;1;0;1;1391;3457;1803;1.060264;2.523782;1.028559;1.066246;3.068949;1.009101;1.071504;3.548079;0.989976;1.176147;4.272282;1.045138;0.9670311;4.633993;1.031628;0.6085586;4.539716;1.084052;-0.06430531;5.0937;0.769911;0.850794;4.849391;0.7433968;1.482027;4.559584;1.031627;1.747302;4.375179;1.084051;2.20247;3.627543;1.486713;1.520011;3.031242;1.763232;0.7480064;2.481459;1.022532;0.3380176;1.261565;0.3263821;0;0;0;0.7480064;2.481459;1.022532;0.3380176;1.261565;0.3263821;0;0;0
1104431.6764;NotLabelled;NONE;16384;0.7806156;0.4542936;0.4085872;0.1315789;-20;-1;-2;2760;-2492;2386;65536;0.6222322;0.2216066;-0.6149584;-0.4307479;-19;21;10;3478;903;-2227;8192;0.566482;-0.6781189;-0.468144;-0.009695291;-8;-3;-2;2490;3124;354;32768;0.533241;-0.7270426;0.3919668;-0.1828255;0;-5;-7;3165;2427;561;256;-0.01523546;-0.08033241;-0.6800554;-0.7285872;2;7;-6;436;4020;-370;128;-0.008310249;0.1592798;0.6260388;0.7633062;0;2;3;-704;3996;814;4;-0.566482;0.1814404;-0.4944598;-0.6337878;-11;-27;5;2202;3404;716;16;0.7533035;-0.6260388;0.0166205;-0.200831;-7;-2;-2;1719;3899;-596;2;0.5554016;-0.7508893;-0.2867036;-0.2132964;1;0;-1;956;3796;-1074;8;0.3628809;-0.752228;0.4058172;0.3711911;1;0;1;1453;3507;1825;1.059963;2.523112;1.029878;1.065946;3.068276;1.010345;1.071203;3.547403;0.9911541;1.172998;4.272009;1.046355;0.9624608;4.632896;1.032866;0.6043624;4.537207;1.085289;-0.06858436;5.09258;0.7737879;0.8473115;4.853122;0.7338858;1.477746;4.560512;1.032856;1.743745;4.37715;1.085268;2.200633;3.628886;1.484804;1.519355;3.031346;1.761558;0.7477058;2.480788;1.023858;0.3380751;1.261565;0.3263222;0;0;0;0.7477058;2.480788;1.023858;0.3380751;1.261565;0.3263222;0;0;0
1104451.6777;NotLabelled;NONE;16384;0.7792296;0.4570637;0.4085872;0.1301939;-20;9;-2;2990;-2554;2534;65536;0.622545;0.2229917;-0.6121883;-0.433518;-24;20;8;3496;879;-2235;8192;0.567867;-0.6769595;-0.468144;-0.009695291;-8;-7;-2;2628;3174;528;32768;0.533241;-0.7270426;0.3919668;-0.1828255;-2;-2;-5;3355;2577;711;256;-0.01523546;-0.07894737;-0.6800554;-0.7287385;-1;12;-4;456;4164;-400;128;-0.008310249;0.1578947;0.6260388;0.7635939;-1;2;2;-740;4036;692;4;-0.5637119;0.1772853;-0.4958449;-0.6363463;-15;-20;7;2414;3214;604;16;0.7525187;-0.6274238;0.0166205;-0.199446;-9;-1;-3;1573;3909;-702;2;0.5554016;-0.7508893;-0.2867036;-0.2132964;0;1;-1;900;3880;-880;8;0.3628809;-0.752228;0.4058172;0.3711911;0;-2;1;1341;3517;1731;1.072092;2.52093;1.0263;1.078074;3.066093;1.006725;1.083332;3.545218;0.9874977;1.179526;4.270587;1.042707;0.9662073;4.629838;1.029218;0.6088578;4.531385;1.081633;-0.06692037;5.088439;0.7794027;0.8482032;4.847759;0.7302294;1.482036;4.561436;1.029217;1.749442;4.380133;1.081632;2.209796;3.631584;1.476628;1.53138;3.032662;1.757395;0.7598343;2.478605;1.020283;0.3422597;1.260766;0.3250431;0;0;0;0.7598343;2.478605;1.020283;0.3422597;1.260766;0.3250431;0;0;0
1104471.8546;NotLabelled;NONE;16384;0.7783712;0.4584487;0.4099723;0.1260388;-29;12;6;2944;-2398;2628;65536;0.6237087;0.2229917;-0.6080332;-0.4376731;-33;18;3;3964;465;-2275;8192;0.5692521;-0.6767867;-0.466759;-0.006925208;-9;-13;-1;2648;3242;504;32768;0.533241;-0.7273895;0.3919668;-0.1814404;-5;4;-1;3369;2749;553;256;-0.0166205;-0.07617728;-0.6800554;-0.7290031;-8;24;-1;426;4168;-510;128;-0.008310249;0.1578947;0.6274238;0.7624562;3;1;2;-814;3988;682;4;-0.5650969;0.1759003;-0.4958449;-0.6355017;-4;16;8;2466;3184;-104;16;0.7513618;-0.6288089;0.0166205;-0.199446;-9;2;-3;989;3959;-800;2;0.5554016;-0.7504945;-0.2867036;-0.2146814;0;0;-1;884;3984;-904;8;0.3628809;-0.752228;0.4058172;0.3711911;1;1;1;1461;3557;1787;1.077605;2.520432;1.020723;1.083587;3.065593;1.001107;1.088845;3.544717;0.9818436;1.183664;4.270268;1.03704;0.9696652;4.629114;1.023545;0.6125029;4.529984;1.075962;-0.06280055;5.090923;0.7799184;0.852123;4.851055;0.7235651;1.485622;4.561689;1.023543;1.753372;4.380895;1.07596;2.216091;3.63179;1.467124;1.53825;3.032868;1.749279;0.7653474;2.478107;1.014709;0.34175;1.262312;0.3195353;0;0;0;0.7653474;2.478107;1.014709;0.34175;1.262312;0.3195353;0;0;0
1104492.6747;NotLabelled;NONE;16384;0.7746074;0.4709141;0.4058172;0.1163435;-60;-5;36;2862;-2348;2596;65536;0.6238378;0.2174515;-0.599723;-0.4515235;-57;33;2;4294;415;-2637;8192;0.5706371;-0.6775473;-0.4639889;-0.004155125;-7;-10;0;2368;3382;348;32768;0.5318559;-0.7288004;0.3905817;-0.1828255;-4;10;-1;3273;2573;599;256;-0.02077562;-0.0734072;-0.6814404;-0.7278865;-12;49;0;412;4056;-714;128;-0.008310249;0.1578947;0.6274238;0.7624562;6;-1;1;-712;4022;942;4;-0.567867;0.1759003;-0.4930748;-0.6351877;4;7;6;2194;3304;-106;16;0.7502005;-0.6301939;0.0166205;-0.199446;-7;8;-1;1101;3967;-472;2;0.5554016;-0.7504945;-0.2867036;-0.2146814;0;3;0;954;3790;-1086;8;0.3642659;-0.7522408;0.4058172;0.3698061;1;6;1;1437;3543;1721;1.089638;2.518504;1.013234;1.09562;3.063591;0.9916553;1.100877;3.542643;0.9706663;1.194423;4.268365;1.025784;0.9797948;4.626833;1.012254;0.6228079;4.527082;1.064687;-0.05281702;5.092114;0.7772875;0.8608117;4.851366;0.705737;1.49587;4.560314;1.012253;1.763937;4.379995;1.064686;2.232604;3.63179;1.450452;1.558159;3.031488;1.737764;0.7773806;2.476157;1.007385;0.3447606;1.26316;0.3128821;0;0;0;0.7773806;2.476157;1.007385;0.3447606;1.26316;0.3128821;0;0;0
