SEP=;
index;label;segment;RightUpperArm_boneIndex;RightUpperArm_quat9x_w;RightUpperArm_quat9x_x;RightUpperArm_quat9x_y;RightUpperArm_quat9x_z;RightUpperArm_gyroscope_x;RightUpperArm_gyroscope_y;RightUpperArm_gyroscope_z;RightUpperArm_accelerometer_x;RightUpperArm_accelerometer_y;RightUpperArm_accelerometer_z;RightLowerArm_boneIndex;RightLowerArm_quat9x_w;RightLowerArm_quat9x_x;RightLowerArm_quat9x_y;RightLowerArm_quat9x_z;RightLowerArm_gyroscope_x;RightLowerArm_gyroscope_y;RightLowerArm_gyroscope_z;RightLowerArm_accelerometer_x;RightLowerArm_accelerometer_y;RightLowerArm_accelerometer_z;LeftUpperArm_boneIndex;LeftUpperArm_quat9x_w;LeftUpperArm_quat9x_x;LeftUpperArm_quat9x_y;LeftUpperArm_quat9x_z;LeftUpperArm_gyroscope_x;LeftUpperArm_gyroscope_y;LeftUpperArm_gyroscope_z;LeftUpperArm_accelerometer_x;LeftUpperArm_accelerometer_y;LeftUpperArm_accelerometer_z;LeftLowerArm_boneIndex;LeftLowerArm_quat9x_w;LeftLowerArm_quat9x_x;LeftLowerArm_quat9x_y;LeftLowerArm_quat9x_z;LeftLowerArm_gyroscope_x;LeftLowerArm_gyroscope_y;LeftLowerArm_gyroscope_z;LeftLowerArm_accelerometer_x;LeftLowerArm_accelerometer_y;LeftLowerArm_accelerometer_z;Chest_boneIndex;Chest_quat9x_w;Chest_quat9x_x;Chest_quat9x_y;Chest_quat9x_z;Chest_gyroscope_x;Chest_gyroscope_y;Chest_gyroscope_z;Chest_accelerometer_x;Chest_accelerometer_y;Chest_accelerometer_z;Spine_boneIndex;Spine_quat9x_w;Spine_quat9x_x;Spine_quat9x_y;Spine_quat9x_z;Spine_gyroscope_x;Spine_gyroscope_y;Spine_gyroscope_z;Spine_accelerometer_x;Spine_accelerometer_y;Spine_accelerometer_z;RightUpperLeg_boneIndex;RightUpperLeg_quat9x_w;RightUpperLeg_quat9x_x;RightUpperLeg_quat9x_y;RightUpperLeg_quat9x_z;RightUpperLeg_gyroscope_x;RightUpperLeg_gyroscope_y;RightUpperLeg_gyroscope_z;RightUpperLeg_accelerometer_x;RightUpperLeg_accelerometer_y;RightUpperLeg_accelerometer_z;RightLowerLeg_boneIndex;RightLowerLeg_quat9x_w;RightLowerLeg_quat9x_x;RightLowerLeg_quat9x_y;RightLowerLeg_quat9x_z;RightLowerLeg_gyroscope_x;RightLowerLeg_gyroscope_y;RightLowerLeg_gyroscope_z;RightLowerLeg_accelerometer_x;RightLowerLeg_accelerometer_y;RightLowerLeg_accelerometer_z;LeftUpperLeg_boneIndex;LeftUpperLeg_quat9x_w;LeftUpperLeg_quat9x_x;LeftUpperLeg_quat9x_y;LeftUpperLeg_quat9x_z;LeftUpperLeg_gyroscope_x;LeftUpperLeg_gyroscope_y;LeftUpperLeg_gyroscope_z;LeftUpperLeg_accelerometer_x;LeftUpperLeg_accelerometer_y;LeftUpperLeg_accelerometer_z;LeftLowerLeg_boneIndex;LeftLowerLeg_quat9x_w;LeftLowerLeg_quat9x_x;LeftLowerLeg_quat9x_y;LeftLowerLeg_quat9x_z;LeftLowerLeg_gyroscope_x;LeftLowerLeg_gyroscope_y;LeftLowerLeg_gyroscope_z;LeftLowerLeg_accelerometer_x;LeftLowerLeg_accelerometer_y;LeftLowerLeg_accelerometer_z;pelvis_x;pelvis_y;pelvis_z;lowerSpine_x;lowerSpine_y;lowerSpine_z;middleSpine_x;middleSpine_y;middleSpine_z;upperSpine_x;upperSpine_y;upperSpine_z;rightClavicle_x;rightClavicle_y;rightClavicle_z;rightShoulder_x;rightShoulder_y;rightShoulder_z;rightElbow_x;rightElbow_y;rightElbow_z;rightWrist_x;rightWrist_y;rightWrist_z;leftClavicle_x;leftClavicle_y;leftClavicle_z;leftShoulder_x;leftShoulder_y;leftShoulder_z;leftElbow_x;leftElbow_y;leftElbow_z;leftWrist_x;leftWrist_y;leftWrist_z;rightHip_x;rightHip_y;rightHip_z;rightKnee_x;rightKnee_y;rightKnee_z;rightAnkle_x;rightAnkle_y;rightAnkle_z;leftHip_x;leftHip_y;leftHip_z;leftKnee_x;leftKnee_y;leftKnee_z;leftAnkle_x;leftAnkle_y;leftAnkle_z;
1572183.9488;NotLabelled;NONE;16384;0.7375525;-0.599723;0.1939058;-0.2423823;-37;96;-40;558;3628;-766;65536;0.6883656;-0.6941449;-0.1177285;-0.1745152;-42;66;-72;-21;3572;-680;8192;0.5983379;-0.6904707;-0.4058172;0.0235457;-58;-40;90;646;3496;2470;32768;0.764361;-0.6398892;-0.0567867;0.05540166;-9;-38;6;-1032;1706;-976;256;-0.1315789;-0.06094183;-0.9890428;0.02770083;-24;-6;-2;1026;56;3870;128;0.1398892;0.08448754;0.9817805;0.09695291;37;0;3;-84;442;-4308;4;-0.4778393;0.5;-0.4778393;-0.5416079;3;-9;-19;994;4046;-498;16;-0.1689751;-0.9190311;-0.3531856;0.04570637;3;-2;-10;-2481;-1299;2764;2;0.5914127;-0.3642659;-0.3434903;-0.6321042;0;-26;19;-1744;3728;-376;8;-0.1204986;-0.9425266;0.3116343;0.002770083;-7;5;-8;2277;-649;2933;1.24802;1.728521;1.977371;1.247583;1.688679;1.433281;1.247177;1.65164;0.9551742;1.2422;1.60622;0.2227981;0.9786874;1.57637;-0.1003391;0.6472262;1.684866;0.03568086;0.09328011;0.9429071;0.004538417;0;0;0;1.495936;1.519702;-0.1003418;1.790952;1.559563;0.03567594;2.320101;0.7678616;0.1822574;2.423283;-0.1527812;-0.01663327;0.9362177;1.727631;2.023312;1.032641;0.2713685;1.919094;1.316421;0.7270665;3.153653;0.9362177;1.727631;2.023312;1.032641;0.2713685;1.919094;1.316421;0.7270665;3.153653
1572204.7243;NotLabelled;NONE;16384;0.7369059;-0.5969529;0.1869806;-0.2562327;-41;76;-31;-1470;5278;1662;65536;0.6800554;-0.6986021;-0.134349;-0.1772853;-45;100;-47;-1171;4414;448;8192;0.6052631;-0.6849797;-0.400277;0.06509695;-85;-140;69;1410;4420;1412;32768;0.7539818;-0.6509695;-0.03601108;0.08033241;-67;-203;-4;2600;3478;-1842;256;-0.1301939;-0.06232687;-0.9890584;0.03047091;-32;6;-7;288;208;4000;128;0.1385041;0.08448754;0.9825081;0.09141274;45;4;2;-876;940;-4082;4;-0.4764543;0.501385;-0.4792244;-0.5403225;1;0;-18;390;3970;-620;16;-0.1689751;-0.9194924;-0.3518005;0.04709141;3;-2;-11;-2537;-1259;2714;2;0.5914127;-0.367036;-0.3448753;-0.6297433;-1;-13;15;-1538;3524;-156;8;-0.1204986;-0.9425144;0.3116343;0.005540166;-1;1;-7;2343;-687;2927;1.242952;1.740245;1.968965;1.242433;1.692942;1.425473;1.241955;1.649347;0.9479191;1.23603;1.597371;0.2159864;0.9720578;1.565775;-0.1066097;0.6412141;1.676941;0.02875552;0.07546979;0.9444304;-0.01236185;0;0;0;1.489053;1.50684;-0.1066124;1.78438;1.546627;0.0287506;2.337808;0.7694585;0.1629195;2.43805;-0.1514511;-0.03623784;0.9311564;1.739987;2.01496;1.034165;0.2834871;1.92084;1.323625;0.7450712;3.151888;0.9311564;1.739987;2.01496;1.034165;0.2834871;1.92084;1.323625;0.7450712;3.151888
1572225.0023;NotLabelled;NONE;16384;0.7370217;-0.5927978;0.1842105;-0.267313;-44;59;-36;-1524;4494;200;65536;0.6717451;-0.702694;-0.1468144;-0.1828255;-50;78;-34;-979;4476;260;8192;0.6080332;-0.6865029;-0.3878116;0.09279778;-90;-166;60;2426;3898;-34;32768;0.7431597;-0.6606648;-0.01246537;0.1052632;-79;-228;28;2552;4018;-838;256;-0.1288089;-0.06094183;-0.9891398;0.03601108;-38;7;-6;-124;-310;4046;128;0.1371191;0.08448754;0.983322;0.08448754;45;11;7;-730;930;-3862;4;-0.4736842;0.5027701;-0.4806094;-0.5402408;-1;-2;-18;-250;3776;-352;16;-0.1689751;-0.9188151;-0.3531856;0.04986149;4;1;-12;-2845;-1201;2432;2;0.5900277;-0.3711911;-0.3490305;-0.6263084;-2;0;15;-1730;3770;-274;8;-0.1191136;-0.9422223;0.3130194;0.006925208;2;-1;-3;2421;-839;3283;1.232612;1.749574;1.970711;1.232028;1.696342;1.427768;1.231493;1.647539;0.9507186;1.224133;1.5914;0.2191066;0.9595119;1.558521;-0.1028287;0.6291483;1.671157;0.03249457;0.05636918;0.9454442;-0.02746194;0;0;0;1.476382;1.498495;-0.1034248;1.772036;1.53843;0.0311777;2.370956;0.7892352;0.1221504;2.478711;-0.1353979;-0.05456746;0.9208224;1.749818;2.016744;1.026344;0.2930224;1.930319;1.318205;0.755958;3.160293;0.9208224;1.749818;2.016744;1.026344;0.2930224;1.930319;1.318205;0.755958;3.160293
1572245.7832;NotLabelled;NONE;16384;0.7368408;-0.5900277;0.1772853;-0.2783934;-35;87;-33;-1828;3362;76;65536;0.6620498;-0.7079473;-0.1565097;-0.1897507;-56;76;-24;-41;4532;22;8192;0.6094183;-0.6886137;-0.3753462;0.1163435;-76;-141;44;3378;2370;-1826;32768;0.7323924;-0.6703601;0.005540166;0.1191136;-70;-132;33;-706;3948;-48;256;-0.1274238;-0.05955679;-0.9891272;0.04293629;-39;3;0;-76;-772;4552;128;0.1357341;0.08310249;0.9842024;0.07756232;41;14;6;-536;558;-3888;4;-0.4709141;0.5041551;-0.4833795;-0.5388987;0;-17;-21;-378;3816;-236;16;-0.16759;-0.9189926;-0.3531856;0.05124654;7;4;-15;-3235;-1223;2414;2;0.5886427;-0.3725762;-0.3504155;-0.6260158;-3;-1;15;-1844;3676;-338;8;-0.1191136;-0.9426813;0.3116343;0.006925208;0;5;0;2451;-877;3509;1.232518;1.768115;1.957103;1.231853;1.707449;1.41494;1.231245;1.652113;0.938604;1.224102;1.588317;0.2076174;0.9596109;1.550996;-0.1139405;0.6287906;1.66368;0.02022123;0.04707262;0.9453803;-0.04286152;0;0;0;1.476722;1.493089;-0.1139438;1.772213;1.53564;0.02021641;2.390632;0.8012377;0.100759;2.50356;-0.1266922;-0.05409503;0.9207351;1.76899;2.003175;1.032529;0.3122634;1.923752;1.325826;0.7777008;3.152439;0.9207351;1.76899;2.003175;1.032529;0.3122634;1.923752;1.325826;0.7777008;3.152439
1572266.7293;NotLabelled;NONE;16384;0.7346755;-0.5872576;0.1731302;-0.2922437;-37;71;-36;-2894;2596;468;65536;0.6537396;-0.7118831;-0.1648199;-0.1966759;-55;79;-25;395;4162;388;8192;0.6121883;-0.6880953;-0.365651;0.134349;-48;-106;24;4090;1592;-2386;32768;0.7240973;-0.6772853;0.01939058;0.1288089;-49;-130;20;544;4360;340;256;-0.1274238;-0.05955679;-0.9888712;0.04847645;-27;2;2;-8;-960;4530;128;0.1357341;0.08171745;0.9847392;0.07202215;34;10;0;-290;192;-4100;4;-0.466759;0.5041551;-0.4875346;-0.5387705;1;-23;-27;218;4222;6;16;-0.16759;-0.9177643;-0.3559557;0.05401662;13;9;-21;-3445;-1341;2554;2;0.5886427;-0.3725762;-0.3518005;-0.6252385;-4;-4;11;-1732;3486;-278;8;-0.1191136;-0.9435813;0.3088643;0.008310249;-2;16;3;2477;-825;3537;1.234446;1.79139;1.946656;1.233701;1.723486;1.405351;1.233024;1.661792;0.9297973;1.225127;1.588326;0.1997272;0.9603484;1.545597;-0.12092;0.6292214;1.658577;0.0122326;0.04368396;0.944472;-0.06212981;0;0;0;1.477712;1.489983;-0.1209232;1.7732;1.535606;0.01222819;2.405753;0.8117682;0.07712042;2.519771;-0.1198734;-0.05261183;0.9226694;1.79288;1.992758;1.037997;0.3358392;1.925;1.333381;0.7992474;3.153954;0.9226694;1.79288;1.992758;1.037997;0.3358392;1.925;1.333381;0.7992474;3.153954
1572286.694;NotLabelled;NONE;16384;0.7327105;-0.5789474;0.1731302;-0.3130194;-14;20;-44;-2604;2830;-444;65536;0.6371191;-0.72081;-0.1786704;-0.2063712;-40;39;-25;711;3966;1096;8192;0.6108033;-0.6899926;-0.3601108;0.1454294;-21;-58;29;5198;2248;-2572;32768;0.7162929;-0.6828254;0.033241;0.1398892;-29;-110;20;-402;4638;520;256;-0.1288089;-0.05817174;-0.9885617;0.05263158;-13;6;15;400;-962;4764;128;0.1371191;0.07894737;0.985521;0.06094183;23;0;-8;-410;88;-4560;4;-0.4612188;0.5069252;-0.4944598;-0.5346153;-6;0;-36;106;4240;-410;16;-0.166205;-0.9181666;-0.3531856;0.06786703;26;-14;-56;-3005;-2679;2804;2;0.5886427;-0.3739612;-0.3531856;-0.6236287;-5;7;8;-1716;3516;-306;8;-0.1204986;-0.9443079;0.3060942;0.008310249;-5;23;6;2575;-885;3271;1.243809;1.803761;1.933957;1.242999;1.730007;1.393419;1.242266;1.663172;0.918561;1.233626;1.581682;0.1893507;0.9685367;1.535052;-0.130495;0.6374006;1.649009;0.001799941;0.04241931;0.9433502;-0.07802773;0;0;0;1.48598;1.480188;-0.1304981;1.781557;1.527697;0.001794934;2.42426;0.8113469;0.04707098;2.538214;-0.1227421;-0.06374347;0.9320374;1.80575;1.980078;1.050398;0.3484699;1.923652;1.35153;0.8143612;3.150271;0.9320374;1.80575;1.980078;1.050398;0.3484699;1.923652;1.35153;0.8143612;3.150271
1572307.0858;NotLabelled;NONE;16384;0.7302598;-0.5789474;0.1759003;-0.3171745;6;0;-39;-1564;3432;-862;65536;0.6315789;-0.7246336;-0.1828255;-0.2063712;-27;8;-21;-569;4010;1024;8192;0.6108033;-0.6852961;-0.368421;0.1468144;-3;57;12;3888;2744;-1620;32768;0.7116459;-0.6855956;0.05263158;0.1440443;11;-43;47;366;5006;1160;256;-0.1315789;-0.05817174;-0.9880454;0.05540166;-11;4;22;518;-1098;4690;128;0.1385041;0.08033241;0.9853829;0.05817174;15;-3;-13;-924;12;-4498;4;-0.4584487;0.5096953;-0.4986149;-0.530489;-11;-3;-43;-1062;4196;-574;16;-0.166205;-0.9199168;-0.3462604;0.07894737;28;-35;-79;-2707;-3227;2746;2;0.5858725;-0.3739612;-0.3559557;-0.6246615;-4;18;10;-1854;3418;-296;8;-0.1218837;-0.9450237;0.3033241;0.008310249;-6;22;8;2657;-943;3207;1.261987;1.812351;1.908715;1.261048;1.726815;1.369916;1.260201;1.64963;0.8966299;1.251292;1.562275;0.1681026;0.9861313;1.512028;-0.1511352;0.6546497;1.625715;-0.0194748;0.03833109;0.9401492;-0.1115639;0;0;0;1.50379;1.459236;-0.1511383;1.799282;1.508983;-0.01948005;2.448859;0.7985409;0.0204823;2.563859;-0.1371294;-0.07482493;0.9502273;1.815347;1.954856;1.072657;0.3575957;1.926036;1.412204;0.8330117;3.13889;0.9502273;1.815347;1.954856;1.072657;0.3575957;1.926036;1.412204;0.8330117;3.13889
1572327.8552;NotLabelled;NONE;16384;0.7265055;-0.5817174;0.1772853;-0.3199446;31;23;-21;-2434;3930;-392;65536;0.6274238;-0.7290136;-0.1828255;-0.2036011;-15;-21;-11;-1011;3886;1404;8192;0.6121883;-0.6829744;-0.3725762;0.1412742;-19;41;-15;2244;3370;44;32768;0.7128701;-0.6842105;0.06094183;0.1412742;30;-23;40;46;4006;438;256;-0.134349;-0.0567867;-0.9876745;0.0567867;-5;6;25;224;-1084;5076;128;0.1412742;0.08033241;0.9850703;0.0567867;8;2;-17;-1092;-40;-4440;4;-0.4529086;0.5124654;-0.5055401;-0.5260059;-18;-21;-52;-1700;4034;-238;16;-0.1689751;-0.9213473;-0.3379501;0.09141274;30;-52;-91;-1913;-2965;2478;2;0.5844875;-0.3739612;-0.3573407;-0.625168;-1;5;17;-2180;3634;-312;8;-0.1232687;-0.94574;0.300554;0.006925208;-5;22;10;2525;-861;3049;1.264122;1.81757;1.886341;1.263148;1.728714;1.34808;1.262269;1.648614;0.8752781;1.25303;1.557045;0.1472726;0.9877384;1.504669;-0.1715136;0.6562101;1.618754;-0.04031637;0.03256464;0.9387827;-0.124191;0;0;0;1.505454;1.452438;-0.1715168;1.800968;1.503265;-0.0403223;2.460495;0.8016288;-0.008596182;2.558698;-0.1373198;-0.08933628;0.9523656;1.82085;1.932483;1.076801;0.3630118;1.923426;1.452028;0.8482761;3.121779;0.9523656;1.82085;1.932483;1.076801;0.3630118;1.923426;1.452028;0.8482761;3.121779
1572348.6867;NotLabelled;NONE;16384;0.7215855;-0.5858725;0.1786704;-0.3227147;28;10;-9;-3790;4394;948;65536;0.6260388;-0.7316573;-0.1800554;-0.200831;-14;-26;0;-771;4592;182;8192;0.6191136;-0.678871;-0.3711911;0.134349;-29;14;-53;958;3210;8;32768;0.715694;-0.6814404;0.06509695;0.1385041;31;1;18;-234;2090;980;256;-0.1371191;-0.05540166;-0.9873724;0.0567867;5;7;24;-22;-1096;5218;128;0.1440443;0.08033241;0.984748;0.05540166;2;6;-21;-688;-86;-4542;4;-0.4473684;0.5138504;-0.5152354;-0.5199535;-23;-25;-64;-1306;4040;244;16;-0.1731302;-0.9240698;-0.3240997;0.1052632;28;-68;-89;-1439;-2657;2638;2;0.5831025;-0.3781163;-0.3614958;-0.6215628;0;8;18;-1394;3640;-236;8;-0.1232687;-0.9479221;0.2936288;0.005540166;4;14;18;2281;-659;3071;1.263331;1.821901;1.862117;1.262336;1.731282;1.32415;1.261441;1.649633;0.8516128;1.252336;1.556124;0.1238524;0.9871463;1.50199;-0.1947255;0.6552566;1.615266;-0.06374052;0.02793491;0.9373242;-0.1357915;0;0;0;1.505041;1.451559;-0.194728;1.80041;1.503756;-0.0637449;2.45804;0.8001901;-0.03562617;2.540568;-0.1404277;-0.1144619;0.9515756;1.825333;1.908259;1.080396;0.367968;1.927024;1.491175;0.8703202;3.106528;0.9515756;1.825333;1.908259;1.080396;0.367968;1.927024;1.491175;0.8703202;3.106528
1572368.7244;NotLabelled;NONE;16384;0.7215123;-0.5858725;0.1814404;-0.3213296;10;-14;-3;-2528;4128;1240;65536;0.6260388;-0.7319967;-0.1786704;-0.200831;-21;-5;14;-579;4182;56;8192;0.6204986;-0.6817093;-0.367036;0.1246537;26;9;-71;1126;2880;-1280;32768;0.7177857;-0.6800554;0.06232687;0.1357341;-8;33;-18;-612;1176;3242;256;-0.1398892;-0.05401662;-0.9871392;0.05540166;21;6;20;-16;-1130;5056;128;0.1468144;0.07894737;0.9844509;0.05540166;-6;6;-20;-164;-44;-4666;4;-0.4418283;0.5166205;-0.5273536;-0.5096953;-25;-20;-68;-704;4372;318;16;-0.1745152;-0.9286092;-0.3060942;0.1163435;37;-111;-83;-617;-1731;3102;2;0.5803324;-0.3795014;-0.3642659;-0.6216939;0;15;17;-1390;3688;-238;8;-0.1232687;-0.9483622;0.2922437;0.002770083;6;1;12;1589;-1189;3371;1.265018;1.824673;1.841472;1.264004;1.732294;1.303804;1.263091;1.649099;0.831537;1.254285;1.555662;0.1037636;0.9892689;1.500751;-0.2148252;0.6570283;1.612981;-0.08382882;0.02660516;0.9365331;-0.1414027;0;0;0;1.507317;1.451925;-0.2148282;1.802521;1.505019;-0.08383358;2.450163;0.791834;-0.06958616;2.520671;-0.1494597;-0.1519367;0.9532646;1.828256;1.887614;1.080389;0.3715883;1.940688;1.530718;0.8941942;3.096722;0.9532646;1.828256;1.887614;1.080389;0.3715883;1.940688;1.530718;0.8941942;3.096722
1572389.6773;NotLabelled;NONE;16384;0.7197727;-0.5900277;0.1772853;-0.3199446;8;23;26;-2492;3834;166;65536;0.6204986;-0.7353814;-0.1745152;-0.2091413;-38;18;37;-633;4310;312;8192;0.6191136;-0.6893083;-0.3573407;0.1177285;56;-70;-74;4558;5218;-194;32768;0.7174061;-0.6814404;0.05401662;0.134349;-5;40;-42;462;4638;-310;256;-0.1440443;-0.05124654;-0.9871859;0.04570637;37;5;10;1486;-1330;5196;128;0.1523546;0.07756232;0.983476;0.05955679;-20;0;-12;-258;6;-4666;4;-0.4376731;0.5180055;-0.5360362;-0.5027701;-27;-11;-65;-360;4626;-262;16;-0.1731302;-0.9309973;-0.2950138;0.1274238;37;-14;-64;-1887;-2329;3868;2;0.5775623;-0.3795014;-0.367036;-0.6226435;2;12;14;-1546;3652;-234;8;-0.1232687;-0.9492143;0.2894737;0.001385042;2;8;3;1195;-1099;3377;1.267758;1.822371;1.832101;1.266743;1.729931;1.294444;1.26583;1.646683;0.8221866;1.257462;1.555331;0.09414351;0.9926762;1.500629;-0.224673;0.6601005;1.611581;-0.09343998;0.02755883;0.9364088;-0.1420427;0;0;0;1.510854;1.453201;-0.2246807;1.805881;1.506712;-0.09345543;2.43876;0.7803795;-0.08003724;2.507226;-0.160677;-0.1667055;0.9560041;1.825958;1.878243;1.078404;0.3714319;1.979387;1.567335;0.903646;3.115179;0.9560041;1.825958;1.878243;1.078404;0.3714319;1.979387;1.567335;0.903646;3.115179
1572409.6858;NotLabelled;NONE;16384;0.7185069;-0.5927978;0.1731302;-0.3199446;5;16;32;-3234;3310;-170;65536;0.6163435;-0.7371154;-0.1717452;-0.2174515;-38;30;47;-393;4452;828;8192;0.6218836;-0.6896102;-0.3628809;0.07756232;15;127;-96;666;4574;382;32768;0.7204254;-0.6800554;0.03462604;0.1315789;-15;23;-50;508;4012;-1308;256;-0.1454294;-0.04847645;-0.9873637;0.0401662;40;16;10;1360;-1900;5348;128;0.1551246;0.07756232;0.9828712;0.06232687;-26;1;-9;-1234;-226;-4862;4;-0.432133;0.5221606;-0.5491511;-0.4889196;-39;-5;-49;-1066;4270;-888;16;-0.1703601;-0.9297354;-0.2936288;0.1426593;22;-12;-39;-1487;-2055;3410;2;0.5747922;-0.3808864;-0.368421;-0.6235426;6;14;10;-1628;3700;-306;8;-0.1232687;-0.9500547;0.2867036;0.001385042;-3;13;-7;1371;-1031;3467;1.27488;1.802798;1.808334;1.273912;1.714523;1.269976;1.273038;1.634935;0.7970886;1.266667;1.557882;0.06737316;1.002805;1.508627;-0.2530922;0.6695717;1.615939;-0.1205059;0.04349626;0.9338689;-0.1542526;0;0;0;1.521129;1.462829;-0.252785;1.815676;1.514673;-0.119824;2.431604;0.7742581;-0.09347963;2.50949;-0.1659124;-0.1817983;0.9631229;1.806028;1.854476;1.082647;0.3539224;1.988495;1.610618;0.8891165;3.105249;0.9631229;1.806028;1.854476;1.082647;0.3539224;1.988495;1.610618;0.8891165;3.105249
1572431.6722;NotLabelled;NONE;16384;0.7184335;-0.5955678;0.1689751;-0.3171745;13;6;35;-3596;3100;-528;65536;0.6121883;-0.7384;-0.1703601;-0.2257618;-32;24;51;493;4546;1044;8192;0.6260388;-0.6887139;-0.3614958;0.05540166;32;49;-101;-468;3360;-174;32768;0.7192621;-0.6814404;0.02493075;0.132964;-32;34;-56;-432;4064;-682;256;-0.1468144;-0.04432133;-0.9875638;0.03462604;46;15;13;590;-1518;5250;128;0.1565097;0.07617728;0.9824876;0.06648199;-33;8;-5;-1796;-518;-5072;4;-0.4293629;0.5235457;-0.5560834;-0.4819945;-41;-16;-50;-1206;3930;-392;16;-0.1703601;-0.9314546;-0.2853186;0.1481994;18;-43;-34;-677;-2027;3094;2;0.5734072;-0.3822715;-0.3698061;-0.6231502;9;7;12;-2014;3862;-282;8;-0.1246537;-0.9511102;0.2825485;0.004155125;-4;23;-13;1557;-1397;3389;1.284047;1.791655;1.807506;1.283108;1.706106;1.268709;1.282261;1.628911;0.7954242;1.276479;1.560361;0.06485605;1.012938;1.513802;-0.2562774;0.6792291;1.61823;-0.1225905;0.05838272;0.9317093;-0.1621916;0;0;0;1.531441;1.470069;-0.2562803;1.825728;1.521528;-0.1225958;2.401003;0.7499275;-0.07824337;2.497935;-0.187132;-0.1797899;0.9722866;1.794652;1.853646;1.086073;0.3486516;2.045986;1.653219;0.8878932;3.141381;0.9722866;1.794652;1.853646;1.086073;0.3486516;2.045986;1.653219;0.8878932;3.141381
1572452.6759;NotLabelled;NONE;16384;0.7174448;-0.599723;0.166205;-0.3130194;26;-5;35;-3818;3074;-702;65536;0.6108033;-0.7379062;-0.166205;-0.234072;-16;4;50;669;4846;1228;8192;0.6274238;-0.6928102;-0.3531856;0.0401662;38;-10;-100;2032;3456;338;32768;0.7160853;-0.6842105;0.0166205;0.1371191;-40;1;-61;106;4482;-358;256;-0.1495845;-0.04155125;-0.9875249;0.02631579;56;0;11;458;-588;4550;128;0.1578947;0.0734072;0.9819837;0.0734072;-46;11;-2;-1306;-276;-4772;4;-0.4265928;0.5221606;-0.5642324;-0.4764543;-39;-16;-52;-648;3788;-74;16;-0.1703601;-0.9337009;-0.2756233;0.1523546;22;-63;-25;-553;-1595;3198;2;0.5720221;-0.3891967;-0.368421;-0.620953;8;-34;21;-1762;4156;-236;8;-0.1260388;-0.951706;0.2797784;0.009695291;-7;-10;-14;2367;-1191;3371;1.28877;1.780714;1.799609;1.287881;1.699738;1.260106;1.287078;1.62656;0.7861831;1.282442;1.566825;0.05483329;1.019521;1.522396;-0.2671086;0.6849941;1.622964;-0.1325088;0.07173198;0.9295061;-0.1693195;0;0;0;1.538305;1.482134;-0.267112;1.832114;1.533939;-0.1325142;2.379092;0.7421896;-0.0853492;2.491303;-0.1929048;-0.1892437;0.9770052;1.783319;1.845744;1.086676;0.3411624;2.067137;1.672181;0.8822567;3.151908;0.9770052;1.783319;1.845744;1.086676;0.3411624;2.067137;1.672181;0.8822567;3.151908
1572473.7149;NotLabelled;NONE;16384;0.7145875;-0.6052631;0.166205;-0.3088643;38;-11;22;-4700;2672;-1044;65536;0.6121883;-0.7369553;-0.1592798;-0.2382271;14;-34;46;2081;5580;444;8192;0.6260388;-0.6987188;-0.3448753;0.03047091;48;-19;-74;3920;2764;-498;32768;0.7114397;-0.6883656;0.006925208;0.1412742;-39;23;-54;-950;4870;314;256;-0.1495845;-0.04293629;-0.9876764;0.0166205;60;-10;4;502;-396;4118;128;0.1578947;0.06925207;0.9817434;0.08033241;-51;15;-2;-622;190;-4066;4;-0.4238227;0.5235457;-0.5708035;-0.4695291;-34;-15;-54;-410;3864;-206;16;-0.1703601;-0.9378378;-0.2603878;0.1537396;23;-90;-19;-1217;-1733;3284;2;0.5747922;-0.3933518;-0.368421;-0.615755;5;-36;19;-862;3964;-264;8;-0.1274238;-0.9502748;0.2839335;0.01108033;-8;-23;-11;2465;-1155;3221;1.295788;1.757972;1.792581;1.294985;1.684793;1.251965;1.294257;1.618465;0.7770352;1.290742;1.571204;0.04476744;1.028374;1.53144;-0.2782339;0.6933559;1.628632;-0.1423808;0.08804061;0.9278356;-0.1707826;0;0;0;1.547283;1.492833;-0.2782364;1.840754;1.543266;-0.1423854;2.360124;0.7334708;-0.08983743;2.490501;-0.1993157;-0.1932693;0.9840165;1.759911;1.8387;1.08609;0.321381;2.085824;1.690786;0.8627204;3.159892;0.9840165;1.759911;1.8387;1.08609;0.321381;2.085824;1.690786;0.8627204;3.159892
1572493.7666;NotLabelled;NONE;16384;0.7123195;-0.6121883;0.1800554;-0.2922437;47;-110;-6;-5004;2638;-736;65536;0.6301939;-0.7300286;-0.1398892;-0.2243767;65;-117;0;2027;4900;1498;8192;0.6232687;-0.703612;-0.3407202;0.01939058;56;36;-43;5364;2648;-420;32768;0.7090561;-0.6911357;-0.001385042;0.1398892;-23;60;-32;-1494;5448;812;256;-0.1468144;-0.03462604;-0.9885229;0.008310249;20;-19;-10;298;-198;756;128;0.1592798;0.06371191;0.9807953;0.09279778;-44;1;4;-272;414;-3462;4;-0.4210526;0.5235457;-0.5773464;-0.4639889;-33;-10;-55;-548;4036;-316;16;-0.1703601;-0.9413464;-0.2465374;0.1551246;18;-85;-9;-1777;-1723;3658;2;0.5747922;-0.398892;-0.3698061;-0.6113449;6;-10;16;-576;3638;-282;8;-0.1288089;-0.9488;0.2880886;0.01385042;-8;-24;-7;2663;-945;2889;1.302796;1.726468;1.787042;1.302082;1.661448;1.245384;1.301433;1.602286;0.7695075;1.298748;1.568769;0.03647828;1.036644;1.536552;-0.2875767;0.7019777;1.633084;-0.1503934;0.1025983;0.9268515;-0.1679806;0;0;0;1.555327;1.495005;-0.2875793;1.848874;1.541219;-0.1503982;2.347121;0.7190917;-0.08610606;2.499474;-0.210807;-0.1854264;0.9910164;1.727713;1.833133;1.089003;0.2941034;2.108852;1.70433;0.832062;3.178571;0.9910164;1.727713;1.833133;1.089003;0.2941034;2.108852;1.70433;0.832062;3.178571
1572514.695;NotLabelled;NONE;16384;0.7138516;-0.6121883;0.1952908;-0.2783934;40;-127;-11;-2396;2762;1086;65536;0.6385041;-0.7287254;-0.1301939;-0.2105263;47;-95;-23;-997;3788;2130;8192;0.6177285;-0.7053412;-0.3476454;0.006925208;45;83;-6;5694;3370;158;32768;0.7102793;-0.6911357;-0.01246537;0.132964;-1;84;-1;-1130;5740;732;256;-0.1454294;-0.03601108;-0.9887121;0.001385042;48;-11;-14;652;-346;3388;128;0.1592798;0.06094183;0.9802915;0.09972299;-44;23;8;-606;262;-3670;4;-0.4155124;0.5249307;-0.5887877;-0.4529086;-32;-7;-51;-932;4122;-48;16;-0.1689751;-0.9478978;-0.2229917;0.1523546;14;-68;0;-1539;-1681;3844;2;0.5720221;-0.400277;-0.3711911;-0.6121978;8;14;18;-1126;3588;-406;8;-0.1301939;-0.9477652;0.2908587;0.01385042;-6;-10;-1;2597;-793;3083;1.30252;1.699005;1.80061;1.301963;1.648269;1.257427;1.301452;1.601659;0.780158;1.300161;1.582142;0.04661882;1.038939;1.552506;-0.2783932;0.7027923;1.641751;-0.1399028;0.108166;0.9313005;-0.137026;0;0;0;1.558148;1.518154;-0.2783959;1.850852;1.565793;-0.1399077;2.330292;0.7340292;-0.05877948;2.495076;-0.1942599;-0.1531847;0.9907277;1.699036;1.846627;1.081871;0.2700406;2.147498;1.70052;0.8047944;3.21691;0.9907277;1.699036;1.846627;1.081871;0.2700406;2.147498;1.70052;0.8047944;3.21691
1572535.87;NotLabelled;NONE;16384;0.7141632;-0.6121883;0.2091413;-0.267313;31;-85;-22;-836;2566;2224;65536;0.6398892;-0.7303767;-0.1315789;-0.199446;12;-21;-47;-993;3174;1720;8192;0.6094183;-0.6998422;-0.3725762;-0.004155125;16;42;55;468;3586;982;32768;0.7177536;-0.6883656;-0.01385042;0.1038781;32;36;108;1148;5434;172;256;-0.1426593;-0.03601108;-0.9891156;-0.001385042;20;4;-15;884;-220;3124;128;0.1578947;0.05955679;0.980315;0.1024931;-30;-4;9;-726;306;-2758;4;-0.4127424;0.5263157;-0.5947556;-0.4459834;-33;-8;-47;-1224;3676;256;16;-0.1689751;-0.9503474;-0.2132964;0.1509695;8;-61;3;-1471;-1543;3866;2;0.567867;-0.4016621;-0.3725762;-0.614314;9;13;17;-1724;3682;-530;8;-0.1301939;-0.9473178;0.2922437;0.01523546;-4;-2;2;2549;-593;2995;1.296128;1.669738;1.803982;1.295658;1.626973;1.260113;1.295224;1.587367;0.7822123;1.294535;1.577671;0.04847652;1.033484;1.553642;-0.2771343;0.697637;1.642641;-0.1377592;0.1013519;0.9336815;-0.1255515;0;0;0;1.552522;1.516797;-0.2771373;1.845318;1.561172;-0.1377647;2.316604;0.7267804;-0.03798282;2.487372;-0.2003367;-0.1332655;0.9843278;1.669096;1.849945;1.068136;0.25046;2.198239;1.691365;0.7731876;3.270932;0.9843278;1.669096;1.849945;1.068136;0.25046;2.198239;1.691365;0.7731876;3.270932
1572556.2567;NotLabelled;NONE;16384;0.7135505;-0.6121883;0.2146814;-0.2645429;14;-11;-21;-132;1708;1366;65536;0.6398892;-0.7318369;-0.1357341;-0.1911357;0;-14;-60;569;2216;326;8192;0.6052631;-0.7004888;-0.3781163;0;0;-9;40;-786;2728;888;32768;0.722733;-0.6855956;-0.001385042;0.08725762;47;1;144;1864;4242;-1292;256;-0.1398892;-0.03601108;-0.9894966;-0.005540166;26;-2;-14;750;440;2788;128;0.1565097;0.05955679;0.9800938;0.1066482;-23;-2;11;-818;612;-3800;4;-0.4099723;0.5263157;-0.6017827;-0.4390582;-30;-5;-44;-1298;3430;524;16;-0.1689751;-0.9526096;-0.2049861;0.1481994;3;-49;9;-1443;-1381;3794;2;0.566482;-0.4085872;-0.3711911;-0.6118593;10;-18;15;-1644;3502;-736;8;-0.1301939;-0.9473178;0.2922437;0.01523546;-1;4;1;2133;-665;3257;1.281597;1.656947;1.796797;1.281164;1.617529;1.252676;1.280762;1.580864;0.7745397;1.280365;1.575335;0.04076087;1.019426;1.553372;-0.2850863;0.6835969;1.641858;-0.1453435;0.08457541;0.9353878;-0.1252776;0;0;0;1.538433;1.516097;-0.2850896;1.83121;1.559437;-0.145349;2.315562;0.7351375;-0.02614868;2.449766;-0.1984193;-0.1169688;0.9697939;1.656021;1.842734;1.047826;0.2441111;2.218608;1.666937;0.76318;3.295454;0.9697939;1.656021;1.842734;1.047826;0.2441111;2.218608;1.666937;0.76318;3.295454
1572577.2085;NotLabelled;NONE;16384;0.7120987;-0.6121883;0.2160665;-0.267313;0;27;-13;-208;1760;794;65536;0.6385041;-0.7337714;-0.1412742;-0.1842105;-1;6;-50;357;1970;-1044;8192;0.6066482;-0.6985335;-0.3795014;0.002770083;-33;-15;10;-1088;3066;1662;32768;0.7291136;-0.6800554;0.01800554;0.07479224;65;-61;146;2008;2426;-3094;256;-0.1385041;-0.03462604;-0.9897215;-0.008310249;9;10;-8;502;758;3246;128;0.1551246;0.05955679;0.9800087;0.1094183;-8;3;12;-908;932;-3180;4;-0.4072022;0.5263157;-0.6076514;-0.433518;-26;-8;-42;-1098;3524;380;16;-0.1689751;-0.9542112;-0.199446;0.1454294;-2;-37;13;-1447;-1285;3692;2;0.566482;-0.4113573;-0.3698061;-0.610841;11;-15;10;-1482;3518;-542;8;-0.1288089;-0.9479332;0.2908587;0.01523546;-1;-4;-1;2119;-757;3361;1.267191;1.638626;1.79442;1.266809;1.603857;1.249982;1.266452;1.571276;0.7715503;1.2665;1.571929;0.0377506;1.005736;1.553021;-0.2884278;0.6699254;1.640725;-0.1481481;0.0682237;0.9365914;-0.1262478;0;0;0;1.524698;1.515131;-0.2884306;1.81744;1.556944;-0.1481531;2.31251;0.7404985;-0.01932299;2.407599;-0.1982605;-0.1057929;0.9553835;1.637308;1.840318;1.0243;0.2326894;2.244243;1.635356;0.7478805;3.327533;0.9553835;1.637308;1.840318;1.0243;0.2326894;2.244243;1.635356;0.7478805;3.327533
1572598.7692;NotLabelled;NONE;16384;0.711472;-0.6121883;0.2146814;-0.2700831;3;13;0;-938;1584;-208;65536;0.6371191;-0.734853;-0.1454294;-0.1814404;8;10;-30;733;1836;-1278;8192;0.6149584;-0.6942348;-0.3739612;0.004155125;-58;-43;-15;-1674;3268;2130;32768;0.7375499;-0.6703601;0.04709141;0.06648199;62;-128;132;2894;1380;-2436;256;-0.1371191;-0.033241;-0.9899618;-0.008310249;-3;8;-3;280;646;2730;128;0.1537396;0.05955679;0.9800713;0.1108033;-2;1;8;-966;1342;-3684;4;-0.4058172;0.5263157;-0.6124861;-0.4279778;-26;-10;-38;-970;3252;118;16;-0.1689751;-0.9556937;-0.1952908;0.1412742;-9;-25;17;-1511;-1187;3596;2;0.566482;-0.4141274;-0.3698061;-0.6089664;9;-13;7;-1366;3648;-386;8;-0.1288089;-0.9470555;0.2936288;0.0166205;0;-18;-3;2123;-777;3515;1.254286;1.625552;1.790919;1.253939;1.593923;1.246289;1.253612;1.564103;0.7676778;1.253969;1.569136;0.03389531;0.9933816;1.55166;-0.2925034;0.6573389;1.637861;-0.1518488;0.05164243;0.9371645;-0.1298157;0;0;0;1.512418;1.514796;-0.2925068;1.805017;1.55635;-0.1518544;2.304858;0.7423303;-0.02613389;2.354365;-0.1998484;-0.1135168;0.9424762;1.623969;1.836789;1.00563;0.2259283;2.263815;1.610208;0.7381494;3.352136;0.9424762;1.623969;1.836789;1.00563;0.2259283;2.263815;1.610208;0.7381494;3.352136
1572619.6728;NotLabelled;NONE;16384;0.710228;-0.6149584;0.2160665;-0.265928;10;-14;9;-2260;2042;380;65536;0.6398892;-0.7328467;-0.1468144;-0.1786704;7;4;7;415;2666;734;8192;0.6246537;-0.6914535;-0.3628809;0.004155125;-31;-59;-57;-3486;2620;-1140;32768;0.7401295;-0.66482;0.07617728;0.06648199;46;-125;120;968;448;-1092;256;-0.1357341;-0.03185596;-0.9902292;-0.002770083;-21;5;-13;552;174;2808;128;0.1523546;0.05817174;0.9805263;0.1094183;11;4;5;-404;984;-3450;4;-0.4016621;0.5263157;-0.6209174;-0.4196676;-21;-3;-33;-580;3268;250;16;-0.1717452;-0.95676;-0.1925208;0.134349;-18;-9;20;-1621;-939;3386;2;0.566482;-0.4155124;-0.368421;-0.6088625;7;-14;3;-1320;3798;-338;8;-0.1288089;-0.946625;0.2950138;0.0166205;-1;-19;-2;2057;-903;3503;1.246923;1.622633;1.790745;1.246594;1.592634;1.246023;1.246283;1.564245;0.7673247;1.24665;1.56963;0.0335446;0.9861224;1.551592;-0.2928715;0.6498386;1.6368;-0.1521872;0.04275716;0.9372319;-0.1325324;0;0;0;1.505258;1.516159;-0.2928745;1.797737;1.558451;-0.1521923;2.293276;0.7392532;-0.04434872;2.286382;-0.2036325;-0.1376619;0.9351118;1.620914;1.8366;0.9903827;0.2288024;2.283623;1.58485;0.7378863;3.378964;0.9351118;1.620914;1.8366;0.9903827;0.2288024;2.283623;1.58485;0.7378863;3.378964
1572639.6793;NotLabelled;NONE;16384;0.7111646;-0.6149584;0.2146814;-0.2645429;-18;-5;5;-2672;2200;600;65536;0.6412742;-0.7312954;-0.1468144;-0.1800554;16;-2;7;979;3188;814;8192;0.6288089;-0.7015957;-0.33518;-0.004155125;23;-42;-86;878;214;-1620;32768;0.7397769;-0.6634349;0.09418282;0.06094183;-26;13;-5;-2584;-1120;-98;256;-0.132964;-0.03047091;-0.9906524;0;-30;4;-16;208;26;2700;128;0.1509695;0.0567867;0.9809752;0.1080332;19;5;9;-370;740;-3504;4;-0.400277;0.5277008;-0.6243466;-0.4141274;-16;4;-30;-530;3512;160;16;-0.1731302;-0.9568051;-0.1939058;0.1301939;-19;-5;20;-1651;-733;3416;2;0.566482;-0.4182825;-0.367036;-0.6078013;7;-11;0;-1146;3760;-538;8;-0.1301939;-0.9455675;0.2977839;0.0166205;-4;-16;0;2213;-873;3293;1.238878;1.641418;1.792602;1.238536;1.610222;1.247948;1.238213;1.580781;0.7693129;1.238064;1.57846;0.03551656;0.9773965;1.555887;-0.2905057;0.640847;1.641134;-0.1504829;0.03765769;0.938363;-0.1259124;0;0;0;1.496679;1.522666;-0.2905086;1.789069;1.567678;-0.1504879;2.272029;0.738721;-0.0618633;2.223238;-0.2033385;-0.1509216;0.9270673;1.6398;1.838468;0.9747288;0.258629;2.319044;1.550231;0.7706903;3.42309;0.9270673;1.6398;1.838468;0.9747288;0.258629;2.319044;1.550231;0.7706903;3.42309
1572660.7454;NotLabelled;NONE;16384;0.7139658;-0.6121883;0.2132964;-0.2645429;-18;6;14;-1878;2298;-172;65536;0.6440443;-0.72975;-0.1440443;-0.1786704;23;-29;16;441;2420;1372;8192;0.6288089;-0.708053;-0.3213296;-0.002770083;13;-184;-18;8550;1272;-472;32768;0.7328127;-0.6717451;0.08448754;0.06786703;-86;-37;-99;-7422;3140;3234;256;-0.1301939;-0.03185596;-0.9909612;0.005540166;-41;-6;-13;136;-88;2668;128;0.1495845;0.0567867;0.9816359;0.1038781;33;6;14;-498;588;-3610;4;-0.398892;0.5290859;-0.6258901;-0.4113573;-15;8;-22;-884;3708;18;16;-0.1731302;-0.9573613;-0.1939058;0.1260388;-20;-6;19;-1569;-567;3428;2;0.566482;-0.4196676;-0.365651;-0.6076814;5;0;-7;-1394;3700;-514;8;-0.1315789;-0.9444734;0.300554;0.01800554;-8;-7;0;2319;-1065;3229;1.239847;1.653064;1.806397;1.239492;1.620666;1.261812;1.239157;1.59017;0.7832437;1.238717;1.584223;0.04946792;0.9779968;1.559134;-0.276328;0.6412098;1.643901;-0.1365848;0.04044046;0.938787;-0.1218239;0;0;0;1.497392;1.527718;-0.2763875;1.789681;1.574438;-0.1367152;2.228823;0.7219217;-0.04372859;2.14994;-0.2190338;-0.1222675;0.9280376;1.651547;1.852274;0.9694955;0.2767968;2.351477;1.527898;0.7907798;3.463383;0.9280376;1.651547;1.852274;0.9694955;0.2767968;2.351477;1.527898;0.7907798;3.463383
1572681.7041;NotLabelled;NONE;16384;0.7116635;-0.6149584;0.2077562;-0.2686981;19;90;-2;-5732;4108;168;65536;0.6481994;-0.727814;-0.1385041;-0.1759003;27;-39;4;1391;6036;2662;8192;0.6204986;-0.7215229;-0.3060942;0.02631579;-28;-30;124;16392;13838;3314;32768;0.7281736;-0.6759003;0.08310249;0.07756232;43;-7;39;830;32767;-2192;256;-0.1274238;-0.03601108;-0.991116;0.01246537;-43;-20;-14;1742;-670;3428;128;0.1468144;0.0567867;0.9827619;0.09695291;47;3;14;-614;596;-3506;4;-0.398892;0.5290859;-0.627702;-0.4085872;-17;6;-13;-1392;3766;212;16;-0.1745152;-0.9576478;-0.1939058;0.1218837;-21;-9;18;-1521;-467;3326;2;0.5650969;-0.4196676;-0.3642659;-0.6097991;8;-2;-7;-1716;3574;-808;8;-0.132964;-0.9442794;0.300554;0.01800554;-11;0;-1;2269;-985;3203;1.24264;1.67167;1.818187;1.242236;1.634844;1.273884;1.241858;1.600456;0.7955796;1.240984;1.586312;0.06191635;0.9800409;1.557929;-0.2634311;0.6434476;1.6447;-0.1244527;0.04275436;0.9394166;-0.1160425;0;0;0;1.499393;1.525826;-0.263434;1.791825;1.573716;-0.1244576;2.216575;0.7145994;-0.02555895;2.166353;-0.2291272;-0.09371614;0.9308341;1.670525;1.864102;0.9703817;0.2995012;2.373599;1.51343;0.8115735;3.493959;0.9308341;1.670525;1.864102;0.9703817;0.2995012;2.373599;1.51343;0.8115735;3.493959
1572701.8483;NotLabelled;NONE;16384;0.7048188;-0.6177285;0.2063712;-0.2811634;-13;-7;-44;-7492;7318;1658;65536;0.6523545;-0.7269568;-0.1371191;-0.1648199;33;-48;-52;-245;11486;602;8192;0.6204986;-0.7027745;-0.3476454;0.01523546;-52;263;114;798;320;-1432;32768;0.7335309;-0.6717451;0.08033241;0.06509695;45;34;16;1732;3952;384;256;-0.1246537;-0.03878116;-0.9912786;0.01800554;-44;-16;-28;1608;-1888;5986;128;0.1454294;0.05817174;0.9836711;0.08864266;49;3;8;-1484;108;-3924;4;-0.398892;0.5290859;-0.6294965;-0.4058172;-19;-11;-1;-1756;3424;266;16;-0.1772853;-0.9576588;-0.1939058;0.1177285;-24;-12;17;-1619;-585;3224;2;0.566482;-0.4210526;-0.3601108;-0.6100271;12;-16;-6;-1820;3528;-710;8;-0.134349;-0.9444958;0.299169;0.01939058;-12;7;-2;2121;-711;3239;1.244741;1.697923;1.826923;1.244257;1.65376;1.283167;1.243809;1.612925;0.8053695;1.242109;1.588059;0.07199293;0.9806613;1.556626;-0.2526683;0.64478;1.647617;-0.1146704;0.0465981;0.9401824;-0.1080911;0;0;0;1.499793;1.521134;-0.2526709;1.79267;1.569141;-0.1146749;2.238271;0.7226684;0.0002148151;2.206068;-0.222234;-0.06231958;0.9329426;1.697398;1.872896;0.9654506;0.3292806;2.390638;1.492328;0.8428886;3.517996;0.9329426;1.697398;1.872896;0.9654506;0.3292806;2.390638;1.492328;0.8428886;3.517996
1572721.7108;NotLabelled;NONE;16384;0.7132871;-0.6108033;0.2160665;-0.267313;21;-23;13;-656;5678;-710;65536;0.6565097;-0.722174;-0.1440443;-0.1634349;16;-32;0;-1357;4506;-166;8192;0.6191136;-0.6990921;-0.3573407;0.0166205;26;-33;12;-5770;322;-4870;32768;0.7389051;-0.66482;0.08725762;0.06648199;41;-2;32;-586;256;876;256;-0.1204986;-0.0401662;-0.9915515;0.02631579;-46;8;-8;-1110;-2662;6840;128;0.1440443;0.05955679;0.9843915;0.08171745;30;-7;10;-1576;-994;-4928;4;-0.398892;0.5249307;-0.6329656;-0.4058172;-9;-27;6;-1266;3224;516;16;-0.1800554;-0.9576438;-0.1939058;0.1135734;-25;-11;17;-1975;-771;3184;2;0.567867;-0.4224377;-0.3573407;-0.6094104;12;-22;-3;-2020;3368;-694;8;-0.1357341;-0.944706;0.2977839;0.02077562;-14;8;-4;2215;-713;3235;1.241983;1.716205;1.827462;1.241398;1.662906;1.284525;1.240862;1.614043;0.807482;1.238446;1.580754;0.07444149;0.9765974;1.54669;-0.2496306;0.6412159;1.640674;-0.112425;0.03345397;0.9415131;-0.1011466;0;0;0;1.495576;1.509018;-0.249634;1.788766;1.557375;-0.1124296;2.266355;0.7278388;-0.002641678;2.218563;-0.2158463;-0.07308722;0.9301928;1.716454;1.873496;0.9555477;0.351294;2.399379;1.464964;0.8698804;3.532468;0.9301928;1.716454;1.873496;0.9555477;0.351294;2.399379;1.464964;0.8698804;3.532468
1572742.7175;NotLabelled;NONE;16384;0.711941;-0.6135734;0.2160665;-0.2645429;4;2;12;-2966;6216;1600;65536;0.6606648;-0.7198194;-0.1398892;-0.1606648;19;-34;11;-583;5186;834;8192;0.6094183;-0.7089519;-0.3545706;0.0166205;14;32;-4;5990;7084;552;32768;0.7465593;-0.6578947;0.08310249;0.05401662;21;37;-10;1530;4630;-460;256;-0.1204986;-0.04293629;-0.9914353;0.02631579;6;15;2;1156;-1026;7538;128;0.1398892;0.06509695;0.9848658;0.07894737;-8;-13;-5;-644;166;-6202;4;-0.398892;0.5207756;-0.6328216;-0.4113573;4;-6;6;-202;3974;104;16;-0.1828255;-0.9573503;-0.1966759;0.1066482;-15;5;18;-1901;-913;3220;2;0.5692521;-0.4238227;-0.3531856;-0.6095788;10;-27;-4;-1906;3748;-1052;8;-0.1385041;-0.9442388;0.2977839;0.0235457;-16;5;-6;2019;-1139;3159;1.232484;1.747775;1.851398;1.231815;1.686862;1.309263;1.231206;1.63131;0.8329519;1.227868;1.585912;0.1005653;0.9655952;1.54674;-0.2225854;0.6304665;1.64329;-0.08654846;0.02381809;0.9430735;-0.08855869;0;0;0;1.484539;1.508591;-0.2225888;1.77794;1.558938;-0.08655411;2.267444;0.7368844;0.0269742;2.207149;-0.205029;-0.05639762;0.9207008;1.74867;1.897471;0.933292;0.3842404;2.425706;1.422155;0.9077923;3.565546;0.9207008;1.74867;1.897471;0.933292;0.3842404;2.425706;1.422155;0.9077923;3.565546
1572763.6898;NotLabelled;NONE;16384;0.7127758;-0.6135734;0.2132964;-0.2645429;-13;17;18;-2226;3356;470;65536;0.6620498;-0.7190794;-0.1371191;-0.1606648;9;2;21;-939;4650;-792;8192;0.6094183;-0.7069671;-0.3587258;0.01108033;-4;37;-8;2846;4214;-400;32768;0.7492588;-0.6565097;0.0734072;0.04709141;13;65;-24;466;5426;-870;256;-0.1204986;-0.03462604;-0.9917961;0.02493075;16;40;-2;974;-1362;5992;128;0.1398892;0.06648199;0.9845473;0.08171745;-26;1;3;-1054;124;-5382;4;-0.400277;0.5193906;-0.6321831;-0.4127424;4;8;7;-686;4460;226;16;-0.1828255;-0.9570817;-0.199446;0.1038781;-7;10;15;-1601;-1011;3110;2;0.5734072;-0.4279778;-0.3476454;-0.6059553;5;-20;-11;-410;4146;-196;8;-0.1426593;-0.9444166;0.2950138;0.02631579;-11;7;-9;1951;-1493;2871;1.230412;1.755541;1.853183;1.229706;1.691178;1.311446;1.229063;1.632595;0.8354989;1.225437;1.586712;0.1031442;0.962935;1.54876;-0.2199667;0.6283495;1.647245;-0.08397962;0.02546814;0.9437908;-0.08004513;0;0;0;1.481661;1.507758;-0.2199696;1.775341;1.556584;-0.08398461;2.261124;0.7360309;0.0537945;2.184834;-0.2032439;-0.04485106;0.9186325;1.756729;1.899271;0.9317048;0.3870612;2.413759;1.40103;0.914791;3.559867;0.9186325;1.756729;1.899271;0.9317048;0.3870612;2.413759;1.40103;0.914791;3.559867
1572784.6736;NotLabelled;NONE;16384;0.7149217;-0.6135734;0.2077562;-0.2631579;-7;7;45;-2500;3934;454;65536;0.6634349;-0.716859;-0.1371191;-0.1648199;-4;18;37;-511;3898;-604;8192;0.6121883;-0.7046351;-0.3587258;0.005540166;-6;4;-35;1132;4528;390;32768;0.7499908;-0.6565097;0.06648199;0.04570637;-4;17;-31;-40;4432;-1594;256;-0.1191136;-0.03462604;-0.9920592;0.02077562;42;-7;-7;724;-452;3994;128;0.1398892;0.06509695;0.9841644;0.08725762;-29;-6;7;-890;534;-4806;4;-0.4016621;0.5207756;-0.6292526;-0.4141274;0;13;11;-1624;4360;262;16;-0.1828255;-0.9566497;-0.2022161;0.1024931;4;9;12;-1543;-803;2936;2;0.5734072;-0.4293629;-0.3476454;-0.6049747;5;5;-8;-890;4198;-162;8;-0.1440443;-0.9445567;0.2936288;0.02908587;-5;4;-11;1967;-1419;2707;1.231238;1.757953;1.859616;1.230563;1.696411;1.317552;1.229947;1.640304;0.8413057;1.227284;1.597893;0.1087373;0.9655274;1.557259;-0.2146513;0.629353;1.64967;-0.07831991;0.02916272;0.943908;-0.07735234;0;0;0;1.484848;1.524645;-0.2146543;1.77766;1.577555;-0.07832485;2.260809;0.7556114;0.06042492;2.187514;-0.1831062;-0.04551995;0.9194555;1.758901;1.905692;0.9292186;0.3869514;2.414137;1.389741;0.9138567;3.564188;0.9194555;1.758901;1.905692;0.9292186;0.3869514;2.414137;1.389741;0.9138567;3.564188
1572804.6611;NotLabelled;NONE;16384;0.7173339;-0.6149584;0.2022161;-0.2576177;-3;-6;56;-2388;4662;510;65536;0.6634349;-0.716088;-0.134349;-0.1703601;-7;8;48;-373;4640;312;8192;0.6149584;-0.7036475;-0.3559557;0.001385042;-13;11;-40;2418;3926;1226;32768;0.7490732;-0.6578947;0.06094183;0.04847645;-18;0;-31;46;4084;-1206;256;-0.1191136;-0.03462604;-0.9921597;0.01523546;26;0;0;-68;-422;5022;128;0.1398892;0.06648199;0.9835648;0.09279778;-40;-18;2;-670;536;-4104;4;-0.4030471;0.5207756;-0.6283664;-0.4141274;0;1;17;-1782;4212;690;16;-0.1800554;-0.9573222;-0.2022161;0.101108;12;0;8;-1459;-863;3124;2;0.5720221;-0.4279778;-0.3476454;-0.607263;2;3;-3;-1740;4364;-202;8;-0.1440443;-0.9444674;0.2936288;0.03185596;2;0;-14;2003;-1071;2727;1.229962;1.743825;1.874075;1.229355;1.6885;1.331341;1.2288;1.637858;0.854483;1.226481;1.601556;0.1215852;0.9648534;1.563902;-0.2022682;0.628706;1.655537;-0.06534754;0.03531444;0.9440846;-0.07249337;0;0;0;1.484139;1.530728;-0.2022707;1.776935;1.582183;-0.06535178;2.252596;0.7553523;0.07019377;2.186975;-0.1834834;-0.03966683;0.9181741;1.744246;1.92012;0.9293441;0.3695512;2.421069;1.381632;0.8962653;3.574471;0.9181741;1.744246;1.92012;0.9293441;0.3695512;2.421069;1.381632;0.8962653;3.574471
1572824.7781;NotLabelled;NONE;16384;0.7194914;-0.6204986;0.1911357;-0.2465374;1;0;54;-2768;2390;412;65536;0.66482;-0.7125187;-0.1260388;-0.1855956;-7;27;52;417;4352;154;8192;0.6177285;-0.7012169;-0.3559557;-0.001385042;-15;6;-26;3070;2658;322;32768;0.7478904;-0.6592798;0.05817174;0.05124654;-19;0;-31;432;4446;68;256;-0.1191136;-0.03462604;-0.9922293;0.009695291;36;-21;0;-218;-24;3918;128;0.1398892;0.06648199;0.9831639;0.09695291;-24;-1;1;-274;962;-4260;4;-0.4044321;0.5180055;-0.6279342;-0.4168975;-2;-10;22;-1386;4112;838;16;-0.1772853;-0.9578391;-0.2022161;0.101108;21;-10;5;-1355;-997;3040;2;0.5720221;-0.4279778;-0.3476454;-0.607263;1;-4;0;-1708;3986;-430;8;-0.1426593;-0.9441982;0.2950138;0.033241;8;0;-16;1953;-789;2857;1.229004;1.730855;1.879964;1.228461;1.681383;1.336665;1.227961;1.635883;0.8592892;1.22612;1.607646;0.126035;0.9646742;1.573905;-0.1983964;0.6285507;1.664476;-0.06071177;0.04662823;0.9436593;-0.0716226;0;0;0;1.483915;1.54004;-0.1983994;1.776681;1.589595;-0.0607174;2.244019;0.757273;0.07008505;2.190161;-0.1822271;-0.04049522;0.91721;1.730779;1.925974;0.9259671;0.3550484;2.424117;1.376855;0.8741987;3.58149;0.91721;1.730779;1.925974;0.9259671;0.3550484;2.424117;1.376855;0.8741987;3.58149
1572846.6785;NotLabelled;NONE;16384;0.7211559;-0.6218836;0.1855956;-0.2423823;1;6;43;-2914;3010;552;65536;0.6634349;-0.7120811;-0.1232687;-0.1939058;-4;23;42;1013;4420;698;8192;0.6177285;-0.7012169;-0.3559557;-0.001385042;-2;-6;-19;3186;2194;-416;32768;0.745851;-0.6620498;0.05263158;0.05124654;-10;11;-22;-230;4686;418;256;-0.1191136;-0.03601108;-0.9922187;0.004155125;27;-15;-5;552;312;3602;128;0.1385041;0.06648199;0.982798;0.1024931;-30;-8;1;-216;986;-3846;4;-0.4085872;0.5096953;-0.6292709;-0.4210526;-6;-12;25;-992;3690;594;16;-0.1689751;-0.9603443;-0.1966759;0.1024931;32;-13;1;-1255;-1331;3028;2;0.5720221;-0.4293629;-0.3476454;-0.6062845;1;-2;0;-1412;3774;-516;8;-0.1398892;-0.944511;0.2950138;0.03601108;12;4;-17;2095;-709;3111;1.235712;1.728816;1.888942;1.235219;1.683882;1.345248;1.234763;1.64237;0.8675089;1.233421;1.622199;0.1339872;0.9721687;1.592374;-0.1909826;0.6360646;1.681874;-0.05255225;0.07861532;0.9419973;-0.06525278;0;0;0;1.491364;1.55782;-0.1909856;1.784094;1.60547;-0.05255711;2.247944;0.7703528;0.07273781;2.202229;-0.1696846;-0.03692913;0.9239138;1.728356;1.93492;0.9289559;0.349227;2.423627;1.381663;0.8614843;3.583358;0.9239138;1.728356;1.93492;0.9289559;0.349227;2.423627;1.381663;0.8614843;3.583358
1572866.6682;NotLabelled;NONE;16384;0.721132;-0.6232687;0.1828255;-0.2409972;5;0;20;-3656;3014;382;65536;0.6634349;-0.7107882;-0.1218837;-0.199446;2;9;20;1265;4810;640;8192;0.6177285;-0.6997997;-0.3587258;-0.002770083;-3;18;0;1998;3002;1052;32768;0.7458356;-0.6620498;0.04847645;0.05540166;2;-19;-9;-1078;3886;-170;256;-0.1163435;-0.04293629;-0.9922795;-0.001385042;10;-26;-7;416;150;3436;128;0.1371191;0.06648199;0.9822454;0.1094183;-15;3;9;-874;962;-3420;4;-0.4113573;0.5069252;-0.6278426;-0.4238227;-8;-6;26;-1220;3354;266;16;-0.1648199;-0.9613485;-0.1952908;0.1024931;33;-6;1;-1375;-1407;2884;2;0.5720221;-0.4293629;-0.3462604;-0.6070766;1;-4;-1;-1630;3552;-510;8;-0.1357341;-0.9454945;0.2936288;0.03739612;13;4;-18;2251;-707;3323;1.2393;1.711227;1.891792;1.238875;1.672476;1.347623;1.238479;1.636395;0.8694428;1.237607;1.62405;0.1357474;0.9764805;1.598758;-0.1897078;0.6406397;1.688147;-0.05056921;0.09367612;0.9405435;-0.06633715;0;0;0;1.495531;1.562087;-0.1897108;1.788349;1.607062;-0.050574;2.252243;0.7719456;0.07455301;2.216019;-0.1689209;-0.03149438;0.9274966;1.710246;1.937724;0.9148219;0.3254715;2.410057;1.379805;0.8166627;3.574037;0.9274966;1.710246;1.937724;0.9148219;0.3254715;2.410057;1.379805;0.8166627;3.574037
1572887.7696;NotLabelled;NONE;16384;0.7216997;-0.6232687;0.1842105;-0.2382271;8;-22;-14;-4488;2838;480;65536;0.66482;-0.7094929;-0.1218837;-0.199446;15;-13;-9;2279;5312;94;8192;0.6177285;-0.6983659;-0.3614958;-0.004155125;-10;8;8;1598;2984;586;32768;0.7455153;-0.6620498;0.04847645;0.05955679;-1;-18;-8;-866;3504;620;256;-0.1149584;-0.04570637;-0.9923173;-0.001385042;-8;-11;-3;150;126;3016;128;0.1357341;0.06509695;0.9822181;0.1121884;-16;2;9;-738;720;-3376;4;-0.4127424;0.5027701;-0.6293365;-0.4252077;-8;-8;24;-1274;2974;190;16;-0.1592798;-0.9624135;-0.1939058;0.1038781;34;-4;1;-1691;-1429;2902;2;0.5747922;-0.4293629;-0.3434903;-0.6060329;2;-15;-2;-1878;3602;-506;8;-0.1315789;-0.9462754;0.2922437;0.04293629;3;10;-14;2395;-753;3961;1.242414;1.681596;1.897944;1.242073;1.650556;1.35328;1.241752;1.621253;0.8746371;1.241296;1.615938;0.1408564;0.9800838;1.597708;-0.1850022;0.6455172;1.690827;-0.0452413;0.1035078;0.9396874;-0.06379683;0;0;0;1.498521;1.5532;-0.1850053;1.79187;1.592415;-0.04524666;2.256449;0.7580065;0.08205068;2.231442;-0.1828179;-0.02754754;0.9306031;1.679964;1.943808;0.9094486;0.2910633;2.403554;1.37154;0.7715732;3.57313;0.9306031;1.679964;1.943808;0.9094486;0.2910633;2.403554;1.37154;0.7715732;3.57313
1572908.663;NotLabelled;NONE;16384;0.7211812;-0.6218836;0.1925208;-0.2368421;5;-55;-41;-4196;2338;898;65536;0.66759;-0.7091792;-0.1218837;-0.1911357;26;-46;-44;2437;4694;-194;8192;0.6177285;-0.6976541;-0.3628809;-0.002770083;-4;-5;13;1476;2246;-282;32768;0.7442598;-0.6634349;0.04709141;0.06094183;-7;-4;-12;-1038;3248;718;256;-0.1135734;-0.04709141;-0.992413;0;-3;-10;-5;-22;152;2714;128;0.1357341;0.06371191;0.9819886;0.1149584;-15;2;6;-332;710;-3328;4;-0.4155124;0.5;-0.6278411;-0.4279778;-1;-13;22;-846;3048;104;16;-0.1537396;-0.9635918;-0.1925208;0.1038781;32;-7;5;-1605;-1335;3086;2;0.5761772;-0.4307479;-0.3421052;-0.6045164;0;-17;-3;-1734;3488;-590;8;-0.1315789;-0.9465723;0.2908587;0.04570637;-5;15;-11;2383;-701;3839;1.240762;1.673737;1.903559;1.240458;1.646034;1.358716;1.240169;1.619662;0.8799025;1.239648;1.613968;0.1461246;0.9783247;1.597009;-0.1797128;0.6442835;1.692046;-0.03998536;0.103691;0.9399217;-0.05993551;0;0;0;1.496508;1.549641;-0.1797157;1.790076;1.587309;-0.03999066;2.255547;0.7536143;0.08871412;2.235942;-0.1871895;-0.02215272;0.9289483;1.671824;1.949393;0.8977253;0.2814835;2.404187;1.36476;0.7484516;3.57728;0.9289483;1.671824;1.949393;0.8977253;0.2814835;2.404187;1.36476;0.7484516;3.57728
1572929.7222;NotLabelled;NONE;16384;0.7213753;-0.6177285;0.2063712;-0.2354571;-4;-66;-63;-3182;2312;866;65536;0.6717451;-0.7082656;-0.1232687;-0.1786704;35;-53;-77;1665;4564;-92;8192;0.6163435;-0.6981612;-0.3642659;-0.001385042;3;-7;13;1816;2180;-834;32768;0.7443152;-0.6634349;0.04432133;0.06232687;-6;0;-19;-720;3292;330;256;-0.1135734;-0.04847645;-0.9923463;0;-7;-6;-5;588;16;2960;128;0.134349;0.06371191;0.982179;0.1149584;-5;4;4;-686;608;-3278;4;-0.4155124;0.4972299;-0.6281465;-0.4307479;8;-9;20;-434;3404;68;16;-0.1495845;-0.9647945;-0.1897507;0.1038781;26;-37;3;-1947;-1517;3936;2;0.5775623;-0.4307479;-0.3407202;-0.6039766;0;-15;-6;-1444;3420;-630;8;-0.1315789;-0.9472814;0.2880886;0.04847645;-10;8;-8;2429;-769;3459;1.237351;1.664728;1.904342;1.237082;1.640239;1.359345;1.236824;1.616693;0.8803844;1.236087;1.608843;0.1466269;0.9746323;1.591568;-0.1790895;0.6408635;1.687833;-0.03955224;0.09242161;0.9413309;-0.05614228;0;0;0;1.492698;1.542931;-0.1790926;1.786396;1.58029;-0.03955758;2.255018;0.7483952;0.08936369;2.240299;-0.1927536;-0.01930845;0.9255339;1.662545;1.950143;0.8874218;0.2682686;2.392184;1.356125;0.7209809;3.570189;0.9255339;1.662545;1.950143;0.8874218;0.2682686;2.392184;1.356125;0.7209809;3.570189
1572950.6819;NotLabelled;NONE;16384;0.7227476;-0.6066482;0.2299169;-0.2382271;-18;-43;-60;-410;2366;992;65536;0.6800554;-0.7053697;-0.1357341;-0.1468144;30;9;-92;-1929;2060;-58;8192;0.6149584;-0.6986598;-0.365651;0;15;3;10;2354;2640;-824;32768;0.7443578;-0.6634349;0.04155125;0.06371191;1;-1;-24;112;3430;-202;256;-0.1121884;-0.04847645;-0.9925038;0;-11;0;0;880;-86;2886;128;0.134349;0.06232687;0.9822679;0.1149584;2;10;2;-932;692;-3322;4;-0.4168975;0.4972299;-0.6253167;-0.433518;11;2;14;-780;3736;-78;16;-0.1495845;-0.9663918;-0.1814404;0.1038781;0;-49;-4;-2333;-2571;5110;2;0.5789474;-0.4307479;-0.3393352;-0.6034301;0;-8;-10;-1272;3582;-604;8;-0.132964;-0.9470161;0.2880886;0.04986149;-11;1;-7;2501;-791;3145;1.232917;1.654293;1.906717;1.232649;1.629923;1.361715;1.232392;1.606481;0.8827482;1.231611;1.598401;0.1489937;0.9700997;1.581743;-0.1767095;0.6366019;1.678971;-0.03719252;0.07355744;0.9433432;-0.04990307;0;0;0;1.48803;1.531679;-0.1767126;1.781833;1.568272;-0.03719836;2.253616;0.7386124;0.09456456;2.24428;-0.2024016;-0.01585251;0.9210995;1.6521;1.952516;0.8816168;0.2557173;2.387735;1.354654;0.6973588;3.568208;0.9210995;1.6521;1.952516;0.8816168;0.2557173;2.387735;1.354654;0.6973588;3.568208
1572970.6702;NotLabelled;NONE;16384;0.7253678;-0.599723;0.2368421;-0.2409972;-36;-7;-40;412;2756;1712;65536;0.6786703;-0.7041776;-0.1509695;-0.1440443;13;90;-76;-1767;2090;-944;8192;0.6094183;-0.6990935;-0.3739612;-0.005540166;4;33;13;1198;3840;-480;32768;0.7458562;-0.6620498;0.03878116;0.06232687;17;9;2;2212;3940;-764;256;-0.1108033;-0.04847645;-0.9926507;0.004155125;-15;8;2;1352;176;3384;128;0.134349;0.06094183;0.9825159;0.1135734;12;8;1;-1310;1050;-3578;4;-0.4168975;0.4972299;-0.6233872;-0.4362881;9;-3;12;-1522;3902;662;16;-0.1537396;-0.9666141;-0.1759003;0.1052632;-24;14;-8;-1999;-1989;4292;2;0.5789474;-0.4307479;-0.3379501;-0.6042069;0;-1;-13;-1332;3610;-602;8;-0.134349;-0.9467466;0.2880886;0.05124654;-8;3;-5;2519;-881;2877;1.204277;1.632581;1.923038;1.204011;1.608382;1.378028;1.203755;1.585091;0.8990546;1.202983;1.577109;0.1652983;0.9414767;1.560498;-0.1604099;0.6079784;1.657713;-0.02088453;0.01405473;0.9467957;-0.03432528;0;0;0;1.459406;1.510425;-0.1604129;1.753208;1.546996;-0.02088988;2.227821;0.7195909;0.1148269;2.224195;-0.2212586;0.002682745;0.8924594;1.630374;1.968836;0.8542478;0.2304738;2.392721;1.327678;0.6704347;3.573664;0.8924594;1.630374;1.968836;0.8542478;0.2304738;2.392721;1.327678;0.6704347;3.573664
1572992.4216;NotLabelled;NONE;16384;0.7280393;-0.5941828;0.2354571;-0.2479224;-58;44;-17;514;2594;1630;65536;0.6759003;-0.7021765;-0.1689751;-0.1468144;11;104;-62;-1581;1164;-76;8192;0.6080332;-0.6995447;-0.3753462;-0.006925208;9;-4;7;1416;3420;224;32768;0.7484583;-0.6592798;0.0401662;0.05955679;26;6;2;18;3702;-322;256;-0.1121884;-0.04847645;-0.9924797;0.006925208;-21;19;7;1418;382;3636;128;0.134349;0.06094183;0.982675;0.1121884;17;12;-1;-1488;1240;-3808;4;-0.4155124;0.4972299;-0.6223662;-0.4390582;14;-7;13;-1358;3946;382;16;-0.1578947;-0.9647667;-0.1814404;0.1066482;-25;43;-2;-2025;-1771;3530;2;0.5803324;-0.4293629;-0.33518;-0.6054058;0;-2;-12;-1704;3858;-560;8;-0.1357341;-0.946395;0.2880886;0.05401662;0;8;-3;2095;-919;2959;1.19374;1.632501;1.934443;1.19346;1.606953;1.389494;1.193191;1.582477;0.9105798;1.191703;1.56854;0.1769136;0.9298899;1.549049;-0.1483892;0.5964405;1.64709;-0.00932546;-0.009685675;0.9468578;-0.0341046;0;0;0;1.447864;1.499449;-0.1485006;1.741771;1.537417;-0.009570837;2.216979;0.7126111;0.1392524;2.21458;-0.2277287;0.02287793;0.881924;1.630407;1.980254;0.8474461;0.2279016;2.395765;1.321191;0.6778721;3.572804;0.881924;1.630407;1.980254;0.8474461;0.2279016;2.395765;1.321191;0.6778721;3.572804
1573011.671;NotLabelled;NONE;16384;0.7306275;-0.5900277;0.2257618;-0.2590028;-64;85;4;1050;2208;944;65536;0.6731302;-0.6997559;-0.1855956;-0.1509695;-9;100;-49;-1411;332;902;8192;0.6066482;-0.7007585;-0.3753462;-0.005540166;-3;-14;18;2866;3674;772;32768;0.7509621;-0.6565097;0.03878116;0.05955679;19;-3;-3;-1132;4152;-208;256;-0.1121884;-0.04570637;-0.9925879;0.009695291;-25;29;13;1220;450;3688;128;0.1357341;0.06094183;0.982797;0.1094183;24;14;-2;-1366;1366;-4118;4;-0.4141274;0.4972299;-0.6213282;-0.4418283;16;-5;10;-1204;4116;362;16;-0.1606648;-0.9625541;-0.1897507;0.1080332;-17;47;0;-1499;-1841;3156;2;0.5817174;-0.4279778;-0.333795;-0.6058223;0;-4;-10;-1838;3918;-492;8;-0.134349;-0.946933;0.2867036;0.05540166;2;10;-5;1987;-1001;3091;1.181606;1.633621;1.940653;1.181309;1.606553;1.395778;1.181026;1.580741;0.9169335;1.179308;1.562672;0.1833582;0.9174022;1.54118;-0.1417435;0.5839339;1.639785;-0.003124952;-0.02967643;0.9464011;-0.03522473;0;0;0;1.435409;1.491917;-0.1417463;1.729336;1.530858;-0.003129244;2.204785;0.7067471;0.1487364;2.194754;-0.2328819;0.02714509;0.8697919;1.631655;1.98648;0.8432616;0.2274227;2.39671;1.318178;0.6896689;3.568508;0.8697919;1.631655;1.98648;0.8432616;0.2274227;2.39671;1.318178;0.6896689;3.568508
1573033.6741;NotLabelled;NONE;16384;0.7330992;-0.5872576;0.2132964;-0.2686981;-47;93;34;276;1684;-686;65536;0.666205;-0.701746;-0.1980609;-0.1565097;-36;80;-23;353;52;1776;8192;0.6066482;-0.7000368;-0.3767313;0;-16;-15;37;3448;3856;928;32768;0.7521706;-0.6551247;0.03878116;0.05955679;20;-13;4;-358;5032;-788;256;-0.1149584;-0.04293629;-0.9923453;0.01385042;-33;37;18;1162;476;3884;128;0.1371191;0.05955679;0.9831434;0.1052632;24;21;-4;-1424;1416;-3854;4;-0.4141274;0.4972299;-0.6193491;-0.4445983;17;-3;5;-882;3908;456;16;-0.1620499;-0.9612129;-0.1952908;0.1080332;-13;27;1;-969;-1839;2968;2;0.5817174;-0.4265928;-0.33241;-0.6075583;-1;-7;-8;-1898;3872;-540;8;-0.134349;-0.9476852;0.2839335;0.0567867;3;10;-8;2131;-1033;3203;1.168434;1.644038;1.95676;1.168103;1.613819;1.41205;1.167789;1.585238;0.9333637;1.165864;1.563589;0.1998857;0.9039546;1.538907;-0.1249862;0.5699477;1.636138;0.01330546;-0.0458244;0.945714;-0.03636207;0;0;0;1.422254;1.492825;-0.1249894;1.715996;1.534243;0.01330042;2.192962;0.7115967;0.1683233;2.182749;-0.227062;0.03947163;0.8566228;1.642336;2.002617;0.8369038;0.2364175;2.407415;1.309301;0.7079961;3.576509;0.8566228;1.642336;2.002617;0.8369038;0.2364175;2.407415;1.309301;0.7079961;3.576509
1573053.9184;NotLabelled;NONE;16384;0.7300221;-0.5941828;0.1869806;-0.2811634;-6;94;28;-6388;2344;1228;65536;0.6620498;-0.7019278;-0.1925208;-0.1786704;-1;32;67;-1881;4598;-490;8192;0.6066482;-0.698517;-0.3795014;0.005540166;-26;-5;46;3044;3948;774;32768;0.7543163;-0.6523545;0.04155125;0.06094183;24;-21;16;-366;5066;-440;256;-0.1163435;-0.03878116;-0.9922622;0.01939058;-40;40;20;860;284;3868;128;0.1371191;0.05817174;0.983519;0.1024931;28;23;-5;-1126;1264;-3964;4;-0.4127424;0.4972299;-0.618278;-0.4473684;19;0;0;-796;3712;342;16;-0.1648199;-0.9600177;-0.1980609;0.1094183;-9;4;3;-845;-1983;3106;2;0.5831025;-0.4265928;-0.33241;-0.6062291;-3;-10;-4;-1770;3934;-684;8;-0.134349;-0.9476013;0.2839335;0.05817174;3;4;-7;2357;-997;3343;1.158254;1.663665;1.957177;1.157873;1.628961;1.412735;1.157516;1.596438;0.9342997;1.155259;1.569023;0.2010152;0.8933069;1.540079;-0.1234706;0.5587593;1.636202;0.01428762;-0.05455633;0.944689;-0.04882336;0;0;0;1.411897;1.497393;-0.1234733;1.705451;1.541818;0.01428264;2.192263;0.7240241;0.1642901;2.180273;-0.2141637;0.03220546;0.8464462;1.662341;2.003075;0.8336751;0.2539608;2.399508;1.309138;0.7301548;3.565485;0.8464462;1.662341;2.003075;0.8336751;0.2539608;2.399508;1.309138;0.7301548;3.565485
1573074.9163;NotLabelled;NONE;16384;0.7181357;-0.5983379;0.1828255;-0.3047091;-17;21;-61;-12226;12830;3822;65536;0.66482;-0.7009939;-0.1939058;-0.1703601;19;-88;-60;4821;18220;1678;8192;0.6066482;-0.6961773;-0.3836565;0.01108033;-24;-2;38;1870;3894;76;32768;0.7587892;-0.6468144;0.04986149;0.05817174;17;-25;15;356;3824;-654;256;-0.1204986;-0.02631579;-0.9918078;0.033241;-44;18;11;-2498;-1264;5578;128;0.1398892;0.05124654;0.9844762;0.09279778;18;15;-4;944;-172;-4486;4;-0.4085872;0.5027701;-0.6145356;-0.4501385;23;13;-13;-764;3838;490;16;-0.16759;-0.9599797;-0.1966759;0.1080332;-6;-2;7;-1169;-1969;3810;2;0.5844875;-0.4265928;-0.3310249;-0.6056529;-6;-10;-2;-1684;3832;-564;8;-0.132964;-0.9477966;0.2839335;0.05817174;1;1;-3;2353;-849;3355;1.169487;1.711257;1.947437;1.169075;1.673704;1.403184;1.168691;1.638677;0.9249253;1.168287;1.599982;0.1921466;0.9073281;1.563539;-0.1323843;0.5715765;1.658546;0.003202796;-0.01670449;0.9455351;-0.05900572;0;0;0;1.426303;1.525848;-0.1306827;1.719117;1.575204;0.006966174;2.223773;0.7704123;0.1679311;2.207649;-0.1676103;0.03511202;0.8576822;1.710174;1.993359;0.8516654;0.3022556;2.39159;1.32698;0.7927119;3.5517;0.8576822;1.710174;1.993359;0.8516654;0.3022556;2.39159;1.32698;0.7927119;3.5517
1573096.6803;NotLabelled;NONE;16384;0.7334943;-0.5831025;0.199446;-0.2867036;-75;-187;-7;-338;2446;956;65536;0.66482;-0.6984126;-0.199446;-0.1745152;16;127;7;-4293;-1920;-1408;8192;0.6108033;-0.6938395;-0.3808864;0.02077562;-26;-35;-2;1068;2628;52;32768;0.7591392;-0.6454294;0.05540166;0.06371191;-2;-27;-5;460;3144;-290;256;-0.1218837;-0.02908587;-0.9914644;0.03601108;-3;-25;17;-920;-2082;5294;128;0.1412742;0.04986149;0.9844791;0.09141274;6;6;-13;1070;-620;-4744;4;-0.4072022;0.5055401;-0.6131809;-0.4501385;26;19;-19;-478;4068;640;16;-0.1689751;-0.9598917;-0.1966759;0.1066482;-7;0;9;-1253;-1817;4078;2;0.5858725;-0.4252077;-0.33241;-0.6045291;-13;-5;-3;-1384;3798;-590;8;-0.1315789;-0.9484036;0.2825485;0.05817174;0;6;2;2583;-565;3037;1.184137;1.74479;1.946051;1.183616;1.697387;1.402568;1.183137;1.653704;0.9250219;1.180791;1.600665;0.1931451;0.919625;1.550525;-0.129386;0.5818843;1.638659;0.005902082;-0.03064737;0.9457552;-0.04903978;0;0;0;1.439461;1.527529;-0.1293891;1.731329;1.587814;0.005896449;2.241948;0.7827067;0.1449885;2.205494;-0.1528705;-0.0004544258;0.8723409;1.74454;1.992047;0.893967;0.3338952;2.379957;1.377494;0.8242736;3.536702;0.8723409;1.74454;1.992047;0.893967;0.3338952;2.379957;1.377494;0.8242736;3.536702
1573117.6823;NotLabelled;NONE;16384;0.7351205;-0.5844875;0.1952908;-0.2825485;28;63;31;2114;3180;-2470;65536;0.666205;-0.6970916;-0.199446;-0.1745152;5;-36;8;169;5238;-1336;8192;0.6121883;-0.6955474;-0.3753462;0.0235457;-10;-32;-16;2716;4154;100;32768;0.7589017;-0.6454294;0.05540166;0.06648199;-7;-13;-10;-236;4536;-442;256;-0.1232687;-0.033241;-0.9912118;0.03462604;10;-27;5;946;-1114;5672;128;0.1440443;0.04986149;0.9840776;0.09141274;-4;-10;-13;404;-22;-5194;4;-0.4044321;0.5096953;-0.6115723;-0.4501385;23;28;-20;-712;4540;434;16;-0.1703601;-0.959515;-0.1980609;0.1052632;-7;2;11;-1079;-1649;4294;2;0.5872576;-0.4238227;-0.333795;-0.6033935;-12;6;-6;-1302;3132;-438;8;-0.1315789;-0.9484036;0.2825485;0.05817174;3;8;5;2587;-631;2957;1.187963;1.744084;1.967572;1.187427;1.695271;1.424213;1.186934;1.650349;0.9467825;1.184114;1.592747;0.2152525;0.9226167;1.541823;-0.1068863;0.5853363;1.632392;0.02794093;-0.03238248;0.9458623;-0.04574419;0;0;0;1.442338;1.516378;-0.106889;1.734529;1.576131;0.02793628;2.255543;0.7752423;0.1520282;2.216733;-0.1599643;0.004819632;0.8761686;1.743953;2.013577;0.9073462;0.3338304;2.402731;1.390207;0.8270159;3.55856;0.8761686;1.743953;2.013577;0.9073462;0.3338304;2.402731;1.390207;0.8270159;3.55856
1573138.7062;NotLabelled;NONE;16384;0.7319614;-0.5900277;0.1883656;-0.2839335;6;38;35;-2894;4974;2468;65536;0.666205;-0.6971384;-0.1980609;-0.1759003;-5;14;30;-1333;3512;124;8192;0.6135734;-0.6958163;-0.3725762;0.0235457;-2;-3;-23;4424;4610;378;32768;0.7577962;-0.6468144;0.05263158;0.06786703;-8;-5;-12;-140;5330;-658;256;-0.1232687;-0.03462604;-0.9912573;0.03185596;16;-8;-3;844;-274;5728;128;0.1440443;0.04986149;0.9842053;0.0900277;7;7;-3;-610;906;-5450;4;-0.4030471;0.5152354;-0.6088562;-0.4487534;19;21;-15;-1430;4874;166;16;-0.1703601;-0.959379;-0.199446;0.1038781;-7;10;14;-965;-1299;4370;2;0.5872576;-0.4210526;-0.33518;-0.6045639;-8;19;-8;-2024;2926;-456;8;-0.1315789;-0.9484036;0.2825485;0.05817174;5;7;9;2555;-681;3037;1.179496;1.745366;1.971593;1.178958;1.696363;1.428252;1.178463;1.651275;0.9508369;1.175223;1.594891;0.2192134;0.9133335;1.546709;-0.1030287;0.5768206;1.639915;0.03191918;-0.03259163;0.9460287;-0.04202053;0;0;0;1.432821;1.516861;-0.1030316;1.725495;1.573915;0.03191388;2.244399;0.7709572;0.151383;2.208441;-0.1642493;0.003450871;0.8677015;1.74525;2.0176;0.9136765;0.336427;2.409979;1.395104;0.8326781;3.565094;0.8677015;1.74525;2.0176;0.9136765;0.336427;2.409979;1.395104;0.8326781;3.565094
1573160.9364;NotLabelled;NONE;16384;0.7344313;-0.5900277;0.1828255;-0.2811634;-5;-9;27;-2084;2974;52;65536;0.666205;-0.6961594;-0.1939058;-0.1842105;-5;11;33;-103;4256;-414;8192;0.6163435;-0.6935297;-0.3725762;0.01800554;-7;39;-32;3966;4474;104;32768;0.7565814;-0.6481994;0.05124654;0.06925207;-14;-4;-16;198;4786;-836;256;-0.1232687;-0.03601108;-0.9912931;0.02908587;13;-8;3;456;-188;5238;128;0.1454294;0.04986149;0.9838739;0.09141274;-7;4;-2;-990;1172;-4934;4;-0.4016621;0.5180055;-0.6074193;-0.4487534;11;10;-9;-1532;5062;538;16;-0.1689751;-0.959484;-0.200831;0.1024931;-3;22;15;-715;-1027;4084;2;0.5858725;-0.4196676;-0.33518;-0.6068664;-6;7;-3;-2504;3762;-636;8;-0.1301939;-0.9491719;0.2811634;0.05540166;8;2;11;2173;-913;3181;1.175295;1.748743;1.966167;1.174741;1.698235;1.422963;1.174232;1.651825;0.9456749;1.171027;1.599218;0.21377;0.9090744;1.553595;-0.1087931;0.5728415;1.647262;0.02653331;-0.02888079;0.9461483;-0.04201838;0;0;0;1.428456;1.521961;-0.1087959;1.721283;1.577313;0.026528;2.237205;0.7720548;0.1433959;2.207731;-0.1635777;-0.003273249;0.8635024;1.748755;2.012183;0.9217263;0.3415085;2.408575;1.399185;0.8373464;3.565513;0.8635024;1.748755;2.012183;0.9217263;0.3415085;2.408575;1.399185;0.8373464;3.565513
1573181.6549;NotLabelled;NONE;16384;0.7356579;-0.5927978;0.1772853;-0.2756233;8;3;48;-1638;3844;504;65536;0.66759;-0.6941076;-0.1911357;-0.1897507;-10;11;44;-505;3938;-230;8192;0.6191136;-0.6904943;-0.3739612;0.008310249;-6;48;-48;1978;4446;16;32768;0.7554471;-0.6495845;0.04847645;0.07063711;-22;-6;-25;216;4438;-692;256;-0.1246537;-0.03739612;-0.9911083;0.02770083;13;-7;8;854;-226;5024;128;0.1454294;0.04986149;0.9836126;0.09418282;-29;-9;-7;-904;852;-4252;4;-0.4016621;0.5180055;-0.6084401;-0.4473684;-10;0;-2;-610;4076;504;16;-0.166205;-0.959236;-0.2049861;0.101108;1;14;11;-725;-1149;3684;2;0.5872576;-0.4196676;-0.33518;-0.6055261;-4;-11;0;-2014;3952;-460;8;-0.1301939;-0.9492518;0.2811634;0.05401662;8;3;10;1917;-1069;3237;1.183314;1.746285;1.974225;1.182775;1.697188;1.430892;1.18228;1.652017;0.953485;1.179137;1.603187;0.2213184;0.9171361;1.560127;-0.1015577;0.5811823;1.654251;0.03414339;-0.01208651;0.9465811;-0.04044747;0;0;0;1.436406;1.526706;-0.1015605;1.729376;1.580355;0.03413898;2.23843;0.7700849;0.1463981;2.213599;-0.1659997;0.001772165;0.8715202;1.746178;2.020232;0.9380821;0.3396506;2.417862;1.412655;0.8315969;3.577646;0.8715202;1.746178;2.020232;0.9380821;0.3396506;2.417862;1.412655;0.8315969;3.577646
1573201.6711;NotLabelled;NONE;16384;0.735667;-0.5969529;0.1717452;-0.2700831;11;-4;52;-2384;4082;870;65536;0.66759;-0.6933278;-0.1883656;-0.1952908;-10;12;52;-341;4376;232;8192;0.6274238;-0.6874747;-0.365651;-0.004155125;-9;-27;-59;1798;3820;1200;32768;0.7504548;-0.6551247;0.0401662;0.07756232;-28;0;-38;-74;3958;-210;256;-0.1246537;-0.03601108;-0.991357;0.01939058;35;3;-2;116;-526;4482;128;0.1468144;0.04986149;0.9825755;0.1024931;-27;0;2;-174;582;-4330;4;-0.4030471;0.5166205;-0.6097173;-0.4459834;-18;16;0;-642;3882;558;16;-0.1648199;-0.9596199;-0.2049861;0.09972299;3;3;11;-889;-1159;3400;2;0.5886427;-0.4210526;-0.33518;-0.6032154;0;4;4;-1422;3662;38;8;-0.1288089;-0.9500032;0.2797784;0.05124654;7;-2;0;1609;-889;3465;1.182327;1.746801;1.97852;1.181821;1.700715;1.434923;1.181354;1.65819;0.9572732;1.178179;1.611056;0.2249956;0.9160998;1.569526;-0.09801748;0.580409;1.664346;0.03784999;-0.001082834;0.9468511;-0.03561023;0;0;0;1.435267;1.534546;-0.09802008;1.728376;1.587002;0.03784549;2.227125;0.7696658;0.145017;2.20838;-0.1667713;0.001764178;0.8705297;1.746439;2.024507;0.9359251;0.3410375;2.426289;1.410701;0.8260981;3.588886;0.8705297;1.746439;2.024507;0.9359251;0.3410375;2.426289;1.410701;0.8260981;3.588886
1573221.6787;NotLabelled;NONE;16384;0.7368811;-0.599723;0.16759;-0.2631579;7;-11;52;-2584;3446;894;65536;0.66759;-0.6920525;-0.1842105;-0.2036011;-11;5;55;167;4444;78;8192;0.632964;-0.6867433;-0.3573407;-0.006925208;-23;-23;-63;2410;3312;480;32768;0.7467918;-0.6592798;0.03462604;0.08033241;-30;10;-43;-172;3754;-240;256;-0.1246537;-0.03462604;-0.9914992;0.01385042;34;0;-1;-6;-242;4136;128;0.1468144;0.04847645;0.9822025;0.1066482;-26;5;1;-238;750;-4016;4;-0.4072022;0.5166205;-0.6089759;-0.4432133;-19;22;-1;-884;3734;498;16;-0.1648199;-0.9597629;-0.2049861;0.09833795;5;-1;11;-1117;-1195;3204;2;0.5872576;-0.4210526;-0.3365651;-0.6037939;0;8;5;-1798;3696;-124;8;-0.1274238;-0.9505211;0.2783934;0.05263158;5;-2;-5;1655;-677;3543;1.179731;1.725153;1.979098;1.179323;1.688019;1.434816;1.178943;1.65336;0.9565302;1.176621;1.61856;0.2235597;0.9149324;1.582305;-0.1004041;0.5790262;1.674608;0.03666013;0.01011973;0.9468454;-0.03431173;0;0;0;1.434122;1.547668;-0.1004072;1.727044;1.598018;0.03665495;2.200868;0.7642947;0.1297779;2.206214;-0.1732885;-0.00695765;0.8679256;1.724036;2.025016;0.9255198;0.318967;2.429151;1.397415;0.7998565;3.594649;0.8679256;1.724036;2.025016;0.9255198;0.318967;2.429151;1.397415;0.7998565;3.594649
1573262.6938;NotLabelled;NONE;16384;0.7376994;-0.6066482;0.1578947;-0.2506925;15;-6;57;-2020;3044;466;65536;0.66759;-0.6910442;-0.1717452;-0.2174515;-7;4;60;249;4060;376;8192;0.6440443;-0.6825221;-0.3448753;-0.02077562;-3;18;-90;1028;2892;-430;32768;0.7406515;-0.666205;0.01523546;0.08587258;-35;39;-64;80;3456;62;256;-0.1232687;-0.033241;-0.9918126;0.002770083;31;-1;0;642;158;3730;128;0.1468144;0.04570637;0.9813975;0.1149584;-29;3;0;-672;1070;-3684;4;-0.4127424;0.5193906;-0.6088814;-0.434903;-17;33;-8;-1266;3746;178;16;-0.1620499;-0.9600556;-0.2077562;0.09418282;8;14;16;-2089;-2249;3288;2;0.5872576;-0.4196676;-0.3379501;-0.6039845;-1;0;4;-2088;3572;-486;8;-0.1246537;-0.951215;0.2770083;0.05401662;0;4;-8;2177;-595;3471;1.18354;1.715759;1.98226;1.183184;1.683353;1.437677;1.18285;1.65285;0.9591086;1.181118;1.626361;0.2257888;0.9197195;1.593428;-0.09876242;0.5835863;1.683714;0.039085;0.02688814;0.9465953;-0.03212299;0;0;0;1.438956;1.559495;-0.09876549;1.731706;1.608684;0.0390799;2.192509;0.7666484;0.1222188;2.212102;-0.1716338;-0.008281589;0.8717303;1.714242;2.028138;0.9181077;0.3087959;2.432402;1.386246;0.7889844;3.599703;0.8717303;1.714242;2.028138;0.9181077;0.3087959;2.432402;1.386246;0.7889844;3.599703
1573282.834;NotLabelled;NONE;16384;0.7358104;-0.6177285;0.1468144;-0.2354571;33;-9;62;-1756;3044;432;65536;0.6703601;-0.6879392;-0.1565097;-0.2299169;-2;-20;65;321;4024;330;8192;0.6481994;-0.6821748;-0.3365651;-0.03462604;25;13;-109;750;2800;-504;32768;0.7379751;-0.6689751;0.002770083;0.08864266;-39;45;-74;-12;3448;184;256;-0.1232687;-0.033241;-0.9918165;0;27;0;-2;450;334;3652;128;0.1468144;0.04432133;0.9809654;0.1191136;-29;2;0;-560;1168;-3640;4;-0.4127424;0.5235457;-0.6082762;-0.4307479;-15;19;-20;-1608;3738;-144;16;-0.1592798;-0.9597459;-0.2119114;0.09279778;9;38;18;-2265;-2997;3332;2;0.5872576;-0.4210526;-0.3379501;-0.6030198;0;-7;3;-1970;3480;-514;8;-0.1246537;-0.9510537;0.2770083;0.0567867;0;0;-6;2425;-619;3261;1.191781;1.694494;1.984181;1.191529;1.671557;1.439117;1.191286;1.649373;0.960091;1.190629;1.639327;0.2263604;0.9297051;1.613692;-0.09923041;0.5933728;1.700887;0.04011369;0.06220809;0.9450159;-0.02953307;0;0;0;1.44894;1.579736;-0.09923393;1.74149;1.625805;0.04010832;2.16995;0.7652245;0.1041205;2.2284;-0.1723115;-0.01996589;0.8799627;1.692182;2.029966;0.9086545;0.2899442;2.446818;1.363731;0.7615111;3.622767;0.8799627;1.692182;2.029966;0.9086545;0.2899442;2.446818;1.363731;0.7615111;3.622767
1573303.8449;NotLabelled;NONE;16384;0.7342967;-0.6232687;0.1440443;-0.2271468;39;-19;58;-2062;3034;1246;65536;0.6717451;-0.6865532;-0.1481994;-0.2354571;-6;-11;66;335;3828;-160;8192;0.6509695;-0.6864541;-0.3171745;-0.06648199;37;44;-107;1800;2956;372;32768;0.7294187;-0.6772853;-0.02493075;0.09279778;-44;51;-74;-1110;3962;-176;256;-0.1232687;-0.03185596;-0.9918271;-0.008310249;24;0;2;296;436;3354;128;0.1481994;0.04155125;0.9798334;0.1274238;-19;10;-3;-502;1200;-3412;4;-0.4099723;0.5304709;-0.6118844;-0.4196676;-12;29;-46;-2344;4090;890;16;-0.1537396;-0.9576218;-0.2257618;0.09141274;12;40;12;-1813;-3687;3390;2;0.5886427;-0.4210526;-0.3365651;-0.6024437;0;-11;2;-1990;3498;-514;8;-0.1232687;-0.9508297;0.2783934;0.0567867;2;-4;-2;2591;-635;3141;1.19632;1.699503;1.981727;1.19612;1.681303;1.436484;1.195922;1.663283;0.9572831;1.195525;1.65727;0.2235076;0.934702;1.633603;-0.1023129;0.5983788;1.720261;0.03738788;0.09892894;0.9421163;-0.02065751;0;0;0;1.453914;1.599291;-0.1023155;1.746444;1.644394;0.03738254;2.146986;0.7700999;0.0961417;2.22789;-0.1659154;-0.0268122;0.8844975;1.696792;2.02746;0.9153581;0.2977018;2.454607;1.367212;0.7622399;3.63459;0.8844975;1.696792;2.02746;0.9153581;0.2977018;2.454607;1.367212;0.7622399;3.63459
1573323.6812;NotLabelled;NONE;16384;0.7350017;-0.6260388;0.1412742;-0.2188366;28;-14;49;-1842;3244;1780;65536;0.6731302;-0.6845273;-0.1398892;-0.2423823;-9;-9;61;1293;3850;-114;8192;0.6509695;-0.6860837;-0.3144044;-0.08171745;22;46;-89;2484;3706;1028;32768;0.7260512;-0.6800554;-0.03878116;0.09418282;-38;37;-61;-1262;4730;-2;256;-0.1232687;-0.03185596;-0.9917836;-0.01246537;24;4;7;404;422;3174;128;0.1495845;0.0401662;0.9793165;0.1301939;-14;11;-6;-674;1294;-3260;4;-0.4072022;0.536011;-0.6136141;-0.4127424;-2;22;-57;-2326;4236;-24;16;-0.1495845;-0.9569575;-0.2313019;0.09141274;19;30;12;-1961;-3869;3264;2;0.5914127;-0.4238227;-0.33518;-0.598548;-4;-9;5;-1464;3740;-480;8;-0.1218837;-0.950193;0.2811634;0.0567867;6;-5;10;2543;-791;3285;1.1997;1.674003;1.977815;1.199603;1.665195;1.432339;1.199496;1.655432;0.9528991;1.19991;1.661765;0.2191267;0.9394622;1.643404;-0.1073353;0.6029242;1.727467;0.03342894;0.1172591;0.9400916;-0.01655063;0;0;0;1.458698;1.609455;-0.1073385;1.751042;1.652403;0.03342378;2.085343;0.7509181;0.09542274;2.215479;-0.1808834;-0.01681674;0.8878683;1.670505;2.023436;0.9192343;0.2826424;2.485728;1.36527;0.7346039;3.672787;0.8878683;1.670505;2.023436;0.9192343;0.2826424;2.485728;1.36527;0.7346039;3.672787
1573364.8189;NotLabelled;NONE;16384;0.7350526;-0.6288089;0.1371191;-0.2132964;15;13;44;-1158;3032;1244;65536;0.6745152;-0.6828255;-0.1315789;-0.2479224;-13;-8;54;1131;3420;-58;8192;0.6537396;-0.6845554;-0.3088643;-0.09279778;4;11;-69;2208;4404;1496;32768;0.7226799;-0.6828254;-0.04847645;0.09556787;-29;30;-43;-1382;4366;224;256;-0.1246537;-0.03047091;-0.9916153;-0.01523546;20;2;8;858;690;3202;128;0.1509695;0.03878116;0.9789746;0.1315789;-9;8;-9;-824;1452;-3346;4;-0.4016621;0.5415512;-0.6170108;-0.4058172;-5;24;-70;-2396;4388;140;16;-0.1454294;-0.9569244;-0.234072;0.09141274;28;17;16;-2215;-3679;3280;2;0.5914127;-0.4252077;-0.3365651;-0.5967858;-6;0;5;-1378;3862;-472;8;-0.1218837;-0.9503545;0.2811634;0.05401662;6;-1;14;2507;-937;3297;1.206226;1.665188;1.9814;1.206164;1.659522;1.435883;1.206087;1.652519;0.9563942;1.206909;1.664899;0.2226994;0.9466215;1.649497;-0.1040436;0.6100926;1.732743;0.03722787;0.1373942;0.9374363;-0.01148256;0;0;0;1.465822;1.615018;-0.1040468;1.758133;1.656503;0.03722209;2.068379;0.7465937;0.1011599;2.221221;-0.182158;-0.007683158;0.894392;1.661428;2.026981;0.930248;0.2815751;2.512346;1.376922;0.7239189;3.702784;0.894392;1.661428;2.026981;0.930248;0.2815751;2.512346;1.376922;0.7239189;3.702784
1573384.7975;NotLabelled;NONE;16384;0.7335427;-0.632964;0.1301939;-0.2105263;23;27;39;-1804;2706;90;65536;0.6745152;-0.6826035;-0.1246537;-0.2520775;-14;-1;51;773;3498;158;8192;0.6565097;-0.6834068;-0.3033241;-0.09972299;4;-4;-52;1518;3550;1226;32768;0.7193674;-0.6855956;-0.05540166;0.09695291;-24;23;-27;-1442;3772;152;256;-0.1246537;-0.02908587;-0.9916105;-0.01800554;16;8;6;904;666;3338;128;0.1523546;0.03739612;0.9786267;0.132964;-1;9;-7;-884;1536;-3468;4;-0.3961219;0.5484765;-0.6198785;-0.3975069;0;26;-83;-2410;4300;94;16;-0.1398892;-0.9575416;-0.2354571;0.0900277;32;1;18;-2485;-3599;3814;2;0.5900277;-0.4252077;-0.3379501;-0.5973738;-6;6;8;-1552;3794;-486;8;-0.1232687;-0.9503293;0.2811634;0.05124654;3;1;15;2339;-1063;3207;1.212689;1.662173;1.982364;1.212644;1.658135;1.436832;1.212583;1.652563;0.957325;1.213652;1.66916;0.2237133;0.9535167;1.655106;-0.1032117;0.6167665;1.736853;0.03840664;0.1556347;0.934622;-0.007534403;0;0;0;1.472786;1.621683;-0.1032149;1.76496;1.662952;0.0384019;2.053655;0.7455556;0.09597671;2.223214;-0.1807861;-0.008560181;0.9008529;1.658277;2.027923;0.9469336;0.2890038;2.541562;1.398993;0.7213104;3.733653;0.9008529;1.658277;2.027923;0.9469336;0.2890038;2.541562;1.398993;0.7213104;3.733653
1573405.6707;NotLabelled;NONE;16384;0.7279708;-0.6412742;0.1274238;-0.2063712;27;-27;25;-3020;3442;860;65536;0.6745152;-0.6818725;-0.1108033;-0.2603878;-8;-36;32;1769;3740;282;8192;0.6578947;-0.6826794;-0.300554;-0.1038781;10;-4;-27;1436;3348;284;32768;0.7175959;-0.6869806;-0.06094183;0.09695291;-18;17;-14;-1492;3624;276;256;-0.1246537;-0.02770083;-0.9915959;-0.02077562;13;8;3;490;580;3792;128;0.1537396;0.03739612;0.9782208;0.134349;-2;8;-4;-710;1506;-3744;4;-0.3891967;0.5567867;-0.6229901;-0.3878116;4;26;-96;-2452;4126;-28;16;-0.134349;-0.9585909;-0.2354571;0.08725762;34;0;23;-2233;-2887;4110;2;0.5900277;-0.4252077;-0.3393352;-0.5965881;-3;4;13;-1988;3826;-578;8;-0.1232687;-0.950403;0.2811634;0.04986149;2;4;16;2127;-1059;3195;1.214546;1.659705;1.979261;1.214519;1.657299;1.433719;1.214474;1.653161;0.9541974;1.215775;1.674043;0.2206959;0.9557889;1.661361;-0.1064037;0.6188194;1.741587;0.03556299;0.1702929;0.932065;-0.007178418;0;0;0;1.475126;1.629009;-0.1064067;1.767163;1.670052;0.03555852;2.039655;0.7473748;0.08743632;2.222423;-0.1770561;-0.0116111;0.9027085;1.655672;2.024797;0.9582329;0.2988207;2.569525;1.410886;0.716548;3.766579;0.9027085;1.655672;2.024797;0.9582329;0.2988207;2.569525;1.410886;0.716548;3.766579
1573425.6741;NotLabelled;NONE;16384;0.7269648;-0.6440443;0.1301939;-0.199446;20;-35;12;-2440;3796;746;65536;0.6759003;-0.6818007;-0.1024931;-0.2603878;-6;-49;18;1717;4028;-76;8192;0.6551247;-0.6846954;-0.300554;-0.1080332;12;31;-6;1866;4126;136;32768;0.7132077;-0.6911357;-0.06925207;0.09418282;-11;40;-2;-1136;4402;368;256;-0.1246537;-0.02770083;-0.991534;-0.0235457;10;6;2;502;454;4160;128;0.1537396;0.03601108;0.9782728;0.134349;-1;8;-5;-458;1380;-4098;4;-0.3698061;0.5761772;-0.6289111;-0.368421;14;35;-113;-1630;4504;40;16;-0.1204986;-0.9602345;-0.2382271;0.08171745;43;13;37;-1993;-1753;4176;2;0.5886427;-0.4265928;-0.3393352;-0.5969673;-3;-13;16;-2312;3790;-608;8;-0.1232687;-0.9509528;0.2797784;0.04709141;2;5;12;2023;-913;3289;1.2325;1.653804;1.963892;1.23249;1.652827;1.418346;1.232458;1.649946;0.9388145;1.233974;1.675112;0.2054482;0.9741291;1.663805;-0.1218148;0.6369451;1.742506;0.02049565;0.1995092;0.926257;-0.006257743;0;0;0;1.493532;1.632523;-0.1218174;1.785434;1.673338;0.02049065;2.048866;0.7478727;0.06941521;2.240204;-0.1751218;-0.02680433;0.920662;1.649652;2.009409;0.9883231;0.3085061;2.590449;1.438861;0.7105738;3.793646;0.920662;1.649652;2.009409;0.9883231;0.3085061;2.590449;1.438861;0.7105738;3.793646
1573446.7349;NotLabelled;NONE;16384;0.7263628;-0.6454294;0.132964;-0.1952908;18;-22;2;-2048;3544;802;65536;0.6772853;-0.6831976;-0.09418282;-0.2562327;-6;-48;5;1529;4012;192;8192;0.6523545;-0.685222;-0.3033241;-0.1135734;19;35;-2;1170;4278;-146;32768;0.7135021;-0.6911357;-0.0734072;0.08864266;-9;38;-1;-760;4402;182;256;-0.1260388;-0.02770083;-0.9912893;-0.02631579;8;2;3;686;226;4388;128;0.1551246;0.033241;0.9781522;0.134349;-4;9;-6;-442;1024;-4294;4;-0.3587258;0.5872576;-0.6314681;-0.3573407;14;44;-119;-1674;4692;216;16;-0.1108033;-0.9610552;-0.2409972;0.07756232;51;26;49;-1631;-1207;4222;2;0.5961329;-0.4307479;-0.3379501;-0.5872576;-1;-34;14;-1988;3550;-376;8;-0.1232687;-0.952233;0.2756233;0.04570637;2;10;5;1687;-589;3423;1.237434;1.648707;1.957851;1.237425;1.647936;1.412305;1.237396;1.645236;0.9327728;1.239174;1.674431;0.1995558;0.9794311;1.665101;-0.1278497;0.6422536;1.743252;0.01477939;0.2103822;0.9238546;-0.005332455;0;0;0;1.498812;1.633462;-0.1278528;1.790694;1.673293;0.0147742;2.048136;0.7465432;0.07076263;2.250287;-0.17519;-0.01485705;0.9255949;1.644539;2.003365;1.032034;0.3429697;2.663249;1.479468;0.7069209;3.879667;0.9255949;1.644539;2.003365;1.032034;0.3429697;2.663249;1.479468;0.7069209;3.879667
1573467.7066;NotLabelled;NONE;16384;0.7265899;-0.6454294;0.1357341;-0.1925208;17;-19;2;-1796;3578;674;65536;0.6786703;-0.6835977;-0.08864266;-0.2534626;-8;-39;-1;1011;3876;12;8192;0.6509695;-0.6846058;-0.3060942;-0.1177285;18;21;-2;742;4048;406;32768;0.7120569;-0.6925207;-0.07756232;0.08587258;-11;25;-1;-850;3992;-16;256;-0.1260388;-0.02770083;-0.9912515;-0.02770083;8;2;1;724;246;4082;128;0.1565097;0.03185596;0.9777864;0.1357341;-5;6;-5;-508;1084;-4154;4;-0.3476454;0.599723;-0.6328791;-0.3448753;13;50;-119;-1850;4450;92;16;-0.09972299;-0.9617515;-0.2451524;0.07063711;59;35;61;-1339;-359;4046;2;0.5989804;-0.433518;-0.3365651;-0.5831025;0;-34;14;-1792;3480;-266;8;-0.1232687;-0.9530304;0.2728532;0.04570637;2;8;0;1781;-593;3399;1.240468;1.642556;1.949594;1.240463;1.642117;1.404047;1.240437;1.639709;0.9245141;1.242482;1.67287;0.1914665;0.9828417;1.665507;-0.1360707;0.6456754;1.743138;0.006868213;0.2157651;0.9225945;-0.00780642;0;0;0;1.502199;1.633478;-0.1360734;1.794063;1.672316;0.006863296;2.047379;0.7447569;0.06801665;2.248034;-0.1773918;-0.01664686;0.9286293;1.638358;1.995103;1.058818;0.3615592;2.697736;1.506379;0.6986022;3.921834;0.9286293;1.638358;1.995103;1.058818;0.3615592;2.697736;1.506379;0.6986022;3.921834
1573489.7456;NotLabelled;NONE;16384;0.7258266;-0.6468144;0.1371191;-0.1897507;14;-15;1;-1848;3898;846;65536;0.6800554;-0.6841026;-0.08587258;-0.2493075;-11;-20;-2;1003;3946;-258;8192;0.6495845;-0.6850609;-0.3074792;-0.1191136;17;9;3;1030;3840;638;32768;0.7107288;-0.6939058;-0.08033241;0.08310249;-13;21;0;-1106;3920;206;256;-0.1260388;-0.02770083;-0.9912118;-0.02908587;8;0;0;514;182;3958;128;0.1565097;0.03047091;0.9778305;0.1357341;-2;7;-3;-426;1098;-3954;4;-0.3379501;0.6094183;-0.634807;-0.333795;7;31;-115;-2266;4246;24;16;-0.08587258;-0.9625033;-0.2493075;0.06371191;62;40;69;-1231;633;4018;2;0.599659;-0.4362881;-0.3365651;-0.5803324;1;-33;15;-1622;3606;-110;8;-0.1218837;-0.9536039;0.2714681;0.04570637;2;3;-2;1889;-713;3347;1.243947;1.635855;1.947946;1.24396;1.637062;1.4024;1.243949;1.6361;0.9228616;1.246131;1.671273;0.1899084;0.9865435;1.664901;-0.137691;0.6493798;1.742257;0.00540331;0.2193592;0.9217471;-0.007800229;0;0;0;1.505889;1.632691;-0.1376944;1.797743;1.671036;0.005397797;2.04883;0.7430199;0.06878126;2.25263;-0.1788136;-0.01169455;0.9321061;1.631521;1.993432;1.084186;0.3826925;2.740531;1.52255;0.687548;3.976342;0.9321061;1.631521;1.993432;1.084186;0.3826925;2.740531;1.52255;0.687548;3.976342
1573510.6735;NotLabelled;NONE;16384;0.7233551;-0.6495845;0.1426593;-0.1855956;18;-23;-4;-2180;3400;-82;65536;0.6786703;-0.6881357;-0.08033241;-0.2437673;-11;-35;-9;1275;3958;366;8192;0.6468144;-0.6868144;-0.3088643;-0.1204986;19;16;7;1410;3834;474;32768;0.7093739;-0.6952909;-0.08310249;0.08033241;-13;23;3;-1136;3874;124;256;-0.1260388;-0.02770083;-0.9911702;-0.03047091;7;-3;-2;304;248;4016;128;0.1565097;0.02908587;0.9778727;0.1357341;-4;-1;0;-136;1088;-3800;4;-0.3268698;0.6163435;-0.6396343;-0.3227147;-2;4;-104;-2210;3896;178;16;-0.06925207;-0.9629058;-0.2548476;0.05540166;61;46;72;-1431;1535;3758;2;0.6014016;-0.4404432;-0.33518;-0.5761772;3;-32;15;-1478;3620;-94;8;-0.1218837;-0.9535365;0.2714681;0.04709141;2;-5;-4;2203;-865;3481;1.239775;1.634327;1.94433;1.239791;1.635746;1.398784;1.239782;1.63497;0.9192455;1.242102;1.672157;0.1863921;0.9825683;1.666776;-0.1412685;0.6454071;1.743855;0.001980782;0.2175115;0.9221857;-0.007713743;0;0;0;1.501903;1.634385;-0.1412713;1.793745;1.672234;0.001975656;2.044524;0.7443492;0.06841385;2.249557;-0.1775775;-0.007745981;0.9279343;1.629975;1.989812;1.096146;0.4072115;2.775568;1.52743;0.6725168;4.022938;0.9279343;1.629975;1.989812;1.096146;0.4072115;2.775568;1.52743;0.6725168;4.022938
1573531.663;NotLabelled;NONE;16384;0.7203295;-0.6523545;0.1537396;-0.1786704;14;-46;-2;-1850;3700;386;65536;0.6800554;-0.6925845;-0.07063711;-0.2299169;-6;-54;-15;621;3692;98;8192;0.6398892;-0.6887696;-0.3171745;-0.1246537;12;-1;9;804;3978;80;32768;0.7044377;-0.700831;-0.08725762;0.07063711;-13;-3;7;-610;4064;212;256;-0.1218837;-0.02908587;-0.9915611;-0.033241;9;-1;-12;282;-214;3864;128;0.1551246;0.03047091;0.9778579;0.1371191;-4;-6;7;-28;668;-3848;4;-0.3088643;0.6163435;-0.6597132;-0.299169;-36;-32;-48;-792;2738;318;16;-0.02770083;-0.9611739;-0.2728532;0.03047091;30;29;46;-1765;1811;2724;2;0.6075425;-0.4501385;-0.33241;-0.5637119;4;-41;14;-1286;3688;-202;8;-0.1204986;-0.9520486;0.2770083;0.04847645;0;-8;-3;2171;-795;3239;1.239673;1.63103;1.925291;1.239691;1.632661;1.379746;1.239684;1.632072;0.9002072;1.242143;1.671272;0.1674592;0.9826639;1.666882;-0.160259;0.6455048;1.743684;-0.01685607;0.2173049;0.9221159;-0.01666981;0;0;0;1.501987;1.63431;-0.1602621;1.793818;1.671664;-0.01686192;2.04405;0.7441307;0.05621266;2.250293;-0.1778762;-0.01558828;0.927832;1.626661;1.970771;1.10929;0.4330577;2.797356;1.531863;0.6506144;4.05689;0.927832;1.626661;1.970771;1.10929;0.4330577;2.797356;1.531863;0.6506144;4.05689
1573571.6771;NotLabelled;NONE;16384;0.7210509;-0.6523545;0.1551246;-0.1745152;7;-14;-4;-1070;4128;248;65536;0.6814404;-0.6927299;-0.06925207;-0.2257618;-7;-11;-11;607;4216;2;8192;0.6385041;-0.6909373;-0.3157895;-0.1232687;14;-19;7;996;3924;30;32768;0.702216;-0.7033952;-0.08448754;0.07063711;-14;-12;5;-770;3882;134;256;-0.1191136;-0.02908587;-0.9918503;-0.03462604;10;0;-14;152;-244;3832;128;0.1537396;0.03185596;0.9780325;0.1371191;-4;-11;8;-72;536;-4070;4;-0.3074792;0.6135734;-0.6654069;-0.2936288;-32;-25;-34;-520;2226;356;16;-0.0235457;-0.9602184;-0.2770083;0.02631579;18;20;31;-1915;1697;2278;2;0.6097959;-0.4542936;-0.3296399;-0.5595568;9;-38;10;-1114;3590;-366;8;-0.1204986;-0.9520486;0.2770083;0.04847645;0;-1;-2;2159;-765;3259;1.236512;1.620986;1.908779;1.236545;1.623994;1.363241;1.236552;1.624617;0.8837016;1.239398;1.667787;0.1511781;0.9800234;1.666005;-0.1766475;0.6430603;1.743106;-0.03294457;0.2115812;0.9233222;-0.02248235;0;0;0;1.49924;1.631774;-0.1766507;1.791137;1.667416;-0.0329501;2.044456;0.7422054;0.05699658;2.248102;-0.1816633;0.004252076;0.9246698;1.616501;1.954239;1.09122;0.4818673;2.862933;1.47041;0.5759404;4.151223;0.9246698;1.616501;1.954239;1.09122;0.4818673;2.862933;1.47041;0.5759404;4.151223
1573592.8847;NotLabelled;NONE;16384;0.7197953;-0.6537396;0.1551246;-0.1745152;6;2;-2;-1438;3522;-96;65536;0.6800554;-0.6945387;-0.06925207;-0.2243767;-7;-5;-8;761;3946;286;8192;0.6371191;-0.6939583;-0.3130194;-0.1204986;10;-19;3;1070;3956;-80;32768;0.699446;-0.7061743;-0.08310249;0.07202215;-17;-18;3;-750;4000;48;256;-0.1177285;-0.02908587;-0.9920157;-0.03462604;12;1;-13;270;-146;4106;128;0.1523546;0.03185596;0.9782493;0.1371191;0;-5;10;-316;502;-4128;4;-0.3060942;0.6108033;-0.6709923;-0.2880886;-27;-20;-21;-556;1924;-82;16;-0.02077562;-0.9599537;-0.2783934;0.0235457;8;9;16;-2043;1585;1824;2;0.6099689;-0.4584487;-0.3282548;-0.5567867;13;-26;8;-860;3438;-258;8;-0.1204986;-0.9519771;0.2770083;0.04986149;0;4;-2;2215;-751;3279;1.229734;1.620913;1.913002;1.229766;1.623792;1.367462;1.229771;1.624299;0.8879229;1.232766;1.669618;0.1555297;0.9734554;1.66884;-0.1723502;0.6364769;1.745574;-0.02848706;0.208019;0.9241796;-0.0204056;0;0;0;1.492667;1.634524;-0.1723531;1.784542;1.669696;-0.02849221;2.037121;0.744854;0.06714261;2.238847;-0.1798471;0.02218246;0.917892;1.61644;1.958464;1.067717;0.4926;2.883339;1.432063;0.5731015;4.176822;0.917892;1.61644;1.958464;1.067717;0.4926;2.883339;1.432063;0.5731015;4.176822
1573613.6935;NotLabelled;NONE;16384;0.7185349;-0.6551247;0.1551246;-0.1745152;5;-6;-1;-1924;3664;-72;65536;0.6800554;-0.6948451;-0.07063711;-0.2229917;-6;0;-4;787;4046;278;8192;0.6357341;-0.6967062;-0.3102493;-0.1191136;10;-18;-4;934;4008;-370;32768;0.6966759;-0.7090845;-0.08033241;0.0734072;-19;-20;-3;-568;4186;314;256;-0.1149584;-0.02908587;-0.9922912;-0.03601108;11;4;-13;312;-252;4128;128;0.1509695;0.03185596;0.9786571;0.1357341;0;1;10;-442;388;-4182;4;-0.3074792;0.6080332;-0.6740515;-0.2853186;-26;-20;-6;-830;2006;-412;16;-0.01939058;-0.9596439;-0.2797784;0.02077562;0;4;5;-2159;1401;1934;2;0.6098872;-0.4612188;-0.3268698;-0.5554016;12;-8;6;-854;3518;-50;8;-0.1204986;-0.9519771;0.2770083;0.04986149;1;3;-1;2081;-607;3313;1.227173;1.621392;1.907063;1.227205;1.624349;1.361523;1.227211;1.624925;0.8819839;1.230208;1.67031;0.1495948;0.9708992;1.669541;-0.1782866;0.6339129;1.746232;-0.03441891;0.2061283;0.9245107;-0.02424841;0;0;0;1.490113;1.63527;-0.1782894;1.781984;1.670454;-0.03442311;2.034194;0.7461042;0.06678337;2.237614;-0.1785554;0.02919233;0.9153306;1.616912;1.952523;1.051146;0.5041194;2.892791;1.406992;0.5754659;4.189175;0.9153306;1.616912;1.952523;1.051146;0.5041194;2.892791;1.406992;0.5754659;4.189175
1573634.7714;NotLabelled;NONE;16384;0.716669;-0.6578947;0.1551246;-0.1717452;10;4;6;-1582;3696;-250;65536;0.6772853;-0.6969594;-0.07202215;-0.2243767;-5;13;4;621;4096;374;8192;0.634349;-0.6989549;-0.3074792;-0.1204986;13;-17;-10;1168;3850;-632;32768;0.6939058;-0.7116513;-0.08033241;0.07479224;-20;-14;-9;-670;4000;318;256;-0.1135734;-0.02770083;-0.9924903;-0.03601108;11;5;-12;446;-380;4308;128;0.1495845;0.03185596;0.9790608;0.134349;-2;9;9;-538;374;-4372;4;-0.3088643;0.6038781;-0.6777285;-0.2839335;-26;-26;6;-1250;2074;-422;16;-0.02077562;-0.9596149;-0.2797784;0.02077562;-11;4;-3;-2317;1187;2040;2;0.6088373;-0.4626039;-0.3268698;-0.5554016;12;3;4;-1180;3686;46;8;-0.1191136;-0.9524797;0.2756233;0.05124654;2;0;0;2081;-609;3337;1.222862;1.622432;1.906835;1.222879;1.623951;1.36129;1.222871;1.623263;0.8817507;1.226015;1.670798;0.149499;0.9667702;1.671028;-0.1784337;0.6297672;1.747345;-0.03440633;0.2026083;0.9253089;-0.02343412;0;0;0;1.48598;1.636683;-0.1784366;1.777827;1.671403;-0.03441149;2.02745;0.7470367;0.07287437;2.230866;-0.1779242;0.0436188;0.9110211;1.618072;1.952317;1.029584;0.5081809;2.89833;1.372129;0.5739324;4.198587;0.9110211;1.618072;1.952317;1.029584;0.5081809;2.89833;1.372129;0.5739324;4.198587
1573655.6745;NotLabelled;NONE;16384;0.7144157;-0.6606648;0.1537396;-0.1717452;8;2;8;-2320;3828;-166;65536;0.6772853;-0.696512;-0.07202215;-0.2257618;-2;11;6;817;4136;388;8192;0.6315789;-0.7035016;-0.3033241;-0.1191136;6;-13;-1;2374;4090;-336;32768;0.6897507;-0.7152328;-0.08033241;0.07894737;-8;-11;-4;-1086;4096;676;256;-0.1121884;-0.02631579;-0.9926342;-0.03739612;11;7;-10;414;-376;4458;128;0.1481994;0.02908587;0.9795466;0.132964;-1;11;8;-558;434;-4358;4;-0.3130194;0.5983379;-0.6795672;-0.2867036;0;-2;22;-1516;2350;-180;16;-0.02631579;-0.9582576;-0.2839335;0.02077562;-29;15;-10;-2901;441;2886;2;0.6047971;-0.4626039;-0.3296399;-0.5581717;6;15;2;-1390;3722;-186;8;-0.1177285;-0.9522501;0.2770083;0.05124654;3;-4;0;1991;-617;3523;1.218808;1.628503;1.896522;1.218809;1.628585;1.350975;1.218788;1.626633;0.8714391;1.221816;1.674469;0.1392065;0.9625791;1.674092;-0.188733;0.6253568;1.749393;-0.04468435;0.2026218;0.9251494;-0.0289776;0;0;0;1.481884;1.641224;-0.1887356;1.773628;1.676716;-0.04468924;2.017153;0.751296;0.06742918;2.223953;-0.1731066;0.04505897;0.906969;1.624264;1.942024;1.011247;0.5153403;2.890851;1.349201;0.5846691;4.192123;0.906969;1.624264;1.942024;1.011247;0.5153403;2.890851;1.349201;0.5846691;4.192123
1573676.9439;NotLabelled;NONE;16384;0.7144157;-0.6606648;0.1537396;-0.1717452;-2;-1;9;-2262;3602;84;65536;0.6759003;-0.6968094;-0.0734072;-0.2285319;-1;15;4;1057;4042;212;8192;0.6315789;-0.7037348;-0.3033241;-0.1177285;0;-8;4;2120;3726;-336;32768;0.6883656;-0.716566;-0.07894737;0.08033241;-1;-12;3;-1258;3898;646;256;-0.1094183;-0.02631579;-0.9928903;-0.03878116;7;2;-7;532;-366;4358;128;0.1468144;0.02908587;0.9797551;0.132964;-3;-4;5;-392;386;-4578;4;-0.3144044;0.5969529;-0.6789713;-0.2894737;2;-14;31;-1968;2588;-504;16;-0.03047091;-0.9568933;-0.2880886;0.02077562;-39;22;-17;-2897;441;3146;2;0.6027573;-0.4626039;-0.3310249;-0.5595568;3;25;0;-1194;3678;-524;8;-0.1163435;-0.9524203;0.2770083;0.05124654;1;-2;0;2121;-605;3581;1.218194;1.630086;1.895854;1.218183;1.629129;1.350308;1.218152;1.626266;0.870777;1.221129;1.676412;0.1386983;0.9619257;1.676409;-0.1892675;0.6244996;1.750401;-0.04501782;0.2045583;0.924764;-0.02763937;0;0;0;1.481312;1.644856;-0.1893197;1.772952;1.680635;-0.04513168;2.011794;0.7550033;0.07501495;2.226168;-0.1678439;0.06142998;0.9063551;1.625933;1.941371;0.9959308;0.5077051;2.880733;1.325776;0.5914844;4.183235;0.9063551;1.625933;1.941371;0.9959308;0.5077051;2.880733;1.325776;0.5914844;4.183235
1573697.7081;NotLabelled;NONE;16384;0.7150438;-0.6606648;0.1523546;-0.1703601;-7;4;11;-1534;3774;62;65536;0.6759003;-0.6957473;-0.07479224;-0.2313019;0;18;2;1035;3974;352;8192;0.6301939;-0.7056566;-0.3033241;-0.1135734;-5;-10;11;1610;3992;-350;32768;0.6883656;-0.7167172;-0.07756232;0.08033241;5;-14;9;-1060;3980;504;256;-0.1080332;-0.02631579;-0.9930419;-0.03878116;3;0;-7;638;-454;4580;128;0.1454294;0.03047091;0.9797307;0.134349;0;-17;6;-432;352;-4708;4;-0.3185596;0.5914127;-0.6800978;-0.2936288;-2;-37;46;-2276;2504;166;16;-0.03739612;-0.9549618;-0.2936288;0.02077562;-51;23;-28;-2791;751;3032;2;0.5991742;-0.4612188;-0.33241;-0.5637119;3;37;-8;-890;3954;-648;8;-0.1163435;-0.9524203;0.2770083;0.05124654;0;-2;3;2269;-845;3669;1.220042;1.626703;1.894913;1.220032;1.625819;1.349366;1.220001;1.623018;0.8698349;1.223183;1.675303;0.137907;0.9640691;1.676287;-0.1901281;0.6266119;1.749895;-0.04575461;0.2066109;0.9242948;-0.0280751;0;0;0;1.483452;1.644679;-0.1901314;1.775056;1.680004;-0.04576004;2.01545;0.7551285;0.07709265;2.230649;-0.1675801;0.06785166;0.9082031;1.622544;1.940428;0.9922512;0.4981612;2.872929;1.310948;0.5927814;4.177463;0.9082031;1.622544;1.940428;0.9922512;0.4981612;2.872929;1.310948;0.5927814;4.177463
1573718.8797;NotLabelled;NONE;16384;0.7156283;-0.6606648;0.1495845;-0.1703601;-6;17;15;-1516;3818;-76;65536;0.6745152;-0.6960148;-0.07617728;-0.234072;1;28;5;653;4094;370;8192;0.6315789;-0.7054527;-0.301939;-0.1108033;-7;-12;8;1034;4290;-636;32768;0.6883656;-0.716855;-0.07479224;0.08171745;6;-16;7;-520;4228;318;256;-0.1066482;-0.02631579;-0.9931366;-0.0401662;1;-2;-6;624;-454;4902;128;0.1440443;0.03462604;0.9796063;0.1357341;-12;-20;6;-544;288;-4286;4;-0.3213296;0.5831025;-0.682328;-0.301939;5;-62;59;-2220;2630;410;16;-0.04570637;-0.9537125;-0.2963989;0.02216066;-58;4;-35;-2561;809;3020;2;0.5958239;-0.4584487;-0.33518;-0.567867;0;50;-11;-566;4036;-650;8;-0.1177285;-0.9523236;0.2770083;0.04986149;-5;-2;7;2427;-1225;3507;1.218937;1.625305;1.900146;1.218943;1.625812;1.354599;1.218925;1.624234;0.8750625;1.222106;1.67658;0.1431392;0.9629934;1.677567;-0.1848974;0.625528;1.751129;-0.04051934;0.2085884;0.9239267;-0.02544195;0;0;0;1.482379;1.646009;-0.1849006;1.77398;1.681351;-0.04052478;2.019479;0.7584699;0.08713025;2.232959;-0.1646469;0.07886887;0.9070973;1.62103;1.945642;0.9787445;0.4853297;2.865376;1.287634;0.5979079;4.170841;0.9070973;1.62103;1.945642;0.9787445;0.4853297;2.865376;1.287634;0.5979079;4.170841
1573739.8504;NotLabelled;NONE;16384;0.7160035;-0.6634349;0.1398892;-0.166205;1;2;32;-1488;4228;18;65536;0.6731302;-0.6938796;-0.08171745;-0.2423823;1;34;21;471;4430;216;8192;0.6315789;-0.7056689;-0.301939;-0.1094183;-4;-8;-3;814;4354;-1062;32768;0.6883656;-0.7171386;-0.07202215;0.08171745;3;-12;-1;-308;4560;184;256;-0.1066482;-0.02631579;-0.9931366;-0.0401662;1;0;-5;662;-460;5196;128;0.1440443;0.03601108;0.9791685;0.1385041;-33;-2;9;-692;400;-4364;4;-0.3240997;0.5747922;-0.6837085;-0.3116343;13;-55;63;-2102;3328;110;16;-0.05540166;-0.954375;-0.2922437;0.02631579;-58;-49;-55;-1971;297;2990;2;0.5899887;-0.4570637;-0.3379501;-0.5734072;3;38;-7;-1112;3780;-496;8;-0.1204986;-0.9516445;0.2783934;0.04847645;-13;-8;9;2691;-1545;3227;1.217662;1.621802;1.902411;1.217679;1.62332;1.356866;1.217672;1.622632;0.8773264;1.220989;1.677056;0.145555;0.9619336;1.679024;-0.182522;0.6244574;1.752241;-0.03799377;0.210577;0.9234483;-0.0263807;0;0;0;1.481314;1.647367;-0.1825249;1.772895;1.682242;-0.03799909;2.020459;0.759635;0.08763397;2.232201;-0.1638877;0.07992947;0.9058216;1.617442;1.947892;0.9701369;0.4662526;2.848717;1.271504;0.6013045;4.15381;0.9058216;1.617442;1.947892;0.9701369;0.4662526;2.848717;1.271504;0.6013045;4.15381
1573760.669;NotLabelled;NONE;16384;0.7161562;-0.66482;0.1357341;-0.1634349;2;6;28;-1652;4176;178;65536;0.6717451;-0.6930995;-0.08310249;-0.2479224;0;35;23;905;4390;304;8192;0.6315789;-0.7064133;-0.299169;-0.1121884;6;8;-5;2512;4612;-766;32768;0.6883656;-0.716839;-0.0734072;0.08310249;6;7;-2;-1118;4916;638;256;-0.1052632;-0.02493075;-0.9932631;-0.04155125;12;13;-2;718;-314;5044;128;0.1426593;0.03462604;0.9786218;0.1440443;-39;-1;10;-716;598;-4596;4;-0.333795;0.5595568;-0.6839048;-0.3282548;1;-26;65;-1970;3358;1354;16;-0.08033241;-0.960563;-0.2631579;0.0401662;-50;-118;-90;-2493;-465;2906;2;0.5803324;-0.4542936;-0.3393352;-0.5845368;20;23;-2;-2074;3686;-550;8;-0.1288089;-0.9493285;0.2825485;0.04847645;-18;-19;1;1831;-907;3069;1.204538;1.623923;1.907562;1.204585;1.628286;1.362032;1.204605;1.630099;0.882496;1.207922;1.684523;0.1507246;0.9488674;1.686492;-0.1773524;0.6113912;1.759709;-0.03282432;0.2144552;0.9226432;-0.02315672;0;0;0;1.468248;1.654834;-0.1773554;1.75983;1.689709;-0.03282911;2.009341;0.7676473;0.09295058;2.217594;-0.1566744;0.08599567;0.892694;1.619326;1.953002;0.9543296;0.4506738;2.831246;1.258547;0.6137419;4.132472;0.892694;1.619326;1.953002;0.9543296;0.4506738;2.831246;1.258547;0.6137419;4.132472
1573781.6725;NotLabelled;NONE;16384;0.7157034;-0.666205;0.132964;-0.1620499;1;9;21;-2302;4068;114;65536;0.6717451;-0.6910927;-0.08310249;-0.2534626;3;27;19;1173;4288;542;8192;0.6301939;-0.7062504;-0.301939;-0.1135734;8;25;13;3510;4724;-114;32768;0.6911357;-0.7144963;-0.07479224;0.07894737;17;34;19;-1562;5050;792;256;-0.1052632;-0.01800554;-0.9932303;-0.04570637;19;26;1;560;38;4230;128;0.1398892;0.03047091;0.9772447;0.1565097;-41;7;6;-614;964;-4364;4;-0.3407202;0.5526316;-0.6827609;-0.33518;3;-18;69;-2210;3512;1236;16;-0.0900277;-0.9646345;-0.2423823;0.05124654;-34;-137;-102;-2041;-523;2824;2;0.5789474;-0.4556787;-0.3379501;-0.5856335;16;11;-4;-1844;4074;-732;8;-0.1315789;-0.9485351;0.2839335;0.04847645;-13;-8;-4;1371;-497;3061;1.201705;1.61336;1.909678;1.201823;1.624069;1.364236;1.201904;1.63146;0.8847538;1.205214;1.688179;0.1531565;0.9462149;1.690506;-0.1749618;0.6085254;1.762403;-0.03026989;0.2201078;0.9213363;-0.0220909;0;0;0;1.465674;1.660182;-0.1749648;1.757139;1.695355;-0.03027529;1.998954;0.7713786;0.09648609;2.210698;-0.1521449;0.08893144;0.889856;1.608234;1.955022;0.932592;0.4047145;2.786028;1.253222;0.6409355;4.072;0.889856;1.608234;1.955022;0.932592;0.4047145;2.786028;1.253222;0.6409355;4.072
1573801.8609;NotLabelled;NONE;16384;0.7165244;-0.666205;0.1301939;-0.1606648;-3;-3;10;-2608;3942;106;65536;0.6717451;-0.6893862;-0.08448754;-0.2576177;5;23;9;1513;4294;482;8192;0.6274238;-0.7054975;-0.3088643;-0.1149584;1;40;31;3488;5066;380;32768;0.6939058;-0.7125403;-0.07479224;0.07202215;30;35;45;-1660;5328;242;256;-0.1052632;-0.01523546;-0.9932119;-0.04709141;5;0;-1;266;382;3740;128;0.1398892;0.02908587;0.9766124;0.1606648;-33;9;5;-540;1088;-4344;4;-0.3448753;0.5484765;-0.679889;-0.3434903;6;-18;65;-2708;4172;1110;16;-0.101108;-0.9685056;-0.2188366;0.06232687;-26;-154;-95;-799;-1755;3774;2;0.5775623;-0.4556787;-0.3365651;-0.5877947;9;3;-6;-1606;4020;-516;8;-0.132964;-0.9482701;0.2839335;0.04986149;-5;4;-9;1159;-575;3115;1.204513;1.585891;1.910459;1.204789;1.610995;1.36549;1.205009;1.63104;0.8863693;1.207909;1.694883;0.1553579;0.9490458;1.697049;-0.1728689;0.610393;1.76318;-0.02767834;0.2273703;0.9196553;-0.01831565;0;0;0;1.468853;1.67343;-0.1728722;1.759777;1.710954;-0.02768415;2.002924;0.7876601;0.1014732;2.209713;-0.1369293;0.0888111;0.8926512;1.579573;1.955562;0.9220009;0.3588798;2.76173;1.268298;0.6261473;4.034904;0.8926512;1.579573;1.955562;0.9220009;0.3588798;2.76173;1.268298;0.6261473;4.034904
1573822.8437;NotLabelled;NONE;16384;0.7168871;-0.666205;0.1315789;-0.1578947;-6;-21;2;-2454;3870;270;65536;0.6717451;-0.6886958;-0.08587258;-0.2590028;6;10;-3;1755;4080;240;8192;0.6260388;-0.7032616;-0.3171745;-0.1135734;-8;36;50;2910;4502;414;32768;0.699446;-0.7084308;-0.07202215;0.06094183;49;30;80;-534;4968;-78;256;-0.1052632;-0.01523546;-0.9931453;-0.04847645;16;3;-2;302;400;3972;128;0.1385041;0.02631579;0.9761959;0.1648199;-16;14;4;-340;1392;-3752;4;-0.3490305;0.5415512;-0.679786;-0.3504155;5;-31;56;-2902;3886;844;16;-0.1094183;-0.9720594;-0.1952908;0.07063711;-36;-129;-70;-931;-2063;4274;2;0.5761772;-0.4556787;-0.33518;-0.5899416;6;-2;-6;-1724;3764;-504;8;-0.1315789;-0.9483136;0.2839335;0.05263158;-1;7;-17;1413;-845;3277;1.203807;1.578376;1.91557;1.204134;1.608225;1.37084;1.2044;1.632443;0.8919126;1.207066;1.698731;0.1611177;0.9482384;1.700638;-0.1671394;0.6092257;1.764518;-0.02178125;0.2309874;0.9188125;-0.01500726;0;0;0;1.468162;1.679731;-0.1671426;1.758866;1.718289;-0.02178645;2.008101;0.7973387;0.1124034;2.204739;-0.129411;0.09645706;0.8919404;1.571665;1.960586;0.920035;0.3347287;2.741649;1.292634;0.6351085;3.99993;0.8919404;1.571665;1.960586;0.920035;0.3347287;2.741649;1.292634;0.6351085;3.99993
1573843.7672;NotLabelled;NONE;16384;0.7201018;-0.6620498;0.1426593;-0.1509695;-6;-60;-20;-1904;4058;710;65536;0.6731302;-0.6887195;-0.08725762;-0.2548476;4;-25;-33;1509;4048;224;8192;0.6232687;-0.7023664;-0.3254848;-0.1108033;-8;34;54;1834;4170;0;32768;0.7087882;-0.700831;-0.06509695;0.04709141;65;24;97;-528;5270;-140;256;-0.1052632;-0.01523546;-0.9930062;-0.05124654;12;4;0;62;358;3618;128;0.1385041;0.0235457;0.975795;0.16759;-30;8;3;-390;1230;-3604;4;-0.3531856;0.536011;-0.6784245;-0.3573407;10;-22;54;-2512;3484;772;16;-0.1191136;-0.9731846;-0.1814404;0.07617728;-41;-67;-46;-2145;-2175;4254;2;0.5775623;-0.4556787;-0.333795;-0.5893722;4;-3;-4;-1758;3888;-572;8;-0.1315789;-0.9489809;0.2811634;0.05540166;-3;6;-23;1751;-951;3341;1.201958;1.567025;1.915795;1.202341;1.601873;1.371362;1.202655;1.630485;0.8926768;1.205421;1.698788;0.1620678;0.9466304;1.701676;-0.1662111;0.6076204;1.765254;-0.02071476;0.2309843;0.9188349;-0.0136072;0;0;0;1.466548;1.680617;-0.1662144;1.757247;1.718691;-0.02072024;2.018575;0.8013141;0.1149352;2.194832;-0.1293619;0.09122932;0.8900872;1.559901;1.960716;0.9094066;0.3096969;2.720634;1.304194;0.6332119;3.96635;0.8900872;1.559901;1.960716;0.9094066;0.3096969;2.720634;1.304194;0.6332119;3.96635
1573864.8435;NotLabelled;NONE;16384;0.7227781;-0.6578947;0.1523546;-0.1468144;-6;-65;-38;-2000;4110;558;65536;0.6745152;-0.6903874;-0.08725762;-0.2465374;3;-40;-49;1489;4344;260;8192;0.6204986;-0.6975469;-0.3421052;-0.1066482;-24;38;32;190;3392;686;32768;0.7271442;-0.6842105;-0.05124654;0.02216066;75;32;71;-490;3506;-1776;256;-0.1038781;-0.01523546;-0.9930796;-0.05263158;15;-2;0;118;598;3708;128;0.1385041;0.02216066;0.9753476;0.1703601;-16;13;2;-316;1440;-3556;4;-0.3559557;0.533241;-0.6754702;-0.3642659;15;-18;49;-2174;3510;866;16;-0.1260388;-0.972235;-0.1800554;0.08033241;-36;23;-28;-2471;-2749;3714;2;0.5775623;-0.4556787;-0.33241;-0.5901545;3;-7;-2;-1446;4004;-918;8;-0.1315789;-0.9487292;0.2811634;0.05955679;-7;4;-24;2305;-1033;3503;1.200926;1.5541;1.919162;1.201346;1.592351;1.374958;1.201692;1.623956;0.8964607;1.204664;1.696286;0.1662409;0.9459498;1.701135;-0.1620753;0.6069436;1.764105;-0.01630628;0.2236364;0.9206656;-0.01254935;0;0;0;1.465855;1.679775;-0.1620783;1.756543;1.716877;-0.01631171;2.031405;0.8042511;0.12454;2.176373;-0.1312705;0.08490992;0.8890517;1.546696;1.964016;0.9018937;0.2832793;2.701901;1.308616;0.6326016;3.93676;0.8890517;1.546696;1.964016;0.9018937;0.2832793;2.701901;1.308616;0.6326016;3.93676
1573885.667;NotLabelled;NONE;16384;0.7225591;-0.6551247;0.1648199;-0.1468144;0;-51;-58;-1908;3634;788;65536;0.6759003;-0.6933652;-0.08725762;-0.234072;5;-68;-75;1327;4164;262;8192;0.6232687;-0.6921038;-0.3476454;-0.1080332;-43;31;-2;-1298;3058;706;32768;0.7352992;-0.6759003;-0.04709141;0.0166205;62;-10;34;150;1918;-1174;256;-0.1038781;-0.01385042;-0.9929492;-0.05540166;9;5;3;98;762;3706;128;0.1385041;0.01939058;0.9746718;0.1745152;-26;9;0;-488;1444;-3518;4;-0.3573407;0.5290859;-0.6734707;-0.3725762;19;5;18;-2320;3538;918;16;-0.134349;-0.966884;-0.1980609;0.08864266;-14;64;-20;-981;-2831;2914;2;0.5775623;-0.4570637;-0.3310249;-0.5898619;-5;-12;-5;-1478;3994;-680;8;-0.132964;-0.9480759;0.2811634;0.06648199;-11;5;-14;2619;-865;3405;1.198097;1.54414;1.921268;1.198552;1.585613;1.3773;1.19893;1.620052;0.8989989;1.201997;1.694437;0.1689854;0.9433215;1.700247;-0.1593458;0.6043078;1.762858;-0.01343904;0.2126994;0.9232323;-0.01407134;0;0;0;1.463224;1.678811;-0.159349;1.7539;1.715459;-0.01344448;2.054196;0.8115077;0.1313602;2.140156;-0.1291537;0.05682886;0.88622;1.53647;1.966058;0.8981642;0.2609947;2.682912;1.307687;0.6298711;3.911141;0.88622;1.53647;1.966058;0.8981642;0.2609947;2.682912;1.307687;0.6298711;3.911141
1573905.6758;NotLabelled;NONE;16384;0.7227954;-0.6509695;0.1772853;-0.1495845;-2;-47;-79;-2578;3144;716;65536;0.6786703;-0.6973502;-0.08725762;-0.2132964;11;-109;-103;2113;4172;112;8192;0.6301939;-0.686982;-0.3448753;-0.1094183;-29;-23;-34;-1968;3256;404;32768;0.7393243;-0.6717451;-0.04155125;0.02077562;39;-56;-1;-280;2190;-974;256;-0.1080332;-0.01246537;-0.9924458;-0.0567867;7;6;17;-166;886;3388;128;0.1412742;0.01385042;0.9736152;0.1786704;-7;18;-13;-200;1660;-3556;4;-0.3573407;0.5318559;-0.6705146;-0.3739612;23;17;9;-2312;3554;810;16;-0.1385041;-0.9647548;-0.2036011;0.09279778;-6;25;-17;-707;-2597;3036;2;0.5789474;-0.4556787;-0.3296399;-0.5903512;-9;-8;-7;-1310;3916;-828;8;-0.134349;-0.9476823;0.2811634;0.06925207;-12;8;-6;2685;-865;3191;1.197008;1.527093;1.911367;1.197518;1.573493;1.367797;1.197943;1.612262;0.8898274;1.201013;1.690884;0.1602581;0.9424;1.698035;-0.1680955;0.6032174;1.759059;-0.02190967;0.1962043;0.9267977;-0.01860218;0;0;0;1.462348;1.677732;-0.1680989;1.752911;1.714167;-0.02191478;2.05932;0.8109106;0.1141571;2.128552;-0.1294162;0.02045053;0.8851268;1.519018;1.956054;0.9004495;0.2314805;2.650944;1.317758;0.6285013;3.867725;0.8851268;1.519018;1.956054;0.9004495;0.2314805;2.650944;1.317758;0.6285013;3.867725
1573926.8156;NotLabelled;NONE;16384;0.7217555;-0.6468144;0.1925208;-0.1537396;-9;-47;-92;-2498;2372;508;65536;0.6842105;-0.7000259;-0.08587258;-0.1855956;28;-148;-123;2089;4018;-94;8192;0.634349;-0.6872794;-0.3365651;-0.1094183;-18;-49;-29;-412;2754;836;32768;0.7430202;-0.66759;-0.03739612;0.02908587;25;-58;-23;-1102;2298;-662;256;-0.1108033;-0.01108033;-0.9920766;-0.05817174;2;12;16;378;1124;3166;128;0.1440443;0.01108033;0.9732448;0.1786704;-2;18;-13;-290;1758;-3610;4;-0.3573407;0.534626;-0.6675312;-0.3753462;26;20;4;-2200;3638;644;16;-0.1412742;-0.9643739;-0.2022161;0.09556787;0;-6;-14;-673;-2123;3078;2;0.5803324;-0.4556787;-0.3310249;-0.5882123;-9;-3;-6;-1120;3788;-772;8;-0.1357341;-0.9477925;0.2797784;0.07063711;-12;11;-2;2585;-853;2995;1.188098;1.51167;1.898425;1.188664;1.563251;1.355322;1.18914;1.606577;0.877744;1.19213;1.687311;0.1484051;0.9335383;1.694891;-0.1799555;0.5942184;1.754813;-0.0336322;0.1682557;0.9321287;-0.02494623;0;0;0;1.453526;1.675631;-0.1799586;1.743999;1.712227;-0.03363788;2.048369;0.805547;0.08283687;2.112155;-0.1339605;-0.02225029;0.8762122;1.503169;1.943;0.9048295;0.2132404;2.633017;1.337173;0.6238835;3.839987;0.8762122;1.503169;1.943;0.9048295;0.2132404;2.633017;1.337173;0.6238835;3.839987
1573947.6718;NotLabelled;NONE;16384;0.7219748;-0.6412742;0.2063712;-0.1578947;-21;-45;-87;-1468;2266;784;65536;0.6897507;-0.7007544;-0.08587258;-0.1606648;26;-87;-115;-333;3328;338;8192;0.6385041;-0.6863409;-0.3310249;-0.1080332;-22;-16;-27;718;2030;28;32768;0.7439543;-0.666205;-0.03462604;0.03878116;13;-56;-38;-1044;2054;-82;256;-0.1121884;-0.008310249;-0.9919479;-0.05817174;-3;11;10;808;996;3090;128;0.1454294;0.009695291;0.9730535;0.1786704;8;16;-11;-314;1714;-3572;4;-0.3559557;0.5373961;-0.6644765;-0.3781163;24;13;2;-2076;3634;600;16;-0.1426593;-0.9646086;-0.199446;0.09695291;3;-23;-11;-985;-1851;3208;2;0.5803324;-0.4542936;-0.3310249;-0.5892828;-8;2;-6;-1098;3736;-612;8;-0.1371191;-0.9478968;0.2783934;0.07202215;-9;12;-1;2459;-959;2849;1.175896;1.502945;1.890222;1.176466;1.5548;1.347145;1.176944;1.598368;0.8695887;1.179837;1.681262;0.1404918;0.9212632;1.689259;-0.1878737;0.5818005;1.748023;-0.04141127;0.1327153;0.9378538;-0.02476373;0;0;0;1.441291;1.671111;-0.1878766;1.73167;1.707894;-0.04141617;2.027228;0.7970922;0.06516957;2.09265;-0.1408451;-0.05222315;0.86401;1.494421;1.934791;0.9039875;0.2021549;2.619852;1.348354;0.6210113;3.819613;0.86401;1.494421;1.934791;0.9039875;0.2021549;2.619852;1.348354;0.6210113;3.819613
1573967.6864;NotLabelled;NONE;16384;0.7290833;-0.6274238;0.2105263;-0.1745152;-66;79;-32;1220;3710;1376;65536;0.6883656;-0.701582;-0.1094183;-0.1481994;5;67;-51;371;2478;-286;8192;0.6454294;-0.6822817;-0.3254848;-0.1094183;-17;-14;-9;946;2890;348;32768;0.7439027;-0.66482;-0.03739612;0.0567867;2;-33;-41;-404;3088;794;256;-0.1135734;-0.006925208;-0.9919596;-0.05540166;-13;10;4;956;926;2912;128;0.1468144;0.006925208;0.9731225;0.1772853;13;13;-5;-388;1702;-3264;4;-0.3545706;0.5387812;-0.6633048;-0.3795014;18;0;1;-2080;3666;576;16;-0.1440443;-0.9651126;-0.1952908;0.09833795;9;-13;-7;-989;-1465;3176;2;0.5803324;-0.4529086;-0.33241;-0.5895691;-7;2;-6;-1300;3764;-448;8;-0.1385041;-0.9479949;0.2770083;0.0734072;-5;13;-1;2303;-889;2849;1.165269;1.49691;1.891966;1.165839;1.54891;1.348904;1.166319;1.592604;0.8713589;1.168781;1.675922;0.1423088;0.910174;1.682721;-0.1860571;0.5704001;1.73959;-0.03956851;0.09929528;0.9421005;-0.01957728;0;0;0;1.430291;1.66735;-0.1860602;1.720467;1.705603;-0.03957367;2.012228;0.7924838;0.05719924;2.084547;-0.1441987;-0.06602293;0.8533821;1.488374;1.936532;0.9077132;0.1933584;2.615385;1.359249;0.6159322;3.811159;0.8533821;1.488374;1.936532;0.9077132;0.1933584;2.615385;1.359249;0.6159322;3.811159
1573988.6685;NotLabelled;NONE;16384;0.7311039;-0.6246537;0.200831;-0.1869806;-40;89;-1;356;2554;-484;65536;0.6855956;-0.7021245;-0.1191136;-0.1509695;-5;67;-10;401;2270;86;8192;0.6468144;-0.6827244;-0.3227147;-0.1066482;-21;-32;-2;1028;3270;388;32768;0.7433558;-0.66482;-0.03462604;0.06509695;-3;-82;-29;1070;3466;1216;256;-0.1135734;-0.006925208;-0.9920359;-0.05401662;-19;2;2;798;768;2972;128;0.1481994;0.006925208;0.9734133;0.1745152;19;4;0;-530;1698;-3390;4;-0.3518005;0.5387812;-0.6631891;-0.3822715;4;-10;7;-2014;3650;752;16;-0.1385041;-0.9655002;-0.1966759;0.09972299;22;21;1;-801;-1289;3112;2;0.5817174;-0.4501385;-0.33241;-0.5903251;-4;-1;-6;-1736;3654;-176;8;-0.1371191;-0.948893;0.2742382;0.07479224;4;6;-4;2033;-619;2987;1.147307;1.491671;1.914319;1.147865;1.542506;1.371146;1.148334;1.585176;0.8935089;1.150427;1.664675;0.1640311;0.8917544;1.668921;-0.1643254;0.5518197;1.725464;-0.01808472;0.05117134;0.9459276;-0.01999363;0;0;0;1.411918;1.655223;-0.1643288;1.70199;1.695175;-0.01808947;1.986734;0.7781768;0.06133747;2.08379;-0.1550066;-0.07108831;0.8354219;1.483231;1.958911;0.8991807;0.1875644;2.635698;1.358386;0.613574;3.827324;0.8354219;1.483231;1.958911;0.8991807;0.1875644;2.635698;1.358386;0.613574;3.827324
1574009.6742;NotLabelled;NONE;16384;0.7319012;-0.6246537;0.1925208;-0.1925208;-11;39;22;-766;1594;-860;65536;0.6828254;-0.701392;-0.1246537;-0.1620499;-16;69;42;319;1426;110;8192;0.6509695;-0.6815685;-0.3185596;-0.101108;-24;-60;0;756;3992;-188;32768;0.7388064;-0.6689751;-0.02493075;0.07756232;-17;-105;-22;98;3834;1526;256;-0.1135734;-0.006925208;-0.9924536;-0.04570637;-26;5;2;740;806;3476;128;0.1481994;0.008310249;0.9743794;0.1689751;30;2;1;-520;1642;-3628;4;-0.3504155;0.5373961;-0.6634436;-0.3850415;3;-13;6;-1664;3768;484;16;-0.134349;-0.9653749;-0.199446;0.101108;28;13;7;-813;-1289;3426;2;0.5831025;-0.4501385;-0.3310249;-0.5897367;-2;-5;-6;-1902;3488;-298;8;-0.1357341;-0.9490921;0.2742382;0.07479224;8;0;-6;2089;-435;3199;1.142518;1.497619;1.924675;1.143042;1.545374;1.381222;1.143481;1.585336;0.9033504;1.145497;1.662826;0.1736563;0.8867994;1.666085;-0.1546923;0.5468574;1.722924;-0.008583024;0.04192932;0.9462973;-0.02365448;0;0;0;1.406967;1.65255;-0.1546954;1.697037;1.692997;-0.008587778;1.982245;0.7759315;0.06836939;2.085575;-0.1563148;-0.06589597;0.8306355;1.489431;1.969332;0.9039294;0.1928843;2.643464;1.369902;0.6057433;3.837091;0.8306355;1.489431;1.969332;0.9039294;0.1928843;2.643464;1.369902;0.6057433;3.837091
1574030.1235;NotLabelled;NONE;16384;0.7328768;-0.6260388;0.1869806;-0.1897507;2;12;45;-368;966;-772;65536;0.6814404;-0.6996448;-0.1232687;-0.1759003;-13;53;73;-1127;1048;-14;8192;0.6523545;-0.6848691;-0.3102493;-0.09556787;-7;-74;-5;960;3886;-1406;32768;0.732416;-0.6745152;-0.02216066;0.0900277;-26;-46;-36;-928;3986;1568;256;-0.1135734;-0.006925208;-0.9926362;-0.04155125;-31;15;0;1236;602;3558;128;0.1481994;0.008310249;0.975324;0.1634349;33;11;3;-662;1486;-3606;4;-0.3518005;0.536011;-0.6630257;-0.3864266;1;4;4;-1178;3716;698;16;-0.1301939;-0.966229;-0.1980609;0.101108;24;-22;1;-1857;-1837;4612;2;0.5858725;-0.4487534;-0.3296399;-0.5888219;-2;-10;-6;-1938;3542;-408;8;-0.132964;-0.9489728;0.2756233;0.07617728;10;-1;-5;2255;-511;3491;1.147828;1.527006;1.932016;1.148284;1.568493;1.388049;1.148662;1.602945;0.9097488;1.150241;1.668363;0.1788728;0.8914068;1.665708;-0.1493735;0.5514165;1.724316;-0.004077584;0.04955876;0.9458658;-0.02605028;0;0;0;1.411599;1.653152;-0.1493766;1.701651;1.696554;-0.004082441;1.989846;0.7797066;0.06380475;2.097645;-0.1532325;-0.06186628;0.8359513;1.519334;1.976805;0.9137239;0.2207285;2.646457;1.385101;0.6242279;3.841161;0.8359513;1.519334;1.976805;0.9137239;0.2207285;2.646457;1.385101;0.6242279;3.841161
1574050.6727;NotLabelled;NONE;16384;0.7329357;-0.6288089;0.1786704;-0.1883656;13;33;49;-1284;1770;-530;65536;0.6814404;-0.6976197;-0.1204986;-0.1855956;-1;11;51;-1337;1594;442;8192;0.6509695;-0.6906276;-0.301939;-0.0900277;14;-56;-17;1634;3406;-1578;32768;0.7278614;-0.6786703;-0.02216066;0.09556787;-25;-30;-38;1180;4258;680;256;-0.1135734;-0.005540166;-0.9928101;-0.03739612;-33;32;2;982;306;3994;128;0.1481994;0.006925208;0.976022;0.1592798;29;22;7;-1036;1292;-3594;4;-0.3531856;0.5373961;-0.6619731;-0.3850415;-1;25;-1;-1470;3606;686;16;-0.1288089;-0.9671112;-0.1939058;0.1024931;6;-23;-10;-1719;-2259;5270;2;0.5895952;-0.4487534;-0.3282548;-0.5858725;-3;-11;-7;-1842;3558;-406;8;-0.1315789;-0.9491658;0.2756233;0.07617728;7;1;-1;2155;-633;3669;1.159382;1.551174;1.93715;1.159771;1.5866;1.392755;1.16009;1.615722;0.9141005;1.161467;1.675099;0.1827085;0.9025722;1.669488;-0.1454529;0.562555;1.728975;-0.0005780905;0.07017855;0.9445779;-0.02538666;0;0;0;1.422776;1.657422;-0.1454563;1.712815;1.702296;-0.0005842447;1.997933;0.7844346;0.06659114;2.121115;-0.1479738;-0.04842424;0.8475105;1.544002;1.98206;0.9223999;0.2424276;2.646255;1.397433;0.6350491;3.843134;0.8475105;1.544002;1.98206;0.9223999;0.2424276;2.646255;1.397433;0.6350491;3.843134
1574071.8558;NotLabelled;NONE;16384;0.7243582;-0.6398892;0.1648199;-0.1966759;43;125;-57;-14390;12622;430;65536;0.6842105;-0.6946326;-0.1108033;-0.1925208;50;-53;-36;7221;18090;422;8192;0.6481994;-0.695615;-0.2963989;-0.0900277;26;-13;-24;2660;4012;-782;32768;0.7244734;-0.6814404;-0.0235457;0.101108;-19;-3;-36;-918;4636;542;256;-0.1135734;-0.001385042;-0.9930613;-0.03047091;-32;34;2;150;40;4414;128;0.1468144;0.005540166;0.976909;0.1551246;23;20;6;-718;948;-3910;4;-0.3545706;0.5387812;-0.6609101;-0.3836565;-2;15;-3;-1874;3542;236;16;-0.1301939;-0.9674771;-0.1911357;0.1024931;-11;-8;-10;-1483;-1457;4936;2;0.5906468;-0.4473684;-0.3282548;-0.5858725;-6;-6;-7;-1412;3758;-510;8;-0.1301939;-0.9497578;0.2742382;0.07617728;2;5;1;2383;-941;3649;1.165064;1.574691;1.943078;1.165406;1.605781;1.398418;1.165683;1.631089;0.9195465;1.166728;1.684653;0.1877046;0.9078045;1.675477;-0.140354;0.5675923;1.734859;0.004105955;0.08698586;0.9432528;-0.02246751;0;0;0;1.42805;1.665332;-0.1403568;1.717943;1.712427;0.004100621;1.999568;0.7939744;0.07763708;2.132573;-0.1381092;-0.02874112;0.8531966;1.567877;1.988071;0.9261163;0.2665725;2.653012;1.407292;0.6554887;3.848647;0.8531966;1.567877;1.988071;0.9261163;0.2665725;2.653012;1.407292;0.6554887;3.848647
1574093.6714;NotLabelled;NONE;16384;0.732725;-0.6274238;0.1814404;-0.1911357;-93;-234;-41;-2282;4478;3122;65536;0.6883656;-0.6940054;-0.1121884;-0.1786704;20;23;-38;-3589;818;-1484;8192;0.6454294;-0.6972553;-0.2950138;-0.101108;7;32;-5;3746;3874;1626;32768;0.7239609;-0.6814404;-0.03601108;0.101108;5;18;-12;-2604;5332;-686;256;-0.1149584;-0.001385042;-0.9930207;-0.02631579;-27;-21;11;-3676;-764;6702;128;0.1468144;0.004155125;0.9777795;0.1495845;31;2;0;1092;470;-5000;4;-0.3518005;0.5387812;-0.6599647;-0.3878116;11;2;-3;-830;4430;-4;16;-0.134349;-0.9656491;-0.1966759;0.1038781;-13;32;1;-1955;-887;3778;2;0.5903186;-0.4459834;-0.3282548;-0.5872576;-5;7;-4;-1478;3544;-584;8;-0.1315789;-0.9500759;0.2728532;0.07479224;-5;1;7;2525;-887;3319;1.177102;1.605376;1.936612;1.177396;1.632174;1.391724;1.177633;1.65371;0.9126679;1.17806;1.697887;0.1801991;0.9191992;1.681959;-0.1476502;0.5784377;1.739845;-0.0038791;0.1092015;0.9410847;-0.01519112;0;0;0;1.439519;1.676926;-0.147653;1.728953;1.728716;-0.003883958;2.003048;0.8087279;0.07840127;2.146826;-0.1223023;-0.02307576;0.8652382;1.598917;1.981684;0.9363093;0.2978724;2.647336;1.418042;0.6897591;3.841777;0.8652382;1.598917;1.981684;0.9363093;0.2978724;2.647336;1.418042;0.6897591;3.841777
1574114.6671;NotLabelled;NONE;16384;0.7397393;-0.6191136;0.1925208;-0.1800554;16;6;-3;4356;-154;-3846;65536;0.6897507;-0.6928836;-0.1149584;-0.1759003;14;-55;-32;2045;4774;-52;8192;0.6440443;-0.694558;-0.3033241;-0.1038781;-6;55;33;3650;7024;2190;32768;0.7241529;-0.6814404;-0.03601108;0.09972299;15;-4;22;-1730;6650;-416;256;-0.1163435;-0.006925208;-0.9928362;-0.02631579;3;-38;16;-310;-1204;4936;128;0.1481994;0.006925208;0.9777657;0.1481994;8;-7;-19;1480;114;-5222;4;-0.3518005;0.5415512;-0.6576935;-0.3878116;5;20;0;-1112;4658;118;16;-0.134349;-0.9647936;-0.200831;0.1038781;-8;24;3;-907;-651;3546;2;0.5913625;-0.4445983;-0.3282548;-0.5872576;0;11;-3;-1676;3576;-374;8;-0.132964;-0.9494841;0.2742382;0.07479224;-4;-1;9;2295;-809;3153;1.175023;1.615501;1.956822;1.175253;1.636454;1.411677;1.175433;1.65285;0.9324185;1.175769;1.690968;0.1996093;0.9168983;1.672104;-0.1280759;0.576097;1.73088;0.01523799;0.08883425;0.9432982;-0.009642219;0;0;0;1.437222;1.667524;-0.128079;1.726622;1.720752;0.01523376;1.983549;0.7963954;0.1037097;2.143987;-0.131584;-0.0007001758;0.8631643;1.609525;2.001997;0.947823;0.3058857;2.660948;1.431058;0.7101969;3.85063;0.8631643;1.609525;2.001997;0.947823;0.3058857;2.660948;1.431058;0.7101969;3.85063
1574134.6806;NotLabelled;NONE;16384;0.735114;-0.6246537;0.1883656;-0.1842105;23;33;14;-86;5396;482;65536;0.6928878;-0.6911357;-0.1149584;-0.1703601;7;-9;-5;-1805;2584;-886;8192;0.6426592;-0.6923643;-0.3116343;-0.1024931;-16;16;41;1134;7186;1830;32768;0.726207;-0.6800554;-0.03185596;0.09556787;13;-3;36;-1070;5620;-200;256;-0.1149584;-0.01246537;-0.9929057;-0.02770083;0;0;-16;906;886;5402;128;0.1523546;0.009695291;0.9768923;0.1495845;-5;-9;8;-696;1870;-5210;4;-0.3531856;0.5429363;-0.6558066;-0.3878116;0;16;9;-2104;4102;460;16;-0.134349;-0.9646524;-0.2022161;0.1024931;-3;2;2;-637;-689;3634;2;0.5872576;-0.4445983;-0.3282548;-0.5913625;-2;3;-3;-1848;3826;-400;8;-0.134349;-0.9493972;0.2742382;0.0734072;-2;-2;11;2171;-831;3063;1.171516;1.611136;1.971464;1.171724;1.630116;1.426247;1.171885;1.644777;0.9469321;1.1726;1.681939;0.2140743;0.9135166;1.665518;-0.1135748;0.5733956;1.728251;0.02967802;0.08149628;0.9439882;-0.006329931;0;0;0;1.433758;1.655176;-0.1135953;1.723737;1.705382;0.02963537;1.987753;0.7826651;0.1142693;2.146197;-0.1456572;0.0098598;0.859659;1.605324;2.016673;0.9513335;0.301411;2.67414;1.43591;0.7065743;3.862987;0.859659;1.605324;2.016673;0.9513335;0.301411;2.67414;1.43591;0.7065743;3.862987
1574154.8282;NotLabelled;NONE;16384;0.7338067;-0.6274238;0.1842105;-0.1842105;8;3;21;-4542;5336;1440;65536;0.6959472;-0.6897507;-0.1108033;-0.166205;11;-40;10;-439;5150;986;8192;0.6426592;-0.6933541;-0.3116343;-0.09556787;-13;-56;32;450;4496;686;32768;0.726912;-0.6800554;-0.02770083;0.09141274;5;2;37;-430;4768;148;256;-0.1121884;-0.01246537;-0.9932225;-0.02770083;-6;-8;-13;-1118;492;4836;128;0.1481994;0.01108033;0.9773036;0.1509695;-7;-13;20;122;2058;-4306;4;-0.3545706;0.5429363;-0.6550588;-0.3878116;-2;0;13;-1990;4002;886;16;-0.134349;-0.9652289;-0.199446;0.1024931;-1;-11;0;-1189;-959;3754;2;0.5872576;-0.4432133;-0.3282548;-0.5924012;-1;0;-1;-1756;3764;-376;8;-0.134349;-0.9495033;0.2742382;0.07202215;1;-2;10;1977;-873;3073;1.16014;1.604141;1.968469;1.160358;1.624073;1.423286;1.160528;1.639572;0.9439974;1.161719;1.677835;0.2111964;0.9024937;1.664827;-0.1164937;0.5630885;1.731165;0.02683321;0.07426067;0.9446069;0.0003276095;0;0;0;1.422586;1.648631;-0.116497;1.713101;1.695355;0.02682799;1.98895;0.7766792;0.1174823;2.135882;-0.1534263;0.01211488;0.848282;1.59825;2.013662;0.938095;0.2928511;2.668434;1.415118;0.6975974;3.860473;0.848282;1.59825;2.013662;0.938095;0.2928511;2.668434;1.415118;0.6975974;3.860473
1574174.9423;NotLabelled;NONE;16384;0.7349691;-0.6288089;0.1855956;-0.1731302;11;-14;27;-1054;3360;910;65536;0.6987106;-0.6883656;-0.1038781;-0.1648199;0;-17;17;413;3844;-722;8192;0.6440443;-0.6953599;-0.3074792;-0.08448754;-10;-65;29;1804;3624;-6;32768;0.7275688;-0.6800554;-0.0235457;0.08725762;-1;-4;44;496;4524;222;256;-0.1108033;-0.01385042;-0.9933597;-0.02770083;6;-5;-6;-46;618;4440;128;0.1468144;0.01246537;0.9770641;0.1537396;-10;-17;6;78;1464;-4230;4;-0.3573407;0.5401662;-0.6550222;-0.3891967;-6;-3;17;-1580;4042;642;16;-0.134349;-0.9657971;-0.1966759;0.1024931;0;-19;-6;-1409;-997;3742;2;0.5886427;-0.4432133;-0.3282548;-0.591025;0;0;1;-1840;3694;-56;8;-0.134349;-0.9496074;0.2742382;0.07063711;5;-1;6;1785;-791;3189;1.154106;1.605131;1.975351;1.154341;1.626512;1.430223;1.154525;1.643285;0.9509768;1.155752;1.68161;0.2181794;0.8965468;1.668592;-0.1095262;0.557124;1.734869;0.03378734;0.07441892;0.9445738;0.006248541;0;0;0;1.416641;1.652473;-0.1095017;1.707141;1.699226;0.03384352;1.991391;0.7837442;0.1306425;2.12805;-0.1482418;0.0280996;0.8422475;1.59912;2.020519;0.9259003;0.2923692;2.673407;1.397336;0.6965603;3.867855;0.8422475;1.59912;2.020519;0.9259003;0.2923692;2.673407;1.397336;0.6965603;3.867855
