SEP=;
index;label;segment;RightUpperArm_boneIndex;RightUpperArm_quat9x_w;RightUpperArm_quat9x_x;RightUpperArm_quat9x_y;RightUpperArm_quat9x_z;RightUpperArm_gyroscope_x;RightUpperArm_gyroscope_y;RightUpperArm_gyroscope_z;RightUpperArm_accelerometer_x;RightUpperArm_accelerometer_y;RightUpperArm_accelerometer_z;RightLowerArm_boneIndex;RightLowerArm_quat9x_w;RightLowerArm_quat9x_x;RightLowerArm_quat9x_y;RightLowerArm_quat9x_z;RightLowerArm_gyroscope_x;RightLowerArm_gyroscope_y;RightLowerArm_gyroscope_z;RightLowerArm_accelerometer_x;RightLowerArm_accelerometer_y;RightLowerArm_accelerometer_z;LeftUpperArm_boneIndex;LeftUpperArm_quat9x_w;LeftUpperArm_quat9x_x;LeftUpperArm_quat9x_y;LeftUpperArm_quat9x_z;LeftUpperArm_gyroscope_x;LeftUpperArm_gyroscope_y;LeftUpperArm_gyroscope_z;LeftUpperArm_accelerometer_x;LeftUpperArm_accelerometer_y;LeftUpperArm_accelerometer_z;LeftLowerArm_boneIndex;LeftLowerArm_quat9x_w;LeftLowerArm_quat9x_x;LeftLowerArm_quat9x_y;LeftLowerArm_quat9x_z;LeftLowerArm_gyroscope_x;LeftLowerArm_gyroscope_y;LeftLowerArm_gyroscope_z;LeftLowerArm_accelerometer_x;LeftLowerArm_accelerometer_y;LeftLowerArm_accelerometer_z;Chest_boneIndex;Chest_quat9x_w;Chest_quat9x_x;Chest_quat9x_y;Chest_quat9x_z;Chest_gyroscope_x;Chest_gyroscope_y;Chest_gyroscope_z;Chest_accelerometer_x;Chest_accelerometer_y;Chest_accelerometer_z;Spine_boneIndex;Spine_quat9x_w;Spine_quat9x_x;Spine_quat9x_y;Spine_quat9x_z;Spine_gyroscope_x;Spine_gyroscope_y;Spine_gyroscope_z;Spine_accelerometer_x;Spine_accelerometer_y;Spine_accelerometer_z;RightUpperLeg_boneIndex;RightUpperLeg_quat9x_w;RightUpperLeg_quat9x_x;RightUpperLeg_quat9x_y;RightUpperLeg_quat9x_z;RightUpperLeg_gyroscope_x;RightUpperLeg_gyroscope_y;RightUpperLeg_gyroscope_z;RightUpperLeg_accelerometer_x;RightUpperLeg_accelerometer_y;RightUpperLeg_accelerometer_z;RightLowerLeg_boneIndex;RightLowerLeg_quat9x_w;RightLowerLeg_quat9x_x;RightLowerLeg_quat9x_y;RightLowerLeg_quat9x_z;RightLowerLeg_gyroscope_x;RightLowerLeg_gyroscope_y;RightLowerLeg_gyroscope_z;RightLowerLeg_accelerometer_x;RightLowerLeg_accelerometer_y;RightLowerLeg_accelerometer_z;LeftUpperLeg_boneIndex;LeftUpperLeg_quat9x_w;LeftUpperLeg_quat9x_x;LeftUpperLeg_quat9x_y;LeftUpperLeg_quat9x_z;LeftUpperLeg_gyroscope_x;LeftUpperLeg_gyroscope_y;LeftUpperLeg_gyroscope_z;LeftUpperLeg_accelerometer_x;LeftUpperLeg_accelerometer_y;LeftUpperLeg_accelerometer_z;LeftLowerLeg_boneIndex;LeftLowerLeg_quat9x_w;LeftLowerLeg_quat9x_x;LeftLowerLeg_quat9x_y;LeftLowerLeg_quat9x_z;LeftLowerLeg_gyroscope_x;LeftLowerLeg_gyroscope_y;LeftLowerLeg_gyroscope_z;LeftLowerLeg_accelerometer_x;LeftLowerLeg_accelerometer_y;LeftLowerLeg_accelerometer_z;pelvis_x;pelvis_y;pelvis_z;lowerSpine_x;lowerSpine_y;lowerSpine_z;middleSpine_x;middleSpine_y;middleSpine_z;upperSpine_x;upperSpine_y;upperSpine_z;rightClavicle_x;rightClavicle_y;rightClavicle_z;rightShoulder_x;rightShoulder_y;rightShoulder_z;rightElbow_x;rightElbow_y;rightElbow_z;rightWrist_x;rightWrist_y;rightWrist_z;leftClavicle_x;leftClavicle_y;leftClavicle_z;leftShoulder_x;leftShoulder_y;leftShoulder_z;leftElbow_x;leftElbow_y;leftElbow_z;leftWrist_x;leftWrist_y;leftWrist_z;rightHip_x;rightHip_y;rightHip_z;rightKnee_x;rightKnee_y;rightKnee_z;rightAnkle_x;rightAnkle_y;rightAnkle_z;leftHip_x;leftHip_y;leftHip_z;leftKnee_x;leftKnee_y;leftKnee_z;leftAnkle_x;leftAnkle_y;leftAnkle_z;
775951.7271;NotLabelled;NONE;16384;0.6620498;-0.7202629;0.1897507;-0.08310249;0;14;1;-1694;3544;178;65536;0.6897507;-0.7135854;0.1163435;0.03878116;6;9;-5;474;4000;143;8192;0.5526316;-0.72307;-0.33518;-0.2437673;0;3;-23;794;4088;-406;32768;0.6484466;-0.6357341;-0.3518005;-0.2271468;10;7;-11;-513;4211;-207;256;-0.1717452;-0.03601108;-0.9717386;0.1578947;11;-3;6;372;-956;3708;128;0.200831;-0.001385042;0.9786835;0.04293629;-13;-5;-8;-72;550;-3698;4;0.2160665;-0.717938;0.6204986;0.2299169;-23;-95;-23;-3508;3260;-250;16;0.2119114;-0.9460158;-0.2423823;-0.03739612;10;-82;-18;-1453;1613;3544;2;0.1606648;-0.6707306;-0.6481994;-0.3227147;-37;67;1;3410;2832;1192;8;0.2174515;-0.9548613;0.1980609;0.04155125;-13;53;-4;463;2031;3193;0.9744635;2.243711;1.597878;0.9734052;2.147264;1.060925;0.9724531;2.060496;0.5893015;0.9688269;1.822414;-0.1047923;0.7080007;1.684468;-0.4009147;0.3683374;1.794882;-0.288768;0.07886042;0.9412918;-0.07448585;0;0;0;1.228284;1.676542;-0.4009174;1.518774;1.777356;-0.2887724;1.628593;0.8532875;-0.0391494;1.791897;-0.08004951;-0.04070711;0.6627135;2.247643;1.644018;1.1593;1.367976;2.702529;1.614692;0.8050151;3.83744;0.6627135;2.247643;1.644018;1.1593;1.367976;2.702529;1.614692;0.8050151;3.83744
775971.817;NotLabelled;NONE;16384;0.6620498;-0.7201018;0.1897507;-0.08448754;0;7;0;-1530;4226;384;65536;0.6911357;-0.712469;0.1149584;0.03878116;8;7;-8;610;3836;-29;8192;0.5540166;-0.7210681;-0.33518;-0.2465374;-5;12;-18;1238;4080;300;32768;0.646936;-0.6357341;-0.3545706;-0.2271468;7;15;-10;-827;3977;-545;256;-0.1717452;-0.03601108;-0.9726227;0.1523546;21;-1;3;356;-830;3732;128;0.2022161;-0.001385042;0.9780698;0.04986149;-27;-2;-3;-194;698;-3462;4;0.2132964;-0.7078132;0.632964;0.2299169;-15;-95;-20;-2204;2168;-976;16;0.2119114;-0.9486018;-0.232687;-0.033241;2;-72;-10;-2067;1457;2772;2;0.1578947;-0.6592798;-0.6611859;-0.3213296;-19;96;8;2700;2338;-1090;8;0.2174515;-0.9570928;0.1869806;0.04155125;-13;69;-3;1515;2429;3913;0.9714895;2.233246;1.594691;0.9704599;2.13941;1.057275;0.9695332;2.054937;0.5852356;0.9658592;1.820683;-0.1101592;0.7049936;1.684505;-0.4070649;0.3653758;1.794478;-0.2943481;0.07862425;0.9412785;-0.07490696;0;0;0;1.225273;1.676308;-0.4070552;1.515802;1.776352;-0.2943254;1.621773;0.850976;-0.04789847;1.788965;-0.08165932;-0.0529269;0.6597372;2.236954;1.640832;1.149369;1.365533;2.709358;1.611416;0.8013687;3.840975;0.6597372;2.236954;1.640832;1.149369;1.365533;2.709358;1.611416;0.8013687;3.840975
775992.6641;NotLabelled;NONE;16384;0.6634349;-0.7191901;0.1883656;-0.08448754;-4;7;3;-1084;4054;536;65536;0.6925207;-0.7113453;0.1135734;0.03878116;4;11;-9;630;4150;-299;8192;0.5595568;-0.7154755;-0.3379501;-0.2465374;-13;0;3;548;3894;994;32768;0.6484288;-0.6315789;-0.3601108;-0.2257618;3;4;-1;-1093;3547;-1631;256;-0.1717452;-0.03601108;-0.9732645;0.1481994;25;-1;2;290;-612;3766;128;0.2022161;-0.002770083;0.9777687;0.05540166;-26;2;-3;-284;906;-3796;4;0.2091413;-0.699457;0.6440443;0.2285319;-4;-7;-2;166;1252;-1238;16;0.2105263;-0.9501739;-0.2285319;-0.02493075;-15;1;-16;-3157;1627;1830;2;0.1565097;-0.6537396;-0.6676562;-0.3199446;-20;23;16;1924;3046;-584;8;0.2160665;-0.959051;0.1786704;0.0401662;-8;46;-6;1723;2699;4079;0.9740961;2.209298;1.608566;0.9731464;2.122758;1.069928;0.9722898;2.044693;0.5967857;0.9682747;1.818142;-0.1011547;0.7071931;1.685766;-0.3995853;0.3677726;1.795154;-0.2857121;0.07854134;0.9415871;-0.07100768;0;0;0;1.227455;1.676544;-0.3995882;1.518161;1.774765;-0.285717;1.619609;0.8466028;-0.04802501;1.790323;-0.08540523;-0.05038667;0.6623369;2.212379;1.654707;1.144124;1.344713;2.729832;1.610895;0.7826514;3.860558;0.6623369;2.212379;1.654707;1.144124;1.344713;2.729832;1.610895;0.7826514;3.860558
776012.6952;NotLabelled;NONE;16384;0.66482;-0.7184335;0.1869806;-0.08310249;-4;5;1;-922;3956;138;65536;0.6939058;-0.7105061;0.1108033;0.03739612;-4;16;-3;-94;3998;-461;8192;0.5623268;-0.7135949;-0.3393352;-0.2437673;-13;-3;9;496;4338;432;32768;0.6489094;-0.6315789;-0.3601108;-0.2243767;-4;-14;-2;-795;4131;-777;256;-0.1717452;-0.03462604;-0.9741422;0.1426593;22;2;2;242;-410;4030;128;0.2022161;-0.004155125;0.9775195;0.05955679;-24;9;-2;-96;1182;-4044;4;0.2091413;-0.7019975;0.6412742;0.2285319;19;27;-3;-1546;2062;-472;16;0.2077562;-0.94947;-0.234072;-0.0235457;-19;27;-12;-2741;1955;2860;2;0.1565097;-0.6551247;-0.6676202;-0.3171745;-8;-13;25;2916;3046;182;8;0.2160665;-0.9600666;0.1731302;0.0401662;-5;37;-3;1061;2377;3511;0.9740247;2.19076;1.620097;0.9731426;2.110381;1.080505;0.9723456;2.037727;0.6065013;0.9681079;1.816967;-0.09329131;0.7068791;1.687452;-0.3928457;0.367602;1.796393;-0.2781207;0.07845453;0.9418805;-0.06709878;0;0;0;1.227127;1.677463;-0.3928484;1.517959;1.77431;-0.2781255;1.623931;0.8430998;-0.05475485;1.804356;-0.08704066;-0.06331158;0.6622597;2.193315;1.666231;1.139302;1.334524;2.75056;1.623778;0.7805943;3.877845;0.6622597;2.193315;1.666231;1.139302;1.334524;2.75056;1.623778;0.7805943;3.877845
776033.6684;NotLabelled;NONE;16384;0.66482;-0.7191488;0.1842105;-0.08310249;0;2;0;-1634;3854;-392;65536;0.6925207;-0.7122818;0.1080332;0.03739612;-9;11;0;276;3966;-155;8192;0.5650969;-0.7112145;-0.3407202;-0.2423823;-10;-4;9;860;4086;154;32768;0.6488044;-0.632964;-0.3587258;-0.2229917;-7;-11;-3;-683;4179;-541;256;-0.1717452;-0.033241;-0.9747899;0.1385041;21;9;1;274;-624;4284;128;0.2022161;-0.008310249;0.977231;0.06371191;-23;23;0;-102;1038;-4236;4;0.2063712;-0.7061362;0.6371191;0.2299169;21;30;-16;-3126;2866;-720;16;0.2049861;-0.9493851;-0.2368421;-0.0235457;-12;19;-8;-1531;2573;3904;2;0.1565097;-0.6551247;-0.6695784;-0.3130194;-10;11;17;3244;2656;616;8;0.2146814;-0.961117;0.1689751;0.0401662;-9;17;-2;957;2115;2703;0.9715873;2.174036;1.632036;0.9707569;2.09836;1.091763;0.970005;2.029837;0.6171453;0.9660786;1.817156;-0.0851467;0.7050087;1.690912;-0.3862317;0.3656274;1.798276;-0.2703334;0.07834445;0.9421501;-0.06334004;0;0;0;1.225264;1.681304;-0.3862348;1.516001;1.777035;-0.2703384;1.628231;0.8451698;-0.05283469;1.810525;-0.08460021;-0.06197965;0.6598181;2.176188;1.678161;1.139471;1.317695;2.761572;1.629164;0.7717469;3.890495;0.6598181;2.176188;1.678161;1.139471;1.317695;2.761572;1.629164;0.7717469;3.890495
776053.6912;NotLabelled;NONE;16384;0.66482;-0.7191488;0.1842105;-0.08310249;0;-3;-3;-1360;3898;-344;65536;0.6911357;-0.7139053;0.1066482;0.03601108;-8;7;-1;686;4148;141;8192;0.566482;-0.7099172;-0.3421052;-0.2409972;0;1;5;536;3874;268;32768;0.6479257;-0.634349;-0.3587258;-0.2216066;-12;-2;-4;-873;3905;-477;256;-0.1717452;-0.03047091;-0.9754617;0.134349;23;9;0;-78;-582;4192;128;0.2022161;-0.01246537;0.9770023;0.06648199;-20;19;1;258;1072;-4198;4;0.2036011;-0.7086339;0.6357341;0.2285319;7;13;-24;-4506;3580;-512;16;0.2036011;-0.9493366;-0.2382271;-0.0235457;-9;0;-11;-523;1949;4356;2;0.1565097;-0.6468144;-0.6782476;-0.3116343;-13;27;-8;1808;2756;258;8;0.2105263;-0.9614254;0.1717452;0.04293629;-19;-22;2;1975;2465;2759;0.9630358;2.158582;1.634791;0.9622637;2.088222;1.093801;0.961563;2.024369;0.6185315;0.9580041;1.817846;-0.08559772;0.6971352;1.693925;-0.3878202;0.3576046;1.799852;-0.2710405;0.07331828;0.9424191;-0.06532384;0;0;0;1.217402;1.684957;-0.3878228;1.508003;1.780024;-0.271045;1.624452;0.8471711;-0.06009328;1.806584;-0.0826453;-0.06756377;0.6512616;2.160281;1.680901;1.14343;1.305175;2.761374;1.633435;0.7661798;3.893499;0.6512616;2.160281;1.680901;1.14343;1.305175;2.761374;1.633435;0.7661798;3.893499
776074.8588;NotLabelled;NONE;16384;0.66482;-0.7187926;0.1855956;-0.08310249;2;1;-1;-1302;3912;-100;65536;0.6911357;-0.7139053;0.1066482;0.03601108;-7;1;-2;370;4132;9;8192;0.566482;-0.7097172;-0.3434903;-0.2396122;1;1;8;792;4258;382;32768;0.6460903;-0.6357341;-0.3587258;-0.2229917;-18;10;-5;-749;3909;-319;256;-0.1703601;-0.02908587;-0.9763099;0.1301939;19;4;-3;-146;-398;4382;128;0.200831;-0.01523546;0.9770563;0.06925207;-18;11;0;784;1390;-4380;4;0.2022161;-0.7111552;0.634349;0.2257618;0;15;-13;-5092;3528;-110;16;0.200831;-0.9503061;-0.2368421;-0.02216066;-10;-22;-13;-697;2037;3948;2;0.1578947;-0.6454294;-0.6792454;-0.3116343;-2;0;-4;2048;2478;-470;8;0.2091413;-0.9609763;0.1759003;0.04293629;-18;-21;4;1973;2483;3127;0.9605721;2.145355;1.6347;0.9598423;2.078848;1.093223;0.9591789;2.018381;0.6175112;0.9565185;1.818369;-0.0884991;0.6961758;1.696223;-0.3918964;0.356217;1.799729;-0.2741958;0.07174407;0.9422967;-0.06873679;0;0;0;1.216474;1.689301;-0.3918992;1.506685;1.784425;-0.2742009;1.626971;0.8513403;-0.06645465;1.810705;-0.07818127;-0.07080913;0.6487943;2.146726;1.680797;1.146316;1.299365;2.764914;1.635753;0.7638488;3.898934;0.6487943;2.146726;1.680797;1.146316;1.299365;2.764914;1.635753;0.7638488;3.898934
776094.693;NotLabelled;NONE;16384;0.66482;-0.7189513;0.1855956;-0.08171745;-1;-3;-2;-1298;3926;-118;65536;0.6897507;-0.7154487;0.1052632;0.03601108;-10;6;0;202;4134;-25;8192;0.566482;-0.7106465;-0.3434903;-0.2368421;3;-8;12;892;3860;-104;32768;0.6385041;-0.6423861;-0.3587258;-0.2257618;-29;-2;-4;-781;3943;-259;256;-0.16759;-0.02908587;-0.9776873;0.1232687;9;-7;-13;-106;-506;4428;128;0.199446;-0.01385042;0.9768451;0.07617728;-17;-28;9;892;1290;-4512;4;0.200831;-0.7057545;0.6412742;0.2243767;-14;-38;4;-3586;3122;-436;16;0.199446;-0.9526901;-0.2285319;-0.01939058;-10;-16;-2;-1905;2017;3444;2;0.1578947;-0.6481994;-0.6766024;-0.3116343;9;-34;3;2390;2310;-608;8;0.2077562;-0.9607657;0.1786704;0.04293629;-12;-24;7;1971;2177;3541;0.9626477;2.130724;1.638056;0.9619569;2.067771;1.096154;0.9613276;2.010427;0.6200558;0.9589176;1.816608;-0.08768082;0.698714;1.696902;-0.3921678;0.3586528;1.799079;-0.2736043;0.07196554;0.9422978;-0.0685048;0;0;0;1.219018;1.69043;-0.3921708;1.509133;1.78477;-0.2736087;1.632472;0.8521739;-0.06545907;1.814063;-0.07777905;-0.06489563;0.6508664;2.131793;1.684139;1.14606;1.29188;2.775096;1.63382;0.7638909;3.91336;0.6508664;2.131793;1.684139;1.14606;1.29188;2.775096;1.63382;0.7638909;3.91336
776116.6906;NotLabelled;NONE;16384;0.66482;-0.7189513;0.1855956;-0.08171745;-2;2;-4;-1272;3920;-162;65536;0.6883656;-0.7170517;0.1038781;0.03462604;-13;15;5;214;4158;-119;8192;0.566482;-0.7115636;-0.3434903;-0.234072;1;-20;14;1008;4106;-208;32768;0.634349;-0.6472562;-0.3573407;-0.2257618;-31;-12;-2;-721;4177;-327;256;-0.1648199;-0.03047091;-0.9782895;0.1218837;2;-10;-14;238;-468;4190;128;0.1966759;-0.009695291;0.9772369;0.07894737;-12;-35;10;360;1116;-4498;4;0.2036011;-0.7032548;0.6426592;0.2257618;-10;-9;9;-2716;2624;-626;16;0.1980609;-0.9529791;-0.2285319;-0.01939058;-8;9;2;-2509;1925;3402;2;0.1578947;-0.6537396;-0.6712509;-0.3116343;16;-57;9;3276;2538;-224;8;0.2049861;-0.9603143;0.1842105;0.04293629;-9;-32;8;1501;2279;3595;0.959361;2.103916;1.642027;0.9587477;2.04804;1.09935;0.9581867;1.996913;0.6225439;0.9553235;1.812886;-0.08779979;0.6948128;1.698206;-0.3939542;0.3550467;1.7998;-0.2740501;0.06906985;0.9423463;-0.07077562;0;0;0;1.215093;1.690109;-0.393957;1.505477;1.781898;-0.2740551;1.63168;0.8501244;-0.06394428;1.807975;-0.08061945;-0.04337239;0.6475733;2.104384;1.688075;1.130263;1.268551;2.787735;1.613692;0.7450266;3.929902;0.6475733;2.104384;1.688075;1.130263;1.268551;2.787735;1.613692;0.7450266;3.929902
776136.7177;NotLabelled;NONE;16384;0.666205;-0.7182452;0.1814404;-0.08587258;-9;37;-10;-1274;3942;-4;65536;0.6855956;-0.7207781;0.09833795;0.02770083;-18;53;14;6;4184;-137;8192;0.566482;-0.7129171;-0.3434903;-0.2299169;1;-17;11;1222;3932;-386;32768;0.6315789;-0.6514748;-0.3545706;-0.2257618;-30;-19;-3;-617;4235;5;256;-0.1634349;-0.03185596;-0.9786493;0.1204986;0;-8;-12;178;-706;4154;128;0.1939058;-0.004155125;0.9776019;0.08171745;-8;-29;11;-302;998;-4308;4;0.2049861;-0.7036706;0.6412742;0.2271468;-1;15;8;-3012;2388;-706;16;0.1966759;-0.9525683;-0.2313019;-0.02077562;-6;17;5;-2283;1569;3646;2;0.1578947;-0.6606648;-0.6644361;-0.3116343;16;-64;6;3476;2696;-206;8;0.2036011;-0.9595299;0.1897507;0.04293629;-6;-43;7;1347;2001;3619;0.9599272;2.095439;1.64129;0.9593368;2.041636;1.098403;0.9587957;1.992331;0.6214049;0.9552495;1.809967;-0.08936456;0.6943092;1.697011;-0.3957938;0.3549351;1.799645;-0.2756664;0.06789236;0.9421916;-0.07390041;0;0;0;1.214555;1.686893;-0.3957968;1.505287;1.777274;-0.2756716;1.634416;0.8463378;-0.06363851;1.807704;-0.08460855;-0.03051388;0.6481375;2.095731;1.687326;1.118833;1.252153;2.78627;1.595944;0.7320263;3.93264;0.6481375;2.095731;1.687326;1.118833;1.252153;2.78627;1.595944;0.7320263;3.93264
776157.6625;NotLabelled;NONE;16384;0.666205;-0.7182559;0.1786704;-0.09141274;-7;37;-10;-1534;3836;-278;65536;0.6842105;-0.7230965;0.09279778;0.01939058;-15;71;15;468;4220;37;8192;0.5650969;-0.7155654;-0.3421052;-0.2271468;5;-19;10;1144;3930;-856;32768;0.6301939;-0.6547878;-0.3518005;-0.2243767;-23;-23;-3;-757;4225;113;256;-0.1606648;-0.033241;-0.9790618;0.1204986;-1;-3;-8;352;-926;4090;128;0.1925208;0;0.977649;0.08448754;-7;-19;7;-724;908;-4344;4;0.2063712;-0.7045262;0.6398892;0.2271468;-2;14;1;-4160;2394;-392;16;0.1966759;-0.9521997;-0.232687;-0.02216066;-3;3;3;-2123;1421;3896;2;0.1592798;-0.6695713;-0.6551247;-0.3116343;14;-56;2;4550;2734;-306;8;0.2036011;-0.9580714;0.1966759;0.04432133;-2;-44;3;1047;1911;4039;0.9622368;2.087453;1.639104;0.9616663;2.035468;1.09604;0.9611428;1.98776;0.6188798;0.9569918;1.807051;-0.09230903;0.6956714;1.695723;-0.3990101;0.3566547;1.799274;-0.2786614;0.06683356;0.941615;-0.08180238;0;0;0;1.215878;1.683772;-0.3990125;1.50692;1.77285;-0.2786659;1.641576;0.8431925;-0.06446874;1.810349;-0.08821952;-0.02234805;0.6504453;2.087591;1.68513;1.118575;1.239229;2.781485;1.590547;0.7218665;3.931227;0.6504453;2.087591;1.68513;1.118575;1.239229;2.781485;1.590547;0.7218665;3.931227
776178.7826;NotLabelled;NONE;16384;0.666205;-0.7180582;0.1772853;-0.09556787;-10;27;-7;-1300;3916;-344;65536;0.6828254;-0.7252674;0.08725762;0.01108033;-12;66;12;516;4184;-41;8192;0.5637119;-0.7181878;-0.3407202;-0.2243767;8;-14;10;1452;3900;-650;32768;0.6288089;-0.6575958;-0.3490305;-0.2243767;-18;-16;-1;-857;4193;-37;256;-0.1592798;-0.033241;-0.979288;0.1204986;-1;2;-4;284;-1226;3982;128;0.1911357;0;0.9779208;0.08448754;-4;-7;4;-616;574;-4168;4;0.2063712;-0.7045262;0.6398892;0.2271468;-6;-14;0;-4538;2578;-232;16;0.1952908;-0.952822;-0.2313019;-0.02216066;-1;-11;1;-1971;1419;3638;2;0.1592798;-0.6749474;-0.6495845;-0.3116343;1;0;0;4470;2750;-112;8;0.2036011;-0.9571439;0.200831;0.04570637;1;1;-1;801;1757;3913;0.9708362;2.079745;1.636356;0.9702891;2.029882;1.093092;0.9697862;1.984039;0.6157489;0.9650121;1.80306;-0.09536731;0.7033108;1.692499;-0.4020212;0.36465;1.797254;-0.2817112;0.06948081;0.9409763;-0.08679242;0;0;0;1.223474;1.678776;-0.4020239;1.514819;1.766911;-0.2817156;1.650362;0.8387347;-0.06173104;1.816638;-0.09281552;-0.01320732;0.6590428;2.079703;1.682367;1.119783;1.228893;2.779956;1.583056;0.7107812;3.932893;0.6590428;2.079703;1.682367;1.119783;1.228893;2.779956;1.583056;0.7107812;3.932893
776199.8403;NotLabelled;NONE;16384;0.66759;-0.7174114;0.1731302;-0.09833795;-13;31;-3;-1022;4026;-236;65536;0.6814404;-0.7274462;0.08033241;0.002770083;-8;70;14;128;4234;-87;8192;0.5623268;-0.7190461;-0.3421052;-0.2229917;4;2;12;1284;3916;-450;32768;0.6260388;-0.6614324;-0.3476454;-0.2229917;-15;-8;0;-899;4147;-137;256;-0.1578947;-0.03185596;-0.979387;0.1218837;-1;7;0;118;-1372;3744;128;0.1897507;0.001385042;0.9783081;0.08310249;2;3;2;-26;282;-4146;4;0.2049861;-0.7011362;0.6440443;0.2271468;-2;-3;-1;-2850;1974;-464;16;0.1952908;-0.9538523;-0.2271468;-0.02077562;1;-22;0;-1961;1285;3246;2;0.1592798;-0.6736117;-0.6509695;-0.3116343;0;5;1;3658;2296;-316;8;0.2036011;-0.9574335;0.199446;0.04570637;3;10;-2;1327;1663;3551;0.9781686;2.077412;1.632442;0.9776218;2.027574;1.089176;0.9771191;1.981751;0.6118308;0.9722824;1.8008;-0.09929195;0.7105426;1.690342;-0.4059496;0.3719183;1.795211;-0.2856361;0.07214404;0.9403087;-0.09170994;0;0;0;1.230701;1.676437;-0.4059525;1.522077;1.764466;-0.2856411;1.659004;0.837799;-0.06021994;1.821069;-0.09420049;-0.006368399;0.6663752;2.077368;1.678453;1.124056;1.226557;2.777321;1.583037;0.7117516;3.933452;0.6663752;2.077368;1.678453;1.124056;1.226557;2.777321;1.583037;0.7117516;3.933452
776220.6782;NotLabelled;NONE;16384;0.66759;-0.718145;0.16759;-0.1024931;-16;53;-1;-1258;3966;-372;65536;0.6814404;-0.7281711;0.0734072;-0.004155125;-2;84;17;-202;4428;-321;8192;0.5609418;-0.7198952;-0.3434903;-0.2216066;8;-2;5;1246;3772;-628;32768;0.6246537;-0.6641863;-0.3448753;-0.2229917;-9;-8;-1;-663;4097;15;256;-0.1578947;-0.03047091;-0.9792577;0.1232687;-1;5;0;50;-1286;3906;128;0.1897507;0;0.9784257;0.08171745;3;3;2;-12;322;-4112;4;0.2049861;-0.7011362;0.6440443;0.2271468;-1;1;-1;-3210;2186;-106;16;0.1952908;-0.9545369;-0.2243767;-0.01939058;2;-17;0;-1891;1223;3524;2;0.1578947;-0.6745764;-0.6509695;-0.3102493;-1;4;0;3414;2258;-326;8;0.2036011;-0.9577209;0.1980609;0.04570637;2;6;-2;1453;1549;3447;0.9798896;2.0848;1.633071;0.9793236;2.033222;1.089969;0.978804;1.98587;0.6127727;0.9744378;1.803299;-0.09793878;0.7129931;1.691413;-0.4043308;0.3740819;1.795601;-0.2842339;0.07334953;0.9398081;-0.09579761;0;0;0;1.233188;1.67897;-0.4043333;1.524322;1.768089;-0.2842385;1.663894;0.8427329;-0.05508548;1.825055;-0.08886337;0.007699609;0.6680978;2.084903;1.679094;1.120843;1.236221;2.781645;1.577516;0.7219682;3.938935;0.6680978;2.084903;1.679094;1.120843;1.236221;2.781645;1.577516;0.7219682;3.938935
776241.7592;NotLabelled;NONE;16384;0.6689751;-0.7170008;0.1634349;-0.1080332;-18;44;-4;-2226;3412;-406;65536;0.6814404;-0.7289057;0.06371191;-0.0166205;2;99;19;316;4306;-15;8192;0.5595568;-0.7209724;-0.3434903;-0.2216066;5;-4;4;1146;3986;-532;32768;0.6232687;-0.6654862;-0.3448753;-0.2229917;-5;-5;0;-787;4037;-3;256;-0.1565097;-0.03047091;-0.9793047;0.1246537;-1;4;0;78;-1262;3908;128;0.1897507;0;0.9784257;0.08171745;0;1;0;14;370;-3982;4;0.2049861;-0.7003094;0.6454294;0.2257618;-1;-2;-1;-3450;2106;-82;16;0.1939058;-0.9554659;-0.2216066;-0.01939058;1;-11;0;-1799;1115;3600;2;0.1578947;-0.6745764;-0.6509695;-0.3102493;-1;1;-1;3014;2140;-328;8;0.2036011;-0.9577209;0.1980609;0.04570637;1;-2;-1;1541;1527;3445;0.9793941;2.091588;1.634157;0.9788149;2.038808;1.091169;0.9782839;1.990401;0.6140794;0.9744608;1.806184;-0.09621045;0.7133563;1.692768;-0.4023301;0.3741232;1.796161;-0.2824547;0.07396649;0.9397435;-0.09594864;0;0;0;1.233588;1.681969;-0.4023327;1.524445;1.772283;-0.2824585;1.667303;0.8482594;-0.04997653;1.824404;-0.08369005;0.01767302;0.6676034;2.091793;1.680187;1.11998;1.24311;2.782889;1.578272;0.7294891;3.93982;0.6676034;2.091793;1.680187;1.11998;1.24311;2.782889;1.578272;0.7294891;3.93982
776263.6831;NotLabelled;NONE;16384;0.6689751;-0.7163263;0.1606648;-0.1163435;-6;6;-4;-1880;3320;-910;65536;0.6800554;-0.7305763;0.04986149;-0.03601108;-4;56;6;1180;3844;741;8192;0.5581717;-0.7220451;-0.3434903;-0.2216066;4;0;3;1298;4038;-376;32768;0.6232687;-0.6662021;-0.3434903;-0.2229917;-6;0;0;-809;4171;17;256;-0.1565097;-0.03047091;-0.9793047;0.1246537;0;2;0;324;-1324;3808;128;0.1897507;0;0.9784257;0.08171745;-3;0;1;-146;250;-3998;4;0.2049861;-0.6990303;0.6468144;0.2257618;-2;-5;-2;-3434;2204;-98;16;0.1939058;-0.9558132;-0.2202216;-0.01800554;0;-11;0;-1597;1151;3564;2;0.1578947;-0.6745764;-0.6509695;-0.3102493;0;-2;0;3004;1848;-458;8;0.2036011;-0.9574335;0.199446;0.04570637;1;-9;-1;1641;1533;3441;0.9888921;2.093143;1.638154;0.9883129;2.040363;1.095166;0.9877818;1.991956;0.6180762;0.9839348;1.805802;-0.09170812;0.7228231;1.691528;-0.3975025;0.3835877;1.795218;-0.2778902;0.07885282;0.9392641;-0.09675661;0;0;0;1.243056;1.680776;-0.397505;1.533911;1.771443;-0.2778945;1.675759;0.8481925;-0.04175133;1.832321;-0.0835489;0.02989697;0.6771014;2.093348;1.684184;1.12301;1.246857;2.791195;1.576355;0.7364552;3.951496;0.6771014;2.093348;1.684184;1.12301;1.246857;2.791195;1.576355;0.7364552;3.951496
776283.6736;NotLabelled;NONE;16384;0.66759;-0.7173058;0.1620499;-0.1163435;0;-18;-4;-1822;3322;-834;65536;0.6786703;-0.731753;0.04709141;-0.04155125;-3;28;3;946;3726;899;8192;0.5581717;-0.7213846;-0.3448753;-0.2216066;4;3;0;1156;3952;-462;32768;0.6218836;-0.6670309;-0.3434903;-0.2243767;-5;4;0;-709;4129;-43;256;-0.1551246;-0.03047091;-0.979525;0.1246537;2;1;-3;240;-1388;3704;128;0.1897507;0;0.9784257;0.08171745;-5;-7;2;-28;164;-3898;4;0.2036011;-0.698598;0.6481994;0.2243767;-4;-5;-1;-3282;1976;-74;16;0.1925208;-0.9564111;-0.2188366;-0.01800554;0;-10;0;-1481;1011;3432;2;0.1578947;-0.6759102;-0.6495845;-0.3102493;2;-13;3;2760;1754;-510;8;0.2036011;-0.9567851;0.2022161;0.04709141;-3;-13;1;1631;1385;3231;1.00499;2.089229;1.634742;1.004411;2.036449;1.091754;1.00388;1.988042;0.6146641;1.000033;1.801887;-0.0951201;0.7389212;1.687614;-0.4009145;0.3996859;1.791303;-0.2813022;0.08677305;0.9381071;-0.1011039;0;0;0;1.259154;1.676861;-0.4009171;1.55001;1.767528;-0.2813066;1.691488;0.8450612;-0.04190284;1.84621;-0.08694041;0.03035438;0.6931996;2.089433;1.680772;1.137517;1.242794;2.78831;1.593587;0.7331051;3.947855;0.6931996;2.089433;1.680772;1.137517;1.242794;2.78831;1.593587;0.7331051;3.947855
776303.7811;NotLabelled;NONE;16384;0.666205;-0.7180862;0.166205;-0.1135734;3;-28;0;-1752;3564;-718;65536;0.6772853;-0.7329553;0.04709141;-0.04293629;-1;-9;-2;1148;3742;731;8192;0.5581717;-0.7213846;-0.3448753;-0.2216066;4;0;0;928;3984;-196;32768;0.6218836;-0.6663159;-0.3448753;-0.2243767;-5;4;0;-613;4091;73;256;-0.1537396;-0.03047091;-0.9797434;0.1246537;3;0;-6;374;-1352;3852;128;0.1883656;0.001385042;0.9786924;0.08171745;-5;-8;4;2;274;-3958;4;0.2036011;-0.6960175;0.6509695;0.2243767;-4;-10;-1;-3258;2162;-106;16;0.1911357;-0.9576548;-0.2146814;-0.0166205;-2;-11;0;-1503;1217;3568;2;0.1578947;-0.6772386;-0.6481994;-0.3102493;5;-19;3;2930;1866;-492;8;0.2022161;-0.9564893;0.2049861;0.04709141;-4;-13;3;1609;1361;3301;1.009218;2.08735;1.628248;1.008639;2.03457;1.08526;1.008108;1.986163;0.6081706;1.004194;1.80003;-0.1016192;0.7430416;1.685858;-0.4074164;0.4038433;1.789666;-0.2878014;0.09006371;0.9373974;-0.1047445;0;0;0;1.26327;1.674919;-0.4074191;1.554158;1.765478;-0.2878059;1.696645;0.8431243;-0.04856259;1.848965;-0.08900702;0.02705038;0.6974274;2.087554;1.674278;1.138492;1.245718;2.786768;1.590293;0.73935;3.949435;0.6974274;2.087554;1.674278;1.138492;1.245718;2.786768;1.590293;0.73935;3.949435
776324.6759;NotLabelled;NONE;16384;0.666205;-0.7178726;0.1689751;-0.1108033;0;-24;-1;-1508;3704;-446;65536;0.6772853;-0.7329291;0.04986149;-0.0401662;0;-33;-3;654;3944;535;8192;0.5567867;-0.7235367;-0.3434903;-0.2202216;0;-6;1;1504;3790;-634;32768;0.6204986;-0.6683195;-0.3434903;-0.2243767;-3;-4;1;-859;3989;-127;256;-0.1495845;-0.03047091;-0.9803864;0.1246537;5;4;-7;198;-1266;3896;128;0.1855956;0.002770083;0.9791019;0.08310249;-6;-10;6;-152;380;-3982;4;0.2036011;-0.6951653;0.6523545;0.2229917;-4;-12;-2;-3198;2180;-220;16;0.1897507;-0.9582396;-0.2132964;-0.0166205;-3;-6;-1;-1627;1225;3578;2;0.1578947;-0.6805094;-0.6454294;-0.3088643;5;-19;4;3212;2020;-416;8;0.200831;-0.9561834;0.2077562;0.04709141;-5;-13;4;1489;1509;3387;1.010572;2.086165;1.620825;1.00999;2.033129;1.077863;1.009457;1.984497;0.6007957;1.005477;1.798385;-0.1089991;0.7442835;1.684318;-0.4148006;0.4051225;1.788243;-0.2951823;0.09112617;0.9368953;-0.1082522;0;0;0;1.264508;1.673191;-0.4148031;1.555429;1.763642;-0.295187;1.697249;0.8412892;-0.05554825;1.8512;-0.09058785;0.01988935;0.698782;2.086392;1.666857;1.133569;1.244274;2.781602;1.583145;0.741835;3.946833;0.6987832;2.086393;1.666858;1.13357;1.244274;2.781603;1.583146;0.7418354;3.946835
776345.6626;NotLabelled;NONE;16384;0.666205;-0.7176373;0.1717452;-0.1080332;5;-19;-4;-1764;3708;-328;65536;0.6772853;-0.7328506;0.05401662;-0.03601108;2;-33;-6;714;4054;273;8192;0.5567867;-0.7228776;-0.3448753;-0.2202216;1;3;0;1292;3968;-522;32768;0.6204986;-0.6683195;-0.3434903;-0.2243767;0;0;3;-887;4269;101;256;-0.1481994;-0.03047091;-0.9805967;0.1246537;6;5;-5;226;-1208;3866;128;0.1842105;0.004155125;0.9793586;0.08310249;-8;-4;6;-348;410;-4024;4;0.2036011;-0.693863;0.6537396;0.2229917;-4;-8;-2;-3112;2086;-170;16;0.1883656;-0.9585128;-0.2132964;-0.0166205;-4;-3;0;-1771;1227;3510;2;0.1565097;-0.6821397;-0.6440443;-0.3088643;4;-15;4;3582;2110;-392;8;0.199446;-0.9561713;0.2091413;0.04709141;-5;-15;5;1613;1475;3483;1.012139;2.083093;1.623128;1.011571;2.031316;1.080043;1.011049;1.983791;0.6028646;1.006871;1.797748;-0.1069473;0.745556;1.683988;-0.4127591;0.4065065;1.788267;-0.2931331;0.09161385;0.9368979;-0.107816;0;0;0;1.265769;1.672302;-0.4127619;1.556786;1.76243;-0.293137;1.696544;0.8412217;-0.04794598;1.847613;-0.0906738;0.032902;0.7003472;2.083213;1.669151;1.122358;1.243337;2.790479;1.561162;0.744233;3.961236;0.7003472;2.083213;1.669151;1.122358;1.243337;2.790479;1.561162;0.744233;3.961236
776366.8595;NotLabelled;NONE;16384;0.66482;-0.7181223;0.1759003;-0.1066482;7;-28;-6;-1732;3824;-366;65536;0.6786703;-0.7314423;0.05817174;-0.03185596;7;-40;-10;766;4060;465;8192;0.5567867;-0.7228776;-0.3448753;-0.2202216;2;-2;1;1056;3904;-498;32768;0.6204986;-0.6678529;-0.3434903;-0.2257618;0;5;3;-829;4123;-55;256;-0.1468144;-0.02908587;-0.9810221;0.1232687;8;6;-4;150;-1246;3964;128;0.1842105;0.004155125;0.9792401;0.08448754;-11;-1;5;-348;480;-4098;4;0.2022161;-0.6934053;0.6551247;0.2216066;-3;-2;-3;-3064;2062;-316;16;0.1869806;-0.9587839;-0.2132964;-0.0166205;-5;-2;0;-1787;1269;3548;2;0.1551246;-0.6830812;-0.6440443;-0.3074792;4;-8;5;3608;2210;-434;8;0.1980609;-0.9558493;0.2119114;0.04709141;-4;-12;5;1651;1637;3501;1.011792;2.083341;1.622811;1.011221;2.031319;1.07975;1.010697;1.983579;0.6025926;1.006452;1.797559;-0.107225;0.7450966;1.683902;-0.4130406;0.4060846;1.7883;-0.2934112;0.09130996;0.9369068;-0.1080013;0;0;0;1.265305;1.672031;-0.4130432;1.556355;1.76205;-0.2934155;1.697099;0.8409562;-0.04836005;1.847943;-0.09093976;0.03290808;0.7000003;2.083481;1.668836;1.117294;1.243478;2.791832;1.552493;0.7478092;3.965391;0.7000003;2.083481;1.668836;1.117294;1.243478;2.791832;1.552493;0.7478092;3.965391
776388.6656;NotLabelled;NONE;16384;0.66482;-0.7175451;0.1814404;-0.101108;6;-15;1;-1314;3850;-338;65536;0.6828254;-0.7270743;0.07063711;-0.01108033;10;-43;-7;-128;4202;193;8192;0.5554016;-0.7243622;-0.3448753;-0.2188366;4;0;2;1364;3972;-574;32768;0.6204986;-0.6673831;-0.3434903;-0.2271468;1;8;4;-865;4169;51;256;-0.1468144;-0.02770083;-0.9812352;0.1218837;9;7;-4;216;-1154;3994;128;0.1828255;0.004155125;0.9793791;0.08587258;-10;3;5;-240;524;-4200;4;0.2022161;-0.6934053;0.6551247;0.2216066;-3;3;-4;-3196;2340;-158;16;0.1869806;-0.9587839;-0.2132964;-0.0166205;-4;1;1;-1713;1321;3720;2;0.1523546;-0.6863031;-0.6412742;-0.3074792;5;-6;3;3802;2284;-396;8;0.1966759;-0.9555843;0.2146814;0.04570637;-2;-8;6;1603;1691;3631;1.014407;2.077501;1.623371;1.013853;2.026965;1.08017;1.013343;1.980529;0.6028841;1.009507;1.796787;-0.1075284;0.7483928;1.683607;-0.4137271;0.4091707;1.786961;-0.2937873;0.09219131;0.9371946;-0.1047127;0;0;0;1.268623;1.672745;-0.4137301;1.559489;1.762943;-0.293792;1.699463;0.8418493;-0.04829639;1.848214;-0.09039938;0.03277981;0.7026145;2.077516;1.669387;1.116138;1.242347;2.797372;1.547253;0.7501154;3.973882;0.7026145;2.077516;1.669387;1.116138;1.242347;2.797372;1.547253;0.7501154;3.973882
776409.7409;NotLabelled;NONE;16384;0.6634349;-0.7190194;0.1814404;-0.09972299;1;0;-1;-1582;3970;-364;65536;0.6842105;-0.7255596;0.0734072;-0.005540166;10;-35;-9;394;4212;181;8192;0.5554016;-0.7237011;-0.3462604;-0.2188366;1;3;1;1052;3798;-558;32768;0.6204986;-0.6666685;-0.3448753;-0.2271468;3;10;5;-769;3943;-21;256;-0.1454294;-0.02770083;-0.9814414;0.1218837;7;6;-3;128;-1094;4170;128;0.1814404;0.002770083;0.9795192;0.08725762;-10;3;4;-144;622;-4420;4;0.2022161;-0.6934053;0.6551247;0.2216066;-2;6;-5;-3252;2440;-180;16;0.1855956;-0.959053;-0.2132964;-0.0166205;-5;6;1;-1523;1475;3578;2;0.1509695;-0.6866091;-0.6412742;-0.3074792;4;3;3;3784;2362;-532;8;0.1966759;-0.9553373;0.2160665;0.04432133;-2;-2;6;1363;1725;3467;1.003632;2.075383;1.634862;1.003094;2.026362;1.091523;1.002599;1.981259;0.6141089;0.9992276;1.79977;-0.09688544;0.7383925;1.686966;-0.4034603;0.3989266;1.789158;-0.2832143;0.08313745;0.9393313;-0.09242123;0;0;0;1.258647;1.6773;-0.4034626;1.549298;1.767785;-0.283219;1.690768;0.8479671;-0.03382725;1.837654;-0.0846312;0.046628;0.6918378;2.075269;1.680869;1.104926;1.240101;2.809014;1.535585;0.7478685;3.985691;0.6918378;2.075269;1.680869;1.104926;1.240101;2.809014;1.535585;0.7478685;3.985691
776431.6707;NotLabelled;NONE;16384;0.6634349;-0.7190194;0.1814404;-0.09972299;1;4;-5;-1838;3754;-314;65536;0.6855956;-0.7241291;0.07479224;-0.001385042;11;-29;-11;546;4122;113;8192;0.5554016;-0.7237011;-0.3462604;-0.2188366;1;0;0;1208;3982;-412;32768;0.6204986;-0.6645184;-0.3462604;-0.2313019;1;11;6;-853;4173;81;256;-0.1426593;-0.02493075;-0.9822621;0.1191136;6;2;-1;22;-988;3804;128;0.1814404;0.001385042;0.9793977;0.08864266;-7;4;1;-72;722;-4188;4;0.2036011;-0.6951846;0.6537396;0.2188366;-3;10;-1;-3528;2170;-54;16;0.1842105;-0.958986;-0.2146814;-0.01800554;-6;7;1;-1603;1311;3474;2;0.1495845;-0.6856166;-0.6426592;-0.3074792;2;6;1;3538;2286;-636;8;0.1952908;-0.9559336;0.2146814;0.04432133;-3;3;5;1465;1573;3345;0.9986508;2.072887;1.637525;0.9981326;2.025652;1.094027;0.997655;1.982117;0.6164681;0.9942203;1.800647;-0.09453091;0.7333458;1.687942;-0.4011087;0.3939156;1.790249;-0.2808602;0.08068744;0.9399884;-0.08779393;0;0;0;1.253597;1.678095;-0.4011117;1.544279;1.768475;-0.2808653;1.686725;0.8487747;-0.0315941;1.835239;-0.08357906;0.04870307;0.686855;2.072623;1.68352;1.096806;1.237454;2.812808;1.523828;0.7486634;3.992242;0.686855;2.072623;1.68352;1.096806;1.237454;2.812808;1.523828;0.7486634;3.992242
776452.6706;NotLabelled;NONE;16384;0.6620498;-0.7197514;0.1828255;-0.101108;0;1;-10;-1718;3708;-248;65536;0.6869806;-0.7225232;0.07756232;0.001385042;11;-27;-15;618;4072;-53;8192;0.5554016;-0.7237011;-0.3462604;-0.2188366;3;-4;0;1366;3844;-412;32768;0.6204986;-0.6640347;-0.3462604;-0.232687;3;7;7;-763;4029;29;256;-0.1426593;-0.02493075;-0.9822621;0.1191136;5;2;-1;214;-914;3910;128;0.1814404;0;0.9792724;0.0900277;-7;3;1;-184;702;-3952;4;0.2036011;-0.6951846;0.6537396;0.2188366;-1;8;-3;-3794;2312;94;16;0.1828255;-0.95894;-0.2160665;-0.01800554;-3;1;1;-1771;1301;3868;2;0.1495845;-0.6843157;-0.6440443;-0.3074792;0;8;0;3648;2284;-600;8;0.1952908;-0.9559968;0.2146814;0.04293629;-2;5;5;1669;1657;3467;0.9969739;2.066838;1.646041;0.9964748;2.021358;1.102393;0.9960141;1.979367;0.6246958;0.9933614;1.802437;-0.08744949;0.7329615;1.69067;-0.3947735;0.3931201;1.790871;-0.2739146;0.07868351;0.9406097;-0.08282351;0;0;0;1.253247;1.682867;-0.3947763;1.54356;1.773619;-0.2739191;1.684436;0.8539188;-0.02375656;1.82884;-0.07922935;0.05478334;0.6851763;2.066424;1.692024;1.082502;1.233582;2.827526;1.498907;0.7475383;4.01188;0.6851763;2.066424;1.692024;1.082502;1.233582;2.827526;1.498907;0.7475383;4.01188
776472.6712;NotLabelled;NONE;16384;0.6620498;-0.7192021;0.1842105;-0.1024931;-2;3;-10;-1290;3822;-72;65536;0.6883656;-0.7210335;0.07894737;0.005540166;13;-25;-14;346;4002;-9;8192;0.5554016;-0.7237011;-0.3462604;-0.2188366;2;0;0;1258;3966;-356;32768;0.6204986;-0.6635477;-0.3462604;-0.234072;4;13;9;-835;4149;-45;256;-0.1412742;-0.02493075;-0.9826291;0.1177285;5;2;0;302;-986;3962;128;0.1800554;0;0.9793997;0.09141274;-8;4;0;-236;704;-3952;4;0.2022161;-0.696023;0.6537396;0.2174515;-2;1;-6;-3822;2358;-32;16;0.1814404;-0.9591761;-0.2160665;-0.01939058;-1;2;1;-1859;1303;4020;2;0.1481994;-0.684617;-0.6440443;-0.3074792;0;12;1;3408;2124;-686;8;0.1952908;-0.956058;0.2146814;0.04155125;0;2;4;1939;1739;3615;1.000218;2.061439;1.643353;0.9997383;2.017716;1.09956;0.9992945;1.977268;0.6217302;0.9966513;1.800338;-0.09041533;0.7362554;1.688572;-0.397743;0.3964125;1.788772;-0.2768887;0.07972072;0.9408194;-0.07937278;0;0;0;1.256541;1.680769;-0.3977385;1.546853;1.77152;-0.2768777;1.687727;0.8526336;-0.02374411;1.830314;-0.08085525;0.05406952;0.6884189;2.060877;1.689323;1.085729;1.228035;2.824831;1.502399;0.7455229;4.010535;0.6884189;2.060877;1.689323;1.085729;1.228035;2.824831;1.502399;0.7455229;4.010535
776493.685;NotLabelled;NONE;16384;0.6634349;-0.7178779;0.1828255;-0.1052632;-8;17;-7;-1356;3936;-226;65536;0.6925207;-0.7167774;0.08033241;0.01385042;8;-17;-11;294;4152;-49;8192;0.5554016;-0.7237011;-0.3462604;-0.2188366;0;2;0;1132;3892;-474;32768;0.6204986;-0.6618384;-0.3476454;-0.2368421;3;17;9;-723;4035;-29;256;-0.1412742;-0.02493075;-0.9826291;0.1177285;5;0;1;90;-974;4058;128;0.1800554;0;0.9792694;0.09279778;-9;2;-1;-86;668;-4188;4;0.2022161;-0.6964542;0.6537396;0.2160665;-1;0;-7;-3470;2326;-108;16;0.1814404;-0.9591761;-0.2160665;-0.01939058;0;7;2;-1637;1397;3730;2;0.1454294;-0.6858306;-0.6440443;-0.3060942;5;-6;7;2960;2214;-780;8;0.1952908;-0.9554318;0.2174515;0.04155125;0;-12;3;1621;1775;3163;1.002039;2.055455;1.652051;1.001576;2.013246;1.108139;1.001147;1.974127;0.6301985;0.9983945;1.799181;-0.08243659;0.7379255;1.688463;-0.3900809;0.3981532;1.788578;-0.2689579;0.07746728;0.9413981;-0.0745976;0;0;0;1.258205;1.680276;-0.3900833;1.54858;1.770475;-0.268963;1.688751;0.8507752;-0.0184046;1.82931;-0.08304977;0.05906403;0.6902388;2.054765;1.69801;1.085702;1.226894;2.837789;1.495199;0.7470376;4.027064;0.6902388;2.054765;1.69801;1.085702;1.226894;2.837789;1.495199;0.7470376;4.027064
776514.7076;NotLabelled;NONE;16384;0.6634349;-0.7178178;0.1814404;-0.1080332;-7;20;-13;-2062;3486;-304;65536;0.6925207;-0.7167186;0.08033241;0.0166205;7;-17;-16;1026;3978;-11;8192;0.5554016;-0.7237011;-0.3462604;-0.2188366;1;-1;-2;1028;3830;-626;32768;0.6218836;-0.6600388;-0.3476454;-0.2382271;5;11;7;-605;4087;77;256;-0.1412742;-0.02493075;-0.9827941;0.1163435;5;0;2;156;-1056;3980;128;0.1800554;0;0.9792694;0.09279778;-2;1;-2;-134;606;-4248;4;0.2022161;-0.6968824;0.6537396;0.2146814;-2;5;-5;-3234;2496;34;16;0.1814404;-0.958834;-0.2174515;-0.02077562;0;5;2;-1413;1469;3464;2;0.1454294;-0.6871287;-0.6426592;-0.3060942;5;-11;4;2942;2280;-524;8;0.1952908;-0.9551154;0.2188366;0.04155125;-2;-9;4;1431;1765;3041;1.000116;2.053573;1.669141;0.999669;2.012854;1.125116;0.9992541;1.975044;0.6470695;0.9965012;1.800098;-0.06556544;0.7360322;1.68938;-0.3732099;0.3962598;1.789495;-0.2520869;0.07219293;0.942771;-0.06138179;0;0;0;1.256312;1.681192;-0.3732128;1.546687;1.771392;-0.2520917;1.686861;0.8516927;-0.001536071;1.825676;-0.08256173;0.0738703;0.6883139;2.052757;1.715089;1.081832;1.227281;2.857276;1.491329;0.7474241;4.046551;0.6883139;2.052757;1.715089;1.081832;1.227281;2.857276;1.491329;0.7474241;4.046551
776535.8591;NotLabelled;NONE;16384;0.6634349;-0.7166102;0.1828255;-0.1135734;-6;9;-21;-2456;3360;-234;65536;0.6939058;-0.7151511;0.08171745;0.01939058;5;-18;-24;840;3986;1;8192;0.5554016;-0.7237011;-0.3462604;-0.2188366;2;-1;-4;1432;3948;-476;32768;0.6218836;-0.6588054;-0.3490305;-0.2396122;5;3;7;-753;4139;-11;256;-0.1412742;-0.02493075;-0.9829571;0.1149584;4;0;2;190;-952;3954;128;0.1800554;0;0.9792694;0.09279778;-1;-2;-3;-160;690;-4238;4;0.2036011;-0.6951764;0.6551247;0.2146814;-7;-8;1;-3138;2484;-116;16;0.1814404;-0.959147;-0.2160665;-0.02077562;-3;-2;1;-1433;1507;3384;2;0.1454294;-0.6884214;-0.6412742;-0.3060942;4;-8;1;3234;2366;-492;8;0.1939058;-0.9551386;0.2202216;0.0401662;-4;-4;6;1345;1767;3209;0.9987994;2.050457;1.6714;0.9983524;2.009738;1.127375;0.9979376;1.971928;0.6493284;0.995147;1.798951;-0.06378701;0.7346476;1.689187;-0.371747;0.3949098;1.789103;-0.2503631;0.06863295;0.9431152;-0.06016067;0;0;0;1.254924;1.680791;-0.37175;1.545329;1.770541;-0.2503676;1.685495;0.8508406;0.0001933575;1.823018;-0.08394301;0.0712837;0.6869975;2.049642;1.717347;1.078536;1.226561;2.861942;1.485202;0.7459886;4.051899;0.6869975;2.049642;1.717347;1.078536;1.226561;2.861942;1.485202;0.7459886;4.051899
776556.6928;NotLabelled;NONE;16384;0.6634349;-0.7154527;0.1855956;-0.1163435;-6;0;-21;-1794;3720;-256;65536;0.6939058;-0.7151833;0.08033241;0.0235457;-6;-13;-24;288;4044;139;8192;0.5540166;-0.7240986;-0.3476454;-0.2188366;0;1;1;524;4106;-224;32768;0.6232687;-0.6552272;-0.3504155;-0.2437673;4;13;13;-621;4077;-165;256;-0.1412742;-0.02493075;-0.9829571;0.1149584;1;0;2;454;-798;3908;128;0.1814404;0;0.9788815;0.09418282;-4;-2;-2;-276;862;-4014;4;0.2036011;-0.6938685;0.6565097;0.2146814;-5;-1;0;-2964;2236;-214;16;0.1814404;-0.959116;-0.2160665;-0.02216066;-4;0;1;-1781;1401;3492;2;0.1440443;-0.6887125;-0.6412742;-0.3060942;2;-2;0;3418;2346;-474;8;0.1939058;-0.9551386;0.2202216;0.0401662;-3;-1;6;1607;1835;3437;1.007422;2.044386;1.675762;1.006975;2.003666;1.131737;1.00656;1.965857;0.6536906;1.003733;1.79485;-0.05989954;0.7432033;1.686041;-0.3681733;0.4034999;1.785757;-0.2465287;0.06811556;0.9434087;-0.05601416;0;0;0;1.263476;1.677437;-0.3681763;1.553912;1.766735;-0.2465339;1.694072;0.8470352;0.004030287;1.831679;-0.08783698;0.07379019;0.6956203;2.043571;1.72171;1.082308;1.217813;2.866024;1.488282;0.7371643;4.056187;0.6956203;2.043571;1.72171;1.082308;1.217813;2.866024;1.488282;0.7371643;4.056187
776576.6753;NotLabelled;NONE;16384;0.6634349;-0.7148653;0.1869806;-0.1177285;-2;-1;-12;-1216;3656;-118;65536;0.6939058;-0.7150344;0.08033241;0.02770083;-6;-10;-18;94;4048;-105;8192;0.5554016;-0.7230368;-0.3476454;-0.2188366;-3;0;-2;486;4308;90;32768;0.6232687;-0.6554496;-0.3490305;-0.2451524;1;2;7;-287;4149;-235;256;-0.1412742;-0.02631579;-0.983082;0.1135734;4;0;1;662;-870;3850;128;0.1814404;0;0.9787472;0.09556787;-2;0;-2;-436;778;-3828;4;0.2036011;-0.6942955;0.6565097;0.2132964;-4;4;-2;-3176;2248;-208;16;0.1800554;-0.959377;-0.2160665;-0.02216066;-3;5;2;-1881;1377;3646;2;0.1440443;-0.6887125;-0.6412742;-0.3060942;2;0;0;3386;2378;-646;8;0.1939058;-0.9551386;0.2202216;0.0401662;-1;-1;5;1757;1903;3521;1.007224;2.039301;1.677598;1.006793;2.000046;1.133465;1.006392;1.963523;0.6553183;1.003565;1.792517;-0.05827188;0.7430354;1.683706;-0.3665459;0.4033319;1.783423;-0.2449015;0.06106251;0.9440331;-0.05357658;0;0;0;1.263308;1.675103;-0.3665485;1.553744;1.764401;-0.2449059;1.695108;0.8456314;0.008381009;1.829767;-0.09013224;0.07163632;0.6954203;2.038363;1.723534;1.080528;1.212513;2.868315;1.483028;0.7310746;4.059339;0.6954203;2.038363;1.723534;1.080528;1.212513;2.868315;1.483028;0.7310746;4.059339
776596.7785;NotLabelled;NONE;16384;0.666205;-0.7118561;0.1911357;-0.1135734;-16;-13;1;-1074;4520;846;65536;0.6911357;-0.7181103;0.07617728;0.02908587;-23;38;14;-1114;4270;-303;8192;0.5581717;-0.7200538;-0.3476454;-0.2216066;-6;13;-12;182;4198;32;32768;0.6246537;-0.6541298;-0.3490305;-0.2451524;-5;-12;-4;125;4049;-285;256;-0.1412742;-0.02631579;-0.983241;0.1121884;5;0;1;384;-924;3956;128;0.1814404;0.001385042;0.9787462;0.09556787;-4;2;0;-462;738;-3954;4;0.2049861;-0.6951957;0.6551247;0.2132964;-1;10;-4;-3126;2172;-160;16;0.1800554;-0.959064;-0.2174515;-0.02216066;-3;11;2;-1879;1365;3574;2;0.1412742;-0.6892861;-0.6412742;-0.3060942;3;2;3;3524;2306;-668;8;0.1939058;-0.9548754;0.2216066;0.03878116;0;-6;2;1621;1875;3375;1.005796;2.031434;1.67971;1.005381;1.993668;1.135471;1.004995;1.958455;0.6572264;1.001667;1.789139;-0.05676454;0.7408136;1.681869;-0.3653038;0.4014174;1.782359;-0.2434384;0.0557682;0.9444695;-0.05161297;0;0;0;1.261057;1.671642;-0.3653066;1.551765;1.759746;-0.2434428;1.693689;0.8401673;0.006573498;1.824687;-0.09613514;0.06953788;0.6939909;2.030369;1.725633;1.077504;1.206926;2.872681;1.479968;0.7289376;4.065106;0.6939909;2.030369;1.725633;1.077504;1.206926;2.872681;1.479968;0.7289376;4.065106
776617.6738;NotLabelled;NONE;16384;0.6689751;-0.7097713;0.1883656;-0.1149584;-19;36;4;-762;4084;64;65536;0.6897507;-0.7202935;0.07063711;0.02077562;-21;72;23;-72;4352;-113;8192;0.5609418;-0.717037;-0.3476454;-0.2243767;-7;8;-18;760;3956;-480;32768;0.6246537;-0.6561166;-0.3462604;-0.2437673;-8;-24;-12;-247;4123;-283;256;-0.1412742;-0.02631579;-0.983241;0.1121884;4;0;3;268;-836;4114;128;0.1814404;0.001385042;0.9787462;0.09556787;0;1;-2;-298;912;-4214;4;0.2049861;-0.6969209;0.6537396;0.2119114;1;17;-5;-2912;2346;-170;16;0.1786704;-0.9586579;-0.2202216;-0.0235457;-3;15;2;-1945;1571;3380;2;0.1412742;-0.6892861;-0.6412742;-0.3060942;2;3;2;3244;2594;-674;8;0.1952908;-0.9542705;0.2229917;0.03878116;0;-8;1;1517;2059;3189;0.9976054;2.029996;1.680474;0.9971881;1.991962;1.136254;0.9967991;1.956513;0.6580267;0.9934431;1.789168;-0.05642897;0.732564;1.682854;-0.3652776;0.3932013;1.783143;-0.2431534;0.04616393;0.9447267;-0.05619528;0;0;0;1.252804;1.672419;-0.3652801;1.543539;1.76007;-0.2431575;1.682388;0.8379548;-0.0008779764;1.81392;-0.09850693;0.05851543;0.685801;2.028953;1.726399;1.067597;1.203022;2.872229;1.47069;0.7251017;4.064469;0.685801;2.028953;1.726399;1.067597;1.203022;2.872229;1.47069;0.7251017;4.064469
776637.6747;NotLabelled;NONE;16384;0.6689751;-0.7107652;0.1828255;-0.1177285;-15;36;5;-2210;3478;-448;65536;0.6869806;-0.7235433;0.06648199;0.01108033;-10;63;21;626;4162;379;8192;0.5609418;-0.7166021;-0.3476454;-0.2257618;-8;5;-11;1612;3920;-626;32768;0.6246537;-0.6578671;-0.3448753;-0.2409972;5;-25;-7;-883;4265;-7;256;-0.1412742;-0.02770083;-0.98336;0.1108033;4;0;4;774;-706;4248;128;0.1828255;0.001385042;0.9783522;0.09695291;0;3;-5;-670;1070;-4300;4;0.2049861;-0.6995091;0.6509695;0.2119114;3;16;-2;-3320;2432;4;16;0.1786704;-0.9576588;-0.2243767;-0.02493075;-4;14;-1;-1581;1615;3216;2;0.1412742;-0.6892861;-0.6412742;-0.3060942;1;4;0;3158;2680;-718;8;0.1952908;-0.9542705;0.2229917;0.03878116;-1;-5;1;1305;2037;3227;1.001071;2.030719;1.682608;1.000654;1.992685;1.138389;1.000265;1.957236;0.6601615;0.996909;1.789891;-0.05429417;0.7360298;1.683577;-0.3631428;0.3966671;1.783866;-0.2410187;0.0485401;0.9442773;-0.0614967;0;0;0;1.256269;1.673142;-0.3631453;1.547005;1.760793;-0.2410227;1.682816;0.8362088;-0.006556571;1.812335;-0.1004081;0.0547713;0.6892668;2.029676;1.728534;1.070673;1.206224;2.876277;1.471193;0.7310898;4.070496;0.6892668;2.029676;1.728534;1.070673;1.206224;2.876277;1.471193;0.7310898;4.070496
776658.6755;NotLabelled;NONE;16384;0.6689751;-0.7106559;0.1814404;-0.1204986;-5;2;4;-2496;3292;-780;65536;0.6869806;-0.723986;0.06232687;0.004155125;3;43;13;818;4224;491;8192;0.5609418;-0.7156873;-0.3504155;-0.2243767;-4;4;10;1024;4108;-284;32768;0.6274238;-0.6598935;-0.3407202;-0.234072;3;-20;6;-947;4117;113;256;-0.1426593;-0.02908587;-0.9834282;0.1080332;3;0;5;406;-798;3998;128;0.1842105;0.001385042;0.9780924;0.09695291;-1;1;-4;-480;932;-4172;4;0.2049861;-0.7007955;0.6495845;0.2119114;4;9;0;-3492;2564;122;16;0.1786704;-0.9570056;-0.2271468;-0.02493075;-3;7;-3;-1823;1643;3452;2;0.1412742;-0.6886694;-0.6412742;-0.3074792;-2;8;0;3164;2704;-732;8;0.1952908;-0.9542132;0.2229917;0.0401662;-3;1;0;1305;1977;3213;1.003779;2.024501;1.675516;1.003378;1.987929;1.131196;1.003003;1.953764;0.6528754;0.9991632;1.788112;-0.06197202;0.7379702;1.68334;-0.3710816;0.3989157;1.7844;-0.2487378;0.05338505;0.9433403;-0.07109926;0;0;0;1.258174;1.671281;-0.3710847;1.549176;1.757737;-0.2487427;1.683063;0.8326921;-0.01498502;1.814288;-0.103546;0.04845774;0.6919737;2.023335;1.72143;1.076856;1.200048;2.86813;1.476235;0.7242937;4.062484;0.6919737;2.023335;1.72143;1.076856;1.200048;2.86813;1.476235;0.7242937;4.062484
776678.6754;NotLabelled;NONE;16384;0.6689751;-0.7105345;0.1828255;-0.1191136;3;-17;8;-1732;3572;-400;65536;0.6869806;-0.723998;0.06232687;0;9;12;11;266;4144;401;8192;0.5623268;-0.7143526;-0.3518005;-0.2229917;-8;4;7;378;3956;-318;32768;0.6288089;-0.6597786;-0.3393352;-0.232687;1;-12;3;-429;3901;-255;256;-0.1426593;-0.02908587;-0.9834282;0.1080332;3;0;6;470;-904;4208;128;0.1842105;0.001385042;0.9779541;0.09833795;0;0;-6;-358;824;-4202;4;0.2049861;-0.7007955;0.6495845;0.2119114;3;5;0;-3652;2546;180;16;0.1786704;-0.9570056;-0.2271468;-0.02493075;-1;3;-5;-1705;1459;3714;2;0.1412742;-0.6873771;-0.6426592;-0.3074792;-5;7;-1;3114;2472;-880;8;0.1952908;-0.9542132;0.2229917;0.0401662;-4;0;-1;1683;1925;3267;1.009483;2.016945;1.674491;1.009082;1.980344;1.130173;1.008706;1.946154;0.651854;1.004431;1.784142;-0.06382483;0.7429438;1.681778;-0.3734928;0.4041992;1.783306;-0.2506778;0.05702342;0.9430113;-0.07262401;0;0;0;1.263106;1.668048;-0.3734953;1.554368;1.752947;-0.2506826;1.694371;0.8286128;-0.01770002;1.830103;-0.1071191;0.04369855;0.6976777;2.015782;1.720405;1.087603;1.192582;2.865463;1.491929;0.7169561;4.058203;0.6976777;2.015782;1.720405;1.087603;1.192582;2.865463;1.491929;0.7169561;4.058203
776699.6947;NotLabelled;NONE;16384;0.6689751;-0.7118777;0.1828255;-0.1108033;7;-9;14;-1358;3900;292;65536;0.6897507;-0.7212371;0.06371191;-0.001385042;5;-4;12;260;4084;-65;8192;0.5623268;-0.7139187;-0.3518005;-0.2243767;-1;3;5;530;3870;-490;32768;0.6288089;-0.6604891;-0.3379501;-0.232687;4;0;-3;-431;4187;-25;256;-0.1426593;-0.02908587;-0.9835795;0.1066482;4;2;7;582;-832;4344;128;0.1855956;0.002770083;0.9776893;0.09833795;1;1;-6;-552;888;-4264;4;0.2049861;-0.7007955;0.6495845;0.2119114;5;2;-1;-3596;2370;60;16;0.1772853;-0.9572982;-0.2271468;-0.0235457;1;2;-5;-1671;1465;3738;2;0.1426593;-0.6883838;-0.6412742;-0.3074792;-5;-5;-1;3128;2452;-880;8;0.1952908;-0.9537678;0.2243767;0.04293629;-3;-10;-5;1835;1817;3365;1.014589;2.013679;1.67245;1.014204;1.978569;1.128034;1.013844;1.945688;0.6496229;1.009568;1.783677;-0.06605595;0.7480811;1.681313;-0.3757235;0.4093364;1.78284;-0.2529092;0.06247512;0.9425354;-0.07429081;0;0;0;1.268244;1.667583;-0.3757263;1.559505;1.752482;-0.2529135;1.703713;0.828007;-0.02307367;1.839833;-0.1078148;0.03604472;0.7027824;2.01239;1.718351;1.092707;1.18919;2.863409;1.497033;0.7135644;4.056149;0.7027824;2.01239;1.718351;1.092707;1.18919;2.863409;1.497033;0.7135644;4.056149
776719.8269;NotLabelled;NONE;16384;0.6689751;-0.7123033;0.1828255;-0.1080332;6;-8;14;-1744;3696;134;65536;0.6897507;-0.720987;0.06648199;-0.001385042;0;-8;9;596;3982;-33;8192;0.5623268;-0.7143526;-0.3518005;-0.2229917;0;-5;7;890;4164;-332;32768;0.6288089;-0.6597786;-0.3393352;-0.232687;6;4;-5;-785;4157;-79;256;-0.1440443;-0.02908587;-0.9835268;0.1052632;6;5;9;704;-752;4234;128;0.1855956;0.002770083;0.9776893;0.09833795;0;2;-8;-712;968;-4390;4;0.2036011;-0.7011991;0.6495845;0.2119114;8;1;-1;-3350;2304;-86;16;0.1772853;-0.9569685;-0.2285319;-0.0235457;2;8;-6;-1945;1413;3542;2;0.1440443;-0.6880953;-0.6412742;-0.3074792;-6;-5;-1;3480;2410;-804;8;0.1952908;-0.9533775;0.2257618;0.04432133;-2;-11;-8;1655;1901;3431;1.00932;2.016123;1.678843;1.008932;1.980709;1.134446;1.008568;1.947562;0.6560539;1.004273;1.787526;-0.06006917;0.7427652;1.686122;-0.370035;0.4040537;1.787447;-0.2469622;0.06841309;0.9425613;-0.0685198;0;0;0;1.262922;1.672181;-0.3700421;1.55421;1.756624;-0.2469771;1.696398;0.8315505;-0.01829076;1.830637;-0.1045073;0.04139435;0.6975133;2.01486;1.724746;1.087408;1.191659;2.869815;1.494724;0.7203099;4.063235;0.6975133;2.01486;1.724746;1.087408;1.191659;2.869815;1.494724;0.7203099;4.063235
776740.672;NotLabelled;NONE;16384;0.6689751;-0.712718;0.1828255;-0.1052632;4;-10;13;-1676;3610;-186;65536;0.6897507;-0.7208579;0.06786703;-0.001385042;0;-13;6;470;3984;-147;8192;0.5623268;-0.7147835;-0.3518005;-0.2216066;-5;-8;7;1510;3914;-612;32768;0.6288089;-0.6590644;-0.3407202;-0.232687;6;0;-3;-755;4209;77;256;-0.1454294;-0.02908587;-0.9833229;0.1052632;3;5;12;818;-802;4150;128;0.1883656;0.001385042;0.9771623;0.09833795;1;7;-9;-958;924;-4370;4;0.2036011;-0.7020603;0.6481994;0.2132964;10;9;0;-3004;2386;-106;16;0.1772853;-0.9563358;-0.2313019;-0.02216066;2;14;-7;-1855;1469;3306;2;0.1440443;-0.6887125;-0.6412742;-0.3060942;-7;-3;-2;3702;2548;-822;8;0.1966759;-0.9530274;0.2257618;0.04570637;-2;-2;-10;1457;1859;3489;1.008299;2.014639;1.676647;1.007911;1.979225;1.132251;1.007547;1.946078;0.6538585;1.003295;1.78799;-0.0626978;0.7418023;1.687456;-0.3729591;0.4030907;1.78848;-0.2496393;0.07169043;0.942227;-0.06975512;0;0;0;1.261958;1.673463;-0.3729616;1.553244;1.757541;-0.2496437;1.698065;0.8330661;-0.02018988;1.834346;-0.1027563;0.03855932;0.6964927;2.013376;1.722551;1.092761;1.192775;2.867298;1.503997;0.7214948;4.0594;0.6964927;2.013376;1.722551;1.092761;1.192775;2.867298;1.503997;0.7214948;4.0594
776761.6731;NotLabelled;NONE;16384;0.6689751;-0.7129211;0.1828255;-0.1038781;4;0;8;-1504;3562;-132;65536;0.6897507;-0.7205918;0.07063711;-0.001385042;0;-17;2;698;3946;87;8192;0.5637119;-0.7141203;-0.3518005;-0.2202216;-5;-1;-5;954;4110;-694;32768;0.6301939;-0.6587136;-0.3407202;-0.2299169;8;-15;-12;-363;4263;-161;256;-0.1468144;-0.02908587;-0.9831171;0.1052632;0;0;15;686;-938;4020;128;0.1897507;0.001385042;0.9770327;0.09695291;3;10;-10;-888;776;-4288;4;0.2022161;-0.7054296;0.6440443;0.2160665;13;21;2;-3286;2502;50;16;0.1772853;-0.9553524;-0.2354571;-0.02077562;2;15;-8;-1603;1421;3544;2;0.1454294;-0.6884214;-0.6412742;-0.3060942;-11;1;-6;4070;2550;-768;8;0.1966759;-0.953287;0.2243767;0.04709141;-2;12;-10;1333;1899;3499;1.00554;2.015735;1.675013;1.005153;1.980535;1.130603;1.004792;1.947576;0.6521971;1.000587;1.78946;-0.06435335;0.7391242;1.688835;-0.3746109;0.4003823;1.789761;-0.2512939;0.07322618;0.9420547;-0.07048427;0;0;0;1.259284;1.674999;-0.3746135;1.550545;1.759171;-0.2512987;1.698006;0.83517;-0.02161682;1.836329;-0.1004121;0.03617823;0.6937327;2.014453;1.720915;1.096704;1.191572;2.861677;1.516021;0.7212813;4.051353;0.6937327;2.014453;1.720915;1.096704;1.191572;2.861677;1.516021;0.7212813;4.051353
776781.671;NotLabelled;NONE;16384;0.6689751;-0.7132749;0.1814404;-0.1038781;1;18;5;-1042;3726;-48;65536;0.6897507;-0.7203162;0.0734072;0;2;-15;2;516;3938;139;8192;0.5637119;-0.7125753;-0.3531856;-0.2229917;-3;24;-12;1638;4110;-760;32768;0.6315789;-0.6595387;-0.3393352;-0.2257618;9;-27;-15;-619;4459;-17;256;-0.1523546;-0.03185596;-0.9821879;0.1052632;2;-5;24;312;-1078;3972;128;0.1939058;0;0.9764886;0.09418282;6;23;-18;-614;616;-3998;4;0.2022161;-0.7079487;0.6412742;0.2160665;14;21;0;-3436;2370;-154;16;0.1772853;-0.9546946;-0.2382271;-0.01939058;4;15;-8;-1821;1387;3706;2;0.1481994;-0.6865366;-0.6426592;-0.3060942;-15;14;-7;4098;2562;-616;8;0.1966759;-0.9541861;0.2202216;0.04847645;0;23;-12;1609;1835;3591;1.006413;2.019171;1.672648;1.00601;1.982452;1.128339;1.005634;1.948158;0.6500269;1.001476;1.790014;-0.06651738;0.7400444;1.689299;-0.376771;0.4012718;1.790126;-0.2534579;0.07648896;0.941699;-0.07175452;0;0;0;1.260208;1.675622;-0.3767739;1.551444;1.759885;-0.2534623;1.702001;0.8356261;-0.02685356;1.844533;-0.09947872;0.02839005;0.6946071;2.018018;1.718563;1.112545;1.193361;2.852639;1.540575;0.7241693;4.039642;0.6946071;2.018018;1.718563;1.112545;1.193361;2.852639;1.540575;0.7241693;4.039642
776801.6812;NotLabelled;NONE;16384;0.6689751;-0.7139738;0.1786704;-0.1038781;-4;12;8;-1490;3976;-106;65536;0.6897507;-0.7201737;0.07479224;0;0;-6;7;-72;4174;-305;8192;0.5623268;-0.7109771;-0.3559557;-0.2271468;0;35;-21;1056;4138;-666;32768;0.6315789;-0.6609464;-0.3393352;-0.2216066;11;-27;-16;-433;4587;93;256;-0.1551246;-0.03185596;-0.9819016;0.1038781;4;-2;25;44;-1008;3756;128;0.1980609;-0.002770083;0.9759139;0.09141274;10;27;-19;-12;642;-3956;4;0.200831;-0.7104183;0.6385041;0.2174515;16;25;0;-3456;2610;-220;16;0.1786704;-0.9537407;-0.2409972;-0.01939058;6;20;-7;-1831;1665;3688;2;0.1495845;-0.6836313;-0.6454294;-0.3060942;-16;24;-8;3790;2490;-732;8;0.1980609;-0.954778;0.2160665;0.04986149;1;29;-15;1585;2019;3761;1.004242;2.023287;1.66739;1.003809;1.983791;1.123274;1.003406;1.947056;0.6451439;0.9985581;1.788201;-0.07123837;0.7366932;1.688273;-0.3813821;0.3983534;1.790656;-0.258163;0.07728294;0.9415241;-0.07318326;0;0;0;1.256795;1.6724;-0.3813847;1.548387;1.755558;-0.2581673;1.69927;0.8304938;-0.03508538;1.846403;-0.1040514;0.01749265;0.6924391;2.022369;1.713327;1.126782;1.197972;2.841412;1.573492;0.729828;4.021928;0.6924391;2.022369;1.713327;1.126782;1.197972;2.841412;1.573492;0.729828;4.021928
776822.7639;NotLabelled;NONE;16384;0.6717451;-0.7131351;0.1731302;-0.101108;-18;15;10;-838;4040;-316;65536;0.6883656;-0.7212051;0.07756232;0;-12;6;19;-148;4078;-85;8192;0.5623268;-0.7087273;-0.3559557;-0.234072;6;19;-36;1240;4748;144;32768;0.634349;-0.6619949;-0.3365651;-0.2146814;11;-55;-19;29;4925;-191;256;-0.1578947;-0.03047091;-0.981504;0.1038781;5;0;25;-282;-852;3696;128;0.200831;-0.006925208;0.9755826;0.08864266;14;22;-20;396;660;-3652;4;0.200831;-0.7124743;0.6357341;0.2188366;15;23;0;-3710;2834;-126;16;0.1786704;-0.9530364;-0.2437673;-0.01939058;9;21;-5;-1865;1721;3660;2;0.1523546;-0.6789855;-0.6509695;-0.3033241;-18;24;-1;3044;2164;-576;8;0.200831;-0.9561944;0.2063712;0.05263158;3;31;-14;1733;1669;3021;1.001343;2.026824;1.665755;1.000883;1.984863;1.121824;1.000456;1.945964;0.6438648;0.9956939;1.789018;-0.07293922;0.7338714;1.689873;-0.3833697;0.3955039;1.791869;-0.2599055;0.07859737;0.9413383;-0.07417416;0;0;0;1.253976;1.674089;-0.3833725;1.545544;1.75697;-0.2599097;1.694636;0.8314939;-0.03732973;1.847528;-0.1020639;0.01634717;0.6895427;2.026114;1.711712;1.138322;1.202299;2.834558;1.593305;0.7309093;4.010615;0.6895427;2.026114;1.711712;1.138322;1.202299;2.834558;1.593305;0.7309093;4.010615
776843.669;NotLabelled;NONE;16384;0.6731302;-0.7127543;0.16759;-0.1038781;-18;46;10;-1576;3654;-748;65536;0.6883656;-0.7213408;0.07617728;-0.004155125;-10;38;20;296;4246;285;8192;0.5650969;-0.7060534;-0.3531856;-0.2396122;2;0;-45;1714;5550;282;32768;0.6357341;-0.6658276;-0.33241;-0.2049861;10;-71;-18;-487;5439;-213;256;-0.1620499;-0.03047091;-0.9808266;0.1038781;4;-12;22;-740;-1228;3300;128;0.2036011;-0.009695291;0.9752325;0.08587258;16;2;-22;1082;312;-3668;4;0.199446;-0.7148989;0.632964;0.2202216;12;11;3;-3982;2992;-100;16;0.1814404;-0.9521846;-0.2451524;-0.01800554;10;13;-5;-1401;1785;3528;2;0.1523546;-0.6749772;-0.6551247;-0.3033241;-15;25;0;2294;1850;-624;8;0.2022161;-0.9567901;0.2022161;0.05263158;-1;21;-9;2071;1421;2533;0.9941204;2.0365;1.667506;0.9936368;1.992426;1.123743;0.9931896;1.951668;0.6459389;0.9889555;1.794976;-0.0709236;0.7274668;1.695078;-0.3813936;0.3887614;1.795903;-0.2578951;0.08030251;0.9407926;-0.07909925;0;0;0;1.247621;1.681021;-0.3813965;1.538911;1.764823;-0.2579;1.679173;0.8370245;-0.03928649;1.838409;-0.0956831;0.01059222;0.6823324;2.035967;1.713498;1.141983;1.21013;2.830446;1.60445;0.7389343;4.003657;0.6823324;2.035967;1.713498;1.141983;1.21013;2.830446;1.60445;0.7389343;4.003657
776863.6734;NotLabelled;NONE;16384;0.6731302;-0.7129911;0.1648199;-0.1066482;-7;18;4;-2934;3050;-1260;65536;0.6855956;-0.7240655;0.07479224;-0.009695291;0;22;9;1402;3890;747;8192;0.5650969;-0.7019907;-0.3545706;-0.2493075;-1;56;-15;1698;2730;332;32768;0.6412742;-0.6676547;-0.3254848;-0.1925208;20;-23;-2;-2939;3275;239;256;-0.1648199;-0.033241;-0.9804206;0.1024931;9;-26;15;74;-876;3764;128;0.2063712;-0.008310249;0.974903;0.08310249;14;-23;-18;1194;420;-3584;4;0.199446;-0.7128095;0.634349;0.2229917;-2;-28;10;-4014;2792;-860;16;0.1828255;-0.9522753;-0.2437673;-0.01800554;5;-7;1;-1127;1351;3838;2;0.1537396;-0.6739377;-0.6565097;-0.301939;-8;5;0;1186;1438;-464;8;0.200831;-0.9572962;0.200831;0.05401662;-5;0;-1;2461;1377;2255;0.9928632;2.043501;1.668961;0.9923533;1.997043;1.125396;0.9918832;1.95419;0.6477753;0.9877414;1.797415;-0.06906959;0.7263216;1.697246;-0.3795107;0.3875335;1.797779;-0.2559997;0.0833066;0.9403706;-0.08099961;0;0;0;1.246488;1.68366;-0.3795481;1.53771;1.76774;-0.2560807;1.670885;0.8356149;-0.05191326;1.838156;-0.09564924;-0.001366138;0.6810666;2.043171;1.714951;1.158253;1.218015;2.825027;1.63554;0.7409692;3.98991;0.6810666;2.043171;1.714951;1.158253;1.218015;2.825027;1.63554;0.7409692;3.98991
776884.6654;NotLabelled;NONE;16384;0.6717451;-0.7137669;0.166205;-0.1080332;3;-18;-2;-3054;3522;-626;65536;0.6855956;-0.7239012;0.07617728;-0.01108033;5;-16;-6;1508;4096;351;8192;0.5650969;-0.6983824;-0.3587258;-0.2534626;-3;16;1;-94;2582;1628;32768;0.6426592;-0.6675082;-0.3254848;-0.1883656;15;-19;-2;-2191;1859;-819;256;-0.166205;-0.03601108;-0.9806525;0.09695291;4;-15;-10;-646;174;3910;128;0.2091413;-0.002770083;0.9742249;0.08448754;-2;-38;-2;1506;1506;-3810;4;0.199446;-0.7086529;0.6385041;0.2243767;-13;-41;8;-3332;2386;-1296;16;0.1828255;-0.95298;-0.2409972;-0.01800554;0;-12;6;-1069;1153;3746;2;0.1537396;-0.6759017;-0.6551247;-0.300554;5;-29;3;628;1204;-124;8;0.199446;-0.9567049;0.2049861;0.05401662;-8;-25;7;2261;1643;2437;0.9969056;2.043121;1.657641;0.9963596;1.993371;1.114368;0.9958576;1.947627;0.6370151;0.9909731;1.792112;-0.08009976;0.7290646;1.693864;-0.3907426;0.390798;1.795974;-0.2670963;0.08559787;0.9393483;-0.08996889;0;0;0;1.249152;1.677526;-0.3907454;1.5408;1.75985;-0.2671008;1.661275;0.8257746;-0.06396431;1.837095;-0.104321;-0.02157903;0.685112;2.04307;1.703653;1.171305;1.213098;2.806206;1.655466;0.7325238;3.966794;0.685112;2.04307;1.703653;1.171305;1.213098;2.806206;1.655466;0.7325238;3.966794
776926.6764;NotLabelled;NONE;16384;0.6717451;-0.7121552;0.1786704;-0.09833795;1;-19;-10;-1456;3730;-124;65536;0.6883656;-0.7210548;0.07894737;0;0;-9;-16;764;3936;-91;8192;0.566482;-0.6999573;-0.3573407;-0.2479224;-10;-16;10;-208;2264;438;32768;0.6440443;-0.6676231;-0.3240997;-0.1855956;-12;9;2;467;1733;-101;256;-0.1606648;-0.03878116;-0.9816056;0.09556787;-6;-8;-24;-576;390;3686;128;0.2036011;0.001385042;0.9750319;0.08864266;3;-24;18;602;1512;-3276;4;0.2022161;-0.700282;0.6468144;0.2243767;-25;-30;1;-2190;1590;-1530;16;0.1800554;-0.9548342;-0.2354571;-0.02077562;-12;-13;10;-2385;913;2846;2;0.1537396;-0.6954371;-0.634349;-0.300554;24;-52;3;4560;2280;550;8;0.1939058;-0.9537135;0.2243767;0.04986149;-3;-28;22;603;1511;4257;1.002373;2.027474;1.653063;1.001829;1.977923;1.109771;1.001329;1.932353;0.6324022;0.9956297;1.784035;-0.08622921;0.7331581;1.690727;-0.3979179;0.3955683;1.793969;-0.2733656;0.08881035;0.9389091;-0.09142472;0;0;0;1.253118;1.670743;-0.3979208;1.545289;1.749783;-0.2733702;1.665658;0.8147449;-0.07465053;1.847302;-0.1143625;-0.03523672;0.6905794;2.027405;1.699073;1.177588;1.19456;2.799097;1.664175;0.7137735;3.958581;0.6905794;2.027405;1.699073;1.177588;1.19456;2.799097;1.664175;0.7137735;3.958581
776947.6503;NotLabelled;NONE;16384;0.6703601;-0.7124056;0.1828255;-0.09833795;2;-21;-13;-1454;3966;-368;65536;0.6897507;-0.7197287;0.07894737;0.001385042;0;-2;-16;150;4242;163;8192;0.567867;-0.6998106;-0.3573407;-0.2451524;0;-8;11;-696;1896;-322;32768;0.6412742;-0.6684473;-0.3254848;-0.1897507;-26;44;4;339;2031;865;256;-0.1565097;-0.03878116;-0.9822767;0.09556787;-13;-8;-24;-734;-10;3806;128;0.199446;0.002770083;0.9757605;0.0900277;5;-21;19;448;1382;-3774;4;0.2036011;-0.6981956;0.6495845;0.2216066;-21;-13;-1;-1948;1670;-1424;16;0.1786704;-0.9547207;-0.2368421;-0.02216066;-15;-1;13;-3141;1311;2782;2;0.1523546;-0.698911;-0.6301939;-0.301939;20;-12;2;5284;2584;544;8;0.1925208;-0.9534791;0.2271468;0.04709141;0;-7;21;427;1699;4543;0.9987364;2.014969;1.66409;0.9982325;1.969041;1.120479;0.9977674;1.926656;0.6428167;0.9910907;1.779836;-0.07611457;0.7279978;1.689008;-0.3880122;0.391131;1.794369;-0.2632766;0.08144504;0.9405973;-0.08025495;0;0;0;1.247805;1.665369;-0.3880153;1.540513;1.742099;-0.263282;1.66542;0.8079708;-0.06309146;1.848665;-0.1208324;-0.02393651;0.6869394;2.014593;1.710075;1.146422;1.175501;2.81717;1.610369;0.6994359;3.987829;0.6869394;2.014593;1.710075;1.146422;1.175501;2.81717;1.610369;0.6994359;3.987829
776967.8216;NotLabelled;NONE;16384;0.6703601;-0.711879;0.1855956;-0.09695291;-1;-25;-17;-1320;3678;-434;65536;0.6897507;-0.7198686;0.07756232;0.004155125;-1;-6;-17;356;3972;-101;8192;0.5623268;-0.7073184;-0.3531856;-0.2423823;31;-17;20;3104;8192;4;32768;0.6315789;-0.6655813;-0.3407202;-0.2049861;-7;86;-7;-1773;7581;-775;256;-0.1523546;-0.0401662;-0.9828742;0.09556787;-11;-18;-21;-262;-622;3914;128;0.1966759;0.004155125;0.9763178;0.0900277;6;-6;14;190;926;-3672;4;0.2049861;-0.6982286;0.6495845;0.2202216;-15;11;-8;-2010;1964;-1196;16;0.1759003;-0.9544755;-0.2396122;-0.02493075;-15;8;12;-3123;1271;2780;2;0.1495845;-0.6989096;-0.6301939;-0.3033241;16;12;5;4684;2536;474;8;0.1925208;-0.9536119;0.2271468;0.04432133;2;4;19;607;1739;4381;1.005523;2.009542;1.667634;1.005033;1.96489;1.123917;1.00458;1.923625;0.6461563;0.9978453;1.776947;-0.07280314;0.7347045;1.686401;-0.3847421;0.3979156;1.792024;-0.2600176;0.08166571;0.9409636;-0.07559642;0;0;0;1.254491;1.662322;-0.3847023;1.547252;1.738781;-0.2599272;1.673116;0.8053132;-0.05726755;1.85193;-0.1240369;-0.01120877;0.6937245;2.009058;1.71361;1.133714;1.171818;2.829987;1.584533;0.6984066;4.006835;0.6937245;2.009058;1.71361;1.133714;1.171818;2.829987;1.584533;0.6984066;4.006835
776989.7433;NotLabelled;NONE;16384;0.6703601;-0.7109703;0.1897507;-0.09556787;-4;-20;-20;-1400;3770;-334;65536;0.6897507;-0.7199952;0.07617728;0.006925208;0;-6;-18;732;3986;233;8192;0.5609418;-0.7105129;-0.3518005;-0.2382271;-8;-24;18;2358;7382;2454;32768;0.6288089;-0.6631717;-0.3462604;-0.2119114;-11;27;9;-523;6895;-1541;256;-0.1495845;-0.04293629;-0.9830468;0.09695291;-11;-3;-20;1420;-1418;5256;128;0.1952908;0.004155125;0.9765958;0.0900277;-5;-4;10;-524;490;-4842;4;0.2063712;-0.7046487;0.6440443;0.2146814;-6;38;-11;-3242;2102;-940;16;0.1717452;-0.9529911;-0.2479224;-0.02908587;-15;28;10;-2831;1217;2964;2;0.1468144;-0.6976432;-0.6315789;-0.3047091;13;25;5;4060;2556;70;8;0.1925208;-0.9540654;0.2257618;0.04155125;0;5;16;663;1843;3739;1.00256;2.008375;1.67082;1.002067;1.963495;1.127122;1.001612;1.922031;0.649379;0.9942851;1.775196;-0.06954271;0.7307932;1.685511;-0.3814338;0.3943951;1.792366;-0.2567042;0.07695758;0.9415504;-0.07319514;0;0;0;1.25049;1.659577;-0.3814368;1.543534;1.735023;-0.256709;1.666355;0.8043438;-0.03985542;1.842835;-0.1246105;0.02086496;0.6907616;2.007912;1.716798;1.116681;1.170454;2.838456;1.551595;0.7023274;4.023376;0.6907616;2.007912;1.716798;1.116681;1.170454;2.838456;1.551595;0.7023274;4.023376
777010.6753;NotLabelled;NONE;16384;0.6703601;-0.7094685;0.1952908;-0.09556787;-5;-23;-17;-1212;3960;-794;65536;0.6897507;-0.7200884;0.07479224;0.01108033;5;-15;-18;-92;4380;375;8192;0.5623268;-0.7112536;-0.3518005;-0.232687;-6;-25;17;1082;2822;-1354;32768;0.6274238;-0.6659184;-0.3434903;-0.2119114;-25;-10;15;-1721;3343;-75;256;-0.1440443;-0.033241;-0.9842492;0.09695291;22;27;-9;-1316;-1806;4266;128;0.1883656;-0.002770083;0.9778315;0.09141274;-4;41;26;-468;-184;-5068;4;0.2063712;-0.7092576;0.6398892;0.2119114;-3;40;-7;-3488;2112;-922;16;0.1703601;-0.9516929;-0.2534626;-0.03185596;-16;28;7;-2389;1301;2886;2;0.1440443;-0.6938298;-0.6357341;-0.3060942;11;23;1;3124;2752;-30;8;0.1925208;-0.9541247;0.2257618;0.0401662;0;-11;14;1089;2151;3337;1.00226;2.007254;1.672512;1.001767;1.962407;1.128812;1.001312;1.920971;0.6510657;0.9930269;1.771669;-0.06733748;0.7289779;1.682366;-0.3788674;0.3932056;1.791533;-0.2544536;0.07200404;0.9421048;-0.07106841;0;0;0;1.248522;1.653532;-0.3788698;1.542007;1.727776;-0.2544581;1.667542;0.7990198;-0.03100973;1.841253;-0.1302648;0.03256011;0.6904616;2.006787;1.71849;1.10625;1.176634;2.849342;1.527395;0.7165403;4.042355;0.6904616;2.006787;1.71849;1.10625;1.176634;2.849342;1.527395;0.7165403;4.042355
777031.6897;NotLabelled;NONE;16384;0.66759;-0.7116769;0.1980609;-0.09279778;5;-11;-6;-1178;3886;-668;65536;0.6911357;-0.7182506;0.07756232;0.02077562;14;-36;-7;-142;4366;325;8192;0.5581717;-0.7149686;-0.3518005;-0.2313019;15;-3;17;1522;2788;-2122;32768;0.6260388;-0.6665994;-0.3421052;-0.2160665;-15;8;16;-577;4113;981;256;-0.1426593;-0.03047091;-0.9846759;0.09556787;5;16;-8;-158;-292;4362;128;0.1855956;-0.008310249;0.9783297;0.09141274;-5;26;10;532;706;-4888;4;0.2077562;-0.7146318;0.634349;0.2091413;0;46;0;-3864;2346;-692;16;0.16759;-0.9510214;-0.2576177;-0.033241;-16;25;5;-2471;1549;3094;2;0.1440443;-0.6919818;-0.6357341;-0.3102493;6;2;-14;3818;2788;-296;8;0.1925208;-0.9531894;0.2299169;0.03878116;0;-17;10;1115;1651;3839;1.00222;2.007298;1.679142;1.001761;1.965495;1.135199;1.001336;1.926734;0.6572286;0.9958163;1.77966;-0.0616605;0.7334489;1.686659;-0.3735289;0.3957585;1.789381;-0.2488193;0.06582272;0.9427979;-0.06779874;0;0;0;1.253427;1.667142;-0.3735314;1.545518;1.746228;-0.2488239;1.67653;0.8185241;-0.02415317;1.845261;-0.1111736;0.04641354;0.6904194;2.006573;1.725098;1.091822;1.181435;2.864782;1.492171;0.7231665;4.065631;0.6904194;2.006573;1.725098;1.091822;1.181435;2.864782;1.492171;0.7231665;4.065631
777051.6798;NotLabelled;NONE;16384;0.666205;-0.7127663;0.199446;-0.09141274;9;1;-11;-1520;3620;-130;65536;0.6939058;-0.7149298;0.08171745;0.02631579;17;-51;-14;678;4024;-5;8192;0.5540166;-0.7181932;-0.3518005;-0.2313019;25;0;0;1056;3996;-1350;32768;0.6246537;-0.6684085;-0.3393352;-0.2188366;2;10;11;-237;4221;509;256;-0.1398892;-0.02908587;-0.9852485;0.09418282;-1;8;-4;378;-568;4258;128;0.1855956;-0.01108033;0.9783022;0.09141274;-1;13;1;230;1310;-4578;4;0.2091413;-0.7178966;0.6301939;0.2091413;-2;32;3;-4864;2878;-438;16;0.166205;-0.9500285;-0.2617728;-0.03601108;-13;15;6;-2403;1455;3576;2;0.1440443;-0.6894558;-0.6371191;-0.3130194;1;17;-17;4244;2340;-612;8;0.1925208;-0.9528542;0.2313019;0.03878116;1;-2;7;1737;1681;4093;0.9914777;2.005302;1.680675;0.9910317;1.964653;1.136644;0.9906175;1.926905;0.6585926;0.9858843;1.78242;-0.06082696;0.7240003;1.689303;-0.3730667;0.3858091;1.789961;-0.2480311;0.05832014;0.9437644;-0.06086266;0;0;0;1.244065;1.672264;-0.3730693;1.535762;1.752288;-0.2480353;1.666481;0.8272636;-0.01241237;1.827218;-0.1036316;0.06096947;0.6796757;2.004481;1.726621;1.076059;1.181778;2.869818;1.469594;0.7295935;4.075219;0.6796757;2.004481;1.726621;1.076059;1.181778;2.869818;1.469594;0.7295935;4.075219
777093.7305;NotLabelled;NONE;16384;0.6620498;-0.7131593;0.2063712;-0.1024931;7;3;-52;-3330;2814;34;65536;0.6966759;-0.7102455;0.0900277;0.04570637;8;-69;-60;1710;3924;-147;8192;0.5526316;-0.718133;-0.3531856;-0.232687;-2;-7;5;1248;3684;-368;32768;0.6246537;-0.6649224;-0.3407202;-0.2271468;-8;-2;21;-857;4109;59;256;-0.1371191;-0.02770083;-0.9855444;0.09556787;-6;2;-6;196;-446;3654;128;0.1828255;-0.01108033;0.9789521;0.0900277;7;-12;8;290;822;-3860;4;0.2132964;-0.7170758;0.6301939;0.2077562;-12;-30;2;-5396;2336;-28;16;0.16759;-0.9512413;-0.2562327;-0.03739612;9;-30;8;-1567;1129;4330;2;0.1426593;-0.6865575;-0.6385041;-0.3171745;9;0;-1;3112;2242;-1126;8;0.1939058;-0.9520053;0.234072;0.03601108;9;-18;2;2475;1555;3347;0.9918159;2.002598;1.687815;0.9913759;1.962506;1.143744;0.990967;1.92525;0.6656538;0.9865628;1.783094;-0.05423164;0.7248759;1.690527;-0.3667999;0.3864938;1.790177;-0.2414732;0.05941839;0.9441901;-0.05264233;0;0;0;1.24497;1.674413;-0.366803;1.536511;1.754549;-0.241479;1.664244;0.8318459;0.004649699;1.816742;-0.1000879;0.08230913;0.6800135;2.001729;1.733758;1.071058;1.176675;2.877098;1.451824;0.7261575;4.087214;0.6800135;2.001729;1.733758;1.071058;1.176675;2.877098;1.451824;0.7261575;4.087214
777113.6919;NotLabelled;NONE;16384;0.6606648;-0.7101158;0.2174515;-0.1094183;-9;-26;-67;-2070;3116;-350;65536;0.6980609;-0.7077928;0.09141274;0.05817174;-2;-54;-62;-556;3976;-291;8192;0.5526316;-0.7197034;-0.3518005;-0.2299169;-4;-34;6;904;3812;-1066;32768;0.6260388;-0.6647839;-0.3365651;-0.2299169;-4;-12;25;-707;3985;135;256;-0.134349;-0.02908587;-0.9853332;0.101108;-24;3;-6;1094;-874;3532;128;0.1786704;-0.004155125;0.9800233;0.08725762;20;-21;10;-800;798;-4192;4;0.2132964;-0.7117631;0.6357341;0.2091413;-13;-51;1;-4246;2648;-50;16;0.1703601;-0.9522249;-0.2506925;-0.03739612;13;-44;9;-1607;1361;3876;2;0.1426593;-0.6891233;-0.6357341;-0.3171745;11;-24;0;2946;2006;-1046;8;0.1952908;-0.9506906;0.2382271;0.03601108;11;-31;1;2161;1521;3027;1.002061;2.00038;1.695305;1.001605;1.958819;1.151343;1.001182;1.92027;0.6733557;0.9970635;1.776467;-0.04620424;0.7355809;1.682517;-0.3585313;0.3969575;1.781581;-0.2333919;0.04855651;0.945483;-0.03874985;0;0;0;1.255715;1.667742;-0.3585583;1.547063;1.748911;-0.2334504;1.671098;0.8259656;0.01365668;1.814107;-0.107783;0.08747959;0.6902598;1.999636;1.741259;1.063109;1.168918;2.886575;1.431482;0.713892;4.098838;0.6902598;1.999636;1.741259;1.063109;1.168918;2.886575;1.431482;0.713892;4.098838
777134.6732;NotLabelled;NONE;16384;0.6578947;-0.7090777;0.2202216;-0.1260388;-4;47;-47;-2064;3390;-184;65536;0.699446;-0.7055873;0.08310249;0.07756232;3;-34;-56;332;4064;275;8192;0.5540166;-0.7215349;-0.3476454;-0.2271468;-4;-29;4;1082;3948;-922;32768;0.6274238;-0.6650882;-0.33241;-0.2313019;1;-16;24;-447;4307;289;256;-0.132964;-0.03047091;-0.9850441;0.1052632;-29;3;-3;960;-1110;3812;128;0.1772853;0;0.9805263;0.08448754;24;-22;9;-954;490;-4198;4;0.2132964;-0.7067757;0.6412742;0.2091413;-18;-47;3;-3340;2354;-16;16;0.1717452;-0.9541258;-0.2423823;-0.03739612;13;-46;9;-1589;1149;3406;2;0.1412742;-0.6963481;-0.6274238;-0.3185596;13;-30;-2;2964;2224;-948;8;0.1966759;-0.9475588;0.2493075;0.03601108;8;-34;1;1783;1383;3205;1.011076;2.007566;1.693919;1.010572;1.961713;1.150302;1.010108;1.919393;0.672634;1.005524;1.767448;-0.04524776;0.743785;1.670423;-0.3564173;0.4053732;1.771495;-0.2323163;0.03651068;0.9463824;-0.02870341;0;0;0;1.263893;1.654732;-0.35642;1.555419;1.736802;-0.2323214;1.681891;0.8153619;0.01913166;1.815793;-0.1199464;0.0902431;0.6992785;2.007184;1.739904;1.062096;1.173839;2.886533;1.422825;0.7118248;4.098451;0.6992785;2.007184;1.739904;1.062096;1.173839;2.886533;1.422825;0.7118248;4.098451
777174.8066;NotLabelled;NONE;16384;0.6551247;-0.7089871;0.2229917;-0.1357341;-6;22;-48;-2756;3190;26;65536;0.699446;-0.704454;0.08310249;0.08725762;3;-45;-51;536;3850;-469;8192;0.5554016;-0.7222338;-0.3448753;-0.2257618;-5;-28;-2;158;4220;-940;32768;0.6288089;-0.6658435;-0.3282548;-0.2313019;4;-17;17;-185;4369;29;256;-0.1315789;-0.03185596;-0.9847333;0.1094183;-27;1;0;788;-1216;3760;128;0.1759003;0.005540166;0.9809948;0.08171745;24;-26;5;-738;194;-3996;4;0.2146814;-0.7012866;0.6468144;0.2091413;-18;-40;8;-2914;1918;260;16;0.1745152;-0.9553565;-0.2354571;-0.03739612;12;-46;6;-1749;1017;3250;2;0.1412742;-0.6994378;-0.6232687;-0.3199446;10;-32;-1;3268;2066;-1058;8;0.1980609;-0.9461132;0.2534626;0.03739612;6;-24;0;1745;1367;3329;1.002576;2.010077;1.704951;1.002032;1.960474;1.161663;1.001531;1.91486;0.6842984;0.9964628;1.75674;-0.03224519;0.734455;1.65753;-0.3424982;0.3962686;1.760308;-0.2191858;0.00378029;0.9474558;-0.01049031;0;0;0;1.254532;1.640858;-0.3425011;1.546247;1.723444;-0.2191903;1.671592;0.8018314;0.03219742;1.798401;-0.1346456;0.1008811;0.6907824;2.010013;1.750961;1.044638;1.17639;2.900185;1.399195;0.7107817;4.112549;0.6907824;2.010013;1.750961;1.044638;1.17639;2.900185;1.399195;0.7107817;4.112549
777195.6758;NotLabelled;NONE;16384;0.6551247;-0.7068571;0.2271468;-0.1398892;-6;-1;-35;-1756;4022;130;65536;0.700831;-0.7023172;0.08033241;0.09556787;0;-8;-37;-906;4154;-369;8192;0.5567867;-0.7235699;-0.3407202;-0.2243767;-4;-29;-5;588;3998;-834;32768;0.6315789;-0.6645805;-0.3254848;-0.2313019;7;-10;9;-389;4239;21;256;-0.1301939;-0.033241;-0.9842404;0.1149584;-25;7;-1;834;-1452;3880;128;0.1745152;0.01108033;0.9814219;0.07894737;18;-21;4;-992;178;-3910;4;0.2160665;-0.6965864;0.6509695;0.2105263;-13;-43;9;-2958;1692;340;16;0.1745152;-0.9570898;-0.2285319;-0.03601108;9;-52;5;-1557;847;3492;2;0.1412742;-0.7031184;-0.6191136;-0.3199446;10;-31;0;3500;2062;-1206;8;0.1980609;-0.9453667;0.2562327;0.03739612;4;-17;0;1781;1323;3415;1.00612;2.015824;1.704058;1.005532;1.962228;1.16115;1.004993;1.913106;0.6841338;0.9994134;1.748823;-0.03101856;0.7371261;1.647443;-0.3403324;0.3991725;1.751925;-0.2178169;-0.00770549;0.9474807;-0.004160277;0;0;0;1.25717;1.629778;-0.3403351;1.549079;1.712866;-0.2178213;1.672955;0.7907138;0.03230792;1.794476;-0.1465881;0.09928143;0.69433;2.016098;1.750093;1.035955;1.179667;2.900978;1.385493;0.707062;4.112091;0.69433;2.016098;1.750093;1.035955;1.179667;2.900978;1.385493;0.707062;4.112091
777215.6853;NotLabelled;NONE;16384;0.6551247;-0.7061349;0.2285319;-0.1412742;-8;0;-18;-1518;3906;166;65536;0.7034307;-0.699446;0.07756232;0.09972299;3;-4;-25;-366;4108;-405;8192;0.5581717;-0.7259402;-0.33518;-0.2216066;-1;-18;0;742;4152;-688;32768;0.634349;-0.6632918;-0.3227147;-0.2313019;11;-3;5;-519;4085;73;256;-0.1301939;-0.033241;-0.9837462;0.1191136;-17;7;0;946;-1632;3714;128;0.1731302;0.0166205;0.9818079;0.07617728;12;-14;6;-1250;-8;-3700;4;0.2174515;-0.6851996;0.6620498;0.2119114;-13;-45;0;-3020;1748;568;16;0.1759003;-0.9610581;-0.2105263;-0.033241;8;-57;0;-1257;843;3664;2;0.1398892;-0.7070309;-0.6149584;-0.3199446;4;-25;2;3542;2020;-1116;8;0.1980609;-0.9449902;0.2576177;0.03739612;3;-14;0;2095;1315;3351;1.006064;2.028575;1.718032;1.005432;1.97101;1.17553;1.004855;1.9184;0.6988856;0.998602;1.745994;-0.01434627;0.7359768;1.641507;-0.3223363;0.3982575;1.747905;-0.2008274;-0.01962883;0.9472998;0.005889075;0;0;0;1.255993;1.623033;-0.3224329;1.548101;1.707056;-0.2010388;1.668435;0.7824663;0.04171163;1.787068;-0.1556053;0.1028302;0.6942774;2.029186;1.764088;1.027492;1.187703;2.913755;1.374728;0.715834;4.125816;0.6942774;2.029186;1.764088;1.027492;1.187703;2.913755;1.374728;0.715834;4.125816
777236.6803;NotLabelled;NONE;16384;0.6565097;-0.7041176;0.2299169;-0.1426593;-7;-3;-10;-2392;3694;14;65536;0.7045588;-0.6980609;0.07617728;0.1024931;8;-6;-19;-372;4124;-67;8192;0.5595568;-0.725512;-0.333795;-0.2216066;-4;-5;-2;964;3950;-748;32768;0.6357341;-0.6619644;-0.3227147;-0.2313019;12;0;3;-499;4141;-79;256;-0.1288089;-0.03462604;-0.9835414;0.1218837;-11;5;-1;756;-1730;3818;128;0.1717452;0.01939058;0.9821068;0.07479224;5;-7;8;-950;-150;-3778;4;0.2160665;-0.6816009;0.666205;0.2119114;-5;-41;-3;-2422;1936;484;16;0.1772853;-0.9623418;-0.2036011;-0.03185596;9;-35;-1;-1999;1381;3450;2;0.1398892;-0.7100537;-0.6121883;-0.3185596;2;-17;4;3412;1922;-1142;8;0.1980609;-0.9442307;0.2603878;0.03739612;2;-17;-1;2311;1187;3029;1.003234;2.040503;1.719121;1.002559;1.978991;1.177054;1.001943;1.922913;0.7008047;0.9958082;1.744592;-0.01097199;0.7332675;1.637261;-0.3180552;0.3954425;1.744285;-0.1973942;-0.02538522;0.9470422;0.0162333;0;0;0;1.253304;1.619367;-0.3180581;1.545331;1.704719;-0.1973984;1.663949;0.7816436;0.05187219;1.779805;-0.1571541;0.1068658;0.6914511;2.041449;1.765197;1.010273;1.194879;2.915211;1.356395;0.7208769;4.126759;0.6914511;2.041449;1.765197;1.010273;1.194879;2.915211;1.356395;0.7208769;4.126759
777258.7009;NotLabelled;NONE;16384;0.6565097;-0.703207;0.232687;-0.1426593;-4;-11;-3;-2206;3616;-350;65536;0.7054608;-0.6966759;0.07479224;0.1066482;8;-7;-14;-554;4212;75;8192;0.5595568;-0.725512;-0.333795;-0.2216066;-3;-1;-7;1026;3890;-582;32768;0.6371191;-0.6599531;-0.3240997;-0.2313019;14;4;1;-467;4177;-123;256;-0.1274238;-0.03601108;-0.9831483;0.1260388;2;4;-1;488;-1588;3952;128;0.1703601;0.0235457;0.9824641;0.07202215;-1;-7;0;-640;-54;-3988;4;0.2146814;-0.6793216;0.6689751;0.2119114;2;-10;-3;-1584;2110;244;16;0.1786704;-0.9624225;-0.2022161;-0.03047091;7;-4;-3;-2021;1437;3144;2;0.1398892;-0.7118642;-0.6108033;-0.3171745;0;-13;4;2434;1612;-1460;8;0.1966759;-0.9417376;0.2700831;0.03878116;-5;-32;-3;2441;1385;2645;1.005015;2.046194;1.726747;1.004318;1.982742;1.184903;1.003685;1.924958;0.7088575;0.9969808;1.74248;-0.001859725;0.7341244;1.633962;-0.3082557;0.3965756;1.742478;-0.1881557;-0.02926492;0.9468272;0.0214361;0;0;0;1.254118;1.614856;-0.3082581;1.546369;1.700235;-0.1881603;1.663214;0.7762671;0.05863047;1.779447;-0.1626725;0.1103001;0.6932338;2.047305;1.772831;1.007752;1.203211;2.925846;1.351703;0.7263913;4.136907;0.6932338;2.047305;1.772831;1.007752;1.203211;2.925846;1.351703;0.7263913;4.136907
777279.6711;NotLabelled;NONE;16384;0.6551247;-0.703856;0.2354571;-0.1412742;11;-22;1;-2576;3272;-390;65536;0.7067364;-0.6939058;0.07617728;0.1149584;15;-35;-23;32;4018;339;8192;0.5609418;-0.7240165;-0.333795;-0.2229917;-7;3;-3;1038;4176;-380;32768;0.6385041;-0.6586131;-0.3240997;-0.2313019;14;4;1;-627;4221;-173;256;-0.1260388;-0.03601108;-0.9835034;0.1246537;6;2;-1;656;-1260;3810;128;0.1703601;0.02493075;0.98243;0.07202215;-2;-3;0;-768;148;-3934;4;0.2146814;-0.678888;0.6689751;0.2132964;6;14;0;-1654;1998;420;16;0.1786704;-0.9621733;-0.2036011;-0.02908587;3;12;-4;-1331;1279;3034;2;0.1398892;-0.7148452;-0.6080332;-0.3157895;6;-22;2;2476;1766;-1704;8;0.1952908;-0.9403616;0.2756233;0.0401662;-7;-28;-2;1969;1655;2663;1.003565;2.057434;1.729943;1.002828;1.990317;1.18854;1.002159;1.929314;0.7128973;0.9948568;1.740722;0.003783643;0.7316844;1.630084;-0.3015805;0.3943906;1.740301;-0.1823146;-0.03495893;0.9464886;0.02709037;0;0;0;1.251639;1.609951;-0.3015832;1.544098;1.695785;-0.1823198;1.660365;0.7718167;0.06474388;1.778898;-0.1670389;0.1125648;0.6917875;2.058857;1.776042;1.003729;1.21724;2.931565;1.348222;0.7376657;4.141382;0.6917875;2.058857;1.776042;1.003729;1.21724;2.931565;1.348222;0.7376657;4.141382
777300.6799;NotLabelled;NONE;16384;0.6537396;-0.7053004;0.2382271;-0.1357341;19;-36;15;-1804;3396;-640;65536;0.7079852;-0.6911357;0.07894737;0.1218837;17;-42;-18;-274;3838;459;8192;0.5623268;-0.7229413;-0.333795;-0.2229917;-9;3;0;662;4016;-558;32768;0.6398892;-0.6565828;-0.3254848;-0.2313019;16;7;0;-543;4117;-21;256;-0.1260388;-0.03601108;-0.9835034;0.1246537;9;4;-2;686;-940;3758;128;0.1689751;0.02631579;0.9826331;0.07202215;-1;0;2;-786;482;-3726;4;0.2146814;-0.6816065;0.666205;0.2132964;8;22;1;-2586;2186;676;16;0.1786704;-0.9618792;-0.2049861;-0.02908587;-1;12;-5;-857;1445;3412;2;0.1398892;-0.7177483;-0.6038781;-0.3171745;2;-29;1;3130;2418;-1276;8;0.1952908;-0.9398944;0.2770083;0.04155125;-8;-11;-1;1881;1697;3005;0.9978408;2.053239;1.736087;0.9971016;1.985875;1.194715;0.9964299;1.924656;0.7191005;0.9890708;1.73807;0.009456635;0.7258525;1.628484;-0.2962472;0.3886253;1.738609;-0.1767077;-0.04131345;0.9459429;0.0358055;0;0;0;1.245792;1.607975;-0.2962495;1.5383;1.69326;-0.176712;1.652443;0.7680662;0.06672776;1.771368;-0.1709007;0.1112788;0.6860637;2.054683;1.782187;0.9966951;1.210627;2.936282;1.341957;0.731818;4.146185;0.6860637;2.054683;1.782187;0.9966951;1.210627;2.936282;1.341957;0.731818;4.146185
777320.7454;NotLabelled;NONE;16384;0.6523545;-0.7069386;0.2409972;-0.1288089;26;-44;26;-2006;3668;-490;65536;0.7093928;-0.6883656;0.08171745;0.1274238;22;-28;-8;-970;4302;129;8192;0.5637119;-0.7214325;-0.333795;-0.2243767;0;6;-6;398;3864;-582;32768;0.6412742;-0.654335;-0.3282548;-0.2299169;20;12;-8;-211;4229;9;256;-0.1246537;-0.03601108;-0.984027;0.1218837;12;7;-2;612;-782;3816;128;0.1689751;0.02631579;0.9825305;0.0734072;-7;6;5;-810;666;-3470;4;0.2146814;-0.6816065;0.666205;0.2132964;5;1;-1;-3220;2562;692;16;0.1772853;-0.9621763;-0.2049861;-0.02770083;-3;7;-5;-643;1425;3944;2;0.1412742;-0.7192501;-0.602493;-0.3157895;-4;-16;2;3684;2484;-920;8;0.1939058;-0.9397718;0.2783934;0.04155125;-7;1;0;2163;1783;3239;0.9895101;2.054823;1.738516;0.9887688;1.987271;1.197168;0.9880952;1.925885;0.7215736;0.9807361;1.7393;0.01192987;0.7175176;1.629714;-0.2937744;0.3802904;1.739839;-0.1742348;-0.04407101;0.9455086;0.04321986;0;0;0;1.237458;1.609205;-0.2937768;1.529966;1.69449;-0.1742391;1.64465;0.7685152;0.06595755;1.766018;-0.1703261;0.1063868;0.6777332;2.056283;1.784616;0.9916868;1.212248;2.937828;1.337615;0.7334725;4.147553;0.6777332;2.056283;1.784616;0.9916868;1.212248;2.937828;1.337615;0.7334725;4.147553
777341.6712;NotLabelled;NONE;16384;0.6523545;-0.7074417;0.2451524;-0.1177285;28;-60;26;-1758;3614;554;65536;0.7111537;-0.6855956;0.08310249;0.1315789;22;-27;-4;-362;3916;-471;8192;0.5637119;-0.720127;-0.333795;-0.2285319;12;8;-15;682;3924;34;32768;0.6426592;-0.6515749;-0.3310249;-0.2299169;23;17;-16;-211;4179;15;256;-0.1246537;-0.03601108;-0.9843661;0.1191136;18;4;-2;632;-732;3932;128;0.16759;0.02493075;0.9826995;0.07479224;-13;10;3;-794;746;-3510;4;0.2119114;-0.6824728;0.666205;0.2132964;5;12;-11;-2194;2460;42;16;0.1759003;-0.9618363;-0.2077562;-0.02770083;-5;21;-5;-1605;1823;3384;2;0.1412742;-0.7198567;-0.602493;-0.3144044;-4;10;4;3446;2374;-854;8;0.1939058;-0.9401811;0.2770083;0.04155125;-7;3;0;2335;1897;2907;0.9815673;2.048551;1.742932;0.9808425;1.982486;1.2014;0.9801832;1.922406;0.7256398;0.972784;1.739798;0.01496243;0.7095171;1.632206;-0.2914068;0.3723814;1.742023;-0.171328;-0.04513462;0.9451267;0.04995497;0;0;0;1.229434;1.611138;-0.2914098;1.522007;1.69544;-0.1713332;1.634571;0.768268;0.06522244;1.76197;-0.1699177;0.1021588;0.6697891;2.049885;1.789027;0.9804202;1.20585;2.943137;1.325964;0.7312835;4.154629;0.6697891;2.049885;1.789027;0.9804202;1.20585;2.943137;1.325964;0.7312835;4.154629
777361.6737;NotLabelled;NONE;16384;0.6523545;-0.7073238;0.2493075;-0.1094183;25;-45;19;-1926;3594;1010;65536;0.7145526;-0.6814404;0.08587258;0.132964;18;-9;-7;-408;3976;-987;8192;0.5637119;-0.7203268;-0.33241;-0.2299169;6;6;-15;1254;4330;610;32768;0.6440443;-0.6478457;-0.3365651;-0.2285319;21;19;-17;-603;4143;-497;256;-0.1232687;-0.03462604;-0.98556;0.1108033;23;6;-2;214;-378;4234;128;0.16759;0.02077562;0.9823587;0.08033241;-18;14;1;-296;1042;-4004;4;0.2105263;-0.6842498;0.66482;0.2132964;12;31;-11;-1930;2650;-60;16;0.1759003;-0.9608885;-0.2119114;-0.02908587;-7;36;-4;-1693;2075;3154;2;0.1398892;-0.718966;-0.6038781;-0.3144044;-2;13;6;2734;2274;-1374;8;0.1925208;-0.9400566;0.2783934;0.04155125;-8;1;2;2571;2013;2611;0.9703146;2.044;1.749207;0.9696092;1.97972;1.20746;0.9689671;1.92121;0.731504;0.9616001;1.742544;0.0198251;0.6983265;1.636837;-0.2871943;0.3612419;1.746229;-0.1665853;-0.04592252;0.9446803;0.05716598;0;0;0;1.218229;1.615397;-0.2871969;1.510834;1.698823;-0.1665893;1.617402;0.7703909;0.06778705;1.7492;-0.1673584;0.1000961;0.6585346;2.045181;1.795295;0.9756616;1.206134;2.951275;1.321958;0.7351106;4.163934;0.6585346;2.045181;1.795295;0.9756616;1.206134;2.951275;1.321958;0.7351106;4.163934
777383.6859;NotLabelled;NONE;16384;0.6537396;-0.705696;0.2548476;-0.09833795;-4;-14;6;-1514;4440;982;65536;0.7176734;-0.6800554;0.07894737;0.1274238;-8;48;5;-656;4216;-699;8192;0.5637119;-0.7183454;-0.333795;-0.234072;-7;25;-10;1394;4326;506;32768;0.6440443;-0.6468871;-0.3393352;-0.2271468;9;7;-16;-689;4037;-883;256;-0.1232687;-0.03185596;-0.9861116;0.1066482;22;6;0;200;-258;4184;128;0.16759;0.01800554;0.9820648;0.08448754;-17;15;0;-218;1258;-4104;4;0.2091413;-0.6904373;0.6592798;0.2119114;13;48;-9;-1922;2724;-22;16;0.1759003;-0.959335;-0.2188366;-0.02908587;-9;48;-3;-1531;2069;3070;2;0.1398892;-0.718966;-0.6038781;-0.3144044;1;-7;6;2582;2730;-1162;8;0.1925208;-0.9404656;0.2770083;0.04155125;-12;8;2;1635;2161;3531;0.9693209;2.018798;1.761827;0.9686887;1.961199;1.219329;0.9681111;1.908557;0.7426879;0.9612884;1.742026;0.02806708;0.6982576;1.641492;-0.2808916;0.3610594;1.748728;-0.1586748;-0.04022153;0.9443856;0.06568182;0;0;0;1.218165;1.62019;-0.2808944;1.510664;1.701627;-0.1586798;1.612777;0.7727033;0.07573366;1.754522;-0.1637348;0.1036454;0.6575347;2.019412;1.807883;0.9756085;1.182901;2.96544;1.316164;0.7112266;4.17947;0.6575347;2.019412;1.807883;0.9756085;1.182901;2.96544;1.316164;0.7112266;4.17947
777404.0996;NotLabelled;NONE;16384;0.6551247;-0.7047915;0.2548476;-0.09556787;-8;-10;15;-994;4660;308;65536;0.7175304;-0.6814404;0.07479224;0.1232687;-13;41;15;-1144;4248;-475;8192;0.5650969;-0.7143955;-0.3379501;-0.2368421;-7;34;-3;1076;3930;-58;32768;0.6459122;-0.6440443;-0.3421052;-0.2257618;2;12;-10;-1217;4073;-243;256;-0.1218837;-0.03047091;-0.986768;0.1024931;21;7;2;330;-238;4346;128;0.16759;0.01523546;0.9818695;0.08725762;-14;18;-2;-404;1392;-4064;4;0.2091413;-0.6956853;0.6537396;0.2119114;14;49;-7;-2600;2902;-120;16;0.1745152;-0.9579393;-0.2257618;-0.03047091;-12;51;-5;-1315;1989;3118;2;0.1398892;-0.7195701;-0.6038781;-0.3130194;-3;0;4;3422;2986;-786;8;0.1911357;-0.9419616;0.2728532;0.04155125;-12;27;3;1667;2267;3613;0.9609575;2.007554;1.771664;0.96038;1.95491;1.228663;0.9598501;1.906624;0.7515614;0.953997;1.746517;0.03546494;0.6915134;1.647617;-0.2744848;0.3538057;1.75226;-0.1514306;-0.04021564;0.9439586;0.07155895;0;0;0;1.21151;1.628604;-0.2744875;1.503607;1.710223;-0.1514354;1.601278;0.7801541;0.08031517;1.748618;-0.1554233;0.1081265;0.6491668;2.007747;1.817694;0.9740792;1.176353;2.977036;1.316943;0.7048713;4.190492;0.6491668;2.007747;1.817694;0.9740792;1.176353;2.977036;1.316943;0.7048713;4.190492
777424.8253;NotLabelled;NONE;16384;0.6565097;-0.7045534;0.2534626;-0.09141274;-1;-11;26;-1100;4136;-242;65536;0.7172871;-0.6828254;0.0734072;0.1177285;-13;24;25;-984;4024;-69;8192;0.5637119;-0.7125861;-0.3421052;-0.2396122;0;24;-3;710;3878;-256;32768;0.6426592;-0.6458187;-0.3448753;-0.2257618;3;15;-8;-553;4121;-15;256;-0.1232687;-0.02908587;-0.9871975;0.09695291;22;6;5;204;-340;4344;128;0.1689751;0.01108033;0.9814376;0.0900277;-20;23;-4;-460;1338;-4168;4;0.2091413;-0.6995667;0.6495845;0.2119114;11;39;-6;-2974;2912;-236;16;0.1731302;-0.9564873;-0.232687;-0.03185596;-14;41;-8;-1553;2177;3242;2;0.1398892;-0.7184055;-0.6052631;-0.3130194;-9;19;3;3920;3202;-522;8;0.1911357;-0.9436088;0.267313;0.0401662;-10;42;3;1689;2535;2999;0.9572488;1.996145;1.775898;0.9567095;1.946971;1.232572;0.9562132;1.901733;0.7551714;0.9508009;1.747853;0.03770775;0.6885496;1.65129;-0.2731743;0.3506596;1.754392;-0.1493216;-0.04165;0.944066;0.06929638;0;0;0;1.208572;1.632998;-0.2731766;1.500518;1.713946;-0.1493265;1.599295;0.7825503;0.07655013;1.752983;-0.1521324;0.09971184;0.6454548;1.996045;1.821906;0.9730527;1.164874;2.980653;1.311262;0.6962416;4.196517;0.6454548;1.996045;1.821906;0.9730527;1.164874;2.980653;1.311262;0.6962416;4.196517
777444.674;NotLabelled;NONE;16384;0.6578947;-0.7049494;0.2506925;-0.08587258;9;-20;31;-1586;3922;-294;65536;0.7149472;-0.6855956;0.07479224;0.1149584;-9;0;28;-336;4194;269;8192;0.5623268;-0.709978;-0.3448753;-0.2465374;19;33;-10;936;4210;516;32768;0.6412742;-0.6437241;-0.3504155;-0.2271468;3;32;-13;-671;4069;-215;256;-0.1232687;-0.02770083;-0.9875055;0.09418282;23;5;6;102;-256;4582;128;0.1689751;0.006925208;0.9810857;0.09418282;-26;26;-5;-220;1362;-4232;4;0.2077562;-0.7088531;0.6398892;0.2119114;17;47;-15;-3248;3246;-592;16;0.1689751;-0.9544685;-0.2437673;-0.03185596;-8;32;-5;-2037;2405;3686;2;0.1385041;-0.7145768;-0.6108033;-0.3116343;-12;49;3;3520;3126;-712;8;0.1911357;-0.9455432;0.2603878;0.0401662;-9;38;0;2021;2481;3275;0.9544106;1.984128;1.776735;0.9539112;1.938631;1.233088;0.9534501;1.896624;0.7553926;0.9485622;1.750896;0.03622502;0.686587;1.657443;-0.2758383;0.3484823;1.758583;-0.1509579;-0.03751251;0.9445393;0.06507242;0;0;0;1.206638;1.639997;-0.2758409;1.498405;1.720009;-0.1509623;1.598388;0.7887557;0.07497191;1.754598;-0.1453021;0.1053478;0.6426131;1.983716;1.822718;0.9776601;1.152748;2.979477;1.317892;0.6869276;4.195858;0.6426131;1.983716;1.822718;0.9776601;1.152748;2.979477;1.317892;0.6869276;4.195858
777464.6708;NotLabelled;NONE;16384;0.6565097;-0.7065545;0.2520775;-0.07894737;17;-37;26;-1754;3260;-292;65536;0.7131687;-0.6869806;0.07894737;0.1149584;-6;-27;25;-72;4032;29;8192;0.5595568;-0.7081884;-0.3490305;-0.2520775;18;56;0;1186;4442;1036;32768;0.6385041;-0.6424533;-0.3559557;-0.2299169;-5;41;-11;-879;4061;-617;256;-0.1246537;-0.02631579;-0.9878823;0.08864266;23;3;5;312;36;4130;128;0.1703601;0.001385042;0.9804617;0.09833795;-20;28;-8;32;1522;-4258;4;0.2049861;-0.7150249;0.634349;0.2105263;13;47;-14;-3914;3174;-554;16;0.1689751;-0.9533504;-0.2479224;-0.033241;-5;21;-6;-1747;2037;3446;2;0.1385041;-0.7103954;-0.6149584;-0.3130194;-8;42;2;2766;2978;-1220;8;0.1925208;-0.946397;0.2562327;0.0401662;-8;30;-1;1939;2639;2679;0.9472063;1.976197;1.774063;0.9467642;1.935921;1.230004;0.9463537;1.898501;0.7519274;0.9418954;1.756994;0.03191483;0.6801687;1.664845;-0.2807442;0.3418357;1.76456;-0.1553378;-0.0350311;0.9451802;0.05659684;0;0;0;1.200254;1.648458;-0.2807469;1.491834;1.728327;-0.1553426;1.584837;0.795912;0.06877476;1.746454;-0.1371949;0.1000696;0.635404;1.975345;1.820007;0.9842754;1.147576;2.974973;1.327534;0.6924262;4.194539;0.635404;1.975345;1.820007;0.9842754;1.147576;2.974973;1.327534;0.6924262;4.194539
777485.7045;NotLabelled;NONE;16384;0.6537396;-0.7086421;0.2562327;-0.06925207;24;-7;-1;-2034;3214;322;65536;0.7114019;-0.6869806;0.0900277;0.1177285;-8;-30;3;428;4098;-389;8192;0.5554016;-0.707908;-0.3531856;-0.2562327;12;33;8;956;4418;1024;32768;0.6357341;-0.6411082;-0.3614958;-0.232687;-14;30;-7;-1071;4059;-1061;256;-0.1246537;-0.0235457;-0.9886626;0.08033241;11;8;5;358;550;4124;128;0.1731302;-0.006925208;0.9798129;0.09972299;-2;31;-6;90;2036;-4378;4;0.2036011;-0.7194874;0.6301939;0.2091413;8;33;-8;-4268;3274;-548;16;0.16759;-0.9532809;-0.2493075;-0.03185596;-4;14;-5;-1753;2105;3610;2;0.1398892;-0.705889;-0.6191136;-0.3144044;-6;4;-5;2770;3100;-738;8;0.1939058;-0.9468002;0.2534626;0.04155125;-3;-1;-4;1953;2619;3173;0.9409933;1.960235;1.766383;0.9406111;1.925408;1.221949;0.940253;1.892778;0.743521;0.9362652;1.759448;0.02194619;0.6747925;1.670438;-0.2918317;0.3362579;1.768184;-0.1654229;-0.03120779;0.9456463;0.05074854;0;0;0;1.194904;1.654881;-0.2918351;1.486313;1.733786;-0.1654276;1.57601;0.8013916;0.06011891;1.740756;-0.1310511;0.09470433;0.6291859;1.958922;1.812282;0.991166;1.139205;2.968956;1.335698;0.6832821;4.187872;0.6291859;1.958922;1.812282;0.991166;1.139205;2.968956;1.335698;0.6832821;4.187872
777505.6958;NotLabelled;NONE;16384;0.6495845;-0.7119531;0.2576177;-0.06925207;23;-2;-23;-2298;2778;90;65536;0.7090575;-0.6883656;0.09418282;0.1204986;-9;-20;-12;832;4028;-193;8192;0.5540166;-0.7069074;-0.3573407;-0.2562327;11;16;17;1200;3960;-50;32768;0.634349;-0.6411935;-0.3628809;-0.234072;-18;7;-2;-875;4121;-583;256;-0.1260388;-0.02216066;-0.9888479;0.07617728;3;7;6;430;692;3992;128;0.1745152;-0.009695291;0.9795436;0.09972299;1;19;-5;-6;2222;-4114;4;0.2036011;-0.7219043;0.6274238;0.2091413;6;17;-2;-4026;3324;-500;16;0.16759;-0.9525522;-0.2520775;-0.03185596;-3;10;-2;-1699;2109;3632;2;0.1426593;-0.7047154;-0.6191136;-0.3157895;0;-3;-5;2758;3156;-568;8;0.1939058;-0.9467385;0.2534626;0.04293629;0;5;-4;1439;2341;3491;0.9392889;1.944433;1.756235;0.9389395;1.912591;1.211618;0.9386103;1.882582;0.7330182;0.9354023;1.761716;0.00924775;0.6743746;1.677256;-0.3061551;0.3354547;1.771667;-0.1782524;-0.02142037;0.9462328;0.04452016;0;0;0;1.194535;1.66345;-0.3061583;1.485619;1.74114;-0.1782575;1.572539;0.8098869;0.05301595;1.740286;-0.121875;0.09133995;0.6274788;1.942869;1.802106;0.994173;1.128505;2.961074;1.341341;0.6769748;4.180878;0.6274788;1.942869;1.802106;0.994173;1.128505;2.961074;1.341341;0.6769748;4.180878
777526.6825;NotLabelled;NONE;16384;0.6454294;-0.713568;0.2631579;-0.07063711;27;-13;-38;-1992;2830;-106;65536;0.7085811;-0.6883656;0.09418282;0.1232687;-12;-17;-22;218;3994;-75;8192;0.5498615;-0.7080381;-0.3614958;-0.2562327;17;20;23;1462;3632;-386;32768;0.632964;-0.6420546;-0.3628809;-0.2354571;-14;-2;3;-879;4095;165;256;-0.1274238;-0.02077562;-0.9888062;0.07479224;-7;5;8;294;552;3770;128;0.1759003;-0.01246537;0.9791225;0.101108;1;7;-5;148;1932;-3892;4;0.2036011;-0.7231058;0.6260388;0.2091413;1;7;-1;-4092;3122;-684;16;0.16759;-0.9525049;-0.2520775;-0.033241;-1;0;0;-1827;1969;3516;2;0.1426593;-0.7047154;-0.6191136;-0.3157895;-4;3;-1;3678;3170;-636;8;0.1952908;-0.9475567;0.2493075;0.04293629;1;26;-4;1253;2009;3489;0.9359695;1.935371;1.741603;0.9356257;1.904035;1.196956;0.9353012;1.874473;0.7183291;0.9324769;1.759823;-0.006453544;0.6716776;1.67758;-0.3226301;0.3325512;1.770242;-0.1939983;-0.02137119;0.9464623;0.03935783;0;0;0;1.191864;1.664765;-0.322633;1.482772;1.741907;-0.1940034;1.57482;0.811556;0.03891134;1.742221;-0.1201886;0.07911968;0.6241589;1.933764;1.78747;0.9967146;1.119656;2.944747;1.348135;0.6682163;4.163367;0.6241589;1.933764;1.78747;0.9967146;1.119656;2.944747;1.348135;0.6682163;4.163367
777547.6582;NotLabelled;NONE;16384;0.6398892;-0.7162085;0.2686981;-0.0734072;46;-11;-40;-1564;3024;-200;65536;0.7064282;-0.6897507;0.09279778;0.1288089;-8;-26;-29;12;3934;93;8192;0.5429363;-0.7102374;-0.365651;-0.2590028;23;11;3;158;4122;16;32768;0.6288089;-0.6458855;-0.3614958;-0.2382271;-15;9;-6;-83;4007;-527;256;-0.1288089;-0.01939058;-0.9885491;0.07617728;-8;6;8;136;-20;3450;128;0.1759003;-0.01246537;0.9791225;0.101108;11;3;-5;230;1424;-3752;4;0.2036011;-0.7219043;0.6274238;0.2091413;-5;-9;-2;-3392;2528;-608;16;0.1703601;-0.9531038;-0.2479224;-0.033241;3;-20;0;-2141;1481;3464;2;0.1426593;-0.7034962;-0.6204986;-0.3157895;-10;16;0;3732;2656;-460;8;0.1966759;-0.948711;0.2437673;0.04293629;2;35;-5;1679;1873;3291;0.9348725;1.924366;1.72741;0.9345507;1.895042;1.182652;0.9342457;1.867247;0.7039185;0.9317987;1.754825;-0.02121449;0.6712485;1.67288;-0.3376735;0.3318684;1.764264;-0.2087962;-0.02484932;0.9463358;0.04035405;0;0;0;1.191466;1.661418;-0.3376552;1.482158;1.73892;-0.2087539;1.578576;0.8118963;0.03539205;1.743691;-0.12015;0.07797873;0.6230601;1.92259;1.773259;1.000002;1.108614;2.929207;1.350959;0.6562557;4.147619;0.6230601;1.92259;1.773259;1.000002;1.108614;2.929207;1.350959;0.6562557;4.147619
777567.662;NotLabelled;NONE;16384;0.634349;-0.7190314;0.2742382;-0.0734072;35;-26;-26;-1974;3968;-540;65536;0.7049467;-0.6897507;0.09418282;0.1357341;-9;-38;-20;-654;3628;59;8192;0.5415512;-0.7102793;-0.365651;-0.2617728;13;7;4;312;4418;258;32768;0.6274238;-0.6464555;-0.3628809;-0.2382271;-20;-2;-16;-409;4047;-885;256;-0.1288089;-0.01939058;-0.9884414;0.07756232;-11;8;5;236;-346;4166;128;0.1759003;-0.01385042;0.9792459;0.09972299;12;2;-4;184;1036;-3698;4;0.2036011;-0.7210987;0.6288089;0.2077562;-2;-5;-3;-2834;2116;-710;16;0.1703601;-0.9538674;-0.2451524;-0.03185596;2;-14;1;-2261;1437;3354;2;0.1426593;-0.6998093;-0.6246537;-0.3157895;-6;26;0;3090;2378;-502;8;0.1980609;-0.9494811;0.2396122;0.04293629;1;24;-6;2035;1843;3159;0.9288256;1.922871;1.715592;0.9285038;1.893547;1.170834;0.9281986;1.865752;0.6921006;0.9260618;1.751569;-0.03275782;0.6657572;1.667995;-0.3489935;0.3260873;1.758565;-0.2203054;-0.03502184;0.946032;0.03992468;0;0;0;1.18601;1.658256;-0.3489963;1.476455;1.737032;-0.2203105;1.57072;0.8123012;0.03318673;1.728582;-0.1205341;0.08501172;0.6170132;1.921095;1.761441;0.9954858;1.106987;2.916795;1.34892;0.6476216;4.131866;0.6170132;1.921095;1.761441;0.9954858;1.106987;2.916795;1.34892;0.6476216;4.131866
777588.6639;NotLabelled;NONE;16384;0.6301939;-0.7202869;0.2811634;-0.07063711;33;-32;-18;-1364;4708;-356;65536;0.7036706;-0.6897507;0.09556787;0.1412742;-6;-40;-9;-1184;4352;-19;8192;0.5429363;-0.7097308;-0.365651;-0.2603878;3;-14;6;752;4280;-34;32768;0.6246537;-0.6509136;-0.3614958;-0.2354571;-25;-24;-19;-719;4179;-547;256;-0.1288089;-0.0166205;-0.9882706;0.08033241;-7;7;1;-58;-1182;4554;128;0.1759003;-0.01385042;0.9795241;0.09695291;8;4;0;204;562;-4400;4;0.2036011;-0.7223042;0.6274238;0.2077562;1;7;-3;-2392;2224;-656;16;0.1703601;-0.9538674;-0.2451524;-0.03185596;0;-3;2;-2115;1373;3080;2;0.1426593;-0.6973268;-0.6274238;-0.3157895;0;-5;0;2260;2458;-400;8;0.200831;-0.9491841;0.2382271;0.04432133;1;-9;-3;1663;1715;3181;0.9221405;1.92275;1.702875;0.9218052;1.892199;1.158184;0.9214883;1.863325;0.6795149;0.9193557;1.747145;-0.04502597;0.6590653;1.662606;-0.3610165;0.3193693;1.753408;-0.2325611;-0.04235794;0.9456689;0.04137419;0;0;0;1.179322;1.653056;-0.3610198;1.469745;1.732291;-0.2325666;1.559401;0.8074682;0.02226663;1.718539;-0.1249741;0.07715976;0.6103293;1.921078;1.748735;0.9851689;1.10915;2.906806;1.34084;0.6505971;4.12153;0.6103293;1.921078;1.748735;0.9851689;1.10915;2.906806;1.34084;0.6505971;4.12153
777608.6658;NotLabelled;NONE;16384;0.6232687;-0.7239622;0.2880886;-0.06648199;19;-13;-7;-1524;4412;104;65536;0.7023336;-0.6883656;0.1024931;0.1495845;-9;-18;19;-1266;4200;-691;8192;0.5429363;-0.7114518;-0.3642659;-0.2576177;3;-18;8;1480;3746;-506;32768;0.6218836;-0.655315;-0.3601108;-0.232687;-25;-29;-18;-997;4001;45;256;-0.1288089;-0.01523546;-0.9881793;0.08171745;-3;4;0;-142;-964;4496;128;0.1759003;-0.01523546;0.9796396;0.09556787;0;2;0;354;486;-4318;4;0.2036011;-0.7235049;0.6260388;0.2077562;0;15;0;-2590;2134;-676;16;0.1703601;-0.953463;-0.2465374;-0.033241;-3;6;2;-1999;1327;2916;2;0.1426593;-0.7004327;-0.6246537;-0.3144044;3;-21;2;2380;2234;-374;8;0.200831;-0.9488354;0.2396122;0.04432133;-2;-15;0;1453;1615;3167;0.9157567;1.932567;1.692294;0.9153888;1.899031;1.147779;0.9150431;1.867535;0.6692748;0.913589;1.74788;-0.05470231;0.6538094;1.66022;-0.3702623;0.3135645;1.749528;-0.2422129;-0.04793787;0.9453608;0.04232222;0;0;0;1.174115;1.653893;-0.3702648;1.464049;1.735539;-0.2422174;1.556262;0.8103601;0.01039809;1.715641;-0.1214424;0.07466352;0.6039482;1.931145;1.738181;0.9798057;1.119341;2.896009;1.334965;0.6607884;4.110883;0.6039482;1.931145;1.738181;0.9798057;1.119341;2.896009;1.334965;0.6607884;4.110883
777628.7157;NotLabelled;NONE;16384;0.6218836;-0.7246005;0.2894737;-0.06648199;6;5;-2;-1786;4400;210;65536;0.700857;-0.6897507;0.1052632;0.1481994;-17;4;29;-558;4098;-589;8192;0.5415512;-0.7137118;-0.3628809;-0.2562327;7;-11;9;1036;3606;-860;32768;0.6191136;-0.6604122;-0.3573407;-0.2299169;-23;-26;-16;-919;3933;183;256;-0.1288089;-0.01523546;-0.9881793;0.08171745;-3;0;0;-280;-1038;4152;128;0.1759003;-0.01523546;0.9796396;0.09556787;0;0;0;480;520;-4396;4;0.2036011;-0.7247011;0.6246537;0.2077562;0;15;2;-3088;2248;-580;16;0.1703601;-0.9531038;-0.2479224;-0.033241;-6;9;2;-1869;1281;2882;2;0.1426593;-0.7022721;-0.6218836;-0.3157895;6;-26;0;2880;2298;-426;8;0.199446;-0.948711;0.2409972;0.04570637;-4;-10;1;1161;1535;3105;0.9092023;1.935096;1.676897;0.908821;1.900335;1.132459;0.9084635;1.867762;0.654027;0.907364;1.746371;-0.0696615;0.6478502;1.657152;-0.385003;0.3073332;1.745712;-0.2571579;-0.04913117;0.9452379;0.04367975;0;0;0;1.168172;1.652437;-0.3850057;1.457855;1.735287;-0.2571628;1.552184;0.8109562;-0.002231121;1.711878;-0.1201072;0.07129532;0.5973951;1.933778;1.722795;0.9745017;1.122101;2.880305;1.326544;0.6626952;4.095763;0.5973951;1.933778;1.722795;0.9745017;1.122101;2.880305;1.326544;0.6626952;4.095763
777650.678;NotLabelled;NONE;16384;0.6218836;-0.7246005;0.2894737;-0.06648199;0;4;0;-1844;4010;86;65536;0.6987792;-0.6925207;0.1066482;0.1440443;-21;15;36;-404;4134;-91;8192;0.5401662;-0.7161602;-0.3601108;-0.2562327;12;-1;-4;752;4006;-332;32768;0.6135734;-0.6677237;-0.3559557;-0.2257618;-22;-6;-22;-875;4031;-31;256;-0.1288089;-0.01523546;-0.9880638;0.08310249;1;-2;0;-176;-988;4104;128;0.1759003;-0.01523546;0.9797738;0.09418282;-1;-4;-1;364;502;-4044;4;0.2049861;-0.7255027;0.6232687;0.2077562;0;6;4;-3546;2262;-572;16;0.1689751;-0.9533011;-0.2479224;-0.03462604;-6;0;0;-1969;1243;3218;2;0.1440443;-0.7032139;-0.6204986;-0.3157895;1;-21;-3;3414;2282;-450;8;0.199446;-0.948711;0.2409972;0.04570637;-5;-2;1;1609;1481;3415;0.9127223;1.934224;1.667785;0.9123409;1.899463;1.123346;0.9119835;1.86689;0.6449149;0.9108839;1.745498;-0.07877398;0.6513702;1.65628;-0.3941152;0.3108531;1.74484;-0.2662701;-0.04569354;0.9456604;0.03789351;0;0;0;1.171693;1.651564;-0.3941179;1.461375;1.734415;-0.266275;1.555234;0.8113015;-0.0067994;1.713438;-0.1192038;0.07637703;0.600915;1.932906;1.713683;0.979522;1.121358;2.870793;1.332209;0.6619933;4.086081;0.600915;1.932906;1.713683;0.979522;1.121358;2.870793;1.332209;0.6619933;4.086081
777670.8485;NotLabelled;NONE;16384;0.6218836;-0.7246005;0.2894737;-0.06648199;-5;-6;5;-1914;3694;-582;65536;0.6939058;-0.6985857;0.1080332;0.1371191;-24;22;44;-538;4028;-211;8192;0.5387812;-0.7167065;-0.3601108;-0.2576177;12;3;-6;1478;4180;-216;32768;0.6094183;-0.6712466;-0.3573407;-0.2243767;-25;1;-23;-1045;4079;-213;256;-0.1274238;-0.01523546;-0.9882434;0.08310249;3;-1;0;78;-932;3984;128;0.1745152;-0.01523546;0.9800214;0.09418282;-5;-1;-1;148;548;-3994;4;0.2049861;-0.7243106;0.6246537;0.2077562;-1;-6;0;-3836;2062;-742;16;0.166205;-0.9541962;-0.2465374;-0.033241;-2;-10;-1;-2527;1025;3864;2;0.1440443;-0.7050529;-0.6191136;-0.3144044;0;-10;-3;3566;2026;-546;8;0.1966759;-0.9492891;0.2409972;0.04570637;-6;-6;2;1761;1469;3529;0.9166074;1.940253;1.658119;0.9162096;1.904001;1.113778;0.9158379;1.870118;0.6354373;0.9147646;1.746732;-0.08791414;0.6552754;1.656551;-0.4030023;0.3147294;1.74534;-0.2753934;-0.04181152;0.9461607;0.02877749;0;0;0;1.1756;1.652023;-0.4030048;1.465255;1.735329;-0.2753978;1.554987;0.812965;-0.01183236;1.714263;-0.1157011;0.08816195;0.6048013;1.939061;1.70403;0.9818242;1.124937;2.859848;1.33044;0.6681124;4.077266;0.6048013;1.939061;1.70403;0.9818242;1.124937;2.859848;1.33044;0.6681124;4.077266
777691.6726;NotLabelled;NONE;16384;0.6232687;-0.7243317;0.2880886;-0.06232687;-5;-9;21;-1682;4146;-328;65536;0.6911357;-0.7024305;0.1094183;0.1301939;-27;26;53;-692;4056;-49;8192;0.5373961;-0.7158495;-0.3628809;-0.2590028;12;15;0;1722;3982;-236;32768;0.6052631;-0.673522;-0.3601108;-0.2243767;-27;11;-17;-1179;4179;193;256;-0.1274238;-0.0166205;-0.9882211;0.08310249;4;-3;-2;48;-990;4098;128;0.1745152;-0.01523546;0.9798873;0.09556787;-5;-1;0;14;574;-4042;4;0.2036011;-0.7247011;0.6246537;0.2077562;0;-4;-4;-3718;1980;-782;16;0.166205;-0.9545529;-0.2451524;-0.033241;0;-3;0;-2455;1007;3730;2;0.1440443;-0.7056484;-0.6177285;-0.3157895;0;-6;-3;3434;2116;-672;8;0.1939058;-0.9487949;0.2451524;0.04570637;-7;-11;3;2051;1201;3859;0.921268;1.940635;1.640869;0.9208702;1.904385;1.096528;0.9204984;1.870504;0.6181872;0.9193962;1.747127;-0.1051657;0.6598859;1.657011;-0.4202549;0.3193608;1.745879;-0.2926448;-0.03802731;0.9466996;0.0105296;0;0;0;1.180209;1.652361;-0.4202578;1.469884;1.735597;-0.2926494;1.556216;0.813627;-0.02658224;1.717046;-0.1135042;0.08455205;0.6094619;1.939442;1.68678;0.9817616;1.125191;2.844039;1.328661;0.6761248;4.064829;0.6094619;1.939442;1.68678;0.9817616;1.125191;2.844039;1.328661;0.6761248;4.064829
777712.6817;NotLabelled;NONE;16384;0.6288089;-0.7225922;0.2825485;-0.05124654;-16;3;45;-1274;4172;-420;65536;0.6842105;-0.7102482;0.1191136;0.1149584;-26;15;78;-734;4316;-187;8192;0.534626;-0.7172189;-0.3642659;-0.2590028;13;5;4;1592;3834;-398;32768;0.601108;-0.6764947;-0.3614958;-0.2243767;-25;6;-10;-1157;3943;165;256;-0.1274238;-0.01800554;-0.9883123;0.08171745;10;-11;-4;-222;-1044;4170;128;0.1745152;-0.01523546;0.9797512;0.09695291;-10;-7;0;364;460;-4040;4;0.2022161;-0.7242893;0.6260388;0.2063712;0;-4;-5;-3828;2072;-620;16;0.166205;-0.9545529;-0.2451524;-0.033241;2;-6;0;-2333;839;3570;2;0.1426593;-0.7065477;-0.6177285;-0.3144044;2;-11;3;3478;1876;-562;8;0.1925208;-0.9487181;0.2465374;0.04570637;-6;-10;3;1889;1201;3873;0.9222265;1.940745;1.631878;0.921845;1.905988;1.087439;0.9214875;1.873417;0.6090071;0.9200444;1.749783;-0.1143012;0.6602868;1.660265;-0.4293575;0.3200068;1.750111;-0.3017779;-0.03161443;0.9469907;-0.002294697;0;0;0;1.180595;1.65419;-0.4293602;1.470498;1.73668;-0.301783;1.557657;0.8151648;-0.03441024;1.720365;-0.110467;0.08608806;0.6104191;1.939427;1.677776;0.9860961;1.12788;2.835842;1.332658;0.678777;4.056715;0.6104191;1.939427;1.677776;0.9860961;1.12788;2.835842;1.332658;0.678777;4.056715
777732.8103;NotLabelled;NONE;16384;0.632964;-0.7213913;0.2770083;-0.04709141;-24;5;47;-1472;3914;-180;65536;0.6814404;-0.713697;0.1232687;0.1052632;-26;30;88;-728;4260;129;8192;0.533241;-0.7180436;-0.365651;-0.2576177;9;1;6;1580;3898;-514;32768;0.5983379;-0.6784866;-0.3614958;-0.2257618;-24;0;-5;-981;4061;-125;256;-0.1274238;-0.01939058;-0.9883997;0.08033241;10;-13;-3;-290;-1148;4060;128;0.1731302;-0.01523546;0.9798589;0.09833795;-13;-14;-2;486;388;-4302;4;0.200831;-0.7234758;0.6274238;0.2063712;-4;-13;-1;-3848;2132;-442;16;0.1648199;-0.9551476;-0.2437673;-0.033241;1;-5;0;-1899;943;3520;2;0.1412742;-0.708034;-0.6163435;-0.3144044;5;-10;6;3426;1814;-734;8;0.1897507;-0.949276;0.2465374;0.04570637;-7;-6;4;1445;1111;3795;0.9295589;1.945624;1.61532;0.9291939;1.912359;1.070788;0.928851;1.881099;0.5922687;0.9270509;1.759205;-0.131334;0.6670288;1.671245;-0.446611;0.327024;1.761837;-0.3188258;-0.009286158;0.9468596;-0.034158;0;0;0;1.187316;1.663561;-0.4466137;1.477468;1.744848;-0.3188307;1.564983;0.8250711;-0.04565001;1.727699;-0.09923208;0.08464074;0.61775;1.94418;1.661205;0.9931052;1.137509;2.822777;1.339938;0.6884062;4.043572;0.61775;1.94418;1.661205;0.9931052;1.137509;2.822777;1.339938;0.6884062;4.043572
777753.7909;NotLabelled;NONE;16384;0.6371191;-0.7205345;0.2700831;-0.04432133;-29;32;46;-1110;3352;-676;65536;0.6772853;-0.718635;0.1274238;0.09279778;-22;43;89;-92;4180;593;8192;0.5290859;-0.7189887;-0.3698061;-0.2576177;8;18;8;1624;3742;-540;32768;0.5927978;-0.6836047;-0.3601108;-0.2271468;-26;2;2;-1047;3903;155;256;-0.1260388;-0.02077562;-0.9886606;0.07894737;9;-9;-1;-30;-1052;3780;128;0.1731302;-0.01246537;0.9797581;0.09972299;-8;-20;-2;386;420;-4234;4;0.200831;-0.7210641;0.6301939;0.2063712;-4;-14;2;-3522;2096;-334;16;0.1648199;-0.9551476;-0.2437673;-0.033241;0;-1;2;-1645;877;3542;2;0.1398892;-0.710124;-0.6149584;-0.3130194;5;-21;9;3464;1898;-740;8;0.1883656;-0.9495518;0.2465374;0.04570637;-8;-4;4;1173;1215;3229;0.9360877;1.944952;1.611728;0.9357392;1.913182;1.067106;0.9354107;1.883237;0.5885029;0.9332646;1.763083;-0.1353899;0.6729852;1.676684;-0.4508854;0.3332568;1.768021;-0.3228964;0.004382316;0.9462248;-0.04936147;0;0;0;1.193246;1.66739;-0.4508884;1.483642;1.747472;-0.3229012;1.574185;0.8290554;-0.04615325;1.733858;-0.09490335;0.09020221;0.6242775;1.943383;1.657599;1.00149;1.139288;2.820355;1.347369;0.6936048;4.042673;0.6242775;1.943383;1.657599;1.00149;1.139288;2.820355;1.347369;0.6936048;4.042673
777774.6734;NotLabelled;NONE;16384;0.6426592;-0.7196821;0.2590028;-0.04432133;-20;47;45;-1550;2646;-1438;65536;0.6731302;-0.7234294;0.1315789;0.07894737;-17;47;87;-62;3970;911;8192;0.5263157;-0.7195914;-0.3725762;-0.2576177;8;10;10;1398;3908;-990;32768;0.5900277;-0.6857998;-0.3587258;-0.2299169;-23;0;7;-1139;3971;439;256;-0.1260388;-0.02077562;-0.9886606;0.07894737;6;-2;1;316;-820;3960;128;0.1731302;-0.01108033;0.9796327;0.101108;-12;-22;-3;6;492;-4146;4;0.200831;-0.71903;0.632964;0.2049861;-10;-14;4;-3670;1758;-486;16;0.1620499;-0.9570176;-0.2382271;-0.033241;-6;-25;0;-1885;461;3852;2;0.1385041;-0.7121997;-0.6135734;-0.3116343;2;-24;8;3458;1934;-416;8;0.1869806;-0.9494649;0.2479224;0.04570637;-3;-10;3;1605;1213;3117;0.9459065;1.943995;1.604468;0.9455685;1.913194;1.059791;0.9452494;1.8841;0.5811353;0.9427416;1.765708;-0.1430463;0.6821929;1.680938;-0.4587619;0.3427631;1.773093;-0.3305663;0.02032093;0.9447602;-0.06936935;0;0;0;1.20242;1.669917;-0.4587651;1.493074;1.748723;-0.3305709;1.585829;0.8330499;-0.04558885;1.738976;-0.08988607;0.1044852;0.6340954;1.942343;1.650331;1.005327;1.137994;2.814834;1.348057;0.6923109;4.038039;0.6340954;1.942343;1.650331;1.005327;1.137994;2.814834;1.348057;0.6923109;4.038039
777795.6807;NotLabelled;NONE;16384;0.6440443;-0.7212982;0.2506925;-0.04570637;-12;45;38;-2496;2850;-1354;65536;0.6689751;-0.7278812;0.1357341;0.06509695;-13;44;81;732;3848;699;8192;0.5249307;-0.7198846;-0.3739612;-0.2576177;7;8;12;1454;3804;-1234;32768;0.5872576;-0.6884298;-0.3573407;-0.2313019;-16;1;10;-911;4187;603;256;-0.1274238;-0.02216066;-0.988453;0.07894737;2;0;1;422;-868;3666;128;0.1731302;-0.008310249;0.9795162;0.1024931;-6;-11;0;-304;650;-4146;4;0.200831;-0.7169768;0.6357341;0.2036011;-10;-13;2;-3620;1514;-586;16;0.1578947;-0.958783;-0.234072;-0.03185596;-9;-25;0;-2031;317;3922;2;0.1371191;-0.7172242;-0.6094183;-0.3088643;1;-15;0;3772;1910;-576;8;0.1842105;-0.9489122;0.2520775;0.04570637;-1;-18;2;1879;909;3819;0.9569434;1.946708;1.599632;0.9566189;1.917139;1.054886;0.9563116;1.889128;0.5761657;0.9538037;1.770736;-0.148016;0.6932551;1.685966;-0.4637312;0.3538253;1.778121;-0.3355361;0.03821145;0.9424927;-0.08968802;0;0;0;1.213482;1.674945;-0.4637341;1.504136;1.753751;-0.3355405;1.598819;0.8399429;-0.04525697;1.745203;-0.08314586;0.1105195;0.6451312;1.944953;1.645482;1.0112;1.142691;2.813056;1.350286;0.7038121;4.039731;0.6451312;1.944953;1.645482;1.0112;1.142691;2.813056;1.350286;0.7038121;4.039731
777815.8198;NotLabelled;NONE;16384;0.6440443;-0.7247806;0.2396122;-0.04986149;-6;25;8;-3882;2812;-908;65536;0.6634349;-0.7336773;0.1412742;0.0401662;-3;24;40;2080;3898;479;8192;0.5221606;-0.7218964;-0.3739612;-0.2576177;11;-2;6;1084;3706;-1036;32768;0.5872576;-0.688211;-0.3559557;-0.234072;-10;1;9;-773;4065;559;256;-0.1274238;-0.02216066;-0.9883415;0.08033241;1;2;3;134;-1362;3736;128;0.1731302;-0.005540166;0.9793899;0.1038781;-12;-4;0;-262;126;-4192;4;0.200831;-0.7161388;0.6371191;0.2022161;-10;-7;-3;-3746;1480;-498;16;0.1551246;-0.9599068;-0.2313019;-0.03185596;-7;-22;1;-1973;471;3856;2;0.1371191;-0.7178191;-0.6094183;-0.3074792;-1;-7;-1;3994;1782;-792;8;0.1828255;-0.9488768;0.2534626;0.04432133;0;-3;1;1795;883;3785;0.9683324;1.944542;1.584224;0.9680186;1.915946;1.039427;0.9677206;1.888791;0.5606569;0.9649085;1.770121;-0.1634783;0.7041445;1.685883;-0.4791585;0.3649487;1.77894;-0.3509957;0.0561939;0.9394982;-0.1094671;0;0;0;1.224342;1.673555;-0.479161;1.515195;1.751681;-0.3510007;1.611713;0.8388155;-0.05836493;1.753671;-0.08393419;0.1034029;0.6565194;1.942704;1.630066;1.02096;1.142564;2.799603;1.363744;0.714886;4.029203;0.6565194;1.942704;1.630066;1.02096;1.142564;2.799603;1.363744;0.714886;4.029203
777835.7236;NotLabelled;NONE;16384;0.6440443;-0.7246839;0.2396122;-0.05124654;-4;0;-12;-2972;3420;-486;65536;0.6634349;-0.7337558;0.1426593;0.033241;-2;26;18;1364;3930;201;8192;0.5207756;-0.7241026;-0.3725762;-0.2562327;7;-6;1;1108;4216;-786;32768;0.5858725;-0.6896325;-0.3545706;-0.2354571;-7;0;6;-715;4295;227;256;-0.1274238;-0.02216066;-0.9882278;0.08171745;4;2;2;-16;-1682;3690;128;0.1731302;-0.004155125;0.9793968;0.1038781;-5;-1;-2;-32;-136;-4012;4;0.200831;-0.7144439;0.6398892;0.199446;-10;-12;-9;-3794;1646;-154;16;0.1537396;-0.9607927;-0.2285319;-0.03185596;-4;-17;2;-2359;411;3706;2;0.1371191;-0.7178191;-0.6094183;-0.3074792;-1;-1;2;4178;1552;-814;8;0.1814404;-0.9495114;0.2520775;0.04432133;0;12;2;1945;779;3595;0.994751;1.942329;1.558129;0.994448;1.914711;1.013281;0.9941595;1.888414;0.5344634;0.9913431;1.767749;-0.1893421;0.7305893;1.682548;-0.5047714;0.3913682;1.775836;-0.3768441;0.089524;0.9331501;-0.1378907;0;0;0;1.250792;1.670405;-0.5047743;1.541624;1.748989;-0.3768495;1.636683;0.8379669;-0.07805502;1.77313;-0.08580112;0.08263826;0.682937;1.940409;1.603961;1.04376;1.142519;2.776154;1.384279;0.7217598;4.008767;0.682937;1.940409;1.603961;1.04376;1.142519;2.776154;1.384279;0.7217598;4.008767
777855.8546;NotLabelled;NONE;16384;0.6440443;-0.7240232;0.2409972;-0.05401662;-11;18;-17;-1770;3636;-432;65536;0.6620498;-0.7357674;0.1398892;0.02770083;-2;58;9;252;4166;35;8192;0.5207756;-0.723611;-0.3725762;-0.2576177;5;0;-2;1296;3712;-938;32768;0.5858725;-0.6891581;-0.3545706;-0.2368421;-6;0;4;-741;4073;385;256;-0.1274238;-0.02077562;-0.9882579;0.08171745;7;4;1;6;-1562;3666;128;0.1731302;-0.004155125;0.9795427;0.1024931;-13;-5;-3;140;-282;-3786;4;0.199446;-0.7139752;0.6412742;0.1980609;-7;-12;-9;-3518;1450;-268;16;0.1509695;-0.9612318;-0.2285319;-0.03185596;-2;-7;1;-2075;591;3252;2;0.134349;-0.7177576;-0.6108033;-0.3060942;0;14;4;3970;1514;-828;8;0.1800554;-0.9505695;0.2493075;0.04293629;0;16;4;2359;717;3327;1.007367;1.943142;1.553689;1.007062;1.915266;1.008855;1.006771;1.888743;0.5300494;1.003952;1.766082;-0.1934202;0.7432083;1.679918;-0.5085974;0.403962;1.773438;-0.3809057;0.1002619;0.9314814;-0.1417288;0;0;0;1.263415;1.667962;-0.5086003;1.554228;1.747002;-0.3809103;1.648863;0.8373954;-0.07770342;1.781038;-0.08646047;0.08602655;0.6955538;1.941244;1.599524;1.049103;1.147898;2.777006;1.387939;0.7305896;4.011255;0.6955538;1.941244;1.599524;1.049103;1.147898;2.777006;1.387939;0.7305896;4.011255
777876.6704;NotLabelled;NONE;16384;0.6454294;-0.723611;0.2368421;-0.06094183;-21;50;-12;-1400;4200;-74;65536;0.6634349;-0.7366;0.1301939;0.01800554;-3;90;11;160;4288;-47;8192;0.5193906;-0.7258067;-0.3711911;-0.2562327;1;-8;-3;1384;3910;-1110;32768;0.5844875;-0.6905665;-0.3531856;-0.2382271;1;-2;7;-1009;4083;483;256;-0.1274238;-0.02077562;-0.9881425;0.08310249;8;4;0;214;-1668;4006;128;0.1731302;-0.004155125;0.9795427;0.1024931;-10;-2;-1;-6;-130;-4286;4;0.1980609;-0.7126292;0.6440443;0.1952908;-4;3;-6;-2938;1690;-216;16;0.1495845;-0.9621474;-0.2257618;-0.03047091;-2;-7;0;-1741;647;3250;2;0.132964;-0.7174248;-0.6121883;-0.3047091;-1;16;6;3592;1404;-986;8;0.1800554;-0.950631;0.2493075;0.04155125;2;9;3;2157;1003;2939;1.015013;1.944068;1.547916;1.014691;1.914696;1.00316;1.014385;1.886859;0.5244287;1.011907;1.764453;-0.1990857;0.7514032;1.677691;-0.5142964;0.411901;1.770235;-0.3865736;0.1028691;0.9304359;-0.146644;0;0;0;1.271641;1.667159;-0.5142993;1.562235;1.746947;-0.3865781;1.654802;0.8368373;-0.08424383;1.785077;-0.08742285;0.07872784;0.7032002;1.942295;1.593765;1.055953;1.153909;2.774812;1.393386;0.7435882;4.011785;0.7032002;1.942295;1.593765;1.055953;1.153909;2.774812;1.393386;0.7435882;4.011785
777897.6861;NotLabelled;NONE;16384;0.6481994;-0.7224383;0.2313019;-0.06648199;-28;54;-2;-1546;4006;-584;65536;0.6634349;-0.7381934;0.1218837;0.008310249;-4;94;15;448;4230;-421;8192;0.5193906;-0.7260234;-0.3698061;-0.2576177;0;1;-6;1594;3964;-1140;32768;0.5858725;-0.68962;-0.3518005;-0.2396122;6;-2;7;-695;4307;499;256;-0.1274238;-0.02077562;-0.9881425;0.08310249;11;0;0;550;-1498;3920;128;0.1731302;-0.004155125;0.9795427;0.1024931;-7;2;0;-244;40;-4288;4;0.1980609;-0.7142559;0.6426592;0.1939058;-3;7;-4;-3246;1638;-90;16;0.1495845;-0.9624713;-0.2243767;-0.03047091;-3;-6;0;-1519;759;3150;2;0.1301939;-0.7161496;-0.6149584;-0.3033241;3;10;6;3042;1410;-1088;8;0.1800554;-0.9510527;0.2479224;0.0401662;1;7;6;1947;947;2785;1.023254;1.945611;1.553038;1.022932;1.91624;1.008283;1.022627;1.888403;0.5295516;1.020154;1.764003;-0.193622;0.7596631;1.676278;-0.508578;0.4201351;1.769053;-0.3810917;0.1051535;0.9305129;-0.1445204;0;0;0;1.279904;1.665932;-0.5085804;1.570477;1.746177;-0.3810962;1.66265;0.8374991;-0.0743649;1.788649;-0.08681667;0.09162092;0.711442;1.943839;1.598887;1.060073;1.162742;2.785986;1.399376;0.7567163;4.023865;0.711442;1.943839;1.598887;1.060073;1.162742;2.785986;1.399376;0.7567163;4.023865
777918.6909;NotLabelled;NONE;16384;0.6495845;-0.7219814;0.2271468;-0.07202215;-26;36;-1;-2648;3424;-1130;65536;0.6620498;-0.7405907;0.1149584;0;0;59;7;1538;4096;843;8192;0.5193906;-0.7260234;-0.3698061;-0.2576177;-5;0;-7;794;3770;-1016;32768;0.5872576;-0.6891469;-0.3504155;-0.2396122;9;-3;5;-973;4059;247;256;-0.1274238;-0.02077562;-0.9882579;0.08171745;13;2;1;202;-1272;4024;128;0.1745152;-0.004155125;0.9792969;0.1024931;-13;0;0;-390;172;-4276;4;0.1980609;-0.7133825;0.6440443;0.1925208;-1;2;-1;-3604;1854;6;16;0.1481994;-0.9630074;-0.2229917;-0.03047091;-4;-12;-1;-1377;793;3496;2;0.1288089;-0.7164;-0.6149584;-0.3033241;3;2;0;3418;1754;-808;8;0.1786704;-0.9521443;0.2451524;0.03739612;-2;15;7;1795;1047;3295;1.029915;1.945649;1.558999;1.029593;1.916278;1.014243;1.029288;1.88844;0.5355124;1.026814;1.76404;-0.1876613;0.7663242;1.676316;-0.5026173;0.4267963;1.76909;-0.375131;0.1079914;0.9299922;-0.1457697;0;0;0;1.286565;1.66597;-0.5026197;1.577138;1.746214;-0.3751355;1.665646;0.8370211;-0.06885391;1.788613;-0.08835542;0.09345782;0.7181031;1.943877;1.604848;1.066013;1.165233;2.793768;1.404751;0.7591901;4.031797;0.7181031;1.943877;1.604848;1.066013;1.165233;2.793768;1.404751;0.7591901;4.031797
777939.8911;NotLabelled;NONE;16384;0.6523545;-0.7198993;0.2229917;-0.08033241;-26;30;-3;-1650;3700;-418;65536;0.66482;-0.7399726;0.101108;-0.01523546;16;82;1;696;4130;55;8192;0.5207756;-0.7252422;-0.368421;-0.2590028;-4;-1;-9;1440;3926;-876;32768;0.5886427;-0.6879643;-0.3504155;-0.2396122;10;0;5;-927;4101;389;256;-0.1274238;-0.01939058;-0.9885113;0.07894737;17;2;0;418;-1056;3688;128;0.1745152;-0.002770083;0.9790078;0.1052632;-13;1;-3;-242;414;-4152;4;0.1980609;-0.7133825;0.6440443;0.1925208;-7;-4;0;-3724;2112;136;16;0.1468144;-0.9638566;-0.2202216;-0.03047091;-5;-13;-2;-1481;763;3858;2;0.1274238;-0.7154568;-0.6163435;-0.3033241;0;13;-1;3370;1770;-900;8;0.1772853;-0.952812;0.2437673;0.03601108;-4;12;6;1969;1139;3477;1.0356;1.941596;1.559049;1.035278;1.912204;1.014294;1.034972;1.884348;0.5355643;1.032494;1.761943;-0.1879498;0.7719899;1.67518;-0.5031605;0.4324882;1.767724;-0.3754371;0.1096054;0.9291424;-0.1499247;0;0;0;1.292227;1.664648;-0.5031635;1.582822;1.744437;-0.3754422;1.671321;0.8352431;-0.06915867;1.793108;-0.09078753;0.09028292;0.7237879;1.939825;1.604898;1.068015;1.163513;2.796411;1.405617;0.760959;4.035888;0.7237879;1.939825;1.604898;1.068015;1.163513;2.796411;1.405617;0.760959;4.035888
777960.8038;NotLabelled;NONE;16384;0.6551247;-0.7184375;0.2174515;-0.08587258;-33;49;0;-1670;3928;254;65536;0.666205;-0.7397704;0.09141274;-0.0235457;19;89;5;930;4282;-253;8192;0.5207756;-0.724537;-0.3698061;-0.2590028;-7;10;-7;1320;3796;-852;32768;0.5900277;-0.6867768;-0.3504155;-0.2396122;13;3;7;-821;4073;415;256;-0.1274238;-0.01939058;-0.9887286;0.07617728;17;0;0;328;-884;3688;128;0.1745152;-0.004155125;0.979003;0.1052632;-8;1;-1;-266;472;-3800;4;0.1980609;-0.7125026;0.6454294;0.1911357;-4;-4;-2;-3428;1910;-78;16;0.1440443;-0.9646325;-0.2188366;-0.02908587;-5;-7;-1;-1865;775;4086;2;0.1260388;-0.7151135;-0.6163435;-0.3047091;3;4;-2;3152;1828;-1052;8;0.1759003;-0.9534731;0.2423823;0.03462604;-5;0;6;2113;1167;3763;1.050603;1.930833;1.573139;1.050311;1.90417;1.028244;1.050032;1.878715;0.549381;1.047879;1.760556;-0.17484;0.7875847;1.67512;-0.4905858;0.4478825;1.766226;-0.3623617;0.115909;0.9293323;-0.1438847;0;0;0;1.307842;1.66564;-0.4905885;1.598261;1.745265;-0.3623661;1.683741;0.8346138;-0.05957609;1.806102;-0.09190798;0.09654433;0.7387885;1.928833;1.618962;1.082671;1.15252;2.810575;1.418265;0.7534485;4.051722;0.7387885;1.928833;1.618962;1.082671;1.15252;2.810575;1.418265;0.7534485;4.051722
