SEP=;
index;label;segment;RightUpperArm_boneIndex;RightUpperArm_quat9x_w;RightUpperArm_quat9x_x;RightUpperArm_quat9x_y;RightUpperArm_quat9x_z;RightUpperArm_gyroscope_x;RightUpperArm_gyroscope_y;RightUpperArm_gyroscope_z;RightUpperArm_accelerometer_x;RightUpperArm_accelerometer_y;RightUpperArm_accelerometer_z;RightLowerArm_boneIndex;RightLowerArm_quat9x_w;RightLowerArm_quat9x_x;RightLowerArm_quat9x_y;RightLowerArm_quat9x_z;RightLowerArm_gyroscope_x;RightLowerArm_gyroscope_y;RightLowerArm_gyroscope_z;RightLowerArm_accelerometer_x;RightLowerArm_accelerometer_y;RightLowerArm_accelerometer_z;LeftUpperArm_boneIndex;LeftUpperArm_quat9x_w;LeftUpperArm_quat9x_x;LeftUpperArm_quat9x_y;LeftUpperArm_quat9x_z;LeftUpperArm_gyroscope_x;LeftUpperArm_gyroscope_y;LeftUpperArm_gyroscope_z;LeftUpperArm_accelerometer_x;LeftUpperArm_accelerometer_y;LeftUpperArm_accelerometer_z;LeftLowerArm_boneIndex;LeftLowerArm_quat9x_w;LeftLowerArm_quat9x_x;LeftLowerArm_quat9x_y;LeftLowerArm_quat9x_z;LeftLowerArm_gyroscope_x;LeftLowerArm_gyroscope_y;LeftLowerArm_gyroscope_z;LeftLowerArm_accelerometer_x;LeftLowerArm_accelerometer_y;LeftLowerArm_accelerometer_z;Chest_boneIndex;Chest_quat9x_w;Chest_quat9x_x;Chest_quat9x_y;Chest_quat9x_z;Chest_gyroscope_x;Chest_gyroscope_y;Chest_gyroscope_z;Chest_accelerometer_x;Chest_accelerometer_y;Chest_accelerometer_z;Spine_boneIndex;Spine_quat9x_w;Spine_quat9x_x;Spine_quat9x_y;Spine_quat9x_z;Spine_gyroscope_x;Spine_gyroscope_y;Spine_gyroscope_z;Spine_accelerometer_x;Spine_accelerometer_y;Spine_accelerometer_z;RightUpperLeg_boneIndex;RightUpperLeg_quat9x_w;RightUpperLeg_quat9x_x;RightUpperLeg_quat9x_y;RightUpperLeg_quat9x_z;RightUpperLeg_gyroscope_x;RightUpperLeg_gyroscope_y;RightUpperLeg_gyroscope_z;RightUpperLeg_accelerometer_x;RightUpperLeg_accelerometer_y;RightUpperLeg_accelerometer_z;RightLowerLeg_boneIndex;RightLowerLeg_quat9x_w;RightLowerLeg_quat9x_x;RightLowerLeg_quat9x_y;RightLowerLeg_quat9x_z;RightLowerLeg_gyroscope_x;RightLowerLeg_gyroscope_y;RightLowerLeg_gyroscope_z;RightLowerLeg_accelerometer_x;RightLowerLeg_accelerometer_y;RightLowerLeg_accelerometer_z;LeftUpperLeg_boneIndex;LeftUpperLeg_quat9x_w;LeftUpperLeg_quat9x_x;LeftUpperLeg_quat9x_y;LeftUpperLeg_quat9x_z;LeftUpperLeg_gyroscope_x;LeftUpperLeg_gyroscope_y;LeftUpperLeg_gyroscope_z;LeftUpperLeg_accelerometer_x;LeftUpperLeg_accelerometer_y;LeftUpperLeg_accelerometer_z;LeftLowerLeg_boneIndex;LeftLowerLeg_quat9x_w;LeftLowerLeg_quat9x_x;LeftLowerLeg_quat9x_y;LeftLowerLeg_quat9x_z;LeftLowerLeg_gyroscope_x;LeftLowerLeg_gyroscope_y;LeftLowerLeg_gyroscope_z;LeftLowerLeg_accelerometer_x;LeftLowerLeg_accelerometer_y;LeftLowerLeg_accelerometer_z;pelvis_x;pelvis_y;pelvis_z;lowerSpine_x;lowerSpine_y;lowerSpine_z;middleSpine_x;middleSpine_y;middleSpine_z;upperSpine_x;upperSpine_y;upperSpine_z;rightClavicle_x;rightClavicle_y;rightClavicle_z;rightShoulder_x;rightShoulder_y;rightShoulder_z;rightElbow_x;rightElbow_y;rightElbow_z;rightWrist_x;rightWrist_y;rightWrist_z;leftClavicle_x;leftClavicle_y;leftClavicle_z;leftShoulder_x;leftShoulder_y;leftShoulder_z;leftElbow_x;leftElbow_y;leftElbow_z;leftWrist_x;leftWrist_y;leftWrist_z;rightHip_x;rightHip_y;rightHip_z;rightKnee_x;rightKnee_y;rightKnee_z;rightAnkle_x;rightAnkle_y;rightAnkle_z;leftHip_x;leftHip_y;leftHip_z;leftKnee_x;leftKnee_y;leftKnee_z;leftAnkle_x;leftAnkle_y;leftAnkle_z;
108749.6381;NotLabelled;NONE;16384;0.8264138;0.4986149;0.2382271;0.1080332;-4;8;-4;1790;-3074;1768;65536;0.8205293;0.5650969;-0.02216066;0.08310249;-6;19;13;-461;-3705;-1590;8192;0.7836239;0.4709141;-0.3947368;0.09141274;-11;9;-6;-1022;-3140;2164;32768;0.7849447;0.5900277;-0.1717452;0.07894737;15;6;1;557;-3747;-933;256;-0.05124654;0.0401662;-0.5318559;-0.844328;-2;-9;0;132;3488;-1902;128;0.07894737;-0.07063711;0.6385041;0.7622927;-9;-5;1;-18;3822;852;4;0.6330564;-0.5235457;0.3919668;0.4141274;3;23;-6;484;3880;614;16;0.5623268;-0.6998546;-0.2631579;-0.3531856;-5;-6;0;365;4095;1584;2;0.5758043;-0.4736842;-0.4542936;-0.4875346;-9;50;5;-1130;4102;568;8;0.634349;-0.7410944;0.1135734;0.1883656;6;35;-3;-323;4169;797;0.6722649;2.798529;0.01458097;0.6782274;3.341886;-0.03389146;0.6834663;3.819317;-0.07851341;0.7136351;4.481521;0.2361894;0.4693613;4.803956;0.3416112;0.1214121;4.665895;0.3385159;-0.3846301;5.382012;0.03947634;-0.4816791;6.265471;-0.288976;0.9891662;4.780278;0.341612;1.27079;4.613536;0.3385176;1.754185;5.388771;0.03255266;1.892072;6.291077;-0.2216509;0.3600048;2.75595;0.0109993;0.2400818;1.311294;-0.1876076;0;0;0;0.3600048;2.75595;0.0109993;0.2400818;1.311294;-0.1876076;0;0;0
108769.6352;NotLabelled;NONE;16384;0.8251756;0.5;0.2396122;0.1080332;-3;-6;-2;1692;-3178;1688;65536;0.821583;0.5637119;-0.01800554;0.08310249;3;0;10;-401;-3679;-1418;8192;0.7834868;0.4722992;-0.3933518;0.09141274;-11;2;-4;-966;-3116;2166;32768;0.7828549;0.5927978;-0.1717452;0.07894737;10;1;4;473;-3617;-811;256;-0.04986149;0.0401662;-0.5318559;-0.8444109;0;-3;0;124;3386;-1772;128;0.07756232;-0.07063711;0.6371191;0.7635927;-9;-2;1;-138;3784;780;4;0.6334215;-0.5263157;0.3905817;0.4113573;4;26;-8;444;3888;466;16;0.5623268;-0.7003738;-0.2617728;-0.3531856;-3;-6;0;157;3981;1518;2;0.5723709;-0.4695291;-0.4584487;-0.4916897;-11;36;5;-1444;3676;426;8;0.6357341;-0.7412315;0.1094183;0.1855956;8;29;-3;-41;4203;885;0.6747326;2.797318;0.01193948;0.6806973;3.340886;-0.03409351;0.6859383;3.818512;-0.07657197;0.7149736;4.480575;0.2385352;0.4701494;4.80253;0.3441471;0.1224353;4.663879;0.3409582;-0.3831151;5.379353;0.03955152;-0.4790794;6.261506;-0.2927004;0.9899939;4.779736;0.3441474;1.2719;4.613474;0.3409587;1.754667;5.3918;0.04192525;1.892279;6.295137;-0.2087336;0.3624725;2.754755;0.00815139;0.245607;1.309853;-0.1904954;0;0;0;0.3624725;2.754755;0.00815139;0.245607;1.309853;-0.1904954;0;0;0
108789.6326;NotLabelled;NONE;16384;0.8245535;0.501385;0.2382271;0.1094183;-3;-10;-1;1678;-3368;1716;65536;0.8205188;0.5650969;-0.0166205;0.08448754;8;-5;9;-395;-3849;-1272;8192;0.7833448;0.4736842;-0.3919668;0.09141274;-7;-1;-3;-966;-3308;2092;32768;0.7821072;0.5941828;-0.1703601;0.07894737;7;0;5;339;-3707;-749;256;-0.04986149;0.0401662;-0.5318559;-0.8444109;2;2;-2;126;3446;-1712;128;0.07617728;-0.07063711;0.6357341;0.7648854;-7;-3;1;-78;3742;810;4;0.6337591;-0.5290859;0.3891967;0.4085872;2;22;-7;174;4008;180;16;0.5609418;-0.702694;-0.2603878;-0.3518005;-2;-8;1;61;4075;1288;2;0.572334;-0.466759;-0.4598338;-0.4930748;-5;6;7;-1494;3676;308;8;0.6371191;-0.7411344;0.1066482;0.1828255;3;23;0;-213;4317;735;0.6754156;2.797621;0.007245436;0.6813823;3.34137;-0.03660094;0.6866252;3.819163;-0.07715806;0.7140739;4.481209;0.2381265;0.4684852;4.802564;0.3437898;0.1210961;4.663103;0.3405179;-0.3848269;5.378069;0.0385326;-0.486813;6.258539;-0.2963784;0.9883814;4.780981;0.343854;1.270675;4.615379;0.3406597;1.752068;5.394235;0.04079163;1.889748;6.299345;-0.2033496;0.3631558;2.755073;0.003272511;0.248486;1.309323;-0.1904123;0;0;0;0.3631558;2.755073;0.003272511;0.248486;1.309323;-0.1904123;0;0;0
108809.7237;NotLabelled;NONE;16384;0.8235246;0.5027701;0.2382271;0.1108033;-2;-14;-1;1858;-3422;1922;65536;0.8192729;0.566482;-0.0166205;0.08725762;9;-7;7;-563;-4049;-1302;8192;0.7830166;0.4736842;-0.3919668;0.09418282;-2;-7;0;-926;-3408;2134;32768;0.7810689;0.5955678;-0.1689751;0.08171745;2;-3;7;67;-3867;-949;256;-0.04986149;0.04155125;-0.5304709;-0.8452147;8;5;-5;146;3744;-1766;128;0.07617728;-0.07063711;0.634349;0.7660345;-9;0;2;-44;3924;782;4;0.6343808;-0.5304709;0.3891967;0.4058172;-1;3;-4;66;4164;262;16;0.5623268;-0.702608;-0.2576177;-0.3518005;-3;-19;0;393;4067;1006;2;0.5735243;-0.466759;-0.4598338;-0.4916897;-1;-19;8;-1230;4190;404;8;0.6385041;-0.7408186;0.1052632;0.1800554;2;14;3;75;4089;351;0.6753541;2.797044;-0.004863039;0.6813226;3.340964;-0.04652917;0.6865674;3.818916;-0.08517049;0.7140162;4.480961;0.2301148;0.4684275;4.802316;0.3357785;0.1210383;4.662856;0.3325066;-0.3843487;5.379038;0.03251392;-0.4898508;6.260353;-0.2990755;0.9883237;4.780735;0.3358424;1.270618;4.615133;0.332648;1.74919;5.395723;0.03277677;1.884653;6.30184;-0.2088595;0.3630946;2.754513;-0.009020314;0.2502964;1.307927;-0.1974997;0;0;0;0.3630946;2.754513;-0.009020314;0.2502964;1.307927;-0.1974997;0;0;0
108830.6291;NotLabelled;NONE;16384;0.8237365;0.5027701;0.2368421;0.1121884;-3;-12;-1;1880;-3394;1926;65536;0.8181645;0.567867;-0.0166205;0.08864266;10;-6;6;-613;-4049;-1240;8192;0.7830166;0.4736842;-0.3919668;0.09418282;-4;-6;1;-822;-3340;2100;32768;0.7809228;0.5955678;-0.1689751;0.08310249;0;-4;7;75;-3847;-1121;256;-0.04986149;0.04293629;-0.5290859;-0.8460132;11;9;-5;120;3830;-1936;128;0.07479224;-0.07202215;0.632964;0.7671868;-10;3;4;-28;4216;874;4;0.6329427;-0.5290859;0.3919668;0.4072022;-5;-11;-1;588;3844;328;16;0.5637119;-0.7055696;-0.2520775;-0.3476454;-6;-23;-2;255;4173;684;2;0.5758676;-0.468144;-0.4584487;-0.4889196;2;-28;7;-626;4138;274;8;0.6385041;-0.7411538;0.1052632;0.1786704;0;-3;3;-277;4235;23;0.6817634;2.797274;-0.006438687;0.6877334;3.34134;-0.04615638;0.6929796;3.819427;-0.08308554;0.7195455;4.480484;0.2343435;0.4735339;4.801181;0.3410178;0.1263239;4.661287;0.3372538;-0.3812119;5.378159;0.04258214;-0.4903199;6.260377;-0.2854184;0.9934572;4.780264;0.3410727;1.275963;4.615035;0.3373754;1.750424;5.397551;0.03599489;1.879931;6.305229;-0.2030332;0.3695039;2.754758;-0.0107604;0.2534752;1.307793;-0.1943049;0;0;0;0.3695039;2.754758;-0.0107604;0.2534752;1.307793;-0.1943049;0;0;0
108851.6512;NotLabelled;NONE;16384;0.8226995;0.5041551;0.2368421;0.1135734;-4;-8;-1;1826;-3244;1954;65536;0.8170501;0.5692521;-0.0166205;0.0900277;9;-4;3;-699;-3975;-1214;8192;0.7821537;0.4736842;-0.3933518;0.09556787;-6;-6;1;-1090;-3332;2030;32768;0.7810726;0.5955678;-0.16759;0.08448754;0;-9;4;89;-3813;-1157;256;-0.04986149;0.04432133;-0.5277008;-0.8468065;8;10;-5;-8;3750;-1982;128;0.07479224;-0.0734072;0.632964;0.7670555;-10;4;3;-38;4166;814;4;0.6323469;-0.5277008;0.3933518;0.4085872;-5;-12;-1;726;3762;240;16;0.5637119;-0.7074201;-0.2506925;-0.3448753;-8;-13;-3;59;3941;782;2;0.5747489;-0.4722992;-0.4570637;-0.4875346;3;3;1;-482;4020;68;8;0.6398892;-0.7402915;0.1052632;0.1772853;-8;8;8;-499;4139;89;0.6863364;2.796384;-0.01342963;0.6923084;3.340605;-0.05098012;0.6975561;3.818835;-0.08600493;0.7232744;4.478894;0.2335606;0.4768527;4.798932;0.3412648;0.1298211;4.658609;0.3370399;-0.3772196;5.37641;0.04378032;-0.4884779;6.259629;-0.2807845;0.9968022;4.778676;0.3412655;1.279518;4.613819;0.3370412;1.753899;5.397406;0.03832901;1.881238;6.305363;-0.2008058;0.3740773;2.753886;-0.0179343;0.2548963;1.30684;-0.1988034;0;0;0;0.3740773;2.753886;-0.0179343;0.2548963;1.30684;-0.1988034;0;0;0
108871.8141;NotLabelled;NONE;16384;0.8218597;0.5055401;0.2354571;0.1163435;-6;-7;-1;2010;-3120;1930;65536;0.8159564;0.5706371;-0.01523546;0.09141274;6;3;3;-825;-3963;-1098;8192;0.7811426;0.4750692;-0.3933518;0.09695291;-5;-7;1;-1128;-3528;1914;32768;0.7804694;0.5955678;-0.1689751;0.08725762;2;-10;0;45;-3809;-1259;256;-0.05124654;0.04709141;-0.5263157;-0.8474361;2;6;-2;-92;3640;-1828;128;0.07479224;-0.07479224;0.6301939;0.7691995;-4;3;1;-10;3896;586;4;0.6326048;-0.5263157;0.3933518;0.4099723;-3;-10;1;768;3712;420;16;0.5637119;-0.7079094;-0.2493075;-0.3448753;-10;-2;-2;389;4195;650;2;0.5747088;-0.4709141;-0.4570637;-0.4889196;0;8;-4;-554;4058;338;8;0.6385041;-0.7418162;0.1052632;0.1759003;-9;1;9;-35;4141;497;0.6857246;2.795786;-0.01831175;0.6916965;3.340006;-0.05586667;0.6969441;3.818236;-0.09089535;0.7217885;4.477292;0.2308043;0.4749492;4.796668;0.3395112;0.1280959;4.655921;0.3347891;-0.3810308;5.374262;0.04651137;-0.4943976;6.258471;-0.2746129;0.994924;4.77707;0.3395116;1.277849;4.612585;0.3347902;1.751343;5.39669;0.03603286;1.874485;6.305039;-0.2038133;0.3734653;2.753288;-0.02281603;0.2523503;1.306483;-0.2043253;0;0;0;0.3734653;2.753288;-0.02281603;0.2523503;1.306483;-0.2043253;0;0;0
108892.6317;NotLabelled;NONE;16384;0.8208086;0.5069252;0.2354571;0.1177285;-4;-2;0;2002;-3268;2018;65536;0.8150108;0.5720221;-0.01385042;0.09141274;5;2;3;-781;-4011;-982;8192;0.7795988;0.4764543;-0.3947368;0.09695291;-4;-5;2;-996;-3630;1950;32768;0.7803133;0.5955678;-0.1689751;0.08864266;5;-5;0;107;-3995;-1149;256;-0.05124654;0.04847645;-0.5263157;-0.847358;-2;4;-2;-88;3782;-1744;128;0.07479224;-0.07479224;0.6315789;0.7680627;1;2;1;46;3924;656;4;0.6319935;-0.5249307;0.3947368;0.4113573;-4;-8;3;632;4018;676;16;0.5637119;-0.7083957;-0.2479224;-0.3448753;-12;-13;-6;799;4171;660;2;0.5735276;-0.4709141;-0.4570637;-0.4903047;-1;9;-6;-506;3928;40;8;0.6371191;-0.7431352;0.1066482;0.1745152;-8;-10;7;-155;4269;805;0.6885043;2.794638;-0.01635581;0.6944789;3.339112;-0.05003098;0.6997294;3.817579;-0.08165033;0.724286;4.475698;0.2419831;0.4773122;4.79466;0.3515986;0.1305132;4.653794;0.3464256;-0.3799862;5.372543;0.06161081;-0.4988036;6.257517;-0.2554076;0.9972945;4.775261;0.3515992;1.280283;4.610899;0.3464268;1.750654;5.397226;0.04857635;1.871184;6.306003;-0.1909742;0.3762453;2.752172;-0.02118724;0.2536276;1.30594;-0.2062092;0;0;0;0.3762453;2.752172;-0.02118724;0.2536276;1.30594;-0.2062092;0;0;0
108912.6779;NotLabelled;NONE;16384;0.8208086;0.5069252;0.2354571;0.1177285;-4;0;1;1904;-3162;1964;65536;0.8138802;0.5734072;-0.01385042;0.09279778;3;0;2;-741;-3901;-1002;8192;0.7787506;0.4778393;-0.3947368;0.09695291;-3;0;0;-1028;-3442;2120;32768;0.7789526;0.5969529;-0.1703601;0.08864266;8;0;-3;221;-3891;-1149;256;-0.05124654;0.04847645;-0.5277008;-0.8464961;-3;2;-1;-116;3756;-1812;128;0.07479224;-0.07479224;0.6315789;0.7680627;2;0;1;82;4052;592;4;0.6325184;-0.5221606;0.3961219;0.4127424;-6;-19;4;512;4048;510;16;0.5637119;-0.7111754;-0.2437673;-0.3421052;-13;-28;-11;747;4235;754;2;0.5734775;-0.4695291;-0.4570637;-0.4916897;2;6;-4;-566;3834;240;8;0.6357341;-0.7435919;0.1094183;0.1759003;-6;-17;6;-123;4129;1079;0.6925074;2.793865;-0.01688606;0.6984806;3.338215;-0.05250157;0.7037297;3.816567;-0.085826;0.7273212;4.47473;0.23779;0.47988;4.793332;0.3473974;0.133288;4.651958;0.3422286;-0.3785785;5.371226;0.0612044;-0.5001284;6.257077;-0.2523097;0.9998901;4.774696;0.347398;1.283119;4.610748;0.3422297;1.754152;5.398009;0.0479117;1.87252;6.307052;-0.1917023;0.3802483;2.751383;-0.02155399;0.2556709;1.305391;-0.2071537;0;0;0;0.3802483;2.751383;-0.02155399;0.2556709;1.305391;-0.2071537;0;0;0
108933.6517;NotLabelled;NONE;16384;0.8208086;0.5069252;0.2354571;0.1177285;-1;1;1;1812;-3230;1922;65536;0.812925;0.5747922;-0.01246537;0.09279778;2;0;0;-603;-3801;-1060;8192;0.7785769;0.4778393;-0.3947368;0.09833795;-4;0;0;-894;-3374;2172;32768;0.7778892;0.5983379;-0.1703601;0.08864266;7;0;-4;327;-3833;-1153;256;-0.05124654;0.04847645;-0.5277008;-0.8464961;-2;1;0;-128;3702;-1794;128;0.07479224;-0.07479224;0.6315789;0.7680627;3;-2;0;66;4008;780;4;0.6321164;-0.5193906;0.3975069;0.4155124;-9;-34;7;714;3946;396;16;0.5637119;-0.7141001;-0.2409972;-0.3379501;-17;-32;-14;409;4237;724;2;0.573444;-0.4709141;-0.4556787;-0.4916897;6;-15;3;-694;3958;66;8;0.634349;-0.7445691;0.1108033;0.1759003;-4;-21;3;-167;4129;1095;0.7004253;2.791359;-0.01783749;0.7063985;3.33571;-0.05345308;0.7116475;3.814061;-0.08677761;0.7351297;4.473279;0.2346919;0.4876302;4.79218;0.3432905;0.1410692;4.650714;0.338622;-0.3708548;5.369982;0.05770219;-0.4937713;6.25678;-0.2525855;1.007645;4.773661;0.343291;1.29091;4.60976;0.3386234;1.761337;5.398329;0.04684901;1.881602;6.308114;-0.1889763;0.3881661;2.748877;-0.02250542;0.258511;1.303934;-0.212733;0;0;0;0.3881661;2.748877;-0.02250542;0.258511;1.303934;-0.212733;0;0;0
108974.8568;NotLabelled;NONE;16384;0.8212047;0.5069252;0.234072;0.1177285;2;-3;0;1738;-3228;2090;65536;0.8129026;0.5747922;-0.01385042;0.09279778;0;1;0;-399;-3881;-1172;8192;0.7777252;0.4792244;-0.3947368;0.09833795;-3;0;2;-908;-3352;2152;32768;0.7775846;0.5983379;-0.1717452;0.08864266;3;-2;-1;271;-3811;-1027;256;-0.04986149;0.04847645;-0.5277008;-0.8465788;3;0;0;30;3640;-1706;128;0.07202215;-0.0734072;0.6315789;0.7684609;-5;-8;0;50;3940;838;4;0.6277937;-0.5055401;0.4044321;0.432133;-3;-31;21;1144;4106;846;16;0.5609418;-0.7236786;-0.234072;-0.3268698;-18;-27;-25;495;4337;860;2;0.5788927;-0.4806094;-0.4459834;-0.4847645;9;-44;-2;-530;4092;198;8;0.6315789;-0.7443114;0.1191136;0.1814404;-8;-24;3;-237;4169;101;0.7002405;2.789707;-0.02021638;0.7062137;3.334058;-0.05583199;0.7114627;3.812409;-0.0891565;0.7349449;4.471628;0.2323129;0.4874454;4.790529;0.3409116;0.1408844;4.649062;0.3362432;-0.3710234;5.368331;0.05529382;-0.4959189;6.25598;-0.2517495;1.00746;4.772009;0.340912;1.290725;4.608109;0.3362446;1.759783;5.397575;0.04469419;1.879905;6.3082;-0.1879445;0.3879813;2.747226;-0.02488431;0.256394;1.303125;-0.2201216;0;0;0;0.3879813;2.747226;-0.02488431;0.256394;1.303125;-0.2201216;0;0;0
108994.8332;NotLabelled;NONE;16384;0.8212047;0.5069252;0.234072;0.1177285;0;0;0;1570;-3180;1946;65536;0.8130819;0.5747922;-0.01246537;0.09141274;-3;10;0;-443;-3773;-1320;8192;0.7777252;0.4792244;-0.3947368;0.09833795;-2;0;3;-1030;-3312;2076;32768;0.7765169;0.599723;-0.1717452;0.08864266;1;-4;0;257;-3819;-1009;256;-0.04986149;0.04986149;-0.5263157;-0.8473603;9;3;-1;108;3596;-1776;128;0.07063711;-0.0734072;0.6301939;0.7697256;-9;0;0;-70;3952;882;4;0.6300996;-0.501385;0.4030471;0.434903;-2;-11;21;1272;4062;944;16;0.5595568;-0.7276677;-0.232687;-0.3213296;-14;-29;-26;-133;3997;1530;2;0.5809272;-0.4833795;-0.4418283;-0.4833795;6;-32;-10;-170;3932;216;8;0.6301939;-0.7446978;0.1218837;0.1828255;-11;-13;4;-411;4117;133;0.6992179;2.781636;-0.02241236;0.7051915;3.326015;-0.05758163;0.7104409;3.804394;-0.09051391;0.732373;4.463577;0.2311358;0.4841256;4.78187;0.3398143;0.1378964;4.639594;0.3350976;-0.3714118;5.359304;0.05057811;-0.493724;6.247173;-0.2568709;1.004182;4.764565;0.3398244;1.287829;4.601329;0.3351201;1.757198;5.391859;0.04697043;1.879714;6.302371;-0.1848601;0.3869589;2.739158;-0.02711787;0.2523084;1.298981;-0.2476184;0;0;0;0.3869589;2.739158;-0.02711787;0.2523084;1.298981;-0.2476184;0;0;0
109016.0737;NotLabelled;NONE;16384;0.8215982;0.5069252;0.232687;0.1177285;-2;-2;-1;1432;-3170;1794;65536;0.8132365;0.5747922;-0.01246537;0.0900277;-2;9;-1;-393;-3733;-1320;8192;0.7777252;0.4792244;-0.3947368;0.09833795;0;-3;3;-1038;-3244;2064;32768;0.7763575;0.599723;-0.1717452;0.0900277;1;-4;0;309;-3743;-1027;256;-0.04986149;0.04986149;-0.5249307;-0.848219;9;6;-2;240;3490;-1882;128;0.07063711;-0.0734072;0.6288089;0.7708575;-7;3;1;-116;3890;806;4;0.6320056;-0.5;0.400277;0.4362881;0;16;14;692;3904;662;16;0.5581717;-0.7315878;-0.2313019;-0.3157895;-6;-30;-29;-469;4203;1426;2;0.5819747;-0.4847645;-0.4404432;-0.4819945;0;-3;-12;298;3936;258;8;0.6288089;-0.7455269;0.1218837;0.1842105;-13;-3;6;-475;4153;529;0.6963944;2.777503;-0.02102943;0.7023696;3.322018;-0.05404247;0.7076204;3.800523;-0.08507996;0.7286763;4.458691;0.2387018;0.4800138;4.77632;0.3483653;0.1339632;4.63363;0.3431293;-0.3770432;5.352449;0.05940599;-0.5006674;6.240238;-0.2477515;1.000091;4.759665;0.3484092;1.283943;4.596798;0.3432265;1.751574;5.386413;0.04979056;1.873426;6.297751;-0.1791189;0.3841356;2.735044;-0.02591677;0.2455143;1.297603;-0.2612987;0;0;0;0.3841356;2.735044;-0.02591677;0.2455143;1.297603;-0.2612987;0;0;0
109036.6748;NotLabelled;NONE;16384;0.8213986;0.5069252;0.232687;0.1191136;-1;-8;-1;1504;-3238;1682;65536;0.8143656;0.5734072;-0.01246537;0.08864266;-1;4;-3;-465;-3663;-1304;8192;0.776313;0.4792244;-0.3975069;0.09833795;-2;-7;4;-1166;-3226;2178;32768;0.7755775;0.599723;-0.1745152;0.09141274;-1;-9;-1;437;-3761;-1025;256;-0.05124654;0.05124654;-0.5235457;-0.8489096;8;9;-4;178;3412;-1826;128;0.07063711;-0.0734072;0.6274238;0.7719852;-7;10;1;-152;3748;830;4;0.6336092;-0.501385;0.3975069;0.434903;6;24;8;-156;3642;188;16;0.5581717;-0.7339544;-0.2313019;-0.3102493;-1;-25;-25;-713;3721;1258;2;0.5809272;-0.4833795;-0.4418283;-0.4833795;-4;21;-7;346;4170;-40;8;0.6274238;-0.7472578;0.1204986;0.1828255;-14;16;6;-729;4219;751;0.6883301;2.774347;-0.02289371;0.6943064;3.318975;-0.05396824;0.6995583;3.797588;-0.0833022;0.7207547;4.454695;0.2426179;0.472161;4.772022;0.3533084;0.1260784;4.629427;0.3476014;-0.3825592;5.350041;0.0641736;-0.5046952;6.237966;-0.2431872;0.9922345;4.75525;0.3533091;1.27605;4.592338;0.3476027;1.744312;5.383104;0.05830407;1.864548;6.294712;-0.1703862;0.3760714;2.731905;-0.02794434;0.239104;1.296132;-0.2742228;0;0;0;0.3760714;2.731905;-0.02794434;0.239104;1.296132;-0.2742228;0;0;0
109056.6258;NotLabelled;NONE;16384;0.8207315;0.5083103;0.2313019;0.1204986;-2;-11;0;1724;-3106;1690;65536;0.8135384;0.5747922;-0.01246537;0.08725762;0;2;-4;-513;-3753;-1218;8192;0.7756023;0.4792244;-0.398892;0.09833795;-1;-10;4;-1258;-3118;1930;32768;0.7761697;0.5983379;-0.1759003;0.09279778;-1;-13;-3;483;-3643;-1221;256;-0.05263158;0.05124654;-0.5221606;-0.8496776;7;9;-4;236;3408;-1840;128;0.07202215;-0.07479224;0.6274238;0.7717242;-7;11;0;-194;3744;778;4;0.6320375;-0.5055401;0.3947368;0.434903;20;1;-6;-94;3516;-182;16;0.5567867;-0.7380232;-0.232687;-0.301939;4;-9;-15;-313;3045;1744;2;0.5787966;-0.4806094;-0.4445983;-0.4861496;-7;44;-4;-152;3972;152;8;0.6274238;-0.7485877;0.1163435;0.1800554;-11;37;6;-427;4311;815;0.6754353;2.774201;-0.02933276;0.6814128;3.318937;-0.0584715;0.6866659;3.797651;-0.08610427;0.7085586;4.45377;0.2417547;0.460306;4.771044;0.353357;0.1140662;4.62885;0.3471964;-0.3968406;5.348681;0.06586358;-0.5188103;6.235664;-0.244266;0.9803608;4.753695;0.3533574;1.263996;4.590486;0.3471975;1.734802;5.38047;0.05989605;1.856649;6.292123;-0.1677625;0.3631768;2.731778;-0.03454634;0.2279054;1.296238;-0.2831115;0;0;0;0.3631768;2.731778;-0.03454634;0.2279054;1.296238;-0.2831115;0;0;0
109078.1099;NotLabelled;NONE;16384;0.8209161;0.5083103;0.2299169;0.1218837;-1;-11;2;1878;-3068;1660;65536;0.8135384;0.5747922;-0.01246537;0.08725762;4;-1;-2;-525;-3713;-1238;8192;0.7747114;0.4792244;-0.400277;0.09972299;-2;-10;3;-980;-3074;1954;32768;0.7758545;0.5983379;-0.1772853;0.09279778;0;-13;-3;355;-3571;-1281;256;-0.05263158;0.05263158;-0.5207756;-0.8504426;5;11;-3;164;3430;-1826;128;0.07479224;-0.07617728;0.6260388;0.7724497;-3;17;0;-156;3806;704;4;0.6306778;-0.5083103;0.3933518;0.434903;17;7;-7;158;3520;560;16;0.5567867;-0.7395849;-0.2313019;-0.299169;4;-12;-11;287;3553;2214;2;0.5733035;-0.4750692;-0.4515235;-0.4916897;-4;26;-1;-242;4164;226;8;0.6274238;-0.7518939;0.1094183;0.1703601;-2;36;4;359;4447;1017;0.645722;2.775371;-0.04952361;0.6516994;3.320094;-0.07888144;0.6569524;3.798798;-0.1067068;0.6805001;4.453883;0.2230969;0.4330538;4.771465;0.3356144;0.08644947;4.630181;0.3289984;-0.4238504;5.351206;0.04962862;-0.5445854;6.239393;-0.2575244;0.953062;4.752776;0.3356147;1.236277;4.588856;0.3289993;1.708516;5.378444;0.04296762;1.83062;6.289434;-0.187193;0.3334636;2.732946;-0.05471869;0.2107848;1.295552;-0.2990703;0;0;0;0.3334636;2.732946;-0.05471869;0.2107848;1.295552;-0.2990703;0;0;0
109098.658;NotLabelled;NONE;16384;0.8207946;0.5096953;0.2257618;0.1246537;1;-14;5;1766;-3296;1968;65536;0.8122085;0.5761772;-0.01523546;0.0900277;4;-19;-4;-423;-3961;-1076;8192;0.7739941;0.4792244;-0.4016621;0.09972299;-1;-6;2;-882;-3234;2014;32768;0.7764366;0.5969529;-0.1786704;0.09418282;1;-7;-3;355;-3599;-1245;256;-0.05540166;0.0567867;-0.5193906;-0.8508462;10;13;-2;-42;3566;-1850;128;0.08171745;-0.08310249;0.6246537;0.7721554;-2;39;1;-100;3820;696;4;0.6293913;-0.5110803;0.3933518;0.433518;13;15;-12;248;3824;660;16;0.5554016;-0.7410568;-0.2299169;-0.299169;3;5;-1;511;3227;3002;2;0.5709699;-0.4736842;-0.4529086;-0.4944598;1;24;0;-10;4262;44;8;0.6288089;-0.7517574;0.1066482;0.16759;2;28;2;427;4709;917;0.6345024;2.776185;-0.05815699;0.6404806;3.320986;-0.08602896;0.6457344;3.799763;-0.1125485;0.6684453;4.453815;0.2193622;0.4205987;4.770729;0.3328713;0.07416804;4.629045;0.3257609;-0.4362311;5.349963;0.04629711;-0.5576745;6.23815;-0.2605764;0.9406294;4.752676;0.3328719;1.224044;4.589123;0.3257624;1.696042;5.379222;0.04074287;1.81966;6.290098;-0.1890599;0.3222441;2.733774;-0.06347708;0.2072994;1.295042;-0.3036784;0;0;0;0.3222441;2.733774;-0.06347708;0.2072994;1.295042;-0.3036784;0;0;0
109120.6385;NotLabelled;NONE;16384;0.8209628;0.5096953;0.2243767;0.1260388;0;-12;4;1918;-3398;2088;65536;0.8108552;0.5775623;-0.01800554;0.09279778;1;-16;-4;-569;-4101;-1184;8192;0.7739941;0.4792244;-0.4016621;0.09972299;-1;-1;1;-958;-3450;2188;32768;0.7761165;0.5969529;-0.1800554;0.09418282;1;-2;-3;343;-3831;-1261;256;-0.0567867;0.05817174;-0.5166205;-0.8523465;12;12;-2;-50;3832;-1832;128;0.08587258;-0.08587258;0.6246537;0.771401;1;31;0;-72;3944;904;4;0.6290377;-0.5138504;0.3933518;0.4307479;8;21;-16;328;4304;390;16;0.5540166;-0.7405389;-0.2313019;-0.301939;2;30;9;943;3789;2830;2;0.5687076;-0.4722992;-0.4556787;-0.4958449;7;23;-1;200;4318;294;8;0.6301939;-0.7515979;0.1038781;0.1648199;8;26;4;-237;4243;1113;0.6331095;2.776098;-0.07374974;0.6390881;3.320937;-0.1008943;0.6443423;3.799749;-0.1267745;0.6674066;4.45293;0.2068191;0.4197356;4.769698;0.3211207;0.07322258;4.628236;0.3136152;-0.4366696;5.350926;0.0378315;-0.5597094;6.240335;-0.2648398;0.9397554;4.751339;0.3211213;1.223075;4.58764;0.3136163;1.694036;5.377341;0.02579349;1.815917;6.287552;-0.2075471;0.3208513;2.733695;-0.07913099;0.2076931;1.293369;-0.3104631;0;0;0;0.3208513;2.733695;-0.07913099;0.2076931;1.293369;-0.3104631;0;0;0
109140.6381;NotLabelled;NONE;16384;0.8211264;0.5096953;0.2229917;0.1274238;0;-8;4;1990;-3316;2060;65536;0.8108233;0.5775623;-0.01939058;0.09279778;1;-4;-2;-561;-4123;-1362;8192;0.7730939;0.4792244;-0.4030471;0.101108;-1;-10;5;-992;-3720;2342;32768;0.7752992;0.5969529;-0.1828255;0.09556787;1;-7;-2;107;-4181;-1285;256;-0.05817174;0.05955679;-0.5152354;-0.8529956;14;14;-3;-52;4106;-1970;128;0.08864266;-0.08864266;0.6246537;0.7707741;8;29;1;96;4418;658;4;0.6296001;-0.5166205;0.3933518;0.4265928;0;22;-18;508;4764;690;16;0.5540166;-0.7375174;-0.2354571;-0.3060942;5;50;12;237;4013;2180;2;0.5663821;-0.4722992;-0.4570637;-0.4972299;1;20;-3;-48;4290;604;8;0.6301939;-0.753059;0.09972299;0.1606648;10;27;5;-373;4171;1495;0.6356454;2.776793;-0.08352093;0.6416236;3.321593;-0.1114334;0.6468773;3.800367;-0.1379884;0.6707883;4.451458;0.1996086;0.4235388;4.767869;0.3157968;0.07682814;4.626944;0.3073492;-0.4335354;5.349538;0.03218464;-0.5562545;6.240166;-0.267015;0.9435323;4.748775;0.315797;1.226622;4.584725;0.3073499;1.696522;5.374426;0.01779807;1.819589;6.284523;-0.2153678;0.3233871;2.734381;-0.08883768;0.2104421;1.292674;-0.3115058;0;0;0;0.3233871;2.734381;-0.08883768;0.2104421;1.292674;-0.3115058;0;0;0
109161.6631;NotLabelled;NONE;16384;0.8206403;0.5110803;0.2216066;0.1274238;-1;-8;4;1876;-3318;1988;65536;0.8108233;0.5775623;-0.01939058;0.09279778;1;0;-1;-551;-4071;-1284;8192;0.7730455;0.4778393;-0.4044321;0.1024931;-2;-13;8;-1044;-3522;2308;32768;0.7751272;0.5969529;-0.1828255;0.09695291;1;-12;-1;261;-4131;-1287;256;-0.05955679;0.06094183;-0.5138504;-0.8536375;10;14;-4;-40;4134;-1900;128;0.09141274;-0.09279778;0.6246537;0.7699611;5;26;1;188;4464;662;4;0.6326503;-0.5249307;0.3878116;0.4168975;5;64;-12;568;3794;198;16;0.5498615;-0.7306314;-0.2479224;-0.3199446;8;78;24;-517;4121;1344;2;0.5640709;-0.4709141;-0.4598338;-0.4986149;0;15;-1;-92;4262;516;8;0.632964;-0.7510272;0.09972299;0.1592798;13;5;0;-477;4305;1817;0.638052;2.779469;-0.08680394;0.64403;3.324241;-0.1152526;0.6492834;3.80299;-0.142279;0.6739198;4.453075;0.197198;0.4270281;4.769439;0.3142725;0.08015369;4.628946;0.3053814;-0.4307074;5.351447;0.03089371;-0.552437;6.242282;-0.268089;0.946999;4.749738;0.3142729;1.229898;4.585381;0.3053825;1.699146;5.375594;0.01617342;1.823837;6.285741;-0.2159334;0.3257937;2.737053;-0.09207556;0.2099692;1.294179;-0.3055179;0;0;0;0.3257937;2.737053;-0.09207556;0.2099692;1.294179;-0.3055179;0;0;0
109182.7834;NotLabelled;NONE;16384;0.8207969;0.5110803;0.2202216;0.1288089;0;-10;3;1888;-3244;1812;65536;0.8106292;0.5775623;-0.02077562;0.09418282;0;-6;-2;-499;-3875;-1136;8192;0.7714047;0.4778393;-0.4072022;0.1038781;-3;-16;7;-1006;-3420;2132;32768;0.7756901;0.5955678;-0.1842105;0.09833795;1;-16;-1;283;-3975;-1301;256;-0.05955679;0.06371191;-0.5124654;-0.8542675;0;15;-4;-66;3906;-1930;128;0.09418282;-0.09418282;0.6260388;0.7683324;9;22;2;72;4390;588;4;0.6355923;-0.5318559;0.3808864;0.4099723;14;81;-6;408;3946;88;16;0.5470914;-0.7255159;-0.2562327;-0.3296399;9;87;24;-397;4173;942;2;0.5629594;-0.4695291;-0.4626039;-0.4986149;-10;5;3;198;3970;94;8;0.634349;-0.7487774;0.101108;0.1634349;16;-28;-11;-553;4063;1417;0.6409032;2.782626;-0.0903046;0.6468807;3.327368;-0.1193116;0.6521338;3.806089;-0.1468286;0.6775001;4.455167;0.1945177;0.4309694;4.771485;0.3124737;0.08393012;4.631427;0.3031409;-0.4257623;5.355904;0.03170635;-0.5486166;6.24674;-0.2668162;0.9509166;4.751168;0.3124745;1.233622;4.586503;0.3031427;1.702727;5.375953;0.01162505;1.82494;6.286385;-0.2206804;0.3286448;2.740204;-0.0955292;0.2163082;1.295252;-0.2964119;0;0;0;0.3286448;2.740204;-0.0955292;0.2163082;1.295252;-0.2964119;0;0;0
109203.8289;NotLabelled;NONE;16384;0.821096;0.5110803;0.2174515;0.1315789;2;-8;3;2000;-3124;1784;65536;0.8092377;0.5789474;-0.0235457;0.09695291;1;-14;-3;-679;-3859;-984;8192;0.7704841;0.4778393;-0.4085872;0.1052632;-5;-16;7;-972;-3362;2016;32768;0.77485;0.5955678;-0.1869806;0.09972299;1;-15;-3;213;-3817;-1231;256;-0.06232687;0.06648199;-0.5138504;-0.853026;-6;14;-3;-176;3546;-1774;128;0.09833795;-0.09833795;0.6288089;0.765022;8;18;0;112;3854;476;4;0.6391678;-0.5387812;0.3739612;0.4016621;12;77;0;-60;4158;200;16;0.5457063;-0.71973;-0.2645429;-0.3379501;8;79;19;-65;4317;608;2;0.5606716;-0.4695291;-0.4653739;-0.4986149;-7;10;1;286;3786;-90;8;0.634349;-0.7474786;0.1038781;0.16759;17;-32;-16;-193;3867;861;0.6379231;2.784744;-0.0886406;0.6438992;3.329348;-0.120141;0.6491508;3.807938;-0.1498492;0.6727918;4.455996;0.1935511;0.4254268;4.771297;0.3124765;0.07875356;4.630371;0.302658;-0.4316553;5.354757;0.03233251;-0.5552972;6.245679;-0.265608;0.945425;4.752332;0.3124771;1.228558;4.588431;0.3026595;1.698605;5.378006;0.01300013;1.820266;6.287774;-0.2221686;0.3256645;2.742299;-0.09365516;0.220485;1.296115;-0.289481;0;0;0;0.3256645;2.742299;-0.09365516;0.220485;1.296115;-0.289481;0;0;0
109224.6913;NotLabelled;NONE;16384;0.8212386;0.5110803;0.2160665;0.132964;2;-7;5;2008;-3072;1854;65536;0.8090291;0.5789474;-0.02493075;0.09833795;1;-12;0;-633;-3865;-1052;8192;0.7688178;0.4778393;-0.4113573;0.1066482;-4;-13;6;-856;-3412;1902;32768;0.7743349;0.5955678;-0.1883656;0.101108;1;-11;-4;201;-3747;-1193;256;-0.06371191;0.06925207;-0.5152354;-0.851867;-5;13;-3;-300;3542;-1652;128;0.09972299;-0.101108;0.6301939;0.7633401;11;16;0;254;3900;552;4;0.642319;-0.5429363;0.368421;0.3961219;12;52;1;-136;4020;210;16;0.5443213;-0.7148989;-0.2714681;-0.3448753;7;64;15;125;4221;710;2;0.5606785;-0.468144;-0.466759;-0.4986149;-2;13;-1;-80;3728;-166;8;0.6357341;-0.7446437;0.1066482;0.1731302;18;-25;-15;-93;3857;491;0.6335953;2.78799;-0.0863663;0.6395682;3.332298;-0.1226152;0.6448168;3.810611;-0.1564963;0.6695173;4.459982;0.1843404;0.4226608;4.776134;0.302056;0.07576732;4.63571;0.2928437;-0.4356919;5.359925;0.02404882;-0.5601539;6.252066;-0.2698747;0.9426289;4.75636;0.3020568;1.225505;4.591982;0.2928454;1.693725;5.38208;0.001657188;1.81609;6.291909;-0.2329175;0.3213362;2.745502;-0.0909808;0.2198936;1.298203;-0.2804329;0;0;0;0.3213362;2.745502;-0.0909808;0.2198936;1.298203;-0.2804329;0;0;0
109244.7926;NotLabelled;NONE;16384;0.8213764;0.5110803;0.2146814;0.134349;4;-6;6;1948;-3006;1942;65536;0.8088157;0.5789474;-0.02631579;0.09972299;0;-13;2;-679;-3805;-1142;8192;0.7669392;0.4778393;-0.4141274;0.1094183;-5;-12;4;-1012;-3310;1988;32768;0.7739967;0.5955678;-0.1897507;0.101108;6;-4;-4;375;-3777;-1179;256;-0.06509695;0.07063711;-0.5166205;-0.8508091;-7;13;-4;-198;3580;-1642;128;0.101108;-0.1024931;0.6315789;0.7618271;13;13;1;232;3870;336;4;0.6429249;-0.5470914;0.365651;0.3919668;9;41;0;110;4160;310;16;0.5429363;-0.7111228;-0.2770083;-0.3504155;4;61;12;91;4137;1116;2;0.5594437;-0.468144;-0.466759;-0.5;-1;6;-1;-790;3454;208;8;0.6385041;-0.7414178;0.1080332;0.1759003;20;-17;-13;479;3321;401;0.6311866;2.7899;-0.08054461;0.6371577;3.334055;-0.1190363;0.6424047;3.812224;-0.1548882;0.6666161;4.462846;0.1835883;0.419515;4.779221;0.300191;0.072736;4.638478;0.2915359;-0.4398455;5.362611;0.02466594;-0.5655392;6.254843;-0.2684564;0.9394993;4.759874;0.3001916;1.22251;4.595697;0.2915371;1.691236;5.385922;0.001508892;1.812592;6.295926;-0.2329124;0.3189273;2.747395;-0.08496986;0.2194994;1.299801;-0.2732442;0;0;0;0.3189273;2.747395;-0.08496986;0.2194994;1.299801;-0.2732442;0;0;0
109265.6471;NotLabelled;NONE;16384;0.8223695;0.5096953;0.2132964;0.1357341;3;-5;6;1974;-2776;1880;65536;0.8084693;0.5789474;-0.02631579;0.1024931;0;-15;2;-685;-3663;-1180;8192;0.7667403;0.4778393;-0.4141274;0.1108033;-7;-14;2;-1056;-3218;2046;32768;0.7734735;0.5955678;-0.1911357;0.1024931;6;-5;-6;333;-3769;-1137;256;-0.06509695;0.0734072;-0.5180055;-0.8497317;-11;11;-5;-302;3600;-1632;128;0.1024931;-0.1038781;0.632964;0.7603033;12;13;2;372;3838;316;4;0.6450191;-0.5512465;0.3601108;0.3878116;0;19;0;612;4166;410;16;0.5373961;-0.7044975;-0.2867036;-0.3642659;2;59;9;367;4155;1362;2;0.5606785;-0.468144;-0.466759;-0.4986149;2;-13;0;-1048;2960;-60;8;0.6398892;-0.7398923;0.1080332;0.1772853;17;-14;-10;337;3139;281;0.6280091;2.792132;-0.08243596;0.6339785;3.336123;-0.1231715;0.6392239;3.81414;-0.160995;0.6638714;4.465966;0.1751281;0.4169759;4.782907;0.2906213;0.07011139;4.642342;0.2825207;-0.4430111;5.366396;0.01647718;-0.5692361;6.258721;-0.2761332;0.9369484;4.763248;0.2906221;1.219859;4.598872;0.2825221;1.688322;5.390152;-0.005040884;1.810828;6.300038;-0.2393162;0.3157496;2.749609;-0.08667181;0.219634;1.300892;-0.2678946;0;0;0;0.3157496;2.749609;-0.08667181;0.219634;1.300892;-0.2678946;0;0;0
109285.9106;NotLabelled;NONE;16384;0.8227275;0.5096953;0.2119114;0.1357341;1;-5;7;1896;-2540;1756;65536;0.808067;0.5789474;-0.02770083;0.1052632;-1;-15;4;-831;-3419;-1170;8192;0.7655848;0.4778393;-0.4155124;0.1135734;-10;-16;-1;-990;-3332;1964;32768;0.772061;0.5969529;-0.1925208;0.1024931;5;-9;-9;329;-3769;-1157;256;-0.06509695;0.07479224;-0.5193906;-0.848765;-12;11;-8;-532;3348;-1734;128;0.1024931;-0.1066482;0.634349;0.7587639;6;11;3;630;3660;610;4;0.6470309;-0.5526316;0.3573407;0.3850415;0;30;2;880;3814;218;16;0.534626;-0.7014357;-0.2922437;-0.3698061;2;48;8;379;3985;1176;2;0.5618662;-0.4722992;-0.4626039;-0.4972299;18;-11;2;-1180;3560;260;8;0.6412742;-0.7361623;0.1135734;0.1842105;0;-50;-5;-429;4845;653;0.633083;2.792257;-0.07609987;0.6390504;3.336075;-0.1190851;0.6442941;3.813931;-0.1588855;0.6668886;4.466932;0.1750942;0.4189906;4.783457;0.2895778;0.072578;4.641753;0.2819815;-0.4417648;5.364434;0.01456292;-0.5723934;6.256517;-0.2768499;0.9390236;4.765467;0.2895783;1.222459;4.601973;0.2819827;1.688165;5.394179;-0.007502079;1.810009;6.304242;-0.2414356;0.3208233;2.749716;-0.08014575;0.2303064;1.300537;-0.2605536;0;0;0;0.3208233;2.749716;-0.08014575;0.2303064;1.300537;-0.2605536;0;0;0
109306.6885;NotLabelled;NONE;16384;0.8240625;0.5083103;0.2091413;0.1371191;9;-9;4;2088;-3360;2544;65536;0.807326;0.5789474;-0.02770083;0.1108033;-2;-15;11;-431;-4137;-886;8192;0.7651687;0.4778393;-0.4155124;0.1163435;-9;-13;-9;-754;-3866;2224;32768;0.771365;0.5969529;-0.1952908;0.1024931;5;-9;-14;321;-4137;-1079;256;-0.06509695;0.07756232;-0.5221606;-0.8468145;-11;8;-10;-920;3178;-1728;128;0.1024931;-0.1080332;0.6357341;0.7574075;11;1;3;792;3602;794;4;0.6489478;-0.5540166;0.3531856;0.3836565;4;35;5;842;3890;-34;16;0.533241;-0.6991237;-0.2950138;-0.3739612;1;33;5;83;4257;1052;2;0.5605758;-0.4750692;-0.4598338;-0.4986149;19;-15;0;-1896;5762;1318;8;0.6398892;-0.7344992;0.1204986;0.1911357;-2;-58;-1;-2229;6651;769;0.6350982;2.792229;-0.073128;0.6410638;3.33589;-0.118062;0.646306;3.813601;-0.1595748;0.6678068;4.467724;0.1722734;0.4193704;4.784181;0.2857736;0.07320786;4.641841;0.2787046;-0.4407595;5.366162;0.01502964;-0.5730097;6.258218;-0.2757334;0.9394342;4.76711;0.2857333;1.223158;4.604094;0.2786156;1.686452;5.398786;-0.00791043;1.809739;6.30955;-0.238333;0.3228384;2.749675;-0.07700898;0.2318214;1.300668;-0.2585479;0;0;0;0.3228384;2.749675;-0.07700898;0.2318214;1.300668;-0.2585479;0;0;0
109326.6583;NotLabelled;NONE;16384;0.8245291;0.5083103;0.2063712;0.1385041;6;-7;2;2636;-3998;2546;65536;0.8079329;0.5775623;-0.02770083;0.1135734;-10;-5;17;-675;-5125;-1312;8192;0.764627;0.4792244;-0.4141274;0.1191136;-9;-9;-12;-640;-4420;2638;32768;0.7695835;0.5983379;-0.1980609;0.1024931;3;-5;-13;271;-4817;-1001;256;-0.06232687;0.08171745;-0.5180055;-0.8491807;33;0;-7;-202;4584;-2074;128;0.09972299;-0.1094183;0.6398892;0.7540721;24;3;4;66;4592;736;4;0.648896;-0.5567867;0.3504155;0.3822715;7;20;2;206;4062;56;16;0.5318559;-0.6976693;-0.299169;-0.3753462;0;31;4;-621;4425;448;2;0.5617159;-0.4778393;-0.4570637;-0.4972299;-2;-31;-2;-2356;6634;1560;8;0.6371191;-0.7351205;0.1246537;0.1952908;-6;-45;3;-1349;3561;323;0.6339042;2.791984;-0.06599452;0.639868;3.33548;-0.1128748;0.6451085;3.813038;-0.1560977;0.6643155;4.469383;0.1714792;0.4147658;4.785685;0.282949;0.06911173;4.64207;0.2768544;-0.4437088;5.364742;0.006503969;-0.5833347;6.256276;-0.2824076;0.9348872;4.770467;0.2829494;1.219189;4.60842;0.2768553;1.679021;5.403928;-0.01296496;1.805334;6.314443;-0.2427334;0.3216441;2.749415;-0.06971089;0.234033;1.300792;-0.2559219;0;0;0;0.3216441;2.749415;-0.06971089;0.234033;1.300792;-0.2559219;0;0;0
109347.6764;NotLabelled;NONE;16384;0.8245291;0.5083103;0.2063712;0.1385041;1;0;2;2630;-3458;2282;65536;0.8100374;0.5747922;-0.0235457;0.1135734;-12;15;25;-1091;-4447;-2008;8192;0.762621;0.4833795;-0.4113573;0.1246537;-24;-2;-16;-1152;-3678;1486;32768;0.7685021;0.5983379;-0.2022161;0.1024931;6;-20;-15;361;-3991;-1983;256;-0.06094183;0.08171745;-0.5138504;-0.8518017;23;-1;-1;-98;4792;-1794;128;0.101108;-0.1094183;0.6412742;0.7527099;8;5;0;-212;5180;980;4;0.6484525;-0.5581717;0.3490305;0.3822715;6;0;1;592;3786;-74;16;0.5304709;-0.6954302;-0.3033241;-0.3781163;-2;38;7;-501;4103;390;2;0.5664837;-0.4778393;-0.4556787;-0.4930748;-7;-27;-4;-1416;3058;194;8;0.634349;-0.7348165;0.1315789;0.200831;-10;-66;6;-229;4085;117;0.6230351;2.793272;-0.07011598;0.6289938;3.336292;-0.1222295;0.6342293;3.813412;-0.1700508;0.6480734;4.466456;0.1643223;0.3959578;4.779564;0.2789912;0.05147385;4.633239;0.2713024;-0.4601715;5.356526;0.0003696531;-0.6042378;6.246749;-0.2903935;0.9161849;4.768539;0.2789917;1.201785;4.60886;0.2713034;1.655301;5.40783;-0.01894569;1.784786;6.318887;-0.2447633;0.3107747;2.75067;-0.07338912;0.2291184;1.301402;-0.2572664;0;0;0;0.3107747;2.75067;-0.07338912;0.2291184;1.301402;-0.2572664;0;0;0
109367.6326;NotLabelled;NONE;16384;0.8253813;0.5069252;0.2063712;0.1385041;1;4;6;2252;-2982;2098;65536;0.8109652;0.5734072;-0.01800554;0.1149584;-4;20;30;-1305;-3811;-2018;8192;0.7621216;0.4861496;-0.4085872;0.1260388;-21;11;-18;-808;-3188;1384;32768;0.7672105;0.5983379;-0.2063712;0.1038781;15;-11;-18;329;-3455;-1705;256;-0.06094183;0.08171745;-0.5138504;-0.8518017;-3;2;1;-338;3672;-2382;128;0.09972299;-0.1094183;0.6398892;0.7540721;-9;-11;-2;64;4628;1114;4;0.6483784;-0.5581717;0.3476454;0.3836565;6;-3;6;938;3758;-104;16;0.5304709;-0.6919361;-0.3060942;-0.3822715;-5;25;6;915;3979;606;2;0.5687346;-0.4792244;-0.4529086;-0.4916897;0;-35;-4;-1490;3186;104;8;0.632964;-0.7329383;0.1398892;0.2063712;-8;-61;7;-191;4243;-85;0.6167502;2.794303;-0.0685341;0.6227065;3.337102;-0.1229042;0.6279398;3.814019;-0.1727082;0.6408323;4.463695;0.1681996;0.3882696;4.775295;0.2859489;0.04398594;4.62859;0.2767198;-0.4672556;5.351875;0.005024806;-0.6177282;6.239257;-0.2911364;0.9085113;4.764976;0.2859494;1.194329;4.605767;0.2767212;1.637434;5.412795;-0.007249117;1.773435;6.323434;-0.2309185;0.3044897;2.751688;-0.07161593;0.2279959;1.302063;-0.2549048;0;0;0;0.3044897;2.751688;-0.07161593;0.2279959;1.302063;-0.2549048;0;0;0
109388.6494;NotLabelled;NONE;16384;0.8257264;0.5069252;0.2049861;0.1385041;-2;1;10;1960;-2600;1994;65536;0.811827;0.5720221;-0.01385042;0.1163435;-2;-4;27;-1095;-3459;-1708;8192;0.7623355;0.4889196;-0.4044321;0.1274238;-22;25;-19;-846;-3064;1440;32768;0.764854;0.601108;-0.2077562;0.1024931;22;13;-19;329;-3185;-1419;256;-0.06094183;0.08171745;-0.5138504;-0.8518017;-24;-4;5;-394;2896;-2712;128;0.09833795;-0.1080332;0.6398892;0.7544536;-12;-15;-3;408;3636;830;4;0.647228;-0.5540166;0.3518005;0.3878116;-17;-47;1;-356;3872;764;16;0.533241;-0.69326;-0.2963989;-0.3836565;-5;-46;-1;1365;3873;1234;2;0.5773315;-0.4889196;-0.4404432;-0.4833795;20;-64;2;-58;3526;44;8;0.6288089;-0.7313518;0.1537396;0.2146814;-1;-36;5;-665;4023;271;0.6143968;2.795283;-0.05628751;0.6203554;3.338303;-0.1084011;0.625591;3.815423;-0.1562224;0.6384834;4.465099;0.1846858;0.3859209;4.7767;0.3024352;0.04163719;4.629994;0.2932061;-0.4701206;5.351963;0.01899196;-0.6307706;6.237079;-0.278593;0.9061625;4.766379;0.3024358;1.19198;4.607171;0.2932073;1.628938;5.418252;0.01126772;1.769482;6.328775;-0.210052;0.3021363;2.752681;-0.05956073;0.229936;1.303317;-0.2466182;0;0;0;0.3021363;2.752681;-0.05956073;0.229936;1.303317;-0.2466182;0;0;0
109408.6376;NotLabelled;NONE;16384;0.8263001;0.5069252;0.2036011;0.1371191;-7;2;13;1882;-2626;1788;65536;0.8120113;0.5706371;-0.01246537;0.1218837;4;-24;26;-989;-3147;-1862;8192;0.7620826;0.4930748;-0.400277;0.1260388;-22;21;-17;-722;-3026;1470;32768;0.7632157;0.6038781;-0.2077562;0.09833795;26;19;-17;377;-3263;-1047;256;-0.05955679;0.08033241;-0.5180055;-0.8495116;-31;-12;5;-276;2526;-2152;128;0.09556787;-0.1066482;0.6371191;0.7573455;-15;-20;-1;408;3040;850;4;0.6448689;-0.5484765;0.3601108;0.3919668;-19;-74;-6;-288;4016;770;16;0.5373961;-0.6960161;-0.2894737;-0.3781163;1;-66;-1;197;4229;1360;2;0.5781832;-0.4944598;-0.4376731;-0.4792244;15;-33;8;690;4044;592;8;0.6301939;-0.7301586;0.1537396;0.2146814;4;31;4;-2217;4133;1159;0.6373851;2.792689;-0.04333006;0.6433441;3.335737;-0.09514194;0.64858;3.812885;-0.1426981;0.6614702;4.46237;0.1985711;0.4089071;4.773906;0.316492;0.0646234;4.627205;0.3071794;-0.4453888;5.350007;0.03190926;-0.6141015;6.233226;-0.2668495;0.9291486;4.763585;0.3164898;1.214966;4.604383;0.3071747;1.643927;5.419987;0.02600402;1.788038;6.331699;-0.188005;0.3251247;2.750088;-0.04662881;0.2473797;1.301638;-0.2384727;0;0;0;0.3251247;2.750088;-0.04662881;0.2473797;1.301638;-0.2384727;0;0;0
109429.8293;NotLabelled;NONE;16384;0.8252745;0.5096953;0.2036011;0.132964;-10;14;4;1028;-2782;2016;65536;0.8095577;0.5720221;-0.009695291;0.1315789;13;-10;16;-553;-3229;-1574;8192;0.7613233;0.4972299;-0.3961219;0.1274238;-19;14;-9;-232;-3280;1472;32768;0.7600875;0.6080332;-0.2077562;0.09695291;28;11;-12;197;-3437;-841;256;-0.0567867;0.07479224;-0.5249307;-0.8459487;-6;-15;7;-70;3024;-1514;128;0.0900277;-0.101108;0.634349;0.7611002;-16;-23;-2;-32;3232;1142;4;0.6406652;-0.5429363;0.3698061;0.3975069;-15;-81;-15;322;4648;500;16;0.5415512;-0.6986241;-0.2825485;-0.3725762;7;-69;-5;-641;4259;2110;2;0.5770456;-0.4972299;-0.4390582;-0.4764543;-3;8;21;978;4626;808;8;0.632964;-0.7322483;0.1454294;0.2049861;10;107;7;-1507;4353;1671;0.6495973;2.792437;-0.04449759;0.6555607;3.335895;-0.09182093;0.6608006;3.813418;-0.1354332;0.6725303;4.466259;0.1994144;0.4194028;4.778468;0.3143067;0.07539362;4.631037;0.3065064;-0.4306704;5.355103;0.02729934;-0.6065295;6.236049;-0.2740368;0.9396629;4.769124;0.3143072;1.225777;4.610373;0.3065075;1.650157;5.429623;0.029006;1.799823;6.341721;-0.1794785;0.3373373;2.749865;-0.04817642;0.2475782;1.301777;-0.2375031;0;0;0;0.3373373;2.749865;-0.04817642;0.2475782;1.301777;-0.2375031;0;0;0
109450.6805;NotLabelled;NONE;16384;0.825716;0.5096953;0.2036011;0.1301939;-13;16;-5;1006;-3232;2014;65536;0.8093314;0.5720221;-0.009695291;0.132964;12;-3;11;221;-3591;-1726;8192;0.758884;0.5027701;-0.3933518;0.1288089;-14;9;11;-130;-3646;1540;32768;0.754123;0.6163435;-0.2049861;0.09695291;24;9;8;-317;-3795;-333;256;-0.05540166;0.0734072;-0.5235457;-0.8470194;20;-15;7;-2;3444;-1678;128;0.08725762;-0.09833795;0.632964;0.7629367;-12;-24;-3;-166;3688;1058;4;0.6367185;-0.5387812;0.3781163;0.4016621;-14;-59;-24;774;4120;424;16;0.5457063;-0.7018089;-0.2756233;-0.365651;10;-66;-4;-459;4045;2330;2;0.572788;-0.4972299;-0.4445983;-0.4764543;-17;41;39;738;4386;416;8;0.6385041;-0.7328258;0.132964;0.1939058;12;104;5;1241;4481;1299;0.6599742;2.792707;-0.04397216;0.6659423;3.33658;-0.0862704;0.6711864;3.814486;-0.1254672;0.6827396;4.472428;0.1992498;0.4295154;4.786272;0.3093747;0.08556436;4.638598;0.3039488;-0.4125285;5.367507;0.02301533;-0.5990157;6.247464;-0.2748036;0.9497793;4.777139;0.309375;1.235957;4.618404;0.3039497;1.655142;5.443111;0.03484875;1.808726;6.357069;-0.1623335;0.3477145;2.750172;-0.04807589;0.2497429;1.302102;-0.2334235;0;0;0;0.3477145;2.750172;-0.04807589;0.2497429;1.302102;-0.2334235;0;0;0
109470.6385;NotLabelled;NONE;16384;0.8246036;0.5110803;0.2063712;0.1274238;-14;20;-16;878;-3470;1934;65536;0.8085773;0.5734072;-0.009695291;0.1315789;11;2;2;63;-3821;-1602;8192;0.7574785;0.5041551;-0.3947368;0.1274238;-11;0;16;-722;-3526;1652;32768;0.7522382;0.6191136;-0.2022161;0.09972299;20;1;10;-225;-3765;-77;256;-0.05401662;0.07063711;-0.5193906;-0.8498977;34;-10;7;62;3606;-1762;128;0.08587258;-0.09695291;0.6315789;0.7644175;-14;-18;-4;-142;4042;1268;4;0.6336924;-0.5373961;0.3836565;0.4030471;-9;-26;-34;988;3756;174;16;0.5512465;-0.7032057;-0.2700831;-0.3587258;12;-61;0;-33;3891;2270;2;0.5673449;-0.4972299;-0.4515235;-0.4764543;-1;23;36;-856;3792;-1142;8;0.6412742;-0.7328362;0.1274238;0.1883656;13;25;0;1727;4321;1417;0.665454;2.793349;-0.05015139;0.671424;3.337408;-0.08996434;0.6766702;3.815489;-0.1269772;0.6878301;4.47227;0.200096;0.4344212;4.785573;0.3113287;0.09055446;4.637725;0.3053519;-0.4040265;5.368096;0.02202093;-0.5908417;6.247832;-0.2762419;0.9546902;4.776735;0.3113294;1.240958;4.618183;0.3053532;1.653914;5.449069;0.04579616;1.803679;6.367521;-0.1325346;0.3531945;2.750832;-0.05446518;0.2475221;1.30251;-0.2335067;0;0;0;0.3531945;2.750832;-0.05446518;0.2475221;1.30251;-0.2335067;0;0;0
109513.2147;NotLabelled;NONE;16384;0.8229047;0.5124654;0.2105263;0.1260388;-15;13;-28;1174;-3376;1822;65536;0.8080397;0.5747922;-0.009695291;0.1288089;9;16;-6;-471;-3721;-1480;8192;0.7558305;0.5055401;-0.3961219;0.1274238;-5;-5;17;-1166;-3508;1588;32768;0.7499486;0.6218836;-0.200831;0.1024931;14;-5;6;3;-3835;53;256;-0.05401662;0.06925207;-0.5152354;-0.8525367;35;-4;5;134;3660;-1864;128;0.08448754;-0.09418282;0.6288089;0.7671968;-19;-10;-4;-122;4076;994;4;0.6314544;-0.5401662;0.3891967;0.3975069;-2;23;-33;926;3606;462;16;0.5581717;-0.7043832;-0.2617728;-0.3518005;17;-16;8;-379;3871;1158;2;0.5634073;-0.5055401;-0.4501385;-0.4736842;9;-27;19;-116;4146;390;8;0.6454294;-0.7313006;0.1232687;0.1828255;10;30;0;-319;4083;-237;0.6636546;2.79611;-0.05257641;0.6696265;3.340327;-0.09018376;0.6748741;3.818552;-0.1252585;0.6869264;4.471994;0.2084065;0.4339519;4.78453;0.3227417;0.08987197;4.637249;0.3152191;-0.4035912;5.369078;0.03370578;-0.5868744;6.250094;-0.2629671;0.9542075;4.774937;0.3227425;1.240246;4.616037;0.3152211;1.657594;5.446876;0.06262976;1.800935;6.367629;-0.1089901;0.3513953;2.753611;-0.05707631;0.241982;1.304562;-0.2277915;0;0;0;0.3513953;2.753611;-0.05707631;0.241982;1.304562;-0.2277915;0;0;0
109533.6625;NotLabelled;NONE;16384;0.8218305;0.5124654;0.2146814;0.1260388;-17;15;-33;1840;-3218;1804;65536;0.8075054;0.5761772;-0.008310249;0.1260388;11;28;-9;-941;-3785;-1182;8192;0.7534422;0.5069252;-0.398892;0.1274238;-1;-11;15;-1404;-3626;1632;32768;0.7489772;0.6232687;-0.199446;0.1038781;9;-6;3;485;-3905;71;256;-0.05401662;0.06925207;-0.5096953;-0.8558605;30;1;4;228;3626;-1944;128;0.08310249;-0.09418282;0.6260388;0.7696096;-19;-4;-4;-98;3974;614;4;0.6322074;-0.5443213;0.3891967;0.3905817;0;40;-27;642;3686;616;16;0.5595568;-0.7032834;-0.2617728;-0.3518005;16;0;9;-29;3999;986;2;0.5644839;-0.5069252;-0.4501385;-0.4709141;1;-1;11;176;4000;-4;8;0.6481994;-0.7294253;0.1218837;0.1814404;6;7;0;97;4147;-169;0.6699304;2.799872;-0.06648359;0.6759052;3.344359;-0.09995371;0.6811555;3.822838;-0.1313928;0.6946432;4.472982;0.2085979;0.4423649;4.784975;0.3259144;0.09794891;4.638567;0.3169021;-0.3984341;5.370459;0.04073735;-0.5778397;6.25296;-0.2538813;0.962597;4.774186;0.3259151;1.248271;4.614708;0.3169034;1.667499;5.44631;0.07000166;1.805678;6.369106;-0.09473741;0.3576715;2.757409;-0.07133235;0.2393615;1.306536;-0.2190796;0;0;0;0.3576715;2.757409;-0.07133235;0.2393615;1.306536;-0.2190796;0;0;0
109554.6531;NotLabelled;NONE;16384;0.8165874;0.5152354;0.2299169;0.1218837;-13;18;-11;2376;-3818;1846;65536;0.8048152;0.5817174;-0.004155125;0.1177285;11;4;-4;-1245;-4631;-640;8192;0.7516502;0.5055401;-0.4044321;0.1260388;8;-16;13;-1592;-3818;1930;32768;0.7454998;0.6274238;-0.199446;0.1038781;1;0;3;1059;-4289;-153;256;-0.05540166;0.06925207;-0.5027701;-0.8598588;6;4;2;250;4216;-1880;128;0.08725762;-0.09418282;0.6260388;0.7691496;7;14;0;-358;4284;-64;4;0.6351137;-0.5526316;0.3850415;0.3781163;3;45;-18;122;3972;386;16;0.5650969;-0.6988396;-0.2617728;-0.3518005;12;1;5;363;4065;608;2;0.5599801;-0.5069252;-0.4542936;-0.4722992;-4;20;0;80;4202;168;8;0.6495845;-0.7285358;0.1218837;0.1800554;2;3;1;-401;4267;535;0.6733347;2.801794;-0.07584374;0.6793122;3.346518;-0.1051936;0.6845651;3.825222;-0.1330118;0.6986881;4.47092;0.2153224;0.4467278;4.781662;0.3365776;0.10215;4.635771;0.3255894;-0.3994695;5.365672;0.05364947;-0.5777697;6.249329;-0.2381623;0.9669474;4.770287;0.3365784;1.252444;4.610616;0.3255911;1.674732;5.442587;0.08523464;1.809142;6.36646;-0.07656518;0.3610763;2.759369;-0.08103946;0.2381281;1.307506;-0.2145915;0;0;0;0.3610763;2.759369;-0.08103946;0.2381281;1.307506;-0.2145915;0;0;0
109594.6494;NotLabelled;NONE;16384;0.815132;0.5166205;0.232687;0.1204986;-10;19;-6;2236;-3858;1722;65536;0.804014;0.5831025;-0.004155125;0.1163435;10;1;-5;-1243;-4543;-550;8192;0.7521209;0.5;-0.4099723;0.1274238;15;-20;5;-1310;-3994;1846;32768;0.7451279;0.6274238;-0.200831;0.1038781;-10;-3;3;845;-4375;-175;256;-0.05540166;0.06925207;-0.5027701;-0.8598588;-2;8;2;94;4310;-2022;128;0.0900277;-0.09556787;0.6274238;0.7675292;8;13;-3;-266;4542;298;4;0.6347829;-0.5567867;0.3836565;0.3739612;2;33;-12;-32;4032;92;16;0.566482;-0.6971961;-0.2631579;-0.3518005;8;10;4;131;4095;538;2;0.5578039;-0.5055401;-0.4570637;-0.4736842;-5;25;1;-96;3970;-42;8;0.6495845;-0.7285358;0.1218837;0.1800554;0;10;0;-159;4117;507;0.6713122;2.806811;-0.07650849;0.6772891;3.351493;-0.1066366;0.6825415;3.830156;-0.1351388;0.6989592;4.470246;0.2232976;0.4481237;4.779996;0.3493312;0.1030026;4.635597;0.335935;-0.4131998;5.362923;0.08521558;-0.5883174;6.251037;-0.1947581;0.9682966;4.766658;0.349332;1.253194;4.606102;0.3359366;1.68444;5.434577;0.09944057;1.818274;6.360213;-0.0524568;0.3590537;2.764379;-0.08163878;0.2328077;1.311236;-0.1969496;0;0;0;0.3590537;2.764379;-0.08163878;0.2328077;1.311236;-0.1969496;0;0;0
109615.6401;NotLabelled;NONE;16384;0.8147413;0.5166205;0.2354571;0.1177285;-6;19;-5;2040;-3756;1804;65536;0.8029993;0.5844875;-0.005540166;0.1163435;6;1;-8;-951;-4447;-412;8192;0.7524422;0.4972299;-0.4127424;0.1274238;18;-17;4;-1454;-4002;1706;32768;0.7466633;0.6260388;-0.199446;0.1038781;-16;3;2;531;-4413;-9;256;-0.05817174;0.06925207;-0.5041551;-0.8588642;-12;10;2;-4;4208;-2098;128;0.09279778;-0.09695291;0.6288089;0.7658904;5;7;-4;8;4560;282;4;0.6360267;-0.5581717;0.3822715;0.3711911;1;13;-5;-88;4124;264;16;0.566482;-0.6959706;-0.2645429;-0.3531856;3;19;3;277;4075;576;2;0.554477;-0.5027701;-0.4598338;-0.4778393;0;13;0;-502;4164;-186;8;0.6509695;-0.7278706;0.1204986;0.1786704;0;4;-1;-225;4139;315;0.6649011;2.809231;-0.0818269;0.6708765;3.353771;-0.1144269;0.6761275;3.832299;-0.1451013;0.692545;4.47239;0.2133352;0.4417094;4.782139;0.3393691;0.09658827;4.637741;0.3259726;-0.4212345;5.365742;0.08061089;-0.5946209;6.255071;-0.1965645;0.9618824;4.768801;0.3393699;1.24678;4.608244;0.3259743;1.685973;5.43155;0.08607757;1.821777;6.357018;-0.0651018;0.3526423;2.766775;-0.08674899;0.2289718;1.312647;-0.1919814;0;0;0;0.3526423;2.766775;-0.08674899;0.2289718;1.312647;-0.1919814;0;0;0
109636.6567;NotLabelled;NONE;16384;0.8154155;0.5152354;0.2368421;0.1163435;-4;22;-5;2082;-3614;1774;65536;0.803188;0.5844875;-0.006925208;0.1149584;-1;2;-10;-837;-4473;-164;8192;0.7541777;0.4930748;-0.4141274;0.1288089;23;-22;3;-1352;-4038;1618;32768;0.7468547;0.6260388;-0.199446;0.1024931;-20;4;1;529;-4391;11;256;-0.05955679;0.06925207;-0.5069252;-0.8571371;-26;12;3;-92;4206;-1976;128;0.09279778;-0.09695291;0.6288089;0.7658904;-1;4;-4;136;4462;420;4;0.6351922;-0.5581717;0.3836565;0.3711911;-2;-17;2;-108;4212;298;16;0.566482;-0.6947374;-0.265928;-0.3545706;-1;-4;-2;267;4087;796;2;0.5545358;-0.501385;-0.4598338;-0.4792244;0;8;-3;-408;4150;-70;8;0.6509695;-0.7284371;0.1191136;0.1772853;0;9;0;-273;4257;421;0.6659974;2.809672;-0.0820604;0.6719711;3.354057;-0.1171508;0.6772205;3.832441;-0.1500137;0.6965327;4.473825;0.2059578;0.4470951;4.785171;0.3308247;0.101332;4.642262;0.3180177;-0.4181064;5.370479;0.076745;-0.5899747;6.261101;-0.197209;0.9672035;4.769515;0.3308254;1.25138;4.60764;0.3180193;1.694594;5.427898;0.07509428;1.828106;6.352958;-0.08055082;0.3537384;2.767195;-0.08677263;0.2282183;1.313076;-0.189932;0;0;0;0.3537384;2.767195;-0.08677263;0.2282183;1.313076;-0.189932;0;0;0
109656.8579;NotLabelled;NONE;16384;0.8156201;0.5138504;0.2423823;0.1094183;5;32;-2;1870;-3384;1604;65536;0.8027627;0.5858725;-0.006925208;0.1108033;-15;19;-10;-807;-4065;106;8192;0.7542197;0.4903047;-0.4168975;0.1301939;28;-24;1;-1196;-3814;1556;32768;0.7480136;0.6246537;-0.199446;0.1024931;-23;0;0;651;-4225;-17;256;-0.06094183;0.06925207;-0.5110803;-0.8545684;-39;7;4;2;4070;-1922;128;0.09418282;-0.09695291;0.6288089;0.7657213;-1;5;-2;46;4394;234;4;0.6347587;-0.5567867;0.3850415;0.3725762;-3;-17;3;-254;3950;320;16;0.566482;-0.695266;-0.2645429;-0.3545706;-2;-12;-1;89;4119;1018;2;0.5545358;-0.501385;-0.4598338;-0.4792244;-2;3;-5;-28;4146;14;8;0.6509695;-0.7287728;0.1191136;0.1759003;0;5;-2;-219;4323;637;0.6667127;2.810242;-0.0832263;0.6726863;3.354626;-0.1183167;0.6779358;3.83301;-0.1511796;0.6984727;4.476741;0.2004598;0.4496197;4.789368;0.3232774;0.1035988;4.646995;0.3115036;-0.4172364;5.374069;0.06979427;-0.5859309;6.265189;-0.2045183;0.969699;4.77278;0.3232778;1.253583;4.610314;0.3115044;1.698429;5.427619;0.06170779;1.833392;6.352382;-0.09444806;0.3544537;2.767764;-0.08793849;0.2277186;1.313504;-0.1875583;0;0;0;0.3544537;2.767764;-0.08793849;0.2277186;1.313504;-0.1875583;0;0;0
109676.6376;NotLabelled;NONE;16384;0.817313;0.5110803;0.2437673;0.1066482;14;30;0;1740;-3374;1520;65536;0.8041356;0.5844875;-0.008310249;0.1080332;-22;15;-12;-721;-4021;198;8192;0.7553723;0.4861496;-0.4196676;0.1301939;31;-24;0;-1232;-3662;1518;32768;0.750506;0.6218836;-0.199446;0.101108;-26;-4;0;587;-4023;-147;256;-0.06371191;0.06786703;-0.5235457;-0.8468971;-53;4;6;-66;3702;-1868;128;0.09556787;-0.09833795;0.6288089;0.765373;-1;7;-2;-28;4182;384;4;0.6331004;-0.5567867;0.3864266;0.3739612;0;-12;2;-222;3946;364;16;0.566482;-0.6964955;-0.2631579;-0.3531856;0;-9;-2;43;4021;1354;2;0.5545877;-0.5;-0.4598338;-0.4806094;-3;12;-6;160;4230;96;8;0.6509695;-0.7289978;0.1177285;0.1759003;0;4;-2;-303;4205;757;0.670712;2.809512;-0.08314722;0.6766855;3.353878;-0.11852;0.6819347;3.832244;-0.1516311;0.7035443;4.479418;0.1935688;0.4551964;4.793622;0.3133438;0.1089605;4.651655;0.3030992;-0.4133962;5.378744;0.06474323;-0.577737;6.271444;-0.2070579;0.9752507;4.776262;0.3133444;1.258889;4.613264;0.3031006;1.706584;5.428367;0.05120838;1.8414;6.352542;-0.1085183;0.3584529;2.767032;-0.08783561;0.2299941;1.312988;-0.188393;0;0;0;0.3584529;2.767032;-0.08783561;0.2299941;1.312988;-0.188393;0;0;0
109697.6481;NotLabelled;NONE;16384;0.8189813;0.5083103;0.2451524;0.1038781;18;27;3;1912;-3194;1568;65536;0.8043205;0.5844875;-0.008310249;0.1066482;-30;10;-13;-739;-3941;178;8192;0.7592201;0.4764543;-0.4238227;0.1301939;36;-18;-5;-1032;-3384;1742;32768;0.7541141;0.6177285;-0.199446;0.09972299;-36;4;2;783;-3865;-181;256;-0.06509695;0.06648199;-0.5304709;-0.8425813;-53;2;6;-114;3538;-1814;128;0.09695291;-0.09833795;0.6301939;0.7640585;11;4;-3;64;4044;646;4;0.6334699;-0.5554016;0.3878116;0.3739612;-2;-6;1;14;3982;308;16;0.566482;-0.6971961;-0.2631579;-0.3518005;1;-3;0;57;3929;1458;2;0.5523243;-0.4986149;-0.4626039;-0.4819945;-5;23;-6;356;4128;234;8;0.6509695;-0.7292202;0.1163435;0.1759003;0;16;-3;-325;4185;533;0.6687154;2.809461;-0.08905936;0.6746886;3.353808;-0.1247234;0.6799377;3.832157;-0.1580905;0.704169;4.489222;0.1677044;0.4570434;4.807714;0.2783361;0.1103064;4.666716;0.2726583;-0.412713;5.392189;0.030857;-0.5724946;6.284549;-0.2447494;0.977034;4.78854;0.2783365;1.260094;4.624319;0.2726591;1.71281;5.43513;0.01593107;1.849329;6.357791;-0.1509371;0.3564564;2.766979;-0.09372313;0.2299936;1.31256;-0.1913549;0;0;0;0.3564564;2.766979;-0.09372313;0.2299936;1.31256;-0.1913549;0;0;0
109718.638;NotLabelled;NONE;16384;0.8207946;0.5055401;0.2465374;0.09972299;23;29;9;1836;-3112;1650;65536;0.8064927;0.5817174;-0.009695291;0.1052632;-37;8;-10;-829;-3805;72;8192;0.7618975;0.4709141;-0.4252077;0.1301939;39;-17;-8;-1066;-3294;1810;32768;0.7578583;0.6135734;-0.199446;0.09695291;-41;2;3;781;-3711;-155;256;-0.06648199;0.06648199;-0.5373961;-0.8380726;-50;3;6;-122;3440;-1740;128;0.09695291;-0.09833795;0.6315789;0.7629141;15;0;-3;60;3916;858;4;0.6334699;-0.5554016;0.3878116;0.3739612;-1;11;3;24;4094;392;16;0.566482;-0.6964955;-0.2631579;-0.3531856;2;0;2;91;4071;1428;2;0.5512797;-0.4958449;-0.4653739;-0.4833795;-7;31;-5;338;4066;170;8;0.6523545;-0.729082;0.1135734;0.1731302;0;25;-2;-169;4179;389;0.6710542;2.809117;-0.09079301;0.6770257;3.353314;-0.1286824;0.6822732;3.831522;-0.164005;0.70827;4.493839;0.1508327;0.4619647;4.814694;0.2563476;0.1148989;4.674427;0.2532606;-0.4083205;5.399257;0.009966418;-0.5664673;6.2918;-0.2659904;0.9819097;4.794317;0.2562882;1.264586;4.629369;0.2531291;1.72693;5.431674;-0.01298881;1.865472;6.352125;-0.1900812;0.3587948;2.766616;-0.09526916;0.2277005;1.312647;-0.1934876;0;0;0;0.3587948;2.766616;-0.09526916;0.2277005;1.312647;-0.1934876;0;0;0
109739.6483;NotLabelled;NONE;16384;0.8236701;0.501385;0.2465374;0.09695291;29;28;13;1678;-3030;1620;65536;0.8088216;0.5789474;-0.01108033;0.1024931;-43;7;-11;-629;-3705;-52;8192;0.7645229;0.4653739;-0.4265928;0.1301939;40;-23;-10;-1034;-3166;1784;32768;0.7610145;0.6094183;-0.200831;0.09556787;-46;0;5;783;-3515;-401;256;-0.06648199;0.06509695;-0.5429363;-0.8346034;-45;0;5;-192;3382;-1708;128;0.09695291;-0.09695291;0.634349;0.7607901;25;-7;-3;160;3890;738;4;0.6347285;-0.5567867;0.3864266;0.3711911;-7;-6;3;-482;4116;42;16;0.566482;-0.6977174;-0.2617728;-0.3518005;4;-5;5;-63;3865;1014;2;0.5454286;-0.4889196;-0.4722992;-0.4903047;-5;47;-9;98;4184;-104;8;0.6551247;-0.7291399;0.1052632;0.16759;2;39;-3;-85;4257;461;0.6732728;2.809045;-0.08934033;0.679243;3.353103;-0.1291667;0.684489;3.831183;-0.1661915;0.7111956;4.498643;0.1375298;0.4652083;4.821417;0.2378056;0.1180275;4.681401;0.237248;-0.4049606;5.404355;-0.01205178;-0.5605257;6.295325;-0.2944846;0.9851363;4.800617;0.2378063;1.267677;4.635406;0.2372493;1.733528;5.431254;-0.04182947;1.875321;6.349073;-0.2296828;0.3610135;2.766529;-0.09365293;0.2297512;1.312559;-0.1916466;0;0;0;0.3610135;2.766529;-0.09365293;0.2297512;1.312559;-0.1916466;0;0;0
109760.6261;NotLabelled;NONE;16384;0.8307871;0.4916897;0.2437673;0.09279778;35;18;16;1632;-2962;1760;65536;0.817706;0.566482;-0.01523546;0.101108;-56;1;-6;-389;-3541;-664;8192;0.7684597;0.4584487;-0.4265928;0.1315789;40;-21;-13;-640;-3268;1900;32768;0.7654182;0.6038781;-0.200831;0.09556787;-47;-4;6;519;-3487;-877;256;-0.06786703;0.06371191;-0.5484765;-0.8309684;-37;-2;6;-154;3418;-1674;128;0.09695291;-0.09556787;0.6371191;0.7586476;22;-5;-4;228;3658;1060;4;0.6326199;-0.5554016;0.3891967;0.3739612;-8;-38;6;-626;4308;-130;16;0.567867;-0.6976252;-0.2590028;-0.3518005;2;-12;5;179;4123;1114;2;0.5442333;-0.4847645;-0.4750692;-0.4930748;-5;45;-8;-74;4208;-42;8;0.6565097;-0.7294253;0.101108;0.1634349;4;42;-4;-307;4219;677;0.6752264;2.808615;-0.09331058;0.6811933;3.352376;-0.1370146;0.6864363;3.830179;-0.1774466;0.7135056;4.501554;0.1174873;0.4676692;4.82569;0.2136538;0.1204459;4.685786;0.2151134;-0.4014607;5.406353;-0.04320125;-0.5518715;6.295862;-0.3329364;0.9875908;4.80473;0.2136539;1.270081;4.639441;0.2151137;1.740564;5.429821;-0.07162413;1.886654;6.345045;-0.2686261;0.3629667;2.766069;-0.0972955;0.2303329;1.31213;-0.1938781;0;0;0;0.3629667;2.766069;-0.0972955;0.2303329;1.31213;-0.1938781;0;0;0
109780.627;NotLabelled;NONE;16384;0.83394;0.4875346;0.2423823;0.0900277;36;21;15;1612;-3086;1842;65536;0.8226027;0.5595568;-0.0166205;0.09972299;-56;1;-5;-225;-3545;-1120;8192;0.7717379;0.4529086;-0.4265928;0.1315789;40;-12;-12;-522;-3304;2122;32768;0.7710018;0.5969529;-0.200831;0.09418282;-48;-3;7;329;-3645;-1161;256;-0.06786703;0.06371191;-0.5512465;-0.8291334;-30;-3;5;-124;3476;-1764;128;0.09695291;-0.09556787;0.6398892;0.7563126;23;-3;-3;114;3710;822;4;0.6295148;-0.5512465;0.3947368;0.3795014;-14;-69;8;-544;4110;354;16;0.5692521;-0.6977063;-0.2576177;-0.3504155;1;-15;3;295;4131;1106;2;0.5417071;-0.4806094;-0.4778393;-0.4972299;-6;42;-5;-288;4048;26;8;0.6578947;-0.7298433;0.09556787;0.1592798;5;38;-5;-191;4203;757;0.6785884;2.808644;-0.09157103;0.6845517;3.352078;-0.1391624;0.6897914;3.82958;-0.1830102;0.7187874;4.50481;0.1028003;0.4738552;4.83086;0.1947073;0.1262681;4.6919;0.1982485;-0.3926828;5.406518;-0.08164546;-0.5374324;6.287223;-0.399767;0.9937202;4.80854;0.1947075;1.275778;4.642543;0.1982491;1.747933;5.427304;-0.1009088;1.89446;6.339577;-0.3108491;0.3663283;2.76607;-0.09522718;0.2343144;1.311967;-0.1901727;0;0;0;0.3663283;2.76607;-0.09522718;0.2343144;1.311967;-0.1901727;0;0;0
109801.6679;NotLabelled;NONE;16384;0.8377017;0.4819945;0.2409972;0.08864266;36;17;11;1310;-3190;1940;65536;0.8272108;0.5526316;-0.01939058;0.09972299;-56;0;-6;-275;-3541;-1462;8192;0.7773465;0.4432133;-0.4265928;0.1315789;32;-13;-9;-728;-3362;2234;32768;0.780494;0.5844875;-0.200831;0.09418282;-44;-2;8;77;-3739;-2023;256;-0.06648199;0.06094183;-0.5567867;-0.825745;-23;-3;5;-154;3792;-1704;128;0.09556787;-0.09279778;0.6440443;0.753301;23;-4;-2;154;3916;722;4;0.6277937;-0.5443213;0.4016621;0.3850415;-12;-70;4;330;3904;678;16;0.5692521;-0.6987229;-0.2548476;-0.3504155;1;-20;2;307;4109;1282;2;0.5378636;-0.4778393;-0.4806094;-0.501385;-3;34;-3;-534;3920;28;8;0.6592798;-0.7294266;0.09141274;0.1578947;6;27;-6;-425;4105;751;0.6798994;2.808883;-0.08978796;0.6858588;3.351963;-0.1412803;0.6910948;3.829137;-0.1885557;0.7197634;4.506259;0.09277272;0.4746603;4.832764;0.1825901;0.1271582;4.693622;0.1871494;-0.3895502;5.406168;-0.1020182;-0.5319864;6.281557;-0.4354916;0.9945387;4.810756;0.1825902;1.276698;4.644958;0.1871497;1.751076;5.424344;-0.1223606;1.899591;6.332361;-0.3487143;0.3676391;2.766285;-0.09311385;0.2332352;1.31242;-0.1883633;0;0;0;0.3676391;2.766285;-0.09311385;0.2332352;1.31242;-0.1883633;0;0;0
109821.6742;NotLabelled;NONE;16384;0.8406198;0.4778393;0.2396122;0.08725762;37;14;10;1380;-3074;2004;65536;0.8319271;0.5457063;-0.02077562;0.09833795;-52;0;-6;-171;-3367;-1804;8192;0.7804792;0.4376731;-0.4265928;0.1315789;30;-10;-7;-474;-3282;2416;32768;0.7856324;0.5775623;-0.200831;0.09418282;-35;-2;10;181;-3577;-2257;256;-0.06648199;0.06094183;-0.5609418;-0.822928;-27;-5;4;-90;3814;-1798;128;0.09695291;-0.09279778;0.6468144;0.7507462;23;0;-2;144;4024;796;4;0.6264768;-0.5387812;0.4058172;0.3905817;-10;-49;0;1202;3694;760;16;0.5706371;-0.6992911;-0.2520775;-0.3490305;3;-17;1;295;4031;1308;2;0.5377851;-0.4750692;-0.4819945;-0.5027701;-4;21;-3;-924;3864;364;8;0.6606648;-0.7288136;0.08864266;0.1565097;5;18;-6;-553;4137;561;0.6960803;2.806564;-0.08470918;0.7020335;3.349085;-0.141775;0.7072641;3.82575;-0.1939474;0.7358321;4.506445;0.07863295;0.4906558;4.833988;0.1643766;0.143208;4.694789;0.1709144;-0.3711279;5.402978;-0.1328202;-0.5084057;6.27292;-0.4823264;1.010542;4.812172;0.164377;1.292766;4.646548;0.1709152;1.773011;5.416253;-0.1534205;1.923727;6.316569;-0.4073929;0.3838195;2.763933;-0.08756231;0.2394672;1.311365;-0.187894;0;0;0;0.3838195;2.763933;-0.08756231;0.2394672;1.311365;-0.187894;0;0;0
109842.6983;NotLabelled;NONE;16384;0.8438871;0.4722992;0.2396122;0.08587258;36;13;7;1496;-3026;2144;65536;0.836517;0.5387812;-0.0235457;0.09695291;-47;-5;-5;-213;-3441;-2024;8192;0.7820385;0.433518;-0.4279778;0.1315789;27;-11;-8;-668;-3102;2616;32768;0.7900263;0.5720221;-0.199446;0.09418282;-28;0;10;101;-3667;-2397;256;-0.06648199;0.05955679;-0.5637119;-0.8211346;-35;-3;3;-76;3772;-1592;128;0.09695291;-0.09279778;0.6495845;0.7483507;25;0;-2;80;3996;732;4;0.6274315;-0.534626;0.4058172;0.3947368;0;10;4;1126;3806;364;16;0.5720221;-0.6993473;-0.2506925;-0.3476454;5;-1;3;379;4097;1000;2;0.5400491;-0.4695291;-0.4819945;-0.5055401;-4;2;-11;-854;3844;356;8;0.6620498;-0.7283462;0.08448754;0.1551246;2;3;-3;-511;4149;223;0.7024413;2.805516;-0.07674944;0.7083895;3.347578;-0.1380286;0.7136154;3.823823;-0.1939029;0.741694;4.507235;0.07184571;0.4962636;4.835402;0.1544131;0.1489417;4.695971;0.1624882;-0.3642687;5.401133;-0.1500662;-0.4991043;6.265301;-0.5145236;1.016169;4.814046;0.1544132;1.298541;4.648744;0.1624887;1.780957;5.412763;-0.1719166;1.932093;6.308458;-0.441493;0.3901805;2.762865;-0.07924464;0.2409306;1.31129;-0.1865421;0;0;0;0.3901805;2.762865;-0.07924464;0.2409306;1.31129;-0.1865421;0;0;0
109863.6694;NotLabelled;NONE;16384;0.8474938;0.466759;0.2382271;0.08448754;33;11;7;1390;-2790;2334;65536;0.840897;0.5318559;-0.02493075;0.09695291;-42;-5;-5;-611;-3359;-2152;8192;0.785084;0.4279778;-0.4279778;0.1315789;24;-4;-8;-516;-2916;2822;32768;0.7930182;0.567867;-0.199446;0.09418282;-23;0;7;179;-3523;-2701;256;-0.06648199;0.05817174;-0.5692521;-0.8174034;-38;-4;3;-34;3616;-1494;128;0.09695291;-0.09279778;0.6509695;0.7471462;22;1;-2;138;3976;696;4;0.6292145;-0.534626;0.4030471;0.3947368;0;16;3;982;3866;316;16;0.5734072;-0.6982121;-0.2506925;-0.3476454;4;4;1;203;4095;872;2;0.5399531;-0.468144;-0.4819945;-0.5069252;-4;7;-10;-812;3844;382;8;0.6620498;-0.7280499;0.08448754;0.1565097;1;-2;-2;-389;4251;221;0.7031919;2.804801;-0.06149664;0.7091351;3.346404;-0.1267099;0.7143565;3.82223;-0.1860406;0.743242;4.507369;0.07513621;0.4981764;4.836322;0.1556386;0.1507215;4.697289;0.1648156;-0.3623599;5.399618;-0.1542625;-0.491749;6.258009;-0.534027;1.018061;4.814452;0.1555214;1.300274;4.648929;0.1645566;1.78746;5.410769;-0.1678971;1.937423;6.302732;-0.4502052;0.3909308;2.762134;-0.06365736;0.2402362;1.311748;-0.1842041;0;0;0;0.3909308;2.762134;-0.06365736;0.2402362;1.311748;-0.1842041;0;0;0
109883.6367;NotLabelled;NONE;16384;0.8531474;0.4570637;0.2368421;0.08448754;27;3;6;1574;-2602;2708;65536;0.8476714;0.5207756;-0.02908587;0.09695291;-32;-7;-3;-577;-3327;-2732;8192;0.7868182;0.4252077;-0.4279778;0.1301939;18;-5;-7;-586;-2760;2972;32768;0.7969564;0.5623268;-0.199446;0.09418282;-20;-3;3;257;-3363;-2803;256;-0.06648199;0.05817174;-0.5734072;-0.814494;-33;0;3;24;3514;-1396;128;0.09833795;-0.09279778;0.6537396;0.744542;23;1;0;24;3894;750;4;0.6298042;-0.536011;0.400277;0.3947368;0;22;3;1060;3790;342;16;0.5734072;-0.6970214;-0.2520775;-0.3490305;5;17;3;99;4077;700;2;0.5422752;-0.4653739;-0.4806094;-0.5083103;-4;5;-9;-850;3944;288;8;0.6634349;-0.726788;0.08448754;0.1565097;0;-5;-1;-405;4271;411;0.7002705;2.805254;-0.04931816;0.7062109;3.346615;-0.1165019;0.7114299;3.822223;-0.1775637;0.7407199;4.510786;0.07440081;0.495828;4.840891;0.1506013;0.1483197;4.70214;0.1617967;-0.3633185;5.39864;-0.1720355;-0.4906666;6.250721;-0.5664182;1.015703;4.818801;0.1505418;1.297852;4.653296;0.1616654;1.788023;5.408088;-0.1822774;1.93889;6.29705;-0.4734318;0.3880092;2.762579;-0.05131107;0.2393873;1.312603;-0.1791461;0;0;0;0.3880092;2.762579;-0.05131107;0.2393873;1.312603;-0.1791461;0;0;0
109904.9821;NotLabelled;NONE;16384;0.8557428;0.4529086;0.2354571;0.08448754;22;7;7;1306;-2746;2810;65536;0.8510503;0.5152354;-0.02908587;0.09695291;-26;-1;0;-557;-3373;-2824;8192;0.7890496;0.4210526;-0.4279778;0.1301939;14;-5;-7;-358;-2872;3052;32768;0.799872;0.5581717;-0.199446;0.09418282;-16;-6;2;209;-3465;-2625;256;-0.06786703;0.0567867;-0.5789474;-0.8105487;-14;4;0;56;3598;-1240;128;0.09833795;-0.09279778;0.6565097;0.7421005;12;0;0;-14;3792;868;4;0.6329731;-0.5373961;0.3961219;0.3919668;3;37;2;1154;3736;282;16;0.5720221;-0.6957584;-0.2548476;-0.3518005;4;37;5;91;4123;656;2;0.5421619;-0.4639889;-0.4806094;-0.5096953;-3;10;-6;-888;4016;172;8;0.6620498;-0.7275887;0.08587258;0.1578947;0;-4;0;-447;4213;481;0.6945171;2.805942;-0.04387632;0.7004517;3.346761;-0.1152997;0.7056652;3.821876;-0.1800861;0.7344311;4.512974;0.0648984;0.4892745;4.843619;0.1378365;0.1418909;4.704686;0.1505429;-0.3721867;5.389741;-0.202663;-0.4943851;6.231611;-0.6199361;1.009168;4.821983;0.1378364;1.291465;4.656843;0.1505429;1.78345;5.406444;-0.2020538;1.934699;6.291277;-0.505337;0.3822558;2.763253;-0.04550795;0.2391707;1.313002;-0.1764976;0;0;0;0.3822558;2.763253;-0.04550795;0.2391707;1.313002;-0.1764976;0;0;0
109925.6733;NotLabelled;NONE;16384;0.8575824;0.4501385;0.234072;0.08448754;19;0;5;1208;-2968;2722;65536;0.8533452;0.5110803;-0.03047091;0.09833795;-23;-7;-2;-269;-3505;-2822;8192;0.7917521;0.4155124;-0.4279778;0.1315789;5;-11;-2;-480;-3008;2742;32768;0.8036392;0.5512465;-0.2022161;0.09695291;-11;-15;3;49;-3453;-2499;256;-0.06786703;0.05817174;-0.5803324;-0.8094593;-5;6;-1;90;3734;-1278;128;0.09833795;-0.09279778;0.6578947;0.740873;8;1;0;-64;3876;824;4;0.6340572;-0.5401662;0.3919668;0.3905817;9;43;2;704;3796;210;16;0.5706371;-0.6927243;-0.2603878;-0.3559557;3;48;7;377;4075;730;2;0.5420416;-0.4626039;-0.4806094;-0.5110803;-2;2;-3;-836;3972;220;8;0.6620498;-0.7275887;0.08587258;0.1578947;0;-7;0;-441;4229;405;0.6950532;2.805437;-0.03788315;0.7009819;3.345718;-0.1132633;0.70619;3.820347;-0.1815258;0.7370146;4.514696;0.05382743;0.4928058;4.846978;0.1223744;0.1450629;4.709168;0.1372915;-0.3687167;5.392673;-0.2193341;-0.4915449;6.228942;-0.6475427;1.01264;4.823946;0.1222475;1.294505;4.658241;0.1370109;1.788181;5.405945;-0.2172464;1.93977;6.287586;-0.5295215;0.3827918;2.762737;-0.03917722;0.2400188;1.312961;-0.1756465;0;0;0;0.3827918;2.762737;-0.03917722;0.2400188;1.312961;-0.1756465;0;0;0
109946.6835;NotLabelled;NONE;16384;0.8594069;0.4473684;0.232687;0.08448754;16;-3;1;1190;-2834;2734;65536;0.855717;0.5069252;-0.033241;0.09833795;-18;-12;-2;-347;-3383;-2824;8192;0.7914964;0.4141274;-0.4293629;0.132964;4;-9;-1;-500;-3052;2634;32768;0.8059574;0.5470914;-0.2036011;0.09833795;-6;-15;2;25;-3515;-2299;256;-0.06786703;0.05955679;-0.5803324;-0.8093586;-1;8;-1;54;3734;-1414;128;0.09833795;-0.09279778;0.6578947;0.740873;4;1;0;-40;3974;604;4;0.6371236;-0.5415512;0.3878116;0.3878116;5;34;2;398;3988;476;16;0.5692521;-0.6901372;-0.2645429;-0.3601108;0;43;5;649;4155;748;2;0.5456589;-0.4612188;-0.4778393;-0.5110803;3;-18;-3;-984;3944;262;8;0.6620498;-0.7266493;0.08864266;0.1606648;0;-16;0;-477;4231;431;0.6857772;2.806836;-0.03266144;0.6917027;3.346838;-0.1100232;0.6969083;3.821211;-0.1800264;0.7263799;4.516419;0.05295601;0.4815286;4.848464;0.1203449;0.1340488;4.710042;0.1357006;-0.3797128;5.388274;-0.2308769;-0.5030444;6.220399;-0.6669433;1.001406;4.826429;0.1203448;1.283586;4.661315;0.1357003;1.777412;5.401264;-0.2342817;1.930119;6.277899;-0.5598243;0.3735156;2.764131;-0.03378633;0.23764;1.313865;-0.1720804;0;0;0;0.3735156;2.764131;-0.03378633;0.23764;1.313865;-0.1720804;0;0;0
109966.7345;NotLabelled;NONE;16384;0.8610793;0.4445983;0.2313019;0.08587258;11;-4;0;1410;-2732;2716;65536;0.8571371;0.5041551;-0.03462604;0.09972299;-12;-7;-1;-535;-3361;-2712;8192;0.7919859;0.4127424;-0.4293629;0.134349;1;-8;0;-522;-2952;2612;32768;0.806375;0.5457063;-0.2049861;0.09972299;-2;-12;1;-11;-3473;-2163;256;-0.06925207;0.05955679;-0.5803324;-0.8092413;-3;8;-1;24;3696;-1408;128;0.09833795;-0.09418282;0.6578947;0.7406982;1;5;0;-48;3902;636;4;0.6410918;-0.5457063;0.3808864;0.3822715;4;32;0;512;4076;578;16;0.566482;-0.6871565;-0.2686981;-0.367036;0;23;0;269;4083;1080;2;0.5469915;-0.4626039;-0.4764543;-0.5096953;2;-26;-2;-532;4092;410;8;0.6620498;-0.7261714;0.0900277;0.1620499;0;-15;0;-467;4213;497;0.6856983;2.806766;-0.024506;0.6916237;3.346768;-0.1018677;0.6968292;3.821142;-0.1718709;0.7251728;4.516401;0.06109604;0.4797831;4.848051;0.1284775;0.1325282;4.709064;0.1438364;-0.3821332;5.384621;-0.2264007;-0.5024741;6.212821;-0.6706971;0.9996954;4.826859;0.1284777;1.282143;4.662203;0.143837;1.775402;5.401329;-0.2285385;1.928341;6.274828;-0.5622985;0.3734367;2.764061;-0.02563098;0.237757;1.314259;-0.1688863;0;0;0;0.3734367;2.764061;-0.02563098;0.237757;1.314259;-0.1688863;0;0;0
109987.6554;NotLabelled;NONE;16384;0.8623649;0.4418283;0.2313019;0.08725762;4;-3;0;1240;-2896;2644;65536;0.8595675;0.5;-0.03462604;0.09972299;-1;-5;0;-587;-3363;-2666;8192;0.7919859;0.4127424;-0.4293629;0.134349;1;-6;0;-574;-3042;2640;32768;0.8071383;0.5443213;-0.2049861;0.101108;-1;-9;1;211;-3599;-2089;256;-0.07063711;0.06094183;-0.5803324;-0.8090184;-3;9;-1;36;3638;-1320;128;0.09972299;-0.09418282;0.6578947;0.740513;-1;9;0;-34;3830;664;4;0.6420127;-0.5484765;0.3781163;0.3795014;3;35;-3;452;4008;254;16;0.5650969;-0.6864666;-0.2714681;-0.368421;0;23;0;-21;4045;1324;2;0.5496156;-0.4653739;-0.4736842;-0.5069252;0;-20;0;-302;4198;242;8;0.6620498;-0.7256878;0.09141274;0.1634349;0;-9;1;-411;4253;505;0.6881552;2.806161;-0.01800196;0.6940808;3.346162;-0.09536624;0.6992863;3.820535;-0.1653717;0.7291823;4.515816;0.06733805;0.484533;4.848036;0.1346006;0.1369698;4.70983;0.150016;-0.3777111;5.381974;-0.2263542;-0.4981784;6.207387;-0.6757724;1.004397;4.825687;0.1346008;1.286477;4.660408;0.1500166;1.779245;5.398954;-0.224154;1.932405;6.271566;-0.5601264;0.3758938;2.763456;-0.01912663;0.2438507;1.313604;-0.1652512;0;0;0;0.3758938;2.763456;-0.01912663;0.2438507;1.313604;-0.1652512;0;0;0
110008.6949;NotLabelled;NONE;16384;0.8625941;0.4418283;0.2299169;0.08864266;2;-11;0;1266;-2748;2676;65536;0.8601532;0.4986149;-0.03601108;0.101108;2;-10;-1;-595;-3435;-2500;8192;0.7919544;0.4113573;-0.4307479;0.134349;0;-7;1;-690;-3114;2562;32768;0.8075434;0.5429363;-0.2063712;0.1024931;1;-7;2;315;-3637;-2043;256;-0.07063711;0.06232687;-0.5803324;-0.8089129;0;10;-2;-8;3712;-1314;128;0.101108;-0.09556787;0.6565097;0.7413764;-2;11;1;8;3804;652;4;0.6428966;-0.5512465;0.3753462;0.3767313;5;35;-6;102;4110;232;16;0.5637119;-0.6855634;-0.2728532;-0.3711911;-1;19;0;203;4071;1250;2;0.5496156;-0.4653739;-0.4736842;-0.5069252;-3;4;0;0;4122;306;8;0.6606648;-0.726949;0.09141274;0.1634349;0;-2;1;-397;4217;369;0.6832228;2.80681;-0.02286977;0.6891478;3.346769;-0.1005297;0.6943529;3.821104;-0.1707948;0.7246765;4.516459;0.0616357;0.4802302;4.848854;0.1287741;0.1325841;4.710863;0.1442571;-0.3870813;5.37925;-0.2319534;-0.5098057;6.200216;-0.6888446;1.00008;4.82619;0.1287649;1.282061;4.660748;0.1442368;1.771891;5.3995;-0.2333695;1.922363;6.271322;-0.5725946;0.3709613;2.764105;-0.02396919;0.2416229;1.313741;-0.1674155;0;0;0;0.3709613;2.764105;-0.02396919;0.2416229;1.313741;-0.1674155;0;0;0
110029.6251;NotLabelled;NONE;16384;0.8628187;0.4418283;0.2285319;0.0900277;0;-13;0;1514;-2766;2650;65536;0.8599302;0.4986149;-0.03739612;0.1024931;5;-8;0;-789;-3467;-2440;8192;0.7917182;0.4113573;-0.4307479;0.1357341;-3;-2;1;-450;-3134;2538;32768;0.8081169;0.5415512;-0.2063712;0.1052632;4;-6;0;171;-3603;-1957;256;-0.07202215;0.06509695;-0.5789474;-0.8095648;10;11;-3;-12;3724;-1326;128;0.1024931;-0.09972299;0.6551247;0.741864;-1;11;2;64;3996;636;4;0.6437435;-0.5540166;0.3739612;0.3725762;1;19;-6;42;4012;522;16;0.5623268;-0.6853969;-0.2742382;-0.3725762;-2;13;0;235;4105;998;2;0.5483908;-0.4639889;-0.4764543;-0.5069252;-3;17;2;-178;4032;236;8;0.6606648;-0.726949;0.09141274;0.1634349;0;1;1;-341;4297;337;0.6831752;2.806796;-0.02508329;0.689103;3.346993;-0.1010642;0.6943103;3.821544;-0.1698545;0.7235008;4.516953;0.06256047;0.4785138;4.848953;0.1296871;0.131092;4.710397;0.1451675;-0.3872326;5.378399;-0.2335693;-0.5101965;6.198019;-0.6928077;0.9984002;4.827134;0.129687;1.280649;4.662149;0.1451674;1.773492;5.398907;-0.2324146;1.923978;6.269833;-0.5739235;0.3709138;2.764094;-0.02632609;0.2445616;1.31322;-0.1672431;0;0;0;0.3709138;2.764094;-0.02632609;0.2445616;1.31322;-0.1672431;0;0;0
110050.6509;NotLabelled;NONE;16384;0.8630387;0.4418283;0.2271468;0.09141274;-3;-13;1;1440;-2812;2566;65536;0.8597639;0.4986149;-0.03739612;0.1038781;9;-3;0;-753;-3495;-2338;8192;0.7907581;0.4127424;-0.4307479;0.1371191;-5;-1;2;-614;-3130;2544;32768;0.8075802;0.5415512;-0.2077562;0.1066482;5;-5;0;29;-3649;-1945;256;-0.07202215;0.06648199;-0.5775623;-0.8104411;11;10;-4;-6;3716;-1360;128;0.1024931;-0.101108;0.6537396;0.7428976;-3;10;2;50;3970;670;4;0.64335;-0.5554016;0.3739612;0.3711911;0;7;-7;258;3912;374;16;0.5609418;-0.685976;-0.2756233;-0.3725762;-2;4;-2;297;4071;904;2;0.5458593;-0.4626039;-0.4792244;-0.5083103;-2;17;4;-562;4068;152;8;0.6620498;-0.7261714;0.0900277;0.1620499;-1;6;2;-455;4239;355;0.6848739;2.806901;-0.03503706;0.6908042;3.34733;-0.1093517;0.6960137;3.822091;-0.1766781;0.7246883;4.516829;0.05779821;0.4794604;4.848455;0.1258769;0.1321339;4.709612;0.1409035;-0.3877003;5.377439;-0.2360691;-0.5125008;6.197212;-0.6945391;0.9993617;4.827002;0.1258771;1.281725;4.662169;0.1409044;1.771038;5.399896;-0.2393699;1.9166;6.270374;-0.5841387;0.3726125;2.764203;-0.03642213;0.2445575;1.312818;-0.1703742;0;0;0;0.3726125;2.764203;-0.03642213;0.2445575;1.312818;-0.1703742;0;0;0
110071.6903;NotLabelled;NONE;16384;0.8628909;0.4418283;0.2271468;0.09279778;-5;-14;1;1528;-2962;2532;65536;0.8589591;0.5;-0.03739612;0.1038781;11;-2;0;-717;-3569;-2280;8192;0.7900336;0.4141274;-0.4307479;0.1371191;-9;0;4;-596;-3056;2440;32768;0.8075802;0.5415512;-0.2077562;0.1066482;6;-3;0;95;-3671;-1893;256;-0.0734072;0.06925207;-0.5761772;-0.8110704;14;11;-4;58;3790;-1428;128;0.1038781;-0.1024931;0.6537396;0.7425154;-6;11;2;14;3968;616;4;0.6429502;-0.5567867;0.3739612;0.3698061;0;6;-6;378;3914;378;16;0.5609418;-0.6865309;-0.2742382;-0.3725762;-4;-2;-4;181;4013;838;2;0.5445204;-0.4612188;-0.4806094;-0.5096953;-2;14;3;-650;4004;110;8;0.6620498;-0.7264791;0.0900277;0.1606648;-2;1;3;-407;4129;417;0.6829586;2.807057;-0.04417658;0.6888918;3.347754;-0.1165177;0.6941041;3.822758;-0.1821103;0.7218477;4.51674;0.05470642;0.4761815;4.847817;0.1238666;0.1290331;4.708474;0.1383781;-0.3909185;5.37613;-0.2387364;-0.5180195;6.195844;-0.6966787;0.9961103;4.827036;0.1238666;1.278684;4.66252;0.1383781;1.765334;5.402757;-0.2404307;1.910828;6.273506;-0.5845437;0.3706972;2.764365;-0.04573002;0.2429035;1.312526;-0.1749281;0;0;0;0.3706972;2.764365;-0.04573002;0.2429035;1.312526;-0.1749281;0;0;0
110092.6249;NotLabelled;NONE;16384;0.8612219;0.4459834;0.2229917;0.09833795;-8;-19;6;1630;-2924;2458;65536;0.8571718;0.5027701;-0.03739612;0.1052632;15;-3;3;-765;-3679;-1870;8192;0.7885486;0.4155124;-0.432133;0.1371191;-8;0;3;-544;-3160;2328;32768;0.8070384;0.5415512;-0.2091413;0.1080332;9;-6;-2;73;-3585;-1927;256;-0.0734072;0.07063711;-0.5734072;-0.812912;15;11;-3;-22;3722;-1412;128;0.1038781;-0.1038781;0.6523545;0.7435403;-6;14;2;-78;3984;576;4;0.6437449;-0.5567867;0.3739612;0.368421;1;4;-6;400;3888;386;16;0.5595568;-0.6884089;-0.2742382;-0.3711911;-5;-3;-5;173;4107;898;2;0.5431677;-0.4598338;-0.4819945;-0.5110803;-4;8;3;-774;3974;306;8;0.6606648;-0.7277389;0.0900277;0.1606648;-4;0;3;-409;4053;379;0.6846903;2.806947;-0.05146295;0.690623;3.347603;-0.1241153;0.6958351;3.822569;-0.1899814;0.7230852;4.515868;0.04888037;0.477189;4.846577;0.1189856;0.1301325;4.706959;0.1330457;-0.3931087;5.373911;-0.2407498;-0.5228022;6.195119;-0.6952758;0.9971315;4.826144;0.118986;1.279814;4.661777;0.1330468;1.763685;5.403552;-0.2463109;1.907081;6.274301;-0.5913031;0.3724289;2.764254;-0.05298978;0.2444307;1.311975;-0.1769257;0;0;0;0.3724289;2.764254;-0.05298978;0.2444307;1.311975;-0.1769257;0;0;0
110113.7479;NotLabelled;NONE;16384;0.861057;0.4473684;0.2202216;0.09972299;-9;-21;8;1560;-2898;2442;65536;0.8553694;0.5055401;-0.03739612;0.1066482;16;-9;1;-687;-3581;-2004;8192;0.7878172;0.4168975;-0.432133;0.1371191;-9;4;4;-554;-3274;2434;32768;0.8059204;0.5429363;-0.2091413;0.1094183;11;-1;-2;63;-3639;-1869;256;-0.07479224;0.07202215;-0.5720221;-0.8136397;12;10;-2;-74;3774;-1348;128;0.1052632;-0.1052632;0.6509695;0.7443642;-6;15;2;16;3994;610;4;0.6425444;-0.5581717;0.3739612;0.368421;3;8;-6;392;3958;366;16;0.5595568;-0.6884089;-0.2742382;-0.3711911;-6;-6;-5;223;4105;954;2;0.5443372;-0.4584487;-0.4819945;-0.5110803;-2;6;2;-590;3938;86;8;0.6606648;-0.7280433;0.0900277;0.1592798;-5;3;4;-319;4097;289;0.6865937;2.805967;-0.05955648;0.6925291;3.346883;-0.1302381;0.6977438;3.822086;-0.1943729;0.7242592;4.513788;0.04915965;0.4780282;4.843787;0.1213997;0.1310976;4.703753;0.1343935;-0.3910072;5.373047;-0.2367956;-0.5225301;6.19716;-0.6855013;0.9979896;4.82384;0.1214519;1.280821;4.659646;0.1345087;1.764523;5.401338;-0.2452282;1.907908;6.27236;-0.5895357;0.3743323;2.76328;-0.06125142;0.2430181;1.311221;-0.1843039;0;0;0;0.3743323;2.76328;-0.06125142;0.2430181;1.311221;-0.1843039;0;0;0
110134.6324;NotLabelled;NONE;16384;0.860715;0.4487534;0.2174515;0.1024931;-9;-25;9;1538;-2790;2572;65536;0.8541991;0.5069252;-0.03739612;0.1094183;17;-11;2;-749;-3563;-2026;8192;0.7871047;0.4196676;-0.4307479;0.1371191;-12;8;3;-552;-3080;2624;32768;0.8040473;0.5457063;-0.2091413;0.1094183;14;2;-5;27;-3675;-1919;256;-0.07479224;0.07617728;-0.567867;-0.816168;12;9;-3;-110;3714;-1418;128;0.1066482;-0.1094183;0.6481994;0.7459835;-10;11;0;136;3934;614;4;0.6421322;-0.5595568;0.3739612;0.367036;4;12;-9;124;3930;404;16;0.5581717;-0.6908248;-0.2728532;-0.3698061;-4;-11;-5;151;4079;1124;2;0.5431076;-0.4584487;-0.4833795;-0.5110803;0;5;5;-638;3844;254;8;0.6606648;-0.7280433;0.0900277;0.1592798;-7;0;4;-277;4033;149;0.6826845;2.80661;-0.06473829;0.6886225;3.34774;-0.1337649;0.6938391;3.823137;-0.1964457;0.721023;4.514093;0.04912236;0.4751119;4.844117;0.1223303;0.1280451;4.704382;0.1349071;-0.3917075;5.377043;-0.2334865;-0.5258822;6.204028;-0.6760826;0.9950538;4.823664;0.1223306;1.277725;4.659156;0.134908;1.760233;5.403748;-0.2406509;1.900736;6.276289;-0.5822942;0.3704233;2.763927;-0.06657425;0.2422926;1.311221;-0.1852557;0;0;0;0.3704233;2.763927;-0.06657425;0.2422926;1.311221;-0.1852557;0;0;0
110154.8264;NotLabelled;NONE;16384;0.8596267;0.4515235;0.2146814;0.1052632;-12;-24;10;1624;-2738;2584;65536;0.8523701;0.5096953;-0.03739612;0.1108033;18;-7;5;-721;-3537;-2082;8192;0.7856214;0.4224377;-0.4307479;0.1371191;-16;8;3;-536;-2956;2608;32768;0.8036858;0.5457063;-0.2105263;0.1094183;14;0;-7;191;-3553;-1933;256;-0.07479224;0.07756232;-0.566482;-0.8169996;15;8;-2;-168;3630;-1368;128;0.1080332;-0.1108033;0.6468144;0.7467815;-14;8;0;164;3914;692;4;0.6433052;-0.5609418;0.3725762;0.3642659;4;9;-10;92;3952;424;16;0.5581717;-0.6915644;-0.2728532;-0.368421;-4;-12;-6;199;4139;1108;2;0.5431677;-0.4598338;-0.4819945;-0.5110803;1;-1;5;-926;3846;186;8;0.6578947;-0.7306761;0.09141274;0.1578947;-13;-4;6;-419;4059;249;0.6830273;2.805672;-0.07878375;0.6889701;3.34725;-0.1442013;0.6941913;3.823055;-0.2037115;0.7186989;4.511612;0.04877725;0.4715267;4.839963;0.1251911;0.1249814;4.698812;0.1362308;-0.3952993;5.372796;-0.2289864;-0.5348123;6.201096;-0.6674498;0.9915415;4.821458;0.1251912;1.274823;4.657893;0.136231;1.751869;5.405762;-0.2397912;1.890007;6.280595;-0.5764973;0.3707662;2.763003;-0.08092701;0.2424821;1.309883;-0.1942562;0;0;0;0.3707662;2.763003;-0.08092701;0.2424821;1.309883;-0.1942562;0;0;0
110176.6582;NotLabelled;NONE;16384;0.8592417;0.4529086;0.2119114;0.1080332;-15;-22;9;1688;-2722;2608;65536;0.8514187;0.5110803;-0.03601108;0.1121884;18;-3;7;-665;-3591;-2124;8192;0.7843665;0.4252077;-0.4307479;0.1357341;-20;12;4;-664;-3276;2456;32768;0.8027436;0.5470914;-0.2105263;0.1094183;16;0;-8;63;-3591;-2061;256;-0.07479224;0.07894737;-0.5637119;-0.818781;22;9;-1;-162;3660;-1446;128;0.1080332;-0.1121884;0.6454294;0.7477723;-17;7;0;186;3792;690;4;0.6404212;-0.5650969;0.3739612;0.3614958;4;6;-10;22;4022;454;16;0.5581717;-0.6941172;-0.2700831;-0.365651;-2;-15;-7;267;4025;1150;2;0.5431677;-0.4598338;-0.4819945;-0.5110803;2;-3;3;-1030;3864;222;8;0.6565097;-0.7314462;0.09279778;0.1592798;-13;-15;6;-347;4351;461;0.6818386;2.80578;-0.08361861;0.6877836;3.347553;-0.1473983;0.6930066;3.823535;-0.2054695;0.7166349;4.511277;0.04931554;0.4690489;4.839067;0.126794;0.1226769;4.697452;0.137322;-0.3959086;5.374369;-0.2248662;-0.537263;6.205486;-0.6573702;0.9890862;4.821203;0.1267939;1.272568;4.657951;0.1373222;1.747849;5.40883;-0.234921;1.887392;6.283575;-0.571273;0.3695775;2.763118;-0.0859013;0.239666;1.309977;-0.1970961;0;0;0;0.3695775;2.763118;-0.0859013;0.239666;1.309977;-0.1970961;0;0;0
110197.6312;NotLabelled;NONE;16384;0.8572971;0.4584487;0.2063712;0.1108033;-20;-19;9;1784;-2908;2602;65536;0.8486531;0.5152354;-0.033241;0.1149584;23;-3;17;-693;-3581;-2224;8192;0.7828586;0.4279778;-0.4307479;0.1357341;-21;11;5;-854;-3324;2576;32768;0.8006714;0.5498615;-0.2119114;0.1080332;19;7;-10;19;-3777;-2025;256;-0.07479224;0.08033241;-0.5609418;-0.8205468;26;7;-1;-124;3728;-1494;128;0.1066482;-0.1121884;0.6426592;0.7503526;-16;3;0;126;3928;746;4;0.6403912;-0.5650969;0.3753462;0.3601108;3;0;-9;-94;4008;344;16;0.5581717;-0.6961057;-0.2686981;-0.3628809;-2;-20;-7;155;4161;1170;2;0.5432206;-0.4612188;-0.4806094;-0.5110803;3;-17;5;-976;4066;192;8;0.6537396;-0.7332654;0.09556787;0.1606648;-11;-21;5;-231;4429;771;0.678012;2.806344;-0.1061451;0.6839594;3.348344;-0.1679667;0.6891848;3.824533;-0.2243174;0.7121391;4.510579;0.03505921;0.4642451;4.837629;0.1146466;0.1179928;4.695648;0.1241217;-0.4001445;5.372592;-0.2386574;-0.5457159;6.204829;-0.6675953;0.9842978;4.820216;0.1146891;1.267918;4.657144;0.1242156;1.741992;5.40871;-0.2481795;1.880796;6.284588;-0.5818791;0.3657509;2.76369;-0.1085942;0.2395665;1.309052;-0.2032703;0;0;0;0.3657509;2.76369;-0.1085942;0.2395665;1.309052;-0.2032703;0;0;0
110218.8379;NotLabelled;NONE;16384;0.8553627;0.4626039;0.2036011;0.1135734;-25;-21;9;1756;-2892;2662;65536;0.8477258;0.5166205;-0.03047091;0.1163435;26;0;21;-869;-3645;-2296;8192;0.7813354;0.432133;-0.4293629;0.1357341;-29;10;2;-952;-3190;2554;32768;0.7997185;0.5512465;-0.2119114;0.1080332;22;7;-12;351;-3783;-1963;256;-0.07479224;0.08171745;-0.5567867;-0.8232356;31;2;0;-182;3856;-1714;128;0.1066482;-0.1135734;0.6412742;0.7513286;-17;-2;-1;108;4052;644;4;0.6383509;-0.566482;0.3767313;0.3601108;1;-10;-10;-172;4124;230;16;0.5595568;-0.6974946;-0.265928;-0.3601108;-1;-27;-8;125;4183;1162;2;0.545898;-0.4639889;-0.4778393;-0.5083103;5;-34;10;-546;4106;134;8;0.6523545;-0.7338277;0.09833795;0.1620499;-7;-18;4;-177;4247;903;0.6795697;2.805838;-0.1156206;0.6855223;3.348304;-0.173204;0.6907523;3.824918;-0.2258313;0.7130409;4.509242;0.03811461;0.4648433;4.835544;0.1198006;0.1187096;4.693208;0.1282222;-0.3931158;5.375879;-0.2327809;-0.5459586;6.211707;-0.6521014;0.9849105;4.818575;0.119889;1.268667;4.655683;0.1284181;1.741038;5.40867;-0.2432699;1.882718;6.286335;-0.5710163;0.3673089;2.763205;-0.1184298;0.2368426;1.308672;-0.208829;0;0;0;0.3673089;2.763205;-0.1184298;0.2368426;1.308672;-0.208829;0;0;0
110239.6277;NotLabelled;NONE;16384;0.8540025;0.4653739;0.2022161;0.1149584;-30;-19;12;2256;-2892;2578;65536;0.8449333;0.5207756;-0.02631579;0.1191136;31;5;30;-1175;-3715;-2290;8192;0.7773909;0.4432133;-0.4252077;0.1357341;-38;23;-5;-754;-3328;2276;32768;0.7947472;0.5567867;-0.2174515;0.1052632;32;5;-22;513;-3655;-2289;256;-0.07479224;0.08171745;-0.5526316;-0.8260307;32;2;0;-182;3904;-1720;128;0.1052632;-0.1121884;0.6385041;0.7540861;-15;-9;-2;128;4172;740;4;0.636708;-0.566482;0.3795014;0.3601108;1;-17;-11;-228;4058;254;16;0.5595568;-0.6999655;-0.2631579;-0.3573407;0;-34;-7;99;4067;1142;2;0.5474122;-0.468144;-0.4764543;-0.5041551;7;-42;15;-50;4000;38;8;0.6509695;-0.7345632;0.09972299;0.1634349;-5;-14;3;-243;4071;767;0.6756203;2.806499;-0.1245595;0.6815752;3.349169;-0.1801916;0.6868072;3.82597;-0.2311044;0.7087313;4.507639;0.03965309;0.4603667;4.832993;0.1245489;0.1142993;4.690416;0.1314974;-0.3946707;5.380367;-0.2195669;-0.5539821;6.216989;-0.6348728;0.9804417;4.816269;0.1245491;1.264274;4.653436;0.1314983;1.733229;5.413957;-0.2290061;1.874131;6.292728;-0.5541137;0.3633597;2.763877;-0.1275343;0.2354355;1.308671;-0.2104232;0;0;0;0.3633597;2.763877;-0.1275343;0.2354355;1.308671;-0.2104232;0;0;0
110259.676;NotLabelled;NONE;16384;0.8514255;0.4709141;0.199446;0.1163435;-32;-10;17;2114;-2902;2362;65536;0.8429784;0.5235457;-0.02077562;0.1218837;36;2;35;-1221;-3563;-2122;8192;0.7751594;0.4501385;-0.4224377;0.134349;-44;38;-9;-962;-3428;2284;32768;0.7918018;0.5609418;-0.2188366;0.1024931;39;17;-24;503;-3827;-2175;256;-0.07202215;0.08171745;-0.5457063;-0.8308668;19;-3;3;-306;3770;-1810;128;0.1024931;-0.1108033;0.6357341;0.7570072;-16;-11;-3;180;4152;736;4;0.6342613;-0.566482;0.3822715;0.3614958;3;-20;-13;-92;4006;252;16;0.5609418;-0.7013003;-0.2603878;-0.3545706;0;-33;-5;9;4225;1248;2;0.5478185;-0.4792244;-0.4736842;-0.4958449;6;-29;16;282;4074;36;8;0.6481994;-0.73632;0.1024931;0.1648199;-4;-9;1;-219;4285;577;0.6777258;2.805744;-0.1363731;0.6836852;3.348831;-0.1877818;0.6889215;3.826014;-0.2349837;0.7115031;4.504929;0.04255217;0.4634671;4.829695;0.1306027;0.1172415;4.687436;0.1360209;-0.3899894;5.380381;-0.2116494;-0.5577654;6.220144;-0.6171662;0.9835236;4.812401;0.1306029;1.267175;4.649194;0.136022;1.726658;5.422007;-0.2102586;1.879068;6.303921;-0.5213622;0.3654655;2.763146;-0.139706;0.2356201;1.307745;-0.2159021;0;0;0;0.3654655;2.763146;-0.139706;0.2356201;1.307745;-0.2159021;0;0;0
110280.7896;NotLabelled;NONE;16384;0.84976;0.4750692;0.1966759;0.1163435;-34;-18;21;1914;-3082;2350;65536;0.8398892;0.5277008;-0.01523546;0.1260388;42;-4;39;-1007;-3619;-2026;8192;0.7727031;0.4598338;-0.4168975;0.132964;-48;44;-14;-998;-3562;2252;32768;0.7879913;0.566482;-0.2202216;0.09833795;44;31;-26;533;-3831;-1657;256;-0.07202215;0.08171745;-0.5429363;-0.8326796;14;-5;5;-264;3826;-1738;128;0.101108;-0.1094183;0.632964;0.7597114;-16;-10;-3;182;4098;656;4;0.6325836;-0.566482;0.3850415;0.3614958;2;-14;-15;174;3990;280;16;0.5623268;-0.7032998;-0.2576177;-0.3504155;2;-31;-4;147;4053;1256;2;0.546667;-0.4833795;-0.4736842;-0.4930748;5;-18;14;62;4196;32;8;0.6481994;-0.7361258;0.1038781;0.1648199;-2;-5;1;-223;4299;555;0.6760257;2.806146;-0.1417607;0.6819897;3.349642;-0.1886463;0.6872301;3.8272;-0.231874;0.7077953;4.501262;0.05740312;0.4588193;4.82377;0.1509277;0.1129838;4.68049;0.1536794;-0.3885701;5.380036;-0.1889674;-0.5659443;6.221156;-0.5875326;0.9789214;4.807906;0.1509279;1.263018;4.645409;0.15368;1.718833;5.424844;-0.1824571;1.877334;6.309013;-0.4839697;0.3637657;2.763578;-0.1454766;0.2353767;1.307764;-0.2160517;0;0;0;0.3637657;2.763578;-0.1454766;0.2353767;1.307764;-0.2160517;0;0;0
110301.7443;NotLabelled;NONE;16384;0.8475934;0.4806094;0.1925208;0.1163435;-34;-15;24;2114;-3290;2388;65536;0.8367256;0.5318559;-0.008310249;0.1301939;47;-7;44;-1181;-3701;-1850;8192;0.7714172;0.468144;-0.4099723;0.132964;-46;40;-19;-804;-3594;2102;32768;0.782627;0.5747922;-0.2202216;0.09279778;47;37;-24;967;-3859;-1515;256;-0.07063711;0.08033241;-0.5415512;-0.8338341;12;-4;7;-170;4006;-1690;128;0.09972299;-0.1094183;0.6315789;0.761046;-13;-10;-3;100;4142;596;4;0.6296427;-0.567867;0.3878116;0.3614958;2;2;-9;216;4078;356;16;0.5650969;-0.704646;-0.2534626;-0.3462604;1;-14;-2;157;4061;1082;2;0.5478991;-0.4861496;-0.4722992;-0.4903047;2;-18;14;78;4154;220;8;0.6481994;-0.7358143;0.1038781;0.166205;0;-3;0;-125;4295;683;0.6744165;2.806381;-0.1511675;0.6803842;3.350223;-0.1938592;0.685628;3.8281;-0.2334016;0.7066149;4.500229;0.06030971;0.4578499;4.822292;0.155905;0.1119117;4.679243;0.1576445;-0.384441;5.384482;-0.1808847;-0.5738088;6.227989;-0.5687381;0.9779406;4.806056;0.155905;1.261921;4.643341;0.1576443;1.708282;5.432591;-0.168117;1.873381;6.319518;-0.4577575;0.3621567;2.763842;-0.1552381;0.2319329;1.30788;-0.2190536;0;0;0;0.3621567;2.763842;-0.1552381;0.2319329;1.30788;-0.2190536;0;0;0
110322.615;NotLabelled;NONE;16384;0.8429591;0.4916897;0.1855956;0.1149584;-32;-15;22;1528;-3514;1990;65536;0.828263;0.5429363;0.004155125;0.1385041;54;-1;46;-825;-3863;-1536;8192;0.7701068;0.4750692;-0.4044321;0.132964;-45;42;-21;-202;-3686;2128;32768;0.777978;0.5817174;-0.2202216;0.08864266;47;26;-18;831;-3815;-815;256;-0.07063711;0.08033241;-0.5401662;-0.8347321;12;-3;8;-10;4004;-1602;128;0.09833795;-0.1080332;0.6315789;0.761424;-10;-10;-5;16;4254;504;4;0.6283908;-0.5692521;0.3878116;0.3614958;0;0;-8;96;4214;304;16;0.5650969;-0.7053249;-0.2534626;-0.3448753;1;-12;-3;155;4161;1006;2;0.5479061;-0.4889196;-0.4722992;-0.4875346;3;-15;15;112;4114;74;8;0.6481994;-0.7356175;0.1052632;0.166205;0;-1;0;-269;4155;611;0.6710181;2.807509;-0.1591798;0.6769876;3.351522;-0.1996285;0.6822332;3.829559;-0.2372001;0.7029057;4.500602;0.05900297;0.4539954;4.822206;0.1557624;0.1081168;4.679008;0.1569311;-0.3794888;5.391942;-0.1781723;-0.5815328;6.237286;-0.5554883;0.9740926;4.806187;0.1557629;1.258141;4.643585;0.1569325;1.693425;5.442331;-0.1605674;1.865638;6.333511;-0.4324635;0.3587587;2.764987;-0.1634398;0.2307553;1.308417;-0.2170772;0;0;0;0.3587587;2.764987;-0.1634398;0.2307553;1.308417;-0.2170772;0;0;0
110343.6275;NotLabelled;NONE;16384;0.8416165;0.4958449;0.1814404;0.1135734;-26;-31;9;482;-3354;1910;65536;0.8236235;0.5484765;0.008310249;0.1440443;48;-25;30;-89;-3735;-1206;8192;0.7688241;0.4889196;-0.3905817;0.1315789;-34;24;-6;-436;-3500;1404;32768;0.7697617;0.5955678;-0.2146814;0.08171745;35;51;11;805;-3615;-211;256;-0.07063711;0.07894737;-0.5387812;-0.8357587;10;2;9;-144;3970;-1524;128;0.09833795;-0.1066482;0.6301939;0.7627657;-8;-10;-6;-30;4288;412;4;0.6283298;-0.5692521;0.3891967;0.3601108;-1;-3;-7;-124;4136;312;16;0.566482;-0.705386;-0.2520775;-0.3434903;2;-15;-2;131;4207;1028;2;0.5454568;-0.4916897;-0.4736842;-0.4861496;2;-9;12;80;4170;-150;8;0.6481994;-0.7356175;0.1052632;0.166205;0;0;0;-247;4159;471;0.6647415;2.808061;-0.1651307;0.6707113;3.352096;-0.205276;0.6759572;3.830153;-0.2425809;0.6968306;4.500214;0.05582526;0.4480216;4.821586;0.1536116;0.102093;4.678505;0.1542715;-0.3712084;5.406422;-0.1689197;-0.5987879;6.257488;-0.5177604;0.9681132;4.805385;0.1536179;1.252104;4.64268;0.1542856;1.677461;5.448976;-0.1575384;1.854276;6.343568;-0.4148873;0.3524821;2.765542;-0.1694164;0.2282735;1.308505;-0.2191629;0;0;0;0.3524821;2.765542;-0.1694164;0.2282735;1.308505;-0.2191629;0;0;0
110363.6714;NotLabelled;NONE;16384;0.83947;0.5;0.1772853;0.1177285;-26;-46;3;770;-3180;1884;65536;0.8179887;0.5554016;0.006925208;0.1495845;40;-56;19;155;-3713;-942;8192;0.7657389;0.4944598;-0.3891967;0.132964;-29;0;2;-994;-3670;1616;32768;0.7680152;0.601108;-0.2063712;0.07894737;30;40;23;375;-3801;-47;256;-0.0734072;0.07756232;-0.5373961;-0.836541;0;10;5;294;3664;-1378;128;0.09695291;-0.1038781;0.6288089;0.7644664;-9;-1;-7;-72;3850;368;4;0.6274697;-0.5692521;0.3905817;0.3601108;0;-9;-8;-194;3970;378;16;0.566482;-0.7065518;-0.2506925;-0.3421052;1;-20;-4;195;4119;972;2;0.5429752;-0.4944598;-0.4750692;-0.4847645;-2;2;7;-48;4068;-78;8;0.6481994;-0.7358143;0.1038781;0.166205;-2;3;-1;-245;4117;411;0.6681352;2.808329;-0.1662941;0.6741066;3.352504;-0.2045009;0.6793539;3.830692;-0.2401024;0.7014448;4.499723;0.06051615;0.4532247;4.821232;0.1593402;0.1070304;4.678794;0.1594963;-0.3573839;5.413504;-0.1612062;-0.5950897;6.267268;-0.4964387;0.9732855;4.804063;0.1593406;1.256973;4.640831;0.1594968;1.660709;5.46215;-0.1416765;1.837727;6.364142;-0.371595;0.355876;2.765826;-0.1707434;0.2277621;1.309003;-0.2167094;0;0;0;0.355876;2.765826;-0.1707434;0.2277621;1.309003;-0.2167094;0;0;0
110383.6713;NotLabelled;NONE;16384;0.8364207;0.5055401;0.1731302;0.1218837;-25;-42;-2;1132;-3058;1812;65536;0.813602;0.5595568;0.004155125;0.1578947;35;-59;12;-731;-3535;-842;8192;0.7637007;0.4972299;-0.3891967;0.134349;-24;-11;3;-1056;-3840;1760;32768;0.7651223;0.6066482;-0.200831;0.07894737;22;20;21;141;-4003;133;256;-0.07479224;0.07756232;-0.5387812;-0.8355268;0;10;2;72;3638;-1366;128;0.09833795;-0.1038781;0.6288089;0.7642895;-14;2;-5;-68;3804;416;4;0.6257369;-0.5692521;0.3933518;0.3601108;2;-10;-10;-148;4004;550;16;0.567867;-0.7077522;-0.2479224;-0.3393352;2;-26;-4;253;4119;1052;2;0.5417603;-0.4944598;-0.4764543;-0.4847645;-1;4;6;-122;3894;-78;8;0.6481994;-0.7361258;0.1038781;0.1648199;-3;6;-1;-179;4179;461;0.6689029;2.807899;-0.172371;0.6748759;3.352226;-0.2083411;0.6801248;3.830556;-0.2419772;0.7065051;4.498678;0.06031474;0.4603564;4.821535;0.1599217;0.1132494;4.681336;0.1596929;-0.3479505;5.420052;-0.1564126;-0.5882219;6.278999;-0.4762176;0.9802952;4.801009;0.1599221;1.262923;4.635947;0.1596941;1.661289;5.463265;-0.1320682;1.82912;6.368979;-0.3541067;0.3566438;2.765415;-0.1770089;0.2276305;1.308565;-0.2194741;0;0;0;0.3566438;2.765415;-0.1770089;0.2276305;1.308565;-0.2194741;0;0;0
110404.8191;NotLabelled;NONE;16384;0.8335638;0.5096953;0.1717452;0.1260388;-29;-24;-6;1456;-2944;2010;65536;0.8093586;0.5637119;0.001385042;0.1648199;30;-35;5;-1775;-3603;-872;8192;0.7606867;0.5;-0.3905817;0.1371191;-18;-4;0;-1100;-3802;1570;32768;0.7627481;0.6108033;-0.1966759;0.08033241;15;15;10;-109;-4139;-163;256;-0.07617728;0.07894737;-0.5387812;-0.835272;3;9;-1;-76;3714;-1362;128;0.09972299;-0.1038781;0.6274238;0.7652477;-8;8;-3;92;3842;510;4;0.6218374;-0.5706371;0.3975069;0.3601108;3;-7;-12;238;3964;264;16;0.5706371;-0.7100739;-0.2423823;-0.333795;2;-25;-6;207;4095;1072;2;0.5417603;-0.4944598;-0.4764543;-0.4847645;0;3;7;-104;3976;2;8;0.6481994;-0.73632;0.1024931;0.1648199;-3;5;-2;-201;4231;505;0.6692744;2.808004;-0.1804759;0.6752472;3.352312;-0.2167421;0.6804959;3.830623;-0.2506384;0.7082265;4.499801;0.04918653;0.4627236;4.823503;0.1476392;0.1153436;4.683982;0.1479773;-0.3424206;5.42804;-0.1605017;-0.5868998;6.289497;-0.4702073;0.9826215;4.801962;0.1476399;1.264927;4.636349;0.1479788;1.660507;5.466863;-0.1384451;1.819983;6.376486;-0.3504319;0.3570152;2.765517;-0.185089;0.2262488;1.308635;-0.2204858;0;0;0;0.3570152;2.765517;-0.185089;0.2262488;1.308635;-0.2204858;0;0;0
110425.9214;NotLabelled;NONE;16384;0.8287897;0.5166205;0.1731302;0.1274238;-30;-8;-3;1534;-3336;2066;65536;0.8036249;0.5706371;0.002770083;0.1689751;14;-6;-1;-1159;-3937;-604;8192;0.7588587;0.5027701;-0.3905817;0.1371191;-10;0;0;-988;-3838;1514;32768;0.761584;0.6135734;-0.1925208;0.08033241;12;27;2;-235;-4055;-309;256;-0.07617728;0.08033241;-0.5373961;-0.8360317;11;8;-1;-10;3768;-1352;128;0.101108;-0.1052632;0.6260388;0.7660106;-9;10;-2;130;3970;460;4;0.6218374;-0.5706371;0.3975069;0.3601108;3;-4;-11;458;4052;404;16;0.5720221;-0.7107275;-0.2409972;-0.3310249;2;-18;-5;171;4097;1112;2;0.540539;-0.4944598;-0.4778393;-0.4847645;-1;3;7;-284;4064;68;8;0.6481994;-0.7365114;0.101108;0.1648199;-3;5;-2;-353;4187;505;0.664985;2.808562;-0.1970952;0.6709589;3.352975;-0.2317295;0.6762086;3.831386;-0.2641916;0.7044698;4.500676;0.03533602;0.4592226;4.824613;0.1336499;0.1117334;4.685364;0.1340565;-0.3475312;5.432159;-0.1654476;-0.5955746;6.296301;-0.464662;0.9791034;4.802664;0.1336501;1.261278;4.63683;0.134057;1.653794;5.470986;-0.145927;1.80491;6.383781;-0.3502668;0.352726;2.766088;-0.2018459;0.2232971;1.308803;-0.2224854;0;0;0;0.352726;2.766088;-0.2018459;0.2232971;1.308803;-0.2224854;0;0;0
110445.8039;NotLabelled;NONE;16384;0.8262594;0.5207756;0.1717452;0.1288089;-26;-18;0;1782;-3534;1830;65536;0.8013611;0.5734072;0.001385042;0.1703601;10;-15;0;-1323;-4047;-690;8192;0.7583998;0.5041551;-0.3891967;0.1385041;-7;5;-1;-616;-3686;1480;32768;0.7603285;0.6163435;-0.1897507;0.07756232;11;25;0;149;-3889;-545;256;-0.07617728;0.08033241;-0.536011;-0.8369205;13;3;0;52;3950;-1450;128;0.101108;-0.1052632;0.6260388;0.7660106;-10;12;-2;206;4000;500;4;0.6218374;-0.5706371;0.3975069;0.3601108;4;9;-7;444;3952;374;16;0.5734072;-0.7113642;-0.2396122;-0.3282548;1;-14;-5;265;4069;1064;2;0.539283;-0.4958449;-0.4792244;-0.4833795;0;0;6;-198;4116;216;8;0.6468144;-0.7379166;0.09972299;0.1648199;-5;4;-1;-403;4217;499;0.6609736;2.80916;-0.197685;0.6669487;3.353674;-0.2306983;0.6721995;3.83218;-0.261736;0.6996469;4.500524;0.03996655;0.4540124;4.823859;0.1392976;0.1066842;4.684207;0.1392041;-0.3536839;5.436369;-0.1447739;-0.6077252;6.304479;-0.4269873;0.9739183;4.802511;0.1392984;1.256285;4.637002;0.139206;1.647271;5.473464;-0.1359951;1.79196;6.388277;-0.3359122;0.3487147;2.766701;-0.2025723;0.2192393;1.309415;-0.2229182;0;0;0;0.3487147;2.766701;-0.2025723;0.2192393;1.309415;-0.2229182;0;0;0
110466.7547;NotLabelled;NONE;16384;0.8245768;0.5235457;0.1703601;0.1301939;-24;-13;0;1986;-3660;1724;65536;0.7997749;0.5747922;0;0.1731302;9;-14;-3;-1465;-4043;-450;8192;0.7570415;0.5083103;-0.3864266;0.1385041;-6;19;-3;-446;-3838;1668;32768;0.7579089;0.6204986;-0.1869806;0.07479224;12;18;-6;89;-3997;-947;256;-0.07617728;0.08033241;-0.534626;-0.8378059;9;4;1;6;3944;-1650;128;0.1024931;-0.1066482;0.6246537;0.7667654;-13;8;-2;32;4146;486;4;0.6209731;-0.5734072;0.3961219;0.3587258;4;22;-4;32;4028;242;16;0.5734072;-0.7124662;-0.2382271;-0.3268698;0;-19;-6;233;4053;938;2;0.539283;-0.4958449;-0.4792244;-0.4833795;-3;1;2;-190;4052;210;8;0.6468144;-0.7379166;0.09972299;0.1648199;-5;1;0;-381;4117;485;0.6574315;2.809772;-0.1975353;0.6634066;3.354286;-0.2305487;0.6686573;3.832791;-0.2615864;0.6963033;4.500135;0.04230449;0.4507711;4.823231;0.1426598;0.103393;4.683706;0.1420631;-0.3547941;5.439698;-0.1351893;-0.6077898;6.310008;-0.4115068;0.9706693;4.801697;0.1426603;1.252977;4.636087;0.1420643;1.640159;5.474818;-0.1316068;1.784227;6.390747;-0.3268167;0.3451726;2.767313;-0.2024226;0.2156987;1.310027;-0.222777;0;0;0;0.3451726;2.767313;-0.2024226;0.2156987;1.310027;-0.222777;0;0;0
110486.9741;NotLabelled;NONE;16384;0.8228115;0.5263157;0.1703601;0.1301939;-21;-3;4;1974;-3596;1654;65536;0.7974749;0.5775623;0;0.1745152;11;-2;-3;-1613;-4031;-690;8192;0.7580202;0.5096953;-0.3836565;0.1357341;-4;24;-2;-886;-3824;1606;32768;0.7572492;0.6218836;-0.1855956;0.0734072;13;23;-7;159;-3933;-857;256;-0.07756232;0.08033241;-0.534626;-0.8376788;-5;3;6;138;3940;-1732;128;0.1038781;-0.1066482;0.6218836;0.7688278;-9;-2;-5;-120;4152;714;4;0.621373;-0.5747922;0.3947368;0.3573407;3;5;-5;-404;3970;64;16;0.5747922;-0.7135358;-0.2354571;-0.3240997;0;-27;-7;165;4133;826;2;0.5405532;-0.4944598;-0.4792244;-0.4833795;-2;0;-1;-126;4020;112;8;0.6454294;-0.7393138;0.09833795;0.1648199;-6;0;0;-323;4211;579;0.6520315;2.809871;-0.2048839;0.6580076;3.354481;-0.2362833;0.6632593;3.833076;-0.2659027;0.6911024;4.499414;0.04017091;0.4456723;4.822268;0.1415482;0.09824423;4.68287;0.1404489;-0.358323;5.441368;-0.1326005;-0.6119782;6.3125;-0.4057022;0.9655628;4.800547;0.1415485;1.247811;4.63484;0.1404495;1.629845;5.477603;-0.1280162;1.773454;6.395286;-0.3151634;0.3397727;2.767427;-0.2099071;0.2156299;1.309616;-0.2252467;0;0;0;0.3397727;2.767427;-0.2099071;0.2156299;1.309616;-0.2252467;0;0;0
110507.6195;NotLabelled;NONE;16384;0.8210329;0.5290859;0.1703601;0.1301939;-20;-3;3;1672;-3330;1784;65536;0.7964699;0.5789474;0;0.1745152;11;-1;-4;-1225;-3831;-816;8192;0.7582783;0.5110803;-0.3822715;0.132964;-2;16;0;-906;-3628;1910;32768;0.7560335;0.6246537;-0.1828255;0.06925207;13;21;-8;475;-3947;-861;256;-0.07894737;0.08033241;-0.536011;-0.8366637;-13;5;5;152;3846;-1682;128;0.1038781;-0.1052632;0.6204986;0.7701367;-8;-5;-4;-220;4094;692;4;0.6183168;-0.5761772;0.3975069;0.3573407;1;-17;-2;-332;3884;60;16;0.5761772;-0.7158187;-0.232687;-0.3185596;0;-18;-6;123;3943;1072;2;0.5393221;-0.4944598;-0.4806094;-0.4833795;-3;5;0;-50;4204;168;8;0.6454294;-0.7393138;0.09833795;0.1648199;-6;3;0;-349;4351;513;0.6491622;2.810091;-0.2066046;0.6551403;3.354893;-0.2344706;0.6603941;3.833671;-0.2609848;0.6897774;4.500072;0.04480621;0.4450933;4.823532;0.1460511;0.09734517;4.684935;0.1450166;-0.35863;5.445947;-0.1219591;-0.6137491;6.318761;-0.3882431;0.9649324;4.800615;0.1460517;1.246798;4.634258;0.1450179;1.627099;5.477219;-0.1252844;1.770154;6.39543;-0.3102504;0.3369038;2.767681;-0.2119253;0.2142041;1.309734;-0.2259196;0;0;0;0.3369038;2.767681;-0.2119253;0.2142041;1.309734;-0.2259196;0;0;0
110527.6314;NotLabelled;NONE;16384;0.8180087;0.534626;0.16759;0.1301939;-17;-6;3;1584;-3278;1622;65536;0.793433;0.5831025;0;0.1745152;12;2;-5;-1279;-3681;-946;8192;0.7575849;0.5124654;-0.3822715;0.1315789;-5;6;4;-1002;-3334;2000;32768;0.7550128;0.6260388;-0.1828255;0.06786703;10;10;-10;355;-3813;-841;256;-0.08033241;0.07894737;-0.5387812;-0.8348826;-19;2;3;24;3620;-1686;128;0.1038781;-0.1052632;0.6204986;0.7701367;-6;-3;-4;12;4038;888;4;0.6166205;-0.5761772;0.398892;0.3587258;0;-14;0;-262;3868;198;16;0.5775623;-0.7157664;-0.2313019;-0.3171745;0;-10;-4;111;3907;1164;2;0.5405887;-0.4930748;-0.4806094;-0.4833795;-3;7;0;-110;4060;242;8;0.6454294;-0.7398041;0.09695291;0.1634349;-6;5;0;-255;4189;515;0.640126;2.810649;-0.2218161;0.6461052;3.355546;-0.2477573;0.65136;3.834414;-0.27258;0.6820878;4.501884;0.0307405;0.4380485;4.82619;0.1308288;0.09003218;4.688264;0.1303633;-0.3652616;5.451759;-0.1306195;-0.6205865;6.325563;-0.3934344;0.9578421;4.802264;0.1308294;1.239385;4.635358;0.1303647;1.61993;5.478193;-0.1399831;1.763834;6.397115;-0.3207109;0.3278679;2.768257;-0.2272986;0.2075444;1.310049;-0.2302721;0;0;0;0.3278679;2.768257;-0.2272986;0.2075444;1.310049;-0.2302721;0;0;0
110548.7143;NotLabelled;NONE;16384;0.8161915;0.5373961;0.16759;0.1301939;-18;-1;1;1440;-3280;1666;65536;0.7924132;0.5844875;0;0.1745152;11;6;-6;-843;-3681;-826;8192;0.7566461;0.5138504;-0.3822715;0.1315789;-5;-1;8;-606;-3396;1632;32768;0.7536484;0.6274238;-0.1842105;0.06648199;8;0;-10;441;-3751;-867;256;-0.08033241;0.07894737;-0.5401662;-0.8339871;-14;0;3;88;3502;-1626;128;0.1024931;-0.1052632;0.6191136;0.7714358;-7;-5;-3;100;3902;662;4;0.6162081;-0.5747922;0.400277;0.3601108;0;-10;0;-130;3882;170;16;0.5761772;-0.7179381;-0.2299169;-0.3157895;0;-6;-2;75;3947;1204;2;0.5393541;-0.4930748;-0.4819945;-0.4833795;-1;4;0;-312;3988;204;8;0.6440443;-0.7410102;0.09695291;0.1634349;-5;4;0;-289;4199;609;0.6368318;2.811391;-0.222158;0.642811;3.356288;-0.2480993;0.6480659;3.835156;-0.272922;0.6809538;4.504618;0.02574435;0.4379492;4.830364;0.1236555;0.08950935;4.693512;0.1242598;-0.3598497;5.463115;-0.1289511;-0.6143434;6.339836;-0.3827035;0.9576666;4.804836;0.1236554;1.238693;4.637064;0.1242601;1.62053;5.480221;-0.1432455;1.76635;6.399436;-0.3209182;0.3245736;2.769;-0.2276405;0.2067235;1.310586;-0.2279388;0;0;0;0.3245736;2.769;-0.2276405;0.2067235;1.310586;-0.2279388;0;0;0
110569.7834;NotLabelled;NONE;16384;0.8152779;0.5387812;0.16759;0.1301939;-17;1;-2;1548;-3194;1710;65536;0.7916927;0.5858725;-0.001385042;0.1731302;10;8;-6;-941;-3581;-858;8192;0.7552415;0.5152354;-0.3836565;0.1301939;-4;-3;13;-986;-3450;1698;32768;0.7509928;0.6301939;-0.1855956;0.06648199;11;-3;-8;359;-3717;-763;256;-0.08033241;0.07894737;-0.5415512;-0.8330884;-10;0;3;-60;3512;-1358;128;0.1024931;-0.1038781;0.6191136;0.7716236;-7;-7;-4;144;3766;784;4;0.6144935;-0.5747922;0.4016621;0.3614958;0;-7;0;36;3768;282;16;0.5761772;-0.7185457;-0.2299169;-0.3144044;0;-2;-2;33;3951;1164;2;0.540617;-0.4916897;-0.4819945;-0.4833795;1;-2;0;-204;4006;306;8;0.6440443;-0.7414941;0.09556787;0.1620499;-4;1;0;-369;4155;847;0.6389166;2.809911;-0.2278349;0.6448969;3.354911;-0.2515477;0.6501527;3.833875;-0.2744121;0.6828451;4.504325;0.02205303;0.4397378;4.830301;0.118935;0.09134804;4.693325;0.1200438;-0.3569681;5.465322;-0.1276727;-0.6112582;6.342997;-0.3783146;0.9594644;4.804962;0.1189352;1.240552;4.637294;0.1200446;1.62191;5.481554;-0.1446542;1.771549;6.400822;-0.3188385;0.3266588;2.767543;-0.2335046;0.2073838;1.309246;-0.2349354;0;0;0;0.3266588;2.767543;-0.2335046;0.2073838;1.309246;-0.2349354;0;0;0
110589.6285;NotLabelled;NONE;16384;0.8142949;0.5401662;0.1689751;0.1288089;-16;10;-2;1696;-3278;1584;65536;0.7912685;0.5872576;0;0.1703601;10;13;-5;-1021;-3633;-780;8192;0.7528794;0.5166205;-0.3864266;0.1301939;-6;-9;15;-928;-3454;1608;32768;0.7506491;0.6301939;-0.1869806;0.06648199;10;-7;-9;535;-3781;-857;256;-0.08033241;0.07756232;-0.5415512;-0.8332185;9;-5;4;-2;3558;-1450;128;0.09972299;-0.1024931;0.6177285;0.77328;-6;-5;-3;52;3758;756;4;0.6153966;-0.5747922;0.400277;0.3614958;4;7;1;164;3808;196;16;0.5761772;-0.7185457;-0.2299169;-0.3144044;0;0;-1;9;4027;1064;2;0.5405923;-0.4930748;-0.4819945;-0.4819945;-2;-8;0;-58;4076;260;8;0.6426592;-0.7423913;0.09556787;0.1634349;-3;-5;0;-367;4203;735;0.6337597;2.8102;-0.2324476;0.6397402;3.355199;-0.2561542;0.644996;3.834165;-0.2790132;0.6774915;4.505596;0.01524544;0.434281;4.831799;0.1110962;0.08594115;4.694702;0.1127102;-0.3618022;5.467881;-0.1323346;-0.6123584;6.347291;-0.3806464;0.9540169;4.806649;0.1110965;1.235165;4.639088;0.1127109;1.619545;5.483302;-0.1477283;1.771505;6.40353;-0.3146874;0.3215019;2.767831;-0.2381179;0.2047407;1.309331;-0.2367719;0;0;0;0.3215019;2.767831;-0.2381179;0.2047407;1.309331;-0.2367719;0;0;0
110610.8447;NotLabelled;NONE;16384;0.8133036;0.5415512;0.1703601;0.1274238;-13;8;-2;1276;-3386;1432;65536;0.7895029;0.5900277;0;0.1689751;11;6;-8;-883;-3651;-882;8192;0.7512099;0.5166205;-0.3891967;0.1315789;-6;-12;18;-734;-3560;1610;32768;0.7491372;0.6315789;-0.1883656;0.06648199;11;-5;-6;477;-3847;-831;256;-0.07894737;0.07617728;-0.5401662;-0.8343769;13;-7;3;42;3678;-1570;128;0.09972299;-0.1024931;0.6163435;0.7743844;-4;-3;-2;-4;3798;862;4;0.6150006;-0.5761772;0.398892;0.3614958;4;14;0;-148;4086;250;16;0.5761772;-0.718101;-0.2313019;-0.3144044;1;3;0;41;4181;1154;2;0.541824;-0.4930748;-0.4819945;-0.4806094;-2;-4;0;-24;4108;156;8;0.6412742;-0.743588;0.09556787;0.1634349;-4;-7;0;-305;4195;627;0.6336181;2.810227;-0.2280015;0.6395996;3.35533;-0.2491765;0.6448566;3.834397;-0.2698106;0.6783741;4.505767;0.02447003;0.4356606;4.832338;0.120331;0.08711222;4.695771;0.1219399;-0.3600337;5.470161;-0.1203615;-0.6088076;6.350722;-0.3663728;0.9553573;4.806396;0.1203315;1.236251;4.638406;0.1219409;1.624565;5.482987;-0.131382;1.778931;6.402977;-0.2974324;0.3213606;2.767885;-0.2338845;0.2052917;1.309331;-0.2362941;0;0;0;0.3213606;2.767885;-0.2338845;0.2052917;1.309331;-0.2362941;0;0;0
110630.9571;NotLabelled;NONE;16384;0.8123797;0.5429363;0.1703601;0.1274238;-12;1;-4;1402;-3312;1644;65536;0.7887565;0.5914127;-0.002770083;0.16759;12;-1;-9;-809;-3717;-896;8192;0.748812;0.5180055;-0.3919668;0.1315789;-6;-11;21;-790;-3648;1538;32768;0.7474927;0.632964;-0.1897507;0.06786703;13;-3;-4;393;-3797;-837;256;-0.07756232;0.07617728;-0.5387812;-0.8354017;14;-7;2;14;3714;-1696;128;0.09972299;-0.101108;0.6163435;0.7745665;-7;-5;-2;98;3958;746;4;0.616219;-0.5775623;0.3975069;0.3587258;0;4;2;-240;4064;148;16;0.5761772;-0.7174931;-0.2313019;-0.3157895;2;6;0;183;4029;1072;2;0.541824;-0.4930748;-0.4819945;-0.4806094;-3;-1;-1;-152;3992;124;8;0.6412742;-0.7431029;0.09695291;0.1648199;-4;-5;0;-297;4171;469;0.6274485;2.81105;-0.2264854;0.6334308;3.356224;-0.2457479;0.6386885;3.83536;-0.2647012;0.6718729;4.505637;0.03209904;0.4290062;4.831746;0.1291376;0.08051427;4.69503;0.1301696;-0.365587;5.470622;-0.1102007;-0.6114336;6.353363;-0.3512942;0.9487138;4.80602;0.129138;1.229676;4.638142;0.1301705;1.621252;5.482794;-0.1178326;1.778414;6.403121;-0.2793404;0.3151912;2.768729;-0.2325287;0.2037565;1.309813;-0.2349441;0;0;0;0.3151912;2.768729;-0.2325287;0.2037565;1.309813;-0.2349441;0;0;0
110651.7836;NotLabelled;NONE;16384;0.8101511;0.5457063;0.1731302;0.1260388;-15;11;-5;1674;-3444;1496;65536;0.7872607;0.5941828;-0.001385042;0.1648199;13;10;-7;-1201;-3805;-852;8192;0.7466222;0.5180055;-0.3961219;0.1315789;-4;-19;22;-1016;-3518;1676;32768;0.7463177;0.634349;-0.1897507;0.06786703;15;-4;-3;505;-3731;-731;256;-0.07617728;0.07479224;-0.5373961;-0.8365456;10;-5;1;-58;3692;-1556;128;0.09833795;-0.101108;0.6163435;0.7747436;-3;-7;-1;104;3978;810;4;0.6154106;-0.5775623;0.3975069;0.3601108;-2;-4;4;-458;3910;156;16;0.5747922;-0.7181558;-0.232687;-0.3157895;2;9;0;157;4079;1008;2;0.5430529;-0.4930748;-0.4806094;-0.4806094;-2;-3;-2;-294;3998;96;8;0.6412742;-0.7431029;0.09695291;0.1648199;-5;-4;1;-243;4187;453;0.6322188;2.810834;-0.2260027;0.6382012;3.356009;-0.245259;0.6434589;3.835145;-0.2642067;0.6752879;4.504381;0.03507966;0.4317705;4.829656;0.1332806;0.08354469;4.692259;0.1337423;-0.3615832;5.469011;-0.1046803;-0.6012515;6.353868;-0.344233;0.9515272;4.804939;0.1332809;1.232816;4.637605;0.1337435;1.628102;5.482576;-0.1071846;1.785984;6.403569;-0.2641262;0.3199615;2.768513;-0.2320466;0.2067437;1.309733;-0.232774;0;0;0;0.3199615;2.768513;-0.2320466;0.2067437;1.309733;-0.232774;0;0;0
110671.6662;NotLabelled;NONE;16384;0.8089188;0.5470914;0.1745152;0.1260388;-12;6;-5;1856;-3432;1516;65536;0.785448;0.5969529;-0.002770083;0.1634349;14;6;-8;-1115;-3859;-748;8192;0.74266;0.5180055;-0.4030471;0.132964;-5;-7;12;-906;-3570;1570;32768;0.7426238;0.6371191;-0.1939058;0.07063711;9;-11;-6;613;-3925;-729;256;-0.07479224;0.07479224;-0.536011;-0.8375586;5;-4;2;-218;3770;-1710;128;0.09695291;-0.09972299;0.6163435;0.7750975;-2;-5;-1;176;3900;712;4;0.6154106;-0.5775623;0.3975069;0.3601108;-1;-9;4;-262;3924;108;16;0.5747922;-0.7170945;-0.234072;-0.3171745;2;10;0;101;3925;1040;2;0.5430529;-0.4930748;-0.4806094;-0.4806094;0;-8;-2;-290;4008;116;8;0.6398892;-0.7441142;0.09833795;0.1648199;-5;-6;1;-269;4229;621;0.6283296;2.810603;-0.2280846;0.6343121;3.355788;-0.2470416;0.6395698;3.834934;-0.2657264;0.6710513;4.503065;0.03605658;0.4273732;4.827865;0.1354255;0.07920814;4.690314;0.1353139;-0.3661112;5.468776;-0.09709994;-0.603385;6.355641;-0.3315514;0.9471406;4.803377;0.1354258;1.228503;4.636167;0.1353145;1.630279;5.48;-0.09876817;1.78888;6.401544;-0.251708;0.3160724;2.768286;-0.2341536;0.2060682;1.30926;-0.2360073;0;0;0;0.3160724;2.768286;-0.2341536;0.2060682;1.30926;-0.2360073;0;0;0
110692.6248;NotLabelled;NONE;16384;0.80768;0.5484765;0.1759003;0.1260388;-12;7;-4;1854;-3392;1674;65536;0.783335;0.599723;-0.002770083;0.1634349;13;0;-8;-995;-3847;-580;8192;0.741692;0.5193906;-0.4030471;0.132964;-2;4;11;-774;-3602;1380;32768;0.7410697;0.6385041;-0.1952908;0.07063711;9;5;-5;663;-3737;-487;256;-0.07479224;0.07479224;-0.536011;-0.8375586;1;-4;4;-98;3784;-1664;128;0.09556787;-0.09972299;0.6163435;0.7752695;0;-8;-2;136;3894;808;4;0.6150006;-0.5761772;0.398892;0.3614958;-1;-9;5;20;3904;232;16;0.5747922;-0.7160263;-0.2354571;-0.3185596;2;9;0;113;4017;1078;2;0.5454145;-0.4958449;-0.4778393;-0.4778393;0;-18;0;-12;4086;190;8;0.6385041;-0.7448112;0.09972299;0.166205;-2;-7;0;-251;4175;849;0.6288301;2.811008;-0.2251612;0.6348127;3.356203;-0.243817;0.6400706;3.83536;-0.2622369;0.6701857;4.502435;0.04201072;0.4258527;4.826388;0.1425283;0.07795801;4.688157;0.141843;-0.367812;5.467;-0.08841929;-0.6007186;6.356373;-0.3176925;0.9456673;4.80292;0.1425385;1.227357;4.636262;0.1418657;1.637481;5.478845;-0.0820269;1.799125;6.401399;-0.2253892;0.3165728;2.768694;-0.2312556;0.2065717;1.309669;-0.2332872;0;0;0;0.3165728;2.768694;-0.2312556;0.2065717;1.309669;-0.2332872;0;0;0
110713.9081;NotLabelled;NONE;16384;0.8072868;0.5484765;0.1786704;0.1246537;-11;12;-5;1810;-3448;1680;65536;0.7825608;0.601108;-0.002770083;0.1620499;12;6;-5;-1087;-3941;-692;8192;0.7402124;0.5207756;-0.4044321;0.1315789;0;0;8;-884;-3680;1568;32768;0.7403692;0.6398892;-0.1939058;0.06925207;9;8;-1;881;-3901;-309;256;-0.07202215;0.07202215;-0.5373961;-0.8371565;-1;-6;8;-38;3648;-1548;128;0.09418282;-0.09695291;0.6163435;0.7757902;-2;-12;-5;68;3930;812;4;0.6154808;-0.5747922;0.398892;0.3628809;0;-6;5;176;4014;270;16;0.5747922;-0.7149512;-0.2368421;-0.3199446;1;11;0;125;4015;1034;2;0.5465757;-0.4972299;-0.4764543;-0.4764543;0;-18;0;60;3990;152;8;0.6385041;-0.7445008;0.09972299;0.16759;-1;-8;0;-221;4093;745;0.6303493;2.811303;-0.2215606;0.6363321;3.356508;-0.2399249;0.6415901;3.835675;-0.2580887;0.671711;4.50275;0.04615825;0.42738;4.826703;0.1466804;0.07948525;4.688471;0.1460017;-0.3678504;5.467937;-0.07906219;-0.6003196;6.359033;-0.3020049;0.9471944;4.803235;0.1466808;1.228884;4.636578;0.1460027;1.638131;5.480306;-0.0751611;1.801835;6.403113;-0.2144949;0.3180922;2.768992;-0.2276794;0.2066776;1.310076;-0.2308919;0;0;0;0.3180922;2.768992;-0.2276794;0.2066776;1.310076;-0.2308919;0;0;0
110734.6421;NotLabelled;NONE;16384;0.8062488;0.5498615;0.1800554;0.1232687;-10;13;-6;1568;-3320;1694;65536;0.7817808;0.602493;-0.002770083;0.1606648;9;14;-2;-907;-3885;-622;8192;0.7404572;0.5207756;-0.4044321;0.1301939;0;5;5;-966;-3514;1530;32768;0.7392983;0.6412742;-0.1939058;0.06786703;7;2;0;845;-3871;-425;256;-0.07202215;0.06925207;-0.5373961;-0.8373902;0;-9;9;2;3598;-1586;128;0.09279778;-0.09556787;0.6163435;0.7761289;-1;-14;-6;10;3898;714;4;0.6164929;-0.5720221;0.3975069;0.367036;-4;-4;10;516;3752;280;16;0.5720221;-0.7143781;-0.2396122;-0.3240997;-5;25;0;255;3971;1006;2;0.547724;-0.4986149;-0.4750692;-0.4750692;1;-18;1;44;3978;130;8;0.6371191;-0.7451871;0.101108;0.1689751;0;-9;0;-317;4193;703;0.6327891;2.811639;-0.2120496;0.6387718;3.356854;-0.2301157;0.6440301;3.83603;-0.2480174;0.6728951;4.503894;0.05461696;0.4279498;4.827616;0.1543843;0.08032246;4.688712;0.1540768;-0.3674768;5.467588;-0.07209969;-0.5964872;6.359852;-0.2939519;0.9478087;4.805151;0.1543846;1.229819;4.639037;0.1540776;1.643546;5.482537;-0.05948836;1.808079;6.405746;-0.195138;0.3205319;2.769332;-0.2181933;0.2085184;1.310484;-0.2268908;0;0;0;0.3205319;2.769332;-0.2181933;0.2085184;1.310484;-0.2268908;0;0;0
110754.7747;NotLabelled;NONE;16384;0.8057288;0.5498615;0.1842105;0.1204986;-7;16;-8;1546;-3548;1540;65536;0.7804878;0.6052631;0;0.1565097;4;16;-3;-899;-3985;-578;8192;0.7404572;0.5207756;-0.4044321;0.1301939;1;3;3;-968;-3498;1676;32768;0.7380946;0.6426592;-0.1939058;0.06786703;4;0;0;703;-3709;-319;256;-0.07063711;0.06786703;-0.5373961;-0.8376216;3;-9;9;58;3542;-1652;128;0.09279778;-0.09279778;0.6163435;0.7764649;-1;-11;-6;-38;3822;812;4;0.6186641;-0.5706371;0.3961219;0.367036;-2;8;5;336;4436;480;16;0.5692521;-0.7150263;-0.2423823;-0.3254848;-1;25;0;133;4751;1220;2;0.5488594;-0.5;-0.4736842;-0.4736842;0;-21;0;8;4006;274;8;0.6371191;-0.7449979;0.1024931;0.1689751;0;-9;-1;-275;4221;669;0.6356425;2.810555;-0.1994956;0.6416253;3.355779;-0.2172731;0.6468835;3.834965;-0.2349212;0.6777606;4.502721;0.06775412;0.4337918;4.827174;0.1675404;0.08574736;4.689319;0.1672235;-0.3608949;5.469353;-0.05724357;-0.5871245;6.362772;-0.277287;0.9535805;4.803143;0.1675407;1.235089;4.636178;0.1672245;1.651349;5.478842;-0.0447247;1.818252;6.402183;-0.1765193;0.3233853;2.768251;-0.2056636;0.2142195;1.309336;-0.2282038;0;0;0;0.3233853;2.768251;-0.2056636;0.2142195;1.309336;-0.2282038;0;0;0
110796.6531;NotLabelled;NONE;16384;0.8042299;0.5512465;0.1883656;0.1177285;-5;11;-7;1634;-3452;1382;65536;0.7802346;0.6066482;0;0.1523546;3;17;-4;-849;-3941;-598;8192;0.7411758;0.5207756;-0.4044321;0.1260388;7;1;2;-1172;-3704;1736;32768;0.7368864;0.6440443;-0.1939058;0.06786703;-4;0;2;761;-4249;-469;256;-0.07063711;0.06648199;-0.534626;-0.8395032;14;-1;5;18;3874;-1720;128;0.0900277;-0.0900277;0.6163435;0.777117;0;-7;-6;0;3972;912;4;0.6190361;-0.5747922;0.3933518;0.3628809;3;17;-1;-576;3672;-182;16;0.5692521;-0.7123343;-0.2465374;-0.3282548;3;5;0;99;3921;996;2;0.5498249;-0.5041551;-0.4709141;-0.4709141;0;-3;-1;-174;4118;88;8;0.6371191;-0.7443641;0.1024931;0.1717452;-3;0;0;-287;4149;417;0.6390057;2.809181;-0.1969512;0.6449887;3.354406;-0.2147165;0.6502469;3.833592;-0.2323539;0.6805845;4.501246;0.07060054;0.4363545;4.825461;0.1705176;0.08842048;4.687328;0.1701363;-0.3599696;5.466828;-0.05269626;-0.5843263;6.362026;-0.2673665;0.9561622;4.801846;0.170518;1.237804;4.635107;0.1701376;1.654883;5.477769;-0.04019558;1.822323;6.401587;-0.1679189;0.3267485;2.766877;-0.2031203;0.2147026;1.308322;-0.2335011;0;0;0;0.3267485;2.766877;-0.2031203;0.2147026;1.308322;-0.2335011;0;0;0
110817.7233;NotLabelled;NONE;16384;0.8039042;0.5512465;0.1897507;0.1177285;-5;4;-5;1548;-3524;1358;65536;0.7794253;0.6080332;0;0.1509695;3;11;-4;-983;-3871;-582;8192;0.7414101;0.5207756;-0.4044321;0.1246537;7;0;2;-1114;-3540;1688;32768;0.7368864;0.6440443;-0.1939058;0.06786703;-6;0;2;641;-3971;-593;256;-0.07063711;0.06509695;-0.533241;-0.840492;12;0;4;98;3826;-1736;128;0.0900277;-0.08864266;0.6163435;0.7772762;-5;0;-3;-42;4082;968;4;0.618627;-0.5761772;0.3919668;0.3628809;3;1;0;-378;4012;24;16;0.5692521;-0.7123343;-0.2465374;-0.3282548;4;0;0;-117;4035;808;2;0.5498249;-0.5041551;-0.4709141;-0.4709141;0;2;-2;-314;4086;98;8;0.6371191;-0.7443641;0.1024931;0.1717452;-4;0;0;-373;4127;429;0.633635;2.810919;-0.197669;0.6396181;3.356162;-0.2148704;0.6448765;3.835366;-0.2320121;0.6765375;4.500947;0.0753355;0.4329654;4.825018;0.1773095;0.08473887;4.68763;0.175916;-0.3651456;5.467707;-0.04182814;-0.5840826;6.364661;-0.2547492;0.9527219;4.800297;0.17731;1.234009;4.632966;0.1759172;1.656225;5.473097;-0.03429443;1.824005;6.397376;-0.1581662;0.3213779;2.768621;-0.2038853;0.2128424;1.309676;-0.2275365;0;0;0;0.3213779;2.768621;-0.2038853;0.2128424;1.309676;-0.2275365;0;0;0
