SEP=;
index;label;segment;RightUpperArm_boneIndex;RightUpperArm_quat9x_w;RightUpperArm_quat9x_x;RightUpperArm_quat9x_y;RightUpperArm_quat9x_z;RightUpperArm_gyroscope_x;RightUpperArm_gyroscope_y;RightUpperArm_gyroscope_z;RightUpperArm_accelerometer_x;RightUpperArm_accelerometer_y;RightUpperArm_accelerometer_z;RightLowerArm_boneIndex;RightLowerArm_quat9x_w;RightLowerArm_quat9x_x;RightLowerArm_quat9x_y;RightLowerArm_quat9x_z;RightLowerArm_gyroscope_x;RightLowerArm_gyroscope_y;RightLowerArm_gyroscope_z;RightLowerArm_accelerometer_x;RightLowerArm_accelerometer_y;RightLowerArm_accelerometer_z;LeftUpperArm_boneIndex;LeftUpperArm_quat9x_w;LeftUpperArm_quat9x_x;LeftUpperArm_quat9x_y;LeftUpperArm_quat9x_z;LeftUpperArm_gyroscope_x;LeftUpperArm_gyroscope_y;LeftUpperArm_gyroscope_z;LeftUpperArm_accelerometer_x;LeftUpperArm_accelerometer_y;LeftUpperArm_accelerometer_z;LeftLowerArm_boneIndex;LeftLowerArm_quat9x_w;LeftLowerArm_quat9x_x;LeftLowerArm_quat9x_y;LeftLowerArm_quat9x_z;LeftLowerArm_gyroscope_x;LeftLowerArm_gyroscope_y;LeftLowerArm_gyroscope_z;LeftLowerArm_accelerometer_x;LeftLowerArm_accelerometer_y;LeftLowerArm_accelerometer_z;Chest_boneIndex;Chest_quat9x_w;Chest_quat9x_x;Chest_quat9x_y;Chest_quat9x_z;Chest_gyroscope_x;Chest_gyroscope_y;Chest_gyroscope_z;Chest_accelerometer_x;Chest_accelerometer_y;Chest_accelerometer_z;Spine_boneIndex;Spine_quat9x_w;Spine_quat9x_x;Spine_quat9x_y;Spine_quat9x_z;Spine_gyroscope_x;Spine_gyroscope_y;Spine_gyroscope_z;Spine_accelerometer_x;Spine_accelerometer_y;Spine_accelerometer_z;RightUpperLeg_boneIndex;RightUpperLeg_quat9x_w;RightUpperLeg_quat9x_x;RightUpperLeg_quat9x_y;RightUpperLeg_quat9x_z;RightUpperLeg_gyroscope_x;RightUpperLeg_gyroscope_y;RightUpperLeg_gyroscope_z;RightUpperLeg_accelerometer_x;RightUpperLeg_accelerometer_y;RightUpperLeg_accelerometer_z;RightLowerLeg_boneIndex;RightLowerLeg_quat9x_w;RightLowerLeg_quat9x_x;RightLowerLeg_quat9x_y;RightLowerLeg_quat9x_z;RightLowerLeg_gyroscope_x;RightLowerLeg_gyroscope_y;RightLowerLeg_gyroscope_z;RightLowerLeg_accelerometer_x;RightLowerLeg_accelerometer_y;RightLowerLeg_accelerometer_z;LeftUpperLeg_boneIndex;LeftUpperLeg_quat9x_w;LeftUpperLeg_quat9x_x;LeftUpperLeg_quat9x_y;LeftUpperLeg_quat9x_z;LeftUpperLeg_gyroscope_x;LeftUpperLeg_gyroscope_y;LeftUpperLeg_gyroscope_z;LeftUpperLeg_accelerometer_x;LeftUpperLeg_accelerometer_y;LeftUpperLeg_accelerometer_z;LeftLowerLeg_boneIndex;LeftLowerLeg_quat9x_w;LeftLowerLeg_quat9x_x;LeftLowerLeg_quat9x_y;LeftLowerLeg_quat9x_z;LeftLowerLeg_gyroscope_x;LeftLowerLeg_gyroscope_y;LeftLowerLeg_gyroscope_z;LeftLowerLeg_accelerometer_x;LeftLowerLeg_accelerometer_y;LeftLowerLeg_accelerometer_z;pelvis_x;pelvis_y;pelvis_z;lowerSpine_x;lowerSpine_y;lowerSpine_z;middleSpine_x;middleSpine_y;middleSpine_z;upperSpine_x;upperSpine_y;upperSpine_z;rightClavicle_x;rightClavicle_y;rightClavicle_z;rightShoulder_x;rightShoulder_y;rightShoulder_z;rightElbow_x;rightElbow_y;rightElbow_z;rightWrist_x;rightWrist_y;rightWrist_z;leftClavicle_x;leftClavicle_y;leftClavicle_z;leftShoulder_x;leftShoulder_y;leftShoulder_z;leftElbow_x;leftElbow_y;leftElbow_z;leftWrist_x;leftWrist_y;leftWrist_z;rightHip_x;rightHip_y;rightHip_z;rightKnee_x;rightKnee_y;rightKnee_z;rightAnkle_x;rightAnkle_y;rightAnkle_z;leftHip_x;leftHip_y;leftHip_z;leftKnee_x;leftKnee_y;leftKnee_z;leftAnkle_x;leftAnkle_y;leftAnkle_z;
741056.7109;NotLabelled;NONE;16384;0.7114869;-0.5304709;0.3919668;0.2423823;8;0;-30;-674;3926;1924;65536;0.7591215;-0.5969529;0.1869806;0.1800554;-15;-12;37;-500;4230;-1421;8192;0.67027;-0.4972299;-0.4058172;-0.3725762;18;15;11;-932;4642;330;32768;0.7773378;-0.5484765;-0.2576177;-0.1689751;-18;1;15;-279;4627;-1097;256;-0.1357341;0.05401662;-0.7338342;-0.6634349;-7;-11;25;1078;4396;1006;128;0.1468144;-0.09418282;0.708118;0.6842105;11;-14;-25;-416;4716;-32;4;0.6245294;-0.4958449;0.4182825;0.434903;0;-24;52;754;4278;382;16;0.602493;-0.7373328;-0.1620499;-0.2590028;-51;31;-8;73;4709;676;2;0.5555985;-0.4196676;-0.4819945;-0.5318559;-20;38;14;-858;3922;470;8;0.6288089;-0.7195754;0.1634349;0.2451524;18;6;4;305;4391;599;0.69089;2.797433;-0.06513983;0.696615;3.319136;-0.2245584;0.7016408;3.777122;-0.3666216;0.7630448;4.504283;-0.4436301;0.5322219;4.845256;-0.5157827;0.1809508;4.741623;-0.4382719;-0.1112984;3.864435;-0.4971136;-0.2220366;2.945416;-0.6994448;1.050721;4.801475;-0.5157838;1.32744;4.644814;-0.4382733;1.443778;3.711793;-0.6485379;1.575997;2.822804;-0.9485478;0.3786325;2.755103;-0.05916378;0.1856143;1.31424;-0.2250483;0;0;0;0.3786325;2.755103;-0.05916378;0.1856143;1.31424;-0.2250483;0;0;0
741077.6777;NotLabelled;NONE;16384;0.708818;-0.533241;0.3947368;0.2396122;12;4;-25;-618;3652;2178;65536;0.758086;-0.5969529;0.1911357;0.1800554;-14;-19;27;-540;3988;-1493;8192;0.6667778;-0.4986149;-0.4085872;-0.3739612;16;15;20;-1146;4470;416;32768;0.7756826;-0.5512465;-0.2548476;-0.1717452;-18;1;10;-203;4593;-987;256;-0.1357341;0.04847645;-0.734221;-0.6634349;-4;-32;21;1094;4378;1150;128;0.1454294;-0.08864266;0.7091183;0.6842105;3;-39;-22;-564;4442;-76;4;0.6258289;-0.4903047;0.4141274;0.4432133;5;-31;58;1192;4110;780;16;0.5955678;-0.7408652;-0.1648199;-0.2631579;-51;37;-8;-567;4761;1254;2;0.5515075;-0.4168975;-0.4875346;-0.533241;-16;22;18;-926;3910;-258;8;0.6301939;-0.7193021;0.1634349;0.2423823;21;12;0;231;4363;607;0.6942566;2.789915;-0.06924443;0.699969;3.31047;-0.232378;0.7049835;3.767431;-0.3777024;0.7784821;4.492694;-0.4616903;0.5533322;4.836784;-0.5369048;0.2004498;4.739794;-0.4581262;-0.0997982;3.864241;-0.4979556;-0.2186832;2.941667;-0.6782923;1.071025;4.784325;-0.5369064;1.345157;4.623795;-0.4581285;1.457761;3.689284;-0.6637633;1.585438;2.798825;-0.9613682;0.3819997;2.747629;-0.06294238;0.1905552;1.309096;-0.2495678;0;0;0;0.3819997;2.747629;-0.06294238;0.1905552;1.309096;-0.2495678;0;0;0
741097.6739;NotLabelled;NONE;16384;0.7071556;-0.534626;0.3975069;0.2368421;15;15;-17;-792;3574;2312;65536;0.7562885;-0.5983379;0.1939058;0.1800554;-15;-16;15;-570;3852;-1521;8192;0.6624424;-0.5041551;-0.4113573;-0.3711911;11;-7;26;-1450;4560;160;32768;0.7718621;-0.5567867;-0.2534626;-0.1731302;-22;-7;-7;-27;4253;-773;256;-0.134349;0.04155125;-0.7349;-0.6634349;-1;-28;17;1396;4086;850;128;0.1440443;-0.08171745;0.7088951;0.6855956;8;-32;-19;-746;4140;-50;4;0.6271012;-0.4833795;0.4113573;0.4515235;4;-36;54;1912;4162;976;16;0.5872576;-0.7450635;-0.1689751;-0.267313;-42;48;-13;-617;4609;1894;2;0.5505693;-0.4182825;-0.4889196;-0.5318559;-7;-7;22;-804;3942;-814;8;0.634349;-0.716108;0.1634349;0.2409972;22;18;-2;-363;4385;609;0.6957416;2.782116;-0.05693418;0.7014503;3.302335;-0.2211361;0.7064617;3.758997;-0.3673983;0.7858316;4.483533;-0.4523128;0.5634637;4.82935;-0.5278814;0.2098306;4.735333;-0.4488664;-0.09046241;3.859617;-0.4845789;-0.2126704;2.936798;-0.6614003;1.080712;4.772678;-0.5279878;1.353555;4.610021;-0.4491004;1.469307;3.674429;-0.647958;1.591569;2.781168;-0.9393752;0.3834848;2.739843;-0.0505383;0.1969459;1.304787;-0.2665863;0;0;0;0.3834848;2.739843;-0.0505383;0.1969459;1.304787;-0.2665863;0;0;0
741118.6918;NotLabelled;NONE;16384;0.7074866;-0.536011;0.3975069;0.232687;12;21;-8;-1102;3434;2250;65536;0.7549074;-0.5983379;0.1966759;0.1828255;-17;-10;3;-458;3776;-1565;8192;0.6608114;-0.5083103;-0.4113573;-0.368421;11;-20;25;-1196;4672;-50;32768;0.7691584;-0.5609418;-0.2534626;-0.1717452;-25;-7;-19;121;4549;-917;256;-0.1357341;0.03601108;-0.7349378;-0.6634349;-2;-2;13;1522;3746;378;128;0.1454294;-0.07617728;0.7105655;0.6842105;14;-12;-15;-1050;3996;-530;4;0.6279281;-0.4806094;0.4072022;0.4570637;16;5;35;1690;4052;442;16;0.5817174;-0.7471308;-0.1745152;-0.2700831;-34;44;-20;-113;4109;2366;2;0.54834;-0.4279778;-0.4875346;-0.5277008;6;-24;23;-468;4054;-654;8;0.6412742;-0.7122522;0.1592798;0.2368421;15;13;-5;-167;4189;-163;0.6998383;2.772549;-0.04731229;0.7055497;3.292998;-0.2107802;0.7105632;3.749866;-0.3563981;0.795968;4.4736;-0.4422983;0.5764912;4.821154;-0.5183513;0.2220839;4.730193;-0.4392268;-0.08073926;3.85505;-0.4666507;-0.2023543;2.931334;-0.6391475;1.09325;4.760176;-0.5183526;1.364725;4.59536;-0.4392282;1.483982;3.656696;-0.620783;1.605293;2.759108;-0.8990054;0.3875814;2.730268;-0.04098093;0.2029153;1.299684;-0.2863124;0;0;0;0.3875814;2.730268;-0.04098093;0.2029153;1.299684;-0.2863124;0;0;0
741138.87;NotLabelled;NONE;16384;0.7067364;-0.5387812;0.3975069;0.2285319;9;22;-5;-984;3460;2194;65536;0.7534702;-0.599723;0.1966759;0.1842105;-17;-6;-6;-182;3778;-1655;8192;0.6599051;-0.5124654;-0.4113573;-0.3642659;11;-23;21;-692;4600;-90;32768;0.7662673;-0.5650969;-0.2548476;-0.1689751;-24;-8;-30;209;4671;-891;256;-0.1385041;0.033241;-0.7345514;-0.6634349;-5;-2;12;1412;3582;242;128;0.1468144;-0.07202215;0.7120447;0.6828254;10;0;-13;-1270;3950;-812;4;0.6321998;-0.4889196;0.3919668;0.4556787;42;74;11;464;2968;300;16;0.5650969;-0.7549683;-0.1883656;-0.2742382;-28;70;-16;-1555;3169;2232;2;0.546409;-0.432133;-0.4875346;-0.5263157;9;-10;14;-822;4070;76;8;0.6440443;-0.7109757;0.1578947;0.234072;8;18;-4;-601;4175;-339;0.6915708;2.767117;-0.03889075;0.697272;3.286641;-0.2052767;0.7022765;3.742685;-0.3534561;0.7949415;4.465436;-0.4400985;0.5789599;4.815102;-0.5164768;0.2236663;4.727788;-0.4372177;-0.08196729;3.853562;-0.4626589;-0.2024765;2.929436;-0.6337223;1.09508;4.748932;-0.5164781;1.364895;4.581475;-0.4372198;1.485655;3.641325;-0.6098781;1.609453;2.7412;-0.8786459;0.3793144;2.724871;-0.03230303;0.2019286;1.297097;-0.2984835;0;0;0;0.3793144;2.724871;-0.03230303;0.2019286;1.297097;-0.2984835;0;0;0
741159.6851;NotLabelled;NONE;16384;0.7083753;-0.5415512;0.3947368;0.2216066;3;23;-4;-522;3262;1986;65536;0.752455;-0.599723;0.1952908;0.1897507;-16;-10;-24;-44;3530;-1611;8192;0.6590499;-0.5166205;-0.4099723;-0.3614958;8;-14;18;-130;4536;-102;32768;0.7628638;-0.5692521;-0.2576177;-0.166205;-22;-5;-38;261;4675;-857;256;-0.1398892;0.03047091;-0.7344091;-0.6634349;-8;-4;10;1608;3444;300;128;0.1509695;-0.07063711;0.7126412;0.6814404;5;14;-10;-1470;3816;-460;4;0.6328064;-0.4972299;0.3836565;0.4529086;46;50;3;-128;3112;642;16;0.5554016;-0.7549964;-0.2022161;-0.2839335;-24;130;5;-1413;3153;2234;2;0.5453108;-0.433518;-0.4875346;-0.5263157;6;6;5;-1036;4098;232;8;0.6468144;-0.7095239;0.1551246;0.232687;3;22;-1;-557;4181;-137;0.6528728;2.757168;-0.06384882;0.6585646;3.275839;-0.2328751;0.6635609;3.731123;-0.3833722;0.7618285;4.453082;-0.4704514;0.5485412;4.804391;-0.5468581;0.1926299;4.719907;-0.4673048;-0.1140063;3.84597;-0.490523;-0.2314265;2.920979;-0.659045;1.064126;4.734177;-0.5471877;1.332676;4.56465;-0.4680326;1.455524;3.624269;-0.6379354;1.583719;2.722071;-0.8975365;0.3406166;2.714957;-0.05702892;0.191093;1.287766;-0.3427363;0;0;0;0.3406166;2.714957;-0.05702892;0.191093;1.287766;-0.3427363;0;0;0
741180.8232;NotLabelled;NONE;16384;0.7089465;-0.5429363;0.3933518;0.2188366;5;19;-4;-282;2986;1786;65536;0.7521095;-0.599723;0.1925208;0.1939058;-16;-5;-25;-54;3428;-1571;8192;0.6575214;-0.5193906;-0.4113573;-0.3587258;3;1;19;416;4368;-184;32768;0.7596988;-0.5734072;-0.2603878;-0.1620499;-18;0;-38;291;4625;-677;256;-0.1454294;0.02493075;-0.7335414;-0.6634349;3;8;5;1790;3332;432;128;0.1592798;-0.07063711;0.71083;0.6814404;-2;28;-9;-1508;3474;122;4;0.6334639;-0.5041551;0.3767313;0.4501385;33;55;-11;-818;3462;952;16;0.5443213;-0.7534944;-0.2174515;-0.2977839;-12;142;12;41;3179;2012;2;0.5437272;-0.432133;-0.4875346;-0.5290859;1;22;-2;-972;4102;120;8;0.6481994;-0.7097632;0.1523546;0.2299169;-1;18;0;-619;4205;29;0.6308267;2.755044;-0.07805681;0.6365106;3.272992;-0.2492846;0.6414996;3.727633;-0.401714;0.7441275;4.448952;-0.4890648;0.5329862;4.801494;-0.5657535;0.1765312;4.719173;-0.4863663;-0.1329069;3.846095;-0.5040604;-0.2418364;2.92069;-0.6759824;1.048143;4.728201;-0.5657549;1.315629;4.55711;-0.4863685;1.438129;3.61463;-0.6444846;1.573668;2.710536;-0.8935465;0.3185709;2.712862;-0.07104309;0.192003;1.283606;-0.3575162;0;0;0;0.3185709;2.712862;-0.07104309;0.192003;1.283606;-0.3575162;0;0;0
741201.6688;NotLabelled;NONE;16384;0.7090777;-0.5443213;0.3919668;0.2174515;13;16;-2;-180;2914;1630;65536;0.7520941;-0.599723;0.1897507;0.1966759;-17;0;-23;-32;3328;-1479;8192;0.6535768;-0.5221606;-0.4141274;-0.3587258;-2;16;21;556;4328;-224;32768;0.7575076;-0.5747922;-0.2645429;-0.1606648;-12;8;-32;269;4493;-703;256;-0.1481994;0.02493075;-0.7329867;-0.6634349;10;14;1;1762;3416;468;128;0.1634349;-0.07063711;0.7098862;0.6814404;-4;12;-5;-1434;3532;-112;4;0.6341298;-0.5138504;0.3739612;0.4404432;28;90;-22;-986;3924;586;16;0.5401662;-0.7495698;-0.2257618;-0.3088643;8;68;11;2229;3335;1866;2;0.5419726;-0.4293629;-0.4889196;-0.5318559;-2;32;-4;-822;3976;196;8;0.6481994;-0.7105061;0.1509695;0.2285319;-4;8;0;-401;4093;311;0.6204224;2.751636;-0.09229203;0.6261062;3.269571;-0.2635612;0.6310951;3.7242;-0.4160271;0.7450265;4.443739;-0.5040399;0.5394374;4.799484;-0.5810187;0.1817448;4.722844;-0.5015119;-0.1283263;3.849962;-0.5177338;-0.2294435;2.92443;-0.6936958;1.053379;4.718111;-0.5810202;1.318157;4.542911;-0.5015142;1.443668;3.599689;-0.652699;1.58731;2.694206;-0.8919821;0.3081667;2.709455;-0.08527467;0.1991312;1.278637;-0.3711608;0;0;0;0.3081667;2.709455;-0.08527467;0.1991312;1.278637;-0.3711608;0;0;0
741222.7487;NotLabelled;NONE;16384;0.7070607;-0.5484765;0.3905817;0.2160665;20;13;0;-174;2964;1658;65536;0.7509519;-0.601108;0.1869806;0.199446;-18;-1;-20;110;3236;-1363;8192;0.6471183;-0.5235457;-0.4224377;-0.3587258;-14;30;23;-18;4296;-170;32768;0.7531379;-0.5775623;-0.2700831;-0.1620499;0;21;-14;435;4339;-611;256;-0.1509695;0.02631579;-0.7311156;-0.66482;10;25;-4;1582;3410;548;128;0.1648199;-0.06925207;0.7097024;0.6814404;0;8;1;-1086;3622;-274;4;0.6350895;-0.5249307;0.3698061;0.4293629;24;79;-33;-1184;4116;590;16;0.5443213;-0.746558;-0.2257618;-0.3088643;35;-51;8;3083;3449;1748;2;0.536011;-0.4210526;-0.4930748;-0.5406331;-2;28;-4;-1022;3686;444;8;0.6468144;-0.7116135;0.1495845;0.2299169;-3;-5;1;-543;4279;801;0.6225259;2.755611;-0.1116465;0.6282095;3.273539;-0.2829382;0.6331984;3.728161;-0.4354239;0.7498267;4.447261;-0.5234897;0.545572;4.803771;-0.6004916;0.1875954;4.728477;-0.5209751;-0.1214867;3.855213;-0.5353553;-0.2169881;2.92972;-0.7146297;1.059205;4.720469;-0.6004933;1.323325;4.544282;-0.5209779;1.449204;3.599637;-0.6626632;1.598808;2.693972;-0.8977344;0.3102693;2.71343;-0.1046302;0.2083172;1.277898;-0.3686576;0;0;0;0.3102693;2.71343;-0.1046302;0.2083172;1.277898;-0.3686576;0;0;0
741243.692;NotLabelled;NONE;16384;0.7056688;-0.5512465;0.3891967;0.2160665;25;9;1;-154;2976;1634;65536;0.7494432;-0.602493;0.1855956;0.2022161;-19;-8;-15;274;3186;-1287;8192;0.644738;-0.5221606;-0.4265928;-0.3601108;-18;28;22;-400;4310;-172;32768;0.7515366;-0.5775623;-0.2728532;-0.1648199;4;19;-10;551;4361;-561;256;-0.1537396;0.02908587;-0.7304331;-0.66482;6;27;-11;1252;3614;518;128;0.166205;-0.07063711;0.7092427;0.6814404;-7;11;7;-656;3526;-122;4;0.6348916;-0.5318559;0.3698061;0.4210526;13;34;-38;-1194;4208;1318;16;0.5540166;-0.7466428;-0.2146814;-0.299169;48;-133;-7;827;3795;2060;2;0.536011;-0.4182825;-0.4944598;-0.5415177;1;14;-2;-1190;3960;602;8;0.6454294;-0.712578;0.1509695;0.2299169;-2;-13;0;-377;4195;775;0.610684;2.764221;-0.1226407;0.6163669;3.282076;-0.2941509;0.6213551;3.736634;-0.4468284;0.7401013;4.455771;-0.5317054;0.5371158;4.812984;-0.6087966;0.1784764;4.738207;-0.5318208;-0.1273835;3.863802;-0.5458107;-0.2148255;2.937611;-0.7255929;1.050556;4.728559;-0.6058059;1.313781;4.551527;-0.5252068;1.446592;3.60608;-0.6546899;1.603007;2.698726;-0.8783662;0.2984282;2.722043;-0.1156021;0.206529;1.281719;-0.3561863;0;0;0;0.2984282;2.722043;-0.1156021;0.206529;1.281719;-0.3561863;0;0;0
741264.6838;NotLabelled;NONE;16384;0.7045956;-0.5540166;0.3864266;0.2174515;28;12;5;-46;3112;1600;65536;0.747916;-0.6038781;0.1842105;0.2049861;-21;-10;-8;-54;3292;-1123;8192;0.6430935;-0.5207756;-0.4307479;-0.3601108;-17;27;22;-626;4384;-60;32768;0.7517906;-0.5761772;-0.2742382;-0.166205;7;20;-9;469;4441;-593;256;-0.1551246;0.033241;-0.731222;-0.6634349;0;23;-17;1104;3804;502;128;0.166205;-0.07479224;0.7074825;0.6828254;-18;12;13;-476;3634;-478;4;0.6307371;-0.533241;0.3795014;0.4168975;-19;-65;-37;-1036;4338;1050;16;0.5747922;-0.7487748;-0.1897507;-0.2700831;48;-121;-10;-207;3767;2178;2;0.536011;-0.4182825;-0.4930748;-0.5427791;0;-7;3;-1226;4044;462;8;0.6440443;-0.7126372;0.1523546;0.232687;-1;-17;0;-295;4267;641;0.6022013;2.772638;-0.1325677;0.6078848;3.29056;-0.3038751;0.6128736;3.745177;-0.4563746;0.7308965;4.464417;-0.5413972;0.5273565;4.821619;-0.6170653;0.169187;4.746665;-0.5380995;-0.1301797;3.869907;-0.5405622;-0.2135263;2.943094;-0.7190743;1.040834;4.737363;-0.6170667;1.304572;4.560359;-0.5381014;1.440604;3.61488;-0.6639515;1.594797;2.70709;-0.8874028;0.2899455;2.730457;-0.125547;0.1966046;1.286666;-0.343751;0;0;0;0.2899455;2.730457;-0.125547;0.1966046;1.286666;-0.343751;0;0;0
741284.8799;NotLabelled;NONE;16384;0.7025179;-0.5623268;0.3781163;0.2174515;27;32;14;-398;3522;1298;65536;0.7430254;-0.6094183;0.1842105;0.2063712;-24;8;6;-158;3638;-1085;8192;0.6417557;-0.5180055;-0.434903;-0.3614958;-15;28;21;-710;4332;214;32768;0.7512175;-0.5747922;-0.2770083;-0.1689751;8;19;-10;471;4433;-433;256;-0.1551246;0.0401662;-0.7321292;-0.6620498;-2;7;-24;754;4122;408;128;0.1634349;-0.08033241;0.7048365;0.6855956;-14;0;20;-296;4228;-444;4;0.6230009;-0.5290859;0.3947368;0.4196676;-25;-107;-47;-724;4018;406;16;0.5831025;-0.7481776;-0.1800554;-0.2603878;42;-92;3;347;3925;1866;2;0.5373961;-0.4196676;-0.4930748;-0.5403349;0;-21;7;-1028;3958;-54;8;0.6440443;-0.7118858;0.1537396;0.234072;-1;-16;-1;-315;4173;397;0.5875751;2.786218;-0.1380238;0.593268;3.305003;-0.3067009;0.5982653;3.760388;-0.4568916;0.7128125;4.479915;-0.5441979;0.5075328;4.835907;-0.6208669;0.1497641;4.75949;-0.5414878;-0.1424928;3.880333;-0.5416403;-0.2206793;2.952864;-0.7190796;1.021406;4.754102;-0.6208686;1.286026;4.578604;-0.5414903;1.426641;3.633606;-0.665912;1.579616;2.72636;-0.8923845;0.2753189;2.744002;-0.1312345;0.1697986;1.296789;-0.3191137;0;0;0;0.2753189;2.744002;-0.1312345;0.1697986;1.296789;-0.3191137;0;0;0
741305.6807;NotLabelled;NONE;16384;0.7014028;-0.566482;0.3739612;0.2174515;23;32;15;-704;3646;1150;65536;0.7414722;-0.6121883;0.1828255;0.2049861;-22;18;9;-160;3950;-1057;8192;0.6392564;-0.5166205;-0.4390582;-0.3628809;-11;28;22;-794;4308;354;32768;0.7503922;-0.5747922;-0.2783934;-0.1703601;5;19;-14;291;4333;-349;256;-0.1509695;0.04293629;-0.7328402;-0.6620498;1;-1;-29;408;4186;376;128;0.1592798;-0.08171745;0.705628;0.6855956;-6;-12;21;-252;4322;-178;4;0.6140516;-0.5235457;0.4113573;0.4238227;-22;-117;-51;-6;3932;-132;16;0.5900277;-0.7462881;-0.1731302;-0.2548476;36;-59;10;389;4023;1422;2;0.54207;-0.4224377;-0.4903047;-0.536011;0;-37;8;-790;4014;-276;8;0.6440443;-0.7108247;0.1565097;0.2354571;-2;-19;-2;-303;4189;243;0.5941548;2.792486;-0.1524301;0.599865;3.312839;-0.3162028;0.6048775;3.769622;-0.4620882;0.7116473;4.490121;-0.5512196;0.5025225;4.843693;-0.6286886;0.1456256;4.763629;-0.54898;-0.130073;3.879147;-0.5454878;-0.2010751;2.948991;-0.7115169;1.017246;4.76742;-0.6286899;1.283767;4.594975;-0.5489818;1.427886;3.650688;-0.6747869;1.579714;2.743712;-0.9031081;0.2818979;2.750207;-0.1460719;0.1615954;1.300855;-0.306579;0;0;0;0.2818979;2.750207;-0.1460719;0.1615954;1.300855;-0.306579;0;0;0
741325.6969;NotLabelled;NONE;16384;0.7013947;-0.5706371;0.368421;0.2160665;22;32;14;-892;3768;1078;65536;0.739939;-0.6149584;0.1828255;0.2022161;-20;14;7;200;3994;-1021;8192;0.6368677;-0.5138504;-0.4445983;-0.3642659;-3;12;26;-922;4186;700;32768;0.7466106;-0.5761772;-0.2839335;-0.1731302;-4;16;-24;203;4147;-363;256;-0.1468144;0.04570637;-0.7335165;-0.6620498;2;-8;-30;472;4130;436;128;0.1551246;-0.08310249;0.7063916;0.6855956;0;-18;24;-414;4208;-290;4;0.6044211;-0.5180055;0.4252077;0.4307479;-27;-104;-41;958;4250;50;16;0.5955678;-0.7437764;-0.1689751;-0.2520775;32;-27;13;195;4289;1150;2;0.5474244;-0.432133;-0.4833795;-0.5290859;10;-54;3;-456;4078;-48;8;0.6426592;-0.7100739;0.1592798;0.2396122;-3;-18;-4;-341;4197;397;0.6068633;2.797602;-0.1635248;0.6125745;3.318036;-0.3270416;0.6175879;3.77489;-0.4727024;0.7173592;4.496449;-0.5613689;0.5048153;4.848021;-0.6386341;0.1487062;4.764442;-0.5590093;-0.1186515;3.877402;-0.5560274;-0.1857849;2.94617;-0.7175708;1.020256;4.776753;-0.6386356;1.288433;4.606855;-0.5590113;1.436715;3.662703;-0.6809327;1.5896;2.755452;-0.9074472;0.2946064;2.755321;-0.1571891;0.1617955;1.304366;-0.2911684;0;0;0;0.2946064;2.755321;-0.1571891;0.1617955;1.304366;-0.2911684;0;0;0
741346.7206;NotLabelled;NONE;16384;0.700597;-0.5747922;0.3642659;0.2146814;21;27;17;-1206;3836;1178;65536;0.7380062;-0.6177285;0.1828255;0.200831;-18;7;5;452;4058;-891;8192;0.6345955;-0.5152354;-0.4473684;-0.3628809;0;-5;28;-674;4078;850;32768;0.7439439;-0.5775623;-0.2880886;-0.1731302;-10;11;-28;169;4111;-487;256;-0.1426593;0.04709141;-0.7342484;-0.6620498;-2;-8;-30;412;4230;602;128;0.1509695;-0.08448754;0.7071272;0.6855956;0;-13;25;-414;4098;-350;4;0.6002442;-0.5124654;0.4362881;0.432133;-30;-59;-24;1988;4424;636;16;0.599723;-0.7415265;-0.166205;-0.2506925;29;-14;12;537;4495;974;2;0.5481319;-0.4376731;-0.4806094;-0.5263157;9;-47;0;-228;4106;-26;8;0.6412742;-0.710857;0.1592798;0.2409972;-3;-5;-5;-549;4209;581;0.6122789;2.801839;-0.1673718;0.617991;3.322354;-0.3306304;0.6230052;3.779281;-0.4760646;0.715779;4.501832;-0.5642477;0.4998428;4.851374;-0.641316;0.1445506;4.76429;-0.5617985;-0.1153829;3.875042;-0.5608201;-0.1818343;2.942664;-0.7159103;1.015951;4.785114;-0.6412872;1.285753;4.617776;-0.5617337;1.440899;3.674272;-0.6800742;1.599172;2.765902;-0.8982503;0.3000221;2.759555;-0.1610587;0.1634043;1.307359;-0.2764758;0;0;0;0.3000221;2.759555;-0.1610587;0.1634043;1.307359;-0.2764758;0;0;0
741367.6747;NotLabelled;NONE;16384;0.7013168;-0.5761772;0.3614958;0.2132964;18;8;17;-1390;3946;1104;65536;0.7372208;-0.6191136;0.1828255;0.199446;-15;0;4;480;4302;-845;8192;0.6347027;-0.5180055;-0.4473684;-0.3587258;0;-20;31;-228;4096;862;32768;0.7407033;-0.5803324;-0.2908587;-0.1731302;-14;2;-29;143;4127;-665;256;-0.1385041;0.04986149;-0.7348608;-0.6620498;-13;-10;-30;356;4240;584;128;0.1468144;-0.08587258;0.7078348;0.6855956;-2;-6;23;-370;4162;-464;4;0.6019118;-0.5069252;0.4404432;0.432133;-2;11;1;2180;3422;-106;16;0.6080332;-0.7362874;-0.1634349;-0.2479224;24;-23;2;337;4101;286;2;0.5510708;-0.4418283;-0.4764543;-0.5235457;5;-29;-4;192;4018;-100;8;0.6412742;-0.7106951;0.1578947;0.2423823;-4;2;-6;-789;4303;679;0.6298635;2.803703;-0.1705294;0.6355764;3.324299;-0.333528;0.6405913;3.781299;-0.4787338;0.7278256;4.504572;-0.5666482;0.5092168;4.852478;-0.6435838;0.1546033;4.762645;-0.564095;-0.09856929;3.871449;-0.5626023;-0.1624501;2.93793;-0.711794;1.025817;4.790174;-0.6435852;1.296895;4.624878;-0.5640969;1.45606;3.681251;-0.6759367;1.621183;2.772477;-0.8872457;0.3176065;2.761415;-0.1642393;0.1661408;1.309548;-0.2642173;0;0;0;0.3176065;2.761415;-0.1642393;0.1661408;1.309548;-0.2642173;0;0;0
741388.6773;NotLabelled;NONE;16384;0.6977462;-0.5803324;0.3601108;0.2160665;12;-9;6;-914;4164;1020;65536;0.7341909;-0.6218836;0.1855956;0.199446;-12;-8;-6;136;4286;-897;8192;0.6337923;-0.5207756;-0.4487534;-0.3545706;0;-24;33;144;3862;920;32768;0.7383012;-0.5831025;-0.2922437;-0.1717452;-16;-3;-29;-105;4059;-803;256;-0.132964;0.04986149;-0.7383662;-0.6592798;-22;-15;-30;282;4204;484;128;0.1440443;-0.08725762;0.7095727;0.6842105;7;0;22;-306;4458;-384;4;0.6027732;-0.5083103;0.4362881;0.433518;0;13;6;1080;3646;-210;16;0.6121883;-0.7336106;-0.1620499;-0.2465374;21;-19;0;427;3855;626;2;0.5512727;-0.4432133;-0.4764543;-0.5221606;0;-10;-5;608;4278;282;8;0.6412742;-0.7110014;0.1565097;0.2423823;-4;5;-6;-801;4327;637;0.6461491;2.806628;-0.1438102;0.6518629;3.327307;-0.3065463;0.6568787;3.784379;-0.4515219;0.7371033;4.508524;-0.5389411;0.5151376;4.854346;-0.6156599;0.1614056;4.761026;-0.5362605;-0.08987763;3.869294;-0.5367817;-0.1532717;2.935239;-0.6827955;1.032318;4.797053;-0.6156611;1.304979;4.634341;-0.5362624;1.468181;3.690808;-0.6429703;1.637509;2.780784;-0.8453875;0.333892;2.764338;-0.1375431;0.1652672;1.314473;-0.2391116;0;0;0;0.333892;2.764338;-0.1375431;0.1652672;1.314473;-0.2391116;0;0;0
741409.8514;NotLabelled;NONE;16384;0.6968824;-0.5803324;0.3601108;0.2188366;9;-12;3;-666;4090;754;65536;0.7329867;-0.6232687;0.1842105;0.200831;-12;-6;-10;2;4334;-831;8192;0.6314681;-0.5249307;-0.4515235;-0.3490305;0;-14;36;452;3612;1008;32768;0.7353215;-0.5858725;-0.2950138;-0.1703601;-14;0;-24;-201;3871;-1027;256;-0.1246537;0.05263158;-0.7445239;-0.6537396;-20;-2;-24;420;3898;458;128;0.1398892;-0.0900277;0.7140383;0.6800554;25;-5;22;-554;4160;-246;4;0.6027764;-0.5083103;0.434903;0.434903;-4;-1;2;126;3854;-198;16;0.6149584;-0.732061;-0.1606648;-0.2451524;16;-8;0;345;4039;746;2;0.551384;-0.4432133;-0.4778393;-0.5207756;-9;8;-8;568;4456;544;8;0.6412742;-0.7116055;0.1537396;0.2423823;-6;2;-6;-1023;4425;713;0.6384819;2.809139;-0.1198455;0.6441898;3.329277;-0.2843017;0.6492002;3.785868;-0.4307871;0.723222;4.510011;-0.5235272;0.4982774;4.853374;-0.6025767;0.1454079;4.757643;-0.5222172;-0.09551033;3.863056;-0.5202938;-0.1571941;2.927656;-0.6582007;1.015924;4.800465;-0.602578;1.290013;4.640647;-0.5222189;1.459232;3.697286;-0.6207616;1.63339;2.786342;-0.8147643;0.3262252;2.766869;-0.1134274;0.1663766;1.316769;-0.2253091;0;0;0;0.3262252;2.766869;-0.1134274;0.1663766;1.316769;-0.2253091;0;0;0
741430.6696;NotLabelled;NONE;16384;0.6964459;-0.5803324;0.3601108;0.2202216;8;-3;0;-234;4252;626;65536;0.7326059;-0.6232687;0.1842105;0.2022161;-11;-1;-8;18;4394;-673;8192;0.6279495;-0.5277008;-0.4584487;-0.3421052;0;4;31;398;3844;1192;32768;0.7323059;-0.5886427;-0.2977839;-0.1689751;-10;9;-10;-151;3797;-1093;256;-0.1232687;0.05540166;-0.7469767;-0.6509695;-17;13;-21;34;3834;626;128;0.1371191;-0.0900277;0.7185069;0.6759003;29;-7;26;-492;3918;-292;4;0.6039385;-0.5069252;0.4362881;0.433518;-7;-2;-7;344;3862;584;16;0.6163435;-0.7302808;-0.1634349;-0.2451524;14;21;1;-245;4315;690;2;0.5521958;-0.4390582;-0.4792244;-0.5221606;-15;16;-14;70;4524;820;8;0.6398892;-0.7123787;0.1537396;0.2437673;-10;-2;-5;-929;4317;495;0.6351827;2.810467;-0.1054977;0.6408716;3.328875;-0.2753298;0.6458651;3.783925;-0.4265342;0.7072614;4.507872;-0.5294688;0.4763009;4.846197;-0.6127805;0.1252842;4.745557;-0.5303303;-0.112118;3.850108;-0.5422704;-0.1678018;2.914244;-0.6795782;0.9947791;4.802173;-0.613179;1.271728;4.64821;-0.5312105;1.449806;3.70601;-0.6251391;1.630553;2.794371;-0.809623;0.3229267;2.768266;-0.09860681;0.1673824;1.318156;-0.216272;0;0;0;0.3229267;2.768266;-0.09860681;0.1673824;1.318156;-0.216272;0;0;0
741450.6884;NotLabelled;NONE;16384;0.6944047;-0.5831025;0.3587258;0.2216066;7;0;-5;-14;4372;422;65536;0.731041;-0.6246537;0.1842105;0.2036011;-11;-1;-5;282;4286;-521;8192;0.6262563;-0.5290859;-0.4612188;-0.3393352;2;-1;21;350;3940;1198;32768;0.7303032;-0.5900277;-0.299169;-0.1703601;-10;5;-5;-51;3917;-1035;256;-0.1218837;0.05955679;-0.7480891;-0.6495845;-16;23;-17;-330;4114;704;128;0.134349;-0.09279778;0.7212729;0.6731302;18;14;27;-112;3926;-488;4;0.6049303;-0.5069252;0.4362881;0.432133;-11;28;-7;1068;4220;734;16;0.6177285;-0.727545;-0.166205;-0.2479224;13;30;5;333;4271;590;2;0.5577403;-0.4252077;-0.4792244;-0.5277008;-19;19;-36;-1082;4508;888;8;0.6371191;-0.712944;0.1537396;0.2493075;-13;-17;-5;-1177;4455;1017;0.6377392;2.811266;-0.1016908;0.6434066;3.327724;-0.2773649;0.6483812;3.781037;-0.4336972;0.7047958;4.504694;-0.5414066;0.4715221;4.840856;-0.6270019;0.1211893;4.738338;-0.5439595;-0.1145761;3.842379;-0.5451854;-0.1686891;2.90648;-0.6828911;0.9902924;4.800417;-0.6270033;1.268279;4.648918;-0.5439615;1.460304;3.707459;-0.6150733;1.645964;2.795214;-0.7914961;0.3254841;2.769146;-0.09428521;0.1621869;1.31976;-0.2103662;0;0;0;0.3254841;2.769146;-0.09428521;0.1621869;1.31976;-0.2103662;0;0;0
741471.6704;NotLabelled;NONE;16384;0.6925208;-0.5844875;0.3601108;0.2216066;3;-6;-15;-2;4444;124;65536;0.7298551;-0.6260388;0.1842105;0.2036011;-10;-4;0;124;4484;-401;8192;0.6255575;-0.5304709;-0.4626039;-0.3365651;6;-9;12;526;4052;1212;32768;0.729424;-0.5914127;-0.2977839;-0.1717452;-10;0;-2;-25;4141;-1047;256;-0.1218837;0.06509695;-0.7500253;-0.6468144;-15;26;-14;-444;4438;726;128;0.134349;-0.09972299;0.7229267;0.6703601;12;36;23;136;4156;-280;4;0.6077129;-0.5083103;0.434903;0.4279778;-8;31;-1;848;4318;432;16;0.6177285;-0.7264328;-0.1689751;-0.2493075;10;19;3;325;4311;292;2;0.5590286;-0.4182825;-0.4792244;-0.5318559;-19;31;-37;-904;3936;248;8;0.634349;-0.7141391;0.1551246;0.2520775;-16;-25;-8;-603;4221;917;0.6412361;2.812161;-0.09555052;0.6468911;3.327475;-0.2745537;0.6518545;3.779771;-0.4338079;0.7020937;4.5036;-0.5433974;0.4659544;4.837543;-0.6298138;0.1165209;4.732265;-0.5464364;-0.1126003;3.834586;-0.5441968;-0.1637069;2.898134;-0.6792617;0.9850498;4.801517;-0.6298152;1.264329;4.652603;-0.5464384;1.461697;3.711838;-0.6118619;1.646804;2.798681;-0.7841022;0.3289816;2.77009;-0.08785129;0.1620829;1.321002;-0.2025093;0;0;0;0.3289816;2.77009;-0.08785129;0.1620829;1.321002;-0.2025093;0;0;0
741491.6805;NotLabelled;NONE;16384;0.6897604;-0.5844875;0.367036;0.2188366;-4;-2;-33;202;4640;-34;65536;0.7275042;-0.6288089;0.1855956;0.2022161;-7;1;12;-336;4638;-335;8192;0.623944;-0.533241;-0.4626039;-0.33518;12;-7;5;866;4042;1254;32768;0.729424;-0.5914127;-0.2977839;-0.1717452;-10;-3;0;-55;4185;-973;256;-0.1232687;0.06925207;-0.7518085;-0.6440443;-15;25;-11;-482;4288;686;128;0.1385041;-0.1121884;0.7266943;0.6634349;21;36;13;444;4218;-686;4;0.6106557;-0.5083103;0.432133;0.4265928;-2;2;4;418;3732;-106;16;0.6204986;-0.7237436;-0.1703601;-0.2493075;5;0;2;-169;4189;358;2;0.5605023;-0.4127424;-0.4792244;-0.534626;-18;18;-29;-944;3684;-58;8;0.6301939;-0.7155372;0.1565097;0.2576177;-24;-57;-16;-495;3681;965;0.6436661;2.812305;-0.09783018;0.6493117;3.326761;-0.2792841;0.6542668;3.778294;-0.4406896;0.6977533;4.501911;-0.5544877;0.458489;4.833154;-0.6426805;0.1100915;4.725137;-0.5584751;-0.1176265;3.827119;-0.5523689;-0.1679738;2.890155;-0.6841296;0.9778948;4.801924;-0.6428036;1.258587;4.65608;-0.5587456;1.459223;3.716234;-0.6273735;1.639163;2.801811;-0.7983682;0.331412;2.770271;-0.08991463;0.1584786;1.321632;-0.2012507;0;0;0;0.331412;2.770271;-0.08991463;0.1584786;1.321632;-0.2012507;0;0;0
741511.6798;NotLabelled;NONE;16384;0.6884103;-0.5858725;0.3698061;0.2146814;-9;9;-34;70;4530;-52;65536;0.7263339;-0.6301939;0.1869806;0.200831;-4;5;18;-522;4596;-383;8192;0.6227576;-0.534626;-0.4626039;-0.33518;13;0;-1;980;3724;1300;32768;0.7285358;-0.5927978;-0.2963989;-0.1731302;-9;-2;5;-245;4087;-955;256;-0.1232687;0.07479224;-0.7536434;-0.6412742;-12;23;-9;-772;3892;662;128;0.1385041;-0.1163435;0.7285622;0.6606648;15;12;8;768;3924;-48;4;0.6095096;-0.5096953;0.4307479;0.4279778;5;0;6;220;3854;-204;16;0.6218836;-0.7225538;-0.1703601;-0.2493075;4;-3;3;79;4135;730;2;0.5622212;-0.4085872;-0.4792244;-0.536011;-13;-2;-25;-1850;2986;100;8;0.6246537;-0.7156056;0.1620499;0.267313;-29;-83;-14;383;3705;383;0.6431034;2.813208;-0.08403112;0.6487221;3.325222;-0.2722654;0.6536533;3.774583;-0.4396216;0.6932343;4.497721;-0.5578097;0.4521824;4.827132;-0.6479776;0.1043794;4.717754;-0.5630732;-0.1303751;3.821797;-0.5411354;-0.1812365;2.883757;-0.6647891;0.9717489;4.798696;-0.6479791;1.253229;4.654877;-0.5630754;1.453766;3.714296;-0.621124;1.63242;2.799873;-0.7934626;0.3308504;2.771283;-0.0755156;0.1543331;1.323486;-0.1920749;0;0;0;0.3308504;2.771283;-0.0755156;0.1543331;1.323486;-0.1920749;0;0;0
741531.8096;NotLabelled;NONE;16384;0.6877676;-0.5872576;0.3711911;0.2105263;-14;17;-29;-254;4390;-50;65536;0.7255331;-0.6315789;0.1883656;0.1980609;0;11;26;-600;4536;-445;8192;0.6227576;-0.534626;-0.4626039;-0.33518;14;5;-4;968;3470;1472;32768;0.7276387;-0.5941828;-0.2950138;-0.1745152;-8;0;13;-261;3807;-1017;256;-0.1218837;0.08310249;-0.7553481;-0.6385041;-5;12;-6;-1356;3674;778;128;0.1357341;-0.1204986;0.730911;0.6578947;9;-2;1;1230;3612;68;4;0.6083518;-0.5110803;0.4293629;0.4293629;5;0;5;-122;4132;-10;16;0.6218836;-0.7225538;-0.1703601;-0.2493075;3;-10;4;141;4165;764;2;0.566565;-0.4058172;-0.4764543;-0.536011;0;-21;-25;-2548;2668;28;8;0.6177285;-0.7156686;0.1717452;0.2770083;-27;-97;-11;359;3817;127;0.6348919;2.81465;-0.08028352;0.6404992;3.32563;-0.271306;0.6454203;3.774073;-0.4411092;0.678245;4.496883;-0.5633005;0.4341174;4.823535;-0.6552133;0.08736797;4.711399;-0.5696011;-0.1515964;3.816863;-0.5374867;-0.2046685;2.878271;-0.6559169;0.9539258;4.799933;-0.6552146;1.236753;4.659208;-0.5696032;1.435763;3.718198;-0.6259141;1.609343;2.802531;-0.7968277;0.3226394;2.772771;-0.07152105;0.1528494;1.324193;-0.1883536;0;0;0;0.3226394;2.772771;-0.07152105;0.1528494;1.324193;-0.1883536;0;0;0
741552.6697;NotLabelled;NONE;16384;0.6870937;-0.5886427;0.3725762;0.2063712;-20;13;-23;-712;4302;-204;65536;0.7254565;-0.632964;0.1897507;0.1925208;5;16;29;-732;4468;-449;8192;0.620817;-0.536011;-0.4626039;-0.3365651;17;2;-5;702;3138;1690;32768;0.7285135;-0.5941828;-0.2894737;-0.1800554;-8;2;31;-699;3377;-1013;256;-0.1191136;0.08587258;-0.7566486;-0.6371191;-2;1;-5;-1368;3630;580;128;0.134349;-0.1204986;0.7311668;0.6578947;5;-16;0;1426;3624;-168;4;0.6083518;-0.5110803;0.4293629;0.4293629;2;-9;1;-32;4066;180;16;0.6232687;-0.7224848;-0.16759;-0.2479224;2;-16;5;47;4149;690;2;0.5743399;-0.4113573;-0.4653739;-0.533241;17;-60;-12;-1020;3236;544;8;0.6094183;-0.7140396;0.1869806;0.2894737;-9;-44;1;471;3767;-567;0.626667;2.815347;-0.08171865;0.6322631;3.325297;-0.2754757;0.6371741;3.772823;-0.4476788;0.6589402;4.495502;-0.5730782;0.4098402;4.817977;-0.666388;0.0648551;4.70094;-0.5802102;-0.1774593;3.807644;-0.5397491;-0.2345346;2.868567;-0.6523194;0.9299485;4.802315;-0.6663897;1.214903;4.666307;-0.5802125;1.413409;3.725297;-0.6382765;1.581707;2.808408;-0.8079177;0.3144151;2.773516;-0.07271366;0.1511987;1.324193;-0.1896809;0;0;0;0.3144151;2.773516;-0.07271366;0.1511987;1.324193;-0.1896809;0;0;0
741572.6774;NotLabelled;NONE;16384;0.6875765;-0.5886427;0.3739612;0.2022161;-26;-2;-18;-1032;4218;-270;65536;0.7265411;-0.632964;0.1911357;0.1869806;12;18;31;-648;4456;-391;8192;0.6197237;-0.5387812;-0.4598338;-0.3379501;19;-5;-5;504;3078;1684;32768;0.72857;-0.5941828;-0.2867036;-0.1842105;-9;2;37;-561;3285;-1137;256;-0.1177285;0.08725762;-0.7567069;-0.6371191;2;-9;-4;-1200;3436;448;128;0.1301939;-0.1204986;0.7319181;0.6578947;-1;-21;-2;1334;3552;-56;4;0.6065708;-0.5096953;0.4307479;0.432133;1;-24;-1;502;4014;530;16;0.6246537;-0.721608;-0.166205;-0.2479224;1;-18;5;451;4155;700;2;0.5770889;-0.4155124;-0.4598338;-0.5318559;22;-47;-2;-130;2964;698;8;0.6094183;-0.7123747;0.1911357;0.2908587;5;-16;8;491;3669;-369;0.6287418;2.815441;-0.07920867;0.6343379;3.325391;-0.2729654;0.639249;3.772918;-0.4451683;0.6550246;4.495423;-0.5724472;0.4032586;4.815582;-0.6665754;0.05925906;4.695917;-0.5800666;-0.1867171;3.803921;-0.5334917;-0.250128;2.864503;-0.6396542;0.9234784;4.804226;-0.6665771;1.209554;4.670805;-0.5800688;1.40503;3.728922;-0.6341136;1.55884;2.809841;-0.8056341;0.3164899;2.77361;-0.07020361;0.1533515;1.324287;-0.1872796;0;0;0;0.3164899;2.77361;-0.07020361;0.1533515;1.324287;-0.1872796;0;0;0
741592.7446;NotLabelled;NONE;16384;0.6876547;-0.5872576;0.3767313;0.200831;-30;-22;-11;-1156;4314;-310;65536;0.7284147;-0.6315789;0.1939058;0.1814404;18;15;30;-674;4560;-277;8192;0.6198104;-0.5401662;-0.4570637;-0.3393352;21;-14;-6;194;3098;1642;32768;0.7296659;-0.5941828;-0.2811634;-0.1883656;-10;-7;41;-663;3245;-1035;256;-0.1149584;0.08725762;-0.7559651;-0.6385041;9;-17;-1;-1226;3448;450;128;0.1260388;-0.1191136;0.7316259;0.6592798;-14;-31;-4;1208;3550;-30;4;0.6042624;-0.5041551;0.4362881;0.4362881;-8;-29;-1;1126;3874;526;16;0.6246537;-0.7233353;-0.1606648;-0.2465374;-2;-5;5;305;4197;620;2;0.5786508;-0.4196676;-0.4556787;-0.5304709;25;-24;5;134;3188;674;8;0.6108033;-0.7124999;0.1925208;0.2867036;13;17;17;203;3579;255;0.6292956;2.815846;-0.07371566;0.6348916;3.325796;-0.2674732;0.6398026;3.773323;-0.4396767;0.652782;4.495947;-0.5665942;0.3997789;4.815175;-0.6605649;0.05624457;4.694136;-0.5741196;-0.1955424;3.803963;-0.5238764;-0.2671863;2.864746;-0.626516;0.9200389;4.805834;-0.6605667;1.206628;4.673479;-0.5741223;1.395167;3.730014;-0.6251345;1.540053;2.809556;-0.7970434;0.3170437;2.774015;-0.06471038;0.1558361;1.324582;-0.1830952;0;0;0;0.3170437;2.774015;-0.06471038;0.1558361;1.324582;-0.1830952;0;0;0
741612.6872;NotLabelled;NONE;16384;0.6907943;-0.5747922;0.3878116;0.2049861;-34;-57;-5;-1072;4594;-92;65536;0.732192;-0.6274238;0.199446;0.1745152;31;-10;17;-560;4750;-169;8192;0.6182097;-0.5443213;-0.4542936;-0.3393352;24;-19;-6;198;3180;1680;32768;0.731058;-0.5941828;-0.2756233;-0.1911357;-12;-14;43;-603;3335;-1189;256;-0.1094183;0.08587258;-0.7557747;-0.6398892;12;-25;2;-1428;3636;486;128;0.1218837;-0.1163435;0.7302729;0.6620498;-13;-31;-8;980;3656;230;4;0.6025488;-0.501385;0.4376731;0.4404432;-5;-26;0;1208;4014;490;16;0.6246537;-0.7233353;-0.1606648;-0.2465374;-5;2;4;533;4167;556;2;0.5767081;-0.4238227;-0.4542936;-0.5304709;27;-4;15;-212;3310;318;8;0.6135734;-0.7127005;0.1911357;0.2811634;16;44;17;-305;3667;765;0.6446155;2.813552;-0.07612647;0.6502179;3.32408;-0.2683535;0.6551346;3.772121;-0.4392139;0.6658933;4.495234;-0.5635314;0.4119124;4.814017;-0.6563703;0.06874807;4.691609;-0.5703831;-0.1883904;3.803042;-0.5188262;-0.2711018;2.864544;-0.6197025;0.9321988;4.806279;-0.6563717;1.21919;4.674498;-0.5703851;1.402035;3.729887;-0.6209197;1.534705;2.807915;-0.7945659;0.3323631;2.771694;-0.06725724;0.1635493;1.32319;-0.1864046;0;0;0;0.3323631;2.771694;-0.06725724;0.1635493;1.32319;-0.1864046;0;0;0
741633.6829;NotLabelled;NONE;16384;0.6905609;-0.567867;0.3961219;0.2091413;-36;-70;-4;-870;4640;24;65536;0.7342628;-0.6232687;0.2036011;0.1759003;36;-27;9;-652;4770;-5;8192;0.6188037;-0.5470914;-0.4501385;-0.3393352;26;-20;-7;172;3308;1676;32768;0.7317792;-0.5955678;-0.2686981;-0.1939058;-14;-18;44;-643;3297;-1177;256;-0.101108;0.07894737;-0.7541561;-0.6440443;8;-41;15;-774;4188;652;128;0.1163435;-0.1066482;0.7263352;0.6689751;-25;-29;-21;168;4026;-862;4;0.6018082;-0.4986149;0.4390582;0.4432133;-1;-14;2;1304;3876;488;16;0.6246537;-0.7228617;-0.1606648;-0.2479224;-9;4;2;573;4193;464;2;0.5736313;-0.4279778;-0.4542936;-0.5304709;29;1;27;-304;3536;184;8;0.6163435;-0.7132117;0.1883656;0.2756233;6;21;9;-881;4035;2343;0.6443488;2.813282;-0.06733413;0.6499638;3.324964;-0.256471;0.6548917;3.774029;-0.4246193;0.662295;4.497569;-0.5466831;0.4068389;4.815455;-0.6385401;0.0642442;4.691187;-0.5529504;-0.2124242;3.808035;-0.5102276;-0.3136903;2.871493;-0.6123581;0.9271559;4.810134;-0.6385417;1.214754;4.679421;-0.5529529;1.392037;3.733374;-0.5958525;1.51523;2.810364;-0.7709637;0.332096;2.771372;-0.05873866;0.1654757;1.32319;-0.184697;0;0;0;0.332096;2.771372;-0.05873866;0.1654757;1.32319;-0.184697;0;0;0
741654.6694;NotLabelled;NONE;16384;0.6908275;-0.5595568;0.4044321;0.2146814;-35;-79;-3;-566;4916;112;65536;0.737049;-0.6177285;0.2091413;0.1772853;39;-39;2;-822;4992;101;8192;0.6193321;-0.5526316;-0.4404432;-0.3421052;35;-28;-19;-260;4224;1128;32768;0.7336302;-0.5969529;-0.2562327;-0.199446;-19;-9;37;-595;3779;-1215;256;-0.09833795;0.07202215;-0.7540314;-0.6454294;-4;-41;23;22;4816;628;128;0.1163435;-0.101108;0.7232822;0.6731302;-35;-21;-26;-632;4780;-1010;4;0.6040798;-0.4958449;0.4376731;0.4445983;-3;-5;8;1158;3964;368;16;0.6232687;-0.7235805;-0.1606648;-0.2493075;-14;10;1;389;4191;284;2;0.5662686;-0.4376731;-0.4542936;-0.5304709;16;-35;13;-2402;7042;1774;8;0.6135734;-0.7119518;0.1939058;0.2811634;3;-42;0;-2671;5041;1911;0.6504701;2.812582;-0.05408941;0.656114;3.326891;-0.235956;0.6610676;3.778295;-0.3977236;0.6691539;4.502837;-0.5136337;0.4140016;4.821731;-0.6028084;0.0712835;4.697058;-0.5183076;-0.2153429;3.816801;-0.4819438;-0.3221425;2.88167;-0.5911188;0.9343134;4.815927;-0.6028097;1.221782;4.684224;-0.5183095;1.39358;3.736988;-0.5570855;1.507119;2.812343;-0.7300816;0.3382159;2.770554;-0.04613738;0.1722479;1.322992;-0.179855;0;0;0;0.3382159;2.770554;-0.04613738;0.1722479;1.322992;-0.179855;0;0;0
741675.6759;NotLabelled;NONE;16384;0.6916754;-0.5512465;0.4113573;0.2202216;-30;-80;-4;-232;5160;596;65536;0.7390648;-0.6121883;0.2146814;0.1814404;39;-48;-1;-908;5250;161;8192;0.6204956;-0.5567867;-0.433518;-0.3421052;38;-41;-24;-282;4862;676;32768;0.7335635;-0.5983379;-0.2520775;-0.200831;-22;-4;28;-541;4453;-1117;256;-0.09833795;0.06509695;-0.7558432;-0.6440443;-21;-36;29;790;4710;174;128;0.1163435;-0.09695291;0.7225605;0.6745152;7;-20;-23;-1104;5192;-344;4;0.6041719;-0.4944598;0.4362881;0.4473684;3;-2;20;776;3888;440;16;0.6218836;-0.7235036;-0.1620499;-0.2520775;-21;18;0;407;4151;280;2;0.5714753;-0.4404432;-0.4515235;-0.5249307;-25;-53;-5;-1970;5920;1888;8;0.6121883;-0.7107301;0.1966759;0.2853186;0;-29;3;-1487;3323;969;0.6588409;2.810155;-0.04203144;0.6645023;3.326058;-0.2193267;0.6694713;3.77888;-0.377082;0.6827544;4.503517;-0.4919173;0.4298972;4.824363;-0.5806229;0.08629211;4.702026;-0.4963127;-0.210063;3.824744;-0.4666393;-0.3262691;2.891663;-0.5834848;0.9501538;4.814829;-0.5806243;1.236668;4.680943;-0.4963152;1.390653;3.730576;-0.5332648;1.481769;2.803805;-0.7081409;0.3465861;2.768059;-0.03448291;0.1776174;1.322102;-0.181174;0;0;0;0.3465861;2.768059;-0.03448291;0.1776174;1.322102;-0.181174;0;0;0
741696.7932;NotLabelled;NONE;16384;0.6914701;-0.5429363;0.4196676;0.2257618;-22;-80;-7;72;4708;1072;65536;0.7409688;-0.6066482;0.2202216;0.1855956;35;-54;-3;-672;4784;39;8192;0.6221952;-0.5623268;-0.4238227;-0.3421052;40;-48;-25;-62;4758;414;32768;0.731479;-0.601108;-0.2493075;-0.2036011;-20;1;17;-503;4899;-1091;256;-0.09972299;0.0567867;-0.7563317;-0.6440443;-2;-22;33;950;3874;2;128;0.1163435;-0.09141274;0.7258556;0.6717451;35;-15;-23;-668;4528;-308;4;0.6072582;-0.4916897;0.4293629;0.4529086;14;11;39;758;3994;490;16;0.6149584;-0.7281263;-0.1634349;-0.2548476;-34;17;-11;303;4181;456;2;0.5775707;-0.4390582;-0.4515235;-0.5193906;-37;-30;-5;76;2892;202;8;0.6108033;-0.7115368;0.1980609;0.2853186;-3;0;4;65;4089;189;0.6597959;2.808902;-0.0321466;0.6654613;3.325174;-0.2083649;0.6704341;3.778323;-0.3651749;0.6908994;4.502141;-0.4840534;0.441229;4.824984;-0.5745224;0.09643856;4.70654;-0.4894958;-0.2086708;3.832043;-0.4672884;-0.3312378;2.900809;-0.5920996;0.9613652;4.810281;-0.5745239;1.246548;4.674026;-0.4894978;1.390489;3.722046;-0.5254004;1.475283;2.794335;-0.6984553;0.3475409;2.76679;-0.02469315;0.1825496;1.321414;-0.1812971;0;0;0;0.3475409;2.76679;-0.02469315;0.1825496;1.321414;-0.1812971;0;0;0
741717.7969;NotLabelled;NONE;16384;0.6879308;-0.5304709;0.433518;0.2396122;-7;-53;-7;228;3368;1856;65536;0.7437803;-0.5955678;0.2299169;0.1980609;20;-48;-6;-802;3438;-639;8192;0.6215026;-0.5692521;-0.4155124;-0.3421052;34;-47;-28;190;4460;156;32768;0.7305015;-0.602493;-0.2465374;-0.2063712;-17;0;6;-333;4627;-987;256;-0.101108;0.04986149;-0.7542692;-0.6468144;20;-28;33;700;3944;542;128;0.1204986;-0.08864266;0.7255212;0.6717451;1;-1;-29;-104;3720;358;4;0.6111503;-0.4903047;0.4224377;0.4556787;5;16;45;492;4078;-52;16;0.6094183;-0.7316625;-0.166205;-0.2562327;-34;21;-11;-95;4261;936;2;0.5787402;-0.4362881;-0.4542936;-0.5180055;-18;18;2;892;2812;-550;8;0.6108033;-0.7120906;0.1980609;0.2839335;1;5;9;1809;4911;-355;0.6580703;2.802589;-0.02271859;0.663717;3.317148;-0.2038777;0.668673;3.768774;-0.3650242;0.6994758;4.491969;-0.4854506;0.4544393;4.818156;-0.5765942;0.107998;4.704835;-0.491294;-0.2062965;3.833488;-0.4739259;-0.3351631;2.904185;-0.6065379;0.9743122;4.796016;-0.5765955;1.257525;4.655879;-0.4912957;1.387414;3.701862;-0.5267299;1.465706;2.77242;-0.6934483;0.3458161;2.76055;-0.01482897;0.1888448;1.317736;-0.2005884;0;0;0;0.3458161;2.76055;-0.01482897;0.1888448;1.317736;-0.2005884;0;0;0
741738.8475;NotLabelled;NONE;16384;0.6875207;-0.5263157;0.4376731;0.2423823;-10;-33;-6;388;3218;1816;65536;0.7440136;-0.5927978;0.232687;0.2022161;13;-31;-5;-802;3134;-903;8192;0.6224186;-0.5734072;-0.4072022;-0.3434903;22;-36;-30;434;4252;14;32768;0.7293569;-0.6038781;-0.2465374;-0.2063712;-13;-4;-1;-477;4491;-1135;256;-0.1024931;0.04293629;-0.7521248;-0.6495845;22;-30;27;996;4016;736;128;0.1204986;-0.08310249;0.7236044;0.6745152;-18;-31;-26;36;3770;254;4;0.6111189;-0.4875346;0.4196676;0.4612188;0;-38;30;84;3628;-72;16;0.6052631;-0.7343046;-0.16759;-0.2576177;-28;12;-9;279;4005;1560;2;0.5740542;-0.4362881;-0.4570637;-0.5207756;2;37;12;84;4084;-758;8;0.6121883;-0.7114518;0.1980609;0.2825485;5;-2;2;1127;4111;-101;0.6527983;2.797412;-0.01414257;0.658443;3.311785;-0.1958284;0.663397;3.763246;-0.3574373;0.7036653;4.486646;-0.4737703;0.4629316;4.816509;-0.5631294;0.1150152;4.707237;-0.4785536;-0.2063521;3.838409;-0.464744;-0.3425294;2.91265;-0.6138099;0.9824715;4.787592;-0.5631308;1.263807;4.643295;-0.4785558;1.37961;3.687268;-0.5081792;1.451386;2.756797;-0.6720647;0.3405441;2.755382;-0.006206393;0.1896644;1.315198;-0.2158893;0;0;0;0.3405441;2.755382;-0.006206393;0.1896644;1.315198;-0.2158893;0;0;0
741758.6689;NotLabelled;NONE;16384;0.687377;-0.5235457;0.4404432;0.2437673;-10;-13;-3;590;2878;1838;65536;0.7439234;-0.5914127;0.234072;0.2049861;5;-14;-3;-746;2946;-1079;8192;0.6269942;-0.5761772;-0.3961219;-0.3434903;-2;-10;-25;350;4404;-162;32768;0.7286885;-0.6066482;-0.2451524;-0.2022161;-2;-15;-8;-357;4383;-1023;256;-0.1052632;0.033241;-0.7474132;-0.6551247;17;-5;16;1208;3766;730;128;0.1218837;-0.07617728;0.7202416;0.6786703;-11;2;-11;-984;3842;-86;4;0.6104138;-0.4833795;0.4224377;0.4639889;-11;-27;3;120;3684;934;16;0.601108;-0.7377099;-0.16759;-0.2576177;-18;-7;-10;247;4037;1946;2;0.5661382;-0.4418283;-0.4584487;-0.5235457;20;-7;19;-1104;4084;74;8;0.6149584;-0.711085;0.1966759;0.2783934;4;22;2;-825;4177;947;0.6485556;2.793267;-0.007409394;0.6542112;3.30864;-0.1862377;0.6591752;3.760991;-0.3453386;0.7089014;4.484472;-0.4574285;0.4725169;4.817958;-0.5449363;0.1231742;4.712732;-0.4611138;-0.2025917;3.845505;-0.4499981;-0.3388824;2.920515;-0.6036689;0.9916365;4.782281;-0.5449379;1.271036;4.633842;-0.4611161;1.373021;3.676252;-0.4910231;1.445569;2.745173;-0.6510743;0.3363011;2.751193;0.0002744496;0.1928006;1.312899;-0.2268299;0;0;0;0.3363011;2.751193;0.0002744496;0.1928006;1.312899;-0.2268299;0;0;0
741779.6863;NotLabelled;NONE;16384;0.6884298;-0.5221606;0.4404432;0.2437673;-7;9;1;462;2984;1846;65536;0.7446399;-0.5900277;0.234072;0.2063712;-1;2;0;-814;2920;-1111;8192;0.629245;-0.5747922;-0.3933518;-0.3448753;-7;-3;-28;34;4694;-292;32768;0.7282975;-0.6080332;-0.2451524;-0.199446;3;-18;-11;-89;4499;-813;256;-0.1080332;0.03047091;-0.7459191;-0.6565097;10;6;13;1442;3800;432;128;0.1246537;-0.07479224;0.7186044;0.6800554;-10;2;-8;-1352;3872;-342;4;0.609453;-0.4833795;0.4238227;0.4639889;3;0;-3;730;3512;466;16;0.5983379;-0.7407513;-0.166205;-0.2562327;-10;-8;-7;-355;3955;1846;2;0.5650545;-0.4432133;-0.4584487;-0.5235457;10;-9;7;-1584;4162;534;8;0.6149584;-0.7118453;0.1939058;0.2783934;2;1;0;-641;4189;981;0.6566256;2.789366;-0.01434787;0.6622986;3.306332;-0.1885167;0.6672781;3.7601;-0.3435277;0.7313859;4.483843;-0.44623;0.5017222;4.823027;-0.5296376;0.1502773;4.723642;-0.4474895;-0.1789921;3.857707;-0.4393635;-0.3136336;2.933011;-0.5962262;1.020037;4.777119;-0.5296391;1.29636;4.62213;-0.4474918;1.385036;3.66348;-0.4849164;1.461474;2.731813;-0.6396482;0.3443703;2.747224;-0.007075094;0.1962513;1.310195;-0.2391679;0;0;0;0.3443703;2.747224;-0.007075094;0.1962513;1.310195;-0.2391679;0;0;0
741801.6775;NotLabelled;NONE;16384;0.6892374;-0.5235457;0.4390582;0.2409972;-5;27;4;356;3108;1718;65536;0.7443578;-0.5914127;0.232687;0.2049861;-7;17;2;-722;3020;-1141;8192;0.6335775;-0.5720221;-0.3891967;-0.3462604;-10;-9;-33;-8;4880;-252;32768;0.7294226;-0.6080332;-0.2451524;-0.1952908;9;-24;-13;97;4835;-825;256;-0.1121884;0.02908587;-0.7441386;-0.6578947;9;18;11;1534;3740;248;128;0.1274238;-0.0734072;0.7182612;0.6800554;-9;20;-6;-1360;3880;-652;4;0.609264;-0.4861496;0.4224377;0.4626039;13;25;-12;1154;3732;386;16;0.5955678;-0.7431455;-0.16759;-0.2548476;-5;14;0;-321;3927;1712;2;0.5661755;-0.4432133;-0.4570637;-0.5235457;1;-6;-1;-1452;4104;640;8;0.6149584;-0.7118453;0.1939058;0.2783934;1;-11;1;-717;4111;851;0.6577601;2.787728;-0.02917416;0.6634394;3.305273;-0.2016183;0.6684246;3.759555;-0.3551156;0.7384931;4.483074;-0.4554775;0.5116426;4.824394;-0.5378618;0.1593695;4.727631;-0.4561329;-0.1718991;3.862438;-0.4504225;-0.3065574;2.938279;-0.6104032;1.029564;4.77424;-0.5378634;1.304582;4.616729;-0.4561351;1.389591;3.658029;-0.5002115;1.469035;2.726188;-0.6523557;0.3455045;2.745562;-0.02205334;0.1967215;1.308012;-0.2504633;0;0;0;0.3455045;2.745562;-0.02205334;0.1967215;1.308012;-0.2504633;0;0;0
741821.8258;NotLabelled;NONE;16384;0.6939542;-0.5290859;0.4293629;0.232687;4;53;6;464;3288;1576;65536;0.7434101;-0.5955678;0.2299169;0.199446;-13;24;7;-548;3388;-1267;8192;0.6357598;-0.5706371;-0.3864266;-0.3476454;-15;-5;-32;380;4824;-32;32768;0.7305225;-0.6080332;-0.2451524;-0.1911357;16;-20;-15;-53;4899;-613;256;-0.1163435;0.02908587;-0.7422724;-0.6592798;14;18;10;1490;3790;42;128;0.1315789;-0.07479224;0.7160531;0.6814404;-9;30;-7;-1220;3934;-198;4;0.613836;-0.4916897;0.4168975;0.4556787;6;51;-8;650;4020;1144;16;0.5927978;-0.7423229;-0.1703601;-0.2617728;3;13;3;1203;4019;1352;2;0.5685322;-0.4418283;-0.4570637;-0.5221606;-9;-3;-4;-730;4138;540;8;0.6149584;-0.7114667;0.1952908;0.2783934;0;-1;3;-415;4185;501;0.6480612;2.787449;-0.04425722;0.6537398;3.304918;-0.2169271;0.6587241;3.759133;-0.3706226;0.7345928;4.482408;-0.4685035;0.5104978;4.825804;-0.5497923;0.1574385;4.731577;-0.4684943;-0.1746122;3.866711;-0.4596408;-0.3085374;2.942066;-0.6174152;1.028002;4.77152;-0.5498152;1.30173;4.611543;-0.4685439;1.382312;3.653144;-0.5255722;1.466285;2.721937;-0.6791588;0.3358056;2.745286;-0.03711649;0.191336;1.306657;-0.2614665;0;0;0;0.3358056;2.745286;-0.03711649;0.191336;1.306657;-0.2614665;0;0;0
741842.7029;NotLabelled;NONE;16384;0.6957735;-0.5318559;0.4252077;0.2285319;8;45;6;248;3408;1608;65536;0.7427155;-0.5983379;0.2285319;0.1952908;-15;28;9;-308;3504;-1415;8192;0.638788;-0.566482;-0.3850415;-0.3504155;-23;12;-30;484;4522;104;32768;0.7323911;-0.6066482;-0.2451524;-0.1883656;23;-8;-9;69;4773;-743;256;-0.1204986;0.02908587;-0.7391374;-0.6620498;18;24;7;1382;4072;204;128;0.1371191;-0.07617728;0.7135438;0.6828254;-13;29;-2;-938;4062;-96;4;0.6164508;-0.4958449;0.4141274;0.4501385;3;45;-8;72;4092;772;16;0.5927978;-0.7421497;-0.1689751;-0.2631579;4;-9;1;981;4045;1454;2;0.5674159;-0.4418283;-0.4584487;-0.5221606;-8;2;-4;292;4084;10;8;0.6149584;-0.7123855;0.1939058;0.2770083;0;5;1;-7;4253;541;0.6555972;2.786207;-0.04930981;0.6612837;3.304394;-0.2198146;0.6662751;3.759247;-0.3716096;0.7464759;4.482407;-0.4668564;0.5244578;4.827417;-0.5470033;0.1708099;4.734993;-0.4661928;-0.1593602;3.869375;-0.4615526;-0.293087;2.943429;-0.6116802;1.041631;4.770063;-0.5470044;1.314368;4.608174;-0.4661941;1.391008;3.649845;-0.5294974;1.479221;2.719302;-0.6847182;0.3433414;2.744016;-0.04235981;0.199778;1.304879;-0.264021;0;0;0;0.3433414;2.744016;-0.04235981;0.199778;1.304879;-0.264021;0;0;0
741862.8535;NotLabelled;NONE;16384;0.6989741;-0.533241;0.4196676;0.2257618;6;38;8;20;3474;1848;65536;0.7431687;-0.599723;0.2257618;0.1925208;-15;34;13;-464;3564;-1743;8192;0.6461824;-0.5554016;-0.3850415;-0.3545706;-43;16;-24;-518;4338;336;32768;0.7378776;-0.601108;-0.2465374;-0.1828255;34;-16;-2;57;4433;-1145;256;-0.1246537;0.03185596;-0.7370894;-0.6634349;13;33;2;1208;4110;416;128;0.1385041;-0.07894737;0.712975;0.6828254;-12;25;1;-432;4278;-150;4;0.6172361;-0.4986149;0.4141274;0.4459834;-1;22;-9;-10;4036;524;16;0.5941828;-0.741846;-0.16759;-0.2617728;4;-15;0;407;4045;1164;2;0.5627481;-0.4418283;-0.4626039;-0.5235457;-1;33;3;16;4036;-442;8;0.6177285;-0.7114356;0.1925208;0.2742382;2;15;-3;-65;4293;751;0.6600324;2.786464;-0.05559176;0.6657267;3.30536;-0.2239243;0.6707251;3.760845;-0.3738124;0.7556098;4.484153;-0.4637204;0.5358611;4.831146;-0.5415295;0.1815631;4.740393;-0.4616806;-0.1478418;3.874486;-0.4564007;-0.2827272;2.947748;-0.6004845;1.052659;4.7705;-0.541531;1.324291;4.606291;-0.4616828;1.398407;3.648587;-0.5364091;1.489452;2.719099;-0.6962525;0.3477763;2.744243;-0.04883284;0.2033815;1.304256;-0.2643462;0;0;0;0.3477763;2.744243;-0.04883284;0.2033815;1.304256;-0.2643462;0;0;0
741883.6655;NotLabelled;NONE;16384;0.7012839;-0.534626;0.4155124;0.2229917;0;42;12;76;3682;1854;65536;0.742762;-0.602493;0.2243767;0.1869806;-17;40;15;-508;3572;-1439;8192;0.6520707;-0.5484765;-0.3850415;-0.3545706;-43;7;-22;-822;4304;632;32768;0.7427143;-0.5969529;-0.2451524;-0.1786704;36;-24;-1;59;4437;-985;256;-0.132964;0.03878116;-0.7340511;-0.66482;9;34;0;654;4072;528;128;0.1440443;-0.08587258;0.7097416;0.6842105;-6;29;5;-486;4086;-184;4;0.6171802;-0.5;0.4155124;0.4432133;-3;-1;-12;-42;3836;378;16;0.5941828;-0.7426445;-0.166205;-0.2603878;5;-14;0;275;4127;912;2;0.5589532;-0.4404432;-0.4653739;-0.5263157;-1;23;4;-564;4092;-260;8;0.6177285;-0.7127112;0.1897507;0.2728532;4;16;-4;-189;4397;693;0.6601849;2.788252;-0.06483206;0.6658807;3.307295;-0.2327125;0.6708804;3.762911;-0.3822038;0.7571784;4.486411;-0.4691686;0.5381248;4.834129;-0.5456882;0.1836172;4.743729;-0.4663708;-0.1446439;3.877374;-0.4643441;-0.2797136;2.950382;-0.6066105;1.054807;4.772503;-0.5456896;1.326089;4.607462;-0.4663731;1.402322;3.652307;-0.5670849;1.501651;2.726351;-0.7418076;0.3479286;2.746026;-0.05811284;0.1999975;1.304932;-0.2635936;0;0;0;0.3479286;2.746026;-0.05811284;0.1999975;1.304932;-0.2635936;0;0;0
741903.6886;NotLabelled;NONE;16384;0.7051603;-0.536011;0.4085872;0.2202216;-4;53;19;332;3680;1626;65536;0.7431275;-0.6052631;0.2202216;0.1814404;-19;48;12;-930;3734;-1429;8192;0.6578335;-0.5415512;-0.3850415;-0.3545706;-44;0;-19;-670;4202;1146;32768;0.7466929;-0.5941828;-0.2437673;-0.1731302;38;-27;0;13;4277;-1161;256;-0.1357341;0.04293629;-0.7333124;-0.66482;6;32;0;550;4050;434;128;0.1468144;-0.0900277;0.7099929;0.6828254;0;35;6;-556;4096;-406;4;0.6161147;-0.501385;0.4168975;0.4418283;0;-10;-14;72;3670;404;16;0.5969529;-0.7420036;-0.1634349;-0.2576177;7;-26;-2;601;3959;880;2;0.5575803;-0.4390582;-0.466759;-0.5277008;1;15;0;-950;3914;-78;8;0.6191136;-0.712038;0.1897507;0.2714681;4;0;-7;333;4007;589;0.6610676;2.788833;-0.08226554;0.6667746;3.30889;-0.2469762;0.6717843;3.765409;-0.393685;0.7591663;4.489184;-0.4772221;0.5406535;4.837569;-0.5522389;0.1859723;4.747306;-0.4735424;-0.1416938;3.880741;-0.4681806;-0.2816144;2.953175;-0.6017416;1.057247;4.775203;-0.5522401;1.328247;4.609405;-0.473544;1.407378;3.65658;-0.5924618;1.506503;2.733374;-0.7812752;0.3488109;2.746567;-0.07582503;0.1937963;1.304613;-0.26973;0;0;0;0.3488109;2.746567;-0.07582503;0.1937963;1.304613;-0.26973;0;0;0
741924.9081;NotLabelled;NONE;16384;0.7083063;-0.5387812;0.4016621;0.2160665;4;67;23;172;3672;1146;65536;0.74349;-0.6080332;0.2146814;0.1772853;-13;43;5;-540;3948;-1605;8192;0.663474;-0.534626;-0.3850415;-0.3545706;-42;3;-29;-1070;4080;1194;32768;0.7518212;-0.5900277;-0.2409972;-0.1689751;40;-27;2;121;4097;-1549;256;-0.1385041;0.04709141;-0.732539;-0.66482;10;35;0;416;3978;310;128;0.1495845;-0.09279778;0.7103887;0.6814404;4;36;5;-314;3992;-414;4;0.613589;-0.4986149;0.4224377;0.4432133;-10;-20;-2;824;4324;810;16;0.599723;-0.7421045;-0.1592798;-0.2534626;0;-9;-8;77;4135;970;2;0.5560386;-0.4376731;-0.466759;-0.5304709;2;9;-4;-1478;3866;146;8;0.6191136;-0.7115084;0.1897507;0.2728532;0;-15;-6;-279;4173;587;0.6584046;2.791211;-0.08773996;0.6641074;3.310884;-0.2536588;0.6691135;3.767061;-0.4014282;0.7547865;4.491099;-0.48444;0.5354549;4.839019;-0.5592266;0.180982;4.74786;-0.480625;-0.1448935;3.880604;-0.4808603;-0.28506;2.952503;-0.6103967;1.052194;4.777878;-0.5592281;1.323581;4.612666;-0.4806271;1.406586;3.662464;-0.6166431;1.508756;2.741704;-0.8155132;0.3461481;2.74896;-0.08119332;0.1897879;1.305961;-0.2660328;0;0;0;0.3461481;2.74896;-0.08119332;0.1897879;1.305961;-0.2660328;0;0;0
741946.6797;NotLabelled;NONE;16384;0.7154554;-0.5470914;0.3808864;0.2091413;4;69;47;-308;4696;442;65536;0.7449129;-0.6094183;0.2091413;0.1731302;7;12;-9;-1512;4846;-2335;8192;0.6690553;-0.5277008;-0.3836565;-0.3559557;-41;5;-44;-1454;4336;1212;32768;0.7567222;-0.5858725;-0.2396122;-0.1634349;37;-29;-2;343;4195;-1919;256;-0.1412742;0.04986149;-0.7305658;-0.666205;12;20;0;158;4154;382;128;0.1523546;-0.09695291;0.7105722;0.6800554;-3;19;1;20;4152;-626;4;0.6138766;-0.4958449;0.4238227;0.4445983;-9;-17;8;960;3868;444;16;0.5983379;-0.7430938;-0.1620499;-0.2520775;-3;7;-4;-31;4039;980;2;0.5569642;-0.4362881;-0.4653739;-0.5318559;2;-8;-11;-1746;4078;122;8;0.6191136;-0.7106046;0.1911357;0.2742382;-6;-13;0;-647;4361;629;0.6624398;2.792421;-0.09505396;0.6681374;3.311632;-0.2624145;0.6731389;3.767397;-0.4114494;0.7570909;4.4917;-0.4939098;0.536926;4.839162;-0.5683798;0.1826844;4.747107;-0.4897796;-0.140969;3.87902;-0.4916226;-0.2782619;2.950197;-0.6190359;1.053808;4.779238;-0.5685317;1.325598;4.614603;-0.4901143;1.410434;3.667729;-0.6466718;1.511705;2.749921;-0.8591762;0.3501834;2.750188;-0.08838043;0.1853355;1.306994;-0.2640922;0;0;0;0.3501834;2.750188;-0.08838043;0.1853355;1.306994;-0.2640922;0;0;0
741966.7546;NotLabelled;NONE;16384;0.7213022;-0.5484765;0.368421;0.2077562;-3;36;71;30;4862;406;65536;0.7468482;-0.6066482;0.2091413;0.1745152;22;-15;-15;-2798;4930;-2719;8192;0.6755809;-0.5193906;-0.3822715;-0.3573407;-55;11;-49;-1648;4228;1504;32768;0.7597417;-0.5831025;-0.2396122;-0.1592798;41;-22;-3;753;4443;-3009;256;-0.1412742;0.05263158;-0.7291057;-0.66759;12;9;0;-246;4180;460;128;0.1537396;-0.09972299;0.7098902;0.6800554;-1;19;0;358;4322;-554;4;0.615102;-0.4930748;0.4238227;0.4459834;-9;-13;11;760;3970;254;16;0.5969529;-0.744207;-0.1620499;-0.2520775;-4;1;-5;187;4213;1082;2;0.5612428;-0.433518;-0.4612188;-0.533241;1;0;-12;-828;3824;726;8;0.6163435;-0.7121013;0.1925208;0.2756233;-17;-4;9;-873;3839;431;0.6598055;2.791476;-0.09904702;0.6654991;3.310319;-0.2675461;0.670497;3.765756;-0.4175804;0.7546499;4.490385;-0.4969174;0.5346009;4.838207;-0.5700327;0.180296;4.745896;-0.4920201;-0.1293681;3.872897;-0.5096568;-0.2651753;2.943988;-0.6380274;1.05147;4.778172;-0.5701532;1.323182;4.613147;-0.4922854;1.40804;3.669261;-0.665935;1.512237;2.754888;-0.8914459;0.3475494;2.749258;-0.09227333;0.1758408;1.307107;-0.2699626;0;0;0;0.3475494;2.749258;-0.09227333;0.1758408;1.307107;-0.2699626;0;0;0
741987.6796;NotLabelled;NONE;16384;0.727284;-0.5443213;0.3587258;0.2146814;-23;-3;108;314;4844;928;65536;0.7502657;-0.602493;0.2077562;0.1759003;34;8;-20;-4420;5010;-4179;8192;0.6912371;-0.4986149;-0.3753462;-0.3642659;-65;-5;-90;-2634;4618;2536;32768;0.7709221;-0.5720221;-0.2368421;-0.1495845;66;-32;5;1911;4847;-5227;256;-0.1398892;0.05540166;-0.727897;-0.6689751;20;-20;2;-886;3636;956;128;0.1537396;-0.1038781;0.7106194;0.6786703;3;-2;-3;686;3626;-144;4;0.6143452;-0.4903047;0.4252077;0.4487534;-9;-13;3;452;4230;52;16;0.5969529;-0.7446746;-0.1620499;-0.2506925;-1;-18;-6;93;4233;1262;2;0.55967;-0.432133;-0.4612188;-0.536011;-3;28;-7;-730;3478;542;8;0.6135734;-0.7161281;0.1883656;0.2742382;-27;38;17;-2353;3479;1079;0.6648023;2.789011;-0.09794991;0.670498;3.308039;-0.2658773;0.6754976;3.763641;-0.4154098;0.7571516;4.488899;-0.4915477;0.5359299;4.836257;-0.5633181;0.1818969;4.742361;-0.4859657;-0.1205152;3.867318;-0.5202453;-0.2585924;2.939544;-0.6542841;1.053007;4.778044;-0.5633193;1.325243;4.613642;-0.4859673;1.412707;3.673418;-0.677289;1.521018;2.761568;-0.9109266;0.3525461;2.746786;-0.09122662;0.1750322;1.306124;-0.27519;0;0;0;0.3525461;2.746786;-0.09122662;0.1750322;1.306124;-0.27519;0;0;0
742009.8549;NotLabelled;NONE;16384;0.7385207;-0.533241;0.3462604;0.2243767;-55;-8;148;1460;4792;1772;65536;0.7574519;-0.5969529;0.2022161;0.1703601;59;64;-27;-5262;5742;-5111;8192;0.7044554;-0.4861496;-0.365651;-0.365651;-80;-33;-123;-2862;5300;3072;32768;0.7791582;-0.5637119;-0.234072;-0.1426593;89;-44;10;2199;5595;-6675;256;-0.134349;0.05263158;-0.7265939;-0.6717451;34;-44;4;-1084;3410;1106;128;0.1523546;-0.101108;0.7113169;0.6786703;-6;-22;-8;664;3458;-344;4;0.6133842;-0.4903047;0.4265928;0.4487534;-4;-12;-9;162;3930;96;16;0.5969529;-0.7461981;-0.1592798;-0.2479224;1;-24;-5;25;4173;1324;2;0.5589702;-0.4265928;-0.4639889;-0.5387812;-10;48;-5;-916;3872;1024;8;0.6135734;-0.7218897;0.1800554;0.2645429;-27;107;19;-3433;4115;653;0.6641997;2.788327;-0.09563076;0.6698916;3.307009;-0.2646251;0.6748878;3.762303;-0.4150941;0.7526599;4.488317;-0.4880128;0.5295991;4.834787;-0.5583695;0.176042;4.738644;-0.4816039;-0.1186093;3.862243;-0.5401897;-0.2590493;2.93636;-0.6844586;1.046983;4.779367;-0.5583707;1.320067;4.616099;-0.4816058;1.40268;3.687467;-0.7246983;1.517484;2.784637;-0.9883369;0.3519436;2.746115;-0.08881369;0.1717632;1.306272;-0.2765467;0;0;0;0.3519436;2.746115;-0.08881369;0.1717632;1.306272;-0.2765467;0;0;0
742031.7043;NotLabelled;NONE;16384;0.7524971;-0.5207756;0.3282548;0.234072;-70;25;180;1754;5606;1724;65536;0.7679353;-0.5886427;0.1925208;0.1634349;95;74;-53;-4460;6720;-5739;8192;0.722348;-0.4709141;-0.3518005;-0.3642659;-100;-64;-150;-2516;6096;3284;32768;0.7897385;-0.5526316;-0.2299169;-0.134349;120;-50;22;2289;6431;-7735;256;-0.1274238;0.04986149;-0.7228842;-0.6772853;53;-54;1;-640;3502;1106;128;0.1509695;-0.09695291;0.7095402;0.6814404;-20;-23;-11;382;3426;12;4;0.6113511;-0.4916897;0.4293629;0.4473684;3;-4;-20;588;3804;302;16;0.5969529;-0.7466569;-0.1592798;-0.2465374;3;-11;-1;-11;4047;1234;2;0.5558591;-0.4210526;-0.4695291;-0.5415512;-22;57;0;-856;4268;1722;8;0.6163435;-0.7264923;0.16759;0.2534626;-17;105;18;-961;4143;-271;0.6645117;2.788151;-0.09856819;0.6702014;3.306638;-0.2681572;0.6751957;3.761759;-0.4191483;0.7511868;4.488451;-0.4870174;0.5272989;4.834837;-0.5551271;0.1739377;4.73728;-0.479248;-0.1147278;3.863549;-0.5869387;-0.2607805;2.941382;-0.7484096;1.044821;4.780717;-0.5551842;1.318267;4.61761;-0.4793731;1.400998;3.69923;-0.7586766;1.522619;2.803599;-1.043;0.3522557;2.745946;-0.09169853;0.1740847;1.305662;-0.2779676;0;0;0;0.3522557;2.745946;-0.09169853;0.1740847;1.305662;-0.2779676;0;0;0
742052.6789;NotLabelled;NONE;16384;0.7889718;-0.4875346;0.2811634;0.2465374;-122;29;211;288;6624;3720;65536;0.8011193;-0.5512465;0.166205;0.1634349;176;38;-146;-4268;8810;-7233;8192;0.7443307;-0.4515235;-0.333795;-0.3614958;-135;-88;-175;-2104;6364;3264;32768;0.8049499;-0.534626;-0.2243767;-0.1260388;162;-42;38;2127;7741;-9223;256;-0.1204986;0.04570637;-0.7178071;-0.6842105;57;-41;0;-74;3540;952;128;0.1495845;-0.09418282;0.7075381;0.6842105;-22;-23;-12;98;3604;104;4;0.6122181;-0.4930748;0.4279778;0.4459834;-3;23;-7;1872;3904;404;16;0.5969529;-0.746951;-0.1578947;-0.2465374;-2;5;-1;543;4121;928;2;0.5524528;-0.4141274;-0.4764543;-0.5443213;-31;56;1;-1392;3374;758;8;0.6163435;-0.7295029;0.1648199;0.2465374;-12;-3;10;2751;4343;191;0.6627254;2.789792;-0.1053929;0.6684259;3.309269;-0.2719235;0.6734298;3.765272;-0.4202298;0.7469649;4.493133;-0.4774604;0.5219644;4.839681;-0.5409169;0.1688308;4.739799;-0.4670289;-0.1117785;3.871091;-0.6249386;-0.2622662;2.954813;-0.8135772;1.039673;4.78738;-0.5409182;1.313573;4.624152;-0.4670308;1.390283;3.720438;-0.7921337;1.519132;2.834829;-1.103392;0.3504689;2.747548;-0.09879236;0.1753612;1.305806;-0.2764882;0;0;0;0.3504689;2.747548;-0.09879236;0.1753612;1.305806;-0.2764882;0;0;0
742073.6938;NotLabelled;NONE;16384;0.8090362;-0.4612188;0.2590028;0.2562327;-150;2;236;1488;7280;3198;65536;0.8221012;-0.5235457;0.1481994;0.16759;208;40;-176;-3646;10616;-7395;8192;0.7695872;-0.4279778;-0.3144044;-0.3545706;-175;-95;-192;-2062;6514;3740;32768;0.8228289;-0.5110803;-0.2188366;-0.1177285;214;-37;55;1241;8691;-9671;256;-0.1163435;0.04155125;-0.7120879;-0.6911357;55;-36;0;352;3454;484;128;0.1481994;-0.09141274;0.7041544;0.6883656;-31;-25;-9;174;3868;-260;4;0.614036;-0.4944598;0.4252077;0.4445983;-4;18;4;712;4170;-120;16;0.5969529;-0.7466569;-0.1592798;-0.2465374;-7;1;-2;353;4189;542;2;0.55349;-0.4072022;-0.4764543;-0.5484765;8;-30;-15;-2346;4562;-134;8;0.6108033;-0.7330535;0.16759;0.2479224;-12;54;17;-995;4541;1511;0.6653991;2.789568;-0.09996276;0.6711116;3.310121;-0.263103;0.6761261;3.76708;-0.4084334;0.7488451;4.495947;-0.4523364;0.5235222;4.843312;-0.5099171;0.1703819;4.741673;-0.4384969;-0.09273998;3.900244;-0.7232661;-0.2475847;3.011865;-1.014132;1.041296;4.791656;-0.5099183;1.315268;4.627453;-0.4384984;1.388486;3.745827;-0.8201387;1.523518;2.876695;-1.172508;0.3531421;2.747283;-0.09366016;0.1823495;1.305359;-0.2740662;0;0;0;0.3531421;2.747283;-0.09366016;0.1823495;1.305359;-0.2740662;0;0;0
742094.6763;NotLabelled;NONE;16384;0.8284714;-0.432133;0.2354571;0.267313;-169;0;244;2466;7518;3246;65536;0.8446244;-0.4903047;0.1274238;0.1731302;241;29;-200;-3264;11502;-7087;8192;0.8264393;-0.3587258;-0.2756233;-0.33518;-262;-107;-215;-2662;7746;4322;32768;0.86782;-0.4418283;-0.2036011;-0.101108;308;-43;80;115;11351;-9207;256;-0.1052632;0.03462604;-0.699446;-0.7060425;54;-47;-1;76;4208;-884;128;0.1412742;-0.08725762;0.6979043;0.6966759;-34;-40;-6;66;4456;84;4;0.614036;-0.4944598;0.4252077;0.4445983;-3;-11;10;-626;3946;54;16;0.5969529;-0.7474067;-0.1578947;-0.2451524;-10;-14;-5;157;4311;412;2;0.5580618;-0.4113573;-0.4722992;-0.5443213;5;-49;2;2;4988;598;8;0.6121883;-0.7351427;0.1634349;0.2409972;-5;47;15;1417;4333;1557;0.6624191;2.789851;-0.09103106;0.66815;3.312072;-0.2487466;0.6731809;3.770519;-0.3893148;0.7477024;4.499892;-0.4197126;0.5233085;4.848792;-0.4713262;0.1697962;4.746708;-0.4024278;-0.08632031;3.932039;-0.7616602;-0.2359519;3.069302;-1.123726;1.040958;4.795906;-0.4713274;1.314407;4.629766;-0.4024295;1.387807;3.778547;-0.8477535;1.52813;2.932782;-1.251212;0.3501616;2.747502;-0.08520445;0.1834714;1.305806;-0.271175;0;0;0;0.3501616;2.747502;-0.08520445;0.1834714;1.305806;-0.271175;0;0;0
742114.6825;NotLabelled;NONE;16384;0.8501753;-0.3961219;0.2105263;0.2756233;-198;9;248;2704;7050;3500;65536;0.8687126;-0.4501385;0.1038781;0.1786704;266;42;-213;-3294;11820;-7069;8192;0.8551025;-0.3171745;-0.2548476;-0.3213296;-283;-111;-221;-3046;7690;3740;32768;0.9161544;-0.3462604;-0.1869806;-0.07617728;374;-52;72;-289;13245;-7403;256;-0.09833795;0.03185596;-0.6925207;-0.7139537;64;-54;-6;310;4354;-1348;128;0.1357341;-0.08171745;0.6939058;0.7024196;-33;-60;-5;-116;4586;548;4;0.6122181;-0.4930748;0.4279778;0.4459834;0;-33;7;-486;4110;366;16;0.5969529;-0.7486005;-0.1565097;-0.2423823;-10;-23;-6;-29;4261;678;2;0.55902;-0.4155124;-0.4722992;-0.5401662;0;-24;29;662;4088;288;8;0.6121883;-0.7363512;0.1620499;0.2382271;1;-11;3;865;4219;1469;0.6642286;2.789663;-0.08206705;0.6699954;3.315169;-0.228464;0.6750584;3.776546;-0.3590952;0.7485878;4.506652;-0.3595453;0.5238732;4.857055;-0.3978812;0.1702386;4.751775;-0.3346512;-0.06895259;3.971457;-0.7730798;-0.2021058;3.144833;-1.216658;1.041599;4.804917;-0.3978822;1.315018;4.636489;-0.3346526;1.403237;3.884865;-0.930936;1.550174;3.119216;-1.469434;0.3519696;2.7472;-0.07723052;0.1905083;1.305503;-0.2677594;0;0;0;0.3519696;2.7472;-0.07723052;0.1905083;1.305503;-0.2677594;0;0;0
742135.8139;NotLabelled;NONE;16384;0.870527;-0.3587258;0.1855956;0.2811634;-221;29;252;2350;6404;3202;65536;0.8912395;-0.4072022;0.08033241;0.1828255;291;47;-215;-2180;12104;-6375;8192;0.8825302;-0.2714681;-0.2354571;-0.3033241;-307;-124;-209;-2616;7194;3496;32768;0.9374358;-0.2922437;-0.1786704;-0.06232687;396;-48;60;-1061;13045;-5863;256;-0.09279778;0.02770083;-0.6855956;-0.7215123;68;-33;-6;-4;4458;-1414;128;0.1288089;-0.07479224;0.6911357;0.7072099;-30;-66;-3;-150;4720;1222;4;0.609453;-0.4903047;0.4307479;0.4501385;0;-29;1;540;3870;384;16;0.5969529;-0.7497796;-0.1551246;-0.2396122;-6;-17;-5;133;4129;1116;2;0.5565214;-0.4210526;-0.4750692;-0.536011;8;-18;43;-318;3296;206;8;0.6108033;-0.7364372;0.1648199;0.2396122;6;-13;0;-403;4153;1171;0.6640789;2.789792;-0.08259838;0.6698678;3.317329;-0.2214971;0.6749508;3.780519;-0.345545;0.7455969;4.510738;-0.3297027;0.5195825;4.861023;-0.3607883;0.1662322;4.752993;-0.3006863;-0.06165703;4.02109;-0.8209882;-0.17907;3.244837;-1.3515;1.037509;4.810918;-0.3607894;1.311455;4.642202;-0.300688;1.412107;3.959136;-0.9726736;1.562793;3.330947;-1.665826;0.3518192;2.747264;-0.0784157;0.191279;1.305341;-0.2680029;0;0;0;0.3518192;2.747264;-0.0784157;0.191279;1.305341;-0.2680029;0;0;0
742156.8575;NotLabelled;NONE;16384;0.9099712;-0.2714681;0.1357341;0.2825485;-268;40;230;1304;6040;3378;65536;0.9327604;-0.3047091;0.033241;0.1897507;343;41;-216;-452;12484;-5135;8192;0.9072794;-0.2229917;-0.2174515;-0.2825485;-320;-121;-194;-1346;6588;2872;32768;0.9555201;-0.234072;-0.1731302;-0.04709141;410;-38;51;-1261;13025;-4677;256;-0.08725762;0.02770083;-0.6772853;-0.7300023;58;-34;-13;384;4462;-1790;128;0.1204986;-0.06786703;0.6883656;0.7120582;-22;-63;-2;-128;4682;1638;4;0.6066214;-0.4875346;0.433518;0.4542936;-3;-11;2;1000;3796;646;16;0.5941828;-0.7515341;-0.1551246;-0.2409972;-6;20;2;429;4045;1488;2;0.5552238;-0.4279778;-0.4750692;-0.5318559;15;-43;40;-1370;3940;456;8;0.6121883;-0.7348334;0.1648199;0.2409972;9;-3;0;-311;4129;1059;0.6613489;2.789593;-0.07883409;0.6671548;3.318676;-0.2117239;0.672253;3.783246;-0.3304957;0.7425797;4.51299;-0.2990213;0.5164919;4.863776;-0.3231331;0.163062;4.754372;-0.2660618;-0.05295001;4.07864;-0.8619255;-0.1519527;3.36302;-1.475021;1.034436;4.813863;-0.3231339;1.308326;4.644006;-0.2660629;1.424527;4.041771;-1.009088;1.581622;3.501463;-1.771437;0.3490888;2.74702;-0.07517434;0.1920545;1.305175;-0.2682549;0;0;0;0.3490888;2.74702;-0.07517434;0.1920545;1.305175;-0.2682549;0;0;0
742177.8264;NotLabelled;NONE;16384;0.9265327;-0.2229917;0.1163435;0.2797784;-286;33;209;1310;5178;3906;65536;0.9500335;-0.2465374;0.01108033;0.1911357;354;42;-206;90;11988;-4273;8192;0.927556;-0.1717452;-0.2022161;-0.2631579;-336;-95;-167;-746;6074;2894;32768;0.9702125;-0.1717452;-0.16759;-0.033241;419;-24;43;-1863;12545;-3495;256;-0.08171745;0.02493075;-0.6717451;-0.7358391;61;-37;-9;282;4368;-1966;128;0.1149584;-0.06232687;0.6869806;0.7148129;-11;-46;0;-306;4616;1360;4;0.6078013;-0.4847645;0.433518;0.4556787;-3;-12;8;730;4212;1010;16;0.5927978;-0.7514473;-0.1565097;-0.2437673;-4;17;1;747;4037;1444;2;0.5577042;-0.4362881;-0.4722992;-0.5249307;11;-66;34;-1418;4260;90;8;0.6121883;-0.7345214;0.166205;0.2409972;10;-4;-1;-405;4101;935;0.6651238;2.787366;-0.08196119;0.6709467;3.317983;-0.2085855;0.6760598;3.783926;-0.3218557;0.7418591;4.513083;-0.2722398;0.5136877;4.862983;-0.2882363;0.1608061;4.750069;-0.2347181;-0.04562454;4.220793;-0.9665528;-0.1180267;3.67017;-1.734257;1.031926;4.81622;-0.288237;1.30672;4.646667;-0.234719;1.436574;4.135185;-1.04082;1.600159;3.695846;-1.864232;0.3528633;2.744753;-0.0788455;0.1983116;1.302968;-0.2743618;0;0;0;0.3528633;2.744753;-0.0788455;0.1983116;1.302968;-0.2743618;0;0;0
742197.8275;NotLabelled;NONE;16384;0.9405268;-0.1717452;0.09972299;0.2756233;-303;36;188;1404;4854;3496;65536;0.9635689;-0.1883656;-0.006925208;0.1897507;355;55;-187;708;11224;-3399;8192;0.9433221;-0.1191136;-0.1911357;-0.2437673;-344;-93;-142;-778;5526;2722;32768;0.9804773;-0.1094183;-0.1620499;-0.02077562;419;-19;34;-1673;11921;-2585;256;-0.07617728;0.0235457;-0.6634349;-0.7439736;77;-32;-6;742;4616;-2312;128;0.1094183;-0.05817174;0.6855956;0.7173579;-26;-47;5;-230;5238;662;4;0.6100004;-0.4819945;0.433518;0.4556787;-5;-3;8;446;4274;824;16;0.5914127;-0.7516349;-0.1565097;-0.2465374;-3;8;1;211;3999;1484;2;0.5629679;-0.4515235;-0.4653739;-0.5124654;16;-55;28;324;3656;202;8;0.6149584;-0.7318881;0.16759;0.2409972;11;-8;0;-235;4141;631;0.6741673;2.785024;-0.07133792;0.679999;3.316445;-0.1945415;0.68512;3.783108;-0.3048078;0.7485632;4.511527;-0.2428164;0.5193213;4.860936;-0.2532633;0.1667168;4.74604;-0.2021912;-0.03563215;4.302372;-0.9899361;-0.08938307;3.85444;-1.823161;1.037703;4.81579;-0.253264;1.312947;4.646213;-0.2021921;1.461174;4.23323;-1.05995;1.632039;3.906856;-1.932918;0.3619066;2.742392;-0.06851888;0.2054524;1.302093;-0.2732598;0;0;0;0.3619066;2.742392;-0.06851888;0.2054524;1.302093;-0.2732598;0;0;0
742218.6709;NotLabelled;NONE;16384;0.9521816;-0.1204986;0.08587258;0.267313;-317;68;161;2018;4144;2634;65536;0.9736783;-0.1301939;-0.0235457;0.1855956;356;81;-159;106;10266;-2237;8192;0.9642118;-0.0166205;-0.1800554;-0.1939058;-350;-120;-78;-1078;4064;1572;32768;0.9877735;0.01523546;-0.1551246;0.002770083;416;-10;13;-1259;10029;-423;256;-0.06925207;0.02077562;-0.6454294;-0.7603903;64;-14;-2;1376;5680;-2014;128;0.09833795;-0.05401662;0.6842105;0.7206025;-2;-21;21;-1148;5652;870;4;0.6090137;-0.4819945;0.434903;0.4556787;-9;-6;0;154;3772;206;16;0.5900277;-0.7524333;-0.1578947;-0.2465374;-2;8;3;-169;3851;1344;2;0.5612547;-0.4598338;-0.4653739;-0.5069252;13;-35;33;618;3614;490;8;0.6163435;-0.7302638;0.16759;0.2423823;7;-2;1;-511;4147;377;0.6885145;2.781879;-0.0619584;0.6943547;3.314067;-0.1818073;0.6994833;3.781415;-0.2891277;0.7593778;4.508423;-0.2095339;0.5285164;4.856912;-0.2120685;0.1763559;4.739184;-0.1645069;-0.02524357;4.388394;-0.9979537;-0.06583151;4.046861;-1.880848;1.047104;4.814192;-0.2120695;1.323041;4.644719;-0.164508;1.492723;4.334763;-1.06084;1.667275;4.12503;-1.968215;0.3762537;2.739231;-0.05942994;0.2144778;1.300756;-0.2726891;0;0;0;0.3762537;2.739231;-0.05942994;0.2144778;1.300756;-0.2726891;0;0;0
742239.7932;NotLabelled;NONE;16384;0.962836;-0.07063711;0.07617728;0.2493075;-328;123;132;1318;3434;1696;65536;0.9811091;-0.07202215;-0.03601108;0.1759003;360;104;-133;800;9292;-1503;8192;0.9690956;0.02770083;-0.1814404;-0.1648199;-347;-130;-39;-870;2634;1176;32768;0.9849651;0.07756232;-0.1537396;0.01385042;404;-2;0;-1621;8583;615;256;-0.06648199;0.01939058;-0.6398892;-0.7653404;40;-20;0;508;5388;-1492;128;0.09279778;-0.05124654;0.6828254;0.7228498;-20;-54;10;-940;5536;2306;4;0.6070828;-0.4806094;0.4376731;0.4570637;-7;-16;-9;74;3316;-120;16;0.5886427;-0.752771;-0.1592798;-0.2479224;0;3;4;-207;3861;1340;2;0.5604253;-0.4653739;-0.4653739;-0.5027701;9;-17;28;-342;4334;356;8;0.6177285;-0.7287727;0.1689751;0.2423823;4;-5;2;-405;4121;449;0.6885486;2.781739;-0.06367503;0.6943996;3.314915;-0.1790494;0.6995378;3.783147;-0.2824403;0.75642;4.505525;-0.1666931;0.5242772;4.852898;-0.1529065;0.1723736;4.731719;-0.1126714;-0.0260912;4.476009;-0.9807454;-0.04848957;4.243991;-1.899148;1.043016;4.812054;-0.1529074;1.319393;4.641406;-0.1126724;1.535599;4.539374;-1.04601;1.714399;4.568655;-1.976043;0.3762875;2.73907;-0.06153364;0.2170211;1.300141;-0.2736081;0;0;0;0.3762875;2.73907;-0.06153364;0.2170211;1.300141;-0.2736081;0;0;0
742279.6837;NotLabelled;NONE;16384;0.9710001;-0.01939058;0.07202215;0.2271468;-342;146;93;732;2222;1652;65536;0.98523;-0.01385042;-0.04432133;0.1648199;358;102;-111;594;8086;-1223;8192;0.9699544;0.07617728;-0.1869806;-0.1357341;-346;-130;-3;-548;1770;850;32768;0.9782679;0.1371191;-0.1537396;0.0235457;383;-6;-19;-1291;7119;691;256;-0.06509695;0.01800554;-0.6357341;-0.7689475;44;-15;0;882;4802;-1362;128;0.0900277;-0.05124654;0.6828254;0.7232;-1;13;11;-968;5456;966;4;0.6031327;-0.4792244;0.4445983;0.4570637;-1;-23;-25;548;4536;412;16;0.5900277;-0.7527226;-0.1565097;-0.2465374;10;-25;4;137;3999;1514;2;0.5594437;-0.468144;-0.466759;-0.5;4;-17;20;-926;4424;340;8;0.6177285;-0.7287727;0.1689751;0.2423823;1;-1;3;-497;4213;423;0.6920333;2.781277;-0.06714991;0.6978915;3.315125;-0.1793693;0.7030366;3.783962;-0.2799895;0.7586521;4.504586;-0.153221;0.5259497;4.851349;-0.1344402;0.1741893;4.72903;-0.09647027;-0.03257536;4.56722;-0.9849491;-0.04987507;4.445245;-1.924427;1.044751;4.811313;-0.1344405;1.321348;4.640501;-0.09647039;1.563065;4.630699;-1.029075;1.743564;4.779458;-1.947268;0.379772;2.738597;-0.06528108;0.2198639;1.299384;-0.274933;0;0;0;0.379772;2.738597;-0.06528108;0.2198639;1.299384;-0.274933;0;0;0
742300.6868;NotLabelled;NONE;16384;0.9780767;0.08171745;0.07894737;0.1745152;-345;149;15;414;742;1000;65536;0.985268;0.09833795;-0.05124654;0.1301939;356;128;-59;1270;6152;-647;8192;0.9666707;0.1232687;-0.1966759;-0.1080332;-332;-129;25;-642;1070;1086;32768;0.9681609;0.1925208;-0.1565097;0.033241;364;-25;-37;-1145;5995;1247;256;-0.06371191;0.01800554;-0.6301939;-0.7736099;46;-14;3;944;4350;-1376;128;0.08725762;-0.05124654;0.6814404;0.724844;-21;-10;5;-1242;4386;536;4;0.5989388;-0.4806094;0.4487534;0.4570637;-6;-9;-28;876;4090;572;16;0.5927978;-0.7523007;-0.1523546;-0.2437673;12;-37;3;391;4099;1278;2;0.5595089;-0.4709141;-0.4653739;-0.4986149;3;-21;14;-860;4226;270;8;0.6177285;-0.729232;0.1689751;0.2409972;0;0;4;-341;4189;499;0.7009727;2.782839;-0.07790288;0.7068322;3.316801;-0.1895863;0.7119782;3.785737;-0.2897359;0.7676682;4.504888;-0.1548911;0.5350411;4.851485;-0.1324618;0.1832129;4.728848;-0.09618369;-0.0348326;4.662134;-0.994145;-0.05276184;4.650045;-1.94142;1.053832;4.811307;-0.1324276;1.330347;4.640007;-0.09610734;1.603634;4.728664;-1.015743;1.784866;4.989672;-1.908388;0.3887114;2.740157;-0.07608038;0.2223175;1.299681;-0.2715329;0;0;0;0.3887114;2.740157;-0.07608038;0.2223175;1.299681;-0.2715329;0;0;0
742320.8471;NotLabelled;NONE;16384;0.9761881;0.134349;0.08864266;0.1454294;-361;159;0;-76;360;510;65536;0.9800771;0.1551246;-0.04986149;0.1135734;357;125;-36;168;5408;-329;8192;0.9601156;0.166205;-0.2105263;-0.07894737;-319;-137;60;-240;632;518;32768;0.9554057;0.2437673;-0.1606648;0.04432133;346;-22;-48;-1721;5065;1439;256;-0.06371191;0.0166205;-0.6246537;-0.778121;29;7;3;632;3470;-1208;128;0.08587258;-0.05124654;0.6786703;0.7276031;-37;-10;0;-762;2686;792;4;0.600006;-0.4806094;0.4501385;0.4542936;-5;2;-22;938;3972;688;16;0.5955678;-0.7518352;-0.1481994;-0.2409972;11;-31;3;245;4209;940;2;0.559622;-0.4778393;-0.4626039;-0.4944598;7;-13;10;-260;4260;-72;8;0.6191136;-0.7285134;0.1689751;0.2396122;-2;7;3;-227;4143;567;0.6996542;2.785997;-0.08628393;0.7055195;3.320484;-0.1954219;0.7106707;3.789893;-0.293336;0.7652498;4.507068;-0.1479231;0.5321321;4.852988;-0.1206726;0.1804317;4.729364;-0.0865679;-0.08621059;4.851315;-0.9654076;-0.1154795;5.0475;-1.891934;1.050976;4.813506;-0.1206731;1.327684;4.64206;-0.0865688;1.624202;4.826899;-0.9844482;1.807538;5.189928;-1.840244;0.3873927;2.743307;-0.08468109;0.2230681;1.300728;-0.2658476;0;0;0;0.3873927;2.743307;-0.08468109;0.2230681;1.300728;-0.2658476;0;0;0
742341.6702;NotLabelled;NONE;16384;0.9700454;0.1842105;0.101108;0.1218837;-347;114;-30;-734;-748;518;65536;0.9719577;0.2105263;-0.04293629;0.09556787;364;143;-16;84;5274;-87;8192;0.9361477;0.2465374;-0.2493075;-0.02631579;-300;-112;114;134;-1308;172;32768;0.9239162;0.33518;-0.1731302;0.06371191;314;-43;-69;-1229;3093;1015;256;-0.06371191;0.01800554;-0.6232687;-0.7792001;2;-8;-13;560;2424;-1314;128;0.08587258;-0.04986149;0.6772853;0.7289886;104;-9;1;182;3136;-3678;4;0.5989004;-0.4819945;0.4515235;0.4529086;-1;8;-15;678;3750;512;16;0.5983379;-0.7506184;-0.1454294;-0.2396122;9;-20;4;295;3937;594;2;0.5584707;-0.4806094;-0.4626039;-0.4930748;4;-1;9;148;4008;-78;8;0.6191136;-0.7289675;0.1689751;0.2382271;-2;6;3;-251;4073;535;0.7073531;2.786745;-0.08404743;0.7132279;3.322092;-0.1888854;0.7183876;3.792273;-0.2830229;0.7745994;4.507163;-0.1273474;0.5423183;4.853247;-0.09542383;0.1902716;4.730036;-0.06346564;-0.09811034;4.948555;-0.9163519;-0.1341536;5.247331;-1.814812;1.061062;4.812462;-0.09542412;1.337301;4.639852;-0.06346577;1.663109;4.911577;-0.928503;1.848923;5.366374;-1.738701;0.3950916;2.744044;-0.08281529;0.2239566;1.30176;-0.2599846;0;0;0;0.3950916;2.744044;-0.08281529;0.2239566;1.30176;-0.2599846;0;0;0
742362.7035;NotLabelled;NONE;16384;0.9603143;0.2313019;0.1149584;0.1052632;-326;71;-54;-636;-1202;854;65536;0.9601306;0.265928;-0.03462604;0.07894737;369;98;-1;1646;4722;801;8192;0.9195956;0.2839335;-0.2714681;-0.005540166;-280;-98;137;290;-1876;542;32768;0.9044385;0.3781163;-0.1828255;0.07479224;302;-39;-85;-2633;2365;1333;256;-0.06094183;0.01939058;-0.6204986;-0.7815955;38;5;-10;674;2490;-1020;128;0.08448754;-0.04847645;0.6842105;0.7227502;47;-2;0;-800;2580;1256;4;0.5989004;-0.4819945;0.4529086;0.4515235;2;3;-8;588;3450;388;16;0.599723;-0.7502209;-0.1440443;-0.2382271;5;-17;2;445;3769;730;2;0.5561231;-0.4819945;-0.4639889;-0.4930748;0;5;7;248;3942;2;8;0.6191136;-0.7297382;0.16759;0.2368421;-2;2;3;-241;4039;693;0.7079838;2.788941;-0.08520478;0.7138629;3.32468;-0.1880191;0.7190263;3.795213;-0.2803793;0.7740892;4.509638;-0.1221783;0.5412639;4.855248;-0.08910345;0.1893996;4.73138;-0.05767549;-0.123949;5.039061;-0.873442;-0.1759624;5.434543;-1.73291;1.06007;4.815266;-0.08910371;1.336568;4.642971;-0.05767559;1.718708;5.071578;-0.8313292;1.906834;5.679293;-1.533525;0.3957223;2.746235;-0.08414699;0.223967;1.303067;-0.2533411;0;0;0;0.3957223;2.746235;-0.08414699;0.223967;1.303067;-0.2533411;0;0;0
742382.8193;NotLabelled;NONE;16384;0.9475486;0.2756233;0.1315789;0.09418282;-304;45;-74;248;-1500;1306;65536;0.9442886;0.3199446;-0.02770083;0.07202215;363;23;3;2236;3388;847;8192;0.9003505;0.3171745;-0.2977839;0.009695291;-257;-91;163;-384;-2034;1044;32768;0.8840374;0.4182825;-0.1925208;0.08033241;286;-10;-92;-1723;1513;1303;256;-0.06094183;0.02216066;-0.6135734;-0.7869706;73;8;-11;512;3498;-1528;128;0.08587258;-0.04986149;0.6897507;0.7172055;73;11;9;-482;4052;1294;4;0.597783;-0.4833795;0.4529086;0.4515235;3;-1;-4;516;3750;526;16;0.601108;-0.7500777;-0.1412742;-0.2368421;2;-17;0;381;3857;1152;2;0.5561921;-0.4819945;-0.4653739;-0.4916897;-1;4;2;40;4068;116;8;0.6177285;-0.730911;0.16759;0.2368421;-3;-2;1;-251;4107;907;0.7110173;2.78964;-0.08671914;0.7168745;3.323391;-0.199402;0.7220184;3.79214;-0.3004293;0.7729491;4.505629;-0.1367176;0.5381529;4.849652;-0.1011289;0.1869785;4.723559;-0.07086058;-0.1457829;5.112146;-0.8432586;-0.2088833;5.60112;-1.652407;1.057177;4.812606;-0.1011294;1.334628;4.641643;-0.070861;1.74736;5.138548;-0.7857119;1.940588;5.812494;-1.423087;0.3987561;2.746961;-0.0848102;0.2233043;1.303794;-0.250168;0;0;0;0.3987561;2.746961;-0.0848102;0.2233043;1.303794;-0.250168;0;0;0
742403.6668;NotLabelled;NONE;16384;0.916864;0.3545706;0.166205;0.07756232;-286;42;-101;1164;-1478;1228;65536;0.9056329;0.4168975;-0.02077562;0.07479224;322;5;-5;-786;1664;1135;8192;0.8800237;0.3462604;-0.3240997;0.02493075;-239;-78;175;-558;-2040;1076;32768;0.8618665;0.4584487;-0.200831;0.08171745;278;5;-100;321;773;907;256;-0.06094183;0.02493075;-0.601108;-0.7964507;93;5;-11;294;3940;-1690;128;0.08725762;-0.05124654;0.699446;0.7074851;79;9;8;-386;4898;-150;4;0.5946218;-0.4833795;0.4556787;0.4529086;1;-2;-7;294;4042;772;16;0.601108;-0.7514626;-0.1385041;-0.234072;0;-4;0;379;4097;1224;2;0.5549888;-0.4833795;-0.4653739;-0.4916897;-1;2;0;228;4194;106;8;0.6177285;-0.730911;0.16759;0.2368421;-1;0;0;-279;4313;927;0.7083243;2.790713;-0.08988485;0.7141613;3.322625;-0.2109537;0.7192872;3.789726;-0.3193453;0.7682416;4.50036;-0.14309;0.5325457;4.843125;-0.1017709;0.1816504;4.715653;-0.07415685;-0.1787426;5.17607;-0.7928097;-0.2555745;5.752326;-1.541023;1.05166;4.807367;-0.1017712;1.3295;4.636586;-0.07415682;1.772822;5.189235;-0.7270875;1.970185;5.91925;-1.297976;0.3960634;2.74807;-0.0872508;0.2237161;1.304056;-0.2484269;0;0;0;0.3960634;2.74807;-0.0872508;0.2237161;1.304056;-0.2484269;0;0;0
742423.6677;NotLabelled;NONE;16384;0.8985313;0.3905817;0.1883656;0.06786703;-273;73;-113;1544;-1782;1152;65536;0.8849234;0.4598338;-0.0166205;0.07202215;308;36;-2;-868;1586;859;8192;0.8585068;0.3739612;-0.3490305;0.03601108;-220;-65;167;-718;-1852;1054;32768;0.8388665;0.4944598;-0.2119114;0.08310249;258;-7;-114;39;1139;1049;256;-0.05955679;0.02631579;-0.5900277;-0.8047532;80;10;-3;140;4242;-1742;128;0.08725762;-0.04986149;0.7075841;0.699446;58;-1;2;-482;4924;922;4;0.5946121;-0.4833795;0.4570637;0.4515235;-2;3;-8;374;4070;976;16;0.601108;-0.7514626;-0.1385041;-0.234072;1;-1;-1;427;4093;1152;2;0.5538833;-0.4833795;-0.468144;-0.4903047;-5;12;1;552;4116;-80;8;0.6177285;-0.7312272;0.166205;0.2368421;7;10;-6;-67;4255;1175;0.7052422;2.791101;-0.1030969;0.7110407;3.319488;-0.2387276;0.716132;3.783436;-0.3599062;0.7635363;4.488284;-0.1613984;0.5271859;4.829213;-0.1098836;0.1764451;4.700381;-0.08702739;-0.2267156;5.27838;-0.6884484;-0.3199291;5.996764;-1.299212;1.046357;4.7943;-0.1098838;1.324422;4.623179;-0.08702742;1.796553;5.222873;-0.67502;1.99845;6.00271;-1.173897;0.3929824;2.748548;-0.09919872;0.2222535;1.303498;-0.2526329;0;0;0;0.3929824;2.748548;-0.09919872;0.2222535;1.303498;-0.2526329;0;0;0
742444.6868;NotLabelled;NONE;16384;0.8790159;0.4238227;0.2105263;0.05817174;-261;53;-118;880;-1510;962;65536;0.8633076;0.5;-0.009695291;0.06786703;289;36;6;-562;870;1231;8192;0.8135914;0.4238227;-0.3947368;0.05124654;-192;-27;169;-860;-1920;258;32768;0.791689;0.5581717;-0.2354571;0.07894737;234;17;-120;661;573;915;256;-0.06094183;0.02908587;-0.5831025;-0.8095873;43;7;0;166;3846;-1224;128;0.08725762;-0.04847645;0.7131135;0.6939058;57;-3;-4;-436;4100;496;4;0.5967054;-0.4833795;0.4570637;0.4487534;-2;7;-6;380;3984;820;16;0.602493;-0.7503526;-0.1385041;-0.234072;2;-6;-2;469;4115;1218;2;0.5515301;-0.4833795;-0.4709141;-0.4903047;-7;22;5;630;4194;-98;8;0.6191136;-0.7308165;0.1648199;0.2354571;10;21;-8;-95;4235;1019;0.709188;2.790968;-0.1081755;0.7149507;3.316106;-0.2558876;0.72001;3.777154;-0.3876736;0.7654137;4.47631;-0.1695402;0.528177;4.815134;-0.1090007;0.1776965;4.684917;-0.09039491;-0.2475095;5.311054;-0.6246988;-0.3438659;6.084409;-1.163619;1.047427;4.781416;-0.1090007;1.325848;4.610362;-0.09039441;1.824446;5.250306;-0.6101503;2.036816;6.06968;-1.035956;0.3969293;2.748517;-0.103224;0.2223449;1.303498;-0.2525526;0;0;0;0.3969293;2.748517;-0.103224;0.2223449;1.303498;-0.2525526;0;0;0
742464.6862;NotLabelled;NONE;16384;0.8582408;0.4556787;0.2299169;0.05401662;-243;13;-111;904;-1250;666;65536;0.8407042;0.5373961;-0.001385042;0.06648199;279;19;25;-644;1220;1631;8192;0.7901222;0.4473684;-0.4155124;0.05401662;-174;-17;162;-566;-2698;256;32768;0.7678304;0.5886427;-0.2423823;0.07202215;233;47;-110;1389;237;1363;256;-0.06371191;0.02908587;-0.5817174;-0.81037;-16;22;4;-64;2720;-940;128;0.0900277;-0.04709141;0.7234824;0.6828254;47;7;-6;68;2476;-618;4;0.5966219;-0.4847645;0.4570637;0.4473684;1;4;-6;286;3820;546;16;0.602493;-0.7510375;-0.1371191;-0.232687;2;-10;-3;521;3895;1226;2;0.5479341;-0.4819945;-0.4750692;-0.4916897;-10;31;12;432;4256;-30;8;0.6218836;-0.7295278;0.1620499;0.234072;11;20;-10;7;4231;689;0.7146;2.791143;-0.1073044;0.7203364;3.313891;-0.263263;0.7253726;3.772808;-0.4022887;0.7704997;4.468223;-0.1724534;0.5331784;4.805978;-0.1065179;0.1826852;4.675456;-0.09047099;-0.2635789;5.342635;-0.5531257;-0.3677913;6.161848;-1.017695;1.05243;4.772286;-0.1065178;1.33084;4.600955;-0.09047046;1.868676;5.301711;-0.4751114;2.106746;6.174322;-0.7573509;0.402342;2.748775;-0.1016317;0.2202565;1.3045;-0.2491882;0;0;0;0.402342;2.748775;-0.1016317;0.2202565;1.3045;-0.2491882;0;0;0
742485.7028;NotLabelled;NONE;16384;0.83825;0.4847645;0.2437673;0.05401662;-217;-14;-101;1396;-2010;158;65536;0.8182666;0.5706371;0.004155125;0.06925207;267;-23;36;28;730;2291;8192;0.768849;0.466759;-0.433518;0.05540166;-152;-7;148;-1348;-2386;546;32768;0.7422906;0.6191136;-0.2479224;0.06509695;231;48;-105;1593;65;1973;256;-0.06509695;0.03047091;-0.5858725;-0.8072096;-32;-1;0;-74;2808;-540;128;0.09279778;-0.04847645;0.7282329;0.6772853;46;23;-6;-78;2856;-550;4;0.5966219;-0.4847645;0.4570637;0.4473684;4;3;-8;408;3900;622;16;0.602493;-0.7517166;-0.1357341;-0.2313019;3;-9;-3;411;4031;1350;2;0.5455271;-0.4806094;-0.4792244;-0.4916897;-11;36;13;-284;4072;-22;8;0.6232687;-0.729399;0.1592798;0.232687;9;17;-10;-311;4103;391;0.7134978;2.79112;-0.1156004;0.7191789;3.308807;-0.2876158;0.7241653;3.763216;-0.4407367;0.7724994;4.457772;-0.2089637;0.5367472;4.79645;-0.1421334;0.1856445;4.667523;-0.126512;-0.2760451;5.368757;-0.5182305;-0.389742;6.225065;-0.9075981;1.055836;4.76033;-0.1421335;1.333439;4.587654;-0.1265118;1.888147;5.309476;-0.4420185;2.136713;6.199046;-0.6533732;0.4012421;2.748949;-0.1085174;0.2191332;1.304226;-0.2515975;0;0;0;0.4012421;2.748949;-0.1085174;0.2191332;1.304226;-0.2515975;0;0;0
742506.6783;NotLabelled;NONE;16384;0.8009661;0.5318559;0.2686981;0.05817174;-163;-7;-85;1412;-2452;288;65536;0.7655898;0.6371191;0.009695291;0.08864266;230;-42;35;-656;-808;4323;8192;0.7495967;0.4833795;-0.4487534;0.05540166;-134;0;127;-800;-2488;946;32768;0.7174288;0.6468144;-0.2520775;0.05817174;215;44;-104;1141;-31;3043;256;-0.06648199;0.03047091;-0.5900277;-0.804064;-34;12;3;-412;3258;-138;128;0.09695291;-0.04847645;0.7328087;0.6717451;39;20;-9;148;3160;-886;4;0.5953005;-0.4889196;0.4570637;0.4445983;2;27;-13;588;3876;734;16;0.602493;-0.7517166;-0.1357341;-0.2313019;6;1;0;329;3955;1374;2;0.5430388;-0.4778393;-0.4833795;-0.4930748;-10;28;9;-878;3954;100;8;0.6260388;-0.7276242;0.1565097;0.232687;6;15;-10;-389;4031;229;0.7126842;2.790738;-0.1196804;0.7183364;3.305811;-0.2993731;0.7232973;3.757894;-0.4592327;0.7717776;4.454865;-0.2348597;0.5360626;4.794224;-0.1714444;0.1849761;4.66546;-0.1542004;-0.2866888;5.393634;-0.4792001;-0.4089642;6.277921;-0.7968186;1.055153;4.758121;-0.1714447;1.332773;4.585628;-0.1542007;1.900198;5.320967;-0.4102852;2.15731;6.222411;-0.5484066;0.4004296;2.748676;-0.1119204;0.2177148;1.303954;-0.2542257;0;0;0;0.4004296;2.748676;-0.1119204;0.2177148;1.303954;-0.2542257;0;0;0
742527.7884;NotLabelled;NONE;16384;0.7848518;0.5498615;0.2797784;0.05817174;-138;0;-79;954;-2820;254;65536;0.7433623;0.6620498;0.01523546;0.09418282;199;-12;34;-436;-1576;4461;8192;0.7318709;0.5;-0.4598338;0.05401662;-122;24;115;-1010;-2818;1308;32768;0.6905707;0.6745152;-0.2562327;0.04986149;190;59;-95;1513;-1675;3495;256;-0.06786703;0.02908587;-0.5927978;-0.8019594;-18;3;8;-254;3564;40;128;0.09833795;-0.04847645;0.7364124;0.66759;30;14;-11;286;3606;-1286;4;0.5971666;-0.4916897;0.4556787;0.4404432;3;34;-14;250;3812;546;16;0.602493;-0.7517166;-0.1357341;-0.2313019;6;1;-1;315;4111;1104;2;0.5428622;-0.4722992;-0.4847645;-0.4972299;0;12;-3;-1576;3738;74;8;0.6288089;-0.7261159;0.1523546;0.232687;0;1;-7;-531;4127;477;0.7077258;2.792275;-0.1324999;0.7133477;3.304586;-0.319923;0.7182817;3.754212;-0.4865673;0.7680211;4.453444;-0.2696267;0.5328851;4.793826;-0.2096366;0.1816108;4.665805;-0.1907709;-0.3051999;5.425863;-0.3997087;-0.448088;6.348567;-0.5609456;1.051918;4.756909;-0.2096367;1.32928;4.584172;-0.1907707;1.907529;5.327912;-0.3926504;2.172404;6.235054;-0.4613546;0.3954726;2.750336;-0.1240563;0.2172011;1.303955;-0.2546647;0;0;0;0.3954726;2.750336;-0.1240563;0.2172011;1.303955;-0.2546647;0;0;0
742549.6726;NotLabelled;NONE;16384;0.7712891;0.5637119;0.2894737;0.05955679;-112;2;-77;1016;-3418;328;65536;0.7251258;0.6814404;0.02077562;0.09695291;163;-2;26;-112;-2474;4495;8192;0.7160518;0.5138504;-0.4695291;0.05263158;-100;4;103;-1376;-2946;832;32768;-0.6689751;-0.695375;0.2590028;-0.04293629;151;39;-79;2219;-2129;4299;256;-0.06925207;0.02770083;-0.5941828;-0.8008643;-3;0;11;128;3610;266;128;0.101108;-0.04847645;0.7385402;0.66482;20;8;-6;202;3530;-956;4;0.597836;-0.4958449;0.4542936;0.4362881;10;29;-11;-42;4022;340;16;0.6038781;-0.7507781;-0.1371191;-0.2299169;4;1;-3;165;4057;642;2;0.5427561;-0.4709141;-0.4833795;-0.5;0;4;-4;-1548;3870;242;8;0.6288089;-0.7256706;0.1523546;0.234072;-1;2;-5;-681;4065;617;0.7096519;2.792345;-0.1374122;0.7152506;3.302524;-0.3305663;0.7201638;3.750253;-0.5022403;0.7724118;4.450848;-0.2903413;0.5384741;4.792454;-0.232672;0.1867738;4.665775;-0.2127103;-0.3040882;5.434964;-0.373121;-0.4574527;6.364864;-0.4709024;1.057377;4.753759;-0.232672;1.334157;4.580213;-0.2127103;1.918688;5.330924;-0.3644707;2.193111;6.237822;-0.3603508;0.3973999;2.750504;-0.1284607;0.2172803;1.303954;-0.2545974;0;0;0;0.3973999;2.750504;-0.1284607;0.2172803;1.303954;-0.2545974;0;0;0
742570.6675;NotLabelled;NONE;16384;0.7587715;0.5747922;0.300554;0.05955679;-89;17;-78;1320;-3964;506;65536;0.7101766;0.6966759;0.02493075;0.09833795;122;5;14;246;-3478;4765;8192;0.6874593;0.5318559;-0.4916897;0.05263158;-52;-29;84;-1504;-3788;606;32768;-0.6398892;-0.7194315;0.267313;-0.03878116;89;-11;-32;2611;-3355;4649;256;-0.07063711;0.02631579;-0.5914127;-0.802838;26;0;6;208;3870;-72;128;0.1024931;-0.04709141;0.7409235;0.6620498;3;-3;-6;-104;3240;-1250;4;0.5964337;-0.5;0.4529086;0.434903;9;23;-5;90;3992;280;16;0.6038781;-0.7505239;-0.1385041;-0.2299169;0;7;-3;157;4023;522;2;0.5439547;-0.4695291;-0.4833795;-0.5;-1;-6;3;-898;3746;402;8;0.6288089;-0.72596;0.1509695;0.234072;-2;-4;-4;-415;4081;645;0.7020584;2.794829;-0.1421906;0.7076408;3.303553;-0.3391448;0.71254;3.74999;-0.5141537;0.7674033;4.451178;-0.3048953;0.5347294;4.793848;-0.2484408;0.1825754;4.668529;-0.2279064;-0.3129235;5.441921;-0.3490433;-0.4739371;6.374492;-0.3957518;1.053488;4.753263;-0.2484409;1.32964;4.578783;-0.2279062;1.919276;5.333194;-0.3349991;2.201099;6.235795;-0.2743922;0.389807;2.753055;-0.1329017;0.2116471;1.305583;-0.2509701;0;0;0;0.389807;2.753055;-0.1329017;0.2116471;1.305583;-0.2509701;0;0;0
742591.6722;NotLabelled;NONE;16384;0.7483468;0.5831025;0.3102493;0.06094183;-62;19;-74;2130;-4144;490;65536;-0.699446;-0.7074228;-0.03047091;-0.09695291;79;24;10;-296;-4416;5245;8192;0.6781756;0.536011;-0.5;0.05263158;-37;-13;71;-2118;-3716;926;32768;-0.6301939;-0.7268407;0.2700831;-0.0401662;58;-13;-14;3391;-4063;4009;256;-0.07063711;0.02631579;-0.5886427;-0.8048712;43;-2;7;74;4406;-152;128;0.1024931;-0.04709141;0.7421588;0.6606648;-7;-3;-5;8;3872;-1642;4;0.5983732;-0.501385;0.4501385;0.433518;8;11;0;462;3924;448;16;0.6038781;-0.7505239;-0.1385041;-0.2299169;0;3;-4;517;4159;952;2;0.5465196;-0.4709141;-0.4819945;-0.4972299;0;-24;10;-774;3706;572;8;0.6288089;-0.725512;0.1509695;0.2354571;-2;-13;-3;-545;4313;671;0.6911362;2.796813;-0.1495315;0.6967022;3.304004;-0.3504003;0.7015862;3.74908;-0.5288444;0.7594699;4.448637;-0.3149946;0.5282737;4.791929;-0.2562853;0.175584;4.667994;-0.2365597;-0.3254306;5.443308;-0.3153096;-0.4908955;6.376252;-0.3210165;1.046853;4.749111;-0.2565716;1.322251;4.573314;-0.2371923;1.923418;5.325819;-0.261893;2.213966;6.217835;-0.1289485;0.3788858;2.755113;-0.1398945;0.2093261;1.306027;-0.2506066;0;0;0;0.3788858;2.755113;-0.1398945;0.2093261;1.306027;-0.2506066;0;0;0
742613.197;NotLabelled;NONE;16384;0.741361;0.5858725;0.3213296;0.06232687;-36;30;-65;2786;-4334;800;65536;-0.6939058;-0.7131526;-0.03601108;-0.09279778;43;38;6;-784;-4990;5303;8192;0.6708621;0.5373961;-0.5083103;0.05263158;-20;-20;51;-2992;-3882;1202;32768;-0.6246537;-0.7315302;0.2700831;-0.04155125;37;-2;0;3147;-4337;3417;256;-0.07063711;0.02493075;-0.5831025;-0.8089378;56;0;5;-56;4702;-192;128;0.1024931;-0.04570637;0.7422453;0.6606648;-22;-7;-6;148;3948;-1630;4;0.5963211;-0.501385;0.4515235;0.434903;2;-25;-2;492;4344;266;16;0.6052631;-0.7494074;-0.1385041;-0.2299169;0;-16;-5;989;4227;1204;2;0.547857;-0.4736842;-0.4806094;-0.4944598;0;-32;10;-728;4166;504;8;0.6288089;-0.7243171;0.1523546;0.2382271;-2;-13;-1;-565;4125;693;0.6896687;2.796691;-0.1458927;0.6952263;3.303136;-0.348635;0.700103;3.747549;-0.5287232;0.7580493;4.445599;-0.3100199;0.5269361;4.788582;-0.2492179;0.1741707;4.66467;-0.2307366;-0.3331378;5.437918;-0.2859932;-0.5018505;6.36999;-0.2620136;1.045497;4.745539;-0.2492178;1.320797;4.569492;-0.2307356;1.926717;5.318559;-0.2367384;2.216044;6.207118;-0.08009622;0.3774185;2.755026;-0.136089;0.2095352;1.306026;-0.2504316;0;0;0;0.3774185;2.755026;-0.136089;0.2095352;1.306026;-0.2504316;0;0;0
742632.6924;NotLabelled;NONE;16384;0.7350841;0.5858725;0.33518;0.06371191;-4;14;-26;3148;-3762;1004;65536;-0.6911357;-0.7158977;-0.04432133;-0.08864266;-3;21;11;-1782;-5128;3265;8192;0.6655092;0.5387812;-0.5138504;0.05263158;-12;-8;30;-2990;-3998;1556;32768;-0.6232687;-0.7326307;0.2700831;-0.04293629;21;0;7;3851;-4531;2789;256;-0.07063711;0.02493075;-0.5747922;-0.8148637;75;-5;4;84;4878;-566;128;0.101108;-0.04432133;0.7400452;0.6634349;-26;-19;-7;216;4136;-1412;4;0.5934043;-0.4986149;0.4570637;0.4362881;-4;-6;-14;758;3800;166;16;0.6052631;-0.7524971;-0.132964;-0.2229917;0;-21;-5;105;4129;896;2;0.5491598;-0.4764543;-0.4792244;-0.4916897;4;-33;10;-512;4118;380;8;0.6274238;-0.725061;0.1523546;0.2396122;-3;-5;-1;-453;4253;573;0.6866563;2.798244;-0.1435606;0.6922132;3.304633;-0.3464431;0.6970894;3.748996;-0.5266541;0.7565122;4.443838;-0.2983432;0.5261798;4.786533;-0.2331111;0.1730866;4.663261;-0.2167297;-0.3446706;5.430692;-0.25286;-0.5138498;6.362137;-0.2130588;1.044632;4.742198;-0.2331112;1.319472;4.565228;-0.2167296;1.931296;5.309371;-0.2027201;2.216703;6.196561;-0.03177351;0.3744061;2.756582;-0.1337445;0.2095961;1.307006;-0.2452179;0;0;0;0.3744061;2.756582;-0.1337445;0.2095961;1.307006;-0.2452179;0;0;0
742653.6668;NotLabelled;NONE;16384;0.7338146;0.5858725;0.3379501;0.06371191;3;9;-9;3108;-3688;1086;65536;-0.6925207;-0.7143808;-0.04709141;-0.08864266;-13;5;11;-1594;-4842;2363;8192;0.6633612;0.5387812;-0.5166205;0.05263158;-7;-12;8;-3690;-3570;1780;32768;-0.6218836;-0.7336394;0.2700831;-0.04570637;6;-17;8;3461;-4525;2271;256;-0.07063711;0.02493075;-0.5637119;-0.8225678;91;-6;4;370;4568;-920;128;0.09833795;-0.04155125;0.7380881;0.666205;-32;-17;-7;-48;4356;-1102;4;0.5922377;-0.5;0.4570637;0.4362881;3;11;-8;1056;3770;2;16;0.6052631;-0.7529061;-0.132964;-0.2216066;-2;2;-4;-155;4019;416;2;0.5528798;-0.4819945;-0.4764543;-0.4847645;2;-29;9;-206;4046;284;8;0.6274238;-0.7243092;0.1537396;0.2409972;-5;-7;0;-471;4131;597;0.6890811;2.797253;-0.1583771;0.6946538;3.305079;-0.3576353;0.6995441;3.750718;-0.5346661;0.7594239;4.440693;-0.2921554;0.5294013;4.782282;-0.2203623;0.1761273;4.659152;-0.2071082;-0.3560593;5.417308;-0.2246311;-0.5297098;6.347493;-0.1756661;1.047797;4.737297;-0.2203622;1.322388;4.55968;-0.2071078;1.937624;5.30062;-0.1794209;2.220558;6.187899;-0.004860282;0.3768303;2.755522;-0.1488834;0.2057114;1.306133;-0.2530375;0;0;0;0.3768303;2.755522;-0.1488834;0.2057114;1.306133;-0.2530375;0;0;0
742674.8572;NotLabelled;NONE;16384;0.7349183;0.5844875;0.3379501;0.06371191;13;-2;5;2672;-3444;964;65536;-0.6939058;-0.7129427;-0.04847645;-0.08864266;-16;0;12;-2022;-4392;1679;8192;0.6642123;0.5387812;-0.5152354;0.05540166;-1;9;-19;-2506;-3486;1700;32768;-0.6232687;-0.7327943;0.2686981;-0.04847645;-17;0;15;2245;-4255;1367;256;-0.07063711;0.02631579;-0.5512465;-0.8309303;94;9;4;334;4112;-1264;128;0.09833795;-0.0401662;0.7356553;0.6689751;-25;-12;-6;-240;4396;-678;4;0.5931973;-0.501385;0.4542936;0.4362881;7;23;4;1164;3716;112;16;0.6052631;-0.7520024;-0.1357341;-0.2229917;-6;22;-2;-133;4079;220;2;0.5540426;-0.4861496;-0.4736842;-0.4819945;6;-34;5;24;4082;164;8;0.6260388;-0.7255067;0.1537396;0.2409972;-5;-7;0;-525;4181;711;0.6827182;2.798187;-0.1625696;0.688306;3.307384;-0.3582973;0.6932097;3.754241;-0.5322298;0.7536263;4.437339;-0.2710981;0.5239854;4.777258;-0.1906752;0.1704826;4.654409;-0.181565;-0.3642199;5.410859;-0.1959232;-0.5418389;6.340466;-0.150344;1.042307;4.731418;-0.1906749;1.316579;4.553049;-0.1815645;1.933859;5.292037;-0.1478525;2.212318;6.179999;0.03038538;0.3704666;2.756391;-0.1533897;0.203265;1.306304;-0.2541305;0;0;0;0.3704666;2.756391;-0.1533897;0.203265;1.306304;-0.2541305;0;0;0
742696.6827;NotLabelled;NONE;16384;0.736531;0.5831025;0.3365651;0.06509695;13;-7;13;2612;-3088;864;65536;-0.6952909;-0.7112414;-0.04847645;-0.09141274;-21;-9;12;-1346;-4136;1323;8192;0.6662352;0.5387812;-0.5124654;0.0567867;2;6;-19;-2540;-3596;1428;32768;-0.6274238;-0.7302545;0.265928;-0.04847645;-24;11;21;1701;-4029;1233;256;-0.07063711;0.02908587;-0.5277008;-0.8459883;85;3;-2;362;3538;-2138;128;0.09695291;-0.03878116;0.7308388;0.6745152;-24;-3;-5;-208;4076;-388;4;0.5962343;-0.5027701;0.4487534;0.4362881;9;40;14;964;3834;120;16;0.6038781;-0.7519424;-0.1398892;-0.2243767;-12;35;-3;125;3963;326;2;0.5563645;-0.4889196;-0.4709141;-0.4792244;3;-27;1;244;4168;438;8;0.6260388;-0.7250451;0.1537396;0.2423823;-4;-4;0;-445;4191;767;0.6756926;2.799209;-0.1567332;0.6812956;3.309803;-0.3487848;0.686213;3.757903;-0.5194913;0.7460983;4.432862;-0.2378758;0.5163255;4.770295;-0.1479247;0.1627705;4.64734;-0.1434304;-0.3728373;5.4031;-0.1601718;-0.552547;6.332459;-0.1178234;1.034634;4.724311;-0.1479246;1.308838;4.545662;-0.1434301;1.922053;5.288152;-0.1125917;2.195561;6.178333;0.06221449;0.3634403;2.757349;-0.1478794;0.2009881;1.306989;-0.2524079;0;0;0;0.3634403;2.757349;-0.1478794;0.2009881;1.306989;-0.2524079;0;0;0
742717.6967;NotLabelled;NONE;16384;0.7370387;0.5831025;0.33518;0.06648199;15;-3;13;2206;-3254;874;65536;-0.6966759;-0.7094266;-0.04986149;-0.09418282;-25;-13;10;-1150;-3956;957;8192;0.667179;0.5387812;-0.5110803;0.05817174;4;-14;-18;-2644;-3406;1254;32768;-0.6301939;-0.7287781;0.2631579;-0.04986149;-24;-3;21;1297;-3969;733;256;-0.07063711;0.03047091;-0.5166205;-0.8527516;63;9;-6;404;3612;-2266;128;0.09695291;-0.03739612;0.7296304;0.6759003;-15;-4;-4;-172;3964;-826;4;0.5980333;-0.5055401;0.4432133;0.4362881;7;31;18;750;3984;242;16;0.601108;-0.7525455;-0.1440443;-0.2271468;-18;39;-6;199;4051;736;2;0.5563024;-0.4916897;-0.4709141;-0.4764543;0;-16;-1;580;4174;408;8;0.6246537;-0.7259442;0.1551246;0.2423823;-3;-2;0;-375;4157;965;0.6655362;2.799249;-0.1478346;0.6711698;3.312622;-0.3323279;0.6761142;3.763193;-0.4964009;0.7348069;4.421387;-0.1773424;0.5046936;4.753421;-0.06987631;0.1510829;4.630613;-0.07398342;-0.3856088;5.385527;-0.09387311;-0.5693427;6.314261;-0.05524407;1.022981;4.707208;-0.06987584;1.297105;4.528425;-0.0739819;1.906756;5.274093;-0.04991779;2.178484;6.166771;0.1146364;0.3532824;2.757262;-0.1396503;0.1966291;1.307104;-0.2552321;0;0;0;0.3532824;2.757262;-0.1396503;0.1966291;1.307104;-0.2552321;0;0;0
742738.6714;NotLabelled;NONE;16384;0.7403458;0.5803324;0.33241;0.06786703;11;1;4;2384;-3034;1038;65536;-0.702216;-0.7036638;-0.04847645;-0.09695291;-26;0;0;-1010;-3838;53;8192;0.6680482;0.5373961;-0.5110803;0.06094183;6;-11;-15;-1760;-3340;1276;32768;-0.632964;-0.7266784;0.2617728;-0.05263158;-22;-2;19;649;-3719;-13;256;-0.07202215;0.033241;-0.5096953;-0.8566905;37;11;-10;286;3578;-2582;128;0.09695291;-0.03739612;0.7283449;0.6772853;-18;8;-3;-190;3910;-280;4;0.6039417;-0.5069252;0.434903;0.434903;1;24;11;130;3790;504;16;0.5941828;-0.7542846;-0.1523546;-0.234072;-18;33;-8;417;4117;1082;2;0.557441;-0.4930748;-0.4709141;-0.4736842;-1;-1;-2;866;4198;366;8;0.6246537;-0.725775;0.1537396;0.2437673;0;7;-1;-401;4179;1127;0.6549607;2.798652;-0.1461112;0.6606013;3.312675;-0.3287874;0.665552;3.763823;-0.4912655;0.7235992;4.413531;-0.1551525;0.4932844;4.74272;-0.03966388;0.1396671;4.62013;-0.04776208;-0.3971686;5.374899;-0.06919645;-0.5867595;6.302602;-0.0342645;1.011564;4.696419;-0.03966326;1.285672;4.517748;-0.0477609;1.892724;5.265614;-0.02631962;2.160129;6.160797;0.1315638;0.3427066;2.756636;-0.1380875;0.1959092;1.306056;-0.2610814;0;0;0;0.3427066;2.756636;-0.1380875;0.1959092;1.306056;-0.2610814;0;0;0
742758.8009;NotLabelled;NONE;16384;0.7414294;0.5789474;0.33241;0.06786703;11;0;7;2214;-3012;1148;65536;0.706321;0.699446;0.04986149;0.09695291;-21;6;4;-1054;-3714;73;8192;0.668902;0.536011;-0.5110803;0.06371191;5;-10;-11;-1872;-2952;1528;32768;-0.6371191;-0.723933;0.2590028;-0.05401662;-21;5;17;947;-3555;-87;256;-0.07202215;0.03601108;-0.5055401;-0.8590373;16;11;-9;198;3272;-2812;128;0.09833795;-0.03878116;0.7255;0.6800554;-13;13;-3;-266;4118;64;4;0.6067478;-0.5083103;0.432133;0.432133;3;29;7;270;3938;370;16;0.5900277;-0.7559739;-0.1578947;-0.2354571;-17;42;-8;-721;3983;1662;2;0.552793;-0.4903047;-0.4778393;-0.4750692;-6;38;0;692;4072;166;8;0.6246537;-0.7275662;0.1495845;0.2409972;4;20;-4;-295;4173;927;0.6524641;2.794171;-0.1439968;0.6581123;3.308878;-0.3247338;0.6630698;3.760635;-0.4855098;0.720982;4.404978;-0.139199;0.490676;4.732447;-0.01889969;0.1370069;4.610189;-0.02940735;-0.4005747;5.364217;-0.0572778;-0.5933587;6.291691;-0.03668413;1.008931;4.68587;-0.01889904;1.282958;4.507199;-0.02940649;1.88791;5.25691;-0.01389945;2.151378;6.154644;0.1359165;0.3402098;2.752125;-0.1361445;0.1971603;1.30273;-0.2763146;0;0;0;0.3402098;2.752125;-0.1361445;0.1971603;1.30273;-0.2763146;0;0;0
742779.8661;NotLabelled;NONE;16384;0.7413014;0.5789474;0.33241;0.06925207;11;-7;7;2396;-2968;876;65536;0.7073997;0.6980609;0.05124654;0.09833795;-17;-10;7;-926;-3574;-65;8192;0.6696472;0.533241;-0.5124654;0.06786703;0;-21;-2;-1964;-3058;1816;32768;-0.6440443;-0.7181718;0.2576177;-0.05540166;-12;-8;14;981;-3787;-1015;256;-0.07202215;0.03739612;-0.5041551;-0.8597918;-2;10;-8;348;2938;-2896;128;0.09972299;-0.0401662;0.7239344;0.6814404;-10;17;-3;-286;3970;392;4;0.6083487;-0.5110803;0.4279778;0.4307479;8;39;1;526;3932;14;16;0.5858725;-0.7567222;-0.1634349;-0.2396122;-11;39;-4;121;4225;1724;2;0.5492367;-0.4875346;-0.4819945;-0.4778393;-7;41;0;302;4014;170;8;0.6260388;-0.7271165;0.1481994;0.2396122;4;18;-5;-253;4151;717;0.6485274;2.79215;-0.1533279;0.6541909;3.308246;-0.3300585;0.6591619;3.76124;-0.4873182;0.7153687;4.402392;-0.1348602;0.4842432;4.728198;-0.01165567;0.1308525;4.605271;-0.02362446;-0.4077279;5.358561;-0.05219926;-0.6033444;6.285607;-0.04142705;1.0026;4.682759;-0.01165496;1.277027;4.504798;-0.02362314;1.87982;5.256333;-0.0131354;2.139663;6.156878;0.1257403;0.3362724;2.750045;-0.1458293;0.1912197;1.301055;-0.2881262;0;0;0;0.3362724;2.750045;-0.1458293;0.1912197;1.301055;-0.2881262;0;0;0
742800.6691;NotLabelled;NONE;16384;0.7424068;0.5789474;0.3296399;0.07063711;7;-10;4;2040;-3206;1048;65536;0.7085689;0.6966759;0.04847645;0.101108;-10;-23;3;-842;-3770;-487;8192;0.6684803;0.5318559;-0.5152354;0.06925207;-5;-18;3;-1882;-3070;1870;32768;-0.6468144;-0.7154581;0.2576177;-0.05817174;-5;-15;6;589;-3713;-1123;256;-0.0734072;0.04155125;-0.5027701;-0.8602948;-3;12;-10;396;3148;-2610;128;0.1038781;-0.04432133;0.7204866;0.6842105;0;24;0;-356;4292;58;4;0.6106761;-0.5152354;0.4238227;0.4265928;9;50;-3;-120;4076;138;16;0.5831025;-0.7573759;-0.166205;-0.2423823;-6;29;-3;-9;3973;1758;2;0.5468284;-0.4847645;-0.4847645;-0.4806094;-6;39;-3;-152;4066;268;8;0.6274238;-0.7269371;0.1454294;0.2382271;5;17;-4;-351;4217;659;0.6426314;2.790567;-0.1588294;0.6483026;3.307368;-0.3334885;0.6532805;3.760988;-0.4889299;0.7086266;4.401099;-0.1344484;0.4770791;4.726242;-0.01028673;0.1238385;4.602931;-0.02273834;-0.4162056;5.355229;-0.04974489;-0.6157679;6.281458;-0.04141679;0.9954893;4.681421;-0.01028588;1.270131;4.503825;-0.02273631;1.871161;5.256819;-0.01650801;2.129376;6.160367;0.1047872;0.3303761;2.748432;-0.1515135;0.1914415;1.299119;-0.2965928;0;0;0;0.3303761;2.748432;-0.1515135;0.1914415;1.299119;-0.2965928;0;0;0
742820.6741;NotLabelled;NONE;16384;0.7422737;0.5789474;0.3296399;0.07202215;2;-8;1;2340;-3240;890;65536;0.7097294;0.6952909;0.04847645;0.1024931;-3;-6;7;-994;-3782;-391;8192;0.667146;0.5304709;-0.5180055;0.07202215;-9;-20;7;-1810;-3018;1746;32768;-0.6495845;-0.7123276;0.2590028;-0.05955679;1;-11;1;797;-3579;-1161;256;-0.07479224;0.04432133;-0.5027701;-0.8600372;0;20;-13;496;3330;-2288;128;0.1066482;-0.04709141;0.719906;0.6842105;-3;26;0;-302;4060;66;4;0.6107814;-0.5207756;0.4210526;0.4224377;4;34;-5;-464;4132;190;16;0.5803324;-0.7584453;-0.1689751;-0.2437673;-5;18;-1;375;4049;1416;2;0.5455904;-0.4806094;-0.4875346;-0.4833795;-4;37;-4;-518;4048;422;8;0.6288089;-0.7264685;0.1440443;0.2368421;5;18;-4;-561;4105;601;0.6398415;2.78955;-0.168134;0.6455285;3.307785;-0.3384935;0.6505203;3.76268;-0.490161;0.7045282;4.401939;-0.1339383;0.4723481;4.726374;-0.009110503;0.1193193;4.602524;-0.02218612;-0.4200212;5.355271;-0.05067608;-0.6199138;6.28145;-0.04494941;0.9908302;4.682396;-0.008792043;1.265772;4.50528;-0.02148157;1.868353;5.257027;-0.02837089;2.124347;6.162371;0.08390397;0.3275856;2.747356;-0.1611967;0.1912687;1.297528;-0.3035854;0;0;0;0.3275856;2.747356;-0.1611967;0.1912687;1.297528;-0.3035854;0;0;0
742841.8538;NotLabelled;NONE;16384;0.7413906;0.5803324;0.3282548;0.07617728;4;-11;-2;1982;-3140;940;65536;0.7094172;0.6952909;0.04709141;0.1052632;8;-24;6;-628;-3640;23;8192;0.66468;0.5304709;-0.5207756;0.07479224;-13;-22;11;-1986;-2956;1702;32768;-0.6495845;-0.7110769;0.2617728;-0.06232687;13;-22;-3;1013;-3477;-1325;256;-0.07617728;0.04847645;-0.5027701;-0.8596914;-4;19;-16;332;3352;-2164;128;0.1094183;-0.04986149;0.7179834;0.6855956;-6;25;1;-256;3958;254;4;0.6103226;-0.5235457;0.4210526;0.4196676;0;14;-4;-480;4070;288;16;0.5803324;-0.7579987;-0.1689751;-0.2451524;-1;-3;-1;807;4161;1082;2;0.5442967;-0.4764543;-0.4889196;-0.4875346;-3;36;-6;-730;3944;558;8;0.6301939;-0.725812;0.1412742;0.2368421;4;13;-2;-647;4119;613;0.6312681;2.789497;-0.1862076;0.636956;3.307818;-0.3563027;0.6419489;3.762791;-0.5077381;0.6959069;4.402248;-0.151864;0.4636652;4.726642;-0.02704335;0.1106828;4.60263;-0.03982694;-0.4299712;5.354634;-0.06243385;-0.6320218;6.280354;-0.05869895;0.9821669;4.682893;-0.02704266;1.257178;4.505892;-0.03982574;1.859828;5.257611;-0.03707913;2.117016;6.16369;0.06617934;0.3190121;2.7473;-0.1792936;0.1885784;1.295988;-0.3117367;0;0;0;0.3190121;2.7473;-0.1792936;0.1885784;1.295988;-0.3117367;0;0;0
742863.6632;NotLabelled;NONE;16384;0.7418588;0.5803324;0.3268698;0.07756232;5;-13;-2;1822;-3140;1156;65536;0.7063644;0.6980609;0.04570637;0.1080332;9;-29;3;-720;-3634;167;8192;0.6610843;0.5304709;-0.5249307;0.07756232;-18;-28;17;-1750;-2806;1680;32768;-0.6481994;-0.7110674;0.2645429;-0.06509695;20;-23;-5;1003;-3493;-1195;256;-0.07756232;0.05263158;-0.5027701;-0.8593231;-3;21;-16;-32;3168;-2354;128;0.1108033;-0.05401662;0.7174702;0.6855956;-2;23;3;18;3894;238;4;0.6086261;-0.5221606;0.4252077;0.4196676;-2;-21;-4;-92;3838;154;16;0.5831025;-0.7570706;-0.16759;-0.2423823;9;-2;5;-907;4139;1080;2;0.541569;-0.4695291;-0.4930748;-0.4930748;-6;21;0;-1160;3994;438;8;0.6315789;-0.7248758;0.1398892;0.2368421;0;-4;0;-737;4027;547;0.6313973;2.790294;-0.1957546;0.6370934;3.30935;-0.3635929;0.6420934;3.764978;-0.5130473;0.6948814;4.404734;-0.1575362;0.4620439;4.728767;-0.0328874;0.1092915;4.604093;-0.0455848;-0.4335137;5.354712;-0.06176329;-0.6373014;6.280043;-0.05625266;0.9806259;4.685981;-0.03288649;1.255964;4.509482;-0.04558241;1.857803;5.261848;-0.04241633;2.115591;6.168074;0.05802023;0.319141;2.748067;-0.1890392;0.1886787;1.29592;-0.3119569;0;0;0;0.319141;2.748067;-0.1890392;0.1886787;1.29592;-0.3119569;0;0;0
742883.6622;NotLabelled;NONE;16384;0.7423216;0.5803324;0.3254848;0.07894737;3;-13;-2;2136;-3014;1342;65536;0.704518;0.699446;0.04293629;0.1121884;5;-23;4;-896;-3848;445;8192;0.653722;0.5318559;-0.5318559;0.08310249;-23;-13;23;-1728;-3230;1598;32768;-0.6440443;-0.7123666;0.2700831;-0.06925207;32;-16;-4;1173;-3635;-553;256;-0.07894737;0.05540166;-0.501385;-0.859832;3;13;-13;-78;3088;-2362;128;0.1121884;-0.0567867;0.7157141;0.6869806;-1;17;3;-68;3874;190;4;0.6066972;-0.5221606;0.4265928;0.4210526;1;-15;-4;150;3864;194;16;0.5831025;-0.7573759;-0.166205;-0.2423823;10;-13;7;351;3957;1854;2;0.5426996;-0.466759;-0.4930748;-0.4944598;-4;6;-1;-1382;3972;384;8;0.6315789;-0.7248758;0.1398892;0.2368421;-4;-10;1;-561;4109;341;0.6312277;2.792369;-0.1997358;0.6369253;3.311573;-0.3671151;0.6419266;3.767333;-0.5161666;0.6935414;4.407389;-0.1610231;0.4601076;4.731059;-0.03654794;0.107587;4.605721;-0.04915727;-0.4354892;5.356202;-0.06247148;-0.6400868;6.281254;-0.04788309;0.9787682;4.689237;-0.03654751;1.254434;4.513245;-0.04915613;1.856586;5.265337;-0.04255283;2.114692;6.171402;0.0585283;0.3189713;2.750136;-0.1930607;0.1815666;1.297953;-0.3077;0;0;0;0.3189713;2.750136;-0.1930607;0.1815666;1.297953;-0.3077;0;0;0
742903.6752;NotLabelled;NONE;16384;0.7420217;0.5803324;0.3254848;0.08171745;5;-9;-2;2276;-3368;1334;65536;0.7040713;0.699446;0.04293629;0.1149584;0;-14;7;-1026;-4064;555;8192;0.6491843;0.533241;-0.536011;0.08310249;-25;-12;23;-2150;-3070;1628;32768;-0.6412742;-0.7142009;0.2714681;-0.07063711;36;-16;-5;1385;-3727;-11;256;-0.07756232;0.05817174;-0.5;-0.8605813;11;6;-11;-24;3198;-2208;128;0.1135734;-0.05955679;0.7152703;0.6869806;0;18;6;-44;3958;120;4;0.60474;-0.5221606;0.4293629;0.4210526;1;-15;-10;-184;4320;690;16;0.5858725;-0.7570199;-0.1620499;-0.2396122;13;-45;2;759;4021;2134;2;0.5438877;-0.4653739;-0.4930748;-0.4944598;-2;-4;-5;-1308;3942;390;8;0.6301939;-0.7250875;0.1426593;0.2382271;-7;-15;4;-469;4121;333;0.6297517;2.792457;-0.2049294;0.6354574;3.312399;-0.3700017;0.640466;3.768816;-0.5170281;0.6918939;4.407928;-0.1601611;0.4583777;4.731223;-0.03487039;0.1058815;4.605859;-0.04789133;-0.4374264;5.356201;-0.05943367;-0.6432732;6.28089;-0.04010615;0.9770454;4.689491;-0.03486961;1.252744;4.513579;-0.04788968;1.853405;5.266619;-0.02757466;2.112644;6.17148;0.08109897;0.317495;2.750194;-0.1984571;0.1820237;1.297528;-0.309217;0;0;0;0.317495;2.750194;-0.1984571;0.1820237;1.297528;-0.309217;0;0;0
742924.6861;NotLabelled;NONE;16384;0.7418679;0.5803324;0.3254848;0.08310249;8;-2;-7;2472;-3596;1244;65536;0.7039269;0.699446;0.04155125;0.1163435;-2;-13;6;-672;-4302;539;8192;0.6442305;0.536011;-0.5387812;0.08587258;-25;-12;13;-1848;-3342;1378;32768;-0.6357341;-0.7178071;0.2742382;-0.0734072;35;-19;-5;1797;-3847;497;256;-0.07756232;0.06371191;-0.4958449;-0.8625907;13;11;-8;60;3674;-2148;128;0.1149584;-0.06509695;0.714566;0.6869806;-6;11;2;-80;4096;-36;4;0.6029673;-0.5207756;0.433518;0.4210526;-5;-26;-21;-302;4334;638;16;0.5900277;-0.7566917;-0.1565097;-0.234072;14;-53;0;359;4037;2030;2;0.5463862;-0.4653739;-0.4903047;-0.4944598;0;-14;-2;-1016;3864;454;8;0.6288089;-0.7255596;0.1440443;0.2396122;-8;-20;6;-437;4175;503;0.6306486;2.79405;-0.2080507;0.6363554;3.3141;-0.3727829;0.6413651;3.770613;-0.5195106;0.6895691;4.40873;-0.1604193;0.4544395;4.730442;-0.03407545;0.1025649;4.6034;-0.04762843;-0.443526;5.351748;-0.05705708;-0.652886;6.27562;-0.03641501;0.9733054;4.69125;-0.03407484;1.249866;4.516737;-0.04762697;1.852947;5.267528;-0.01793343;2.111853;6.171772;0.09650695;0.3183918;2.751783;-0.2016082;0.181379;1.298695;-0.3046632;0;0;0;0.3183918;2.751783;-0.2016082;0.181379;1.298695;-0.3046632;0;0;0
742945.6793;NotLabelled;NONE;16384;0.742793;0.5789474;0.3254848;0.08448754;9;-9;-6;2376;-3220;1356;65536;0.7021642;0.700831;0.0401662;0.1191136;-1;-13;7;-996;-4144;265;8192;0.6415359;0.5373961;-0.5401662;0.08864266;-23;-5;8;-1886;-3248;1424;32768;-0.6315789;-0.7202643;0.2770083;-0.07479224;28;-17;0;1997;-3845;885;256;-0.07756232;0.06509695;-0.4944598;-0.8632821;10;16;-7;86;3580;-2190;128;0.1149584;-0.06648199;0.7131041;0.6883656;-12;10;1;-134;4130;108;4;0.5989452;-0.5207756;0.4390582;0.4210526;-9;-39;-29;200;4014;458;16;0.5927978;-0.7566487;-0.1523546;-0.2299169;13;-29;2;-9;4077;1256;2;0.5488734;-0.4653739;-0.4889196;-0.4930748;1;-19;0;-902;3860;450;8;0.6274238;-0.7257446;0.1468144;0.2409972;-9;-20;7;-545;4155;677;0.6309937;2.796065;-0.2115304;0.636703;3.316346;-0.3755313;0.6417149;3.773065;-0.5216172;0.6866729;4.408027;-0.1565618;0.4499458;4.727437;-0.02739123;0.09868313;4.598871;-0.04237501;-0.4488425;5.346219;-0.04646099;-0.6580205;6.270091;-0.02410206;0.9689905;4.690689;-0.02739045;1.24638;4.517615;-0.04237345;1.846989;5.270095;-0.006102741;2.105617;6.172996;0.1190673;0.3187368;2.753789;-0.2051522;0.1752584;1.300734;-0.2995036;0;0;0;0.3187368;2.753789;-0.2051522;0.1752584;1.300734;-0.2995036;0;0;0
742965.9646;NotLabelled;NONE;16384;0.7454998;0.5761772;0.3227147;0.0900277;14;-21;3;1862;-2948;1486;65536;-0.699446;-0.7023363;-0.0401662;-0.1260388;-2;-26;14;-1216;-3748;263;8192;0.6378384;0.5401662;-0.5415512;0.0900277;-21;-8;3;-2236;-3262;1444;32768;-0.6274238;-0.7235951;0.2770083;-0.07756232;22;-12;7;2021;-3987;1383;256;-0.07894737;0.06786703;-0.4930748;-0.8637353;6;12;-6;72;3326;-2118;128;0.1149584;-0.06786703;0.7116338;0.6897507;-9;2;1;-90;3936;90;4;0.5956243;-0.5152354;0.4473684;0.4238227;-5;-15;-14;1760;3732;566;16;0.5969529;-0.7530934;-0.1537396;-0.2299169;5;13;2;327;4271;-48;2;0.5526716;-0.468144;-0.4847645;-0.4903047;-2;-25;5;-682;3938;200;8;0.6232687;-0.7267906;0.1523546;0.2451524;-10;-25;6;-757;4203;943;0.63008;2.79804;-0.2226951;0.6357969;3.319004;-0.3845135;0.6408156;3.776331;-0.5286834;0.6850027;4.410198;-0.1616382;0.4478998;4.728946;-0.03152376;0.09678061;4.600046;-0.04698637;-0.453112;5.345644;-0.05243525;-0.6635482;6.269118;-0.02581906;0.9669843;4.692764;-0.0315232;1.244565;4.520039;-0.04698485;1.842256;5.274575;-0.005595148;2.101933;6.175879;0.1286007;0.3178229;2.755738;-0.2165086;0.1722856;1.301986;-0.2957666;0;0;0;0.3178229;2.755738;-0.2165086;0.1722856;1.301986;-0.2957666;0;0;0
742986.6805;NotLabelled;NONE;16384;0.7463537;0.5761772;0.3199446;0.09279778;13;-22;0;1950;-3248;1486;65536;0.7016559;0.699446;0.03878116;0.1301939;-6;-26;11;-1038;-3856;-33;8192;0.6332746;0.5415512;-0.5443213;0.09695291;-11;-18;1;-1934;-3806;1070;32768;-0.6232687;-0.7276149;0.2742382;-0.08310249;6;3;15;867;-4103;1507;256;-0.07894737;0.06925207;-0.4916897;-0.8644146;10;7;-7;4;3240;-2054;128;0.1135734;-0.06786703;0.7105115;0.6911357;-14;-8;0;-12;3810;-36;4;0.5958336;-0.5138504;0.4473684;0.4252077;-1;2;0;2024;3848;612;16;0.5969529;-0.7523848;-0.1551246;-0.2313019;0;14;-2;549;4091;254;2;0.5539803;-0.4709141;-0.4833795;-0.4875346;-4;-29;3;-398;3970;102;8;0.6218836;-0.7267457;0.1537396;0.2479224;-8;-9;5;-683;4279;1013;0.6370271;2.800822;-0.2173771;0.6427515;3.322462;-0.3770032;0.6477767;3.780391;-0.5192485;0.6918397;4.413285;-0.1505121;0.4546844;4.731665;-0.01959491;0.1035793;4.602775;-0.03546486;-0.4513656;5.344568;-0.04584801;-0.670021;6.2659;-0.01218972;0.973772;4.695529;-0.01959434;1.251371;4.52287;-0.03546363;1.847041;5.278685;0.01138961;2.10299;6.17973;0.1541926;0.3247697;2.758495;-0.2113829;0.1670613;1.305594;-0.2825635;0;0;0;0.3247697;2.758495;-0.2113829;0.1670613;1.305594;-0.2825635;0;0;0
743006.841;NotLabelled;NONE;16384;0.7470717;0.5747922;0.3199446;0.09556787;11;-6;-6;2430;-3524;1578;65536;0.7025151;0.6980609;0.03878116;0.132964;-8;-7;8;-1210;-4264;-217;8192;0.6328443;0.5415512;-0.5443213;0.09972299;-5;-6;-3;-1990;-3278;1026;32768;-0.6232687;-0.7279761;0.2728532;-0.08448754;3;-3;13;1335;-3749;1233;256;-0.07894737;0.07063711;-0.4903047;-0.865089;15;3;-6;306;3546;-2090;128;0.1121884;-0.06648199;0.7081587;0.6939058;-14;-16;0;-154;3942;-126;4;0.5981055;-0.5124654;0.4445983;0.4265928;2;3;7;1586;3878;314;16;0.5969529;-0.7519577;-0.1551246;-0.232687;-5;11;-6;927;4173;966;2;0.5552307;-0.4722992;-0.4833795;-0.4847645;-6;-14;4;614;4170;102;8;0.6204986;-0.7276347;0.1551246;0.2479224;-6;-7;3;101;4511;835;0.6377538;2.800856;-0.2121843;0.643485;3.323104;-0.3698069;0.648516;3.781576;-0.5102935;0.6918231;4.413365;-0.1395781;0.4542995;4.731081;-0.007721439;0.1033361;4.601867;-0.0240691;-0.4519222;5.343392;-0.03661947;-0.6751401;6.263847;-0.009566069;0.9734254;4.695501;-0.007720649;1.251212;4.523189;-0.02406734;1.840067;5.283713;0.03186244;2.084546;6.186283;0.1847823;0.3254963;2.758505;-0.2063657;0.1668884;1.305891;-0.2812892;0;0;0;0.3254963;2.758505;-0.2063657;0.1668884;1.305891;-0.2812892;0;0;0
743027.8133;NotLabelled;NONE;16384;0.7479571;0.5734072;0.3199446;0.09695291;10;-6;-4;2048;-3578;1700;65536;0.7036256;0.6966759;0.03878116;0.134349;-7;-3;6;-1264;-4326;-303;8192;0.6316565;0.5429363;-0.5443213;0.09972299;0;0;-7;-2048;-3062;1300;32768;-0.6218836;-0.7295147;0.2714681;-0.08587258;-3;3;13;1269;-3663;925;256;-0.07894737;0.0734072;-0.4847645;-0.8679758;15;10;-2;318;3504;-2282;128;0.1094183;-0.06371191;0.7047548;0.6980609;-23;-5;-1;-446;4226;68;4;0.598144;-0.5124654;0.4432133;0.4279778;1;14;0;818;4116;326;16;0.5955678;-0.752339;-0.1565097;-0.234072;-5;18;-3;413;4393;1714;2;0.5540704;-0.4750692;-0.4847645;-0.4819945;-4;3;5;1020;4366;206;8;0.6191136;-0.7285174;0.1565097;0.2479224;-3;-2;0;21;4517;947;0.6402869;2.800136;-0.1996712;0.6460303;3.323524;-0.3534684;0.6510726;3.783012;-0.4905967;0.6934764;4.413689;-0.1178898;0.4555325;4.730742;0.01480597;0.1047169;4.601206;-0.002163678;-0.454262;5.339816;-0.02023154;-0.6814784;6.259363;0.004327178;0.974696;4.695713;0.01502144;1.252676;4.523747;-0.001687199;1.838473;5.287122;0.04706794;2.079623;6.190615;0.1998132;0.3280287;2.757745;-0.1941876;0.1691879;1.305783;-0.2804163;0;0;0;0.3280287;2.757745;-0.1941876;0.1691879;1.305783;-0.2804163;0;0;0
743048.6762;NotLabelled;NONE;16384;0.7492435;0.5720221;0.3185596;0.09972299;9;-20;3;2406;-3150;1988;65536;0.7032821;0.6966759;0.0401662;0.1357341;-3;-10;9;-1492;-4214;-425;8192;0.6316565;0.5429363;-0.5443213;0.09972299;1;3;-6;-2390;-3346;1620;32768;-0.6232687;-0.7293582;0.2686981;-0.08587258;-5;11;14;1209;-4107;387;256;-0.08033241;0.07479224;-0.4819945;-0.8692722;13;4;0;362;3350;-2484;128;0.1094183;-0.06371191;0.7020003;0.700831;-18;0;0;-458;4242;210;4;0.5999533;-0.5138504;0.4418283;0.4252077;0;28;-14;190;4322;578;16;0.5941828;-0.7519858;-0.1592798;-0.2368421;-4;29;1;231;4181;2126;2;0.5528346;-0.4736842;-0.4861496;-0.4833795;-3;27;7;1114;4434;242;8;0.6191136;-0.7295765;0.1537396;0.2465374;-2;23;0;-495;4329;949;0.6365417;2.799577;-0.1992623;0.6423032;3.324605;-0.3473617;0.6473615;3.785555;-0.4794877;0.6886929;4.411574;-0.09888943;0.450233;4.726593;0.03766607;0.09961336;4.596772;0.01892289;-0.4617119;5.333703;0.00566794;-0.6910833;6.25277;0.02806044;0.9694468;4.692317;0.03766677;1.247684;4.520978;0.01892453;1.832794;5.284422;0.07437384;2.070842;6.188311;0.2296339;0.3242829;2.757128;-0.1942771;0.1686485;1.305042;-0.2841681;0;0;0;0.3242829;2.757128;-0.1942771;0.1686485;1.305042;-0.2841681;0;0;0
