SEP=;
index;label;segment;RightUpperArm_boneIndex;RightUpperArm_quat9x_w;RightUpperArm_quat9x_x;RightUpperArm_quat9x_y;RightUpperArm_quat9x_z;RightUpperArm_gyroscope_x;RightUpperArm_gyroscope_y;RightUpperArm_gyroscope_z;RightUpperArm_accelerometer_x;RightUpperArm_accelerometer_y;RightUpperArm_accelerometer_z;RightLowerArm_boneIndex;RightLowerArm_quat9x_w;RightLowerArm_quat9x_x;RightLowerArm_quat9x_y;RightLowerArm_quat9x_z;RightLowerArm_gyroscope_x;RightLowerArm_gyroscope_y;RightLowerArm_gyroscope_z;RightLowerArm_accelerometer_x;RightLowerArm_accelerometer_y;RightLowerArm_accelerometer_z;LeftUpperArm_boneIndex;LeftUpperArm_quat9x_w;LeftUpperArm_quat9x_x;LeftUpperArm_quat9x_y;LeftUpperArm_quat9x_z;LeftUpperArm_gyroscope_x;LeftUpperArm_gyroscope_y;LeftUpperArm_gyroscope_z;LeftUpperArm_accelerometer_x;LeftUpperArm_accelerometer_y;LeftUpperArm_accelerometer_z;LeftLowerArm_boneIndex;LeftLowerArm_quat9x_w;LeftLowerArm_quat9x_x;LeftLowerArm_quat9x_y;LeftLowerArm_quat9x_z;LeftLowerArm_gyroscope_x;LeftLowerArm_gyroscope_y;LeftLowerArm_gyroscope_z;LeftLowerArm_accelerometer_x;LeftLowerArm_accelerometer_y;LeftLowerArm_accelerometer_z;Chest_boneIndex;Chest_quat9x_w;Chest_quat9x_x;Chest_quat9x_y;Chest_quat9x_z;Chest_gyroscope_x;Chest_gyroscope_y;Chest_gyroscope_z;Chest_accelerometer_x;Chest_accelerometer_y;Chest_accelerometer_z;Spine_boneIndex;Spine_quat9x_w;Spine_quat9x_x;Spine_quat9x_y;Spine_quat9x_z;Spine_gyroscope_x;Spine_gyroscope_y;Spine_gyroscope_z;Spine_accelerometer_x;Spine_accelerometer_y;Spine_accelerometer_z;RightUpperLeg_boneIndex;RightUpperLeg_quat9x_w;RightUpperLeg_quat9x_x;RightUpperLeg_quat9x_y;RightUpperLeg_quat9x_z;RightUpperLeg_gyroscope_x;RightUpperLeg_gyroscope_y;RightUpperLeg_gyroscope_z;RightUpperLeg_accelerometer_x;RightUpperLeg_accelerometer_y;RightUpperLeg_accelerometer_z;RightLowerLeg_boneIndex;RightLowerLeg_quat9x_w;RightLowerLeg_quat9x_x;RightLowerLeg_quat9x_y;RightLowerLeg_quat9x_z;RightLowerLeg_gyroscope_x;RightLowerLeg_gyroscope_y;RightLowerLeg_gyroscope_z;RightLowerLeg_accelerometer_x;RightLowerLeg_accelerometer_y;RightLowerLeg_accelerometer_z;LeftUpperLeg_boneIndex;LeftUpperLeg_quat9x_w;LeftUpperLeg_quat9x_x;LeftUpperLeg_quat9x_y;LeftUpperLeg_quat9x_z;LeftUpperLeg_gyroscope_x;LeftUpperLeg_gyroscope_y;LeftUpperLeg_gyroscope_z;LeftUpperLeg_accelerometer_x;LeftUpperLeg_accelerometer_y;LeftUpperLeg_accelerometer_z;LeftLowerLeg_boneIndex;LeftLowerLeg_quat9x_w;LeftLowerLeg_quat9x_x;LeftLowerLeg_quat9x_y;LeftLowerLeg_quat9x_z;LeftLowerLeg_gyroscope_x;LeftLowerLeg_gyroscope_y;LeftLowerLeg_gyroscope_z;LeftLowerLeg_accelerometer_x;LeftLowerLeg_accelerometer_y;LeftLowerLeg_accelerometer_z;pelvis_x;pelvis_y;pelvis_z;lowerSpine_x;lowerSpine_y;lowerSpine_z;middleSpine_x;middleSpine_y;middleSpine_z;upperSpine_x;upperSpine_y;upperSpine_z;rightClavicle_x;rightClavicle_y;rightClavicle_z;rightShoulder_x;rightShoulder_y;rightShoulder_z;rightElbow_x;rightElbow_y;rightElbow_z;rightWrist_x;rightWrist_y;rightWrist_z;leftClavicle_x;leftClavicle_y;leftClavicle_z;leftShoulder_x;leftShoulder_y;leftShoulder_z;leftElbow_x;leftElbow_y;leftElbow_z;leftWrist_x;leftWrist_y;leftWrist_z;rightHip_x;rightHip_y;rightHip_z;rightKnee_x;rightKnee_y;rightKnee_z;rightAnkle_x;rightAnkle_y;rightAnkle_z;leftHip_x;leftHip_y;leftHip_z;leftKnee_x;leftKnee_y;leftKnee_z;leftAnkle_x;leftAnkle_y;leftAnkle_z;
1465742.6923;NotLabelled;NONE;16384;0.8638152;0.3919668;0.3116343;0.05540166;-18;-31;-10;1368;-2174;2450;65536;0.867286;0.4889196;0.05817174;0.0734072;32;-6;5;-789;-3032;-1886;8192;0.8112833;0.3808864;-0.4376731;0.07202215;-31;13;12;-924;-2484;2378;32768;0.8249827;0.5263157;-0.1939058;0.06925207;39;0;-10;330;-3109;-1516;256;-0.06925207;0.02216066;-0.5609418;-0.8246559;32;1;-2;162;3296;-1422;128;0.06925207;-0.01800554;0.7787272;0.6232687;-33;4;-1;-68;3626;-762;4;0.6321406;-0.300554;0.4044321;0.5886427;0;-3;-55;1700;3490;622;16;0.5096953;-0.837783;-0.1509695;-0.1246537;20;-8;14;-367;3723;1940;2;0.6460176;-0.3213296;-0.3711911;-0.5844875;9;-18;52;-1868;3396;376;8;0.5290859;-0.7895162;0.2063712;0.232687;19;-2;-17;277;3881;1443;0.6270048;2.474441;0.08388902;0.6322782;2.954991;-0.1743076;0.6369032;3.376437;-0.403044;0.6989293;4.060139;-0.1438777;0.4700773;4.400804;-0.06436696;0.1163001;4.27878;-0.0548173;-0.469559;4.869118;-0.4629827;-0.6858662;5.655622;-0.9450828;0.9882935;4.353795;-0.06436691;1.262164;4.174832;-0.0548166;1.856741;4.822404;-0.4490296;2.051895;5.665054;-0.8358675;0.3147698;2.434158;0.09868139;0.002143562;1.196671;-0.6166856;0;0;0;0.3147698;2.434158;0.09868139;0.002143562;1.196671;-0.6166856;0;0;0
1465763.6667;NotLabelled;NONE;16384;0.8621402;0.3961219;0.3102493;0.05955679;-20;-28;-9;1526;-2146;2446;65536;0.8647175;0.4930748;0.05955679;0.07479224;33;-6;6;-911;-3008;-1824;8192;0.8093195;0.3850415;-0.4376731;0.07202215;-31;11;12;-956;-2506;2418;32768;0.8219892;0.5304709;-0.1952908;0.06925207;38;1;-10;282;-3117;-1404;256;-0.06925207;0.02493075;-0.5526316;-0.8301693;31;3;-4;162;3330;-1316;128;0.07063711;-0.01939058;0.7718436;0.6315789;-33;3;-1;-118;3632;-898;4;0.6284763;-0.3060942;0.4099723;0.5858725;0;0;-54;1794;3552;614;16;0.5124654;-0.8363793;-0.1481994;-0.1260388;21;-8;14;-447;3697;1924;2;0.6446829;-0.3282548;-0.3739612;-0.5803324;11;-14;49;-1726;3344;436;8;0.5318559;-0.7871912;0.2049861;0.2354571;19;-4;-16;239;3899;1413;0.6278651;2.493466;0.06525737;0.6331685;2.976762;-0.1877624;0.6378202;3.40064;-0.4119584;0.6989294;4.08178;-0.1459213;0.4696651;4.421408;-0.06322015;0.1160022;4.298944;-0.05520996;-0.4730428;4.893858;-0.4519876;-0.6916046;5.689287;-0.9181627;0.9879279;4.374914;-0.06321923;1.261969;4.196137;-0.05520855;1.854934;4.849447;-0.442316;2.047236;5.697693;-0.8181974;0.3156283;2.453027;0.07957937;0.004127271;1.200385;-0.6094153;0;0;0;0.3156283;2.453027;0.07957937;0.004127271;1.200385;-0.6094153;0;0;0
1465784.7876;NotLabelled;NONE;16384;0.8600227;0.400277;0.3102493;0.06232687;-20;-24;-8;1418;-2216;2470;65536;0.8622137;0.4972299;0.05955679;0.07617728;35;-7;6;-817;-3014;-1702;8192;0.8059074;0.3905817;-0.4390582;0.07202215;-30;11;12;-740;-2552;2290;32768;0.8180556;0.536011;-0.1966759;0.06925207;35;-1;-12;358;-3107;-1402;256;-0.06925207;0.02631579;-0.5484765;-0.8328776;31;4;-4;84;3274;-1412;128;0.07063711;-0.02077562;0.7695324;0.634349;-32;3;0;-160;3534;-898;4;0.6230917;-0.3144044;0.4196676;0.5803324;-2;2;-48;1898;3184;398;16;0.5193906;-0.8326151;-0.1440443;-0.1274238;19;-10;12;-417;3785;1590;2;0.641174;-0.33518;-0.3781163;-0.5775623;11;-9;48;-1600;3300;360;8;0.534626;-0.7848959;0.2049861;0.2368421;18;-1;-16;223;3901;1379;0.6305525;2.510885;0.05016115;0.6359144;2.999501;-0.1924224;0.6406176;3.428095;-0.4074648;0.6999316;4.103931;-0.1278401;0.4698603;4.441407;-0.03881689;0.1164238;4.31813;-0.03387153;-0.4735189;4.916221;-0.4244903;-0.6966894;5.715731;-0.8814101;0.9882119;4.395918;-0.03881645;1.262588;4.217544;-0.03387055;1.852959;4.875913;-0.4163452;2.045479;5.727826;-0.7837222;0.3183125;2.470148;0.06353807;0.00818418;1.204319;-0.6015612;0;0;0;0.3183125;2.470148;0.06353807;0.00818418;1.204319;-0.6015612;0;0;0
1465806.6727;NotLabelled;NONE;16384;0.8585225;0.4030471;0.3102493;0.06509695;-20;-23;-8;1344;-2352;2478;65536;0.858871;0.5027701;0.05955679;0.07756232;34;-12;4;-865;-3086;-1522;8192;0.8038803;0.3947368;-0.4390582;0.07202215;-27;9;14;-868;-2640;2216;32768;0.8153179;0.5401662;-0.1966759;0.06925207;34;-3;-11;190;-3157;-1178;256;-0.06925207;0.02631579;-0.5443213;-0.8355991;30;2;-3;144;3328;-1370;128;0.07063711;-0.02077562;0.7660882;0.6385041;-29;3;-1;-124;3486;-854;4;0.6207381;-0.3185596;0.4238227;0.5775623;-1;0;-45;1912;3026;242;16;0.5221606;-0.8311196;-0.1426593;-0.1274238;17;-7;12;-437;3863;1508;2;0.6391003;-0.3407202;-0.3808864;-0.5747922;10;-2;46;-1670;3260;290;8;0.5373961;-0.7825816;0.2049861;0.2382271;16;-6;-16;251;3919;1239;0.635323;2.540587;0.03092182;0.6407042;3.030962;-0.2080875;0.6454246;3.461115;-0.4199948;0.7037016;4.13421;-0.1336208;0.4731842;4.470572;-0.04159373;0.1198583;4.346922;-0.03836903;-0.471697;4.945675;-0.4255196;-0.6961389;5.749478;-0.874209;0.9915785;4.425571;-0.04130633;1.266117;4.247414;-0.03773353;1.855251;4.909334;-0.4159617;2.048713;5.766064;-0.7714509;0.3230819;2.499753;0.04397591;0.01464433;1.213778;-0.582115;0;0;0;0.3230819;2.499753;0.04397591;0.01464433;1.213778;-0.582115;0;0;0
1465826.8052;NotLabelled;NONE;16384;0.8563444;0.4072022;0.3102493;0.06786703;-19;-22;-8;1332;-2384;2474;65536;0.8562985;0.5069252;0.05955679;0.07894737;32;-11;3;-705;-3098;-1520;8192;0.8010667;0.398892;-0.4404432;0.07202215;-25;7;16;-800;-2706;2252;32768;0.8122132;0.5443213;-0.1980609;0.06925207;32;-1;-9;166;-3223;-1076;256;-0.06925207;0.02770083;-0.5415512;-0.8373524;28;2;-2;234;3400;-1472;128;0.07063711;-0.02216066;0.7637321;0.6412742;-27;0;-1;-120;3600;-850;4;0.617017;-0.3227147;0.4279778;0.5761772;0;5;-42;1786;3064;270;16;0.5249307;-0.8296099;-0.1412742;-0.1274238;15;-5;12;-437;3853;1344;2;0.6356164;-0.3448753;-0.3850415;-0.5734072;10;-3;43;-1718;3422;332;8;0.5387812;-0.780779;0.2049861;0.2409972;16;-5;-15;217;3911;1309;0.6346486;2.55336;0.02118434;0.6400578;3.046283;-0.2125236;0.644803;3.478695;-0.4197804;0.7033901;4.148885;-0.1267344;0.4730437;4.484458;-0.03145022;0.1196435;4.360992;-0.02955877;-0.472747;4.964265;-0.408325;-0.6977156;5.77378;-0.8463553;0.991411;4.439147;-0.03144984;1.265842;4.260799;-0.02955803;1.853648;4.930388;-0.3961782;2.046527;5.790757;-0.7430913;0.3224061;2.512389;0.0337605;0.01586038;1.217409;-0.5744472;0;0;0;0.3224061;2.512389;0.0337605;0.01586038;1.217409;-0.5744472;0;0;0
1465847.6955;NotLabelled;NONE;16384;0.8526762;0.4141274;0.3102493;0.07202215;-17;-16;-10;1372;-2414;2442;65536;0.8519953;0.5138504;0.05817174;0.08171745;26;-6;0;-823;-3208;-1408;8192;0.7969383;0.4058172;-0.4418283;0.07063711;-20;9;15;-906;-2602;2242;32768;0.8066021;0.5512465;-0.200831;0.07202215;29;-10;-10;264;-3201;-1156;256;-0.06925207;0.02770083;-0.5373961;-0.8400251;27;1;-1;194;3368;-1492;128;0.07063711;-0.02216066;0.7613976;0.6440443;-27;0;-1;-206;3606;-828;4;0.6160322;-0.3282548;0.4307479;0.5720221;7;21;-40;1704;3096;40;16;0.5277008;-0.8278714;-0.1398892;-0.1288089;12;-4;13;-637;3763;1486;2;0.6310852;-0.3559557;-0.3905817;-0.567867;8;-1;40;-1744;3426;34;8;0.5443213;-0.7760622;0.2049861;0.2437673;13;-2;-12;-11;4089;1103;0.6310239;2.566364;0.01088424;0.6364517;3.060993;-0.2191897;0.6412135;3.494919;-0.4232586;0.6988867;4.163245;-0.1258101;0.4681118;4.497932;-0.02846869;0.1148488;4.374063;-0.02758494;-0.4787758;4.980714;-0.3989518;-0.705307;5.794365;-0.8284304;0.9865293;4.453199;-0.02846849;1.261159;4.275148;-0.02758455;1.848578;4.949222;-0.3865252;2.042343;5.812992;-0.7243791;0.3187803;2.525301;0.02313344;0.01601332;1.220999;-0.5667729;0;0;0;0.3187803;2.525301;0.02313344;0.01601332;1.220999;-0.5667729;0;0;0
1465867.8079;NotLabelled;NONE;16384;0.8510863;0.4168975;0.3102493;0.07479224;-16;-17;-9;1416;-2442;2440;65536;0.8494754;0.5180055;0.05817174;0.08171745;24;-5;-5;-823;-3244;-1380;8192;0.7948727;0.4085872;-0.4432133;0.06925207;-17;12;12;-906;-2718;2286;32768;0.8033994;0.5554016;-0.2022161;0.07202215;26;-6;-11;298;-3331;-1068;256;-0.06925207;0.02908587;-0.534626;-0.8417442;25;2;-1;148;3246;-1534;128;0.07063711;-0.02216066;0.7578633;0.6481994;-26;0;-1;-136;3580;-696;4;0.6144248;-0.33241;0.433518;0.5692521;8;11;-40;1594;3326;274;16;0.5304709;-0.8261155;-0.1385041;-0.1301939;11;0;14;-439;3889;1452;2;0.6282458;-0.3601108;-0.3933518;-0.566482;9;2;35;-1638;3530;314;8;0.5457063;-0.7746519;0.2049861;0.2451524;11;-1;-11;273;3953;1145;0.631759;2.578705;0.00247784;0.6372051;3.074987;-0.2240103;0.6419829;3.510377;-0.4249334;0.699801;4.175706;-0.1208653;0.4691433;4.509557;-0.020427;0.1158055;4.3859;-0.02106426;-0.4781106;4.998341;-0.3823229;-0.7038737;5.818943;-0.7987855;0.9875337;4.464512;-0.02042677;1.262055;4.286294;-0.02106369;1.850181;4.966872;-0.3663157;2.044428;5.836856;-0.6875339;0.3195146;2.537555;0.01440474;0.02070372;1.224763;-0.5584382;0;0;0;0.3195146;2.537555;0.01440474;0.02070372;1.224763;-0.5584382;0;0;0
1465889.7786;NotLabelled;NONE;16384;0.8496008;0.4196676;0.3102493;0.07617728;-15;-17;-7;1664;-2412;2444;65536;0.8470217;0.5221606;0.0567867;0.08171745;23;-1;-4;-965;-3378;-1342;8192;0.7928429;0.4127424;-0.4432133;0.06786703;-16;17;11;-1048;-2688;2294;32768;0.8011265;0.5581717;-0.2036011;0.07202215;22;-4;-10;540;-3403;-1110;256;-0.06925207;0.03047091;-0.5277008;-0.8460541;24;4;-1;178;3382;-1638;128;0.07063711;-0.02216066;0.7530895;0.6537396;-28;1;-2;-94;3680;-696;4;0.6099768;-0.3421052;0.4376731;0.5650969;7;9;-33;1524;3334;718;16;0.533241;-0.8241195;-0.1371191;-0.132964;6;1;12;-287;3851;1420;2;0.6262257;-0.3642659;-0.3947368;-0.5650969;8;-1;31;-1566;3510;282;8;0.5470914;-0.7732341;0.2049861;0.2465374;9;-6;-12;311;3945;1143;0.6331107;2.589585;-0.004085436;0.6385835;3.088305;-0.2251514;0.6433851;3.52586;-0.4213173;0.700305;4.189263;-0.1129034;0.4692258;4.522203;-0.01042996;0.1160242;4.398167;-0.01206952;-0.4799784;5.012167;-0.3671952;-0.7059565;5.837003;-0.7750854;0.9876652;4.477725;-0.01042956;1.262382;4.299815;-0.01206854;1.851416;4.982034;-0.3524982;2.046529;5.855187;-0.6644574;0.3208648;2.548307;0.007355042;0.02403057;1.228466;-0.5501104;0;0;0;0.3208648;2.548307;0.007355042;0.02403057;1.228466;-0.5501104;0;0;0
1465910.8408;NotLabelled;NONE;16384;0.8486621;0.4210526;0.3102493;0.07894737;-14;-14;-4;1718;-2354;2424;65536;0.8453078;0.5249307;0.0567867;0.08171745;21;-3;-4;-791;-3370;-1286;8192;0.7915122;0.4155124;-0.4432133;0.06648199;-14;13;11;-1198;-2714;2316;32768;0.7987092;0.5609418;-0.2049861;0.0734072;21;-4;-9;612;-3419;-1208;256;-0.06925207;0.03047091;-0.5249307;-0.8477756;22;3;-1;240;3426;-1588;128;0.07063711;-0.02216066;0.7506759;0.6565097;-25;2;-2;-174;3720;-804;4;0.6094041;-0.3476454;0.4376731;0.5623268;7;32;-29;1514;3414;170;16;0.534626;-0.8232264;-0.1357341;-0.134349;6;3;12;-375;3831;1646;2;0.6220286;-0.368421;-0.3975069;-0.5650969;10;1;31;-1542;3358;-58;8;0.5484765;-0.7718087;0.2049861;0.2479224;7;-11;-15;491;3891;1235;0.6268586;2.60816;-0.02316175;0.6323664;3.110056;-0.2369173;0.6371989;3.55043;-0.4266692;0.6933758;4.208757;-0.1074319;0.4619964;4.539882;0.000118576;0.1088564;4.415729;-0.004030231;-0.4878871;5.032149;-0.3536776;-0.7117152;5.861461;-0.7536004;0.9804566;4.495644;0.0001189113;1.25526;4.317909;-0.004029036;1.843293;5.00371;-0.3389425;2.039604;5.878869;-0.6444743;0.3146109;2.56672;-0.0123757;0.03071367;1.232299;-0.5411319;0;0;0;0.3146109;2.56672;-0.0123757;0.03071367;1.232299;-0.5411319;0;0;0
1465931.9145;NotLabelled;NONE;16384;0.8471519;0.4238227;0.3102493;0.08033241;-12;-15;-2;1684;-2418;2416;65536;0.8436733;0.5277008;0.05540166;0.08171745;19;-5;-2;-865;-3460;-1212;8192;0.7901671;0.4182825;-0.4432133;0.06509695;-13;9;9;-1238;-2690;2524;32768;0.7963989;0.5637119;-0.2063712;0.0734072;18;-5;-8;678;-3601;-1054;256;-0.06925207;0.03185596;-0.5221606;-0.8494337;22;6;-2;180;3422;-1720;128;0.07202215;-0.0235457;0.7480699;0.6592798;-24;3;-1;-114;3738;-550;4;0.6095694;-0.3518005;0.4376731;0.5595568;6;16;-29;1454;3514;246;16;0.536011;-0.8220977;-0.1357341;-0.1357341;4;5;11;-213;3983;1558;2;0.6207505;-0.3711911;-0.398892;-0.5637119;13;2;31;-1548;3424;164;8;0.5498615;-0.7691035;0.2063712;0.2520775;5;-21;-18;507;3909;1137;0.623266;2.615794;-0.02854437;0.6287907;3.119246;-0.2386096;0.6336383;3.561;-0.4251234;0.6899051;4.217214;-0.1015796;0.4586006;4.547728;0.007994011;0.1054126;4.423749;0.002841908;-0.492576;5.040025;-0.3449264;-0.7158489;5.872081;-0.7394266;0.9770425;4.503278;0.007994145;1.251776;4.32546;0.002842784;1.840248;5.013257;-0.3271746;2.036828;5.890777;-0.6256728;0.3110175;2.574276;-0.01808782;0.03568465;1.234097;-0.5367113;0;0;0;0.3110175;2.574276;-0.01808782;0.03568465;1.234097;-0.5367113;0;0;0
1465952.7796;NotLabelled;NONE;16384;0.8455279;0.4279778;0.3074792;0.08587258;-8;-21;0;1678;-2662;2408;65536;0.839166;0.534626;0.05540166;0.08310249;17;-5;-3;-751;-3614;-1260;8192;0.7872862;0.4224377;-0.4445983;0.06371191;-10;7;7;-1188;-3056;2440;32768;0.7922196;0.567867;-0.2105263;0.07479224;13;-9;-9;540;-3725;-1222;256;-0.06925207;0.033241;-0.5193906;-0.8510773;24;6;-3;122;3494;-1774;128;0.07202215;-0.0235457;0.7456195;0.6620498;-23;2;-1;-50;3908;-602;4;0.608697;-0.3559557;0.4390582;0.5567867;11;9;-28;1386;3660;392;16;0.536011;-0.8220954;-0.134349;-0.1371191;3;3;10;-231;3787;1504;2;0.6139485;-0.3808864;-0.400277;-0.5637119;21;-9;26;-1632;3710;266;8;0.5498615;-0.7648164;0.2119114;0.2603878;5;-29;-17;-39;4091;1339;0.6211746;2.62185;-0.03212537;0.6267164;3.126863;-0.2384111;0.6315793;3.570003;-0.4216087;0.6869785;4.224181;-0.0938217;0.4552662;4.553741;0.01774667;0.1022118;4.429427;0.01160309;-0.496379;5.048079;-0.33087;-0.7178643;5.883151;-0.7199644;0.9737546;4.509836;0.01774713;1.248678;4.332344;0.01160431;1.836822;5.022108;-0.3148704;2.034468;5.901546;-0.6069529;0.3089252;2.580255;-0.02200598;0.03733518;1.236044;-0.5320979;0;0;0;0.3089252;2.580255;-0.02200598;0.03733518;1.236044;-0.5320979;0;0;0
1465973.6681;NotLabelled;NONE;16384;0.8443371;0.4307479;0.3060942;0.08864266;-5;-24;0;1750;-2754;2552;65536;0.8374853;0.5373961;0.05401662;0.08310249;16;-8;-4;-839;-3650;-1182;8192;0.7859046;0.4252077;-0.4445983;0.06232687;-8;8;6;-1138;-3090;2492;32768;0.7908551;0.5692521;-0.2119114;0.07479224;11;-5;-7;524;-3887;-1306;256;-0.06925207;0.03462604;-0.5166205;-0.8527066;22;6;-4;114;3610;-1798;128;0.07202215;-0.02493075;0.7443423;0.6634349;-23;2;0;-152;3914;-654;4;0.6065139;-0.3601108;0.4404432;0.5554016;5;15;-24;1292;3710;742;16;0.5373961;-0.8209581;-0.134349;-0.1385041;5;6;13;-511;3877;1804;2;0.6139251;-0.3864266;-0.398892;-0.5609418;17;-27;26;-1572;3982;556;8;0.5498615;-0.7633891;0.2119114;0.2645429;7;-16;-14;-343;4075;1629;0.6221661;2.627128;-0.04380935;0.6277245;3.13365;-0.2463581;0.632602;3.578131;-0.4262763;0.687145;4.23025;-0.09426893;0.4550302;4.558847;0.01928572;0.1021086;4.434209;0.01215279;-0.4964968;5.055356;-0.3257495;-0.7189833;5.896789;-0.7002971;0.973564;4.515481;0.01928625;1.248675;4.338316;0.01215398;1.837557;5.031066;-0.3065789;2.038678;5.913409;-0.5873095;0.3099158;2.585459;-0.03402284;0.04137465;1.236035;-0.531819;0;0;0;0.3099158;2.585459;-0.03402284;0.04137465;1.236035;-0.531819;0;0;0
1465993.6781;NotLabelled;NONE;16384;0.8438348;0.432133;0.3047091;0.09141274;-3;-20;2;1876;-2824;2746;65536;0.8356508;0.5401662;0.05263158;0.08448754;15;-8;-3;-773;-3860;-1312;8192;0.7852623;0.4265928;-0.4445983;0.06094183;-8;9;5;-1274;-3096;2630;32768;0.7894834;0.5706371;-0.2132964;0.07479224;10;-3;-5;554;-3969;-1376;256;-0.06925207;0.03739612;-0.5110803;-0.8559221;18;6;-3;146;3828;-1982;128;0.07202215;-0.02631579;0.739319;0.6689751;-25;3;0;-124;4162;-558;4;0.6037034;-0.3698061;0.4432133;0.5498615;10;5;-32;1110;3952;444;16;0.5387812;-0.8193372;-0.134349;-0.1426593;10;1;13;-79;3927;1838;2;0.6120332;-0.3919668;-0.400277;-0.5581717;12;-23;27;-1484;4232;652;8;0.5512465;-0.7614228;0.2119114;0.267313;10;-6;-13;-133;4059;1617;0.6176591;2.634659;-0.05100416;0.623226;3.141958;-0.2515992;0.6281112;3.587129;-0.429803;0.6818093;4.237164;-0.09359785;0.4492975;4.56479;0.02193439;0.09650773;4.439839;0.01381467;-0.5023338;5.063026;-0.3198845;-0.7229855;5.907372;-0.6889238;0.9678754;4.521955;0.02193442;1.243172;4.345121;0.01381516;1.831501;5.039765;-0.3017994;2.033892;5.922912;-0.5790689;0.3054084;2.592952;-0.04139157;0.04303845;1.237957;-0.5271979;0;0;0;0.3054084;2.592952;-0.04139157;0.04303845;1.237957;-0.5271979;0;0;0
1466013.7605;NotLabelled;NONE;16384;0.8446789;0.432133;0.301939;0.09279778;-2;-20;4;1890;-2764;2880;65536;0.8347539;0.5415512;0.05263158;0.08448754;10;-6;-1;-909;-4072;-1330;8192;0.7845084;0.4279778;-0.4445983;0.06094183;-5;10;2;-1318;-3112;2696;32768;0.7884805;0.5720221;-0.2132964;0.07479224;8;-1;-4;664;-4019;-1406;256;-0.06925207;0.03878116;-0.5083103;-0.8575085;19;5;-1;156;3772;-2012;128;0.0734072;-0.02631579;0.7366664;0.6717451;-23;2;-1;-142;4208;-374;4;0.6016169;-0.3739612;0.4459834;0.5470914;8;10;-37;1042;4068;782;16;0.5401662;-0.8184084;-0.132964;-0.1440443;13;-1;14;-441;3811;1964;2;0.6131325;-0.3961219;-0.400277;-0.5540166;10;-21;31;-1220;4128;436;8;0.5512465;-0.7609351;0.2119114;0.2686981;14;-5;-14;95;4073;1753;0.6142555;2.648494;-0.0720799;0.6198548;3.15875;-0.2650272;0.624769;3.60655;-0.4365197;0.6768104;4.252345;-0.09198648;0.4435197;4.578002;0.02747369;0.09099119;4.452459;0.01738705;-0.5094142;5.076077;-0.3126794;-0.7303737;5.92302;-0.6755272;0.9621826;4.536209;0.02747437;1.237843;4.360045;0.01738852;1.825311;5.055076;-0.2989786;2.028397;5.939012;-0.5732095;0.3020033;2.606648;-0.0631467;0.04976507;1.24017;-0.5213722;0;0;0;0.3020033;2.606648;-0.0631467;0.04976507;1.24017;-0.5213722;0;0;0
1466034.664;NotLabelled;NONE;16384;0.8441542;0.433518;0.300554;0.09556787;-2;-19;5;1816;-2822;2912;65536;0.8337985;0.5429363;0.05124654;0.08587258;5;-1;0;-1019;-4044;-1522;8192;0.7846416;0.4293629;-0.4432133;0.05955679;-4;11;1;-1328;-3008;2746;32768;0.7881045;0.5720221;-0.2146814;0.07479224;7;0;-4;674;-3877;-1492;256;-0.06925207;0.03878116;-0.5055401;-0.8591445;21;5;-1;258;3728;-2112;128;0.0734072;-0.02770083;0.7340799;0.6745152;-28;1;-2;-160;4212;-258;4;0.6008831;-0.3795014;0.4473684;0.5429363;6;19;-43;1146;4010;398;16;0.5415512;-0.8174714;-0.1315789;-0.1454294;16;0;15;-287;4025;1934;2;0.6114516;-0.4016621;-0.4030471;-0.5498615;7;-14;40;-910;4146;534;8;0.5540166;-0.7579342;0.2119114;0.2714681;19;-2;-15;123;4193;1701;0.6152876;2.656127;-0.08381125;0.6209025;3.167809;-0.2729445;0.6258305;3.616876;-0.4410896;0.6770607;4.260516;-0.09242636;0.4433887;4.585176;0.02898414;0.09098919;4.459354;0.01791809;-0.507474;5.083342;-0.3149637;-0.7289461;5.93156;-0.6745105;0.9620925;4.543894;0.02898514;1.237932;4.36807;0.01791948;1.824574;5.064582;-0.2967186;2.026891;5.949501;-0.5683279;0.3030347;2.614216;-0.07521617;0.05352451;1.241838;-0.5170106;0;0;0;0.3030347;2.614216;-0.07521617;0.05352451;1.241838;-0.5170106;0;0;0
1466055.8788;NotLabelled;NONE;16384;0.8441053;0.434903;0.2977839;0.09833795;-2;-21;7;1758;-2840;2678;65536;0.832895;0.5443213;0.05124654;0.08587258;3;-1;0;-873;-3974;-1626;8192;0.7834415;0.433518;-0.4418283;0.05540166;-8;19;0;-1286;-2812;2520;32768;0.7867182;0.5734072;-0.2160665;0.07479224;2;-3;-8;444;-3789;-1674;256;-0.06925207;0.0401662;-0.5027701;-0.860705;22;5;-2;230;3614;-2062;128;0.0734072;-0.02770083;0.7302401;0.6786703;-30;2;-2;-204;4238;-124;4;0.5968838;-0.3864266;0.4501385;0.5401662;7;14;-49;1294;3944;338;16;0.5443213;-0.8156037;-0.1301939;-0.1468144;18;-2;16;-317;3937;1770;2;0.6087506;-0.4072022;-0.4072022;-0.5457063;3;-3;49;-950;4138;504;8;0.5567867;-0.7562885;0.2105263;0.2714681;21;8;-16;-25;4117;1443;0.6152551;2.663548;-0.09420356;0.6208858;3.176664;-0.27941;0.6258277;3.627006;-0.444109;0.6771629;4.268373;-0.09129848;0.4435719;4.592353;0.03207287;0.09112276;4.466761;0.02001994;-0.5073398;5.091191;-0.3120311;-0.7277355;5.940704;-0.6691726;0.9622571;4.55084;0.03207326;1.238024;4.374968;0.02002117;1.823574;5.072344;-0.294737;2.028014;5.957053;-0.5654441;0.3030016;2.621572;-0.08595602;0.05852624;1.243478;-0.5125082;0;0;0;0.3030016;2.621572;-0.08595602;0.05852624;1.243478;-0.5125082;0;0;0
1466076.6812;NotLabelled;NONE;16384;0.8429148;0.4390582;0.2936288;0.1024931;-8;-24;11;1902;-2446;2338;65536;0.832895;0.5443213;0.05124654;0.08587258;5;4;2;-1055;-3570;-1846;8192;0.7827801;0.4362881;-0.4404432;0.05401662;-10;22;0;-1394;-2660;2326;32768;0.7873446;0.5720221;-0.2174515;0.07479224;3;-3;-10;392;-3613;-1830;256;-0.06925207;0.04155125;-0.4986149;-0.8630531;22;5;-2;140;3352;-2084;128;0.07479224;-0.02770083;0.7275147;0.6814404;-33;2;-1;-188;4150;-116;4;0.5949185;-0.3919668;0.4529086;0.536011;9;18;-48;1138;3878;488;16;0.5470914;-0.8137175;-0.1288089;-0.1481994;20;-4;18;-189;3831;1632;2;0.6014702;-0.4168975;-0.4155124;-0.5401662;6;4;47;-1166;3694;140;8;0.5637119;-0.751026;0.2091413;0.2728532;23;5;-16;107;4035;1035;0.6083925;2.675348;-0.1069034;0.6140459;3.190524;-0.2862999;0.6190079;3.642698;-0.4458995;0.6692719;4.281865;-0.08896526;0.4352096;4.604831;0.03615868;0.08289807;4.478978;0.02285991;-0.5145983;5.100701;-0.3159426;-0.735224;5.95147;-0.6699367;0.9539347;4.563818;0.03655866;1.229888;4.388291;0.02374405;1.815189;5.083707;-0.2957785;2.021123;5.969173;-0.5628489;0.2961379;2.633282;-0.09916943;0.06242321;1.246781;-0.5039533;0;0;0;0.2961379;2.633282;-0.09916943;0.06242321;1.246781;-0.5039533;0;0;0
1466096.6816;NotLabelled;NONE;16384;0.842983;0.4404432;0.2908587;0.1038781;-11;-23;14;1678;-2424;2238;65536;0.8319017;0.5457063;0.05263158;0.08587258;9;5;3;-997;-3388;-1852;8192;0.7821954;0.4390582;-0.4390582;0.05124654;-11;22;-2;-1386;-2602;2102;32768;0.7870913;0.5720221;-0.2188366;0.0734072;6;3;-14;486;-3429;-1694;256;-0.07063711;0.04293629;-0.4958449;-0.8644679;20;5;-2;222;3064;-2024;128;0.07479224;-0.02908587;0.723546;0.6855956;-33;4;0;-176;3898;-108;4;0.5920466;-0.4044321;0.4570637;0.5263157;4;29;-44;914;3578;398;16;0.5526316;-0.8098894;-0.1260388;-0.1509695;20;-1;17;-229;3939;1454;2;0.5991325;-0.4210526;-0.4182825;-0.5373961;7;-10;43;-1238;3618;-74;8;0.567867;-0.7477685;0.2077562;0.2742382;22;3;-16;-117;4079;1089;0.6081887;2.684936;-0.1182036;0.6138567;3.201454;-0.2937007;0.6188318;3.654822;-0.4498776;0.668639;4.290599;-0.08687728;0.4343447;4.612188;0.04131879;0.08212473;4.486211;0.02682869;-0.5126702;5.115764;-0.3021261;-0.7342836;5.966533;-0.6555033;0.9530995;4.571551;0.04131934;1.22918;4.396356;0.02683035;1.812483;5.097643;-0.2833769;2.0199;5.98192;-0.5532262;0.2959335;2.642813;-0.1108138;0.06564558;1.250018;-0.4954519;0;0;0;0.2959335;2.642813;-0.1108138;0.06564558;1.250018;-0.4954519;0;0;0
1466117.6913;NotLabelled;NONE;16384;0.8426086;0.4432133;0.2867036;0.1066482;-11;-28;16;1646;-2416;2178;65536;0.8308471;0.5470914;0.05263158;0.08725762;13;-1;3;-903;-3448;-1586;8192;0.7822751;0.4418283;-0.4362881;0.04986149;-11;24;-4;-1408;-2644;2072;32768;0.7859498;0.5734072;-0.2202216;0.07063711;12;9;-19;484;-3305;-1588;256;-0.07063711;0.04432133;-0.4903047;-0.8675525;20;4;-3;184;3014;-2000;128;0.07617728;-0.03185596;0.716657;0.6925207;-31;11;0;-154;3624;-222;4;0.5898798;-0.4113573;0.4584487;0.5221606;6;23;-40;920;3524;262;16;0.5554016;-0.8076847;-0.1246537;-0.1537396;19;2;18;-181;3899;1422;2;0.5957418;-0.4265928;-0.4210526;-0.534626;6;-15;41;-1330;3664;16;8;0.5706371;-0.7460413;0.2063712;0.2742382;23;6;-15;-41;4113;1149;0.6066898;2.703148;-0.1402781;0.6123798;3.221661;-0.3097883;0.6173745;3.676805;-0.4607102;0.6679307;4.310331;-0.09389777;0.4340422;4.631489;0.03610642;0.08164659;4.506113;0.02069993;-0.5116532;5.137666;-0.3071197;-0.7363598;5.98937;-0.6562686;0.9527374;4.5901;0.03610685;1.22857;4.414593;0.0207012;1.810476;5.117085;-0.2894027;2.020522;6.00071;-0.5593583;0.2944336;2.660943;-0.1334157;0.07321797;1.256295;-0.4782153;0;0;0;0.2944336;2.660943;-0.1334157;0.07321797;1.256295;-0.4782153;0;0;0
1466138.6708;NotLabelled;NONE;16384;0.842374;0.4459834;0.2825485;0.1080332;-11;-25;16;1762;-2510;2164;65536;0.8297867;0.5484765;0.05263158;0.08864266;16;-7;3;-907;-3310;-1500;8192;0.7816483;0.4445983;-0.434903;0.04709141;-11;18;-3;-1368;-2678;2326;32768;0.784792;0.5747922;-0.2216066;0.06786703;13;17;-20;468;-3395;-1410;256;-0.07063711;0.04570637;-0.4875346;-0.8690405;22;3;-3;180;3036;-2118;128;0.07756232;-0.033241;0.7137575;0.6952909;-26;12;0;-190;3568;-18;4;0.5885742;-0.4168975;0.4598338;0.5180055;9;22;-39;852;3542;238;16;0.5581717;-0.8055074;-0.1246537;-0.1551246;18;5;17;53;3931;1306;2;0.5944814;-0.432133;-0.4224377;-0.5304709;12;-23;39;-1172;3770;82;8;0.5734072;-0.7439143;0.2063712;0.2742382;23;5;-14;-47;4005;1135;0.6050994;2.712332;-0.1495638;0.6108246;3.234048;-0.3089387;0.6158504;3.692047;-0.4509636;0.6657509;4.320907;-0.07612088;0.431586;4.640293;0.05769658;0.07926315;4.514966;0.04035103;-0.5109807;5.149869;-0.286511;-0.7374715;6.002525;-0.6321657;0.9502997;4.599136;0.05769727;1.226228;4.423959;0.04035237;1.804205;5.129272;-0.2706953;2.018705;6.012759;-0.5375837;0.2928419;2.670002;-0.1435916;0.08004269;1.259405;-0.4688492;0;0;0;0.2928419;2.670002;-0.1435916;0.08004269;1.259405;-0.4688492;0;0;0
1466159.8187;NotLabelled;NONE;16384;0.8419265;0.4487534;0.2783934;0.1108033;-14;-25;17;1702;-2506;2278;65536;0.8287203;0.5498615;0.05263158;0.0900277;17;-10;1;-763;-3446;-1530;8192;0.7800945;0.4501385;-0.432133;0.04570637;-18;14;-1;-1344;-2814;2242;32768;0.7814028;0.5789474;-0.2243767;0.06232687;11;6;-25;410;-3561;-1400;256;-0.06925207;0.04709141;-0.4847645;-0.8706262;24;1;-3;46;3160;-2064;128;0.07756232;-0.03462604;0.7109824;0.6980609;-24;10;0;-188;3830;24;4;0.5881748;-0.4210526;0.4612188;0.5138504;11;12;-36;704;3672;564;16;0.5609418;-0.8032548;-0.1232687;-0.1578947;17;4;15;45;3977;1220;2;0.5919023;-0.4376731;-0.4238227;-0.5277008;10;-16;40;-946;3870;522;8;0.5775623;-0.7405635;0.2049861;0.2756233;21;9;-14;-297;4039;895;0.6020716;2.720089;-0.1572075;0.6078104;3.243047;-0.3124622;0.6128486;3.70215;-0.45087;0.6619993;4.328692;-0.0720665;0.4274816;4.647023;0.06363487;0.07528012;4.521492;0.04532836;-0.510519;5.160625;-0.2812851;-0.7388759;6.014222;-0.623372;0.9462321;4.606332;0.06363538;1.222326;4.431515;0.04532963;1.799723;5.138021;-0.2640819;2.018624;6.021331;-0.5279634;0.2898138;2.677713;-0.1515964;0.08159279;1.262621;-0.4598439;0;0;0;0.2898138;2.677713;-0.1515964;0.08159279;1.262621;-0.4598439;0;0;0
1466180.6742;NotLabelled;NONE;16384;0.8400971;0.4556787;0.2714681;0.1135734;-18;-23;16;1848;-2726;2370;65536;0.8257067;0.5540166;0.05401662;0.09141274;18;2;8;-911;-3466;-1594;8192;0.7785302;0.4542936;-0.4307479;0.04432133;-19;18;0;-1310;-2948;2168;32768;0.7797894;0.5803324;-0.2271468;0.05955679;11;6;-26;648;-3629;-1326;256;-0.06925207;0.04709141;-0.4806094;-0.8729268;24;2;-2;106;3168;-2202;128;0.07894737;-0.03601108;0.7080299;0.700831;-25;5;0;-160;3826;-16;4;0.5867086;-0.4265928;0.4626039;0.5096953;6;29;-32;680;3938;510;16;0.5637119;-0.8010392;-0.1232687;-0.1592798;17;5;14;-133;3999;1394;2;0.5911759;-0.4487534;-0.4252077;-0.5180055;8;-31;38;-752;3872;-134;8;0.5831025;-0.7360737;0.2036011;0.2770083;25;-1;-15;-19;4221;1349;0.6082695;2.726235;-0.1613083;0.6140215;3.250407;-0.3124126;0.6190715;3.710593;-0.4471769;0.6659736;4.334779;-0.06421975;0.4303431;4.651434;0.07345879;0.07856541;4.524869;0.05414154;-0.5034612;5.16736;-0.2726287;-0.733211;6.021886;-0.6114492;0.9492245;4.612448;0.07345918;1.225901;4.438663;0.05414271;1.799239;5.150792;-0.24988;2.027768;6.034564;-0.5038688;0.296011;2.683816;-0.1560604;0.08896648;1.265568;-0.4502767;0;0;0;0.296011;2.683816;-0.1560604;0.08896648;1.265568;-0.4502767;0;0;0
1466200.6638;NotLabelled;NONE;16384;0.8392918;0.4584487;0.2686981;0.1149584;-17;-22;13;1922;-2914;2402;65536;0.8237493;0.5567867;0.05540166;0.09141274;18;-2;6;-933;-3682;-1340;8192;0.7776734;0.4570637;-0.4293629;0.04432133;-18;17;-3;-1522;-3182;2144;32768;0.7775217;0.5831025;-0.2285319;0.0567867;11;19;-25;542;-3727;-1314;256;-0.06925207;0.04847645;-0.4764543;-0.875126;25;2;-2;66;3324;-2246;128;0.07894737;-0.03739612;0.7052052;0.7036011;-20;1;0;-114;3868;-74;4;0.5851535;-0.432133;0.4639889;0.5055401;2;12;-32;728;4038;452;16;0.566482;-0.7988052;-0.1232687;-0.1606648;18;2;13;91;4055;1598;2;0.5907751;-0.4542936;-0.4265928;-0.5124654;7;-14;44;-670;4030;410;8;0.5872576;-0.7326215;0.2022161;0.2783934;26;5;-16;-193;4159;1153;0.6055439;2.733527;-0.1684236;0.611309;3.258884;-0.3153505;0.6163706;3.720129;-0.446447;0.6634397;4.340627;-0.05756561;0.4279347;4.656134;0.08293606;0.07608132;4.53001;0.06217133;-0.4974414;5.181797;-0.2612089;-0.7297164;6.039306;-0.5906385;0.9467882;4.616778;0.08293706;1.223355;4.442986;0.06217352;1.794877;5.158743;-0.2367076;2.030524;6.041924;-0.4862008;0.293285;2.691067;-0.1635408;0.09166836;1.268656;-0.4409495;0;0;0;0.293285;2.691067;-0.1635408;0.09166836;1.268656;-0.4409495;0;0;0
1466241.7623;NotLabelled;NONE;16384;0.8377017;0.4626039;0.265928;0.1163435;-19;-19;12;2124;-2846;2426;65536;0.8226564;0.5581717;0.05540166;0.09279778;17;-6;3;-707;-3778;-1470;8192;0.7768219;0.4612188;-0.4265928;0.04293629;-21;24;-4;-1532;-3244;2112;32768;0.7758224;0.5858725;-0.2285319;0.05124654;11;44;-25;630;-3911;-1250;256;-0.06786703;0.04986149;-0.4709141;-0.8781502;21;0;0;-16;3446;-2342;128;0.07756232;-0.03739612;0.699446;0.7094794;-21;-3;-1;-78;4122;86;4;0.5790468;-0.4376731;0.4709141;0.501385;-1;-7;-41;650;4024;598;16;0.5706371;-0.7961941;-0.1191136;-0.1620499;20;-10;10;71;3947;1434;2;0.5870518;-0.4598338;-0.4307479;-0.5083103;0;-4;49;-744;3964;358;8;0.5900277;-0.7307745;0.200831;0.2783934;27;7;-16;-113;4153;909;0.602363;2.74056;-0.1763796;0.6081408;3.267077;-0.3190987;0.6132138;3.729355;-0.446501;0.6596183;4.346209;-0.05178524;0.423816;4.660237;0.09150125;0.0720569;4.534095;0.06930484;-0.4987594;5.189406;-0.251732;-0.7332063;6.048945;-0.5742603;0.9426939;4.621207;0.09150198;1.219385;4.447789;0.06930614;1.787843;5.166846;-0.227488;2.027845;6.050572;-0.4708284;0.2901037;2.698063;-0.1718639;0.09329592;1.271683;-0.4317935;0;0;0;0.2901037;2.698063;-0.1718639;0.09329592;1.271683;-0.4317935;0;0;0
1466262.0733;NotLabelled;NONE;16384;0.837042;0.4653739;0.2631579;0.1163435;-22;-11;14;2074;-2704;2270;65536;0.8206123;0.5609418;0.05540166;0.09418282;18;-3;7;-905;-3826;-1592;8192;0.7751755;0.466759;-0.4238227;0.0401662;-20;29;-7;-1690;-3198;2046;32768;0.7746358;0.5886427;-0.2271468;0.04293629;13;49;-28;878;-3865;-1056;256;-0.06786703;0.04986149;-0.466759;-0.8803658;18;1;0;44;3230;-2392;128;0.07756232;-0.03601108;0.6966759;0.712271;-20;-5;-2;-84;4152;-60;4;0.5770756;-0.4404432;0.4736842;0.4986149;-1;-1;-38;752;3854;412;16;0.5747922;-0.7934064;-0.1177285;-0.1620499;20;-7;11;-151;3985;1362;2;0.5842955;-0.4639889;-0.434903;-0.5041551;0;-9;48;-566;3906;168;8;0.5941828;-0.7274001;0.200831;0.2783934;29;8;-15;-59;4115;853;0.6066778;2.750385;-0.195825;0.6124809;3.279204;-0.3297626;0.6175764;3.743537;-0.4494544;0.6618904;4.355405;-0.04681751;0.4250787;4.666914;0.1002562;0.07369406;4.540087;0.07610492;-0.4940041;5.20041;-0.2401573;-0.7297826;6.060809;-0.5594035;0.9440633;4.629329;0.1002569;1.221258;4.456982;0.07610616;1.785718;5.180157;-0.218303;2.031556;6.063678;-0.4565073;0.2944178;2.70782;-0.1920742;0.1019032;1.275254;-0.4191288;0;0;0;0.2944178;2.70782;-0.1920742;0.1019032;1.275254;-0.4191288;0;0;0
1466282.6837;NotLabelled;NONE;16384;0.8351536;0.4695291;0.2617728;0.1163435;-23;-14;16;1754;-2668;2312;65536;0.8194719;0.5623268;0.05817174;0.09418282;20;4;12;-1253;-3656;-1648;8192;0.7742419;0.4709141;-0.4210526;0.03878116;-17;26;-7;-1618;-2986;1950;32768;0.7718784;0.5927978;-0.2271468;0.03462604;17;38;-29;1308;-3451;-1574;256;-0.06648199;0.04986149;-0.4639889;-0.8819344;19;2;0;122;3088;-2400;128;0.07617728;-0.03601108;0.6952909;0.7137723;-21;-4;-1;-40;3980;150;4;0.5739874;-0.4445983;0.4764543;0.4958449;3;13;-37;702;3716;272;16;0.5775623;-0.7915969;-0.1163435;-0.1620499;20;-2;12;-199;4089;1324;2;0.5825529;-0.4695291;-0.4376731;-0.4986149;0;-26;46;-536;3906;100;8;0.5983379;-0.7243688;0.199446;0.2783934;28;4;-15;-227;4083;851;0.6074963;2.756779;-0.1974675;0.6133106;3.28662;-0.3273018;0.6184162;3.751868;-0.4433906;0.6628903;4.359898;-0.0349994;0.4261998;4.670183;0.11483;0.07474151;4.543842;0.08925063;-0.4883899;5.208496;-0.2261029;-0.7248936;6.070896;-0.5393592;0.9451578;4.632227;0.1148311;1.222246;4.459914;0.08925271;1.784355;5.187438;-0.1988721;2.037404;6.069997;-0.4330602;0.2952359;2.714186;-0.1940733;0.1035871;1.279243;-0.4063664;0;0;0;0.2952359;2.714186;-0.1940733;0.1035871;1.279243;-0.4063664;0;0;0
1466302.702;NotLabelled;NONE;16384;0.833177;0.4764543;0.2548476;0.1177285;-25;-19;16;1958;-2944;2182;65536;0.8151155;0.567867;0.06094183;0.09695291;26;-9;13;-851;-3650;-1614;8192;0.7722672;0.4792244;-0.4155124;0.03601108;-24;28;-3;-1246;-3078;2148;32768;0.7669717;0.599723;-0.2271468;0.02216066;20;37;-23;1138;-3765;-1344;256;-0.06648199;0.05124654;-0.4612188;-0.8833069;19;0;-1;70;3088;-2434;128;0.07479224;-0.03601108;0.6925207;0.7166061;-19;-2;0;-52;3838;230;4;0.5731763;-0.4487534;0.4778393;0.4916897;6;25;-38;780;3788;216;16;0.5803324;-0.7892829;-0.1163435;-0.1634349;23;0;12;-23;4071;1398;2;0.5797322;-0.4792244;-0.4418283;-0.4889196;3;-12;41;-510;3884;128;8;0.6066482;-0.7172683;0.1980609;0.2797784;28;11;-14;-291;4177;745;0.6047335;2.762472;-0.2063297;0.6105539;3.292864;-0.3338906;0.6156647;3.758605;-0.4479832;0.6587559;4.364023;-0.03558253;0.4213873;4.672853;0.1161696;0.0701895;4.545995;0.0895912;-0.4892804;5.215754;-0.2214489;-0.7291465;6.078597;-0.5309017;0.9404185;4.635914;0.1161706;1.217856;4.464314;0.08959311;1.777079;5.195886;-0.1938647;2.039608;6.077868;-0.4196358;0.2924729;2.719864;-0.2031328;0.105986;1.281743;-0.3977807;0;0;0;0.2924729;2.719864;-0.2031328;0.105986;1.281743;-0.3977807;0;0;0
1466323.8629;NotLabelled;NONE;16384;0.8308299;0.4819945;0.2520775;0.1177285;-28;-12;13;1924;-2930;2160;65536;0.8126311;0.5706371;0.06371191;0.09972299;28;-3;15;-895;-3772;-1512;8192;0.7712257;0.4833795;-0.4127424;0.03462604;-24;24;0;-1500;-3230;1870;32768;0.7649381;0.602493;-0.2271468;0.0166205;21;28;-19;994;-3657;-1238;256;-0.06648199;0.05124654;-0.4584487;-0.8847478;19;0;0;16;3108;-2534;128;0.07479224;-0.03601108;0.6897507;0.7192728;-17;-1;0;-98;3884;236;4;0.5723608;-0.4542936;0.4778393;0.4875346;4;26;-38;662;3884;250;16;0.5831025;-0.7874421;-0.1149584;-0.1634349;25;0;13;31;3967;1500;2;0.5764852;-0.4833795;-0.4445983;-0.4861496;1;-2;41;-466;3950;164;8;0.6108033;-0.7146573;0.1966759;0.2783934;29;9;-14;-159;4169;759;0.6052011;2.767332;-0.2116903;0.6110325;3.298743;-0.3349395;0.6161535;3.765395;-0.4452457;0.6585681;4.368293;-0.02909839;0.4208801;4.675984;0.1244521;0.06979814;4.549006;0.09693766;-0.4808447;5.228582;-0.2085059;-0.7271793;6.094529;-0.5038928;0.9399413;4.639471;0.1244527;1.217531;4.468267;0.0969387;1.769114;5.207831;-0.1806863;2.044983;6.089002;-0.3933442;0.2929405;2.7247;-0.2088673;0.1076482;1.284465;-0.3884443;0;0;0;0.2929405;2.7247;-0.2088673;0.1076482;1.284465;-0.3884443;0;0;0
1466343.6713;NotLabelled;NONE;16384;0.8288256;0.4861496;0.2506925;0.1177285;-30;-9;8;1630;-2958;1980;65536;0.8105689;0.5734072;0.06509695;0.09972299;29;1;15;-867;-3640;-1460;8192;0.7686057;0.4875346;-0.4127424;0.03462604;-18;13;5;-1264;-3308;1740;32768;0.7628034;0.6052631;-0.2271468;0.01385042;22;24;-12;1124;-3657;-1164;256;-0.06509695;0.05263158;-0.4556787;-0.8861994;18;1;0;64;3310;-2498;128;0.07479224;-0.03739612;0.6883656;0.7205278;-13;0;-1;-52;3962;200;4;0.5692673;-0.4639889;0.4819945;0.4778393;-1;24;-43;182;3768;160;16;0.5886427;-0.7832211;-0.1135734;-0.1648199;30;0;13;-117;4041;1500;2;0.5743282;-0.4875346;-0.4473684;-0.4819945;1;-18;41;-358;3910;224;8;0.6135734;-0.7126614;0.1952908;0.2783934;28;12;-13;-461;4179;619;0.6012853;2.772138;-0.2166982;0.6071271;3.304479;-0.3358639;0.6122571;3.771964;-0.4425843;0.6547746;4.372241;-0.02267496;0.4171651;4.679084;0.132683;0.06603507;4.552447;0.1042251;-0.4793168;5.239091;-0.19484;-0.7319756;6.105787;-0.4825901;0.9362091;4.642324;0.1326838;1.21373;4.471161;0.1042266;1.761973;5.214671;-0.1694477;2.04412;6.095159;-0.3766199;0.2890244;2.729486;-0.2142288;0.1095433;1.286852;-0.3799208;0;0;0;0.2890244;2.729486;-0.2142288;0.1095433;1.286852;-0.3799208;0;0;0
1466364.6692;NotLabelled;NONE;16384;0.8269893;0.4903047;0.2493075;0.1163435;-30;-7;4;1588;-3014;1924;65536;0.8073854;0.5775623;0.06786703;0.09972299;30;3;13;-609;-3558;-1380;8192;0.766699;0.4916897;-0.4113573;0.03462604;-20;10;9;-1290;-3106;1944;32768;0.7599462;0.6094183;-0.2257618;0.01108033;23;21;-5;1068;-3625;-968;256;-0.06509695;0.05401662;-0.4515235;-0.8882405;9;4;-2;22;3102;-2402;128;0.07479224;-0.03739612;0.6855956;0.7231641;-13;4;0;-94;4002;240;4;0.5670253;-0.4709141;0.4833795;0.4722992;0;42;-46;0;3774;184;16;0.5927978;-0.779787;-0.1135734;-0.166205;33;0;15;-1;3965;1314;2;0.5731395;-0.4930748;-0.4487534;-0.4764543;1;-13;41;-366;3906;256;8;0.6191136;-0.7082344;0.1939058;0.2783934;25;17;-11;-509;4071;459;0.6016538;2.781309;-0.2360602;0.6075006;3.314101;-0.3531903;0.612635;3.781991;-0.4581231;0.6529263;4.379669;-0.03430609;0.4142189;4.684727;0.1228757;0.06352095;4.557138;0.09336095;-0.4790714;5.247555;-0.2020129;-0.7333463;6.116015;-0.4829403;0.9333795;4.649653;0.122989;1.211474;4.47958;0.09361112;1.758296;5.225809;-0.1754668;2.043404;6.106671;-0.3769117;0.2893927;2.738647;-0.233767;0.1136463;1.291722;-0.3617524;0;0;0;0.2893927;2.738647;-0.233767;0.1136463;1.291722;-0.3617524;0;0;0
1466385.6686;NotLabelled;NONE;16384;0.8245116;0.4944598;0.2493075;0.1163435;-29;-15;0;1526;-2918;1722;65536;0.8052787;0.5803324;0.06925207;0.09972299;29;-1;9;-517;-3586;-1176;8192;0.7642305;0.4944598;-0.4127424;0.033241;-21;2;10;-1630;-3100;1920;32768;0.7577354;0.6121883;-0.2257618;0.009695291;22;3;-4;1048;-3673;-998;256;-0.06509695;0.05401662;-0.4501385;-0.8889432;7;4;-2;-10;2920;-2516;128;0.07617728;-0.03878116;0.6842105;0.7242576;-14;7;0;-38;3902;258;4;0.5669238;-0.4792244;0.4833795;0.4639889;8;47;-47;-30;3800;362;16;0.5969529;-0.776313;-0.1135734;-0.16759;32;-1;14;231;4005;1094;2;0.5708657;-0.4958449;-0.4515235;-0.4736842;3;-10;37;-530;3856;218;8;0.6218836;-0.7067269;0.1925208;0.2770083;19;12;-8;-501;4061;129;0.5970278;2.787576;-0.2442682;0.6028842;3.321247;-0.3573275;0.6080274;3.789924;-0.4586853;0.6478181;4.383683;-0.02934851;0.4088793;4.687146;0.1305474;0.05826396;4.559641;0.09971231;-0.4806649;5.256844;-0.1862824;-0.7386677;6.127678;-0.4562445;0.9280589;4.652356;0.1305483;1.206259;4.482714;0.09971389;1.749633;5.234247;-0.1614723;2.035428;6.116596;-0.3552996;0.2847667;2.744898;-0.2423268;0.1151398;1.295427;-0.3477627;0;0;0;0.2847667;2.744898;-0.2423268;0.1151398;1.295427;-0.3477627;0;0;0
1466406.7766;NotLabelled;NONE;16384;0.8222272;0.4986149;0.2479224;0.1177285;-27;-15;-3;1728;-2872;1668;65536;0.8019738;0.5844875;0.07063711;0.101108;31;-1;6;-949;-3446;-1158;8192;0.7598023;0.5;-0.4141274;0.03462604;-22;3;8;-1714;-3190;1826;32768;0.7527902;0.6177285;-0.2271468;0.01108033;15;-1;-2;1068;-3817;-664;256;-0.06371191;0.05540166;-0.4487534;-0.8896583;13;4;-5;-58;2982;-2496;128;0.07617728;-0.0401662;0.6828254;0.7254882;-13;8;0;-42;3782;346;4;0.566653;-0.4861496;0.4833795;0.4570637;8;49;-46;106;4018;466;16;0.601108;-0.7730009;-0.1121884;-0.1689751;27;-2;11;457;4023;722;2;0.5682757;-0.5027701;-0.4529086;-0.468144;5;-14;14;-954;4140;206;8;0.6274238;-0.7021915;0.1911357;0.2770083;3;-3;0;-763;4087;-275;0.5958215;2.793038;-0.2525445;0.6016821;3.327089;-0.363795;0.6068291;3.796107;-0.4635644;0.6466736;4.388525;-0.03238338;0.4077746;4.691548;0.1284015;0.05713471;4.564225;0.09709892;-0.4802231;5.26553;-0.1817337;-0.7395378;6.138025;-0.4449953;0.9269459;4.656633;0.1284024;1.205111;4.48702;0.09710106;1.750985;5.239297;-0.1566235;2.03839;6.122478;-0.3441797;0.2835602;2.750355;-0.2507594;0.1175009;1.298991;-0.3333823;0;0;0;0.2835602;2.750355;-0.2507594;0.1175009;1.298991;-0.3333823;0;0;0
1466426.9938;NotLabelled;NONE;16384;0.816726;0.5069252;0.2479224;0.1204986;-25;-16;-7;1892;-3112;1704;65536;0.7957953;0.5927978;0.06925207;0.1024931;26;-14;-3;-1089;-3778;-748;8192;0.7572138;0.5027701;-0.4155124;0.03462604;-17;-1;4;-1672;-3356;1714;32768;0.7516515;0.6191136;-0.2271468;0.01108033;15;-3;-6;1052;-3755;-760;256;-0.06371191;0.0567867;-0.4459834;-0.8909629;16;3;-5;26;3178;-2448;128;0.07617728;-0.04155125;0.6800554;0.7280077;-9;9;1;24;3870;366;4;0.5662128;-0.4930748;0.4833795;0.4501385;0;38;-37;204;4204;374;16;0.6052631;-0.7699524;-0.1108033;-0.1689751;17;0;8;485;3903;52;2;0.5693768;-0.5027701;-0.4515235;-0.468144;-1;4;-1;-1014;4222;406;8;0.6288089;-0.7009515;0.1911357;0.2770083;-2;-5;3;-557;4097;-35;0.5972268;2.79747;-0.2578479;0.6030921;3.331939;-0.3670718;0.608243;3.801332;-0.4650612;0.645851;4.392433;-0.03187761;0.4058344;4.694084;0.1298214;0.05565196;4.565651;0.09794244;-0.4802437;5.269822;-0.1764434;-0.7422498;6.144551;-0.4294274;0.9251237;4.660972;0.1299265;1.203889;4.492433;0.09817457;1.748185;5.248913;-0.1462747;2.035778;6.134881;-0.3198696;0.2849655;2.75478;-0.2562377;0.1218164;1.302108;-0.3193766;0;0;0;0.2849655;2.75478;-0.2562377;0.1218164;1.302108;-0.3193766;0;0;0
1466446.725;NotLabelled;NONE;16384;0.8143715;0.5096953;0.2493075;0.1218837;-20;-10;-9;1918;-3326;1812;65536;0.7936639;0.5955678;0.06786703;0.1038781;23;-10;-7;-1153;-3918;-592;8192;0.7553024;0.5055401;-0.4155124;0.03601108;-16;2;5;-1448;-3554;1844;32768;0.7500662;0.6204986;-0.2285319;0.01246537;14;-5;-5;1236;-4031;-782;256;-0.06371191;0.05817174;-0.4432133;-0.8922549;17;4;-5;-24;3372;-2508;128;0.07756232;-0.04293629;0.6800554;0.7277811;-7;15;1;-14;4050;220;4;0.5670811;-0.4958449;0.4833795;0.4459834;-12;13;-16;284;4384;362;16;0.6080332;-0.7674605;-0.1108033;-0.1703601;7;5;4;325;4195;-364;2;0.5695755;-0.5;-0.4529086;-0.4695291;-5;20;-10;-548;4166;186;8;0.6274238;-0.701813;0.1925208;0.2770083;-6;-4;4;-287;4155;363;0.5953097;2.801583;-0.2644303;0.6011837;3.336864;-0.3696043;0.6063427;3.806985;-0.4640368;0.6434183;4.395452;-0.02723722;0.4031412;4.695925;0.136259;0.05306298;4.567421;0.1035285;-0.4827639;5.278861;-0.1515636;-0.7427504;6.159363;-0.3859159;0.9224556;4.66321;0.13626;1.201356;4.49508;0.1035302;1.746168;5.254137;-0.1316035;2.03333;6.140746;-0.3026254;0.2830482;2.758882;-0.2631693;0.122779;1.305158;-0.3062914;0;0;0;0.2830482;2.758882;-0.2631693;0.122779;1.305158;-0.3062914;0;0;0
1466467.6651;NotLabelled;NONE;16384;0.8124222;0.5124654;0.2493075;0.1232687;-14;-12;-9;1986;-3420;1862;65536;0.7907617;0.599723;0.06509695;0.1038781;19;-14;-11;-759;-4052;-492;8192;0.753441;0.5083103;-0.4155124;0.03601108;-15;0;6;-1562;-3706;1912;32768;0.7473413;0.6232687;-0.2299169;0.01246537;12;-1;-3;1002;-4307;-756;256;-0.06232687;0.05955679;-0.4418283;-0.892948;14;1;-5;-84;3572;-2586;128;0.07894737;-0.04570637;0.6800554;0.7274634;0;18;2;10;4282;-60;4;0.5683128;-0.4930748;0.4847645;0.4459834;-3;-7;15;388;3908;-46;16;0.6108033;-0.7650559;-0.1121884;-0.1703601;-4;-4;-2;47;4261;412;2;0.5697103;-0.4972299;-0.4529086;-0.4722992;-4;12;-6;-304;3984;-84;8;0.6274238;-0.7014316;0.1939058;0.2770083;-6;-3;3;-205;4283;663;0.5995267;2.803631;-0.2635539;0.6054002;3.338867;-0.3689565;0.6105587;3.808948;-0.4635898;0.6470261;4.394763;-0.02318887;0.406461;4.694051;0.1420477;0.05649191;4.565488;0.1083976;-0.4816669;5.27795;-0.1388104;-0.7409872;6.160314;-0.3668071;0.9257999;4.661726;0.1420488;1.204839;4.494009;0.1083999;1.747063;5.256375;-0.121957;2.034181;6.143723;-0.2891848;0.2872652;2.760931;-0.2622731;0.1246235;1.307235;-0.296536;0;0;0;0.2872652;2.760931;-0.2622731;0.1246235;1.307235;-0.296536;0;0;0
1466487.8015;NotLabelled;NONE;16384;0.8115457;0.5138504;0.2479224;0.1260388;-5;-24;-5;1780;-3174;1956;65536;0.7877064;0.6038781;0.06371191;0.1038781;16;-7;-10;-1207;-4074;-386;8192;0.7524371;0.5096953;-0.4155124;0.03739612;-15;0;5;-1766;-3676;1830;32768;0.7473169;0.6232687;-0.2299169;0.01385042;10;-11;-1;1390;-4135;-978;256;-0.06094183;0.06094183;-0.4404432;-0.8936341;0;-4;-1;-190;3518;-2506;128;0.08033241;-0.04986149;0.6800554;0.7270386;0;1;2;150;4310;0;4;0.5674159;-0.4916897;0.4833795;0.4501385;14;-25;12;526;4022;8;16;0.6108033;-0.7655647;-0.1108033;-0.1689751;-3;-13;-2;225;4325;938;2;0.5697103;-0.4972299;-0.4529086;-0.4722992;-1;2;0;-162;3950;-110;8;0.6260388;-0.7026681;0.1939058;0.2770083;-4;1;2;-227;4261;893;0.6047687;2.805023;-0.2514498;0.6106417;3.340213;-0.3570883;0.6157997;3.810252;-0.4519289;0.6501566;4.394711;-0.009561166;0.4085264;4.692612;0.1566264;0.05901015;4.562954;0.1224731;-0.4796132;5.277109;-0.1187675;-0.7341256;6.162971;-0.3384696;0.9279739;4.66208;0.1566276;1.207597;4.495441;0.1224753;1.748775;5.260034;-0.1029093;2.037661;6.148133;-0.2629483;0.2925071;2.762323;-0.2501487;0.1216046;1.309639;-0.2870263;0;0;0;0.2925071;2.762323;-0.2501487;0.1216046;1.309639;-0.2870263;0;0;0
1466509.6786;NotLabelled;NONE;16384;0.8100102;0.5152354;0.2479224;0.1301939;-3;-16;-6;2186;-2928;1714;65536;0.7855017;0.6066482;0.06232687;0.1052632;7;-4;-10;-1277;-4032;-82;8192;0.7486544;0.5152354;-0.4155124;0.03739612;-11;9;-5;-1754;-3580;1320;32768;0.744341;0.6246537;-0.2354571;0.01800554;7;-18;-8;1050;-3963;-720;256;-0.05955679;0.05955679;-0.4404432;-0.8938209;-4;-8;0;-268;3396;-2422;128;0.07894737;-0.04986149;0.6800554;0.7271903;-4;-1;3;154;4212;-6;4;0.5664803;-0.4903047;0.4819945;0.4542936;11;-23;3;346;3996;-6;16;0.6108033;-0.7665664;-0.1080332;-0.166205;-3;-18;-2;181;3969;1212;2;0.5684309;-0.5;-0.4529086;-0.4709141;3;-3;8;0;4002;222;8;0.6246537;-0.7038996;0.1939058;0.2770083;1;2;0;-267;4157;905;0.5975799;2.805287;-0.2439348;0.6034523;3.340428;-0.3498165;0.6086099;3.810424;-0.4448707;0.6408766;4.393515;-0.0005434752;0.3981926;4.690022;0.1665974;0.04913146;4.559274;0.1319489;-0.4902876;5.273833;-0.1062963;-0.7419637;6.162699;-0.3169483;0.9177423;4.661283;0.1665879;1.197945;4.495725;0.1319277;1.736823;5.262566;-0.09132043;2.023896;6.151239;-0.2514294;0.2853184;2.762588;-0.2426127;0.1207234;1.309427;-0.2883611;0;0;0;0.2853184;2.762588;-0.2426127;0.1207234;1.309427;-0.2883611;0;0;0
1466529.7805;NotLabelled;NONE;16384;0.809361;0.5152354;0.2493075;0.1315789;7;2;-19;1434;-3270;1240;65536;0.7842418;0.6094183;0.05540166;0.1024931;-2;-2;-41;-1335;-3586;-148;8192;0.748275;0.5180055;-0.4127424;0.03739612;-9;17;-8;-1474;-3470;1220;32768;0.7427362;0.6260388;-0.2368421;0.01800554;6;-10;-13;794;-3855;-486;256;-0.05817174;0.05955679;-0.4418283;-0.8932283;-3;-12;3;-326;3046;-2346;128;0.07756232;-0.05124654;0.6800554;0.7272431;-5;-5;3;106;3990;234;4;0.5630616;-0.4903047;0.4833795;0.4570637;4;-20;0;-6;3680;202;16;0.6108033;-0.7670592;-0.1066482;-0.1648199;-2;-11;-1;103;4005;1262;2;0.5683567;-0.501385;-0.4529086;-0.4695291;2;-5;8;-180;4084;264;8;0.6246537;-0.7042797;0.1925208;0.2770083;2;3;0;-355;4145;907;0.5909935;2.805263;-0.2361689;0.5968665;3.34045;-0.3418169;0.6020245;3.810488;-0.4366657;0.6335531;4.393455;0.007877395;0.3904963;4.6896;0.1751175;0.04159836;4.558434;0.1404065;-0.4997554;5.271595;-0.09764156;-0.7494915;6.162169;-0.3033213;0.9100812;4.661502;0.1751189;1.190489;4.496304;0.140409;1.728832;5.267357;-0.06920609;2.019348;6.156467;-0.220425;0.2787319;2.762563;-0.234867;0.1207116;1.309009;-0.2902606;0;0;0;0.2787319;2.762563;-0.234867;0.1207116;1.309009;-0.2902606;0;0;0
1466550.6629;NotLabelled;NONE;16384;0.8089283;0.5138504;0.2520775;0.134349;10;-2;-26;1818;-2924;1400;65536;0.78398;0.6108033;0.04847645;0.09972299;-11;-7;-67;-2233;-3492;74;8192;0.747875;0.5207756;-0.4099723;0.03739612;-6;19;-7;-1296;-3426;1314;32768;0.7406412;0.6274238;-0.2396122;0.01939058;5;-15;-14;1020;-3761;-284;256;-0.05540166;0.05817174;-0.4418283;-0.8934957;0;-14;5;-206;2908;-2620;128;0.07617728;-0.05124654;0.6800554;0.7273895;-7;-2;4;90;3820;286;4;0.5619481;-0.4889196;0.4847645;0.4584487;0;-11;-3;-20;3726;690;16;0.6094183;-0.76816;-0.1066482;-0.1648199;-3;0;-1;127;3973;1258;2;0.5682757;-0.5027701;-0.4529086;-0.468144;0;-14;9;-248;3984;370;8;0.6246537;-0.7042797;0.1925208;0.2770083;2;2;0;-271;4209;721;0.583664;2.805911;-0.2398199;0.5895376;3.341143;-0.3452412;0.594696;3.811221;-0.439891;0.6247059;4.395499;0.003032252;0.3808703;4.691445;0.1694886;0.03232471;4.559237;0.1351933;-0.5116147;5.270804;-0.1017271;-0.7474231;6.16572;-0.304989;0.9005292;4.664757;0.1694895;1.18138;4.500226;0.135195;1.715695;5.274718;-0.07202959;2.008273;6.163928;-0.2186315;0.2714025;2.763211;-0.2385375;0.120498;1.308802;-0.2912813;0;0;0;0.2714025;2.763211;-0.2385375;0.120498;1.308802;-0.2912813;0;0;0
1466571.6646;NotLabelled;NONE;16384;0.8080361;0.5124654;0.2562327;0.1371191;10;5;-28;2376;-3002;1642;65536;0.7852269;0.6108033;0.04155125;0.09279778;-8;6;-70;-665;-3598;-624;8192;0.7475222;0.5235457;-0.4072022;0.03601108;-7;16;-2;-1750;-3358;1422;32768;0.7385623;0.6288089;-0.2423823;0.01939058;1;-12;-12;764;-3649;-32;256;-0.05263158;0.0567867;-0.4404432;-0.8944356;2;-16;5;-116;2916;-2712;128;0.07479224;-0.05124654;0.6800554;0.7275332;-1;-2;3;92;3790;262;4;0.5630071;-0.4875346;0.4875346;0.4556787;-7;5;-4;110;4076;642;16;0.6080332;-0.7692568;-0.1066482;-0.1648199;-2;7;0;83;4101;1070;2;0.5680934;-0.5055401;-0.4529086;-0.4653739;-1;-10;8;-222;3944;306;8;0.6246537;-0.7038996;0.1939058;0.2770083;2;-3;0;-289;4121;505;0.5856066;2.8048;-0.2431156;0.5914806;3.340076;-0.3483112;0.5966395;3.810194;-0.4427628;0.6244668;4.39429;0.0005419999;0.3795301;4.689224;0.167179;0.03147758;4.55575;0.1327803;-0.5162509;5.262756;-0.1090148;-0.7376599;6.161029;-0.3136653;0.8992844;4.66446;0.1671881;1.180743;4.500989;0.1328003;1.712819;5.278812;-0.0676012;2.008253;6.168203;-0.2072061;0.2733451;2.762099;-0.2418527;0.1221326;1.307748;-0.2953073;0;0;0;0.2733451;2.762099;-0.2418527;0.1221326;1.307748;-0.2953073;0;0;0
1466593.6801;NotLabelled;NONE;16384;0.8082237;0.5096953;0.2603878;0.1385041;7;17;-27;2272;-3058;1546;65536;0.7865598;0.6108033;0.033241;0.08448754;-10;21;-71;-993;-3852;-336;8192;0.7463948;0.5263157;-0.4058172;0.03462604;-2;7;-3;-2136;-3390;1130;32768;0.7381063;0.6288089;-0.2437673;0.01939058;0;-4;-15;698;-3917;522;256;-0.04847645;0.05401662;-0.4376731;-0.8962001;7;-10;0;172;2932;-2810;128;0.0734072;-0.05263158;0.6800554;0.7275754;8;-2;4;-50;3930;602;4;0.5641252;-0.4875346;0.4875346;0.4542936;-6;-4;-2;38;4248;430;16;0.6080332;-0.7690636;-0.1080332;-0.1648199;0;1;0;65;4287;1024;2;0.5681204;-0.5055401;-0.4542936;-0.4639889;-1;-5;5;-134;4038;114;8;0.6246537;-0.7038996;0.1939058;0.2770083;0;-2;0;-397;4205;455;0.5981869;2.802729;-0.2519768;0.6040612;3.338049;-0.3569506;0.6092206;3.808206;-0.4512074;0.6349531;4.39075;-0.00573869;0.3889686;4.684212;0.1619498;0.04138701;4.549658;0.1270013;-0.5141476;5.251491;-0.1120433;-0.7166936;6.15306;-0.3216693;0.9088058;4.661253;0.1619507;1.190836;4.498889;0.1270032;1.720049;5.279167;-0.07142812;2.019895;6.168128;-0.2042076;0.2859254;2.760027;-0.250733;0.1238197;1.306679;-0.2993091;0;0;0;0.2859254;2.760027;-0.250733;0.1238197;1.306679;-0.2993091;0;0;0
1466613.6862;NotLabelled;NONE;16384;0.8075078;0.5083103;0.2645429;0.1398892;8;11;-29;2214;-3246;1602;65536;0.7877551;0.6108033;0.02770083;0.07479224;-10;35;-75;-1035;-4002;-452;8192;0.7461686;0.5277008;-0.4044321;0.03462604;4;4;-1;-1432;-3544;1258;32768;0.7364645;0.6301939;-0.2451524;0.01939058;-3;0;-16;1226;-3695;172;256;-0.04709141;0.05263158;-0.4362881;-0.8970312;7;-6;-2;202;3060;-2742;128;0.0734072;-0.05263158;0.6800554;0.7275754;7;-1;4;-170;3984;756;4;0.5629253;-0.4875346;0.4889196;0.4542936;-4;-16;-4;64;4066;160;16;0.6080332;-0.7692568;-0.1066482;-0.1648199;0;-5;0;181;4067;960;2;0.5680157;-0.5069252;-0.4542936;-0.4626039;0;-4;3;-28;4142;56;8;0.6260388;-0.7026681;0.1939058;0.2770083;0;0;0;-339;4203;515;0.6015936;2.802646;-0.2495975;0.6074684;3.338008;-0.3543558;0.6126282;3.808203;-0.4484234;0.6355982;4.387701;0.001150474;0.3882406;4.678858;0.1708274;0.04128151;4.542982;0.1348225;-0.5191469;5.239116;-0.1094046;-0.698313;6.144214;-0.3250279;0.9081764;4.658252;0.1708287;1.190948;4.497416;0.134825;1.720717;5.279379;-0.0553174;2.023611;6.167846;-0.1844241;0.289332;2.759944;-0.2483723;0.1241246;1.306977;-0.297878;0;0;0;0.289332;2.759944;-0.2483723;0.1241246;1.306977;-0.297878;0;0;0
1466633.6981;NotLabelled;NONE;16384;0.8068352;0.5041551;0.2714681;0.1454294;18;-4;-28;2252;-3124;1668;65536;0.7888052;0.6121883;0.009695291;0.05401662;-4;0;-99;-481;-3860;-534;8192;0.7480751;0.5263157;-0.4030471;0.03047091;17;14;5;-1242;-3450;1620;32768;0.7347186;0.632964;-0.2437673;0.01108033;-10;56;-6;536;-3985;-210;256;-0.04570637;0.05263158;-0.434903;-0.8977751;9;-6;-2;62;3246;-2682;128;0.0734072;-0.05401662;0.6800554;0.7274739;3;5;5;-276;4082;636;4;0.5617979;-0.4861496;0.4903047;0.4556787;-3;-8;-3;14;3900;2;16;0.6080332;-0.7695523;-0.1066482;-0.1634349;0;-6;0;-83;4073;1016;2;0.5667766;-0.5083103;-0.4542936;-0.4626039;-1;4;3;-190;4048;124;8;0.6260388;-0.7032125;0.1939058;0.2756233;0;1;1;-255;4161;637;0.6048902;2.802477;-0.2528191;0.6107651;3.33784;-0.3575773;0.6159249;3.808034;-0.4516449;0.6382298;4.386038;-0.0001174212;0.3905456;4.676361;0.170507;0.04373366;4.540245;0.133998;-0.521401;5.231883;-0.1121503;-0.6805994;6.13976;-0.3317167;0.9105026;4.656299;0.1705081;1.193447;4.495883;0.1340001;1.722486;5.279527;-0.05119088;2.027601;6.168021;-0.1747583;0.2926287;2.759775;-0.2515938;0.1275819;1.306679;-0.2977256;0;0;0;0.2926287;2.759775;-0.2515938;0.1275819;1.306679;-0.2977256;0;0;0
1466654.7056;NotLabelled;NONE;16384;0.8068649;0.501385;0.2742382;0.1495845;21;-7;-24;2070;-3054;1930;65536;0.7883089;0.6135734;-0.002770083;0.04570637;-7;-15;-103;49;-4078;-338;8192;0.7491552;0.5249307;-0.4030471;0.02770083;23;5;12;-964;-3276;1654;32768;0.7363043;0.634349;-0.2354571;0.004155125;-12;78;5;1078;-3715;-398;256;-0.04432133;0.05263158;-0.433518;-0.8985142;8;-3;-2;8;3270;-2380;128;0.0734072;-0.05540166;0.6800554;0.7273697;1;6;5;-162;4120;570;4;0.560586;-0.4861496;0.4916897;0.4556787;-5;-8;-3;78;3920;234;16;0.6080332;-0.7695523;-0.1066482;-0.1634349;0;-1;0;129;4033;1152;2;0.5667766;-0.5083103;-0.4542936;-0.4626039;-1;11;3;-138;3960;126;8;0.6260388;-0.7032125;0.1939058;0.2756233;0;1;1;-361;4111;567;0.6028606;2.802507;-0.2533837;0.6087354;3.337868;-0.3581443;0.6138953;3.808062;-0.4522138;0.6348319;4.384611;0.001236126;0.3864678;4.673801;0.1727933;0.03997068;4.537018;0.1357875;-0.5398904;5.217225;-0.1079563;-0.6482434;6.131323;-0.33263;0.9064692;4.654921;0.1727942;1.189782;4.49527;0.1357892;1.721418;5.275519;-0.05617169;2.034471;6.161896;-0.1750074;0.2905991;2.759804;-0.2521581;0.1250846;1.306765;-0.298407;0;0;0;0.2905991;2.759804;-0.2521581;0.1250846;1.306765;-0.298407;0;0;0
1466674.6682;NotLabelled;NONE;16384;0.8073284;0.4986149;0.2756233;0.1537396;23;-11;-20;2058;-2874;2094;65536;0.7885765;0.6135734;-0.0166205;0.03739612;-14;-1;-95;181;-4052;-308;8192;0.7503935;0.5221606;-0.4044321;0.02631579;24;-7;17;-1402;-3054;1938;32768;0.7377255;0.6357341;-0.2271468;-0.002770083;-8;62;15;1318;-3443;-1146;256;-0.04432133;0.05263158;-0.433518;-0.8985142;7;-3;-2;96;3248;-2268;128;0.0734072;-0.05540166;0.6786703;0.7286622;-3;3;2;-92;4054;306;4;0.5605074;-0.4875346;0.4916897;0.4542936;0;17;-3;412;3918;366;16;0.6080332;-0.7695523;-0.1066482;-0.1634349;0;3;0;263;4105;1044;2;0.5669052;-0.5069252;-0.4556787;-0.4626039;-2;7;4;-296;3950;196;8;0.6260388;-0.7032125;0.1939058;0.2756233;0;-1;1;-365;4189;601;0.6031799;2.80263;-0.2570295;0.6090547;3.337991;-0.3617922;0.6142145;3.808185;-0.4558636;0.6337869;4.383271;-0.0005006641;0.3847454;4.671325;0.1719853;0.03856472;4.533877;0.134484;-0.5485012;5.207108;-0.1113685;-0.6282601;6.123935;-0.3369008;0.9047885;4.653628;0.1719863;1.188469;4.494747;0.1344858;1.723644;5.271926;-0.06007901;2.033742;6.158872;-0.1823596;0.2909184;2.759928;-0.2558039;0.1254641;1.306765;-0.2982477;0;0;0;0.2909184;2.759928;-0.2558039;0.1254641;1.306765;-0.2982477;0;0;0
1466717.7906;NotLabelled;NONE;16384;0.8097496;0.4916897;0.2770083;0.1606648;16;-5;-21;2066;-2558;2388;65536;0.7908502;0.6108033;-0.03462604;0.0166205;-16;16;-77;519;-3774;-1412;8192;0.752455;0.5138504;-0.4113573;0.0235457;9;-11;9;-1748;-2726;2484;32768;0.7421743;0.634349;-0.2160665;-0.009695291;-15;28;2;510;-3575;-1838;256;-0.04155125;0.05401662;-0.4307479;-0.8998955;13;3;-2;-130;3288;-2400;128;0.07202215;-0.05540166;0.6786703;0.7288004;-3;-5;0;86;4024;-348;4;0.5650545;-0.4903047;0.4875346;0.4501385;3;26;-1;468;3936;368;16;0.6066482;-0.7701566;-0.1080332;-0.1648199;-2;8;0;133;4139;870;2;0.5680326;-0.5069252;-0.4556787;-0.4612188;-1;-4;2;-486;4022;166;8;0.6246537;-0.7035166;0.1952908;0.2770083;-2;-6;2;-313;4173;503;0.6026707;2.802801;-0.260769;0.6085498;3.338554;-0.36351;0.6137136;3.8091;-0.4558057;0.6332861;4.384185;-0.0004429668;0.3842449;4.672239;0.1720428;0.03806412;4.534792;0.1345417;-0.5548227;5.201801;-0.1142837;-0.6044222;6.119876;-0.3433526;0.9042878;4.654543;0.1720437;1.187968;4.495662;0.1345434;1.72714;5.269059;-0.06401467;2.034083;6.156602;-0.1898602;0.2904092;2.760094;-0.2597174;0.1254641;1.306764;-0.2982478;0;0;0;0.2904092;2.760094;-0.2597174;0.1254641;1.306764;-0.2982478;0;0;0
1466738.6928;NotLabelled;NONE;16384;0.8101984;0.4889196;0.2797784;0.1620499;5;0;-25;2050;-2682;2328;65536;0.7934136;0.6066482;-0.04847645;0.01108033;-29;-51;-76;1561;-3700;-1662;8192;0.7538024;0.5096953;-0.4141274;0.02216066;11;-7;14;-1558;-3470;1886;32768;0.746013;0.6301939;-0.2146814;-0.01523546;-6;12;-12;674;-3645;-2024;256;-0.04155125;0.05540166;-0.4293629;-0.9004731;10;1;-3;-52;3302;-2646;128;0.07063711;-0.05540166;0.6800554;0.727644;0;-4;0;70;4030;-48;4;0.5650274;-0.4930748;0.4847645;0.4501385;6;19;0;376;3944;236;16;0.6066482;-0.7698588;-0.1080332;-0.166205;-3;7;0;167;4129;826;2;0.5679042;-0.5083103;-0.4542936;-0.4612188;1;-9;-2;-216;4016;102;8;0.6232687;-0.7043587;0.1966759;0.2770083;-4;-3;2;-367;4227;685;0.6059608;2.801547;-0.2605059;0.6118404;3.337341;-0.3630328;0.6170044;3.807923;-0.4551405;0.6331748;4.380101;0.004004717;0.3824441;4.665571;0.1783284;0.03706882;4.52638;0.1398452;-0.564891;5.181278;-0.119155;-0.564265;6.097762;-0.3596884;0.9025806;4.650874;0.1783291;1.187179;4.493882;0.1398465;1.740255;5.255388;-0.06628531;2.040213;6.143568;-0.203943;0.2936992;2.75884;-0.2594729;0.1262916;1.305894;-0.3016913;0;0;0;0.2936992;2.75884;-0.2594729;0.1262916;1.305894;-0.3016913;0;0;0
1466758.6739;NotLabelled;NONE;16384;0.8081703;0.4875346;0.2839335;0.1689751;0;-13;-11;3024;-2388;2502;65536;0.7966866;0.5983379;-0.08310249;0.01939058;-15;-72;-40;375;-4484;-1740;8192;0.7533761;0.5069252;-0.4182825;0.02216066;7;-16;16;-1488;-3124;2462;32768;0.7471513;0.6288089;-0.2146814;-0.0166205;2;0;-14;1080;-3853;-2044;256;-0.04155125;0.05540166;-0.4279778;-0.9011322;4;0;-3;-62;3356;-2736;128;0.06925207;-0.05540166;0.6800554;0.7277771;0;-4;1;102;4184;232;4;0.5650036;-0.4944598;0.4833795;0.4501385;6;7;0;192;4062;296;16;0.6066482;-0.7696632;-0.1094183;-0.166205;-4;6;-1;223;4173;814;2;0.5688914;-0.5096953;-0.4529086;-0.4598338;0;-7;-3;-70;4120;172;8;0.6232687;-0.7043587;0.1966759;0.2770083;-4;2;3;-349;4151;711;0.5999989;2.802352;-0.2595002;0.6058747;3.337796;-0.3638387;0.6110353;3.808064;-0.4575376;0.6265997;4.378861;0.003344178;0.3755711;4.663551;0.1785117;0.03033735;4.524135;0.1395764;-0.5773096;5.173738;-0.1194808;-0.551039;6.086867;-0.3710773;0.8957219;4.649371;0.1785131;1.18048;4.492778;0.1395789;1.739113;5.24857;-0.07251149;2.043326;6.13326;-0.2227264;0.2877373;2.759649;-0.2583111;0.1284298;1.305811;-0.301149;0;0;0;0.2877373;2.759649;-0.2583111;0.1284298;1.305811;-0.301149;0;0;0
1466779.6761;NotLabelled;NONE;16384;0.807042;0.4889196;0.2839335;0.1703601;-2;2;-4;3174;-2486;2462;65536;0.7972463;0.5969529;-0.08725762;0.02077562;-7;-1;5;751;-4528;-1830;8192;0.7527635;0.5055401;-0.4210526;0.02216066;0;-8;15;-1482;-2984;2428;32768;0.7475145;0.6274238;-0.2174515;-0.0166205;2;-11;-19;998;-3855;-1936;256;-0.0401662;0.0567867;-0.4279778;-0.9011087;1;0;-2;-240;3230;-2762;128;0.06925207;-0.05540166;0.6800554;0.7277771;0;-5;0;46;4220;364;4;0.5661857;-0.4944598;0.4819945;0.4501385;6;-1;0;138;4072;444;16;0.6066482;-0.7696632;-0.1094183;-0.166205;-6;6;-2;153;4043;776;2;0.5688914;-0.5096953;-0.4529086;-0.4598338;0;0;-2;208;4066;24;8;0.6218836;-0.7055818;0.1966759;0.2770083;-4;-2;2;-213;4179;773;0.5935611;2.803084;-0.2586697;0.5994374;3.338568;-0.3628017;0.6045985;3.808872;-0.4563192;0.6202428;4.378253;0.006308198;0.3692589;4.662458;0.1823252;0.02399936;4.523233;0.1429345;-0.594306;5.164033;-0.1128079;-0.5264925;6.070414;-0.3805225;0.8894067;4.64817;0.1823264;1.174135;4.491638;0.1429369;1.738693;5.243143;-0.06869739;2.044518;6.126669;-0.2224552;0.2812997;2.76038;-0.2574984;0.1261143;1.306111;-0.3008261;0;0;0;0.2812997;2.76038;-0.2574984;0.1261143;1.306111;-0.3008261;0;0;0
1466800.649;NotLabelled;NONE;16384;0.8068447;0.4889196;0.2853186;0.1689751;-5;13;-1;2960;-2714;2224;65536;0.7976528;0.5969529;-0.08310249;0.02216066;1;6;26;671;-4378;-1856;8192;0.751987;0.5055401;-0.4224377;0.02216066;-3;-3;14;-1430;-2948;2122;32768;0.7474555;0.6260388;-0.2216066;-0.0166205;3;-14;-18;1388;-3635;-1828;256;-0.0401662;0.0567867;-0.4279778;-0.9011087;2;0;2;-168;3152;-2636;128;0.06786703;-0.05401662;0.6800554;0.7280116;-2;-8;-2;-22;4152;530;4;0.5639995;-0.4930748;0.4833795;0.4529086;7;-14;7;-54;4076;864;16;0.6038781;-0.7713414;-0.1108033;-0.16759;-13;8;-5;365;3971;772;2;0.5688914;-0.5096953;-0.4529086;-0.4598338;-2;1;0;40;4112;158;8;0.6218836;-0.7055818;0.1966759;0.2770083;-4;-2;1;-339;4201;723;0.5931423;2.802969;-0.2550758;0.5990186;3.338454;-0.3592078;0.6041796;3.808758;-0.4527253;0.6177233;4.378093;0.01002471;0.3656927;4.661334;0.1861011;0.02094895;4.520846;0.1466786;-0.5984318;5.16197;-0.1056243;-0.5264093;6.067275;-0.3758699;0.8858898;4.648962;0.1861027;1.171193;4.493488;0.1466812;1.739269;5.242493;-0.06440499;2.048743;6.124399;-0.2201318;0.2808808;2.760266;-0.2539045;0.1257208;1.306111;-0.3009906;0;0;0;0.2808808;2.760266;-0.2539045;0.1257208;1.306111;-0.3009906;0;0;0
1466820.6653;NotLabelled;NONE;16384;0.8074804;0.4875346;0.2867036;0.16759;-4;14;-2;2534;-2750;2216;65536;0.7978548;0.5969529;-0.08033241;0.02493075;3;-3;31;155;-4476;-1558;8192;0.7504242;0.5055401;-0.4252077;0.02216066;-6;-9;15;-1666;-3130;2036;32768;0.7473708;0.6246537;-0.2257618;-0.0166205;7;-20;-13;1904;-3651;-1598;256;-0.0401662;0.0567867;-0.4265928;-0.9017652;5;1;4;-150;3198;-2580;128;0.06786703;-0.05263158;0.6800554;0.7281131;-4;-8;-4;-56;4050;372;4;0.5640947;-0.4916897;0.4833795;0.4542936;7;-12;13;196;4004;864;16;0.602493;-0.7722238;-0.1121884;-0.16759;-15;8;-8;315;4221;786;2;0.5700082;-0.5096953;-0.4529086;-0.4584487;-6;-3;1;-146;4084;90;8;0.6204986;-0.7064133;0.1980609;0.2770083;-4;-3;0;-75;4331;591;0.5913197;2.801285;-0.2625712;0.5971964;3.336808;-0.3664997;0.6023578;3.807148;-0.4598384;0.6158995;4.376482;0.002911791;0.3638681;4.659724;0.1789874;0.01912458;4.519237;0.1395629;-0.6007624;5.160382;-0.1114403;-0.5366295;6.066201;-0.3819498;0.884065;4.647353;0.1789912;1.169368;4.491879;0.1395711;1.73912;5.240105;-0.06974995;2.054381;6.11985;-0.2261046;0.2790582;2.758581;-0.2614174;0.1268287;1.304132;-0.309;0;0;0;0.2790582;2.758581;-0.2614174;0.1268287;1.304132;-0.309;0;0;0
1466842.202;NotLabelled;NONE;16384;0.8072737;0.4875346;0.2880886;0.166205;-12;10;0;2722;-2806;2140;65536;0.7979883;0.5969529;-0.07756232;0.02908587;3;-11;30;-321;-4414;-1478;8192;0.7473066;0.5041551;-0.432133;0.02493075;-8;-19;12;-1842;-2932;2232;32768;0.7444544;0.6246537;-0.2354571;-0.01246537;13;-36;4;2094;-3597;-1234;256;-0.04155125;0.0567867;-0.4252077;-0.9023564;6;8;4;46;3124;-2690;128;0.06786703;-0.05124654;0.6786703;0.7295029;-4;-5;-7;-254;4054;192;4;0.5642477;-0.4903047;0.4819945;0.4570637;4;-6;14;334;3982;668;16;0.599723;-0.774175;-0.1135734;-0.16759;-14;5;-9;73;4247;1136;2;0.5689049;-0.5096953;-0.4542936;-0.4584487;-8;-1;3;-318;3836;-170;8;0.6191136;-0.7076275;0.1980609;0.2770083;-2;0;-1;-11;4267;565;0.5898145;2.800275;-0.2628651;0.5956913;3.335799;-0.3667918;0.6008527;3.806139;-0.460129;0.6144818;4.374053;0.004361078;0.362498;4.656807;0.1812849;0.01772747;4.516514;0.1414075;-0.6030115;5.156557;-0.1102992;-0.5462089;6.06291;-0.3806596;0.8826922;4.644326;0.1812864;1.167966;4.488914;0.1414105;1.741057;5.235812;-0.06349146;2.062106;6.113364;-0.2203916;0.277553;2.757571;-0.2617116;0.1248015;1.303312;-0.313256;0;0;0;0.277553;2.757571;-0.2617116;0.1248015;1.303312;-0.313256;0;0;0
1466861.6985;NotLabelled;NONE;16384;0.8065641;0.4889196;0.2908587;0.1606648;-7;16;9;2142;-2886;1780;65536;0.7974328;0.5983379;-0.06925207;0.03601108;5;3;40;385;-4394;-950;8192;0.745698;0.5041551;-0.434903;0.02493075;-10;-18;9;-2036;-2994;2142;32768;0.7447919;0.6232687;-0.2382271;-0.008310249;9;-40;6;1770;-3715;-948;256;-0.04293629;0.0567867;-0.4238227;-0.902943;4;9;4;174;3260;-2654;128;0.06786703;-0.04986149;0.6772853;0.7308847;-8;-1;-8;-244;4096;326;4;0.5643054;-0.4903047;0.4806094;0.4584487;8;0;13;512;3824;304;16;0.5983379;-0.77534;-0.1149584;-0.166205;-9;7;-9;-279;4037;1552;2;0.5700182;-0.5096953;-0.4542936;-0.4570637;-6;-4;2;-250;3932;-382;8;0.6191136;-0.7076275;0.1980609;0.2770083;-2;0;-2;-149;4187;581;0.5846864;2.798294;-0.2634237;0.5905673;3.334207;-0.365326;0.5957325;3.804897;-0.4568852;0.6108633;4.371461;0.00920257;0.359632;4.654397;0.1869046;0.01448635;4.51515;0.1466093;-0.6070451;5.155316;-0.1028199;-0.5594533;6.062298;-0.372844;0.8797907;4.640509;0.1869056;1.164646;4.484438;0.1466116;1.743474;5.228896;-0.05091158;2.072951;6.104543;-0.2008237;0.2724248;2.755586;-0.2624443;0.1226893;1.301328;-0.3222093;0;0;0;0.2724248;2.755586;-0.2624443;0.1226893;1.301328;-0.3222093;0;0;0
1466883.6794;NotLabelled;NONE;16384;0.8064963;0.4903047;0.2894737;0.1592798;-4;-2;10;1790;-3048;1772;65536;0.7965434;0.599723;-0.06509695;0.0401662;18;-15;27;-519;-3496;-1856;8192;0.7439775;0.5041551;-0.4376731;0.02770083;-8;-16;6;-1912;-3350;1936;32768;0.7439414;0.6232687;-0.2409972;-0.002770083;8;-36;5;1444;-3851;-806;256;-0.04432133;0.05540166;-0.4238227;-0.9029621;4;7;4;240;3186;-2604;128;0.06925207;-0.04847645;0.6759003;0.7321291;-10;4;-7;-226;4034;300;4;0.5644006;-0.4903047;0.4778393;0.4612188;17;6;8;420;3854;-36;16;0.5969529;-0.7762006;-0.1163435;-0.166205;-4;7;-7;33;4169;1840;2;0.5687767;-0.5110803;-0.4542936;-0.4570637;-6;-6;1;-128;4096;-396;8;0.6191136;-0.7076275;0.1980609;0.2770083;-3;2;-3;-307;4133;525;0.5758665;2.797662;-0.2641753;0.5817515;3.333956;-0.3640552;0.5869205;3.804987;-0.453838;0.6035146;4.370198;0.01384085;0.3530234;4.653314;0.1923004;0.007507795;4.515115;0.1515643;-0.6129899;5.15792;-0.09361562;-0.5859432;6.066818;-0.3600163;0.8731424;4.638017;0.1923379;1.15758;4.481288;0.1516467;1.739239;5.223577;-0.04572815;2.067573;6.099479;-0.1966538;0.2636048;2.75495;-0.26337;0.1174152;1.300514;-0.327419;0;0;0;0.2636048;2.75495;-0.26337;0.1174152;1.300514;-0.327419;0;0;0
1466904.6683;NotLabelled;NONE;16384;0.8066425;0.4916897;0.2867036;0.1592798;-1;-15;9;2094;-2866;2260;65536;0.7954999;0.601108;-0.06232687;0.04432133;27;-2;22;-523;-3736;-1732;8192;0.743161;0.5041551;-0.4390582;0.02770083;-2;-11;7;-2050;-3228;1888;32768;0.7430435;0.6232687;-0.2437673;0;7;-26;6;1676;-3889;-860;256;-0.04570637;0.05540166;-0.4224377;-0.9035419;0;10;0;240;3134;-2652;128;0.07063711;-0.04847645;0.6745152;0.7332733;-11;6;-5;-254;3996;212;4;0.5663483;-0.4986149;0.4695291;0.4584487;19;45;-6;-112;3862;424;16;0.5941828;-0.7773934;-0.1204986;-0.16759;3;20;-2;-205;3889;1596;2;0.5709883;-0.5110803;-0.4529086;-0.4556787;-3;-17;-1;0;4000;-358;8;0.6191136;-0.7080137;0.1966759;0.2770083;-4;1;-3;-335;4291;593;0.5669176;2.79707;-0.2590549;0.5728064;3.333699;-0.3571158;0.5779786;3.805032;-0.4453009;0.5966878;4.37028;0.02225304;0.3472534;4.654354;0.2006696;0.001228722;4.517418;0.1599901;-0.6156251;5.164311;-0.08362815;-0.5990567;6.074521;-0.3463852;0.8673127;4.637144;0.2006708;1.151169;4.479362;0.1599927;1.733795;5.223187;-0.02854508;2.059671;6.100571;-0.1761506;0.2546559;2.754355;-0.2584061;0.1158126;1.299625;-0.3314924;0;0;0;0.2546559;2.754355;-0.2584061;0.1158126;1.299625;-0.3314924;0;0;0
1466924.6859;NotLabelled;NONE;16384;0.8071335;0.4916897;0.2853186;0.1592798;-11;-5;12;2596;-2758;2384;65536;0.7934524;0.6038781;-0.05955679;0.04709141;19;-9;18;-503;-4498;-880;8192;0.7414644;0.5041551;-0.4418283;0.02908587;-2;-16;6;-2218;-3020;2174;32768;0.7425864;0.6232687;-0.2451524;0.001385042;8;-20;10;1868;-3777;-930;256;-0.04847645;0.0567867;-0.4224377;-0.9033116;0;13;-1;256;3234;-2762;128;0.07202215;-0.04847645;0.6745152;0.7331385;-5;9;-5;-292;4120;68;4;0.5670812;-0.5041551;0.466759;0.4542936;10;40;-11;-90;3882;614;16;0.5927978;-0.7777166;-0.1232687;-0.1689751;4;33;0;-75;3923;1468;2;0.5697456;-0.5124654;-0.4529086;-0.4556787;1;-8;-4;-46;4222;324;8;0.6191136;-0.7078538;0.1952908;0.2783934;-6;9;-2;-477;4141;555;0.5450518;2.797045;-0.2648972;0.5509442;3.334001;-0.3611472;0.5561197;3.805629;-0.447742;0.5763134;4.369514;0.02139424;0.3276317;4.653762;0.2005821;-0.01875841;4.517879;0.1594876;-0.6323521;5.167795;-0.08431923;-0.6247919;6.079187;-0.3433661;0.8476426;4.635143;0.2005835;1.131074;4.476707;0.1594899;1.71508;5.219811;-0.02761641;2.041358;6.097401;-0.1731015;0.2327901;2.754329;-0.264404;0.1120513;1.298054;-0.3388624;0;0;0;0.2327901;2.754329;-0.264404;0.1120513;1.298054;-0.3388624;0;0;0
1466945.6632;NotLabelled;NONE;16384;0.8070491;0.4930748;0.2839335;0.1578947;-17;7;14;2584;-2972;2132;65536;0.7922414;0.6052631;-0.05817174;0.05124654;11;-6;20;109;-4442;-644;8192;0.7407992;0.501385;-0.4459834;0.03047091;-2;-19;2;-1802;-3102;1820;32768;0.7411707;0.6232687;-0.2493075;0.006925208;2;-24;0;1166;-3733;-746;256;-0.05124654;0.05817174;-0.4224377;-0.9030704;-3;11;1;180;3218;-2696;128;0.07617728;-0.04986149;0.6731302;0.7338982;-5;13;-5;-276;4158;192;4;0.5679617;-0.5069252;0.4653739;0.4515235;5;28;-11;234;4008;718;16;0.5927978;-0.7761314;-0.1274238;-0.1731302;5;34;-1;315;3983;1388;2;0.5719467;-0.5124654;-0.4515235;-0.4542936;-5;1;-6;-154;3954;426;8;0.6191136;-0.7091548;0.1925208;0.2770083;-10;7;-1;-389;4117;567;0.5362977;2.797242;-0.2769306;0.5421898;3.334162;-0.3733903;0.547365;3.805755;-0.4601691;0.5697204;4.369822;0.008651301;0.3221293;4.655116;0.1876852;-0.02477785;4.520534;0.1466735;-0.6379516;5.171305;-0.0959017;-0.6385703;6.084609;-0.3482341;0.8420652;4.634513;0.1876865;1.124889;4.474974;0.1466761;1.709845;5.217756;-0.03873;2.035694;6.095449;-0.1845534;0.2240362;2.754527;-0.2764194;0.1090212;1.29738;-0.3424117;0;0;0;0.2240362;2.754527;-0.2764194;0.1090212;1.29738;-0.3424117;0;0;0
1466965.6753;NotLabelled;NONE;16384;0.8063107;0.4972299;0.2825485;0.1509695;-11;18;13;1982;-3334;1580;65536;0.7901319;0.6080332;-0.05401662;0.05540166;1;7;27;179;-4132;-468;8192;0.7399052;0.501385;-0.4473684;0.03185596;2;-12;4;-1516;-3302;1702;32768;0.7402021;0.6232687;-0.2520775;0.009695291;3;-24;-3;1076;-3763;-804;256;-0.05263158;0.05817174;-0.4224377;-0.9029908;-4;10;3;174;3224;-2758;128;0.07894737;-0.05124654;0.6717451;0.7347786;-6;13;-4;-232;4064;364;4;0.5688105;-0.5096953;0.4639889;0.4487534;1;26;-6;238;4160;252;16;0.5914127;-0.7758718;-0.1315789;-0.1759003;5;31;-3;239;4027;1226;2;0.572225;-0.5096953;-0.4529086;-0.4556787;-8;10;-8;-140;3998;242;8;0.6177285;-0.7107356;0.1911357;0.2770083;-14;6;0;-555;4097;497;0.535504;2.798318;-0.278589;0.5413987;3.33548;-0.3736914;0.5465761;3.807291;-0.459278;0.5710943;4.371543;0.009210765;0.3245973;4.657885;0.1880832;-0.02282157;4.524601;0.1471586;-0.6341015;5.178506;-0.09174326;-0.6425558;6.092838;-0.3401818;0.844451;4.6353;0.1880842;1.126663;4.474659;0.1471606;1.715092;5.214244;-0.04003078;2.039452;6.092895;-0.1833934;0.2232423;2.755602;-0.2781943;0.1092273;1.298166;-0.3393538;0;0;0;0.2232423;2.755602;-0.2781943;0.1092273;1.298166;-0.3393538;0;0;0
1466985.6696;NotLabelled;NONE;16384;0.8062227;0.4986149;0.2825485;0.1468144;-8;9;9;1970;-3268;1432;65536;0.7903067;0.6080332;-0.04986149;0.0567867;1;7;18;-27;-3844;-462;8192;0.7399428;0.5;-0.4487534;0.033241;3;-15;8;-1814;-3168;1794;32768;0.7396874;0.6232687;-0.2534626;0.01246537;3;-15;-1;1044;-3725;-732;256;-0.05401662;0.05817174;-0.4238227;-0.9022597;-8;11;3;98;3162;-2826;128;0.08171745;-0.05124654;0.6717451;0.7344757;-6;18;-4;-160;4074;172;4;0.5707498;-0.5124654;0.4612188;0.4459834;0;22;-2;38;4136;110;16;0.5914127;-0.7750815;-0.134349;-0.1772853;6;22;-3;219;4163;1194;2;0.5723524;-0.5083103;-0.4529086;-0.4570637;-11;14;-12;-228;4092;212;8;0.6163435;-0.7123074;0.1897507;0.2770083;-20;3;1;-595;4135;289;0.5330914;2.798209;-0.284765;0.538989;3.335642;-0.3783152;0.5441693;3.8077;-0.4625385;0.5701013;4.37202;0.005791217;0.324322;4.659027;0.1845857;-0.02342895;4.526599;0.1437026;-0.6265448;5.190073;-0.08949888;-0.6458555;6.106154;-0.3307799;0.8441173;4.635144;0.1845874;1.125928;4.473788;0.1437059;1.714367;5.213786;-0.04181054;2.039105;6.092652;-0.1829794;0.2208297;2.755492;-0.2845038;0.1080816;1.297777;-0.341205;0;0;0;0.2208297;2.755492;-0.2845038;0.1080816;1.297777;-0.341205;0;0;0
1467005.6839;NotLabelled;NONE;16384;0.8061001;0.5;0.2811634;0.1454294;0;8;7;2128;-3274;1540;65536;0.7893254;0.6094183;-0.04847645;0.0567867;0;11;12;3;-4102;-362;8192;0.7391283;0.4986149;-0.4515235;0.03462604;2;-22;11;-1854;-3152;1938;32768;0.7391868;0.6232687;-0.2548476;0.01385042;2;-14;0;956;-3787;-668;256;-0.0567867;0.05955679;-0.4252077;-0.9013471;-11;13;3;162;3086;-2880;128;0.08448754;-0.05401662;0.6703601;0.7352288;-3;23;-2;-76;4018;108;4;0.5714871;-0.5152354;0.4612188;0.4418283;-6;9;-8;-320;3894;138;16;0.5927978;-0.7727216;-0.1398892;-0.1786704;14;11;-4;-195;3879;1668;2;0.5738203;-0.5041551;-0.4542936;-0.4584487;-16;23;-18;-332;4190;248;8;0.6149584;-0.7138704;0.1883656;0.2770083;-27;-1;5;-627;4191;149;0.5294774;2.798905;-0.2840511;0.5353741;3.336257;-0.3780728;0.5405536;3.80824;-0.4627103;0.5678384;4.37406;0.003730237;0.3227381;4.662216;0.1816042;-0.02531819;4.530441;0.1412165;-0.6248597;5.198079;-0.08930153;-0.6523111;6.114057;-0.330189;0.8424783;4.637156;0.1816054;1.123916;4.475028;0.141219;1.712859;5.214363;-0.04534107;2.03606;6.093976;-0.1853719;0.2172157;2.756188;-0.2837493;0.1059746;1.298331;-0.3397538;0;0;0;0.2172157;2.756188;-0.2837493;0.1059746;1.298331;-0.3397538;0;0;0
1467026.1535;NotLabelled;NONE;16384;0.8063488;0.5;0.2811634;0.1440443;2;11;5;2304;-2984;1506;65536;0.7894907;0.6094183;-0.04570637;0.0567867;-4;12;3;-129;-3916;-40;8192;0.7382973;0.4972299;-0.4542936;0.03601108;2;-25;13;-1622;-3220;1846;32768;0.7386506;0.6232687;-0.2562327;0.0166205;-1;-23;-4;978;-3877;-672;256;-0.05817174;0.05955679;-0.4265928;-0.900604;-11;13;1;54;3080;-2840;128;0.08725762;-0.0567867;0.6703601;0.7346963;1;27;0;-14;4108;234;4;0.571252;-0.5166205;0.4626039;0.4390582;-15;8;-14;-526;3964;-192;16;0.5941828;-0.7710827;-0.1412742;-0.1800554;18;21;1;-429;4189;1734;2;0.575341;-0.4986149;-0.4556787;-0.4612188;-17;26;-26;-510;4170;418;8;0.6108033;-0.7168925;0.1883656;0.2783934;-36;-4;12;-1063;4319;49;0.5237606;2.801327;-0.2869422;0.5296602;3.33894;-0.3794518;0.5348422;3.81116;-0.462761;0.5642306;4.378596;0.001583293;0.3201918;4.668278;0.1784363;-0.02833914;4.537595;0.1385973;-0.6258822;5.208288;-0.08820981;-0.6563628;6.125058;-0.3256955;0.8398396;4.641368;0.1784373;1.120691;4.47809;0.1385994;1.710987;5.216041;-0.04916117;2.033756;6.095765;-0.1894943;0.2114989;2.758609;-0.2867703;0.09767801;1.300621;-0.3334222;0;0;0;0.2114989;2.758609;-0.2867703;0.09767801;1.300621;-0.3334222;0;0;0
1467046.7009;NotLabelled;NONE;16384;0.806595;0.5;0.2811634;0.1426593;7;12;1;2344;-2938;1398;65536;0.7885182;0.6108033;-0.04570637;0.05540166;-8;9;-4;-265;-3862;-140;8192;0.7365896;0.4958449;-0.4584487;0.03739612;4;-25;14;-1574;-3478;1782;32768;0.7382973;0.6218836;-0.2603878;0.01939058;-2;-27;-6;800;-3883;-752;256;-0.05955679;0.06094183;-0.4279778;-0.8997633;-14;14;-1;-154;3054;-2808;128;0.0900277;-0.05955679;0.6703601;0.7341426;7;28;1;122;4042;548;4;0.5720524;-0.5180055;0.4639889;0.434903;-20;5;-21;-606;4080;-414;16;0.5955678;-0.7689139;-0.1454294;-0.1814404;20;23;4;-269;3993;1418;2;0.576768;-0.4930748;-0.4556787;-0.4653739;-18;23;-40;-696;4204;684;8;0.6066482;-0.720412;0.1883656;0.2783934;-47;-2;19;-1113;4189;-71;0.52675;2.802781;-0.2899823;0.5326487;3.340306;-0.3830053;0.5378298;3.812446;-0.4667656;0.5685779;4.38137;-0.004334018;0.325223;4.672192;0.1715881;-0.02360813;4.542159;0.1322484;-0.6202789;5.213805;-0.09403902;-0.6552202;6.130467;-0.3313246;0.844809;4.644113;0.1715891;1.125285;4.480071;0.1322507;1.717672;5.216642;-0.05434257;2.038899;6.097113;-0.1935157;0.2144882;2.760063;-0.2897662;0.09751237;1.302074;-0.3277529;0;0;0;0.2144882;2.760063;-0.2897662;0.09751237;1.302074;-0.3277529;0;0;0
1467067.8299;NotLabelled;NONE;16384;0.8069683;0.4986149;0.2825485;0.1426593;7;12;0;2456;-2716;1362;65536;0.7886143;0.6108033;-0.04570637;0.05401662;-10;12;-8;-387;-3912;-186;8192;0.7348073;0.4916897;-0.4653739;0.04155125;6;-35;15;-1570;-3672;1816;32768;0.7389817;0.6191136;-0.2645429;0.02493075;-4;-24;-5;1064;-4159;-674;256;-0.06232687;0.06509695;-0.432133;-0.8972953;-19;21;-9;-428;3146;-2776;128;0.09695291;-0.06925207;0.6731302;0.729863;17;43;4;426;4082;254;4;0.5704253;-0.5207756;0.466759;0.4307479;-24;13;-20;-474;4170;-422;16;0.5969529;-0.7666489;-0.1481994;-0.1842105;18;19;6;-161;4163;528;2;0.5871499;-0.4750692;-0.4515235;-0.4750692;-16;27;-71;-1388;4014;1048;8;0.5914127;-0.730831;0.1925208;0.2811634;-62;-48;23;-891;4359;1197;0.5278123;2.804402;-0.2933869;0.5337099;3.341835;-0.3869397;0.5388902;3.813892;-0.4711653;0.5703202;4.38436;-0.01068676;0.3273026;4.676037;0.1642849;-0.02167163;4.546235;0.1254548;-0.6180494;5.21883;-0.09877318;-0.6520264;6.13632;-0.3329837;0.8468589;4.647415;0.1642861;1.127156;4.482946;0.1254568;1.722733;5.217416;-0.05925059;2.045948;6.097031;-0.1992435;0.2155507;2.761684;-0.2931254;0.09189251;1.304029;-0.3215472;0;0;0;0.2155507;2.761684;-0.2931254;0.09189251;1.304029;-0.3215472;0;0;0
1467088.6788;NotLabelled;NONE;16384;0.8085428;0.4944598;0.2839335;0.1454294;20;0;-1;2870;-2588;1704;65536;0.7897883;0.6094183;-0.04709141;0.05124654;-15;-3;-15;-419;-3894;-52;8192;0.7337649;0.4889196;-0.4695291;0.04570637;5;-42;13;-1184;-3724;1876;32768;0.7378854;0.6191136;-0.267313;0.02770083;-6;-29;-3;986;-4247;-538;256;-0.06509695;0.06925207;-0.434903;-0.8954473;-22;26;-11;-768;3322;-2710;128;0.101108;-0.07479224;0.6745152;0.72747;13;47;1;520;4104;478;4;0.5721781;-0.5221606;0.468144;0.4252077;-25;22;-13;-198;4332;104;16;0.599723;-0.7642142;-0.1495845;-0.1842105;13;12;4;-261;4093;-210;2;0.592343;-0.4653739;-0.4459834;-0.4833795;-11;28;-81;-1818;3906;962;8;0.5803324;-0.7360619;0.1980609;0.2867036;-66;-71;16;-607;4229;1789;0.5280739;2.80609;-0.305526;0.5339609;3.342552;-0.4044994;0.5391315;3.813734;-0.4934861;0.5711468;4.388752;-0.03874215;0.328395;4.682302;0.133443;-0.02067574;4.552323;0.09610189;-0.6212841;5.222825;-0.1230459;-0.6560618;6.140307;-0.3571723;0.8479344;4.653379;0.1334442;1.128115;4.488368;0.09610456;1.727162;5.21945;-0.09080189;2.048286;6.098922;-0.2363899;0.2158123;2.763377;-0.3047987;0.08945481;1.305714;-0.315334;0;0;0;0.2158123;2.763377;-0.3047987;0.08945481;1.305714;-0.315334;0;0;0
1467109.7676;NotLabelled;NONE;16384;0.8097283;0.4916897;0.2839335;0.1481994;30;-6;0;3098;-2706;2044;65536;0.7896183;0.6094183;-0.04986149;0.05124654;-14;-12;-14;-427;-4238;-6;8192;0.7326635;0.4861496;-0.4736842;0.04986149;4;-37;11;-1092;-3902;1700;32768;0.7390855;0.6163435;-0.2700831;0.03047091;-9;-31;0;1032;-4347;-568;256;-0.06648199;0.0734072;-0.4376731;-0.8936631;-26;25;-9;-922;3406;-2582;128;0.1052632;-0.08033241;0.6759003;0.7250001;19;41;-2;660;4230;512;4;0.5743532;-0.5207756;0.4695291;0.4224377;-22;0;0;368;4368;756;16;0.602493;-0.761759;-0.1509695;-0.1842105;8;-1;2;5;4291;-228;2;0.5971666;-0.4556787;-0.4404432;-0.4916897;2;23;-82;-2096;3966;820;8;0.5692521;-0.7391413;0.2063712;0.2950138;-69;-107;2;-993;4513;2571;0.5319074;2.807705;-0.3082995;0.5377886;3.343623;-0.410172;0.5429539;3.814318;-0.5017051;0.5755826;4.392466;-0.0509911;0.3331207;4.687393;0.1192389;-0.01606278;4.557421;0.0829399;-0.6242875;5.221324;-0.1352891;-0.6565478;6.137987;-0.3729597;0.8526378;4.658076;0.1192397;1.132679;4.492596;0.08294189;1.731421;5.222854;-0.1081201;2.05163;6.102574;-0.2542232;0.2196459;2.764997;-0.3073228;0.08339429;1.308187;-0.3066238;0;0;0;0.2196459;2.764997;-0.3073228;0.08339429;1.308187;-0.3066238;0;0;0
1467130.6536;NotLabelled;NONE;16384;0.8129463;0.4875346;0.2811634;0.1495845;36;0;3;3380;-2608;2452;65536;0.7903212;0.6080332;-0.05263158;0.05401662;-17;-16;-9;-831;-4510;-56;8192;0.7324055;0.4833795;-0.4764543;0.05401662;7;-32;8;-1200;-4016;1652;32768;0.7390388;0.6149584;-0.2728532;0.03462604;-10;-32;5;1136;-4353;-572;256;-0.06786703;0.07617728;-0.4418283;-0.8912793;-28;21;-3;-1036;3552;-2712;128;0.1080332;-0.08448754;0.6772853;0.7228245;19;29;-7;708;4288;404;4;0.5762755;-0.5152354;0.4695291;0.4265928;0;-12;10;650;3692;-964;16;0.6052631;-0.7601683;-0.1495845;-0.1828255;0;-12;5;-703;4151;720;2;0.6006004;-0.4473684;-0.434903;-0.5;-8;18;-85;-2160;4148;690;8;0.5554016;-0.7412471;0.2160665;0.3088643;-67;-125;-14;-789;4615;2661;0.5374957;2.809016;-0.3025382;0.5433704;3.344368;-0.4073464;0.54853;3.814554;-0.5014576;0.5802925;4.395742;-0.05460855;0.3373671;4.691362;0.1137482;-0.01159758;4.560532;0.07844499;-0.6250546;5.219905;-0.1388727;-0.6552775;6.13664;-0.3765301;0.8569359;4.662971;0.1137493;1.137258;4.497751;0.07844698;1.735944;5.227208;-0.1158261;2.055518;6.106019;-0.2686357;0.2252342;2.766314;-0.3013085;0.07786515;1.310591;-0.2976813;0;0;0;0.2252342;2.766314;-0.3013085;0.07786515;1.310591;-0.2976813;0;0;0
1467151.6877;NotLabelled;NONE;16384;0.8154237;0.4833795;0.2811634;0.1495845;34;12;8;3340;-2342;2578;65536;0.7922559;0.6052631;-0.05540166;0.05401662;-24;-17;-4;-859;-4862;-224;8192;0.7323177;0.4806094;-0.4792244;0.05540166;9;-25;5;-1424;-3890;1620;32768;0.7406179;0.6121883;-0.2742382;0.03878116;-9;-27;11;962;-4399;-592;256;-0.07063711;0.07756232;-0.4445983;-0.8895655;-27;20;3;-890;3746;-2796;128;0.1108033;-0.08587258;0.6786703;0.7209404;11;12;-10;666;4426;482;4;0.5754344;-0.5152354;0.466759;0.4307479;4;-9;10;-108;3818;-1328;16;0.6066482;-0.7596672;-0.1481994;-0.1814404;-1;-15;8;-351;4173;762;2;0.6071145;-0.4432133;-0.4252077;-0.5041551;9;-52;-77;-1944;4010;-634;8;0.5415512;-0.741071;0.2271468;0.3254848;-58;-158;-25;219;3853;2335;0.5409862;2.810149;-0.2804517;0.5468553;3.344976;-0.3879087;0.5520098;3.81469;-0.4843464;0.5835694;4.400208;-0.04317057;0.3404978;4.697224;0.1224952;-0.00837286;4.565743;0.08871923;-0.624494;5.222923;-0.1277002;-0.6556939;6.13894;-0.3679829;0.8600922;4.669304;0.1223863;1.140539;4.504005;0.08847815;1.736627;5.234355;-0.1103739;2.054207;6.11348;-0.2655161;0.2287248;2.767454;-0.2789938;0.07492465;1.312436;-0.2902165;0;0;0;0.2287248;2.767454;-0.2789938;0.07492465;1.312436;-0.2902165;0;0;0
1467172.678;NotLabelled;NONE;16384;0.8194087;0.4778393;0.2797784;0.1481994;31;23;11;3134;-2164;2568;65536;0.7940735;0.602493;-0.0567867;0.0567867;-34;-12;1;-1349;-4598;-530;8192;0.7328964;0.4778393;-0.4806094;0.05955679;8;-14;-5;-1564;-3438;1434;32768;0.7431274;0.6080332;-0.2756233;0.04570637;-12;-24;9;936;-4031;-462;256;-0.07617728;0.07756232;-0.4542936;-0.8841937;-38;12;12;-822;3198;-2374;128;0.1094183;-0.08448754;0.6786703;0.7213155;0;-15;-11;616;4004;766;4;0.5721027;-0.5166205;0.466759;0.433518;1;-16;6;-578;4184;-864;16;0.6066482;-0.7605316;-0.1454294;-0.1800554;-3;-28;9;-175;4125;726;2;0.6256312;-0.4515235;-0.400277;-0.4944598;7;-136;-16;1082;4178;3592;8;0.5221606;-0.7302007;0.2479224;0.3642659;-2;-110;-58;-1745;3497;1427;0.5285724;2.811873;-0.2685764;0.5344356;3.346158;-0.3786944;0.5395848;3.815387;-0.4774691;0.5730083;4.403862;-0.04038554;0.330873;4.702765;0.123248;-0.01840276;4.572114;0.09044492;-0.6357639;5.22415;-0.1376843;-0.6647844;6.13852;-0.3844249;0.8503798;4.673262;0.1232487;1.130316;4.506876;0.09044677;1.729537;5.233812;-0.1114736;2.043494;6.113139;-0.2727189;0.2163111;2.769185;-0.2668889;0.07276884;1.313218;-0.287212;0;0;0;0.2163111;2.769185;-0.2668889;0.07276884;1.313218;-0.287212;0;0;0
1467193.1051;NotLabelled;NONE;16384;0.8262757;0.466759;0.2811634;0.1426593;23;36;20;2466;-1806;2488;65536;0.8022608;0.5914127;-0.0567867;0.05817174;-50;5;10;-1587;-4196;-810;8192;0.7327825;0.4778393;-0.4806094;0.06094183;9;0;-8;-1550;-3456;1242;32768;0.7440832;0.6066482;-0.2756233;0.04847645;-13;-13;5;754;-3979;-364;256;-0.07756232;0.07617728;-0.4584487;-0.8820464;-33;5;16;-846;2814;-2446;128;0.1066482;-0.08171745;0.6786703;0.7220492;-3;-24;-10;702;3684;752;4;0.5711681;-0.5152354;0.468144;0.434903;-9;-33;3;-456;4094;24;16;0.6080332;-0.7607914;-0.1398892;-0.1786704;-4;-34;10;-243;4131;692;2;0.6333957;-0.4584487;-0.3919668;-0.4847645;0;-81;3;1504;4096;1452;8;0.5249307;-0.7230368;0.2465374;0.3753462;32;-16;-64;-2071;3579;989;0.5176854;2.812469;-0.2734773;0.5235493;3.346822;-0.3832684;0.5286991;3.81611;-0.481756;0.5672058;4.414293;-0.05848541;0.3275728;4.718731;0.09848927;-0.02272567;4.590002;0.0691862;-0.6410649;5.23829;-0.1668355;-0.6733561;6.151016;-0.4191937;0.8468423;4.685308;0.09849;1.125468;4.516094;0.06918752;1.72193;5.243643;-0.1386103;2.028936;6.12375;-0.3087458;0.205424;2.76978;-0.271818;0.07288912;1.312734;-0.2893848;0;0;0;0.205424;2.76978;-0.271818;0.07288912;1.312734;-0.2893848;0;0;0
1467212.8303;NotLabelled;NONE;16384;0.8293138;0.4626039;0.2811634;0.1385041;18;36;23;2316;-1882;2210;65536;0.8075101;0.5844875;-0.05401662;0.05817174;-56;14;12;-1255;-3740;-1144;8192;0.7336891;0.4792244;-0.4778393;0.06094183;13;1;-10;-1532;-3432;1052;32768;0.7439917;0.6066482;-0.2756233;0.04986149;-13;-5;3;512;-3815;-154;256;-0.07756232;0.07479224;-0.4612188;-0.8807198;-26;0;16;-662;2684;-2466;128;0.1038781;-0.07894737;0.6772853;0.7240589;-6;-25;-9;788;3530;566;4;0.5682098;-0.5110803;0.4736842;0.4376731;-16;-52;-1;110;4056;474;16;0.6080332;-0.7621883;-0.1357341;-0.1759003;-6;-30;11;115;4057;754;2;0.6385793;-0.4639889;-0.3905817;-0.4736842;-5;-79;28;704;3960;806;8;0.536011;-0.7150223;0.2396122;0.3795014;61;60;-62;-1105;4055;857;0.5250404;2.812451;-0.2710815;0.5309057;3.346936;-0.3802314;0.5360568;3.816342;-0.4781559;0.5764792;4.418471;-0.06070061;0.3377842;4.725068;0.09347805;-0.01288495;4.597025;0.06563576;-0.6326204;5.236924;-0.1888956;-0.6693485;6.142301;-0.4659202;0.8569598;4.690218;0.09347901;1.135101;4.519964;0.06563753;1.730391;5.248694;-0.1413801;2.034376;6.129396;-0.3138438;0.2127791;2.769761;-0.2694776;0.07948615;1.312788;-0.2873966;0;0;0;0.2127791;2.769761;-0.2694776;0.07948615;1.312788;-0.2873966;0;0;0
1467233.6744;NotLabelled;NONE;16384;0.8325217;0.4584487;0.2811634;0.132964;16;40;21;2088;-2148;1930;65536;0.812643;0.5775623;-0.04986149;0.05955679;-55;14;9;-1127;-3272;-1498;8192;0.7347029;0.4792244;-0.4764543;0.05955679;18;2;-10;-1336;-3420;1298;32768;0.7455359;0.6052631;-0.2742382;0.05124654;-13;-1;1;534;-3763;-22;256;-0.07756232;0.07202215;-0.4639889;-0.8794948;-22;-3;13;-498;2802;-2326;128;0.1024931;-0.07617728;0.6759003;0.725845;-10;-18;-6;710;3540;616;4;0.5657383;-0.4986149;0.4833795;0.4445983;-25;-44;-5;1366;3896;160;16;0.6080332;-0.7636215;-0.1274238;-0.1759003;-13;-11;12;27;4081;712;2;0.6406068;-0.4722992;-0.3905817;-0.4626039;-3;-73;37;294;3662;676;8;0.5526316;-0.7081573;0.2285319;0.3753462;81;100;-56;-523;4237;673;0.532465;2.811256;-0.2773429;0.5383363;3.346272;-0.383853;0.5434926;3.816156;-0.4794591;0.5844802;4.420816;-0.0657329;0.3460489;4.72851;0.08665529;-0.004715201;4.600527;0.05974598;-0.6223783;5.238829;-0.2036781;-0.6645938;6.139184;-0.4958689;0.8652017;4.693323;0.08665627;1.14322;4.522719;0.05974793;1.735237;5.253929;-0.1479151;2.038004;6.135249;-0.3193581;0.2202036;2.768558;-0.2759667;0.08134769;1.312063;-0.2901704;0;0;0;0.2202036;2.768558;-0.2759667;0.08134769;1.312063;-0.2901704;0;0;0
1467254.6736;NotLabelled;NONE;16384;0.8349056;0.4556787;0.2811634;0.1274238;15;30;18;1806;-2372;1826;65536;0.8176205;0.5706371;-0.04986149;0.05817174;-48;10;2;-665;-3140;-1820;8192;0.7373913;0.4778393;-0.4736842;0.05955679;20;-3;-9;-1296;-3608;1532;32768;0.7455359;0.6052631;-0.2742382;0.05124654;-16;-1;0;398;-4013;62;256;-0.07756232;0.07063711;-0.466759;-0.8781404;-23;0;8;-470;3010;-2280;128;0.09972299;-0.07617728;0.6745152;0.7275174;-13;-9;-1;792;3664;658;4;0.564844;-0.4930748;0.4875346;0.4473684;-24;-28;-1;1336;3818;-294;16;0.6066482;-0.764632;-0.1260388;-0.1772853;-17;-5;12;181;4043;730;2;0.6415988;-0.4778393;-0.3919668;-0.4542936;-5;-21;28;562;3608;1368;8;0.5706371;-0.7009665;0.2174515;0.368421;89;118;-49;-223;4005;749;0.5678017;2.807552;-0.273145;0.5736778;3.343025;-0.3773322;0.5788387;3.81332;-0.4708981;0.6211932;4.42041;-0.06088641;0.3834333;4.729499;0.08971995;0.03240649;4.602047;0.06373716;-0.5813311;5.23957;-0.2105236;-0.6318643;6.134617;-0.5173361;0.9025156;4.693288;0.0897209;1.180186;4.521976;0.063739;1.77296;5.252685;-0.1435252;2.073054;6.134413;-0.3175539;0.2555401;2.764848;-0.2719689;0.09670988;1.310474;-0.2926288;0;0;0;0.2555401;2.764848;-0.2719689;0.09670988;1.310474;-0.2926288;0;0;0
1467274.6955;NotLabelled;NONE;16384;0.8372929;0.4529086;0.2797784;0.1246537;16;16;15;1926;-2104;1744;65536;0.8216391;0.5650969;-0.04847645;0.0567867;-39;5;-3;-563;-2914;-1922;8192;0.7417205;0.4709141;-0.4736842;0.06094183;28;-23;-6;-1208;-3496;1862;32768;0.7481866;0.602493;-0.2728532;0.05263158;-27;-10;1;628;-3961;-174;256;-0.07617728;0.07063711;-0.4709141;-0.8760407;-27;1;3;-500;3198;-2410;128;0.09833795;-0.07617728;0.6731302;0.7289873;-6;-4;-1;688;3758;422;4;0.5661585;-0.4889196;0.4889196;0.4487534;-21;-5;1;1144;3932;-498;16;0.6052631;-0.7658579;-0.1232687;-0.1786704;-21;0;13;-41;4067;698;2;0.6378098;-0.4764543;-0.4044321;-0.4501385;-15;44;16;294;3330;1210;8;0.6038781;-0.6879768;0.1980609;0.3504155;81;93;-29;791;3033;611;0.5832873;2.80507;-0.2741619;0.5891688;3.341044;-0.3757418;0.5943348;3.811789;-0.4670178;0.6371654;4.42137;-0.06076714;0.3996395;4.731545;0.08796206;0.04852157;4.604175;0.06281631;-0.5607045;5.240945;-0.2230093;-0.61073;6.130578;-0.5452634;0.9186969;4.694978;0.08811313;1.196246;4.523317;0.06314975;1.787284;5.253173;-0.1519316;2.087817;6.1349;-0.3252014;0.2710257;2.762361;-0.2732103;0.1027661;1.309091;-0.2967266;0;0;0;0.2710257;2.762361;-0.2732103;0.1027661;1.309091;-0.2967266;0;0;0
1467295.6893;NotLabelled;NONE;16384;0.841132;0.4473684;0.2783934;0.1218837;16;6;7;1966;-1874;2138;65536;0.8262861;0.5581717;-0.05124654;0.05540166;-17;-8;-6;-233;-2906;-1842;8192;0.7441103;0.466759;-0.4736842;0.06371191;26;-31;-8;-1176;-3584;1962;32768;0.7503104;0.599723;-0.2728532;0.05401662;-32;-19;4;840;-4111;-424;256;-0.07479224;0.07202215;-0.4778393;-0.8722892;-35;8;-7;-844;3202;-2090;128;0.09556787;-0.07894737;0.6731302;0.7290609;-8;0;1;978;3740;332;4;0.5685423;-0.4875346;0.4875346;0.4487534;-19;12;1;858;3970;-500;16;0.602493;-0.7673893;-0.1232687;-0.1814404;-25;7;14;-9;4059;694;2;0.6364247;-0.4709141;-0.4099723;-0.4529086;-20;59;10;-746;2826;960;8;0.6163435;-0.6812617;0.1925208;0.3448753;68;64;-20;543;3241;653;0.6001694;2.802165;-0.2722127;0.6060558;3.338571;-0.3714908;0.6112258;3.809702;-0.4607451;0.6523763;4.423042;-0.06001793;0.4139453;4.733745;0.08614206;0.06323376;4.604981;0.06246316;-0.5439485;5.242606;-0.2257966;-0.5958132;6.127678;-0.5600945;0.9331223;4.698915;0.08614278;1.211223;4.527966;0.06246448;1.80276;5.254182;-0.1632963;2.100035;6.135605;-0.3435982;0.2879077;2.759452;-0.2714592;0.1106207;1.307374;-0.3014323;0;0;0;0.2879077;2.759452;-0.2714592;0.1106207;1.307374;-0.3014323;0;0;0
1467315.8297;NotLabelled;NONE;16384;0.8430558;0.4445983;0.2770083;0.1218837;16;0;3;2178;-1726;2246;65536;0.8271331;0.5567867;-0.05263158;0.05540166;-11;-6;-2;-413;-3038;-1770;8192;0.7463112;0.4612188;-0.4750692;0.06786703;23;-35;-10;-1302;-3622;2044;32768;0.7530093;0.5955678;-0.2742382;0.05540166;-36;-24;9;1056;-4153;-696;256;-0.07479224;0.07479224;-0.4833795;-0.8689974;-40;10;-13;-1074;3246;-1950;128;0.09279778;-0.08033241;0.6717451;0.7305434;-14;5;3;1176;3758;280;4;0.5708153;-0.4875346;0.4861496;0.4473684;-17;33;3;944;3972;-232;16;0.599723;-0.7691184;-0.1218837;-0.1842105;-31;11;14;57;4035;636;2;0.632001;-0.466759;-0.4168975;-0.4570637;-14;73;4;-1478;2276;312;8;0.6260388;-0.6763471;0.1883656;0.3393352;44;52;-5;1027;2641;929;0.6101553;2.799144;-0.2730929;0.6160429;3.335654;-0.3718044;0.621214;3.806879;-0.460561;0.6594876;4.426501;-0.06932405;0.4195491;4.738142;0.07230148;0.06950368;4.607177;0.05095942;-0.5365177;5.241132;-0.2476506;-0.5848829;6.120499;-0.597181;0.9389035;4.706065;0.07230258;1.217885;4.536247;0.05096155;1.807805;5.261185;-0.1829916;2.103352;6.141809;-0.3699111;0.2978937;2.756431;-0.2723882;0.1161286;1.305066;-0.3092621;0;0;0;0.2978937;2.756431;-0.2723882;0.1161286;1.305066;-0.3092621;0;0;0
1467335.8997;NotLabelled;NONE;16384;0.8445109;0.4418283;0.2770083;0.1218837;18;6;-1;2268;-1756;2358;65536;0.82797;0.5554016;-0.05263158;0.0567867;-7;-5;5;-327;-2950;-1642;8192;0.7475941;0.4570637;-0.4764543;0.07202215;23;-33;-16;-1292;-3684;1910;32768;0.7561744;0.5914127;-0.2742382;0.0567867;-36;-25;14;1226;-4095;-1128;256;-0.07202215;0.07756232;-0.4903047;-0.8651001;-43;7;-17;-1234;3398;-1814;128;0.09141274;-0.08310249;0.6717451;0.7304082;-3;1;5;1226;3794;8;4;0.5753011;-0.4889196;0.4819945;0.4445983;-14;50;5;888;3952;30;16;0.5969529;-0.7708213;-0.1204986;-0.1869806;-36;12;13;285;4155;562;2;0.6263819;-0.4598338;-0.4238227;-0.4653739;-4;100;-6;-1696;2092;-326;8;0.6274238;-0.6795588;0.1869806;0.3310249;-5;28;39;3875;1687;1629;0.6206399;2.795902;-0.2792361;0.6265326;3.332877;-0.3753855;0.6317081;3.80452;-0.4618918;0.6678022;4.429204;-0.07857638;0.4267293;4.741661;0.05927265;0.07719243;4.609046;0.03986792;-0.5298914;5.24058;-0.2617028;-0.5782747;6.118816;-0.61406;0.946207;4.711649;0.05927345;1.225846;4.542684;0.03986955;1.813979;5.265585;-0.2046463;2.109114;6.144209;-0.4013736;0.3083782;2.753186;-0.2787516;0.122778;1.302367;-0.3179489;0;0;0;0.3083782;2.753186;-0.2787516;0.122778;1.302367;-0.3179489;0;0;0
1467356.6967;NotLabelled;NONE;16384;0.8460166;0.4376731;0.2783934;0.1232687;28;7;-7;1936;-2794;3018;65536;0.8288013;0.5540166;-0.05263158;0.05817174;-6;-10;8;-113;-3042;-1376;8192;0.7507257;0.4529086;-0.4750692;0.07479224;25;-32;-23;-1254;-3858;2192;32768;0.760263;0.5858725;-0.2742382;0.05955679;-33;-20;19;1336;-4153;-1400;256;-0.07063711;0.08171745;-0.4958449;-0.8616673;-39;3;-13;-1128;3514;-2090;128;0.08725762;-0.08448754;0.6717451;0.7307574;3;-13;7;1064;3908;228;4;0.5860052;-0.4944598;0.4709141;0.4362881;-2;61;14;1112;3652;2;16;0.5872576;-0.7761894;-0.1204986;-0.1952908;-59;27;12;-137;4483;-450;2;0.619284;-0.4529086;-0.4293629;-0.4764543;8;103;-13;-1828;2414;-166;8;0.6218836;-0.6833731;0.1939058;0.3296399;-18;-80;51;2481;7825;-1053;0.6313117;2.7925;-0.2806664;0.6372049;3.329522;-0.3765469;0.6423811;3.80121;-0.462817;0.673041;4.43191;-0.08899802;0.4292214;4.744196;0.04433292;0.08089795;4.608117;0.02723515;-0.5279223;5.23651;-0.277376;-0.5789827;6.113595;-0.6322169;0.9489518;4.718934;0.04433373;1.230111;4.552256;0.02723652;1.816767;5.274294;-0.2233032;2.110014;6.151255;-0.4300192;0.31905;2.749784;-0.2802049;0.1302467;1.29958;-0.3262739;0;0;0;0.31905;2.749784;-0.2802049;0.1302467;1.29958;-0.3262739;0;0;0
1467376.735;NotLabelled;NONE;16384;0.84729;0.433518;0.2797784;0.1260388;37;-1;-18;2444;-4872;3860;65536;0.8286022;0.5540166;-0.05263158;0.06094183;-8;-22;7;755;-4434;-1152;8192;0.755451;0.4459834;-0.4736842;0.07756232;38;-25;-26;-1006;-4612;3142;32768;0.763722;0.5817174;-0.2728532;0.06232687;-30;-8;26;1372;-4745;-1240;256;-0.06786703;0.08171745;-0.5;-0.859486;-17;-11;0;-172;4066;-2918;128;0.08310249;-0.08171745;0.6745152;0.7290031;16;-31;7;-390;4660;764;4;0.5914289;-0.4958449;0.4626039;0.4362881;7;38;38;624;3984;44;16;0.5775623;-0.7818139;-0.1218837;-0.200831;-74;48;6;445;4735;-530;2;0.6099265;-0.4515235;-0.4238227;-0.4944598;63;6;-20;-2342;9430;88;8;0.6177285;-0.6813039;0.2091413;0.33241;-2;39;36;-3515;231;631;0.6516134;2.78251;-0.2948768;0.6575081;3.319674;-0.3899632;0.6626856;3.791488;-0.4755359;0.6885686;4.426997;-0.1095831;0.4423656;4.738985;0.02001323;0.0951155;4.599968;0.00481369;-0.519735;5.22205;-0.3006403;-0.5747752;6.097972;-0.6577507;0.9622785;4.717813;0.02001387;1.244732;4.553153;0.004814923;1.826833;5.274268;-0.2586744;2.115855;6.149269;-0.4791878;0.3393518;2.739793;-0.2944836;0.1462208;1.290642;-0.353821;0;0;0;0.3393518;2.739793;-0.2944836;0.1462208;1.290642;-0.353821;0;0;0
1467397.7994;NotLabelled;NONE;16384;0.8484858;0.4293629;0.2825485;0.1260388;15;27;-15;3114;-2860;3012;65536;0.8300595;0.5512465;-0.05540166;0.06371191;-27;-25;2;479;-6152;-1538;8192;0.7597922;0.4362881;-0.4750692;0.08171745;19;-28;-22;-1804;-2216;2278;32768;0.7731981;0.5720221;-0.265928;0.06509695;-37;-27;37;1646;-3055;-2290;256;-0.07063711;0.07756232;-0.5055401;-0.8564016;-56;3;10;1674;5374;-2074;128;0.0734072;-0.07063711;0.6759003;0.7299182;13;-45;-8;-1588;6192;698;4;0.5959334;-0.4944598;0.4542936;0.4404432;15;19;81;124;4546;684;16;0.566482;-0.7883782;-0.1246537;-0.2049861;-88;28;-16;1353;4609;-512;2;0.6124421;-0.4515235;-0.4168975;-0.4972299;7;-22;-47;-398;7736;44;8;0.6177285;-0.6852961;0.2091413;0.3240997;-7;5;36;2263;4887;1793;0.6579184;2.773173;-0.3014348;0.6638066;3.309751;-0.3997778;0.6689783;3.781037;-0.4882109;0.6913685;4.419868;-0.1278537;0.4434326;4.731558;-0.0008724779;0.09698155;4.59042;-0.01467896;-0.5214244;5.207131;-0.3238231;-0.5784348;6.08312;-0.6804593;0.9634588;4.713378;-0.0009477735;1.246848;4.550219;-0.0148451;1.828178;5.269339;-0.2853929;2.112802;6.143443;-0.5149959;0.3456568;2.730459;-0.3007617;0.1572624;1.281673;-0.3806691;0;0;0;0.3456568;2.730459;-0.3007617;0.1572624;1.281673;-0.3806691;0;0;0
1467418.65;NotLabelled;NONE;16384;0.851974;0.4210526;0.2880886;0.1177285;15;33;0;1186;-3242;3014;65536;0.8374555;0.5415512;-0.04293629;0.05955679;-33;45;37;-27;-4404;-1894;8192;0.7628751;0.432133;-0.4736842;0.08310249;23;-12;-23;-1838;-2370;2408;32768;0.7779151;0.5650969;-0.265928;0.06925207;-32;-31;32;1496;-2985;-1928;256;-0.07202215;0.0734072;-0.5138504;-0.8516936;-56;-7;13;1018;3090;-2222;128;0.07063711;-0.06648199;0.6800554;0.7267154;43;-52;-11;-1196;4538;1326;4;0.6015898;-0.4889196;0.4445983;0.4487534;11;-18;115;76;4668;1892;16;0.5540166;-0.7973245;-0.1260388;-0.2036011;-94;5;-36;995;5533;-514;2;0.6174599;-0.4487534;-0.4141274;-0.4958449;-26;-5;-32;432;1628;1256;8;0.6135734;-0.6840227;0.2188366;0.3282548;3;-94;16;1285;4265;259;0.6576822;2.761787;-0.3030329;0.6635696;3.298295;-0.4017556;0.6687408;3.769519;-0.4905221;0.6961544;4.412951;-0.1388022;0.450656;4.728205;-0.01594646;0.1031332;4.58954;-0.02773974;-0.5194242;5.198151;-0.3445116;-0.574102;6.071923;-0.7069054;0.9705285;4.706059;-0.01594588;1.25266;4.540569;-0.02773818;1.835477;5.251531;-0.3160643;2.10834;6.122454;-0.5706763;0.3454205;2.719074;-0.3023271;0.1643588;1.271254;-0.4113728;0;0;0;0.3454205;2.719074;-0.3023271;0.1643588;1.271254;-0.4113728;0;0;0
1467460.7673;NotLabelled;NONE;16384;0.8550318;0.4155124;0.2908587;0.1080332;9;52;11;1572;-2888;2688;65536;0.8439291;0.5318559;-0.03462604;0.06094183;-42;8;19;-147;-4134;-1860;8192;0.7705886;0.4252077;-0.468144;0.07894737;33;9;-34;-2044;-2786;2402;32768;0.7863207;0.5567867;-0.2590028;0.06786703;-27;31;23;928;-3591;-1596;256;-0.07202215;0.06648199;-0.5221606;-0.8471961;-36;-20;18;546;3770;-1624;128;0.06371191;-0.05401662;0.6855956;0.7231748;2;-48;-8;86;3206;480;4;0.6040846;-0.4390582;0.432133;0.5055401;-22;-146;72;-366;4592;1416;16;0.5249307;-0.816007;-0.1371191;-0.199446;-22;28;-33;443;4005;2130;2;0.6146574;-0.4445983;-0.4127424;-0.5041551;16;4;-15;-952;4096;-530;8;0.6094183;-0.6829688;0.2313019;0.3296399;4;-1;12;283;4411;621;0.6497245;2.745704;-0.2973825;0.6556002;3.281146;-0.4017313;0.6607608;3.751413;-0.4954392;0.6915047;4.401457;-0.156382;0.4475951;4.720198;-0.03950542;0.09941773;4.58296;-0.04829741;-0.5250099;5.184361;-0.3750025;-0.5955369;6.048628;-0.7569256;0.9673582;4.695619;-0.03950506;1.248703;4.528609;-0.04829651;1.831422;5.237086;-0.3428722;2.101458;6.105007;-0.610419;0.3374629;2.703001;-0.2961925;0.1627313;1.258433;-0.4496573;0;0;0;0.3374629;2.703001;-0.2961925;0.1627313;1.258433;-0.4496573;0;0;0
1467502.6705;NotLabelled;NONE;16384;0.8577344;0.4113573;0.2922437;0.09833795;10;52;12;640;-2912;2618;65536;0.8485118;0.5249307;-0.03047091;0.05955679;-38;27;20;-347;-3442;-2564;8192;0.7756455;0.4210526;-0.4639889;0.07617728;41;7;-34;-1612;-2428;2844;32768;0.7899741;0.5540166;-0.2548476;0.06371191;-27;32;15;1002;-3391;-1534;256;-0.0734072;0.06094183;-0.5263157;-0.8449196;-37;-14;15;908;3376;-1732;128;0.06232687;-0.04847645;0.6883656;0.7210535;39;-19;-5;-704;3880;82;4;0.6006196;-0.4252077;0.4376731;0.5166205;-30;-79;36;-12;4046;1032;16;0.5249307;-0.8154331;-0.1385041;-0.200831;18;14;0;1123;3539;1630;2;0.615811;-0.4515235;-0.4016621;-0.5055401;26;-22;-7;-90;4508;-736;8;0.6094183;-0.6833563;0.234072;0.3268698;5;-8;5;-395;4187;905;0.6374186;2.685056;-0.2113352;0.6432787;3.219064;-0.3227913;0.6484252;3.688043;-0.4227411;0.6829959;4.344297;-0.0962456;0.440917;4.666529;0.01471551;0.09200001;4.531022;0.00887382;-0.5271297;5.130647;-0.3309162;-0.6100807;5.985203;-0.7317266;0.9605407;4.639159;0.01471606;1.240977;4.4705;0.008874983;1.826185;5.170439;-0.300791;2.091158;6.033388;-0.5887032;0.3251572;2.642373;-0.2095323;0.146498;1.226938;-0.5343125;0;0;0;0.3251572;2.642373;-0.2095323;0.146498;1.226938;-0.5343125;0;0;0
1467523.7471;NotLabelled;NONE;16384;0.8598219;0.4085872;0.2922437;0.09141274;8;30;7;516;-3012;2662;65536;0.852333;0.5193906;-0.02631579;0.05540166;-33;34;15;307;-3282;-2638;8192;0.7846147;0.4113573;-0.4584487;0.07063711;31;3;-24;-1268;-1988;2970;32768;0.7966421;0.5484765;-0.2479224;0.05540166;-38;21;12;1014;-3105;-1740;256;-0.0734072;0.05124654;-0.534626;-0.8403334;-32;-17;17;1172;3472;-1798;128;0.06094183;-0.0401662;0.6925207;0.7176962;15;-24;-6;-1408;3934;1046;4;0.5999581;-0.4210526;0.4376731;0.5207756;10;-3;26;-210;3274;-140;16;0.5304709;-0.8103227;-0.1412742;-0.2049861;56;34;35;-263;3015;1638;2;0.614556;-0.4529086;-0.400277;-0.5069252;9;16;-6;-1054;3740;234;8;0.6094183;-0.6828803;0.2354571;0.3268698;5;-8;5;-579;4213;1097;0.6556887;2.679083;-0.1894332;0.6615398;3.212267;-0.304768;0.6666781;3.680508;-0.4081241;0.7062339;4.339706;-0.0881954;0.4665799;4.664786;0.01967941;0.1166796;4.531781;0.01536977;-0.4962219;5.131852;-0.3347668;-0.5828246;5.979331;-0.749588;0.9859899;4.633622;0.01968008;1.265184;4.46287;0.01537126;1.851359;5.157607;-0.3040236;2.117037;6.017723;-0.5996618;0.3434275;2.636414;-0.1872952;0.1516273;1.227387;-0.5318439;0;0;0;0.3434275;2.636414;-0.1872952;0.1516273;1.227387;-0.5318439;0;0;0
1467543.7024;NotLabelled;NONE;16384;0.8621069;0.4058172;0.2922437;0.08171745;1;22;4;986;-2852;2504;65536;0.8587425;0.5096953;-0.0235457;0.04709141;-25;21;0;473;-3180;-2668;8192;0.788422;0.4058172;-0.4570637;0.06925207;33;0;-22;-968;-1976;2638;32768;0.8013755;0.5429363;-0.2451524;0.05401662;-44;5;11;868;-2777;-1888;256;-0.07479224;0.04709141;-0.5373961;-0.8386858;-27;-10;18;1198;3130;-1648;128;0.05955679;-0.03462604;0.6925207;0.718101;3;-20;-8;-1256;3554;954;4;0.5995615;-0.4210526;0.434903;0.5235457;23;0;17;66;3446;-172;16;0.5387812;-0.8019164;-0.1454294;-0.2132964;84;53;55;-17;2957;1518;2;0.6132826;-0.4515235;-0.400277;-0.5096953;0;24;0;-1460;4124;464;8;0.6094183;-0.6828803;0.2354571;0.3268698;5;8;6;-775;4145;677;0.6642366;2.684203;-0.1544394;0.6700733;3.21607;-0.2757052;0.6751986;3.68313;-0.3842698;0.7209017;4.347991;-0.07713183;0.4842234;4.677161;0.02474396;0.1331757;4.547149;0.02339914;-0.470026;5.148146;-0.3416755;-0.5536966;5.989801;-0.7687743;1.003343;4.64148;0.02474421;1.281037;4.468251;0.02339944;1.873531;5.14984;-0.3122505;2.142894;6.003852;-0.6219194;0.3519759;2.641561;-0.1517881;0.1636371;1.23533;-0.5094219;0;0;0;0.3519759;2.641561;-0.1517881;0.1636371;1.23533;-0.5094219;0;0;0
1467564.6955;NotLabelled;NONE;16384;0.863141;0.4044321;0.2922437;0.07756232;0;23;7;778;-2910;2458;65536;0.8614836;0.5055401;-0.02077562;0.04293629;-20;36;4;351;-3262;-2642;8192;0.792262;0.4016621;-0.4542936;0.06786703;37;1;-18;-946;-1540;2668;32768;0.8056133;0.5373961;-0.2437673;0.05263158;-43;2;11;806;-2331;-2122;256;-0.07617728;0.04293629;-0.5415512;-0.8361075;-25;-3;16;1210;2766;-1588;128;0.05955679;-0.03185596;0.6925207;0.7182292;0;-13;-9;-1032;3208;228;4;0.6003528;-0.4210526;0.432133;0.5249307;5;0;8;822;3254;872;16;0.5498615;-0.7915679;-0.1481994;-0.2216066;95;29;61;451;3375;2024;2;0.6122416;-0.4501385;-0.4016621;-0.5110803;-2;17;2;-1582;3992;546;8;0.6108033;-0.6829631;0.2354571;0.3240997;5;19;8;-251;4229;607;0.6668727;2.694502;-0.1119886;0.6727097;3.226411;-0.2330731;0.6778357;3.693508;-0.3414786;0.7278674;4.360134;-0.03887461;0.4933119;4.691465;0.06087837;0.1414544;4.563657;0.06057781;-0.4543037;5.167206;-0.312422;-0.5339998;5.998729;-0.7596522;1.012197;4.652526;0.06087872;1.288797;4.477551;0.06057882;1.884074;5.152303;-0.2838489;2.152837;6.001887;-0.6059681;0.3546119;2.651859;-0.1093531;0.1756926;1.246813;-0.4763571;0;0;0;0.3546119;2.651859;-0.1093531;0.1756926;1.246813;-0.4763571;0;0;0
1467586.5852;NotLabelled;NONE;16384;0.8635043;0.4044321;0.2922437;0.0734072;0;15;5;454;-3056;2354;65536;0.8641982;0.501385;-0.01939058;0.03739612;-15;35;1;601;-3214;-2360;8192;0.7960495;0.3975069;-0.4515235;0.06648199;40;6;-17;-972;-1748;2888;32768;0.8097863;0.5318559;-0.2423823;0.05124654;-41;4;11;694;-2285;-2346;256;-0.07617728;0.0401662;-0.5443213;-0.8344447;-18;0;13;1118;2694;-1450;128;0.05955679;-0.02908587;0.6925207;0.7183467;0;-6;-8;-952;3020;456;4;0.605702;-0.4196676;0.4293629;0.5221606;0;33;2;1796;3206;1262;16;0.5734072;-0.7731398;-0.1412742;-0.2313019;81;-42;50;593;3403;3072;2;0.6111895;-0.4487534;-0.4030471;-0.5124654;0;9;1;-1216;3766;86;8;0.6121883;-0.6835079;0.234072;0.3213296;5;15;8;-75;4145;465;0.6728352;2.706495;-0.06119893;0.6786722;3.238403;-0.1822806;0.6837981;3.705502;-0.2906836;0.7381117;4.374825;0.005154327;0.505648;4.708559;0.1017431;0.1530231;4.582888;0.1029955;-0.4384218;5.187249;-0.2755135;-0.51717;6.014224;-0.7312621;1.024287;4.666476;0.1017436;1.299823;4.489834;0.1029966;1.895841;5.159641;-0.2497006;2.166091;6.004345;-0.5832089;0.3605744;2.663852;-0.05856359;0.1879301;1.260323;-0.4342754;0;0;0;0.3605744;2.663852;-0.05856359;0.1879301;1.260323;-0.4342754;0;0;0
1467608.8412;NotLabelled;NONE;16384;0.8635532;0.4058172;0.2908587;0.07063711;1;0;6;622;-3110;2414;65536;0.865222;0.5;-0.01939058;0.03185596;-10;18;-6;787;-3192;-2378;8192;0.799908;0.3919668;-0.4501385;0.06232687;41;8;-12;-1146;-1956;3370;32768;0.8130819;0.5277008;-0.2409972;0.04847645;-38;13;8;702;-2577;-2682;256;-0.07756232;0.03878116;-0.5457063;-0.8334774;-7;2;9;1114;3158;-1510;128;0.05955679;-0.02770083;0.6925207;0.7184015;0;2;-7;-934;3472;328;4;0.6102487;-0.4210526;0.4265928;0.5180055;12;54;-3;2062;3364;1260;16;0.5844875;-0.7664613;-0.134349;-0.2299169;63;-48;32;-613;3307;3348;2;0.6077824;-0.4473684;-0.4044321;-0.5166205;-1;20;5;-1420;3778;-28;8;0.6135734;-0.6842064;0.234072;0.3171745;2;14;7;-313;4211;445;0.7048107;2.724183;0.03005341;0.7106476;3.256092;-0.09102552;0.7157733;3.723191;-0.1994261;0.7719413;4.394274;0.09204409;0.5403752;4.729215;0.1865924;0.187434;4.604449;0.1888435;-0.3977926;5.211332;-0.1952558;-0.472353;6.033787;-0.6598043;1.058907;4.685819;0.1865928;1.333995;4.508491;0.1888447;1.932079;5.173266;-0.1698269;2.203635;6.012943;-0.5147717;0.3925498;2.681539;0.03268854;0.2126885;1.281611;-0.352938;0;0;0;0.3925498;2.681539;0.03268854;0.2126885;1.281611;-0.352938;0;0;0
1467629.6965;NotLabelled;NONE;16384;0.8645123;0.4072022;0.2867036;0.06786703;-5;-1;5;1098;-2952;2776;65536;0.8669774;0.4972299;-0.02493075;0.02216066;0;8;-19;309;-3636;-2258;8192;0.807794;0.3767313;-0.4501385;0.05401662;22;-2;1;-1390;-2076;3748;32768;0.8247431;0.5110803;-0.2382271;0.04293629;-30;-5;-2;616;-3205;-3762;256;-0.08310249;0.03462604;-0.5443213;-0.834032;0;3;4;920;3826;-1756;128;0.06648199;-0.02631579;0.6911357;0.7191795;-5;5;-5;-732;4264;414;4;0.6192143;-0.4307479;0.4155124;0.5083103;22;54;0;562;3492;270;16;0.5927978;-0.7590268;-0.132964;-0.234072;12;46;19;-1271;3255;3254;2;0.6024517;-0.4459834;-0.4085872;-0.5207756;-6;22;9;-1344;3902;-574;8;0.6135734;-0.6861172;0.234072;0.3130194;-2;6;4;167;4189;205;0.7136353;2.730561;0.06572828;0.7194725;3.262471;-0.05534884;0.7245982;3.72957;-0.1637478;0.7832568;4.401499;0.1252734;0.5529193;4.737606;0.2186784;0.1995351;4.614112;0.2214884;-0.3830059;5.224931;-0.1604465;-0.4523448;6.045885;-0.6284475;1.071292;4.692357;0.2186788;1.345746;4.514055;0.2214893;1.945829;5.169429;-0.1508823;2.218685;6.004624;-0.5055429;0.4013744;2.687918;0.06836301;0.217499;1.289352;-0.3203018;0;0;0;0.4013744;2.687918;0.06836301;0.217499;1.289352;-0.3203018;0;0;0
1467650.7072;NotLabelled;NONE;16384;0.864773;0.4085872;0.2839335;0.06786703;-5;-5;8;1306;-2986;2742;65536;0.8669597;0.4972299;-0.02770083;0.01939058;0;9;-18;365;-3748;-2272;8192;0.8084883;0.3739612;-0.4515235;0.05124654;16;1;3;-1330;-2096;3568;32768;0.8261236;0.5083103;-0.2396122;0.04155125;-25;-5;-5;986;-3051;-3882;256;-0.08448754;0.033241;-0.5443213;-0.8339491;1;1;4;790;3600;-1778;128;0.06786703;-0.02631579;0.6897507;0.7203788;-9;6;-3;-610;4030;580;4;0.6194559;-0.4362881;0.4127424;0.5055401;23;25;-10;142;3710;596;16;0.5914127;-0.7569464;-0.1385041;-0.2409972;-8;61;9;-1157;3133;3134;2;0.6013346;-0.4445983;-0.4099723;-0.5221606;-3;14;10;-1428;3656;-818;8;0.6135734;-0.6867474;0.234072;0.3116343;-4;4;1;239;4165;341;0.7105646;2.73651;0.1016988;0.7164044;3.268675;-0.01825367;0.7215328;3.736002;-0.125665;0.7895495;4.406488;0.1646531;0.5639285;4.745612;0.2586635;0.2088472;4.627079;0.2611776;-0.3658237;5.242857;-0.1246988;-0.4171947;6.060798;-0.6002284;1.081616;4.693099;0.258664;1.353542;4.510962;0.2611789;1.964968;5.141276;-0.1352274;2.24069;5.9594;-0.5256602;0.3983036;2.693861;0.1042363;0.2255409;1.295265;-0.2893882;0;0;0;0.3983036;2.693861;0.1042363;0.2255409;1.295265;-0.2893882;0;0;0
1467671.6932;NotLabelled;NONE;16384;0.865334;0.4085872;0.2825485;0.06648199;-6;-3;11;1450;-2956;2678;65536;0.8669719;0.4972299;-0.02908587;0.0166205;0;4;-14;523;-3802;-2110;8192;0.8099344;0.3711911;-0.4515235;0.04847645;12;5;5;-1320;-2130;3480;32768;0.8274879;0.5055401;-0.2409972;0.0401662;-13;-1;-8;840;-2933;-4100;256;-0.08587258;0.033241;-0.5429363;-0.8347102;7;2;3;698;3476;-1766;128;0.06925207;-0.02631579;0.6869806;0.7228895;-11;6;-2;-564;4018;404;4;0.6167138;-0.4404432;0.4141274;0.5041551;13;-4;-22;420;3794;1098;16;0.5844875;-0.7585211;-0.1468144;-0.2479224;-19;66;-2;801;3423;2316;2;0.5981504;-0.4459834;-0.4113573;-0.5235457;0;4;14;-1494;3756;-794;8;0.6135734;-0.6873742;0.234072;0.3102493;-5;6;0;-141;4225;407;0.705155;2.739331;0.1000263;0.7109993;3.271908;-0.01808028;0.7161318;3.739604;-0.1238706;0.7867224;4.409924;0.1662195;0.5624036;4.74994;0.2601235;0.2068716;4.632767;0.2626897;-0.3634748;5.251309;-0.1251745;-0.4073614;6.069205;-0.6015317;1.079886;4.695447;0.2601238;1.351114;4.512273;0.2626906;1.967646;5.136488;-0.1354541;2.24736;5.951095;-0.5303738;0.3928939;2.696674;0.102404;0.2308473;1.295196;-0.2854877;0;0;0;0.3928939;2.696674;0.102404;0.2308473;1.295196;-0.2854877;0;0;0
1467692.6714;NotLabelled;NONE;16384;0.8649216;0.4113573;0.2797784;0.06648199;-9;-5;12;1320;-2864;2460;65536;0.8669;0.4972299;-0.03185596;0.01523546;0;-1;-11;463;-3772;-2072;8192;0.8099557;0.3698061;-0.4529086;0.04570637;6;9;6;-1184;-2028;3480;32768;0.8275539;0.5055401;-0.2409972;0.03878116;-3;6;-10;840;-3027;-4036;256;-0.08587258;0.03185596;-0.5415512;-0.8356634;10;1;2;762;3462;-1696;128;0.07063711;-0.02631579;0.6855956;0.7240695;-11;10;-1;-698;3890;362;4;0.610189;-0.4432133;0.4224377;0.5027701;3;-10;-35;352;4170;2236;16;0.5817174;-0.760379;-0.1481994;-0.2479224;2;-24;-16;1085;3935;1086;2;0.5971152;-0.4473684;-0.4113573;-0.5235457;2;-1;15;-1280;4016;-542;8;0.6135734;-0.6884674;0.232687;0.3088643;-4;12;0;-57;4203;671;0.700785;2.740209;0.07337523;0.7066386;3.273631;-0.04085374;0.7117791;3.742085;-0.1432388;0.7839865;4.411384;0.1488049;0.5605051;4.751697;0.2436211;0.204675;4.635424;0.2457413;-0.3634852;5.255291;-0.1432149;-0.4031773;6.073097;-0.6200944;1.077847;4.695887;0.2436216;1.348607;4.512015;0.2457423;1.967441;5.130521;-0.1577068;2.250289;5.941574;-0.557676;0.3885237;2.697536;0.07541771;0.2331527;1.29169;-0.2991699;0;0;0;0.3885237;2.697536;0.07541771;0.2331527;1.29169;-0.2991699;0;0;0
1467713.7208;NotLabelled;NONE;16384;0.8651533;0.4127424;0.2770083;0.06648199;-8;-5;10;1308;-3176;2364;65536;0.8668712;0.4972299;-0.033241;0.01385042;3;3;-8;397;-3516;-2204;8192;0.8101048;0.368421;-0.4542936;0.0401662;-7;10;11;-1174;-1850;3424;32768;0.8264858;0.5069252;-0.2423823;0.03462604;11;10;-15;874;-2913;-3674;256;-0.08725762;0.03185596;-0.5401662;-0.8364161;12;2;3;838;3424;-1830;128;0.0734072;-0.02631579;0.6842105;0.7251034;-9;14;-1;-944;3802;432;4;0.6075914;-0.4445983;0.4279778;0.5;-9;-18;-35;378;3920;1814;16;0.5844875;-0.760133;-0.1454294;-0.2437673;14;-47;-17;1081;3901;830;2;0.5943991;-0.4529086;-0.4127424;-0.5207756;-4;-10;23;-1164;3972;-146;8;0.6121883;-0.6906276;0.2299169;0.3088643;-5;6;-4;-137;4243;699;0.7000096;2.745478;0.03811896;0.7058676;3.279289;-0.07427788;0.711012;3.748092;-0.1750539;0.7841936;4.416276;0.1192883;0.5612462;4.756663;0.215091;0.20521;4.641012;0.2165707;-0.3562803;5.264009;-0.1770446;-0.3887814;6.081752;-0.6545775;1.078489;4.69994;0.2152666;1.348922;4.515584;0.2169595;1.974312;5.128256;-0.1852776;2.259639;5.938741;-0.584641;0.3877483;2.702798;0.04000309;0.2328893;1.289867;-0.3071342;0;0;0;0.3877483;2.702798;0.04000309;0.2328893;1.289867;-0.3071342;0;0;0
1467734.8121;NotLabelled;NONE;16384;0.8647097;0.4155124;0.2742382;0.06648199;-7;-11;7;1090;-3052;2378;65536;0.8659856;0.4986149;-0.03601108;0.01246537;9;-3;-11;755;-3480;-2200;8192;0.8087623;0.3698061;-0.4556787;0.03878116;-15;5;15;-1156;-1866;3134;32768;0.8244837;0.5096953;-0.2437673;0.03185596;16;4;-17;786;-2795;-3512;256;-0.09141274;0.03185596;-0.534626;-0.839526;13;6;6;984;3406;-1774;128;0.08033241;-0.02770083;0.6800554;0.7282197;-16;20;-3;-1022;3846;308;4;0.6047955;-0.4445983;0.433518;0.4986149;-5;-23;-29;568;3362;954;16;0.5872576;-0.7609704;-0.1412742;-0.2368421;17;-47;-17;185;3473;1468;2;0.5938324;-0.4542936;-0.4155124;-0.5180055;-8;-9;27;-1110;4046;-204;8;0.6121883;-0.6910872;0.2285319;0.3088643;-6;9;-5;-163;4225;593;0.7007308;2.751067;0.02314958;0.7065924;3.285215;-0.08763314;0.7117403;3.754321;-0.1869916;0.7866299;4.421466;0.1092677;0.5645524;4.762146;0.2060533;0.2082227;4.647398;0.207209;-0.3511606;5.274477;-0.1829086;-0.3809142;6.092145;-0.6607478;1.081649;4.704103;0.2060539;1.351611;4.519054;0.2072105;1.981366;5.126304;-0.196436;2.272101;5.936128;-0.5932314;0.3884694;2.708382;0.02489434;0.2274841;1.291675;-0.3035664;0;0;0;0.3884694;2.708382;0.02489434;0.2274841;1.291675;-0.3035664;0;0;0
1467755.7495;NotLabelled;NONE;16384;0.8639029;0.4196676;0.2700831;0.06786703;-10;-14;8;1480;-2682;2488;65536;0.8641361;0.501385;-0.04155125;0.01246537;14;-10;-9;635;-3548;-2044;8192;0.8059859;0.3725762;-0.4584487;0.03739612;-20;7;20;-988;-1734;2846;32768;0.8237121;0.5096953;-0.2465374;0.03047091;22;1;-18;788;-2595;-3350;256;-0.09418282;0.03185596;-0.5318559;-0.840978;11;7;8;876;3254;-1676;128;0.08310249;-0.02908587;0.6786703;0.7291464;-13;17;-4;-1004;3716;150;4;0.6017954;-0.4445983;0.4376731;0.4986149;-2;-26;-23;788;2952;184;16;0.5900277;-0.7603651;-0.1398892;-0.232687;14;-19;-12;57;3017;1830;2;0.5931456;-0.4570637;-0.4168975;-0.5152354;-11;-3;32;-1012;3962;-192;8;0.6121883;-0.6921606;0.2271468;0.3074792;-7;11;-6;-109;4243;449;0.6986157;2.755424;0.00805378;0.7044884;3.290579;-0.09776248;0.7096461;3.760586;-0.1927592;0.7893939;4.423566;0.1114776;0.5698831;4.764827;0.2119951;0.2126548;4.652905;0.2113189;-0.3440233;5.284427;-0.175487;-0.3694827;6.103511;-0.6511422;1.086504;4.702689;0.2119952;1.35499;4.515503;0.2113194;1.985396;5.122853;-0.191162;2.279289;5.933891;-0.5831178;0.3863542;2.712725;0.009370267;0.2182111;1.293308;-0.3034244;0;0;0;0.3863542;2.712725;0.009370267;0.2182111;1.293308;-0.3034244;0;0;0
1467775.7136;NotLabelled;NONE;16384;0.8639807;0.4210526;0.267313;0.06925207;-11;-6;11;1386;-2762;2714;65536;0.8631932;0.5027701;-0.04432133;0.01246537;16;-10;-2;305;-3506;-1926;8192;0.8039089;0.3753462;-0.4598338;0.03739612;-22;9;22;-998;-1840;2644;32768;0.8224372;0.5110803;-0.2479224;0.03047091;28;0;-16;772;-2389;-3040;256;-0.09556787;0.03047091;-0.5304709;-0.8417476;10;11;10;682;3096;-1478;128;0.08725762;-0.03047091;0.6759003;0.7311747;-11;24;-7;-788;3562;252;4;0.599771;-0.4445983;0.4404432;0.4986149;1;-3;-22;902;3034;-44;16;0.5900277;-0.7607876;-0.1398892;-0.2313019;7;2;-6;101;3349;2002;2;0.5915392;-0.4584487;-0.4210526;-0.5124654;-11;-2;34;-1208;3888;-202;8;0.6121883;-0.6930636;0.2243767;0.3074792;-11;6;-7;-43;4131;271;0.6933615;2.759854;0.0008264184;0.6992373;3.295311;-0.103445;0.7043982;3.765591;-0.1970849;0.7873349;4.426421;0.1109533;0.5695088;4.768232;0.2132506;0.2117108;4.658154;0.2116978;-0.3399833;5.295528;-0.1726404;-0.3570042;6.117534;-0.6436124;1.085803;4.703439;0.2132511;1.353325;4.514882;0.2116989;1.98692;5.123545;-0.1837283;2.285402;5.933359;-0.5747491;0.3811;2.71715;0.002009802;0.2102917;1.295573;-0.2993231;0;0;0;0.3811;2.71715;0.002009802;0.2102917;1.295573;-0.2993231;0;0;0
1467816.8382;NotLabelled;NONE;16384;0.8641571;0.4224377;0.2645429;0.06925207;-4;-8;8;1302;-3292;3074;65536;0.8614803;0.5055401;-0.04570637;0.01385042;17;-8;-2;201;-3644;-1858;8192;0.8012846;0.3795014;-0.4612188;0.03462604;-15;22;21;-780;-2646;3026;32768;0.8199177;0.5138504;-0.2506925;0.02908587;35;5;-17;742;-2671;-2688;256;-0.09833795;0.03185596;-0.5277008;-0.8431172;23;18;9;272;3360;-1704;128;0.09141274;-0.03185596;0.6745152;0.7318867;-11;27;-12;-168;3724;472;4;0.5959849;-0.4515235;0.4432133;0.4944598;9;7;-26;1564;6096;1082;16;0.5900277;-0.7583631;-0.1481994;-0.234072;19;6;-10;883;6217;898;2;0.590879;-0.4598338;-0.4238227;-0.5096953;-9;-12;33;-1370;3726;-138;8;0.6121883;-0.6924474;0.2243767;0.3088643;-14;-8;-7;143;4341;13;0.6916966;2.761417;-0.00719814;0.6975796;3.297506;-0.1081735;0.7027465;3.768353;-0.1989185;0.7882537;4.427943;0.1110683;0.5717809;4.770339;0.2142789;0.213539;4.661722;0.2122758;-0.334625;5.301039;-0.1738839;-0.3463213;6.124479;-0.6425045;1.087807;4.703446;0.2142792;1.354561;4.513809;0.2122766;1.989797;5.125383;-0.1759599;2.290753;5.936204;-0.562976;0.379435;2.718708;-0.006298684;0.2077868;1.295723;-0.3004228;0;0;0;0.379435;2.718708;-0.006298684;0.2077868;1.295723;-0.3004228;0;0;0
