SEP=;
index;label;RightUpperArm_boneIndex;RightUpperArm_quat9x_w;RightUpperArm_quat9x_x;RightUpperArm_quat9x_y;RightUpperArm_quat9x_z;RightUpperArm_gyroscope_x;RightUpperArm_gyroscope_y;RightUpperArm_gyroscope_z;RightUpperArm_accelerometer_x;RightUpperArm_accelerometer_y;RightUpperArm_accelerometer_z;RightLowerArm_boneIndex;RightLowerArm_quat9x_w;RightLowerArm_quat9x_x;RightLowerArm_quat9x_y;RightLowerArm_quat9x_z;RightLowerArm_gyroscope_x;RightLowerArm_gyroscope_y;RightLowerArm_gyroscope_z;RightLowerArm_accelerometer_x;RightLowerArm_accelerometer_y;RightLowerArm_accelerometer_z;LeftUpperArm_boneIndex;LeftUpperArm_quat9x_w;LeftUpperArm_quat9x_x;LeftUpperArm_quat9x_y;LeftUpperArm_quat9x_z;LeftUpperArm_gyroscope_x;LeftUpperArm_gyroscope_y;LeftUpperArm_gyroscope_z;LeftUpperArm_accelerometer_x;LeftUpperArm_accelerometer_y;LeftUpperArm_accelerometer_z;LeftLowerArm_boneIndex;LeftLowerArm_quat9x_w;LeftLowerArm_quat9x_x;LeftLowerArm_quat9x_y;LeftLowerArm_quat9x_z;LeftLowerArm_gyroscope_x;LeftLowerArm_gyroscope_y;LeftLowerArm_gyroscope_z;LeftLowerArm_accelerometer_x;LeftLowerArm_accelerometer_y;LeftLowerArm_accelerometer_z;Chest_boneIndex;Chest_quat9x_w;Chest_quat9x_x;Chest_quat9x_y;Chest_quat9x_z;Chest_gyroscope_x;Chest_gyroscope_y;Chest_gyroscope_z;Chest_accelerometer_x;Chest_accelerometer_y;Chest_accelerometer_z;Spine_boneIndex;Spine_quat9x_w;Spine_quat9x_x;Spine_quat9x_y;Spine_quat9x_z;Spine_gyroscope_x;Spine_gyroscope_y;Spine_gyroscope_z;Spine_accelerometer_x;Spine_accelerometer_y;Spine_accelerometer_z;RightUpperLeg_boneIndex;RightUpperLeg_quat9x_w;RightUpperLeg_quat9x_x;RightUpperLeg_quat9x_y;RightUpperLeg_quat9x_z;RightUpperLeg_gyroscope_x;RightUpperLeg_gyroscope_y;RightUpperLeg_gyroscope_z;RightUpperLeg_accelerometer_x;RightUpperLeg_accelerometer_y;RightUpperLeg_accelerometer_z;RightLowerLeg_boneIndex;RightLowerLeg_quat9x_w;RightLowerLeg_quat9x_x;RightLowerLeg_quat9x_y;RightLowerLeg_quat9x_z;RightLowerLeg_gyroscope_x;RightLowerLeg_gyroscope_y;RightLowerLeg_gyroscope_z;RightLowerLeg_accelerometer_x;RightLowerLeg_accelerometer_y;RightLowerLeg_accelerometer_z;LeftUpperLeg_boneIndex;LeftUpperLeg_quat9x_w;LeftUpperLeg_quat9x_x;LeftUpperLeg_quat9x_y;LeftUpperLeg_quat9x_z;LeftUpperLeg_gyroscope_x;LeftUpperLeg_gyroscope_y;LeftUpperLeg_gyroscope_z;LeftUpperLeg_accelerometer_x;LeftUpperLeg_accelerometer_y;LeftUpperLeg_accelerometer_z;LeftLowerLeg_boneIndex;LeftLowerLeg_quat9x_w;LeftLowerLeg_quat9x_x;LeftLowerLeg_quat9x_y;LeftLowerLeg_quat9x_z;LeftLowerLeg_gyroscope_x;LeftLowerLeg_gyroscope_y;LeftLowerLeg_gyroscope_z;LeftLowerLeg_accelerometer_x;LeftLowerLeg_accelerometer_y;LeftLowerLeg_accelerometer_z;pelvis_x;pelvis_y;pelvis_z;lowerSpine_x;lowerSpine_y;lowerSpine_z;middleSpine_x;middleSpine_y;middleSpine_z;upperSpine_x;upperSpine_y;upperSpine_z;rightClavicle_x;rightClavicle_y;rightClavicle_z;rightShoulder_x;rightShoulder_y;rightShoulder_z;rightElbow_x;rightElbow_y;rightElbow_z;rightWrist_x;rightWrist_y;rightWrist_z;leftClavicle_x;leftClavicle_y;leftClavicle_z;leftShoulder_x;leftShoulder_y;leftShoulder_z;leftElbow_x;leftElbow_y;leftElbow_z;leftWrist_x;leftWrist_y;leftWrist_z;rightHip_x;rightHip_y;rightHip_z;rightKnee_x;rightKnee_y;rightKnee_z;rightAnkle_x;rightAnkle_y;rightAnkle_z;leftHip_x;leftHip_y;leftHip_z;leftKnee_x;leftKnee_y;leftKnee_z;leftAnkle_x;leftAnkle_y;leftAnkle_z;
825457.1224;NotLabelled;16384;0.8368379;0.3725762;0.2285319;0.3296399;-1;-2;-3;2908;-1916;2058;65536;0.5890027;0.5401662;-0.5858725;-0.134349;-1;1;4;3198;-1840;-1663;8192;0.5512465;-0.7534983;-0.3407202;-0.1108033;-1;-2;1;1664;3778;-624;32768;0.5540166;-0.7982479;0.1371191;-0.1925208;-1;-3;-3;1756;3378;1371;256;0.3476454;-0.5041551;-0.5498615;-0.5679988;0;1;-2;480;3902;-710;128;-0.1911357;0.1745152;0.8017022;0.5387812;2;-3;1;-230;3756;-1408;4;-0.567867;0.1814404;-0.4390582;-0.6721862;0;-1;1;2454;3154;184;16;0.7444054;-0.66482;0.05817174;-0.02216066;0;1;1;481;4167;-522;2;0.5277008;-0.7011252;-0.365651;-0.3102493;2;0;4;648;3874;-626;8;0.3434903;-0.8211439;0.2811634;0.3587258;4;0;0;885;3239;2549;-0.4710969;2.532186;0.7336082;-0.4662321;2.975508;0.4157033;-0.4619688;3.364009;0.1346215;-0.3439257;4.079321;0.2480116;-0.5457436;4.445184;0.2607311;-0.9066401;4.354438;0.3014488;-0.5012238;4.792142;-0.4073403;-0.5465168;5.245907;0.4232271;-0.0323429;4.360465;0.2607304;0.2285762;4.167106;0.3014477;-0.06627584;3.294335;0.5835963;-0.4632405;2.506288;0.23836;-0.7833069;2.49417;0.7539031;-0.1023284;1.329012;0.18863;0;0;0;-0.7833069;2.49417;0.7539031;-0.1023284;1.329012;0.18863;0;0;0
825477.0586;NotLabelled;16384;0.8359113;0.3725762;0.2299169;0.3310249;0;-3;-5;2904;-1946;2066;65536;0.5903772;0.5401662;-0.5844875;-0.134349;0;4;4;3234;-1796;-1677;8192;0.5512465;-0.7534983;-0.3407202;-0.1108033;-1;0;1;1646;3748;-620;32768;0.5554016;-0.7978549;0.1357341;-0.1911357;0;-1;-4;1768;3470;1433;256;0.3504155;-0.5055401;-0.5484765;-0.5664024;0;2;-2;536;3996;-652;128;-0.1925208;0.1745152;0.8013707;0.5387812;3;0;1;-160;3782;-1424;4;-0.567867;0.1800554;-0.4390582;-0.6725585;-1;0;1;2390;3206;148;16;0.7444054;-0.66482;0.05817174;-0.02216066;0;4;1;407;4135;-396;2;0.5277008;-0.7017365;-0.365651;-0.3088643;2;-3;3;626;3894;-652;8;0.3434903;-0.8211439;0.2811634;0.3587258;2;-3;0;843;3239;2421;-0.4727225;2.53212;0.731783;-0.4678691;2.974412;0.4124463;-0.4636159;3.362003;0.1301097;-0.3479947;4.077587;0.2442761;-0.5510421;4.442756;0.2573467;-0.911639;4.350755;0.2979057;-0.5043436;4.788459;-0.4098057;-0.5514289;5.242224;0.4206623;-0.0373599;4.359761;0.2573459;0.2242;4.167237;0.2979048;-0.07147871;3.295159;0.5813295;-0.4676973;2.507112;0.2352373;-0.7849318;2.49417;0.7522118;-0.1027351;1.329013;0.1884095;0;0;0;-0.7849318;2.49417;0.7522118;-0.1027351;1.329013;0.1884095;0;0;0
825498.0412;NotLabelled;16384;0.8355291;0.3725762;0.2313019;0.3310249;-1;-3;-5;2950;-1948;2064;65536;0.5903772;0.5401662;-0.5844875;-0.134349;0;3;4;3264;-1922;-1559;8192;0.5512465;-0.7534983;-0.3407202;-0.1108033;-2;0;0;1640;3818;-582;32768;0.5554016;-0.7981854;0.1357341;-0.1897507;1;-2;-5;1788;3536;1439;256;0.3518005;-0.5055401;-0.5470914;-0.5668831;0;1;-3;500;3978;-686;128;-0.1939058;0.1745152;0.8010367;0.5387812;3;1;0;-228;3824;-1444;4;-0.567867;0.1800554;-0.4390582;-0.6725585;-1;2;1;2450;3238;64;16;0.7443629;-0.66482;0.05817174;-0.0235457;0;3;2;513;4211;-432;2;0.5277008;-0.7017365;-0.365651;-0.3088643;2;-4;2;712;3914;-676;8;0.3434903;-0.8212724;0.2825485;0.3573407;1;-3;0;853;3355;2403;-0.4788039;2.530298;0.729043;-0.4739501;2.972605;0.4097262;-0.4696968;3.360208;0.1274071;-0.3554406;4.076114;0.2409251;-0.5591905;4.440903;0.2537023;-0.9196033;4.348243;0.2943939;-0.5094845;4.783872;-0.4129671;-0.5594525;5.239396;0.4163685;-0.04534905;4.358898;0.2537017;0.2165876;4.166916;0.2943931;-0.08094269;3.294838;0.5758737;-0.4720437;2.504248;0.2297598;-0.7910132;2.492347;0.74947;-0.104061;1.329013;0.1876803;0;0;0;-0.7910132;2.492347;0.74947;-0.104061;1.329013;0.1876803;0;0;0
825518.0737;NotLabelled;16384;0.8343596;0.3739612;0.2313019;0.33241;-1;-3;-6;3064;-2004;2090;65536;0.5903772;0.5401662;-0.5844875;-0.134349;0;3;4;3338;-1972;-1583;8192;0.5526316;-0.7526857;-0.3407202;-0.1094183;-1;0;0;1690;3840;-546;32768;0.5554016;-0.7985134;0.1357341;-0.1883656;0;-2;-5;1796;3494;1431;256;0.3531856;-0.5069252;-0.5470914;-0.5647812;0;1;-3;448;4032;-636;128;-0.1939058;0.1745152;0.8010367;0.5387812;3;1;1;-176;3872;-1514;4;-0.567867;0.1800554;-0.4390582;-0.6725585;-1;0;-1;2368;3228;102;16;0.7442533;-0.66482;0.05955679;-0.0235457;0;-6;1;551;4149;-434;2;0.5277008;-0.7017365;-0.365651;-0.3088643;2;-2;0;702;4008;-748;8;0.3448753;-0.8206918;0.2825485;0.3573407;0;-3;1;829;3267;2411;-0.4798213;2.530006;0.7297264;-0.4749674;2.972327;0.4104295;-0.4707138;3.359943;0.1281278;-0.3588737;4.076111;0.2423948;-0.5638461;4.440202;0.2555107;-0.9239532;4.346294;0.2960486;-0.5139343;4.780809;-0.4120553;-0.5656985;5.236334;0.4171699;-0.04973292;4.35992;0.2555105;0.2128387;4.168774;0.2960489;-0.08530101;3.296696;0.5768849;-0.4761381;2.505402;0.2320847;-0.7920305;2.492055;0.7501515;-0.1038633;1.32872;0.1898514;0;0;0;-0.7920305;2.492055;0.7501515;-0.1038633;1.32872;0.1898514;0;0;0
825538.2154;NotLabelled;16384;0.8339745;0.3739612;0.232687;0.33241;-1;-3;-6;3026;-2028;2120;65536;0.5904779;0.5415512;-0.5831025;-0.134349;0;3;4;3312;-2012;-1545;8192;0.5526316;-0.7526857;-0.3407202;-0.1094183;-2;0;1;1726;3854;-588;32768;0.5554016;-0.7985134;0.1357341;-0.1883656;0;-3;-5;1834;3522;1485;256;0.3545706;-0.5069252;-0.5457063;-0.5652531;0;0;-3;532;4046;-644;128;-0.1939058;0.1731302;0.8022667;0.5373961;1;1;1;-200;3868;-1468;4;-0.567867;0.1800554;-0.4404432;-0.6716523;-2;0;-1;2374;3170;146;16;0.7442958;-0.66482;0.05955679;-0.02216066;1;-3;1;437;4207;-422;2;0.5277008;-0.7024564;-0.3642659;-0.3088643;1;0;-1;656;3944;-638;8;0.3448753;-0.8206918;0.2825485;0.3573407;0;1;1;883;3313;2531;-0.4824045;2.529723;0.7284047;-0.4775507;2.972043;0.4091077;-0.4732971;3.359659;0.1268061;-0.3603858;4.075885;0.2396481;-0.564827;4.440298;0.2521196;-0.9250572;4.34699;0.2929493;-0.5137367;4.782247;-0.4139422;-0.5695682;5.237772;0.4150189;-0.05083058;4.359271;0.2521188;0.2114765;4.167824;0.2929484;-0.08501352;3.295499;0.5747614;-0.4746441;2.503503;0.2302064;-0.7946138;2.491771;0.7488298;-0.1037064;1.328436;0.1919124;0;0;0;-0.7946138;2.491771;0.7488298;-0.1037064;1.328436;0.1919124;0;0;0
825560.037;NotLabelled;16384;0.8330331;0.3739612;0.234072;0.333795;-1;-2;-5;3076;-1888;2076;65536;0.5904779;0.5415512;-0.5831025;-0.134349;0;2;4;3382;-2044;-1593;8192;0.5526316;-0.7526857;-0.3407202;-0.1094183;-2;0;1;1678;3884;-622;32768;0.5554016;-0.7988389;0.1357341;-0.1869806;0;-1;-5;1788;3600;1399;256;0.3559557;-0.5083103;-0.5443213;-0.5644737;0;0;-3;426;4048;-652;128;-0.1952908;0.1731302;0.8019307;0.5373961;0;0;1;-216;3912;-1438;4;-0.567867;0.1800554;-0.4404432;-0.6716523;-1;-2;-1;2418;3154;146;16;0.7441837;-0.66482;0.06094183;-0.02216066;1;-1;2;421;4137;-420;2;0.5277008;-0.7024564;-0.3642659;-0.3088643;0;-2;0;704;4020;-624;8;0.3448753;-0.8206918;0.2825485;0.3573407;0;0;1;939;3265;2613;-0.4804948;2.531492;0.7259549;-0.4756558;2.972466;0.4048003;-0.4714155;3.358891;0.1208706;-0.3609169;4.075378;0.2344462;-0.5665773;4.439092;0.2472491;-0.9264997;4.34454;0.2879287;-0.5152704;4.778677;-0.4197047;-0.5729408;5.236207;0.4080254;-0.05231284;4.359784;0.2472489;0.2106266;4.169174;0.2879286;-0.08647497;3.29685;0.5690974;-0.4753561;2.504854;0.223697;-0.7927031;2.493627;0.7465541;-0.1047101;1.328734;0.189285;0;0;0;-0.7927031;2.493627;0.7465541;-0.1047101;1.328734;0.189285;0;0;0
825580.2518;NotLabelled;16384;0.8320861;0.3739612;0.2354571;0.33518;-2;0;-5;3088;-1894;2028;65536;0.5908855;0.5429363;-0.5817174;-0.132964;0;3;4;3268;-2016;-1543;8192;0.5526316;-0.7522574;-0.3421052;-0.1080332;-2;0;4;1636;3742;-580;32768;0.5567867;-0.7984317;0.134349;-0.1855956;1;0;-5;1772;3532;1349;256;0.3573407;-0.5083103;-0.5429363;-0.5649323;0;0;-3;438;3998;-744;128;-0.1952908;0.1731302;0.8010008;0.5387812;-1;0;1;-210;3884;-1380;4;-0.566482;0.1800554;-0.4404432;-0.6728209;-2;-3;-1;2496;3130;164;16;0.7441837;-0.66482;0.06094183;-0.02216066;1;-1;1;441;4221;-510;2;0.5277008;-0.7031729;-0.3628809;-0.3088643;1;-1;0;698;3920;-732;8;0.3448753;-0.8206918;0.2825485;0.3573407;0;-1;1;945;3195;2565;-0.4831461;2.53121;0.7245549;-0.4783069;2.972198;0.403419;-0.4740663;3.358634;0.119506;-0.3642436;4.075103;0.2338461;-0.5702397;4.438615;0.2469955;-0.9300817;4.34369;0.2875189;-0.5171081;4.775722;-0.4203866;-0.5789239;5.233252;0.4070437;-0.0559027;4.359779;0.2469947;0.2072051;4.169368;0.2875176;-0.09129921;3.297043;0.5671958;-0.4789428;2.504349;0.2220067;-0.7953545;2.493343;0.7451521;-0.1045787;1.32845;0.1913358;0;0;0;-0.7953545;2.493343;0.7451521;-0.1045787;1.32845;0.1913358;0;0;0
825601.3139;NotLabelled;16384;0.8320861;0.3739612;0.2354571;0.33518;-1;-1;-4;2972;-1918;2066;65536;0.5922458;0.5429363;-0.5803324;-0.132964;0;2;4;3294;-2062;-1499;8192;0.5526316;-0.7522574;-0.3421052;-0.1080332;-1;0;4;1524;3804;-566;32768;0.5567867;-0.7984317;0.134349;-0.1855956;1;1;-5;1708;3486;1417;256;0.3601108;-0.5096953;-0.5415512;-0.5632523;0;0;-2;422;3928;-708;128;-0.1966759;0.1731302;0.8006619;0.5387812;-1;-1;1;-218;3826;-1446;4;-0.566482;0.1786704;-0.4404432;-0.6731901;-1;-2;-2;2522;3162;172;16;0.7441837;-0.66482;0.06094183;-0.02216066;1;-3;2;419;4207;-528;2;0.5277008;-0.7031729;-0.3628809;-0.3088643;1;-2;0;706;3906;-706;8;0.3448753;-0.8202136;0.2839335;0.3573407;0;-3;0;965;3257;2545;-0.4853175;2.532052;0.7206196;-0.4804669;2.974074;0.4009089;-0.4762163;3.361425;0.1182446;-0.3688019;4.078146;0.2332954;-0.576012;4.440955;0.2467663;-0.9355412;4.34479;0.287144;-0.5231322;4.774706;-0.4223775;-0.5870435;5.236085;0.4027536;-0.06141478;4.363836;0.246766;0.202321;4.174265;0.2871439;-0.09640804;3.303014;0.569912;-0.4806404;2.50781;0.2266884;-0.7975266;2.494119;0.7410833;-0.1049946;1.32845;0.1911077;0;0;0;-0.7975266;2.494119;0.7410833;-0.1049946;1.32845;0.1911077;0;0;0
825622.2214;NotLabelled;16384;0.8316929;0.3739612;0.2368421;0.33518;-3;-1;-4;2984;-1958;2058;65536;0.5922458;0.5429363;-0.5803324;-0.132964;0;2;3;3256;-2054;-1539;8192;0.5526316;-0.7522574;-0.3421052;-0.1080332;-1;-2;2;1540;3802;-490;32768;0.5567867;-0.7989841;0.132964;-0.1842105;0;0;-6;1854;3482;1287;256;0.3614958;-0.5096953;-0.5401662;-0.5636949;0;1;-4;386;3946;-704;128;-0.1966759;0.1731302;0.8006619;0.5387812;0;-3;1;-190;3798;-1478;4;-0.566482;0.1786704;-0.4418283;-0.6722818;0;0;-2;2460;3208;128;16;0.7441837;-0.66482;0.06094183;-0.02216066;1;1;1;569;4191;-390;2;0.5277008;-0.7031729;-0.3628809;-0.3088643;1;-3;1;780;3922;-732;8;0.3448753;-0.8202136;0.2839335;0.3573407;0;-2;0;937;3205;2533;-0.4914273;2.530233;0.7177168;-0.4865764;2.972268;0.3980243;-0.4823255;3.359631;0.1153759;-0.3762189;4.076666;0.2296757;-0.5840971;4.439105;0.2428054;-0.943442;4.342318;0.2833349;-0.5206522;4.772204;-0.4200679;-0.5874788;5.235332;0.403852;-0.06935825;4.362937;0.2428077;0.1947334;4.173895;0.2833408;-0.1081186;3.302656;0.561725;-0.4898962;2.507451;0.215773;-0.8036364;2.492299;0.7381787;-0.1063532;1.32845;0.1903552;0;0;0;-0.8036364;2.492299;0.7381787;-0.1063532;1.32845;0.1903552;0;0;0
825643.5205;NotLabelled;16384;0.8316929;0.3739612;0.2368421;0.33518;-3;0;-5;3044;-1894;2014;65536;0.5922458;0.5429363;-0.5803324;-0.132964;0;3;4;3200;-1980;-1539;8192;0.5540166;-0.7514358;-0.3421052;-0.1066482;-3;-2;1;1582;3694;-482;32768;0.5567867;-0.7989841;0.132964;-0.1842105;0;-3;-6;1902;3430;1253;256;0.3628809;-0.5110803;-0.5387812;-0.5628758;0;0;-2;434;3920;-802;128;-0.1966759;0.1731302;0.8006619;0.5387812;-1;0;1;-196;3842;-1496;4;-0.566482;0.1786704;-0.4418283;-0.6722818;-2;0;-1;2390;3224;140;16;0.7453763;-0.6634349;0.06094183;-0.0235457;1;1;1;563;4211;-442;2;0.5277008;-0.7044921;-0.3614958;-0.3074792;1;-3;0;786;3932;-718;8;0.3448753;-0.8202136;0.2839335;0.3573407;1;0;0;869;3255;2463;-0.488932;2.531787;0.7178758;-0.484081;2.973822;0.3981833;-0.4798302;3.361185;0.1155351;-0.3761247;4.078463;0.2305183;-0.5852094;4.440195;0.2439588;-0.9442354;4.342175;0.2843503;-0.5265461;4.770958;-0.4227632;-0.5951663;5.234086;0.4010086;-0.07021986;4.36574;0.2439583;0.1944939;4.177541;0.2843496;-0.1069774;3.306289;0.5641921;-0.4882024;2.509666;0.2209054;-0.8011411;2.493853;0.7383378;-0.1067675;1.32845;0.1901231;0;0;0;-0.8011411;2.493853;0.7383378;-0.1067675;1.32845;0.1901231;0;0;0
825663.0305;NotLabelled;16384;0.8307375;0.3739612;0.2382271;0.3365651;-3;-1;-5;3020;-1934;2002;65536;0.59233;0.5443213;-0.5789474;-0.132964;-1;3;4;3304;-1964;-1467;8192;0.5540166;-0.7516311;-0.3421052;-0.1052632;-4;-1;0;1600;3700;-538;32768;0.5581717;-0.7981036;0.134349;-0.1828255;0;-5;-5;1832;3394;1285;256;0.3642659;-0.5124654;-0.5387812;-0.5607178;0;0;-1;422;3918;-674;128;-0.1966759;0.1731302;0.7997281;0.5401662;0;2;0;-222;3840;-1474;4;-0.566482;0.1786704;-0.4432133;-0.6713695;-1;0;-2;2382;3210;160;16;0.7452618;-0.6634349;0.06232687;-0.0235457;2;0;2;467;4167;-484;2;0.5277008;-0.7044921;-0.3614958;-0.3074792;1;0;0;790;3940;-740;8;0.3448753;-0.8202136;0.2839335;0.3573407;0;1;1;853;3185;2485;-0.4969155;2.530915;0.7174317;-0.4920647;2.97295;0.3977391;-0.4878138;3.360313;0.1150908;-0.3847668;4.07757;0.2307871;-0.5941774;4.439103;0.2445503;-0.9531211;4.340722;0.2847958;-0.531877;4.769505;-0.4202059;-0.6046438;5.232633;0.4032102;-0.0791214;4.365109;0.2445498;0.1857552;4.177107;0.2847953;-0.1141333;3.305628;0.5656263;-0.4936254;2.509005;0.2204248;-0.8091246;2.492981;0.7378936;-0.1119997;1.327578;0.1931813;0;0;0;-0.8091246;2.492981;0.7378936;-0.1119997;1.327578;0.1931813;0;0;0
825684.0399;NotLabelled;16384;0.8297139;0.3753462;0.2396122;0.3365651;-4;0;-5;3054;-1894;2016;65536;0.59233;0.5443213;-0.5789474;-0.132964;-2;3;4;3246;-2068;-1463;8192;0.5554016;-0.7506083;-0.3421052;-0.1052632;-3;-2;1;1594;3712;-502;32768;0.5581717;-0.7984197;0.134349;-0.1814404;0;-5;-3;1740;3458;1401;256;0.365651;-0.5124654;-0.5373961;-0.5611452;0;0;-1;418;3944;-644;128;-0.1966759;0.1731302;0.8006619;0.5387812;0;0;0;-166;3830;-1370;4;-0.566482;0.1786704;-0.4432133;-0.6713695;-1;1;-2;2364;3174;144;16;0.7452618;-0.6634349;0.06232687;-0.0235457;2;0;1;421;4203;-476;2;0.5277008;-0.7044921;-0.3614958;-0.3074792;0;1;0;688;3866;-776;8;0.3448753;-0.8202136;0.2839335;0.3573407;0;1;0;917;3179;2515;-0.4954439;2.53223;0.7180884;-0.4905819;2.975295;0.3998258;-0.4863211;3.363569;0.1184303;-0.3821497;4.080899;0.2326586;-0.5910062;4.442777;0.2457574;-0.9500874;4.345023;0.2863038;-0.5274098;4.771673;-0.4191337;-0.6043162;5.236792;0.4027825;-0.07606335;4.367999;0.2457566;0.1885389;4.179676;0.2863024;-0.112756;3.308903;0.5678183;-0.4884855;2.511244;0.2208957;-0.8076537;2.49423;0.7384169;-0.1119244;1.327286;0.1952228;0;0;0;-0.8076537;2.49423;0.7384169;-0.1119244;1.327286;0.1952228;0;0;0
825705.0435;NotLabelled;16384;0.8293126;0.3753462;0.2409972;0.3365651;-3;0;-5;3002;-1864;1994;65536;0.5924077;0.5457063;-0.5775623;-0.132964;-2;4;3;3160;-2088;-1423;8192;0.5554016;-0.7514307;-0.3407202;-0.1038781;-1;-3;1;1656;3646;-544;32768;0.5581717;-0.7987332;0.134349;-0.1800554;-1;-3;-3;1726;3354;1467;256;0.368421;-0.5138504;-0.536011;-0.5593888;0;2;0;360;3910;-624;128;-0.1980609;0.1731302;0.8003203;0.5387812;0;2;0;-186;3714;-1492;4;-0.5650969;0.1800554;-0.4432133;-0.6721663;0;0;-2;2434;3186;176;16;0.7452618;-0.6634349;0.06232687;-0.0235457;2;0;1;571;4159;-524;2;0.5277008;-0.7044921;-0.3614958;-0.3074792;1;0;0;608;3868;-814;8;0.3448753;-0.8208156;0.2839335;0.3559557;0;0;0;957;3277;2497;-0.4970615;2.532164;0.7161823;-0.4922108;2.974199;0.3964898;-0.48796;3.361562;0.1138414;-0.3861847;4.079131;0.2287261;-0.5962428;4.440302;0.2421219;-0.9550027;4.34132;0.2825338;-0.5340836;4.768528;-0.4236177;-0.6127919;5.233645;0.3981283;-0.08105461;4.367234;0.2421212;0.184166;4.179753;0.2825328;-0.1147413;3.308057;0.5637343;-0.4902281;2.509712;0.2181309;-0.8092706;2.494231;0.7366444;-0.1123521;1.327286;0.1949771;0;0;0;-0.8092706;2.494231;0.7366444;-0.1123521;1.327286;0.1949771;0;0;0
825726.0381;NotLabelled;16384;0.8289089;0.3753462;0.2423823;0.3365651;-3;0;-4;3102;-1786;1988;65536;0.5934431;0.5457063;-0.5761772;-0.134349;-2;3;3;3302;-2124;-1415;8192;0.5554016;-0.7516209;-0.3407202;-0.1024931;0;-3;1;1726;3634;-540;32768;0.5581717;-0.7987332;0.134349;-0.1800554;-1;-2;-3;1772;3382;1445;256;0.368421;-0.5152354;-0.534626;-0.5594403;0;0;0;380;3976;-654;128;-0.1980609;0.1731302;0.8003203;0.5387812;1;2;-1;-208;3696;-1498;4;-0.5650969;0.1800554;-0.4445983;-0.6712509;0;0;-1;2382;3212;202;16;0.7452618;-0.6634349;0.06232687;-0.0235457;2;-1;0;595;4177;-502;2;0.5277008;-0.7044921;-0.3614958;-0.3074792;0;-1;0;688;3900;-766;8;0.3448753;-0.8208156;0.2839335;0.3559557;0;-2;0;997;3195;2521;-0.5019083;2.534765;0.7052219;-0.4970574;2.976812;0.3855474;-0.4928065;3.364187;0.1029148;-0.3922808;4.082067;0.2169607;-0.6029745;4.44288;0.2299768;-0.9615526;4.343311;0.2705603;-0.5371767;4.769376;-0.434212;-0.6218426;5.236478;0.3858149;-0.08765811;4.370723;0.2299766;0.1778999;4.183758;0.27056;-0.1234945;3.312378;0.5500849;-0.4970155;2.513348;0.2039328;-0.8141174;2.49683;0.7256823;-0.1137499;1.327286;0.1941651;0;0;0;-0.8141174;2.49683;0.7256823;-0.1137499;1.327286;0.1941651;0;0;0
825746.1604;NotLabelled;16384;0.8285027;0.3753462;0.2437673;0.3365651;-2;1;-4;3108;-1920;2000;65536;0.5947847;0.5457063;-0.5747922;-0.134349;-2;2;3;3222;-2062;-1405;8192;0.5554016;-0.7516209;-0.3407202;-0.1024931;0;-4;1;1652;3682;-548;32768;0.5567867;-0.799776;0.1357341;-0.1786704;-2;-3;-3;1744;3362;1467;256;0.3698061;-0.5152354;-0.534626;-0.5585257;0;1;0;430;4002;-620;128;-0.1980609;0.1731302;0.8003203;0.5387812;0;0;0;-220;3734;-1466;4;-0.5650969;0.1800554;-0.4445983;-0.6712509;0;-1;0;2296;3208;188;16;0.7464924;-0.6620498;0.06232687;-0.0235457;2;0;0;447;4171;-494;2;0.5277008;-0.7044921;-0.3614958;-0.3074792;0;-1;0;672;3864;-744;8;0.3448753;-0.8197328;0.2853186;0.3573407;0;-2;0;875;3201;2519;-0.4999574;2.536298;0.7048258;-0.4951067;2.978346;0.3851513;-0.4908559;3.36572;0.1025186;-0.3903645;4.083252;0.2187627;-0.6010567;4.444029;0.2327737;-0.9596537;4.344347;0.272907;-0.5327407;4.769266;-0.4310228;-0.6166465;5.236276;0.3891345;-0.08574176;4.371861;0.2327734;0.1797955;4.18477;0.2729069;-0.1233915;3.314098;0.5526983;-0.4958936;2.515069;0.2054501;-0.8121665;2.498363;0.7252864;-0.1143199;1.327286;0.19383;0;0;0;-0.8121665;2.498363;0.7252864;-0.1143199;1.327286;0.19383;0;0;0
825768.1961;NotLabelled;16384;0.8285027;0.3753462;0.2437673;0.3365651;-2;1;-4;3130;-1886;1984;65536;0.5947847;0.5457063;-0.5747922;-0.134349;-3;2;3;3252;-2050;-1407;8192;0.5554016;-0.7518085;-0.3407202;-0.101108;0;-3;1;1640;3670;-542;32768;0.5567867;-0.799776;0.1357341;-0.1786704;-1;-2;-3;1644;3396;1461;256;0.3711911;-0.5166205;-0.533241;-0.5576509;-1;0;0;420;3896;-622;128;-0.1980609;0.1731302;0.8003203;0.5387812;-1;-2;0;-162;3772;-1482;4;-0.5650969;0.1800554;-0.4445983;-0.6712509;-1;-4;0;2352;3204;256;16;0.7464924;-0.6620498;0.06232687;-0.0235457;1;0;0;609;4189;-544;2;0.5277008;-0.7052011;-0.3601108;-0.3074792;1;-5;1;686;3840;-788;8;0.3448753;-0.8197328;0.2853186;0.3573407;0;-3;0;983;3191;2457;-0.506323;2.535712;0.704186;-0.5014723;2.97776;0.3845113;-0.4972215;3.365135;0.1018786;-0.397329;4.082996;0.2165931;-0.6083353;4.443616;0.2299119;-0.9668324;4.343701;0.2703587;-0.5405917;4.767475;-0.434669;-0.6233024;5.236224;0.3846168;-0.09295686;4.371902;0.2299109;0.1727569;4.18513;0.2703573;-0.1307996;3.314458;0.5497479;-0.5062274;2.516541;0.2030928;-0.8185321;2.497778;0.7246465;-0.1195547;1.326701;0.1946782;0;0;0;-0.8185321;2.497778;0.7246465;-0.1195547;1.326701;0.1946782;0;0;0
825790.0192;NotLabelled;16384;0.8275296;0.3753462;0.2451524;0.3379501;-2;0;-4;3060;-1832;2008;65536;0.5961201;0.5457063;-0.5734072;-0.134349;-3;1;3;3266;-2166;-1437;8192;0.5554016;-0.7518085;-0.3407202;-0.101108;0;-4;1;1688;3644;-512;32768;0.5567867;-0.8000842;0.1357341;-0.1772853;-2;-2;-2;1728;3376;1399;256;0.3725762;-0.5166205;-0.533241;-0.5567265;-1;-1;1;422;3918;-672;128;-0.1980609;0.1731302;0.8003203;0.5387812;0;-2;0;-164;3794;-1474;4;-0.5650969;0.1786704;-0.4445983;-0.671621;-1;-3;0;2424;3166;124;16;0.7464924;-0.6620498;0.06232687;-0.0235457;1;-2;0;559;4175;-502;2;0.5277008;-0.7052011;-0.3601108;-0.3074792;1;-3;0;748;3854;-766;8;0.3434903;-0.8203142;0.2853186;0.3573407;-1;-3;0;1005;3229;2469;-0.5099931;2.535713;0.7000188;-0.5051423;2.977761;0.3803441;-0.5008914;3.365135;0.09771144;-0.401628;4.082978;0.2130831;-0.6129445;4.443405;0.2266994;-0.971361;4.343147;0.2670113;-0.5430434;4.766921;-0.4367564;-0.6299145;5.235671;0.3820989;-0.09750488;4.372133;0.2266991;0.1683637;4.185552;0.2670111;-0.1361704;3.31559;0.5475487;-0.5098328;2.517673;0.1989908;-0.8222023;2.497778;0.7204792;-0.1205419;1.3267;0.1940684;0;0;0;-0.8222023;2.497778;0.7204792;-0.1205419;1.3267;0.1940684;0;0;0
825810.0193;NotLabelled;16384;0.8276826;0.3753462;0.2465374;0.3365651;-1;3;-2;3096;-1822;1994;65536;0.5961201;0.5457063;-0.5734072;-0.134349;-3;0;2;3138;-2140;-1475;8192;0.5567867;-0.7515953;-0.3393352;-0.09972299;0;-4;0;1706;3684;-516;32768;0.5567867;-0.8000842;0.1357341;-0.1772853;-3;-4;0;1738;3424;1419;256;0.3725762;-0.5180055;-0.533241;-0.5554379;-1;-1;1;410;3928;-624;128;-0.1980609;0.1731302;0.8003203;0.5387812;2;-3;0;-208;3778;-1388;4;-0.5650969;0.1786704;-0.4459834;-0.670702;0;-2;0;2378;3138;132;16;0.7463756;-0.6620498;0.06371191;-0.0235457;1;-4;0;529;4163;-544;2;0.5277008;-0.7059066;-0.3587258;-0.3074792;0;-4;0;652;3870;-766;8;0.3434903;-0.8198311;0.2867036;0.3573407;0;-2;0;895;3227;2535;-0.5124809;2.533903;0.7010134;-0.50763;2.975951;0.3813388;-0.503379;3.363326;0.09870613;-0.4047027;4.081495;0.212538;-0.6163268;4.441768;0.2254574;-0.9746448;4.341285;0.2660844;-0.5465558;4.76289;-0.4391239;-0.6322433;5.233373;0.3788613;-0.1008258;4.370941;0.2254568;0.1652157;4.184674;0.2660841;-0.1399187;3.314713;0.5459686;-0.5133706;2.516115;0.1987487;-0.8246899;2.495969;0.7214739;-0.1209573;1.3267;0.1938096;0;0;0;-0.8246899;2.495969;0.7214739;-0.1209573;1.3267;0.1938096;0;0;0
825831.0398;NotLabelled;16384;0.8276826;0.3753462;0.2465374;0.3365651;-1;2;-2;3112;-1844;2008;65536;0.5974492;0.5457063;-0.5720221;-0.134349;-3;1;2;3188;-2134;-1469;8192;0.5567867;-0.7515953;-0.3393352;-0.09972299;0;-2;0;1756;3654;-612;32768;0.5567867;-0.8001537;0.1371191;-0.1759003;-2;-4;0;1766;3404;1383;256;0.3753462;-0.5193906;-0.5318559;-0.5536045;-1;-1;2;348;3904;-638;128;-0.199446;0.1745152;0.7996753;0.5387812;1;-2;-1;-242;3794;-1458;4;-0.5637119;0.1786704;-0.4459834;-0.6718665;0;-2;0;2412;3182;142;16;0.7463756;-0.6620498;0.06371191;-0.0235457;1;-2;0;493;4209;-486;2;0.5277008;-0.7065083;-0.3587258;-0.3060942;0;-3;0;694;3896;-740;8;0.3434903;-0.8198311;0.2867036;0.3573407;0;0;0;901;3247;2503;-0.5095115;2.53513;0.7033058;-0.5046605;2.977178;0.3836312;-0.5004095;3.364553;0.1009986;-0.3999671;4.082471;0.2148694;-0.6107041;4.443263;0.2278059;-0.9692688;4.34366;0.268425;-0.5406201;4.765136;-0.4365206;-0.6286641;5.235619;0.3812141;-0.09537895;4.371168;0.2278058;0.170203;4.184245;0.2684253;-0.1330768;3.313676;0.5484352;-0.5055267;2.515077;0.2001404;-0.8217207;2.497196;0.723766;-0.1205356;1.326404;0.1960869;0;0;0;-0.8217207;2.497196;0.723766;-0.1205356;1.326404;0.1960869;0;0;0
825852.0588;NotLabelled;16384;0.8276826;0.3753462;0.2465374;0.3365651;-1;1;-1;3110;-1858;2000;65536;0.5974492;0.5457063;-0.5720221;-0.134349;-3;0;0;3268;-2120;-1457;8192;0.5567867;-0.7517778;-0.3393352;-0.09833795;0;-2;0;1640;3722;-620;32768;0.5567867;-0.8001537;0.1371191;-0.1759003;-1;-3;-1;1768;3406;1373;256;0.3753462;-0.5207756;-0.5304709;-0.5536322;0;-1;3;458;4050;-662;128;-0.199446;0.1745152;0.7996753;0.5387812;1;-2;-1;-168;3804;-1450;4;-0.5637119;0.1772853;-0.4459834;-0.6722333;0;-2;0;2392;3238;120;16;0.7476018;-0.6606648;0.06371191;-0.0235457;2;0;0;531;4153;-476;2;0.5277008;-0.7065083;-0.3587258;-0.3060942;1;-5;1;698;3884;-774;8;0.3434903;-0.8198311;0.2867036;0.3573407;0;0;0;1009;3181;2481;-0.5151729;2.535947;0.6949946;-0.5103184;2.978321;0.3757718;-0.5060643;3.365983;0.09353495;-0.4068074;4.084211;0.2064952;-0.6181476;4.444664;0.2190199;-0.9765375;4.344511;0.2598256;-0.5428799;4.765985;-0.4420497;-0.6339159;5.238196;0.3743609;-0.1027021;4.373435;0.2190192;0.1632003;4.187008;0.2598246;-0.1420656;3.316438;0.5376679;-0.5127808;2.517872;0.1874547;-0.8273823;2.497991;0.7154127;-0.121954;1.326404;0.1952081;0;0;0;-0.8273823;2.497991;0.7154127;-0.121954;1.326404;0.1952081;0;0;0
825873.0445;NotLabelled;16384;0.8272688;0.3753462;0.2479224;0.3365651;-1;1;-1;3096;-1858;1996;65536;0.5974492;0.5457063;-0.5720221;-0.134349;-3;0;0;3272;-2146;-1537;8192;0.5567867;-0.7517778;-0.3393352;-0.09833795;1;-3;0;1604;3692;-616;32768;0.5554016;-0.8011158;0.1371191;-0.1759003;-1;-3;0;1814;3416;1465;256;0.3767313;-0.5221606;-0.5304709;-0.5513823;-1;-1;4;436;3994;-618;128;-0.199446;0.1745152;0.8006067;0.5373961;1;-2;-1;-198;3850;-1454;4;-0.5637119;0.1772853;-0.4459834;-0.6722333;-1;0;-1;2420;3220;186;16;0.7476018;-0.6606648;0.06371191;-0.0235457;2;0;0;559;4169;-510;2;0.5277008;-0.7072099;-0.3573407;-0.3060942;1;-2;1;674;3884;-678;8;0.3434903;-0.819226;0.2867036;0.3587258;0;-3;0;925;3183;2517;-0.5230879;2.533539;0.6962898;-0.5182335;2.975913;0.3770669;-0.5139795;3.363575;0.0948301;-0.4147626;4.081462;0.2099705;-0.6261045;4.441879;0.2234817;-0.9845121;4.341608;0.2638409;-0.5486901;4.763083;-0.4366925;-0.6421399;5.235293;0.3794451;-0.1106597;4.370644;0.2234815;0.155224;4.184093;0.2638411;-0.1510693;3.314236;0.5427806;-0.5207472;2.51567;0.1914729;-0.8352972;2.495583;0.7167081;-0.1273634;1.325802;0.1958427;0;0;0;-0.8352972;2.495583;0.7167081;-0.1273634;1.325802;0.1958427;0;0;0
825893.0615;NotLabelled;16384;0.8272688;0.3753462;0.2479224;0.3365651;-1;1;0;3124;-1802;1998;65536;0.5974492;0.5457063;-0.5720221;-0.134349;-3;1;0;3322;-2176;-1501;8192;0.5567867;-0.7524014;-0.3379501;-0.09833795;1;-2;0;1674;3720;-554;32768;0.5554016;-0.8008775;0.1385041;-0.1759003;-1;-2;0;1794;3358;1449;256;0.3781163;-0.5235457;-0.5290859;-0.5504508;-1;0;3;398;3926;-622;128;-0.199446;0.1759003;0.8003035;0.5373961;2;-2;-1;-206;3832;-1482;4;-0.5637119;0.1772853;-0.4473684;-0.6713124;-1;0;-1;2424;3232;160;16;0.7476441;-0.6606648;0.06371191;-0.02216066;2;-1;0;579;4207;-580;2;0.5277008;-0.7078077;-0.3573407;-0.3047091;0;-2;1;676;3910;-746;8;0.3434903;-0.81874;0.2880886;0.3587258;0;-1;-1;885;3197;2501;-0.5264066;2.533473;0.6922704;-0.5215635;2.974815;0.3716227;-0.5173194;3.361566;0.08813739;-0.4168401;4.079526;0.2017187;-0.627579;4.440316;0.214631;-0.9861227;4.34072;0.2554495;-0.5453732;4.763299;-0.4413263;-0.6426107;5.23551;0.3743691;-0.1122523;4.368233;0.2144164;0.1533525;4.181329;0.2549761;-0.1555143;3.310582;0.5282428;-0.5264257;2.513103;0.1757659;-0.8386153;2.495583;0.712822;-0.128271;1.325802;0.195249;0;0;0;-0.8386153;2.495583;0.712822;-0.128271;1.325802;0.195249;0;0;0
825914.1276;NotLabelled;16384;0.8278309;0.3753462;0.2479224;0.33518;-1;3;1;3032;-1902;2036;65536;0.5974492;0.5457063;-0.5720221;-0.134349;-3;0;0;3202;-2042;-1545;8192;0.5567867;-0.7524014;-0.3379501;-0.09833795;2;-2;0;1662;3746;-578;32768;0.5554016;-0.8008775;0.1385041;-0.1759003;-1;0;0;1760;3462;1411;256;0.3781163;-0.5249307;-0.5290859;-0.5491301;-1;0;4;468;3938;-652;128;-0.199446;0.1759003;0.8003035;0.5373961;0;-3;-1;-158;3760;-1454;4;-0.5637119;0.1772853;-0.4473684;-0.6713124;0;0;-1;2312;3124;128;16;0.7476441;-0.6606648;0.06371191;-0.02216066;2;-1;0;507;4183;-550;2;0.5277008;-0.7078077;-0.3573407;-0.3047091;0;-2;1;748;3966;-732;8;0.3434903;-0.81874;0.2880886;0.3587258;0;0;-1;981;3267;2503;-0.5267254;2.535325;0.6873456;-0.521879;2.976984;0.3671344;-0.5176319;3.364014;0.08403146;-0.4177957;4.08196;0.1982671;-0.6288342;4.442569;0.2113688;-0.9873186;4.342648;0.2519134;-0.5459574;4.762971;-0.4458386;-0.6477166;5.235182;0.369305;-0.113449;4.370904;0.2113685;0.1522858;4.184182;0.2519131;-0.1571025;3.313923;0.5261449;-0.5262845;2.517157;0.1702575;-0.8389342;2.497415;0.7078564;-0.1297631;1.326115;0.192113;0;0;0;-0.8389342;2.497415;0.7078564;-0.1297631;1.326115;0.192113;0;0;0
825935.0419;NotLabelled;16384;0.8267851;0.3767313;0.2493075;0.33518;-2;2;0;3084;-1852;2038;65536;0.5987114;0.5443213;-0.5720221;-0.134349;-3;0;0;3216;-2074;-1557;8192;0.5554016;-0.7534245;-0.3379501;-0.09833795;2;-2;0;1712;3672;-590;32768;0.5554016;-0.8008775;0.1385041;-0.1759003;-2;-1;0;1720;3448;1421;256;0.3808864;-0.5263157;-0.5277008;-0.5472194;0;0;5;402;3956;-630;128;-0.199446;0.1759003;0.8012319;0.536011;0;-2;-2;-198;3780;-1468;4;-0.5637119;0.1772853;-0.4473684;-0.6713124;0;0;-1;2400;3158;138;16;0.7488657;-0.6592798;0.06371191;-0.02216066;3;0;0;451;4153;-528;2;0.5277008;-0.7085053;-0.3559557;-0.3047091;1;-3;1;762;3874;-762;8;0.3434903;-0.81874;0.2880886;0.3587258;0;0;0;951;3279;2445;-0.528785;2.535325;0.6848971;-0.5239385;2.976984;0.3646858;-0.5196913;3.364015;0.08158284;-0.4180697;4.081703;0.1958582;-0.6282103;4.442836;0.2089782;-0.9869424;4.343804;0.2495148;-0.543434;4.765154;-0.4462539;-0.6475689;5.237365;0.3685896;-0.1130051;4.369888;0.2089777;0.152264;4.182503;0.2495138;-0.1579225;3.312244;0.5228426;-0.5260658;2.515478;0.1658811;-0.8409939;2.497415;0.7054077;-0.1303224;1.326115;0.1917339;0;0;0;-0.8409939;2.497415;0.7054077;-0.1303224;1.326115;0.1917339;0;0;0
825956.0587;NotLabelled;16384;0.8273453;0.3767313;0.2493075;0.333795;-1;2;0;3020;-1822;2058;65536;0.5987114;0.5443213;-0.5720221;-0.134349;-4;0;0;3274;-2038;-1547;8192;0.5554016;-0.7540442;-0.3365651;-0.09833795;1;-1;0;1738;3724;-538;32768;0.5554016;-0.8008775;0.1385041;-0.1759003;-1;-1;1;1776;3466;1487;256;0.3808864;-0.5277008;-0.5277008;-0.5458838;-2;0;4;450;3962;-626;128;-0.199446;0.1772853;0.8009266;0.536011;0;-2;-2;-232;3834;-1502;4;-0.5623268;0.1772853;-0.4473684;-0.672473;0;-1;-1;2410;3196;166;16;0.7488657;-0.6592798;0.06371191;-0.02216066;2;1;0;429;4163;-552;2;0.5277008;-0.7085053;-0.3559557;-0.3047091;0;-2;0;754;3954;-790;8;0.3434903;-0.81874;0.2880886;0.3587258;0;-1;0;971;3271;2481;-0.5387669;2.534639;0.6794906;-0.5339316;2.975265;0.3578583;-0.5296945;3.361382;0.07351011;-0.4291961;4.079382;0.1868131;-0.6399099;4.440197;0.199493;-0.9984761;4.340647;0.2402285;-0.5531575;4.762532;-0.4540576;-0.6602678;5.234477;0.3605541;-0.1245891;4.36807;0.1994923;0.1409859;4.181162;0.2402276;-0.1744049;3.31183;0.5105304;-0.5399258;2.515063;0.1508841;-0.850975;2.496796;0.7001342;-0.1365632;1.325495;0.1916751;0;0;0;-0.850975;2.496796;0.7001342;-0.1365632;1.325495;0.1916751;0;0;0
825977.0433;NotLabelled;16384;0.8273453;0.3767313;0.2493075;0.333795;0;3;0;3060;-1876;2058;65536;0.5983989;0.5443213;-0.5720221;-0.1357341;-3;0;0;3210;-2024;-1497;8192;0.5554016;-0.7542235;-0.3365651;-0.09695291;1;-2;0;1662;3680;-606;32768;0.5540166;-0.8018362;0.1385041;-0.1759003;-1;-1;1;1712;3504;1427;256;0.3822715;-0.5290859;-0.5277008;-0.5435701;-1;-1;5;398;3932;-558;128;-0.199446;0.1772853;0.8009266;0.536011;0;-2;-2;-266;3816;-1470;4;-0.5623268;0.1772853;-0.4473684;-0.672473;0;-2;-1;2444;3220;152;16;0.7488657;-0.6592798;0.06371191;-0.02216066;2;3;0;515;4203;-550;2;0.5277008;-0.7090994;-0.3559557;-0.3033241;0;-2;1;788;3976;-712;8;0.3434903;-0.81874;0.2880886;0.3587258;0;0;-1;913;3253;2503;-0.5411867;2.53546;0.6746495;-0.536348;2.976405;0.353456;-0.5321077;3.362805;0.06949228;-0.4298128;4.080546;0.1828354;-0.6396226;4.441885;0.1955337;-0.998437;4.343232;0.2362613;-0.5512665;4.766148;-0.4562051;-0.6607623;5.238091;0.3580892;-0.1244839;4.368469;0.1955327;0.1406221;4.180896;0.2362594;-0.1756945;3.311166;0.504197;-0.5401603;2.5144;0.1434816;-0.853395;2.497596;0.6952521;-0.1371239;1.325495;0.191274;0;0;0;-0.853395;2.497596;0.6952521;-0.1371239;1.325495;0.191274;0;0;0
825998.0161;NotLabelled;16384;0.8273453;0.3767313;0.2493075;0.333795;0;3;0;3040;-1888;2054;65536;0.5983989;0.5443213;-0.5720221;-0.1357341;-3;0;0;3152;-2026;-1575;8192;0.5554016;-0.7542235;-0.3365651;-0.09695291;1;-2;0;1686;3738;-554;32768;0.5540166;-0.8012906;0.1398892;-0.1772853;-2;-1;1;1684;3444;1431;256;0.3836565;-0.5304709;-0.5263157;-0.5425864;-1;-1;4;460;3902;-598;128;-0.199446;0.1772853;0.8009266;0.536011;0;-2;-1;-206;3774;-1472;4;-0.5623268;0.1772853;-0.4473684;-0.672473;0;0;-1;2420;3224;136;16;0.7488657;-0.6592798;0.06371191;-0.02216066;2;1;0;527;4167;-616;2;0.5277008;-0.7090994;-0.3559557;-0.3033241;0;-3;0;730;3856;-698;8;0.3434903;-0.8181317;0.2880886;0.3601108;0;0;0;903;3197;2501;-0.5447323;2.53546;0.6702745;-0.5398933;2.976405;0.349081;-0.535653;3.362805;0.0651173;-0.4320781;4.080604;0.1769212;-0.6412565;4.442333;0.1889226;-1.000229;4.344389;0.2299644;-0.5459974;4.767303;-0.4578909;-0.6594946;5.237425;0.3569107;-0.1262461;4.368023;0.1889223;0.1385461;4.180075;0.2299643;-0.1807265;3.311054;0.496691;-0.5462147;2.515383;0.1345945;-0.8569406;2.497596;0.690877;-0.1381007;1.325495;0.19057;0;0;0;-0.8569406;2.497596;0.690877;-0.1381007;1.325495;0.19057;0;0;0
826019.104;NotLabelled;16384;0.8279027;0.3767313;0.2493075;0.33241;0;1;1;2964;-1810;2050;65536;0.5996559;0.5429363;-0.5720221;-0.1357341;-3;0;0;3238;-2052;-1611;8192;0.5554016;-0.7548401;-0.33518;-0.09695291;1;-1;0;1728;3718;-592;32768;0.5540166;-0.8012906;0.1398892;-0.1772853;-1;-2;1;1786;3366;1427;256;0.3836565;-0.5318559;-0.5263157;-0.5412289;0;0;4;424;3940;-708;128;-0.199446;0.1772853;0.8009266;0.536011;0;-2;-2;-212;3762;-1492;4;-0.5623268;0.1772853;-0.4473684;-0.672473;0;0;0;2410;3202;112;16;0.7500828;-0.6578947;0.06371191;-0.02216066;2;-1;0;469;4151;-562;2;0.5277008;-0.7090994;-0.3559557;-0.3033241;0;-1;0;770;3888;-766;8;0.3421052;-0.8187119;0.2880886;0.3601108;0;-1;-1;965;3163;2517;-0.5483009;2.53546;0.6658248;-0.5434622;2.976406;0.3446313;-0.5392219;3.362805;0.06066746;-0.4362101;4.080595;0.1730509;-0.6456671;4.442154;0.1853144;-1.00457;4.343902;0.2262375;-0.5467337;4.766817;-0.459224;-0.6644516;5.236938;0.354978;-0.1305999;4.368239;0.1853143;0.1343316;4.180461;0.2262379;-0.1863364;3.31144;0.4912852;-0.5495131;2.517171;0.1238258;-0.8605092;2.497596;0.6864274;-0.1390864;1.325495;0.1898519;0;0;0;-0.8605092;2.497596;0.6864274;-0.1390864;1.325495;0.1898519;0;0;0
826040.0364;NotLabelled;16384;0.8279027;0.3767313;0.2493075;0.33241;0;2;1;2982;-1800;1972;65536;0.5993407;0.5429363;-0.5720221;-0.1371191;-3;0;0;3160;-2034;-1537;8192;0.5554016;-0.7548401;-0.33518;-0.09695291;2;0;-1;1684;3696;-666;32768;0.5540166;-0.8012906;0.1398892;-0.1772853;-1;0;1;1746;3422;1445;256;0.3850415;-0.533241;-0.5263157;-0.5388774;0;0;4;460;3920;-588;128;-0.199446;0.1786704;0.8006188;0.536011;0;-1;-3;-230;3752;-1446;4;-0.5623268;0.1786704;-0.4473684;-0.6721063;0;0;0;2300;3178;90;16;0.7500828;-0.6578947;0.06371191;-0.02216066;2;-2;0;481;4133;-598;2;0.5277008;-0.7097929;-0.3545706;-0.3033241;0;0;0;770;3908;-730;8;0.3421052;-0.8187119;0.2880886;0.3601108;0;-1;0;927;3231;2495;-0.5551673;2.534824;0.6641025;-0.5503287;2.975769;0.3429089;-0.5460887;3.362169;0.058945;-0.4412651;4.07969;0.1713693;-0.6498083;4.441776;0.1836517;-1.008958;4.344429;0.2245668;-0.5525538;4.768372;-0.4612147;-0.6697056;5.238215;0.3532295;-0.1349294;4.36656;0.1836509;0.1295268;4.178112;0.2245658;-0.1907757;3.308695;0.4887556;-0.5528669;2.514425;0.1202262;-0.8673756;2.49696;0.6847053;-0.1444908;1.324859;0.1902599;0;0;0;-0.8673756;2.49696;0.6847053;-0.1444908;1.324859;0.1902599;0;0;0
826061.039;NotLabelled;16384;0.8279027;0.3767313;0.2493075;0.33241;0;1;1;2952;-1898;2024;65536;0.5993407;0.5429363;-0.5720221;-0.1371191;-2;0;-1;3142;-1972;-1541;8192;0.5554016;-0.7548401;-0.33518;-0.09695291;3;0;-1;1724;3724;-630;32768;0.5540166;-0.8012906;0.1398892;-0.1772853;0;0;1;1772;3424;1401;256;0.3864266;-0.5378637;-0.5249307;-0.534626;0;0;3;432;3956;-660;128;-0.199446;0.1786704;0.8006188;0.536011;0;-2;-3;-176;3700;-1492;4;-0.5623268;0.1786704;-0.4473684;-0.6721063;0;0;0;2264;3184;84;16;0.7500828;-0.6578947;0.06371191;-0.02216066;1;-1;0;483;4129;-654;2;0.5277008;-0.7103832;-0.3545706;-0.301939;0;0;0;698;3886;-762;8;0.3421052;-0.8187119;0.2880886;0.3601108;0;0;0;985;3191;2511;-0.557689;2.536643;0.6568435;-0.5528467;2.97791;0.3360918;-0.5486034;3.364594;0.05251539;-0.4424769;4.082162;0.1634044;-0.6503701;4.444646;0.174957;-1.009686;4.348028;0.2161394;-0.5460646;4.771287;-0.4652092;-0.6673714;5.239305;0.349678;-0.1356265;4.368509;0.1750269;0.1284995;4.179675;0.2162946;-0.1945789;3.310522;0.4779585;-0.5547173;2.516252;0.1075207;-0.8698976;2.498759;0.6774048;-0.1454943;1.324859;0.1894936;0;0;0;-0.8698976;2.498759;0.6774048;-0.1454943;1.324859;0.1894936;0;0;0
826081.0423;NotLabelled;16384;0.8284575;0.3767313;0.2493075;0.3310249;0;1;0;3008;-1904;2008;65536;0.6005924;0.5415512;-0.5720221;-0.1371191;-2;0;-1;3226;-1932;-1527;8192;0.5554016;-0.7548401;-0.33518;-0.09695291;2;0;0;1688;3694;-602;32768;0.5540166;-0.8012906;0.1398892;-0.1772853;0;0;1;1750;3412;1387;256;0.3864266;-0.5392368;-0.5249307;-0.533241;-1;0;4;506;4010;-654;128;-0.199446;0.1800554;0.8003084;0.536011;-2;0;-3;-210;3792;-1512;4;-0.5623268;0.1772853;-0.4473684;-0.672473;0;-1;0;2410;3226;142;16;0.7500828;-0.6578947;0.06371191;-0.02216066;0;0;0;431;4171;-588;2;0.5290859;-0.7093523;-0.3545706;-0.301939;0;-1;0;716;3876;-758;8;0.3421052;-0.8187119;0.2880886;0.3601108;0;0;0;917;3205;2501;-0.5657814;2.536643;0.6463209;-0.5609391;2.97791;0.3255692;-0.5566958;3.364594;0.04199278;-0.4468201;4.081497;0.15353;-0.6528156;4.445053;0.1654107;-1.012632;4.350277;0.2065071;-0.5444156;4.77422;-0.4712645;-0.675525;5.242238;0.3421031;-0.1384771;4.366226;0.1654102;0.1246581;4.175977;0.2065065;-0.2001731;3.30656;0.4651076;-0.5558253;2.51229;0.09036082;-0.8779899;2.498759;0.6668822;-0.147765;1.324859;0.1877283;0;0;0;-0.8779899;2.498759;0.6668822;-0.147765;1.324859;0.1877283;0;0;0
826122.0375;NotLabelled;16384;0.8284575;0.3767313;0.2493075;0.3310249;0;1;0;2916;-1924;2014;65536;0.6005924;0.5415512;-0.5720221;-0.1371191;-2;0;0;3230;-2016;-1515;8192;0.5540166;-0.7556782;-0.33518;-0.09833795;1;-3;-1;1758;3638;-526;32768;0.5526316;-0.8019391;0.1398892;-0.1786704;0;-2;1;1754;3478;1443;256;0.3878116;-0.5409541;-0.5235457;-0.5318559;0;2;3;448;3980;-644;128;-0.199446;0.1800554;0.8003084;0.536011;-1;-1;-2;-186;3792;-1510;4;-0.5623268;0.1772853;-0.4473684;-0.672473;0;-1;0;2400;3188;148;16;0.7500828;-0.6578947;0.06371191;-0.02216066;1;-1;0;539;4147;-574;2;0.5290859;-0.7093523;-0.3545706;-0.301939;0;-2;0;714;3938;-702;8;0.3421052;-0.8187119;0.2880886;0.3601108;0;0;0;941;3205;2497;-0.5688817;2.534865;0.6464446;-0.5640358;2.976455;0.3261383;-0.5597893;3.363425;0.04295218;-0.4480928;4.08004;0.1545333;-0.6531636;4.444117;0.1664337;-1.01322;4.350254;0.207521;-0.5429085;4.775223;-0.4681543;-0.673485;5.242952;0.3454651;-0.1390272;4.363983;0.1664335;0.1236231;4.173062;0.2075211;-0.2019742;3.303646;0.4651569;-0.5565126;2.509377;0.08935589;-0.8810904;2.49696;0.6669642;-0.1483217;1.324859;0.1872891;0;0;0;-0.8810904;2.49696;0.6669642;-0.1483217;1.324859;0.1872891;0;0;0
826163.1891;NotLabelled;16384;0.8284575;0.3767313;0.2493075;0.3310249;0;1;0;3016;-1868;2088;65536;0.6002746;0.5415512;-0.5720221;-0.1385041;-2;0;0;3240;-2008;-1565;8192;0.5540166;-0.756291;-0.333795;-0.09833795;1;-2;0;1746;3634;-614;32768;0.5526316;-0.8016962;0.1412742;-0.1786704;-1;-2;1;1720;3454;1407;256;0.3878116;-0.5423123;-0.5235457;-0.5304709;0;0;4;440;3932;-624;128;-0.199446;0.1814404;0.7999955;0.536011;-3;0;-3;-208;3808;-1434;4;-0.5623268;0.1772853;-0.4473684;-0.672473;0;0;0;2418;3192;146;16;0.751335;-0.6565097;0.06371191;-0.02077562;1;-4;0;471;4209;-526;2;0.5290859;-0.7100429;-0.3531856;-0.301939;0;-2;0;778;3882;-780;8;0.3421052;-0.8187119;0.2880886;0.3601108;0;0;0;1029;3277;2471;-0.5728462;2.534865;0.6411739;-0.5680004;2.976456;0.3208677;-0.5637539;3.363425;0.03768158;-0.452142;4.079965;0.1498249;-0.6572506;4.444013;0.1619799;-1.017303;4.350082;0.2029526;-0.542967;4.775052;-0.4699038;-0.6783968;5.24278;0.3429218;-0.1431062;4.36393;0.1619792;0.1195583;4.173004;0.2029516;-0.2103424;3.303823;0.4558655;-0.5648146;2.511346;0.07624012;-0.885055;2.49696;0.6616933;-0.1494367;1.324859;0.1864001;0;0;0;-0.885055;2.49696;0.6616933;-0.1494367;1.324859;0.1864001;0;0;0
826184.5474;NotLabelled;16384;0.8284575;0.3767313;0.2493075;0.3310249;0;1;1;3090;-1770;2166;65536;0.6002746;0.5415512;-0.5720221;-0.1385041;-3;0;0;3256;-2060;-1611;8192;0.5540166;-0.7564698;-0.333795;-0.09695291;1;-2;0;1664;3728;-630;32768;0.5526316;-0.8016962;0.1412742;-0.1786704;-1;-1;2;1668;3466;1481;256;0.3891967;-0.5440059;-0.5221606;-0.5290859;1;-1;4;514;3968;-664;128;-0.199446;0.1814404;0.7990657;0.5373961;-1;-1;-2;-230;3818;-1408;4;-0.5623268;0.1772853;-0.4473684;-0.672473;0;1;0;2446;3270;88;16;0.751335;-0.6565097;0.06371191;-0.02077562;1;-1;0;433;4175;-558;2;0.5290859;-0.7106302;-0.3531856;-0.300554;0;-1;0;784;3976;-694;8;0.3421052;-0.8187119;0.2880886;0.3601108;0;0;0;989;3229;2503;-0.5799278;2.534539;0.6368486;-0.5750784;2.976454;0.3169909;-0.5708287;3.363712;0.03419775;-0.4574076;4.079961;0.1463857;-0.6615957;4.444525;0.1585607;-1.021884;4.351502;0.199524;-0.5456632;4.776471;-0.4719992;-0.683372;5.242373;0.3414926;-0.1476553;4.363143;0.1585605;0.1145254;4.171552;0.1995239;-0.2162637;3.301984;0.4499353;-0.5697669;2.510229;0.06790465;-0.8921368;2.496613;0.657326;-0.1551177;1.324512;0.1842077;0;0;0;-0.8921368;2.496613;0.657326;-0.1551177;1.324512;0.1842077;0;0;0
826205.0409;NotLabelled;16384;0.8290096;0.3767313;0.2493075;0.3296399;-1;2;1;3074;-1796;2196;65536;0.6015212;0.5401662;-0.5720221;-0.1385041;-3;0;0;3202;-2168;-1603;8192;0.5540166;-0.7564698;-0.333795;-0.09695291;1;-1;0;1624;3796;-706;32768;0.5526316;-0.8016962;0.1412742;-0.1786704;-1;0;1;1746;3458;1417;256;0.3891967;-0.5453494;-0.5221606;-0.5277008;2;-1;5;464;3954;-670;128;-0.1980609;0.1814404;0.7994102;0.5373961;0;-2;-2;-204;3812;-1370;4;-0.5623268;0.1786704;-0.4473684;-0.6721063;0;1;0;2336;3210;118;16;0.751335;-0.6565097;0.06371191;-0.02077562;1;-1;0;551;4153;-596;2;0.5290859;-0.7106302;-0.3531856;-0.300554;0;0;0;700;3958;-752;8;0.3421052;-0.8187119;0.2880886;0.3601108;0;2;0;911;3181;2487;-0.5838165;2.534605;0.6316693;-0.5789555;2.977549;0.313237;-0.5746958;3.365715;0.03169298;-0.4613787;4.081894;0.1444316;-0.6656142;4.446423;0.1568561;-1.025896;4.353323;0.1977068;-0.5459115;4.778293;-0.4711313;-0.6884516;5.244194;0.3415276;-0.1516636;4.365106;0.1568555;0.1105365;4.173517;0.1977063;-0.2219609;3.304651;0.4482917;-0.5731879;2.512896;0.06416798;-0.8960261;2.496614;0.6520134;-0.1562092;1.324512;0.1832827;0;0;0;-0.8960261;2.496614;0.6520134;-0.1562092;1.324512;0.1832827;0;0;0
826225.0931;NotLabelled;16384;0.8290096;0.3767313;0.2493075;0.3296399;-4;3;3;3128;-1792;2192;65536;0.6015212;0.5401662;-0.5720221;-0.1385041;-4;1;-1;3098;-2218;-1635;8192;0.5540166;-0.7564698;-0.333795;-0.09695291;2;-1;0;1604;3798;-698;32768;0.5526316;-0.8016962;0.1412742;-0.1786704;0;0;1;1876;3432;1369;256;0.3891967;-0.5466722;-0.5207756;-0.5277008;1;-1;5;504;3902;-686;128;-0.1980609;0.1814404;0.7994102;0.5373961;0;0;-2;-220;3778;-1370;4;-0.5623268;0.1786704;-0.4473684;-0.6721063;0;0;-1;2252;3220;132;16;0.751335;-0.6565097;0.06371191;-0.02077562;2;-2;0;511;4175;-618;2;0.5290859;-0.7106302;-0.3531856;-0.300554;0;0;0;700;3890;-742;8;0.3434903;-0.8181317;0.2880886;0.3601108;0;1;0;959;3235;2481;-0.5845559;2.536403;0.6263624;-0.5796953;2.979331;0.307909;-0.5754359;3.367484;0.02634639;-0.4603207;4.083369;0.13913;-0.6636399;4.448409;0.1515752;-1.024155;4.356213;0.1924168;-0.5418128;4.782207;-0.4740698;-0.6838133;5.247808;0.3388555;-0.1498951;4.365801;0.1515743;0.1118224;4.173552;0.1924156;-0.2215299;3.304686;0.4418627;-0.571627;2.512931;0.0567084;-0.8967656;2.498412;0.6467086;-0.1567471;1.324512;0.1828229;0;0;0;-0.8967656;2.498412;0.6467086;-0.1567471;1.324512;0.1828229;0;0;0
826246.0404;NotLabelled;16384;0.829559;0.3767313;0.2493075;0.3282548;-7;2;5;3054;-1730;2214;65536;0.6015212;0.5401662;-0.5720221;-0.1385041;-5;3;-1;3196;-2258;-1685;8192;0.5540166;-0.7564698;-0.333795;-0.09695291;3;-1;0;1582;3726;-648;32768;0.5526316;-0.8016962;0.1412742;-0.1786704;0;0;0;1870;3440;1429;256;0.3905817;-0.5470196;-0.5207756;-0.5263157;2;0;4;448;3890;-716;128;-0.1980609;0.1828255;0.7990946;0.5373961;0;0;-1;-234;3816;-1460;4;-0.5623268;0.1786704;-0.4473684;-0.6721063;0;-1;-1;2306;3244;158;16;0.751335;-0.6565097;0.06371191;-0.02077562;3;-1;0;459;4153;-526;2;0.5290859;-0.7106302;-0.3531856;-0.300554;0;-2;0;688;3890;-696;8;0.3434903;-0.8181317;0.2880886;0.3601108;0;0;0;933;3225;2519;-0.5864559;2.536403;0.6237194;-0.5815952;2.979331;0.305266;-0.5773357;3.367484;0.02370346;-0.4623702;4.083052;0.1386318;-0.6657447;4.448027;0.1520475;-1.026266;4.355664;0.1924502;-0.5419683;4.781657;-0.4726165;-0.6863619;5.247259;0.3398874;-0.1519887;4.365488;0.1520469;0.1097355;4.173155;0.1924497;-0.2243481;3.30429;0.4409162;-0.5733097;2.512535;0.05473268;-0.8986656;2.498412;0.6440655;-0.1572847;1.324512;0.1823608;0;0;0;-0.8986656;2.498412;0.6440655;-0.1572847;1.324512;0.1823608;0;0;0
826266.0596;NotLabelled;16384;0.8288429;0.3795014;0.2493075;0.3268698;-15;2;8;3238;-1788;2240;65536;0.6034316;0.5387812;-0.5706371;-0.1412742;-10;7;-3;3086;-2314;-1799;8192;0.5526316;-0.7579127;-0.33241;-0.09833795;4;1;-2;1648;3718;-622;32768;0.5526316;-0.8013863;0.1412742;-0.1800554;2;5;0;1808;3438;1247;256;0.3905817;-0.5483348;-0.5193906;-0.5263157;4;0;4;444;3920;-690;128;-0.199446;0.1828255;0.79875;0.5373961;2;0;-1;-242;3772;-1430;4;-0.5623268;0.1786704;-0.4473684;-0.6721063;0;-3;-1;2322;3250;138;16;0.7524244;-0.6551247;0.06509695;-0.02077562;2;0;0;443;4171;-578;2;0.5290859;-0.7106302;-0.3531856;-0.300554;0;-2;0;690;3920;-738;8;0.3434903;-0.8181317;0.2880886;0.3601108;0;-1;0;893;3163;2585;-0.5883663;2.536424;0.6210876;-0.5835022;2.979677;0.3030863;-0.5792396;3.368117;0.02192003;-0.4642472;4.083936;0.1352428;-0.6676236;4.448936;0.1479318;-1.028129;4.356655;0.1886631;-0.5418895;4.783672;-0.4743278;-0.6886975;5.249273;0.3377434;-0.1538662;4.366406;0.1479312;0.1078758;4.174167;0.1886623;-0.2269067;3.305302;0.4361862;-0.5747188;2.513546;0.04896712;-0.9005762;2.498412;0.6413915;-0.1578262;1.324512;0.1818924;0;0;0;-0.9005762;2.498412;0.6413915;-0.1578262;1.324512;0.1818924;0;0;0
826287.2715;NotLabelled;16384;0.8281147;0.3822715;0.2493075;0.3254848;-19;1;9;3066;-1760;2254;65536;0.6031057;0.5387812;-0.5706371;-0.1426593;-11;10;-5;3166;-2396;-1991;8192;0.5526316;-0.7579127;-0.33241;-0.09833795;4;2;-2;1684;3662;-624;32768;0.5526316;-0.8010738;0.1412742;-0.1814404;3;5;0;1786;3372;1279;256;0.3905817;-0.5509664;-0.5180055;-0.5249307;4;-3;6;534;3886;-668;128;-0.199446;0.1814404;0.7999955;0.536011;3;0;-1;-152;3822;-1404;4;-0.5609418;0.1786704;-0.4473684;-0.6732627;0;-2;-1;2318;3238;96;16;0.7524244;-0.6551247;0.06509695;-0.02077562;3;-1;0;495;4161;-576;2;0.5290859;-0.7106302;-0.3531856;-0.300554;0;-3;0;668;3932;-742;8;0.3434903;-0.8181317;0.2880886;0.3601108;0;-2;-1;889;3191;2515;-0.5943585;2.535467;0.6217653;-0.5894943;2.978736;0.3037855;-0.5852314;3.367189;0.02263814;-0.4704005;4.082693;0.1380993;-0.6738383;4.447623;0.1517562;-1.034349;4.35517;0.1920501;-0.5499688;4.786582;-0.4694542;-0.6930736;5.249924;0.3445678;-0.1600684;4.365172;0.1517554;0.1016838;4.172854;0.1920489;-0.2367176;3.303858;0.434135;-0.5826442;2.512799;0.04381871;-0.9065685;2.497455;0.6420672;-0.1624737;1.323555;0.1847489;0;0;0;-0.9065685;2.497455;0.6420672;-0.1624737;1.323555;0.1847489;0;0;0
826307.0505;NotLabelled;16384;0.8273743;0.3850415;0.2493075;0.3240997;-23;-3;10;3126;-1718;2384;65536;0.6040846;0.5387812;-0.5692521;-0.1440443;-11;18;-5;3048;-2412;-2161;8192;0.5526316;-0.7577317;-0.33241;-0.09972299;4;2;-2;1564;3682;-580;32768;0.5540166;-0.8003599;0.1398892;-0.1814404;3;5;1;1700;3394;1377;256;0.3905817;-0.5548678;-0.5152354;-0.5235457;10;-3;6;562;3944;-714;128;-0.199446;0.1814404;0.8009218;0.534626;11;0;0;-242;3876;-1400;4;-0.5595568;0.1786704;-0.4487534;-0.6734935;0;-2;-1;2392;3210;144;16;0.7524614;-0.6551247;0.06509695;-0.01939058;3;-6;0;415;4165;-552;2;0.5290859;-0.7113169;-0.3518005;-0.300554;1;-5;0;700;3908;-764;8;0.3421052;-0.8187119;0.2880886;0.3601108;0;-3;0;923;3231;2489;-0.5983163;2.536171;0.6138647;-0.5934668;2.978086;0.2940069;-0.5892172;3.365344;0.01121378;-0.4727838;4.080233;0.1288552;-0.6753815;4.445592;0.1434988;-1.036125;4.353856;0.1833456;-0.5518004;4.789649;-0.4753228;-0.6995726;5.251159;0.3389055;-0.1618043;4.361949;0.1434989;0.09948177;4.168906;0.183346;-0.240333;3.29991;0.4234443;-0.5832022;2.509548;0.02903765;-0.9105253;2.498245;0.6343422;-0.1635521;1.323555;0.1837949;0;0;0;-0.9105253;2.498245;0.6343422;-0.1635521;1.323555;0.1837949;0;0;0
826328.0563;NotLabelled;16384;0.8259703;0.3891967;0.2493075;0.3227147;-28;-4;13;3062;-1910;2430;65536;0.604721;0.5387812;-0.567867;-0.1468144;-8;26;-7;2988;-2268;-2451;8192;0.5526316;-0.7577317;-0.33241;-0.09972299;4;1;-2;1606;3732;-530;32768;0.5540166;-0.8002856;0.1385041;-0.1828255;3;4;0;1734;3406;1349;256;0.3891967;-0.5571208;-0.5138504;-0.5235457;13;0;5;574;3964;-844;128;-0.199446;0.1800554;0.8021567;0.533241;13;1;0;-226;3912;-1452;4;-0.5595568;0.1786704;-0.4487534;-0.6734935;0;-2;-1;2358;3226;164;16;0.753665;-0.6537396;0.06509695;-0.01939058;3;-2;0;443;4149;-632;2;0.5290859;-0.7113169;-0.3518005;-0.300554;0;-4;0;754;3932;-732;8;0.3421052;-0.8182232;0.2894737;0.3601108;0;-2;0;911;3229;2507;-0.6003789;2.53872;0.6033567;-0.5955408;2.979604;0.2820785;-0.5913012;3.36595;-0.001959324;-0.4734988;4.079894;0.1199795;-0.6753523;4.445581;0.1365702;-1.036324;4.354364;0.1755347;-0.5502079;4.79452;-0.4788986;-0.7020422;5.25591;0.3346499;-0.1619499;4.360872;0.13657;0.09889653;4.167056;0.1755346;-0.242636;3.297363;0.410622;-0.5790408;2.505172;0.014323;-0.9125872;2.50086;0.6239672;-0.1653488;1.323862;0.1799284;0;0;0;-0.9125872;2.50086;0.6239672;-0.1653488;1.323862;0.1799284;0;0;0
826349.0532;NotLabelled;16384;0.8256172;0.3919668;0.2479224;0.3213296;-30;-3;12;2926;-1854;2346;65536;0.6041052;0.5401662;-0.566482;-0.1495845;-4;34;-9;2996;-2180;-2283;8192;0.5512465;-0.7579481;-0.333795;-0.101108;4;3;-4;1730;3760;-564;32768;0.5540166;-0.8002856;0.1385041;-0.1828255;5;5;0;1722;3458;1287;256;0.3878116;-0.5593579;-0.5124654;-0.5235457;17;4;2;532;4004;-918;128;-0.200831;0.1800554;0.8027305;0.5318559;13;1;0;-234;3842;-1410;4;-0.5595568;0.1786704;-0.4487534;-0.6734935;0;-2;-1;2362;3184;180;16;0.7535785;-0.6537396;0.06648199;-0.01800554;2;-1;0;481;4139;-590;2;0.5290859;-0.7120003;-0.3504155;-0.300554;1;-3;1;688;3908;-778;8;0.3421052;-0.8176122;0.2894737;0.3614958;0;-1;-1;957;3243;2489;-0.6070217;2.537945;0.601078;-0.6021988;2.977466;0.2779379;-0.5979726;3.362607;-0.007731616;-0.4786641;4.075645;0.1179807;-0.679706;4.441699;0.1362824;-1.040916;4.351099;0.1744705;-0.5584983;4.797256;-0.478635;-0.7095405;5.256692;0.3361656;-0.1664963;4.35583;0.1362818;0.09387843;4.161226;0.1744695;-0.2484819;3.291533;0.4083496;-0.5828438;2.499308;0.01039416;-0.9192291;2.500172;0.6218632;-0.1707201;1.323175;0.1799693;0;0;0;-0.9192291;2.500172;0.6218632;-0.1707201;1.323175;0.1799693;0;0;0
826370.1239;NotLabelled;16384;0.8225585;0.4016621;0.2479224;0.3171745;-39;-4;11;2966;-2000;2226;65536;0.6017747;0.5443213;-0.5623268;-0.1592798;-5;39;-7;3284;-2138;-1467;8192;0.5512465;-0.7569616;-0.33518;-0.1038781;2;11;-1;1834;3846;-694;32768;0.5567867;-0.7982816;0.1371191;-0.1842105;9;3;1;1736;3518;1241;256;0.3864266;-0.5602849;-0.5110803;-0.5249307;18;7;1;532;3922;-808;128;-0.200831;0.1800554;0.8036464;0.5304709;13;1;0;-216;3774;-1460;4;-0.5595568;0.1786704;-0.4487534;-0.6734935;0;-2;-1;2400;3212;148;16;0.7535785;-0.6537396;0.06648199;-0.01800554;2;-6;0;571;4147;-616;2;0.5304709;-0.7115529;-0.3504155;-0.299169;0;-5;1;586;3848;-806;8;0.3421052;-0.8176122;0.2894737;0.3614958;0;-3;-1;959;3281;2463;-0.6082828;2.537902;0.5986338;-0.6034709;2.976399;0.2741055;-0.5992545;3.360635;-0.01278031;-0.4784667;4.072751;0.1166971;-0.6787081;4.439153;0.1367071;-1.040152;4.349165;0.1741185;-0.5589006;4.800771;-0.4760956;-0.7120575;5.258577;0.3392283;-0.1656912;4.352139;0.1367063;0.09421582;4.156761;0.1741171;-0.2511649;3.28771;0.4059304;-0.5843863;2.495485;0.007019401;-0.9204894;2.500196;0.6195489;-0.1707187;1.323199;0.1797995;0;0;0;-0.9204894;2.500196;0.6195489;-0.1707187;1.323199;0.1797995;0;0;0
826390.0582;NotLabelled;16384;0.8199446;0.4072022;0.2493075;0.3157895;-43;2;9;3190;-1912;2142;65536;0.6007298;0.5470914;-0.5595568;-0.1634349;-11;37;-8;3182;-2136;-1175;8192;0.5498615;-0.7571631;-0.3365651;-0.1052632;0;18;0;1890;3776;-658;32768;0.5581717;-0.7973137;0.1371191;-0.1842105;9;3;3;1692;3662;1437;256;0.3850415;-0.5612;-0.5096953;-0.5263157;21;5;3;480;3840;-846;128;-0.200831;0.1786704;0.8048677;0.5290859;13;2;0;-230;3812;-1498;4;-0.5581717;0.1772853;-0.4501385;-0.6740842;-1;-4;0;2432;3234;150;16;0.7546863;-0.6523545;0.06786703;-0.0166205;1;-6;-1;493;4197;-692;2;0.5304709;-0.7122333;-0.3490305;-0.299169;2;-8;1;648;3884;-782;8;0.3421052;-0.8176122;0.2894737;0.3614958;0;-6;-1;1017;3269;2481;-0.6082426;2.537835;0.5985624;-0.6034422;2.97529;0.2726298;-0.5992358;3.358604;-0.01548666;-0.4787212;4.070083;0.1176927;-0.679063;4.436335;0.1393824;-1.040518;4.346078;0.176028;-0.5732841;4.812155;-0.474198;-0.7257454;5.263162;0.3450366;-0.1660265;4.349437;0.1393823;0.09389272;4.15393;0.1760284;-0.2506711;3.283859;0.4052162;-0.5771931;2.489427;0.005155563;-0.9204485;2.500196;0.6196093;-0.1707067;1.323199;0.1798105;0;0;0;-0.9204485;2.500196;0.6196093;-0.1707067;1.323199;0.1798105;0;0;0
826411.068;NotLabelled;16384;0.8183404;0.4127424;0.2506925;0.3116343;-45;11;11;3012;-1930;1932;65536;0.6017891;0.5484765;-0.5554016;-0.1689751;-18;34;-10;3194;-2138;-995;8192;0.5498615;-0.7557315;-0.3393352;-0.1066482;1;21;2;1818;3560;-596;32768;0.5581717;-0.7972295;0.1357341;-0.1855956;9;7;3;1548;3504;1615;256;0.3808864;-0.5651751;-0.5055401;-0.5290859;24;4;8;394;3828;-996;128;-0.2022161;0.1772853;0.8066413;0.5263157;15;3;0;-200;3842;-1466;4;-0.5581717;0.1772853;-0.4501385;-0.6740842;-1;-4;0;2416;3210;138;16;0.7546863;-0.6523545;0.06786703;-0.0166205;0;-3;-1;449;4115;-692;2;0.5304709;-0.7128136;-0.3490305;-0.2977839;1;-7;1;686;3970;-734;8;0.3421052;-0.8171206;0.2908587;0.3614958;0;-6;-1;909;3261;2525;-0.610103;2.537589;0.6019984;-0.6053177;2.973666;0.2742255;-0.6011246;3.355763;-0.01550353;-0.4808923;4.066589;0.1213652;-0.6813394;4.432681;0.1447306;-1.042804;4.342156;0.1806118;-0.5857365;4.814535;-0.4722868;-0.7379044;5.264049;0.3478225;-0.1682825;4.345903;0.1447306;0.09165166;4.150274;0.1806124;-0.2552543;3.280839;0.4086812;-0.5788927;2.485335;0.008407772;-0.9223078;2.500039;0.6232182;-0.1750111;1.32252;0.1806625;0;0;0;-0.9223078;2.500039;0.6232182;-0.1750111;1.32252;0.1806625;0;0;0
826432.0374;NotLabelled;16384;0.816672;0.4182825;0.2520775;0.3074792;-48;15;14;2994;-1988;1848;65536;0.600225;0.5512465;-0.5526316;-0.1745152;-25;33;-9;3598;-2274;-815;8192;0.5484765;-0.7552922;-0.3421052;-0.1080332;7;18;3;1634;3592;-566;32768;0.5581717;-0.7971405;0.134349;-0.1869806;7;14;4;1648;3472;1621;256;0.3781163;-0.5694897;-0.5027701;-0.5290859;22;-1;9;328;3886;-976;128;-0.2036011;0.1772853;0.8071953;0.5249307;12;3;-1;-206;3832;-1468;4;-0.5567867;0.1759003;-0.4501385;-0.6755909;1;-2;0;2410;3128;148;16;0.7547155;-0.6523545;0.06786703;-0.01523546;0;-2;-1;439;4195;-646;2;0.5304709;-0.7147392;-0.3462604;-0.2963989;2;-9;3;688;3872;-876;8;0.3421052;-0.8165064;0.2908587;0.3628809;-1;-1;-1;905;3211;2443;-0.61173;2.537432;0.5992857;-0.6069713;2.971089;0.2683163;-0.6028018;3.351046;-0.02421337;-0.4817706;4.059518;0.1237124;-0.6816831;4.425546;0.152106;-1.043386;4.335089;0.1856862;-0.5943884;4.815781;-0.4667443;-0.7426251;5.263428;0.3551036;-0.1687695;4.337925;0.1521061;0.09075326;4.141344;0.1856864;-0.2560918;3.271947;0.4139898;-0.5777583;2.476405;0.0122053;-0.9239332;2.500039;0.6208059;-0.1754826;1.32252;0.1802046;0;0;0;-0.9239332;2.500039;0.6208059;-0.1754826;1.32252;0.1802046;0;0;0
826453.1124;NotLabelled;16384;0.8145069;0.4238227;0.2548476;0.3033241;-46;19;14;2960;-2202;1746;65536;0.601132;0.5512465;-0.5498615;-0.1800554;-32;29;-6;3628;-2124;-551;8192;0.5470914;-0.755037;-0.3448753;-0.1080332;9;13;5;1382;3748;-616;32768;0.5581717;-0.7969479;0.1315789;-0.1897507;6;20;2;1694;3356;1657;256;0.3767313;-0.5728365;-0.5;-0.5290859;17;-6;12;416;3844;-928;128;-0.2036011;0.1759003;0.8083969;0.5235457;9;2;-3;-206;3780;-1464;4;-0.5567867;0.1745152;-0.4501385;-0.6759499;0;-3;0;2506;3218;118;16;0.7547155;-0.6523545;0.06786703;-0.01523546;0;-3;0;471;4137;-620;2;0.5304709;-0.715312;-0.3462604;-0.2950138;1;-6;3;684;3882;-812;8;0.3407202;-0.8170853;0.2908587;0.3628809;-1;-5;-2;1049;3271;2435;-0.6167932;2.536678;0.5917489;-0.6120457;2.969292;0.2594177;-0.6078861;3.348327;-0.0343051;-0.4841501;4.054745;0.1210221;-0.6825771;4.421304;0.1527869;-1.044715;4.332034;0.1848183;-0.6019329;4.820977;-0.4657253;-0.7546274;5.265236;0.3571446;-0.1700359;4.331531;0.1527866;0.08860058;4.133528;0.1848179;-0.2618623;3.26513;0.4113925;-0.580325;2.469547;0.00714314;-0.9289956;2.499352;0.6133972;-0.1766558;1.322824;0.1767911;0;0;0;-0.9289956;2.499352;0.6133972;-0.1766558;1.322824;0.1767911;0;0;0
826474.1612;NotLabelled;16384;0.8124813;0.4307479;0.2562327;0.2977839;-46;25;13;2996;-2364;1606;65536;0.6015451;0.5512465;-0.5470914;-0.1869806;-41;21;-6;3476;-1854;-287;8192;0.5457063;-0.755004;-0.3462604;-0.1108033;10;6;4;1394;3866;-602;32768;0.5581717;-0.7968432;0.1260388;-0.1939058;1;18;1;2034;3364;1439;256;0.3767313;-0.5740425;-0.4986149;-0.5290859;12;-9;16;386;3832;-882;128;-0.2036011;0.1759003;0.8092923;0.5221606;6;-3;-3;-208;3684;-1538;4;-0.5567867;0.1745152;-0.4501385;-0.6759499;0;-2;0;2556;3184;116;16;0.7546164;-0.6523545;0.06925207;-0.01385042;-1;-6;-1;505;4071;-684;2;0.5304709;-0.7159808;-0.3448753;-0.2950138;0;-2;2;646;3866;-756;8;0.3407202;-0.8159741;0.2922437;0.3642659;-1;-6;-1;959;3275;2399;-0.6214967;2.534803;0.5889722;-0.6167647;2.966022;0.2548324;-0.6126188;3.343824;-0.04047507;-0.4879149;4.048784;0.1205963;-0.685771;4.415415;0.1549802;-1.048102;4.326507;0.1858049;-0.6126202;4.82252;-0.464314;-0.7639529;5.262869;0.3609052;-0.1733815;4.324779;0.1549796;0.08487757;4.126093;0.1858039;-0.2697992;3.259406;0.4123703;-0.5840787;2.463737;0.00502938;-0.9336982;2.497569;0.6107911;-0.1776487;1.322824;0.1757934;0;0;0;-0.9336982;2.497569;0.6107911;-0.1776487;1.322824;0.1757934;0;0;0
826495.2162;NotLabelled;16384;0.810919;0.4404432;0.2603878;0.2839335;-39;31;12;2560;-2564;1360;65536;0.6058714;0.5470914;-0.5415512;-0.200831;-52;13;-5;3656;-1346;-801;8192;0.5443213;-0.7560031;-0.3462604;-0.1108033;10;3;1;1262;3776;-552;32768;0.5567867;-0.797351;0.1246537;-0.1966759;0;15;0;2152;3324;1249;256;0.3753462;-0.578679;-0.4972299;-0.5263157;4;-8;18;512;3768;-930;128;-0.2036011;0.1772853;0.8098822;0.5207756;5;-9;-2;-170;3622;-1626;4;-0.5567867;0.1745152;-0.4501385;-0.6759499;0;0;1;2502;3112;64;16;0.7546405;-0.6523545;0.06925207;-0.01246537;-2;-6;-2;493;4135;-708;2;0.5304709;-0.7159808;-0.3448753;-0.2950138;0;-2;2;618;3870;-784;8;0.3407202;-0.8159741;0.2922437;0.3642659;-2;-4;0;949;3241;2377;-0.6226841;2.534761;0.5865411;-0.6179638;2.964914;0.2510297;-0.6138282;3.341774;-0.04547936;-0.4894802;4.046324;0.1176425;-0.6874965;4.412781;0.1529614;-1.049809;4.323644;0.1833541;-0.6252338;4.830348;-0.4657342;-0.7728823;5.264896;0.3632202;-0.1750719;4.322344;0.1529613;0.08324936;4.123672;0.1833541;-0.273846;3.256902;0.4057643;-0.5839823;2.460344;-0.003012657;-0.9348847;2.497596;0.6084893;-0.1776121;1.322852;0.1756247;0;0;0;-0.9348847;2.497596;0.6084893;-0.1776121;1.322852;0.1756247;0;0;0
826516.1848;NotLabelled;16384;0.8093646;0.4459834;0.2617728;0.2783934;-32;25;9;2442;-2612;1340;65536;0.6085048;0.5429363;-0.5401662;-0.2077562;-49;12;-3;3560;-1058;-1045;8192;0.5443213;-0.7557988;-0.3462604;-0.1121884;8;-2;-1;1236;3780;-456;32768;0.5567867;-0.7970081;0.1246537;-0.1980609;-1;12;0;2022;3312;1081;256;0.3753462;-0.5811863;-0.4972299;-0.5235457;-5;-6;19;510;3842;-984;128;-0.2049861;0.1786704;0.8092282;0.5207756;1;-12;-2;-176;3696;-1640;4;-0.5567867;0.1745152;-0.4501385;-0.6759499;0;1;2;2508;3148;42;16;0.7545121;-0.6523545;0.07063711;-0.01246537;-3;-7;-2;521;4127;-758;2;0.5304709;-0.7159808;-0.3448753;-0.2950138;2;-3;1;624;3904;-772;8;0.3407202;-0.8154767;0.2936288;0.3642659;-3;-1;0;813;3295;2359;-0.6280586;2.535013;0.575878;-0.6233462;2.964433;0.2394289;-0.6192178;3.340646;-0.05790162;-0.490331;4.043487;0.1090283;-0.6859331;4.411066;0.1460854;-1.048861;4.324191;0.1756747;-0.6379958;4.84861;-0.4681457;-0.7722479;5.270655;0.3695008;-0.1741231;4.317213;0.1460856;0.08283823;4.116666;0.1756754;-0.2792168;3.250875;0.3938421;-0.5867907;2.456018;-0.02014929;-0.9402587;2.497897;0.5979147;-0.1792518;1.323152;0.1716489;0;0;0;-0.9402587;2.497897;0.5979147;-0.1792518;1.323152;0.1716489;0;0;0
826536.9369;NotLabelled;16384;0.8092519;0.4487534;0.2617728;0.2742382;-26;23;5;2456;-2708;1374;65536;0.6115018;0.5387812;-0.5387812;-0.2132964;-44;8;-2;3524;-1046;-1013;8192;0.5443213;-0.7568552;-0.3434903;-0.1135734;6;-10;-5;1234;3756;-380;32768;0.5567867;-0.7968781;0.1232687;-0.199446;-2;6;-1;2018;3358;1091;256;0.3781163;-0.5843924;-0.4986149;-0.5166205;-5;-16;15;700;3798;-866;128;-0.2063712;0.1814404;0.80915;0.5193906;0;-13;-2;-184;3678;-1598;4;-0.5581717;0.1731302;-0.4487534;-0.6760847;0;-1;4;2458;3146;104;16;0.7533531;-0.6537396;0.07063711;-0.009695291;-6;0;-2;393;4163;-818;2;0.5304709;-0.7159808;-0.3448753;-0.2950138;0;-3;0;588;4000;-702;8;0.3393352;-0.8154343;0.2936288;0.365651;-4;-1;0;849;3331;2491;-0.6309164;2.534765;0.5731446;-0.6262004;2.964541;0.2371503;-0.6220687;3.341068;-0.05978173;-0.4899204;4.043268;0.1072925;-0.6838121;4.411746;0.1444155;-1.047141;4.326554;0.1739744;-0.6432712;4.859975;-0.4668696;-0.7707474;5.273396;0.3761181;-0.1724442;4.315514;0.1444155;0.08358049;4.113768;0.1739747;-0.2791188;3.247264;0.3882096;-0.5833027;2.453097;-0.0295909;-0.9431168;2.497625;0.5951386;-0.1796159;1.32288;0.1733564;0;0;0;-0.9431168;2.497625;0.5951386;-0.1796159;1.32288;0.1733564;0;0;0
826557.4886;NotLabelled;16384;0.8078842;0.4529086;0.2631579;0.2700831;-20;20;1;2474;-2730;1286;65536;0.613195;0.536011;-0.5373961;-0.2188366;-38;4;-2;3528;-962;-1199;8192;0.5443213;-0.7574823;-0.3421052;-0.1135734;3;-16;-6;1352;3678;-388;32768;0.5567867;-0.7968781;0.1232687;-0.199446;-4;-3;0;1844;3346;1107;256;0.3781163;-0.5880036;-0.4972299;-0.5138504;-1;-11;14;624;3870;-626;128;-0.2077562;0.1842105;0.8081691;0.5193906;-1;-14;-1;-242;3578;-1744;4;-0.5581717;0.1731302;-0.4487534;-0.6760847;0;0;6;2396;3144;100;16;0.7534817;-0.6537396;0.06925207;-0.009695291;-7;8;-3;313;4135;-822;2;0.5304709;-0.7166463;-0.3434903;-0.2950138;0;-5;0;640;3914;-722;8;0.3393352;-0.8159317;0.2922437;0.365651;-5;0;0;825;3253;2471;-0.6381536;2.531924;0.5591061;-0.6334414;2.961334;0.2226444;-0.6293131;3.337538;-0.07469732;-0.4918415;4.039877;0.08742657;-0.6829998;4.409999;0.1222906;-1.046899;4.327658;0.1528934;-0.6398891;4.867155;-0.4808381;-0.7658003;5.273734;0.3657063;-0.1723455;4.31005;0.12229;0.082245;4.106651;0.1528932;-0.2825624;3.238731;0.3575999;-0.5807643;2.444504;-0.06437999;-0.9503537;2.494808;0.581144;-0.1769432;1.324182;0.1660206;0;0;0;-0.9503537;2.494808;0.581144;-0.1769432;1.324182;0.1660206;0;0;0
826578.0502;NotLabelled;16384;0.8071204;0.4542936;0.265928;0.267313;-13;16;-3;2474;-2746;1394;65536;0.6153124;0.5318559;-0.5373961;-0.2229917;-30;3;-1;3528;-856;-1425;8192;0.5470914;-0.7581746;-0.3365651;-0.1121884;-2;-24;-5;1612;3738;-402;32768;0.5567867;-0.796913;0.1274238;-0.1966759;-7;-19;0;1550;3480;1307;256;0.3795014;-0.58832;-0.4972299;-0.5124654;-3;-7;11;664;3982;-758;128;-0.2091413;0.1855956;0.8074946;0.5193906;-7;-15;-1;-228;3558;-1588;4;-0.5595568;0.1717452;-0.4473684;-0.676211;0;0;8;2370;3060;158;16;0.7523848;-0.6551247;0.06786703;-0.01108033;-8;12;-3;439;4177;-708;2;0.5304709;-0.7178766;-0.3421052;-0.2936288;0;-7;0;586;3874;-836;8;0.3379501;-0.8158847;0.2922437;0.367036;-6;-2;0;867;3207;2433;-0.6437092;2.532233;0.5482118;-0.6389892;2.962355;0.2126606;-0.634854;3.339187;-0.08388323;-0.4945701;4.040459;0.08043805;-0.6842136;4.411265;0.1163043;-1.048469;4.330341;0.1464438;-0.6445546;4.876245;-0.4837708;-0.7691815;5.276251;0.3660878;-0.173978;4.309199;0.1163045;0.07974857;4.104655;0.1464449;-0.2867668;3.236385;0.3465676;-0.5813227;2.442158;-0.07796532;-0.9559098;2.49507;0.5701638;-0.1789524;1.324444;0.1617176;0;0;0;-0.9559098;2.49507;0.5701638;-0.1789524;1.324444;0.1617176;0;0;0
826598.5823;NotLabelled;16384;0.8063345;0.4556787;0.2686981;0.2645429;-3;6;-9;2490;-2568;1584;65536;0.6180592;0.5277008;-0.536011;-0.2285319;-13;3;1;3582;-1090;-1595;8192;0.5484765;-0.7588031;-0.333795;-0.1094183;-4;-25;-3;1684;3832;-466;32768;0.5567867;-0.7973691;0.1288089;-0.1939058;-10;-25;0;1616;3604;1397;256;0.3795014;-0.5907215;-0.4972299;-0.5096953;-1;-6;9;698;3910;-954;128;-0.2091413;0.1883656;0.806853;0.5193906;-10;-15;-2;-280;3612;-1508;4;-0.5595568;0.1717452;-0.4459834;-0.6771253;2;-4;10;2320;3102;162;16;0.7524868;-0.6551247;0.06648199;-0.01246537;-10;7;-4;569;4143;-668;2;0.5304709;-0.7178766;-0.3421052;-0.2936288;0;-9;-1;598;3814;-828;8;0.3365651;-0.816457;0.2922437;0.367036;-7;-5;0;979;3167;2369;-0.6459841;2.528774;0.5471916;-0.6412598;2.959264;0.2121133;-0.6371208;3.336422;-0.0840165;-0.4968077;4.038054;0.07873228;-0.6864575;4.408926;0.1138812;-1.050695;4.328045;0.1443523;-0.6497887;4.875359;-0.4865605;-0.7683801;5.26844;0.3673833;-0.176216;4.30689;0.1138811;0.07753564;4.102426;0.1443526;-0.2844782;3.231491;0.3410601;-0.5798846;2.438129;-0.08449674;-0.958185;2.491587;0.5690988;-0.1750623;1.325102;0.1605792;0;0;0;-0.958185;2.491587;0.5690988;-0.1750623;1.325102;0.1605792;0;0;0
826620.0179;NotLabelled;16384;0.8063345;0.4556787;0.2686981;0.2645429;0;2;-10;2690;-2518;1590;65536;0.6192392;0.5263157;-0.536011;-0.2285319;-5;1;4;3774;-1352;-1421;8192;0.5498615;-0.7592126;-0.3310249;-0.1080332;-7;-24;-2;1786;3934;-606;32768;0.5567867;-0.7973558;0.132964;-0.1911357;-11;-32;0;1632;3616;1469;256;0.3808864;-0.5910234;-0.4972299;-0.5083103;-2;-7;8;618;3940;-956;128;-0.2105263;0.1897507;0.806168;0.5193906;-8;-12;-1;-272;3692;-1680;4;-0.5595568;0.1703601;-0.4459834;-0.677475;0;-6;11;2276;3144;50;16;0.7514001;-0.6565097;0.06509695;-0.01246537;-10;7;-4;473;4171;-612;2;0.5318559;-0.7175103;-0.3407202;-0.2936288;0;-9;-1;708;3862;-810;8;0.33518;-0.8165299;0.2936288;0.367036;-8;-8;0;943;3151;2513;-0.6536405;2.527246;0.5383403;-0.6489088;2.958441;0.2041695;-0.6447631;3.336222;-0.09116513;-0.5013099;4.03717;0.07179314;-0.6892744;4.408899;0.1069341;-1.053892;4.329682;0.1372252;-0.6503345;4.877082;-0.4919202;-0.7629636;5.263021;0.3660782;-0.1795058;4.304526;0.1071416;0.07329269;4.098896;0.1376843;-0.2893846;3.228071;0.3336543;-0.584174;2.434068;-0.09113419;-0.9658419;2.490013;0.5601621;-0.1765552;1.325075;0.1591587;0;0;0;-0.9658419;2.490013;0.5601621;-0.1765552;1.325075;0.1591587;0;0;0
826640.1983;NotLabelled;16384;0.8054157;0.4556787;0.2700831;0.265928;3;4;-11;2794;-2502;1652;65536;0.6187262;0.5263157;-0.536011;-0.2299169;-2;-1;7;3678;-1486;-1229;8192;0.5512465;-0.7597998;-0.3282548;-0.1052632;-8;-22;0;1772;3808;-736;32768;0.5554016;-0.7982768;0.1371191;-0.1883656;-12;-32;0;1644;3614;1501;256;0.3822715;-0.5959913;-0.4944598;-0.5041551;-4;-9;7;712;3916;-940;128;-0.2132964;0.1952908;0.8032178;0.5207756;-13;-16;-1;-258;3826;-1492;4;-0.5595568;0.16759;-0.4445983;-0.6790745;0;-7;12;2252;3244;34;16;0.7503065;-0.6578947;0.06371191;-0.01246537;-10;15;-4;209;4245;-404;2;0.5318559;-0.7199445;-0.3379501;-0.2908587;0;-9;0;818;3846;-860;8;0.33241;-0.8170384;0.2936288;0.368421;-7;-5;0;1143;3053;2571;-0.6520126;2.52639;0.5355831;-0.6472765;2.95796;0.2018963;-0.6431271;3.336072;-0.0930143;-0.4995763;4.037379;0.06830573;-0.6875325;4.409172;0.1028028;-1.05212;4.330001;0.1335749;-0.6510173;4.878729;-0.4959828;-0.7629928;5.264224;0.3623019;-0.1777577;4.304829;0.1028026;0.07507861;4.099279;0.1335749;-0.2844894;3.227047;0.3290133;-0.580251;2.433886;-0.0966723;-0.9642143;2.489133;0.5573592;-0.1725819;1.326006;0.1557214;0;0;0;-0.9642143;2.489133;0.5573592;-0.1725819;1.326006;0.1557214;0;0;0
826660.2145;NotLabelled;16384;0.8057324;0.4542936;0.2714681;0.265928;4;9;-9;2846;-2448;1732;65536;0.6192392;0.5263157;-0.536011;-0.2285319;-2;-5;7;3552;-1656;-1043;8192;0.5526316;-0.7603639;-0.3254848;-0.1024931;-6;-20;2;1734;3728;-808;32768;0.5554016;-0.798445;0.1398892;-0.1855956;-11;-29;0;1638;3568;1591;256;0.3836565;-0.5962713;-0.4944598;-0.5027701;-6;-11;7;756;3794;-958;128;-0.2132964;0.1966759;0.8019797;0.5221606;-10;-13;-1;-316;3780;-1536;4;-0.5581717;0.1648199;-0.4445983;-0.6808898;-1;-8;7;2388;3360;146;16;0.7481866;-0.6606648;0.05955679;-0.01385042;-6;7;-3;571;4189;-374;2;0.533241;-0.7195688;-0.3365651;-0.2908587;0;-7;0;824;3906;-902;8;0.3310249;-0.8176005;0.2936288;0.368421;-5;-5;0;1135;3131;2651;-0.6617534;2.522266;0.5216381;-0.6569898;2.956365;0.1912488;-0.6528159;3.336712;-0.1007725;-0.5069488;4.036927;0.06319717;-0.693637;4.409244;0.098903;-1.058521;4.331231;0.1291173;-0.650701;4.877811;-0.4979882;-0.7748535;5.261388;0.3594801;-0.1842283;4.303128;0.09890279;0.06786832;4.09659;0.1291171;-0.2924076;3.224036;0.3218028;-0.587006;2.432784;-0.1082196;-0.9739569;2.484844;0.5431038;-0.1703459;1.326919;0.1503243;0;0;0;-0.9739569;2.484844;0.5431038;-0.1703459;1.326919;0.1503243;0;0;0
826681.031;NotLabelled;16384;0.8064998;0.4529086;0.2728532;0.2645429;3;7;-7;2752;-2432;1866;65536;0.6209437;0.5263157;-0.534626;-0.2271468;-3;-8;5;3424;-1808;-1165;8192;0.5526316;-0.7613233;-0.3240997;-0.09972299;-4;-19;3;1630;3726;-844;32768;0.5540166;-0.7989889;0.1440443;-0.1842105;-11;-25;0;1788;3532;1647;256;0.3850415;-0.597706;-0.4944598;-0.5;-7;-10;7;716;3736;-1066;128;-0.2146814;0.199446;0.8009254;0.5221606;-9;-14;0;-272;3770;-1620;4;-0.5581717;0.1648199;-0.4445983;-0.6808898;0;-5;5;2290;3310;40;16;0.7469613;-0.6620498;0.05955679;-0.01385042;-4;-2;-3;523;4167;-302;2;0.5318559;-0.7211506;-0.3365651;-0.2894737;1;-7;3;900;3894;-818;8;0.3296399;-0.817036;0.2950138;0.3698061;-3;-5;0;1139;3095;2707;-0.6575168;2.521257;0.5157177;-0.6527377;2.956764;0.1871867;-0.6485503;3.338356;-0.1032065;-0.5026498;4.038934;0.05917081;-0.6893436;4.411317;0.0941503;-1.054209;4.33335;0.1246999;-0.6432399;4.877447;-0.50251;-0.7698302;5.26294;0.3537406;-0.1799287;4.305232;0.09415004;0.0721938;4.098773;0.1246996;-0.2869401;3.225893;0.3180294;-0.5822815;2.434718;-0.1116255;-0.9697213;2.483744;0.5370086;-0.1622844;1.32866;0.1437084;0;0;0;-0.9697213;2.483744;0.5370086;-0.1622844;1.32866;0.1437084;0;0;0
826701.0334;NotLabelled;16384;0.8063345;0.4515235;0.2756233;0.2645429;3;5;-5;2822;-2428;1932;65536;0.622619;0.5249307;-0.534626;-0.2257618;-2;-2;3;3494;-1748;-1679;8192;0.5526316;-0.7630284;-0.3213296;-0.09556787;-2;-12;3;1746;3676;-876;32768;0.5526316;-0.8001346;0.1481994;-0.1800554;-9;-14;-1;1890;3370;1545;256;0.3864266;-0.5991118;-0.4930748;-0.4986149;-7;-9;7;806;3854;-1046;128;-0.2160665;0.200831;0.799301;0.5235457;-8;-14;0;-314;3884;-1482;4;-0.5581717;0.1634349;-0.4445983;-0.6812236;-1;-2;4;2276;3282;52;16;0.7469857;-0.6620498;0.05955679;-0.01246537;-2;-10;-4;463;4159;-306;2;0.5318559;-0.721705;-0.3365651;-0.2880886;3;-8;4;936;3894;-838;8;0.3282548;-0.8175935;0.2950138;0.3698061;-2;-3;-1;1145;3067;2611;-0.655617;2.521912;0.510204;-0.6508297;2.958168;0.1826677;-0.6466349;3.340421;-0.1068538;-0.4991185;4.041012;0.05400151;-0.684975;4.413879;0.08828652;-1.049998;4.33678;0.1191567;-0.6342946;4.879467;-0.5061511;-0.762922;5.268665;0.3481187;-0.1757955;4.306669;0.08828633;0.07588441;4.099719;0.1191564;-0.285527;3.227828;0.3127121;-0.5822813;2.439261;-0.1207454;-0.967822;2.48435;0.5314015;-0.158164;1.329267;0.1426942;0;0;0;-0.967822;2.48435;0.5314015;-0.158164;1.329267;0.1426942;0;0;0
826721.0442;NotLabelled;16384;0.8071085;0.4501385;0.2756233;0.2645429;1;5;-5;2832;-2410;1956;65536;0.622619;0.5249307;-0.534626;-0.2257618;-1;1;4;3564;-1774;-1355;8192;0.5526316;-0.7637823;-0.3199446;-0.09418282;0;-9;3;1612;3674;-870;32768;0.5512465;-0.8011421;0.1495845;-0.1786704;-8;-10;0;1940;3330;1557;256;0.3878116;-0.6005142;-0.4930748;-0.4958449;-5;-6;6;830;3842;-1030;128;-0.2160665;0.2022161;0.7989517;0.5235457;-3;-11;0;-352;3904;-1422;4;-0.5581717;0.1634349;-0.4445983;-0.6812236;-1;-3;3;2356;3216;76;16;0.7456658;-0.6634349;0.06094183;-0.01108033;-1;-11;-3;415;4187;-490;2;0.5318559;-0.7229002;-0.33518;-0.2867036;4;-9;4;878;3824;-936;8;0.3282548;-0.8175935;0.2950138;0.3698061;-1;-6;-2;1105;3011;2507;-0.6599203;2.520441;0.5050475;-0.6551172;2.95812;0.1794155;-0.6509085;3.341631;-0.1084374;-0.5038301;4.042216;0.0528467;-0.6899133;4.414951;0.08732724;-1.054894;4.337616;0.1181069;-0.6363798;4.876737;-0.5084106;-0.7670437;5.267374;0.3448929;-0.1806699;4.308045;0.08732737;0.07112955;4.101228;0.1181073;-0.2929032;3.230641;0.3126176;-0.5930202;2.443254;-0.1206717;-0.9721262;2.482788;0.526066;-0.1589218;1.329532;0.1393387;0;0;0;-0.9721262;2.482788;0.526066;-0.1589218;1.329532;0.1393387;0;0;0
826741.0249;NotLabelled;16384;0.8074056;0.4487534;0.2770083;0.2645429;0;13;-6;2888;-2456;1820;65536;0.622619;0.5249307;-0.534626;-0.2257618;-5;-2;4;3540;-1696;-1099;8192;0.5526316;-0.7637823;-0.3199446;-0.09418282;3;-8;4;1634;3648;-784;32768;0.5512465;-0.8008822;0.1509695;-0.1786704;-7;-6;-1;1858;3270;1567;256;0.3878116;-0.6016551;-0.4930748;-0.4944598;-7;-1;6;784;3844;-1012;128;-0.2174515;0.2036011;0.7982239;0.5235457;2;-8;0;-426;3914;-1368;4;-0.5567867;0.1620499;-0.4445983;-0.6826864;-2;-5;4;2402;3142;108;16;0.7456851;-0.6634349;0.06094183;-0.009695291;-1;-2;-3;257;4223;-584;2;0.5304709;-0.7244641;-0.33518;-0.2853186;1;-9;4;826;3852;-886;8;0.3268698;-0.8170196;0.2963989;0.3711911;0;-5;-1;933;3143;2565;-0.6574842;2.521074;0.4998657;-0.6526772;2.959119;0.1747277;-0.6484652;3.342955;-0.1126925;-0.499776;4.043551;0.04705754;-0.6850244;4.416767;0.08083862;-1.050161;4.340299;0.1119411;-0.6254138;4.877994;-0.5115999;-0.7608886;5.268631;0.3409525;-0.1760172;4.308742;0.08083831;0.07534098;4.101436;0.1119409;-0.2904257;3.231162;0.3045889;-0.5919473;2.444903;-0.1297716;-0.9696906;2.483397;0.5208379;-0.1543177;1.330141;0.1387033;0;0;0;-0.9696906;2.483397;0.5208379;-0.1543177;1.330141;0.1387033;0;0;0
826761.2674;NotLabelled;16384;0.8078319;0.4487534;0.2783934;0.2617728;-1;16;-5;2722;-2542;1778;65536;0.6238056;0.5249307;-0.533241;-0.2257618;-9;-5;3;3544;-1558;-949;8192;0.5512465;-0.7655297;-0.3185596;-0.09279778;5;-7;5;1584;3658;-700;32768;0.5498615;-0.8018338;0.1509695;-0.1786704;-8;0;-1;1764;3312;1585;256;0.3905817;-0.6032615;-0.4930748;-0.4903047;-13;-7;8;818;3840;-948;128;-0.2188366;0.2063712;0.7980412;0.5221606;3;-6;-2;-412;3720;-1454;4;-0.5567867;0.1592798;-0.4432133;-0.6842371;0;-2;7;2612;3086;22;16;0.745797;-0.6634349;0.05955679;-0.009695291;-4;1;-3;377;4175;-536;2;0.5304709;-0.7256468;-0.333795;-0.2839335;1;-6;4;736;3916;-900;8;0.3268698;-0.8165158;0.2977839;0.3711911;0;-5;-2;1019;3245;2485;-0.6602107;2.520345;0.4949425;-0.6553994;2.95878;0.1703297;-0.6511835;3.34296;-0.1166301;-0.5009227;4.043202;0.04319665;-0.6853321;4.41683;0.07701272;-1.05064;4.34118;0.108099;-0.6232227;4.87637;-0.5157718;-0.7610993;5.267007;0.3363959;-0.1765691;4.307661;0.07701249;0.07432149;4.099786;0.1080989;-0.2919834;3.229513;0.2997218;-0.5922455;2.443994;-0.1368451;-0.9724173;2.482642;0.5158655;-0.1546454;1.330403;0.1357979;0;0;0;-0.9724173;2.482642;0.5158655;-0.1546454;1.330403;0.1357979;0;0;0
826782.0307;NotLabelled;16384;0.8078011;0.4487534;0.2797784;0.2603878;-2;17;-6;2634;-2558;1792;65536;0.6244664;0.5235457;-0.533241;-0.2271468;-15;-6;3;3670;-1688;-1055;8192;0.5512465;-0.7656963;-0.3185596;-0.09141274;5;-9;5;1506;3730;-662;32768;0.5484765;-0.8030888;0.1509695;-0.1772853;-9;1;-2;1812;3346;1585;256;0.3919668;-0.6046067;-0.4930748;-0.4875346;-17;-8;10;770;3930;-1018;128;-0.2202216;0.2077562;0.7982059;0.5207756;3;-7;-2;-382;3710;-1494;4;-0.5581717;0.1578947;-0.4432133;-0.6834292;0;-2;9;2602;2980;56;16;0.745797;-0.6634349;0.05955679;-0.009695291;-6;0;-3;543;4161;-740;2;0.5304709;-0.7256468;-0.333795;-0.2839335;0;-4;3;762;3868;-854;8;0.3268698;-0.8165158;0.2977839;0.3711911;0;-4;-1;1063;3183;2517;-0.6711453;2.515295;0.4863002;-0.666337;2.953464;0.1613294;-0.6621236;3.337409;-0.1259443;-0.5102175;4.038013;0.03071842;-0.6937963;4.412176;0.06309146;-1.059236;4.337443;0.09484267;-0.6278747;4.873738;-0.5253552;-0.770079;5.266148;0.3252853;-0.185268;4.301919;0.06309133;0.06520677;4.093645;0.09484255;-0.3061609;3.224673;0.2825937;-0.6056409;2.440265;-0.1564999;-0.9833517;2.477609;0.5072568;-0.1561349;1.330639;0.1317191;0;0;0;-0.9833517;2.477609;0.5072568;-0.1561349;1.330639;0.1317191;0;0;0
826803.9198;NotLabelled;16384;0.8080504;0.4473684;0.2825485;0.2590028;-1;18;-6;2758;-2606;1762;65536;0.6251204;0.5221606;-0.533241;-0.2285319;-18;-7;5;3838;-1508;-1221;8192;0.5484765;-0.7685807;-0.3171745;-0.08864266;7;-9;8;1576;3820;-728;32768;0.5457063;-0.8049737;0.1509695;-0.1772853;-12;0;-2;1854;3414;1545;256;0.3947368;-0.6050096;-0.4944598;-0.4833795;-18;-7;10;806;3924;-1014;128;-0.2202216;0.2091413;0.7978441;0.5207756;3;-8;-2;-448;3788;-1450;4;-0.5581717;0.1565097;-0.4418283;-0.6846436;0;-1;12;2566;2990;72;16;0.7446721;-0.66482;0.05817174;-0.009695291;-7;1;-4;411;4197;-708;2;0.5304709;-0.7261872;-0.333795;-0.2825485;0;-1;3;638;3894;-830;8;0.3268698;-0.8153778;0.299169;0.3725762;0;-4;0;907;3163;2493;-0.6754328;2.512589;0.4856285;-0.6706314;2.950125;0.1598057;-0.6664242;3.333511;-0.1282146;-0.5129117;4.034109;0.02689448;-0.6956558;4.408742;0.05855972;-1.061243;4.334877;0.09063679;-0.6275827;4.871192;-0.5279386;-0.7718264;5.26122;0.3234535;-0.1873702;4.297371;0.0585594;0.06266281;4.088617;0.09063654;-0.3103925;3.220321;0.2781661;-0.6113197;2.436317;-0.16066;-0.9876388;2.474945;0.5066651;-0.1568656;1.330638;0.1308484;0;0;0;-0.9876388;2.474945;0.5066651;-0.1568656;1.330638;0.1308484;0;0;0
826825.0431;NotLabelled;16384;0.809163;0.4459834;0.2853186;0.2548476;2;21;-6;2502;-2624;1722;65536;0.6297402;0.5180055;-0.5318559;-0.2285319;-18;-10;7;3562;-1366;-1277;8192;0.5470914;-0.7695673;-0.3171745;-0.08864266;7;-10;9;1496;3802;-698;32768;0.5443213;-0.8059109;0.1509695;-0.1772853;-13;2;-4;1888;3410;1409;256;0.3961219;-0.6063098;-0.4944598;-0.4806094;-18;-4;9;844;3812;-1060;128;-0.2216066;0.2105263;0.7979991;0.5193906;2;-8;-2;-362;3820;-1390;4;-0.5595568;0.1551246;-0.4404432;-0.6847206;2;0;12;2672;2898;14;16;0.7447789;-0.66482;0.0567867;-0.009695291;-9;6;-4;357;4145;-512;2;0.5304709;-0.7261872;-0.333795;-0.2825485;0;-3;4;662;3902;-864;8;0.3268698;-0.8147436;0.299169;0.3739612;-2;0;-1;945;3197;2465;-0.6784135;2.509955;0.4772627;-0.6736079;2.947871;0.1519497;-0.6693971;3.331592;-0.1356238;-0.513741;4.032857;0.01424581;-0.6954186;4.408203;0.04352456;-1.061154;4.335564;0.07669872;-0.6248302;4.869397;-0.5421493;-0.7710692;5.257034;0.3099943;-0.1874373;4.295452;0.04352425;0.0620792;4.086251;0.07669836;-0.3187645;3.220963;0.2624695;-0.6230229;2.439226;-0.1781004;-0.9906197;2.472286;0.4982513;-0.1529412;1.331442;0.1272686;0;0;0;-0.9906197;2.472286;0.4982513;-0.1529412;1.331442;0.1272686;0;0;0
826845.0444;NotLabelled;16384;0.8103026;0.4445983;0.2867036;0.2520775;4;16;-7;2562;-2644;1708;65536;0.6320086;0.5152354;-0.5318559;-0.2285319;-16;-12;8;3506;-1366;-1397;8192;0.5470914;-0.7702948;-0.3157895;-0.08725762;7;-11;8;1492;3752;-782;32768;0.5429363;-0.8071478;0.1509695;-0.1759003;-13;3;-4;1922;3326;1391;256;0.3975069;-0.6064616;-0.4958449;-0.4778393;-16;-3;9;818;3724;-1038;128;-0.2216066;0.2119114;0.7976325;0.5193906;1;-5;-3;-432;3822;-1442;4;-0.5595568;0.1537396;-0.4390582;-0.6859215;3;-4;12;2674;3102;-6;16;0.7436448;-0.666205;0.05540166;-0.009695291;-9;3;-4;385;4161;-390;2;0.5304709;-0.7267246;-0.333795;-0.2811634;-1;-2;2;620;3964;-876;8;0.3254848;-0.8152979;0.299169;0.3739612;-3;-3;0;1095;3285;2475;-0.6863758;2.505833;0.4709648;-0.6815771;2.943121;0.1448095;-0.6773725;3.326288;-0.1435021;-0.5201065;4.027529;0.004793525;-0.7009464;4.403334;0.03335565;-1.066824;4.331569;0.06685865;-0.6276944;4.865111;-0.5502524;-0.7677081;5.25296;0.3028398;-0.1932137;4.289469;0.03335531;0.05585927;4.079792;0.06685826;-0.3288654;3.215528;0.2493694;-0.6335569;2.434938;-0.1929299;-0.9985815;2.468204;0.4920326;-0.153928;1.33167;0.1236469;0;0;0;-0.9985815;2.468204;0.4920326;-0.153928;1.33167;0.1236469;0;0;0
826865.4425;NotLabelled;16384;0.8109995;0.4432133;0.2880886;0.2506925;6;15;-7;2618;-2632;1738;65536;0.6342568;0.5124654;-0.5318559;-0.2285319;-14;-12;6;3414;-1454;-1387;8192;0.5457063;-0.7714321;-0.3157895;-0.08587258;6;-9;7;1556;3810;-818;32768;0.5415512;-0.8080777;0.1509695;-0.1759003;-12;2;-3;1972;3354;1333;256;0.400277;-0.6078439;-0.4972299;-0.4722992;-14;-3;9;832;3854;-958;128;-0.2229917;0.2132964;0.797778;0.5180055;7;-5;-3;-472;3858;-1336;4;-0.5609418;0.1509695;-0.4376731;-0.6862906;0;-2;9;2632;3112;186;16;0.7412561;-0.6689751;0.05401662;-0.009695291;-9;7;-5;369;4133;-454;2;0.5304709;-0.7267246;-0.333795;-0.2811634;-1;-1;2;598;3896;-970;8;0.3254848;-0.8152979;0.299169;0.3739612;-3;-4;-1;1035;3279;2509;-0.6878002;2.503137;0.4653941;-0.6829973;2.940809;0.1397546;-0.6787887;3.324316;-0.1481049;-0.5194181;4.02584;-0.003435284;-0.6991857;4.40228;0.02347696;-1.065223;4.331695;0.05773616;-0.6236479;4.864915;-0.5579072;-0.7605777;5.251672;0.2961808;-0.1917702;4.287009;0.02347651;0.05675899;4.07681;0.05773605;-0.3289488;3.212865;0.2396807;-0.636346;2.432721;-0.2015333;-1.000006;2.465483;0.4864134;-0.149565;1.332449;0.12057;0;0;0;-1.000006;2.465483;0.4864134;-0.149565;1.332449;0.12057;0;0;0
826885.603;NotLabelled;16384;0.811262;0.4418283;0.2894737;0.2506925;8;14;-6;2582;-2612;1820;65536;0.6353734;0.5110803;-0.5318559;-0.2285319;-12;-12;7;3562;-1324;-1521;8192;0.5443213;-0.7725627;-0.3157895;-0.08448754;5;-7;6;1634;3776;-850;32768;0.5401662;-0.8090042;0.1509695;-0.1759003;-12;0;-4;1966;3448;1315;256;0.4016621;-0.6090751;-0.4972299;-0.4695291;-14;-2;7;870;3878;-974;128;-0.2229917;0.2146814;0.7983044;0.5166205;8;-7;-2;-410;3888;-1356;4;-0.5609418;0.1495845;-0.4362881;-0.6874747;0;0;8;2664;3076;128;16;0.7401035;-0.6703601;0.05263158;-0.009695291;-10;6;-5;453;4159;-426;2;0.5304709;-0.7267246;-0.333795;-0.2811634;0;-3;3;544;3956;-946;8;0.3254848;-0.8152979;0.299169;0.3739612;-5;-2;-1;957;3355;2509;-0.6882805;2.498145;0.4593092;-0.6834844;2.935198;0.1328374;-0.6792819;3.318156;-0.1557515;-0.5161937;4.019885;-0.01631868;-0.6940463;4.397395;0.008212447;-1.060372;4.328877;0.04356152;-0.6127522;4.860681;-0.568934;-0.7512394;5.246303;0.2854156;-0.1872099;4.279606;0.008211836;0.06032919;4.068421;0.04356104;-0.3303396;3.206193;0.2230486;-0.6370181;2.427213;-0.2207153;-1.000486;2.460532;0.4804066;-0.1408133;1.333729;0.1169007;0;0;0;-1.000486;2.460532;0.4804066;-0.1408133;1.333729;0.1169007;0;0;0
826906.0368;NotLabelled;16384;0.8119463;0.4404432;0.2908587;0.2493075;11;11;-6;2706;-2602;1798;65536;0.6369807;0.5096953;-0.5318559;-0.2271468;-7;-13;6;3560;-1384;-1523;8192;0.5429363;-0.7742506;-0.3144044;-0.08310249;5;-5;7;1544;3826;-796;32768;0.5373961;-0.8111461;0.1509695;-0.1745152;-10;0;-3;1960;3444;1403;256;0.4030471;-0.609157;-0.4986149;-0.466759;-14;-1;7;848;3936;-932;128;-0.2229917;0.2146814;0.799199;0.5152354;9;-6;-2;-382;3904;-1320;4;-0.5623268;0.1495845;-0.434903;-0.6872208;1;-3;9;2784;3028;138;16;0.738944;-0.6717451;0.05124654;-0.009695291;-11;2;-6;553;4225;-430;2;0.5304709;-0.7273592;-0.33241;-0.2811634;0;-3;3;496;3926;-848;8;0.3240997;-0.8152131;0.299169;0.3753462;-6;-3;0;979;3281;2421;-0.690832;2.49528;0.4509108;-0.686043;2.931691;0.1235815;-0.6818469;3.314082;-0.1657587;-0.5171453;4.015751;-0.02792865;-0.6941551;4.393704;-0.004126072;-1.060613;4.326068;0.03155577;-0.608788;4.855361;-0.5800273;-0.7492431;5.2404;0.2742647;-0.1875789;4.2748;-0.004126549;0.05951325;4.063148;0.03155531;-0.3355449;3.20265;0.2097326;-0.6426604;2.424844;-0.235783;-1.003037;2.457709;0.4720889;-0.1366641;1.334449;0.1135582;0;0;0;-1.003037;2.457709;0.4720889;-0.1366641;1.334449;0.1135582;0;0;0
826926.0985;NotLabelled;16384;0.8134428;0.4376731;0.2908587;0.2493075;11;9;-4;2600;-2566;1830;65536;0.640108;0.5055401;-0.533241;-0.2243767;-3;-15;4;3504;-1514;-1517;8192;0.5415512;-0.7753673;-0.3144044;-0.08171745;6;-5;7;1570;3838;-790;32768;0.536011;-0.8120621;0.1509695;-0.1745152;-9;2;-3;1906;3446;1477;256;0.4044321;-0.6092987;-0.4986149;-0.4653739;-14;0;6;914;3836;-980;128;-0.2243767;0.2160665;0.7993298;0.5138504;10;-3;-2;-402;3946;-1420;4;-0.5623268;0.1481994;-0.433518;-0.688395;2;-6;9;2836;2974;-8;16;0.7377775;-0.6731302;0.04986149;-0.009695291;-12;2;-7;313;4151;-338;2;0.5304709;-0.7273592;-0.33241;-0.2811634;0;-4;2;600;3914;-748;8;0.3240997;-0.8152131;0.299169;0.3753462;-6;-3;0;945;3257;2521;-0.6907207;2.493409;0.4450258;-0.6859431;2.928785;0.1163217;-0.681757;3.310262;-0.1742232;-0.5149486;4.012145;-0.04006472;-0.6908817;4.390702;-0.01793009;-1.057483;4.324262;0.01851314;-0.6031166;4.852131;-0.5924156;-0.7430506;5.238451;0.2613831;-0.1846374;4.270392;-0.01793058;0.06190876;4.058234;0.01851239;-0.3369553;3.199115;0.1948554;-0.6496481;2.422978;-0.249691;-1.002925;2.455904;0.4663331;-0.1321471;1.335148;0.1106511;0;0;0;-1.002925;2.455904;0.4663331;-0.1321471;1.335148;0.1106511;0;0;0
826947.0307;NotLabelled;16384;0.8153496;0.434903;0.2908587;0.2479224;13;6;-4;2644;-2626;1934;65536;0.640529;0.5041551;-0.534626;-0.2229917;-1;-13;4;3632;-1464;-1659;8192;0.5415512;-0.7753673;-0.3144044;-0.08171745;6;-4;7;1628;3818;-836;32768;0.536011;-0.8120621;0.1509695;-0.1745152;-9;3;-3;1952;3398;1469;256;0.4058172;-0.6093522;-0.5;-0.4626039;-14;0;6;884;3912;-886;128;-0.2243767;0.2160665;0.8002185;0.5124654;11;-4;-3;-458;3868;-1402;4;-0.5623268;0.1468144;-0.432133;-0.6895615;2;-3;8;2844;2940;80;16;0.7366208;-0.6745152;0.04847645;-0.008310249;-11;4;-7;289;4129;-400;2;0.5304709;-0.7278931;-0.33241;-0.2797784;0;-5;2;658;3908;-994;8;0.3227147;-0.8151237;0.299169;0.3767313;-8;-1;-1;941;3255;2507;-0.6918408;2.490472;0.4394014;-0.6870698;2.925231;0.1098821;-0.6828895;3.306163;-0.1813771;-0.5160317;4.008354;-0.04890662;-0.6919652;4.386955;-0.0275383;-1.058545;4.320587;0.009253919;-0.598531;4.8455;-0.5999941;-0.7355788;5.232002;0.2541902;-0.185717;4.266661;-0.02753857;0.06085572;4.054595;0.009253893;-0.3417485;3.19723;0.1856353;-0.6560745;2.422292;-0.2598498;-1.004045;2.453007;0.4607852;-0.1276092;1.335825;0.1077624;0;0;0;-1.004045;2.453007;0.4607852;-0.1276092;1.335825;0.1077624;0;0;0
826967.2294;NotLabelled;16384;0.8160869;0.433518;0.2908587;0.2479224;13;6;-3;2712;-2536;1974;65536;0.6398517;0.5041551;-0.536011;-0.2216066;0;-14;4;3552;-1468;-1639;8192;0.5401662;-0.7764773;-0.3144044;-0.08033241;5;-3;7;1596;3798;-904;32768;0.534626;-0.8129746;0.1509695;-0.1745152;-9;3;-3;1924;3408;1513;256;0.4072022;-0.6105238;-0.5;-0.4598338;-14;0;5;920;3960;-824;128;-0.2243767;0.2160665;0.8011038;0.5110803;12;-5;-2;-416;3852;-1484;4;-0.5623268;0.1454294;-0.432133;-0.689855;0;0;7;2682;2974;90;16;0.7354401;-0.6759003;0.04709141;-0.008310249;-13;4;-7;257;4179;-456;2;0.5318559;-0.7268816;-0.33241;-0.2797784;-2;0;0;522;3900;-788;8;0.3213296;-0.8155367;0.2977839;0.3781163;-10;0;0;987;3293;2461;-0.6926365;2.487678;0.4314047;-0.6878769;2.921399;0.1005194;-0.6837068;3.301412;-0.1919368;-0.5147437;4.003787;-0.06315985;-0.6896006;4.382977;-0.04346824;-1.056319;4.317812;-0.005912364;-0.5899853;4.84083;-0.6119773;-0.7293319;5.226868;0.2420449;-0.1836885;4.261279;-0.04346848;0.06233912;4.048713;-0.005912654;-0.3408309;3.191348;0.1691715;-0.6540436;2.41641;-0.2770969;-1.00484;2.450281;0.4529172;-0.1228334;1.336693;0.102422;0;0;0;-1.00484;2.450281;0.4529172;-0.1228334;1.336693;0.102422;0;0;0
826989.1148;NotLabelled;16384;0.8175524;0.4307479;0.2908587;0.2479224;14;6;-2;2614;-2340;2004;65536;0.6402578;0.5027701;-0.5373961;-0.2202216;1;-13;4;3498;-1572;-1653;8192;0.5387812;-0.777439;-0.3144044;-0.08033241;5;-3;7;1570;3828;-854;32768;0.533241;-0.8141394;0.1495845;-0.1745152;-10;3;-3;1962;3386;1545;256;0.4099723;-0.6106495;-0.501385;-0.4556787;-15;1;4;812;3806;-850;128;-0.2257618;0.2174515;0.8021017;0.5083103;9;-2;-3;-510;3826;-1458;4;-0.5637119;0.1440443;-0.4293629;-0.6907443;3;-3;9;2790;2824;-18;16;0.7330574;-0.6786703;0.04432133;-0.008310249;-16;6;-9;395;4165;-500;2;0.5318559;-0.7268816;-0.33241;-0.2797784;-2;1;0;610;3906;-748;8;0.3199446;-0.816081;0.2977839;0.3781163;-12;-1;0;975;3185;2435;-0.6915301;2.486331;0.4260122;-0.6867819;2.919009;0.09376484;-0.6826219;3.298102;-0.1998845;-0.5120401;4.000383;-0.07273975;-0.6860492;4.380001;-0.05378836;-1.05289;4.315728;-0.01589584;-0.5811374;4.837244;-0.6190538;-0.7277955;5.223457;0.2336642;-0.180407;4.257185;-0.0537888;0.06517074;4.04416;-0.01589645;-0.3423155;3.188562;0.1578345;-0.655961;2.414831;-0.2902211;-1.003733;2.449002;0.4476527;-0.1184835;1.337322;0.09928216;0;0;0;-1.003733;2.449002;0.4476527;-0.1184835;1.337322;0.09928216;0;0;0
827010.2032;NotLabelled;16384;0.8182806;0.4293629;0.2908587;0.2479224;15;6;-1;2546;-2346;2006;65536;0.641817;0.501385;-0.5373961;-0.2188366;2;-14;4;3390;-1560;-1647;8192;0.5387812;-0.7775809;-0.3144044;-0.07894737;5;-3;8;1606;3738;-880;32768;0.5318559;-0.8150449;0.1495845;-0.1745152;-9;4;-3;1872;3420;1583;256;0.4113573;-0.6096103;-0.5027701;-0.4542936;-13;2;3;850;3852;-758;128;-0.2257618;0.2174515;0.8029778;0.5069252;8;0;-3;-464;3752;-1436;4;-0.5637119;0.1426593;-0.4279778;-0.6918904;5;-6;9;2798;2850;22;16;0.7318553;-0.6800554;0.04293629;-0.008310249;-19;4;-10;329;4155;-262;2;0.5318559;-0.726347;-0.33241;-0.2811634;-3;0;0;628;3928;-852;8;0.3185596;-0.8164841;0.2963989;0.3795014;-13;-2;0;965;3251;2481;-0.6920036;2.481246;0.4147605;-0.6872737;2.912262;0.0803594;-0.6831298;3.289886;-0.2151769;-0.5103906;3.992601;-0.09346366;-0.6833212;4.372826;-0.07697493;-1.050269;4.309845;-0.03796422;-0.5708354;4.828339;-0.637661;-0.7219868;5.214087;0.2144816;-0.1780193;4.248618;-0.07697546;0.06703942;4.035198;-0.03796465;-0.3441739;3.180686;0.1322945;-0.6584653;2.407453;-0.3161694;-1.004205;2.444025;0.436604;-0.1091142;1.338516;0.0937908;0;0;0;-1.004205;2.444025;0.436604;-0.1091142;1.338516;0.0937908;0;0;0
827031.0452;NotLabelled;16384;0.8204474;0.4252077;0.2908587;0.2479224;13;6;-2;2556;-2274;2074;65536;0.6419753;0.5;-0.5401662;-0.2146814;2;-14;5;3262;-1530;-1693;8192;0.536011;-0.779072;-0.3157895;-0.07756232;5;-2;8;1676;3600;-912;32768;0.5304709;-0.8161997;0.1481994;-0.1745152;-8;7;-3;1868;3346;1499;256;0.4127424;-0.6097047;-0.5027701;-0.4529086;-12;1;2;884;3790;-738;128;-0.2257618;0.2174515;0.8029778;0.5069252;8;1;-2;-440;3772;-1382;4;-0.5637119;0.1412742;-0.4265928;-0.6930289;2;-4;10;2872;2900;10;16;0.7293661;-0.6828254;0.04155125;-0.006925208;-20;5;-11;399;4183;-478;2;0.533241;-0.7253308;-0.33241;-0.2811634;-4;2;-1;590;3960;-782;8;0.3171745;-0.8170231;0.2963989;0.3795014;-13;0;1;921;3207;2547;-0.6915512;2.478091;0.412106;-0.6868328;2.908058;0.07635623;-0.682699;3.284754;-0.2203616;-0.5094302;3.987988;-0.1024537;-0.682136;4.368386;-0.08768928;-1.049068;4.305804;-0.04789698;-0.5683143;4.822778;-0.6478494;-0.7165935;5.209738;0.2042492;-0.1769012;4.243905;-0.08768959;0.06809194;4.030553;-0.04789713;-0.3434758;3.176735;0.1249651;-0.6606764;2.404727;-0.3235598;-1.003752;2.440939;0.4340767;-0.1041263;1.339079;0.09138633;0;0;0;-1.003752;2.440939;0.4340767;-0.1041263;1.339079;0.09138633;0;0;0
827052.0408;NotLabelled;16384;0.8218772;0.4224377;0.2908587;0.2479224;12;3;-3;2384;-2228;2164;65536;0.642895;0.5;-0.5401662;-0.2119114;2;-11;5;3180;-1506;-1813;8192;0.534626;-0.7801597;-0.3157895;-0.07617728;6;0;7;1704;3550;-938;32768;0.5290859;-0.8173482;0.1468144;-0.1745152;-7;7;-4;1822;3292;1497;256;0.4141274;-0.6108159;-0.5027701;-0.4501385;-12;1;2;796;3732;-700;128;-0.2257618;0.2174515;0.8038505;0.5055401;6;2;-2;-446;3688;-1414;4;-0.5650969;0.1398892;-0.4252077;-0.6930331;1;1;10;2784;2832;-10;16;0.7281566;-0.6842105;0.0401662;-0.005540166;-23;0;-12;337;4185;-480;2;0.533241;-0.7253308;-0.33241;-0.2811634;-4;2;0;682;3930;-816;8;0.3157895;-0.8174163;0.2950138;0.3808864;-14;0;1;905;3149;2589;-0.6869879;2.475492;0.4045286;-0.6822695;2.905459;0.06877875;-0.6781356;3.282154;-0.2279392;-0.5048146;3.985663;-0.1117572;-0.6775202;4.36609;-0.09777415;-1.044428;4.303593;-0.05762827;-0.5556313;4.81597;-0.6550192;-0.7090552;5.2045;0.1954527;-0.1722828;4.241621;-0.09777428;0.07273753;4.028366;-0.0576282;-0.3455379;3.177812;0.1152246;-0.6644719;2.406324;-0.3329667;-0.9991884;2.43834;0.4264992;-0.0940745;1.340147;0.08649817;0;0;0;-0.9991884;2.43834;0.4264992;-0.0940745;1.340147;0.08649817;0;0;0
827073.0122;NotLabelled;16384;0.823076;0.4210526;0.2894737;0.2479224;12;0;-4;2518;-2238;2216;65536;0.6432605;0.4986149;-0.5415512;-0.2105263;3;-10;4;3176;-1532;-1809;8192;0.534626;-0.7795976;-0.3171745;-0.07617728;7;0;6;1672;3580;-814;32768;0.5277008;-0.8182431;0.1468144;-0.1745152;-6;6;-4;1798;3272;1443;256;0.4155124;-0.6097519;-0.5041551;-0.4487534;-9;4;1;854;3746;-748;128;-0.2257618;0.2174515;0.8038505;0.5055401;5;0;-1;-406;3744;-1440;4;-0.566482;0.1385041;-0.4238227;-0.6930289;2;1;12;2872;2754;38;16;0.7256283;-0.6869806;0.03878116;-0.004155125;-25;5;-13;329;4169;-266;2;0.534626;-0.7236733;-0.333795;-0.2811634;-4;6;0;488;3950;-724;8;0.3116343;-0.8190094;0.2950138;0.3808864;-15;-3;2;1037;3185;2495;-0.6887153;2.471569;0.3960775;-0.6840086;2.900483;0.05898362;-0.6798851;3.276248;-0.2389119;-0.5049371;3.979628;-0.1243978;-0.6767892;4.360468;-0.1111698;-1.043813;4.298876;-0.07068223;-0.5471759;4.808158;-0.6642417;-0.7048857;5.200395;0.1837414;-0.1718296;4.234876;-0.1111705;0.07273864;4.021167;-0.07068284;-0.3499111;3.172428;0.1004448;-0.6693976;2.401474;-0.3482704;-1.000915;2.434485;0.4181752;-0.08925825;1.340815;0.08109234;0;0;0;-1.000915;2.434485;0.4181752;-0.08925825;1.340815;0.08109234;0;0;0
827093.048;NotLabelled;16384;0.8240695;0.4182825;0.2894737;0.2493075;11;2;-5;2556;-2192;2152;65536;0.6425444;0.4986149;-0.5429363;-0.2091413;4;-9;5;3260;-1542;-1791;8192;0.533241;-0.7805456;-0.3171745;-0.07617728;4;1;6;1652;3620;-884;32768;0.5277008;-0.8184904;0.1454294;-0.1745152;-4;7;-3;1838;3288;1493;256;0.4182825;-0.6088751;-0.5041551;-0.4473684;-9;2;0;796;3836;-614;128;-0.2243767;0.2160665;0.80548;0.5041551;7;3;-2;-366;3672;-1440;4;-0.5692521;0.1357341;-0.4196676;-0.6938353;-1;4;14;2830;2862;122;16;0.7191634;-0.6939058;0.03601108;-0.001385042;-28;-9;-16;469;4219;-276;2;0.536011;-0.7221076;-0.333795;-0.2825485;-4;6;0;466;3906;-680;8;0.3088643;-0.8199106;0.2936288;0.3822715;-17;-3;3;863;3179;2475;-0.6829512;2.467945;0.3936178;-0.6782444;2.89686;0.05652398;-0.6741208;3.272625;-0.2413715;-0.4986496;3.976487;-0.1306894;-0.6702806;4.357484;-0.1191956;-1.037285;4.296299;-0.07792461;-0.537822;4.805043;-0.6695713;-0.6955152;5.196801;0.1786354;-0.1653889;4.231618;-0.119196;0.07911643;4.017988;-0.07792497;-0.343491;3.169621;0.09513709;-0.6658809;2.399917;-0.3536484;-0.9951509;2.430862;0.4157155;-0.07883917;1.341734;0.07655212;0;0;0;-0.9951509;2.430862;0.4157155;-0.07883917;1.341734;0.07655212;0;0;0
827114.0361;NotLabelled;16384;0.824771;0.4168975;0.2894737;0.2493075;11;1;-4;2546;-2158;2214;65536;0.6440652;0.4972299;-0.5429363;-0.2077562;3;-9;5;3236;-1568;-1679;8192;0.5318559;-0.7809265;-0.3185596;-0.07617728;5;2;6;1650;3682;-880;32768;0.5263157;-0.8196264;0.1440443;-0.1745152;-4;8;-3;1700;3322;1481;256;0.4196676;-0.6089381;-0.5041551;-0.4459834;-9;3;0;776;3752;-664;128;-0.2257618;0.2160665;0.8050929;0.5041551;8;1;0;-378;3616;-1456;4;-0.5706371;0.132964;-0.4182825;-0.6940703;-2;6;16;2680;2732;96;16;0.7164816;-0.6966759;0.03601108;0;-30;-11;-18;275;4237;-394;2;0.536011;-0.7221076;-0.333795;-0.2825485;-4;2;-1;492;3778;-714;8;0.3074792;-0.8204311;0.2936288;0.3822715;-19;-2;4;859;3109;2453;-0.670463;2.458671;0.3828465;-0.6657726;2.886091;0.04386014;-0.6616634;3.260535;-0.2556933;-0.4876687;3.965314;-0.1485653;-0.6601549;4.345969;-0.1386787;-1.02697;4.284147;-0.09668273;-0.5210868;4.788691;-0.6864676;-0.6837136;5.180645;0.1607161;-0.1549776;4.221255;-0.1386793;0.0900626;4.00838;-0.09668304;-0.3358959;3.161131;0.07362077;-0.6572784;2.390722;-0.3746772;-0.9826617;2.421685;0.4051228;-0.0529053;1.343486;0.06763712;0;0;0;-0.9826617;2.421685;0.4051228;-0.0529053;1.343486;0.06763712;0;0;0
827134.2445;NotLabelled;16384;0.8250501;0.4155124;0.2894737;0.2506925;10;2;-4;2604;-2140;2172;65536;0.6449522;0.4972299;-0.5429363;-0.2049861;3;-10;4;3194;-1628;-1721;8192;0.5304709;-0.781436;-0.3199446;-0.07479224;2;2;4;1710;3494;-746;32768;0.5263157;-0.8198686;0.1426593;-0.1745152;-2;5;-3;1728;3328;1483;256;0.4210526;-0.6089948;-0.5041551;-0.4445983;-7;5;0;792;3690;-688;128;-0.2257618;0.2146814;0.8063286;0.5027701;5;4;0;-388;3664;-1494;4;-0.5720221;0.1315789;-0.4168975;-0.6940275;-3;-1;17;2642;2720;64;16;0.7138341;-0.699446;0.03462604;0.004155125;-31;-10;-19;-57;4171;-126;2;0.5373961;-0.7204347;-0.33518;-0.2825485;-4;3;-2;552;3762;-700;8;0.3047091;-0.8213121;0.2922437;0.3836565;-21;-2;5;897;3027;2537;-0.6669233;2.45254;0.3828604;-0.6622326;2.879988;0.04390991;-0.6581234;3.254459;-0.2556121;-0.4840766;3.959488;-0.150239;-0.6565624;4.340164;-0.1411459;-1.023352;4.278435;-0.0987922;-0.514468;4.781404;-0.6873387;-0.6766335;5.174531;0.1593907;-0.1513835;4.215456;-0.1411464;0.09368413;4.002684;-0.09879286;-0.335404;3.156932;0.07109463;-0.6585253;2.387081;-0.3769107;-0.979122;2.415553;0.4051334;-0.04248038;1.343954;0.06566986;0;0;0;-0.979122;2.415553;0.4051334;-0.04248038;1.343954;0.06566986;0;0;0
827155.0207;NotLabelled;16384;0.8260179;0.4127424;0.2894737;0.2520775;7;0;-3;2602;-2134;2178;65536;0.6446592;0.4972299;-0.5443213;-0.2022161;2;-7;4;3216;-1710;-1759;8192;0.5304709;-0.7808675;-0.3213296;-0.07479224;2;4;5;1698;3546;-884;32768;0.5263157;-0.8201084;0.1412742;-0.1745152;-1;6;-2;1638;3250;1545;256;0.4210526;-0.6089948;-0.5041551;-0.4445983;-7;2;0;822;3774;-680;128;-0.2243767;0.2146814;0.8067151;0.5027701;6;7;0;-350;3650;-1482;4;-0.5734072;0.1288089;-0.4155124;-0.6942348;0;0;16;2726;2714;-58;16;0.7097687;-0.7036011;0.033241;0.008310249;-33;-9;-19;109;4171;-170;2;0.5373961;-0.7198899;-0.33518;-0.2839335;-5;4;-4;532;3914;-772;8;0.301939;-0.8223346;0.2922437;0.3836565;-22;-5;5;1035;3095;2601;-0.6614443;2.448543;0.3722542;-0.6567697;2.874522;0.03145784;-0.6526747;3.247693;-0.2696812;-0.4785759;3.952971;-0.1660687;-0.6510614;4.333664;-0.1577711;-1.017826;4.272031;-0.1150591;-0.5046593;4.772356;-0.7021413;-0.6688176;5.169167;0.1424825;-0.1458808;4.208963;-0.1577718;0.09921399;3.996294;-0.1150601;-0.3339529;3.152765;0.0555281;-0.6560588;2.382214;-0.392006;-0.9736419;2.411653;0.3947018;-0.03148258;1.344698;0.05587731;0;0;0;-0.9736419;2.411653;0.3947018;-0.03148258;1.344698;0.05587731;0;0;0
827175.0627;NotLabelled;16384;0.8267086;0.4113573;0.2894737;0.2520775;8;0;-2;2630;-2064;2140;65536;0.6461571;0.4958449;-0.5443213;-0.200831;4;-7;3;3102;-1688;-1739;8192;0.5290859;-0.7812359;-0.3227147;-0.07479224;2;4;6;1662;3582;-884;32768;0.5263157;-0.8203458;0.1398892;-0.1745152;-2;7;-2;1666;3308;1549;256;0.4224377;-0.6090452;-0.5041551;-0.4432133;-5;2;0;848;3786;-640;128;-0.2243767;0.2132964;0.8079435;0.501385;8;5;0;-366;3660;-1510;4;-0.5747922;0.1274238;-0.4141274;-0.6941726;1;0;15;2668;2746;-10;16;0.7049862;-0.7084186;0.03185596;0.01108033;-34;-5;-18;149;4225;-44;2;0.5387812;-0.7176574;-0.3365651;-0.2853186;-7;5;-1;498;3856;-700;8;0.2936288;-0.8246931;0.2922437;0.3850415;-24;-4;6;985;2895;2621;-0.6509361;2.442506;0.367238;-0.6462619;2.868456;0.02640575;-0.6421671;3.241602;-0.2747648;-0.4680684;3.94688;-0.1711523;-0.6405538;4.327573;-0.1628548;-1.007318;4.265941;-0.1201431;-0.4904824;4.762025;-0.7076039;-0.6573594;5.160879;0.1355239;-0.1353733;4.202872;-0.1628553;0.1097215;3.990203;-0.1201437;-0.3234209;3.147051;0.05235937;-0.6456559;2.375803;-0.3938791;-0.9631338;2.405618;0.389689;-0.0150295;1.345339;0.04651953;0;0;0;-0.9631338;2.405618;0.389689;-0.0150295;1.345339;0.04651953;0;0;0
827195.239;NotLabelled;16384;0.8269731;0.4099723;0.2894737;0.2534626;8;0;-2;2614;-2066;2150;65536;0.6454175;0.4958449;-0.5457063;-0.199446;4;-6;2;3132;-1708;-1763;8192;0.5290859;-0.7812359;-0.3227147;-0.07479224;2;4;4;1740;3608;-870;32768;0.5263157;-0.8203458;0.1398892;-0.1745152;0;7;-3;1680;3258;1525;256;0.4238227;-0.6080822;-0.5041551;-0.4432133;-6;2;-1;742;3766;-586;128;-0.2243767;0.2132964;0.8079435;0.501385;6;1;0;-374;3648;-1470;4;-0.5747922;0.1246537;-0.4113573;-0.6963193;-3;-6;16;2758;2848;2;16;0.6980609;-0.7152543;0.02908587;0.0166205;-36;-11;-19;323;4131;54;2;0.5401662;-0.7160625;-0.3365651;-0.2867036;-6;3;-1;476;3840;-666;8;0.2908587;-0.8255162;0.2908587;0.3864266;-24;-6;6;1035;2989;2649;-0.6376892;2.438003;0.3597775;-0.6330312;2.862478;0.01710999;-0.6289508;3.234321;-0.2856683;-0.4547998;3.939843;-0.1838221;-0.6272848;4.320553;-0.1763225;-0.9940236;4.259018;-0.1332515;-0.4736305;4.753508;-0.718914;-0.6400315;5.153505;0.1237661;-0.1221029;4.195858;-0.1763229;0.1230193;3.983293;-0.1332523;-0.3134139;3.141657;0.03835729;-0.6346449;2.369715;-0.4074043;-0.9498858;2.401212;0.3824024;0.003690261;1.34563;0.03991544;0;0;0;-0.9498858;2.401212;0.3824024;0.003690261;1.34563;0.03991544;0;0;0
827217.1969;NotLabelled;16384;0.8276582;0.4085872;0.2894737;0.2534626;7;-1;-2;2582;-2068;2198;65536;0.6458439;0.4958449;-0.5457063;-0.1980609;4;-5;1;3100;-1754;-1713;8192;0.5290859;-0.7806623;-0.3240997;-0.07479224;2;5;4;1722;3616;-796;32768;0.5263157;-0.8205808;0.1385041;-0.1745152;0;8;-3;1758;3250;1449;256;0.4265928;-0.6071524;-0.5041551;-0.4418283;-5;1;0;698;3770;-670;128;-0.2257618;0.2119114;0.8087801;0.5;7;0;0;-322;3646;-1618;4;-0.5761772;0.1218837;-0.4099723;-0.6964818;-1;-6;17;2888;2804;-114;16;0.6939058;-0.7192168;0.02908587;0.01939058;-37;-11;-19;131;4197;62;2;0.5401662;-0.7160625;-0.3365651;-0.2867036;-3;-1;-1;594;3734;-802;8;0.2867036;-0.8269684;0.2908587;0.3864266;-25;-8;7;1091;2921;2671;-0.6190664;2.430291;0.3451582;-0.6144083;2.854766;0.00249058;-0.6103277;3.226608;-0.3002877;-0.4377143;3.932769;-0.2002687;-0.6110566;4.313106;-0.1935948;-0.9776294;4.250845;-0.1501529;-0.4551179;4.742671;-0.7361727;-0.6242794;5.142879;0.1058574;-0.1055937;4.189554;-0.193595;0.1400349;3.97765;-0.1501534;-0.2963882;3.136014;0.02148136;-0.6176443;2.364071;-0.4242618;-0.9312629;2.393499;0.367783;0.03100224;1.34562;0.02594665;0;0;0;-0.9312629;2.393499;0.367783;0.03100224;1.34562;0.02594665;0;0;0
827238.0377;NotLabelled;16384;0.8279154;0.4072022;0.2894737;0.2548476;7;-1;-3;2682;-2080;2184;65536;0.646267;0.4958449;-0.5457063;-0.1966759;4;-5;3;3288;-1712;-1771;8192;0.5277008;-0.7803108;-0.3268698;-0.07617728;2;5;5;1568;3670;-732;32768;0.5263157;-0.8207479;0.1357341;-0.1759003;0;8;-4;1682;3278;1551;256;0.4279778;-0.6083314;-0.5027701;-0.4404432;-5;0;-1;692;3830;-542;128;-0.2271468;0.2119114;0.8092472;0.4986149;8;0;1;-372;3594;-1710;4;-0.5761772;0.1191136;-0.4085872;-0.6977738;0;-3;18;2872;2678;-16;16;0.6897507;-0.7231336;0.02770083;0.0235457;-37;-7;-20;-33;4227;288;2;0.5401662;-0.7160625;-0.3365651;-0.2867036;-2;0;-3;636;3716;-712;8;0.2825485;-0.8283973;0.2908587;0.3864266;-27;-12;8;1095;2869;2575;-0.6099552;2.42302;0.3427748;-0.6053131;2.846044;-0.001682222;-0.6012469;3.216605;-0.3060281;-0.4301262;3.923632;-0.2096216;-0.6043268;4.303601;-0.2045783;-0.9707057;4.240719;-0.160404;-0.4446846;4.730938;-0.7446259;-0.6158435;5.132979;0.09612614;-0.09858399;4.1812;-0.2045788;0.1475774;3.970067;-0.160405;-0.2894234;3.128811;0.01162517;-0.6097091;2.356177;-0.4336163;-0.9221507;2.386325;0.3655694;0.04676984;1.345238;0.02178247;0;0;0;-0.9221507;2.386325;0.3655694;0.04676984;1.345238;0.02178247;0;0;0
827259.04;NotLabelled;16384;0.8287874;0.4044321;0.2908587;0.2548476;5;2;-5;2642;-2080;2138;65536;0.6448674;0.4972299;-0.5470914;-0.1939058;2;-5;4;3184;-1750;-1607;8192;0.5277008;-0.7803108;-0.3268698;-0.07617728;2;1;5;1510;3560;-676;32768;0.5263157;-0.8209757;0.134349;-0.1759003;-1;8;-5;1682;3376;1525;256;0.4293629;-0.6073546;-0.5027701;-0.4404432;-7;0;-1;742;3858;-572;128;-0.2271468;0.2105263;0.8096086;0.4986149;8;0;1;-294;3652;-1626;4;-0.5775623;0.1163435;-0.4058172;-0.6987119;-2;-3;19;2908;2712;76;16;0.6855956;-0.7270308;0.02631579;0.02631579;-38;-4;-21;-19;4181;226;2;0.5415512;-0.7150156;-0.3365651;-0.2867036;-6;2;-3;566;3774;-644;8;0.2783934;-0.8298029;0.2908587;0.3864266;-27;-12;7;1159;2847;2785;-0.6013345;2.416468;0.3304502;-0.5967038;2.838447;-0.01528704;-0.5926476;3.208083;-0.3207544;-0.4219254;3.915165;-0.2240426;-0.5963354;4.295035;-0.2188617;-0.9626841;4.231933;-0.1747493;-0.4309716;4.719479;-0.7560492;-0.6065741;5.123351;0.08290702;-0.09052547;4.172913;-0.2188621;0.1557478;3.961898;-0.1747501;-0.2846756;3.121812;-0.005756736;-0.6016987;2.348452;-0.4520704;-0.9135293;2.379842;0.3533661;0.06278644;1.344704;0.01255201;0;0;0;-0.9135293;2.379842;0.3533661;0.06278644;1.344704;0.01255201;0;0;0
827280.0341;NotLabelled;16384;0.8287874;0.4044321;0.2908587;0.2548476;4;3;-4;2608;-1942;2172;65536;0.6463471;0.4958449;-0.5470914;-0.1925208;0;-6;4;3214;-1778;-1625;8192;0.5277008;-0.7797292;-0.3282548;-0.07617728;0;0;7;1602;3566;-658;32768;0.5263157;-0.8212012;0.132964;-0.1759003;-1;5;-4;1678;3376;1527;256;0.4307479;-0.6073767;-0.5027701;-0.4390582;-9;-1;0;700;3818;-568;128;-0.2285319;0.2105263;0.8100706;0.4972299;5;-2;0;-290;3590;-1598;4;-0.5789474;0.1135734;-0.4058172;-0.6980211;-4;-2;18;2972;2682;240;16;0.6814404;-0.7309163;0.0235457;0.02908587;-40;8;-21;127;4215;42;2;0.5415512;-0.714362;-0.3379501;-0.2867036;-1;0;2;654;3788;-748;8;0.2686981;-0.8323489;0.2908587;0.3878116;-26;-7;7;1059;2645;2895;-0.5941671;2.406912;0.3249825;-0.5895408;2.828481;-0.02125436;-0.5854883;3.197755;-0.3271593;-0.4163117;3.905458;-0.2322915;-0.5915789;4.284945;-0.2279425;-0.9577575;4.221121;-0.183457;-0.4235294;4.704416;-0.7660001;-0.6043217;5.111019;0.07053107;-0.08549354;4.163968;-0.2279432;0.161283;3.953619;-0.1834575;-0.279058;3.113534;-0.0142507;-0.5962508;2.339484;-0.4592486;-0.9063615;2.370313;0.3479457;0.07864614;1.343916;0.005707473;0;0;0;-0.9063615;2.370313;0.3479457;0.07864614;1.343916;0.005707473;0;0;0
827301.2202;NotLabelled;16384;0.8294618;0.4030471;0.2908587;0.2548476;3;2;-5;2604;-1968;2144;65536;0.6463471;0.4958449;-0.5470914;-0.1925208;-1;-4;6;3148;-1720;-1651;8192;0.5277008;-0.7798632;-0.3282548;-0.07479224;0;-1;7;1612;3488;-672;32768;0.5263157;-0.8214242;0.1315789;-0.1759003;-2;2;-4;1694;3330;1487;256;0.432133;-0.6085362;-0.501385;-0.4376731;-8;-1;0;668;3742;-598;128;-0.2299169;0.2105263;0.8105274;0.4958449;4;-3;0;-380;3574;-1530;4;-0.5803324;0.1108033;-0.4044321;-0.6981201;-2;0;17;2974;2562;62;16;0.6772853;-0.7347956;0.02077562;0.03047091;-39;7;-21;-197;4107;238;2;0.5415512;-0.7137051;-0.3393352;-0.2867036;-2;-1;4;738;3952;-740;8;0.2645429;-0.8330331;0.2908587;0.3891967;-24;-6;7;1225;2819;2795;-0.5817078;2.400775;0.320491;-0.5770931;2.821294;-0.02702022;-0.5730509;3.189642;-0.3340414;-0.4038236;3.89757;-0.2409715;-0.5790903;4.277065;-0.2374337;-0.945243;4.213349;-0.1925846;-0.4097055;4.696642;-0.7739239;-0.5899842;5.104381;0.0621658;-0.07300445;4.156092;-0.2374341;0.1737988;3.945852;-0.1925852;-0.2672031;3.10615;-0.02319835;-0.5834199;2.331414;-0.4676964;-0.8939012;2.364246;0.3435741;0.09466173;1.342891;-0.003462635;0;0;0;-0.8939012;2.364246;0.3435741;0.09466173;1.342891;-0.003462635;0;0;0
827322.199;NotLabelled;16384;0.8296468;0.4016621;0.2922437;0.2548476;3;3;-6;2654;-2144;2168;65536;0.6479272;0.4958449;-0.5457063;-0.1911357;-1;-4;7;3054;-1700;-1639;8192;0.5277008;-0.7799948;-0.3282548;-0.0734072;0;-1;5;1634;3434;-704;32768;0.5263157;-0.8217196;0.1315789;-0.1745152;-4;0;-3;1598;3208;1471;256;0.433518;-0.6085457;-0.501385;-0.4362881;-5;-1;0;678;3710;-610;128;-0.2299169;0.2119114;0.8101665;0.4958449;6;-4;0;-424;3546;-1574;4;-0.5817174;0.1066482;-0.400277;-0.7000067;1;-3;17;2886;2652;-82;16;0.66759;-0.7435945;0.01385042;0.03462604;-41;6;-20;-83;4101;450;2;0.5415512;-0.7137051;-0.3393352;-0.2867036;-2;-1;4;750;3950;-806;8;0.2617728;-0.8339078;0.2908587;0.3891967;-24;-8;7;1265;2859;2881;-0.5731;2.392507;0.3139103;-0.5684971;2.811973;-0.03487098;-0.5644652;3.17939;-0.3430047;-0.3955744;3.887377;-0.2497681;-0.5710491;4.266774;-0.2459821;-0.9371395;4.202837;-0.200938;-0.3941413;4.686253;-0.7752124;-0.5783383;5.093991;0.06002274;-0.06489635;4.14608;-0.2463309;0.1820501;3.93596;-0.201709;-0.2610528;3.09649;-0.03670858;-0.5753344;2.32107;-0.4813858;-0.8852929;2.356047;0.3371154;0.1105282;1.341648;-0.009573102;0;0;0;-0.8852929;2.356047;0.3371154;0.1105282;1.341648;-0.009573102;0;0;0
827342.4721;NotLabelled;16384;0.8291577;0.4016621;0.2936288;0.2548476;2;3;-7;2644;-2150;2160;65536;0.6483341;0.4958449;-0.5457063;-0.1897507;-2;-3;6;3160;-1694;-1663;8192;0.5277008;-0.7801239;-0.3282548;-0.07202215;0;-4;5;1530;3538;-770;32768;0.5249307;-0.8226051;0.1315789;-0.1745152;-5;-4;-4;1678;3222;1519;256;0.4362881;-0.6085457;-0.501385;-0.433518;-8;-4;2;806;3904;-554;128;-0.2313019;0.2119114;0.8114618;0.4930748;5;-4;0;-436;3636;-1752;4;-0.5831025;0.1038781;-0.398892;-0.7000614;0;-3;16;2802;2788;20;16;0.6634349;-0.7472168;0.01108033;0.03739612;-42;11;-20;-167;4139;456;2;0.5415512;-0.7142599;-0.3393352;-0.2853186;-4;4;4;724;3964;-720;8;0.2576177;-0.8352007;0.2908587;0.3891967;-24;-5;8;1165;2809;2999;-0.5500367;2.375852;0.2943336;-0.5454292;2.795732;-0.05394968;-0.5413934;3.163516;-0.3616471;-0.3725148;3.871726;-0.2701033;-0.547991;4.251131;-0.2672537;-0.9140863;4.187302;-0.2220965;-0.3713657;4.666325;-0.8003008;-0.5552182;5.077484;0.03333095;-0.04183789;4.130437;-0.2672546;0.2051042;3.920427;-0.2220974;-0.2383502;3.08221;-0.05175675;-0.5523695;2.30615;-0.4955029;-0.8622299;2.339365;0.3174914;0.1473282;1.337869;-0.02697339;0;0;0;-0.8622299;2.339365;0.3174914;0.1473282;1.337869;-0.02697339;0;0;0
827364.0344;NotLabelled;16384;0.8295763;0.398892;0.2950138;0.2562327;2;7;-7;2768;-2022;2216;65536;0.6483341;0.4958449;-0.5457063;-0.1897507;-4;-4;6;3340;-1770;-1681;8192;0.5277008;-0.7802505;-0.3282548;-0.07063711;0;-8;5;1628;3546;-708;32768;0.5249307;-0.8226751;0.132964;-0.1731302;-6;-7;-4;1792;3236;1637;256;0.4376731;-0.6096748;-0.5;-0.432133;-10;-4;4;836;3874;-564;128;-0.2313019;0.2119114;0.8114618;0.4930748;2;-1;-1;-428;3690;-1654;4;-0.5831025;0.1024931;-0.3975069;-0.7010527;-3;-6;17;2834;2652;-76;16;0.6578947;-0.7520788;0.006925208;0.03878116;-44;5;-23;-7;4203;406;2;0.5415512;-0.7136002;-0.3407202;-0.2853186;-3;3;6;758;3858;-794;8;0.2534626;-0.8369514;0.2894737;0.3891967;-23;-2;9;1065;2719;2875;-0.5415167;2.366618;0.2849058;-0.5369323;2.78436;-0.06593901;-0.532917;3.150254;-0.3758802;-0.3639347;3.858901;-0.2879714;-0.5394085;4.238315;-0.2867612;-0.9054512;4.174707;-0.2408707;-0.3601521;4.652712;-0.8174899;-0.5480542;5.065686;0.01434031;-0.03325547;4.117622;-0.2867616;0.2137393;3.907833;-0.2408711;-0.231486;3.070362;-0.07148093;-0.5460302;2.295579;-0.517081;-0.8537083;2.330274;0.3083071;0.1630769;1.335845;-0.03537503;0;0;0;-0.8537083;2.330274;0.3083071;0.1630769;1.335845;-0.03537503;0;0;0
827384.237;NotLabelled;16384;0.8295093;0.398892;0.2963989;0.2548476;1;8;-5;2696;-2102;2208;65536;0.6497942;0.4944598;-0.5457063;-0.1883656;-6;-4;6;3324;-1916;-1571;8192;0.5277008;-0.7803747;-0.3282548;-0.06925207;-2;-7;6;1788;3474;-788;32768;0.5249307;-0.82245;0.134349;-0.1731302;-7;-9;-2;1808;3306;1733;256;0.4390582;-0.6096591;-0.5;-0.4307479;-10;-3;5;738;3792;-550;128;-0.2313019;0.2132964;0.8110988;0.4930748;-3;0;-2;-490;3632;-1572;4;-0.5844875;0.09972299;-0.3961219;-0.7010829;-2;-6;17;2918;2408;34;16;0.6537396;-0.7556414;0.004155125;0.0401662;-46;13;-23;39;4279;168;2;0.5415512;-0.7129373;-0.3421052;-0.2853186;-3;6;6;752;3834;-586;8;0.2506925;-0.8382626;0.2880886;0.3891967;-23;0;9;1169;2661;2927;-0.5265368;2.359644;0.2717862;-0.5219528;2.777386;-0.07905877;-0.5179378;3.14328;-0.389;-0.3493596;3.851992;-0.300837;-0.5250462;4.231307;-0.2995117;-0.8910567;4.167479;-0.2536724;-0.3406404;4.640123;-0.8298477;-0.5329837;5.053098;0.0009669363;-0.01882549;4.110898;-0.2995128;0.2282831;3.901231;-0.2536737;-0.2182563;3.06451;-0.08404052;-0.531419;2.289766;-0.5306811;-0.8387285;2.3233;0.2951877;0.1839313;1.332919;-0.04270452;0;0;0;-0.8387285;2.3233;0.2951877;0.1839313;1.332919;-0.04270452;0;0;0
827404.1925;NotLabelled;16384;0.8296781;0.3975069;0.2977839;0.2548476;0;7;-3;2726;-2024;2112;65536;0.6509548;0.4944598;-0.5443213;-0.1883656;-7;-5;7;3210;-1954;-1601;8192;0.5277008;-0.7804964;-0.3282548;-0.06786703;0;-5;7;1812;3410;-902;32768;0.5235457;-0.8236224;0.134349;-0.1717452;-7;-6;0;1656;3204;1699;256;0.4404432;-0.6106101;-0.5;-0.4279778;-9;-2;5;788;3742;-652;128;-0.2313019;0.2132964;0.8110988;0.4930748;-4;0;-4;-478;3558;-1428;4;-0.5844875;0.09695291;-0.3947368;-0.7022516;3;-3;18;2980;2152;2;16;0.6481994;-0.7603361;0;0.04155125;-46;11;-22;-715;4097;802;2;0.5401662;-0.7125349;-0.3462604;-0.2839335;-5;5;11;606;3940;-754;8;0.2437673;-0.8418865;0.2853186;0.3878116;-22;1;9;1257;2615;3049;-0.5173988;2.350126;0.2678176;-0.5128102;2.768287;-0.08252791;-0.508791;3.134551;-0.3920318;-0.3401595;3.843475;-0.3057003;-0.5158441;4.222794;-0.3052008;-0.8818281;4.159079;-0.2589923;-0.3315043;4.631776;-0.8352128;-0.5232924;5.045849;-0.004816711;-0.009623975;4.102382;-0.3052014;0.2375106;3.892827;-0.2589934;-0.2100476;3.056858;-0.08834301;-0.5219293;2.282791;-0.5370507;-0.8295907;2.313754;0.2911716;0.199368;1.330502;-0.04841387;0;0;0;-0.8295907;2.313754;0.2911716;0.199368;1.330502;-0.04841387;0;0;0
827425.0376;NotLabelled;16384;0.8296781;0.3975069;0.2977839;0.2548476;2;8;-3;2750;-2152;2140;65536;0.651354;0.4944598;-0.5443213;-0.1869806;-7;-5;5;3014;-1864;-1709;8192;0.5277008;-0.7806156;-0.3282548;-0.06648199;0;-4;5;1850;3506;-1008;32768;0.5221606;-0.8242743;0.1357341;-0.1717452;-7;-3;0;1654;3236;1641;256;0.4418283;-0.6105787;-0.5;-0.4265928;-7;-2;4;786;3698;-514;128;-0.2313019;0.2146814;0.8098894;0.4944598;-2;0;-3;-442;3618;-1452;4;-0.5858725;0.09279778;-0.3891967;-0.7047467;5;-3;16;3152;2346;-50;16;0.6371191;-0.7695074;-0.009695291;0.04293629;-50;27;-20;-195;3965;650;2;0.5401662;-0.712411;-0.3476454;-0.2825485;-3;3;13;576;3894;-788;8;0.2409972;-0.8431514;0.2839335;0.3878116;-23;2;8;1215;2761;2799;-0.5036119;2.340369;0.2580237;-0.4990231;2.75853;-0.09232199;-0.4950038;3.124794;-0.4018259;-0.3247217;3.83354;-0.3172865;-0.4995485;4.213254;-0.3175943;-0.865649;4.150477;-0.2710258;-0.3115616;4.620516;-0.8458135;-0.504604;5.03617;-0.0164988;0.006398253;4.0917;-0.3175949;0.2530853;3.881697;-0.2710264;-0.1960169;3.046482;-0.10074;-0.5095612;2.273059;-0.5493976;-0.8158039;2.303997;0.2813775;0.2200074;1.326975;-0.05534229;0;0;0;-0.8158039;2.303997;0.2813775;0.2200074;1.326975;-0.05534229;0;0;0
827446.0435;NotLabelled;16384;0.8303403;0.3961219;0.2977839;0.2548476;3;6;-1;2680;-2172;2182;65536;0.6524031;0.4930748;-0.5443213;-0.1869806;-5;-4;3;3080;-1740;-1803;8192;0.5263157;-0.7815502;-0.3282548;-0.06648199;2;-2;3;1826;3468;-1046;32768;0.5221606;-0.8242743;0.1357341;-0.1717452;-6;-2;0;1776;3180;1605;256;0.4432133;-0.612461;-0.5;-0.4224377;-5;0;5;908;3812;-570;128;-0.2299169;0.2146814;0.8102837;0.4944598;0;0;-3;-494;3670;-1612;4;-0.5872576;0.09141274;-0.3864266;-0.705299;7;0;15;3168;2440;-240;16;0.6315789;-0.7739719;-0.01523546;0.04293629;-49;19;-21;-297;4031;798;2;0.5387812;-0.7127826;-0.3490305;-0.2825485;0;2;10;590;3732;-752;8;0.2382271;-0.8439382;0.2839335;0.3878116;-26;0;7;1267;2905;2489;-0.4786357;2.317123;0.2390459;-0.4740303;2.736787;-0.1094988;-0.4699965;3.104377;-0.4174253;-0.2996598;3.813327;-0.3347301;-0.4744844;4.193041;-0.3358687;-0.8405578;4.130382;-0.2889293;-0.2850588;4.60042;-0.8623528;-0.4800157;5.017877;-0.03439274;0.03146148;4.071483;-0.3358692;0.2781746;3.861594;-0.2889299;-0.1719912;3.027135;-0.1177456;-0.4869768;2.25568;-0.5687751;-0.7908287;2.280651;0.2622284;0.2606713;1.318903;-0.06980601;0;0;0;-0.7908287;2.280651;0.2622284;0.2606713;1.318903;-0.06980601;0;0;0
827488.4845;NotLabelled;16384;0.831423;0.3947368;0.2977839;0.2534626;3;4;3;2594;-2086;2206;65536;0.6537279;0.4903047;-0.5457063;-0.1855956;-3;-4;-1;3136;-1848;-1787;8192;0.5235457;-0.7834085;-0.3282548;-0.06648199;5;0;0;1818;3428;-960;32768;0.5207756;-0.8246315;0.1371191;-0.1731302;-2;1;2;1850;3190;1743;256;0.4445983;-0.6122292;-0.501385;-0.4196676;-5;2;6;776;3760;-550;128;-0.2285319;0.2160665;0.8103073;0.4944598;0;1;-5;-506;3680;-1604;4;-0.5886427;0.0900277;-0.3822715;-0.7065857;9;2;13;3004;2520;-70;16;0.6191136;-0.7836533;-0.02493075;0.04432133;-50;26;-21;-667;4189;1106;2;0.5387812;-0.7114194;-0.3518005;-0.2825485;-5;10;4;600;3846;-752;8;0.2299169;-0.8467035;0.2825485;0.3878116;-27;-2;10;1021;2537;3083;-0.4673059;2.305501;0.2247052;-0.462701;2.725134;-0.1238762;-0.4586675;3.092699;-0.4318346;-0.2850875;3.801065;-0.3509012;-0.4581984;4.18156;-0.3528328;-0.8245235;4.120663;-0.3055398;-0.2627716;4.589056;-0.8741975;-0.4614522;5.005784;-0.04675543;0.04719402;4.05772;-0.3528334;0.292985;3.846831;-0.3055404;-0.1610815;3.01352;-0.1391355;-0.472678;2.242064;-0.592513;-0.779499;2.269031;0.2478912;0.2813476;1.314376;-0.07474734;0;0;0;-0.779499;2.269031;0.2478912;0.2813476;1.314376;-0.07474734;0;0;0
827531.0466;NotLabelled;16384;0.832994;0.3933518;0.2963989;0.2520775;5;3;2;2754;-2100;2304;65536;0.6537279;0.4903047;-0.5457063;-0.1855956;0;-5;-2;3224;-1734;-1773;8192;0.5221606;-0.7836325;-0.3296399;-0.06786703;8;3;0;1890;3594;-964;32768;0.5193906;-0.8252128;0.1371191;-0.1745152;-1;8;2;1676;3262;1701;256;0.4445983;-0.6131762;-0.501385;-0.4182825;-5;3;6;848;3936;-366;128;-0.2285319;0.2160665;0.8111508;0.4930748;4;0;-4;-410;3626;-1764;4;-0.5914127;0.0900277;-0.3781163;-0.7065083;11;9;12;3060;2778;30;16;0.6066482;-0.7929166;-0.03601108;0.04432133;-47;21;-21;-229;3989;1248;2;0.5387812;-0.7093496;-0.3559557;-0.2825485;-4;5;4;766;3816;-542;8;0.2202216;-0.8526255;0.2742382;0.3864266;-34;13;10;1223;2753;2629;-0.4332033;2.285324;0.2053395;-0.4285941;2.705346;-0.1427733;-0.4245568;3.073253;-0.4503213;-0.2488643;3.781533;-0.3732877;-0.4208976;4.162504;-0.3769746;-0.7873329;4.102895;-0.3289002;-0.2225568;4.570712;-0.8950315;-0.4208;4.986187;-0.06685442;0.08414109;4.03723;-0.3769752;0.3293936;3.825891;-0.3289011;-0.13025;2.9949;-0.1662447;-0.4422251;2.226066;-0.6237961;-0.7453966;2.248827;0.2284809;0.3256272;1.303324;-0.08741257;0;0;0;-0.7453966;2.248827;0.2284809;0.3256272;1.303324;-0.08741257;0;0;0
