SEP=;
index;label;RightUpperArm_boneIndex;RightUpperArm_quat9x_w;RightUpperArm_quat9x_x;RightUpperArm_quat9x_y;RightUpperArm_quat9x_z;RightUpperArm_gyroscope_x;RightUpperArm_gyroscope_y;RightUpperArm_gyroscope_z;RightUpperArm_accelerometer_x;RightUpperArm_accelerometer_y;RightUpperArm_accelerometer_z;RightLowerArm_boneIndex;RightLowerArm_quat9x_w;RightLowerArm_quat9x_x;RightLowerArm_quat9x_y;RightLowerArm_quat9x_z;RightLowerArm_gyroscope_x;RightLowerArm_gyroscope_y;RightLowerArm_gyroscope_z;RightLowerArm_accelerometer_x;RightLowerArm_accelerometer_y;RightLowerArm_accelerometer_z;LeftUpperArm_boneIndex;LeftUpperArm_quat9x_w;LeftUpperArm_quat9x_x;LeftUpperArm_quat9x_y;LeftUpperArm_quat9x_z;LeftUpperArm_gyroscope_x;LeftUpperArm_gyroscope_y;LeftUpperArm_gyroscope_z;LeftUpperArm_accelerometer_x;LeftUpperArm_accelerometer_y;LeftUpperArm_accelerometer_z;LeftLowerArm_boneIndex;LeftLowerArm_quat9x_w;LeftLowerArm_quat9x_x;LeftLowerArm_quat9x_y;LeftLowerArm_quat9x_z;LeftLowerArm_gyroscope_x;LeftLowerArm_gyroscope_y;LeftLowerArm_gyroscope_z;LeftLowerArm_accelerometer_x;LeftLowerArm_accelerometer_y;LeftLowerArm_accelerometer_z;Chest_boneIndex;Chest_quat9x_w;Chest_quat9x_x;Chest_quat9x_y;Chest_quat9x_z;Chest_gyroscope_x;Chest_gyroscope_y;Chest_gyroscope_z;Chest_accelerometer_x;Chest_accelerometer_y;Chest_accelerometer_z;Spine_boneIndex;Spine_quat9x_w;Spine_quat9x_x;Spine_quat9x_y;Spine_quat9x_z;Spine_gyroscope_x;Spine_gyroscope_y;Spine_gyroscope_z;Spine_accelerometer_x;Spine_accelerometer_y;Spine_accelerometer_z;RightUpperLeg_boneIndex;RightUpperLeg_quat9x_w;RightUpperLeg_quat9x_x;RightUpperLeg_quat9x_y;RightUpperLeg_quat9x_z;RightUpperLeg_gyroscope_x;RightUpperLeg_gyroscope_y;RightUpperLeg_gyroscope_z;RightUpperLeg_accelerometer_x;RightUpperLeg_accelerometer_y;RightUpperLeg_accelerometer_z;RightLowerLeg_boneIndex;RightLowerLeg_quat9x_w;RightLowerLeg_quat9x_x;RightLowerLeg_quat9x_y;RightLowerLeg_quat9x_z;RightLowerLeg_gyroscope_x;RightLowerLeg_gyroscope_y;RightLowerLeg_gyroscope_z;RightLowerLeg_accelerometer_x;RightLowerLeg_accelerometer_y;RightLowerLeg_accelerometer_z;LeftUpperLeg_boneIndex;LeftUpperLeg_quat9x_w;LeftUpperLeg_quat9x_x;LeftUpperLeg_quat9x_y;LeftUpperLeg_quat9x_z;LeftUpperLeg_gyroscope_x;LeftUpperLeg_gyroscope_y;LeftUpperLeg_gyroscope_z;LeftUpperLeg_accelerometer_x;LeftUpperLeg_accelerometer_y;LeftUpperLeg_accelerometer_z;LeftLowerLeg_boneIndex;LeftLowerLeg_quat9x_w;LeftLowerLeg_quat9x_x;LeftLowerLeg_quat9x_y;LeftLowerLeg_quat9x_z;LeftLowerLeg_gyroscope_x;LeftLowerLeg_gyroscope_y;LeftLowerLeg_gyroscope_z;LeftLowerLeg_accelerometer_x;LeftLowerLeg_accelerometer_y;LeftLowerLeg_accelerometer_z;pelvis_x;pelvis_y;pelvis_z;lowerSpine_x;lowerSpine_y;lowerSpine_z;middleSpine_x;middleSpine_y;middleSpine_z;upperSpine_x;upperSpine_y;upperSpine_z;rightClavicle_x;rightClavicle_y;rightClavicle_z;rightShoulder_x;rightShoulder_y;rightShoulder_z;rightElbow_x;rightElbow_y;rightElbow_z;rightWrist_x;rightWrist_y;rightWrist_z;leftClavicle_x;leftClavicle_y;leftClavicle_z;leftShoulder_x;leftShoulder_y;leftShoulder_z;leftElbow_x;leftElbow_y;leftElbow_z;leftWrist_x;leftWrist_y;leftWrist_z;rightHip_x;rightHip_y;rightHip_z;rightKnee_x;rightKnee_y;rightKnee_z;rightAnkle_x;rightAnkle_y;rightAnkle_z;leftHip_x;leftHip_y;leftHip_z;leftKnee_x;leftKnee_y;leftKnee_z;leftAnkle_x;leftAnkle_y;leftAnkle_z;
324187.6749;NotLabelled;16384;0.8185104;0.2908587;0.4030471;0.2880886;-17;-22;76;2198;-898;2888;65536;0.8579704;0.4459834;-0.2409972;-0.08310249;84;0;-117;1066;-1035;-3338;8192;0.7276123;-0.365651;-0.3559557;-0.4584487;-72;83;58;-1482;3520;-78;32768;0.8112904;0.0567867;0.1066482;-0.5720221;167;-64;49;3847;382;-236;256;0.001385042;-0.1883656;-0.5373961;-0.822023;0;23;-9;540;3388;-2000;128;-0.1024931;0.166205;0.7384389;0.6454294;15;41;-3;-498;4152;-318;4;-0.5152354;0.2465374;-0.5069252;-0.645584;41;24;29;830;3826;700;16;0.5401662;-0.8252035;0.1260388;0.1066482;105;63;6;-131;3859;1796;2;0.5887861;-0.5831025;-0.3171745;-0.4612188;1;34;2;-1330;3740;-570;8;0.5110803;-0.703537;0.3393352;0.3587258;0;16;16;363;4035;631;0.572517;2.580952;-0.01945943;0.5781122;3.090841;-0.2133768;0.5830224;3.538314;-0.3857206;0.7165527;4.187877;-0.07155323;0.5257928;4.544664;0.03361782;0.1605181;4.462782;0.03064713;-0.4191619;4.668866;-0.6620507;0.1520223;5.355143;-0.9791774;1.03548;4.439892;0.03361797;1.287522;4.23111;0.03064728;1.563177;3.40059;-0.372499;1.699235;3.552081;-1.297878;0.2602652;2.539124;-0.01044014;0.1216464;1.203328;-0.5912103;0;0;0;0.2602652;2.539124;-0.01044014;0.1216464;1.203328;-0.5912103;0;0;0
324208.8552;NotLabelled;16384;0.8212187;0.2977839;0.3933518;0.2867036;-18;-22;69;1948;-966;2816;65536;0.8474678;0.4542936;-0.2603878;-0.08725762;90;-10;-117;1490;-1023;-3096;8192;0.7193515;-0.3587258;-0.3739612;-0.4626039;-65;113;72;-1090;3722;-80;32768;0.8121861;0.08310249;0.09695291;-0.5692521;173;-40;44;3343;334;-118;256;0;-0.1869806;-0.5373961;-0.8223404;1;12;-8;522;3474;-2084;128;-0.09972299;0.1634349;0.7406425;0.6440443;11;16;-4;-482;4122;-328;4;-0.5180055;0.2493075;-0.501385;-0.646629;34;17;29;966;3830;648;16;0.5540166;-0.8182161;0.1191136;0.09695291;110;75;5;295;4075;1810;2;0.5872298;-0.5817174;-0.3185596;-0.4639889;2;27;2;-1424;3684;-610;8;0.5110803;-0.7042742;0.3407202;0.3559557;-3;7;16;613;4033;683;0.5434332;2.607509;0.07160214;0.5490138;3.116081;-0.125744;0.5539112;3.562383;-0.3010968;0.6864488;4.211081;0.01526892;0.4951885;4.567296;0.1214709;0.1300148;4.484984;0.1179897;-0.4478109;4.710443;-0.5702065;0.1365977;5.397584;-0.8602087;1.005001;4.463137;0.1214717;1.257298;4.254671;0.1179912;1.567376;3.425928;-0.2632068;1.762393;3.628767;-1.167979;0.2311819;2.565742;0.08092587;0.1174592;1.236345;-0.5195979;0;0;0;0.2311819;2.565742;0.08092587;0.1174592;1.236345;-0.5195979;0;0;0
324229.517;NotLabelled;16384;0.8237435;0.3047091;0.3836565;0.2853186;-21;-29;61;1922;-1196;2804;65536;0.8361259;0.4639889;-0.2783934;-0.0900277;96;-8;-120;1288;-1019;-3062;8192;0.7078511;-0.3518005;-0.3933518;-0.4695291;-63;136;81;-1314;3802;-16;32768;0.8114688;0.1080332;0.08587258;-0.567867;169;-22;36;3219;52;576;256;0;-0.1855956;-0.536011;-0.8235572;6;7;-7;398;3344;-1996;128;-0.09695291;0.1606648;0.7428163;0.6426592;13;20;-2;-520;4010;-294;4;-0.5207756;0.2506925;-0.4958449;-0.6481388;28;11;30;1142;3750;592;16;0.5692521;-0.8096347;0.1121884;0.08864266;112;68;3;791;4179;1756;2;0.5864044;-0.5803324;-0.3185596;-0.466759;5;16;3;-1520;3674;-676;8;0.5096953;-0.7053044;0.3421052;0.3545706;-4;0;14;783;4015;843;0.5358066;2.619974;0.1181962;0.5413753;3.127458;-0.08193204;0.5462621;3.572793;-0.2597262;0.6793165;4.221359;0.05669412;0.4883413;4.577718;0.162922;0.1231016;4.4957;0.1594282;-0.4459606;4.739346;-0.5298712;0.1567402;5.425853;-0.7813759;0.9980699;4.47315;0.1629224;1.250198;4.26448;0.1594291;1.575259;3.432259;-0.2011513;1.806426;3.664679;-1.090156;0.223556;2.578259;0.1277672;0.1211456;1.251597;-0.4807869;0;0;0;0.223556;2.578259;0.1277672;0.1211456;1.251597;-0.4807869;0;0;0
324250.5219;NotLabelled;16384;0.8245;0.3116343;0.3753462;0.2867036;-25;-41;55;2164;-1080;2786;65536;0.8234943;0.4750692;-0.2950138;-0.09556787;98;17;-122;1324;-1065;-2590;8192;0.6943936;-0.3434903;-0.4141274;-0.4778393;-61;140;88;-1712;3580;-98;32768;0.8099272;0.1315789;0.07617728;-0.566482;159;-17;30;3345;-132;914;256;0;-0.1842105;-0.534626;-0.8247675;9;-1;-4;700;3288;-1894;128;-0.09695291;0.1592798;0.7431145;0.6426592;5;2;-2;-310;3862;-150;4;-0.5221606;0.2506925;-0.4916897;-0.6501867;24;4;30;1316;3682;450;16;0.5844875;-0.800342;0.1066482;0.08033241;113;47;2;981;4213;1838;2;0.5852993;-0.5803324;-0.3185596;-0.468144;9;2;4;-1484;3642;-780;8;0.5083103;-0.7063251;0.3434903;0.3531856;-7;-6;14;631;4033;865;0.5249708;2.631854;0.1725615;0.5305274;3.138241;-0.03032473;0.5354034;3.582603;-0.2105391;0.6672643;4.230454;0.1078381;0.4756059;4.586091;0.2152494;0.1105331;4.503339;0.2116502;-0.4513179;4.768839;-0.4754905;0.1652641;5.456509;-0.6869949;0.985547;4.482566;0.2147173;1.238099;4.274423;0.2104736;1.573637;3.438933;-0.1325225;1.842006;3.697399;-1.003706;0.2127207;2.590192;0.182378;0.1204996;1.26769;-0.4367702;0;0;0;0.2127207;2.590192;0.182378;0.1204996;1.26769;-0.4367702;0;0;0
324271.5224;NotLabelled;16384;0.8249129;0.3268698;0.3601108;0.2880886;-28;-33;41;2100;-1372;2746;65536;0.7952539;0.4972299;-0.3296399;-0.1080332;108;10;-132;1408;-967;-2866;8192;0.6791479;-0.3365651;-0.434903;-0.4861496;-54;126;98;-2234;3396;-52;32768;0.8082178;0.1523546;0.06509695;-0.5650969;153;-20;21;3079;-128;886;256;0;-0.1842105;-0.533241;-0.8256637;9;0;-4;596;3426;-1894;128;-0.09556787;0.1578947;0.7435894;0.6426592;7;17;1;-416;3892;-58;4;-0.5235457;0.2506925;-0.4875346;-0.6521987;22;-2;29;1516;3720;474;16;0.5983379;-0.7908211;0.1038781;0.07617728;113;16;-2;901;4129;1840;2;0.5817174;-0.5869113;-0.3130194;-0.468144;13;-15;8;-1180;3934;-526;8;0.5055401;-0.7083266;0.3448753;0.3518005;-9;-2;13;387;4139;891;0.5176127;2.642806;0.2282669;0.5231676;3.149016;0.02493936;0.528042;3.593221;-0.1556624;0.6580524;4.240347;0.1649417;0.4654915;4.595259;0.2731335;0.1005944;4.511777;0.2686669;-0.4513745;4.787969;-0.4222581;0.1781396;5.475893;-0.5903933;0.9756425;4.492772;0.2731342;1.228625;4.285157;0.2686682;1.576916;3.442659;-0.04304636;1.88012;3.726316;-0.8947461;0.2053628;2.601152;0.2381226;0.1217609;1.28257;-0.3905337;0;0;0;0.2053628;2.601152;0.2381226;0.1217609;1.28257;-0.3905337;0;0;0
324292.5318;NotLabelled;16384;0.8245395;0.333795;0.3545706;0.2880886;-34;-39;34;2084;-1312;3114;65536;0.7802727;0.5083103;-0.3462604;-0.1135734;103;23;-135;1648;-1141;-2326;8192;0.650579;-0.33241;-0.4709141;-0.4944598;-18;80;124;-1756;3784;-6;32768;0.8035867;0.1911357;0.03878116;-0.5623268;145;-22;-15;2273;-96;982;256;0.001385042;-0.1828255;-0.5304709;-0.8277521;6;-11;-6;618;3376;-1884;128;-0.09556787;0.1578947;0.7435894;0.6426592;2;-1;2;-268;3802;-270;4;-0.5249307;0.2479224;-0.4792244;-0.6582752;21;-8;26;1622;3608;342;16;0.6260388;-0.7690262;0.1052632;0.07479224;108;-6;-10;627;4217;1528;2;0.5817174;-0.5887486;-0.3116343;-0.466759;11;-16;11;-1034;3902;-558;8;0.5041551;-0.7093239;0.3462604;0.3504155;-9;-3;13;539;4123;1017;0.5050474;2.651525;0.2812988;0.5106003;3.157554;0.07752103;0.5154728;3.601598;-0.1034757;0.6449376;4.247749;0.2193086;0.4521214;4.602208;0.328525;0.08727098;4.518552;0.3235502;-0.4501361;4.825451;-0.3658957;0.2036327;5.507295;-0.4398667;0.9623255;4.499986;0.3285254;1.215419;4.292519;0.3235513;1.571324;3.443118;0.04048443;1.909444;3.746105;-0.7911773;0.1927976;2.60988;0.2911947;0.1186515;1.295316;-0.3469929;0;0;0;0.1927976;2.60988;0.2911947;0.1186515;1.295316;-0.3469929;0;0;0
324312.703;NotLabelled;16384;0.8234826;0.3407202;0.3504155;0.2880886;-45;-27;24;2212;-1210;3092;65536;0.7637773;0.5193906;-0.3628809;-0.1232687;90;34;-133;2580;-1275;-1162;8192;0.6349581;-0.3365651;-0.4875346;-0.4958449;-2;60;136;-1670;3908;-196;32768;0.8027365;0.2049861;0.02216066;-0.5595568;139;-27;-44;1779;-70;852;256;0.006925208;-0.1842105;-0.5290859;-0.8283035;-4;-25;-4;554;3524;-2206;128;-0.09556787;0.1565097;0.7426833;0.6440443;-13;-4;3;-384;3900;-208;4;-0.5263157;0.2465374;-0.4750692;-0.6606968;21;-8;24;1606;3572;310;16;0.6385041;-0.7585148;0.1066482;0.07479224;105;-11;-12;429;4135;1698;2;0.5817174;-0.5916625;-0.3102493;-0.4639889;12;-18;14;-980;3822;-622;8;0.501385;-0.7119653;0.3462604;0.3490305;-11;-6;13;547;4035;1035;0.4756337;2.663083;0.3960378;0.4811864;3.169112;0.19226;0.4860591;3.613156;0.01126322;0.6119844;4.257948;0.3381397;0.4173109;4.610791;0.4492797;0.05287902;4.525389;0.4433487;-0.4804836;4.845605;-0.243175;0.1818191;5.522681;-0.2700017;0.9280075;4.511057;0.4492806;1.182116;4.304859;0.4433509;1.538819;3.438003;0.2206407;1.947592;3.770327;-0.566921;0.1633838;2.621438;0.4059336;0.1069615;1.317453;-0.2553512;0;0;0;0.1633838;2.621438;0.4059336;0.1069615;1.317453;-0.2553512;0;0;0
324333.5444;NotLabelled;16384;0.8221397;0.3476454;0.3490305;0.2853186;-52;-16;14;2342;-1380;2634;65536;0.7496172;0.5277008;-0.3767313;-0.132964;73;30;-131;2196;-1065;-1304;8192;0.6184021;-0.3448753;-0.5027701;-0.4958449;8;41;143;-1816;4004;-188;32768;0.800131;0.2160665;0.001385042;-0.5595568;137;-29;-80;1271;-172;656;256;0.01108033;-0.1855956;-0.5290859;-0.827949;-9;-36;-2;558;3404;-2232;128;-0.09556787;0.1565097;0.740272;0.6468144;-13;-4;3;-332;3972;-378;4;-0.5263157;0.2465374;-0.4722992;-0.6626799;20;-5;21;1736;3570;252;16;0.6481994;-0.7502465;0.1066482;0.07479224;95;1;-10;481;4047;1746;2;0.5817174;-0.5941877;-0.3074792;-0.4626039;14;-23;15;-968;3822;-614;8;0.5;-0.7122643;0.3476454;0.3490305;-13;-6;13;443;4011;835;0.4586505;2.665363;0.4520954;0.4642093;3.171954;0.249719;0.4690875;3.616497;0.06995201;0.589466;4.261536;0.3984286;0.3917965;4.612469;0.5103213;0.02809498;4.524035;0.5040159;-0.4973223;4.856389;-0.1828663;0.1750798;5.523371;-0.1544739;0.9033098;4.517013;0.5103221;1.159138;4.312963;0.5040178;1.507461;3.433957;0.3188358;1.95717;3.769214;-0.4448079;0.1464002;2.623691;0.4618665;0.1032331;1.325471;-0.211648;0;0;0;0.1464002;2.623691;0.4618665;0.1032331;1.325471;-0.211648;0;0;0
324353.6687;NotLabelled;16384;0.8196579;0.3545706;0.3490305;0.2839335;-50;-6;7;2392;-1518;2550;65536;0.7354401;0.534626;-0.3905817;-0.1440443;52;52;-125;2672;-1327;-1030;8192;0.6044021;-0.3531856;-0.5152354;-0.4944598;7;27;136;-1874;3890;-292;32768;0.7984641;0.2243767;-0.0235457;-0.5581717;135;-43;-120;1197;-294;114;256;0.0166205;-0.1897507;-0.5277008;-0.8277984;-12;-48;0;910;3466;-2326;128;-0.09556787;0.1565097;0.7390595;0.6481994;-15;-5;3;-504;4058;-404;4;-0.5277008;0.2451524;-0.468144;-0.6650363;16;-1;20;1754;3554;276;16;0.6565097;-0.7434565;0.1052632;0.07202215;87;18;-9;731;3997;1650;2;0.5803324;-0.5983925;-0.3060942;-0.4598338;14;-25;14;-972;3876;-458;8;0.4972299;-0.713525;0.3490305;0.3490305;-12;-8;13;603;4199;867;0.4403738;2.668188;0.4921856;0.4459488;3.176235;0.2934937;0.450841;3.622072;0.11696;0.5673043;4.267982;0.445137;0.3675835;4.617897;0.5565749;0.004380882;4.52746;0.5499253;-0.5114468;4.867073;-0.1406639;0.1694282;5.521769;-0.06596912;0.8796137;4.525256;0.5572072;1.136567;4.322612;0.5513235;1.469353;3.428925;0.4140188;1.963532;3.757941;-0.3244411;0.1281229;2.626446;0.5016289;0.09818618;1.330842;-0.1776143;0;0;0;0.1281229;2.626446;0.5016289;0.09818618;1.330842;-0.1776143;0;0;0
324374.5184;NotLabelled;16384;0.81472;0.368421;0.3518005;0.2770083;-60;-5;-6;2292;-1770;2440;65536;0.7110999;0.5443213;-0.4099723;-0.1731302;19;52;-107;3260;-1371;-688;8192;0.5920758;-0.3614958;-0.5263157;-0.4916897;11;15;127;-1974;3506;130;32768;0.7981325;0.2271468;-0.05401662;-0.5554016;132;-54;-156;1353;-630;784;256;0.02216066;-0.1925208;-0.5290859;-0.8261433;-16;-46;3;1002;3446;-2162;128;-0.09556787;0.1565097;0.7378424;0.6495845;-9;-11;7;-468;3944;-252;4;-0.5290859;0.2437673;-0.4653739;-0.6663878;12;-3;20;1726;3310;106;16;0.66482;-0.736497;0.1038781;0.06925207;75;5;-10;739;3769;1668;2;0.5817174;-0.6050999;-0.300554;-0.4529086;13;-29;15;-638;3938;-614;8;0.4916897;-0.7159995;0.3518005;0.3490305;-13;-11;12;455;3931;1279;0.4234927;2.665974;0.5340799;0.4290754;3.174741;0.3372385;0.4339747;3.621217;0.1623286;0.5472238;4.266937;0.4919992;0.3457122;4.615499;0.6044539;-0.01700357;4.523124;0.5978691;-0.5340874;4.877532;-0.0842956;0.1552231;5.516013;0.03813707;0.858234;4.525614;0.6044543;1.116269;4.324371;0.5978699;1.431996;3.420884;0.4869486;1.975604;3.735419;-0.2225206;0.1112413;2.624198;0.5433587;0.09730399;1.334563;-0.1476578;0;0;0;0.1112413;2.624198;0.5433587;0.09730399;1.334563;-0.1476578;0;0;0
324394.6762;NotLabelled;16384;0.8108185;0.3753462;0.3545706;0.2756233;-54;-4;-14;2474;-1780;1844;65536;0.7012825;0.5470914;-0.4182825;-0.1842105;15;37;-101;3250;-1337;-1092;8192;0.5779707;-0.3698061;-0.5373961;-0.4903047;19;23;119;-1422;3454;918;32768;0.7938185;0.2285319;-0.08725762;-0.5567867;123;0;-177;1363;-662;846;256;0.02770083;-0.1966759;-0.5290859;-0.8249966;-19;-36;1;518;3298;-2046;128;-0.09833795;0.1578947;0.7359603;0.6509695;-1;-18;9;-556;4006;-200;4;-0.5290859;0.2437673;-0.4626039;-0.6683137;12;-6;21;1876;3144;44;16;0.6703601;-0.7316534;0.1024931;0.06925207;60;3;-10;505;3803;1430;2;0.5803324;-0.6091696;-0.299169;-0.4501385;15;-28;18;-588;3978;-736;8;0.4903047;-0.7169487;0.3518005;0.3490305;-13;-2;13;355;4005;1169;0.4103983;2.66444;0.5731627;0.415989;3.173922;0.3781774;0.4208952;3.621032;0.2048965;0.5306816;4.268784;0.5317433;0.3272579;4.616659;0.6428697;-0.03492731;4.522183;0.636946;-0.5563674;4.89732;-0.03066227;0.1528293;5.496321;0.1591656;0.840286;4.52971;0.6428698;1.099465;4.329922;0.6369467;1.399347;3.417656;0.5587406;1.9927;3.70429;-0.1221122;0.09814671;2.622631;0.5822768;0.09524359;1.337697;-0.1175755;0;0;0;0.09814671;2.622631;0.5822768;0.09524359;1.337697;-0.1175755;0;0;0
324415.5176;NotLabelled;16384;0.8074816;0.3808864;0.3573407;0.2742382;-46;-6;-15;2546;-1978;1540;65536;0.6923781;0.5470914;-0.4279778;-0.1952908;22;19;-95;3370;-1287;-1270;8192;0.5512465;-0.3878116;-0.559831;-0.4819945;7;-10;116;-1500;4516;1494;32768;0.7638325;0.2229917;-0.1481994;-0.5872576;85;134;-212;2117;-668;1518;256;0.03878116;-0.2036011;-0.5304709;-0.8219752;-15;-41;4;634;3116;-1868;128;-0.1038781;0.1606648;0.7345984;0.6509695;7;-22;13;-326;3642;-96;4;-0.5304709;0.2396122;-0.4570637;-0.6725172;16;-8;20;1912;3436;78;16;0.6786703;-0.7249128;0.09833795;0.06509695;36;29;-2;203;3959;1626;2;0.5803324;-0.612893;-0.2977839;-0.4459834;13;-23;20;-664;3970;-686;8;0.4875346;-0.7188352;0.3518005;0.3490305;-12;3;13;427;4077;1073;0.3876504;2.663672;0.5981621;0.3932507;3.174036;0.405498;0.3981656;3.621931;0.2342542;0.5049223;4.270525;0.5604303;0.2998641;4.617541;0.6712412;-0.06186862;4.521337;0.6654744;-0.5833154;4.903708;0.001988083;0.1313843;5.484755;0.224216;0.8133001;4.533034;0.6712417;1.073426;4.334476;0.6654754;1.353688;3.413788;0.6200714;2.000411;3.665433;-0.02507377;0.07539833;2.621822;0.6070701;0.08957821;1.339682;-0.09775236;0;0;0;0.07539833;2.621822;0.6070701;0.08957821;1.339682;-0.09775236;0;0;0
324436.7448;NotLabelled;16384;0.8036094;0.3864266;0.3601108;0.2742382;-43;-14;-12;2182;-2384;1696;65536;0.6819287;0.5484765;-0.4376731;-0.2063712;21;37;-83;3956;-1277;-946;8192;0.5443213;-0.3975069;-0.5680106;-0.4722992;-5;-46;100;-2118;4774;1326;32768;0.7423551;0.2146814;-0.1772853;-0.6094183;77;149;-239;2105;-534;1026;256;0.04432133;-0.2091413;-0.5290859;-0.8211965;-11;-52;1;586;3352;-1916;128;-0.1080332;0.1620499;0.7336943;0.6509695;0;-31;14;-606;3640;-68;4;-0.5304709;0.2396122;-0.4542936;-0.6743915;14;-9;17;1924;3588;156;16;0.6800554;-0.7245277;0.09418282;0.06094183;24;41;0;433;3851;1446;2;0.5803324;-0.615568;-0.2963989;-0.4432133;11;-20;21;-672;3840;-688;8;0.4861496;-0.7204427;0.3518005;0.3476454;-13;-2;12;815;4013;1087;0.3569731;2.655192;0.6465513;0.3625773;3.165906;0.4548173;0.3674956;3.614112;0.2843897;0.4678621;4.265623;0.6067592;0.2593426;4.61114;0.7157805;-0.1013862;4.51119;0.7109023;-0.6147629;4.899037;0.04430699;0.1045026;5.458482;0.3040671;0.7736206;4.531919;0.7157811;1.03577;4.336015;0.7109038;1.275446;3.403137;0.7347503;2.012016;3.560918;0.1599827;0.04472071;2.613325;0.6553769;0.08469123;1.341861;-0.0675604;0;0;0;0.04472071;2.613325;0.6553769;0.08469123;1.341861;-0.0675604;0;0;0
324457.5266;NotLabelled;16384;0.7997665;0.3933518;0.3601108;0.2756233;-37;-23;-13;2428;-2422;1810;65536;0.6739661;0.5512465;-0.4418283;-0.2160665;20;58;-71;4170;-1335;-1130;8192;0.5429363;-0.4085872;-0.5716901;-0.4598338;-12;-86;77;-2006;4818;1786;32768;0.7194741;0.2022161;-0.2105263;-0.6301939;72;112;-280;2037;106;834;256;0.05124654;-0.2132964;-0.5304709;-0.8188279;-21;-42;0;900;3288;-2056;128;-0.1121884;0.1634349;0.7327629;0.6509695;0;-24;15;-472;3910;-312;4;-0.5304709;0.2382271;-0.4515235;-0.6767384;13;-13;14;1880;3532;204;16;0.6814404;-0.724092;0.0900277;0.0567867;11;32;-1;329;3629;1698;2;0.5789474;-0.6195132;-0.2950138;-0.4404432;9;-20;22;-804;3884;-694;8;0.4833795;-0.721628;0.3531856;0.3476454;-17;-7;12;735;4039;1033;0.33801;2.652456;0.655515;0.3436162;3.16335;0.4642611;0.3485362;3.611716;0.2942548;0.4463417;4.262968;0.6179336;0.2364845;4.607478;0.7275704;-0.1238621;4.506174;0.7223868;-0.6351136;4.898134;0.05656546;0.08734638;5.435759;0.351196;0.7510583;4.530202;0.7275708;1.013948;4.335302;0.7223878;1.239959;3.400472;0.779717;2.012939;3.497674;0.2404209;0.02575769;2.610581;0.664298;0.08515432;1.342077;-0.06249382;0;0;0;0.02575769;2.610581;0.664298;0.08515432;1.342077;-0.06249382;0;0;0
324478.6149;NotLabelled;16384;0.7926239;0.4044321;0.3614958;0.2783934;-29;-24;-19;2522;-2392;1642;65536;0.6557598;0.5567867;-0.4515235;-0.2368421;26;22;-63;3606;-965;-800;8192;0.5443213;-0.4196676;-0.5733169;-0.4459834;-27;-95;57;-1194;4654;2168;32768;0.7000943;0.1814404;-0.2493075;-0.6440443;61;20;-325;2657;580;1088;256;0.0567867;-0.2160665;-0.5304709;-0.8177354;-22;-36;-4;744;3444;-2108;128;-0.1149584;0.1648199;0.7320229;0.6509695;2;-15;17;-608;3906;-118;4;-0.5290859;0.2368421;-0.4501385;-0.679227;13;-15;10;1954;3376;160;16;0.6800554;-0.7262096;0.08587258;0.05263158;0;18;-4;515;3627;1560;2;0.5789474;-0.6256801;-0.2922437;-0.433518;12;-27;19;-752;3874;-644;8;0.4778393;-0.7259706;0.3531856;0.3462604;-19;-3;12;651;4125;1033;0.3211147;2.648163;0.6668242;0.3267228;3.159237;0.4760535;0.3316445;3.607763;0.3064712;0.4256442;4.261279;0.6266974;0.2137329;4.605043;0.734712;-0.1459814;4.501479;0.7303334;-0.6536443;4.900032;0.06568068;0.06841476;5.423177;0.3862203;0.7287768;4.530964;0.7347127;0.9928684;4.337676;0.7303345;1.209597;3.402712;0.8148705;2.012725;3.426933;0.3126885;0.008862168;2.60628;0.6755644;0.08532506;1.342291;-0.05747283;0;0;0;0.008862168;2.60628;0.6755644;0.08532506;1.342291;-0.05747283;0;0;0
324498.7131;NotLabelled;16384;0.7888733;0.4085872;0.3628809;0.2811634;-25;-23;-22;2470;-2360;1476;65536;0.6471835;0.5581717;-0.4584487;-0.2437673;26;20;-58;4010;-893;-626;8192;0.5484765;-0.4279778;-0.5738202;-0.432133;-53;-85;45;-856;4232;1974;32768;0.6896659;0.1495845;-0.2922437;-0.6454294;34;-95;-363;3655;906;1018;256;0.06094183;-0.2188366;-0.5318559;-0.8157977;-20;-35;-6;710;3550;-2148;128;-0.1191136;0.1648199;0.7301232;0.6523545;-7;-15;15;-564;4012;-518;4;-0.5277008;0.2368421;-0.4487534;-0.681218;14;-12;2;2006;3370;168;16;0.6772853;-0.7289557;0.08448754;0.05263158;-6;-3;-11;461;3667;1562;2;0.5775623;-0.6295071;-0.2908587;-0.4307479;10;-25;19;-528;4086;-770;8;0.4764543;-0.7268803;0.3531856;0.3462604;-20;2;12;705;4019;1161;0.3114145;2.645177;0.6649733;0.3170245;3.15643;0.4746803;0.321948;3.605114;0.3055173;0.4120564;4.259744;0.6245834;0.1980883;4.602404;0.732053;-0.1609917;4.496651;0.7279446;-0.6737083;4.903719;0.07239425;0.05226834;5.392987;0.4348464;0.7135722;4.531452;0.7320535;0.9788308;4.339762;0.7279454;1.189939;3.405952;0.8361458;2.012063;3.342328;0.3693996;-0.0008381009;2.603286;0.6736712;0.08843211;1.341872;-0.06234761;0;0;0;-0.0008381009;2.603286;0.6736712;0.08843211;1.341872;-0.06234761;0;0;0
324519.5882;NotLabelled;16384;0.7852954;0.4113573;0.3642659;0.2853186;-21;-26;-25;2422;-2322;1572;65536;0.6396778;0.5609418;-0.4626039;-0.2493075;23;29;-44;4508;-793;-528;8192;0.5637119;-0.4307479;-0.5790965;-0.4016621;-90;-72;27;-1174;4034;2030;32768;0.6899037;0.04986149;-0.3808864;-0.6135734;-49;-314;-404;5345;1946;764;256;0.06648199;-0.2202216;-0.533241;-0.8140864;-20;-32;-7;674;3550;-1988;128;-0.1204986;0.1648199;0.7286556;0.6537396;-11;-7;15;-650;4098;-282;4;-0.5263157;0.2396122;-0.4473684;-0.6822311;15;-4;-13;2028;3184;150;16;0.6703601;-0.7346872;0.08448754;0.06094183;-23;-26;-19;-355;3439;1700;2;0.5775623;-0.6329655;-0.2894737;-0.4265928;8;-19;19;-304;3980;-908;8;0.4736842;-0.7293583;0.3518005;0.3462604;-23;9;13;557;3947;1195;0.2997541;2.643506;0.6554489;0.3053718;3.155458;0.4670474;0.3103022;3.604765;0.2995444;0.3984682;4.26111;0.6156157;0.1834756;4.603602;0.7215624;-0.1752819;4.49674;0.7179949;-0.6823478;4.902077;0.05699903;0.04206815;5.374872;0.4436309;0.699173;4.53422;0.7217989;0.965013;4.34332;0.7185177;1.176064;3.412714;0.8515713;2.003791;3.250699;0.4198223;-0.01249892;2.601583;0.6639791;0.090115;1.341267;-0.07218188;0;0;0;-0.01249892;2.601583;0.6639791;0.090115;1.341267;-0.07218188;0;0;0
324540.719;NotLabelled;16384;0.7809314;0.4155124;0.365651;0.2894737;-16;-31;-31;2610;-2230;1498;65536;0.6345865;0.5637119;-0.4639889;-0.2534626;20;31;-30;4396;-861;-524;8192;0.5734072;-0.4307479;-0.5817801;-0.3836565;-103;-82;21;-1036;4124;2144;32768;0.7015601;-0.02077562;-0.4168975;-0.5775623;-119;-450;-398;5919;2894;514;256;0.07479224;-0.2216066;-0.536011;-0.8111651;-19;-16;-8;408;3380;-1782;128;-0.1232687;0.1648199;0.7256957;0.6565097;-5;-13;11;-296;3704;22;4;-0.5249307;0.2437673;-0.4459834;-0.6827328;18;2;-19;1990;3238;202;16;0.66482;-0.7396615;0.08171745;0.06509695;-34;3;-20;-313;3565;1440;2;0.5761772;-0.6360811;-0.2894737;-0.4238227;6;-9;19;-296;4010;-962;8;0.4709141;-0.7324684;0.3504155;0.3448753;-25;17;13;657;4053;1087;0.278444;2.644052;0.6223736;0.2840694;3.156691;0.4358509;0.2890064;3.606609;0.2699969;0.3730716;4.265187;0.5825199;0.1558787;4.606767;0.6869192;-0.2021489;4.497456;0.6843293;-0.7171447;4.903016;0.02963084;0.003758207;5.364454;0.4360432;0.6720351;4.540884;0.6869199;0.9391606;4.351778;0.6843308;1.184572;3.434588;0.8480744;1.974828;3.056838;0.4867055;-0.03380927;2.602098;0.6307374;0.08346866;1.33991;-0.1000068;0;0;0;-0.03380927;2.602098;0.6307374;0.08346866;1.33991;-0.1000068;0;0;0
324562.5421;NotLabelled;16384;0.7774624;0.4168975;0.367036;0.2950138;-10;-33;-39;2802;-2040;1384;65536;0.6283846;0.566482;-0.466759;-0.2576177;21;18;-22;3744;-787;-770;8192;0.5863324;-0.432133;-0.5803324;-0.3642659;-104;-107;17;-1122;4044;1948;32768;0.7213196;-0.1066482;-0.4390582;-0.5249307;-189;-598;-370;6031;4142;316;256;0.07894737;-0.2216066;-0.536011;-0.8107712;-15;-21;-6;276;3442;-1836;128;-0.1246537;0.1648199;0.7242032;0.6578947;-4;-10;9;-386;3824;72;4;-0.5235457;0.2479224;-0.4459834;-0.6822999;20;10;-21;1866;3466;90;16;0.6606648;-0.7438408;0.07617728;0.06648199;-28;15;-20;401;4167;982;2;0.5747922;-0.6376218;-0.2908587;-0.4224377;3;0;19;-496;3980;-882;8;0.468144;-0.7362053;0.3476454;0.3434903;-27;17;13;817;4109;1071;0.2557761;2.645818;0.5913326;0.2614163;3.159814;0.4085819;0.2663666;3.610939;0.2460384;0.3438864;4.273366;0.5520502;0.1232475;4.613652;0.6533982;-0.2336185;4.500584;0.6523132;-0.7493482;4.905288;-0.002336681;-0.03394149;5.360337;0.4206525;0.6400651;4.553176;0.6533987;0.9091532;4.366858;0.6523139;1.175962;3.459641;0.8368258;1.925807;2.97566;0.5185753;-0.05647779;2.603804;0.5993629;0.07901347;1.338314;-0.1224674;0;0;0;-0.05647779;2.603804;0.5993629;0.07901347;1.338314;-0.1224674;0;0;0
324583.514;NotLabelled;16384;0.7732726;0.4182825;0.3698061;0.300554;-7;-33;-42;2922;-1798;1486;65536;0.6226497;0.5692521;-0.4695291;-0.2603878;21;6;-15;3952;-1227;-236;8192;0.6002042;-0.434903;-0.5775623;-0.3421052;-92;-168;20;-798;3720;1634;32768;0.7433004;-0.2022161;-0.4432133;-0.4584487;-245;-699;-292;7607;5514;950;256;0.08171745;-0.2216066;-0.5373961;-0.809579;-14;-18;-4;142;3694;-1932;128;-0.1260388;0.1648199;0.7227024;0.6592798;-15;-7;6;-296;3880;-140;4;-0.5235457;0.2534626;-0.4445983;-0.6811674;23;18;-25;1574;3904;300;16;0.6578947;-0.7463074;0.07479224;0.06786703;-20;-6;-19;601;4163;520;2;0.5720221;-0.6406652;-0.2936288;-0.4196676;0;1;17;-838;3932;-944;8;0.4626039;-0.7429144;0.3434903;0.3407202;-30;13;14;1055;4093;1105;0.2406605;2.649132;0.5623146;0.246308;3.163798;0.3814574;0.2512648;3.615517;0.2205758;0.3243892;4.278987;0.5254105;0.1014876;4.617959;0.6262076;-0.2546107;4.502493;0.6253937;-0.7728885;4.902015;-0.03042626;-0.06094071;5.348733;0.4070326;0.6187;4.560958;0.6262081;0.8890342;4.376451;0.6253946;1.180344;3.47961;0.8231068;1.872764;2.89701;0.5421833;-0.07159382;2.607089;0.5701776;0.07318723;1.336787;-0.141321;0;0;0;-0.07159382;2.607089;0.5701776;0.07318723;1.336787;-0.141321;0;0;0
324603.53;NotLabelled;16384;0.7629593;0.4210526;0.3753462;0.3157895;-5;-37;-47;3546;-1804;1794;65536;0.618354;0.5734072;-0.4709141;-0.2590028;17;17;8;4338;-1605;-674;8192;0.6156552;-0.4487534;-0.567867;-0.3116343;-84;-271;39;-270;3700;1224;32768;0.7662122;-0.299169;-0.4210526;-0.3822715;-302;-778;-162;7741;6722;2290;256;0.08587258;-0.2229917;-0.5373961;-0.8087682;-14;-10;-3;-88;3952;-1816;128;-0.1260388;0.166205;0.7198473;0.6620498;-24;-12;3;-370;4184;-162;4;-0.5221606;0.2603878;-0.4459834;-0.6787086;18;8;-32;1192;3956;218;16;0.6565097;-0.7476711;0.07202215;0.06925207;-21;14;-16;465;3935;418;2;0.5720221;-0.6415703;-0.2936288;-0.4182825;1;-5;16;-910;3944;-1138;8;0.4584487;-0.7467533;0.3421052;0.3393352;-33;13;13;977;4055;1081;0.2286775;2.652262;0.5415552;0.2343323;3.167591;0.3625958;0.2392956;3.6199;0.20338;0.3101045;4.284978;0.5052417;0.08599579;4.623566;0.6046475;-0.2696725;4.506778;0.6045178;-0.7945123;4.899742;-0.05004478;-0.08641119;5.339756;0.4002635;0.6034158;4.568481;0.6046478;0.8744314;4.384974;0.6045185;1.19183;3.499907;0.8147271;1.816182;2.82996;0.5715298;-0.08357711;2.61019;0.5492504;0.07219423;1.335639;-0.1522589;0;0;0;-0.08357711;2.61019;0.5492504;0.07219423;1.335639;-0.1522589;0;0;0
324624.5081;NotLabelled;16384;0.7586817;0.4210526;0.3781163;0.3227147;-4;-36;-49;3826;-1742;1854;65536;0.6161147;0.5775623;-0.4695291;-0.2576177;17;5;10;3562;-1881;-972;8192;0.6477584;-0.5055401;-0.5290859;-0.2119114;-90;-452;80;382;4502;1542;32768;0.7979715;-0.4570637;-0.3102493;-0.2409972;-280;-621;83;-1225;9120;-770;256;0.08864266;-0.2229917;-0.5387812;-0.8075469;-20;-19;0;90;4136;-1932;128;-0.1260388;0.16759;0.7169674;0.66482;-33;-9;0;-282;4252;-230;4;-0.5193906;0.265928;-0.4487534;-0.6768575;10;-9;-36;1436;4098;-6;16;0.6551247;-0.749891;0.06509695;0.06509695;-22;65;-13;289;4687;308;2;0.5706371;-0.6428025;-0.2936288;-0.4182825;3;-10;14;-842;3878;-1248;8;0.4556787;-0.7503321;0.3393352;0.3379501;-37;15;9;1059;4185;1105;0.2156283;2.66082;0.5159199;0.2212992;3.177613;0.3412333;0.2262768;3.631225;0.1857677;0.2937284;4.297189;0.486441;0.06790423;4.634799;0.5852906;-0.2871604;4.516189;0.585434;-0.8258073;4.891403;-0.06832647;-0.1275159;5.332206;0.3963015;0.5856;4.582367;0.585291;0.857553;4.400253;0.585435;1.193008;3.525521;0.8103549;1.745548;2.786063;0.5966057;-0.09662692;2.618686;0.5232383;0.06792768;1.335029;-0.159407;0;0;0;-0.09662692;2.618686;0.5232383;0.06792768;1.335029;-0.159407;0;0;0
324645.5131;NotLabelled;16384;0.7544714;0.4196676;0.3808864;0.3310249;-1;-31;-53;4158;-1518;2016;65536;0.6153919;0.5789474;-0.4695291;-0.2562327;16;0;9;3874;-2295;-468;8192;0.6541547;-0.5387812;-0.5041551;-0.166205;10;-379;70;1098;3630;-104;32768;0.7994678;-0.5055401;-0.2548476;-0.200831;-240;-383;99;-5303;7190;-2380;256;0.09695291;-0.2285319;-0.5443213;-0.8013037;-26;-39;0;496;4402;-2106;128;-0.1246537;0.1703601;0.7087557;0.6731302;-33;-5;-8;-144;4968;-678;4;-0.5138504;0.2728532;-0.4473684;-0.6792426;15;0;1;3098;4670;-294;16;0.6495845;-0.7575886;0.0401662;0.04986149;-28;64;-10;401;5677;980;2;0.5706371;-0.6443317;-0.2922437;-0.4168975;7;-14;12;-976;4148;-1350;8;0.4515235;-0.7540823;0.3365651;0.3379501;-41;7;6;1003;4571;1335;0.2123181;2.669369;0.4901334;0.2180047;3.187595;0.3197492;0.2229963;3.642484;0.1680601;0.2881382;4.310033;0.4657133;0.06112145;4.647253;0.5631503;-0.293506;4.527345;0.563987;-0.83719;4.892753;-0.0911569;-0.1459882;5.337887;0.3798982;0.5790057;4.596719;0.5631505;0.8516244;4.415605;0.5639878;1.220351;3.567357;0.8337854;1.620886;2.734473;0.6248263;-0.09993769;2.627175;0.4970729;0.06729926;1.334137;-0.1669625;0;0;0;-0.09993769;2.627175;0.4970729;0.06729926;1.334137;-0.1669625;0;0;0
324666.5355;NotLabelled;16384;0.7492742;0.4196676;0.3850415;0.3379501;-4;-21;-51;4298;-1834;2080;65536;0.6152345;0.5803324;-0.4695291;-0.2534626;11;-4;11;4282;-2319;-542;8192;0.6547747;-0.5692521;-0.4806094;-0.1274238;23;-313;59;3304;3638;74;32768;0.7917472;-0.5387812;-0.2188366;-0.1869806;-204;-176;88;-4817;5396;-3478;256;0.1024931;-0.2299169;-0.5443213;-0.8002173;-14;-33;0;678;4386;-1918;128;-0.1232687;0.1717452;0.7060221;0.6759003;-12;-15;-6;-172;5108;-714;4;-0.5152354;0.2728532;-0.4459834;-0.6791041;-3;13;8;1676;3972;524;16;0.6468144;-0.7603399;0.03601108;0.04709141;-23;11;-14;905;4059;1022;2;0.5706371;-0.6467403;-0.2908587;-0.4141274;7;-21;9;-876;4520;-916;8;0.4459834;-0.7579785;0.333795;0.3393352;-42;6;7;595;4501;1421;0.1831709;2.672264;0.4427682;0.1889011;3.194461;0.2849745;0.1939316;3.652888;0.1443376;0.2570406;4.325523;0.4307661;0.02891654;4.663468;0.5229614;-0.3252583;4.542275;0.5263622;-0.8635741;4.894945;-0.1400988;-0.1837664;5.342134;0.3453702;0.5469857;4.614865;0.5229615;0.8202807;4.434803;0.5263625;1.183875;3.59321;0.822666;1.515602;2.730293;0.6150146;-0.1290867;2.629916;0.4486017;0.06869605;1.330397;-0.194042;0;0;0;-0.1290867;2.629916;0.4486017;0.06869605;1.330397;-0.194042;0;0;0
324687.5254;NotLabelled;16384;0.745285;0.4182825;0.3905817;0.3421052;-9;-13;-46;4172;-1852;2124;65536;0.6150614;0.5817174;-0.4695291;-0.2506925;4;-4;11;4090;-2479;-802;8192;0.6522369;-0.5886427;-0.466759;-0.101108;7;-179;67;4244;3348;266;32768;0.7814655;-0.5623268;-0.1952908;-0.1869806;-169;-92;78;-1917;4874;-4100;256;0.1066482;-0.232687;-0.5457063;-0.797927;-8;-25;0;442;4372;-1792;128;-0.1246537;0.1745152;0.705099;0.6759003;-15;-23;-2;-584;4582;-186;4;-0.5180055;0.2756233;-0.4473684;-0.6749545;-5;13;-8;670;3372;336;16;0.6440443;-0.7625116;0.03601108;0.04986149;-15;-31;-20;717;3353;1138;2;0.5706371;-0.649741;-0.2880886;-0.4113573;3;-29;3;-478;4386;-726;8;0.4418283;-0.761618;0.3310249;0.3393352;-46;6;7;363;4263;1445;0.1805162;2.668798;0.4349502;0.1862608;3.19231;0.2815715;0.191304;3.651906;0.1448107;0.2496497;4.325741;0.4294262;0.01912738;4.662286;0.5207755;-0.3341677;4.538564;0.5245885;-0.8766165;4.879705;-0.1445159;-0.204631;5.330802;0.3481753;0.5375318;4.617402;0.5207758;0.812113;4.439316;0.5245892;1.166893;3.602319;0.8437193;1.434951;2.716377;0.6411432;-0.1317419;2.626402;0.4403971;0.07338777;1.328712;-0.2036353;0;0;0;-0.1317419;2.626402;0.4403971;0.07338777;1.328712;-0.2036353;0;0;0
324708.5387;NotLabelled;16384;0.7384169;0.4168975;0.398892;0.3490305;-17;-3;-41;4166;-1578;2016;65536;0.616678;0.5817174;-0.468144;-0.2493075;-7;-2;1;3758;-2529;-882;8192;0.6481211;-0.5955678;-0.466759;-0.08587258;-20;-32;70;4014;3352;946;32768;0.7734846;-0.5803324;-0.1731302;-0.1869806;-142;-100;70;-489;4984;-3668;256;0.1094183;-0.234072;-0.5457063;-0.7971465;-11;-19;0;674;4016;-1708;128;-0.1260388;0.1786704;0.699797;0.6800554;-42;-29;-1;-544;4198;518;4;-0.5166205;0.2783934;-0.4487534;-0.673959;9;-11;-30;454;3042;-288;16;0.6426592;-0.7630599;0.03878116;0.0567867;-8;-39;-23;-181;3523;1366;2;0.5747922;-0.6499181;-0.2853186;-0.4072022;-7;-13;-6;172;4436;-370;8;0.4307479;-0.7690774;0.3254848;0.3421052;-49;6;8;405;4211;1699;0.1824105;2.670904;0.4176884;0.1881583;3.194708;0.2653161;0.1932045;3.654567;0.1294389;0.2499831;4.330029;0.41049;0.01865642;4.66647;0.5001779;-0.3343251;4.541883;0.5048;-0.8792905;4.871535;-0.1680087;-0.2156148;5.326519;0.3323117;0.537172;4.622887;0.5001781;0.8122011;4.445513;0.5048007;1.159773;3.614165;0.845872;1.373298;2.712195;0.649286;-0.1298478;2.628498;0.4230471;0.07419875;1.327075;-0.2137606;0;0;0;-0.1298478;2.628498;0.4230471;0.07419875;1.327075;-0.2137606;0;0;0
324729.6344;NotLabelled;16384;0.7347381;0.4168975;0.4044321;0.3504155;-18;7;-36;3984;-1576;1768;65536;0.6169299;0.5803324;-0.4695291;-0.2493075;-15;-3;0;4054;-2397;-598;8192;0.6402354;-0.5858725;-0.4903047;-0.08033241;-13;63;59;1748;3406;766;32768;0.7611519;-0.6094183;-0.1371191;-0.1745152;-85;-92;21;-1707;4442;-2676;256;0.1108033;-0.2368421;-0.5470914;-0.7951851;-16;-9;4;872;3468;-1614;128;-0.1260388;0.1814404;0.6950177;0.6842105;-34;0;-1;-776;4280;324;4;-0.5096953;0.2825485;-0.4501385;-0.6765741;21;-29;-44;914;3364;-496;16;0.6412742;-0.7638614;0.03739612;0.06232687;-4;-12;-25;-337;4037;1102;2;0.5761772;-0.649558;-0.2853186;-0.4058172;-10;-5;-7;168;4386;-572;8;0.4252077;-0.7732788;0.3213296;0.3434903;-50;14;10;219;4071;1809;0.1733072;2.674674;0.401189;0.1790783;3.200597;0.2562955;0.1841452;3.662345;0.1269842;0.2390993;4.33835;0.4070902;0.006859213;4.674277;0.4963377;-0.345778;4.548728;0.501174;-0.9013473;4.860779;-0.1713565;-0.2406922;5.319432;0.3296119;0.5254925;4.63212;0.4963382;0.8010085;4.455508;0.5011753;1.149685;3.633954;0.8641461;1.316311;2.721951;0.6685117;-0.1389518;2.632197;0.4058942;0.06837573;1.326275;-0.2205589;0;0;0;-0.1389518;2.632197;0.4058942;0.06837573;1.326275;-0.2205589;0;0;0
324750.5265;NotLabelled;16384;0.7324356;0.4168975;0.4085872;0.3504155;-18;11;-31;3768;-1602;1632;65536;0.6176696;0.5789474;-0.4695291;-0.2506925;-21;-3;-2;3874;-2175;-688;8192;0.6354066;-0.5844875;-0.4986149;-0.07756232;0;-3;49;1652;3110;1082;32768;0.7565966;-0.6177285;-0.1301939;-0.1703601;-57;-28;-4;-2185;4472;-2296;256;0.1108033;-0.2368421;-0.5484765;-0.7942305;-17;-6;5;574;3490;-1606;128;-0.1218837;0.1814404;0.6943936;0.6855956;1;15;-3;-746;4066;-438;4;-0.4972299;0.2880886;-0.4570637;-0.6788668;-9;-33;-34;1830;4388;-150;16;0.6398892;-0.7650985;0.03047091;0.06509695;-1;4;-20;241;4507;834;2;0.5775623;-0.6483267;-0.2853186;-0.4058172;-13;0;-10;16;4292;-580;8;0.4210526;-0.7778214;0.3157895;0.3434903;-53;25;13;17;3973;1601;0.1502835;2.68035;0.3735509;0.1560752;3.208163;0.2357044;0.1611606;3.671599;0.1125805;0.2174973;4.348576;0.3900522;-0.01407133;4.68529;0.4780727;-0.3669465;4.560435;0.4835057;-0.927545;4.865023;-0.1882717;-0.2686978;5.32168;0.3168821;0.5044804;4.642141;0.4780728;0.7796597;4.465023;0.4835062;1.141184;3.665755;0.8819368;1.241887;2.741362;0.6998802;-0.1619761;2.637813;0.3776419;0.05907834;1.32516;-0.2297583;0;0;0;-0.1619761;2.637813;0.3776419;0.05907834;1.32516;-0.2297583;0;0;0
324770.5175;NotLabelled;16384;0.7301022;0.4168975;0.4127424;0.3504155;-15;12;-27;3772;-1600;1580;65536;0.6196928;0.5761772;-0.4695291;-0.2520775;-24;-2;-2;3758;-2145;-568;8192;0.6325653;-0.5872576;-0.5;-0.07063711;0;-53;51;2230;3242;1778;32768;0.7511281;-0.6246537;-0.1288089;-0.1703601;-44;0;-14;-1111;4584;-1496;256;0.1135734;-0.2396122;-0.5512465;-0.7910843;-10;-9;-1;428;3894;-1734;128;-0.1177285;0.1786704;0.6958273;0.6855956;-11;8;-4;-330;4286;-140;4;-0.4930748;0.2894737;-0.4626039;-0.6775544;-12;-23;-28;1618;3648;-186;16;0.6398892;-0.7647336;0.03047091;0.06925207;-3;-26;-21;311;4503;558;2;0.5789474;-0.6464778;-0.2867036;-0.4058172;-18;8;-16;-286;4090;-370;8;0.4168975;-0.7834305;0.3088643;0.3421052;-55;37;16;-23;4019;1493;0.1337958;2.693245;0.327892;0.1395934;3.221579;0.1920571;0.1446839;3.685481;0.07069934;0.2016856;4.363306;0.3459564;-0.02956599;4.700505;0.432946;-0.3825482;4.575976;0.4388798;-0.9499375;4.876087;-0.2292013;-0.2881867;5.330705;0.2739937;0.4889481;4.656904;0.4329458;0.7639748;4.479565;0.4388798;1.127047;3.688819;0.8526113;1.212033;2.761088;0.6797509;-0.178464;2.650693;0.3318079;0.045381;1.323508;-0.2420655;0;0;0;-0.178464;2.650693;0.3318079;0.045381;1.323508;-0.2420655;0;0;0
324791.6106;NotLabelled;16384;0.7285293;0.4155124;0.4168975;0.3504155;-14;17;-24;3778;-1502;1426;65536;0.621694;0.5734072;-0.4695291;-0.2534626;-29;-7;-1;4190;-2035;-246;8192;0.6274865;-0.5914127;-0.5027701;-0.06094183;-8;-37;59;2736;3446;1608;32768;0.7471128;-0.6301939;-0.1288089;-0.16759;-47;-22;-19;-243;4600;-674;256;0.1149584;-0.2396122;-0.5526316;-0.7899171;-10;0;-2;344;3866;-1212;128;-0.1163435;0.1786704;0.6960602;0.6855956;3;1;0;-64;4254;-426;4;-0.4903047;0.2908587;-0.4653739;-0.6770743;-4;-10;-25;1540;3424;-472;16;0.6398892;-0.7640184;0.03185596;0.07617728;-5;-42;-24;-101;4189;462;2;0.5831025;-0.6397288;-0.2894737;-0.4085872;-32;24;-24;-342;4032;20;8;0.4127424;-0.7889146;0.301939;0.3407202;-52;44;19;209;3823;1935;0.1325962;2.700675;0.3089488;0.1383906;3.228736;0.1720565;0.1434784;3.692394;0.04977033;0.201125;4.372327;0.3196411;-0.02983877;4.71036;0.4041246;-0.3829015;4.586123;0.4112731;-0.9514039;4.881733;-0.2578677;-0.2887309;5.334085;0.2461559;0.4886453;4.666404;0.4041245;0.7635551;4.488929;0.4112732;1.124268;3.704504;0.8388686;1.197873;2.773765;0.6773264;-0.1796636;2.658131;0.3129568;0.03914703;1.32322;-0.2447123;0;0;0;-0.1796636;2.658131;0.3129568;0.03914703;1.32322;-0.2447123;0;0;0
324811.5188;NotLabelled;16384;0.7280946;0.4127424;0.4238227;0.3462604;-6;35;-12;3930;-1214;1326;65536;0.6279205;0.566482;-0.468144;-0.2562327;-44;-16;3;4358;-2101;-220;8192;0.623764;-0.5914127;-0.5083103;-0.05263158;-20;-3;67;3182;3218;1568;32768;0.7429221;-0.6371191;-0.1260388;-0.1620499;-53;-41;-21;-385;4610;-116;256;0.1149584;-0.2396122;-0.5540166;-0.7889462;-11;0;-6;306;3390;-630;128;-0.1177285;0.1772853;0.6975428;0.6842105;7;-5;2;-24;3936;-212;4;-0.4875346;0.2936288;-0.466759;-0.6769255;0;-7;-27;1516;3390;-530;16;0.6385041;-0.7645454;0.033241;0.08171745;-5;-31;-22;-565;4001;576;2;0.5900277;-0.627812;-0.2936288;-0.4141274;-39;20;-27;-326;3768;-354;8;0.4044321;-0.8022524;0.2853186;0.333795;-56;55;26;107;3521;2009;0.123856;2.704773;0.2954968;0.1296505;3.232835;0.158605;0.1347383;3.696493;0.0363193;0.1916153;4.377574;0.3034436;-0.0397476;4.715651;0.3866501;-0.3926506;4.590998;0.3944161;-0.9645108;4.880824;-0.2743939;-0.2978095;5.330863;0.2263757;0.4787917;4.672351;0.3866505;0.7539282;4.495253;0.3944171;1.113655;3.720617;0.8402991;1.181273;2.787465;0.6904896;-0.1884038;2.66223;0.2995047;0.02801789;1.32284;-0.2482687;0;0;0;-0.1884038;2.66223;0.2995047;0.02801789;1.32284;-0.2482687;0;0;0
324831.5512;NotLabelled;16384;0.7293819;0.4113573;0.4252077;0.3434903;1;30;-1;3940;-1306;1234;65536;0.6324077;0.5609418;-0.4695291;-0.2548476;-30;-26;7;5540;-2559;-1872;8192;0.620092;-0.5886427;-0.5166205;-0.04570637;-26;18;71;3102;3024;1554;32768;0.7376735;-0.6454294;-0.1232687;-0.1551246;-57;-31;-23;-677;4512;-36;256;0.1177285;-0.2382271;-0.5554016;-0.7879828;-75;15;-5;942;2374;1310;128;-0.1177285;0.1772853;0.6988987;0.6828254;6;-3;0;-100;3730;-896;4;-0.4847645;0.2963989;-0.4695291;-0.675791;2;-9;-30;1558;3434;-524;16;0.6385041;-0.764149;0.03185596;0.08587258;-3;-5;-20;-975;3967;566;2;0.5941828;-0.6216462;-0.2963989;-0.4155124;-41;21;-32;-174;3818;-422;8;0.400277;-0.8094119;0.2756233;0.3296399;-48;62;28;357;3805;2009;0.1152975;2.707726;0.27756;0.1210848;3.235124;0.1381353;0.1261662;3.69819;0.01362557;0.1837227;4.380088;0.2785125;-0.04731628;4.71864;0.3606794;-0.400328;4.594327;0.3689482;-0.9800288;4.878842;-0.2953767;-0.3013775;5.325615;0.1920895;0.4711842;4.674879;0.3606794;0.7461652;4.497562;0.3689482;1.111908;3.734669;0.829928;1.171376;2.798977;0.6930704;-0.196962;2.665202;0.2817884;0.02123785;1.321677;-0.2550431;0;0;0;-0.196962;2.665202;0.2817884;0.02123785;1.321677;-0.2550431;0;0;0
324851.7613;NotLabelled;16384;0.7308112;0.4099723;0.4252077;0.3421052;11;14;16;4218;-1358;978;65536;0.636809;0.5554016;-0.4709141;-0.2534626;-14;-27;-11;3190;-3327;-2158;8192;0.6123545;-0.5803324;-0.536011;-0.03047091;-28;11;80;2612;2828;1260;32768;0.7260247;-0.6606648;-0.1218837;-0.1468144;-58;-24;-21;-179;4544;-146;256;0.1191136;-0.232687;-0.5858725;-0.7670868;-212;32;26;-696;4064;-3292;128;-0.1149584;0.1745152;0.6987024;0.6842105;-15;42;0;-358;3566;-750;4;-0.4819945;0.300554;-0.4709141;-0.674973;3;-5;-31;1340;3566;-592;16;0.6385041;-0.7641539;0.02770083;0.08725762;-4;19;-18;-781;4119;550;2;0.5983379;-0.613489;-0.299169;-0.4196676;-47;29;-37;-162;3802;-38;8;0.3975069;-0.8152249;0.267313;0.3254848;-50;65;28;315;3787;1923;0.1073559;2.712557;0.2604969;0.1131373;3.239422;0.1190681;0.1182134;3.702011;-0.007201299;0.1724363;4.385462;0.2543648;-0.06027345;4.723239;0.3349895;-0.4126513;4.597193;0.3440024;-0.9916939;4.882111;-0.3207236;-0.3073165;5.327621;0.1598446;0.4584409;4.68209;0.3349895;0.7343145;4.506202;0.3440028;1.106966;3.756844;0.8213593;1.157613;2.818341;0.7012151;-0.2049035;2.67005;0.2649001;0.01110628;1.321046;-0.2589211;0;0;0;-0.2049035;2.67005;0.2649001;0.01110628;1.321046;-0.2589211;0;0;0
324872.512;NotLabelled;16384;0.7339597;0.4072022;0.4224377;0.3421052;29;8;5;2646;-1172;1172;65536;0.6354776;0.5540166;-0.4750692;-0.2520775;14;-3;-6;4586;-1805;-1918;8192;0.6067415;-0.5775623;-0.5457063;-0.02216066;-24;0;83;2706;2388;1446;32768;0.7194448;-0.6689751;-0.1204986;-0.1426593;-60;-16;-20;-255;4452;60;256;0.1246537;-0.2368421;-0.5872576;-0.7638689;82;-9;-17;80;7186;-3694;128;-0.1163435;0.1731302;0.7015191;0.6814404;71;-29;10;-498;4092;1494;4;-0.4764543;0.3088643;-0.4722992;-0.6741867;10;7;-27;1348;3754;-734;16;0.6385041;-0.7640134;0.02216066;0.0900277;-1;-10;-15;-281;4237;560;2;0.605428;-0.602493;-0.3033241;-0.4224377;-57;42;-42;-14;4056;102;8;0.3933518;-0.8220872;0.2590028;0.3199446;-51;61;26;523;3605;2191;0.09862554;2.716786;0.2440754;0.1044098;3.243911;0.1036188;0.1094884;3.706732;-0.02179693;0.1727027;4.40697;0.1882829;-0.05586685;4.752331;0.2451152;-0.4094949;4.631203;0.2654714;-0.9940252;4.916424;-0.3943034;-0.2986811;5.360492;0.07163385;0.46237;4.705549;0.2451153;0.7364151;4.527761;0.2654718;1.132539;3.810969;0.772986;1.164547;2.868083;0.6850855;-0.2136339;2.67427;0.2483938;-0.0006449968;1.320198;-0.2634475;0;0;0;-0.2136339;2.67427;0.2483938;-0.0006449968;1.320198;-0.2634475;0;0;0
324892.5473;NotLabelled;16384;0.7371883;0.4030471;0.4196676;0.3434903;26;3;2;3192;-1380;1610;65536;0.6330519;0.5567867;-0.4750692;-0.2520775;10;9;4;3694;-1079;-502;8192;0.6008016;-0.5761772;-0.5540166;-0.01108033;-21;-9;83;2856;2204;1618;32768;0.7119033;-0.6772853;-0.1204986;-0.1412742;-63;-7;-15;-207;4024;396;256;0.1149584;-0.2299169;-0.5637119;-0.7849533;33;-13;-14;316;2894;1058;128;-0.1024931;0.1592798;0.7056022;0.6828254;39;69;0;-64;4440;-1164;4;-0.4750692;0.3130194;-0.4722992;-0.673247;11;9;-28;1446;3708;-778;16;0.6385041;-0.7636818;0.02216066;0.09279778;-2;-19;-15;-535;4111;540;2;0.6090011;-0.5927978;-0.3074792;-0.4279778;-54;47;-42;38;4244;-254;8;0.3891967;-0.8291692;0.2493075;0.3144044;-44;70;25;677;3413;2653;0.07265948;2.723733;0.2072124;0.07843033;3.249636;0.06224915;0.083497;3.711367;-0.06712338;0.1452986;4.413043;0.1385321;-0.08399297;4.758254;0.19333;-0.4373444;4.636485;0.2146442;-1.005508;4.922085;-0.4591158;-0.317361;5.362334;0.02091637;0.4343447;4.712604;0.1933299;0.7087885;4.535543;0.2146444;1.103379;3.83643;0.7473872;1.12582;2.891787;0.6771567;-0.2395995;2.681256;0.2119237;-0.01083323;1.31882;-0.2700448;0;0;0;-0.2395995;2.681256;0.2119237;-0.01083323;1.31882;-0.2700448;0;0;0
324914.5608;NotLabelled;16384;0.739585;0.398892;0.4182825;0.3448753;32;12;5;3308;-894;1212;65536;0.6331079;0.5567867;-0.4764543;-0.2493075;20;-32;10;3640;-1597;-770;8192;0.594475;-0.5747922;-0.5623268;-0.001385042;-23;-5;82;3134;2272;1734;32768;0.7041802;-0.6855956;-0.1204986;-0.1398892;-67;-5;-11;-53;4084;706;256;0.1177285;-0.2285319;-0.567867;-0.7819464;-74;25;-3;-2;2980;660;128;-0.101108;0.1565097;0.7090885;0.6800554;0;12;0;-86;4032;-456;4;-0.4736842;0.3185596;-0.4722992;-0.6716223;11;16;-29;1406;3628;-762;16;0.6385041;-0.7633791;0.02077562;0.09556787;-2;-8;-13;-707;4071;530;2;0.6153935;-0.5734072;-0.3157895;-0.4390582;-56;56;-48;-454;4106;-244;8;0.3822715;-0.8416427;0.2313019;0.3033241;-40;51;28;507;3563;2379;0.06725787;2.726528;0.1992212;0.07301996;3.251633;0.05139422;0.07807883;3.712652;-0.08049262;0.1324357;4.400837;0.1683238;-0.1002786;4.739969;0.2430359;-0.4525971;4.613992;0.2548922;-1.027498;4.897027;-0.4142191;-0.3330661;5.338054;0.05594784;0.41845;4.698999;0.2430362;0.6944001;4.523401;0.2548929;1.106956;3.843986;0.7993827;1.115581;2.89801;0.7460765;-0.2450008;2.684077;0.2041826;-0.02204645;1.318415;-0.2713354;0;0;0;-0.2450008;2.684077;0.2041826;-0.02204645;1.318415;-0.2713354;0;0;0
324935.5202;NotLabelled;16384;0.7464873;0.3878116;0.4141274;0.3476454;39;4;0;3066;-934;1884;65536;0.6312554;0.5595568;-0.4819945;-0.2368421;22;-24;20;3426;-2001;-850;8192;0.5891655;-0.5720221;-0.5706371;0.006925208;-25;0;81;3154;2302;1646;32768;0.6939058;-0.6962311;-0.1191136;-0.1398892;-74;-5;-6;-29;4224;720;256;0.1177285;-0.2243767;-0.5789474;-0.7749935;-70;24;-3;-212;3768;-1086;128;-0.09972299;0.1537396;0.7072262;0.6828254;-18;27;-1;188;3730;-254;4;-0.4736842;0.3240997;-0.4709141;-0.6699422;11;24;-25;1380;3608;-772;16;0.6385041;-0.7632748;0.01800554;0.09695291;-3;16;-11;-789;4059;578;2;0.6190237;-0.5609418;-0.3213296;-0.4459834;-57;59;-52;-576;4058;-118;8;0.3795014;-0.846734;0.2243767;0.2977839;-34;50;24;981;3439;2747;0.05469961;2.729933;0.1814732;0.06044632;3.253636;0.02875052;0.06549145;3.713404;-0.1074344;0.1177799;4.404564;0.1334499;-0.1159935;4.743756;0.2044905;-0.4678818;4.616758;0.2181041;-1.036909;4.895696;-0.4577147;-0.3449925;5.33862;0.01437184;0.402868;4.704506;0.2044907;0.6794093;4.529968;0.2181046;1.096179;3.869502;0.7823405;1.092356;2.922666;0.7466397;-0.2575586;2.68753;0.1868626;-0.0295662;1.317703;-0.2740626;0;0;0;-0.2575586;2.68753;0.1868626;-0.0295662;1.317703;-0.2740626;0;0;0
324956.7266;NotLabelled;16384;0.7494598;0.3822715;0.4127424;0.3490305;39;5;-2;3356;-938;2040;65536;0.63208;0.5609418;-0.4819945;-0.2313019;16;-21;24;3218;-1923;-1064;8192;0.5747922;-0.566482;-0.589992;0.02493075;-11;2;79;3012;1932;1256;32768;0.6759003;-0.7131754;-0.1191136;-0.1426593;-73;20;-4;-343;3992;336;256;0.1177285;-0.2216066;-0.5831025;-0.772672;-18;33;-9;-174;4058;-1714;128;-0.09695291;0.1495845;0.7071638;0.6842105;-4;26;0;100;3648;-358;4;-0.4736842;0.3296399;-0.4695291;-0.668209;11;28;-19;1216;3598;-790;16;0.6385041;-0.7635362;0.01385042;0.09556787;-5;23;-9;-551;4149;426;2;0.6224834;-0.5498615;-0.3240997;-0.4529086;-50;61;-54;-578;4004;-20;8;0.3753462;-0.8519503;0.2188366;0.2922437;-36;44;21;1455;3003;2935;0.04262081;2.731781;0.1695253;0.04837728;3.25637;0.01987406;0.05343111;3.716928;-0.1136144;0.1075101;4.414179;0.1085999;-0.1254815;4.755597;0.1710199;-0.4775773;4.629685;0.1887355;-1.03622;4.89892;-0.4995671;-0.3543684;5.351972;-0.02247229;0.3933047;4.715363;0.1710198;0.6695471;4.54072;0.1887357;1.096196;3.898389;0.7663665;1.072762;2.951286;0.7511019;-0.2696377;2.689348;0.1746461;-0.03872837;1.316878;-0.2768714;0;0;0;-0.2696377;2.689348;0.1746461;-0.03872837;1.316878;-0.2768714;0;0;0
324977.7762;NotLabelled;16384;0.7517281;0.3767313;0.4113573;0.3518005;37;14;-5;3524;-740;2098;65536;0.6340798;0.5609418;-0.4819945;-0.2257618;13;-24;24;3006;-2011;-1184;8192;0.566482;-0.566482;-0.5975712;0.033241;-4;-2;80;3120;2016;1310;32768;0.66759;-0.7201763;-0.1204986;-0.1454294;-67;32;-5;-283;4032;206;256;0.1163435;-0.2174515;-0.5858725;-0.7719666;-28;24;-9;-46;3892;-1138;128;-0.09279778;0.1454294;0.7085866;0.6842105;3;42;0;68;3932;-664;4;-0.4750692;0.3393352;-0.466759;-0.6643018;8;24;-12;976;3812;-886;16;0.6385041;-0.7638024;0.006925208;0.09418282;-7;20;-6;-717;4221;478;2;0.6249132;-0.5387812;-0.3282548;-0.4598338;-41;60;-54;-660;3886;42;8;0.3698061;-0.8568316;0.2146814;0.2880886;-41;34;18;1807;2787;2863;0.03354625;2.733683;0.1569082;0.03930477;3.258462;0.007925529;0.04436043;3.71919;-0.124976;0.09803637;4.418701;0.09011722;-0.1351884;4.760544;0.1492565;-0.4871664;4.634531;0.168524;-1.042468;4.898037;-0.524681;-0.3636068;5.358682;-0.05060343;0.3836306;4.720737;0.1492566;0.6600308;4.546508;0.1685247;1.096672;3.946883;0.7833978;1.040604;3.001209;0.8020054;-0.2787122;2.691243;0.1619707;-0.04359554;1.316191;-0.2794032;0;0;0;-0.2787122;2.691243;0.1619707;-0.04359554;1.316191;-0.2794032;0;0;0
324999.0596;NotLabelled;16384;0.7545121;0.3698061;0.4113573;0.3531856;36;20;-7;3466;-598;1968;65536;0.6354519;0.5609418;-0.4833795;-0.2188366;13;-32;20;2776;-2143;-1334;8192;0.5581717;-0.566482;-0.6049207;0.0401662;-1;1;77;3142;2040;1422;32768;0.6592798;-0.7265319;-0.1246537;-0.1481994;-61;36;-8;-211;3938;296;256;0.1204986;-0.2119114;-0.5969529;-0.7643434;-32;17;-9;-66;4028;-848;128;-0.08725762;0.134349;0.7141256;0.6814404;10;29;4;120;4152;-550;4;-0.4750692;0.3434903;-0.4653739;-0.663137;11;19;-11;918;3754;-996;16;0.6385041;-0.763992;0.004155125;0.09279778;-7;21;-4;-725;4181;684;2;0.6262961;-0.5290859;-0.3296399;-0.468144;-34;53;-53;-852;3834;136;8;0.3642659;-0.8608119;0.2119114;0.2853186;-34;1;15;1265;2957;2517;0.01768001;2.736382;0.1362154;0.02343449;3.260793;-0.01405802;0.02848652;3.721192;-0.1480926;0.08132306;4.422079;0.06268974;-0.1523329;4.763965;0.1198449;-0.5041326;4.6376;0.1400489;-1.059113;4.893777;-0.556155;-0.3796644;5.361608;-0.09002078;0.3665391;4.724853;0.1198452;0.6431817;4.551115;0.1400496;1.083875;3.970519;0.7701076;1.013567;3.026214;0.8037708;-0.2945785;2.693954;0.1413906;-0.05376759;1.314842;-0.283951;0;0;0;-0.2945785;2.693954;0.1413906;-0.05376759;1.314842;-0.283951;0;0;0
325019.5502;NotLabelled;16384;0.7579709;0.3628809;0.4099723;0.3545706;37;11;-6;3234;-654;2038;65536;0.6379601;0.5595568;-0.4847645;-0.2119114;13;-28;18;2720;-2293;-1628;8192;0.5512465;-0.5650969;-0.6121304;0.04570637;1;10;71;3028;1908;1540;32768;0.6523545;-0.7311839;-0.1288089;-0.1523546;-54;27;-10;85;3734;360;256;0.1191136;-0.2077562;-0.599723;-0.7635323;-4;36;-14;2;4198;-594;128;-0.08448754;0.1301939;0.7152275;0.6814404;3;28;4;108;4252;68;4;-0.4750692;0.3476454;-0.4626039;-0.6629099;12;11;-11;842;3768;-944;16;0.6385041;-0.764169;0.001385042;0.09141274;-7;16;-3;-503;4069;648;2;0.6305865;-0.5138504;-0.3296399;-0.4792244;-19;17;-44;-1056;4110;278;8;0.3601108;-0.8624395;0.2160665;0.2825485;14;12;11;387;2815;1857;0.01131567;2.737412;0.1274037;0.01704684;3.259699;-0.03009164;0.0220781;3.718205;-0.1704665;0.07084157;4.425313;0.01949093;-0.164888;4.767241;0.06708319;-0.5158273;4.639291;0.09177536;-1.068672;4.88667;-0.6092919;-0.3919778;5.361711;-0.1464545;0.3542232;4.731445;0.06708294;0.6320159;4.56014;0.0917753;1.073203;3.997179;0.7373006;0.9919838;3.054477;0.787349;-0.3009419;2.69506;0.1332111;-0.05661266;1.31445;-0.2852094;0;0;0;-0.3009419;2.69506;0.1332111;-0.05661266;1.31445;-0.2852094;0;0;0
325040.6714;NotLabelled;16384;0.7620649;0.3518005;0.4072022;0.3601108;37;5;-5;3592;-536;2098;65536;0.6404855;0.5595568;-0.4861496;-0.200831;16;-21;16;2972;-2377;-1322;8192;0.5429363;-0.5637119;-0.6204538;0.04986149;6;6;63;2648;1750;1408;32768;0.6468144;-0.7358013;-0.1288089;-0.1537396;-47;5;-8;443;3614;454;256;0.1177285;-0.2022161;-0.601108;-0.7641451;-4;40;-16;-30;4044;-548;128;-0.08310249;0.1274238;0.7145674;0.6828254;8;30;6;24;4198;466;4;-0.4736842;0.3504155;-0.4626039;-0.6624424;11;6;-10;926;3822;-752;16;0.6371191;-0.7653254;0;0.09141274;-7;2;-3;-415;4107;550;2;0.6336803;-0.5083103;-0.3282548;-0.4819945;-14;2;-40;-1034;4274;324;8;0.365651;-0.8624907;0.2119114;0.2783934;36;57;4;-235;2623;2039;0.001113601;2.7371;0.1222498;0.006840982;3.259039;-0.03639466;0.01186887;3.717235;-0.1777783;0.05964822;4.425579;0.007771898;-0.1765755;4.767441;0.05334473;-0.5273117;4.639121;0.07897943;-1.078291;4.878993;-0.6261537;-0.4008875;5.360811;-0.1714308;0.342589;4.732425;0.05334459;0.6206495;4.561694;0.07897955;1.065859;4.014861;0.7355143;0.9750711;3.073763;0.7978017;-0.3111438;2.694761;0.1281579;-0.06052572;1.314057;-0.2862148;0;0;0;-0.3111438;2.694761;0.1281579;-0.06052572;1.314057;-0.2862148;0;0;0
325061.5153;NotLabelled;16384;0.7645705;0.3448753;0.4072022;0.3614958;39;13;-4;3604;-446;2100;65536;0.6411456;0.5595568;-0.4875346;-0.1952908;12;-29;16;3124;-2465;-1058;8192;0.5290859;-0.566482;-0.6291123;0.05817174;15;-16;52;2746;2070;1542;32768;0.6398892;-0.7463999;-0.1177285;-0.1398892;-38;-85;-28;-891;3712;230;256;0.1149584;-0.1966759;-0.6038781;-0.7638288;-12;37;-15;-154;3924;-624;128;-0.08171745;0.1218837;0.7170116;0.6814404;17;32;8;88;4096;18;4;-0.4722992;0.3545706;-0.4612188;-0.662186;7;4;-11;980;3940;-708;16;0.6371191;-0.7653254;0;0.09141274;-7;5;-2;-673;4185;732;2;0.6363102;-0.5041551;-0.3254848;-0.4847645;-12;-1;-35;-798;4088;248;8;0.3753462;-0.8628609;0.2022161;0.2714681;48;96;-5;-677;2839;2177;-0.001188148;2.737704;0.1121852;0.004543319;3.260018;-0.04522379;0.009574875;3.718547;-0.1855228;0.05446653;4.427604;-0.001986481;-0.1831565;4.768617;0.0426645;-0.5333561;4.638925;0.06872934;-1.079643;4.863538;-0.6450275;-0.4053904;5.357686;-0.1989335;0.3361479;4.735742;0.0426638;0.6149145;4.566232;0.06872818;1.062766;4.035603;0.7366629;0.9627473;3.096184;0.8093048;-0.3134457;2.695352;0.117985;-0.06387056;1.31285;-0.2909873;0;0;0;-0.3134457;2.695352;0.117985;-0.06387056;1.31285;-0.2909873;0;0;0
325081.8243;NotLabelled;16384;0.7671255;0.3393352;0.4058172;0.3628809;40;18;-2;3482;-294;2102;65536;0.6421621;0.5595568;-0.4889196;-0.1883656;9;-40;18;2992;-2573;-1126;8192;0.5221606;-0.567867;-0.633373;0.06094183;17;-12;48;3046;1836;1674;32768;0.6357341;-0.75214;-0.1163435;-0.1288089;-40;-43;-36;-1619;3356;46;256;0.1135734;-0.1925208;-0.6066482;-0.7628989;-18;31;-10;-234;3604;-580;128;-0.08033241;0.1163435;0.7193995;0.6800554;18;34;9;98;4010;-580;4;-0.4695291;0.3573407;-0.4626039;-0.6617007;1;-4;-11;1144;3804;-640;16;0.6357341;-0.7666289;-0.004155125;0.0900277;-8;7;-4;-93;4177;750;2;0.6391993;-0.501385;-0.3240997;-0.4847645;-11;3;-30;-590;4000;288;8;0.3878116;-0.8622081;0.1883656;0.265928;59;116;-10;-497;3039;2487;-0.007939789;2.738957;0.1064174;-0.002219759;3.260229;-0.05440851;0.002801575;3.717829;-0.1977071;0.04685748;4.427956;-0.01814529;-0.1911823;4.768911;0.02468611;-0.5412081;4.638923;0.05159742;-1.090811;4.854311;-0.6624571;-0.4153036;5.353748;-0.2242242;0.3281634;4.736694;0.02468579;0.6071537;4.567685;0.05159736;1.052928;4.060236;0.7386608;0.9442517;3.12394;0.8352522;-0.320197;2.696643;0.1125169;-0.06755226;1.31285;-0.2901542;0;0;0;-0.320197;2.696643;0.1125169;-0.06755226;1.31285;-0.2901542;0;0;0
325103.5236;NotLabelled;16384;0.7694975;0.33241;0.4058172;0.3642659;37;16;-1;3486;-350;2248;65536;0.6446903;0.5581717;-0.4903047;-0.1800554;6;-41;17;2852;-2707;-1158;8192;0.5152354;-0.5692521;-0.6376519;0.06232687;19;2;42;3150;1638;1624;32768;0.6301939;-0.7568387;-0.1218837;-0.1232687;-46;19;-46;-2375;3272;78;256;0.1135734;-0.1883656;-0.6108033;-0.7606174;-23;18;-10;-126;3682;-886;128;-0.07894737;0.1121884;0.7215176;0.6786703;6;26;7;184;3884;-690;4;-0.4695291;0.3587258;-0.4626039;-0.6609508;0;-2;-9;1288;3786;-526;16;0.634349;-0.7677817;-0.002770083;0.0900277;-9;-7;-5;-203;4213;530;2;0.6392593;-0.4986149;-0.3240997;-0.4875346;-9;11;-23;-592;3992;258;8;0.4030471;-0.8605211;0.1731302;0.2590028;69;115;-7;-119;3065;2679;-0.01065604;2.740246;0.09055499;-0.004947452;3.260475;-0.07361166;6.370991E-05;3.717147;-0.219843;0.04303077;4.428458;-0.04476383;-0.1955479;4.769289;-0.003983155;-0.5453512;4.638903;0.02388063;-1.094361;4.847932;-0.6925164;-0.4204398;5.354351;-0.259889;0.3238495;4.737917;-0.003982842;0.603125;4.569535;0.0238817;1.047981;4.072134;0.718842;0.9438957;3.137612;0.8355645;-0.3229128;2.697972;0.0969477;-0.07184657;1.31122;-0.2964251;0;0;0;-0.3229128;2.697972;0.0969477;-0.07184657;1.31122;-0.2964251;0;0;0
325124.5947;NotLabelled;16384;0.7731783;0.3254848;0.4044321;0.3642659;35;14;1;3448;-464;2382;65536;0.6464911;0.5554016;-0.4930748;-0.1745152;0;-41;16;2840;-2719;-1586;8192;0.5083103;-0.5692521;-0.6430502;0.06371191;19;12;36;2986;1614;1570;32768;0.6218836;-0.7617854;-0.1357341;-0.1204986;-49;97;-56;-2121;3036;546;256;0.1135734;-0.1814404;-0.6149584;-0.758951;-16;24;-8;-204;4056;-718;128;-0.07617728;0.1052632;0.7228577;0.6786703;2;26;6;-28;3828;-52;4;-0.4695291;0.3601108;-0.4626039;-0.6601972;0;5;-9;1266;3878;-588;16;0.634349;-0.7677754;-0.004155125;0.0900277;-10;4;-3;-769;4171;710;2;0.6403552;-0.4958449;-0.3240997;-0.4889196;-9;15;-19;-792;3862;394;8;0.4155124;-0.8592104;0.1620499;0.2506925;74;84;-3;565;2875;2923;-0.006526759;2.740542;0.08573821;-0.0008283928;3.259832;-0.08137568;0.004173651;3.715668;-0.2301941;0.04513592;4.428895;-0.06258194;-0.194428;4.769424;-0.02521299;-0.5438263;4.638302;0.004232287;-1.092388;4.837902;-0.715191;-0.4200394;5.352536;-0.2898716;0.32506;4.739592;-0.0252133;0.6048502;4.572336;0.004232287;1.046549;4.083364;0.7071425;0.9475282;3.151057;0.8442063;-0.3187831;2.698306;0.09238991;-0.07000735;1.310666;-0.2993031;0;0;0;-0.3187831;2.698306;0.09238991;-0.07000735;1.310666;-0.2993031;0;0;0
325145.8181;NotLabelled;16384;0.7785351;0.3144044;0.4016621;0.365651;31;20;2;3586;-270;2218;65536;0.6523266;0.5498615;-0.4958449;-0.1620499;0;-39;14;2852;-2595;-1786;8192;0.5027701;-0.5692521;-0.647391;0.06371191;17;11;33;2866;1468;1616;32768;0.6135734;-0.763923;-0.1551246;-0.1260388;-45;134;-59;-303;3382;1092;256;0.1121884;-0.1772853;-0.6191136;-0.7567576;-24;23;-4;-210;3862;-464;128;-0.07617728;0.1024931;0.7232557;0.6786703;0;25;4;-2;3938;32;4;-0.4695291;0.3628809;-0.4626039;-0.6586787;1;10;-9;1170;3790;-718;16;0.632964;-0.7690586;-0.006925208;0.08864266;-11;21;-1;-759;4059;870;2;0.6410858;-0.4889196;-0.3268698;-0.4930748;-11;20;-14;-1010;3772;500;8;0.434903;-0.8515731;0.1620499;0.2437673;77;-15;-10;613;3101;3039;-0.008104669;2.741059;0.084819;-0.002411962;3.259845;-0.08385344;0.002585039;3.715232;-0.2340399;0.03893889;4.430438;-0.07397211;-0.2028426;4.769758;-0.04004597;-0.5513539;4.636658;-0.009010166;-1.10037;4.829533;-0.7299188;-0.4244783;5.346909;-0.3136385;0.3168307;4.743347;-0.04004651;0.5977321;4.578256;-0.009010881;1.040506;4.099253;0.7000613;0.9500149;3.170516;0.8645134;-0.3203608;2.698843;0.0916079;-0.0755715;1.310319;-0.2994671;0;0;0;-0.3203608;2.698843;0.0916079;-0.0755715;1.310319;-0.2994671;0;0;0
325166.5972;NotLabelled;16384;0.780811;0.3088643;0.400277;0.367036;30;16;3;3438;-224;2228;65536;0.6552784;0.5470914;-0.4972299;-0.1551246;3;-35;13;2518;-2655;-2154;8192;0.4972299;-0.5692521;-0.6517897;0.06232687;21;0;30;2866;1418;1512;32768;0.6052631;-0.7658203;-0.1717452;-0.132964;-37;95;-54;1003;3910;1126;256;0.1121884;-0.1745152;-0.6232687;-0.7539856;-37;19;4;-388;3742;-376;128;-0.0734072;0.09833795;0.7241185;0.6786703;4;29;3;114;4066;-336;4;-0.4695291;0.3642659;-0.4612188;-0.6588854;4;12;-9;1082;3752;-808;16;0.6315789;-0.7703247;-0.009695291;0.08725762;-12;15;-1;-307;4093;700;2;0.6424653;-0.4847645;-0.3282548;-0.4944598;-13;20;-13;-1052;3756;426;8;0.4432133;-0.8460722;0.166205;0.2451524;74;-30;-17;-271;3281;2965;-0.008087754;2.741479;0.07486121;-0.002397142;3.260072;-0.09440485;0.002598017;3.715287;-0.2451124;0.03828196;4.432075;-0.09212815;-0.2038377;4.771461;-0.06143089;-0.5521943;4.638311;-0.02890879;-1.094272;4.819265;-0.758111;-0.4176155;5.346729;-0.3559742;0.3158628;4.745593;-0.06143096;0.596952;4.581108;-0.02890849;1.038963;4.108721;0.6850597;0.9538842;3.183439;0.8705426;-0.3203438;2.69927;0.08170223;-0.07792353;1.308997;-0.304601;0;0;0;-0.3203438;2.69927;0.08170223;-0.07792353;1.308997;-0.304601;0;0;0
325187.5183;NotLabelled;16384;0.7836863;0.3033241;0.398892;0.367036;28;4;6;3270;-330;2208;65536;0.6567639;0.5443213;-0.5;-0.1495845;11;-29;8;2292;-2759;-2512;8192;0.4847645;-0.5747922;-0.6563023;0.06232687;32;-15;21;2936;1580;1462;32768;0.5955678;-0.7721964;-0.1800554;-0.1288089;-26;-11;-36;267;3690;552;256;0.1121884;-0.1731302;-0.6288089;-0.7496927;-36;17;0;-204;4232;-1258;128;-0.07202215;0.09418282;0.7248096;0.6786703;2;29;1;148;3974;-454;4;-0.4709141;0.368421;-0.4612188;-0.6555784;-1;10;-8;1020;3954;-600;16;0.6288089;-0.7727241;-0.01108033;0.08587258;-11;4;-1;-733;4095;782;2;0.6420605;-0.4819945;-0.3310249;-0.4958449;-15;21;-10;-1192;3774;398;8;0.4515235;-0.8403026;0.1689751;0.2479224;66;-16;-24;-1105;3303;2947;-0.01217769;2.73964;0.06930482;-0.006490204;3.25795;-0.1008259;-0.00149785;3.712913;-0.2522925;0.03328807;4.431324;-0.1069033;-0.2092779;4.770687;-0.07966354;-0.5574361;4.637414;-0.04555416;-1.096532;4.811588;-0.7786083;-0.4199721;5.344787;-0.3839405;0.3104572;4.745525;-0.07966408;0.591787;4.581774;-0.04555458;1.028829;4.114266;0.6746573;0.9438361;3.192616;0.8774554;-0.3244336;2.697443;0.07622197;-0.07910949;1.307657;-0.3100027;0;0;0;-0.3244336;2.697443;0.07622197;-0.07910949;1.307657;-0.3100027;0;0;0
325208.5206;NotLabelled;16384;0.7848555;0.300554;0.3961219;0.3698061;29;-5;11;3432;-294;2266;65536;0.6573362;0.5429363;-0.5027701;-0.1426593;20;-24;0;1832;-2741;-2582;8192;0.4792244;-0.5789474;-0.6569756;0.05955679;36;-9;9;2998;1692;1346;32768;0.5941828;-0.774486;-0.1786704;-0.1232687;-22;-36;-36;-899;3692;478;256;0.1108033;-0.1703601;-0.6274238;-0.751691;27;36;-8;180;3822;-586;128;-0.07063711;0.09141274;0.7253004;0.6786703;1;25;1;96;3990;-8;4;-0.4709141;0.3711911;-0.4612188;-0.6540139;0;12;-10;964;3914;-792;16;0.6288089;-0.7726794;-0.01385042;0.08587258;-10;16;0;-829;4021;984;2;0.6423055;-0.4778393;-0.33241;-0.4986149;-15;20;-8;-1264;3704;384;8;0.4612188;-0.834608;0.1689751;0.2493075;60;13;-28;-1321;3341;2895;-0.006699046;2.740401;0.05167269;-0.001014534;3.258439;-0.119284;0.00397519;3.71316;-0.2714757;0.03969002;4.433511;-0.1362711;-0.202466;4.773507;-0.1136613;-0.5507534;4.641134;-0.07743514;-1.085012;4.809847;-0.8152922;-0.4087998;5.345573;-0.4234613;0.3172397;4.747744;-0.1136614;0.5984046;4.584165;-0.07743502;1.017888;4.125756;0.6588874;0.9335287;3.210307;0.8882875;-0.3189549;2.698215;0.0586625;-0.07582019;1.30569;-0.3189858;0;0;0;-0.3189549;2.698215;0.0586625;-0.07582019;1.30569;-0.3189858;0;0;0
325229.5232;NotLabelled;16384;0.7872082;0.2963989;0.3919668;0.3725762;28;-4;12;3534;-178;2332;65536;0.657164;0.5429363;-0.5041551;-0.1385041;21;-18;-6;2584;-2915;-1748;8192;0.4750692;-0.5831025;-0.6565638;0.0567867;41;-7;2;2732;1408;1268;32768;0.5900277;-0.7785141;-0.1786704;-0.1177285;-25;-8;-40;-1337;3266;722;256;0.1080332;-0.1634349;-0.6288089;-0.7524741;-6;27;-3;-246;3856;-498;128;-0.06648199;0.08587258;0.7276611;0.6772853;4;17;1;340;3816;68;4;-0.4709141;0.3739612;-0.4612188;-0.652434;2;10;-11;896;3898;-778;16;0.6274238;-0.773931;-0.01523546;0.08448754;-9;14;0;-499;4089;1006;2;0.6418439;-0.4750692;-0.33518;-0.5;-16;20;-7;-1354;3768;306;8;0.4695291;-0.8307964;0.1648199;0.2493075;53;40;-28;-933;3347;2931;-0.01158098;2.741384;0.04478691;-0.005898364;3.259246;-0.1267016;-0.0009103492;3.71381;-0.2793601;0.03310838;4.433676;-0.141162;-0.209841;4.773011;-0.1171823;-0.5578255;4.63968;-0.08156422;-1.095024;4.805631;-0.8179114;-0.4206194;5.346034;-0.4294021;0.3099233;4.748456;-0.1172022;0.591462;4.585382;-0.08160734;1.00735;4.125124;0.6556001;0.9272017;3.211339;0.8930022;-0.3238368;2.699205;0.05182359;-0.08206675;1.304974;-0.3203676;0;0;0;-0.3238368;2.699205;0.05182359;-0.08206675;1.304974;-0.3203676;0;0;0
325249.5185;NotLabelled;16384;0.788962;0.2936288;0.3891967;0.3739612;27;1;14;3482;-266;2296;65536;0.6558944;0.5429363;-0.5069252;-0.134349;19;-23;-7;2842;-2631;-1554;8192;0.4695291;-0.5872576;-0.6573011;0.05124654;48;-10;-4;2532;1300;1140;32768;0.5844875;-0.7812765;-0.1855956;-0.1163435;-39;47;-43;-1247;2722;1390;256;0.1066482;-0.1606648;-0.6301939;-0.7521095;-7;29;4;-600;3986;-606;128;-0.06509695;0.08310249;0.726817;0.6786703;0;32;-2;314;3978;-594;4;-0.4709141;0.3767313;-0.4612188;-0.6508384;0;4;-11;864;3982;-608;16;0.6260388;-0.775173;-0.0166205;0.08310249;-8;1;0;-311;4229;828;2;0.6433142;-0.468144;-0.3379501;-0.5027701;-16;13;-3;-1438;3936;440;8;0.4861496;-0.8240031;0.1523546;0.2479224;39;27;-32;-477;3557;3003;-0.009460123;2.741996;0.03753905;-0.003788408;3.258867;-0.136915;0.001189888;3.712549;-0.2921764;0.03218532;4.432875;-0.1556745;-0.212197;4.771231;-0.1324279;-0.5596035;4.636507;-0.0964078;-1.104607;4.802019;-0.8270968;-0.4280768;5.34584;-0.447146;0.3076668;4.748883;-0.1325237;0.5899042;4.58709;-0.09661931;1.012076;4.120682;0.6331135;0.9362844;3.210368;0.8848501;-0.3217154;2.699859;0.04483697;-0.0844537;1.303943;-0.3239242;0;0;0;-0.3217154;2.699859;0.04483697;-0.0844537;1.303943;-0.3239242;0;0;0
325270.5447;NotLabelled;16384;0.7928804;0.2867036;0.3850415;0.3753462;24;5;7;3358;-216;2368;65536;0.6540492;0.5429363;-0.5110803;-0.1274238;10;-25;-1;2762;-2417;-1678;8192;0.4653739;-0.5927978;-0.6555916;0.04709141;47;-30;-2;2888;1500;1182;32768;0.5761772;-0.7843152;-0.1966759;-0.1191136;-46;80;-34;151;2944;1590;256;0.1052632;-0.1592798;-0.6315789;-0.7514371;0;8;0;-228;3622;-714;128;-0.06371191;0.07894737;0.7286925;0.6772853;15;20;0;400;3952;-546;4;-0.4695291;0.3781163;-0.4612188;-0.6510358;-5;2;-11;844;3940;-646;16;0.6246537;-0.7762896;-0.0166205;0.08310249;-7;0;-1;-583;4125;888;2;0.6438627;-0.4653739;-0.3407202;-0.5027701;-19;6;-1;-1538;3850;512;8;0.4930748;-0.8195456;0.1495845;0.2506925;31;8;-36;-603;3533;2925;-0.00786245;2.742635;0.02785712;-0.002185255;3.259998;-0.1451318;0.002797946;3.714118;-0.2991073;0.03315319;4.43487;-0.1647294;-0.2115272;4.773079;-0.1424949;-0.5588174;4.638157;-0.1060974;-1.091251;4.797259;-0.8474003;-0.4163328;5.343039;-0.4673903;0.308356;4.751187;-0.1424954;0.590733;4.589748;-0.1060978;0.9911336;4.123127;0.6356701;0.9186863;3.21687;0.902573;-0.3201179;2.700477;0.03502592;-0.08410551;1.302898;-0.3281934;0;0;0;-0.3201179;2.700477;0.03502592;-0.08410551;1.302898;-0.3281934;0;0;0
325290.5932;NotLabelled;16384;0.7952141;0.2839335;0.3822715;0.3753462;20;0;11;3568;-196;2514;65536;0.6538233;0.5415512;-0.5138504;-0.1232687;12;-22;-1;2426;-2695;-2140;8192;0.4542936;-0.6052631;-0.6525105;0.03878116;55;-12;-14;3470;1684;1494;32768;0.566482;-0.7855005;-0.2132964;-0.1288089;-24;10;-16;-489;3898;894;256;0.1038781;-0.1578947;-0.6315789;-0.751922;1;28;3;-96;3876;-404;128;-0.06232687;0.07756232;0.7302454;0.6759003;11;10;-1;262;4120;-354;4;-0.4695291;0.3795014;-0.4626039;-0.6492448;-6;0;-11;844;3858;-600;16;0.6246537;-0.7762896;-0.0166205;0.08310249;-8;1;-1;-557;4061;846;2;0.6452065;-0.4639889;-0.3421052;-0.501385;-19;0;0;-1592;3874;500;8;0.4972299;-0.8162479;0.1468144;0.2548476;25;0;-43;-695;3553;2875;-0.009400161;2.742228;0.01991623;-0.00373286;3.2587;-0.1557138;0.001241557;3.712028;-0.3120074;0.03227764;4.433145;-0.1797603;-0.2120884;4.771643;-0.1584935;-0.5594981;4.637149;-0.1216551;-1.083038;4.790098;-0.8705491;-0.4130569;5.339627;-0.4872218;0.3077745;4.749272;-0.1584936;0.5900073;4.587681;-0.1216547;0.9800256;4.115424;0.6220746;0.9063746;3.214678;0.9067173;-0.3216553;2.700107;0.02731794;-0.08386459;1.301885;-0.3322499;0;0;0;-0.3216553;2.700107;0.02731794;-0.08386459;1.301885;-0.3322499;0;0;0
325310.6842;NotLabelled;16384;0.7968685;0.2811634;0.3795014;0.3767313;14;-2;14;3716;-266;2594;65536;0.652409;0.5415512;-0.5166205;-0.1191136;11;-19;-5;2634;-3065;-1954;8192;0.4487534;-0.6094183;-0.6529174;0.03047091;55;-8;-21;3054;1672;1084;32768;0.5623268;-0.7882529;-0.2132964;-0.1301939;-28;16;-2;-721;3024;674;256;0.1024931;-0.1565097;-0.632964;-0.7512367;-15;21;6;-418;4006;-836;128;-0.06232687;0.07479224;0.7330875;0.6731302;31;19;1;58;3942;-102;4;-0.4695291;0.3808864;-0.4653739;-0.6464481;-9;-6;-7;836;3814;-566;16;0.6218836;-0.7785105;-0.0166205;0.08310249;-9;-7;0;-511;4179;762;2;0.6482601;-0.4612188;-0.3421052;-0.5;-19;-7;0;-1690;3786;654;8;0.5;-0.8130489;0.1454294;0.2603878;19;-11;-49;-927;3517;2673;-0.005609792;2.744313;0.01512755;4.942343E-05;3.260044;-0.162668;0.005016617;3.712712;-0.3208624;0.03621637;4.433744;-0.1881885;-0.2080718;4.772285;-0.1667278;-0.5555137;4.637851;-0.1299776;-1.075341;4.789882;-0.8816386;-0.4060696;5.34084;-0.499124;0.3117858;4.749795;-0.1667281;0.5939803;4.588117;-0.1299778;0.9555699;4.106986;0.6223787;0.8765406;3.211709;0.922416;-0.3178645;2.702224;0.02272022;-0.0851797;1.301885;-0.331915;0;0;0;-0.3178645;2.702224;0.02272022;-0.0851797;1.301885;-0.331915;0;0;0
325332.6654;NotLabelled;16384;0.7981818;0.2811634;0.3767313;0.3767313;10;3;18;3778;-244;2572;65536;0.6527103;0.5401662;-0.5180055;-0.1177285;6;-16;-5;3002;-3133;-1602;8192;0.4459834;-0.6149584;-0.6499491;0.02216066;60;-15;-25;2898;1954;932;32768;0.5595568;-0.7881544;-0.2174515;-0.1357341;-20;44;4;-159;3482;790;256;0.101108;-0.1551246;-0.634349;-0.7505431;5;23;5;-198;4006;-832;128;-0.06232687;0.0734072;0.7357609;0.6703601;22;1;0;168;4068;56;4;-0.468144;0.3808864;-0.468144;-0.6454517;-10;-9;-7;770;3842;-736;16;0.6218836;-0.7783897;-0.01523546;0.08448754;-10;-7;0;-803;4049;822;2;0.6506379;-0.4598338;-0.3434903;-0.4972299;-20;-11;3;-1646;3794;680;8;0.5027701;-0.809361;0.1412742;0.2686981;17;-15;-54;-917;3529;2535;0.005400623;2.745535;-0.001064511;0.01104337;3.259765;-0.1831552;0.01599588;3.711098;-0.3451195;0.04786782;4.432492;-0.2145933;-0.19611;4.771318;-0.1941074;-0.543669;4.637308;-0.1569131;-1.060297;4.787072;-0.9112306;-0.3935264;5.339999;-0.5271925;0.323727;4.748355;-0.194108;0.6057794;4.586531;-0.1569135;0.9515942;4.097874;0.5980054;0.8666625;3.205291;0.9043856;-0.3068534;2.703511;0.006907433;-0.08346941;1.299814;-0.34036;0;0;0;-0.3068534;2.703511;0.006907433;-0.08346941;1.299814;-0.34036;0;0;0
325353.6744;NotLabelled;16384;0.7993202;0.2797784;0.3753462;0.3767313;7;9;18;3638;-184;2492;65536;0.6521031;0.5401662;-0.5193906;-0.1149584;0;-9;-7;2800;-2911;-1898;8192;0.4404432;-0.6218836;-0.6473629;0.01385042;66;-17;-23;3010;1954;1194;32768;0.5567867;-0.7882322;-0.2216066;-0.1398892;-19;33;2;-349;3766;1134;256;0.09695291;-0.1537396;-0.632964;-0.752543;7;22;8;-106;3966;-632;128;-0.05955679;0.07063711;0.7400232;0.666205;24;12;-2;96;3978;-452;4;-0.466759;0.3795014;-0.4695291;-0.646264;-8;-13;-8;824;3810;-856;16;0.6204986;-0.7794942;-0.01523546;0.08448754;-11;-6;1;-793;4071;826;2;0.6563519;-0.4570637;-0.3462604;-0.4903047;-24;-18;12;-1390;3860;670;8;0.5069252;-0.8015215;0.1385041;0.2853186;14;-26;-56;-843;3611;2573;0.01023685;2.747852;-0.005766118;0.01586368;3.260632;-0.1919051;0.02080206;3.710674;-0.3574224;0.05333949;4.432425;-0.229055;-0.1903311;4.77153;-0.2095489;-0.5380052;4.637944;-0.1719087;-1.053309;4.790327;-0.9266077;-0.3846903;5.342896;-0.5452767;0.329485;4.748099;-0.2095493;0.611397;4.586134;-0.171909;0.943698;4.08543;0.5811824;0.8542538;3.193781;0.8889952;-0.3020165;2.705892;0.002563864;-0.08558638;1.299864;-0.3396381;0;0;0;-0.3020165;2.705892;0.002563864;-0.08558638;1.299864;-0.3396381;0;0;0
325373.5164;NotLabelled;16384;0.8025476;0.2797784;0.3698061;0.3753462;1;-3;19;3462;-160;2450;65536;0.6521443;0.5387812;-0.5207756;-0.1149584;7;1;-6;2828;-2865;-2290;8192;0.4362881;-0.6274238;-0.6449507;0.005540166;63;-23;-25;3000;1956;1416;32768;0.5526316;-0.7897616;-0.2229917;-0.1454294;-27;30;8;299;3550;1454;256;0.09279778;-0.1523546;-0.632964;-0.7533481;10;27;11;-298;3836;-474;128;-0.06094183;0.07063711;0.7423952;0.6634349;27;0;-1;138;4154;-440;4;-0.4639889;0.3795014;-0.4709141;-0.6472503;-6;-15;-8;918;3674;-848;16;0.6191136;-0.7806205;-0.01385042;0.08448754;-12;-12;3;-525;4131;670;2;0.6587063;-0.4570637;-0.3476454;-0.4861496;-25;-23;17;-1396;3874;738;8;0.5083103;-0.7978729;0.1371191;0.2936288;10;-28;-58;-1041;3701;2361;0.01357575;2.746989;-0.008395093;0.01917774;3.257504;-0.2006567;0.02409405;3.705534;-0.3715475;0.05930659;4.426475;-0.2393862;-0.1831133;4.766365;-0.2180416;-0.5312682;4.63386;-0.1810313;-1.055058;4.794746;-0.9280851;-0.386022;5.349113;-0.5501079;0.3366132;4.741027;-0.2182766;0.6179358;4.577831;-0.1815504;0.9408047;4.058424;0.5629274;0.8496953;3.168017;0.8738316;-0.2986764;2.705132;0.0004772842;-0.08680664;1.298807;-0.3433547;0;0;0;-0.2986764;2.705132;0.0004772842;-0.08680664;1.298807;-0.3433547;0;0;0
325414.2756;NotLabelled;16384;0.8038183;0.2797784;0.367036;0.3753462;-3;-8;21;3618;-118;2678;65536;0.6509975;0.5401662;-0.5207756;-0.1149584;11;1;-1;2996;-2881;-2498;8192;0.4279778;-0.6423622;-0.6357341;-0.006925208;59;-21;-24;3808;2264;1194;32768;0.5484765;-0.7915291;-0.2174515;-0.1592798;-24;11;38;-129;4172;86;256;0.0900277;-0.1509695;-0.632964;-0.7539628;3;19;11;-236;3906;-778;128;-0.06094183;0.06925207;0.7449915;0.6606648;30;0;-1;314;4050;-394;4;-0.4626039;0.3795014;-0.4722992;-0.6472325;-7;-18;-5;1082;3762;-702;16;0.6177285;-0.7815894;-0.01246537;0.08587258;-13;-16;3;-489;4143;656;2;0.661299;-0.4570637;-0.3504155;-0.4806094;-27;-27;18;-1396;3920;846;8;0.5096953;-0.7935877;0.1357341;0.3033241;9;-25;-59;-967;3725;2287;0.01566224;2.74711;-0.01484646;0.0212484;3.256187;-0.210885;0.02615063;3.702938;-0.3850903;0.06443247;4.423501;-0.2517248;-0.176516;4.764408;-0.22995;-0.5252647;4.633361;-0.1933429;-1.039588;4.79174;-0.9474765;-0.3665056;5.344133;-0.5738215;0.3430954;4.736805;-0.2299505;0.6236846;4.572326;-0.1933431;0.9274598;4.051869;0.5584017;0.8281206;3.163359;0.8721985;-0.2965893;2.705319;-0.005638853;-0.0856434;1.298093;-0.3463343;0;0;0;-0.2965893;2.705319;-0.005638853;-0.0856434;1.298093;-0.3463343;0;0;0
325434.5538;NotLabelled;16384;0.8047544;0.2825485;0.3642659;0.3739612;-11;-2;26;3744;-334;2658;65536;0.6487334;0.5415512;-0.5221606;-0.1149584;6;4;-3;2778;-3083;-1930;8192;0.4252077;-0.6454205;-0.634349;-0.01523546;56;0;-32;3540;2348;1410;32768;0.5484765;-0.7898964;-0.2160665;-0.1689751;-21;27;50;251;4070;478;256;0.08864266;-0.1509695;-0.632964;-0.7541268;9;24;10;-296;3956;-880;128;-0.06371191;0.07063711;0.7470781;0.6578947;27;-14;-1;370;4080;-286;4;-0.4598338;0.3767313;-0.4764543;-0.6477791;-10;-14;-4;1112;3822;-680;16;0.6135734;-0.7848763;-0.01108033;0.08587258;-14;2;7;-823;4049;952;2;0.6664958;-0.4556787;-0.3518005;-0.4736842;-28;-28;19;-1272;3886;854;8;0.5096953;-0.7902849;0.132964;0.3130194;8;-21;-60;-1019;3679;2149;0.01755697;2.747066;-0.02110051;0.02312633;3.254605;-0.2210895;0.02801365;3.699989;-0.3987616;0.06795432;4.420321;-0.2646348;-0.1722061;4.761761;-0.2425145;-0.5212592;4.631483;-0.2060647;-1.035537;4.792446;-0.9596814;-0.3620756;5.345378;-0.587508;0.3473399;4.732956;-0.2425149;0.6275457;4.56779;-0.2060654;0.8996801;4.02983;0.5454779;0.7748678;3.14152;0.8506243;-0.2946937;2.705349;-0.01154183;-0.08699626;1.297062;-0.3498421;0;0;0;-0.2946937;2.705349;-0.01154183;-0.08699626;1.297062;-0.3498421;0;0;0
325454.6519;NotLabelled;16384;0.8056681;0.2853186;0.3614958;0.3725762;-17;3;29;3504;-454;2312;65536;0.6487334;0.5415512;-0.5221606;-0.1149584;5;-2;-6;2892;-3003;-2012;8192;0.4238227;-0.6487379;-0.6315789;-0.02493075;52;-2;-41;2666;2316;1182;32768;0.5484765;-0.7885729;-0.2119114;-0.1800554;-24;13;63;705;3808;826;256;0.08448754;-0.1495845;-0.6315789;-0.7560386;10;29;13;-282;3678;-708;128;-0.06509695;0.07063711;0.750598;0.6537396;27;-7;-1;332;4098;-344;4;-0.4584487;0.3753462;-0.4778393;-0.6485442;-7;-12;-6;1118;3860;-794;16;0.6121883;-0.7861072;-0.01108033;0.08448754;-16;5;9;-509;4031;922;2;0.6689378;-0.4556787;-0.3545706;-0.468144;-28;-28;20;-1236;3904;764;8;0.5110803;-0.7865072;0.1301939;0.3213296;9;-15;-60;-953;3809;2029;0.03165033;2.745833;-0.03608821;0.03720422;3.251966;-0.2396092;0.04207781;3.696101;-0.4203807;0.08354366;4.416278;-0.285888;-0.1559054;4.758202;-0.2635177;-0.5052158;4.628624;-0.2270336;-1.020141;4.802306;-0.9773777;-0.3480132;5.354321;-0.6014513;0.3635801;4.728325;-0.2636865;0.6434552;4.562562;-0.2274061;0.9032114;4.010201;0.5180458;0.7665526;3.120035;0.8125232;-0.2805996;2.704184;-0.0262152;-0.08147561;1.294068;-0.3620458;0;0;0;-0.2805996;2.704184;-0.0262152;-0.08147561;1.294068;-0.3620458;0;0;0
325475.8009;NotLabelled;16384;0.8059419;0.2880886;0.3601108;0.3711911;-17;0;28;3172;-326;2068;65536;0.6478605;0.5415512;-0.5235457;-0.1135734;7;-6;-4;3268;-2663;-2348;8192;0.4210526;-0.6527749;-0.6288089;-0.03462604;57;-15;-44;2652;2346;906;32768;0.5484765;-0.7877952;-0.2049861;-0.1911357;-21;2;74;385;3752;628;256;0.07894737;-0.1495845;-0.6288089;-0.7589409;31;29;7;-94;4170;-902;128;-0.06925207;0.07202215;0.7560741;0.6468144;40;-13;0;198;4030;-566;4;-0.4584487;0.3753462;-0.4792244;-0.6475214;-8;-9;-7;1154;3872;-626;16;0.6108033;-0.7873313;-0.01108033;0.08310249;-16;-2;8;-423;4121;922;2;0.6745622;-0.4556787;-0.3601108;-0.4556787;-32;-21;19;-980;3928;1080;8;0.5152354;-0.7780557;0.1260388;0.3365651;13;-15;-52;-829;3923;1953;0.03762914;2.745175;-0.03881589;0.04315813;3.24904;-0.247889;0.04800957;3.691161;-0.4335323;0.09211357;4.410485;-0.295363;-0.1460549;4.753195;-0.2714062;-0.4958759;4.624757;-0.2357948;-1.011699;4.800661;-0.9850032;-0.3369364;5.352676;-0.6138281;0.373314;4.721354;-0.2714065;0.6525372;4.55435;-0.2357952;0.8998933;3.994521;0.5083026;0.7484777;3.102612;0.7900063;-0.2746196;2.703637;-0.02844794;-0.0797573;1.293211;-0.3654735;0;0;0;-0.2746196;2.703637;-0.02844794;-0.0797573;1.293211;-0.3654735;0;0;0
325495.9014;NotLabelled;16384;0.8060216;0.2963989;0.3545706;0.3698061;-20;-18;29;3546;-670;2178;65536;0.6466053;0.5457063;-0.5207756;-0.1135734;9;22;-4;2264;-2653;-1836;8192;0.4196676;-0.6570559;-0.6246537;-0.04432133;58;-18;-40;3026;2564;1032;32768;0.5484765;-0.7864426;-0.1980609;-0.2036011;-19;7;79;477;3880;936;256;0.07617728;-0.1468144;-0.6246537;-0.7631843;36;21;4;-262;3864;-652;128;-0.07063711;0.07202215;0.7606514;0.6412742;38;-1;0;326;3890;-488;4;-0.4570637;0.3739612;-0.4806094;-0.6482749;-10;-3;-7;1072;3836;-672;16;0.6094183;-0.7885668;-0.009695291;0.08171745;-17;0;9;-617;4115;926;2;0.6777242;-0.4542936;-0.3628809;-0.4501385;-34;-13;19;-882;3860;1134;8;0.5166205;-0.7745467;0.1232687;0.3434903;9;-14;-47;-859;3693;1929;0.04577309;2.745301;-0.04445168;0.05126039;3.245364;-0.2624618;0.05607483;3.684111;-0.4559468;0.1052008;4.401824;-0.3112459;-0.1305424;4.745986;-0.2843194;-0.4812889;4.619721;-0.2500666;-1.00154;4.801786;-0.9947275;-0.3257151;5.353979;-0.6257546;0.3885872;4.710457;-0.2843196;0.6665952;4.541157;-0.2500666;0.9005244;3.969937;0.4897039;0.7313969;3.076893;0.7573887;-0.2664735;2.703954;-0.03328501;-0.0779976;1.292334;-0.3689396;0;0;0;-0.2664735;2.703954;-0.03328501;-0.0779976;1.292334;-0.3689396;0;0;0
325515.6282;NotLabelled;16384;0.8057824;0.301939;0.3504155;0.3698061;-21;-13;34;3780;-670;2198;65536;0.6454338;0.5470914;-0.5207756;-0.1135734;8;12;-20;1674;-3075;-1364;8192;0.4182825;-0.661138;-0.6204986;-0.05401662;53;-17;-40;2962;2614;1212;32768;0.5498615;-0.7838588;-0.1911357;-0.2160665;-19;14;87;-55;4264;870;256;0.07479224;-0.1468144;-0.6218836;-0.7655798;31;19;2;104;3808;-686;128;-0.0734072;0.07202215;0.7638739;0.6371191;38;-7;-3;318;3846;-550;4;-0.4570637;0.3753462;-0.4819945;-0.6464436;-11;0;-9;958;3888;-754;16;0.6066482;-0.7908418;-0.009695291;0.08033241;-17;5;10;-723;4031;976;2;0.6809871;-0.4515235;-0.367036;-0.4445983;-36;-5;18;-878;3700;1204;8;0.5180055;-0.7707292;0.1218837;0.3504155;6;-15;-45;-801;3729;1873;0.05379073;2.744883;-0.04665425;0.0592428;3.241741;-0.2718733;0.06402599;3.677644;-0.4716828;0.1122127;4.393701;-0.3187002;-0.1239478;4.737261;-0.2880035;-0.4745749;4.610209;-0.2554808;-0.9980097;4.809455;-0.9934829;-0.323962;5.366047;-0.6278847;0.3952221;4.702328;-0.2880039;0.6733986;4.532964;-0.2554814;0.8961147;3.948669;0.4775083;0.7080323;3.05486;0.7295332;-0.2584541;2.703702;-0.03484124;-0.07440152;1.291772;-0.3716428;0;0;0;-0.2584541;2.703702;-0.03484124;-0.07440152;1.291772;-0.3716428;0;0;0
325536.5165;NotLabelled;16384;0.806118;0.3074792;0.3462604;0.368421;-22;-4;41;3774;-680;2072;65536;0.6440116;0.5484765;-0.5207756;-0.1149584;3;17;-33;1816;-3109;-1042;8192;0.4182825;-0.6684099;-0.6108033;-0.07202215;46;-17;-59;2686;2482;938;32768;0.5498615;-0.7795188;-0.1786704;-0.2409972;-23;5;92;-193;4030;482;256;0.07202215;-0.1454294;-0.6191136;-0.7683498;12;38;1;-306;3778;-866;128;-0.07479224;0.0734072;0.7670555;0.632964;31;-4;-4;302;3970;-666;4;-0.4570637;0.3753462;-0.4833795;-0.6454086;-10;0;-11;1018;3846;-812;16;0.6052631;-0.7920234;-0.01108033;0.07894737;-17;9;11;-505;3991;1138;2;0.6832622;-0.4487534;-0.3711911;-0.4404432;-37;-1;18;-1032;3666;1188;8;0.5193906;-0.7676854;0.1191136;0.3559557;6;-14;-44;-931;3833;1717;0.06256094;2.74452;-0.06114219;0.06798615;3.238922;-0.2917042;0.07274551;3.672647;-0.4962011;0.1216265;4.387488;-0.3378517;-0.1142052;4.731031;-0.3045498;-0.4649492;4.604072;-0.2729431;-0.9898082;4.822219;-1.004561;-0.3167126;5.379293;-0.6379457;0.4049315;4.695608;-0.3048707;0.6829506;4.525742;-0.2736514;0.8923253;3.92091;0.4464985;0.6858869;3.025883;0.6790894;-0.2496824;2.70347;-0.04884922;-0.06972289;1.289642;-0.3798548;0;0;0;-0.2496824;2.70347;-0.04884922;-0.06972289;1.289642;-0.3798548;0;0;0
325556.7764;NotLabelled;16384;0.8070206;0.3130194;0.3421052;0.365651;-23;0;44;3744;-816;1864;65536;0.6398157;0.5498615;-0.5235457;-0.1191136;-4;9;-46;2474;-3005;-598;8192;0.4182825;-0.6723232;-0.6052631;-0.08171745;49;-21;-56;2922;2642;680;32768;0.5512465;-0.7765872;-0.1717452;-0.2520775;-15;-7;87;-55;4050;98;256;0.06925207;-0.1440443;-0.6191136;-0.7688653;6;25;13;-162;3788;-1168;128;-0.07617728;0.0734072;0.7703297;0.6288089;36;-6;-3;368;4130;-948;4;-0.4570637;0.3753462;-0.4861496;-0.6433246;-13;7;-10;1060;3836;-782;16;0.601108;-0.7956169;-0.008310249;0.07479224;-18;-1;13;-579;4105;1002;2;0.684708;-0.4459834;-0.3767313;-0.4362881;-37;2;17;-1046;3676;1216;8;0.5207756;-0.7643648;0.1177285;0.3614958;9;-2;-42;-809;3819;1657;0.0684485;2.744265;-0.06788631;0.07384726;3.236259;-0.3035446;0.07858317;3.667847;-0.5125123;0.1282193;4.38135;-0.3484628;-0.1071992;4.724932;-0.3127205;-0.4581465;4.59819;-0.2825234;-0.9825136;4.820628;-1.013201;-0.3082488;5.376553;-0.6469879;0.4118905;4.688824;-0.3127202;0.6896493;4.518348;-0.2825229;0.8722732;3.895342;0.4293672;0.628101;3.001499;0.6273853;-0.2437935;2.703344;-0.05513442;-0.06949069;1.28836;-0.3842218;0;0;0;-0.2437935;2.703344;-0.05513442;-0.06949069;1.28836;-0.3842218;0;0;0
325577.5207;NotLabelled;16384;0.807775;0.3171745;0.3379501;0.3642659;-19;0;49;3778;-800;1740;65536;0.636479;0.5498615;-0.5263157;-0.1246537;-6;0;-51;3262;-2907;-1210;8192;0.4182825;-0.6760294;-0.599723;-0.09141274;45;-20;-51;2894;2880;940;32768;0.5554016;-0.7722001;-0.1634349;-0.2617728;-7;-25;83;-49;4346;684;256;0.06648199;-0.1440443;-0.6177285;-0.7702226;16;27;17;-490;3482;-1106;128;-0.07756232;0.07479224;0.7734326;0.6246537;34;0;-3;438;4006;-696;4;-0.4584487;0.3767313;-0.4875346;-0.640475;-15;10;-11;1004;3838;-676;16;0.599723;-0.7967902;-0.008310249;0.0734072;-18;5;15;-729;4023;1000;2;0.6880605;-0.4390582;-0.3850415;-0.4307479;-39;9;15;-904;3574;1282;8;0.5249307;-0.7592341;0.1108033;0.368421;7;5;-41;-851;3673;1537;0.09307529;2.74403;-0.08316177;0.098446;3.233478;-0.3240642;0.1031571;3.662809;-0.5376321;0.1545503;4.376049;-0.372978;-0.08001871;4.720181;-0.3369594;-0.4312806;4.594285;-0.3068895;-0.9563358;4.830116;-1.032858;-0.2789273;5.378633;-0.6613155;0.4389798;4.682788;-0.3369598;0.7163138;4.511599;-0.3068901;0.8866659;3.874939;0.3959029;0.6270195;2.981667;0.5760032;-0.2191651;2.703248;-0.06993663;-0.05484816;1.285997;-0.394373;0;0;0;-0.2191651;2.703248;-0.06993663;-0.05484816;1.285997;-0.394373;0;0;0
325597.5438;NotLabelled;16384;0.8091227;0.3227147;0.33241;0.3614958;-15;-4;56;3784;-784;1742;65536;0.6333897;0.5484765;-0.5304709;-0.1288089;-6;1;-47;3556;-2699;-1414;8192;0.4196676;-0.6776676;-0.5955678;-0.09972299;36;-21;-54;2998;3004;1332;32768;0.5567867;-0.7706048;-0.1523546;-0.2700831;-11;-29;85;-225;4284;1198;256;0.06094183;-0.1454294;-0.6108033;-0.7759225;31;18;0;276;4210;-1070;128;-0.08033241;0.07479224;0.7797907;0.6163435;31;-3;-7;426;3914;-884;4;-0.4598338;0.3781163;-0.4889196;-0.6376038;-15;12;-11;916;3842;-718;16;0.5969529;-0.7992386;-0.008310249;0.06925207;-19;10;16;-627;4017;1032;2;0.6893042;-0.434903;-0.3905817;-0.4279778;-36;17;17;-906;3400;1250;8;0.5277008;-0.7556769;0.1080332;0.3725762;6;0;-41;-545;3559;1509;0.1032991;2.744773;-0.09216723;0.1086425;3.231731;-0.338063;0.1133293;3.658855;-0.5560107;0.1672993;4.371177;-0.388237;-0.06601027;4.716014;-0.3507941;-0.4177441;4.591285;-0.3213829;-0.9415134;4.837456;-1.044842;-0.2590334;5.376347;-0.6685247;0.4528468;4.676706;-0.3507947;0.7295374;4.504365;-0.3213834;0.8863586;3.854423;0.3723431;0.6142867;2.960618;0.5300703;-0.2089398;2.704128;-0.07849067;-0.0519844;1.284956;-0.3981374;0;0;0;-0.2089398;2.704128;-0.07849067;-0.0519844;1.284956;-0.3981374;0;0;0
325618.5182;NotLabelled;16384;0.8120113;0.33518;0.3171745;0.3573407;-16;-7;74;3822;-1008;1990;65536;0.626025;0.5484765;-0.536011;-0.1412742;-1;32;-46;3008;-3179;-1074;8192;0.4224377;-0.6795164;-0.5900277;-0.1080332;33;-21;-60;2956;2964;1142;32768;0.5581717;-0.7687405;-0.1440443;-0.2770083;-14;-27;75;-1059;4374;840;256;0.0567867;-0.1440443;-0.6066482;-0.7797464;39;45;2;-224;4650;-1322;128;-0.08171745;0.07617728;0.7827801;0.6121883;32;-15;-7;624;3612;-648;4;-0.4598338;0.3795014;-0.4889196;-0.6367803;-15;10;-12;932;3774;-826;16;0.5955678;-0.8005061;-0.008310249;0.06648199;-20;7;17;-397;4023;1074;2;0.6896103;-0.4307479;-0.3961219;-0.4265928;-33;20;17;-1048;3302;1178;8;0.5277008;-0.7533123;0.1052632;0.3781163;5;-9;-41;-427;3573;1567;0.1204738;2.744438;-0.1048116;0.1257591;3.226091;-0.360945;0.1303944;3.648514;-0.587872;0.1897472;4.357069;-0.4065188;-0.04094633;4.702885;-0.3624734;-0.3936166;4.580284;-0.3354236;-0.920275;4.856139;-1.045961;-0.2317606;5.38499;-0.6664051;0.4775982;4.659655;-0.3632665;0.7529737;4.484693;-0.3371764;0.906788;3.808528;0.3317164;0.6173962;2.917476;0.4733706;-0.1917619;2.704092;-0.09020672;-0.04286803;1.283041;-0.405333;0;0;0;-0.1917619;2.704092;-0.09020672;-0.04286803;1.283041;-0.405333;0;0;0
325639.6666;NotLabelled;16384;0.8141205;0.3407202;0.3088643;0.3545706;-17;-1;79;3686;-934;1872;65536;0.6207814;0.5512465;-0.5373961;-0.1481994;-4;30;-48;3374;-2879;-1004;8192;0.4265928;-0.6829182;-0.5803324;-0.1218837;24;-19;-46;3218;2962;966;32768;0.5609418;-0.7665551;-0.1246537;-0.2867036;-6;-44;57;-683;4572;1104;256;0.05263158;-0.1412742;-0.602493;-0.7837561;49;34;2;-468;3780;-1166;128;-0.08310249;0.07756232;0.7857313;0.6080332;25;6;-6;366;3744;-698;4;-0.4612188;0.3808864;-0.4903047;-0.6338801;-17;9;-13;1030;3888;-752;16;0.5927978;-0.8027843;-0.008310249;0.06371191;-20;3;17;-473;4067;1134;2;0.689791;-0.4279778;-0.400277;-0.4252077;-27;19;17;-1168;3100;1104;8;0.5277008;-0.7505059;0.1052632;0.3836565;3;-24;-42;-159;3535;1453;0.1264215;2.744088;-0.1111748;0.1316782;3.223135;-0.3721506;0.1362883;3.64325;-0.6033242;0.1974002;4.349475;-0.4136599;-0.03232017;4.695487;-0.3662018;-0.3854397;4.573697;-0.3414469;-0.8965945;4.867552;-1.056079;-0.1977815;5.374735;-0.6659201;0.4860868;4.650631;-0.3662018;0.7608463;4.47451;-0.3414468;0.9051124;3.799162;0.3303909;0.6027092;2.910421;0.458762;-0.1858125;2.703892;-0.09612964;-0.03790703;1.282155;-0.4086176;0;0;0;-0.1858125;2.703892;-0.09612964;-0.03790703;1.282155;-0.4086176;0;0;0
325660.536;NotLabelled;16384;0.8160998;0.3476454;0.300554;0.3504155;-15;5;82;3408;-780;1796;65536;0.6170185;0.5512465;-0.5401662;-0.1537396;-3;8;-42;3864;-2635;-1248;8192;0.4293629;-0.68511;-0.5747922;-0.1260388;18;-16;-40;3506;2948;1048;32768;0.5637119;-0.7649958;-0.1149584;-0.2894737;-5;-39;52;-1017;4616;888;256;0.04986149;-0.1398892;-0.5969529;-0.7884111;49;33;4;-332;3516;-1050;128;-0.08448754;0.07756232;0.7866536;0.6066482;9;3;-10;496;3796;-902;4;-0.4639889;0.3822715;-0.4930748;-0.6288562;-18;17;-16;1152;3844;-628;16;0.5886427;-0.8063666;-0.006925208;0.0567867;-22;9;20;-359;4049;1056;2;0.6882235;-0.4265928;-0.4044321;-0.4252077;-18;17;15;-1300;2962;1112;8;0.5277008;-0.7465297;0.1080332;0.3905817;3;-49;-38;-125;3533;1365;0.140107;2.74349;-0.1232049;0.1453348;3.219896;-0.3889711;0.1499192;3.637671;-0.6243458;0.2119161;4.341596;-0.4265842;-0.01732472;4.687396;-0.3754123;-0.3706541;4.565873;-0.3523956;-0.8779501;4.876487;-1.062677;-0.1739915;5.374055;-0.6694022;0.5010132;4.641747;-0.3754122;0.7754792;4.464935;-0.3523947;0.9077663;3.767913;0.2994757;0.5797573;2.885345;0.4056472;-0.1721254;2.703446;-0.1077231;-0.03338487;1.279883;-0.4160679;0;0;0;-0.1721254;2.703446;-0.1077231;-0.03338487;1.279883;-0.4160679;0;0;0
325680.5607;NotLabelled;16384;0.8195866;0.3531856;0.2908587;0.3448753;-11;0;86;3206;-1276;1536;65536;0.6147697;0.5498615;-0.5429363;-0.1578947;0;6;-30;3878;-2451;-1316;8192;0.4293629;-0.6863856;-0.5720221;-0.1315789;17;-1;-32;3824;3126;970;32768;0.5650969;-0.7633979;-0.1080332;-0.2936288;1;-19;50;-443;4730;650;256;0.04570637;-0.1385041;-0.5914127;-0.7930691;53;34;7;-100;3860;-934;128;-0.08310249;0.07756232;0.7878671;0.6052631;13;0;-13;590;3772;-1066;4;-0.4653739;0.3850415;-0.4944598;-0.6250437;-19;24;-16;1126;3794;-684;16;0.5858725;-0.8085713;-0.006925208;0.05401662;-24;16;22;-441;4045;1042;2;0.6891553;-0.4238227;-0.4072022;-0.4238227;-13;11;12;-1180;3054;1208;8;0.5249307;-0.743788;0.1149584;0.3975069;9;-66;-31;-103;3487;1325;0.1734201;2.743357;-0.1402262;0.1786376;3.218838;-0.4076436;0.1832129;3.635794;-0.6444662;0.2454157;4.336749;-0.4364841;0.01633525;4.681928;-0.3806166;-0.3371024;4.560323;-0.3598059;-0.8389487;4.890435;-1.065147;-0.1296517;5.377625;-0.6684831;0.5346426;4.635937;-0.3806165;0.8089635;4.458626;-0.3598054;0.939485;3.752863;0.2829532;0.6021662;2.872601;0.3785645;-0.1388116;2.703367;-0.1245936;-0.01506649;1.276946;-0.4260386;0;0;0;-0.1388116;2.703367;-0.1245936;-0.01506649;1.276946;-0.4260386;0;0;0
325701.527;NotLabelled;16384;0.8222972;0.3587258;0.2811634;0.3407202;-6;-2;81;2734;-1324;1370;65536;0.6136875;0.5498615;-0.5429363;-0.1620499;3;13;-18;3550;-2035;-1602;8192;0.4307479;-0.6855858;-0.5706371;-0.1371191;11;14;-23;3622;3542;1006;32768;0.567867;-0.760133;-0.101108;-0.299169;9;-16;53;175;5074;1194;256;0.03878116;-0.1357341;-0.5817174;-0.8010475;36;26;7;-528;3898;-1236;128;-0.08171745;0.08033241;0.7887967;0.6038781;-3;-1;-14;556;3516;-1036;4;-0.468144;0.3878116;-0.4944598;-0.621251;-20;30;-15;960;3754;-710;16;0.5831025;-0.8109084;-0.008310249;0.04847645;-27;17;23;-239;3951;1076;2;0.6875361;-0.4238227;-0.4113573;-0.4224377;-7;6;9;-874;3144;1310;8;0.5207756;-0.7363421;0.1274238;0.4127424;13;-65;-17;-379;3323;859;0.186537;2.743171;-0.1560815;0.1917442;3.217718;-0.4251534;0.1963104;3.633847;-0.6634269;0.260294;4.331488;-0.4451012;0.03215437;4.676487;-0.384473;-0.321667;4.555636;-0.3659089;-0.8150724;4.905691;-1.06758;-0.09928782;5.383835;-0.6715654;0.550324;4.628966;-0.3844733;0.8240941;4.45056;-0.3659093;0.9502178;3.738323;0.2705557;0.6038346;2.860711;0.3577516;-0.1256942;2.703236;-0.1402978;-0.009707198;1.274461;-0.433568;0;0;0;-0.1256942;2.703236;-0.1402978;-0.009707198;1.274461;-0.433568;0;0;0
325722.5133;NotLabelled;16384;0.8266773;0.368421;0.2617728;0.33518;-2;-19;62;2390;-1350;1712;65536;0.6071065;0.5581717;-0.5401662;-0.16759;29;49;-6;2592;-1211;-1858;8192;0.4307479;-0.683585;-0.5720221;-0.1412742;5;17;-16;3484;3344;1274;32768;0.5706371;-0.7565662;-0.09556787;-0.3047091;6;-15;55;229;5070;1512;256;0.03601108;-0.134349;-0.5775623;-0.8044099;34;26;2;-398;3694;-1558;128;-0.08033241;0.08033241;0.7889389;0.6038781;-12;6;-14;510;3604;-868;4;-0.4709141;0.3891967;-0.4958449;-0.617174;-21;35;-13;810;3776;-660;16;0.5803324;-0.8131303;-0.008310249;0.04432133;-30;16;25;-287;3977;1160;2;0.6875584;-0.4224377;-0.4127424;-0.4224377;-4;6;8;-856;2962;1378;8;0.5180055;-0.7339348;0.134349;0.4182825;18;-54;-13;-257;3367;751;0.201705;2.74212;-0.1672651;0.2069047;3.215965;-0.4375716;0.2114642;3.631472;-0.6769277;0.2780172;4.323074;-0.4408784;0.05126671;4.667455;-0.3720731;-0.3031325;4.547769;-0.3573926;-0.7915729;4.916401;-1.052997;-0.06816654;5.389143;-0.6644152;0.5692184;4.617616;-0.3720731;0.8421469;4.437564;-0.357392;0.9703186;3.718413;0.2708354;0.6155876;2.843098;0.3468382;-0.1105256;2.702226;-0.1513686;-0.002711713;1.272023;-0.4407704;0;0;0;-0.1105256;2.702226;-0.1513686;-0.002711713;1.272023;-0.4407704;0;0;0
325742.5317;NotLabelled;16384;0.8275388;0.3725762;0.2548476;0.333795;-2;-17;45;2034;-1568;1908;65536;0.6023689;0.5650969;-0.5373961;-0.1703601;30;48;-2;2546;-949;-876;8192;0.4307479;-0.6792101;-0.5761772;-0.1454294;-1;25;-2;2820;2992;1138;32768;0.5734072;-0.7500573;-0.08448754;-0.3185596;1;4;65;157;4482;1426;256;0.03462604;-0.132964;-0.5734072;-0.8076669;41;21;-4;-336;3724;-1602;128;-0.07894737;0.08033241;0.7869511;0.6066482;-17;13;-14;592;3584;-938;4;-0.4750692;0.3919668;-0.4958449;-0.6122166;-25;40;-11;744;3904;-844;16;0.5761772;-0.8163619;-0.008310249;0.03878116;-31;13;26;-517;4013;1328;2;0.6867251;-0.4224377;-0.4141274;-0.4224377;3;7;6;-774;2808;1338;8;0.5180055;-0.730512;0.1398892;0.4224377;23;-42;-9;301;3483;761;0.2216555;2.74129;-0.1786356;0.2268551;3.215132;-0.4489481;0.2314145;3.630636;-0.6883094;0.298737;4.319579;-0.4448178;0.07242112;4.66354;-0.3725711;-0.2821687;4.544229;-0.3595343;-0.748338;4.945559;-1.052319;-0.02753899;5.416185;-0.6563938;0.5902987;4.612937;-0.3725707;0.8629469;4.432335;-0.3595333;0.991293;3.709883;0.2648591;0.6291425;2.836571;0.3277897;-0.0905752;2.701397;-0.1627386;0.006168418;1.269539;-0.4478391;0;0;0;-0.0905752;2.701397;-0.1627386;0.006168418;1.269539;-0.4478391;0;0;0
325762.6578;NotLabelled;16384;0.8279746;0.3753462;0.2493075;0.333795;-5;-13;29;2016;-1494;1548;65536;0.5996047;0.5706371;-0.534626;-0.1703601;27;16;0;2686;-613;-1078;8192;0.4307479;-0.6753637;-0.5803324;-0.1468144;-4;25;0;2680;2982;926;32768;0.5734072;-0.7473862;-0.08171745;-0.3254848;-3;9;60;-483;4226;1056;256;0.03462604;-0.1315789;-0.567867;-0.8117974;49;18;-15;-510;3760;-1506;128;-0.07756232;0.07894737;0.7861596;0.6080332;-17;14;-12;684;3678;-1052;4;-0.4819945;0.3975069;-0.4972299;-0.6020232;-30;33;-11;400;3900;-968;16;0.567867;-0.8225374;-0.005540166;0.03047091;-36;3;30;-275;3925;1386;2;0.6850162;-0.4238227;-0.4141274;-0.4238227;16;8;6;-678;2756;1266;8;0.5180055;-0.7280933;0.1440443;0.4252077;22;-34;0;439;3223;1427;0.2443273;2.73883;-0.1930991;0.2495473;3.214534;-0.460121;0.2541249;3.631687;-0.6965969;0.3207136;4.318121;-0.4459259;0.09408095;4.661158;-0.3703547;-0.260437;4.54147;-0.3589104;-0.7208422;4.954718;-1.048535;-0.003776059;5.426299;-0.6470064;0.6119942;4.61092;-0.3703546;0.8847573;4.430385;-0.3589101;1.015389;3.705781;0.2625066;0.6326184;2.839748;0.2980236;-0.06790458;2.698827;-0.1775026;0.01976141;1.265579;-0.4585251;0;0;0;-0.06790458;2.698827;-0.1775026;0.01976141;1.265579;-0.4585251;0;0;0
325783.568;NotLabelled;16384;0.8281749;0.3767313;0.2465374;0.333795;-1;-17;17;1958;-1694;1572;65536;0.5973497;0.5734072;-0.534626;-0.1689751;34;-4;0;2294;-511;-1788;8192;0.4307479;-0.6714667;-0.5844875;-0.1481994;-4;21;3;2584;2898;850;32768;0.5734072;-0.7452477;-0.07894737;-0.3310249;-5;6;53;-367;4096;812;256;0.03462604;-0.1288089;-0.5609418;-0.8170395;48;16;-16;-454;3742;-1256;128;-0.07617728;0.07756232;0.7842834;0.6108033;-18;13;-11;784;3652;-876;4;-0.4847645;0.398892;-0.4986149;-0.5977221;-33;23;-9;288;3766;-710;16;0.5637119;-0.8255022;-0.002770083;0.02770083;-37;-9;32;-293;3995;1390;2;0.6824335;-0.4265928;-0.4141274;-0.4252077;27;5;7;-732;2754;1380;8;0.5180055;-0.7269753;0.1495845;0.4252077;7;-14;19;93;2855;2921;0.2901312;2.733874;-0.2262068;0.2953601;3.210383;-0.4917874;0.2999454;3.62825;-0.7269995;0.3639162;4.31149;-0.4670886;0.1360393;4.652727;-0.3872323;-0.218089;4.531714;-0.3778489;-0.672707;4.952942;-1.066484;0.03939483;5.428753;-0.6611298;0.6541178;4.604224;-0.3872323;0.9274707;4.424462;-0.3778483;1.061748;3.700302;0.2433085;0.670346;2.83777;0.268446;-0.02210117;2.693824;-0.2107419;0.0473422;1.257169;-0.4791787;0;0;0;-0.02210117;2.693824;-0.2107419;0.0473422;1.257169;-0.4791787;0;0;0
325804.5427;NotLabelled;16384;0.8266076;0.3795014;0.2437673;0.3365651;-5;-33;5;2000;-1628;1898;65536;0.5932523;0.5775623;-0.536011;-0.1648199;40;5;2;2290;-659;-1690;8192;0.4307479;-0.6690453;-0.5872576;-0.1481994;-5;16;4;2634;2958;968;32768;0.5747922;-0.7424637;-0.07756232;-0.33518;-2;-7;42;-135;4100;644;256;0.03601108;-0.1246537;-0.5567867;-0.8204591;34;14;-16;-208;3630;-1318;128;-0.07479224;0.07617728;0.7834721;0.6121883;-12;24;-5;810;3686;-1096;4;-0.4875346;0.398892;-0.501385;-0.5931343;-35;12;-6;114;3844;-548;16;0.5595568;-0.8284575;0;0.0235457;-37;-10;36;-461;3999;1626;2;0.6770204;-0.4362881;-0.4085872;-0.4293629;46;-4;0;-1182;3374;1394;8;0.5055401;-0.739092;0.1523546;0.4182825;-58;-15;49;-473;3911;3325;0.3125673;2.73087;-0.24085;0.317815;3.209104;-0.5033135;0.3224171;3.628497;-0.7357919;0.3823667;4.307661;-0.4644894;0.1525586;4.646314;-0.3793401;-0.2009334;4.523286;-0.3725142;-0.6547024;4.948494;-1.059261;0.05466445;5.426405;-0.6515892;0.6708875;4.600565;-0.3793399;0.9451801;4.422124;-0.3725137;1.08457;3.698426;0.248056;0.6857812;2.839098;0.2656606;0.0003337897;2.690721;-0.2256693;0.05861137;1.252714;-0.4894879;0;0;0;0.0003337897;2.690721;-0.2256693;0.05861137;1.252714;-0.4894879;0;0;0
325825.7046;NotLabelled;16384;0.8209383;0.3864266;0.2423823;0.3434903;-25;-31;-5;2994;-1532;2242;65536;-0.5858725;-0.5900749;0.5304709;0.1648199;24;39;12;3456;-1815;-778;8192;0.4307479;-0.6666037;-0.5900277;-0.1481994;-6;17;2;2834;3046;990;32768;0.5761772;-0.7416739;-0.07479224;-0.33518;1;-20;29;-243;4078;612;256;0.03601108;-0.1177285;-0.5498615;-0.8261329;31;26;-22;-622;3162;-1842;128;-0.07617728;0.07202215;0.7826478;0.6135734;2;7;1;590;3742;-812;4;-0.4875346;0.398892;-0.5055401;-0.5895968;-39;-2;-5;-30;4024;-378;16;0.5540166;-0.8322752;0.002770083;0.01939058;-34;-15;36;-205;3913;1934;2;0.6759443;-0.4404432;-0.4044321;-0.4307479;43;-10;-7;-1412;3766;1482;8;0.4958449;-0.7449592;0.1592798;0.4168975;-40;-82;63;1003;4263;2351;0.3424352;2.727688;-0.2547827;0.3476918;3.206722;-0.5157821;0.3523017;3.626824;-0.7469767;0.4064464;4.303843;-0.4691682;0.1737908;4.639765;-0.3809908;-0.1786805;4.513771;-0.3756342;-0.6349704;4.942594;-1.058452;0.06789;5.424502;-0.6442673;0.692479;4.598287;-0.3809907;0.9682272;4.422053;-0.3756336;1.113627;3.699549;0.2449496;0.711722;2.841556;0.2552264;0.03020127;2.687492;-0.2397352;0.07222126;1.248138;-0.4992619;0;0;0;0.03020127;2.687492;-0.2397352;0.07222126;1.248138;-0.4992619;0;0;0
325845.714;NotLabelled;16384;0.8180509;0.3891967;0.2437673;0.3462604;-27;-24;-10;3436;-1708;1948;65536;-0.5844875;-0.5951474;0.5263157;0.1648199;16;33;17;3398;-1957;-1062;8192;0.4307479;-0.6604093;-0.5969529;-0.1481994;-14;30;10;3188;3306;838;32768;0.5831025;-0.7379062;-0.07063711;-0.33241;15;-22;8;-43;4524;528;256;0.033241;-0.1149584;-0.5457063;-0.8293878;22;26;-5;-540;3414;-1522;128;-0.07756232;0.07063711;0.7837218;0.6121883;11;4;2;638;3858;-1072;4;-0.4889196;0.3961219;-0.5110803;-0.5855271;-44;-14;-6;-50;4142;-294;16;0.5498615;-0.8350342;0.009695291;0.0166205;-31;-26;37;83;3985;1880;2;0.6757229;-0.4432133;-0.400277;-0.432133;42;-12;-7;-1018;4208;1454;8;0.4819945;-0.747757;0.1800554;0.4196676;-4;-176;67;1709;3581;1419;0.3692774;2.723182;-0.2780595;0.3745405;3.202809;-0.5379673;0.3791561;3.623437;-0.7682042;0.4263539;4.296329;-0.4793249;0.1903209;4.62848;-0.385986;-0.1609063;4.498979;-0.3831436;-0.6312965;4.932113;-1.053559;0.06276339;5.421568;-0.6334264;0.7093897;4.592074;-0.3859857;0.9868435;4.418479;-0.3831428;1.142084;3.697188;0.2364662;0.7387714;2.839867;0.2477046;0.05704305;2.682951;-0.2631114;0.08354129;1.241619;-0.5135456;0;0;0;0.05704305;2.682951;-0.2631114;0.08354129;1.241619;-0.5135456;0;0;0
325866.5746;NotLabelled;16384;0.8147141;0.3919668;0.2465374;0.3490305;-19;-14;-16;3410;-1890;1848;65536;-0.5844875;-0.5987963;0.5221606;0.1648199;15;35;20;3162;-2143;-1130;8192;0.4307479;-0.6569406;-0.601108;-0.1468144;-19;36;12;2792;3504;1032;32768;0.5858725;-0.7370855;-0.06925207;-0.3296399;13;-22;6;773;4494;1498;256;0.02908587;-0.1177285;-0.5512465;-0.8254824;-83;55;82;-1802;3076;-418;128;-0.07894737;0.07063711;0.7846636;0.6108033;10;-5;3;178;3972;-1456;4;-0.4875346;0.3919668;-0.5166205;-0.5846156;-47;-23;-7;168;4284;-116;16;0.5457063;-0.8376731;0.0166205;0.01523546;-27;-37;38;-113;4239;1854;2;0.6726997;-0.4501385;-0.3961219;-0.433518;42;-25;5;-342;4572;1270;8;0.4709141;-0.7452644;0.2049861;0.4252077;15;-149;40;-321;2867;2037;0.4072685;2.719312;-0.2925845;0.4125206;3.197925;-0.5543555;0.4171264;3.617654;-0.7862267;0.4644215;4.287501;-0.490371;0.228461;4.618753;-0.3937146;-0.122814;4.489358;-0.3923871;-0.6088008;4.925069;-1.049884;0.08343604;5.419893;-0.633045;0.7475167;4.582162;-0.3938343;1.024907;4.408444;-0.392652;1.196721;3.687853;0.2233853;0.7987555;2.827971;0.226887;0.09503482;2.67914;-0.2774669;0.09838605;1.236682;-0.5227466;0;0;0;0.09503482;2.67914;-0.2774669;0.09838605;1.236682;-0.5227466;0;0;0
325887.5183;NotLabelled;16384;0.8120077;0.3933518;0.2493075;0.3518005;-14;-13;-22;2788;-1916;1584;65536;-0.5831025;-0.6049208;0.5166205;0.1648199;20;39;29;4244;-1711;-1118;8192;0.432133;-0.6521987;-0.6052631;-0.1468144;-21;18;19;2224;3650;1064;32768;0.5872576;-0.7362379;-0.06648199;-0.3296399;0;-2;16;2157;3994;2326;256;0.02216066;-0.1260388;-0.5720221;-0.8101937;-163;-48;94;-1478;3472;-3106;128;-0.08171745;0.07202215;0.7853308;0.6094183;-4;-13;2;568;4130;-1466;4;-0.4875346;0.3822715;-0.5304709;-0.578601;-51;-29;-6;414;4576;428;16;0.5387812;-0.8418022;0.03185596;0.008310249;-22;-31;42;225;4437;2024;2;0.6713538;-0.4570637;-0.3919668;-0.432133;47;-27;21;-70;4258;672;8;0.468144;-0.7430848;0.2160665;0.4265928;17;-44;23;-2181;4481;1423;0.438017;2.714624;-0.3055427;0.4432589;3.192321;-0.5689814;0.4478557;3.611239;-0.8023149;0.5030637;4.284088;-0.5147569;0.2709949;4.619192;-0.4220346;-0.08174048;4.493865;-0.4188911;-0.5704405;4.925738;-1.076908;0.1184732;5.425902;-0.6609377;0.7895963;4.576643;-0.4220346;1.064976;4.399781;-0.4188907;1.237896;3.684856;0.2034094;0.8436711;2.823247;0.2050982;0.1257839;2.674505;-0.2902731;0.1138663;1.231466;-0.5318398;0;0;0;0.1257839;2.674505;-0.2902731;0.1138663;1.231466;-0.5318398;0;0;0
325909.9452;NotLabelled;16384;0.8084159;0.3961219;0.2506925;0.3559557;-7;-37;-19;2992;-2280;1230;65536;-0.5831025;-0.6103509;0.5110803;0.1620499;35;14;37;3958;-1325;-2572;8192;0.432133;-0.6505421;-0.6080332;-0.1426593;-20;0;19;2478;3946;752;32768;0.5858725;-0.7355927;-0.06509695;-0.333795;-3;15;25;2567;4286;1482;256;0.04293629;-0.1468144;-0.5734072;-0.8048641;45;-193;-10;3114;5926;-4446;128;-0.08448754;0.07617728;0.7835676;0.6108033;0;-42;-5;368;4296;-484;4;-0.4875346;0.3767313;-0.5373961;-0.5758376;-52;-22;-5;386;4588;584;16;0.536011;-0.8433015;0.03878116;0.005540166;-20;-39;43;525;4495;1900;2;0.660004;-0.4778393;-0.3864266;-0.432133;69;-12;19;-1062;4200;18;8;0.4612188;-0.7435468;0.234072;0.4238227;14;-38;35;1093;4391;2115;0.5268528;2.705505;-0.3266454;0.5320857;3.182389;-0.5915526;0.5366746;3.600587;-0.8261739;0.6112082;4.284844;-0.5718112;0.3885929;4.630123;-0.4945289;0.03268173;4.514566;-0.4839067;-0.4601849;4.94349;-1.140745;0.2209843;5.450582;-0.7204304;0.9058775;4.573781;-0.4945288;1.176486;4.389981;-0.4839059;1.353729;3.676029;0.1382944;0.9579043;2.815159;0.1349211;0.2146202;2.665433;-0.3112419;0.1569948;1.221868;-0.5428807;0;0;0;0.2146202;2.665433;-0.3112419;0.1569948;1.221868;-0.5428807;0;0;0
325930.5796;NotLabelled;16384;0.8050786;0.3975069;0.2493075;0.3628809;5;-60;-16;3204;-2408;1636;65536;-0.5817174;-0.6157612;0.5083103;0.1551246;65;11;44;3488;-1959;-2542;8192;0.433518;-0.6489241;-0.6094183;-0.1398892;-26;1;5;3062;3800;758;32768;0.5844875;-0.7349183;-0.06371191;-0.3379501;-5;14;34;2775;4082;1356;256;0.03601108;-0.1357341;-0.5457063;-0.8261259;66;-4;-18;-326;4184;726;128;-0.09141274;0.08310249;0.7831647;0.6094183;-4;-3;10;-562;4380;-1770;4;-0.4889196;0.3711911;-0.5429363;-0.5730575;-53;-20;-3;414;4520;696;16;0.533241;-0.8445688;0.04847645;0.002770083;-17;-41;41;435;4505;1800;2;0.6554306;-0.4861496;-0.3822715;-0.433518;70;-18;7;-1428;4860;250;8;0.4612188;-0.7416701;0.2423823;0.4224377;30;-45;29;-97;4305;1799;0.5862626;2.700804;-0.3191897;0.5915093;3.178941;-0.5818301;0.5961105;3.598248;-0.8144635;0.6645935;4.284819;-0.5646761;0.4389021;4.628566;-0.4895144;0.08406223;4.509855;-0.4778739;-0.3766598;4.937482;-1.158461;0.2711821;5.454988;-0.6998908;0.956677;4.576923;-0.489514;1.228951;4.395661;-0.4778732;1.37698;3.687155;0.1580363;0.9758301;2.829285;0.1276172;0.2740292;2.66066;-0.3039929;0.2058883;1.217619;-0.536043;0;0;0;0.2740292;2.66066;-0.3039929;0.2058883;1.217619;-0.536043;0;0;0
325951.5225;NotLabelled;16384;0.7955289;0.400277;0.2465374;0.3822715;0;-72;-25;3802;-2702;2494;65536;-0.5734072;-0.6329564;0.501385;0.1385041;87;9;37;3648;-2121;-726;8192;0.4362881;-0.6463516;-0.6108033;-0.1371191;-35;6;-1;2670;3426;720;32768;0.5844875;-0.7326949;-0.05955679;-0.3434903;-12;-13;45;2815;4026;1370;256;0.04570637;-0.1426593;-0.5457063;-0.8244779;-12;-64;9;738;3844;-954;128;-0.09556787;0.08310249;0.7826686;0.6094183;-1;-15;12;-326;4888;-790;4;-0.4903047;0.365651;-0.5498615;-0.5688172;-51;-21;1;448;4542;762;16;0.5304709;-0.8458897;0.05540166;0.001385042;-15;-36;39;301;4625;1710;2;0.6522914;-0.4944598;-0.3753462;-0.434903;61;-38;3;-1228;5034;554;8;0.4598338;-0.7408704;0.2520775;0.4196676;31;-50;34;509;4997;1935;0.6235251;2.694617;-0.3272752;0.6287683;3.172432;-0.5904991;0.6333663;3.591455;-0.8236445;0.6928854;4.260256;-0.5276268;0.4630262;4.595766;-0.4309543;0.1094329;4.472846;-0.429743;-0.3694483;4.89781;-1.099375;0.2765532;5.427198;-0.6519088;0.9813221;4.549644;-0.4309539;1.255473;4.37086;-0.429742;1.424871;3.664822;0.2035745;1.016894;2.810004;0.1784937;0.3112919;2.654491;-0.3120251;0.2146822;1.212932;-0.5431722;0;0;0;0.3112919;2.654491;-0.3120251;0.2146822;1.212932;-0.5431722;0;0;0
325972.7523;NotLabelled;16384;0.7903467;0.4016621;0.2479224;0.3905817;-8;-42;-27;4324;-2456;2444;65536;-0.567867;-0.6410424;0.5;0.1288089;73;-21;26;3966;-2747;58;8192;0.4445983;-0.6438775;-0.6080332;-0.134349;-18;-18;-15;2250;3418;-280;32768;0.5844875;-0.730575;-0.04293629;-0.3504155;-10;-22;44;1417;3062;1428;256;0.04570637;-0.1454294;-0.5484765;-0.8221526;-30;19;11;1086;4420;-2176;128;-0.09833795;0.08448754;0.7832541;0.6080332;8;-7;6;-650;4630;-1390;4;-0.4916897;0.3601108;-0.5540166;-0.5671217;-46;-21;10;520;4386;818;16;0.5277008;-0.8470376;0.06371191;0;-15;-36;36;335;4699;1556;2;0.6508075;-0.5027701;-0.368421;-0.433518;59;-46;2;-524;4722;246;8;0.4598338;-0.7390699;0.2617728;0.4168975;35;-37;35;-211;4567;1877;0.672621;2.688396;-0.3265948;0.6778641;3.166217;-0.5898087;0.6824622;3.585245;-0.8229452;0.73645;4.255121;-0.5283036;0.5038165;4.5889;-0.4322738;0.1512608;4.463037;-0.4307477;-0.3204833;4.878071;-1.11158;0.278392;5.434278;-0.6322268;1.022479;4.547101;-0.4322736;1.298112;4.370614;-0.4307468;1.462519;3.666131;0.2056102;1.046833;2.81581;0.1614741;0.3603877;2.64827;-0.3113456;0.241158;1.208364;-0.5422425;0;0;0;0.3603877;2.64827;-0.3113456;0.241158;1.208364;-0.5422425;0;0;0
325992.535;NotLabelled;16384;0.7874032;0.4016621;0.2506925;0.3947368;-11;-8;-27;4174;-2058;2340;65536;-0.5637119;-0.6441516;0.5027701;0.1204986;55;-28;19;3778;-2901;8;8192;0.4473684;-0.6458662;-0.6038781;-0.134349;-7;-24;-18;2288;3270;-646;32768;0.5858725;-0.7284331;-0.03739612;-0.3531856;-4;-13;31;1359;2826;1496;256;0.04570637;-0.1468144;-0.5526316;-0.8191183;-26;-14;10;904;4730;-2722;128;-0.101108;0.08725762;0.7825975;0.6080332;5;-22;1;-858;4554;-2230;4;-0.4930748;0.3531856;-0.5581717;-0.5661992;-41;-22;19;380;4190;854;16;0.5249307;-0.8480912;0.07202215;-0.001385042;-15;-51;31;399;4483;1464;2;0.6474384;-0.5110803;-0.3628809;-0.433518;59;-28;2;184;4538;-34;8;0.4612188;-0.7372767;0.2686981;0.4141274;32;-27;34;-551;4179;1761;0.7090155;2.681144;-0.3245473;0.71425;3.158173;-0.5891923;0.7188405;3.576501;-0.823584;0.7757686;4.248043;-0.5333201;0.5445633;4.583376;-0.4392784;0.1915019;4.458957;-0.4366768;-0.2819541;4.869427;-1.119087;0.2942874;5.437241;-0.6258012;1.063052;4.539475;-0.4393924;1.337969;4.361883;-0.4369286;1.511714;3.65123;0.190016;1.073387;2.813512;0.1276886;0.3967828;2.641064;-0.3091677;0.2596598;1.203479;-0.5445557;0;0;0;0.3967828;2.641064;-0.3091677;0.2596598;1.203479;-0.5445557;0;0;0
326013.9423;NotLabelled;16384;0.7860681;0.4016621;0.2548476;0.3947368;-10;9;-29;3276;-2244;2328;65536;-0.5623268;-0.6466157;0.5027701;0.1135734;35;-15;20;3524;-2651;-260;8192;0.4487534;-0.6497602;-0.5983379;-0.1357341;0;-21;-23;2092;2950;-576;32768;0.5858725;-0.7279616;-0.033241;-0.3545706;-2;-9;18;1663;2458;1920;256;0.04847645;-0.1509695;-0.5526316;-0.8182033;9;-13;7;910;4010;-2190;128;-0.1038781;0.0900277;0.7829957;0.6066482;0;-22;1;-832;4376;-1664;4;-0.4986149;0.3393352;-0.565706;-0.5623268;-31;-21;30;288;3862;1090;16;0.5221606;-0.8480776;0.0900277;0.002770083;-16;-65;16;-313;3931;1500;2;0.6375014;-0.5249307;-0.3573407;-0.4362881;43;18;7;132;4214;-404;8;0.4653739;-0.7364502;0.2783934;0.4044321;34;0;27;369;4007;1881;0.7452886;2.672918;-0.3200012;0.750526;3.150207;-0.5841791;0.7551187;3.568763;-0.8181609;0.8142633;4.242951;-0.5345491;0.5841336;4.579891;-0.4436676;0.2306993;4.456574;-0.4396266;-0.2504618;4.85888;-1.121509;0.3110558;5.432208;-0.617734;1.102487;4.53442;-0.4436674;1.376867;4.35603;-0.4396255;1.552514;3.643196;0.1843069;1.108227;2.80942;0.1120998;0.4330556;2.632823;-0.3046641;0.2769269;1.198382;-0.5472823;0;0;0;0.4330556;2.632823;-0.3046641;0.2769269;1.198382;-0.5472823;0;0;0
326033.955;NotLabelled;16384;0.7842504;0.4016621;0.2603878;0.3947368;-17;0;-30;2886;-2302;2164;65536;-0.5609418;-0.6496037;0.501385;0.1094183;19;7;20;3124;-2503;-324;8192;0.4515235;-0.6513614;-0.5941828;-0.1371191;9;-29;-30;1828;2970;-622;32768;0.5858725;-0.7280235;-0.03185596;-0.3545706;-4;-9;7;1785;2126;2252;256;0.04847645;-0.1537396;-0.5512465;-0.8186217;1;-23;14;876;3348;-1272;128;-0.1066482;0.09279778;0.7822996;0.6066482;-2;-22;0;-796;4036;-1492;4;-0.5;0.33241;-0.5699543;-0.5609418;-27;-24;33;254;3578;1128;16;0.5207756;-0.8483094;0.09556787;0.005540166;-16;-42;8;-555;3843;1406;2;0.6303918;-0.5290859;-0.3587258;-0.4404432;36;32;8;-378;4196;-594;8;0.468144;-0.7361336;0.2825485;0.398892;36;-3;27;745;4075;1773;0.8089274;2.659065;-0.301272;0.8141575;3.135702;-0.5666248;0.8187442;3.55368;-0.8016372;0.8779998;4.228019;-0.5184065;0.647923;4.565043;-0.4277024;0.2944712;4.441779;-0.4235747;-0.1860121;4.840051;-1.108297;0.3597648;5.420913;-0.5959265;1.16627;4.519498;-0.4277024;1.440624;4.34107;-0.4235744;1.605156;3.62302;0.1973988;1.156262;2.79246;0.1170692;0.4966949;2.619008;-0.2858277;0.2993616;1.192978;-0.5472783;0;0;0;0.4966949;2.619008;-0.2858277;0.2993616;1.192978;-0.5472783;0;0;0
326054.7052;NotLabelled;16384;0.7823585;0.4016621;0.2700831;0.3919668;-14;23;-25;3564;-2118;1920;65536;-0.5623268;-0.6526515;0.4958449;0.1094183;-11;14;0;2382;-2625;394;8192;0.4542936;-0.6538717;-0.5886427;-0.1398892;19;-41;-37;1592;2968;-676;32768;0.5858725;-0.7280828;-0.03047091;-0.3545706;-6;-2;-4;1419;2058;2032;256;0.05124654;-0.1648199;-0.5554016;-0.8134723;-24;-15;20;1016;3574;-1624;128;-0.1121884;0.1038781;0.7822751;0.6038781;19;-41;3;-938;3802;-812;4;-0.5027701;0.3254848;-0.5687802;-0.5637119;-18;-27;34;344;3334;1020;16;0.5193906;-0.8488045;0.09833795;0.009695291;-11;-25;0;-961;3539;1486;2;0.6241345;-0.5318559;-0.3587258;-0.4459834;30;33;8;-976;4214;-684;8;0.4709141;-0.7344574;0.2880886;0.3947368;37;-10;21;913;4075;1551;0.8329151;2.652921;-0.2960888;0.8381485;3.129834;-0.5609449;0.8427377;3.548057;-0.7955215;0.9036617;4.221268;-0.5099717;0.6744354;4.558579;-0.4181868;0.3206624;4.436224;-0.4145866;-0.1650953;4.82909;-1.09871;0.3698357;5.415679;-0.5814472;1.192662;4.511684;-0.4181857;1.46655;4.332528;-0.4145845;1.627437;3.609129;0.2011134;1.177435;2.779431;0.1181248;0.5206824;2.612848;-0.28069;0.3042342;1.190895;-0.5491253;0;0;0;0.5206824;2.612848;-0.28069;0.3042342;1.190895;-0.5491253;0;0;0
326075.8157;NotLabelled;16384;0.7825191;0.400277;0.2756233;0.3891967;-13;39;-19;3512;-2186;1928;65536;-0.5637119;-0.6517971;0.4944598;0.1135734;-30;9;-17;2192;-2905;598;8192;0.4584487;-0.6661935;-0.5692521;-0.1481994;32;-64;-56;1576;2838;-956;32768;0.5844875;-0.7318041;-0.03185596;-0.3490305;-6;-15;-26;1575;1754;1598;256;0.05124654;-0.1703601;-0.5567867;-0.8113814;-14;-22;20;1310;3558;-1772;128;-0.1163435;0.1094183;0.7830459;0.601108;15;-38;3;-982;3722;-1054;4;-0.5027701;0.3185596;-0.5699475;-0.566482;-5;-33;34;544;3096;862;16;0.5180055;-0.8497735;0.09695291;0.01246537;-12;-16;-9;-853;3285;1714;2;0.6191524;-0.533241;-0.3601108;-0.4501385;28;20;9;-1250;3980;-850;8;0.4736842;-0.7327014;0.2936288;0.3905817;37;-16;15;913;3903;1401;0.8397076;2.646742;-0.2703527;0.8449337;3.122995;-0.5363936;0.8495166;3.540634;-0.7720091;0.9172031;4.216098;-0.4933867;0.6913247;4.556515;-0.4048306;0.3363955;4.437614;-0.3996581;-0.1482017;4.823365;-1.088637;0.3727598;5.416054;-0.5641226;1.209076;4.504636;-0.40483;1.481232;4.322899;-0.3996568;1.625465;3.592169;0.2114939;1.175852;2.763336;0.1183769;0.5274755;2.606707;-0.2548458;0.311472;1.189565;-0.5479485;0;0;0;0.5274755;2.606707;-0.2548458;0.311472;1.189565;-0.5479485;0;0;0
326097.3997;NotLabelled;16384;0.7832836;0.400277;0.2811634;0.3836565;-11;45;-15;3238;-2266;1930;65536;-0.5650969;-0.6493497;0.4944598;0.1204986;-46;5;-34;2172;-2559;220;8192;0.4612188;-0.6738352;-0.5567867;-0.1523546;33;-75;-61;1712;2646;-806;32768;0.5844875;-0.7344208;-0.03185596;-0.3434903;-6;-33;-34;1779;2024;1632;256;0.05124654;-0.1759003;-0.5581717;-0.8092448;-10;-16;22;1464;3350;-1576;128;-0.1191136;0.1149584;0.7839568;0.5983379;6;-32;1;-1164;3674;-1132;4;-0.5027701;0.3116343;-0.566482;-0.5737634;4;-31;33;724;2888;860;16;0.5166205;-0.850358;0.09833795;0.01800554;-16;-37;-23;-869;2997;1952;2;0.6133014;-0.5373961;-0.3587258;-0.4542936;34;-2;13;-1134;3828;-864;8;0.4750692;-0.731033;0.299169;0.3878116;37;-17;15;615;3817;1447;0.8419968;2.641902;-0.2598816;0.8472097;3.116955;-0.528059;0.8517809;3.533532;-0.7655482;0.9242013;4.209357;-0.4890009;0.7006981;4.551588;-0.4014107;0.3449612;4.435147;-0.3957688;-0.1388997;4.816396;-1.087764;0.3832697;5.40628;-0.5612914;1.21808;4.49615;-0.4014105;1.488982;4.312561;-0.395768;1.606461;3.561938;0.196718;1.160472;2.730299;0.1115274;0.5297655;2.601937;-0.2441795;0.3096069;1.188438;-0.5514394;0;0;0;0.5297655;2.601937;-0.2441795;0.3096069;1.188438;-0.5514394;0;0;0
326117.5874;NotLabelled;16384;0.7858449;0.398892;0.2853186;0.3767313;-10;43;-11;3128;-2238;1948;65536;-0.567867;-0.6431934;0.4972299;0.1288089;-57;0;-51;2500;-2309;-322;8192;0.4653739;-0.680181;-0.5443213;-0.1565097;32;-82;-62;1740;2724;-660;32768;0.5858725;-0.7372664;-0.02908587;-0.33518;-7;-49;-36;1767;2348;1626;256;0.04847645;-0.1800554;-0.5595568;-0.8075434;-10;-8;26;1380;3216;-1514;128;-0.1218837;0.1204986;0.7848079;0.5955678;11;-28;0;-1266;3756;-956;4;-0.5027701;0.3033241;-0.5609418;-0.5835761;26;-24;36;1036;2980;990;16;0.5110803;-0.8521518;0.1038781;0.04293629;-29;-68;-46;-945;3723;1982;2;0.6080585;-0.5498615;-0.3504155;-0.4529086;34;-33;14;-962;3738;-892;8;0.4819945;-0.725952;0.3074792;0.3822715;31;-9;9;195;4041;1279;0.8263386;2.637127;-0.2394714;0.8315384;3.111006;-0.5097184;0.8360981;3.526544;-0.7490221;0.9132871;4.202684;-0.4745442;0.6921868;4.546716;-0.3879175;0.3356551;4.432756;-0.3818075;-0.1478134;4.813459;-1.074378;0.3802705;5.395944;-0.5455715;1.209173;4.4877;-0.3879174;1.4788;4.30226;-0.3818078;1.578675;3.540463;0.1995407;1.136606;2.706261;0.1191165;0.5141079;2.597231;-0.2235803;0.3054022;1.187595;-0.5555845;0;0;0;0.5141079;2.597231;-0.2235803;0.3054022;1.187595;-0.5555845;0;0;0
326138.5105;NotLabelled;16384;0.7876613;0.3975069;0.2894737;0.3711911;-13;42;-6;3320;-2168;2042;65536;-0.5692521;-0.6363931;0.501385;0.1398892;-64;-6;-59;3558;-2285;-490;8192;0.4695291;-0.6883295;-0.5290859;-0.1606648;33;-82;-68;1958;3050;-604;32768;0.5886427;-0.7395526;-0.02493075;-0.3254848;-9;-59;-35;1793;2498;1862;256;0.04570637;-0.1855956;-0.5595568;-0.8064499;-9;-4;28;1226;3332;-1494;128;-0.1232687;0.1260388;0.7847712;0.5941828;20;-31;-1;-1220;3690;-880;4;-0.501385;0.300554;-0.5567867;-0.5901431;39;-23;37;1158;3286;936;16;0.5069252;-0.8536521;0.1052632;0.0567867;-34;-50;-53;-1329;3533;1830;2;0.6064316;-0.5554016;-0.3462604;-0.4515235;31;-33;11;-838;3986;-842;8;0.4833795;-0.7239847;0.3116343;0.3808864;29;-20;5;575;4425;1243;0.7688735;2.628664;-0.2358553;0.7740608;3.101399;-0.5080998;0.7786096;3.515922;-0.7491552;0.8625349;4.191892;-0.4762356;0.6448598;4.538281;-0.3903342;0.2872239;4.427855;-0.3838729;-0.1959201;4.809141;-1.076349;0.3469806;5.379947;-0.5498147;1.16124;4.474174;-0.3903337;1.429027;4.286099;-0.3838718;1.517257;3.512576;0.1837121;1.079196;2.675547;0.1110939;0.4566435;2.588836;-0.2197817;0.2634895;1.184621;-0.5827294;0;0;0;0.4566435;2.588836;-0.2197817;0.2634895;1.184621;-0.5827294;0;0;0
326158.549;NotLabelled;16384;0.7916564;0.3961219;0.2977839;0.3573407;-8;55;7;3484;-2146;1982;65536;-0.5734072;-0.6190423;0.5124654;0.1592798;-74;-29;-61;4112;-2001;-1268;8192;0.4722992;-0.6969402;-0.5138504;-0.1648199;36;-82;-72;2216;3316;-806;32768;0.5886427;-0.7432823;-0.02077562;-0.3171745;-10;-61;-36;1871;2872;1928;256;0.0401662;-0.1869806;-0.5692521;-0.7996106;-109;47;37;1796;3320;-2590;128;-0.1260388;0.1315789;0.7865549;0.5900277;21;-34;-4;-1152;3740;-988;4;-0.5;0.299169;-0.5498615;-0.5984566;52;-20;35;1128;3296;768;16;0.5027701;-0.8558515;0.09972299;0.06925207;-38;2;-64;-1649;3077;2248;2;0.6047179;-0.5609418;-0.3421052;-0.4501385;26;-27;9;-756;4238;-666;8;0.4861496;-0.7203202;0.3157895;0.3808864;26;-30;4;549;4293;1167;0.7283782;2.623563;-0.2372409;0.7335635;3.096112;-0.5098071;0.7381103;3.510472;-0.7511448;0.8293329;4.185183;-0.4774541;0.6154209;4.53382;-0.3911937;0.2566056;4.427279;-0.3849064;-0.2247465;4.807951;-1.078965;0.3341905;5.361566;-0.5508579;1.131074;4.464107;-0.3911934;1.396802;4.273127;-0.3849055;1.468672;3.487217;0.1677743;1.036131;2.646865;0.1006538;0.4161484;2.583746;-0.2211376;0.2406614;1.18122;-0.5992723;0;0;0;0.4161484;2.583746;-0.2211376;0.2406614;1.18122;-0.5992723;0;0;0
