SEP=;
index;label;RightUpperArm_boneIndex;RightUpperArm_quat9x_w;RightUpperArm_quat9x_x;RightUpperArm_quat9x_y;RightUpperArm_quat9x_z;RightUpperArm_gyroscope_x;RightUpperArm_gyroscope_y;RightUpperArm_gyroscope_z;RightUpperArm_accelerometer_x;RightUpperArm_accelerometer_y;RightUpperArm_accelerometer_z;RightLowerArm_boneIndex;RightLowerArm_quat9x_w;RightLowerArm_quat9x_x;RightLowerArm_quat9x_y;RightLowerArm_quat9x_z;RightLowerArm_gyroscope_x;RightLowerArm_gyroscope_y;RightLowerArm_gyroscope_z;RightLowerArm_accelerometer_x;RightLowerArm_accelerometer_y;RightLowerArm_accelerometer_z;LeftUpperArm_boneIndex;LeftUpperArm_quat9x_w;LeftUpperArm_quat9x_x;LeftUpperArm_quat9x_y;LeftUpperArm_quat9x_z;LeftUpperArm_gyroscope_x;LeftUpperArm_gyroscope_y;LeftUpperArm_gyroscope_z;LeftUpperArm_accelerometer_x;LeftUpperArm_accelerometer_y;LeftUpperArm_accelerometer_z;LeftLowerArm_boneIndex;LeftLowerArm_quat9x_w;LeftLowerArm_quat9x_x;LeftLowerArm_quat9x_y;LeftLowerArm_quat9x_z;LeftLowerArm_gyroscope_x;LeftLowerArm_gyroscope_y;LeftLowerArm_gyroscope_z;LeftLowerArm_accelerometer_x;LeftLowerArm_accelerometer_y;LeftLowerArm_accelerometer_z;Chest_boneIndex;Chest_quat9x_w;Chest_quat9x_x;Chest_quat9x_y;Chest_quat9x_z;Chest_gyroscope_x;Chest_gyroscope_y;Chest_gyroscope_z;Chest_accelerometer_x;Chest_accelerometer_y;Chest_accelerometer_z;Spine_boneIndex;Spine_quat9x_w;Spine_quat9x_x;Spine_quat9x_y;Spine_quat9x_z;Spine_gyroscope_x;Spine_gyroscope_y;Spine_gyroscope_z;Spine_accelerometer_x;Spine_accelerometer_y;Spine_accelerometer_z;RightUpperLeg_boneIndex;RightUpperLeg_quat9x_w;RightUpperLeg_quat9x_x;RightUpperLeg_quat9x_y;RightUpperLeg_quat9x_z;RightUpperLeg_gyroscope_x;RightUpperLeg_gyroscope_y;RightUpperLeg_gyroscope_z;RightUpperLeg_accelerometer_x;RightUpperLeg_accelerometer_y;RightUpperLeg_accelerometer_z;RightLowerLeg_boneIndex;RightLowerLeg_quat9x_w;RightLowerLeg_quat9x_x;RightLowerLeg_quat9x_y;RightLowerLeg_quat9x_z;RightLowerLeg_gyroscope_x;RightLowerLeg_gyroscope_y;RightLowerLeg_gyroscope_z;RightLowerLeg_accelerometer_x;RightLowerLeg_accelerometer_y;RightLowerLeg_accelerometer_z;LeftUpperLeg_boneIndex;LeftUpperLeg_quat9x_w;LeftUpperLeg_quat9x_x;LeftUpperLeg_quat9x_y;LeftUpperLeg_quat9x_z;LeftUpperLeg_gyroscope_x;LeftUpperLeg_gyroscope_y;LeftUpperLeg_gyroscope_z;LeftUpperLeg_accelerometer_x;LeftUpperLeg_accelerometer_y;LeftUpperLeg_accelerometer_z;LeftLowerLeg_boneIndex;LeftLowerLeg_quat9x_w;LeftLowerLeg_quat9x_x;LeftLowerLeg_quat9x_y;LeftLowerLeg_quat9x_z;LeftLowerLeg_gyroscope_x;LeftLowerLeg_gyroscope_y;LeftLowerLeg_gyroscope_z;LeftLowerLeg_accelerometer_x;LeftLowerLeg_accelerometer_y;LeftLowerLeg_accelerometer_z;pelvis_x;pelvis_y;pelvis_z;lowerSpine_x;lowerSpine_y;lowerSpine_z;middleSpine_x;middleSpine_y;middleSpine_z;upperSpine_x;upperSpine_y;upperSpine_z;rightClavicle_x;rightClavicle_y;rightClavicle_z;rightShoulder_x;rightShoulder_y;rightShoulder_z;rightElbow_x;rightElbow_y;rightElbow_z;rightWrist_x;rightWrist_y;rightWrist_z;leftClavicle_x;leftClavicle_y;leftClavicle_z;leftShoulder_x;leftShoulder_y;leftShoulder_z;leftElbow_x;leftElbow_y;leftElbow_z;leftWrist_x;leftWrist_y;leftWrist_z;rightHip_x;rightHip_y;rightHip_z;rightKnee_x;rightKnee_y;rightKnee_z;rightAnkle_x;rightAnkle_y;rightAnkle_z;leftHip_x;leftHip_y;leftHip_z;leftKnee_x;leftKnee_y;leftKnee_z;leftAnkle_x;leftAnkle_y;leftAnkle_z;
735731.058;NotLabelled;16384;-0.4598338;0.4210526;-0.5598859;-0.5457063;-6;-17;-14;-12;4054;174;65536;0.642507;-0.3614958;0.432133;0.5193906;19;-17;46;-1345;3858;-640;8192;0.6086655;-0.5526316;-0.3891967;-0.4155124;2;5;23;54;4182;282;32768;0.7137239;-0.4584487;-0.33518;-0.4099723;30;13;-121;1358;4338;-965;256;0.0166205;-0.04986149;-0.6786703;-0.73256;-6;-1;3;-74;3978;-494;128;-0.009695291;0.08587258;0.6357341;0.7670555;0;-4;-2;-296;3884;830;4;-0.4847645;0.4016621;-0.4792244;-0.6115676;1;-4;0;892;3924;-258;16;-0.06786703;-0.9855045;-0.06786703;0.1398892;0;1;-1;-467;-569;4034;2;0.5707296;-0.4903047;-0.3808864;-0.5373961;-1;-2;0;-920;3946;-318;8;-0.07063711;-0.9793351;0.1108033;0.1537396;0;0;0;1039;-415;3895;0.7180545;-0.1797199;0.3792678;0.7240285;0.3646798;0.3444149;0.7292783;0.8430772;0.3117606;0.7608337;1.57372;0.3720005;0.5165398;1.912751;0.3607674;0.1692987;1.782678;0.4121866;0.1221219;0.8578696;0.3833309;0;0;0;1.036399;1.890301;0.3607669;1.318797;1.733039;0.4121863;1.333828;0.7736015;0.3254087;1.440704;-0.09819651;-0.03002426;0.4057954;-0.2221951;0.3745357;0.4730437;-1.650405;0.06380568;0.7074656;-1.444763;1.373418;0.4057954;-0.2221951;0.3745357;0.4730437;-1.650405;0.06380568;0.7074656;-1.444763;1.373418
735751.1426;NotLabelled;16384;-0.4570637;0.4210526;-0.5634907;-0.5443213;-7;-19;-17;66;4052;168;65536;0.6381345;-0.3628809;0.4390582;0.5180055;18;-18;45;-1385;3890;-566;8192;0.6035398;-0.5554016;-0.3961219;-0.4127424;4;14;30;236;4106;264;32768;0.7027868;-0.4653739;-0.365651;-0.3947368;28;19;-110;1330;4214;-739;256;0.0166205;-0.04986149;-0.6786703;-0.73256;-8;-5;3;-28;4004;-464;128;-0.009695291;0.08587258;0.6357341;0.7670555;-1;-2;-3;-224;3934;884;4;-0.4847645;0.4016621;-0.4792244;-0.6115676;1;-2;0;894;3876;-214;16;-0.06786703;-0.9855045;-0.06786703;0.1398892;0;0;0;-421;-611;4042;2;0.5720306;-0.4903047;-0.3808864;-0.536011;-1;0;0;-928;3916;-264;8;-0.07063711;-0.9793351;0.1108033;0.1537396;0;1;0;989;-421;3907;0.7337683;-0.172441;0.3531696;0.7397424;0.3719554;0.3182672;0.7449921;0.8503504;0.2855695;0.7766894;1.581208;0.3430507;0.5324547;1.920239;0.3305801;0.1851988;1.790424;0.3825458;0.1363947;0.865509;0.3606775;0;0;0;1.05231;1.897696;0.3305792;1.334688;1.740577;0.3825447;1.353262;0.7805567;0.303228;1.482145;-0.09994364;-0.02218851;0.4215093;-0.2149167;0.3484415;0.4908747;-1.642353;0.03463606;0.7254043;-1.43671;1.344229;0.4215093;-0.2149167;0.3484415;0.4908747;-1.642353;0.03463606;0.7254043;-1.43671;1.344229
735772.0628;NotLabelled;16384;-0.4542936;0.4196676;-0.5667546;-0.5443213;-6;-21;-19;22;4058;160;65536;0.6336501;-0.3642659;0.4459834;0.5166205;15;-16;44;-1383;3900;-562;8192;0.5991949;-0.5581717;-0.4016621;-0.4099723;2;20;34;206;4186;274;32768;0.6983673;-0.466759;-0.3795014;-0.3878116;25;24;-100;1356;4236;-731;256;0.01800554;-0.05124654;-0.6800554;-0.7311459;-9;-2;2;122;4004;-350;128;-0.009695291;0.08725762;0.6357341;0.7668991;-2;1;-3;-296;3998;804;4;-0.4847645;0.4016621;-0.4792244;-0.6115676;1;0;0;894;3906;-274;16;-0.06786703;-0.9853069;-0.06786703;0.1412742;-1;0;0;-541;-669;4106;2;0.5720306;-0.4903047;-0.3808864;-0.536011;-2;1;0;-980;4002;-164;8;-0.07063711;-0.9793351;0.1108033;0.1537396;0;1;0;995;-461;3973;0.741379;-0.1680593;0.3329705;0.7473531;0.3763371;0.2980681;0.7526028;0.854732;0.2653703;0.7843001;1.58559;0.3228516;0.5400655;1.924621;0.310381;0.1928095;1.794806;0.3623466;0.1420335;0.8698516;0.347824;0;0;0;1.059921;1.902078;0.3103801;1.342298;1.744958;0.3623456;1.364223;0.7837701;0.2998025;1.529571;-0.1095638;0.03072743;0.42912;-0.210535;0.3282424;0.4984854;-1.637971;0.01443697;0.7330151;-1.432328;1.32403;0.42912;-0.210535;0.3282424;0.4984854;-1.637971;0.01443697;0.7330151;-1.432328;1.32403
735793.0383;NotLabelled;16384;-0.4515235;0.4196676;-0.5689639;-0.5443213;-6;-23;-20;68;4130;198;65536;0.6300462;-0.365651;0.4515235;0.5152354;13;-15;42;-1413;3928;-470;8192;0.5963951;-0.5581717;-0.4072022;-0.4085872;0;26;37;222;4176;310;32768;0.6918903;-0.4695291;-0.3919668;-0.3836565;21;27;-91;1358;4208;-653;256;0.01800554;-0.05124654;-0.6800554;-0.7311459;-9;0;3;120;4044;-388;128;-0.009695291;0.08725762;0.6357341;0.7668991;-1;-2;-3;-308;3974;770;4;-0.4847645;0.4016621;-0.4792244;-0.6115676;1;0;0;856;3876;-312;16;-0.06786703;-0.9853069;-0.06786703;0.1412742;0;4;-1;-517;-621;4084;2;0.5732149;-0.4889196;-0.3808864;-0.536011;-2;0;0;-982;3918;-154;8;-0.07063711;-0.9793351;0.1108033;0.1537396;0;0;0;993;-441;3913;0.747147;-0.1642828;0.3196548;0.7531212;0.380115;0.2847702;0.7583709;0.8585105;0.252088;0.7901095;1.589584;0.3067348;0.5458874;1.928575;0.2929931;0.1986343;1.798977;0.3455192;0.1462039;0.8740582;0.3353268;0;0;0;1.065742;1.90601;0.2929922;1.348121;1.74908;0.3455179;1.372676;0.7871041;0.2978191;1.55712;-0.1095452;0.05330151;0.434888;-0.2067585;0.3149251;0.5054568;-1.634194;0.001387365;0.7386472;-1.428335;1.311186;0.434888;-0.2067585;0.3149251;0.5054568;-1.634194;0.001387365;0.7386472;-1.428335;1.311186
735814.0355;NotLabelled;16384;-0.4487534;0.4196676;-0.572468;-0.5429363;-5;-21;-21;170;4148;160;65536;0.6263666;-0.367036;0.4570637;0.5138504;10;-13;41;-1501;3902;-514;8192;0.5912668;-0.5595568;-0.4127424;-0.4085872;0;30;39;252;4174;212;32768;0.6868563;-0.4709141;-0.4030471;-0.3795014;18;28;-81;1332;4110;-649;256;0.01800554;-0.05124654;-0.6814404;-0.7298552;-8;0;3;90;4022;-364;128;-0.009695291;0.08725762;0.6357341;0.7668991;2;0;-2;-298;3986;798;4;-0.4847645;0.4016621;-0.4778393;-0.6126505;1;0;0;854;3896;-322;16;-0.06786703;-0.9852105;-0.06925207;0.1412742;0;4;-1;-447;-641;4022;2;0.5732149;-0.4889196;-0.3808864;-0.536011;-1;1;0;-988;3918;-216;8;-0.07063711;-0.9793351;0.1108033;0.1537396;0;1;0;959;-447;3935;0.7508394;-0.1608052;0.3039593;0.7568135;0.3835926;0.2690748;0.7620633;0.8619881;0.2363927;0.7938018;1.593062;0.2910395;0.5495797;1.932052;0.2772977;0.2023267;1.802455;0.3298236;0.150489;0.8774619;0.3243601;0;0;0;1.069434;1.909487;0.277297;1.351814;1.752557;0.3298229;1.381156;0.7903061;0.2912601;1.576577;-0.1103191;0.07109506;0.4385803;-0.2032809;0.2992299;0.5091491;-1.630716;-0.01430778;0.742339;-1.424857;1.295491;0.4385803;-0.2032809;0.2992299;0.5091491;-1.630716;-0.01430778;0.742339;-1.424857;1.295491
735834.1786;NotLabelled;16384;-0.4459834;0.4196676;-0.5746287;-0.5429363;-5;-18;-23;148;4126;146;65536;0.6226097;-0.368421;0.4626039;0.5124654;9;-12;40;-1499;3948;-552;8192;0.5860118;-0.5609418;-0.4196676;-0.4072022;0;35;41;206;4198;198;32768;0.6818443;-0.4709141;-0.4127424;-0.3781163;14;30;-70;1376;4156;-629;256;0.01800554;-0.05263158;-0.6828254;-0.7284608;-9;0;2;36;4024;-234;128;-0.009695291;0.08725762;0.6371191;0.7657489;3;0;0;-282;3982;744;4;-0.4847645;0.4016621;-0.4778393;-0.6126505;1;0;0;822;3936;-346;16;-0.06786703;-0.9852105;-0.06925207;0.1412742;0;1;0;-447;-665;3992;2;0.5722921;-0.4889196;-0.3822715;-0.536011;-1;1;1;-926;3948;-258;8;-0.07063711;-0.9793351;0.1108033;0.1537396;0;0;0;1027;-463;3949;0.7566379;-0.1580415;0.2890394;0.7626119;0.3863564;0.2541549;0.7678617;0.8647518;0.2214729;0.7997468;1.596022;0.2733501;0.5555863;1.935003;0.2583668;0.2083175;1.805671;0.3114392;0.1546783;0.8807659;0.313245;0;0;0;1.075437;1.91234;0.2583661;1.357795;1.755557;0.3114386;1.38714;0.7929068;0.2846402;1.593955;-0.1099234;0.08485685;0.4443788;-0.2005172;0.2843099;0.5185292;-1.626988;-0.03277162;0.7515382;-1.42062;1.276979;0.4443788;-0.2005172;0.2843099;0.5185292;-1.626988;-0.03277162;0.7515382;-1.42062;1.276979
735855.0269;NotLabelled;16384;-0.4390582;0.4196676;-0.5825183;-0.5401662;-4;-10;-26;124;4060;154;65536;0.6169828;-0.3711911;0.4709141;0.5096953;5;-9;35;-1525;3906;-552;8192;0.5819582;-0.5609418;-0.4265928;-0.4058172;0;39;41;136;4190;158;32768;0.6775162;-0.4709141;-0.4210526;-0.3767313;10;32;-60;1336;4076;-529;256;0.0166205;-0.05263158;-0.6842105;-0.7271931;-10;0;2;40;4058;-254;128;-0.009695291;0.08725762;0.6371191;0.7657489;3;0;0;-264;4014;776;4;-0.4847645;0.4016621;-0.4778393;-0.6126505;1;0;0;894;3922;-274;16;-0.06786703;-0.9852105;-0.06925207;0.1412742;0;0;0;-325;-677;4004;2;0.5722921;-0.4889196;-0.3822715;-0.536011;-1;0;0;-960;3910;-254;8;-0.07063711;-0.9793351;0.1108033;0.1537396;0;0;0;941;-431;3907;0.7574344;-0.1560702;0.2806814;0.763407;0.3881979;0.2438353;0.7686554;0.8664732;0.2094295;0.8020745;1.597865;0.2585356;0.558619;1.937297;0.2423108;0.2110905;1.808891;0.2959295;0.158129;0.8839674;0.3023136;0;0;0;1.078421;1.913549;0.2423099;1.360461;1.756379;0.2959282;1.392436;0.7935181;0.2835918;1.608003;-0.1107264;0.1001292;0.4451752;-0.1985621;0.2761173;0.5199423;-1.625033;-0.0408193;0.7504029;-1.418665;1.269382;0.4451752;-0.1985621;0.2761173;0.5199423;-1.625033;-0.0408193;0.7504029;-1.418665;1.269382
735876.0753;NotLabelled;16384;-0.4376731;0.4210526;-0.5838422;-0.5387812;-3;-8;-25;134;4034;202;65536;0.6151674;-0.3725762;0.4736842;0.5083103;2;-6;32;-1533;3912;-514;8192;0.5705615;-0.5609418;-0.4404432;-0.4072022;1;42;38;6;4134;96;32768;0.6680425;-0.4709141;-0.433518;-0.3795014;3;32;-41;1490;4032;-561;256;0.0166205;-0.05124654;-0.6855956;-0.7259864;-11;2;1;96;4072;-318;128;-0.009695291;0.08725762;0.6371191;0.7657489;6;0;0;-244;4020;640;4;-0.4847645;0.4016621;-0.4778393;-0.6126505;1;0;0;828;3904;-318;16;-0.06786703;-0.9852105;-0.06925207;0.1412742;0;0;0;-501;-681;4042;2;0.5722921;-0.4889196;-0.3822715;-0.536011;-1;0;0;-960;3906;-226;8;-0.07063711;-0.9793351;0.1108033;0.1537396;0;0;0;945;-449;3945;0.7646654;-0.153141;0.2488535;0.770638;0.3911271;0.2120074;0.7758865;0.8694024;0.1776016;0.8109289;1.600895;0.2240013;0.5682205;1.940801;0.2065644;0.2204188;1.813362;0.2607153;0.1645966;0.888876;0.2839101;0;0;0;1.087969;1.915906;0.2065637;1.369671;1.758313;0.2607146;1.406435;0.7955441;0.2601147;1.628811;-0.1096878;0.09013827;0.4524062;-0.1956334;0.2442894;0.5265456;-1.622104;-0.07279469;0.7596;-1.415736;1.236948;0.4524062;-0.1956334;0.2442894;0.5265456;-1.622104;-0.07279469;0.7596;-1.415736;1.236948
735896.1863;NotLabelled;16384;-0.434903;0.4224377;-0.5849108;-0.5387812;-3;-7;-24;84;4038;136;65536;0.6121805;-0.3739612;0.4764543;0.5083103;1;-2;30;-1549;3892;-592;8192;0.5665193;-0.5595568;-0.4473684;-0.4072022;2;38;35;-70;4144;98;32768;0.6645356;-0.4709141;-0.4376731;-0.3808864;0;31;-33;1424;3998;-583;256;0.0166205;-0.05124654;-0.6869806;-0.7246759;-11;5;1;76;4006;-288;128;-0.009695291;0.08725762;0.6385041;0.7645944;7;1;0;-292;3956;656;4;-0.4847645;0.4016621;-0.4778393;-0.6126505;0;0;0;830;3858;-282;16;-0.06786703;-0.9852105;-0.06925207;0.1412742;0;1;0;-457;-657;4062;2;0.5735862;-0.4889196;-0.3822715;-0.534626;0;0;0;-912;3912;-210;8;-0.07063711;-0.9793351;0.1108033;0.1537396;0;0;0;979;-427;3985;0.7684403;-0.1508546;0.2399402;0.7744129;0.3934135;0.2030941;0.7796613;0.8716888;0.1686882;0.8134571;1.603412;0.2122967;0.5701628;1.942832;0.1936103;0.2225897;1.815004;0.2483093;0.1671116;0.890645;0.2768053;0;0;0;1.089953;1.918828;0.1936096;1.371934;1.761926;0.2483086;1.410785;0.7995043;0.2709123;1.636557;-0.1084476;0.1211162;0.456181;-0.193347;0.235376;0.5296504;-1.619818;-0.08186403;0.7654716;-1.41345;1.227383;0.456181;-0.193347;0.235376;0.5296504;-1.619818;-0.08186403;0.7654716;-1.41345;1.227383
735918.0563;NotLabelled;16384;-0.432133;0.4224377;-0.5882286;-0.5373961;-1;-5;-23;50;3978;126;65536;0.6094624;-0.3767313;0.4792244;0.5069252;0;0;28;-1555;3850;-638;8192;0.5595568;-0.561094;-0.4529086;-0.4085872;4;35;31;-164;4086;110;32768;0.6601783;-0.4709141;-0.4418283;-0.3836565;-2;31;-27;1442;3968;-583;256;0.0166205;-0.05124654;-0.6883656;-0.7233604;-10;6;1;12;3970;-246;128;-0.009695291;0.08725762;0.6398892;0.7634356;7;1;0;-262;3964;692;4;-0.4847645;0.4016621;-0.4778393;-0.6126505;1;2;0;766;3848;-246;16;-0.06786703;-0.9852105;-0.06925207;0.1412742;0;1;0;-507;-637;4032;2;0.5735862;-0.4889196;-0.3822715;-0.534626;-1;1;0;-840;3936;-150;8;-0.07063711;-0.9793351;0.1108033;0.1537396;0;0;0;941;-437;3907;0.7651466;-0.1488051;0.2354316;0.7711177;0.3953271;0.1966214;0.7763648;0.8734741;0.1604897;0.8103039;1.605352;0.2013054;0.5670691;1.944745;0.1813696;0.2194822;1.81719;0.2366164;0.1670133;0.8928113;0.2697982;0;0;0;1.086855;1.920644;0.1813684;1.368817;1.763898;0.2366147;1.41193;0.8019233;0.2685765;1.638132;-0.1070356;0.1256964;0.4528872;-0.1913137;0.2310332;0.5263284;-1.617784;-0.0862132;0.7622653;-1.411416;1.223013;0.4528872;-0.1913137;0.2310332;0.5263284;-1.617784;-0.0862132;0.7622653;-1.411416;1.223013
735939.0352;NotLabelled;16384;-0.4293629;0.4252077;-0.5895236;-0.536011;0;-3;-21;102;3978;128;65536;0.6086639;-0.3781163;0.4806094;0.5055401;-1;0;26;-1523;3818;-630;8192;0.5554016;-0.5618525;-0.4570637;-0.4085872;5;29;25;-194;4016;154;32768;0.6576848;-0.4695291;-0.4445983;-0.3864266;-4;26;-22;1516;3836;-599;256;0.01523546;-0.04986149;-0.6897507;-0.7221674;-8;5;1;104;4026;-208;128;-0.01108033;0.08587258;0.6412742;0.762411;10;2;1;-280;3946;730;4;-0.4847645;0.4030471;-0.4778393;-0.6117402;0;0;0;794;3922;-298;16;-0.06786703;-0.9852105;-0.06925207;0.1412742;0;1;0;-501;-663;3990;2;0.5735862;-0.4889196;-0.3822715;-0.534626;-1;4;-1;-898;3982;-200;8;-0.07063711;-0.9794908;0.1094183;0.1537396;1;0;0;933;-447;3937;0.7663569;-0.1465964;0.2265009;0.7723265;0.3973913;0.1857238;0.7775721;0.8754053;0.1478636;0.8116543;1.607427;0.185881;0.5684791;1.946787;0.1646935;0.2208782;1.819508;0.2204878;0.1669769;0.8954949;0.2607776;0;0;0;1.08826;1.922589;0.1646927;1.370203;1.766003;0.2204868;1.409321;0.8043561;0.2650052;1.633953;-0.1060314;0.1289112;0.4540974;-0.1891203;0.2222686;0.5275106;-1.615591;-0.09498417;0.7635626;-1.409223;1.214221;0.4540974;-0.1891203;0.2222686;0.5275106;-1.615591;-0.09498417;0.7635626;-1.409223;1.214221
735960.0421;NotLabelled;16384;-0.4265928;0.4265928;-0.5917873;-0.534626;0;0;-17;118;3954;168;65536;0.6058857;-0.3808864;0.4833795;0.5041551;-3;1;22;-1597;3806;-706;8192;0.5512465;-0.5626748;-0.4598338;-0.4099723;5;21;21;-322;4002;232;32768;0.6551086;-0.4695291;-0.4459834;-0.3891967;-7;19;-17;1538;3762;-709;256;0.01523546;-0.04847645;-0.6911357;-0.7209364;-7;5;1;78;4052;-110;128;-0.01108033;0.08587258;0.6426592;0.7612439;10;-1;1;-196;3964;692;4;-0.4847645;0.4030471;-0.4778393;-0.6117402;0;0;1;718;3888;-328;16;-0.06786703;-0.9852105;-0.06925207;0.1412742;0;1;1;-483;-695;4088;2;0.5713645;-0.4889196;-0.3836565;-0.536011;-1;6;-1;-924;3966;-238;8;-0.06925207;-0.979434;0.1108033;0.1537396;1;0;0;983;-415;3953;0.7649593;-0.1458049;0.2209596;0.7709272;0.3980269;0.1781448;0.7761711;0.875895;0.138494;0.8104585;1.608045;0.1737725;0.5673718;1.947389;0.1513605;0.2197462;1.820415;0.2076899;0.1689722;0.8965912;0.2556748;0;0;0;1.087146;1.92305;0.1513596;1.369056;1.766596;0.2076888;1.407723;0.8053751;0.2609376;1.631511;-0.1054087;0.1261105;0.4526996;-0.188344;0.2168994;0.5259402;-1.615507;-0.0972665;0.7672386;-1.409139;1.210982;0.4526996;-0.188344;0.2168994;0.5259402;-1.615507;-0.0972665;0.7672386;-1.409139;1.210982
735980.2162;NotLabelled;16384;-0.4265928;0.4279778;-0.5920368;-0.533241;0;5;-13;136;4018;244;65536;0.6030246;-0.3836565;0.4847645;0.5041551;-4;5;20;-1561;3746;-754;8192;0.5484765;-0.5620999;-0.4626039;-0.4113573;6;2;11;-450;4076;240;32768;0.6516735;-0.4695291;-0.4473684;-0.3933518;-10;1;-10;1592;3734;-767;256;0.01523546;-0.04847645;-0.6925207;-0.7196061;-9;6;1;30;4120;-124;128;-0.01108033;0.08448754;0.6440443;0.7602276;14;-2;1;-230;3998;720;4;-0.4847645;0.4016621;-0.4778393;-0.6126505;0;0;3;790;3882;-290;16;-0.06786703;-0.9854081;-0.06925207;0.1398892;0;2;0;-505;-589;4084;2;0.5725468;-0.4875346;-0.3836565;-0.536011;-1;5;-1;-980;3916;-252;8;-0.06925207;-0.979434;0.1108033;0.1537396;0;-1;0;959;-445;3965;0.7659926;-0.1425729;0.2113753;0.7719587;0.4011002;0.1665896;0.777201;0.8788218;0.125207;0.8102198;1.611159;0.1576728;0.5665388;1.949991;0.1340039;0.2191444;1.822629;0.1908819;0.1693314;0.8991652;0.2462218;0;0;0;1.086355;1.926558;0.1340031;1.368546;1.770812;0.1908811;1.403849;0.8098297;0.2504082;1.624236;-0.1020174;0.1171742;0.4537327;-0.1851263;0.2074818;0.5263147;-1.61229;-0.106837;0.7703543;-1.405922;1.200903;0.4537327;-0.1851263;0.2074818;0.5263147;-1.61229;-0.106837;0.7703543;-1.405922;1.200903
736001.0309;NotLabelled;16384;-0.4265928;0.4293629;-0.5922799;-0.5318559;-2;11;-11;218;4020;214;65536;0.6032982;-0.3850415;0.4847645;0.5027701;-5;10;17;-1597;3808;-802;8192;0.5484765;-0.563237;-0.4612188;-0.4113573;7;-8;8;-436;4068;256;32768;0.6507853;-0.4709141;-0.4459834;-0.3947368;-12;-7;-7;1540;3730;-859;256;0.01385042;-0.04709141;-0.6939058;-0.7183908;-9;4;2;-44;4100;-136;128;-0.01246537;0.08448754;0.6468144;0.7578506;18;-2;2;-172;3992;624;4;-0.4847645;0.4016621;-0.4764543;-0.6137282;1;0;3;732;3896;-250;16;-0.06786703;-0.9853098;-0.07063711;0.1398892;0;3;0;-497;-697;4096;2;0.5725468;-0.4875346;-0.3836565;-0.536011;-1;0;-2;-974;3848;-196;8;-0.06925207;-0.9792156;0.1108033;0.1551246;0;0;0;973;-387;3943;0.7629367;-0.1403475;0.2090177;0.7689009;0.4031577;0.1622424;0.7741416;0.8807249;0.1191117;0.807294;1.613176;0.1487625;0.5636679;1.951958;0.1238362;0.2162613;1.824874;0.1812626;0.1662795;0.9015884;0.2393444;0;0;0;1.08348;1.928432;0.1238353;1.365654;1.772856;0.1812613;1.400043;0.8120708;0.2443689;1.615336;-0.101264;0.1130058;0.4506766;-0.1829152;0.2052925;0.5221242;-1.609387;-0.1124089;0.7625973;-1.403241;1.196027;0.4506766;-0.1829152;0.2052925;0.5221242;-1.609387;-0.1124089;0.7625973;-1.403241;1.196027
736022.0351;NotLabelled;16384;-0.4279778;0.4307479;-0.5915166;-0.5304709;-1;19;-10;144;3948;262;65536;0.6035652;-0.3864266;0.4847645;0.501385;-5;12;13;-1673;3862;-858;8192;0.5484765;-0.5653753;-0.4598338;-0.4099723;7;-18;6;-460;4060;336;32768;0.6508325;-0.4722992;-0.4432133;-0.3961219;-13;-14;-2;1548;3764;-905;256;0.01385042;-0.04709141;-0.6939058;-0.7183908;-8;4;1;-20;4074;-244;128;-0.01385042;0.08448754;0.6495845;0.7554535;20;-2;2;-184;3886;422;4;-0.4861496;0.4016621;-0.4764543;-0.6126316;1;0;4;698;3940;-304;16;-0.06786703;-0.9853098;-0.07063711;0.1398892;0;3;0;-509;-633;4070;2;0.5724261;-0.4861496;-0.3836565;-0.5373961;0;1;-4;-922;3950;-216;8;-0.06925207;-0.9792156;0.1108033;0.1551246;0;0;0;965;-469;3975;0.763703;-0.1396923;0.2143836;0.7696634;0.4034529;0.1636009;0.7749004;0.8806891;0.116949;0.8082329;1.613238;0.1438381;0.5646837;1.951983;0.1176787;0.2172565;1.8252;0.1756418;0.1673516;0.9020991;0.2366609;0;0;0;1.08449;1.928334;0.1176781;1.366637;1.772906;0.1756412;1.398934;0.8120255;0.2384092;1.608976;-0.102365;0.1058965;0.4514427;-0.1822863;0.2109977;0.5251727;-1.607777;-0.1105593;0.7705973;-1.401127;1.196877;0.4514427;-0.1822863;0.2109977;0.5251727;-1.607777;-0.1105593;0.7705973;-1.401127;1.196877
736043.0442;NotLabelled;16384;-0.4293629;0.433518;-0.5909666;-0.5277008;-2;22;-8;26;3996;320;65536;0.6028958;-0.3891967;0.4833795;0.501385;-6;16;9;-1563;3862;-848;8192;0.5512465;-0.5659298;-0.4570637;-0.4085872;5;-30;4;-454;4132;364;32768;0.6517059;-0.4736842;-0.4404432;-0.3961219;-15;-24;1;1666;3750;-997;256;0.01385042;-0.04709141;-0.6952909;-0.7170503;-7;3;1;-58;4108;-314;128;-0.01385042;0.08448754;0.6509695;0.7542604;16;1;0;-204;3976;392;4;-0.4861496;0.4016621;-0.4764543;-0.6126316;0;-2;5;626;3936;-288;16;-0.06786703;-0.9853098;-0.07063711;0.1398892;0;1;0;-509;-661;4090;2;0.5724261;-0.4861496;-0.3836565;-0.5373961;-1;1;-4;-782;3996;-206;8;-0.06925207;-0.9792156;0.1108033;0.1551246;0;0;0;947;-447;3967;0.764527;-0.1385069;0.2194339;0.770483;0.4042478;0.1646321;0.7757161;0.8811255;0.1144488;0.8090486;1.613675;0.1413379;0.5654994;1.952419;0.1151786;0.2180722;1.825636;0.1731417;0.1674679;0.9026055;0.2346381;0;0;0;1.085306;1.92877;0.1151779;1.367452;1.773343;0.1731409;1.397924;0.8125386;0.2379662;1.602526;-0.1026936;0.1027784;0.4522665;-0.1811247;0.2163886;0.5227886;-1.606714;-0.1054485;0.7682127;-1.400064;1.201988;0.4522665;-0.1811247;0.2163886;0.5227886;-1.606714;-0.1054485;0.7682127;-1.400064;1.201988
736064.1758;NotLabelled;16384;-0.433518;0.4390582;-0.5875287;-0.5235457;-4;26;-5;-16;3892;352;65536;0.6067036;-0.3919668;0.4792244;0.4986149;-8;25;0;-1573;3694;-906;8192;0.5540166;-0.5685524;-0.4529086;-0.4058172;2;-44;3;-486;4084;400;32768;0.653405;-0.4764543;-0.434903;-0.3961219;-16;-39;7;1766;3756;-1037;256;0.01385042;-0.04709141;-0.6966759;-0.7157047;-9;-1;1;0;4132;-282;128;-0.01523546;0.08448754;0.6565097;0.7494163;26;-3;0;-248;4122;390;4;-0.4847645;0.400277;-0.4764543;-0.6146324;0;-3;6;710;3896;-300;16;-0.06786703;-0.9853098;-0.07063711;0.1398892;-1;0;0;-553;-703;4140;2;0.5724261;-0.4861496;-0.3836565;-0.5373961;-2;-1;-5;-836;3912;-248;8;-0.06925207;-0.9792156;0.1108033;0.1551246;0;0;0;981;-455;3957;0.7605658;-0.1371045;0.2248342;0.7665195;0.4054461;0.1680474;0.7717507;0.8821373;0.11612;0.8052135;1.614779;0.1401784;0.5617129;1.953461;0.1127885;0.2142821;1.826961;0.1713443;0.16284;0.9039636;0.2326581;0;0;0;1.081515;1.929724;0.1127218;1.363654;1.774475;0.1711977;1.395064;0.8132467;0.2289014;1.596111;-0.1023984;0.09119856;0.4483051;-0.1797333;0.2219575;0.5187581;-1.605323;-0.09989484;0.7644632;-1.398673;1.207489;0.4483051;-0.1797333;0.2219575;0.5187581;-1.605323;-0.09989484;0.7644632;-1.398673;1.207489
736085.2087;NotLabelled;16384;-0.434903;0.4404432;-0.5879302;-0.5207756;-6;28;-5;-74;3936;316;65536;0.6091208;-0.3933518;0.4764543;0.4972299;-8;28;-4;-1469;3754;-990;8192;0.5623268;-0.5759026;-0.4418283;-0.3961219;-1;-64;1;-294;4164;366;32768;0.6609348;-0.4819945;-0.4196676;-0.3933518;-18;-64;21;1538;3930;-1045;256;0.01523546;-0.04709141;-0.6980609;-0.7143257;-14;-1;1;-40;4080;-220;128;-0.0166205;0.08448754;0.6606648;0.7457262;32;-2;-1;-236;4018;376;4;-0.4847645;0.398892;-0.4764543;-0.6155322;0;-4;9;780;3856;-198;16;-0.06786703;-0.9852096;-0.07202215;0.1398892;-2;2;-1;-545;-645;4130;2;0.5735996;-0.4847645;-0.3836565;-0.5373961;-1;0;-6;-908;3966;-246;8;-0.06925207;-0.9792156;0.1108033;0.1551246;1;0;0;965;-411;3907;0.7581833;-0.1364827;0.242015;0.7641272;0.4051685;0.1772069;0.7693493;0.8810391;0.1182322;0.8029361;1.613763;0.1394626;0.5594909;1.952376;0.1107786;0.2120417;1.826162;0.169839;0.1606728;0.9034929;0.2359679;0;0;0;1.079289;1.928553;0.1107778;1.361405;1.773482;0.1698381;1.391906;0.8123446;0.2294873;1.585831;-0.1040964;0.0869534;0.4459221;-0.1791492;0.2398198;0.5184547;-1.603935;-0.08511241;0.764109;-1.397285;1.222281;0.4459221;-0.1791492;0.2398198;0.5184547;-1.603935;-0.08511241;0.764109;-1.397285;1.222281
736106.1088;NotLabelled;16384;-0.4376731;0.4432133;-0.5862375;-0.5180055;-5;28;-3;-122;4022;334;65536;0.6115096;-0.3947368;0.4736842;0.4958449;-8;29;-9;-1447;3820;-952;8192;0.567867;-0.5784684;-0.4362881;-0.3905817;-2;-72;0;-172;4214;340;32768;0.6657586;-0.4847645;-0.4113573;-0.3905817;-17;-69;27;1434;3962;-1109;256;0.01523546;-0.04709141;-0.699446;-0.7129696;-19;0;1;20;4038;-136;128;-0.01800554;0.08448754;0.66482;0.7419919;32;-6;-1;-238;4072;442;4;-0.4861496;0.3961219;-0.4750692;-0.6172968;0;-4;13;762;3904;-296;16;-0.06925207;-0.9848132;-0.0734072;0.1412742;-1;2;-2;-531;-685;4016;2;0.5743933;-0.4833795;-0.3822715;-0.5387812;-3;2;-9;-942;3926;-254;8;-0.06925207;-0.9792156;0.1108033;0.1551246;0;2;0;959;-421;3923;0.7610351;-0.135077;0.2573392;0.7669708;0.4058151;0.1864737;0.7721852;0.8809962;0.1221774;0.8044479;1.613857;0.1405087;0.5603846;1.951914;0.1105322;0.213175;1.825304;0.1701535;0.1587025;0.9030194;0.2390934;0;0;0;1.080225;1.929032;0.1105312;1.362631;1.774708;0.1701521;1.393635;0.8134217;0.2271088;1.574671;-0.1031179;0.06909528;0.4487738;-0.1777649;0.2556599;0.5207571;-1.601842;-0.07249121;0.7637108;-1.394688;1.235326;0.4487738;-0.1777649;0.2556599;0.5207571;-1.601842;-0.07249121;0.7637108;-1.394688;1.235326
736127.2113;NotLabelled;16384;-0.4404432;0.4459834;-0.5845007;-0.5152354;-5;24;-2;-176;4092;300;65536;0.6149305;-0.3961219;0.4695291;0.4944598;-7;27;-14;-1371;3970;-982;8192;0.5720221;-0.5841625;-0.4293629;-0.3836565;-4;-76;-2;-84;4154;214;32768;0.6718708;-0.4889196;-0.400277;-0.3864266;-16;-71;31;1174;3984;-1157;256;0.0166205;-0.04709141;-0.702216;-0.7102104;-27;-7;1;6;4192;-28;128;-0.01800554;0.08587258;0.66759;0.7393411;38;-4;-2;-290;4054;322;4;-0.4861496;0.3947368;-0.4750692;-0.6181834;0;-6;13;766;3882;-258;16;-0.06925207;-0.9848132;-0.0734072;0.1412742;-1;-2;-2;-521;-709;4102;2;0.5742564;-0.4819945;-0.3822715;-0.5401662;-2;-1;-10;-968;3908;-176;8;-0.06925207;-0.9793713;0.1094183;0.1551246;0;1;0;971;-367;3965;0.7606655;-0.1343699;0.2743684;0.766592;0.4056911;0.1974229;0.7717983;0.8801188;0.1277853;0.8041898;1.61304;0.1432732;0.5601793;1.95102;0.1120296;0.2129583;1.824702;0.1722001;0.1571476;0.9025521;0.2418699;0;0;0;1.080016;1.928049;0.1120286;1.362406;1.773908;0.1721984;1.396616;0.8125396;0.2258338;1.572206;-0.1035476;0.05927876;0.448404;-0.1770735;0.2732079;0.518378;-1.598784;-0.0654674;0.7645665;-1.387235;1.241041;0.448404;-0.1770735;0.2732079;0.518378;-1.598784;-0.0654674;0.7645665;-1.387235;1.241041
736149.0488;NotLabelled;16384;-0.4432133;0.4473684;-0.5837831;-0.5124654;-6;19;-2;-180;4054;332;65536;0.6182982;-0.3975069;0.4653739;0.4930748;-6;24;-17;-1345;3944;-944;8192;0.5775623;-0.5882531;-0.4224377;-0.3767313;-6;-78;0;-82;4158;126;32768;0.6771225;-0.4916897;-0.3905817;-0.3836565;-15;-69;34;1052;4036;-1071;256;0.01800554;-0.04847645;-0.7073333;-0.7049862;-34;-11;2;110;4332;-66;128;-0.01939058;0.08587258;0.6731302;0.7342654;36;-4;-2;-304;4112;220;4;-0.4861496;0.3933518;-0.4750692;-0.6190656;0;-6;14;810;3910;-272;16;-0.07063711;-0.9848171;-0.07202215;0.1412742;-2;-3;-2;-515;-623;3976;2;0.5763338;-0.4806094;-0.3808864;-0.5401662;-2;-2;-11;-1002;3958;-132;8;-0.06925207;-0.9793713;0.1094183;0.1551246;0;2;0;1003;-421;3907;0.7606483;-0.1337585;0.2939458;0.7665684;0.4057155;0.2129879;0.7717687;0.8796124;0.1398257;0.8029743;1.612685;0.1495444;0.5584043;1.950012;0.1157315;0.2114091;1.823607;0.1770128;0.1542113;0.9015889;0.2472931;0;0;0;1.078278;1.927886;0.1157304;1.360938;1.77468;0.1770112;1.394385;0.8133569;0.2319177;1.562584;-0.1022825;0.05556363;0.4483867;-0.1764698;0.2931283;0.5177785;-1.597443;-0.0487486;0.7616511;-1.385894;1.258195;0.4483867;-0.1764698;0.2931283;0.5177785;-1.597443;-0.0487486;0.7616511;-1.385894;1.258195
736170.1789;NotLabelled;16384;-0.4445983;0.4487534;-0.5828804;-0.5110803;-7;15;-4;-206;3966;372;65536;0.6203734;-0.3975069;0.4626039;0.4930748;-5;19;-20;-1275;3846;-940;8192;0.5831025;-0.5921017;-0.4155124;-0.3698061;-7;-76;1;62;4136;206;32768;0.6821734;-0.4944598;-0.3808864;-0.3808864;-14;-66;40;1126;3954;-929;256;0.02077562;-0.05124654;-0.7152516;-0.6966759;-43;-10;2;50;4056;-10;128;-0.02077562;0.08587258;0.6814404;0.7265213;42;-4;0;-192;4022;-30;4;-0.4861496;0.3905817;-0.4736842;-0.6218745;1;-5;16;838;3924;-334;16;-0.07063711;-0.9846175;-0.07202215;0.1426593;-1;0;-2;-421;-663;4038;2;0.5772467;-0.4806094;-0.3795014;-0.5401662;-2;-2;-13;-1008;3960;-162;8;-0.06786703;-0.9794682;0.1094183;0.1551246;1;2;0;949;-437;3915;0.7602509;-0.133347;0.3280242;0.766157;0.4048429;0.2389279;0.7713447;0.8775806;0.1586168;0.8030388;1.610696;0.15767;0.5586696;1.94766;0.1191131;0.21163;1.822391;0.1824379;0.1507043;0.9006243;0.2529039;0;0;0;1.078528;1.925189;0.1191121;1.361126;1.7727;0.1824367;1.396292;0.8113413;0.2356034;1.558141;-0.1035681;0.04977462;0.4479893;-0.1760654;0.3279033;0.5174321;-1.596294;-0.01704105;0.7566227;-1.381599;1.290255;0.4479893;-0.1760654;0.3279033;0.5174321;-1.596294;-0.01704105;0.7566227;-1.381599;1.290255
736191.1802;NotLabelled;16384;-0.4473684;0.4501385;-0.5833213;-0.5069252;-7;10;-6;-122;3830;414;65536;0.6262702;-0.3961219;0.4542936;0.4944598;-6;10;-26;-1231;3802;-918;8192;0.5886427;-0.5947605;-0.4099723;-0.3628809;-9;-69;3;174;3970;284;32768;0.6870114;-0.4972299;-0.3698061;-0.3795014;-15;-65;46;1218;3786;-861;256;0.02216066;-0.05124654;-0.7205651;-0.6911357;-45;-12;2;80;3948;6;128;-0.02216066;0.08587258;0.6869806;0.7212437;48;-1;0;-216;4102;-76;4;-0.4875346;0.3891967;-0.4736842;-0.6216584;1;-5;18;804;3858;-296;16;-0.07063711;-0.9846175;-0.07202215;0.1426593;-1;0;-2;-531;-745;4058;2;0.5771005;-0.4792244;-0.3795014;-0.5415512;-2;-1;-12;-976;3940;-184;8;-0.06786703;-0.9794682;0.1094183;0.1551246;1;1;0;961;-397;4003;0.7565078;-0.1312714;0.3778963;0.76239;0.4047484;0.276558;0.7675563;0.8755336;0.1854943;0.8000994;1.6084;0.1678415;0.5560822;1.944688;0.1218707;0.2089617;1.821301;0.1883699;0.1469302;0.8996;0.2587063;0;0;0;1.075914;1.921608;0.1218693;1.358399;1.770266;0.1883677;1.395322;0.8088689;0.2396219;1.551273;-0.1052804;0.04520534;0.4442463;-0.1739807;0.3788271;0.517416;-1.591653;0.02427107;0.7506784;-1.376727;1.332599;0.4442463;-0.1739807;0.3788271;0.517416;-1.591653;0.02427107;0.7506784;-1.376727;1.332599
736212.0298;NotLabelled;16384;-0.4487534;0.4515235;-0.5823882;-0.5055401;-8;10;-6;-28;3716;482;65536;0.6290438;-0.3947368;0.4501385;0.4958449;-6;10;-29;-1291;3604;-904;8192;0.5969529;-0.6004103;-0.4016621;-0.3490305;-14;-46;4;162;3762;164;32768;0.6980087;-0.5;-0.3476454;-0.3767313;-16;-59;48;836;3582;-711;256;0.0235457;-0.05401662;-0.7255939;-0.6855956;-46;-14;2;144;3936;60;128;-0.0235457;0.08587258;0.6939058;0.7145392;58;-2;3;-264;4124;48;4;-0.4889196;0.3850415;-0.4709141;-0.6252524;0;-8;22;732;3880;-272;16;-0.07063711;-0.9844158;-0.07202215;0.1440443;-1;-1;-2;-479;-647;4052;2;0.5811946;-0.4764543;-0.3767313;-0.5415512;-2;-4;-14;-998;3956;-108;8;-0.06786703;-0.9794682;0.1094183;0.1551246;0;0;0;947;-405;3917;0.757015;-0.1318855;0.4211635;0.7628793;0.4025135;0.3115963;0.7680296;0.8718429;0.2133054;0.7997212;1.604387;0.184359;0.5552884;1.939651;0.1333871;0.2083537;1.816908;0.2020133;0.1403874;0.8958249;0.2749272;0;0;0;1.075146;1.917164;0.1333861;1.357848;1.767184;0.2020119;1.399186;0.8058534;0.25111;1.544979;-0.1074672;0.04525492;0.4447536;-0.1745749;0.4228034;0.5141737;-1.591555;0.06474303;0.7452714;-1.376629;1.373455;0.4447536;-0.1745749;0.4228034;0.5141737;-1.591555;0.06474303;0.7452714;-1.376629;1.373455
736233.3302;NotLabelled;16384;-0.4487534;0.4515235;-0.5847812;-0.5027701;-8;8;-6;-212;3580;476;65536;0.6309074;-0.3947368;0.4459834;0.4972299;-6;11;-31;-1273;3494;-946;8192;0.599723;-0.6018958;-0.398892;-0.3448753;-15;-28;5;296;3774;172;32768;0.7021833;-0.5027701;-0.3365651;-0.3753462;-16;-56;50;862;3596;-751;256;0.02631579;-0.05540166;-0.7292991;-0.6814404;-49;-12;2;150;3996;166;128;-0.02631579;0.08448754;0.700831;0.7078173;74;-2;5;-272;4054;6;4;-0.4903047;0.3822715;-0.4695291;-0.6269069;-1;-13;24;760;3846;-240;16;-0.07202215;-0.9843154;-0.07202215;0.1440443;-2;-1;-2;-505;-771;4118;2;0.58209;-0.4764543;-0.3753462;-0.5415512;-3;-5;-16;-1052;3912;-154;8;-0.06786703;-0.9792479;0.1094183;0.1565097;1;0;-1;961;-421;3939;0.7505499;-0.1313667;0.4638745;0.75639;0.4008126;0.3439893;0.7615185;0.8681531;0.236637;0.7952997;1.600098;0.1969096;0.5517989;1.935282;0.1411723;0.2045587;1.814563;0.2118152;0.1355832;0.8935447;0.2845905;0;0;0;1.07159;1.911295;0.1411711;1.353905;1.761524;0.2118136;1.404081;0.800684;0.2622557;1.532857;-0.1089029;0.03018746;0.438289;-0.174016;0.4664062;0.5100743;-1.586542;0.09160434;0.7376412;-1.371385;1.400898;0.438289;-0.174016;0.4664062;0.5100743;-1.586542;0.09160434;0.7376412;-1.371385;1.400898
736253.03;NotLabelled;16384;-0.4501385;0.4529086;-0.5838341;-0.501385;-10;5;-7;-104;3586;460;65536;0.6335971;-0.3933518;0.4418283;0.4986149;-6;12;-31;-1261;3474;-926;8192;0.6043878;-0.599723;-0.3975069;-0.3421052;-15;-21;4;-44;3728;150;32768;0.7067486;-0.5027701;-0.3268698;-0.3753462;-14;-52;52;1154;3500;-725;256;0.02770083;-0.0567867;-0.7355523;-0.6745152;-54;-11;1;198;4084;194;128;-0.02770083;0.08310249;0.7106599;0.6980609;73;4;6;-256;3900;90;4;-0.4903047;0.3795014;-0.4695291;-0.6285877;-1;-15;25;800;3810;-320;16;-0.07202215;-0.9841117;-0.07202215;0.1454294;-4;0;-4;-625;-697;4180;2;0.5828229;-0.4750692;-0.3739612;-0.5429363;-3;-1;-17;-932;3844;-162;8;-0.06786703;-0.9792479;0.1094183;0.1565097;1;0;0;985;-385;3947;0.7502372;-0.127821;0.4967598;0.7560503;0.4018965;0.3664253;0.7611547;0.8670344;0.2498972;0.7940648;1.598533;0.2020497;0.5501465;1.932798;0.1427286;0.2030823;1.812467;0.2148816;0.1287726;0.8922048;0.2918641;0;0;0;1.069965;1.909414;0.1427272;1.352489;1.76076;0.2148795;1.40521;0.8000484;0.2651662;1.523774;-0.1083865;0.02334857;0.4379768;-0.1704116;0.5001975;0.509918;-1.580262;0.115486;0.7297886;-1.361455;1.425489;0.4379768;-0.1704116;0.5001975;0.509918;-1.580262;0.115486;0.7297886;-1.361455;1.425489
736274.0436;NotLabelled;16384;-0.4501385;0.4529086;-0.5862016;-0.4986149;-9;1;-7;-22;3574;436;65536;0.6373283;-0.3919668;0.4376731;0.4986149;-6;11;-30;-1161;3470;-948;8192;0.6059474;-0.599723;-0.3975069;-0.3393352;-15;-17;4;-162;3698;38;32768;0.7107882;-0.5041551;-0.3157895;-0.3753462;-15;-50;52;1188;3498;-763;256;0.02908587;-0.05817174;-0.7404339;-0.6689751;-62;-8;1;74;4066;358;128;-0.02908587;0.08171745;0.717501;0.6911357;49;0;4;-226;3890;-240;4;-0.4903047;0.3753462;-0.468144;-0.6321057;-1;-18;27;904;3834;-254;16;-0.0734072;-0.9840094;-0.07202215;0.1454294;-4;0;-5;-599;-685;4118;2;0.5846664;-0.4722992;-0.3725762;-0.5443213;-4;0;-19;-978;3894;-148;8;-0.06786703;-0.9792479;0.1094183;0.1565097;1;0;-1;949;-403;3947;0.7455851;-0.1228738;0.5507894;0.7513559;0.4029889;0.4056808;0.7564223;0.8646841;0.2761805;0.7901838;1.595129;0.2147627;0.5466227;1.928539;0.1494626;0.1994739;1.809994;0.2241215;0.1242593;0.8897991;0.3010223;0;0;0;1.066412;1.904517;0.1494615;1.348817;1.756876;0.22412;1.408781;0.7962894;0.2683081;1.519621;-0.1096001;0.01361927;0.4333262;-0.16535;0.5555135;0.5041468;-1.573536;0.1645463;0.7231209;-1.354499;1.474661;0.4333262;-0.16535;0.5555135;0.5041468;-1.573536;0.1645463;0.7231209;-1.354499;1.474661
736295.0382;NotLabelled;16384;-0.4515235;0.4529086;-0.5874846;-0.4958449;-8;0;-6;50;3590;364;65536;0.6435631;-0.3891967;0.4293629;0.5;-3;11;-26;-1117;3388;-1004;8192;0.6083944;-0.599723;-0.3961219;-0.3365651;-16;-17;1;-244;3762;30;32768;0.7153562;-0.5055401;-0.3047091;-0.3739612;-13;-54;47;1084;3538;-817;256;0.03185596;-0.05817174;-0.7550065;-0.6523545;-76;-14;0;90;3858;382;128;-0.03185596;0.07894737;0.7294924;0.6786703;54;1;7;-212;4066;-314;4;-0.4903047;0.3711911;-0.468144;-0.6345547;-2;-19;28;1000;3790;-286;16;-0.0734072;-0.9837013;-0.0734072;0.1468144;-5;2;-6;-601;-683;4040;2;0.5866612;-0.4709141;-0.3711911;-0.5443213;-4;-1;-20;-984;3916;-92;8;-0.06786703;-0.9792479;0.1094183;0.1565097;1;-1;-1;971;-403;3959;0.7470844;-0.1206102;0.5886692;0.7528224;0.4022832;0.4331986;0.7578598;0.8613296;0.2946012;0.7923496;1.590762;0.222479;0.5490953;1.923439;0.1524723;0.2018735;1.806369;0.2290925;0.121512;0.886981;0.310315;0;0;0;1.068859;1.898867;0.1524709;1.351159;1.752033;0.2290905;1.415351;0.7917542;0.274026;1.515107;-0.1119685;0.007340729;0.4348264;-0.1629839;0.5942993;0.5068387;-1.56748;0.1904871;0.7208802;-1.344794;1.500802;0.4348264;-0.1629839;0.5942993;0.5068387;-1.56748;0.1904871;0.7208802;-1.344794;1.500802
736315.0454;NotLabelled;16384;-0.4515235;0.4542936;-0.5875826;-0.4944598;-6;4;-4;148;3504;316;65536;0.6451618;-0.3878116;0.4265928;0.501385;-1;9;-22;-1057;3374;-930;8192;0.6152501;-0.601108;-0.3891967;-0.3296399;-11;-50;-4;-180;3646;90;32768;0.7247342;-0.5055401;-0.2853186;-0.3711911;-4;-59;45;1360;3600;-763;256;0.03462604;-0.05955679;-0.7630486;-0.6426592;-78;-14;0;112;3748;554;128;-0.033241;0.07756232;0.7346938;0.6731302;61;-1;7;-114;4100;-438;4;-0.4916897;0.3628809;-0.4653739;-0.6403013;-1;-16;34;920;3792;-216;16;-0.07617728;-0.9832829;-0.0734072;0.1481994;-6;1;-8;-587;-723;4138;2;0.589146;-0.466759;-0.368421;-0.5470914;-4;-1;-25;-1044;3824;-62;8;-0.06648199;-0.9789647;0.1108033;0.1578947;2;-2;-2;979;-387;3955;0.7472763;-0.111475;0.6792945;0.7529509;0.4056296;0.5055357;0.7579318;0.85952;0.3508845;0.7915455;1.585079;0.2465004;0.5478163;1.914114;0.1623576;0.2008691;1.800233;0.2448065;0.1149982;0.8815098;0.3278915;0;0;0;1.067603;1.890037;0.162356;1.350206;1.746992;0.2448042;1.417941;0.786891;0.2883265;1.507965;-0.1143928;0.01017293;0.4350208;-0.1536226;0.6865311;0.5044318;-1.555512;0.273315;0.7177702;-1.33207;1.583615;0.4350208;-0.1536226;0.6865311;0.5044318;-1.555512;0.273315;0.7177702;-1.33207;1.583615
736336.2473;NotLabelled;16384;-0.4529086;0.4542936;-0.5876805;-0.4930748;-5;7;-2;138;3480;376;65536;0.6469849;-0.3878116;0.4238227;0.501385;0;4;-17;-1109;3350;-916;8192;0.6187122;-0.602493;-0.3850415;-0.3254848;-12;-43;-2;344;3644;168;32768;0.730403;-0.5055401;-0.2742382;-0.368421;-2;-64;45;1362;3448;-525;256;0.03739612;-0.06094183;-0.7708724;-0.632964;-78;-12;0;214;3762;612;128;-0.03462604;0.07617728;0.7410594;0.666205;60;0;8;-190;4156;-534;4;-0.4916897;0.3573407;-0.4639889;-0.6444091;-1;-21;34;1060;3860;-316;16;-0.07617728;-0.9829688;-0.07479224;0.1495845;-6;4;-9;-525;-677;3978;2;0.5909081;-0.4639889;-0.367036;-0.5484765;-6;-1;-26;-1034;3854;-106;8;-0.06648199;-0.9789647;0.1108033;0.1578947;1;-3;-3;1001;-381;3969;0.7441825;-0.1044555;0.7361549;0.7498268;0.4098978;0.5544127;0.7547808;0.86134;0.3927543;0.7882723;1.584049;0.2701444;0.5444251;1.910899;0.1781912;0.1976108;1.799164;0.2640648;0.1107734;0.8794904;0.334697;0;0;0;1.064209;1.886765;0.1779042;1.346942;1.7458;0.2634309;1.419508;0.7853336;0.2860967;1.495284;-0.1096978;-0.01550704;0.4319284;-0.1464853;0.7440961;0.4994589;-1.540604;0.3050844;0.7095987;-1.309638;1.614596;0.4319284;-0.1464853;0.7440961;0.4994589;-1.540604;0.3050844;0.7095987;-1.309638;1.614596
736356.1606;NotLabelled;16384;-0.4529086;0.4542936;-0.5888398;-0.4916897;-4;11;0;-14;3330;468;65536;0.649617;-0.3864266;0.4210526;0.501385;1;7;-12;-1107;3176;-888;8192;0.6225897;-0.602493;-0.3822715;-0.3213296;-14;-38;-2;14;3704;214;32768;0.7348543;-0.5055401;-0.265928;-0.365651;-2;-55;43;1082;3318;-703;256;0.03878116;-0.06232687;-0.777444;-0.6246537;-78;-9;-2;172;3756;614;128;-0.03601108;0.07479224;0.7473015;0.6592798;52;-4;9;-272;4038;-90;4;-0.4916897;0.3518005;-0.4639889;-0.6474503;-3;-27;35;1236;3696;-352;16;-0.07756232;-0.9826487;-0.07479224;0.1509695;-5;8;-9;-417;-783;3982;2;0.5926456;-0.4612188;-0.365651;-0.5498615;-6;-2;-28;-996;3846;-122;8;-0.06648199;-0.9789647;0.1108033;0.1578947;1;-2;-1;991;-353;3905;0.7425189;-0.09712887;0.768253;0.7481242;0.4136624;0.5767272;0.7530435;0.8619375;0.4064823;0.7866182;1.581375;0.2659646;0.5427863;1.905901;0.1660798;0.1959998;1.796411;0.2549071;0.1062507;0.8781981;0.3395219;0;0;0;1.062565;1.881647;0.1660784;1.345319;1.74278;0.254905;1.419784;0.7828255;0.2897982;1.489431;-0.1084027;-0.02428478;0.4302665;-0.138999;0.77706;0.4984661;-1.528129;0.3226071;0.7041002;-1.296396;1.6327;0.4302665;-0.138999;0.77706;0.4984661;-1.528129;0.3226071;0.7041002;-1.296396;1.6327
736377.042;NotLabelled;16384;-0.4556787;0.4556787;-0.5867838;-0.4903047;-6;12;2;-222;3094;548;65536;0.6515778;-0.3864266;0.4196676;0.5;2;12;-8;-1163;3056;-1044;8192;0.6264034;-0.602493;-0.3795014;-0.3171745;-15;-33;-3;-18;3676;66;32768;0.7389752;-0.5055401;-0.2562327;-0.3642659;-2;-44;41;860;3102;-763;256;0.04155125;-0.06232687;-0.7849936;-0.6149584;-79;-8;-4;188;3608;726;128;-0.03878116;0.07479224;0.7520151;0.6537396;65;-6;11;-198;4054;36;4;-0.4916897;0.3448753;-0.4626039;-0.6521502;-2;-23;35;1474;3626;-400;16;-0.07894737;-0.9820023;-0.07617728;0.1537396;-5;9;-8;-499;-819;4028;2;0.5952054;-0.4584487;-0.3628809;-0.5512465;-5;0;-30;-1096;3828;-190;8;-0.06648199;-0.9785826;0.1121884;0.1592798;1;-1;-1;989;-377;3941;0.7418171;-0.09061003;0.8103149;0.7473816;0.4164677;0.609162;0.7522646;0.861443;0.4304685;0.7870175;1.577706;0.2748327;0.5436804;1.900514;0.1683906;0.1967843;1.793559;0.2598389;0.1042178;0.8757968;0.3462895;0;0;0;1.063413;1.875299;0.1683889;1.346002;1.737804;0.2598363;1.425256;0.7781253;0.2916233;1.49061;-0.1101708;-0.03155857;0.4295666;-0.1323056;0.819977;0.4936593;-1.517593;0.3533616;0.6982847;-1.281982;1.66292;0.4295666;-0.1323056;0.819977;0.4936593;-1.517593;0.3533616;0.6982847;-1.281982;1.66292
736398.0356;NotLabelled;16384;-0.4598338;0.4570637;-0.5847697;-0.4875346;-6;9;4;-166;3168;534;65536;0.6554643;-0.3864266;0.4168975;0.4972299;7;16;-5;-1033;2906;-946;8192;0.6294645;-0.602493;-0.3767313;-0.3144044;-16;-29;-4;4;3554;52;32768;0.7420192;-0.5055401;-0.2493075;-0.3628809;-1;-39;38;1076;3228;-761;256;0.04709141;-0.06371191;-0.7993886;-0.5955678;-81;-13;-7;250;3360;640;128;-0.04293629;0.07063711;0.7663199;0.6371191;72;5;12;-242;3956;-652;4;-0.4930748;0.3407202;-0.4612188;-0.6542662;0;-11;36;1584;3624;-402;16;-0.07894737;-0.981676;-0.07756232;0.1551246;-3;9;-7;-507;-743;4108;2;0.5968887;-0.4556787;-0.3614958;-0.5526316;-5;3;-33;-1112;3816;-150;8;-0.06648199;-0.9785826;0.1121884;0.1592798;0;-1;0;1015;-425;3947;0.7440736;-0.08035803;0.8517663;0.7496051;0.4237132;0.6431928;0.7544588;0.8660183;0.4579877;0.7877929;1.578286;0.2847072;0.5437754;1.897958;0.1706336;0.1971705;1.792699;0.2651041;0.1034626;0.874815;0.3489859;0;0;0;1.06355;1.873636;0.1706319;1.346482;1.738917;0.265102;1.430492;0.7795439;0.2937482;1.488352;-0.1053109;-0.04012689;0.4318247;-0.1219072;0.8620898;0.4938887;-1.500968;0.3771191;0.7004218;-1.260699;1.685531;0.4318247;-0.1219072;0.8620898;0.4938887;-1.500968;0.3771191;0.7004218;-1.260699;1.685531
736419.0312;NotLabelled;16384;-0.4612188;0.4570637;-0.5836779;-0.4875346;-6;5;3;-168;3336;548;65536;0.6576177;-0.3878116;0.4155124;0.4944598;7;13;-2;-919;3094;-908;8192;0.6354957;-0.6038781;-0.3711911;-0.3060942;-16;-44;-3;46;3630;214;32768;0.7505635;-0.5041551;-0.234072;-0.3573407;0;-57;35;1272;3344;-581;256;0.04986149;-0.06371191;-0.8073593;-0.5844875;-80;-3;-9;150;3184;680;128;-0.04432133;0.06786703;0.7733234;0.6288089;87;2;13;-384;3996;-888;4;-0.4944598;0.33518;-0.4584487;-0.6580187;1;-3;38;1516;3678;-432;16;-0.07894737;-0.9814532;-0.08033241;0.1551246;-3;12;-6;-519;-725;4054;2;0.601333;-0.4473684;-0.3559557;-0.5581717;-5;5;-36;-1478;3896;-46;8;-0.06509695;-0.9786757;0.1121884;0.1592798;5;0;-1;943;-419;3977;0.7478206;-0.05304193;0.9460195;0.7532445;0.4412127;0.7151424;0.7580025;0.8748064;0.510369;0.7902178;1.57792;0.3028682;0.5456185;1.891493;0.1740627;0.1993321;1.790591;0.2742814;0.1011756;0.8728476;0.354537;0;0;0;1.065417;1.86768;0.174061;1.348696;1.737935;0.2742788;1.435097;0.7786965;0.300202;1.490242;-0.1036396;-0.04072231;0.4355773;-0.09408522;0.9583408;0.4983904;-1.468761;0.4611705;0.6959952;-1.227699;1.770815;0.4355773;-0.09408522;0.9583408;0.4983904;-1.468761;0.4611705;0.6959952;-1.227699;1.770815
736439.2559;NotLabelled;16384;-0.4626039;0.4570637;-0.5837371;-0.4861496;-6;15;-1;-74;3436;528;65536;0.6586568;-0.3878116;0.4155124;0.4930748;7;13;-2;-995;3136;-832;8192;0.6405334;-0.6038781;-0.367036;-0.300554;-14;-54;0;130;3626;236;32768;0.7550624;-0.5041551;-0.2257618;-0.3531856;2;-61;34;1126;3234;-761;256;0.05263158;-0.06232687;-0.8142231;-0.5747922;-85;-2;-11;222;3386;716;128;-0.04709141;0.06509695;0.7822763;0.6177285;89;0;15;-198;3982;-828;4;-0.5;0.3254848;-0.4529086;-0.6625206;-6;-8;44;1246;3572;-370;16;-0.08033241;-0.9805498;-0.08448754;0.1578947;-7;14;-6;-701;-855;4192;2;0.6024421;-0.4445983;-0.3531856;-0.5609418;-3;-1;-37;-1498;3706;-60;8;-0.06509695;-0.9786757;0.1121884;0.1592798;3;-3;-3;957;-501;3971;0.7490563;-0.0356884;0.9941372;0.7544227;0.453321;0.7523469;0.7591296;0.8822632;0.5380002;0.79025;1.579473;0.3113017;0.5451185;1.889121;0.1742728;0.1990757;1.790596;0.2776482;0.1004832;0.8726654;0.3551838;0;0;0;1.064945;1.865921;0.1742711;1.348501;1.739296;0.2776456;1.44197;0.7806354;0.3001921;1.489757;-0.0949831;-0.05868918;0.4368162;-0.07644701;1.007442;0.4996715;-1.444219;0.4915848;0.691555;-1.202047;1.801875;0.4368162;-0.07644701;1.007442;0.4996715;-1.444219;0.4915848;0.691555;-1.202047;1.801875
736460.0697;NotLabelled;16384;-0.4639889;0.4598338;-0.5827619;-0.4833795;-7;23;-6;-144;3320;582;65536;0.6605037;-0.3864266;0.4155124;0.4916897;7;11;-2;-995;3042;-1062;8192;0.6428548;-0.6066482;-0.3628809;-0.2950138;-14;-59;2;338;3458;324;32768;0.759421;-0.5041551;-0.2174515;-0.3490305;1;-61;35;1124;3116;-907;256;0.05540166;-0.06094183;-0.8228033;-0.5623268;-93;-10;-11;308;3548;678;128;-0.04986149;0.06371191;0.7897786;0.6080332;81;-2;16;-162;3536;-340;4;-0.5027701;0.3199446;-0.4515235;-0.6640664;-4;-9;44;1222;3656;-240;16;-0.08171745;-0.9799685;-0.08725762;0.1592798;-8;16;-8;-743;-801;4182;2;0.6058112;-0.4404432;-0.3504155;-0.5623268;-4;-6;-37;-1598;3500;-56;8;-0.06509695;-0.9785159;0.1135734;0.1592798;0;-4;-3;1029;-225;3937;0.7571294;-0.01227808;1.06889;0.7624164;0.469512;0.8130158;0.7670533;0.8920565;0.586316;0.7952178;1.583721;0.3428625;0.5487083;1.889102;0.1989066;0.2032186;1.791851;0.3052939;0.1017628;0.8723383;0.3556222;0;0;0;1.068615;1.867774;0.198451;1.352821;1.744691;0.3042876;1.452115;0.7864032;0.2942638;1.495725;-0.08610916;-0.07262588;0.4448937;-0.05263186;1.083472;0.5002356;-1.406951;0.5324565;0.6962761;-1.158948;1.84104;0.4448937;-0.05263186;1.083472;0.5002356;-1.406951;0.5324565;0.6962761;-1.158948;1.84104
736481.429;NotLabelled;16384;-0.4653739;0.4626039;-0.5828969;-0.4792244;-8;25;-11;-130;3136;618;65536;0.6624004;-0.3864266;0.4141274;0.4903047;7;15;-4;-1087;2942;-844;8192;0.6470057;-0.6080332;-0.3587258;-0.2880886;-15;-59;4;394;3386;314;32768;0.7640196;-0.5041551;-0.2077562;-0.3448753;3;-64;36;1076;3200;-763;256;0.05817174;-0.06094183;-0.8309961;-0.5498615;-98;-9;-12;326;3348;760;128;-0.05263158;0.06094183;0.798225;0.5969529;84;10;17;-114;3336;-138;4;-0.5041551;0.3144044;-0.4487534;-0.6675311;-1;-12;42;1462;3600;-232;16;-0.08310249;-0.9793752;-0.0900277;0.1606648;-11;24;-10;-759;-831;4096;2;0.6076277;-0.4376731;-0.3462604;-0.5650969;-3;-4;-39;-1458;3550;-78;8;-0.06509695;-0.9781277;0.1149584;0.1606648;0;-10;-1;1029;-297;3923;0.7633976;0.007060528;1.092273;0.7686132;0.482347;0.8245102;0.7731869;0.8991313;0.5873848;0.7991835;1.583122;0.3229166;0.5517073;1.883219;0.1697979;0.2065449;1.788217;0.2792361;0.1040016;0.8708715;0.3585567;0;0;0;1.071676;1.863459;0.1697961;1.356284;1.744524;0.2792332;1.456798;0.7864943;0.2980232;1.496665;-0.08290815;-0.07659256;0.451166;-0.03291798;1.107937;0.499762;-1.381081;0.541409;0.6943039;-1.128047;1.849253;0.451166;-0.03291798;1.107937;0.499762;-1.381081;0.541409;0.6943039;-1.128047;1.849253
736502.0473;NotLabelled;16384;-0.466759;0.4653739;-0.5818543;-0.4764543;-7;27;-14;-98;3086;576;65536;0.6644967;-0.3878116;0.4127424;0.4875346;4;21;-4;-1069;2946;-720;8192;0.651027;-0.6094183;-0.3545706;-0.2811634;-14;-52;5;556;3484;246;32768;0.7687006;-0.5041551;-0.199446;-0.3393352;1;-67;37;1194;3364;-679;256;0.06232687;-0.05955679;-0.8389122;-0.5373961;-95;-6;-15;232;3014;818;128;-0.05540166;0.05817174;0.8064119;0.5858725;103;2;22;-142;3716;-826;4;-0.5055401;0.3102493;-0.4459834;-0.6702786;1;-11;40;1644;3742;-326;16;-0.08448754;-0.9782728;-0.09556787;0.1634349;-13;31;-12;-697;-907;3968;2;0.6108803;-0.433518;-0.3434903;-0.566482;-4;0;-39;-1518;3600;-196;8;-0.06509695;-0.9779639;0.1163435;0.1606648;2;-13;-1;1097;-429;3985;0.7673256;0.02993774;1.141844;0.7724556;0.4974341;0.8606995;0.7769535;0.907321;0.6118404;0.8021873;1.583118;0.327018;0.5543353;1.878344;0.1652799;0.2093603;1.786431;0.2779007;0.1029533;0.8698831;0.3612483;0;0;0;1.074317;1.858931;0.1652779;1.359128;1.743504;0.2778973;1.464996;0.7860308;0.295549;1.499596;-0.07971764;-0.08794749;0.4550991;-0.009578705;1.158733;0.503616;-1.350032;0.5741908;0.6955831;-1.091952;1.881429;0.4550991;-0.009578705;1.158733;0.503616;-1.350032;0.5741908;0.6955831;-1.091952;1.881429
736522.2679;NotLabelled;16384;-0.4695291;0.4722992;-0.5807901;-0.468144;-6;38;-13;-272;3078;436;65536;0.6694652;-0.3905817;0.4085872;0.4819945;0;34;-4;-1047;2884;-1004;8192;0.6559236;-0.6121883;-0.3504155;-0.2686981;-15;-38;13;634;3576;332;32768;0.7770491;-0.5027701;-0.1814404;-0.33241;2;-42;39;1058;3292;-825;256;0.06925207;-0.05540166;-0.8532834;-0.5138504;-91;-2;-20;-186;3162;1342;128;-0.06648199;0.05401662;0.8243535;0.5595568;104;-14;24;-74;3788;-1250;4;-0.5069252;0.3047091;-0.4445983;-0.6726898;-1;-7;42;1624;3700;-370;16;-0.08725762;-0.9762391;-0.1038781;0.1689751;-15;20;-14;-793;-991;4056;2;0.6135562;-0.4293629;-0.3393352;-0.5692521;-3;0;-39;-1782;3898;-110;8;-0.06509695;-0.977857;0.1191136;0.1592798;4;-19;-2;1033;-515;3971;0.7718536;0.05751562;1.190627;0.776895;0.5169373;0.896471;0.7813146;0.9196777;0.6362045;0.8032993;1.586761;0.3312797;0.5539939;1.875935;0.1610653;0.2095369;1.785927;0.2767683;0.1017883;0.869709;0.361997;0;0;0;1.074056;1.858798;0.1610631;1.359482;1.748034;0.2767648;1.470588;0.7911348;0.2933825;1.503264;-0.07156086;-0.09709823;0.4596325;0.01848984;1.208716;0.5102402;-1.315265;0.6092194;0.7014209;-1.050674;1.915271;0.4596325;0.01848984;1.208716;0.5102402;-1.315265;0.6092194;0.7014209;-1.050674;1.915271
736544.0423;NotLabelled;16384;-0.4736842;0.4750692;-0.5784867;-0.4639889;-9;45;-3;-400;3236;284;65536;0.6733083;-0.3919668;0.4058172;0.4778393;3;34;-3;-1083;2868;-1040;8192;0.6576118;-0.6135734;-0.3490305;-0.2631579;-12;-37;7;562;3596;212;32768;0.7801154;-0.501385;-0.1745152;-0.3310249;2;-34;37;1106;3402;-779;256;0.0734072;-0.05401662;-0.8596022;-0.5027701;-87;-1;-19;-150;2792;1352;128;-0.07063711;0.05263158;0.8305978;0.5498615;95;-6;20;-42;3602;-34;4;-0.5096953;0.299169;-0.4418283;-0.6749048;-4;-11;44;1244;3384;-166;16;-0.0900277;-0.9752955;-0.1080332;0.1703601;-17;24;-14;-787;-1127;3988;2;0.6182671;-0.4224377;-0.33241;-0.5734072;-4;-8;-36;-1930;3678;-36;8;-0.06509695;-0.9771662;0.1246537;0.1592798;-5;-20;-2;1097;-379;3805;0.7837667;0.1198826;1.287002;0.7885882;0.5592437;0.963644;0.792813;0.9442425;0.6777839;0.8079916;1.593357;0.3359035;0.555698;1.870147;0.1502073;0.2122733;1.783496;0.27141;0.09913847;0.8687472;0.3650307;0;0;0;1.0759;1.857985;0.1502049;1.362528;1.756604;0.2714061;1.484576;0.8011074;0.2916016;1.506942;-0.05356693;-0.1168332;0.4715594;0.08212042;1.307807;0.5201561;-1.245094;0.6938045;0.7146518;-0.9684781;1.996871;0.4715594;0.08212042;1.307807;0.5201561;-1.245094;0.6938045;0.7146518;-0.9684781;1.996871
736564.1884;NotLabelled;16384;-0.4778393;0.4792244;-0.5749491;-0.4598338;-9;35;4;-488;3456;234;65536;0.6762834;-0.3947368;0.4030471;0.4736842;6;33;0;-1237;3106;-928;8192;0.6599908;-0.6135734;-0.3476454;-0.2590028;-9;-29;1;676;3698;116;32768;0.7828059;-0.5;-0.1689751;-0.3296399;4;-30;33;998;3660;-945;256;0.07756232;-0.05263158;-0.8657108;-0.4916897;-72;-11;-22;296;2720;1514;128;-0.07479224;0.05124654;0.8393283;0.536011;108;-2;18;-230;3444;-274;4;-0.5096953;0.2867036;-0.4376731;-0.6829744;2;-32;38;1688;3658;-494;16;-0.09695291;-0.9727716;-0.1177285;0.1745152;-25;36;-10;-659;-1155;4150;2;0.6210812;-0.4196676;-0.3282548;-0.5747922;-3;-10;-31;-1976;3212;-184;8;-0.06648199;-0.9765338;0.1288089;0.1592798;-4;-27;-1;1257;-207;4019;0.7907596;0.1462889;1.331851;0.7954962;0.5779166;0.9982393;0.7996461;0.9560804;0.7033947;0.8118441;1.59617;0.3447883;0.5582622;1.866959;0.1521302;0.2152758;1.781998;0.2757471;0.09798133;0.8676329;0.3679799;0;0;0;1.078512;1.857049;0.152128;1.365636;1.760082;0.275744;1.492476;0.8052793;0.2989853;1.511517;-0.04544961;-0.1177708;0.4785578;0.1090279;1.35362;0.5252779;-1.209804;0.7216713;0.7145112;-0.9238428;2.023495;0.4785578;0.1090279;1.35362;0.5252779;-1.209804;0.7216713;0.7145112;-0.9238428;2.023495
736585.0438;NotLabelled;16384;-0.4806094;0.4806094;-0.5736915;-0.4570637;-2;16;3;-500;3732;238;65536;0.6791889;-0.3961219;0.4016621;0.4695291;9;27;4;-1081;3526;-692;8192;0.6592435;-0.6149584;-0.3476454;-0.2576177;-9;-15;5;530;3868;102;32768;0.7854431;-0.4986149;-0.1634349;-0.3282548;4;-25;27;774;3720;-1039;256;0.08171745;-0.04986149;-0.8709291;-0.4819945;-65;6;-24;350;3174;1606;128;-0.07894737;0.04847645;0.8478004;0.5221606;106;-7;19;-14;3316;-1282;4;-0.5083103;0.2811634;-0.4362881;-0.687183;9;-32;35;2128;3474;-622;16;-0.09972299;-0.9717298;-0.1218837;0.1759003;-25;21;-7;-361;-963;4036;2;0.6238394;-0.4168975;-0.3240997;-0.5761772;2;-17;-27;-2178;3302;-306;8;-0.06786703;-0.9758815;0.132964;0.1592798;-1;-31;0;1271;-289;3917;0.793772;0.1812831;1.380876;0.7983846;0.6015989;1.033119;0.8024248;0.9697663;0.7258826;0.8117949;1.600458;0.3509119;0.5570035;1.865132;0.1514715;0.2144247;1.781945;0.277403;0.09524186;0.8677107;0.3685147;0;0;0;1.07729;1.857405;0.151469;1.364867;1.764857;0.277399;1.496615;0.8107153;0.3004256;1.514098;-0.03659678;-0.123301;0.4815785;0.1447669;1.403984;0.5263646;-1.157601;0.7386345;0.7147416;-0.8483493;2.035247;0.4815785;0.1447669;1.403984;0.5263646;-1.157601;0.7386345;0.7147416;-0.8483493;2.035247
736605.0519;NotLabelled;16384;-0.4806094;0.4806094;-0.5736915;-0.4570637;3;-1;-1;-442;3714;384;65536;0.6794685;-0.3975069;0.4030471;0.466759;10;13;6;-1147;3608;-964;8192;0.6603193;-0.6149584;-0.3476454;-0.2548476;-7;-11;12;388;3958;270;32768;0.7865914;-0.4986149;-0.1606648;-0.3268698;5;-19;23;804;3654;-959;256;0.08448754;-0.04570637;-0.8746896;-0.4750692;-64;12;-25;190;3308;1768;128;-0.08310249;0.04709141;0.8558604;0.5083103;105;-5;23;12;3610;-1874;4;-0.5069252;0.2756233;-0.432133;-0.6930511;16;-31;34;2536;3308;-592;16;-0.1038781;-0.9711196;-0.1232687;0.1759003;-27;6;0;-351;-941;3946;2;0.6269009;-0.4155124;-0.3199446;-0.5761772;4;-26;-26;-2222;3552;110;8;-0.06786703;-0.9755315;0.1371191;0.1578947;1;-26;1;1081;-423;3907;0.8038602;0.2195419;1.458036;0.8083436;0.6280965;1.096533;0.8122698;0.9858755;0.7772577;0.8173313;1.607929;0.3880452;0.5607341;1.866269;0.1827019;0.2187382;1.783648;0.3105752;0.09584118;0.8672618;0.3694167;0;0;0;1.081061;1.862069;0.1827483;1.36927;1.774357;0.3106793;1.500754;0.8199095;0.3065889;1.516183;-0.02395129;-0.12405;0.4916752;0.1838139;1.482455;0.5381866;-1.111756;0.8040805;0.7223561;-0.7931223;2.099025;0.4916752;0.1838139;1.482455;0.5381866;-1.111756;0.8040805;0.7223561;-0.7931223;2.099025
736626.0374;NotLabelled;16384;-0.4792244;0.4806094;-0.5726356;-0.4598338;11;-4;6;-252;3658;682;65536;0.6814841;-0.3975069;0.4044321;0.4626039;8;0;12;-1057;3366;-926;8192;0.6593598;-0.6163435;-0.3490305;-0.2520775;-7;-19;15;354;3922;396;32768;0.7886009;-0.4972299;-0.1578947;-0.3254848;6;-13;20;888;3650;-1007;256;0.09141274;-0.0401662;-0.8845266;-0.4556787;-77;1;-26;-32;2998;1974;128;-0.09141274;0.0401662;0.8735111;0.4764543;118;1;26;216;3532;-1906;4;-0.5055401;0.2700831;-0.4293629;-0.6979483;9;-26;35;2642;3266;-632;16;-0.1080332;-0.9704892;-0.1246537;0.1759003;-27;-3;4;-253;-837;3860;2;0.6306093;-0.4141274;-0.3144044;-0.5761772;2;-27;-27;-2260;3702;40;8;-0.06925207;-0.9750407;0.1398892;0.1578947;0;-16;0;1259;-495;3843;0.8139239;0.2536134;1.461321;0.818276;0.6501926;1.086718;0.8220862;0.9973959;0.7559714;0.8218918;1.612908;0.3564611;0.5631169;1.865633;0.1469062;0.2218378;1.782283;0.2762146;0.09916849;0.8683714;0.3659144;0;0;0;1.083461;1.865799;0.1469037;1.372407;1.782651;0.2762111;1.507797;0.8291458;0.3039999;1.52145;-0.01365471;-0.1287685;0.501748;0.2187003;1.487001;0.5540013;-1.066577;0.789727;0.7356492;-0.7365861;2.082181;0.501748;0.2187003;1.487001;0.5540013;-1.066577;0.789727;0.7356492;-0.7365861;2.082181
736646.0363;NotLabelled;16384;-0.4806094;0.4806094;-0.5714736;-0.4598338;4;4;11;-282;3644;460;65536;0.6798325;-0.3975069;0.4072022;0.4626039;7;-8;13;-1299;3370;-1128;8192;0.6611858;-0.6177285;-0.3490305;-0.2437673;-9;-23;20;454;3914;448;32768;0.7908611;-0.4958449;-0.1537396;-0.3240997;2;-22;9;1006;3532;-807;256;0.09556787;-0.03601108;-0.8891956;-0.4459834;-74;0;-26;-322;2900;2344;128;-0.09556787;0.03601108;0.8813893;0.4612188;125;0;28;2;3468;-1656;4;-0.5055401;0.2645429;-0.4252077;-0.7025985;7;-14;34;2580;3372;-662;16;-0.1121884;-0.9706197;-0.1218837;0.1745152;-26;-21;8;-491;-839;3804;2;0.6389802;-0.4113573;-0.3060942;-0.5734072;-3;-25;-26;-1996;3744;58;8;-0.07063711;-0.9745399;0.1426593;0.1578947;-7;-5;0;1165;-381;3955;0.8230945;0.3380865;1.551516;0.8271284;0.7056812;1.148429;0.8306577;1.027302;0.7927524;0.8233432;1.624222;0.3660251;0.5616882;1.864183;0.1453373;0.2213565;1.782652;0.2782511;0.1032662;0.8679308;0.365827;0;0;0;1.081993;1.870561;0.1453349;1.371839;1.796753;0.2782465;1.509662;0.8438176;0.3128045;1.525962;0.003318071;-0.1243249;0.5109407;0.3051919;1.579978;0.5698981;-0.9713078;0.8672849;0.7406088;-0.6299806;2.158285;0.5109407;0.3051919;1.579978;0.5698981;-0.9713078;0.8672849;0.7406088;-0.6299806;2.158285
736667.1782;NotLabelled;16384;-0.4819945;0.4819945;-0.568014;-0.4612188;3;17;14;-124;3772;304;65536;0.6807504;-0.3961219;0.4085872;0.4612188;10;-9;12;-1621;3444;-1160;8192;0.6611771;-0.6191136;-0.3504155;-0.2382271;-9;-21;21;336;4024;680;32768;0.7916552;-0.4972299;-0.1509695;-0.3213296;-4;-30;2;936;3496;-953;256;0.101108;-0.033241;-0.8941653;-0.434903;-72;-7;-28;-196;2880;2494;128;-0.101108;0.03185596;0.8887414;0.4459834;113;-4;28;92;3410;-1988;4;-0.5069252;0.2576177;-0.4182825;-0.7083076;13;-8;25;2444;3234;-500;16;-0.1191136;-0.9712875;-0.1177285;0.1689751;-20;-12;9;-863;-987;3710;2;0.6430756;-0.4099723;-0.301939;-0.5720221;-2;-18;-22;-2072;3374;-14;8;-0.07202215;-0.9740092;0.1440443;0.1592798;-6;-9;-1;1281;-339;3907;0.8317491;0.384003;1.59196;0.8356246;0.7371444;1.17615;0.8390138;1.046014;0.8093439;0.8265653;1.633065;0.3692555;0.5628803;1.865635;0.1431375;0.2232275;1.78408;0.2777625;0.1049668;0.8691143;0.3625161;0;0;0;1.083107;1.876669;0.1431349;1.373538;1.808476;0.2777586;1.520875;0.8571905;0.3180556;1.536564;0.01960278;-0.1246504;0.5196066;0.3521355;1.621686;0.5836359;-0.9134679;0.8902433;0.7455559;-0.56301;2.179929;0.5196066;0.3521355;1.621686;0.5836359;-0.9134679;0.8902433;0.7455559;-0.56301;2.179929
736688.0379;NotLabelled;16384;-0.4847645;0.4833795;-0.5644686;-0.4612188;6;27;17;-250;4086;312;65536;0.6816586;-0.3947368;0.4099723;0.4598338;14;4;9;-1743;3814;-1362;8192;0.6626595;-0.6191136;-0.3504155;-0.234072;-13;-30;21;332;4116;820;32768;0.7927219;-0.4986149;-0.1495845;-0.3171745;-6;-38;-3;1052;3542;-1243;256;0.1066482;-0.03047091;-0.8982739;-0.4252077;-70;0;-28;-144;3000;2482;128;-0.1066482;0.02908587;0.8956766;0.4307479;118;-1;27;150;3364;-2280;4;-0.5083103;0.2548476;-0.4155124;-0.7099456;14;0;21;2674;3426;-296;16;-0.1218837;-0.9713507;-0.1163435;0.16759;-14;-9;6;-1019;-907;3702;2;0.6443689;-0.4099723;-0.299169;-0.5720221;2;-16;-19;-2102;3292;-54;8;-0.0734072;-0.9734921;0.1468144;0.1592798;-5;-15;-3;1197;-409;3827;0.8345231;0.4300162;1.640004;0.8382362;0.7683793;1.212081;0.8414826;1.064214;0.8346829;0.8250717;1.63986;0.3799026;0.5598611;1.864714;0.1478424;0.2207152;1.784104;0.2843021;0.1067709;0.8681613;0.3642696;0;0;0;1.079994;1.879544;0.1478393;1.370817;1.816896;0.2842978;1.524331;0.8669506;0.3323963;1.541171;0.02903366;-0.1096426;0.5223922;0.399211;1.670948;0.5966196;-0.8499408;0.9126812;0.733452;-0.4848795;2.201221;0.5223922;0.399211;1.670948;0.5966196;-0.8499408;0.9126812;0.733452;-0.4848795;2.201221
736709.0523;NotLabelled;16384;-0.4889196;0.4847645;-0.5608153;-0.4598338;7;23;20;-612;4312;504;65536;0.6817571;-0.3947368;0.4113573;0.4584487;16;11;7;-1515;4046;-1368;8192;0.6657931;-0.6191136;-0.3490305;-0.2271468;-19;-47;17;454;4128;844;32768;0.7942317;-0.501385;-0.1468144;-0.3102493;-7;-47;-10;1172;3610;-1349;256;0.1108033;-0.02770083;-0.9023883;-0.4155124;-64;3;-27;-166;2762;2518;128;-0.1108033;0.02631579;0.9030662;0.4141274;127;1;27;116;3254;-2140;4;-0.5096953;0.2520775;-0.4113573;-0.7123572;13;1;20;2752;3504;-212;16;-0.1232687;-0.971247;-0.1177285;0.166205;-9;7;3;-1073;-907;3598;2;0.6471584;-0.4085872;-0.2950138;-0.5720221;4;-15;-16;-2098;3546;-56;8;-0.07479224;-0.9731768;0.1481994;0.1592798;-6;-13;-6;1349;-603;3809;0.8397044;0.4748553;1.684953;0.8432536;0.7982653;1.245619;0.8463552;1.080914;0.858245;0.8260179;1.646237;0.3908501;0.5593243;1.863926;0.1537124;0.2206799;1.78382;0.2917058;0.1084851;0.8671888;0.3660751;0;0;0;1.079332;1.882635;0.1537099;1.370505;1.825188;0.2917021;1.529395;0.8762711;0.3425563;1.550662;0.03728914;-0.09726727;0.5275855;0.4451374;1.717059;0.6082264;-0.7971883;0.9483047;0.7309107;-0.4259262;2.236497;0.5275855;0.4451374;1.717059;0.6082264;-0.7971883;0.9483047;0.7309107;-0.4259262;2.236497
736729.2341;NotLabelled;16384;-0.4930748;0.4847645;-0.5548679;-0.4626039;3;0;20;-896;4474;590;65536;0.6863269;-0.3933518;0.4127424;0.4515235;14;14;1;-1605;4152;-1090;8192;0.668008;-0.6204986;-0.3476454;-0.2188366;-21;-54;14;678;4062;618;32768;0.7956591;-0.5041551;-0.1440443;-0.3033241;-8;-60;-14;1340;3644;-1409;256;0.1149584;-0.02493075;-0.9057314;-0.4072022;-60;5;-25;-478;2564;2634;128;-0.1149584;0.02077562;0.9095263;0.398892;117;7;26;172;3044;-2154;4;-0.5110803;0.2506925;-0.4085872;-0.713447;10;6;16;2588;3322;-318;16;-0.1232687;-0.9709072;-0.1204986;0.166205;-3;17;0;-1059;-1037;3550;2;0.648414;-0.4085872;-0.2922437;-0.5720221;1;-9;-14;-2040;3704;30;8;-0.07617728;-0.9728416;0.1481994;0.1606648;-9;2;-3;1233;-533;3861;0.8439374;0.5250338;1.764538;0.8473045;0.8318695;1.31347;0.8502458;1.099905;0.915844;0.8278229;1.654692;0.4360819;0.5604975;1.865476;0.1934813;0.2219485;1.78634;0.3322663;0.1089938;0.8673896;0.3654476;0;0;0;1.08038;1.887377;0.1945038;1.371496;1.834766;0.334529;1.538681;0.8860868;0.352804;1.563626;0.04510117;-0.08298063;0.5318317;0.4965338;1.797855;0.6220652;-0.736964;1.016061;0.7303691;-0.3619275;2.304451;0.5318317;0.4965338;1.797855;0.6220652;-0.736964;1.016061;0.7303691;-0.3619275;2.304451
736751.2638;NotLabelled;16384;-0.4930748;0.4847645;-0.5548679;-0.4626039;2;-1;15;-684;4392;336;65536;0.688066;-0.3933518;0.4113573;0.4501385;13;4;-5;-1525;4286;-1324;8192;0.6725343;-0.6218836;-0.3448753;-0.2049861;-21;-37;18;824;4010;708;32768;0.7997629;-0.5096953;-0.1385041;-0.2853186;-6;-62;-16;1120;3762;-1455;256;0.1232687;-0.01800554;-0.912692;-0.3891967;-69;-1;-26;-560;3290;3330;128;-0.1204986;0.01108033;0.9228525;0.365651;114;7;25;428;3010;-3274;4;-0.5124654;0.2493075;-0.4058172;-0.7145191;12;3;12;2454;3576;-604;16;-0.1232687;-0.9703825;-0.1246537;0.166205;1;23;0;-1093;-1119;3612;2;0.6513894;-0.4058172;-0.2894737;-0.5720221;-4;-3;-10;-2480;3378;-88;8;-0.08033241;-0.9726956;0.1454294;0.1620499;-18;9;0;1445;-327;4075;0.8529525;0.5668103;1.77546;0.8561467;0.8579003;1.314073;0.8589359;1.112057;0.9074352;0.8324699;1.657537;0.4173198;0.5635507;1.862003;0.1711007;0.2256599;1.783352;0.3117524;0.1190448;0.8647939;0.3684504;0;0;0;1.083283;1.887221;0.1710978;1.374877;1.839112;0.3117475;1.55052;0.8934661;0.3681231;1.577438;0.05046678;-0.06363469;0.5408596;0.5394784;1.809859;0.6364269;-0.6884978;1.020049;0.7387921;-0.312335;2.308595;0.5408596;0.5394784;1.809859;0.6364269;-0.6884978;1.020049;0.7387921;-0.312335;2.308595
736773.0291;NotLabelled;16384;-0.4958449;0.4833795;-0.5524459;-0.4639889;3;5;18;-382;4356;274;65536;0.6896423;-0.3905817;0.4113573;0.4501385;15;-7;-15;-1743;4174;-1586;8192;0.6746063;-0.6218836;-0.3448753;-0.1980609;-20;-36;16;952;4218;856;32768;0.8022715;-0.5110803;-0.1357341;-0.2770083;-6;-52;-15;1270;3892;-1555;256;0.1274238;-0.01523546;-0.9168201;-0.3781163;-79;5;-24;-702;3110;3420;128;-0.1246537;0.006925208;0.9287579;0.3490305;114;0;24;498;3106;-3124;4;-0.5124654;0.2493075;-0.4044321;-0.7153039;12;-11;7;2224;3250;-676;16;-0.1218837;-0.9697764;-0.1288089;0.16759;3;24;-3;-987;-1175;3674;2;0.6513968;-0.4058172;-0.2867036;-0.5734072;1;-1;-8;-2702;3230;-172;8;-0.08310249;-0.9724373;0.1440443;0.1634349;-18;0;-1;1359;-505;3925;0.8584718;0.6656524;1.846228;0.8612837;0.9218894;1.36461;0.8637357;1.145336;0.9403172;0.8305772;1.669909;0.4282765;0.5593388;1.860183;0.1733783;0.2222698;1.782384;0.3164558;0.1150379;0.8638264;0.3719776;0;0;0;1.078646;1.893011;0.1733749;1.370548;1.85497;0.3164503;1.560731;0.9124733;0.3781542;1.597289;0.06506824;-0.04416722;0.5464076;0.6409441;1.882803;0.6530972;-0.5814607;1.085807;0.7397215;-0.2036121;2.375015;0.5464076;0.6409441;1.882803;0.6530972;-0.5814607;1.085807;0.7397215;-0.2036121;2.375015
736794.0376;NotLabelled;16384;-0.4972299;0.4833795;-0.5500307;-0.4653739;0;3;21;-482;4724;264;65536;0.6920261;-0.3878116;0.4099723;0.4501385;17;-9;-22;-1795;4316;-1526;8192;0.6769128;-0.6218836;-0.3434903;-0.1925208;-19;-36;14;1194;4274;768;32768;0.8026289;-0.5138504;-0.134349;-0.2714681;-5;-36;-12;1428;3876;-1639;256;0.1315789;-0.01246537;-0.9207693;-0.367036;-76;0;-21;-528;2768;3270;128;-0.1288089;0.004155125;0.9332981;0.33518;92;-10;22;268;2806;-2840;4;-0.5083103;0.2479224;-0.4030471;-0.7195194;13;-13;0;2200;3366;-562;16;-0.1204986;-0.9685214;-0.1357341;0.1703601;1;20;-9;-1195;-1239;3898;2;0.6528646;-0.4044321;-0.2853186;-0.5734072;3;-3;-2;-2700;3436;12;8;-0.08587258;-0.9721966;0.1440443;0.1634349;-19;-3;-2;1157;-567;3971;0.8603216;0.7161852;1.893309;0.8629386;0.9546634;1.402654;0.8652191;1.162467;0.9704837;0.8301293;1.67408;0.4456198;0.5583113;1.856558;0.1856875;0.2214205;1.780497;0.3301132;0.1151128;0.8613807;0.3775813;0;0;0;1.077436;1.892164;0.1856844;1.369293;1.859228;0.3301082;1.568487;0.9188405;0.3954411;1.61109;0.07054162;-0.02451295;0.5482726;0.6928307;1.930887;0.6634631;-0.5276072;1.132063;0.7442436;-0.1512358;2.422081;0.5482726;0.6928307;1.930887;0.6634631;-0.5276072;1.132063;0.7442436;-0.1512358;2.422081
736814.0478;NotLabelled;16384;-0.5;0.4819945;-0.5475558;-0.466759;0;-1;18;-312;5006;406;65536;0.6942555;-0.3836565;0.4085872;0.4515235;19;-9;-27;-1695;4664;-1288;8192;0.678464;-0.6218836;-0.3434903;-0.1869806;-20;-32;13;1088;4330;638;32768;0.8035951;-0.5152354;-0.134349;-0.265928;-1;-30;-8;1720;4140;-1737;256;0.134349;-0.009695291;-0.9242099;-0.3573407;-66;-2;-17;-278;2706;3144;128;-0.132964;0.004155125;0.9371011;0.3227147;91;-15;22;148;2812;-2928;4;-0.5055401;0.2479224;-0.4016621;-0.7222404;13;-19;0;2244;3336;-606;16;-0.1191136;-0.9680559;-0.1385041;0.1717452;-3;27;-8;-1017;-1171;4048;2;0.6534681;-0.4044321;-0.2839335;-0.5734072;0;-12;6;-2768;3490;20;8;-0.08864266;-0.9719183;0.1426593;0.1648199;-22;2;-2;1177;-295;3945;0.857906;0.7610518;1.934519;0.8603593;0.9846107;1.436887;0.8624957;1.179273;0.9986404;0.825698;1.677664;0.4613184;0.5534065;1.852282;0.1965279;0.2166547;1.778022;0.3422097;0.1133699;0.8583318;0.3849808;0;0;0;1.072338;1.890597;0.196525;1.364101;1.862744;0.3422051;1.569683;0.9237782;0.4081812;1.615745;0.07305837;-0.006477296;0.5458695;0.738844;1.972888;0.6745731;-0.478575;1.171523;0.7519726;-0.1020906;2.461716;0.5458695;0.738844;1.972888;0.6745731;-0.478575;1.171523;0.7519726;-0.1020906;2.461716
736835.0237;NotLabelled;16384;-0.501385;0.4806094;-0.546323;-0.468144;2;1;16;-324;4936;586;65536;0.6964473;-0.3795014;0.4072022;0.4529086;17;-8;-28;-1461;4764;-1118;8192;0.6810322;-0.6218836;-0.3421052;-0.1800554;-20;-28;14;928;4322;594;32768;0.8051882;-0.5152354;-0.132964;-0.2617728;2;-35;-5;1608;4102;-1825;256;0.1371191;-0.008310249;-0.9275085;-0.3476454;-60;-6;-16;-626;2814;3220;128;-0.1357341;0.004155125;0.9413617;0.3088643;91;-16;20;316;2658;-3414;4;-0.5027701;0.2465374;-0.4016621;-0.7246442;16;-28;-2;2424;3270;-776;16;-0.1204986;-0.9670338;-0.1426593;0.1731302;-6;27;-6;-835;-1161;3924;2;0.6550325;-0.4058172;-0.2839335;-0.5706371;-4;-24;11;-2910;3304;82;8;-0.09141274;-0.9716281;0.1412742;0.166205;-22;7;0;1097;-255;3893;0.8549025;0.8002743;2.003253;0.8572099;1.010542;1.499861;0.8592178;1.193501;1.056599;0.822399;1.680099;0.5085762;0.5504142;1.84778;0.2390299;0.2134063;1.775146;0.384938;0.111142;0.8543948;0.394275;0;0;0;1.069167;1.888417;0.2402566;1.360458;1.865003;0.387652;1.572564;0.9263123;0.4339847;1.625358;0.07395315;0.0235163;0.5428771;0.7790941;2.042289;0.6845954;-0.4365971;1.240497;0.7567418;-0.06208682;2.531569;0.5428771;0.7790941;2.042289;0.6845954;-0.4365971;1.240497;0.7567418;-0.06208682;2.531569
736855.1529;NotLabelled;16384;-0.5069252;0.4806094;-0.5423813;-0.466759;-9;20;20;198;4634;602;65536;0.7017393;-0.3739612;0.4016621;0.4542936;9;2;-26;-1595;4254;-1388;8192;0.6851225;-0.6204986;-0.3421052;-0.1689751;-23;-37;16;934;4400;890;32768;0.8089485;-0.5152354;-0.1288089;-0.2520775;5;-44;2;1602;4040;-1679;256;0.1440443;-0.005540166;-0.933037;-0.3296399;-65;-7;-14;-418;2678;3730;128;-0.1412742;-0.001385042;0.9492033;0.2811634;101;4;18;510;2340;-3832;4;-0.4986149;0.2465374;-0.400277;-0.7282724;14;-27;-7;2578;3180;-686;16;-0.1204986;-0.9661626;-0.1468144;0.1745152;-8;26;-5;-645;-1013;3950;2;0.6571755;-0.4072022;-0.2825485;-0.567867;-5;-27;13;-2696;3198;-18;8;-0.09418282;-0.9715639;0.1398892;0.166205;-24;10;2;1093;-335;3875;0.8547273;0.8392216;2.014508;0.8568724;1.03469;1.505186;0.8587371;1.204617;1.056767;0.8206613;1.679508;0.4986535;0.5481889;1.840991;0.2258347;0.2114129;1.770837;0.3734816;0.1102823;0.8503886;0.4030794;0;0;0;1.066868;1.882578;0.225832;1.358302;1.862795;0.3734771;1.579126;0.9276038;0.4436891;1.635493;0.07543397;0.03330207;0.5427145;0.819193;2.054247;0.689136;-0.3952765;1.251449;0.7595504;-0.01503444;2.54094;0.5427145;0.819193;2.054247;0.689136;-0.3952765;1.251449;0.7595504;-0.01503444;2.54094
736875.2461;NotLabelled;16384;-0.5110803;0.4792244;-0.5397008;-0.466759;-4;15;23;136;4558;272;65536;0.704944;-0.3725762;0.398892;0.4529086;4;15;-18;-1333;4010;-1046;8192;0.6871538;-0.6204986;-0.3407202;-0.1634349;-25;-41;15;974;4474;842;32768;0.8108812;-0.5152354;-0.1246537;-0.2479224;6;-44;6;1704;4088;-1671;256;0.1468144;-0.005540166;-0.9359756;-0.3199446;-66;-7;-12;-308;2696;3720;128;-0.1426593;-0.004155125;0.9529821;0.267313;91;0;18;376;2402;-3896;4;-0.4944598;0.2451524;-0.400277;-0.7315655;10;-28;-10;2828;3062;-832;16;-0.1204986;-0.9656998;-0.1481994;0.1759003;-6;12;-5;-657;-931;3890;2;0.6592929;-0.4085872;-0.2839335;-0.5637119;-2;-14;16;-2352;3358;128;8;-0.101108;-0.9714573;0.1357341;0.166205;-22;5;3;1301;-799;3931;0.8477814;0.9197215;2.08549;0.8495914;1.084647;1.565472;0.8511612;1.227688;1.107766;0.8127252;1.680243;0.5314168;0.54041;1.829647;0.251648;0.2034767;1.763701;0.4008669;0.1010479;0.8431275;0.4203835;0;0;0;1.058887;1.873683;0.2516451;1.349918;1.861072;0.4008623;1.586381;0.9300851;0.4758537;1.652504;0.07867193;0.06535357;0.5357952;0.9020904;2.126549;0.702632;-0.3106942;1.325189;0.7585011;0.07174969;2.614741;0.5357952;0.9020904;2.126549;0.702632;-0.3106942;1.325189;0.7585011;0.07174969;2.614741
736917.1706;NotLabelled;16384;-0.5180055;0.4819945;-0.5329784;-0.4639889;2;34;13;-590;4686;338;65536;0.7090858;-0.3739612;0.3933518;0.4501385;1;16;-7;-849;4520;-682;8192;0.6906818;-0.6204986;-0.3393352;-0.1509695;-21;-24;12;966;4488;878;32768;0.8156872;-0.5138504;-0.1177285;-0.2382271;5;-39;6;1520;4132;-1565;256;0.1509695;-0.002770083;-0.9408481;-0.3033241;-53;-9;-12;-612;2736;3518;128;-0.1468144;-0.009695291;0.9582546;0.2451524;79;-1;19;420;2342;-3538;4;-0.4833795;0.2465374;-0.4016621;-0.7377203;10;-21;-22;2506;3310;-820;16;-0.1232687;-0.9644495;-0.1523546;0.1772853;-4;13;-6;-1079;-1067;3734;2;0.6628795;-0.4141274;-0.2839335;-0.5554016;-2;-32;27;-2460;3688;346;8;-0.1080332;-0.9710949;0.132964;0.166205;-27;1;0;979;-603;3945;0.8435193;0.959591;2.12182;0.8451606;1.10916;1.59718;0.8465818;1.238686;1.135466;0.8096233;1.679367;0.5498931;0.5379499;1.823287;0.266646;0.20069;1.760765;0.4165987;0.09760782;0.8401175;0.4271688;0;0;0;1.056473;1.866775;0.2666433;1.347234;1.856924;0.4165943;1.589657;0.9275887;0.4930301;1.657084;0.0772543;0.08051002;0.5315464;0.9431759;2.163481;0.7079812;-0.2684643;1.362445;0.7590877;0.1150324;2.651881;0.5315464;0.9431759;2.163481;0.7079812;-0.2684643;1.362445;0.7590877;0.1150324;2.651881
736939.0157;NotLabelled;16384;-0.5207756;0.4847645;-0.5277408;-0.4639889;7;27;11;-652;4580;164;65536;0.7116338;-0.3753462;0.3905817;0.4473684;-7;20;-2;-697;4510;-550;8192;0.6928171;-0.6191136;-0.3393352;-0.1468144;-19;-21;13;798;4356;968;32768;0.8168857;-0.5138504;-0.1149584;-0.2354571;3;-31;5;1434;3966;-1613;256;0.1537396;-0.002770083;-0.9430394;-0.2950138;-50;-12;-12;-638;2588;3616;128;-0.1495845;-0.01246537;0.9602234;0.2354571;77;1;17;464;2416;-3794;4;-0.4778393;0.2479224;-0.4030471;-0.7401061;10;-22;-26;2464;3330;-902;16;-0.1232687;-0.9637521;-0.1551246;0.1786704;-3;12;-7;-1063;-1089;3680;2;0.6651633;-0.4168975;-0.2853186;-0.5498615;-6;-29;30;-2444;3636;282;8;-0.1121884;-0.9705743;0.1315789;0.16759;-24;0;-1;933;-551;3799;0.8328862;1.032499;2.168355;0.8342539;1.157121;1.637234;0.8354344;1.264694;1.169917;0.7990707;1.684134;0.5689095;0.5278782;1.817096;0.2799054;0.1903303;1.758989;0.4309818;0.08906005;0.8380826;0.4329919;0;0;0;1.046278;1.862041;0.2799029;1.3366;1.858368;0.4309778;1.594106;0.9333887;0.5108433;1.666938;0.08591938;0.09337634;0.5209352;1.018074;2.210906;0.7197589;-0.1977754;1.421578;0.7622045;0.1950448;2.708519;0.5209352;1.018074;2.210906;0.7197589;-0.1977754;1.421578;0.7622045;0.1950448;2.708519
736959.1867;NotLabelled;16384;0.5252669;-0.4889196;0.5193906;0.4639889;22;17;4;74;4472;70;65536;0.7084038;-0.3905817;0.3878116;0.4418283;-28;33;33;447;4210;478;8192;0.6955929;-0.6177285;-0.3379501;-0.1426593;-20;-32;15;684;4104;1010;32768;0.8180637;-0.5138504;-0.1121884;-0.232687;4;-27;6;1552;3836;-1649;256;0.1565097;-0.002770083;-0.9451445;-0.2867036;-54;-13;-11;-624;2532;3782;128;-0.1509695;-0.01523546;0.9629386;0.2229917;71;-4;16;424;2198;-3940;4;-0.4736842;0.2506925;-0.4044321;-0.7410879;10;-17;-30;2406;3382;-892;16;-0.1232687;-0.9632702;-0.1565097;0.1800554;-1;16;-6;-853;-1295;3602;2;0.6662468;-0.4196676;-0.2867036;-0.5457063;-7;-14;33;-2258;3506;50;8;-0.1149584;-0.9700098;0.1315789;0.1689751;-21;1;-2;959;-605;3679;0.8212578;1.065594;2.18934;0.822504;1.179154;1.655744;0.8235779;1.276995;1.186293;0.7884922;1.68592;0.5780075;0.5178524;1.81406;0.2863187;0.1800265;1.758892;0.4378751;0.0847867;0.8373437;0.4352752;0;0;0;1.036291;1.858542;0.2863156;1.326384;1.857251;0.43787;1.590634;0.934267;0.5187864;1.665104;0.08748436;0.100216;0.5093164;1.052057;2.232252;0.7203003;-0.1675367;1.451908;0.7575218;0.226953;2.738501;0.5093164;1.052057;2.232252;0.7203003;-0.1675367;1.451908;0.7575218;0.226953;2.738501
736980.3711;NotLabelled;16384;0.5254458;-0.4958449;0.5138504;0.4626039;46;39;-21;-578;4854;-1052;65536;0.7049086;-0.4044321;0.3878116;0.434903;-57;50;74;3239;4666;2514;8192;0.7000299;-0.6177285;-0.333795;-0.1301939;-18;-40;7;774;4254;856;32768;0.821785;-0.5124654;-0.1052632;-0.2257618;3;-42;5;1432;3610;-1563;256;0.1592798;-0.004155125;-0.9495619;-0.2700831;-52;-17;-2;-636;2662;3904;128;-0.1537396;-0.0166205;0.966765;0.2036011;61;-3;15;402;1902;-4214;4;-0.4695291;0.2534626;-0.4058172;-0.7420321;10;-19;-33;2232;3348;-866;16;-0.1232687;-0.9627842;-0.1578947;0.1814404;0;13;-3;-839;-1195;3694;2;0.6642296;-0.4252077;-0.2936288;-0.5401662;-6;-8;39;-2318;3326;86;8;-0.1191136;-0.9698209;0.1274238;0.1703601;-11;8;-4;1045;-703;3369;0.7988749;1.117108;2.189294;0.7999668;1.216612;1.652899;0.8009048;1.302086;1.18104;0.7671227;1.700408;0.5656849;0.4970407;1.823718;0.2714094;0.1589371;1.771521;0.4233975;0.07326523;0.8490767;0.4141221;0;0;0;1.015523;1.867692;0.2714059;1.30539;1.868754;0.4233925;1.575783;0.9473937;0.5024965;1.651885;0.101289;0.08285064;0.4869458;1.104704;2.232637;0.7097653;-0.1198764;1.463473;0.7422977;0.2757037;2.749858;0.4869458;1.104704;2.232637;0.7097653;-0.1198764;1.463473;0.7422977;0.2757037;2.749858
737001.0281;NotLabelled;16384;0.5213389;-0.5083103;0.5083103;0.4598338;65;64;-60;-2840;4698;-768;65536;0.6979084;-0.4196676;0.3919668;0.4279778;-54;26;86;1801;7112;-906;8192;0.701448;-0.6177285;-0.33241;-0.1260388;-16;-36;5;736;4304;844;32768;0.8232648;-0.5124654;-0.1024931;-0.2216066;2;-43;0;1366;3794;-1643;256;0.1606648;-0.005540166;-0.9512644;-0.2631579;-47;-21;-2;-888;2466;3856;128;-0.1551246;-0.01800554;0.9679518;0.1966759;54;-1;13;476;1912;-3996;4;-0.4570637;0.2576177;-0.4113573;-0.7453261;6;-37;-38;2198;3410;-1142;16;-0.1218837;-0.9625022;-0.1606648;0.1814404;1;6;0;-843;-1225;3872;2;0.6639668;-0.4279778;-0.2977839;-0.536011;-6;-21;44;-2498;3566;260;8;-0.1204986;-0.9698308;0.1260388;0.1703601;-5;10;-6;1123;-887;3475;0.7801936;1.191253;2.187124;0.781049;1.269207;1.647176;0.7817789;1.335728;1.172273;0.7521999;1.71308;0.5436299;0.4837023;1.828011;0.244552;0.1448657;1.78316;0.397252;0.06809516;0.8599007;0.392084;0;0;0;1.002455;1.868675;0.2445489;1.291916;1.873074;0.397247;1.574766;0.9555788;0.4777065;1.653188;0.1124427;0.05254984;0.4682837;1.180596;2.231066;0.7038834;-0.04886627;1.473588;0.7299125;0.3478119;2.759783;0.4682837;1.180596;2.231066;0.7038834;-0.04886627;1.473588;0.7299125;0.3478119;2.759783
737041.9132;NotLabelled;16384;0.5124654;-0.5222672;0.5069252;0.4556787;39;-9;-49;-3034;5152;1446;65536;0.6929126;-0.4265928;0.3933518;0.4279778;-44;-8;30;-2201;5210;-2300;8192;0.7022679;-0.6191136;-0.3296399;-0.1218837;-10;-39;2;656;4280;970;32768;0.8250756;-0.5124654;-0.09972299;-0.2160665;2;-40;-5;1224;3846;-1487;256;0.1634349;-0.008310249;-0.9530334;-0.2548476;-46;-30;-7;-1238;1842;3946;128;-0.1565097;-0.01939058;0.969354;0.1883656;50;-8;11;746;1750;-3732;4;-0.4515235;0.2590028;-0.4155124;-0.7459179;1;-32;-41;2192;3492;-930;16;-0.1218837;-0.9625022;-0.1606648;0.1814404;0;4;0;-1079;-1173;3840;2;0.6644765;-0.432133;-0.300554;-0.5304709;-5;-31;50;-2562;3712;230;8;-0.1204986;-0.9695192;0.1246537;0.1731302;-2;9;-7;1219;-783;3559;0.7664657;1.228166;2.148535;0.7672348;1.298267;1.607511;0.7678888;1.35788;1.131692;0.740523;1.726575;0.4978322;0.4728129;1.838444;0.1968932;0.1336358;1.797121;0.3498328;0.06943808;0.8729646;0.3618124;0;0;0;0.9917294;1.87696;0.1968902;1.281049;1.882287;0.3498276;1.567945;0.9661088;0.4309682;1.648394;0.1235268;0.005090356;0.4545628;1.218149;2.192677;0.7051052;-0.02362108;1.460493;0.7253295;0.370728;2.747508;0.4545628;1.218149;2.192677;0.7051052;-0.02362108;1.460493;0.7253295;0.370728;2.747508
737063.1314;NotLabelled;16384;0.501385;-0.5227519;0.5124654;0.4612188;32;-86;-30;-632;5204;1542;65536;0.6885287;-0.433518;0.3919668;0.4293629;-44;-1;18;-1737;4474;-1624;8192;0.7042688;-0.6191136;-0.3268698;-0.1177285;-11;-45;1;752;4230;1020;32768;0.8263186;-0.5124654;-0.09833795;-0.2119114;0;-40;-8;1334;3732;-1503;256;0.166205;-0.009695291;-0.9547257;-0.2465374;-41;-32;-12;-770;1462;3828;128;-0.1578947;-0.02077562;0.9701611;0.1828255;38;-10;10;1112;1578;-4030;4;-0.4445983;0.2617728;-0.4196676;-0.7467841;1;-31;-43;2178;3472;-1022;16;-0.1218837;-0.9620078;-0.1620499;0.1828255;0;15;0;-1213;-1303;3850;2;0.6653607;-0.4362881;-0.3047091;-0.5235457;-5;-37;55;-2300;3684;420;8;-0.1204986;-0.969448;0.1232687;0.1745152;1;9;-8;891;-539;3651;0.7483068;1.260529;2.116225;0.7489729;1.321253;1.574068;0.7495363;1.37262;1.097288;0.7252999;1.731061;0.4574488;0.4586655;1.839745;0.154395;0.1190549;1.803158;0.3075779;0.06379832;0.8792071;0.3474498;0;0;0;0.977824;1.874849;0.1543916;1.267003;1.880779;0.3075728;1.554719;0.9650717;0.3910849;1.639988;0.1229415;-0.03474832;0.4364123;1.251278;2.160593;0.6929399;0.002072334;1.443281;0.7036234;0.3964214;2.73041;0.4364123;1.251278;2.160593;0.6929399;0.002072334;1.443281;0.7036234;0.3964214;2.73041
737084.0896;NotLabelled;16384;-0.4819945;0.5180055;-0.5281042;-0.4695291;26;-32;-42;1936;4354;-492;65536;0.6771182;-0.4432133;0.3933518;0.4362881;-40;-43;30;-1321;4138;-1988;8192;0.7056471;-0.6204986;-0.3227147;-0.1135734;-13;-47;0;756;4200;1066;32768;0.8271853;-0.5138504;-0.09556787;-0.2063712;-3;-41;-9;1440;3646;-1443;256;0.1703601;-0.01385042;-0.9553565;-0.2409972;-33;-32;-10;16;2108;3606;128;-0.1592798;-0.02077562;0.9709625;0.1772853;31;-5;12;870;1472;-3868;4;-0.4390582;0.2645429;-0.4224377;-0.7475235;2;-27;-45;2126;3342;-1126;16;-0.1204986;-0.9617116;-0.1648199;0.1828255;-1;21;1;-1153;-1265;3924;2;0.6669159;-0.4418283;-0.3074792;-0.5152354;-6;-35;56;-2076;3458;354;8;-0.1191136;-0.9695439;0.1218837;0.1759003;6;16;-11;843;-519;3609;0.7287617;1.288226;2.099105;0.7293586;1.342603;1.556275;0.7298611;1.388388;1.078926;0.7077526;1.73619;0.4331653;0.4418815;1.840869;0.1280382;0.1019632;1.808212;0.2814274;0.05326265;0.8846028;0.3353159;0;0;0;0.9611772;1.87388;0.1280354;1.250215;1.881203;0.2814226;1.540941;0.9663708;0.3641028;1.631205;0.1243761;-0.06096649;0.4168732;1.279495;2.143618;0.6827412;0.02180028;1.444778;0.6880187;0.417268;2.731598;0.4168732;1.279495;2.143618;0.6827412;0.02180028;1.444778;0.6880187;0.417268;2.731598
737105.0448;NotLabelled;16384;0.4778393;-0.5276464;0.5235457;0.468144;45;28;-40;-116;4630;-554;65536;0.6709523;-0.4473684;0.3961219;0.4390582;-38;-30;32;-2005;4552;-450;8192;0.7106735;-0.6218836;-0.3130194;-0.101108;-16;-67;-8;1066;4044;900;32768;0.8289436;-0.5166205;-0.09141274;-0.1939058;-6;-58;-9;1788;3744;-1989;256;0.1731302;-0.02077562;-0.9571279;-0.2313019;-27;-28;-2;-680;1892;3684;128;-0.1634349;-0.02077562;0.9729323;0.1620499;46;-16;15;264;1330;-3900;4;-0.433518;0.2686981;-0.4265928;-0.746915;0;-20;-44;1938;3390;-1044;16;-0.1204986;-0.9612328;-0.16759;0.1828255;-1;15;0;-1105;-1077;3886;2;0.6677495;-0.4515235;-0.3144044;-0.501385;-4;-27;53;-1480;3212;228;8;-0.1149584;-0.9703845;0.1149584;0.1786704;2;26;-9;1119;-633;3999;0.7081103;1.310859;2.059428;0.7086395;1.359095;1.516018;0.7090828;1.39948;1.038182;0.6900572;1.740841;0.3888952;0.4251847;1.844474;0.08254495;0.08493478;1.816035;0.2360386;0.03654562;0.8939574;0.3119332;0;0;0;0.9447224;1.873431;0.08254182;1.233721;1.880063;0.2360334;1.524036;0.9652371;0.3202139;1.618816;0.1223452;-0.1020858;0.3962272;1.302632;2.104076;0.6750274;0.0386548;1.421807;0.6660925;0.4318027;2.709317;0.3962272;1.302632;2.104076;0.6750274;0.0386548;1.421807;0.6660925;0.4318027;2.709317
737126.0633;NotLabelled;16384;0.4722992;-0.536528;0.5207756;0.466759;46;13;-38;-2218;5934;-356;65536;0.6655092;-0.4515235;0.3975069;0.4418283;-30;-19;19;-2335;5654;-386;8192;0.7134228;-0.6232687;-0.3060942;-0.09418282;-10;-63;-11;1540;3680;906;32768;0.830428;-0.5180055;-0.08725762;-0.1855956;0;-73;-5;1676;3770;-2083;256;0.1759003;-0.0235457;-0.9578812;-0.2257618;-23;-45;1;-1224;1432;4214;128;-0.1648199;-0.01939058;0.9738556;0.1551246;45;-15;12;390;1248;-3808;4;-0.4210526;0.2742382;-0.434903;-0.7472399;-3;-28;-46;1514;3450;-1108;16;-0.1204986;-0.9599857;-0.1731302;0.1842105;0;15;-3;-1265;-1171;3610;2;0.666146;-0.4570637;-0.3185596;-0.4958449;-2;-30;55;-1396;3404;378;8;-0.1121884;-0.9705189;0.1121884;0.1814404;5;23;-6;913;-453;3881;0.6856023;1.350889;2.042965;0.6859461;1.382238;1.498319;0.6862264;1.407774;1.01946;0.6729023;1.737957;0.3642784;0.4098685;1.840258;0.05590269;0.06911363;1.819734;0.2095387;0.03105476;0.8984299;0.2994266;0;0;0;0.9297892;1.861239;0.0558995;1.218747;1.866126;0.2095334;1.515647;0.9530337;0.2894533;1.617557;0.1078627;-0.1265856;0.3737343;1.344054;2.087953;0.6625979;0.07076454;1.427536;0.6408318;0.4651203;2.714523;0.3737343;1.344054;2.087953;0.6625979;0.07076454;1.427536;0.6408318;0.4651203;2.714523
737147.0389;NotLabelled;16384;0.4653739;-0.5400153;0.5221606;0.468144;28;-47;-39;-1790;5238;230;65536;0.6609349;-0.4542936;0.398892;0.4445983;-26;-21;15;-1023;5726;-1370;8192;0.7152745;-0.6246537;-0.300554;-0.08864266;-11;-60;-11;1346;3460;890;32768;0.8326669;-0.5180055;-0.08310249;-0.1772853;6;-62;0;1116;3498;-1905;256;0.1772853;-0.03185596;-0.9586749;-0.2202216;-22;-59;2;-1078;1250;4580;128;-0.166205;-0.01939058;0.9746983;0.1481994;48;-5;8;852;1064;-4150;4;-0.4155124;0.2770083;-0.4404432;-0.7460735;-3;-26;-49;1540;3502;-1084;16;-0.1191136;-0.9596549;-0.1759003;0.1842105;2;19;-3;-1263;-1223;3654;2;0.6674147;-0.4612188;-0.3227147;-0.4875346;-3;-28;57;-1402;3574;566;8;-0.1108033;-0.9708894;0.1080332;0.1828255;9;24;-7;1067;-531;3801;0.668115;1.372007;2.020904;0.6683777;1.395941;1.475882;0.6685863;1.414957;0.9967197;0.6574806;1.738408;0.3381465;0.3951764;1.839086;0.02861734;0.0542495;1.822203;0.1823154;0.02450512;0.9022937;0.2882049;0;0;0;0.915214;1.856942;0.02861428;1.204141;1.861685;0.1823104;1.502352;0.948832;0.2600583;1.607976;0.1029298;-0.1535606;0.3562539;1.365785;2.066027;0.6559329;0.07689381;1.441679;0.6268064;0.4742174;2.727608;0.3562539;1.365785;2.066027;0.6559329;0.07689381;1.441679;0.6268064;0.4742174;2.727608
737168.0422;NotLabelled;16384;0.4556787;-0.5391335;0.5290859;0.4709141;18;-68;-36;-130;3836;162;65536;0.6571216;-0.4584487;0.398892;0.4459834;-32;-17;21;-719;4024;-1122;8192;0.718966;-0.6246537;-0.2936288;-0.08171745;-16;-68;-17;1290;3732;976;32768;0.8350893;-0.5166205;-0.07894737;-0.1717452;7;-46;7;1110;3402;-1475;256;0.1786704;-0.0401662;-0.959051;-0.2160665;-18;-57;1;-168;1496;4142;128;-0.166205;-0.02216066;0.9760642;0.1385041;70;0;6;1126;842;-4342;4;-0.4085872;0.2811634;-0.4445983;-0.7458793;-4;-24;-49;1604;3598;-1090;16;-0.1177285;-0.959047;-0.1786704;0.1855956;3;24;-2;-1289;-1323;3654;2;0.6665634;-0.466759;-0.3268698;-0.4806094;-6;-25;58;-1400;3678;566;8;-0.1080332;-0.971244;0.1052632;0.1842105;8;22;-7;1351;-709;3941;0.6504095;1.383988;2.004107;0.6505885;1.400292;1.458804;0.6507235;1.412601;0.9794222;0.6453128;1.730731;0.3181911;0.3848347;1.833368;0.007764488;0.04364507;1.823663;0.1614999;0.01902535;0.9051025;0.2796878;0;0;0;0.9051036;1.842217;0.0077613;1.194048;1.843229;0.161495;1.492766;0.9304652;0.2383261;1.603437;0.08513498;-0.1751435;0.3385551;1.378398;2.049361;0.6408172;0.07997322;1.446377;0.6025078;0.4749851;2.732778;0.3385551;1.378398;2.049361;0.6408172;0.07997322;1.446377;0.6025078;0.4749851;2.732778
737188.0427;NotLabelled;16384;0.4432133;-0.5416275;0.534626;0.4736842;26;3;-40;122;3762;-668;65536;0.6467002;-0.4653739;0.4016621;0.4515235;-28;-21;23;-1253;3978;-386;8192;0.7224011;-0.6260388;-0.2839335;-0.07479224;-21;-76;-21;1192;4440;686;32768;0.8361901;-0.5166205;-0.07617728;-0.16759;9;-37;4;764;3810;-1471;256;0.1800554;-0.04709141;-0.959404;-0.2119114;-16;-45;0;70;1750;3644;128;-0.166205;-0.02631579;0.977649;0.1260388;87;7;8;680;764;-3886;4;-0.4030471;0.2853186;-0.4501385;-0.7439904;-8;-24;-50;1482;3708;-1196;16;-0.1177285;-0.9582576;-0.1814404;0.1869806;4;23;-2;-1143;-1327;3588;2;0.6658579;-0.4709141;-0.33241;-0.4736842;-6;-26;58;-1264;3616;580;8;-0.1066482;-0.9712825;0.1038781;0.1855956;2;18;-6;1405;-765;4177;0.6371565;1.400139;1.984635;0.6372143;1.405406;1.439114;0.6372429;1.408013;0.9595814;0.6371905;1.72266;0.2966636;0.3784779;1.828012;-0.01432875;0.03717307;1.824874;0.139425;0.01271921;0.9080395;0.2703682;0;0;0;0.8988218;1.828099;-0.01433212;1.187742;1.825066;0.1394197;1.489683;0.9129506;0.2112033;1.60419;0.06966007;-0.2053734;0.3253126;1.395467;2.030062;0.6371713;0.08886874;1.450059;0.5935358;0.4821497;2.73682;0.3253126;1.395467;2.030062;0.6371713;0.08886874;1.450059;0.5935358;0.4821497;2.73682
737209.0279;NotLabelled;16384;0.4376731;-0.5486618;0.533241;0.4722992;26;3;-38;-690;4182;-324;65536;0.6436898;-0.4695291;0.4016621;0.4515235;-30;1;25;-1427;4044;-544;8192;0.7280182;-0.6288089;-0.2645429;-0.06786703;1;-48;-48;1674;4016;132;32768;0.8396391;-0.5138504;-0.07479224;-0.1592798;12;-27;-13;580;4344;-1597;256;0.1814404;-0.05263158;-0.9597638;-0.2077562;-17;-37;1;184;1506;3646;128;-0.16759;-0.03047091;0.9788188;0.1135734;80;9;14;564;448;-4066;4;-0.3961219;0.2880886;-0.4556787;-0.7432694;-12;-26;-51;1306;3716;-1288;16;-0.1163435;-0.9576308;-0.1855956;0.1869806;7;21;0;-1085;-1243;3560;2;0.6654372;-0.4792244;-0.3407202;-0.4598338;-5;-17;52;-1054;3572;626;8;-0.1052632;-0.9715807;0.1024931;0.1855956;5;2;0;949;-535;3981;0.6166021;1.426326;1.946903;0.6165032;1.417317;1.40143;0.6163942;1.407376;0.9219936;0.6207608;1.718196;0.2572874;0.3635468;1.825435;-0.05430296;0.02224427;1.828027;0.09946623;0.00294359;0.9140291;0.2496774;0;0;0;0.8838394;1.818126;-0.05430621;1.1727;1.811865;0.09946078;1.473824;0.8990049;0.1649362;1.590905;0.0561378;-0.2517828;0.3047711;1.422845;1.992526;0.6197804;0.1063001;1.437245;0.57131;0.5013914;2.723278;0.3047711;1.422845;1.992526;0.6197804;0.1063001;1.437245;0.57131;0.5013914;2.723278
737230.0245;NotLabelled;16384;0.433518;-0.5517944;0.534626;0.4709141;20;-15;-36;-1020;4092;-350;65536;0.6404796;-0.4750692;0.400277;0.4515235;-30;8;30;-845;4118;-588;8192;0.7288122;-0.6301939;-0.2590028;-0.06786703;0;-25;-43;2184;3584;540;32768;0.8400354;-0.5138504;-0.07617728;-0.1565097;13;-18;-14;418;3960;-1551;256;0.1828255;-0.06094183;-0.9607717;-0.199446;-12;-35;7;-158;1076;3926;128;-0.1717452;-0.03185596;0.9799773;0.09556787;38;-14;14;394;374;-4372;4;-0.3905817;0.2908587;-0.4612188;-0.7417037;-14;-27;-49;1048;3638;-1298;16;-0.1135734;-0.9576939;-0.1869806;0.1869806;10;18;4;-1137;-1131;3660;2;0.6633742;-0.4833795;-0.3462604;-0.4542936;-3;-19;52;-996;3698;546;8;-0.1038781;-0.9718749;0.101108;0.1855956;4;5;0;1133;-641;3921;0.6036364;1.455442;1.948659;0.6033805;1.432106;1.403611;0.6031332;1.409573;0.9246013;0.6107398;1.716223;0.2579899;0.3546163;1.824516;-0.05413327;0.01345041;1.832011;0.09977803;-0.0009541586;0.9164422;0.2406864;0;0;0;0.8747891;1.811176;-0.05433792;1.163641;1.802514;0.0993287;1.454558;0.8843699;0.1248862;1.58252;0.04415083;-0.2939768;0.2918188;1.453162;1.994447;0.6098626;0.1280873;1.461639;0.5540763;0.5215008;2.74789;0.2918188;1.453162;1.994447;0.6098626;0.1280873;1.461639;0.5540763;0.5215008;2.74789
737251.076;NotLabelled;16384;0.4252077;-0.5555571;0.5373961;0.4709141;19;-35;-42;-1030;3752;-564;65536;0.6364413;-0.4806094;0.4016621;0.4501385;-27;-9;31;-589;4084;-502;8192;0.7290781;-0.6315789;-0.2548476;-0.06786703;0;-10;-38;2070;3400;832;32768;0.8412654;-0.5124654;-0.07756232;-0.1537396;14;-12;-7;470;3822;-1461;256;0.1828255;-0.06509695;-0.9613525;-0.1952908;-12;-35;9;-90;1214;3984;128;-0.1717452;-0.03185596;0.9807522;0.08725762;43;-5;10;500;322;-3914;4;-0.3781163;0.2963989;-0.4722992;-0.738992;-14;-23;-44;1066;3558;-1116;16;-0.1094183;-0.9570798;-0.1925208;0.1869806;9;19;2;-1327;-1029;3738;2;0.6635882;-0.4875346;-0.3490305;-0.4473684;-4;-29;53;-830;3806;650;8;-0.1038781;-0.9718749;0.101108;0.1855956;4;5;1;1105;-827;3941;0.5892208;1.489879;1.907206;0.5887456;1.446573;1.363381;0.5883058;1.406491;0.8855195;0.601464;1.704067;0.2148946;0.3473303;1.812937;-0.09865168;0.006392922;1.828801;0.05513113;-0.007806048;0.9191236;0.2301022;0;0;0;0.8671663;1.789951;-0.09865463;1.155839;1.777975;0.05512631;1.440424;0.8586044;0.100341;1.575571;0.01798224;-0.3154442;0.2774214;1.489282;1.953173;0.5969176;0.1557751;1.442742;0.5329898;0.5427628;2.730562;0.2774214;1.489282;1.953173;0.5969176;0.1557751;1.442742;0.5329898;0.5427628;2.730562
737271.1622;NotLabelled;16384;0.4182825;-0.5567781;0.5415512;0.4709141;15;-18;-45;-600;3806;-610;65536;0.6313375;-0.4861496;0.4030471;0.4501385;-24;-12;30;-587;4086;-466;8192;0.7315826;-0.6301939;-0.2506925;-0.06925207;0;-13;-38;1542;3604;850;32768;0.8416381;-0.5124654;-0.07894737;-0.1509695;12;-9;0;206;3732;-1229;256;0.1828255;-0.06925207;-0.9616209;-0.1925208;-15;-28;9;-310;1392;3790;128;-0.1717452;-0.033241;0.9812978;0.08033241;45;-7;6;654;290;-4064;4;-0.3725762;0.299169;-0.4778393;-0.7371259;-16;-26;-44;1184;3740;-1156;16;-0.1066482;-0.9568412;-0.1939058;0.1883656;11;18;-1;-1495;-1137;3800;2;0.6628463;-0.4930748;-0.3531856;-0.4390582;-1;-38;53;-718;3872;678;8;-0.1024931;-0.9720219;0.101108;0.1855956;4;3;0;1073;-853;3817;0.5820879;1.506717;1.87947;0.5815144;1.454442;1.336433;0.5809879;1.406479;0.8592985;0.5967604;1.699477;0.1867173;0.3435706;1.808705;-0.1274673;0.002855857;1.828855;0.0263072;-0.00810954;0.9223002;0.2170097;0;0;0;0.8631624;1.780735;-0.1274706;1.151762;1.767007;0.02630168;1.431092;0.8459195;0.0692755;1.57286;0.006304145;-0.3463389;0.2702969;1.506879;1.925497;0.5887862;0.1575507;1.457806;0.521961;0.5364319;2.747887;0.2702969;1.506879;1.925497;0.5887862;0.1575507;1.457806;0.521961;0.5364319;2.747887
737293.0521;NotLabelled;16384;0.4127424;-0.5618764;0.5429363;0.468144;16;-3;-49;-650;3820;-502;65536;0.6272251;-0.4903047;0.4044321;0.4501385;-22;-3;29;-843;4214;-354;8192;0.732133;-0.6315789;-0.2451524;-0.07063711;0;-24;-39;1428;4088;738;32768;0.8415071;-0.5124654;-0.08033241;-0.1509695;8;-6;2;134;4004;-1025;256;0.1828255;-0.07202215;-0.9622401;-0.1883656;-14;-26;8;48;1284;3684;128;-0.1731302;-0.03462604;0.9816515;0.07202215;42;-8;4;760;212;-4166;4;-0.368421;0.300554;-0.4833795;-0.7350357;-18;-20;-44;1274;3772;-1186;16;-0.1052632;-0.9561433;-0.1980609;0.1883656;10;24;-2;-1399;-1109;3794;2;0.6626726;-0.4986149;-0.3559557;-0.4307479;3;-35;52;-534;3982;632;8;-0.1038781;-0.9718749;0.101108;0.1855956;3;-1;-2;1083;-1063;3841;0.5763441;1.519745;1.853635;0.5756861;1.459767;1.311395;0.5750855;1.405035;0.8349897;0.593349;1.695316;0.1612938;0.3410835;1.805636;-0.1532527;0.0006018864;1.829454;0.000513832;-0.01025757;0.9254606;0.2030131;0;0;0;0.8604005;1.772962;-0.1532559;1.148901;1.757207;0.000508368;1.425346;0.8348768;0.03457177;1.572234;-0.00508976;-0.3785483;0.2645603;1.52056;1.899704;0.5816864;0.1636455;1.45353;0.5167867;0.5367403;2.745394;0.2645603;1.52056;1.899704;0.5816864;0.1636455;1.45353;0.5167867;0.5367403;2.745394
737313.0422;NotLabelled;16384;0.4030471;-0.5694222;0.5470914;0.4626039;4;-9;-45;-1094;4102;-504;65536;0.622639;-0.4986149;0.4044321;0.4473684;-23;10;29;-827;4094;-506;8192;0.7336695;-0.634349;-0.232687;-0.07202215;13;-21;-36;1818;3830;416;32768;0.8400377;-0.5152354;-0.08310249;-0.1481994;-6;-5;-2;18;4104;-703;256;0.1828255;-0.07479224;-0.962567;-0.1855956;-15;-18;10;-52;1202;3962;128;-0.1731302;-0.03462604;0.9820423;0.06648199;35;-2;5;704;324;-4086;4;-0.3642659;0.3033241;-0.4875346;-0.7332222;-19;-8;-43;1208;3850;-1182;16;-0.1024931;-0.9555923;-0.200831;0.1897507;10;20;-3;-1411;-1087;3872;2;0.6568106;-0.5096953;-0.3642659;-0.4196676;8;-6;51;-126;4066;538;8;-0.1038781;-0.9717298;0.1024931;0.1855956;4;-2;-4;771;-811;3889;0.5727317;1.538025;1.828651;0.5719721;1.468801;1.287514;0.5712824;1.405948;0.8121123;0.5912269;1.691279;0.1363532;0.3395774;1.801102;-0.17886;-0.0006537493;1.828385;-0.02511485;-0.01138427;0.9277916;0.1920161;0;0;0;0.8586548;1.76482;-0.1788631;1.147115;1.748157;-0.02511972;1.415535;0.8232942;0.004125714;1.564678;-0.01694059;-0.4076378;0.2609565;1.539627;1.874758;0.5725716;0.1758623;1.445922;0.5054069;0.5472989;2.738148;0.2609565;1.539627;1.874758;0.5725716;0.1758623;1.445922;0.5054069;0.5472989;2.738148
737334.0561;NotLabelled;16384;0.3975069;-0.5739907;0.5498615;0.4584487;1;-8;-51;-1092;3758;-720;65536;0.6201569;-0.5041551;0.4044321;0.4445983;-21;9;30;-559;4230;-410;8192;0.7330666;-0.6357341;-0.2299169;-0.07479224;18;-5;-34;1628;3610;456;32768;0.838576;-0.5180055;-0.08310249;-0.1468144;-14;-7;-5;-466;3874;-297;256;0.1814404;-0.07756232;-0.9639193;-0.1786704;-13;-17;10;-30;1264;3784;128;-0.1731302;-0.03601108;0.9826009;0.0567867;24;-10;0;632;160;-4052;4;-0.3614958;0.3060942;-0.4930748;-0.729729;-20;-7;-41;870;3732;-1188;16;-0.101108;-0.9548774;-0.2036011;0.1911357;8;22;-2;-1409;-1153;3734;2;0.6539875;-0.5138504;-0.3698061;-0.4141274;8;-4;52;-194;3984;600;8;-0.1024931;-0.9718769;0.1024931;0.1855956;4;6;-2;605;-587;3889;0.5711901;1.54611;1.786163;0.5703652;1.470951;1.245818;0.5696182;1.402882;0.7711349;0.5911664;1.685134;0.09413242;0.3401209;1.795194;-0.2214791;0.0001228675;1.825326;-0.06775074;-0.01303035;0.9312116;0.1745625;0;0;0;0.8589553;1.755584;-0.2214828;1.147354;1.737743;-0.06775576;1.400084;0.8081788;-0.0500685;1.552898;-0.03539515;-0.4535772;0.2594203;1.548218;1.832286;0.570466;0.1788052;1.421413;0.505646;0.5451127;2.715224;0.2594203;1.548218;1.832286;0.570466;0.1788052;1.421413;0.505646;0.5451127;2.715224
737355.2231;NotLabelled;16384;0.3919668;-0.578427;0.5526316;0.4542936;2;-2;-52;-1158;3538;-996;65536;0.6156989;-0.5096953;0.4058172;0.4432133;-17;7;28;-517;4152;-226;8192;0.7303018;-0.6398892;-0.2257618;-0.07894737;32;1;-39;1058;3648;152;32768;0.8353305;-0.5235457;-0.08587258;-0.1440443;-23;3;-17;-830;3948;131;256;0.1800554;-0.08033241;-0.9644614;-0.1759003;-13;-12;11;16;1416;3854;128;-0.1731302;-0.03601108;0.9828322;0.05263158;26;-5;-2;592;280;-4040;4;-0.3531856;0.3116343;-0.5027701;-0.7248215;-19;-17;-43;652;3784;-1138;16;-0.09695291;-0.9541549;-0.2063712;0.1939058;10;3;0;-1117;-1097;3594;2;0.6498532;-0.5193906;-0.3739612;-0.4099723;9;-8;50;-198;3922;752;8;-0.101108;-0.9724511;0.09833795;0.1855956;1;21;0;625;-621;4073;0.5718103;1.569572;1.761341;0.5708691;1.483804;1.222579;0.5700198;1.406416;0.7493255;0.5932588;1.679824;0.06875953;0.3428264;1.788011;-0.2479853;0.00326645;1.823023;-0.09432265;-0.01232826;0.9332533;0.1633494;0;0;0;0.861301;1.743943;-0.2479884;1.149702;1.72558;-0.09432757;1.394929;0.793962;-0.0792681;1.545156;-0.05236793;-0.4779478;0.2600505;1.572588;1.807481;0.5631658;0.1958559;1.415576;0.5042983;0.56058;2.710118;0.2600505;1.572588;1.807481;0.5631658;0.1958559;1.415576;0.5042983;0.56058;2.710118
737376.0622;NotLabelled;16384;0.3878116;-0.5818132;0.5554016;0.4501385;5;-3;-54;-1256;3710;-824;65536;0.6142312;-0.5138504;0.4058172;0.4404432;-13;6;29;-707;4136;-210;8192;0.7278759;-0.6440443;-0.2202216;-0.08310249;49;-7;-45;872;3676;-26;32768;0.8306809;-0.5304709;-0.09279778;-0.1412742;-35;3;-46;-2354;3774;815;256;0.1800554;-0.08033241;-0.9649625;-0.1731302;-14;-6;12;-322;1312;3972;128;-0.1717452;-0.03601108;0.9833561;0.04709141;26;-1;-2;708;182;-4040;4;-0.3476454;0.3144044;-0.5083103;-0.7224356;-18;-14;-43;712;3836;-992;16;-0.09556787;-0.9542946;-0.2063712;0.1939058;10;8;2;-1289;-1115;3492;2;0.6475821;-0.5235457;-0.3781163;-0.4044321;9;-13;49;-296;3820;760;8;-0.101108;-0.9728623;0.09418282;0.1855956;-1;30;0;1015;-617;4219;0.5723899;1.575456;1.732718;0.5714001;1.48526;1.19468;0.5705083;1.403983;0.7220789;0.5953663;1.674187;0.04029161;0.3455614;1.782698;-0.2768373;0.006315865;1.820753;-0.1232031;-0.01196254;0.9355595;0.1496088;0;0;0;0.8637172;1.735029;-0.2768408;1.152047;1.715348;-0.1232092;1.382958;0.7800949;-0.1071929;1.532697;-0.07213783;-0.493283;0.2606343;1.578851;1.77886;0.5572308;0.1903534;1.425356;0.5086828;0.5471706;2.722527;0.2606343;1.578851;1.77886;0.5572308;0.1903534;1.425356;0.5086828;0.5471706;2.722527
737398.3113;NotLabelled;16384;0.3808864;-0.5869145;0.5581717;0.4459834;2;0;-62;-1466;3748;-366;65536;0.6129698;-0.5166205;0.4072022;0.4376731;-8;4;27;-553;4210;-204;8192;0.7214485;-0.6523545;-0.2146814;-0.08864266;71;-16;-44;1836;3636;-842;32768;0.8250396;-0.5387812;-0.101108;-0.1371191;-64;8;-93;-9446;4260;3027;256;0.1786704;-0.07894737;-0.9658269;-0.1703601;-14;-6;15;2;1144;3900;128;-0.1703601;-0.03739612;0.9837354;0.04293629;24;-3;-4;832;124;-4130;4;-0.3448753;0.3171745;-0.5138504;-0.718623;-22;-2;-42;636;3948;-1136;16;-0.09279778;-0.9542675;-0.2077562;0.1939058;14;4;5;-1379;-1039;3490;2;0.6451633;-0.5277008;-0.3808864;-0.400277;9;-13;47;-412;3710;740;8;-0.09972299;-0.9731334;0.0900277;0.1869806;-5;26;0;1211;-783;4447;0.5778393;1.587779;1.712348;0.5767857;1.491758;1.175319;0.5758377;1.405363;0.7036266;0.6006374;1.671775;0.02034605;0.3507874;1.778805;-0.2972504;0.01166197;1.818074;-0.1436565;-0.01066669;0.936848;0.1414217;0;0;0;0.8688914;1.730574;-0.2972539;1.157278;1.711429;-0.143662;1.372589;0.7724515;-0.1282485;1.526359;-0.08747137;-0.4952298;0.2660892;1.591675;1.758488;0.5602459;0.1972095;1.42713;0.5125259;0.5505043;2.725295;0.2660892;1.591675;1.758488;0.5602459;0.1972095;1.42713;0.5125259;0.5505043;2.725295
737419.0586;NotLabelled;16384;0.3698061;-0.5953182;0.566482;0.433518;-4;-11;-62;-1376;3926;-438;65536;0.6091129;-0.5235457;0.4085872;0.433518;-8;10;22;-425;4094;-312;8192;0.7072275;-0.666205;-0.2132964;-0.1024931;65;69;-20;2226;4606;1130;32768;0.8132424;-0.5512465;-0.1232687;-0.1398892;-41;14;-37;1974;3910;-2669;256;0.1759003;-0.08033241;-0.9667054;-0.16759;-18;0;17;484;1294;4018;128;-0.1703601;-0.03878116;0.9837989;0.0401662;23;4;-6;752;152;-4080;4;-0.3421052;0.3213296;-0.5180055;-0.7151095;-24;0;-42;692;4046;-1280;16;-0.09141274;-0.9546815;-0.2077562;0.1925208;16;2;5;-1453;-1031;3426;2;0.6418409;-0.5318559;-0.3850415;-0.3961219;11;-6;46;-456;3794;582;8;-0.101108;-0.9732428;0.08725762;0.1869806;-12;16;1;1089;-929;4675;0.5840469;1.597445;1.688961;0.5829428;1.49683;1.152773;0.5819504;1.4064;0.6818384;0.6060733;1.668578;-0.003102064;0.3559267;1.773361;-0.3212138;0.01684725;1.813224;-0.1676711;-0.006376326;0.9378546;0.1348501;0;0;0;0.874082;1.725686;-0.3212169;1.162577;1.707806;-0.167676;1.354525;0.763923;-0.1449473;1.512547;-0.1047479;-0.4887886;0.2723011;1.601735;1.735095;0.5579463;0.2010432;1.423119;0.5154621;0.5479366;2.723191;0.2723011;1.601735;1.735095;0.5579463;0.2010432;1.423119;0.5154621;0.5479366;2.723191
737439.0689;NotLabelled;16384;0.3642659;-0.5974412;0.5720221;0.4279778;-4;-8;-61;-1212;4144;-414;65536;0.6086907;-0.5263157;0.4085872;0.4307479;-8;10;25;-557;4246;-322;8192;0.6996338;-0.6717451;-0.2160665;-0.1121884;50;49;-6;3394;9614;1610;32768;0.8114204;-0.5526316;-0.1274238;-0.1412742;-6;53;-4;-758;7942;-6133;256;0.1731302;-0.07894737;-0.9682629;-0.1620499;-28;4;24;-82;968;4126;128;-0.1689751;-0.04155125;0.9840854;0.03601108;25;13;-6;504;-40;-4096;4;-0.3393352;0.3240997;-0.5221606;-0.7121512;-27;1;-42;588;3952;-1132;16;-0.08864266;-0.9549427;-0.2077562;0.1925208;19;9;5;-1481;-1129;3428;2;0.6313253;-0.5443213;-0.3947368;-0.3864266;20;-12;44;-160;4050;424;8;-0.1066482;-0.9731324;0.08171745;0.1869806;-28;12;2;715;-937;4581;0.5988551;1.594789;1.640946;0.5977161;1.490989;1.105366;0.596693;1.397763;0.6349765;0.6217184;1.656267;-0.05132627;0.3719132;1.760587;-0.369858;0.0331044;1.802858;-0.2163625;-0.002633251;0.940003;0.1190968;0;0;0;0.8898359;1.710449;-0.369861;1.17832;1.691993;-0.2163674;1.331797;0.7417971;-0.1733779;1.498985;-0.140442;-0.4758507;0.2871125;1.599353;1.687074;0.5686846;0.1936613;1.394489;0.5298468;0.5363237;2.695797;0.2871125;1.599353;1.687074;0.5686846;0.1936613;1.394489;0.5298468;0.5363237;2.695797
737459.6652;NotLabelled;16384;0.3601108;-0.6012325;0.5747922;0.4224377;-10;5;-58;-1256;3882;-552;65536;0.6070355;-0.5304709;0.4085872;0.4279778;-12;12;27;-745;4064;-464;8192;0.6960272;-0.6703601;-0.2257618;-0.1232687;6;113;4;-350;6592;2884;32768;0.8068815;-0.5554016;-0.132964;-0.1509695;-46;42;-2;1936;5236;-1827;256;0.16759;-0.07202215;-0.9706859;-0.1565097;-7;51;15;1340;694;5090;128;-0.1648199;-0.04709141;0.9848093;0.02770083;11;9;-13;214;-340;-4010;4;-0.3379501;0.3282548;-0.5277008;-0.7068028;-25;3;-41;298;3824;-1048;16;-0.08448754;-0.9547126;-0.2105263;0.1925208;21;14;6;-1623;-1183;3496;2;0.6269636;-0.5512465;-0.3961219;-0.3822715;22;-18;44;-2;4034;336;8;-0.1121884;-0.972738;0.07894737;0.1869806;-37;18;0;647;-961;4689;0.6087121;1.608269;1.623539;0.6075201;1.499644;1.088916;0.6064506;1.402181;0.6193867;0.6307903;1.652516;-0.06996235;0.3806606;1.753158;-0.3894219;0.04204634;1.79739;-0.2360493;0.0003039613;0.9406347;0.1140329;0;0;0;0.8985626;1.702803;-0.3894249;1.187216;1.686047;-0.2360544;1.322735;0.7336111;-0.1833696;1.490012;-0.1502907;-0.4809009;0.2969739;1.613249;1.669655;0.5729734;0.2032356;1.392983;0.5438462;0.5388401;2.696383;0.2969739;1.613249;1.669655;0.5729734;0.2032356;1.392983;0.5438462;0.5388401;2.696383
737481.1563;NotLabelled;16384;0.3587258;-0.6051744;0.5775623;0.4141274;-19;18;-58;-1894;3454;-442;65536;0.6053345;-0.534626;0.4085872;0.4252077;-9;8;28;-455;4432;-148;8192;0.6962641;-0.66759;-0.2285319;-0.1315789;11;-8;-5;-2752;2616;-274;32768;0.8022835;-0.5609418;-0.134349;-0.1537396;-55;23;-14;558;2916;-2071;256;0.1648199;-0.06509695;-0.9716489;-0.1565097;1;36;14;-1152;1190;4126;128;-0.1620499;-0.04709141;0.985269;0.02770083;-2;12;-10;14;-272;-4408;4;-0.33241;0.333795;-0.5373961;-0.6994926;-22;-12;-38;-102;3350;-702;16;-0.07756232;-0.9549638;-0.2132964;0.1911357;19;9;9;-1607;-967;3766;2;0.6228607;-0.5567867;-0.3975069;-0.3795014;24;-18;42;156;4224;108;8;-0.1177285;-0.9722499;0.0734072;0.1883656;-46;27;-1;583;-991;4889;0.6167555;1.638995;1.602214;0.6154588;1.520837;1.069618;0.6142974;1.415002;0.6019043;0.6354039;1.655676;-0.09098297;0.3839329;1.749375;-0.4114993;0.04510819;1.792596;-0.2583041;0.003066674;0.9416181;0.1055597;0;0;0;0.9022874;1.703916;-0.4115026;1.191278;1.69208;-0.2583095;1.323488;0.7392567;-0.204229;1.480172;-0.1480528;-0.4973506;0.3050264;1.644799;1.648294;0.5684875;0.2287036;1.391153;0.5587477;0.5550081;2.6972;0.3050264;1.644799;1.648294;0.5684875;0.2287036;1.391153;0.5587477;0.5550081;2.6972
737501.0701;NotLabelled;16384;0.3559557;-0.6106918;0.5803324;0.4044321;-21;25;-67;-3426;3952;-430;65536;0.6038829;-0.5373961;0.4099723;0.4224377;-4;3;23;-459;4638;-270;8192;0.6934233;-0.6731302;-0.2216066;-0.1301939;36;-47;-7;348;3388;-1638;32768;0.7966229;-0.567867;-0.1357341;-0.1565097;-50;-2;-14;1142;3866;-733;256;0.1620499;-0.05955679;-0.9722459;-0.1578947;-9;20;16;-2;1638;3770;128;-0.1606648;-0.04986149;0.9853595;0.02770083;-2;18;-11;920;-328;-4560;4;-0.3282548;0.33518;-0.5429363;-0.6965079;-16;-16;-39;-10;3728;-734;16;-0.07479224;-0.9551848;-0.2132964;0.1911357;17;-2;8;-1549;-1011;3786;2;0.619507;-0.5623268;-0.398892;-0.3753462;25;-14;39;252;4328;8;8;-0.1246537;-0.9715195;0.06786703;0.1897507;-56;26;-2;343;-1145;4683;0.6287978;1.643476;1.582119;0.6275027;1.525472;1.049488;0.6263428;1.41977;0.5817447;0.6443043;1.658698;-0.1118355;0.3916192;1.748326;-0.4325612;0.05231095;1.787752;-0.2794116;0.005018311;0.942529;0.09700684;0;0;0;0.9105014;1.709347;-0.432555;1.199648;1.701562;-0.2793955;1.328384;0.747823;-0.2337401;1.475082;-0.1441718;-0.5176672;0.3170683;1.649267;1.6282;0.5676867;0.2245474;1.408602;0.5669041;0.5337436;2.718841;0.3170683;1.649267;1.6282;0.5676867;0.2245474;1.408602;0.5669041;0.5337436;2.718841
737522.3314;NotLabelled;16384;0.3462604;-0.618985;0.5914127;0.3836565;-21;-21;-100;-4288;4184;-156;65536;0.6039083;-0.5373961;0.4113573;0.4210526;15;-17;-12;-231;5970;-1174;8192;0.6864094;-0.6814404;-0.2188366;-0.1288089;51;-10;-7;1966;3796;-680;32768;0.7926783;-0.5734072;-0.1371191;-0.1551246;-39;-8;-17;770;4638;-97;256;0.1592798;-0.0567867;-0.9733147;-0.1551246;-15;27;15;650;1070;3766;128;-0.1578947;-0.05263158;0.9857011;0.02631579;13;15;-13;800;-16;-4152;4;-0.3240997;0.3379501;-0.5470914;-0.6938588;-17;-6;-38;246;4160;-702;16;-0.07202215;-0.9560118;-0.2105263;0.1911357;18;-17;3;-1427;-961;3598;2;0.6152173;-0.567867;-0.400277;-0.3725762;22;-12;35;458;4212;120;8;-0.132964;-0.970427;0.06371191;0.1911357;-63;18;-10;371;-1177;4365;0.6485445;1.642704;1.559587;0.6472452;1.524306;1.027044;0.6460814;1.41826;0.5593786;0.6615909;1.657719;-0.1340774;0.4080008;1.744905;-0.4547615;0.06830207;1.780754;-0.3015987;0.009335114;0.9431922;0.08998986;0;0;0;0.9272568;1.711273;-0.4547651;1.216466;1.706388;-0.301604;1.332898;0.7512834;-0.2516713;1.468176;-0.1462629;-0.5235139;0.3368155;1.648528;1.605667;0.5800725;0.2199386;1.403637;0.5903125;0.5220568;2.715485;0.3368155;1.648528;1.605667;0.5800725;0.2199386;1.403637;0.5903125;0.5220568;2.715485
737544.2645;NotLabelled;16384;0.33518;-0.6216723;0.601108;0.3739612;-12;-45;-98;-3480;4006;-62;65536;0.6059268;-0.5318559;0.4127424;0.4238227;19;-54;-26;157;5930;-996;8192;0.6745152;-0.6901163;-0.2243767;-0.1357341;32;40;-4;1148;4212;396;32768;0.7853125;-0.5817174;-0.1412742;-0.1578947;-31;10;-2;246;3798;-1409;256;0.1565097;-0.05401662;-0.9741412;-0.1537396;-7;17;19;460;356;4202;128;-0.1565097;-0.05401662;0.9858471;0.02631579;1;2;-10;486;-146;-4498;4;-0.3227147;0.3407202;-0.5512465;-0.6898494;-21;5;-36;416;4434;-602;16;-0.06925207;-0.9571218;-0.2063712;0.1911357;22;-21;0;-1533;-967;3550;2;0.6063477;-0.5789474;-0.4030471;-0.367036;29;-5;38;696;3516;260;8;-0.1523546;-0.9668106;0.05817174;0.1966759;-68;8;-16;-183;-2219;4245;0.6793287;1.633765;1.523617;0.6780102;1.513605;0.9914691;0.6768295;1.406011;0.5241573;0.6912128;1.64087;-0.1708939;0.4371862;1.725015;-0.4920452;0.09742636;1.760696;-0.3389786;0.01349348;0.9432468;0.08887907;0;0;0;0.9565573;1.693208;-0.4920483;1.245844;1.690366;-0.3389834;1.349736;0.7347312;-0.273831;1.479897;-0.1669424;-0.5342746;0.3676016;1.639742;1.569688;0.6087293;0.208373;1.385573;0.6298103;0.5021014;2.699197;0.3676016;1.639742;1.569688;0.6087293;0.208373;1.385573;0.6298103;0.5021014;2.699197
737564.2439;NotLabelled;16384;0.3268698;-0.6202265;0.6121883;0.365651;-25;-60;-77;-1534;3660;456;65536;0.6042005;-0.5249307;0.4155124;0.432133;11;-54;-41;-1135;4454;-1424;8192;0.6703601;-0.6919693;-0.2285319;-0.1398892;25;23;9;334;4202;112;32768;0.7824382;-0.5844875;-0.1426593;-0.1606648;-31;11;6;142;4000;-1195;256;0.1523546;-0.05263158;-0.9755216;-0.1495845;3;6;14;304;788;3912;128;-0.1537396;-0.05401662;0.9863188;0.02493075;-6;-5;-9;140;-378;-3788;4;-0.3213296;0.3434903;-0.5554016;-0.6857775;-25;3;-34;258;4176;-486;16;-0.06786703;-0.9575186;-0.2049861;0.1911357;17;-9;-1;-1841;-1135;4014;2;0.5999885;-0.5844875;-0.4058172;-0.365651;26;-5;44;472;3794;184;8;-0.1620499;-0.9649059;0.05401662;0.199446;-71;12;-14;-263;-2263;3765;0.6921883;1.623759;1.509171;0.6908681;1.503454;0.9770558;0.6896859;1.395733;0.5097732;0.7029703;1.627935;-0.1861928;0.448536;1.709803;-0.5076092;0.1086697;1.744716;-0.3546016;0.01569674;0.9422138;0.09891207;0;0;0;0.9680305;1.680083;-0.5076122;1.257361;1.679;-0.3546067;1.344015;0.7234466;-0.2669493;1.46473;-0.1845517;-0.5093423;0.3804612;1.629748;1.555242;0.6142222;0.1951637;1.387368;0.6463793;0.4798305;2.70276;0.3804612;1.629748;1.555242;0.6142222;0.1951637;1.387368;0.6463793;0.4798305;2.70276
737585.0249;NotLabelled;16384;-0.3213296;0.6149584;-0.6236134;-0.3601108;-36;-44;-55;-398;3334;696;65536;0.6100601;-0.5180055;0.4127424;0.434903;12;10;-37;-1913;3060;-1920;8192;0.66759;-0.6939045;-0.2299169;-0.1412742;25;0;12;-134;4166;-152;32768;0.7800379;-0.5872576;-0.1412742;-0.1634349;-31;5;9;520;3970;-961;256;0.1509695;-0.05263158;-0.975737;-0.1495845;5;2;9;482;972;3618;128;-0.1523546;-0.05263158;0.9866086;0.02493075;-8;-8;-10;360;-346;-3838;4;-0.3185596;0.3476454;-0.5637119;-0.6781529;-18;-2;-27;16;3568;-264;16;-0.06509695;-0.9577289;-0.2036011;0.1925208;3;7;-5;-1545;-727;4228;2;0.5951845;-0.5900277;-0.4085872;-0.3614958;19;-15;52;620;3656;76;8;-0.1745152;-0.962582;0.04570637;0.2022161;-74;22;-16;-407;-2253;3473;0.6999959;1.620893;1.501242;0.6986614;1.499297;0.9694208;0.6974667;1.390443;0.502401;0.7103894;1.616367;-0.1956342;0.4557886;1.695337;-0.5176439;0.116001;1.731624;-0.3647816;0.01276312;0.941313;0.1075315;0;0;0;0.9752833;1.665622;-0.517647;1.264693;1.665918;-0.3647869;1.347079;0.7106111;-0.2705824;1.460968;-0.1994889;-0.5083528;0.3882701;1.626995;1.547307;0.6143849;0.1894164;1.39532;0.6594103;0.4698739;2.71124;0.3882701;1.626995;1.547307;0.6143849;0.1894164;1.39532;0.6594103;0.4698739;2.71124
737605.0212;NotLabelled;16384;-0.3227147;0.6108033;-0.6308998;-0.3531856;-49;-19;-34;-184;3768;892;65536;0.6182283;-0.5138504;0.4072022;0.433518;38;43;-53;-3863;3652;-4234;8192;0.66482;-0.6962765;-0.2299169;-0.1426593;24;-5;8;-80;4236;-266;32768;0.7765551;-0.5914127;-0.1398892;-0.166205;-30;-4;5;748;3950;-1081;256;0.1495845;-0.05401662;-0.9758746;-0.1495845;6;0;6;732;840;3862;128;-0.1523546;-0.05124654;0.9866815;0.02493075;-6;-9;-6;496;-204;-4090;4;-0.3171745;0.3490305;-0.566482;-0.6757782;-16;0;-26;-66;3648;-366;16;-0.06509695;-0.9574495;-0.2036011;0.1939058;0;8;-5;-1189;-639;3950;2;0.5886427;-0.5978488;-0.4127424;-0.3545706;11;-27;58;912;3690;112;8;-0.1855956;-0.9602244;0.03878116;0.2049861;-74;21;-21;-271;-2157;3205;0.7116235;1.609695;1.509409;0.7102926;1.488407;0.9775169;0.709101;1.379824;0.5104341;0.7221198;1.605688;-0.1876187;0.4675522;1.684745;-0.5096332;0.1277812;1.721192;-0.3567726;0.01160219;0.9390354;0.1259931;0;0;0;0.9870339;1.654802;-0.5096362;1.276444;1.654984;-0.3567777;1.35537;0.6999183;-0.2573023;1.460624;-0.2119379;-0.4923077;0.3998974;1.61577;1.555475;0.6119861;0.173003;1.435889;0.6659769;0.4464023;2.752956;0.3998974;1.61577;1.555475;0.6119861;0.173003;1.435889;0.6659769;0.4464023;2.752956
737626.0385;NotLabelled;16384;-0.3282548;0.6052631;-0.6364338;-0.3476454;-61;-13;-5;-256;4134;1472;65536;0.6299397;-0.5096953;0.400277;0.4279778;57;79;-61;-3439;2698;-3678;8192;0.6606648;-0.7006736;-0.2285319;-0.1426593;22;-3;4;306;4214;-582;32768;0.7744377;-0.5941828;-0.1398892;-0.166205;-31;-5;-1;630;3976;-1101;256;0.1495845;-0.05540166;-0.9757969;-0.1495845;9;-2;4;870;718;3926;128;-0.1509695;-0.04986149;0.9869294;0.02631579;-12;-11;-5;216;-230;-4094;4;-0.3157895;0.3518005;-0.5692521;-0.6726555;-14;6;-27;-104;3722;-576;16;-0.06509695;-0.9574495;-0.2036011;0.1939058;-2;0;-4;-1215;-719;3732;2;0.5858725;-0.6034953;-0.4155124;-0.3462604;5;-30;62;1214;3744;118;8;-0.1966759;-0.9570226;0.033241;0.2105263;-68;21;-29;253;-2159;3213;0.7270552;1.600508;1.52443;0.7257267;1.479442;0.9924872;0.7245372;1.371054;0.5253589;0.7382805;1.597146;-0.1726066;0.4839694;1.677125;-0.494596;0.1443108;1.71458;-0.3417288;0.01117132;0.9365518;0.1433244;0;0;0;1.003355;1.645553;-0.4945995;1.292761;1.644768;-0.3417344;1.366398;0.689781;-0.2375553;1.46147;-0.2246193;-0.4669496;0.4153288;1.606563;1.570497;0.6234765;0.1623588;1.461833;0.6842102;0.4364686;2.778459;0.4153288;1.606563;1.570497;0.6234765;0.1623588;1.461833;0.6842102;0.4364686;2.778459
737647.2149;NotLabelled;16384;-0.3518005;0.5927978;-0.6393254;-0.3407202;-74;35;69;108;4294;632;65536;0.6623888;-0.5;0.3753462;0.4127424;44;86;-76;-2321;1462;-1200;8192;0.6537396;-0.705386;-0.2313019;-0.1468144;26;15;5;468;3982;-590;32768;0.768738;-0.599723;-0.1426593;-0.1703601;-20;14;-10;654;4100;-789;256;0.1481994;-0.0567867;-0.9757153;-0.1509695;16;-3;3;832;722;3780;128;-0.1495845;-0.04709141;0.9872762;0.02631579;-5;-7;-3;-92;-78;-4138;4;-0.3157895;0.3545706;-0.5720221;-0.6688403;-13;12;-25;-104;3992;-502;16;-0.06509695;-0.957743;-0.2022161;0.1939058;3;-4;0;-1151;-801;3472;2;0.5775623;-0.6156662;-0.4238227;-0.3282548;5;-21;69;1186;4234;62;8;-0.2160665;-0.9504938;0.02770083;0.2216066;-52;-7;-39;621;-2161;3449;0.748606;1.590183;1.54904;0.7472968;1.470884;1.016698;0.7461244;1.364046;0.5492127;0.760621;1.590425;-0.1486444;0.5065929;1.67124;-0.4706485;0.1670053;1.70954;-0.3178324;0.01437759;0.9331063;0.1640221;0;0;0;1.025891;1.638266;-0.4705609;1.315262;1.636628;-0.3176373;1.380907;0.6824263;-0.2015982;1.472838;-0.2336649;-0.4254564;0.4368781;1.596086;1.595115;0.6423924;0.1504605;1.501361;0.7022805;0.42457;2.818025;0.4368781;1.596086;1.595115;0.6423924;0.1504605;1.501361;0.7022805;0.42457;2.818025
737667.0408;NotLabelled;16384;-0.3725762;0.5886427;-0.6320906;-0.3393352;-74;67;84;-354;3954;-46;65536;0.6726655;-0.4958449;0.367036;0.4085872;42;59;-53;-1215;2306;-1602;8192;0.6509695;-0.7076546;-0.2313019;-0.1481994;20;7;3;362;4364;-90;32768;0.7663099;-0.602493;-0.1440443;-0.1703601;-18;5;-12;600;3984;-1057;256;0.1481994;-0.05955679;-0.9753348;-0.1523546;23;-5;2;692;846;3842;128;-0.1495845;-0.04432133;0.9873666;0.02770083;-11;-11;-3;64;-76;-3898;4;-0.3144044;0.3587258;-0.5747922;-0.6648906;-13;11;-24;-220;4038;-614;16;-0.06509695;-0.957743;-0.2022161;0.1939058;4;0;6;-1321;-987;3612;2;0.5720221;-0.6223031;-0.4279778;-0.3199446;6;-20;72;1080;4256;82;8;-0.2243767;-0.94717;0.03047091;0.2271468;-43;-32;-39;551;-2013;3427;0.7812173;1.586606;1.641312;0.779914;1.467823;1.108855;0.7787465;1.361438;0.6412666;0.7938789;1.589971;-0.05587447;0.5400812;1.672485;-0.3776291;0.2005931;1.711222;-0.2247027;0.01269249;0.9212263;0.2213106;0;0;0;1.059288;1.638107;-0.3776321;1.348649;1.635206;-0.224707;1.403735;0.6814871;-0.09956801;1.487075;-0.2382526;-0.3115147;0.4694887;1.592464;1.68739;0.6691654;0.1452124;1.607072;0.7325745;0.4186504;2.923711;0.4694887;1.592464;1.68739;0.6691654;0.1452124;1.607072;0.7325745;0.4186504;2.923711
737688.0428;NotLabelled;16384;-0.3919668;0.5872576;-0.6238148;-0.33518;-71;72;80;-1344;3124;-378;65536;0.6840844;-0.4930748;0.3587258;0.400277;36;99;-29;-1223;3070;-1332;8192;0.6481994;-0.7094496;-0.232687;-0.1495845;14;1;5;788;4250;-98;32768;0.7649569;-0.6038781;-0.1454294;-0.1703601;-20;0;-13;496;3952;-947;256;0.1481994;-0.06371191;-0.9739649;-0.1592798;23;-1;3;786;1430;3762;128;-0.1481994;-0.03878116;0.9876832;0.03185596;-27;-18;-1;156;162;-4154;4;-0.3130194;0.3628809;-0.5789474;-0.6596638;-13;-3;-21;-362;3908;-410;16;-0.06371191;-0.9583927;-0.2022161;0.1911357;1;0;11;-1509;-895;3874;2;0.567867;-0.6271639;-0.433518;-0.3102493;7;-17;75;966;4070;30;8;-0.2313019;-0.9442998;0.03601108;0.2313019;-34;-26;-42;859;-2063;3351;0.7915763;1.585795;1.693058;0.7902937;1.468912;1.16018;0.7891445;1.364197;0.6922147;0.8055932;1.595231;-0.00407204;0.5522922;1.680193;-0.3255806;0.2129605;1.720048;-0.1725944;0.01012892;0.9162781;0.2410991;0;0;0;1.071322;1.643239;-0.3255841;1.360625;1.638337;-0.1726005;1.410117;0.684947;-0.04270446;1.491941;-0.2365019;-0.2477016;0.4798459;1.591488;1.739144;0.6776456;0.1430728;1.677288;0.7396785;0.4165108;2.993993;0.4798459;1.591488;1.739144;0.6776456;0.1430728;1.677288;0.7396785;0.4165108;2.993993
737708.0415;NotLabelled;16384;-0.4099723;0.5858725;-0.6157098;-0.3310249;-72;74;77;-2448;2804;-382;65536;0.6966539;-0.4944598;0.3476454;0.3864266;41;137;-17;-921;4022;-626;8192;0.6468144;-0.7105479;-0.234072;-0.1481994;14;7;12;1040;3856;-260;32768;0.7624965;-0.6066482;-0.1468144;-0.1703601;-18;2;-9;78;4018;-839;256;0.1468144;-0.06509695;-0.9736261;-0.1620499;18;1;2;434;1430;3628;128;-0.1481994;-0.03462604;0.9876949;0.03601108;-48;-28;0;82;260;-4528;4;-0.3102493;0.3642659;-0.5831025;-0.6565419;-9;-9;-21;-342;4000;-264;16;-0.06232687;-0.958759;-0.2022161;0.1897507;1;-2;6;-1539;-735;3758;2;0.5623268;-0.6326336;-0.4376731;-0.3033241;8;-17;77;704;3934;-110;8;-0.2368421;-0.9410896;0.03878116;0.2382271;-29;-11;-49;1049;-2063;3383;0.8049774;1.560536;1.72975;0.8037535;1.448989;1.19573;0.8026558;1.348959;0.7267406;0.8217424;1.590489;0.03409249;0.5695368;1.68184;-0.2865244;0.2301644;1.721359;-0.1335412;0.01106156;0.9113346;0.259122;0;0;0;1.08834;1.641828;-0.2861837;1.377327;1.632884;-0.1327868;1.422344;0.6814378;0.01211923;1.504622;-0.2409211;-0.1885594;0.4932419;1.565769;1.775857;0.6851293;0.1157714;1.736527;0.7368872;0.3842407;3.054698;0.4932419;1.565769;1.775857;0.6851293;0.1157714;1.736527;0.7368872;0.3842407;3.054698
