SEP=;
index;label;RightUpperArm_boneIndex;RightUpperArm_quat9x_w;RightUpperArm_quat9x_x;RightUpperArm_quat9x_y;RightUpperArm_quat9x_z;RightUpperArm_gyroscope_x;RightUpperArm_gyroscope_y;RightUpperArm_gyroscope_z;RightUpperArm_accelerometer_x;RightUpperArm_accelerometer_y;RightUpperArm_accelerometer_z;RightLowerArm_boneIndex;RightLowerArm_quat9x_w;RightLowerArm_quat9x_x;RightLowerArm_quat9x_y;RightLowerArm_quat9x_z;RightLowerArm_gyroscope_x;RightLowerArm_gyroscope_y;RightLowerArm_gyroscope_z;RightLowerArm_accelerometer_x;RightLowerArm_accelerometer_y;RightLowerArm_accelerometer_z;LeftUpperArm_boneIndex;LeftUpperArm_quat9x_w;LeftUpperArm_quat9x_x;LeftUpperArm_quat9x_y;LeftUpperArm_quat9x_z;LeftUpperArm_gyroscope_x;LeftUpperArm_gyroscope_y;LeftUpperArm_gyroscope_z;LeftUpperArm_accelerometer_x;LeftUpperArm_accelerometer_y;LeftUpperArm_accelerometer_z;LeftLowerArm_boneIndex;LeftLowerArm_quat9x_w;LeftLowerArm_quat9x_x;LeftLowerArm_quat9x_y;LeftLowerArm_quat9x_z;LeftLowerArm_gyroscope_x;LeftLowerArm_gyroscope_y;LeftLowerArm_gyroscope_z;LeftLowerArm_accelerometer_x;LeftLowerArm_accelerometer_y;LeftLowerArm_accelerometer_z;Chest_boneIndex;Chest_quat9x_w;Chest_quat9x_x;Chest_quat9x_y;Chest_quat9x_z;Chest_gyroscope_x;Chest_gyroscope_y;Chest_gyroscope_z;Chest_accelerometer_x;Chest_accelerometer_y;Chest_accelerometer_z;Spine_boneIndex;Spine_quat9x_w;Spine_quat9x_x;Spine_quat9x_y;Spine_quat9x_z;Spine_gyroscope_x;Spine_gyroscope_y;Spine_gyroscope_z;Spine_accelerometer_x;Spine_accelerometer_y;Spine_accelerometer_z;RightUpperLeg_boneIndex;RightUpperLeg_quat9x_w;RightUpperLeg_quat9x_x;RightUpperLeg_quat9x_y;RightUpperLeg_quat9x_z;RightUpperLeg_gyroscope_x;RightUpperLeg_gyroscope_y;RightUpperLeg_gyroscope_z;RightUpperLeg_accelerometer_x;RightUpperLeg_accelerometer_y;RightUpperLeg_accelerometer_z;RightLowerLeg_boneIndex;RightLowerLeg_quat9x_w;RightLowerLeg_quat9x_x;RightLowerLeg_quat9x_y;RightLowerLeg_quat9x_z;RightLowerLeg_gyroscope_x;RightLowerLeg_gyroscope_y;RightLowerLeg_gyroscope_z;RightLowerLeg_accelerometer_x;RightLowerLeg_accelerometer_y;RightLowerLeg_accelerometer_z;LeftUpperLeg_boneIndex;LeftUpperLeg_quat9x_w;LeftUpperLeg_quat9x_x;LeftUpperLeg_quat9x_y;LeftUpperLeg_quat9x_z;LeftUpperLeg_gyroscope_x;LeftUpperLeg_gyroscope_y;LeftUpperLeg_gyroscope_z;LeftUpperLeg_accelerometer_x;LeftUpperLeg_accelerometer_y;LeftUpperLeg_accelerometer_z;LeftLowerLeg_boneIndex;LeftLowerLeg_quat9x_w;LeftLowerLeg_quat9x_x;LeftLowerLeg_quat9x_y;LeftLowerLeg_quat9x_z;LeftLowerLeg_gyroscope_x;LeftLowerLeg_gyroscope_y;LeftLowerLeg_gyroscope_z;LeftLowerLeg_accelerometer_x;LeftLowerLeg_accelerometer_y;LeftLowerLeg_accelerometer_z;pelvis_x;pelvis_y;pelvis_z;lowerSpine_x;lowerSpine_y;lowerSpine_z;middleSpine_x;middleSpine_y;middleSpine_z;upperSpine_x;upperSpine_y;upperSpine_z;rightClavicle_x;rightClavicle_y;rightClavicle_z;rightShoulder_x;rightShoulder_y;rightShoulder_z;rightElbow_x;rightElbow_y;rightElbow_z;rightWrist_x;rightWrist_y;rightWrist_z;leftClavicle_x;leftClavicle_y;leftClavicle_z;leftShoulder_x;leftShoulder_y;leftShoulder_z;leftElbow_x;leftElbow_y;leftElbow_z;leftWrist_x;leftWrist_y;leftWrist_z;rightHip_x;rightHip_y;rightHip_z;rightKnee_x;rightKnee_y;rightKnee_z;rightAnkle_x;rightAnkle_y;rightAnkle_z;leftHip_x;leftHip_y;leftHip_z;leftKnee_x;leftKnee_y;leftKnee_z;leftAnkle_x;leftAnkle_y;leftAnkle_z;
296603.7414;NotLabelled;16384;-0.3891967;0.5180055;-0.5545669;-0.5221606;8;9;9;-1134;4418;-394;65536;0.534626;-0.3518005;0.4833795;0.5972903;-8;4;-10;-802;4391;-88;8192;0.5706371;-0.7350331;-0.3490305;-0.1108033;5;-5;34;1624;4024;-324;32768;0.666205;-0.6724616;-0.1939058;-0.2576177;-21;-1;-44;707;4376;54;256;0.1315789;0;-0.9044332;-0.4058172;-13;1;-10;-932;2906;2804;128;-0.1440443;0.009695291;0.9155722;0.3753462;16;-1;9;532;2796;-2640;4;-0.4833795;0.1800554;-0.4861496;-0.7053956;1;-4;2;2062;3462;-242;16;-0.09141274;-0.9445689;-0.1149584;0.2936288;-2;0;-1;-607;-1087;4098;2;0.6638367;-0.4404432;-0.2285319;-0.5595568;0;-8;0;-2398;3490;-186;8;-0.09556787;-0.954567;0.1121884;0.2590028;-5;6;1;1183;-515;4011;0.6331383;0.6636447;1.586231;0.6361308;0.9363459;1.113741;0.638742;1.174298;0.6974121;0.5853809;1.71993;0.2096609;0.3066649;1.912033;-0.03561699;-0.02690819;1.81632;0.1047644;0.02961818;0.9069566;0.2726724;0;0;0;0.8245381;1.962682;-0.03561935;1.118198;1.92831;0.1047606;1.251881;1.038303;0.4486953;1.17007;0.09679031;0.3805116;0.3210606;0.6376909;1.621814;0.1770791;-0.6234293;0.8940057;0.6158797;-0.3003855;2.125031;0.3210606;0.6376909;1.621814;0.1770791;-0.6234293;0.8940057;0.6158797;-0.3003855;2.125031
296623.7559;NotLabelled;16384;-0.3891967;0.5180055;-0.5545669;-0.5221606;5;4;10;-1196;4406;-504;65536;0.534626;-0.3531856;0.4806094;0.5987066;-11;7;-5;-810;4433;152;8192;0.567867;-0.7362691;-0.3518005;-0.1080332;6;-4;32;1640;4030;-290;32768;0.6634349;-0.6759656;-0.1966759;-0.2534626;-21;-2;-43;811;4466;16;256;0.132964;0;-0.9054688;-0.4030471;-11;-5;-9;-800;2940;2912;128;-0.1454294;0.009695291;0.91592;0.3739612;16;-9;8;578;2826;-2782;4;-0.4819945;0.1800554;-0.4861496;-0.7063427;1;-3;1;2118;3566;-180;16;-0.09279778;-0.9444338;-0.1149584;0.2936288;-4;-2;-1;-667;-1141;4086;2;0.6640823;-0.4418283;-0.2285319;-0.5581717;0;-7;1;-2260;3484;-132;8;-0.09556787;-0.954567;0.1121884;0.2590028;-5;-2;2;1193;-511;3923;0.6243182;0.6889549;1.621775;0.6272298;0.9543005;1.145115;0.6297699;1.185772;0.7251473;0.5719134;1.724432;0.2302123;0.2917302;1.910643;-0.01792149;-0.04111537;1.813606;0.1232755;0.02412768;0.9035674;0.2842176;0;0;0;0.8090982;1.966214;-0.01792449;1.102874;1.936482;0.1232706;1.246008;1.054569;0.4838499;1.16957;0.1109324;0.4451836;0.3122466;0.6635562;1.657809;0.1674169;-0.5946591;0.9251575;0.6036921;-0.2712934;2.156996;0.3122466;0.6635562;1.657809;0.1674169;-0.5946591;0.9251575;0.6036921;-0.2712934;2.156996
296644.5334;NotLabelled;16384;-0.3891967;0.5180055;-0.5532596;-0.5235457;6;0;5;-1102;4314;-518;65536;0.534626;-0.3545706;0.4792244;0.5989981;-11;11;-2;-900;4603;112;8192;0.566482;-0.7372702;-0.3531856;-0.1038781;7;-7;31;1538;4028;-230;32768;0.6592798;-0.6807476;-0.199446;-0.2493075;-23;-3;-40;559;4378;144;256;0.1371191;0.001385042;-0.9066872;-0.398892;-15;-6;-7;-662;2890;2866;128;-0.1481994;0.009695291;0.9171621;0.3698061;7;-7;6;546;2784;-3322;4;-0.4819945;0.1800554;-0.4861496;-0.7063427;0;0;0;2106;3444;-156;16;-0.09418282;-0.9442967;-0.1149584;0.2936288;-7;0;-1;-613;-1029;4012;2;0.6640823;-0.4418283;-0.2285319;-0.5581717;-1;-7;2;-2106;3420;-72;8;-0.09695291;-0.9548021;0.1121884;0.2576177;-1;-7;3;1103;-459;3779;0.617838;0.6952316;1.629302;0.6207336;0.9591118;1.151829;0.6232594;1.189292;0.7311522;0.5655212;1.724887;0.2328887;0.2854299;1.909465;-0.01656593;-0.04747198;1.813164;0.1250036;0.01736433;0.9031259;0.2861114;0;0;0;0.8027763;1.965238;-0.01656872;1.09647;1.936486;0.1249994;1.241625;1.058449;0.4941297;1.16853;0.1141353;0.4673916;0.3057677;0.6699444;1.665424;0.1654535;-0.5888896;0.932956;0.5978109;-0.2620339;2.165255;0.3057677;0.6699444;1.665424;0.1654535;-0.5888896;0.932956;0.5978109;-0.2620339;2.165255
296666.6221;NotLabelled;16384;-0.3891967;0.5193906;-0.5519595;-0.5235457;10;0;1;-988;4228;-558;65536;0.536011;-0.3559557;0.4764543;0.5991486;-9;12;-1;-922;4647;-26;8192;0.5623268;-0.7400569;-0.3559557;-0.09695291;1;-12;25;1740;3740;-276;32768;0.6537396;-0.6863465;-0.2036011;-0.2451524;-19;11;-19;1309;4104;-198;256;0.1385041;0.001385042;-0.9076906;-0.3961219;-14;-5;-6;-626;2896;2902;128;-0.1495845;0.009695291;0.9180496;0.367036;8;-3;6;466;2830;-3140;4;-0.4819945;0.1786704;-0.4861496;-0.7066943;0;-4;-2;2124;3388;-198;16;-0.09556787;-0.9439878;-0.1163435;0.2936288;-3;8;-1;-563;-925;3742;2;0.665244;-0.4418283;-0.2285319;-0.5567867;-5;-5;3;-2096;3458;56;8;-0.09695291;-0.9546383;0.1135734;0.2576177;-1;-4;3;1031;-477;3681;0.613289;0.7127246;1.641939;0.6161368;0.9722451;1.162082;0.6186203;1.198584;0.739326;0.5588795;1.729092;0.2358834;0.278185;1.909933;-0.01562133;-0.05440859;1.813414;0.1265219;0.01208548;0.903222;0.2860786;0;0;0;0.7952605;1.968163;-0.01562479;1.088934;1.942168;0.1265167;1.236217;1.067557;0.5028648;1.164552;0.1228323;0.4907657;0.3012223;0.6877664;1.678321;0.1661427;-0.5710666;0.9448697;0.5893424;-0.2407241;2.179415;0.3012223;0.6877664;1.678321;0.1661427;-0.5710666;0.9448697;0.5893424;-0.2407241;2.179415
296686.5149;NotLabelled;16384;-0.3864266;0.5193906;-0.55259;-0.5249307;14;-1;-3;-1106;4258;-514;65536;0.536011;-0.3573407;0.4750692;0.5994239;-7;3;-2;-844;4613;-104;8192;0.5609418;-0.7407979;-0.3573407;-0.09418282;0;-8;22;1878;3666;-378;32768;0.6523545;-0.6866692;-0.2036011;-0.2479224;-13;13;-4;1609;4160;-494;256;0.1398892;0.001385042;-0.9080814;-0.3947368;-13;-2;-4;-690;2922;2926;128;-0.1509695;0.009695291;0.9178228;0.367036;6;-9;5;498;2762;-3036;4;-0.4819945;0.1786704;-0.4861496;-0.7066943;0;-1;-2;2176;3430;-276;16;-0.09418282;-0.9439554;-0.1177285;0.2936288;0;4;0;-559;-921;3670;2;0.665244;-0.4418283;-0.2285319;-0.5567867;2;0;2;-2370;3296;-136;8;-0.09695291;-0.9548021;0.1121884;0.2576177;0;9;1;945;-483;3765;0.6065202;0.7212261;1.650613;0.609336;0.9778484;1.169199;0.6117917;1.201635;0.7450864;0.552218;1.729037;0.2383719;0.2716357;1.908243;-0.01442595;-0.06102325;1.812478;0.1280751;0.00733152;0.9025506;0.2883495;0;0;0;0.7886913;1.966649;-0.01442876;1.082276;1.941624;0.1280708;1.234993;1.074129;0.51846;1.164536;0.1292562;0.524724;0.2944558;0.6964883;1.687165;0.1592904;-0.5608914;0.9512403;0.5780684;-0.2260127;2.186072;0.2944558;0.6964883;1.687165;0.1592904;-0.5608914;0.9512403;0.5780684;-0.2260127;2.186072
296707.5242;NotLabelled;16384;-0.3850415;0.5207756;-0.5522531;-0.5249307;14;-9;-5;-1202;4200;-420;65536;0.534626;-0.3573407;0.4750692;0.6006595;-5;-10;-2;-736;4367;-54;8192;0.5609418;-0.7404754;-0.3587258;-0.09141274;1;0;19;1930;3684;-348;32768;0.6537396;-0.6852583;-0.2022161;-0.2493075;-5;6;4;1459;4062;-580;256;0.1412742;0.002770083;-0.9090632;-0.3919668;-12;-3;-3;-790;2790;2902;128;-0.1523546;0.009695291;0.9181467;0.365651;7;-5;4;522;2778;-2928;4;-0.4806094;0.1800554;-0.4861496;-0.7072858;1;0;-2;2084;3498;-234;16;-0.09418282;-0.9435234;-0.1177285;0.2950138;2;2;0;-587;-965;3870;2;0.665244;-0.4418283;-0.2285319;-0.5567867;0;-1;3;-2350;3330;-16;8;-0.09556787;-0.9552631;0.1094183;0.2576177;0;12;1;991;-453;3885;0.600461;0.7231838;1.65009;0.6032766;0.9797565;1.168651;0.6057317;1.203499;0.7445145;0.5459671;1.72928;0.2361403;0.2653497;1.907498;-0.01731621;-0.06729302;1.811939;0.1253608;0.003312059;0.9026324;0.2881665;0;0;0;0.7823633;1.966274;-0.01731175;1.075913;1.941903;0.1253723;1.229359;1.0772;0.5216281;1.154523;0.1326611;0.5274172;0.2883967;0.6984497;1.686646;0.1552697;-0.5589299;0.9503495;0.5705015;-0.2264843;2.187034;0.2883967;0.6984497;1.686646;0.1552697;-0.5589299;0.9503495;0.5705015;-0.2264843;2.187034
296729.8522;NotLabelled;16384;-0.3781163;0.5221606;-0.5530896;-0.5277008;9;-19;-7;-768;4044;-542;65536;0.5304709;-0.3573407;0.4764543;0.6032409;-4;-22;0;-1098;4135;-102;8192;0.5595568;-0.7403458;-0.3614958;-0.0900277;1;7;13;1560;3682;-246;32768;0.6551247;-0.6833268;-0.200831;-0.2520775;-1;0;8;1085;3888;-356;256;0.1426593;0.002770083;-0.909443;-0.3905817;-11;-4;-2;-692;2774;2902;128;-0.1537396;0.01108033;0.9184507;0.3642659;5;-8;3;502;2652;-3144;4;-0.4806094;0.1800554;-0.4861496;-0.7072858;0;-2;-2;1980;3472;-332;16;-0.09418282;-0.9435234;-0.1177285;0.2950138;1;1;0;-631;-1029;3952;2;0.6664008;-0.4418283;-0.2285319;-0.5554016;-1;-5;4;-2218;3428;-114;8;-0.09556787;-0.9557931;0.1080332;0.2562327;1;7;0;1047;-455;3889;0.5966767;0.7313174;1.652652;0.5994761;0.9864134;1.170429;0.6019168;1.208855;0.7456084;0.5410247;1.731219;0.2338568;0.2600851;1.907019;-0.02092728;-0.07238771;1.811421;0.1221187;0.0007627383;0.9028066;0.2876386;0;0;0;0.7769294;1.967269;-0.02093056;1.070443;1.944644;0.1221137;1.229324;1.081992;0.5206916;1.153451;0.1375186;0.5211724;0.2846136;0.7066954;1.689294;0.1574562;-0.5527496;0.9554763;0.5740237;-0.2199745;2.191624;0.2846136;0.7066954;1.689294;0.1574562;-0.5527496;0.9554763;0.5740237;-0.2199745;2.191624
296750.9995;NotLabelled;16384;-0.3753462;0.5221606;-0.5536529;-0.5290859;7;-13;-8;-702;3980;-502;65536;0.5277008;-0.3559557;0.4778393;0.6053899;-3;-24;0;-1214;4019;-172;8192;0.5595568;-0.739668;-0.3628809;-0.0900277;0;6;6;1222;3818;-174;32768;0.6565097;-0.6822929;-0.1980609;-0.2534626;1;-3;10;849;3794;-174;256;0.1440443;0.001385042;-0.9098216;-0.3891967;-11;-4;-2;-574;2738;2766;128;-0.1551246;0.01108033;0.918766;0.3628809;5;-8;2;504;2688;-3248;4;-0.4792244;0.1800554;-0.4875346;-0.7072723;0;-4;-1;1908;3478;-324;16;-0.09418282;-0.9435234;-0.1177285;0.2950138;0;1;0;-579;-987;3984;2;0.6670769;-0.4418283;-0.2299169;-0.5540166;-3;-6;4;-2094;3500;-54;8;-0.09556787;-0.9554207;0.1080332;0.2576177;3;2;0;991;-495;3787;0.5841565;0.7352215;1.645454;0.5869414;0.9890066;1.162539;0.5893695;1.210293;0.7371165;0.5282999;1.731022;0.2237216;0.2473309;1.905833;-0.03170963;-0.08512734;1.810448;0.1115127;-0.003342785;0.9038993;0.2841664;0;0;0;0.7641329;1.966444;-0.03171265;1.05761;1.944468;0.1115073;1.218508;1.084412;0.5148579;1.140475;0.1401374;0.5082674;0.2720945;0.7106992;1.682172;0.146967;-0.5487456;0.9480053;0.5601137;-0.2159712;2.1853;0.2720945;0.7106992;1.682172;0.146967;-0.5487456;0.9480053;0.5601137;-0.2159712;2.1853
296770.675;NotLabelled;16384;-0.3739612;0.5221606;-0.5545894;-0.5290859;6;-10;-10;-694;3888;-450;65536;0.5249307;-0.3531856;0.4792244;0.6083187;-5;-33;0;-1046;3925;-248;8192;0.5623268;-0.7380738;-0.3614958;-0.09141274;-8;-11;-5;1144;3684;-156;32768;0.6592798;-0.6812068;-0.1925208;-0.2534626;2;-18;7;529;3688;-154;256;0.1454294;0.001385042;-0.9113678;-0.3850415;-10;-3;-1;-678;2722;2892;128;-0.1565097;0.01246537;0.9196029;0.3601108;6;-4;2;442;2648;-3084;4;-0.4778393;0.1800554;-0.4875346;-0.7082087;0;-6;-1;1962;3482;-132;16;-0.09418282;-0.9435234;-0.1177285;0.2950138;0;-2;-1;-709;-1049;3960;2;0.6661575;-0.4432133;-0.2299169;-0.5540166;-3;-4;4;-2000;3520;-14;8;-0.09418282;-0.9555582;0.1080332;0.2576177;0;9;0;1015;-617;3809;0.5783741;0.7380899;1.645497;0.5811427;0.9903969;1.161808;0.5835565;1.210381;0.7357102;0.5236176;1.729765;0.2208216;0.2430558;1.904371;-0.03519747;-0.08962503;1.810006;0.1081837;-0.005208939;0.904168;0.2832837;0;0;0;0.7599689;1.964026;-0.03520069;1.053358;1.941913;0.1081793;1.214122;1.082343;0.5126152;1.1333;0.1383638;0.5000169;0.2663135;0.7136797;1.6823;0.1429719;-0.5478826;0.9514742;0.551394;-0.2151082;2.190336;0.2663135;0.7136797;1.6823;0.1429719;-0.5478826;0.9514742;0.551394;-0.2151082;2.190336
296791.4985;NotLabelled;16384;-0.3711911;0.5221606;-0.5564473;-0.5290859;4;-14;-9;-650;3856;-392;65536;0.5207756;-0.3504155;0.4819945;0.6112962;-5;-45;0;-916;3853;-228;8192;0.5637119;-0.7383688;-0.3587258;-0.09141274;-10;-20;-10;1210;3684;-260;32768;0.6606648;-0.681667;-0.1897507;-0.2506925;4;-26;2;495;3644;-88;256;0.1468144;0.001385042;-0.9117299;-0.3836565;-9;0;-1;-644;2748;2832;128;-0.1578947;0.01246537;0.9199075;0.3587258;7;-4;2;582;2712;-3174;4;-0.4764543;0.1786704;-0.4889196;-0.7085378;1;-6;0;2012;3520;-212;16;-0.09418282;-0.9436952;-0.1163435;0.2950138;0;-4;0;-665;-1113;3942;2;0.6668282;-0.4432133;-0.2313019;-0.5526316;-2;0;3;-2070;3412;74;8;-0.09418282;-0.9558674;0.1052632;0.2576177;-5;20;-1;1039;-679;4035;0.5770296;0.7490541;1.658322;0.5797682;0.9986244;1.173215;0.5821558;1.216198;0.7458814;0.5231935;1.730905;0.2262054;0.2431063;1.903218;-0.03187746;-0.08983892;1.810197;0.1117674;-0.006530777;0.9037925;0.2844522;0;0;0;0.7600268;1.962808;-0.03151137;1.053161;1.94196;0.1125783;1.211364;1.077184;0.5067996;1.127266;0.1336408;0.4858076;0.2649712;0.7248527;1.695282;0.1468035;-0.5373161;0.9646487;0.5504882;-0.2045412;2.205063;0.2649712;0.7248527;1.695282;0.1468035;-0.5373161;0.9646487;0.5504882;-0.2045412;2.205063
296813.3063;NotLabelled;16384;-0.3698061;0.5221606;-0.5573687;-0.5290859;1;-15;-10;-630;3796;-370;65536;0.5152354;-0.3476454;0.4833795;0.6164571;-7;-56;0;-1168;3717;-16;8192;0.566482;-0.7382557;-0.3545706;-0.09141274;-10;-26;-16;1340;3756;-304;32768;0.6634349;-0.6811336;-0.1855956;-0.2479224;9;-39;0;701;3954;-144;256;0.1468144;0.002770083;-0.9123083;-0.3822715;-8;-1;-2;-594;2700;2680;128;-0.1578947;0.01246537;0.9204463;0.3573407;8;-5;1;398;2644;-2914;4;-0.4764543;0.1786704;-0.4889196;-0.7085378;3;-4;-1;2002;3562;-270;16;-0.09418282;-0.9432611;-0.1163435;0.2963989;0;-2;-1;-725;-1037;3924;2;0.6679735;-0.4432133;-0.2313019;-0.5512465;0;-3;2;-1986;3494;-20;8;-0.09556787;-0.9558583;0.09695291;0.2603878;-9;19;0;1145;-567;4017;0.5768368;0.752802;1.651002;0.5795591;1.000892;1.165136;0.5819322;1.217161;0.737141;0.5224435;1.730216;0.2158944;0.2421504;1.901544;-0.04262109;-0.09068212;1.808747;0.1014295;-0.006583847;0.9041902;0.2831835;0;0;0;0.7590312;1.961477;-0.04262447;1.05223;1.94127;0.1014249;1.209945;1.076928;0.4967919;1.12649;0.1333475;0.4749444;0.2647796;0.7287136;1.688046;0.1448891;-0.5341358;0.9588705;0.5464877;-0.2024169;2.200244;0.2647796;0.7287136;1.688046;0.1448891;-0.5341358;0.9588705;0.5464877;-0.2024169;2.200244
296833.5356;NotLabelled;16384;-0.367036;0.5207756;-0.5604868;-0.5290859;0;-10;-8;-552;3758;-406;65536;0.5055401;-0.3365651;0.4875346;0.6272664;-3;-54;-10;-2154;3697;-274;8192;0.5692521;-0.7381089;-0.3504155;-0.09141274;-11;-31;-21;1538;3798;-338;32768;0.66759;-0.6801866;-0.1814404;-0.2423823;13;-48;0;911;4056;-70;256;0.1481994;0.002770083;-0.9126636;-0.3808864;-10;-1;-2;-588;2656;2718;128;-0.1592798;0.01385042;0.9207245;0.3559557;10;-5;1;484;2612;-2928;4;-0.4750692;0.1786704;-0.4889196;-0.7094672;1;-5;-1;1950;3504;-266;16;-0.09418282;-0.9432611;-0.1163435;0.2963989;0;3;-2;-679;-1067;3910;2;0.6670525;-0.4445983;-0.2313019;-0.5512465;0;-2;2;-1968;3546;-16;8;-0.09695291;-0.9558583;0.09556787;0.2603878;-6;9;1;1155;-599;4039;0.5735824;0.7585179;1.652655;0.5762889;1.005175;1.16606;0.5786481;1.220183;0.7374296;0.5182642;1.731411;0.2144933;0.2377049;1.901296;-0.04468438;-0.09498407;1.808258;0.09954223;-0.01040166;0.9041382;0.2832359;0;0;0;0.7544565;1.962334;-0.04468733;1.047642;1.943222;0.09953734;1.204975;1.075786;0.4882224;1.122277;0.1322446;0.4621647;0.2615263;0.7345386;1.68978;0.141012;-0.5283103;0.9607071;0.5473197;-0.1962686;2.200461;0.2615263;0.7345386;1.68978;0.141012;-0.5283103;0.9607071;0.5473197;-0.1962686;2.200461
296875.7171;NotLabelled;16384;-0.365651;0.5193906;-0.562673;-0.5290859;-2;-13;-1;-224;3744;-388;65536;0.5041551;-0.3268698;0.4889196;0.6324092;9;-24;-14;-2000;3519;-438;8192;0.5747922;-0.7383545;-0.3407202;-0.09141274;-11;-19;-23;1862;3598;-390;32768;0.6759003;-0.6774014;-0.1717452;-0.234072;21;-39;7;305;3948;-186;256;0.1495845;0.004155125;-0.9147253;-0.3753462;-15;2;-3;-632;2714;2926;128;-0.1606648;0.01385042;0.9226072;0.3504155;15;-2;1;442;2642;-3138;4;-0.4750692;0.1772853;-0.4889196;-0.7098146;1;-3;0;2008;3430;-254;16;-0.09279778;-0.9432265;-0.1177285;0.2963989;1;5;0;-585;-975;3998;2;0.6677136;-0.4445983;-0.232687;-0.5498615;-1;0;0;-2060;3486;-112;8;-0.09695291;-0.9554799;0.09556787;0.2617728;3;-3;0;965;-507;3969;0.574455;0.7606617;1.65897;0.5771474;1.006016;1.171717;0.5794941;1.219875;0.7425122;0.5189684;1.729442;0.2179733;0.2383938;1.89834;-0.0418321;-0.09428728;1.80553;0.1025598;-0.01190121;0.9019758;0.2899899;0;0;0;0.7551053;1.959716;-0.04183483;1.04825;1.941243;0.1025562;1.203473;1.07075;0.4852083;1.125941;0.1269004;0.4548104;0.2624001;0.7367823;1.696168;0.1462907;-0.5266726;0.9674299;0.5491472;-0.1946309;2.20831;0.2624001;0.7367823;1.696168;0.1462907;-0.5266726;0.9674299;0.5491472;-0.1946309;2.20831
296896.7334;NotLabelled;16384;-0.365651;0.5180055;-0.5626458;-0.5304709;-4;-14;3;-96;3942;-254;65536;0.5041551;-0.3213296;0.4903047;0.6341736;13;-21;-14;-1846;3407;-298;8192;0.5789474;-0.7366638;-0.3365651;-0.09418282;-8;-2;-22;1866;3658;-326;32768;0.6848579;-0.6703601;-0.16759;-0.2313019;24;0;18;361;4008;-186;256;0.1509695;0.004155125;-0.9156298;-0.3725762;-18;1;-2;-476;2768;2924;128;-0.1606648;0.01246537;0.9236742;0.3476454;14;-1;0;418;2680;-3054;4;-0.4750692;0.1772853;-0.4889196;-0.7098146;2;2;1;2026;3484;-320;16;-0.09279778;-0.9432265;-0.1177285;0.2963989;0;0;1;-513;-1095;3952;2;0.6665706;-0.4445983;-0.232687;-0.5512465;0;2;0;-2092;3474;-22;8;-0.09695291;-0.9553404;0.09695291;0.2617728;2;-9;0;879;-555;3941;0.5815351;0.7769161;1.682503;0.5841639;1.016477;1.192375;0.5864546;1.225233;0.7606645;0.5257133;1.728205;0.2298235;0.2451949;1.893351;-0.03244357;-0.08751781;1.801667;0.1125915;-0.007126763;0.8982416;0.3015099;0;0;0;0.7617857;1.955739;-0.03244689;1.054752;1.939615;0.1125867;1.206278;1.062663;0.4817359;1.134835;0.1188257;0.4386724;0.2694851;0.753479;1.720022;0.1528521;-0.5085468;0.9888955;0.5527211;-0.1789258;2.231386;0.2694851;0.753479;1.720022;0.1528521;-0.5085468;0.9888955;0.5527211;-0.1789258;2.231386
296917.5175;NotLabelled;16384;-0.367036;0.5152354;-0.5629798;-0.5318559;-7;-14;7;-170;4142;-200;65536;0.5055401;-0.3171745;0.4903047;0.6351621;14;-13;-12;-2090;3541;-170;8192;0.5803324;-0.7353945;-0.3365651;-0.09556787;-11;2;-22;1840;3654;-320;32768;0.6874273;-0.66759;-0.166205;-0.232687;27;3;24;481;4096;-158;256;0.1509695;0.005540166;-0.9167448;-0.3698061;-17;6;-2;-542;2552;2834;128;-0.1620499;0.01246537;0.9244704;0.3448753;17;-1;0;358;2644;-3038;4;-0.4750692;0.1772853;-0.4875346;-0.7107666;2;2;1;1976;3446;-326;16;-0.09279778;-0.9432265;-0.1177285;0.2963989;0;2;1;-645;-1005;3966;2;0.6674923;-0.4432133;-0.232687;-0.5512465;-2;3;-2;-2064;3464;-30;8;-0.09695291;-0.9551988;0.09833795;0.2617728;0;-3;0;1017;-577;3957;0.5859222;0.7852405;1.697453;0.5885174;1.021737;1.205839;0.5907786;1.227794;0.7728337;0.5303203;1.727532;0.2389161;0.2499593;1.891029;-0.02454989;-0.08284021;1.800152;0.1207943;-0.002566904;0.8962482;0.3074566;0;0;0;0.7665368;1.953526;-0.02455279;1.0594;1.938342;0.1207897;1.206754;1.056273;0.4792804;1.145131;0.112797;0.4172941;0.2738748;0.7620385;1.735139;0.1594149;-0.4999874;1.00367;0.5555894;-0.1703668;2.247343;0.2738748;0.7620385;1.735139;0.1594149;-0.4999874;1.00367;0.5555894;-0.1703668;2.247343
296958.7118;NotLabelled;16384;-0.3739612;0.5069252;-0.5633426;-0.534626;-13;-1;21;-350;4090;-208;65536;0.5152354;-0.3060942;0.4916897;0.6317278;23;5;-13;-2142;3633;-388;8192;0.5858725;-0.7308795;-0.33518;-0.101108;-11;8;-22;1646;3706;-274;32768;0.6962903;-0.6578947;-0.1620499;-0.2368421;30;0;30;489;4150;-68;256;0.1509695;0.008310249;-0.9183891;-0.365651;-15;4;-1;-590;2738;2910;128;-0.1620499;0.01246537;0.9265183;0.3393352;19;5;-1;410;2522;-3240;4;-0.4750692;0.1772853;-0.4875346;-0.7107666;3;3;1;2008;3346;-216;16;-0.09279778;-0.9434868;-0.1191136;0.2950138;0;3;2;-711;-985;3906;2;0.6663461;-0.4432133;-0.232687;-0.5526316;0;4;-3;-2140;3448;-78;8;-0.09695291;-0.9550552;0.09972299;0.2617728;3;-11;-1;1051;-617;4043;0.5923218;0.7949809;1.715841;0.5948846;1.028541;1.222825;0.5971173;1.232013;0.7885987;0.5362045;1.728328;0.2515481;0.2557628;1.889704;-0.0131367;-0.07699026;1.799154;0.1325182;0.001714915;0.8940295;0.3138548;0;0;0;0.7722317;1.953091;-0.01313943;1.06501;1.939315;0.1325138;1.212774;1.055786;0.4872207;1.151815;0.1128244;0.4172592;0.2802767;0.7720037;1.753685;0.1687653;-0.4885039;1.019148;0.5657308;-0.1588826;2.262569;0.2802767;0.7720037;1.753685;0.1687653;-0.4885039;1.019148;0.5657308;-0.1588826;2.262569
296979.5176;NotLabelled;16384;-0.3781163;0.5027701;-0.5642919;-0.534626;-16;0;24;-358;4056;-200;65536;0.5180055;-0.3033241;0.4916897;0.6307979;24;8;-15;-2168;3691;-364;8192;0.5872576;-0.7293779;-0.33518;-0.1038781;-10;8;-18;1566;3818;-190;32768;0.6995694;-0.6537396;-0.1606648;-0.2396122;31;2;34;351;4216;-40;256;0.1523546;0.009695291;-0.9186972;-0.3642659;-19;4;0;-636;2750;3034;128;-0.1620499;0.01108033;0.9275457;0.3365651;19;0;-1;504;2566;-3092;4;-0.4750692;0.1786704;-0.4875346;-0.7104197;2;5;1;1974;3484;-232;16;-0.09279778;-0.9434868;-0.1191136;0.2950138;0;2;2;-619;-1005;3908;2;0.6667807;-0.4418283;-0.234072;-0.5526316;0;3;-3;-2264;3530;0;8;-0.09695291;-0.9547619;0.1024931;0.2617728;1;-13;1;1145;-621;3933;0.6243447;0.8122786;1.762211;0.6268443;1.040055;1.266496;0.6290209;1.238433;0.8299189;0.5668259;1.729426;0.2881441;0.2860768;1.88721;0.02162565;-0.04649635;1.796745;0.1677426;0.0239977;0.8875073;0.3309845;0;0;0;0.8022958;1.952602;0.02162269;1.094952;1.941337;0.1677381;1.24243;1.051675;0.5068951;1.185277;0.1108479;0.4101255;0.3123047;0.7897458;1.800361;0.1997529;-0.4707618;1.065983;0.5943595;-0.1404138;2.309962;0.3123047;0.7897458;1.800361;0.1997529;-0.4707618;1.065983;0.5943595;-0.1404138;2.309962
297000.6547;NotLabelled;16384;-0.3822715;0.5;-0.5626373;-0.536011;-17;1;27;-420;4106;-162;65536;0.5235457;-0.299169;0.4916897;0.628203;25;15;-18;-2202;3777;-282;8192;0.5914127;-0.7254062;-0.33518;-0.1080332;-11;7;-13;1422;3776;-32;32768;0.7062653;-0.6440443;-0.1578947;-0.2479224;27;17;37;405;4016;6;256;0.1523546;0.01246537;-0.9208412;-0.3587258;-17;3;-2;-624;2670;2952;128;-0.1620499;0.01108033;0.9295373;0.3310249;20;-3;0;438;2710;-3194;4;-0.4764543;0.1786704;-0.4861496;-0.7104413;2;1;0;2004;3464;-318;16;-0.09279778;-0.9433109;-0.1204986;0.2950138;0;5;0;-719;-1025;3958;2;0.6661158;-0.4418283;-0.232687;-0.5540166;0;0;-2;-2220;3450;18;8;-0.09695291;-0.9549909;0.1038781;0.2603878;2;-10;1;1123;-521;3981;0.6379122;0.8224257;1.779902;0.6403776;1.047114;1.28278;0.6425245;1.242772;0.8449764;0.5790125;1.731736;0.3015221;0.2978819;1.88773;0.03435358;-0.03446721;1.796705;0.1806326;0.02868911;0.8855294;0.3358742;0;0;0;0.8138912;1.954757;0.03435081;1.106517;1.94491;0.1806282;1.252214;1.053192;0.5151194;1.196011;0.1135616;0.4068412;0.3258746;0.8001311;1.818213;0.216878;-0.4618075;1.085758;0.6091856;-0.1314595;2.330464;0.3258746;0.8001311;1.818213;0.216878;-0.4618075;1.085758;0.6091856;-0.1314595;2.330464
297042.5069;NotLabelled;16384;-0.3905817;0.4944598;-0.5618252;-0.536011;-18;5;27;-592;3940;-118;65536;0.534626;-0.2936288;0.4889196;0.6236303;23;32;-25;-1898;3765;-180;8192;0.5955678;-0.7207195;-0.3365651;-0.1121884;-11;9;-10;1242;3734;-132;32768;0.7109231;-0.6357341;-0.1551246;-0.2576177;25;16;36;503;4008;-312;256;0.1537396;0.01385042;-0.9221995;-0.3545706;-20;-1;-1;-662;2732;2954;128;-0.1634349;0.009695291;0.9312651;0.3254848;21;0;0;384;2574;-3158;4;-0.4764543;0.1786704;-0.4861496;-0.7104413;2;0;0;2112;3434;-286;16;-0.09279778;-0.9431329;-0.1218837;0.2950138;-1;7;0;-677;-1045;3976;2;0.6670324;-0.4404432;-0.232687;-0.5540166;-1;1;0;-2160;3424;48;8;-0.09833795;-0.9549206;0.1066482;0.2590028;-1;-3;2;1045;-515;3817;0.6511585;0.8423167;1.809872;0.6535605;1.061193;1.310163;0.6556514;1.251733;0.8701073;0.5913346;1.733737;0.3205642;0.3101036;1.885443;0.05104239;-0.02216743;1.795066;0.1979;0.03893317;0.8821741;0.3435825;0;0;0;0.8258759;1.954267;0.05103955;1.118294;1.947247;0.1978956;1.26488;1.051485;0.5209995;1.208419;0.1153049;0.3862159;0.3391261;0.8204703;1.84848;0.2303326;-0.4393427;1.112346;0.6236109;-0.1079392;2.356465;0.3391261;0.8204703;1.84848;0.2303326;-0.4393427;1.112346;0.6236109;-0.1079392;2.356465
297062.6509;NotLabelled;16384;-0.400277;0.4889196;-0.5611693;-0.534626;-20;8;32;-464;4042;-246;65536;0.5498615;-0.2922437;0.4833795;0.6152968;21;42;-24;-1528;3765;-192;8192;0.5969529;-0.7193555;-0.3365651;-0.1135734;-11;6;-9;1132;3724;-186;32768;0.7134054;-0.6315789;-0.1537396;-0.2617728;27;13;32;477;3928;-388;256;0.1551246;0.01385042;-0.9235548;-0.3504155;-22;-5;-2;-584;2712;3014;128;-0.1634349;0.009695291;0.9322286;0.3227147;20;-2;0;444;2546;-3228;4;-0.4764543;0.1786704;-0.4861496;-0.7104413;2;1;0;2078;3376;-292;16;-0.09279778;-0.9429529;-0.1232687;0.2950138;-1;4;0;-713;-991;4008;2;0.6670324;-0.4404432;-0.232687;-0.5540166;-1;2;0;-2232;3478;-10;8;-0.09833795;-0.9549206;0.1066482;0.2590028;2;0;1;1033;-603;3879;0.6738791;0.8575789;1.851255;0.6762142;1.070382;1.348929;0.6782463;1.255573;0.9065966;0.6135009;1.732331;0.3525458;0.3322569;1.880886;0.08128755;1.263991E-05;1.791095;0.2285646;0.05101781;0.8753105;0.3592007;0;0;0;0.8478679;1.950909;0.08128455;1.140116;1.945928;0.2285596;1.288555;1.046701;0.5410193;1.228701;0.1144807;0.3823636;0.3618516;0.8362026;1.890167;0.254739;-0.4236107;1.153787;0.6447076;-0.09115171;2.398665;0.3618516;0.8362026;1.890167;0.254739;-0.4236107;1.153787;0.6447076;-0.09115171;2.398665
297083.7263;NotLabelled;16384;-0.4058172;0.4861496;-0.5595946;-0.534626;-20;3;31;-422;4022;-326;65536;0.5554016;-0.2922437;0.4819945;0.6113951;21;41;-21;-1504;3835;-134;8192;0.5983379;-0.7179834;-0.3365651;-0.1149584;-12;2;-9;1032;3796;-230;32768;0.7172563;-0.6260388;-0.1537396;-0.2645429;29;5;27;343;3788;-214;256;0.1551246;0.01385042;-0.9246011;-0.3476454;-19;-4;-1;-676;2588;3030;128;-0.1634349;0.009695291;0.933183;0.3199446;22;-3;1;446;2606;-3246;4;-0.4750692;0.1786704;-0.4861496;-0.7113682;1;0;0;2038;3494;-274;16;-0.09279778;-0.9429529;-0.1232687;0.2950138;-1;3;0;-635;-1019;3952;2;0.6665476;-0.4404432;-0.234072;-0.5540166;0;3;1;-2266;3436;12;8;-0.09695291;-0.9549065;0.1080332;0.2590028;2;-2;0;1083;-535;3963;0.6954745;0.8645238;1.890057;0.6977777;1.074405;1.386504;0.6997817;1.257023;0.9431025;0.6358399;1.728827;0.3847337;0.3549661;1.875025;0.1118173;0.02251877;1.786643;0.2594872;0.06058946;0.8681659;0.3747182;0;0;0;0.870596;1.944908;0.1118143;1.162664;1.941166;0.2594829;1.310446;1.04067;0.5685836;1.250195;0.1105425;0.3982328;0.3834496;0.8433735;1.929112;0.2787205;-0.4164398;1.192389;0.664189;-0.08292532;2.438386;0.3834496;0.8433735;1.929112;0.2787205;-0.4164398;1.192389;0.664189;-0.08292532;2.438386
297104.5148;NotLabelled;16384;-0.4099723;0.4819945;-0.5588347;-0.536011;-17;-2;27;-332;4060;-236;65536;0.5623268;-0.2908587;0.4806094;0.6067984;21;35;-20;-1408;3969;-76;8192;0.6038781;-0.7141793;-0.333795;-0.1177285;-12;-4;-12;1126;3764;-218;32768;0.7242112;-0.6177285;-0.1523546;-0.265928;33;0;18;545;3922;-420;256;0.1565097;0.01246537;-0.9254244;-0.3448753;-18;-4;-1;-600;2608;2938;128;-0.1648199;0.008310249;0.9338981;0.3171745;22;-4;2;458;2540;-3168;4;-0.4750692;0.1786704;-0.4861496;-0.7113682;0;0;-1;1996;3472;-354;16;-0.09279778;-0.9433851;-0.1232687;0.2936288;-1;3;0;-705;-1069;3910;2;0.6674607;-0.4390582;-0.234072;-0.5540166;0;0;1;-2398;3468;-14;8;-0.09695291;-0.9549065;0.1080332;0.2590028;3;-6;0;1079;-543;3955;0.7039151;0.8727366;1.910015;0.7061863;1.079693;1.405252;0.7081618;1.259737;0.9607989;0.6450564;1.728319;0.3996298;0.3645206;1.873154;0.1256403;0.03188276;1.785915;0.2735611;0.06528283;0.8660561;0.3787896;0;0;0;0.880209;1.942605;0.1256374;1.172158;1.939481;0.2735569;1.320446;1.037734;0.5787403;1.264515;0.1097193;0.3958524;0.3918927;0.8518139;1.949212;0.2898069;-0.4085941;1.213135;0.6747915;-0.07508016;2.459282;0.3918927;0.8518139;1.949212;0.2898069;-0.4085941;1.213135;0.6747915;-0.07508016;2.459282
297146.5167;NotLabelled;16384;-0.4155124;0.4764543;-0.5581632;-0.5373961;-10;-3;23;-508;3804;-136;65536;0.5706371;-0.2894737;0.4764543;0.6029673;18;17;-22;-1410;3695;-270;8192;0.6066482;-0.7124757;-0.33241;-0.1177285;-11;5;-3;1392;3832;-14;32768;0.7305579;-0.6080332;-0.1537396;-0.2700831;31;21;21;929;3830;-358;256;0.1592798;0.01246537;-0.928509;-0.33518;-25;-7;-2;-630;2596;3086;128;-0.166205;0.008310249;0.9373437;0.3060942;23;-8;3;506;2572;-3366;4;-0.4736842;0.1786704;-0.4861496;-0.7122912;1;-2;-3;1980;3504;-294;16;-0.09279778;-0.943019;-0.1260388;0.2936288;-2;2;0;-759;-1127;4004;2;0.6676964;-0.4404432;-0.234072;-0.5526316;0;-4;3;-2238;3420;4;8;-0.09833795;-0.9546604;0.1121884;0.2576177;-1;-7;1;1237;-633;3999;0.7124174;0.8788162;1.933003;0.7146534;1.082595;1.426948;0.7165983;1.259839;0.9813715;0.6550725;1.725369;0.4174931;0.3751014;1.869331;0.1424677;0.04213807;1.783757;0.2906281;0.07125443;0.8626243;0.3854831;0;0;0;0.8909593;1.93751;0.1424649;1.182788;1.934511;0.2906237;1.331115;1.028308;0.5822929;1.284249;0.1037402;0.3803891;0.4003975;0.8581406;1.972352;0.3012217;-0.4022675;1.235878;0.677611;-0.06910491;2.484742;0.4003975;0.8581406;1.972352;0.3012217;-0.4022675;1.235878;0.677611;-0.06910491;2.484742
297187.5313;NotLabelled;16384;-0.4196676;0.4709141;-0.5570812;-0.5401662;-10;-14;22;-302;3998;-250;65536;0.5775623;-0.2853186;0.4750692;0.5994366;18;1;-17;-1264;3739;-344;8192;0.6080332;-0.7104143;-0.333795;-0.1191136;-12;8;-4;1378;4028;4;32768;0.7330744;-0.602493;-0.1537396;-0.2756233;31;28;24;1199;3962;-556;256;0.1592798;0.01246537;-0.9295043;-0.33241;-23;-8;-3;-602;2576;3006;128;-0.16759;0.008310249;0.9379973;0.3033241;25;-5;4;464;2526;-3306;4;-0.4736842;0.1800554;-0.4861496;-0.7119424;1;-2;-4;2080;3484;-270;16;-0.09418282;-0.9428817;-0.1260388;0.2936288;-2;1;0;-755;-1001;3928;2;0.6667807;-0.4418283;-0.234072;-0.5526316;0;-2;6;-2246;3432;-42;8;-0.09972299;-0.9543529;0.1135734;0.2576177;-2;-9;0;1133;-599;3879;0.7179472;0.9109961;1.978534;0.7200537;1.102967;1.467883;0.7218847;1.269816;1.018309;0.6624175;1.723645;0.4447546;0.3833573;1.862188;0.1660451;0.04989622;1.780058;0.3150337;0.07254577;0.8574712;0.39658;0;0;0;0.8992906;1.929793;0.1660417;1.190713;1.929545;0.3150279;1.339506;1.021814;0.6016625;1.30396;0.1013293;0.3797821;0.4059376;0.8912402;2.018432;0.3140034;-0.3697565;1.282026;0.6811495;-0.03449535;2.533078;0.4059376;0.8912402;2.018432;0.3140034;-0.3697565;1.282026;0.6811495;-0.03449535;2.533078
297208.5452;NotLabelled;16384;-0.4196676;0.466759;-0.5592293;-0.5415512;-8;-16;18;-58;3966;-180;65536;0.5789474;-0.2825485;0.4764543;0.5983123;19;-10;-14;-1356;3735;-368;8192;0.6094183;-0.7083387;-0.33518;-0.1204986;-12;9;-6;1310;4080;-50;32768;0.7352079;-0.5969529;-0.1551246;-0.2811634;33;23;24;1429;3916;-652;256;0.1606648;0.01108033;-0.9307593;-0.3282548;-24;-9;-4;-498;2550;3032;128;-0.1689751;0.008310249;0.9390827;0.299169;26;-6;5;446;2562;-3212;4;-0.4722992;0.1800554;-0.4861496;-0.712862;0;-2;-5;2116;3510;-214;16;-0.09418282;-0.9428817;-0.1260388;0.2936288;-2;3;0;-701;-1031;3892;2;0.6679261;-0.4418283;-0.234072;-0.5512465;1;-5;7;-2268;3448;-10;8;-0.101108;-0.9540413;0.1149584;0.2576177;-3;-11;0;1083;-553;3871;0.727797;0.9161743;2.013486;0.7298706;1.105145;1.501718;0.7316721;1.269354;1.051173;0.6735098;1.719894;0.4748979;0.3950124;1.857056;0.1949451;0.06124434;1.77608;0.3438775;0.08092634;0.8519621;0.4067025;0;0;0;0.9110038;1.924215;0.1953694;1.20219;1.92458;0.3448174;1.352437;1.01449;0.6230886;1.318218;0.09718633;0.3882039;0.41579;0.8966531;2.05352;0.3269036;-0.3657675;1.319182;0.6921963;-0.02702403;2.569839;0.41579;0.8966531;2.05352;0.3269036;-0.3657675;1.319182;0.6921963;-0.02702403;2.569839
297229.5512;NotLabelled;16384;-0.4210526;0.4639889;-0.5591504;-0.5429363;-4;-13;17;-92;3966;-70;65536;0.5789474;-0.2797784;0.4764543;0.5996127;17;-17;-14;-1568;3767;-370;8192;0.6121883;-0.7057083;-0.33518;-0.1218837;-14;4;-7;1102;4006;-48;32768;0.7386129;-0.5914127;-0.1551246;-0.2839335;31;12;23;1285;3908;-510;256;0.1620499;0.01108033;-0.9314917;-0.3254848;-26;-7;-5;-540;2558;3120;128;-0.1703601;0.008310249;0.9397107;0.2963989;24;-9;5;422;2490;-3250;4;-0.4722992;0.1800554;-0.4861496;-0.712862;0;-3;-6;2110;3450;-332;16;-0.09418282;-0.9426956;-0.1274238;0.2936288;-2;6;0;-667;-1009;3916;2;0.6670079;-0.4432133;-0.234072;-0.5512465;2;-7;9;-2294;3452;32;8;-0.101108;-0.9538734;0.1163435;0.2576177;-2;-9;1;1131;-561;3865;0.7346205;0.9268922;2.022243;0.7366449;1.111384;1.508843;0.7384037;1.271649;1.05688;0.6817369;1.717427;0.476765;0.4037228;1.853027;0.1955734;0.06967568;1.774323;0.3450969;0.08568414;0.8502314;0.4093433;0;0;0;0.9199129;1.918645;0.1955702;1.21106;1.919416;0.3450922;1.36326;1.01028;0.6254159;1.332486;0.0959065;0.378918;0.4226172;0.9077224;2.062476;0.3384726;-0.3552773;1.328574;0.6996837;-0.01653409;2.580416;0.4226172;0.9077224;2.062476;0.3384726;-0.3552773;1.328574;0.6996837;-0.01653409;2.580416
297250.6994;NotLabelled;16384;-0.4224377;0.4612188;-0.5590509;-0.5443213;-3;-12;16;-98;3990;-40;65536;0.5789474;-0.2770083;0.4778393;0.5997966;16;-13;-11;-1576;3609;-292;8192;0.6163435;-0.7018403;-0.33518;-0.1232687;-17;1;-9;880;4028;176;32768;0.7438821;-0.5831025;-0.1537396;-0.2880886;29;-3;21;1113;3876;-536;256;0.166205;0.01108033;-0.9336238;-0.3171745;-26;-4;-5;-676;2562;3092;128;-0.1731302;0.008310249;0.9417865;0.2880886;30;-2;6;310;2476;-3394;4;-0.4695291;0.1800554;-0.4875346;-0.7137454;0;-6;-7;2026;3444;-412;16;-0.09418282;-0.9431258;-0.1274238;0.2922437;0;1;1;-647;-1039;3902;2;0.6683683;-0.4445983;-0.234072;-0.5484765;3;-6;11;-2200;3432;20;8;-0.1038781;-0.9536069;0.1191136;0.2562327;-3;-11;1;1187;-609;3861;0.7359641;0.9353353;2.037072;0.7379556;1.11682;1.522601;0.7396853;1.274437;1.069708;0.6834453;1.716758;0.4869114;0.4056402;1.850676;0.2047092;0.07148214;1.772853;0.3544461;0.08590456;0.848366;0.4131486;0;0;0;0.9218282;1.916309;0.2047061;1.212862;1.917977;0.3544406;1.366711;1.007239;0.6285947;1.341202;0.09595275;0.370343;0.4239634;0.9164006;2.077436;0.3420478;-0.3465984;1.343282;0.6989799;-0.006807089;2.596067;0.4239634;0.9164006;2.077436;0.3420478;-0.3465984;1.343282;0.6989799;-0.006807089;2.596067
297270.5217;NotLabelled;16384;-0.4238227;0.4584487;-0.5589308;-0.5457063;-5;-10;13;12;3872;-74;65536;0.5789474;-0.2756233;0.4778393;0.6004343;13;-10;-5;-1438;3551;-162;8192;0.6191136;-0.6998148;-0.333795;-0.1246537;-18;-3;-9;1022;4038;162;32768;0.7476851;-0.5789474;-0.1509695;-0.2880886;30;-15;21;1303;3928;-496;256;0.16759;0.01108033;-0.9343129;-0.3144044;-27;-6;-7;-594;2438;3116;128;-0.1745152;0.008310249;0.9427922;0.2839335;30;-4;6;422;2326;-3326;4;-0.468144;0.1800554;-0.4889196;-0.7137078;0;-5;-8;2028;3490;-368;16;-0.09418282;-0.9431258;-0.1274238;0.2922437;0;0;1;-653;-1037;3886;2;0.6680942;-0.4459834;-0.2354571;-0.5470914;3;-3;12;-2202;3468;-18;8;-0.1052632;-0.9532809;0.1204986;0.2562327;-3;-10;0;1147;-585;3823;0.7367231;0.9640967;2.061168;0.7386159;1.136596;1.543614;0.7402586;1.286304;1.088045;0.68535;1.718189;0.4973487;0.4081877;1.847064;0.2121819;0.07368978;1.771912;0.3625228;0.08635362;0.8470666;0.4157111;0;0;0;0.9243764;1.912692;0.2121787;1.215071;1.917026;0.3625174;1.37167;1.004292;0.6283528;1.353923;0.09834814;0.3513356;0.4247304;0.9458681;2.101915;0.3506961;-0.3198209;1.371567;0.6924859;0.01960349;2.628666;0.4247304;0.9458681;2.101915;0.3506961;-0.3198209;1.371567;0.6924859;0.01960349;2.628666
297290.5224;NotLabelled;16384;-0.4265928;0.4556787;-0.5563714;-0.5484765;-2;3;12;-12;3904;-116;65536;0.5789474;-0.2742382;0.4792244;0.5999645;7;3;1;-1718;3507;-50;8192;0.6218836;-0.6980156;-0.33241;-0.1246537;-17;-9;-9;1078;3964;100;32768;0.7514358;-0.5747922;-0.1481994;-0.2880886;27;-21;21;1405;3834;-650;256;0.1689751;0.01108033;-0.9354518;-0.3102493;-27;-6;-7;-496;2452;3062;128;-0.1759003;0.006925208;0.9437877;0.2797784;31;-5;6;436;2420;-3350;4;-0.466759;0.1814404;-0.4889196;-0.7142639;0;0;-9;2080;3502;-276;16;-0.09418282;-0.9431258;-0.1274238;0.2922437;0;-2;2;-719;-1045;3864;2;0.6668814;-0.4487534;-0.2368421;-0.5457063;3;-2;15;-2186;3460;-14;8;-0.1052632;-0.9531049;0.1218837;0.2562327;-5;-7;0;1153;-533;3837;0.7372282;0.976221;2.074902;0.7390717;1.144219;1.555869;0.740671;1.289966;1.099017;0.6862231;1.71835;0.5057352;0.4092805;1.845545;0.2196022;0.07466664;1.771295;0.3701329;0.08581838;0.8461258;0.4177353;0;0;0;0.9254716;1.911155;0.2195993;1.216053;1.916368;0.3701291;1.372565;1.001717;0.6293458;1.35846;0.09896994;0.341882;0.4252393;0.9583467;2.115836;0.3522666;-0.3094516;1.389048;0.690222;0.02997351;2.647184;0.4252393;0.9583467;2.115836;0.3522666;-0.3094516;1.389048;0.690222;0.02997351;2.647184
297311.5171;NotLabelled;16384;-0.4279778;0.4556787;-0.5553067;-0.5484765;0;7;10;-14;3724;-162;65536;0.5789474;-0.2742382;0.4792244;0.5999645;4;9;3;-1608;3379;-218;8192;0.6246537;-0.6964446;-0.3310249;-0.1232687;-18;-12;-7;1090;3926;76;32768;0.7554002;-0.5706371;-0.1440443;-0.2880886;25;-21;24;1541;3788;-538;256;0.1703601;0.01108033;-0.9365687;-0.3060942;-29;-4;-8;-522;2450;3152;128;-0.1772853;0.006925208;0.9447506;0.2756233;33;-7;8;356;2326;-3440;4;-0.466759;0.1814404;-0.4903047;-0.7133139;0;-2;-10;2048;3510;-346;16;-0.09418282;-0.9431258;-0.1274238;0.2922437;-1;0;2;-747;-1075;3944;2;0.6670798;-0.4501385;-0.2368421;-0.5443213;3;-5;15;-2246;3414;10;8;-0.1066482;-0.9529508;0.1218837;0.2562327;-4;-5;0;1259;-579;3887;0.7367187;0.9912618;2.09282;0.7385103;1.154529;1.572279;0.740064;1.296111;1.11412;0.6864971;1.719295;0.5170366;0.4099385;1.844112;0.2294882;0.07511906;1.771356;0.3802924;0.08797596;0.8457551;0.4180361;0;0;0;0.9261631;1.909457;0.2294857;1.21658;1.915845;0.3802877;1.37486;0.9999241;0.6338854;1.364432;0.1004906;0.3360644;0.4247338;0.973761;2.133946;0.3585626;-0.295995;1.40993;0.6924551;0.04342985;2.669149;0.4247338;0.973761;2.133946;0.3585626;-0.295995;1.40993;0.6924551;0.04342985;2.669149
297332.5304;NotLabelled;16384;-0.4293629;0.4556787;-0.5542365;-0.5484765;1;2;10;-68;3572;-68;65536;0.5803324;-0.2756233;0.4778393;0.5990957;0;6;4;-1492;3311;-88;8192;0.6274238;-0.6955088;-0.3282548;-0.1218837;-20;-13;-6;1022;3848;160;32768;0.7582631;-0.567867;-0.1398892;-0.2880886;23;-30;27;1387;3712;-494;256;0.1717452;0.01246537;-0.9376465;-0.301939;-30;-7;-9;-544;2468;3156;128;-0.1786704;0.006925208;0.9460889;0.2700831;36;-7;9;362;2290;-3404;4;-0.4653739;0.1828255;-0.4916897;-0.7129117;0;-4;-12;2106;3494;-332;16;-0.09418282;-0.9435539;-0.1274238;0.2908587;-1;0;2;-645;-1117;3974;2;0.6667792;-0.4515235;-0.2382271;-0.5429363;2;-8;16;-2212;3440;6;8;-0.1080332;-0.9526166;0.1232687;0.2562327;-3;-6;0;1203;-633;3835;0.7332185;1.006215;2.111628;0.7349606;1.164967;1.589693;0.7364708;1.302576;1.130324;0.684506;1.720534;0.5294305;0.4086761;1.842971;0.240164;0.07347188;1.771719;0.3908304;0.0861287;0.8457558;0.4184211;0;0;0;0.9249352;1.908039;0.2407742;1.215009;1.915596;0.3921811;1.374888;0.9969081;0.6345172;1.366916;0.1013718;0.3251019;0.4212375;0.9890717;2.152933;0.3547377;-0.2822165;1.43164;0.6830651;0.0572083;2.692323;0.4212375;0.9890717;2.152933;0.3547377;-0.2822165;1.43164;0.6830651;0.0572083;2.692323
297352.5293;NotLabelled;16384;-0.4307479;0.4542936;-0.5529249;-0.5498615;0;-2;7;-168;3490;-138;65536;0.5803324;-0.2770083;0.4778393;0.5984566;-4;0;5;-1458;3095;-64;8192;0.632964;-0.6920234;-0.3254848;-0.1204986;-20;-15;-7;980;3846;112;32768;0.7651349;-0.5623268;-0.1301939;-0.2853186;16;-36;29;1437;3676;-500;256;0.1731302;0.01246537;-0.93872;-0.2977839;-30;-3;-10;-514;2338;3086;128;-0.1814404;0.006925208;0.9471264;0.2645429;36;-7;10;292;2256;-3396;4;-0.4626039;0.1842105;-0.4930748;-0.7134013;0;-3;-14;1912;3484;-270;16;-0.09556787;-0.9434146;-0.1274238;0.2908587;-4;-2;1;-761;-1041;3956;2;0.6669662;-0.4529086;-0.2382271;-0.5415512;3;-8;17;-2142;3474;14;8;-0.1094183;-0.9522783;0.1246537;0.2562327;-5;-9;0;1145;-625;3955;0.7318517;1.025327;2.114183;0.7335275;1.178071;1.590458;0.7349797;1.310392;1.129538;0.6821458;1.722745;0.5248601;0.4060597;1.841972;0.2344992;0.07100523;1.771409;0.3858218;0.08394814;0.8456371;0.4191024;0;0;0;0.9221843;1.908102;0.2344963;1.212245;1.917635;0.3858172;1.375694;1.000006;0.6297781;1.36723;0.1076217;0.3113984;0.4198758;1.008659;2.155723;0.3551875;-0.2660921;1.440402;0.67822;0.0729661;2.70255;0.4198758;1.008659;2.155723;0.3551875;-0.2660921;1.440402;0.67822;0.0729661;2.70255
297373.564;NotLabelled;16384;-0.4307479;0.4542936;-0.5529249;-0.5498615;3;2;3;-10;3536;-238;65536;0.5803324;-0.2783934;0.4778393;0.5978135;-3;0;4;-1566;3257;-144;8192;0.6357341;-0.690372;-0.3240997;-0.1191136;-18;-17;-7;962;3864;90;32768;0.7688191;-0.5595568;-0.1232687;-0.2839335;14;-36;30;1421;3694;-486;256;0.1772853;0.01385042;-0.9409479;-0.2880886;-37;0;-9;-450;2336;3170;128;-0.1855956;0.005540166;0.9493579;0.2534626;42;-6;10;356;2114;-3486;4;-0.4598338;0.1855956;-0.4944598;-0.7138744;0;-6;-15;1882;3544;-298;16;-0.09695291;-0.9432733;-0.1274238;0.2908587;-4;2;2;-783;-1151;3982;2;0.6664972;-0.4570637;-0.2409972;-0.5373961;3;-6;19;-2198;3458;-52;8;-0.1108033;-0.9519358;0.1260388;0.2562327;-4;-4;0;1095;-491;3815;0.7262122;1.044243;2.13738;0.7278216;1.190916;1.611922;0.7292151;1.317894;1.149501;0.6782718;1.724973;0.5410984;0.4030472;1.841815;0.2489558;0.06754063;1.772771;0.399977;0.08121248;0.8465817;0.4177335;0;0;0;0.9192094;1.907646;0.2497796;1.208863;1.918335;0.4018006;1.376411;0.996362;0.6257849;1.368978;0.1105905;0.2894204;0.4142416;1.028058;2.179148;0.3562415;-0.2506828;1.470404;0.6728295;0.09185791;2.733245;0.4142416;1.028058;2.179148;0.3562415;-0.2506828;1.470404;0.6728295;0.09185791;2.733245
297394.5191;NotLabelled;16384;-0.432133;0.4556787;-0.5520794;-0.5484765;5;11;0;150;3638;-198;65536;0.5803324;-0.2797784;0.4778393;0.5971666;-1;9;1;-1794;3429;-266;8192;0.6385041;-0.6893473;-0.3213296;-0.1177285;-15;-18;-7;1070;3820;2;32768;0.7712008;-0.5581717;-0.1177285;-0.2825485;12;-33;30;1243;3708;-558;256;0.1786704;0.01523546;-0.9423434;-0.2825485;-40;-1;-9;-504;2292;3186;128;-0.1869806;0.005540166;0.9505483;0.2479224;43;-5;11;244;2142;-3662;4;-0.4584487;0.1869806;-0.4958449;-0.713443;0;-4;-16;1950;3454;-294;16;-0.09695291;-0.9436993;-0.1274238;0.2894737;-6;5;1;-699;-1193;3996;2;0.6657067;-0.4598338;-0.2409972;-0.536011;3;-6;21;-2178;3618;-16;8;-0.1121884;-0.9517735;0.1260388;0.2562327;-4;-2;0;1089;-695;3841;0.7228067;1.084981;2.141612;0.7242808;1.219303;1.612861;0.7255548;1.335412;1.147592;0.674589;1.72964;0.5307866;0.3994869;1.839899;0.2359822;0.0639325;1.773445;0.3880553;0.07758654;0.8475227;0.4165126;0;0;0;0.9155362;1.906615;0.2359794;1.205006;1.920963;0.38805;1.376939;1.001129;0.6174366;1.36903;0.1195343;0.2702829;0.4108472;1.06978;2.183829;0.3610177;-0.2129071;1.481625;0.6683947;0.1331153;2.74579;0.4108472;1.06978;2.183829;0.3610177;-0.2129071;1.481625;0.6683947;0.1331153;2.74579
297414.5138;NotLabelled;16384;-0.433518;0.4598338;-0.5457063;-0.5502905;11;6;3;-122;3774;-130;65536;0.5831025;-0.2825485;0.4750692;0.5953714;-2;18;3;-1454;3357;-266;8192;0.6398892;-0.6895838;-0.3185596;-0.1163435;-14;-18;-4;1110;3718;-10;32768;0.7740214;-0.5554016;-0.1121884;-0.2825485;12;-27;32;1245;3718;-616;256;0.1814404;0.0166205;-0.943435;-0.2770083;-43;0;-10;-470;2170;3294;128;-0.1883656;0.005540166;0.9520546;0.2409972;44;-4;11;164;2106;-3520;4;-0.4570637;0.1883656;-0.4972299;-0.7130032;2;-3;-17;1972;3458;-294;16;-0.09833795;-0.9433679;-0.1288089;0.2894737;-6;2;2;-665;-1017;3980;2;0.6655092;-0.4626039;-0.2423823;-0.533241;3;-8;23;-2074;3658;4;8;-0.1135734;-0.9516093;0.1260388;0.2562327;-6;-7;-2;1301;-735;3935;0.7214302;1.107343;2.148526;0.722838;1.235629;1.618278;0.7240539;1.346426;1.151716;0.6734713;1.73319;0.5301716;0.3986679;1.839514;0.2336484;0.06297467;1.774379;0.3859855;0.07578457;0.8484595;0.4149324;0;0;0;0.914618;1.906994;0.2336456;1.203828;1.923586;0.385981;1.37682;1.002804;0.6107229;1.366632;0.1239972;0.2566294;0.4094758;1.092625;2.190953;0.3623686;-0.1934354;1.494757;0.6625932;0.1522229;2.76074;0.4094758;1.092625;2.190953;0.3623686;-0.1934354;1.494757;0.6625932;0.1522229;2.76074
297434.515;NotLabelled;16384;-0.432133;0.4598338;-0.5443213;-0.5527462;11;-6;1;-44;3634;-136;65536;0.5844875;-0.2853186;0.4736842;0.5937937;-4;4;8;-1144;3271;-158;8192;0.6426592;-0.6881065;-0.3171745;-0.1135734;-12;-16;-2;1142;3732;30;32768;0.7756035;-0.5540166;-0.1080332;-0.2825485;10;-24;32;1165;3604;-650;256;0.1828255;0.01800554;-0.9447517;-0.2714681;-43;-2;-10;-568;2154;3334;128;-0.1911357;0.004155125;0.9528955;0.2354571;44;-6;11;334;2028;-3530;4;-0.4542936;0.1897507;-0.4986149;-0.7134389;3;-8;-18;1960;3534;-258;16;-0.09833795;-0.9433679;-0.1288089;0.2894737;-7;1;2;-679;-1101;3984;2;0.6647767;-0.4653739;-0.2451524;-0.5304709;0;-11;25;-2058;3664;22;8;-0.1149584;-0.9508842;0.1274238;0.2576177;-9;-9;-2;1343;-597;3917;0.7050251;1.131908;2.161713;0.7063503;1.252653;1.629698;0.7074931;1.356817;1.161609;0.6570539;1.735933;0.5353594;0.3824927;1.838055;0.2371397;0.0467;1.774016;0.3897221;0.07025677;0.8482378;0.416356;0;0;0;0.8982915;1.906679;0.2371366;1.187219;1.925755;0.3897167;1.359209;1.004318;0.6125332;1.348071;0.1295569;0.2485884;0.3930776;1.117793;2.204393;0.3505597;-0.171613;1.514117;0.6430609;0.1785564;2.780668;0.3930776;1.117793;2.204393;0.3505597;-0.171613;1.514117;0.6430609;0.1785564;2.780668
297454.5238;NotLabelled;16384;-0.4307479;0.4598338;-0.5429363;-0.5551841;14;-4;-1;88;3658;-54;65536;0.5831025;-0.2867036;0.4736842;0.5944879;-4;-7;11;-1176;3511;-222;8192;0.6440443;-0.6876756;-0.3157895;-0.1121884;-8;-9;0;1054;3832;80;32768;0.7791594;-0.5498615;-0.09972299;-0.2839335;8;-9;28;1091;3676;-484;256;0.1842105;0.01939058;-0.9464183;-0.2645429;-44;-1;-9;-484;2224;3242;128;-0.1925208;0.002770083;0.9543067;0.2285319;44;-2;10;314;1996;-3636;4;-0.4515235;0.1911357;-0.5;-0.7138582;2;-9;-21;1994;3538;-312;16;-0.09972299;-0.9432225;-0.1288089;0.2894737;-8;-1;4;-663;-1161;3912;2;0.6645241;-0.468144;-0.2465374;-0.5277008;0;-10;26;-2000;3610;-58;8;-0.1163435;-0.9505291;0.1288089;0.2576177;-8;-15;-1;1173;-569;3923;0.6958603;1.154734;2.170208;0.6971155;1.26912;1.636789;0.6981971;1.367687;1.16749;0.6482275;1.739251;0.5366924;0.3740003;1.837426;0.2368439;0.03805431;1.774729;0.3896459;0.06685874;0.8490696;0.4152203;0;0;0;0.8897017;1.90678;0.2368407;1.178358;1.928082;0.3896406;1.355786;1.006777;0.6087089;1.3425;0.1346109;0.2386593;0.3839181;1.141131;2.213094;0.3464371;-0.1521158;1.529744;0.635421;0.1980534;2.797102;0.3839181;1.141131;2.213094;0.3464371;-0.1521158;1.529744;0.635421;0.1980534;2.797102
297475.5244;NotLabelled;16384;-0.4307479;0.4612188;-0.5415512;-0.5553879;15;1;-1;298;3926;-126;65536;0.5803324;-0.2894737;0.4750692;0.5947508;-6;-10;15;-1256;3595;-378;8192;0.6454294;-0.6872361;-0.3144044;-0.1108033;-4;-9;3;1032;3786;102;32768;0.7794708;-0.5484765;-0.09695291;-0.2867036;6;0;26;1103;3654;-606;256;0.1869806;0.02216066;-0.9492124;-0.2520775;-47;0;-10;-496;2156;3232;128;-0.1966759;0.001385042;0.9566758;0.2146814;50;-3;12;202;2060;-3602;4;-0.4473684;0.1952908;-0.5027701;-0.713404;3;-6;-25;1918;3562;-226;16;-0.1024931;-0.9431594;-0.1301939;0.2880886;-8;4;2;-895;-995;3870;2;0.6644058;-0.4722992;-0.2506925;-0.5221606;0;-5;30;-1986;3636;-60;8;-0.1204986;-0.9494386;0.132964;0.2576177;-10;-15;-1;1371;-721;3767;0.6859721;1.182763;2.179051;0.6871417;1.289334;1.644016;0.6881475;1.381027;1.173325;0.6391093;1.743226;0.5370313;0.3653943;1.836731;0.2352289;0.02919953;1.775984;0.388272;0.06314078;0.8504739;0.4129217;0;0;0;0.8810337;1.906544;0.2352256;1.169366;1.930353;0.3882664;1.34773;1.008884;0.6058822;1.329524;0.1433058;0.2208747;0.3740368;1.169788;2.222182;0.341708;-0.1272562;1.5458;0.6265932;0.2263918;2.813121;0.3740368;1.169788;2.222182;0.341708;-0.1272562;1.5458;0.6265932;0.2263918;2.813121
297496.5279;NotLabelled;16384;-0.4307479;0.4626039;-0.5401662;-0.5555847;18;-3;0;490;4002;-248;65536;0.5775623;-0.2922437;0.4764543;0.5949846;-10;-5;32;-580;3465;-202;8192;0.6454294;-0.687458;-0.3144044;-0.1094183;-1;-12;6;948;3722;82;32768;0.7795914;-0.5470914;-0.09556787;-0.2894737;6;7;24;1127;3714;-788;256;0.1883656;0.0235457;-0.9507178;-0.2451524;-49;-1;-9;-484;2166;3440;128;-0.1980609;0;0.9579192;0.2077562;52;-3;12;280;2044;-3638;4;-0.4445983;0.1980609;-0.5041551;-0.7133946;3;-8;-28;1900;3620;-268;16;-0.1024931;-0.9429672;-0.1315789;0.2880886;-6;8;0;-903;-1075;3826;2;0.6635506;-0.4750692;-0.2534626;-0.5193906;-1;-8;32;-1980;3602;-32;8;-0.1218837;-0.9490668;0.134349;0.2576177;-11;-10;-2;1213;-693;3793;0.6771364;1.237471;2.190047;0.6781362;1.328591;1.652165;0.6789932;1.406692;1.179029;0.6315029;1.751771;0.5331743;0.3586921;1.836623;0.2280149;0.02207161;1.779206;0.3814067;0.05865632;0.8538122;0.406647;0;0;0;0.8741773;1.907566;0.2280122;1.161898;1.936072;0.3814023;1.341885;1.014446;0.5970037;1.321522;0.1515701;0.2060834;0.3652148;1.225745;2.233633;0.3426162;-0.07953262;1.572876;0.6152056;0.2817266;2.840754;0.3652148;1.225745;2.233633;0.3426162;-0.07953262;1.572876;0.6152056;0.2817266;2.840754
297516.5182;NotLabelled;16384;-0.4293629;0.4653739;-0.533241;-0.5610068;27;17;-4;376;3958;-408;65536;0.566482;-0.3088643;0.4847645;0.590512;-21;10;82;-32;3875;38;8192;0.6454294;-0.687677;-0.3144044;-0.1080332;0;-13;8;1006;3760;128;32768;0.7806648;-0.5443213;-0.09418282;-0.2922437;6;12;22;1049;3556;-722;256;0.1897507;0.02493075;-0.9518188;-0.2396122;-51;-2;-8;-524;2106;3428;128;-0.200831;0;0.958819;0.200831;53;-2;11;212;1930;-3742;4;-0.4404432;0.200831;-0.5069252;-0.7132346;3;-7;-31;1946;3554;-232;16;-0.1024931;-0.9425765;-0.134349;0.2880886;-5;15;-1;-909;-1167;3790;2;0.6626596;-0.4778393;-0.2562327;-0.5166205;-1;-8;34;-2066;3614;-68;8;-0.1246537;-0.948707;0.134349;0.2576177;-12;-4;-2;1213;-723;3753;0.6701581;1.267622;2.191845;0.6710721;1.350901;1.652693;0.6718531;1.422105;1.17847;0.625402;1.757651;0.5275369;0.3531441;1.837803;0.2206184;0.01625841;1.782365;0.3741561;0.05538313;0.8570962;0.4001451;0;0;0;0.8685726;1.909157;0.2206152;1.155959;1.94014;0.3741509;1.336303;1.019078;0.5918593;1.314447;0.1583741;0.196261;0.3582436;1.256532;2.235646;0.3426799;-0.05364466;1.584451;0.6108622;0.3086367;2.852977;0.3582436;1.256532;2.235646;0.3426799;-0.05364466;1.584451;0.6108622;0.3086367;2.852977
297537.6959;NotLabelled;16384;-0.4279778;0.4709141;-0.5290859;-0.561376;31;37;-16;-156;4184;-536;65536;0.5581717;-0.3254848;0.4889196;0.5860559;-28;53;112;1086;4285;1142;8192;0.6454294;-0.6878932;-0.3144044;-0.1066482;-1;-9;9;1026;3862;208;32768;0.7800625;-0.5429363;-0.09418282;-0.2963989;4;11;16;1091;3424;-646;256;0.1911357;0.02493075;-0.9532588;-0.232687;-49;-3;-5;-446;2200;3344;128;-0.2022161;-0.001385042;0.9599517;0.1939058;56;-5;11;264;1984;-3674;4;-0.4376731;0.2036011;-0.5083103;-0.7131687;4;-8;-33;1822;3566;-254;16;-0.1024931;-0.9421775;-0.1371191;0.2880886;-5;18;0;-901;-1139;3798;2;0.6617325;-0.4806094;-0.2590028;-0.5138504;-3;-5;38;-2086;3676;-138;8;-0.1260388;-0.9481466;0.134349;0.2590028;-12;-4;-3;1197;-685;3763;0.6475991;1.30854;2.164675;0.6484292;1.384189;1.624399;0.6491368;1.448682;1.149216;0.6033357;1.77645;0.494287;0.3314837;1.85262;0.1859973;-0.00558459;1.798566;0.3396279;0.05012827;0.8740616;0.3623549;0;0;0;0.8468206;1.924631;0.1859942;1.133913;1.957796;0.339623;1.315089;1.037305;0.5590421;1.293597;0.1798501;0.1564287;0.3356914;1.298071;2.208677;0.3257193;-0.01881313;1.571044;0.5891935;0.3455098;2.839972;0.3356914;1.298071;2.208677;0.3257193;-0.01881313;1.571044;0.5891935;0.3455098;2.839972
297557.5218;NotLabelled;16384;-0.4265928;0.4833795;-0.5235457;-0.5570124;43;68;-46;-1404;4074;-982;65536;0.5567867;-0.3421052;0.4916897;0.5754943;-31;71;91;-1104;5601;-922;8192;0.6454294;-0.6883169;-0.3144044;-0.1038781;-2;-6;8;972;3926;314;32768;0.7802272;-0.5401662;-0.09556787;-0.300554;3;9;6;1303;3586;-1082;256;0.1925208;0.02631579;-0.9546072;-0.2257618;-48;-4;-4;-544;2094;3354;128;-0.2036011;-0.002770083;0.9612976;0.1855956;53;-4;10;102;1976;-3516;4;-0.433518;0.2063712;-0.5110803;-0.7129306;5;-13;-36;1798;3596;-280;16;-0.1024931;-0.9413454;-0.1398892;0.2894737;-3;18;-1;-825;-1097;3834;2;0.660219;-0.4833795;-0.2631579;-0.5110803;-4;-7;40;-2160;3682;-136;8;-0.1288089;-0.947577;0.1357341;0.2590028;-10;-8;-4;1263;-687;3613;0.6267062;1.346027;2.134973;0.6274501;1.413825;1.593655;0.628082;1.471411;1.117586;0.5841974;1.789948;0.4579868;0.3130965;1.862259;0.1481108;-0.02437553;1.811035;0.3018246;0.04079182;0.8872962;0.329905;0;0;0;0.8285715;1.933276;0.1481072;1.115427;1.968066;0.3018189;1.297271;1.048146;0.5230775;1.274911;0.1926188;0.116432;0.3148053;1.336198;2.179172;0.3121148;0.01460195;1.55129;0.569874;0.3809624;2.820805;0.3148053;1.336198;2.179172;0.3121148;0.01460195;1.55129;0.569874;0.3809624;2.820805
297578.5707;NotLabelled;16384;-0.4238227;0.4930748;-0.5193906;-0.5545133;33;27;-48;-2432;4908;226;65536;0.5526316;-0.3559557;0.4916897;0.5710824;-37;37;62;-1188;4815;946;8192;0.6454294;-0.6885245;-0.3144044;-0.1024931;-1;-8;8;880;3708;316;32768;0.7804792;-0.5387812;-0.09695291;-0.301939;5;8;3;1393;3364;-1228;256;0.1939058;0.02631579;-0.9559386;-0.2188366;-47;-9;-3;-964;1806;3580;128;-0.2049861;-0.002770083;0.9623148;0.1786704;53;-7;9;242;1836;-3584;4;-0.4238227;0.2119114;-0.5152354;-0.7141431;4;-20;-41;1734;3686;-378;16;-0.101108;-0.940228;-0.1454294;0.2908587;0;16;-3;-771;-993;3754;2;0.6597496;-0.4903047;-0.2700831;-0.501385;-3;-17;48;-1944;3630;-38;8;-0.1301939;-0.9462246;0.1385041;0.2617728;-1;-9;-8;1187;-691;3407;0.6149171;1.384568;2.099122;0.6155583;1.443006;1.556714;0.6160998;1.492362;1.079722;0.5733302;1.801215;0.4154603;0.3028066;1.868806;0.1040182;-0.03494021;1.81959;0.2577841;0.03984457;0.8972136;0.3020204;0;0;0;0.8182319;1.940182;0.1040152;1.104753;1.977415;0.2577793;1.288375;1.05865;0.4823458;1.268579;0.2055184;0.07056755;0.3030249;1.375504;2.143543;0.3059019;0.04744446;1.529452;0.562395;0.4162456;2.798516;0.3030249;1.375504;2.143543;0.3059019;0.04744446;1.529452;0.562395;0.4162456;2.798516
297599.7385;NotLabelled;16384;-0.4168975;0.5;-0.5207756;-0.5522583;38;-23;-43;-1628;4230;152;65536;0.5498615;-0.365651;0.4916897;0.5676204;-36;19;48;-1390;4965;-1578;8192;0.6454294;-0.6887292;-0.3144044;-0.101108;-2;-11;8;794;3668;396;32768;0.7807238;-0.5373961;-0.09833795;-0.3033241;8;3;0;1347;3144;-1338;256;0.1966759;0.02631579;-0.9587349;-0.2036011;-43;-21;-5;-672;1456;3822;128;-0.2091413;-0.004155125;0.9641222;0.1634349;47;-14;8;646;1286;-3942;4;-0.4182825;0.2160665;-0.5180055;-0.7141605;4;-19;-42;1748;3634;-386;16;-0.09972299;-0.9395136;-0.1481994;0.2922437;3;18;-3;-867;-1061;3722;2;0.65969;-0.4930748;-0.2728532;-0.4972299;-4;-16;49;-1776;3658;16;8;-0.1301939;-0.9458404;0.1385041;0.2631579;2;1;-8;1097;-569;3345;0.5941905;1.415269;2.069671;0.5947487;1.466136;1.526501;0.5952172;1.508834;1.048867;0.5543522;1.808359;0.3802277;0.2845662;1.872084;0.06733409;-0.05357524;1.825719;0.2211191;0.03045546;0.9049128;0.2792886;0;0;0;0.8001339;1.942425;0.06733096;1.086433;1.981253;0.2211137;1.271167;1.063072;0.4471491;1.255109;0.2106873;0.03366399;0.2823051;1.406826;2.114262;0.3006601;0.06725347;1.525988;0.5544915;0.4371001;2.795284;0.2823051;1.406826;2.114262;0.3006601;0.06725347;1.525988;0.5544915;0.4371001;2.795284
297620.5337;NotLabelled;16384;-0.3975069;0.5027701;-0.5290859;-0.5561283;24;-35;-50;270;4514;-98;65536;0.536011;-0.3753462;0.4958449;0.5709161;-26;-20;39;-1824;4169;-854;8192;0.6468144;-0.6882625;-0.3130194;-0.09972299;-7;-15;5;696;3914;408;32768;0.782036;-0.536011;-0.09972299;-0.301939;9;-5;-3;1503;3102;-1200;256;0.1980609;0.02493075;-0.9599317;-0.1966759;-40;-17;-5;-576;1410;3622;128;-0.2105263;-0.002770083;0.9649745;0.1565097;46;-16;9;478;1188;-3878;4;-0.4127424;0.2188366;-0.5207756;-0.7145258;3;-17;-44;1602;3708;-490;16;-0.09833795;-0.9387864;-0.1509695;0.2936288;5;21;0;-845;-1201;3800;2;0.6589917;-0.4972299;-0.2770083;-0.4916897;-4;-13;51;-1698;3620;146;8;-0.1288089;-0.9456437;0.1385041;0.2645429;9;11;-8;1145;-513;3391;0.5789146;1.47322;2.049132;0.5792864;1.507109;1.504639;0.5795912;1.534877;1.025904;0.5428705;1.813756;0.3481578;0.2746665;1.869014;0.03230794;-0.06431454;1.828987;0.1860252;0.02332509;0.9099202;0.2632453;0;0;0;0.7905574;1.936943;0.03230488;1.076409;1.97919;0.1860197;1.260435;1.061596;0.4149947;1.249729;0.2099597;-0.0002026558;0.2670445;1.466174;2.094072;0.2975162;0.1191361;1.523618;0.5448226;0.4880066;2.794485;0.2670445;1.466174;2.094072;0.2975162;0.1191361;1.523618;0.5448226;0.4880066;2.794485
297640.5979;NotLabelled;16384;-0.3905817;0.5096953;-0.5290859;-0.5547295;36;18;-51;-626;5594;-896;65536;0.5318559;-0.3795014;0.4958449;0.572054;-27;-2;20;-2656;5445;182;8192;0.6481994;-0.6877872;-0.3116343;-0.09833795;-11;-21;0;726;4142;408;32768;0.7829835;-0.534626;-0.09972299;-0.301939;10;-12;-6;1805;3430;-1420;256;0.199446;0.0235457;-0.9607986;-0.1911357;-38;-13;-4;-578;1358;3510;128;-0.2119114;-0.002770083;0.9659828;0.1481994;48;-18;11;282;1156;-3850;4;-0.4072022;0.2229917;-0.5249307;-0.7133784;0;-14;-46;1468;3720;-554;16;-0.09695291;-0.9384809;-0.1537396;0.2936288;5;24;1;-861;-1145;3846;2;0.6576002;-0.501385;-0.2825485;-0.4861496;-1;-14;53;-1600;3602;168;8;-0.1260388;-0.9458303;0.1371191;0.265928;16;15;-8;1297;-607;3375;0.5536082;1.499358;2.000119;0.5539004;1.525994;1.455222;0.5541353;1.547388;0.9761605;0.5199271;1.817217;0.2946295;0.252537;1.869471;-0.0224191;-0.08689725;1.833163;0.1312212;0.01031596;0.9177353;0.2354842;0;0;0;0.7687489;1.934916;-0.02242184;1.054536;1.977872;0.1312163;1.240096;1.060118;0.3583085;1.236141;0.2086637;-0.05738032;0.2417445;1.492912;2.045194;0.2803906;0.1396852;1.490089;0.5255252;0.507602;2.761652;0.2417445;1.492912;2.045194;0.2803906;0.1396852;1.490089;0.5255252;0.507602;2.761652
297661.6059;NotLabelled;16384;-0.3864266;0.5193906;-0.5277008;-0.5499452;35;19;-52;-2234;7750;-674;65536;0.5304709;-0.3808864;0.4944598;0.5736163;-17;5;-3;-2192;8113;-818;8192;0.6495845;-0.6881204;-0.3088643;-0.09556787;-12;-27;-2;1132;4134;428;32768;0.7849887;-0.533241;-0.09972299;-0.299169;13;-17;-6;1885;3720;-1642;256;0.200831;0.02216066;-0.9618952;-0.1842105;-39;-28;-2;-1286;1324;4124;128;-0.2146814;-0.002770083;0.9664087;0.1412742;47;-13;11;246;1124;-3742;4;-0.4030471;0.2271468;-0.5277008;-0.7123828;0;-17;-45;1304;3750;-584;16;-0.09556787;-0.938165;-0.1565097;0.2936288;5;23;3;-857;-1117;3912;2;0.6572953;-0.5055401;-0.2853186;-0.4806094;-1;-21;54;-1580;3770;150;8;-0.1218837;-0.9461841;0.1357341;0.267313;19;14;-11;1407;-659;3687;0.5377775;1.522173;1.978617;0.5379708;1.539773;1.433354;0.5381183;1.553221;0.9540032;0.5059751;1.815843;0.2695628;0.2392313;1.865832;-0.04839423;-0.1005589;1.832644;0.1051644;0.003095083;0.9200361;0.226542;0;0;0;0.755721;1.929049;-0.04839706;1.041488;1.972424;0.1051596;1.22831;1.054517;0.3305945;1.227946;0.204155;-0.08734345;0.2259222;1.516476;2.023849;0.2705146;0.1549194;1.489963;0.5100092;0.5214462;2.763002;0.2259222;1.516476;2.023849;0.2705146;0.1549194;1.489963;0.5100092;0.5214462;2.763002
297682.5429;NotLabelled;16384;-0.3781163;0.5235457;-0.5290859;-0.5504508;20;-47;-42;-960;5144;198;65536;0.5277008;-0.3850415;0.4930748;0.5745887;-31;-1;20;-976;4337;-1276;8192;0.6537396;-0.6867837;-0.3047091;-0.0900277;-16;-30;-2;968;3544;480;32768;0.7883199;-0.5290859;-0.09972299;-0.2977839;7;-4;6;1899;2928;-896;256;0.2022161;0.0166205;-0.9630173;-0.1772853;-33;-60;0;-1906;888;4934;128;-0.2160665;-0.001385042;0.9670903;0.134349;30;-12;7;574;906;-4094;4;-0.3905817;0.234072;-0.534626;-0.7119209;1;-18;-49;1398;3886;-350;16;-0.09141274;-0.9381129;-0.1592798;0.2936288;8;11;5;-639;-1043;3692;2;0.6560873;-0.5152354;-0.2936288;-0.466759;-6;-19;55;-1274;3588;184;8;-0.1149584;-0.9464619;0.134349;0.2700831;16;13;-10;1357;-351;3863;0.5260215;1.542043;1.963219;0.5261314;1.552064;1.417764;0.5262058;1.55885;0.9382724;0.4964367;1.812364;0.2502992;0.2304454;1.859361;-0.06874251;-0.1097466;1.829909;0.08468881;-0.002973229;0.9203942;0.2250836;0;0;0;0.7472388;1.920045;-0.06874615;1.032972;1.964091;0.08468294;1.220631;1.046105;0.3090934;1.226697;0.196295;-0.1099226;0.214173;1.536975;2.008574;0.2658804;0.1689842;1.49206;0.4995914;0.5341198;2.766573;0.214173;1.536975;2.008574;0.2658804;0.1689842;1.49206;0.4995914;0.5341198;2.766573
297702.7364;NotLabelled;16384;-0.3698061;0.5207756;-0.536011;-0.5520221;5;-61;-31;-48;3182;-320;65536;0.5249307;-0.3891967;0.4916897;0.5755127;-35;-11;27;-824;3943;-214;8192;0.6565097;-0.6863297;-0.300554;-0.08725762;-20;-45;-14;1002;4436;372;32768;0.7898223;-0.5263157;-0.09833795;-0.299169;5;-11;9;2265;3312;-1100;256;0.2063712;0;-0.9642546;-0.166205;-14;-43;-2;188;990;4032;128;-0.2188366;0.005540166;0.9675713;0.1260388;2;-50;5;634;342;-4152;4;-0.3850415;0.2382271;-0.5373961;-0.7114747;-1;-13;-51;1420;3910;-436;16;-0.0900277;-0.9382468;-0.1592798;0.2936288;13;5;6;-717;-1201;3646;2;0.6559514;-0.5180055;-0.2977839;-0.4612188;-7;-12;52;-1142;3510;100;8;-0.1108033;-0.9467567;0.132964;0.2714681;18;12;-8;1177;-277;3855;0.5073466;1.555945;1.945441;0.5073776;1.558765;1.399901;0.5073825;1.55922;0.9203617;0.4817699;1.80485;0.2293679;0.2168107;1.851475;-0.09058607;-0.1239266;1.82828;0.06270856;-0.01132816;0.9219524;0.2183408;0;0;0;0.7343486;1.905441;-0.09058893;1.020438;1.947607;0.06270385;1.214258;1.029791;0.2825295;1.229796;0.1830834;-0.1424794;0.1955048;1.551477;1.990904;0.2615135;0.1701428;1.512973;0.4886407;0.5269595;2.791028;0.1955048;1.551477;1.990904;0.2615135;0.1701428;1.512973;0.4886407;0.5269595;2.791028
297724.5179;NotLabelled;16384;-0.3628809;0.5221606;-0.5387812;-0.5526125;15;-28;-40;8;3440;-1778;65536;0.5193906;-0.3933518;0.4916897;0.5777102;-29;-15;26;-1046;3949;206;8192;0.6606648;-0.6858557;-0.2936288;-0.08310249;-21;-54;-24;1248;4774;152;32768;0.7914371;-0.5249307;-0.09695291;-0.2977839;9;-18;6;2199;4104;-1468;256;0.2077562;-0.004155125;-0.9646553;-0.1620499;-21;-35;1;-64;1100;4010;128;-0.2202216;0.01108033;0.9675663;0.1232687;15;-35;10;36;558;-4236;4;-0.3795014;0.2437673;-0.5415512;-0.7094212;-5;-6;-49;1208;3706;-578;16;-0.08725762;-0.9387047;-0.1606648;0.2922437;12;9;10;-981;-1277;3704;2;0.6539875;-0.5221606;-0.3033241;-0.4556787;-5;-11;50;-930;3584;18;8;-0.1080332;-0.9466787;0.132964;0.2728532;16;13;-6;1345;-657;4089;0.4915929;1.563991;1.944725;0.4915424;1.559386;1.399197;0.4914757;1.553317;0.919696;0.4760556;1.78852;0.2247829;0.2136071;1.839283;-0.09660734;-0.1280713;1.83058;0.05609931;-0.02171436;0.9234167;0.2112515;0;0;0;0.7327249;1.874978;-0.0960483;1.019787;1.909508;0.05733734;1.209498;0.9880427;0.2651471;1.232574;0.144498;-0.1657673;0.1797578;1.560141;1.990291;0.2601295;0.1728508;1.532225;0.4677833;0.5262018;2.814548;0.1797578;1.560141;1.990291;0.2601295;0.1728508;1.532225;0.4677833;0.5262018;2.814548
297746.6228;NotLabelled;16384;-0.3504155;0.533241;-0.5373961;-0.551424;27;-5;-36;-1198;4004;-796;65536;0.5110803;-0.4016621;0.4903047;0.5805737;-22;4;27;-1064;4059;92;8192;0.66482;-0.6856781;-0.2853186;-0.08033241;-18;-48;-30;1730;4636;-86;32768;0.7928731;-0.5235457;-0.09695291;-0.2963989;15;-23;5;2075;4354;-1344;256;0.2077562;-0.009695291;-0.9655299;-0.1565097;-20;-37;2;-104;832;4080;128;-0.2216066;0.01385042;0.9677348;0.1191136;16;-14;8;-136;674;-4408;4;-0.3753462;0.2479224;-0.5457063;-0.7070037;-7;-5;-46;996;3560;-694;16;-0.08587258;-0.9390245;-0.1620499;0.2908587;12;8;14;-943;-1075;3886;2;0.6535048;-0.5263157;-0.3074792;-0.4487534;-2;-17;51;-864;3728;146;8;-0.1052632;-0.9473755;0.1301939;0.2728532;8;12;-4;1781;-947;4335;0.4766491;1.565297;1.916959;0.4765801;1.558994;1.371448;0.4764972;1.551432;0.8919677;0.4629423;1.782117;0.1955032;0.2008279;1.833171;-0.1261137;-0.1408455;1.828669;0.02678549;-0.03033093;0.9254663;0.2009693;0;0;0;0.7202558;1.864036;-0.1260029;1.007698;1.896917;0.02703243;1.201929;0.976284;0.2343577;1.228166;0.1342456;-0.1993126;0.1648156;1.56159;1.962547;0.2512962;0.1666117;1.52963;0.4510255;0.5135684;2.814954;0.1648156;1.56159;1.962547;0.2512962;0.1666117;1.52963;0.4510255;0.5135684;2.814954
297769.7404;NotLabelled;16384;-0.3434903;0.536011;-0.5401662;-0.5503881;20;-31;-35;-1720;3914;-540;65536;0.5083103;-0.4044321;0.4916897;0.5799108;-19;-4;27;-690;4135;-40;8192;0.66759;-0.6858333;-0.2783934;-0.08033241;-13;-33;-35;1988;4316;-40;32768;0.7958905;-0.5207756;-0.09556787;-0.2936288;17;-24;7;1923;4362;-1136;256;0.2091413;-0.01246537;-0.9658636;-0.1523546;-11;-31;1;-506;682;4216;128;-0.2229917;0.01523546;0.9677328;0.1163435;11;-13;2;-22;640;-4048;4;-0.3711911;0.2520775;-0.5484765;-0.7055832;-6;-9;-45;758;3614;-616;16;-0.08310249;-0.9397014;-0.1620499;0.2894737;10;8;13;-967;-875;4096;2;0.651956;-0.5304709;-0.3116343;-0.4432133;-3;-20;51;-796;3984;396;8;-0.1052632;-0.9473755;0.1301939;0.2728532;0;-1;-1;1819;-759;4283;0.443536;1.567009;1.872784;0.4434251;1.55689;1.327331;0.4433053;1.545972;0.8479161;0.432887;1.770704;0.1494538;0.1715202;1.822348;-0.1726765;-0.1702115;1.823637;-0.01984679;-0.04527428;0.928463;0.1835843;0;0;0;0.6913059;1.846445;-0.1726796;0.9791234;1.876919;-0.01985145;1.173801;0.9545078;0.1789786;1.204112;0.1133754;-0.256184;0.1317061;1.563621;1.918422;0.2192956;0.1622772;1.506811;0.4129522;0.5062928;2.793853;0.1317061;1.563621;1.918422;0.2192956;0.1622772;1.506811;0.4129522;0.5062928;2.793853
297790.6295;NotLabelled;16384;-0.33518;0.5373961;-0.5443213;-0.5500673;13;-44;-37;-1046;3968;-786;65536;0.5041551;-0.4085872;0.4916897;0.5806249;-20;-5;25;-754;4069;-190;8192;0.6745152;-0.6832973;-0.267313;-0.08171745;-18;-24;-35;1594;4210;186;32768;0.7996525;-0.5152354;-0.09418282;-0.2936288;15;0;17;1365;3944;-1002;256;0.2091413;-0.0166205;-0.966234;-0.1495845;-7;-33;2;-246;664;4124;128;-0.2229917;0.0166205;0.968039;0.1135734;3;-19;0;142;462;-3984;4;-0.365651;0.2562327;-0.5526316;-0.7037348;-5;-9;-45;766;3752;-476;16;-0.08033241;-0.9403678;-0.1620499;0.2880886;7;5;11;-875;-811;4084;2;0.6506129;-0.5373961;-0.3199446;-0.4307479;-3;-13;50;-502;4026;260;8;-0.1066482;-0.9462429;0.1371191;0.2728532;2;-31;0;1321;-573;3741;0.4397976;1.573349;1.857435;0.4396575;1.560577;1.312038;0.4395121;1.547329;0.8326811;0.4309636;1.767117;0.1326222;0.1701177;1.818195;-0.1900207;-0.1716787;1.822856;-0.03740146;-0.04668446;0.929929;0.1756411;0;0;0;0.6900526;1.838824;-0.1898958;0.9779862;1.868473;-0.03712332;1.167194;0.9423504;0.1493526;1.204221;0.1036814;-0.2900242;0.1279701;1.570182;1.903105;0.2213176;0.1638889;1.510061;0.4067661;0.5004485;2.80028;0.1279701;1.570182;1.903105;0.2213176;0.1638889;1.510061;0.4067661;0.5004485;2.80028
297810.525;NotLabelled;16384;-0.3282548;0.5373961;-0.5470914;-0.5514935;15;-32;-37;-508;3792;-948;65536;0.5;-0.4113573;0.4930748;0.5810872;-19;-9;24;-812;4125;156;8192;0.6772853;-0.6827019;-0.2617728;-0.08171745;-17;-23;-41;1320;4176;88;32768;0.8004102;-0.5124654;-0.09418282;-0.2963989;16;2;16;1229;3948;-1260;256;0.2105263;-0.02077562;-0.9662777;-0.1468144;-9;-28;2;-160;706;4068;128;-0.2243767;0.01939058;0.9679885;0.1108033;9;-20;1;354;478;-4126;4;-0.3573407;0.2645429;-0.5581717;-0.700549;2;0;-42;858;3780;-404;16;-0.07756232;-0.9414442;-0.1620499;0.2853186;4;4;12;-1059;-1011;3908;2;0.6489655;-0.5415512;-0.3254848;-0.4238227;-5;-11;48;-376;3872;250;8;-0.1080332;-0.9454743;0.1412742;0.2728532;3;-27;-1;1273;-531;3609;0.4292591;1.57288;1.831845;0.4290901;1.557478;1.286516;0.4289192;1.541918;0.8072287;0.422302;1.759137;0.1063476;0.1618951;1.811396;-0.2164604;-0.179824;1.819778;-0.06382704;-0.0524551;0.9313784;0.16607;0;0;0;0.6819978;1.827241;-0.2164637;0.9702117;1.854813;-0.06383204;1.156515;0.9247041;0.1048805;1.200186;0.09148788;-0.3441534;0.1174339;1.569934;1.877546;0.2138106;0.1576915;1.507221;0.394879;0.4867823;2.799986;0.1174339;1.569934;1.877546;0.2138106;0.1576915;1.507221;0.394879;0.4867823;2.799986
297830.6113;NotLabelled;16384;-0.3213296;0.5401662;-0.5514901;-0.5484765;14;-13;-37;-600;3804;-1094;65536;0.4972299;-0.4155124;0.4930748;0.5805076;-19;-6;24;-1014;3903;60;8192;0.6822311;-0.6800554;-0.2548476;-0.08448754;-13;-25;-47;1158;3984;-10;32768;0.802177;-0.5096953;-0.09418282;-0.2963989;20;-2;9;1105;3986;-1386;256;0.2105263;-0.02770083;-0.967131;-0.1398892;-8;-17;4;-254;730;4022;128;-0.2243767;0.0235457;0.9685145;0.1052632;7;-18;1;-112;350;-4118;4;-0.3531856;0.2686981;-0.5595568;-0.6999696;2;1;-40;818;3770;-598;16;-0.07756232;-0.9416235;-0.1634349;0.2839335;2;7;12;-1125;-973;3916;2;0.6481447;-0.5443213;-0.3296399;-0.4182825;-6;-16;46;-312;3756;184;8;-0.1080332;-0.9452429;0.1454294;0.2714681;7;-17;-1;1271;-497;3445;0.4206489;1.573888;1.815468;0.4204549;1.556188;1.270208;0.420262;1.538607;0.7909913;0.4156105;1.753225;0.0892936;0.1556991;1.80655;-0.2337395;-0.1859456;1.818511;-0.08117802;-0.05572314;0.9327414;0.1571156;0;0;0;0.6759207;1.817824;-0.233743;0.9643536;1.843439;-0.08118349;1.147762;0.9113173;0.07939255;1.194575;0.08106816;-0.3747915;0.1088259;1.571135;1.861196;0.2143497;0.1502278;1.52841;0.3833417;0.4713211;2.824816;0.1088259;1.571135;1.861196;0.2143497;0.1502278;1.52841;0.3833417;0.4713211;2.824816
297851.5227;NotLabelled;16384;-0.3130194;0.5470914;-0.5535559;-0.5443213;10;-9;-37;-1374;3730;-868;65536;0.4916897;-0.4238227;0.4930748;0.5792174;-16;0;28;-532;4175;196;8192;0.6859788;-0.6786703;-0.2479224;-0.08587258;-9;-24;-50;1202;4154;66;32768;0.8042763;-0.5069252;-0.09556787;-0.2950138;21;-14;2;1095;3910;-1004;256;0.2091413;-0.03047091;-0.9677447;-0.1371191;-6;-24;5;-140;650;4066;128;-0.2243767;0.02631579;0.9687403;0.1024931;15;-14;0;16;518;-4060;4;-0.3504155;0.2742382;-0.5609418;-0.6981022;-2;4;-38;682;3724;-578;16;-0.07617728;-0.9416684;-0.166205;0.2825485;1;15;14;-1279;-945;3932;2;0.6460636;-0.5484765;-0.333795;-0.4127424;-5;-15;43;-414;3818;126;8;-0.1066482;-0.9451861;0.1468144;0.2714681;9;-5;-1;1347;-475;3559;0.4154894;1.582226;1.801865;0.4152413;1.559627;1.256786;0.4150012;1.537743;0.7777462;0.4140022;1.744855;0.07378177;0.1550631;1.798946;-0.2499039;-0.1863713;1.818129;-0.09760931;-0.05947649;0.933955;0.1482819;0;0;0;0.6753997;1.801715;-0.2498314;0.9641817;1.82425;-0.09744644;1.14372;0.8875308;0.03892738;1.195486;0.05977583;-0.4192544;0.1036708;1.579884;1.847646;0.2175795;0.1560082;1.530689;0.3794359;0.4775932;2.827884;0.1036708;1.579884;1.847646;0.2175795;0.1560082;1.530689;0.3794359;0.4775932;2.827884
297872.5643;NotLabelled;16384;-0.3074792;0.5498615;-0.5552739;-0.5429363;8;-14;-34;-1178;3736;-1082;65536;0.4875346;-0.4265928;0.4944598;0.5795154;-16;0;27;-738;3949;70;8192;0.6880911;-0.6786703;-0.2409972;-0.08864266;-11;-25;-51;1230;4172;150;32768;0.8059919;-0.5055401;-0.09695291;-0.2922437;18;-16;-3;741;3968;-724;256;0.2091413;-0.033241;-0.9678488;-0.1357341;-3;-22;7;178;682;3954;128;-0.2243767;0.02770083;0.9691323;0.09833795;8;-19;-3;56;372;-3974;4;-0.3476454;0.2783934;-0.5637119;-0.6956067;-3;4;-36;460;3746;-566;16;-0.0734072;-0.9422223;-0.1689751;0.2797784;1;27;14;-1249;-883;3908;2;0.6457844;-0.5512465;-0.3365651;-0.4072022;-4;-4;41;-354;3902;136;8;-0.1052632;-0.9453413;0.1468144;0.2714681;9;5;-1;1323;-551;3723;0.4045564;1.579539;1.7573;0.4042837;1.554668;1.21232;0.4040217;1.530786;0.733376;0.404353;1.734884;0.02853116;0.1457462;1.789386;-0.2953512;-0.1955236;1.811591;-0.1430982;-0.06579271;0.936129;0.1308834;0;0;0;0.6660894;1.788542;-0.2953542;0.9550443;1.809724;-0.143103;1.131413;0.8716224;-0.0122025;1.189087;0.04553497;-0.4726821;0.09273994;1.577388;1.803105;0.2122621;0.1502379;1.503412;0.3726634;0.4698182;2.801283;0.09273994;1.577388;1.803105;0.2122621;0.1502379;1.503412;0.3726634;0.4698182;2.801283
297893.5113;NotLabelled;16384;-0.301939;0.5526316;-0.5569142;-0.5415512;6;-19;-33;-1216;3796;-1078;65536;0.4847645;-0.4307479;0.4944598;0.5787652;-15;-2;30;-642;4101;150;8192;0.6938491;-0.6759003;-0.2299169;-0.09418282;-11;-16;-48;1252;3444;110;32768;0.8066247;-0.5055401;-0.1038781;-0.2880886;12;-15;-14;609;3624;-880;256;0.2091413;-0.03601108;-0.9681341;-0.132964;-5;-16;6;-232;754;4178;128;-0.2229917;0.02908587;0.9696884;0.09556787;15;-16;-2;-130;444;-4000;4;-0.3448753;0.2825485;-0.5650969;-0.694185;0;0;-35;376;3854;-486;16;-0.07202215;-0.9417295;-0.1745152;0.2783934;1;36;14;-1107;-763;3864;2;0.6422338;-0.5540166;-0.3421052;-0.4044321;-1;-1;39;-276;3970;212;8;-0.1038781;-0.9454945;0.1468144;0.2714681;8;8;-2;1435;-641;3871;0.3989078;1.582306;1.737465;0.3985899;1.553345;1.192687;0.3982884;1.525868;0.7139356;0.3998253;1.72887;0.008775771;0.1415433;1.784408;-0.3151903;-0.1995867;1.808877;-0.1629706;-0.06833329;0.9371496;0.1219727;0;0;0;0.6618724;1.780469;-0.3151933;0.9509498;1.800168;-0.1629753;1.119194;0.8591522;-0.04273397;1.183453;0.03326666;-0.5027044;0.08709508;1.580499;1.78331;0.2077514;0.1498024;1.501516;0.3595424;0.4633166;2.801899;0.08709508;1.580499;1.78331;0.2077514;0.1498024;1.501516;0.3595424;0.4633166;2.801899
297913.5133;NotLabelled;16384;-0.2977839;0.5540166;-0.5591161;-0.5401662;8;-11;-35;-1356;3612;-1090;65536;0.4819945;-0.433518;0.4958449;0.5778247;-11;-3;29;-524;4173;252;8192;0.6957253;-0.6759003;-0.2229917;-0.09695291;-5;-23;-52;954;3566;-184;32768;0.8082213;-0.5055401;-0.1066482;-0.2825485;14;-32;-26;171;3868;-776;256;0.2091413;-0.03739612;-0.9682708;-0.1315789;-3;-19;6;-400;840;3826;128;-0.2229917;0.03185596;0.9698703;0.09279778;11;-16;-2;252;462;-4098;4;-0.3379501;0.2894737;-0.5692521;-0.6913369;3;-5;-35;340;4076;-390;16;-0.06648199;-0.9416429;-0.1814404;0.2756233;4;19;11;-881;-789;3704;2;0.6400856;-0.5581717;-0.3490305;-0.3961219;-1;-2;35;-246;4008;306;8;-0.1024931;-0.9454611;0.1454294;0.2728532;1;2;-2;1455;-569;4017;0.3922719;1.58407;1.718578;0.3919252;1.552489;1.173946;0.3915983;1.52271;0.6953317;0.3944198;1.722682;-0.01068884;0.136487;1.778524;-0.3348809;-0.2044664;1.805874;-0.1827558;-0.07158566;0.9380246;0.1130629;0;0;0;0.6567791;1.771182;-0.3348842;0.9459885;1.789639;-0.182762;1.104153;0.8441859;-0.08592516;1.181035;0.01467764;-0.5373596;0.08046162;1.582484;1.764448;0.2061241;0.1493819;1.497451;0.3518887;0.4628092;2.798545;0.08046162;1.582484;1.764448;0.2061241;0.1493819;1.497451;0.3518887;0.4628092;2.798545
297934.6826;NotLabelled;16384;-0.2922437;0.5581717;-0.5605741;-0.5373961;9;-9;-37;-1446;3508;-1030;65536;0.4778393;-0.4376731;0.4972299;0.5769525;-8;-3;26;-316;4095;270;8192;0.6979441;-0.6759003;-0.2146814;-0.09972299;5;-23;-54;994;3882;-222;32768;0.8089947;-0.5069252;-0.1121884;-0.2756233;12;-29;-36;-1;3958;-450;256;0.2077562;-0.04432133;-0.968464;-0.1301939;0;-21;8;162;818;3968;128;-0.2216066;0.03462604;0.9708519;0.08448754;23;-15;-4;94;616;-3936;4;-0.333795;0.2936288;-0.5720221;-0.6893139;0;-2;-34;410;4180;-396;16;-0.06509695;-0.9416062;-0.1842105;0.2742382;5;17;11;-981;-1047;3640;2;0.637086;-0.5609418;-0.3531856;-0.3933518;-1;-4;35;-160;4032;254;8;-0.1024931;-0.9454611;0.1454294;0.2728532;1;-4;-1;1449;-475;3889;0.3944672;1.589026;1.69456;0.3940958;1.555179;1.150064;0.3937471;1.523408;0.6715785;0.3968988;1.718922;-0.03568861;0.139001;1.773566;-0.360112;-0.2017911;1.80299;-0.2080131;-0.07189459;0.9393576;0.1011722;0;0;0;0.6592664;1.764521;-0.3602977;0.9486045;1.782989;-0.2084212;1.09526;0.835224;-0.1161718;1.180641;0.001943231;-0.5590502;0.08265907;1.587631;1.740451;0.215076;0.1487397;1.510412;0.3531199;0.4573675;2.813493;0.08265907;1.587631;1.740451;0.215076;0.1487397;1.510412;0.3531199;0.4573675;2.813493
297976.5256;NotLabelled;16384;-0.2770083;0.5650969;-0.5679194;-0.5304709;-1;-8;-42;-1166;3884;-832;65536;0.4709141;-0.4459834;0.501385;0.5726708;-7;0;25;-524;4021;174;8192;0.6962022;-0.6800554;-0.2036011;-0.1066482;18;-7;-47;1414;3534;-172;32768;0.8053966;-0.5152354;-0.1260388;-0.2645429;-1;12;-53;-607;3772;44;256;0.2063712;-0.04709141;-0.9691788;-0.1260388;-9;-18;12;-60;996;3886;128;-0.2202216;0.033241;0.9719025;0.07617728;20;6;-10;110;550;-4548;4;-0.3282548;0.300554;-0.5761772;-0.6855187;-6;-3;-33;278;4000;-582;16;-0.06094183;-0.9415869;-0.1897507;0.2714681;10;30;15;-1381;-1133;3744;2;0.6337667;-0.5650969;-0.3601108;-0.3864266;0;-2;35;-156;3914;394;8;-0.1038781;-0.9448796;0.1481994;0.2728532;0;-12;0;1523;-521;3827;0.3843976;1.593925;1.690403;0.3839365;1.551893;1.146477;0.3835089;1.51293;0.6685235;0.3895955;1.711491;-0.03787526;0.1325675;1.771264;-0.3620844;-0.2077936;1.804912;-0.209896;-0.07379716;0.9399713;0.0938345;0;0;0;0.652649;1.754742;-0.3622499;0.9421955;1.768381;-0.2102606;1.082372;0.8170351;-0.1505467;1.178637;-0.01875317;-0.5864133;0.07259691;1.593221;1.73636;0.207988;0.1525432;1.51962;0.3428733;0.4535955;2.824802;0.07259691;1.593221;1.73636;0.207988;0.1525432;1.51962;0.3428733;0.4535955;2.824802
297997.5254;NotLabelled;16384;0.2742382;-0.5703614;0.567867;0.5263157;-1;0;-41;-1254;3830;-1124;65536;0.468144;-0.4487534;0.501385;0.5727779;-7;2;29;-454;4195;192;8192;0.6942154;-0.6828254;-0.1980609;-0.1121884;29;-3;-49;1360;3710;-72;32768;0.8018147;-0.5193906;-0.1371191;-0.2617728;-10;21;-62;-571;3944;334;256;0.2049861;-0.04986149;-0.9696903;-0.1232687;-11;-16;14;-18;960;3956;128;-0.2174515;0.03047091;0.9728298;0.0734072;22;3;-11;48;500;-4042;4;-0.3240997;0.3033241;-0.5789474;-0.6839399;-7;-14;-33;92;4088;-582;16;-0.05817174;-0.9410275;-0.1952908;0.2700831;11;42;15;-1395;-1009;3734;2;0.6326745;-0.566482;-0.3642659;-0.3822715;1;-1;34;-242;3846;462;8;-0.1038781;-0.9444409;0.1509695;0.2728532;1;-11;1;1461;-493;3797;0.3852679;1.598263;1.623052;0.3847055;1.547027;1.079917;0.3841892;1.499978;0.6026909;0.3917927;1.693514;-0.1050863;0.1352327;1.752933;-0.4297305;-0.2048715;1.790207;-0.2778134;-0.07219578;0.9421172;0.07071127;0;0;0;0.6551756;1.732505;-0.4297341;0.944811;1.745037;-0.2778184;1.061097;0.790833;-0.2126537;1.171818;-0.05876732;-0.6172627;0.07347578;1.598336;1.669073;0.2122509;0.1537843;1.482336;0.3419001;0.4469745;2.789837;0.07347578;1.598336;1.669073;0.2122509;0.1537843;1.482336;0.3419001;0.4469745;2.789837
298018.5258;NotLabelled;16384;0.2700831;-0.5747656;0.5692521;0.5221606;0;0;-42;-1676;3426;-1384;65536;0.4653739;-0.4515235;0.5027701;0.5716431;-5;-1;30;-396;4139;302;8192;0.6869806;-0.6910372;-0.1897507;-0.1204986;46;-16;-35;690;3972;-286;32768;0.7885583;-0.5401662;-0.1578947;-0.2479224;-73;-70;-104;-6739;1582;6258;256;0.2036011;-0.05263158;-0.9701838;-0.1204986;-12;-21;15;-18;856;3920;128;-0.2160665;0.03047091;0.9734429;0.06925207;20;-1;-12;236;482;-4106;4;-0.3185596;0.3047091;-0.5831025;-0.6823955;-10;-24;-35;4;4232;-500;16;-0.05263158;-0.9402872;-0.2022161;0.2686981;16;48;13;-1219;-733;3464;2;0.6290392;-0.5706371;-0.3698061;-0.3767313;5;1;33;-214;3942;414;8;-0.1038781;-0.9442185;0.1523546;0.2728532;3;-5;0;1329;-451;3651;0.380801;1.60044;1.605749;0.3801987;1.545544;1.062971;0.3796472;1.495276;0.586074;0.3884473;1.685702;-0.1225321;0.1322396;1.745494;-0.4473866;-0.2075688;1.785772;-0.2955736;-0.07534377;0.9423345;0.0642302;0;0;0;0.6520287;1.721473;-0.4473897;0.9417739;1.732657;-0.2955786;1.042321;0.7763966;-0.2344975;1.161734;-0.08085334;-0.6200509;0.06901246;1.600825;1.651791;0.2093238;0.1544174;1.481266;0.3374789;0.4438187;2.789758;0.06901246;1.600825;1.651791;0.2093238;0.1544174;1.481266;0.3374789;0.4438187;2.789758
298038.5334;NotLabelled;16384;0.2645429;-0.5784667;0.5706371;0.5193906;3;-9;-45;-2016;3370;-1124;65536;0.4639889;-0.4542936;0.5055401;0.5681204;0;-3;29;-214;4143;424;8192;0.6814404;-0.6983508;-0.1828255;-0.1204986;69;-43;-5;3474;4432;-1120;32768;0.7846538;-0.5470914;-0.1620499;-0.2423823;-33;-24;-45;-377;4932;-2208;256;0.2022161;-0.05540166;-0.9706592;-0.1177285;-8;-20;15;2;878;3886;128;-0.2132964;0.02908587;0.9742889;0.06648199;20;-2;-12;236;528;-4036;4;-0.3102493;0.3102493;-0.5900277;-0.6777596;-16;5;-33;208;3922;-1062;16;-0.04293629;-0.9396596;-0.2091413;0.267313;26;29;11;-1373;-961;3420;2;0.6265335;-0.5734072;-0.3725762;-0.3739612;9;-1;32;-156;3950;366;8;-0.1038781;-0.943994;0.1537396;0.2728532;4;-2;0;1417;-525;3753;0.3801146;1.603822;1.585648;0.3794634;1.544491;1.043337;0.378869;1.490328;0.5668662;0.3888204;1.677625;-0.1425582;0.1329566;1.73778;-0.4676163;-0.2065305;1.781059;-0.3159114;-0.07534567;0.9428438;0.05626463;0;0;0;0.6525677;1.710172;-0.4676197;0.9424182;1.720012;-0.3159162;1.012461;0.7612365;-0.2517399;1.138;-0.1201686;-0.5760133;0.06833005;1.604583;1.631713;0.2078052;0.1561214;1.478855;0.3353413;0.4356624;2.78955;0.06833005;1.604583;1.631713;0.2078052;0.1561214;1.478855;0.3353413;0.4356624;2.78955
298058.5629;NotLabelled;16384;0.2590028;-0.5819401;0.5734072;0.5152354;1;-16;-50;-1816;3368;-816;65536;0.4612188;-0.4570637;0.5069252;0.5669187;3;-2;26;-194;4141;350;8192;0.6745152;-0.7051617;-0.1814404;-0.1218837;56;28;-5;2830;5162;412;32768;0.7797218;-0.5526316;-0.1689751;-0.2409972;-25;19;-34;1703;4802;-3494;256;0.1980609;-0.05955679;-0.9717643;-0.1135734;-8;-3;20;574;452;3974;128;-0.2105263;0.02770083;0.975379;0.05955679;19;1;-10;-48;202;-4110;4;-0.3088643;0.3144044;-0.5914127;-0.6752657;-14;7;-33;158;3880;-1054;16;-0.03739612;-0.9393554;-0.2132964;0.265928;26;38;18;-1777;-1155;3682;2;0.6239809;-0.5761772;-0.3753462;-0.3711911;12;-8;33;-110;3878;350;8;-0.1024931;-0.9441454;0.1537396;0.2728532;3;2;-1;1395;-517;3959;0.3819544;1.605041;1.565547;0.381267;1.542397;1.023608;0.3806407;1.485323;0.5474777;0.3916979;1.669474;-0.1627535;0.1361702;1.729982;-0.4880109;-0.2029711;1.776256;-0.336416;-0.07009161;0.9437199;0.04771321;0;0;0;0.6555787;1.698793;-0.488014;0.9455296;1.707291;-0.3364217;0.998096;0.7479677;-0.2642469;1.122963;-0.1399875;-0.5704037;0.07017291;1.606083;1.611628;0.2090799;0.1541774;1.495293;0.3381055;0.4133315;2.810025;0.07017291;1.606083;1.611628;0.2090799;0.1541774;1.495293;0.3381055;0.4133315;2.810025
298080.5864;NotLabelled;16384;0.2479224;-0.5883689;0.5803324;0.5055401;-7;-3;-56;-1266;3676;-878;65536;0.4584487;-0.4612188;0.5110803;0.5620488;1;5;22;-414;4129;266;8192;0.6689751;-0.7078674;-0.1855956;-0.1301939;43;69;-5;2548;8052;1466;32768;0.7775118;-0.5526316;-0.1731302;-0.2451524;-13;47;-5;735;6854;-3612;256;0.1952908;-0.06094183;-0.9723998;-0.1121884;3;10;19;1156;480;4524;128;-0.2077562;0.02631579;0.9761763;0.0567867;17;9;-10;-220;140;-4022;4;-0.3060942;0.3171745;-0.5941828;-0.6727953;-18;-11;-33;-112;3882;-658;16;-0.03185596;-0.9386761;-0.2188366;0.2645429;24;30;23;-1665;-953;3936;2;0.6209298;-0.5803324;-0.3767313;-0.368421;14;-13;32;-128;3938;498;8;-0.1024931;-0.9443699;0.1523546;0.2728532;3;6;0;1379;-559;3911;0.3787956;1.613458;1.545243;0.3780234;1.543103;1.004252;0.3773228;1.479254;0.5289828;0.3900408;1.658539;-0.1824646;0.1350307;1.719649;-0.5080149;-0.2035174;1.770607;-0.3565964;-0.06986145;0.944093;0.04006416;0;0;0;0.6540701;1.682828;-0.5080186;0.9441676;1.689191;-0.356602;0.9832639;0.7302454;-0.2719273;1.106468;-0.1635185;-0.5614003;0.06702143;1.615157;1.591353;0.2065995;0.1623225;1.488162;0.3432878;0.4096239;2.804401;0.06702143;1.615157;1.591353;0.2065995;0.1623225;1.488162;0.3432878;0.4096239;2.804401
298101.544;NotLabelled;16384;0.2451524;-0.5928787;0.5817174;0.5;-11;15;-58;-1218;3558;-932;65536;0.4570637;-0.4639889;0.5110803;0.5608957;0;11;21;-292;4133;116;8192;0.66482;-0.7069399;-0.1966759;-0.1398892;10;89;10;-238;6818;1852;32768;0.772051;-0.5554016;-0.1786704;-0.2520775;-37;45;-17;1089;5002;-2132;256;0.1911357;-0.05540166;-0.9733955;-0.1135734;8;49;14;630;708;5066;128;-0.2063712;0.0235457;0.9767735;0.05263158;14;20;-9;-540;-22;-4242;4;-0.301939;0.3185596;-0.5983379;-0.6703315;-18;-15;-32;-436;3898;-490;16;-0.02770083;-0.9395841;-0.2188366;0.2617728;20;2;16;-1949;-803;3964;2;0.6186378;-0.5844875;-0.3781163;-0.3642659;15;-12;34;42;4066;484;8;-0.101108;-0.9443404;0.1509695;0.2742382;1;10;-1;1413;-553;4031;0.3903488;1.607577;1.504262;0.3895405;1.533925;0.9637102;0.388808;1.46718;0.4888387;0.4021095;1.64475;-0.2230282;0.1472856;1.706105;-0.5486785;-0.1910321;1.758754;-0.3973232;-0.06294996;0.945051;0.0267185;0;0;0;0.6661757;1.667234;-0.5486819;0.9563227;1.672805;-0.397329;0.9838502;0.7139928;-0.3067968;1.105424;-0.1807169;-0.5940274;0.07857758;1.609557;1.550382;0.2168401;0.1556115;1.462151;0.3581726;0.3919933;2.779905;0.07857758;1.609557;1.550382;0.2168401;0.1556115;1.462151;0.3581726;0.3919933;2.779905
298122.828;NotLabelled;16384;0.2451524;-0.5986505;0.5817174;0.4930748;-11;37;-46;-1652;4074;-1082;65536;0.4570637;-0.466759;0.5110803;0.5585926;0;18;26;-632;4257;236;8192;0.6634349;-0.7071231;-0.1966759;-0.1454294;12;-29;-7;56;3484;-1414;32768;0.7616092;-0.5650969;-0.1869806;-0.2562327;-39;4;-32;1023;3968;-404;256;0.1883656;-0.04847645;-0.9739777;-0.1163435;10;41;17;-912;1038;4802;128;-0.2049861;0.01800554;0.9772565;0.05124654;13;50;-7;-354;192;-4218;4;-0.2977839;0.3213296;-0.602493;-0.6671388;-14;-9;-30;-506;3798;-460;16;-0.02493075;-0.9400464;-0.2188366;0.2603878;15;-4;9;-1875;-467;3578;2;0.6135203;-0.5914127;-0.3822715;-0.3573407;17;-11;37;184;4134;236;8;-0.101108;-0.9445608;0.1495845;0.2742382;-4;1;0;1313;-461;4075;0.3885458;1.621378;1.495749;0.3876822;1.542678;0.9559088;0.386901;1.471499;0.4816819;0.3980253;1.649286;-0.230168;0.1424237;1.708057;-0.5556855;-0.1963431;1.757205;-0.4041575;-0.06382464;0.9451227;0.02162517;0;0;0;0.6616861;1.674525;-0.5559484;0.9518347;1.683062;-0.4047368;0.9787052;0.7238166;-0.3187047;1.091543;-0.1741455;-0.5992748;0.07677931;1.623788;1.54188;0.2112211;0.1686089;1.469515;0.3608357;0.3929248;2.788463;0.07677931;1.623788;1.54188;0.2112211;0.1686089;1.469515;0.3608357;0.3929248;2.788463
298143.5237;NotLabelled;16384;0.2437673;-0.6050635;0.5803324;0.4875346;-9;32;-40;-2604;4096;-1322;65536;0.4570637;-0.4709141;0.5124654;0.5538158;1;14;32;-260;4473;238;8192;0.6578947;-0.7122805;-0.1966759;-0.1454294;32;17;-5;1220;3154;-1828;32768;0.7564293;-0.5706371;-0.1911357;-0.2562327;-29;11;-34;913;4290;170;256;0.1855956;-0.04432133;-0.9743726;-0.1191136;14;23;17;-244;894;4434;128;-0.2036011;0.009695291;0.9776638;0.05124654;5;54;-10;500;296;-4576;4;-0.2922437;0.3240997;-0.6094183;-0.6619383;-15;-13;-31;192;3894;-574;16;-0.01939058;-0.9407501;-0.2146814;0.2617728;19;-15;0;-1931;-833;3934;2;0.6088797;-0.5969529;-0.3836565;-0.3545706;19;-14;35;194;4030;130;8;-0.1024931;-0.9446298;0.1481994;0.2742382;-6;1;3;1207;-465;4021;0.4015941;1.623687;1.471262;0.4007007;1.542265;0.9318264;0.3998935;1.468694;0.4579644;0.4089982;1.648397;-0.2534331;0.1528105;1.704434;-0.578972;-0.1867;1.748502;-0.4275461;-0.06266399;0.9452909;0.01719627;0;0;0;0.6724881;1.678105;-0.578975;0.9623957;1.690283;-0.4275508;0.9812829;0.7314454;-0.3350956;1.081641;-0.17496;-0.592285;0.08983016;1.62633;1.517398;0.2219121;0.1700886;1.464733;0.3782417;0.3866121;2.784205;0.08983016;1.62633;1.517398;0.2219121;0.1700886;1.464733;0.3782417;0.3866121;2.784205
298164.5198;NotLabelled;16384;0.2423823;-0.6087175;0.5817174;0.4819945;-8;5;-50;-3534;3128;-1122;65536;0.4556787;-0.4736842;0.5138504;0.5513058;9;-2;29;190;4763;392;8192;0.6509695;-0.7164133;-0.199446;-0.1523546;52;47;-21;528;3646;-902;32768;0.7505354;-0.5747922;-0.1980609;-0.2590028;-17;44;-37;821;4114;-300;256;0.1786704;-0.03739612;-0.9756141;-0.1218837;0;25;19;314;846;4048;128;-0.199446;-0.002770083;0.9784904;0.05263158;1;24;-11;382;124;-4332;4;-0.2880886;0.3254848;-0.6121883;-0.6605226;-15;-16;-33;82;4000;-528;16;-0.01800554;-0.9414055;-0.2119114;0.2617728;12;-17;-2;-2041;-991;4230;2;0.6071951;-0.601108;-0.3836565;-0.3504155;19;-14;33;210;4026;76;8;-0.1024931;-0.945247;0.1468144;0.2728532;-10;13;4;1199;-617;4103;0.4082495;1.623407;1.450946;0.4073357;1.540139;0.911792;0.4065106;1.464948;0.4381847;0.414207;1.647352;-0.2725415;0.1576055;1.702424;-0.5979188;-0.1822887;1.743061;-0.4463948;-0.05780946;0.9457167;0.008661222;0;0;0;0.677487;1.680487;-0.5979222;0.9672576;1.694556;-0.4464002;0.9782292;0.7367877;-0.3423115;1.072661;-0.174028;-0.5857964;0.0964874;1.626208;1.497084;0.2211284;0.1685621;1.472804;0.3935978;0.3689874;2.792808;0.0964874;1.626208;1.497084;0.2211284;0.1685621;1.472804;0.3935978;0.3689874;2.792808
298184.7286;NotLabelled;16384;0.2271468;-0.6146839;0.5927978;0.468144;-12;-38;-85;-3878;3212;-480;65536;0.4542936;-0.468144;0.5221606;0.5493694;22;-29;-12;-42;5059;-132;8192;0.6440443;-0.7201484;-0.200831;-0.1620499;47;52;-32;794;4526;438;32768;0.7457739;-0.5761772;-0.2063712;-0.2631579;-18;50;-39;1041;4028;-1012;256;0.1759003;-0.033241;-0.9762676;-0.1218837;-1;28;20;430;462;3730;128;-0.1966759;-0.005540166;0.9790392;0.05263158;-8;13;-10;240;86;-4398;4;-0.2839335;0.3268698;-0.6163435;-0.6577679;-16;-18;-32;-180;4160;-360;16;-0.0166205;-0.9419708;-0.2077562;0.2631579;10;-26;-4;-1587;-739;3982;2;0.601108;-0.6079102;-0.3850415;-0.3476454;17;-10;30;324;3974;34;8;-0.1038781;-0.9457319;0.1426593;0.2728532;-14;21;6;1359;-639;4099;0.4126539;1.62645;1.435707;0.4117268;1.541978;0.8967405;0.4108899;1.465728;0.4233024;0.4163132;1.650048;-0.2869503;0.1590549;1.702685;-0.6122127;-0.1813416;1.738593;-0.4606206;-0.0556767;0.9458817;0.002138492;0;0;0;0.6791736;1.687378;-0.612216;0.9687302;1.704749;-0.4606267;0.9672484;0.7479221;-0.3476921;1.055276;-0.1668314;-0.5784844;0.1008929;1.629354;1.481847;0.2266346;0.1716512;1.469604;0.4211402;0.3666478;2.787357;0.1008929;1.629354;1.481847;0.2266346;0.1716512;1.469604;0.4211402;0.3666478;2.787357
298205.7708;NotLabelled;16384;0.2188366;-0.6158999;0.601108;0.4598338;-24;-37;-85;-2974;4418;-802;65536;0.4542936;-0.4626039;0.5235457;0.552734;22;-31;-26;-106;5385;-290;8192;0.6398892;-0.7212171;-0.2022161;-0.1717452;23;42;-21;312;4888;498;32768;0.7413608;-0.5775623;-0.2146814;-0.265928;-27;33;-38;287;3910;-1572;256;0.1731302;-0.02908587;-0.9768952;-0.1218837;3;28;16;414;498;4062;128;-0.1952908;-0.006925208;0.9792322;0.05401662;-3;23;-9;-142;128;-4374;4;-0.2797784;0.3282548;-0.6204986;-0.654946;-16;-13;-28;-486;4130;-300;16;-0.0166205;-0.9427881;-0.2022161;0.2645429;8;-37;-5;-1345;-433;3722;2;0.5983379;-0.6113323;-0.3864266;-0.3448753;18;-7;29;448;3926;20;8;-0.1066482;-0.9460412;0.1385041;0.2728532;-19;21;4;1479;-643;4105;0.4383284;1.61404;1.40016;0.4373956;1.529024;0.8612787;0.4365538;1.452299;0.3879176;0.4405903;1.635511;-0.3226309;0.1829388;1.685721;-0.6479656;-0.1577084;1.719357;-0.4964161;-0.04094064;0.9466357;0.001175068;0;0;0;0.7031565;1.67426;-0.6479685;0.9925818;1.694014;-0.4964207;0.9732949;0.7380085;-0.3782865;1.060912;-0.1792185;-0.5992056;0.1265679;1.616991;1.4463;0.2498182;0.1590317;1.451094;0.4583553;0.3483889;2.767522;0.1265679;1.616991;1.4463;0.2498182;0.1590317;1.451094;0.4583553;0.3483889;2.767522
298225.5228;NotLabelled;16384;0.2105263;-0.6177891;0.6094183;0.4501385;-23;-46;-86;-2884;4472;-872;65536;0.4542936;-0.4542936;0.5263157;0.5569797;19;-69;-37;-134;5439;-526;8192;0.6357341;-0.7224263;-0.2049861;-0.1786704;23;13;-6;1050;3438;-922;32768;0.7315786;-0.5844875;-0.2257618;-0.2686981;-28;18;-23;393;4020;-430;256;0.1703601;-0.02770083;-0.9774224;-0.1218837;1;16;16;158;724;4362;128;-0.1939058;-0.01108033;0.9794692;0.05401662;5;29;-7;-108;204;-4102;4;-0.2770083;0.3296399;-0.6232687;-0.6527941;-16;-2;-25;-532;4046;-56;16;-0.01800554;-0.9442216;-0.1952908;0.2645429;10;-44;-6;-1389;-467;3540;2;0.5914127;-0.6194698;-0.3878116;-0.3407202;21;-14;29;386;3932;84;8;-0.1135734;-0.9456294;0.132964;0.2742382;-31;4;0;1271;-597;4221;0.4481138;1.606556;1.391032;0.447194;1.522743;0.8519619;0.4463637;1.447074;0.3784308;0.449027;1.629207;-0.3324015;0.191003;1.677004;-0.6578042;-0.1498801;1.708352;-0.5062953;-0.03959534;0.9466465;0.009428933;0;0;0;0.7112916;1.669394;-0.6578079;1.000566;1.691525;-0.5063012;0.9677596;0.7357831;-0.3890164;1.056406;-0.1838422;-0.5993005;0.1363522;1.609404;1.43717;0.2573189;0.1514113;1.459145;0.4793902;0.3376338;2.773806;0.1363522;1.609404;1.43717;0.2573189;0.1514113;1.459145;0.4793902;0.3376338;2.773806
298246.2336;NotLabelled;16384;-0.200831;0.6163435;-0.6201414;-0.4418283;-4;-46;-77;-2300;3952;-896;65536;0.4515235;-0.4418283;0.5318559;0.5639535;32;-105;-41;-214;5053;-1394;8192;0.6301939;-0.7261859;-0.2063712;-0.1814404;28;20;-7;1064;3656;-1172;32768;0.7279813;-0.5872576;-0.2285319;-0.2700831;-21;12;-15;545;3946;-488;256;0.16759;-0.02631579;-0.9779394;-0.1218837;4;5;18;28;672;3856;128;-0.1939058;-0.01523546;0.9794134;0.05401662;3;26;-6;124;92;-4020;4;-0.2756233;0.333795;-0.6301939;-0.6445684;-20;-3;-20;-382;3998;206;16;-0.0166205;-0.9462277;-0.1814404;0.267313;20;-40;-6;-1345;-519;3762;2;0.5886427;-0.6227483;-0.3891967;-0.3379501;20;-15;26;402;3938;-18;8;-0.1177285;-0.9451039;0.1301939;0.2756233;-36;2;-1;1165;-639;4177;0.4606813;1.597153;1.382334;0.4597525;1.512509;0.8433943;0.458914;1.436108;0.3699807;0.4612087;1.617872;-0.3409477;0.2030877;1.664979;-0.666374;-0.1378569;1.695724;-0.5148789;-0.03558201;0.9466296;0.02058855;0;0;0;0.7233903;1.658411;-0.6663772;1.012621;1.681201;-0.5148836;0.9708111;0.7261277;-0.3950418;1.054418;-0.1991588;-0.5811683;0.1489205;1.600073;1.428474;0.2688465;0.1422337;1.462862;0.4993315;0.3271092;2.776265;0.1489205;1.600073;1.428474;0.2688465;0.1422337;1.462862;0.4993315;0.3271092;2.776265
298266.6995;NotLabelled;16384;-0.1925208;0.6163435;-0.6247274;-0.4390582;0;-44;-47;-1502;3296;-604;65536;0.4515235;-0.4279778;0.5387812;0.568046;43;-55;-31;-2286;3421;-372;8192;0.6260388;-0.7279352;-0.2091413;-0.1855956;26;31;-7;786;4090;-778;32768;0.7243423;-0.5900277;-0.2313019;-0.2714681;-16;14;-10;321;4134;-572;256;0.166205;-0.02631579;-0.9781758;-0.1218837;10;1;18;130;634;4022;128;-0.1925208;-0.01800554;0.9796396;0.05401662;4;17;-6;352;60;-4164;4;-0.2742382;0.333795;-0.634349;-0.6410738;-17;-14;-19;-452;3906;106;16;-0.01523546;-0.9469046;-0.1759003;0.2686981;22;-37;-6;-1353;-643;3940;2;0.5858725;-0.6268442;-0.3891967;-0.33518;15;-12;23;560;3948;-238;8;-0.1232687;-0.9443699;0.1274238;0.2770083;-42;10;-1;1055;-711;4195;0.4708807;1.588882;1.378713;0.4699425;1.503382;0.8399082;0.4690959;1.426229;0.3666167;0.4710223;1.607632;-0.3444049;0.2128056;1.654055;-0.6698534;-0.128199;1.684195;-0.5183722;-0.03006063;0.9464556;0.03338774;0;0;0;0.7331203;1.648529;-0.6698564;1.022305;1.671978;-0.5183771;0.9727216;0.71832;-0.3904994;1.051738;-0.2088133;-0.5692972;0.1591207;1.591875;1.424853;0.2650875;0.1339613;1.489019;0.5139141;0.3068932;2.8007;0.1591207;1.591875;1.424853;0.2650875;0.1339613;1.489019;0.5139141;0.3068932;2.8007
298288.4204;NotLabelled;16384;-0.1842105;0.6135734;-0.6347088;-0.432133;-14;-29;-18;-1282;3098;-96;65536;0.4626039;-0.4030471;0.5443213;0.5720708;62;-52;-74;-4076;2865;-1994;8192;0.6218836;-0.7296225;-0.2119114;-0.1897507;25;27;-1;530;4134;-618;32768;0.7224064;-0.5900277;-0.234072;-0.2742382;-13;16;-6;311;4086;-642;256;0.1606648;-0.02770083;-0.9788893;-0.1232687;11;5;13;352;546;4068;128;-0.1911357;-0.0235457;0.9799421;0.05124654;5;16;-4;-10;-4;-4258;4;-0.2714681;0.333795;-0.6395038;-0.6371191;-13;-18;-20;-546;3902;6;16;-0.01385042;-0.9477925;-0.1689751;0.2700831;19;-43;-5;-1317;-669;4448;2;0.5831025;-0.6308891;-0.3891967;-0.33241;11;-10;20;732;3926;-258;8;-0.1288089;-0.9435447;0.1218837;0.2797784;-48;13;-1;1071;-821;4193;0.4851542;1.579586;1.379676;0.4842101;1.493558;0.8409548;0.4833585;1.415942;0.3677389;0.4853481;1.597334;-0.343285;0.2271479;1.643842;-0.6687344;-0.113846;1.674104;-0.5172538;-0.01645587;0.9461851;0.04752858;0;0;0;0.7474604;1.638135;-0.6687374;1.036654;1.661484;-0.5172585;0.9798009;0.7091229;-0.3829071;1.05477;-0.2197869;-0.554063;0.1733948;1.582623;1.425816;0.2704847;0.1247123;1.502802;0.5282355;0.2908111;2.813642;0.1733948;1.582623;1.425816;0.2704847;0.1247123;1.502802;0.5282355;0.2908111;2.813642
298309.6609;NotLabelled;16384;-0.1828255;0.6094183;-0.6400316;-0.4307479;-26;-50;15;-776;3318;372;65536;0.4709141;-0.3864266;0.5457063;0.5754294;73;-44;-103;-4772;2099;-2542;8192;0.6191136;-0.730848;-0.2132964;-0.1925208;23;21;1;162;4274;-482;32768;0.7198393;-0.5914127;-0.2368421;-0.2756233;-13;16;-4;473;4012;-708;256;0.1592798;-0.02908587;-0.9790755;-0.1232687;10;0;11;362;770;3924;128;-0.1897507;-0.02493075;0.9802484;0.04986149;1;13;-6;152;-28;-4294;4;-0.2686981;0.333795;-0.642047;-0.6357341;-11;-14;-20;-564;3916;-174;16;-0.01385042;-0.9486058;-0.1620499;0.2714681;13;-41;-5;-1237;-575;4146;2;0.5803324;-0.634163;-0.3891967;-0.3310249;10;-14;19;746;3898;-270;8;-0.1357341;-0.9425154;0.1191136;0.2811634;-51;5;-4;1221;-851;3879;0.5166932;1.568957;1.403321;0.515705;1.478915;0.8652567;0.5148146;1.397774;0.3926328;0.5174996;1.581395;-0.3178165;0.2594858;1.629871;-0.6431267;-0.08140221;1.660902;-0.4915628;0.01290628;0.9434357;0.08694977;0;0;0;0.7797741;1.622262;-0.6431299;1.069044;1.644078;-0.4915682;1.00682;0.6928666;-0.3515664;1.07901;-0.2365327;-0.5212554;0.2049376;1.572339;1.449463;0.294009;0.1148633;1.54269;0.5712957;0.2730849;2.850514;0.2049376;1.572339;1.449463;0.294009;0.1148633;1.54269;0.5712957;0.2730849;2.850514
298330.5161;NotLabelled;16384;-0.1897507;0.5983379;-0.6474932;-0.432133;-54;-64;53;-116;3836;1098;65536;0.4833795;-0.3698061;0.5443213;0.5773232;74;-8;-119;-4184;1275;-1930;8192;0.6135734;-0.733595;-0.2160665;-0.1966759;14;9;2;280;4050;-720;32768;0.716171;-0.5927978;-0.2396122;-0.2797784;-14;7;-4;423;3984;-568;256;0.1578947;-0.03047091;-0.9790823;-0.1246537;10;0;8;402;494;3930;128;-0.1883656;-0.02631579;0.9805488;0.04847645;5;10;-5;116;130;-4048;4;-0.265928;0.33518;-0.6452079;-0.632964;-11;-6;-18;-478;3968;-132;16;-0.01523546;-0.9497417;-0.1551246;0.2714681;6;-31;-6;-1109;-397;4090;2;0.5775623;-0.6395369;-0.3891967;-0.3254848;12;-17;15;910;4032;-390;8;-0.1509695;-0.9391174;0.1177285;0.2853186;-49;-16;-8;1341;-695;3477;0.5375445;1.566066;1.430443;0.5365378;1.474328;0.892665;0.5356311;1.391698;0.4202991;0.5388843;1.57562;-0.2900699;0.2810226;1.62503;-0.6153608;-0.05977005;1.657037;-0.4637855;0.03013523;0.9399275;0.1158686;0;0;0;0.8012851;1.615826;-0.6153636;1.09062;1.636688;-0.4637908;1.023627;0.6862866;-0.3205323;1.093975;-0.2441927;-0.4849973;0.2257903;1.569593;1.476585;0.313779;0.1126841;1.579219;0.5990361;0.2665042;2.885854;0.2257903;1.569593;1.476585;0.313779;0.1126841;1.579219;0.5990361;0.2665042;2.885854
298350.5263;NotLabelled;16384;-0.2036011;0.5831025;-0.6552842;-0.434903;-64;-37;85;54;3978;1246;65536;0.5041551;-0.3504155;0.5387812;0.5768461;66;30;-119;-3536;1507;-1290;8192;0.6121883;-0.7339701;-0.2174515;-0.1980609;15;15;0;422;4026;-804;32768;0.7129965;-0.5941828;-0.2423823;-0.2825485;-13;13;-4;501;4064;-524;256;0.1578947;-0.03047091;-0.978905;-0.1260388;19;0;5;400;532;3918;128;-0.1883656;-0.02770083;0.9805107;0.04847645;-2;4;-6;104;74;-4020;4;-0.2645429;0.3365651;-0.6464124;-0.6315789;-11;0;-14;-356;3972;98;16;-0.01523546;-0.9497932;-0.1523546;0.2728532;0;-21;-7;-1039;-465;4006;2;0.5747922;-0.6434245;-0.3891967;-0.3227147;10;-13;12;926;4072;-346;8;-0.1592798;-0.9371462;0.1191136;0.2867036;-46;-17;-9;1355;-759;3437;0.5692216;1.570776;1.47591;0.5681965;1.477347;0.9384236;0.5672734;1.393232;0.46632;0.571054;1.579408;-0.2434592;0.3133436;1.630528;-0.5686053;-0.0273736;1.662944;-0.4169481;0.04891348;0.9342759;0.1501068;0;0;0;0.8335804;1.619963;-0.5686083;1.122959;1.639585;-0.4169531;1.047502;0.6910245;-0.265909;1.112569;-0.2405558;-0.4262602;0.2574691;1.574448;1.522052;0.3435416;0.1185174;1.639165;0.6324421;0.27086;2.945172;0.2574691;1.574448;1.522052;0.3435416;0.1185174;1.639165;0.6324421;0.27086;2.945172
298392.5321;NotLabelled;16384;-0.2728532;0.5637119;-0.6442112;-0.4390582;-75;117;114;-1386;3478;-184;65536;0.5653447;-0.3254848;0.5096953;0.5609418;32;112;-98;-1960;3493;-248;8192;0.6066482;-0.7358404;-0.2202216;-0.2049861;12;25;-7;264;4034;-706;32768;0.7093036;-0.5955678;-0.2465374;-0.2853186;-9;16;-11;457;4046;-446;256;0.1537396;-0.033241;-0.9781796;-0.1357341;23;6;6;436;1202;3788;128;-0.1855956;-0.02770083;0.9810387;0.04847645;-8;3;-7;-4;428;-4062;4;-0.2631579;0.3393352;-0.6522326;-0.6246537;-5;-2;-12;-444;3910;76;16;-0.0166205;-0.9504756;-0.1426593;0.2756233;8;-21;-1;-967;-485;3968;2;0.5720221;-0.6472651;-0.3891967;-0.3199446;6;-3;8;784;4030;-238;8;-0.1703601;-0.9339114;0.1191136;0.2908587;-38;0;-12;1185;-945;3503;0.6157;1.577848;1.545835;0.6146718;1.484145;1.008397;0.613746;1.399786;0.5363362;0.6174819;1.58792;-0.1729268;0.3597662;1.639821;-0.4979452;0.01902612;1.671667;-0.3462181;0.07264788;0.9237653;0.1979306;0;0;0;0.8800076;1.629489;-0.4979484;1.169369;1.648822;-0.3462237;1.092207;0.7006813;-0.1934174;1.154017;-0.2319449;-0.3489041;0.3039478;1.581544;1.591977;0.3904473;0.1262884;1.716906;0.6834592;0.2771767;3.022167;0.3039478;1.581544;1.591977;0.3904473;0.1262884;1.716906;0.6834592;0.2771767;3.022167
298412.5483;NotLabelled;16384;-0.299169;0.566482;-0.6318613;-0.4362881;-78;123;114;-2174;3712;-764;65536;0.584312;-0.3254848;0.4972299;0.5526316;30;124;-90;-1272;4045;-144;8192;0.6052631;-0.7353958;-0.2216066;-0.2091413;13;22;-3;134;4058;-550;32768;0.7072126;-0.5955678;-0.2493075;-0.2880886;-8;16;-11;423;3976;-508;256;0.1523546;-0.033241;-0.978008;-0.1385041;22;6;3;390;1122;3690;128;-0.1842105;-0.02770083;0.9812303;0.04986149;-7;-2;-6;140;452;-4202;4;-0.2631579;0.3407202;-0.6515101;-0.6246537;-3;0;-14;-424;3854;30;16;-0.0166205;-0.95109;-0.1385041;0.2756233;8;-15;0;-969;-499;4024;2;0.5706371;-0.6484865;-0.3891967;-0.3199446;6;-2;9;580;4046;-254;8;-0.1759003;-0.9323655;0.1163435;0.2936288;-37;6;-11;1233;-955;3573;0.7133361;1.585754;1.739107;0.712309;1.492161;1.201649;0.7113846;1.407899;0.7295713;0.7160999;1.610256;0.02424034;0.4587169;1.669576;-0.2997705;0.118017;1.699536;-0.1475696;0.1113156;0.8905392;0.3038828;0;0;0;0.9789196;1.657453;-0.2997739;1.268274;1.672732;-0.1475749;1.180692;0.7262843;0.01003516;1.239213;-0.2075639;-0.139267;0.4015836;1.589441;1.785249;0.4770086;0.1358771;1.934655;0.7880177;0.2842791;3.23603;0.4015836;1.589441;1.785249;0.4770086;0.1358771;1.934655;0.7880177;0.2842791;3.23603
298434.6951;NotLabelled;16384;-0.3240997;0.5650969;-0.6226451;-0.433518;-78;78;114;-2814;3930;-1008;65536;0.6028098;-0.3268698;0.4847645;0.5429363;29;123;-73;-272;4551;10;8192;0.602493;-0.7356136;-0.2257618;-0.2119114;3;13;3;428;4180;-642;32768;0.7034948;-0.5969529;-0.2548476;-0.2894737;-10;9;-8;413;3998;-546;256;0.1509695;-0.033241;-0.9776255;-0.1426593;20;12;4;446;1180;3784;128;-0.1828255;-0.02493075;0.9814923;0.05124654;-5;-12;-7;52;380;-4188;4;-0.2617728;0.3421052;-0.6526677;-0.6232687;0;3;-14;-394;3868;106;16;-0.0166205;-0.9512907;-0.1371191;0.2756233;4;-3;0;-957;-521;4050;2;0.5706371;-0.649168;-0.3891967;-0.3185596;3;-1;9;526;4018;-312;8;-0.1800554;-0.9310365;0.1135734;0.2963989;-35;7;-8;1375;-1003;3473;0.7316095;1.584721;1.793331;0.730599;1.49265;1.25561;0.7296891;1.409727;0.7832958;0.7343957;1.615957;0.07908762;0.4770249;1.676933;-0.2446255;0.1362914;1.705893;-0.09230572;0.1140092;0.8811597;0.3291765;0;0;0;0.9972333;1.66506;-0.2446287;1.286561;1.679641;-0.09231114;1.194955;0.7333592;0.06400287;1.251898;-0.2009357;-0.0831005;0.4198555;1.588277;1.839473;0.4986244;0.134967;1.989624;0.8137756;0.2803131;3.290348;0.4198555;1.588277;1.839473;0.4986244;0.134967;1.989624;0.8137756;0.2803131;3.290348
298455.5388;NotLabelled;16384;-0.3448753;0.5595568;-0.6164571;-0.433518;-61;42;108;-3026;3750;-766;65536;0.6171662;-0.3282548;0.4764543;0.533241;30;104;-52;370;4835;450;8192;0.601108;-0.7359199;-0.2271468;-0.2132964;6;13;1;466;4022;-802;32768;0.7007325;-0.5983379;-0.2576177;-0.2908587;-8;7;-8;433;4100;-386;256;0.1495845;-0.03185596;-0.9774763;-0.1454294;15;13;6;486;1170;3960;128;-0.1814404;-0.02216066;0.9818157;0.05124654;-1;-8;-4;-188;432;-4156;4;-0.2617728;0.3434903;-0.6532611;-0.6218836;3;5;-14;-448;3840;228;16;-0.01523546;-0.9513139;-0.1371191;0.2756233;3;0;2;-1001;-457;3986;2;0.567867;-0.650607;-0.3919668;-0.3171745;-4;4;8;698;4190;-454;8;-0.1883656;-0.9286711;0.1121884;0.299169;-28;-1;-2;1809;-1013;3361;0.7512074;1.579892;1.845661;0.7502197;1.489881;1.307592;0.7493294;1.408765;0.8349634;0.7539789;1.620812;0.1324847;0.4966123;1.68423;-0.1907622;0.1558256;1.711625;-0.03827289;0.1157238;0.8721913;0.3516909;0;0;0;1.016831;1.672824;-0.1907652;1.306118;1.686405;-0.03827757;1.213266;0.7409316;0.1221405;1.270396;-0.1947061;-0.01608509;0.4394517;1.583272;1.891804;0.5191943;0.1308109;2.049469;0.8380356;0.275138;3.349406;0.4394517;1.583272;1.891804;0.5191943;0.1308109;2.049469;0.8380356;0.275138;3.349406
298476.5215;NotLabelled;16384;-0.3614958;0.5526316;-0.6112052;-0.4362881;-37;32;103;-2908;3722;-660;65536;0.6294752;-0.3282548;0.4695291;0.5249307;28;70;-26;956;5215;1048;8192;0.599723;-0.735787;-0.2299169;-0.2146814;8;23;2;498;3874;-772;32768;0.6996448;-0.5983379;-0.2590028;-0.2922437;-5;10;-8;403;4104;-378;256;0.1481994;-0.03047091;-0.9775244;-0.1468144;13;11;8;266;1210;3954;128;-0.1814404;-0.02216066;0.9818157;0.05124654;-6;1;-6;-154;532;-4276;4;-0.2603878;0.3476454;-0.654247;-0.6191136;3;10;-14;-436;3884;356;16;-0.01385042;-0.9511344;-0.1385041;0.2756233;3;10;3;-959;-447;4012;2;0.567867;-0.650607;-0.3919668;-0.3171745;-6;5;9;698;4136;-594;8;-0.1925208;-0.9278187;0.1121884;0.299169;-25;-4;2;1847;-1117;3447;0.7711674;1.582716;1.891023;0.7701862;1.493286;1.352857;0.7693017;1.412681;0.880141;0.7733495;1.6283;0.1787462;0.515815;1.692543;-0.1442036;0.174929;1.718091;0.008384727;0.120479;0.8654017;0.3665539;0;0;0;1.036067;1.682777;-0.1442071;1.325296;1.696496;0.008379877;1.231266;0.7514684;0.1707271;1.286217;-0.1850789;0.03788251;0.4594113;1.586045;1.937165;0.5387734;0.1340892;2.099596;0.8621622;0.2748694;3.398799;0.4594113;1.586045;1.937165;0.5387734;0.1340892;2.099596;0.8621622;0.2748694;3.398799
298497.5349;NotLabelled;16384;-0.3753462;0.5484765;-0.6045798;-0.4390582;-24;31;90;-2502;3788;-840;65536;0.6343597;-0.3296399;0.468144;0.5193906;17;27;-2;1618;5483;1232;8192;0.5969529;-0.7363551;-0.232687;-0.2174515;5;25;3;360;4206;-718;32768;0.6980321;-0.5983379;-0.2617728;-0.2936288;-4;12;-6;369;4034;-544;256;0.1468144;-0.03047091;-0.9773135;-0.1495845;14;8;10;266;1492;3878;128;-0.1800554;-0.02077562;0.9820276;0.05263158;-8;-1;-9;-146;524;-4016;4;-0.2603878;0.3504155;-0.6540785;-0.6177285;4;13;-14;-428;3980;88;16;-0.01385042;-0.951332;-0.1398892;0.2742382;2;10;4;-1035;-463;3988;2;0.567867;-0.6504448;-0.3933518;-0.3157895;-6;4;10;662;4028;-554;8;-0.1966759;-0.9267781;0.1135734;0.299169;-23;-4;6;1829;-1301;3451;0.7854732;1.587104;1.934474;0.784492;1.497675;1.396308;0.7836074;1.41707;0.9235915;0.7870961;1.634319;0.2226974;0.5294003;1.69861;-0.1001143;0.1884407;1.722881;0.05251819;0.1255906;0.8586679;0.3804123;0;0;0;1.049677;1.690256;-0.1001174;1.338862;1.704406;0.05251288;1.245366;0.7597511;0.2173138;1.299236;-0.177006;0.08551031;0.4737172;1.590434;1.980616;0.5562938;0.1402128;2.156398;0.884083;0.2784667;3.454769;0.4737172;1.590434;1.980616;0.5562938;0.1402128;2.156398;0.884083;0.2784667;3.454769
298518.5342;NotLabelled;16384;-0.3919668;0.5470914;-0.5941909;-0.4404432;-11;26;36;-2944;3268;-232;65536;0.6360011;-0.3310249;0.4695291;0.5152354;-3;2;12;782;5177;988;8192;0.5969529;-0.7346493;-0.2354571;-0.2202216;1;21;4;250;4242;-642;32768;0.6964019;-0.5983379;-0.2645429;-0.2950138;-5;8;-7;393;4074;-590;256;0.1412742;-0.02908587;-0.9775274;-0.1537396;6;14;16;396;1354;3716;128;-0.1759003;-0.0166205;0.9827072;0.05540166;-13;-7;-9;-146;644;-4332;4;-0.2590028;0.3545706;-0.6523869;-0.6177285;7;11;-14;-566;3968;74;16;-0.01246537;-0.9511465;-0.1412742;0.2742382;0;8;4;-1037;-389;3990;2;0.566482;-0.6499712;-0.3961219;-0.3157895;-7;6;11;604;4020;-434;8;-0.200831;-0.9265017;0.1121884;0.2977839;-22;-1;8;1647;-1319;3417;0.7941342;1.586663;1.960765;0.7931727;1.499015;1.422306;0.7923053;1.419975;0.9493254;0.7957636;1.64109;0.2496408;0.5380687;1.707054;-0.07283378;0.1970856;1.730339;0.07989955;0.1309605;0.8570786;0.3821802;0;0;0;1.058349;1.698917;-0.07283664;1.347514;1.712347;0.07989496;1.251131;0.768595;0.2481737;1.305076;-0.1685541;0.1192207;0.4823763;1.58984;2.006907;0.5675074;0.1404648;2.188354;0.8949297;0.2792327;3.486763;0.4823763;1.58984;2.006907;0.5675074;0.1404648;2.188354;0.8949297;0.2792327;3.486763
298538.7169;NotLabelled;16384;-0.3961219;0.5484765;-0.5911759;-0.4390582;-6;31;23;-2746;3724;-268;65536;0.6359664;-0.33518;0.468144;0.5138504;-15;22;17;846;5005;726;8192;0.5955678;-0.7344639;-0.2382271;-0.2216066;1;17;5;220;4016;-778;32768;0.6952854;-0.5983379;-0.265928;-0.2963989;-4;5;-6;379;4094;-436;256;0.1385041;-0.02770083;-0.9777452;-0.1551246;7;9;15;-98;1306;3966;128;-0.1745152;-0.01385042;0.982837;0.05817174;-17;-17;-9;-144;646;-4064;4;-0.2590028;0.3573407;-0.6521855;-0.6163435;9;6;-15;-628;3878;72;16;-0.01246537;-0.9509397;-0.1426593;0.2742382;0;11;4;-1029;-403;3992;2;0.566482;-0.6497971;-0.3975069;-0.3144044;-7;7;13;472;3946;-416;8;-0.2049861;-0.9262025;0.1108033;0.2963989;-21;8;11;1367;-1313;3335;0.8006529;1.581283;1.975363;0.7997337;1.497489;1.436291;0.7989036;1.421835;0.9627571;0.8019583;1.648423;0.2648238;0.5441575;1.716337;-0.05716115;0.2031052;1.737673;0.09570267;0.1407041;0.8574404;0.3778837;0;0;0;1.064455;1.709351;-0.05715519;1.353571;1.722225;0.09571779;1.261741;0.7792281;0.2706416;1.314643;-0.1583084;0.1440926;0.4888913;1.584129;2.021502;0.5864589;0.1360828;2.207246;0.9289952;0.2723192;3.502019;0.4888913;1.584129;2.021502;0.5864589;0.1360828;2.207246;0.9289952;0.2723192;3.502019
298559.5211;NotLabelled;16384;-0.4016621;0.5512465;-0.5858644;-0.4376731;-1;39;24;-2762;3818;46;65536;0.6380143;-0.3434903;0.4653739;0.5083103;-27;59;33;1082;4691;624;8192;0.5927978;-0.7340459;-0.2437673;-0.2243767;3;11;5;44;4088;-648;32768;0.6930884;-0.5983379;-0.2700831;-0.2977839;0;1;-10;623;4054;-462;256;0.1371191;-0.02770083;-0.9777197;-0.1565097;9;0;12;176;1084;3912;128;-0.1717452;-0.01108033;0.9831922;0.06094183;-14;-10;-11;128;694;-3964;4;-0.2562327;0.3587258;-0.6525192;-0.6163435;11;4;-17;-606;3872;84;16;-0.01108033;-0.9511465;-0.1440443;0.2728532;0;15;3;-1097;-413;3980;2;0.5650969;-0.6497824;-0.4016621;-0.3116343;-10;0;16;504;3946;-458;8;-0.2091413;-0.9271123;0.1024931;0.2936288;-17;27;13;1425;-1395;3249;0.8026946;1.579655;1.981805;0.8018135;1.499362;1.4422;0.8010172;1.426785;0.9681852;0.8035732;1.65501;0.2707836;0.5456246;1.723101;-0.05104557;0.2045244;1.743319;0.1018629;0.1390536;0.8598446;0.3729991;0;0;0;1.065936;1.717274;-0.05104828;1.355021;1.730435;0.101858;1.262248;0.7865866;0.2716145;1.313711;-0.1511558;0.1460036;0.4909298;1.582202;2.027939;0.591771;0.1350633;2.218937;0.9418427;0.2723156;3.511586;0.4909298;1.582202;2.027939;0.591771;0.1350633;2.218937;0.9418427;0.2723156;3.511586
298580.5174;NotLabelled;16384;-0.4058172;0.5526316;-0.5816812;-0.4376731;2;23;15;-2882;3500;252;65536;0.6379015;-0.3573407;0.4626039;0.501385;-42;79;46;1656;5007;-392;8192;0.5927978;-0.7340459;-0.2437673;-0.2243767;-2;2;6;438;4214;-664;32768;0.693141;-0.5983379;-0.2714681;-0.2963989;0;-3;-10;347;4052;-482;256;0.1357341;-0.02770083;-0.9776902;-0.1578947;10;5;11;196;1192;3854;128;-0.1703601;-0.009695291;0.983361;0.06232687;-8;-2;-10;96;404;-3934;4;-0.2534626;0.365651;-0.6497514;-0.6163435;17;5;-18;-630;3960;68;16;-0.01108033;-0.9507228;-0.1468144;0.2728532;0;7;1;-1103;-443;3982;2;0.5650969;-0.6495875;-0.4030471;-0.3102493;-11;-2;16;782;3940;-572;8;-0.2105263;-0.9272488;0.09833795;0.2936288;-16;29;13;1731;-1417;3375;0.7982654;1.576233;1.980186;0.7974231;1.499471;1.440067;0.7966607;1.429994;0.9655875;0.7992494;1.660145;0.268819;0.541314;1.729138;-0.05282864;0.2002099;1.74895;0.1001244;0.1358974;0.8636091;0.3653872;0;0;0;1.061625;1.723286;-0.05283171;1.350706;1.73601;0.1001192;1.25853;0.7929037;0.2742697;1.31115;-0.14539;0.1533431;0.4864971;1.578478;2.026313;0.5939472;0.1325955;2.223133;0.9441895;0.266793;3.516055;0.4864971;1.578478;2.026313;0.5939472;0.1325955;2.223133;0.9441895;0.266793;3.516055
298601.6476;NotLabelled;16384;-0.4044321;0.5540166;-0.5834035;-0.434903;0;-7;-9;-2464;3342;274;65536;0.6389276;-0.368421;0.4584487;0.4958449;-30;48;29;-362;4957;-2840;8192;0.5914127;-0.734238;-0.2465374;-0.2243767;-1;11;8;746;3916;-936;32768;0.692597;-0.5983379;-0.2728532;-0.2963989;2;-2;-10;187;4138;-422;256;0.132964;-0.02770083;-0.9778462;-0.1592798;6;2;11;298;1338;4048;128;-0.1689751;-0.008310249;0.9836126;0.06232687;-3;-7;-9;48;430;-4222;4;-0.2520775;0.368421;-0.6487246;-0.6163435;17;14;-17;-626;3922;98;16;-0.009695291;-0.950523;-0.1481994;0.2728532;0;5;1;-1107;-477;3994;2;0.5637119;-0.6512451;-0.4044321;-0.3074792;-11;-3;16;874;3896;-542;8;-0.2132964;-0.9274847;0.09418282;0.2922437;-16;21;15;1771;-1413;3519;0.7883314;1.579471;1.965894;0.7875084;1.504471;1.425527;0.786763;1.436542;0.9508238;0.789387;1.668617;0.2546941;0.5314658;1.738513;-0.06677014;0.190358;1.757921;0.08622597;0.1289724;0.8715384;0.3486881;0;0;0;1.051776;1.732632;-0.0667727;1.340854;1.744917;0.08622217;1.24965;0.8023841;0.2639533;1.304833;-0.1360388;0.1451861;0.4765615;1.581566;2.012017;0.6024909;0.1384475;2.217952;0.9559022;0.2746675;3.5098;0.4765615;1.581566;2.012017;0.6024909;0.1384475;2.217952;0.9559022;0.2746675;3.5098
298622.5182;NotLabelled;16384;-0.4072022;0.5470914;-0.5869668;-0.4362881;-20;-20;34;1220;4660;138;65536;0.6371176;-0.3822715;0.4570637;0.4889196;-36;50;50;-1734;2311;-694;8192;0.5900277;-0.7344169;-0.2493075;-0.2243767;1;21;11;486;3782;-1166;32768;0.6914992;-0.5983379;-0.2756233;-0.2963989;8;4;-10;401;4112;-200;256;0.1288089;-0.02908587;-0.978362;-0.1592798;1;-1;9;220;1084;4160;128;-0.1648199;-0.004155125;0.984255;0.06371191;-10;-10;-10;-112;320;-4464;4;-0.2506925;0.3725762;-0.6468856;-0.6163435;17;19;-16;-762;3922;44;16;-0.009695291;-0.9503061;-0.1495845;0.2728532;1;7;1;-1129;-467;3992;2;0.5637119;-0.6501704;-0.4072022;-0.3060942;-9;-1;14;890;4038;-516;8;-0.2146814;-0.9277401;0.09279778;0.2908587;-14;7;15;1537;-1333;3417;0.784332;1.580484;1.950604;0.7835122;1.505764;1.410199;0.7827695;1.438081;0.9354601;0.7855349;1.672067;0.2399707;0.52766;1.742979;-0.08130771;0.1865571;1.762142;0.07173109;0.1226449;0.8768874;0.337377;0;0;0;1.047968;1.736829;-0.08131051;1.337046;1.748545;0.07172608;1.24778;0.8059887;0.2503141;1.303406;-0.1325947;0.1330345;0.4725621;1.582556;1.996726;0.6071503;0.1407274;2.206193;0.9679975;0.2744139;3.49625;0.4725621;1.582556;1.996726;0.6071503;0.1407274;2.206193;0.9679975;0.2744139;3.49625
298642.5333;NotLabelled;16384;-0.4127424;0.5470914;-0.5820455;-0.4376731;3;56;36;566;4632;-302;65536;0.6377601;-0.3947368;0.4529086;0.4819945;-41;73;46;-2482;4189;-1134;8192;0.5886427;-0.7350566;-0.2506925;-0.2243767;3;2;8;14;4070;-910;32768;0.6915381;-0.5983379;-0.2770083;-0.2950138;13;-3;-9;503;4020;-378;256;0.1274238;-0.02908587;-0.9785433;-0.1592798;6;0;12;328;1072;4090;128;-0.1634349;-0.001385042;0.9844031;0.06509695;-12;-15;-10;-86;256;-4300;4;-0.2493075;0.3767313;-0.6450117;-0.6163435;16;21;-14;-880;3950;-162;16;-0.009695291;-0.9503061;-0.1495845;0.2728532;0;8;1;-1083;-401;3976;2;0.5637119;-0.6505997;-0.4085872;-0.3033241;-10;4;13;930;4028;-302;8;-0.2160665;-0.9279892;0.09141274;0.2894737;-9;5;15;1215;-1339;3275;0.7850261;1.583636;1.938756;0.7842313;1.51121;1.398039;0.7835107;1.445543;0.9230167;0.78723;1.679742;0.2276037;0.5296468;1.751807;-0.09365249;0.188624;1.772306;0.05939158;0.1189492;0.8850458;0.3167691;0;0;0;1.049925;1.743543;-0.09365582;1.339048;1.754035;0.05938542;1.252674;0.8120449;0.2423283;1.309584;-0.1268499;0.1281965;0.4732537;1.585511;1.984873;0.6200175;0.1454453;2.198246;0.9907505;0.2801437;3.485391;0.4732537;1.585511;1.984873;0.6200175;0.1454453;2.198246;0.9907505;0.2801437;3.485391
298663.5194;NotLabelled;16384;-0.4210526;0.5540166;-0.5725753;-0.433518;0;102;12;-2600;4720;-222;65536;0.63708;-0.4072022;0.4501385;0.4750692;-39;65;40;-560;5471;-430;8192;0.5886427;-0.7359486;-0.2493075;-0.2229917;0;-10;-1;882;3852;-664;32768;0.6945676;-0.5955678;-0.2797784;-0.2908587;15;-9;-13;251;4016;-442;256;0.1246537;-0.02908587;-0.9789001;-0.1592798;13;3;17;-172;1162;4018;128;-0.1620499;0;0.9845405;0.06648199;-16;-13;-10;-92;328;-4136;4;-0.2493075;0.3808864;-0.6425667;-0.6163435;18;20;-11;-976;3896;-358;16;-0.008310249;-0.9501001;-0.1509695;0.2728532;0;7;0;-1103;-413;3994;2;0.5623268;-0.650461;-0.4127424;-0.300554;-9;-1;12;886;3982;50;8;-0.2174515;-0.9296075;0.08448754;0.2853186;-2;24;17;957;-1359;3325;0.775504;1.58852;1.935644;0.774731;1.518082;1.394664;0.7740296;1.454162;0.9194043;0.7778543;1.688344;0.2239861;0.5203034;1.760517;-0.09727156;0.1792902;1.781174;0.05577198;0.1122515;0.8907819;0.3028272;0;0;0;1.040578;1.752019;-0.09727454;1.329706;1.762384;0.05576634;1.243624;0.8210387;0.2421402;1.303135;-0.1179504;0.1301343;0.4637297;1.590226;1.981755;0.6216495;0.1520178;2.199651;0.9959304;0.286716;3.485769;0.4637297;1.590226;1.981755;0.6216495;0.1520178;2.199651;0.9959304;0.286716;3.485769
298684.5412;NotLabelled;16384;-0.4265928;0.5609418;-0.5658603;-0.4279778;0;60;1;-3536;3174;-634;65536;0.6369309;-0.4182825;0.4459834;0.4695291;-35;62;34;-520;4707;-110;8192;0.5886427;-0.7354779;-0.2506925;-0.2229917;4;18;-4;1030;3882;-540;32768;0.6946008;-0.5955678;-0.2825485;-0.2880886;15;0;-14;51;4002;-536;256;0.1218837;-0.02908587;-0.9790226;-0.1606648;5;-3;21;-380;1130;3970;128;-0.1606648;0.002770083;0.9846691;0.06786703;-15;-10;-11;4;460;-4098;4;-0.2493075;0.3850415;-0.6400856;-0.6163435;19;17;-9;-1014;3996;-366;16;-0.008310249;-0.9498791;-0.1523546;0.2728532;-2;8;0;-1107;-431;4002;2;0.5637119;-0.6490188;-0.4141274;-0.299169;-11;-2;11;872;3976;68;8;-0.2160665;-0.9307222;0.08033241;0.2839335;1;33;16;893;-1365;3305;0.7680977;1.592587;1.924801;0.7673439;1.523891;1.383597;0.7666592;1.4615;0.9081337;0.7706956;1.695647;0.2127052;0.5132102;1.768039;-0.108556;0.1722156;1.789011;0.04448669;0.1078738;0.8968835;0.2859364;0;0;0;1.033477;1.759071;-0.1085588;1.322614;1.769181;0.04448193;1.237282;0.8280942;0.2324949;1.308122;-0.1100302;0.1198345;0.456322;1.594144;1.970905;0.6244155;0.1573153;2.190279;1.006126;0.2894828;3.474473;0.456322;1.594144;1.970905;0.6244155;0.1573153;2.190279;1.006126;0.2894828;3.474473
298705.7001;NotLabelled;16384;0.4265928;-0.5679448;0.5609418;0.4252077;5;1;3;-2908;2236;-826;65536;0.6374457;-0.4279778;0.4418283;0.4639889;-27;35;23;-280;3895;-218;8192;0.5872576;-0.7347903;-0.2534626;-0.2257618;1;26;-2;336;4266;-358;32768;0.6958398;-0.5927978;-0.2867036;-0.2867036;14;8;-14;217;4002;-666;256;0.1191136;-0.03047091;-0.9793214;-0.1606648;0;-2;17;-52;1116;3632;128;-0.1578947;0.002770083;0.9849223;0.07063711;-13;0;-14;312;448;-4266;4;-0.2465374;0.3905817;-0.6364564;-0.6177285;20;4;-9;-1014;3804;-220;16;-0.008310249;-0.9494306;-0.1551246;0.2728532;1;10;1;-1129;-457;3924;2;0.5637119;-0.6485161;-0.4168975;-0.2963989;-12;3;10;950;3962;-20;8;-0.2146814;-0.9323439;0.07479224;0.2811634;1;36;17;1163;-1557;3397;0.7610234;1.59097;1.910878;0.7602914;1.524252;1.369427;0.7596259;1.463599;0.8937389;0.7638255;1.699647;0.1989538;0.5063957;1.77306;-0.1221196;0.1654054;1.793801;0.03096361;0.1016001;0.901719;0.2727227;0;0;0;1.026657;1.763805;-0.1221225;1.315792;1.773336;0.03095913;1.2332;0.8321849;0.2198707;1.309267;-0.1060201;0.1113669;0.4492458;1.592359;1.956976;0.6275538;0.1569736;2.177731;1.016117;0.2901534;3.459764;0.4492458;1.592359;1.956976;0.6275538;0.1569736;2.177731;1.016117;0.2901534;3.459764
