SEP=;
index;label;RightUpperArm_boneIndex;RightUpperArm_quat9x_w;RightUpperArm_quat9x_x;RightUpperArm_quat9x_y;RightUpperArm_quat9x_z;RightUpperArm_gyroscope_x;RightUpperArm_gyroscope_y;RightUpperArm_gyroscope_z;RightUpperArm_accelerometer_x;RightUpperArm_accelerometer_y;RightUpperArm_accelerometer_z;RightLowerArm_boneIndex;RightLowerArm_quat9x_w;RightLowerArm_quat9x_x;RightLowerArm_quat9x_y;RightLowerArm_quat9x_z;RightLowerArm_gyroscope_x;RightLowerArm_gyroscope_y;RightLowerArm_gyroscope_z;RightLowerArm_accelerometer_x;RightLowerArm_accelerometer_y;RightLowerArm_accelerometer_z;LeftUpperArm_boneIndex;LeftUpperArm_quat9x_w;LeftUpperArm_quat9x_x;LeftUpperArm_quat9x_y;LeftUpperArm_quat9x_z;LeftUpperArm_gyroscope_x;LeftUpperArm_gyroscope_y;LeftUpperArm_gyroscope_z;LeftUpperArm_accelerometer_x;LeftUpperArm_accelerometer_y;LeftUpperArm_accelerometer_z;LeftLowerArm_boneIndex;LeftLowerArm_quat9x_w;LeftLowerArm_quat9x_x;LeftLowerArm_quat9x_y;LeftLowerArm_quat9x_z;LeftLowerArm_gyroscope_x;LeftLowerArm_gyroscope_y;LeftLowerArm_gyroscope_z;LeftLowerArm_accelerometer_x;LeftLowerArm_accelerometer_y;LeftLowerArm_accelerometer_z;Chest_boneIndex;Chest_quat9x_w;Chest_quat9x_x;Chest_quat9x_y;Chest_quat9x_z;Chest_gyroscope_x;Chest_gyroscope_y;Chest_gyroscope_z;Chest_accelerometer_x;Chest_accelerometer_y;Chest_accelerometer_z;Spine_boneIndex;Spine_quat9x_w;Spine_quat9x_x;Spine_quat9x_y;Spine_quat9x_z;Spine_gyroscope_x;Spine_gyroscope_y;Spine_gyroscope_z;Spine_accelerometer_x;Spine_accelerometer_y;Spine_accelerometer_z;RightUpperLeg_boneIndex;RightUpperLeg_quat9x_w;RightUpperLeg_quat9x_x;RightUpperLeg_quat9x_y;RightUpperLeg_quat9x_z;RightUpperLeg_gyroscope_x;RightUpperLeg_gyroscope_y;RightUpperLeg_gyroscope_z;RightUpperLeg_accelerometer_x;RightUpperLeg_accelerometer_y;RightUpperLeg_accelerometer_z;RightLowerLeg_boneIndex;RightLowerLeg_quat9x_w;RightLowerLeg_quat9x_x;RightLowerLeg_quat9x_y;RightLowerLeg_quat9x_z;RightLowerLeg_gyroscope_x;RightLowerLeg_gyroscope_y;RightLowerLeg_gyroscope_z;RightLowerLeg_accelerometer_x;RightLowerLeg_accelerometer_y;RightLowerLeg_accelerometer_z;LeftUpperLeg_boneIndex;LeftUpperLeg_quat9x_w;LeftUpperLeg_quat9x_x;LeftUpperLeg_quat9x_y;LeftUpperLeg_quat9x_z;LeftUpperLeg_gyroscope_x;LeftUpperLeg_gyroscope_y;LeftUpperLeg_gyroscope_z;LeftUpperLeg_accelerometer_x;LeftUpperLeg_accelerometer_y;LeftUpperLeg_accelerometer_z;LeftLowerLeg_boneIndex;LeftLowerLeg_quat9x_w;LeftLowerLeg_quat9x_x;LeftLowerLeg_quat9x_y;LeftLowerLeg_quat9x_z;LeftLowerLeg_gyroscope_x;LeftLowerLeg_gyroscope_y;LeftLowerLeg_gyroscope_z;LeftLowerLeg_accelerometer_x;LeftLowerLeg_accelerometer_y;LeftLowerLeg_accelerometer_z;pelvis_x;pelvis_y;pelvis_z;lowerSpine_x;lowerSpine_y;lowerSpine_z;middleSpine_x;middleSpine_y;middleSpine_z;upperSpine_x;upperSpine_y;upperSpine_z;rightClavicle_x;rightClavicle_y;rightClavicle_z;rightShoulder_x;rightShoulder_y;rightShoulder_z;rightElbow_x;rightElbow_y;rightElbow_z;rightWrist_x;rightWrist_y;rightWrist_z;leftClavicle_x;leftClavicle_y;leftClavicle_z;leftShoulder_x;leftShoulder_y;leftShoulder_z;leftElbow_x;leftElbow_y;leftElbow_z;leftWrist_x;leftWrist_y;leftWrist_z;rightHip_x;rightHip_y;rightHip_z;rightKnee_x;rightKnee_y;rightKnee_z;rightAnkle_x;rightAnkle_y;rightAnkle_z;leftHip_x;leftHip_y;leftHip_z;leftKnee_x;leftKnee_y;leftKnee_z;leftAnkle_x;leftAnkle_y;leftAnkle_z;
160296.7614;NotLabelled;16384;-0.3947368;0.4903047;-0.5638787;-0.534626;6;2;29;-774;3944;-160;65536;0.5720221;-0.3033241;0.4653739;0.6035;-1;0;-25;-1201;3626;-532;8192;0.5969529;-0.7081207;-0.3573407;-0.1204986;4;-25;-4;1752;3990;38;32768;0.7220771;-0.6121883;-0.1357341;-0.2922437;25;-11;-74;1777;4149;-118;256;0.1745152;-0.01108033;-0.9119423;-0.3711911;-38;13;-11;-616;2820;2844;128;-0.1980609;0.03601108;0.9076018;0.368421;45;10;7;312;2862;-2770;4;-0.4709141;0.134349;-0.4806094;-0.7274646;4;-1;0;2288;3376;-352;16;-0.1024931;-0.9557499;-0.09833795;0.2576177;-2;12;0;-659;-1113;3960;2;0.6653939;-0.4584487;-0.1925208;-0.5567867;-3;2;-1;-2322;3532;-244;8;-0.1149584;-0.9286907;0.1094183;0.33518;4;2;0;1267;-691;3957;0.6570218;0.6863248;1.794069;0.6599787;0.9557896;1.319726;0.6625586;1.190891;0.9017791;0.6106225;1.696288;0.3723086;0.3330124;1.867098;0.1105761;-0.001238234;1.780953;0.2554724;0.03220631;0.8644378;0.3866593;0;0;0;0.8506303;1.920292;0.1105736;1.143304;1.898573;0.2554687;1.296945;1.002833;0.5753438;1.1797;0.1016531;0.3071744;0.3449469;0.660615;1.829852;0.2294546;-0.5500231;1.016294;0.4532704;-0.217556;2.301479;0.3449469;0.660615;1.829852;0.2294546;-0.5500231;1.016294;0.4532704;-0.217556;2.301479
160317.6867;NotLabelled;16384;-0.3975069;0.4889196;-0.560492;-0.5373961;3;5;31;-648;4316;-258;65536;0.5747922;-0.3033241;0.4626039;0.6029975;-1;5;-21;-1347;3714;-400;8192;0.5969529;-0.709052;-0.3559557;-0.1191136;2;-20;-5;1920;4042;-6;32768;0.7226069;-0.6135734;-0.1440443;-0.2839335;20;-12;-66;1605;4181;-144;256;0.1759003;-0.006925208;-0.9139532;-0.365651;-34;12;-11;-584;2752;2850;128;-0.1980609;0.033241;0.9099365;0.3628809;49;0;7;294;3000;-2402;4;-0.4695291;0.134349;-0.4806094;-0.7283594;6;-7;-1;2348;3358;-382;16;-0.1024931;-0.9556064;-0.09972299;0.2576177;-3;15;-1;-689;-1177;4062;2;0.6653939;-0.4584487;-0.1925208;-0.5567867;-1;3;1;-2396;3462;-206;8;-0.1135734;-0.9288611;0.1094183;0.33518;3;-3;2;1245;-623;3877;0.6572754;0.7122111;1.822698;0.6601315;0.9724839;1.343248;0.6626223;1.199486;0.9208478;0.60766;1.699114;0.3862325;0.3291261;1.865273;0.1224948;-0.004660577;1.778205;0.2679081;0.02960449;0.8610528;0.3943446;0;0;0;0.8463498;1.922172;0.122492;1.13901;1.904019;0.2679042;1.287528;1.007039;0.5867205;1.209208;0.09415436;0.3452766;0.3452082;0.687196;1.859035;0.2310341;-0.5210674;1.04177;0.4573112;-0.1891108;2.326656;0.3452082;0.687196;1.859035;0.2310341;-0.5210674;1.04177;0.4573112;-0.1891108;2.326656
160338.5243;NotLabelled;16384;-0.4016621;0.4875346;-0.557398;-0.5387812;4;5;29;-590;4408;-372;65536;0.5761772;-0.301939;0.4612188;0.6034317;0;13;-16;-1569;4138;-468;8192;0.5969529;-0.7097456;-0.3545706;-0.1191136;1;-10;-2;2034;4060;-50;32768;0.7238801;-0.6135734;-0.1509695;-0.2770083;16;-6;-57;1463;4431;-302;256;0.1786704;0;-0.9167249;-0.3573407;-35;6;-11;-620;2806;3044;128;-0.200831;0.02770083;0.9164937;0.3448753;67;14;9;466;2798;-3222;4;-0.468144;0.134349;-0.4792244;-0.7301613;8;-3;-3;2514;3286;-524;16;-0.1024931;-0.954789;-0.1038781;0.2590028;-4;19;-1;-625;-1039;4006;2;0.6653939;-0.4584487;-0.1925208;-0.5567867;0;-3;3;-2580;3310;-152;8;-0.1135734;-0.9293598;0.1094183;0.333795;2;-4;4;1309;-599;3845;0.6544448;0.7357774;1.850581;0.6572338;0.9899166;1.367852;0.6596653;1.211516;0.9425914;0.6021886;1.703758;0.4014289;0.3229553;1.864602;0.1351483;-0.01046472;1.777208;0.2812057;0.02759968;0.8590367;0.3988611;0;0;0;0.8397877;1.924951;0.1351452;1.13234;1.91065;0.2812008;1.28063;1.013877;0.6007082;1.219163;0.09614873;0.373149;0.3423826;0.7112281;1.887278;0.2306581;-0.4977496;1.070731;0.4560441;-0.1648715;2.355534;0.3423826;0.7112281;1.887278;0.2306581;-0.4977496;1.070731;0.4560441;-0.1648715;2.355534
160359.5207;NotLabelled;16384;-0.4044321;0.4861496;-0.5525518;-0.5429363;11;2;23;-550;4396;-238;65536;0.5817174;-0.301939;0.4570637;0.601274;4;10;-13;-1523;4250;-538;8192;0.5969529;-0.7097456;-0.3545706;-0.1191136;1;-2;4;1828;4000;-20;32768;0.7231058;-0.6149584;-0.1565097;-0.2728532;14;1;-48;1339;4483;-444;256;0.1800554;0;-0.9180632;-0.3531856;-36;5;-10;-568;2726;3044;128;-0.2022161;0.0235457;0.9188819;0.3379501;56;4;10;388;2756;-3286;4;-0.468144;0.134349;-0.4778393;-0.7310684;6;2;-5;2438;3206;-388;16;-0.1024931;-0.9544836;-0.1066482;0.2590028;-4;15;-2;-577;-913;3924;2;0.6665505;-0.4584487;-0.1925208;-0.5554016;-3;-2;5;-2458;3412;-164;8;-0.1149584;-0.9295218;0.1108033;0.33241;0;-4;3;1165;-581;3861;0.6580734;0.7929037;1.894772;0.6606471;1.027453;1.402226;0.6628895;1.231797;0.9684092;0.6009937;1.712557;0.4175009;0.3205622;1.864806;0.1474524;-0.01217468;1.776373;0.2944377;0.02662895;0.8571177;0.403034;0;0;0;0.8366467;1.931252;0.1474499;1.128976;1.923294;0.2944336;1.275119;1.026047;0.6135988;1.229623;0.1050942;0.3955106;0.3460276;0.7698507;1.932563;0.2411622;-0.4381576;1.113674;0.4669204;-0.1022358;2.39762;0.3460276;0.7698507;1.932563;0.2411622;-0.4381576;1.113674;0.4669204;-0.1022358;2.39762
160380.5325;NotLabelled;16384;-0.4058172;0.4847645;-0.5500185;-0.5457063;11;5;21;-668;4374;-272;65536;0.5844875;-0.301939;0.4556787;0.5996367;4;9;-12;-1523;4224;-422;8192;0.5969529;-0.7092833;-0.3559557;-0.1177285;1;0;10;1680;3916;60;32768;0.7231297;-0.6149584;-0.1634349;-0.2686981;11;3;-37;1297;4367;-390;256;0.1814404;0.002770083;-0.9198991;-0.3476454;-34;4;-10;-716;2676;3148;128;-0.2036011;0.02077562;0.9216574;0.3296399;51;-4;11;390;2714;-3094;4;-0.468144;0.1357341;-0.4778393;-0.7308125;4;0;-5;2390;3162;-364;16;-0.1024931;-0.9539508;-0.1080332;0.2603878;-3;9;-3;-523;-937;3832;2;0.6661488;-0.4584487;-0.1939058;-0.5554016;-5;0;7;-2492;3388;-120;8;-0.1149584;-0.9293557;0.1121884;0.33241;-2;-4;3;1109;-631;3823;0.6479195;0.8110225;1.925418;0.6504056;1.037594;1.429151;0.6525708;1.23491;0.9920931;0.5915517;1.710775;0.4368524;0.3115071;1.860754;0.1651371;-0.02144299;1.773801;0.3125231;0.02433825;0.8536675;0.4104328;0;0;0;0.8276252;1.926935;0.1651338;1.119782;1.920139;0.3125178;1.26562;1.022893;0.6318229;1.229501;0.09926701;0.4235016;0.3358804;0.7885828;1.963631;0.2370576;-0.4177346;1.141505;0.4577783;-0.07996559;2.425842;0.3358804;0.7885828;1.963631;0.2370576;-0.4177346;1.141505;0.4577783;-0.07996559;2.425842
160402.6992;NotLabelled;16384;-0.4072022;0.4847645;-0.5457063;-0.5489939;11;2;18;-722;4398;-286;65536;0.5858725;-0.300554;0.4542936;0.6000317;4;6;-11;-1493;4268;-364;8192;0.5955678;-0.710205;-0.3573407;-0.1149584;-4;-12;13;1524;3956;-42;32768;0.7240298;-0.6149584;-0.166205;-0.2645429;4;-18;-14;1521;4119;-386;256;0.1828255;0.004155125;-0.9211797;-0.3434903;-29;-1;-7;-712;2666;3046;128;-0.2049861;0.01800554;0.923857;0.3227147;51;3;8;542;2720;-3164;4;-0.466759;0.1357341;-0.4778393;-0.731698;4;-5;-6;2312;3306;-494;16;-0.1024931;-0.953793;-0.1094183;0.2603878;-2;5;-2;-591;-1007;3930;2;0.6668972;-0.4584487;-0.1952908;-0.5540166;-3;-2;9;-2552;3312;-126;8;-0.1163435;-0.9291833;0.1121884;0.33241;-4;-5;3;1235;-565;3901;0.6455046;0.8387792;1.950452;0.6478896;1.056135;1.45008;0.6499659;1.245335;1.009447;0.5879258;1.713934;0.4481736;0.3077228;1.859336;0.1741439;-0.02511369;1.772875;0.3220742;0.02459346;0.8522606;0.4133305;0;0;0;0.8235654;1.927633;0.1741411;1.115502;1.923889;0.3220698;1.264146;1.027803;0.6433329;1.240459;0.1018567;0.4437131;0.3334733;0.8170505;1.989137;0.2382659;-0.3908062;1.168847;0.4602687;-0.05181551;2.452641;0.3334733;0.8170505;1.989137;0.2382659;-0.3908062;1.168847;0.4602687;-0.05181551;2.452641
160423.5391;NotLabelled;16384;-0.4072022;0.4847645;-0.5429363;-0.5517336;12;-1;15;-720;4336;-392;65536;0.5872576;-0.300554;0.4542936;0.5986761;3;1;-10;-1483;4254;-362;8192;0.5955678;-0.7106478;-0.3573407;-0.1121884;-7;-15;13;1502;4016;-38;32768;0.7245343;-0.6149584;-0.166205;-0.2631579;4;-26;-6;1473;4051;-540;256;0.1842105;0.005540166;-0.9224356;-0.3393352;-26;-1;-8;-694;2648;3194;128;-0.2063712;0.01523546;0.9259891;0.3157895;52;2;10;566;2652;-3192;4;-0.4639889;0.1371191;-0.4778393;-0.7332;7;-6;-9;2292;3352;-420;16;-0.1024931;-0.953633;-0.1108033;0.2603878;-1;8;-1;-585;-1065;3926;2;0.6670928;-0.4598338;-0.1952908;-0.5526316;-1;-5;11;-2494;3310;-106;8;-0.1177285;-0.929335;0.1135734;0.3310249;-6;-6;4;1203;-569;3859;0.6373173;0.8594496;1.972987;0.6396167;1.068994;1.469293;0.6416177;1.251315;1.02577;0.5793319;1.714572;0.460106;0.2991775;1.856864;0.184399;-0.0336678;1.771102;0.3327152;0.02323978;0.8502822;0.4174644;0;0;0;0.8148811;1.926202;0.1843957;1.10664;1.924419;0.3327104;1.256909;1.030774;0.65996;1.241506;0.1036768;0.4649213;0.3252926;0.838326;2.012059;0.2341528;-0.3702188;1.19232;0.4526974;-0.03030014;2.476463;0.3252926;0.838326;2.012059;0.2341528;-0.3702188;1.19232;0.4526974;-0.03030014;2.476463
160443.5335;NotLabelled;16384;-0.4072022;0.4847645;-0.5415512;-0.5530931;14;-3;12;-774;4266;-280;65536;0.5872576;-0.299169;0.4529086;0.6004167;4;-4;-11;-1437;4254;-286;8192;0.5955678;-0.7110796;-0.3573407;-0.1094183;-6;-11;13;1526;3912;-16;32768;0.7273341;-0.6135734;-0.1634349;-0.2603878;5;-25;0;1361;4097;-726;256;0.1883656;0.006925208;-0.9241071;-0.33241;-29;-7;-7;-796;2570;3478;128;-0.2077562;0.01108033;0.930348;0.301939;48;-3;9;634;2498;-3414;4;-0.4626039;0.1385041;-0.4778393;-0.7338146;5;-6;-11;2362;3364;-430;16;-0.1024931;-0.9534711;-0.1121884;0.2603878;-2;7;0;-603;-1115;3936;2;0.6678314;-0.4598338;-0.1966759;-0.5512465;-2;-8;13;-2544;3260;-66;8;-0.1191136;-0.9291585;0.1135734;0.3310249;-6;-9;3;1161;-619;3893;0.6306744;0.8827031;2.004207;0.6328877;1.084401;1.49732;0.6348125;1.259813;1.051018;0.57362;1.717696;0.4808768;0.2941659;1.85687;0.2028773;-0.03903398;1.771812;0.3508041;0.02314545;0.8499041;0.4182391;0;0;0;0.809728;1.927241;0.2040547;1.100962;1.927416;0.3534093;1.250504;1.030146;0.67093;1.237674;0.1028967;0.4764266;0.3186565;0.8621888;2.043655;0.2379458;-0.3492365;1.227081;0.4500533;-0.00839138;2.512056;0.3186565;0.8621888;2.043655;0.2379458;-0.3492365;1.227081;0.4500533;-0.00839138;2.512056
160464.6702;NotLabelled;16384;-0.4044321;0.4847645;-0.5387812;-0.5578108;14;-6;6;-656;4616;-356;65536;0.5872576;-0.2977839;0.4529086;0.6011049;1;-13;-7;-1345;4252;-250;8192;0.5955678;-0.710803;-0.3587258;-0.1066482;-7;-9;13;1392;3898;8;32768;0.7288096;-0.6121883;-0.1620499;-0.2603878;5;-19;5;1283;3949;-578;256;0.1911357;0.006925208;-0.9255136;-0.3268698;-31;-9;-7;-832;2630;3434;128;-0.2091413;0.009695291;0.9318334;0.2963989;44;0;8;532;2486;-3452;4;-0.4612188;0.1398892;-0.4792244;-0.7335204;5;-8;-14;2376;3394;-408;16;-0.1038781;-0.9531572;-0.1135734;0.2603878;-3;7;0;-683;-1137;3940;2;0.6698806;-0.4612188;-0.1980609;-0.5470914;-3;-10;18;-2446;3422;-180;8;-0.1232687;-0.9282734;0.1163435;0.3310249;-7;-13;0;1197;-773;3873;0.6248723;0.9216547;2.01381;0.6269156;1.107885;1.501037;0.6286913;1.26968;1.04962;0.5661303;1.718587;0.4725312;0.2862453;1.852696;0.1924835;-0.04669259;1.768987;0.3417627;0.0184249;0.8482852;0.4217448;0;0;0;0.8016086;1.924519;0.1924799;1.092864;1.927799;0.3417573;1.245068;1.036973;0.6757298;1.236012;0.1106091;0.4768457;0.3128675;0.9023483;2.053966;0.2413926;-0.3112557;1.239769;0.4455026;0.03051591;2.525794;0.3128675;0.9023483;2.053966;0.2413926;-0.3112557;1.239769;0.4455026;0.03051591;2.525794
160484.5123;NotLabelled;16384;-0.4030471;0.4847645;-0.5373961;-0.5601445;15;-6;1;-644;4636;-434;65536;0.5858725;-0.2963989;0.4529086;0.6031376;-1;-12;-4;-1305;4424;-124;8192;0.5969529;-0.709847;-0.3587258;-0.1052632;-6;-10;10;1242;3972;-6;32768;0.7305803;-0.6108033;-0.1592798;-0.2603878;5;-16;9;1351;3905;-508;256;0.1925208;0.006925208;-0.9266839;-0.3227147;-28;-11;-6;-900;2670;3420;128;-0.2105263;0.008310249;0.9332796;0.2908587;37;-5;8;566;2500;-3426;4;-0.4584487;0.1412742;-0.4792244;-0.7349901;5;-10;-17;2342;3414;-450;16;-0.1038781;-0.9529911;-0.1149584;0.2603878;-3;8;0;-751;-1117;3946;2;0.6686854;-0.4639889;-0.199446;-0.5457063;-3;-8;21;-2402;3470;-230;8;-0.1246537;-0.9279138;0.1177285;0.3310249;-9;-10;-1;1233;-641;3831;0.6115415;0.940021;2.028649;0.6135169;1.120045;1.513665;0.6152322;1.276376;1.060326;0.5537452;1.718415;0.4778463;0.274359;1.849261;0.1957632;-0.05884736;1.767413;0.3454751;0.01638266;0.8473341;0.4237356;0;0;0;0.789741;1.92095;0.1957598;1.08075;1.92593;0.3454695;1.236193;1.037042;0.683095;1.229076;0.1115589;0.4800765;0.2995421;0.921201;2.069077;0.2340569;-0.2962725;1.260171;0.4295447;0.04993796;2.546348;0.2995421;0.921201;2.069077;0.2340569;-0.2962725;1.260171;0.4295447;0.04993796;2.546348
160505.5271;NotLabelled;16384;-0.4016621;0.4861496;-0.5373961;-0.5599389;17;-7;-5;-640;4592;-448;65536;0.5858725;-0.2963989;0.4515235;0.6041752;-5;-7;0;-1161;4568;-70;8192;0.5983379;-0.7097848;-0.3573407;-0.1024931;-6;-17;5;1266;4076;-16;32768;0.7329199;-0.6094183;-0.1537396;-0.2603878;3;-16;15;1517;3943;-632;256;0.1939058;0.006925208;-0.9278321;-0.3185596;-27;-16;-4;-832;2588;3318;128;-0.2119114;0.006925208;0.9346865;0.2853186;34;-9;7;584;2486;-3466;4;-0.4556787;0.1426593;-0.4806094;-0.7355405;6;-10;-19;2318;3378;-426;16;-0.1038781;-0.9524434;-0.1163435;0.2617728;-4;13;0;-731;-1065;3876;2;0.6691457;-0.4653739;-0.2022161;-0.5429363;-3;-7;22;-2384;3442;-224;8;-0.1260388;-0.9277266;0.1177285;0.3310249;-9;-8;0;1209;-589;3799;0.602869;0.9566479;2.039737;0.6047761;1.130449;1.522618;0.6064315;1.281302;1.067428;0.5459596;1.718238;0.4810039;0.2670081;1.846783;0.1974378;-0.06643707;1.766484;0.347456;0.01373373;0.84676;0.424977;0;0;0;0.7824389;1.91812;0.1974348;1.073269;1.92422;0.3474512;1.231383;1.035481;0.6842266;1.224237;0.1112278;0.4756815;0.2908751;0.9383171;2.08043;0.2346161;-0.2819417;1.275034;0.4254122;0.06519318;2.561666;0.2908751;0.9383171;2.08043;0.2346161;-0.2819417;1.275034;0.4254122;0.06519318;2.561666
160525.5625;NotLabelled;16384;-0.398892;0.4875346;-0.536011;-0.5620386;17;-8;-10;-566;4438;-386;65536;0.5844875;-0.2977839;0.4515235;0.6048352;-11;-5;7;-953;4412;70;8192;0.5983379;-0.7106789;-0.3559557;-0.101108;-6;-19;2;1250;3976;-24;32768;0.7341517;-0.6080332;-0.1509695;-0.2617728;3;-14;17;1513;3975;-562;256;0.1966759;0.005540166;-0.9286752;-0.3144044;-28;-16;-3;-734;2524;3246;128;-0.2132964;0.006925208;0.9356302;0.2811634;31;-14;7;544;2452;-3542;4;-0.4501385;0.1468144;-0.4833795;-0.7363186;4;-7;-25;2252;3358;-422;16;-0.1038781;-0.9517503;-0.1218837;0.2617728;-2;13;0;-679;-1007;3848;2;0.6700023;-0.466759;-0.2036011;-0.5401662;-4;-6;25;-2270;3406;-160;8;-0.1288089;-0.9271692;0.1191136;0.3310249;-8;-8;0;1221;-571;3779;0.5962433;0.9731371;2.046596;0.5980818;1.140699;1.527422;0.5996768;1.28606;1.070448;0.5402256;1.717868;0.480134;0.2617089;1.844112;0.1951103;-0.07197455;1.765368;0.3454231;0.009508818;0.8460641;0.426475;0;0;0;0.7771902;1.915084;0.1951067;1.067842;1.922298;0.3454171;1.228562;1.033921;0.681914;1.218543;0.1116157;0.4650272;0.2842546;0.9552979;2.087548;0.2337258;-0.2694159;1.28856;0.4235955;0.07897067;2.574991;0.2842546;0.9552979;2.087548;0.2337258;-0.2694159;1.28856;0.4235955;0.07897067;2.574991
160545.8263;NotLabelled;16384;-0.3961219;0.4889196;-0.5373961;-0.5614717;18;-14;-14;-360;4276;-488;65536;0.5803324;-0.301939;0.4529086;0.60574;-18;-13;17;-523;4246;146;8192;0.599723;-0.711089;-0.3531856;-0.09972299;-7;-21;0;1202;3950;16;32768;0.7356436;-0.6066482;-0.1468144;-0.2631579;3;-16;18;1457;3797;-642;256;0.1980609;0.004155125;-0.9297849;-0.3102493;-27;-18;-2;-638;2356;3284;128;-0.2146814;0.008310249;0.9369496;0.2756233;31;-14;7;500;2392;-3584;4;-0.4473684;0.1481994;-0.4847645;-0.7368187;4;-10;-26;2204;3294;-500;16;-0.1024931;-0.9513401;-0.1232687;0.2631579;-1;13;-1;-719;-1081;3818;2;0.6683325;-0.4695291;-0.2063712;-0.5387812;-4;-7;27;-2300;3448;-108;8;-0.1301939;-0.9269757;0.1191136;0.3310249;-5;-7;0;1213;-587;3697;0.5830442;0.986649;2.048512;0.5848334;1.149705;1.527905;0.5863848;1.291101;1.069688;0.5286753;1.718011;0.475651;0.250798;1.842506;0.1892371;-0.08325085;1.765862;0.339823;0.004251555;0.8473852;0.4239298;0;0;0;0.7664518;1.912213;0.189234;1.056948;1.919995;0.3398183;1.214698;1.031818;0.678243;1.203802;0.1109869;0.4552205;0.2710596;0.9691653;2.089646;0.2343218;-0.2657721;1.305784;0.4135411;0.08632588;2.592733;0.2710596;0.9691653;2.089646;0.2343218;-0.2657721;1.305784;0.4135411;0.08632588;2.592733
160566.5496;NotLabelled;16384;-0.3864266;0.4889196;-0.5373961;-0.5681879;24;-24;-14;-10;3740;-674;65536;0.5692521;-0.3144044;0.4584487;0.6057447;-21;-14;53;-145;3804;-424;8192;0.601108;-0.7114828;-0.3504155;-0.09833795;-9;-23;-3;1272;3824;44;32768;0.7368343;-0.6052631;-0.1440443;-0.2645429;2;-17;20;1455;3777;-678;256;0.200831;0;-0.9319333;-0.301939;-25;-16;-2;-536;2416;3188;128;-0.2160665;0.008310249;0.9390367;0.267313;30;-14;5;392;2296;-3362;4;-0.4445983;0.1509695;-0.4861496;-0.7370204;4;-11;-28;2214;3334;-530;16;-0.1024931;-0.9511596;-0.1246537;0.2631579;0;12;-1;-671;-971;3892;2;0.6696501;-0.4736842;-0.2105263;-0.5318559;-3;-6;30;-2270;3276;-16;8;-0.1315789;-0.9267802;0.1191136;0.3310249;-4;4;2;1155;-607;3765;0.5746592;1.005213;2.040961;0.5763859;1.162554;1.518599;0.5778821;1.298919;1.058859;0.5222637;1.721063;0.4612272;0.2451221;1.844104;0.173475;-0.08934835;1.76984;0.3243177;-0.001653671;0.8519735;0.4146507;0;0;0;0.7610078;1.912074;0.1734722;1.051363;1.920132;0.3243125;1.208332;1.031066;0.6607621;1.194557;0.1121225;0.43024;0.2626795;0.9881818;2.082323;0.232177;-0.2510719;1.305034;0.4096891;0.09879875;2.592825;0.2626795;0.9881818;2.082323;0.232177;-0.2510719;1.305034;0.4096891;0.09879875;2.592825
160587.9007;NotLabelled;16384;-0.3822715;0.4916897;-0.5373961;-0.568608;21;-12;-20;-312;3942;-520;65536;0.5637119;-0.3240997;0.4626039;0.6026491;-13;30;73;-703;3524;830;8192;0.6038781;-0.7100064;-0.3490305;-0.09695291;-9;-22;-6;1258;3824;2;32768;0.7394021;-0.602493;-0.1398892;-0.265928;4;-16;23;1589;3773;-790;256;0.2022161;0;-0.9329702;-0.2977839;-24;-15;-2;-518;2406;3144;128;-0.2174515;0.009695291;0.939877;0.2631579;30;-16;5;470;2236;-3444;4;-0.4404432;0.1537396;-0.4875346;-0.738027;4;-10;-29;2120;3350;-486;16;-0.1024931;-0.950408;-0.1274238;0.2645429;0;13;0;-781;-1005;3898;2;0.6699866;-0.4750692;-0.2132964;-0.5290859;-3;-5;31;-2332;3396;-102;8;-0.1315789;-0.9269571;0.1177285;0.3310249;-5;8;2;1251;-569;3815;0.544046;1.039063;2.018933;0.5456743;1.187444;1.493955;0.5470842;1.315926;1.03195;0.4966286;1.728889;0.427485;0.2212273;1.849879;0.1372033;-0.1142252;1.781203;0.288512;-0.01275425;0.8654425;0.385543;0;0;0;0.7377304;1.912985;0.1371998;1.027851;1.920742;0.2885066;1.182452;1.030789;0.6237052;1.168387;0.113414;0.3870379;0.2320742;1.022742;2.060638;0.2136413;-0.2221885;1.292089;0.3792724;0.1286147;2.581209;0.2320742;1.022742;2.060638;0.2136413;-0.2221885;1.292089;0.3792724;0.1286147;2.581209
160608.9409;NotLabelled;16384;-0.3781163;0.4958449;-0.5373961;-0.5677775;19;23;-33;-668;4232;-594;65536;0.566482;-0.3379501;0.4598338;0.5945088;-26;129;50;-3449;4622;774;8192;0.6052631;-0.7110445;-0.3448753;-0.09556787;-9;-19;-9;1232;3894;-42;32768;0.7414243;-0.599723;-0.1357341;-0.2686981;7;-16;25;1549;3739;-808;256;0.2049861;-0.001385042;-0.9336814;-0.2936288;-25;-18;-1;-650;2334;3230;128;-0.2174515;0.01108033;0.9413953;0.2576177;31;-14;5;410;2188;-3466;4;-0.4376731;0.1565097;-0.4889196;-0.7381765;4;-10;-30;2130;3420;-516;16;-0.101108;-0.9503697;-0.1288089;0.2645429;0;11;0;-741;-1083;3966;2;0.6693105;-0.4778393;-0.2160665;-0.5263157;-4;-6;33;-2348;3400;-118;8;-0.1315789;-0.9269571;0.1177285;0.3310249;-4;5;1;1333;-723;3849;0.5352775;1.060666;1.996904;0.5368593;1.204816;1.470748;0.5382282;1.329572;1.007723;0.4887639;1.737305;0.399637;0.2137729;1.855999;0.1080214;-0.1218978;1.788925;0.2595649;-0.01566355;0.8745534;0.3642899;0;0;0;0.7303294;1.918666;0.1080181;1.020297;1.927493;0.2595603;1.178679;1.036635;0.5905615;1.163721;0.1219101;0.3438989;0.2233094;1.044681;2.038767;0.2146773;-0.2064071;1.280109;0.3789768;0.1466269;2.568791;0.2233094;1.044681;2.038767;0.2146773;-0.2064071;1.280109;0.3789768;0.1466269;2.568791
160630.5596;NotLabelled;16384;-0.3767313;0.5027701;-0.534626;-0.5652176;17;29;-38;-794;4096;-886;65536;0.5720221;-0.3531856;0.4542936;0.5845237;-45;88;24;-2335;3894;98;8192;0.6094183;-0.7101604;-0.3393352;-0.09556787;-11;-18;-14;1176;3672;76;32768;0.7452296;-0.5955678;-0.1274238;-0.2714681;8;-15;30;1513;3603;-740;256;0.2063712;-0.004155125;-0.934665;-0.2894737;-24;-23;-1;-752;2272;3324;128;-0.2188366;0.01108033;0.9422019;0.2534626;32;-15;5;440;2144;-3474;4;-0.434903;0.1592798;-0.4903047;-0.7383025;3;-10;-31;2132;3472;-560;16;-0.101108;-0.9501809;-0.1301939;0.2645429;0;11;0;-765;-1073;3948;2;0.6691386;-0.4792244;-0.2202216;-0.5235457;-4;-10;35;-2210;3460;-114;8;-0.1315789;-0.927132;0.1163435;0.3310249;-4;2;1;1275;-669;3797;0.5219858;1.08041;1.97755;0.5235057;1.21891;1.449879;0.5248201;1.338695;0.9855428;0.4770443;1.741462;0.3740217;0.2026592;1.858444;0.08114614;-0.1333389;1.793531;0.2329048;-0.02354835;0.8808658;0.3483067;0;0;0;0.7193806;1.919738;0.08114296;1.00922;1.929061;0.2328997;1.164515;1.036799;0.5615733;1.147983;0.1250389;0.3042678;0.2100226;1.064875;2.019619;0.21157;-0.1917193;1.270068;0.3669936;0.1587458;2.560551;0.2100226;1.064875;2.019619;0.21157;-0.1917193;1.270068;0.3669936;0.1587458;2.560551
160653.0637;NotLabelled;16384;-0.3725762;0.5083103;-0.533241;-0.5643242;24;-3;-24;-828;3948;-972;65536;0.5720221;-0.3573407;0.4501385;0.5852125;-28;-8;3;-2117;3934;-1056;8192;0.6121883;-0.7090953;-0.3365651;-0.09556787;-12;-20;-14;1204;3654;134;32768;0.7482173;-0.5914127;-0.1232687;-0.2742382;8;-17;34;1549;3575;-670;256;0.2077562;-0.006925208;-0.9356189;-0.2853186;-23;-31;-2;-708;2234;3462;128;-0.2202216;0.01246537;0.9433354;0.2479224;28;-21;4;512;2058;-3542;4;-0.4265928;0.166205;-0.4944598;-0.7388532;3;-10;-34;1908;3508;-548;16;-0.101108;-0.9496023;-0.134349;0.2645429;-1;16;0;-875;-1141;3916;2;0.6694695;-0.4819945;-0.2229917;-0.5193906;-5;-15;36;-2140;3562;-28;8;-0.132964;-0.9274278;0.1163435;0.3296399;-3;-2;2;1189;-693;3839;0.5059845;1.095067;1.966649;0.5074548;1.229049;1.437812;0.5087254;1.344858;0.9724683;0.4645959;1.743192;0.3577771;0.1914967;1.859593;0.06347188;-0.1451842;1.797906;0.2150632;-0.03222696;0.8860912;0.3340672;0;0;0;0.7085835;1.917721;0.06401467;0.9981828;1.926439;0.216265;1.149833;1.027822;0.5289406;1.129265;0.121166;0.2544615;0.1940251;1.079893;2.008878;0.2049226;-0.1821315;1.268584;0.3524323;0.1692681;2.559741;0.1940251;1.079893;2.008878;0.2049226;-0.1821315;1.268584;0.3524323;0.1692681;2.559741
160673.9877;NotLabelled;16384;-0.367036;0.5096953;-0.534626;-0.5653939;34;-37;-12;-566;4638;-1080;65536;0.5692521;-0.3601108;0.4501385;0.5862147;-20;-17;16;-1171;4186;-148;8192;0.6149584;-0.7088436;-0.33241;-0.09418282;-14;-25;-14;1198;3668;78;32768;0.7500522;-0.5886427;-0.1191136;-0.2770083;7;-17;38;1493;3537;-716;256;0.2091413;-0.009695291;-0.9365431;-0.2811634;-21;-35;-2;-650;2076;3544;128;-0.2202216;0.01385042;0.9443983;0.2437673;19;-26;4;438;1986;-3714;4;-0.4238227;0.1689751;-0.4958449;-0.7388908;3;-11;-34;1800;3508;-620;16;-0.09972299;-0.9493528;-0.1371191;0.2645429;-1;20;0;-839;-1071;3876;2;0.6699851;-0.4875346;-0.2285319;-0.5110803;-5;-13;38;-1868;3524;28;8;-0.134349;-0.9272282;0.1163435;0.3296399;-1;-2;1;1263;-679;3767;0.4864423;1.10464;1.95158;0.4878498;1.232914;1.421329;0.4890656;1.343701;0.9547642;0.4472396;1.737588;0.3370536;0.1747909;1.853414;0.04192031;-0.1622266;1.794963;0.1940449;-0.0428313;0.8865793;0.3315696;0;0;0;0.6922255;1.90836;0.04191756;0.98191;1.916458;0.19404;1.135666;1.0185;0.507577;1.114923;0.1158524;0.2202008;0.1744878;1.089922;1.994007;0.200908;-0.1866474;1.279493;0.342332;0.1675546;2.570565;0.1744878;1.089922;1.994007;0.200908;-0.1866474;1.279493;0.342332;0.1675546;2.570565
160694.5183;NotLabelled;16384;-0.3504155;0.5096953;-0.536011;-0.5745536;33;-36;-18;-88;4550;-626;65536;0.5581717;-0.365651;0.4542936;0.5902211;-13;-39;40;-1303;4472;-574;8192;0.6177285;-0.7077277;-0.3296399;-0.09418282;-15;-32;-17;1152;3638;6;32768;0.7520496;-0.5858725;-0.1135734;-0.2797784;9;-18;41;1409;3559;-840;256;0.2132964;-0.02077562;-0.9374788;-0.2742382;-9;-45;2;-514;2152;3550;128;-0.2229917;0.01800554;0.9461294;0.234072;34;-19;2;356;1818;-3054;4;-0.4196676;0.1731302;-0.4986149;-0.7384363;1;-11;-36;1670;3580;-590;16;-0.09972299;-0.9489486;-0.1398892;0.2645429;0;17;1;-761;-1091;3792;2;0.6707364;-0.4903047;-0.232687;-0.5055401;-4;-13;39;-1882;3512;66;8;-0.134349;-0.9272282;0.1163435;0.3296399;-2;1;2;1169;-593;3777;0.4737419;1.114438;1.943122;0.4751038;1.238553;1.411882;0.4762792;1.34568;0.944463;0.4373596;1.735106;0.3237422;0.1658567;1.850366;0.02751713;-0.1716312;1.795157;0.1798093;-0.04847336;0.888546;0.3254725;0;0;0;0.6836213;1.902112;0.02751395;0.9732346;1.909577;0.1798044;1.127153;1.009774;0.4879264;1.104439;0.1105413;0.1901826;0.1617913;1.100053;1.98569;0.1964408;-0.181654;1.28079;0.3312013;0.170913;2.573022;0.1617913;1.100053;1.98569;0.1964408;-0.181654;1.28079;0.3312013;0.170913;2.573022
160715.1539;NotLabelled;16384;-0.3462604;0.5110803;-0.536011;-0.575841;34;-17;-15;-136;3926;-450;65536;0.5512465;-0.368421;0.4598338;0.5907166;-12;-46;46;-1405;4014;-26;8192;0.6204986;-0.7080462;-0.3240997;-0.09279778;-16;-35;-21;1162;3768;-48;32768;0.7550496;-0.5817174;-0.1080332;-0.2825485;12;-18;42;1443;3557;-734;256;0.2146814;-0.02770083;-0.9377897;-0.2714681;-8;-48;3;-370;2000;3660;128;-0.2229917;0.02077562;0.9467537;0.2313019;17;-22;0;392;1806;-3818;4;-0.4141274;0.1759003;-0.501385;-0.7390336;0;-15;-36;1674;3568;-652;16;-0.09833795;-0.9486807;-0.1426593;0.2645429;0;18;1;-871;-1051;3702;2;0.6698377;-0.4944598;-0.2354571;-0.501385;-4;-11;40;-1854;3526;98;8;-0.134349;-0.9274009;0.1149584;0.3296399;-2;3;0;1201;-749;3831;0.4334339;1.127684;1.918012;0.4346907;1.242206;1.384623;0.4357738;1.340894;0.915349;0.4057315;1.724706;0.2906505;0.1370062;1.842741;-0.007010661;-0.2017124;1.796355;0.145493;-0.05990188;0.894908;0.3055276;0;0;0;0.6557633;1.883346;-0.007013798;0.9453484;1.886141;0.1454879;1.095987;0.9843678;0.4494418;1.072936;0.08916545;0.1398146;0.1214916;1.114069;1.960894;0.1718011;-0.1760135;1.272406;0.2866555;0.1784179;2.56605;0.1214916;1.114069;1.960894;0.1718011;-0.1760135;1.272406;0.2866555;0.1784179;2.56605
160735.5333;NotLabelled;16384;-0.3421052;0.5124654;-0.533241;-0.5796528;31;-3;-15;-730;3772;-272;65536;0.5443213;-0.3711911;0.4639889;0.5921535;-20;-27;46;-1899;3764;-198;8192;0.6274238;-0.7075394;-0.3116343;-0.09279778;-16;-31;-35;1508;4170;-128;32768;0.760273;-0.5747922;-0.09695291;-0.2867036;12;-22;38;1397;3769;-592;256;0.2160665;-0.033241;-0.9380894;-0.2686981;-8;-41;3;-304;2004;3608;128;-0.2243767;0.02216066;0.9477319;0.2257618;35;-23;2;374;1740;-4004;4;-0.4099723;0.1786704;-0.5041551;-0.7388012;0;-18;-37;1710;3678;-662;16;-0.09833795;-0.9482599;-0.1454294;0.2645429;2;18;1;-949;-1113;3802;2;0.6694108;-0.4972299;-0.2396122;-0.4972299;-4;-10;41;-1848;3572;134;8;-0.134349;-0.9274009;0.1149584;0.3296399;-2;6;0;1265;-619;3753;0.4233803;1.128767;1.900172;0.4246114;1.240946;1.366284;0.4256717;1.337571;0.8965813;0.4009196;1.71992;0.2707549;0.1338649;1.84069;-0.02731235;-0.2054763;1.799317;0.125248;-0.05957025;0.8996308;0.2913964;0;0;0;0.6531219;1.874306;-0.02731526;0.9426892;1.873648;0.1252439;1.091255;0.9695814;0.4233476;1.067682;0.07936263;0.09970856;0.1114402;1.115341;1.943128;0.1717151;-0.1821535;1.269531;0.2773692;0.1706417;2.564405;0.1114402;1.115341;1.943128;0.1717151;-0.1821535;1.269531;0.2773692;0.1706417;2.564405
160755.7194;NotLabelled;16384;-0.3379501;0.5152354;-0.534626;-0.5783573;19;-11;-20;-1032;3846;-278;65536;0.5387812;-0.3753462;0.4653739;0.5935125;-26;-6;39;-1635;3702;-254;8192;0.6315789;-0.7062598;-0.3060942;-0.09279778;-16;-28;-38;1690;4210;-278;32768;0.7623544;-0.5720221;-0.09279778;-0.2880886;13;-17;36;1323;3965;-718;256;0.2174515;-0.03878116;-0.938346;-0.265928;-7;-34;3;-166;1928;3544;128;-0.2243767;0.02493075;0.9489657;0.2202216;23;-24;1;364;1736;-3778;4;-0.400277;0.1855956;-0.5096953;-0.738609;-2;-14;-38;1628;3632;-676;16;-0.09556787;-0.9470677;-0.1523546;0.265928;3;19;0;-997;-1045;3812;2;0.6694237;-0.5;-0.2423823;-0.4930748;-3;-14;41;-1758;3584;170;8;-0.134349;-0.9275715;0.1135734;0.3296399;0;7;1;1201;-569;3735;0.4057744;1.136898;1.888243;0.406943;1.243405;1.353195;0.4079484;1.335041;0.8824931;0.3874692;1.715509;0.255367;0.1217977;1.838163;-0.04316679;-0.2180013;1.801;0.1094595;-0.0618475;0.9035676;0.2784552;0;0;0;0.6413894;1.86613;-0.04317027;0.9309049;1.862841;0.1094533;1.075291;0.9521401;0.3888303;1.047632;0.07130837;0.04075348;0.09383917;1.123928;1.931376;0.1611956;-0.1803992;1.27179;0.2583626;0.1742578;2.566821;0.09383917;1.123928;1.931376;0.1611956;-0.1803992;1.27179;0.2583626;0.1742578;2.566821
160776.5698;NotLabelled;16384;-0.333795;0.5166205;-0.536011;-0.5782529;12;-20;-24;-1020;3870;-640;65536;0.534626;-0.3808864;0.4653739;0.5937404;-29;0;34;-931;3846;-142;8192;0.634349;-0.7065613;-0.299169;-0.09418282;-12;-26;-39;1856;4118;-276;32768;0.7643949;-0.5692521;-0.08864266;-0.2894737;16;-10;35;1281;4367;-716;256;0.2174515;-0.04293629;-0.9389458;-0.2631579;-7;-30;3;-156;1982;3552;128;-0.2257618;0.02770083;0.9498295;0.2146814;27;-29;3;232;1694;-3670;4;-0.3961219;0.1883656;-0.5124654;-0.7382311;-3;-14;-37;1540;3558;-784;16;-0.09418282;-0.9469826;-0.1537396;0.265928;4;19;1;-931;-1091;3810;2;0.6697904;-0.5055401;-0.2493075;-0.4833795;-2;-13;41;-1588;3608;176;8;-0.132964;-0.9284304;0.1121884;0.3282548;0;5;2;1275;-509;3737;0.3943583;1.143723;1.869727;0.3954688;1.244929;1.333651;0.3964231;1.331902;0.8620653;0.3801769;1.710492;0.2336805;0.1158991;1.835042;-0.06530514;-0.224306;1.802087;0.08738256;-0.0681026;0.9066641;0.2666796;0;0;0;0.6357645;1.857351;-0.06530827;0.9252052;1.851416;0.08737713;1.06864;0.9375734;0.356809;1.041154;0.06048965;-0.0006203651;0.08242774;1.131181;1.91302;0.1638814;-0.1878798;1.285084;0.2555446;0.1648982;2.581029;0.08242774;1.131181;1.91302;0.1638814;-0.1878798;1.285084;0.2555446;0.1648982;2.581029
160797.5309;NotLabelled;16384;-0.3227147;0.5221606;-0.5387812;-0.5769908;14;-18;-32;-1134;3762;-1018;65536;0.5263157;-0.3919668;0.466759;0.5928658;-27;3;30;-971;4222;-50;8192;0.6371191;-0.7062069;-0.2936288;-0.09556787;-9;-21;-37;1854;4238;-216;32768;0.7667366;-0.5650969;-0.08587258;-0.2922437;16;-6;36;1337;4485;-584;256;0.2202216;-0.05124654;-0.9394197;-0.2576177;-5;-28;1;-232;1752;3654;128;-0.2271468;0.03185596;0.9515095;0.2049861;28;-15;4;280;1422;-3786;4;-0.3905817;0.1911357;-0.5166205;-0.7375746;-4;-16;-36;1362;3602;-756;16;-0.09141274;-0.9468002;-0.1565097;0.265928;5;18;1;-1093;-953;3818;2;0.6695799;-0.5096953;-0.2520775;-0.4778393;-2;-14;41;-1642;3642;172;8;-0.132964;-0.9284304;0.1121884;0.3282548;3;4;1;1185;-625;3703;0.3825943;1.154004;1.863052;0.3836465;1.249886;1.325998;0.3845494;1.332175;0.8535728;0.372095;1.708508;0.223747;0.1091282;1.834311;-0.07586882;-0.2314491;1.80502;0.07673562;-0.07448512;0.9095216;0.2549871;0;0;0;0.6291743;1.85191;-0.07564127;0.9184618;1.843932;0.07724124;1.055539;0.923852;0.3281156;1.027151;0.0506041;-0.03851676;0.0706687;1.141892;1.906501;0.156874;-0.183543;1.292785;0.2448028;0.1666732;2.589683;0.0706687;1.141892;1.906501;0.156874;-0.183543;1.292785;0.2448028;0.1666732;2.589683
160818.5209;NotLabelled;16384;-0.3171745;0.5249307;-0.5415512;-0.5749525;16;-21;-34;-1122;3542;-1074;65536;0.5235457;-0.3975069;0.4653739;0.5927185;-27;-2;26;-935;4020;200;8192;0.6398892;-0.7056036;-0.2880886;-0.09833795;-9;-21;-35;1880;4280;-112;32768;0.7684959;-0.5609418;-0.08310249;-0.2963989;13;-4;38;1147;4535;-452;256;0.2202216;-0.05540166;-0.9395626;-0.2562327;-5;-24;0;-44;1716;3620;128;-0.2285319;0.03185596;0.9523548;0.199446;32;-14;5;252;1376;-3776;4;-0.3850415;0.1939058;-0.5193906;-0.7378191;-5;-19;-35;1324;3532;-790;16;-0.0900277;-0.946471;-0.1592798;0.265928;5;21;2;-1011;-941;3894;2;0.6693693;-0.5124654;-0.2548476;-0.4736842;0;-16;40;-1374;3686;208;8;-0.1315789;-0.9286277;0.1121884;0.3282548;6;2;0;1217;-755;3743;0.3605862;1.165828;1.813565;0.3615348;1.252284;1.274913;0.3623467;1.326281;0.8011172;0.3559589;1.69802;0.1684781;0.09502783;1.825923;-0.1320269;-0.2459418;1.803454;0.02085839;-0.08465775;0.9153581;0.2296712;0;0;0;0.6152951;1.834864;-0.13203;0.9044576;1.823224;0.020854;1.036805;0.9025469;0.2720764;1.012393;0.0338769;-0.1055555;0.0486688;1.15448;1.85728;0.1421348;-0.1790509;1.262455;0.2173077;0.1660414;2.561527;0.0486688;1.15448;1.85728;0.1421348;-0.1790509;1.262455;0.2173077;0.1660414;2.561527
160839.6881;NotLabelled;16384;-0.3102493;0.5263157;-0.5429363;-0.5761574;17;-30;-31;-950;3622;-1148;65536;0.5193906;-0.4016621;0.4653739;0.5935723;-23;-9;22;-915;3954;310;8192;0.6454294;-0.7038996;-0.2797784;-0.09833795;-13;-25;-23;1846;3916;-52;32768;0.7715291;-0.5540166;-0.07617728;-0.3033241;7;-4;44;909;4467;-678;256;0.2216066;-0.05817174;-0.9398209;-0.2534626;-5;-24;1;36;1764;3608;128;-0.2299169;0.03185596;0.9531652;0.1939058;31;-12;6;246;1232;-4006;4;-0.3808864;0.1952908;-0.5221606;-0.7376553;-5;-20;-35;1324;3630;-784;16;-0.08864266;-0.9461314;-0.1620499;0.265928;4;20;2;-1107;-1041;3922;2;0.6684774;-0.5166205;-0.2590028;-0.468144;1;-17;40;-1286;3738;292;8;-0.1301939;-0.9283323;0.1121884;0.3296399;6;-1;-1;1207;-741;3795;0.3508343;1.17155;1.793494;0.3517176;1.252037;1.253917;0.3524719;1.320785;0.7793319;0.349224;1.69201;0.1463676;0.08938313;1.821847;-0.1542531;-0.251765;1.802388;-0.001352951;-0.09149979;0.9171109;0.2198472;0;0;0;0.6097071;1.8264;-0.1542559;0.8987604;1.812455;-0.001357973;1.025911;0.8882184;0.2392547;1.001396;0.02459526;-0.149772;0.03892225;1.160686;1.837369;0.1388202;-0.1792178;1.258116;0.2105057;0.1642466;2.557815;0.03892225;1.160686;1.837369;0.1388202;-0.1792178;1.258116;0.2105057;0.1642466;2.557815
160860.528;NotLabelled;16384;-0.3033241;0.5277008;-0.5443213;-0.57727;18;-28;-28;-808;3950;-1152;65536;0.5152354;-0.4058172;0.466759;0.5932798;-20;-12;25;-873;3968;154;8192;0.6468144;-0.7037238;-0.2770083;-0.09833795;-14;-25;-20;1570;3956;-72;32768;0.7721368;-0.5512465;-0.0734072;-0.3074792;6;-2;42;761;4173;-690;256;0.2229917;-0.06094183;-0.9396902;-0.2520775;-7;-21;0;-178;1820;3700;128;-0.2313019;0.03185596;0.9539407;0.1883656;29;-13;8;166;1374;-4010;4;-0.3698061;0.199446;-0.5290859;-0.7372469;-8;-17;-34;1274;3808;-676;16;-0.08587258;-0.9450308;-0.16759;0.267313;0;17;1;-1099;-1133;3884;2;0.6691084;-0.5193906;-0.2617728;-0.4626039;1;-15;39;-1152;3836;278;8;-0.1301939;-0.9283323;0.1121884;0.3296399;8;-2;-1;1067;-765;3793;0.3375079;1.18111;1.777633;0.3383258;1.25563;1.2372;0.3390225;1.319129;0.7618835;0.3379187;1.687644;0.1273302;0.07883295;1.817681;-0.1738552;-0.2624233;1.800842;-0.0208862;-0.09766238;0.9188228;0.2098182;0;0;0;0.5991747;1.819241;-0.1738585;0.8881408;1.804291;-0.02089095;1.014221;0.8761811;0.2049246;0.9871544;0.02234721;-0.2049807;0.02560133;1.170732;1.821663;0.1289672;-0.1740892;1.254539;0.1945653;0.1677494;2.55499;0.02560133;1.170732;1.821663;0.1289672;-0.1740892;1.254539;0.1945653;0.1677494;2.55499
160880.56;NotLabelled;16384;-0.2977839;0.5290859;-0.5470914;-0.5762672;16;-24;-25;-806;4056;-1020;65536;0.5110803;-0.4085872;0.466759;0.59497;-20;-8;25;-1207;4088;114;8192;0.6495845;-0.7029874;-0.2728532;-0.09695291;-13;-22;-20;1416;3916;-54;32768;0.7738132;-0.5484765;-0.07063711;-0.3088643;5;-10;37;757;3997;-740;256;0.2243767;-0.06371191;-0.9399158;-0.2493075;-5;-25;0;-182;1818;3736;128;-0.232687;0.033241;0.954368;0.1842105;26;-13;7;254;1314;-3790;4;-0.365651;0.2022161;-0.533241;-0.7355692;-7;-15;-34;1208;3748;-692;16;-0.08587258;-0.9449263;-0.1703601;0.265928;0;13;2;-1093;-1177;3914;2;0.6676389;-0.5235457;-0.2645429;-0.4584487;1;-14;38;-1106;4000;240;8;-0.1288089;-0.9285255;0.1121884;0.3296399;8;0;-1;1115;-881;3769;0.3278058;1.189224;1.758968;0.328558;1.257778;1.217746;0.3291972;1.316031;0.7417579;0.3299732;1.683612;0.1066628;0.0715541;1.814528;-0.1947149;-0.2697838;1.799656;-0.04172246;-0.1006267;0.921016;0.1984993;0;0;0;0.5918969;1.81343;-0.1947181;0.8807832;1.797229;-0.0417273;1.005108;0.867979;0.1803367;0.9767402;0.01857376;-0.2385833;0.01590443;1.179333;1.803148;0.1261511;-0.177969;1.267952;0.1889391;0.1611495;2.569252;0.01590443;1.179333;1.803148;0.1261511;-0.177969;1.267952;0.1889391;0.1611495;2.569252
160900.5113;NotLabelled;16384;-0.2867036;0.5304709;-0.5484765;-0.5792886;16;-26;-24;-1136;3636;-1182;65536;0.5027701;-0.4155124;0.468144;0.5961651;-18;-18;29;-809;4108;354;8192;0.6523545;-0.7014904;-0.2700831;-0.09695291;-14;-21;-19;1232;3950;-112;32768;0.7750406;-0.5470914;-0.06786703;-0.3088643;4;-21;30;743;3867;-778;256;0.2257618;-0.06648199;-0.9401229;-0.2465374;-5;-25;0;-44;1720;3710;128;-0.234072;0.033241;0.9550823;0.1786704;26;-12;7;290;1238;-3942;4;-0.3614958;0.2036011;-0.536011;-0.7352275;-7;-12;-33;1302;3722;-590;16;-0.08587258;-0.9446755;-0.1717452;0.265928;-1;7;3;-997;-1119;3830;2;0.6665404;-0.5304709;-0.2700831;-0.4487534;0;-13;39;-948;3900;196;8;-0.1274238;-0.9285482;0.1135734;0.3296399;1;-6;-6;1441;-983;4051;0.3197426;1.195115;1.74383;0.3204495;1.259545;1.202101;0.321049;1.31417;0.7256833;0.3239281;1.679049;0.08903794;0.0662597;1.810179;-0.2128891;-0.275153;1.797929;-0.0598319;-0.106741;0.9219971;0.1905899;0;0;0;0.5865875;1.806074;-0.2128921;0.8753806;1.788851;-0.05983645;1.000153;0.8582668;0.1563098;0.9732563;0.01259995;-0.2702028;0.007844865;1.185562;1.78811;0.1192236;-0.1786263;1.270959;0.1718451;0.1618271;2.572362;0.007844865;1.185562;1.78811;0.1192236;-0.1786263;1.270959;0.1718451;0.1618271;2.572362
160920.5974;NotLabelled;16384;-0.2811634;0.5318559;-0.5498615;-0.579421;16;-23;-22;-990;3614;-954;65536;0.4972299;-0.4182825;0.4695291;0.5977831;-19;-18;28;-943;3840;376;8192;0.6551247;-0.7006859;-0.265928;-0.09556787;-15;-24;-21;1134;4032;-82;32768;0.7762537;-0.5457063;-0.06509695;-0.3088643;4;-28;19;715;3781;-804;256;0.2271468;-0.07202215;-0.9401035;-0.2437673;-1;-20;-1;-36;1660;3554;128;-0.2354571;0.03462604;0.9562105;0.1703601;21;-16;5;120;1198;-3796;4;-0.3573407;0.2063712;-0.5387812;-0.7344613;-7;-8;-33;1276;3758;-668;16;-0.08587258;-0.9446755;-0.1717452;0.265928;-1;3;2;-1111;-1131;3870;2;0.6652296;-0.534626;-0.2742382;-0.4432133;-1;-14;37;-982;3836;134;8;-0.1288089;-0.9276936;0.1149584;0.3310249;-2;-12;-7;1207;-759;4109;0.2995193;1.203367;1.71562;0.3001609;1.261837;1.173216;0.3007028;1.311223;0.6962264;0.3056594;1.673404;0.05805503;0.04873783;1.804756;-0.244411;-0.2927312;1.795127;-0.09129247;-0.1146165;0.9247808;0.1715806;0;0;0;0.569033;1.797635;-0.2444146;0.8577304;1.779382;-0.09129781;0.9832274;0.8474226;0.1184093;0.9570187;0.00413537;-0.3128307;-0.01237309;1.1943;1.760041;0.1020907;-0.1743202;1.255428;0.1488028;0.1670661;2.556811;-0.01237309;1.1943;1.760041;0.1020907;-0.1743202;1.255428;0.1488028;0.1670661;2.556811
160941.6017;NotLabelled;16384;-0.2770083;0.533241;-0.5512465;-0.5788331;8;-13;-22;-1328;3984;-880;65536;0.4944598;-0.4210526;0.4709141;0.5970461;-20;-5;26;-1025;4036;78;8192;0.6565097;-0.7009542;-0.2617728;-0.09556787;-15;-21;-21;1242;3868;-82;32768;0.7774649;-0.5457063;-0.06371191;-0.3060942;5;-29;9;637;3829;-834;256;0.2285319;-0.07479224;-0.9399097;-0.2423823;-1;-22;0;-62;1638;3602;128;-0.2368421;0.03462604;0.9565996;0.166205;19;-12;5;134;1194;-3808;4;-0.3545706;0.2091413;-0.5415512;-0.7329815;-8;-5;-31;1178;3696;-608;16;-0.08587258;-0.9446755;-0.1717452;0.265928;-1;0;1;-1101;-1021;3812;2;0.664605;-0.5373961;-0.2770083;-0.4390582;1;-11;36;-1030;3790;70;8;-0.1301939;-0.9273275;0.1163435;0.3310249;-4;-17;-8;1079;-565;3855;0.2877328;1.213301;1.69916;0.2882805;1.263207;1.1559;0.2887398;1.30506;0.6781908;0.2976336;1.665394;0.03901742;0.04215052;1.798724;-0.2638022;-0.2993931;1.793272;-0.1106444;-0.1195377;0.9260321;0.1611571;0;0;0;0.5623361;1.785884;-0.2638054;0.8508258;1.764883;-0.1106495;0.9765731;0.831665;0.09322798;0.9516987;-0.009221315;-0.3427533;-0.02415168;1.204937;1.743772;0.09568653;-0.1688561;1.254702;0.1350322;0.1725307;2.556329;-0.02415168;1.204937;1.743772;0.09568653;-0.1688561;1.254702;0.1350322;0.1725307;2.556329
160963.5125;NotLabelled;16384;-0.2728532;0.534626;-0.5540166;-0.5768811;3;-15;-26;-1480;3892;-932;65536;0.4916897;-0.4252077;0.4709141;0.5963887;-19;1;24;-805;4294;166;8192;0.6606648;-0.699601;-0.2548476;-0.09556787;-11;-23;-23;1198;3746;-36;32768;0.7815379;-0.5443213;-0.06509695;-0.2977839;7;-26;-6;867;3671;-914;256;0.2299169;-0.07756232;-0.9397035;-0.2409972;-2;-26;0;-48;1636;3606;128;-0.2368421;0.03601108;0.9570256;0.1634349;11;-13;1;160;978;-3860;4;-0.3518005;0.2119114;-0.5443213;-0.7314672;-8;-6;-29;1052;3708;-668;16;-0.08587258;-0.9450643;-0.1717452;0.2645429;0;2;2;-1127;-917;3712;2;0.6639307;-0.5401662;-0.2797784;-0.434903;2;-5;35;-920;3842;78;8;-0.1301939;-0.9264799;0.1191136;0.33241;-2;-15;-9;1105;-527;3787;0.2844381;1.218537;1.684431;0.2849368;1.26398;1.14078;0.2853531;1.301909;0.6627431;0.296073;1.661338;0.02308854;0.04126627;1.795575;-0.2799;-0.3002948;1.792084;-0.126724;-0.1202994;0.9273434;0.1528385;0;0;0;0.561379;1.780063;-0.2799034;0.8497632;1.757784;-0.1267294;0.9722058;0.823117;0.07247233;0.950184;-0.01787639;-0.3634555;-0.02744251;1.21054;1.729138;0.09458768;-0.1680634;1.254354;0.1284585;0.1733227;2.556135;-0.02744251;1.21054;1.729138;0.09458768;-0.1680634;1.254354;0.1284585;0.1733227;2.556135
160984.7798;NotLabelled;16384;-0.2686981;0.536011;-0.5554016;-0.576214;5;-20;-26;-1440;3598;-1206;65536;0.4889196;-0.4293629;0.4709141;0.5956886;-19;1;22;-549;4146;264;8192;0.6634349;-0.69848;-0.2506925;-0.09556787;-15;-22;-22;1350;3778;52;32768;0.7831085;-0.5443213;-0.06509695;-0.2936288;8;-25;-9;953;3715;-840;256;0.2299169;-0.08171745;-0.9400576;-0.2382271;-1;-27;1;100;1608;3532;128;-0.2382271;0.03739612;0.9573293;0.1592798;20;-20;2;148;992;-3858;4;-0.3462604;0.2174515;-0.5498615;-0.7283344;-5;-4;-28;966;3870;-562;16;-0.08448754;-0.9453231;-0.1731302;0.2631579;2;7;4;-1143;-1001;3772;2;0.6623048;-0.5429363;-0.2825485;-0.432133;3;-3;34;-808;3820;100;8;-0.1315789;-0.9256068;0.1204986;0.333795;-2;-7;-9;1301;-669;3841;0.2816271;1.220095;1.66663;0.2820971;1.262933;1.122767;0.2824881;1.298571;0.644554;0.2950273;1.657104;0.004429519;0.04090056;1.792253;-0.2987246;-0.3006669;1.790719;-0.1455308;-0.1236751;0.9284174;0.1433281;0;0;0;0.5609267;1.774066;-0.2987279;0.8491994;1.750505;-0.1455361;0.9700877;0.8131964;0.04185474;0.9616076;-0.0297358;-0.3907895;-0.03025115;1.212312;1.711391;0.09381023;-0.1709774;1.250981;0.1184113;0.1698587;2.553115;-0.03025115;1.212312;1.711391;0.09381023;-0.1709774;1.250981;0.1184113;0.1698587;2.553115
161005.5058;NotLabelled;16384;-0.2631579;0.5373961;-0.5581717;-0.5748022;6;-24;-26;-1340;3406;-1214;65536;0.4861496;-0.432133;0.4709141;0.5959527;-18;-4;19;-855;3984;440;8192;0.666205;-0.6970186;-0.2479224;-0.09418282;-15;-20;-17;1458;3810;0;32768;0.7839066;-0.5443213;-0.06786703;-0.2908587;8;-18;-10;959;3799;-802;256;0.2313019;-0.08448754;-0.9398229;-0.2368421;-3;-23;1;158;1680;3556;128;-0.2382271;0.03878116;0.9579563;0.1551246;19;-19;1;62;1032;-3918;4;-0.3434903;0.2202216;-0.5526316;-0.7267154;-6;-1;-27;926;3798;-494;16;-0.08310249;-0.9451912;-0.1745152;0.2631579;3;11;5;-1189;-1007;3778;2;0.6586772;-0.5498615;-0.2880886;-0.4252077;3;-7;28;-758;3856;154;8;-0.132964;-0.9242234;0.1218837;0.3365651;-7;-5;-8;1433;-649;3911;0.2744296;1.225697;1.658163;0.2748549;1.264445;1.113994;0.2752066;1.296488;0.6355261;0.2907695;1.652727;-0.00581193;0.03776895;1.78917;-0.3093279;-0.3037374;1.791278;-0.1560039;-0.1265914;0.9294093;0.1340488;0;0;0;0.5576068;1.766226;-0.3094609;0.8457129;1.740546;-0.156296;0.9659778;0.8003588;0.01650304;0.9622653;-0.04368091;-0.4140439;-0.03744495;1.218251;1.703007;0.08737165;-0.1740344;1.270779;0.1056297;0.1636772;2.573832;-0.03744495;1.218251;1.703007;0.08737165;-0.1740344;1.270779;0.1056297;0.1636772;2.573832
161025.5437;NotLabelled;16384;-0.2534626;0.5401662;-0.5623268;-0.5725083;6;-23;-27;-1480;3784;-1058;65536;0.4806094;-0.4376731;0.4709141;0.5964031;-13;-7;15;-445;4010;414;8192;0.66759;-0.6963702;-0.2465374;-0.09279778;-13;-21;-14;1226;3628;-56;32768;0.7848079;-0.5443213;-0.06925207;-0.2880886;8;-17;-9;975;3725;-878;256;0.232687;-0.09141274;-0.9398709;-0.232687;-8;-26;2;88;1734;3536;128;-0.2396122;0.04155125;0.958804;0.1468144;21;-15;2;-126;998;-4054;4;-0.3421052;0.2229917;-0.5554016;-0.7244086;-8;-3;-26;834;3732;-522;16;-0.08171745;-0.9450552;-0.1759003;0.2631579;3;10;4;-1267;-997;3908;2;0.6589713;-0.5512465;-0.2908587;-0.4210526;1;-4;26;-808;3914;126;8;-0.134349;-0.9233335;0.1232687;0.3379501;-7;-13;-7;1473;-555;3801;0.2691253;1.226376;1.635627;0.2695057;1.261045;1.091182;0.2698179;1.2895;0.6124878;0.2873377;1.644852;-0.02929109;0.03510103;1.782218;-0.3330266;-0.3064187;1.786278;-0.1797719;-0.1301541;0.9299431;0.1267412;0;0;0;0.5548139;1.756595;-0.333029;0.8427549;1.729622;-0.1797767;0.9656348;0.7900572;-0.005438924;0.9697276;-0.05599165;-0.4320229;-0.04274559;1.219266;1.680551;0.08380693;-0.1773267;1.262973;0.09618235;0.1578109;2.566758;-0.04274559;1.219266;1.680551;0.08380693;-0.1773267;1.262973;0.09618235;0.1578109;2.566758
161047.5173;NotLabelled;16384;-0.2479224;0.5401662;-0.5650969;-0.5722066;5;-30;-22;-1360;3866;-1170;65536;0.4778393;-0.4404432;0.4709141;0.5965897;-13;-7;16;-641;4112;406;8192;0.6703601;-0.6948658;-0.2437673;-0.09141274;-16;-24;-13;988;3728;-50;32768;0.7866536;-0.5429363;-0.07063711;-0.2853186;10;-15;-12;927;3699;-1152;256;0.234072;-0.09418282;-0.9399351;-0.2299169;-5;-27;2;112;1662;3598;128;-0.2409972;0.04293629;0.959023;0.1426593;26;-14;2;4;916;-3856;4;-0.3393352;0.2243767;-0.5567867;-0.7242205;-8;-7;-24;846;3768;-548;16;-0.08171745;-0.9447963;-0.1772853;0.2631579;2;8;2;-1215;-993;3886;2;0.6577985;-0.5540166;-0.2922437;-0.4182825;0;-6;26;-838;3976;122;8;-0.1357341;-0.9227569;0.1260388;0.3379501;-6;-21;-4;1449;-743;3799;0.2568809;1.231635;1.606451;0.2571721;1.258158;1.061549;0.2574057;1.279452;0.5824828;0.2798304;1.631627;-0.06089333;0.02950044;1.771224;-0.3651878;-0.3118823;1.780866;-0.2118775;-0.1367071;0.9308527;0.1123446;0;0;0;0.5487927;1.738159;-0.365191;0.8363619;1.707753;-0.2118825;0.9603741;0.7680624;-0.03903347;0.9713982;-0.07931542;-0.4628474;-0.05498266;1.225198;1.651528;0.07153255;-0.1754169;1.247634;0.0756048;0.1571476;2.552131;-0.05498266;1.225198;1.651528;0.07153255;-0.1754169;1.247634;0.0756048;0.1571476;2.552131
161067.5158;NotLabelled;16384;-0.2423823;0.5401662;-0.567867;-0.5718377;7;-35;-21;-1204;3718;-1216;65536;0.4750692;-0.4418283;0.4709141;0.5977767;-11;-15;17;-947;4134;470;8192;0.6745152;-0.6945373;-0.234072;-0.08864266;-14;-26;-23;1000;4112;-124;32768;0.7900542;-0.5415512;-0.07617728;-0.2770083;18;-28;-22;1055;3711;-980;256;0.234072;-0.09833795;-0.9401831;-0.2271468;-4;-24;3;236;1668;3656;128;-0.2409972;0.04432133;0.9595689;0.1385041;26;-25;1;70;896;-3840;4;-0.3365651;0.2271468;-0.5595568;-0.7225127;-6;-8;-24;792;3918;-564;16;-0.08033241;-0.9446542;-0.1786704;0.2631579;1;7;0;-1239;-1019;3894;2;0.6559762;-0.5567867;-0.2950138;-0.4155124;1;-8;25;-680;4024;162;8;-0.1385041;-0.9217678;0.1301939;0.3379501;-5;-24;-3;1527;-789;3767;0.2515646;1.236489;1.593328;0.2518112;1.258954;1.048243;0.2520059;1.27668;0.5690316;0.2763265;1.626193;-0.07572567;0.02673896;1.766068;-0.3805028;-0.3145391;1.778319;-0.2271458;-0.1399713;0.9312289;0.1049595;0;0;0;0.5458277;1.729947;-0.3805058;0.8332548;1.69845;-0.227151;0.9596034;0.75811;-0.05960602;0.9787462;-0.0894928;-0.4826808;-0.06029516;1.230388;1.638477;0.07001066;-0.1724247;1.243513;0.06829774;0.1610641;2.54778;-0.06029516;1.230388;1.638477;0.07001066;-0.1724247;1.243513;0.06829774;0.1610641;2.54778
161087.6064;NotLabelled;16384;-0.2382271;0.5387812;-0.5692521;-0.5735109;7;-27;-21;-998;3652;-980;65536;0.4709141;-0.4432133;0.4722992;0.5989452;-12;-17;18;-859;3870;590;8192;0.6759003;-0.6944005;-0.2299169;-0.0900277;-10;-17;-23;1130;4070;56;32768;0.7926493;-0.5401662;-0.07894737;-0.2714681;17;-24;-27;1007;3883;-864;256;0.234072;-0.101108;-0.9402229;-0.2257618;-7;-24;4;422;1728;3676;128;-0.2423823;0.04709141;0.9598718;0.132964;25;-24;1;-12;1004;-3980;4;-0.3310249;0.2313019;-0.5637119;-0.7205212;-7;-4;-22;606;3960;-560;16;-0.08033241;-0.9438589;-0.1828255;0.2631579;0;11;0;-1407;-1189;3882;2;0.6559235;-0.5581717;-0.2963989;-0.4127424;4;-6;25;-624;4016;256;8;-0.1398892;-0.921163;0.132964;0.3379501;-4;-20;0;1535;-811;3695;0.2434443;1.238498;1.582921;0.2436463;1.256901;1.037684;0.2438015;1.271056;0.558354;0.2711667;1.618257;-0.08752885;0.02279687;1.759439;-0.392698;-0.3183154;1.775315;-0.2393047;-0.14346;0.9312229;0.1001982;0;0;0;0.5415322;1.718553;-0.3927014;0.8286967;1.684911;-0.2393107;0.9535812;0.742373;-0.08342659;0.9899899;-0.1084499;-0.4988343;-0.06841177;1.232734;1.62814;0.06223142;-0.1740623;1.247724;0.05774248;0.1568539;2.552639;-0.06841177;1.232734;1.62814;0.06223142;-0.1740623;1.247724;0.05774248;0.1568539;2.552639
161129.5215;NotLabelled;16384;-0.2285319;0.5429363;-0.5776321;-0.5650969;0;-19;-26;-1802;3520;-1414;65536;0.4653739;-0.4501385;0.4722992;0.5981103;-10;0;17;-199;4266;472;8192;0.6800554;-0.6921523;-0.2243767;-0.0900277;-7;-19;-22;1198;3798;-54;32768;0.7953649;-0.5387812;-0.08864266;-0.2631579;20;-7;-27;911;3865;-958;256;0.2354571;-0.1080332;-0.9404208;-0.2202216;-10;-24;8;176;1804;3792;128;-0.2437673;0.04986149;0.9608516;0.1218837;38;-14;2;-204;1000;-4084;4;-0.3254848;0.234072;-0.5692521;-0.7177897;-5;-10;-21;716;3886;-614;16;-0.08033241;-0.9432021;-0.1842105;0.2645429;-2;5;-3;-1259;-1033;3634;2;0.6534917;-0.5650969;-0.301939;-0.4030471;2;-6;24;-604;4002;72;8;-0.1454294;-0.9202911;0.1398892;0.33518;-1;-13;1;1595;-749;3603;0.2355584;1.244652;1.574593;0.2357038;1.257915;1.029207;0.2358096;1.267552;0.549764;0.2651519;1.613807;-0.09653974;0.01758608;1.756079;-0.4018554;-0.3234113;1.774148;-0.2484497;-0.145647;0.9315944;0.09335741;0;0;0;0.5360719;1.712142;-0.4018587;0.8230489;1.676996;-0.2484545;0.9439391;0.7328696;-0.099172;0.9914693;-0.1191607;-0.510965;-0.07629311;1.239314;1.619896;0.05641109;-0.1733243;1.262543;0.04880023;0.1603627;2.566738;-0.07629311;1.239314;1.619896;0.05641109;-0.1733243;1.262543;0.04880023;0.1603627;2.566738
161149.7287;NotLabelled;16384;-0.2229917;0.5429363;-0.5797934;-0.5650969;6;-30;-24;-1560;3438;-1332;65536;0.4626039;-0.4515235;0.4736842;0.5981199;-5;-9;17;-691;4076;696;8192;0.6814404;-0.6921245;-0.2202216;-0.0900277;-6;-21;-24;1188;4060;-114;32768;0.7965759;-0.5373961;-0.09418282;-0.2603878;22;-4;-24;1205;3977;-946;256;0.234072;-0.1149584;-0.9412262;-0.2146814;-7;-21;9;508;1676;3594;128;-0.2437673;0.04570637;0.9630203;0.1052632;64;23;3;-200;812;-4244;4;-0.3227147;0.2354571;-0.5706371;-0.7174876;-5;-7;-23;798;3934;-512;16;-0.08033241;-0.9425409;-0.1855956;0.265928;-1;2;-4;-1165;-1033;3554;2;0.6506512;-0.567867;-0.3047091;-0.4016621;2;-1;23;-608;4038;10;8;-0.1468144;-0.9198595;0.1412742;0.33518;0;-14;1;1471;-743;3479;0.2366456;1.255223;1.535552;0.2366699;1.257459;0.9900095;0.2366693;1.257403;0.5104699;0.270791;1.598675;-0.1382447;0.02519105;1.742548;-0.4443972;-0.3153878;1.766835;-0.2909195;-0.1509706;0.9322996;0.07629597;0;0;0;0.5429535;1.690781;-0.4444003;0.8294735;1.652368;-0.2909247;0.9502022;0.7065544;-0.152589;1.021199;-0.1497591;-0.5519316;-0.07519573;1.250803;1.581023;0.05559295;-0.1678556;1.247614;0.04337013;0.1673584;2.551382;-0.07519573;1.250803;1.581023;0.05559295;-0.1678556;1.247614;0.04337013;0.1673584;2.551382
161170.5544;NotLabelled;16384;-0.2174515;0.5429363;-0.5818939;-0.5650969;4;-25;-24;-1342;3616;-1000;65536;0.4598338;-0.4529086;0.4750692;0.5981103;-3;-12;18;-497;3966;720;8192;0.6842105;-0.6911317;-0.2146814;-0.0900277;-6;-8;-25;1268;3996;32;32768;0.7978296;-0.536011;-0.1024931;-0.2562327;15;-8;-22;737;4003;-492;256;0.234072;-0.1177285;-0.9411987;-0.2132964;-8;-17;11;572;1812;3750;128;-0.2437673;0.0401662;0.9639989;0.09833795;35;19;0;42;662;-4180;4;-0.3199446;0.2382271;-0.5720221;-0.7167105;-6;-1;-23;834;3934;-574;16;-0.08033241;-0.9425409;-0.1855956;0.265928;2;6;-2;-1279;-1107;3604;2;0.6498414;-0.5692521;-0.3074792;-0.398892;4;3;24;-580;4056;74;8;-0.1468144;-0.9199335;0.1440443;0.333795;2;-13;0;1517;-803;3615;0.2278847;1.284424;1.525635;0.2277024;1.267811;0.9803404;0.2275199;1.251188;0.501089;0.2667315;1.587227;-0.1500654;0.0232857;1.732955;-0.45706;-0.3167183;1.763952;-0.3035168;-0.1510894;0.9327292;0.07060102;0;0;0;0.540123;1.672646;-0.4570637;0.8260972;1.6306;-0.3035225;0.9441127;0.6836894;-0.1704513;1.026259;-0.1740382;-0.5645875;-0.08393949;1.28158;1.571349;0.04902124;-0.1388946;1.246642;0.03952062;0.1978552;2.550037;-0.08393949;1.28158;1.571349;0.04902124;-0.1388946;1.246642;0.03952062;0.1978552;2.550037
161210.7279;NotLabelled;16384;-0.2146814;0.5443213;-0.584307;-0.5623268;0;-13;-28;-1430;3880;-674;65536;0.4570637;-0.4542936;0.4764543;0.5980815;-4;-8;18;-621;3960;462;8192;0.6842105;-0.69162;-0.2119114;-0.09279778;1;-3;-24;1198;3704;-98;32768;0.7981699;-0.536011;-0.1066482;-0.2534626;10;-13;-25;417;3957;-730;256;0.232687;-0.1191136;-0.9419912;-0.2105263;-10;-13;12;416;1804;3688;128;-0.2437673;0.03739612;0.9645251;0.09418282;30;10;-1;-222;652;-4272;4;-0.3157895;0.2423823;-0.5761772;-0.7138261;-7;-6;-22;596;3946;-644;16;-0.07756232;-0.9419454;-0.1897507;0.265928;5;14;1;-1301;-977;3708;2;0.6481565;-0.5706371;-0.3102493;-0.3975069;4;4;23;-594;4072;232;8;-0.1468144;-0.9197155;0.1454294;0.333795;3;-7;1;1467;-795;3589;0.221932;1.295842;1.513547;0.2216522;1.270346;0.9685965;0.221384;1.245915;0.4896797;0.2624875;1.580984;-0.1618579;0.01986314;1.727799;-0.4689848;-0.3199309;1.760975;-0.3154317;-0.1512516;0.9331269;0.06475843;0;0;0;0.5363358;1.664443;-0.4689877;0.822078;1.620884;-0.3154364;0.9388494;0.6725292;-0.1918935;1.036781;-0.1876743;-0.5769224;-0.08988398;1.293743;1.559358;0.04681534;-0.1290226;1.246453;0.03550696;0.2077272;2.549833;-0.08988398;1.293743;1.559358;0.04681534;-0.1290226;1.246453;0.03550696;0.2077272;2.549833
161231.5753;NotLabelled;16384;-0.2105263;0.5457063;-0.5871792;-0.5595568;-5;-11;-31;-1602;3758;-900;65536;0.4556787;-0.4570637;0.4778393;0.5959188;-5;1;18;-393;4174;368;8192;0.6842105;-0.6918557;-0.2105263;-0.09418282;4;-1;-22;968;3998;-42;32768;0.7977875;-0.5373961;-0.1121884;-0.2493075;8;-13;-30;297;3945;-808;256;0.2313019;-0.1218837;-0.9425928;-0.2077562;-10;-17;13;356;1728;3606;128;-0.2437673;0.03462604;0.9650252;0.0900277;32;11;-2;-96;698;-4078;4;-0.3130194;0.2437673;-0.5789474;-0.7123316;-9;-8;-22;570;3908;-538;16;-0.07617728;-0.9417784;-0.1911357;0.265928;6;13;0;-1211;-955;3720;2;0.6441635;-0.5747922;-0.3144044;-0.3947368;5;-8;26;-678;3890;12;8;-0.1468144;-0.9194955;0.1468144;0.333795;5;-6;1;1553;-673;3649;0.2226434;1.304556;1.50299;0.222307;1.273893;0.9583052;0.221989;1.244921;0.4796419;0.2642694;1.576642;-0.1735315;0.02215032;1.723114;-0.4812201;-0.317389;1.758632;-0.3276282;-0.1511679;0.9334924;0.05946825;0;0;0;0.5383186;1.657325;-0.4812234;0.8239471;1.613161;-0.3276333;0.935023;0.6635134;-0.2088699;1.039219;-0.198493;-0.588181;-0.08916771;1.302893;1.548851;0.04556137;-0.1246676;1.257683;0.0368005;0.2079034;2.562155;-0.08916771;1.302893;1.548851;0.04556137;-0.1246676;1.257683;0.0368005;0.2079034;2.562155
161251.6019;NotLabelled;16384;-0.2036011;0.5484765;-0.5909731;-0.5554016;-4;-13;-32;-1730;3256;-1034;65536;0.4515235;-0.4612188;0.4792244;0.5947669;-7;-2;18;-477;3842;664;8192;0.6842105;-0.6923103;-0.2077562;-0.09695291;7;-3;-22;862;4336;82;32768;0.7977671;-0.5387812;-0.1177285;-0.2437673;5;-18;-38;251;4091;-672;256;0.2313019;-0.1232687;-0.943019;-0.2049861;-10;-16;13;444;1818;3554;128;-0.2437673;0.03185596;0.9656214;0.08448754;37;20;-3;-104;500;-4108;4;-0.3116343;0.2451524;-0.5817174;-0.7102036;-9;-5;-22;668;3974;-536;16;-0.07479224;-0.941215;-0.1925208;0.267313;7;10;0;-1045;-929;3714;2;0.642698;-0.5775623;-0.3157895;-0.3919668;7;-10;26;-676;3958;12;8;-0.1468144;-0.919775;0.1481994;0.33241;5;-6;0;1515;-683;3717;0.224475;1.310723;1.488623;0.224082;1.2749;0.9442529;0.2237143;1.241393;0.4658855;0.2680575;1.570167;-0.1886401;0.02684583;1.717161;-0.496792;-0.3123419;1.755772;-0.3431696;-0.1486444;0.9343038;0.05271074;0;0;0;0.5425208;1.64761;-0.4967948;0.827903;1.601983;-0.3431749;0.9360405;0.6517091;-0.2267207;1.047457;-0.2137792;-0.5959141;-0.08733135;1.309494;1.53453;0.04481792;-0.1206243;1.254965;0.03811586;0.2093911;2.560098;-0.08733135;1.309494;1.53453;0.04481792;-0.1206243;1.254965;0.03811586;0.2093911;2.560098
161272.5188;NotLabelled;16384;-0.199446;0.5512465;-0.5924078;-0.5526316;-5;-11;-34;-1780;3566;-924;65536;0.4501385;-0.4626039;0.4792244;0.5947412;-5;3;17;-229;4088;612;8192;0.6828254;-0.6938948;-0.2063712;-0.09833795;12;-6;-17;976;4108;118;32768;0.7971405;-0.5415512;-0.1232687;-0.2368421;0;-25;-48;147;4149;-746;256;0.2285319;-0.1274238;-0.9440356;-0.200831;-17;-10;13;536;1872;3594;128;-0.2423823;0.02770083;0.9667888;0.07617728;26;1;-2;72;628;-4190;4;-0.3088643;0.2479224;-0.5831025;-0.7093157;-8;-2;-23;688;3960;-592;16;-0.0734072;-0.941324;-0.1925208;0.267313;9;6;1;-1105;-983;3672;2;0.6412024;-0.5803324;-0.3171745;-0.3891967;6;-7;24;-582;3954;222;8;-0.1454294;-0.9197708;0.1495845;0.33241;5;-8;1;1567;-679;3773;0.2250441;1.323598;1.473577;0.2245784;1.281156;0.9296831;0.2241468;1.241832;0.4517587;0.2683701;1.567372;-0.2043894;0.02707349;1.713902;-0.5126956;-0.3116168;1.754597;-0.3585141;-0.1492678;0.934777;0.04131883;0;0;0;0.5424628;1.642271;-0.5135013;0.827997;1.596209;-0.3602941;0.9305284;0.6434417;-0.2603074;1.050612;-0.2255008;-0.6185066;-0.08675623;1.322928;1.519537;0.04052037;-0.1096175;1.250329;0.03909361;0.2184825;2.555962;-0.08675623;1.322928;1.519537;0.04052037;-0.1096175;1.250329;0.03909361;0.2184825;2.555962
161293.7128;NotLabelled;16384;-0.1966759;0.5526316;-0.5958948;-0.5484765;-8;-13;-35;-1746;3784;-1044;65536;0.4487534;-0.4653739;0.4792244;0.5936257;-4;5;18;-237;4096;526;8192;0.6800554;-0.6970283;-0.2036011;-0.101108;18;0;-7;1000;3542;-38;32768;0.7941326;-0.5484765;-0.1371191;-0.2229917;-10;-13;-57;-187;3681;-736;256;0.2271468;-0.1274238;-0.945244;-0.1966759;-17;-11;14;366;1794;3616;128;-0.2423823;0.02631579;0.9671459;0.07202215;28;5;-1;-80;496;-3996;4;-0.3074792;0.2493075;-0.5844875;-0.7082914;-8;-2;-22;560;3924;-622;16;-0.07202215;-0.941431;-0.1925208;0.267313;9;4;5;-1189;-1003;3730;2;0.6409361;-0.5817174;-0.3185596;-0.3864266;6;-5;24;-462;3936;190;8;-0.1454294;-0.920044;0.1509695;0.3310249;4;-6;1;1487;-719;3789;0.2190646;1.331493;1.452499;0.2184901;1.279131;0.9094706;0.2179629;1.231091;0.4323438;0.2662604;1.552073;-0.2257599;0.02682249;1.699407;-0.5351304;-0.3114866;1.744854;-0.3814397;-0.1504301;0.9347248;0.03818031;0;0;0;0.5413741;1.621984;-0.5351329;0.8262751;1.573658;-0.3814446;0.9232011;0.621665;-0.2692403;1.050728;-0.2517629;-0.613695;-0.09272635;1.331663;1.498526;0.03716153;-0.1027632;1.240822;0.03915989;0.2218485;2.547325;-0.09272635;1.331663;1.498526;0.03716153;-0.1027632;1.240822;0.03915989;0.2218485;2.547325
161314.4985;NotLabelled;16384;-0.1925208;0.5540166;-0.5985031;-0.5457063;-7;-18;-36;-1690;3628;-1198;65536;0.4487534;-0.466759;0.4806094;0.5914144;-2;3;18;-575;4252;582;8192;0.6786703;-0.6985774;-0.2022161;-0.1024931;23;0;-7;804;3502;-186;32768;0.7903358;-0.5540166;-0.1454294;-0.2174515;-12;-6;-62;-69;3689;-532;256;0.2257618;-0.1288089;-0.94596;-0.1939058;-17;-13;16;412;1736;3592;128;-0.2409972;0.0235457;0.9678636;0.06786703;30;6;-4;136;716;-4194;4;-0.3047091;0.2520775;-0.5872576;-0.7062137;-9;-6;-23;444;3902;-612;16;-0.07063711;-0.9412516;-0.1939058;0.267313;8;8;9;-1315;-1031;3776;2;0.6393884;-0.5844875;-0.3199446;-0.3836565;9;-6;24;-298;3956;282;8;-0.1454294;-0.920044;0.1509695;0.3310249;3;-2;1;1441;-737;3737;0.2218499;1.342586;1.442084;0.221223;1.285467;0.8995355;0.2206501;1.233248;0.4228481;0.2689927;1.548563;-0.2379862;0.02956715;1.693964;-0.5482791;-0.3084164;1.741641;-0.3945486;-0.150906;0.9348526;0.03278179;0;0;0;0.5439015;1.615109;-0.5482823;0.8288643;1.567279;-0.3945535;0.9155307;0.6143525;-0.2818853;1.059118;-0.2690253;-0.5930364;-0.08993679;1.343159;1.488138;0.03864264;-0.09263015;1.237471;0.04549193;0.2284918;2.544819;-0.08993679;1.343159;1.488138;0.03864264;-0.09263015;1.237471;0.04549193;0.2284918;2.544819
161334.5227;NotLabelled;16384;-0.1883656;0.5554016;-0.6010554;-0.5429363;-5;-20;-38;-1562;3508;-1158;65536;0.4473684;-0.4695291;0.4806094;0.5902699;0;-1;19;-499;4128;660;8192;0.6759003;-0.701054;-0.2022161;-0.1038781;33;-6;0;1672;4180;-400;32768;0.7867268;-0.5595568;-0.1537396;-0.2105263;-31;0;-58;-853;3821;688;256;0.2243767;-0.1301939;-0.9466635;-0.1911357;-19;-12;18;506;1710;3408;128;-0.2409972;0.02077562;0.9681173;0.06509695;28;10;-4;220;594;-4258;4;-0.299169;0.2548476;-0.5914127;-0.7041176;-12;-13;-23;404;3872;-488;16;-0.06509695;-0.9415685;-0.1980609;0.2645429;7;18;11;-1355;-883;3914;2;0.6362001;-0.5900277;-0.3227147;-0.3781163;12;-4;25;-180;4016;310;8;-0.1454294;-0.9198157;0.1523546;0.3310249;3;-3;0;1645;-773;3719;0.2258449;1.350278;1.431409;0.2251618;1.288029;0.8894259;0.2245393;1.231304;0.4132537;0.2738411;1.543179;-0.2491399;0.03485648;1.688186;-0.559957;-0.3027835;1.738182;-0.4062081;-0.1470469;0.935575;0.02956361;0;0;0;0.5488182;1.606938;-0.5599601;0.8336734;1.558529;-0.4062134;0.9150105;0.6051817;-0.2931296;1.063172;-0.2845304;-0.5833855;-0.08593678;1.351287;1.477489;0.04114813;-0.08712316;1.241511;0.05122793;0.2314508;2.549462;-0.08593678;1.351287;1.477489;0.04114813;-0.08712316;1.241511;0.05122793;0.2314508;2.549462
161354.6604;NotLabelled;16384;-0.1842105;0.5567867;-0.6035524;-0.5401662;-5;-11;-35;-1492;3584;-1054;65536;0.4459834;-0.4709141;0.4819945;0.5890841;0;0;25;-295;3864;634;8192;0.6717451;-0.7048406;-0.2036011;-0.1024931;30;6;8;1384;4010;-16;32768;0.7832995;-0.5637119;-0.1578947;-0.2091413;-30;-13;-31;-261;4065;-82;256;0.2229917;-0.132964;-0.9474353;-0.1869806;-15;-9;18;798;1750;3670;128;-0.2396122;0.01800554;0.9687868;0.06094183;30;5;-5;52;690;-3768;4;-0.2963989;0.2548476;-0.5941828;-0.7029561;-10;-17;-23;502;3990;-524;16;-0.06371191;-0.941759;-0.199446;0.2631579;7;13;9;-1381;-891;3910;2;0.6330277;-0.5927978;-0.3254848;-0.3767313;11;-1;25;-242;4056;232;8;-0.1454294;-0.9195852;0.1537396;0.3310249;2;-8;0;1721;-765;3841;0.2245936;1.354471;1.418965;0.2238704;1.288574;0.8774134;0.2232127;1.228642;0.4016342;0.273437;1.537063;-0.2623058;0.03488217;1.681666;-0.5736402;-0.3024006;1.733976;-0.419877;-0.1475455;0.9356556;0.02400711;0;0;0;0.5484611;1.598033;-0.5736436;0.8332102;1.54905;-0.4198825;0.9086292;0.5956936;-0.3028393;1.062616;-0.2998946;-0.5711654;-0.08718479;1.35579;1.46506;0.03925842;-0.08591735;1.249768;0.04562402;0.220185;2.560718;-0.08718479;1.35579;1.46506;0.03925842;-0.08591735;1.249768;0.04562402;0.220185;2.560718
161375.6253;NotLabelled;16384;-0.1786704;0.5623268;-0.6086592;-0.5304709;-17;-1;-45;-2252;3446;-742;65536;0.4432133;-0.4764543;0.4847645;0.5844285;0;7;24;-103;4064;472;8192;0.66759;-0.7079717;-0.2049861;-0.1052632;39;19;-2;842;3946;-126;32768;0.7784291;-0.5692521;-0.1620499;-0.2091413;-33;9;-30;901;4199;-1096;256;0.2202216;-0.132964;-0.9486251;-0.1842105;-18;0;21;518;1698;3934;128;-0.2396122;0.01800554;0.9690393;0.0567867;20;0;-6;66;612;-4098;4;-0.2922437;0.2548476;-0.5983379;-0.701169;-10;-19;-23;516;4058;-390;16;-0.06094183;-0.9417376;-0.2022161;0.2617728;5;14;8;-1447;-925;3702;2;0.6326579;-0.5941828;-0.3268698;-0.3739612;10;2;26;-316;4060;156;8;-0.1454294;-0.9193526;0.1551246;0.3310249;0;-11;2;1539;-697;3859;0.2249217;1.361501;1.40792;0.2241425;1.290498;0.8670139;0.2234355;1.22608;0.3918214;0.2753361;1.529582;-0.274253;0.03757572;1.673962;-0.5862985;-0.2991029;1.729991;-0.4325209;-0.1456154;0.9360595;0.01963302;0;0;0;0.5504743;1.586253;-0.5863019;0.8350037;1.536052;-0.4325264;0.9062819;0.5837193;-0.3050296;1.05871;-0.315644;-0.5613478;-0.08685189;1.363255;1.454032;0.03590292;-0.08007407;1.24766;0.04114211;0.2227924;2.559366;-0.08685189;1.363255;1.454032;0.03590292;-0.08007407;1.24766;0.04114211;0.2227924;2.559366
161395.7134;NotLabelled;16384;-0.1759003;0.566482;-0.6104138;-0.5249307;-20;-7;-53;-2366;3174;-1134;65536;0.4418283;-0.4792244;0.4861496;0.5820571;2;11;19;-165;4176;636;8192;0.6634349;-0.7112401;-0.2049861;-0.1094183;39;18;-8;472;4340;74;32768;0.7744934;-0.5734072;-0.166205;-0.2091413;-35;12;-27;1275;3967;-1326;256;0.2132964;-0.1315789;-0.9517151;-0.1772853;-22;4;25;568;1624;3660;128;-0.2368421;0.01246537;0.9701877;0.04986149;31;11;-8;30;300;-4270;4;-0.2894737;0.2562327;-0.601108;-0.6994419;-12;-7;-23;520;4018;-538;16;-0.05955679;-0.9418262;-0.2022161;0.2617728;7;7;7;-1455;-907;3712;2;0.6294218;-0.5969529;-0.3296399;-0.3725762;10;4;28;-392;3980;56;8;-0.1468144;-0.9193953;0.1565097;0.3296399;-1;-10;3;1541;-707;3867;0.234454;1.368289;1.383947;0.2336268;1.292917;0.8436327;0.232878;1.224661;0.3689761;0.2840092;1.524093;-0.2989975;0.04589549;1.66725;-0.6113369;-0.2902755;1.725065;-0.4571108;-0.1402926;0.9370558;0.006436452;0;0;0;0.558563;1.578203;-0.612014;0.8433199;1.528166;-0.4586065;0.9083357;0.5750725;-0.3334674;1.054238;-0.3289063;-0.5770297;-0.07731557;1.370416;1.430072;0.03912145;-0.07523382;1.236683;0.05047131;0.2218137;2.54968;-0.07731557;1.370416;1.430072;0.03912145;-0.07523382;1.236683;0.05047131;0.2218137;2.54968
161417.1295;NotLabelled;16384;-0.1703601;0.5692521;-0.616468;-0.5166205;-20;-14;-61;-2186;2886;-994;65536;0.4418283;-0.4806094;0.4861496;0.5809139;9;10;12;-335;4482;804;8192;0.6537396;-0.7184535;-0.2063712;-0.1177285;43;11;-2;2010;6540;58;32768;0.7663987;-0.5803324;-0.1759003;-0.2119114;-17;26;-19;807;5491;-2298;256;0.2105263;-0.1301939;-0.953286;-0.1731302;-23;6;24;1080;1498;3514;128;-0.2354571;0.009695291;0.970761;0.04570637;29;13;-10;182;446;-4258;4;-0.2880886;0.2576177;-0.602493;-0.6983124;-12;3;-23;438;3958;-710;16;-0.05817174;-0.9416144;-0.2036011;0.2617728;6;7;7;-1523;-1037;3690;2;0.6261414;-0.599723;-0.33241;-0.3711911;12;1;28;-360;3982;24;8;-0.1468144;-0.9191585;0.1578947;0.3296399;-4;-7;3;1687;-745;3917;0.2306225;1.393806;1.381267;0.2296999;1.309727;0.8422384;0.228867;1.233822;0.3687447;0.2783411;1.522632;-0.3040136;0.03946829;1.661803;-0.617572;-0.2958475;1.72327;-0.462897;-0.1376139;0.9374737;0.001660995;0;0;0;0.551797;1.570836;-0.6189504;0.8369991;1.522125;-0.4659436;0.8943932;0.5678867;-0.3459044;1.033654;-0.3395907;-0.5801666;-0.08113891;1.396677;1.427406;0.03014904;-0.05072606;1.244376;0.06469393;0.2428237;2.557755;-0.08113891;1.396677;1.427406;0.03014904;-0.05072606;1.244376;0.06469393;0.2428237;2.557755
161436.6711;NotLabelled;16384;-0.1648199;0.5734072;-0.618737;-0.5110803;-15;-8;-55;-1858;2992;-998;65536;0.4418283;-0.4833795;0.4875346;0.5774444;8;13;22;449;3632;342;8192;0.6481994;-0.7219707;-0.2091413;-0.1218837;29;46;5;2320;6470;852;32768;0.7635499;-0.5803324;-0.1814404;-0.2174515;-17;48;-5;493;6321;-1614;256;0.2077562;-0.1288089;-0.9545801;-0.1703601;-19;30;16;1776;1128;4038;128;-0.234072;0.005540166;0.9713151;0.04155125;25;24;-9;-286;372;-4184;4;-0.2853186;0.2631579;-0.6066482;-0.6937717;-14;-4;-24;266;3898;-346;16;-0.05540166;-0.942547;-0.2036011;0.2590028;8;-2;7;-1569;-881;3608;2;0.6243789;-0.602493;-0.333795;-0.368421;12;-4;28;-304;4052;24;8;-0.1481994;-0.9194319;0.1578947;0.3282548;-7;-5;2;1657;-709;4015;0.2480497;1.394819;1.351247;0.2470717;1.30568;0.8130326;0.2461902;1.225332;0.340273;0.2964886;1.507774;-0.3351223;0.05800232;1.644108;-0.650218;-0.2774383;1.707193;-0.4964684;-0.1368959;0.9375801;-0.0002097115;0;0;0;0.5702863;1.552877;-0.6502215;0.8553091;1.505467;-0.496474;0.8878232;0.553997;-0.3484128;1.021466;-0.3595066;-0.5615761;-0.06370682;1.398123;1.397389;0.04652965;-0.05025244;1.221559;0.08690715;0.2407286;2.535342;-0.06370682;1.398123;1.397389;0.04652965;-0.05025244;1.221559;0.08690715;0.2407286;2.535342
161457.5183;NotLabelled;16384;-0.1606648;0.5775623;-0.6205141;-0.5055401;-10;9;-55;-2058;3424;-952;65536;0.4432133;-0.4847645;0.4889196;0.5740409;8;9;20;-759;4090;502;8192;0.6454294;-0.7214564;-0.2160665;-0.1274238;10;52;10;392;3486;310;32768;0.759234;-0.5831025;-0.1855956;-0.2216066;-32;25;-8;779;3861;-1644;256;0.2049861;-0.1218837;-0.9563328;-0.1689751;-13;53;12;942;1336;4466;128;-0.232687;0.002770083;0.971718;0.0401662;7;22;-9;-304;86;-4386;4;-0.2825485;0.2645429;-0.6108033;-0.6907262;-12;-11;-27;182;3812;-298;16;-0.05401662;-0.9426274;-0.2036011;0.2590028;10;-9;5;-1447;-829;3652;2;0.6193336;-0.6094183;-0.33518;-0.3642659;12;-9;25;-182;4072;-172;8;-0.1523546;-0.9189894;0.1565097;0.3282548;-14;1;5;1489;-641;3913;0.2526061;1.402529;1.333775;0.2515688;1.307997;0.7964811;0.2506352;1.222912;0.3245513;0.300075;1.50085;-0.3527732;0.06118754;1.635031;-0.6684882;-0.2740833;1.699076;-0.5147647;-0.1323345;0.9382184;-0.005517736;0;0;0;0.5734895;1.543904;-0.6684909;0.8587043;1.497577;-0.5147692;0.8823016;0.5471275;-0.3586807;1.013689;-0.3673729;-0.568953;-0.05914545;1.406296;1.379915;0.04780453;-0.04504633;1.228176;0.09061843;0.2375324;2.543715;-0.05914545;1.406296;1.379915;0.04780453;-0.04504633;1.228176;0.09061843;0.2375324;2.543715
161478.6695;NotLabelled;16384;-0.1509695;0.5914127;-0.6253781;-0.4861496;-35;-12;-96;-3636;2930;20;65536;0.4473684;-0.4806094;0.4916897;0.5719417;27;-15;-38;-15;5224;940;8192;0.6426592;-0.722178;-0.2202216;-0.1301939;18;21;6;342;3390;-922;32768;0.7559105;-0.5844875;-0.1897507;-0.2257618;-31;29;-2;137;3647;-1168;256;0.2022161;-0.1149584;-0.957779;-0.1689751;-10;39;18;38;1718;4228;128;-0.2313019;0;0.9721088;0.03878116;8;31;-8;-120;28;-4400;4;-0.2783934;0.265928;-0.6135734;-0.6894252;-10;-8;-28;176;3890;-314;16;-0.05263158;-0.9430038;-0.2022161;0.2590028;10;-6;4;-1543;-929;3658;2;0.6174707;-0.6121883;-0.3365651;-0.3614958;12;-4;25;-40;4060;-168;8;-0.1537396;-0.9192263;0.1537396;0.3282548;-17;6;5;1449;-847;3961;0.2638582;1.411279;1.322786;0.2627974;1.314614;0.7858719;0.2618431;1.227654;0.3142838;0.3073231;1.501481;-0.3649903;0.0665541;1.630746;-0.6813264;-0.2692524;1.692005;-0.5276363;-0.1264955;0.939013;-0.00710474;0;0;0;0.5798659;1.545489;-0.6813296;0.8657678;1.503487;-0.5276417;0.8888038;0.5536058;-0.3680465;1.013185;-0.3633065;-0.5719795;-0.04789126;1.415229;1.368925;0.05195633;-0.03811741;1.232279;0.1074265;0.240958;2.548094;-0.04789126;1.415229;1.368925;0.05195633;-0.03811741;1.232279;0.1074265;0.240958;2.548094
161499.5103;NotLabelled;16384;-0.1440443;0.5955678;-0.6325927;-0.4736842;-36;-17;-79;-2642;3276;-618;65536;0.4487534;-0.4764543;0.4930748;0.5731395;18;2;-17;837;3666;64;8192;0.6385041;-0.7245052;-0.2229917;-0.132964;29;23;8;506;3672;-1312;32768;0.7513745;-0.5872576;-0.1925208;-0.2313019;-24;29;1;679;4071;-220;256;0.1952908;-0.1038781;-0.9609613;-0.166205;-20;39;14;382;1070;3570;128;-0.2285319;-0.009695291;0.9727696;0.03739612;14;16;-12;282;146;-4184;4;-0.2770083;0.2686981;-0.6163435;-0.6864317;-10;1;-26;186;4060;-260;16;-0.05124654;-0.9437551;-0.200831;0.2576177;12;-3;4;-1531;-867;3754;2;0.6121883;-0.6175236;-0.3379501;-0.3601108;12;-2;26;-36;4086;-230;8;-0.1565097;-0.919218;0.1509695;0.3282548;-20;11;6;1431;-909;3859;0.2924108;1.402056;1.295689;0.2913268;1.303267;0.7591621;0.2903521;1.214442;0.2879219;0.3320897;1.486076;-0.3924714;0.08957598;1.611144;-0.7091622;-0.2468542;1.668941;-0.5554957;-0.1162161;0.9403659;0.001677595;0;0;0;0.6038841;1.532119;-0.7091651;0.8903689;1.494204;-0.5555004;0.9122876;0.545101;-0.3911841;1.031897;-0.3733615;-0.5909536;-0.01933682;1.406189;1.341826;0.08036488;-0.04833269;1.218194;0.1484323;0.2263147;2.534349;-0.01933682;1.406189;1.341826;0.08036488;-0.04833269;1.218194;0.1484323;0.2263147;2.534349
161519.5337;NotLabelled;16384;-0.1412742;0.599723;-0.6354534;-0.4653739;-31;9;-66;-2440;3964;-842;65536;0.4542936;-0.4750692;0.4916897;0.571111;15;20;-13;-1001;4014;-192;8192;0.6288089;-0.7302598;-0.2257618;-0.1426593;35;23;-11;234;4580;-90;32768;0.7450545;-0.5900277;-0.1966759;-0.2409972;-15;13;-8;1051;4061;-644;256;0.1939058;-0.09833795;-0.9622989;-0.1634349;-15;33;11;506;654;3674;128;-0.2271468;-0.01246537;0.9731147;0.03601108;8;6;-13;408;22;-3916;4;-0.2756233;0.2714681;-0.6177285;-0.684652;-13;4;-25;144;4176;-170;16;-0.04986149;-0.944123;-0.199446;0.2576177;10;-3;4;-1565;-923;3902;2;0.6108033;-0.6197407;-0.3393352;-0.3573407;10;-3;25;38;4108;-216;8;-0.1592798;-0.9191929;0.1481994;0.3282548;-24;15;6;1639;-895;3877;0.3087369;1.414397;1.2885;0.3076113;1.311822;0.7526843;0.3066001;1.219672;0.2820829;0.342519;1.483845;-0.4015729;0.0973604;1.600907;-0.7192858;-0.239771;1.654702;-0.5657031;-0.1128474;0.9407151;0.01087525;0;0;0;0.6129601;1.530802;-0.7192892;0.900308;1.499687;-0.5657086;0.9191091;0.551652;-0.3949702;1.026861;-0.368937;-0.5916777;-0.003007114;1.418855;1.334631;0.09152749;-0.03702354;1.22355;0.1822765;0.2324963;2.539396;-0.003007114;1.418855;1.334631;0.09152749;-0.03702354;1.22355;0.1822765;0.2324963;2.539396
161540.7349;NotLabelled;16384;-0.1371191;0.6038781;-0.6404272;-0.4542936;-45;-10;-82;-3406;3688;-122;65536;0.4556787;-0.4722992;0.4916897;0.5723038;14;-36;-24;-81;5102;226;8192;0.6246537;-0.7325692;-0.2271468;-0.1468144;24;24;-11;696;4486;130;32768;0.7423138;-0.5914127;-0.199446;-0.2437673;-18;16;-13;641;4029;-1066;256;0.1911357;-0.09279778;-0.9636366;-0.1620499;-5;37;11;934;1020;3604;128;-0.2243767;-0.01385042;0.9737886;0.03462604;12;11;-11;128;104;-3776;4;-0.2742382;0.2728532;-0.6204986;-0.6821481;-13;0;-25;20;4130;-154;16;-0.04847645;-0.9441952;-0.199446;0.2576177;9;-3;1;-1593;-835;3874;2;0.6080332;-0.6232857;-0.3407202;-0.3545706;10;-6;22;184;4008;-256;8;-0.1620499;-0.9193692;0.1440443;0.3282548;-29;17;4;1723;-895;3947;0.3240905;1.421438;1.286444;0.3229419;1.316774;0.7510319;0.3219106;1.222789;0.2807937;0.3547489;1.481588;-0.4050688;0.10822;1.593817;-0.7234646;-0.2292164;1.645875;-0.569953;-0.1081854;0.9411306;0.0191274;0;0;0;0.6244249;1.528316;-0.7234682;0.9122009;1.501043;-0.5699586;0.9098576;0.5547221;-0.3889966;1.004987;-0.3681784;-0.5813313;0.01234838;1.426077;1.33257;0.1074823;-0.03051281;1.231789;0.2064523;0.2345767;2.547942;0.01234838;1.426077;1.33257;0.1074823;-0.03051281;1.231789;0.2064523;0.2345767;2.547942
161561.5933;NotLabelled;16384;-0.1301939;0.6080332;-0.6475762;-0.4404432;-35;-18;-111;-3802;2766;-418;65536;0.4542936;-0.4639889;0.4958449;0.5766016;10;-76;-36;69;5308;484;8192;0.6232687;-0.7324736;-0.2285319;-0.1509695;16;22;-7;690;4246;-398;32768;0.73962;-0.5927978;-0.2036011;-0.2451524;-23;15;-16;421;4017;-1096;256;0.1897507;-0.08864266;-0.9643013;-0.1620499;-5;45;11;1126;1660;3564;128;-0.2229917;-0.0166205;0.9741116;0.033241;11;22;-11;2;200;-4024;4;-0.2700831;0.2783934;-0.6260388;-0.6764818;-11;6;-23;-22;3890;-190;16;-0.04570637;-0.9445354;-0.1966759;0.2590028;7;-2;0;-1527;-857;3772;2;0.602493;-0.6286914;-0.3434903;-0.3518005;13;0;17;508;4036;-280;8;-0.1717452;-0.9186679;0.1371191;0.3282548;-36;7;5;1371;-1075;3817;0.337774;1.422023;1.278377;0.3366066;1.315643;0.7433031;0.3355589;1.220152;0.2733686;0.3655986;1.475359;-0.4139666;0.1178528;1.583553;-0.7328141;-0.2199387;1.633424;-0.5793575;-0.107072;0.9410975;0.02584842;0;0;0;0.6346294;1.522725;-0.7328174;0.9227424;1.498923;-0.5793624;0.9127406;0.5535035;-0.3940057;1.003445;-0.3705928;-0.5827032;0.02603364;1.426809;1.324499;0.1164058;-0.03079438;1.234591;0.2265853;0.230783;2.550557;0.02603364;1.426809;1.324499;0.1164058;-0.03079438;1.234591;0.2265853;0.230783;2.550557
161582.5192;NotLabelled;16384;-0.1135734;0.6204986;-0.6561868;-0.4141274;-28;5;-89;-2066;2828;-504;65536;0.4556787;-0.4459834;0.4958449;0.5895707;11;-13;-57;-801;4142;12;8192;0.6204986;-0.7335231;-0.2299169;-0.1551246;18;18;-5;750;3874;-750;32768;0.7361584;-0.5955678;-0.2063712;-0.2465374;-24;10;-14;497;4035;-708;256;0.1869806;-0.08310249;-0.9653352;-0.1620499;-9;42;13;572;1726;3908;128;-0.2216066;-0.01939058;0.9743765;0.033241;4;18;-12;-100;226;-3974;4;-0.2700831;0.2811634;-0.6274238;-0.6740487;-10;7;-23;2;3856;-198;16;-0.04570637;-0.9445354;-0.1966759;0.2590028;7;0;1;-1471;-867;3822;2;0.599723;-0.630591;-0.3462604;-0.3504155;14;6;17;394;4208;-250;8;-0.1759003;-0.9184924;0.132964;0.3282548;-36;3;5;1225;-1209;3577;0.3584862;1.414636;1.266643;0.3572962;1.306186;0.7319856;0.3562283;1.208876;0.2624243;0.3842008;1.462895;-0.4254376;0.1355798;1.568579;-0.7444459;-0.2025412;1.616233;-0.5910102;-0.1028204;0.9412487;0.03571326;0;0;0;0.6527972;1.511623;-0.7444494;0.9411149;1.490293;-0.5910155;0.9270903;0.5447268;-0.4066699;1.016844;-0.3807452;-0.588972;0.04674792;1.419601;1.31276;0.1339602;-0.03974283;1.253012;0.2556781;0.2136467;2.569562;0.04674792;1.419601;1.31276;0.1339602;-0.03974283;1.253012;0.2556781;0.2136467;2.569562
161602.5095;NotLabelled;16384;-0.1094183;0.6246537;-0.6581397;-0.4058172;-23;0;-59;-1646;2456;-802;65536;0.4598338;-0.4390582;0.4958449;0.5915393;28;-10;-41;25;2996;-1000;8192;0.6177285;-0.7348334;-0.2313019;-0.1578947;23;16;-6;518;3740;-894;32768;0.7321867;-0.5983379;-0.2091413;-0.2493075;-21;8;-12;551;4093;-404;256;0.1842105;-0.07756232;-0.9665595;-0.1606648;-14;31;12;292;1332;4306;128;-0.2188366;-0.02216066;0.9749433;0.033241;1;16;-12;102;146;-4390;4;-0.2686981;0.2839335;-0.6288089;-0.6721477;-10;7;-22;34;3880;-232;16;-0.04432133;-0.9446014;-0.1966759;0.2590028;5;2;1;-1439;-831;3714;2;0.5969529;-0.6324546;-0.3476454;-0.3504155;13;9;19;268;4304;-118;8;-0.1814404;-0.9178113;0.1301939;0.3282548;-33;7;3;1417;-1389;3389;0.3706095;1.381122;1.258348;0.3694127;1.272056;0.7238156;0.3683389;1.174205;0.2543666;0.3935936;1.426589;-0.434202;0.1438418;1.528987;-0.7533987;-0.1946661;1.573792;-0.5999575;-0.1054153;0.939106;0.06902555;0;0;0;0.6615856;1.477034;-0.7534552;0.9501542;1.458915;-0.6000798;0.9321811;0.5135655;-0.4149693;1.016921;-0.4137101;-0.5903751;0.05887163;1.386141;1.304462;0.144058;-0.07366669;1.253812;0.2762021;0.1797223;2.569356;0.05887163;1.386141;1.304462;0.144058;-0.07366669;1.253812;0.2762021;0.1797223;2.569356
161623.5307;NotLabelled;16384;-0.1066482;0.6260388;-0.6606663;-0.400277;-10;-10;-25;-1170;2660;-850;65536;0.4639889;-0.4307479;0.5;0.5909066;63;-19;-19;-631;2412;-2854;8192;0.6108033;-0.7386545;-0.232687;-0.1648199;20;18;-7;448;4276;-464;32768;0.7278285;-0.601108;-0.2146814;-0.2506925;-16;7;-16;509;4115;-640;256;0.1814404;-0.06925207;-0.9681698;-0.1578947;-7;29;5;608;1048;3972;128;-0.2160665;-0.02493075;0.9755403;0.03185596;6;7;-8;290;-102;-4288;4;-0.2686981;0.2867036;-0.6301939;-0.6696701;-11;6;-22;-50;3966;-190;16;-0.04293629;-0.9446654;-0.1966759;0.2590028;7;0;2;-1387;-701;3678;2;0.5941828;-0.6335335;-0.3504155;-0.3504155;8;6;20;128;4134;-18;8;-0.1869806;-0.9170879;0.1274238;0.3282548;-32;10;2;1619;-1605;3397;0.3871258;1.377956;1.262092;0.3859227;1.268326;0.7276747;0.3848436;1.16998;0.2583292;0.4075214;1.418855;-0.431605;0.1567194;1.517238;-0.7512411;-0.182124;1.559776;-0.5978953;-0.1000764;0.9384336;0.08440346;0;0;0;0.6749165;1.470019;-0.7512442;0.9636986;1.455367;-0.5979006;0.9402079;0.5109596;-0.4086469;1.018364;-0.4180686;-0.5777223;0.07538846;1.383023;1.308205;0.1614095;-0.07705736;1.267871;0.3043849;0.1728182;2.582957;0.07538846;1.383023;1.308205;0.1614095;-0.07705736;1.267871;0.3043849;0.1728182;2.582957
161644.5109;NotLabelled;16384;-0.1066482;0.6232687;-0.6641141;-0.398892;-20;-32;18;-648;3438;426;65536;0.4722992;-0.4224377;0.5083103;0.5831814;105;8;-10;-4081;1406;-3498;8192;0.6094183;-0.738422;-0.234072;-0.1689751;15;15;-4;422;4142;-526;32768;0.7242258;-0.6038781;-0.2174515;-0.2520775;-16;7;-18;437;4063;-670;256;0.1814404;-0.06509695;-0.9686828;-0.1565097;0;26;1;492;892;3740;128;-0.2146814;-0.02631579;0.9758539;0.03047091;4;9;-6;162;-48;-4094;4;-0.267313;0.2894737;-0.632964;-0.6664124;-12;5;-21;-122;3992;-126;16;-0.04155125;-0.9450145;-0.1952908;0.2590028;11;-9;1;-1357;-703;3726;2;0.5927978;-0.6355863;-0.3518005;-0.3476454;8;0;23;118;3836;-68;8;-0.1925208;-0.9158247;0.1246537;0.3296399;-32;7;0;1751;-1527;3437;0.4077627;1.389988;1.270201;0.4065379;1.278363;0.7361974;0.4054394;1.178266;0.2672225;0.4241407;1.421057;-0.4249953;0.1717587;1.512967;-0.7453135;-0.1675376;1.552173;-0.5920818;-0.08538242;0.9386438;0.09723786;0;0;0;0.6905659;1.473005;-0.7453165;0.9796336;1.463811;-0.592087;0.9416666;0.5212413;-0.396139;1.017089;-0.4098455;-0.55481;0.09602734;1.395226;1.316308;0.1801567;-0.06518626;1.28508;0.3355146;0.1811739;2.599423;0.09602734;1.395226;1.316308;0.1801567;-0.06518626;1.28508;0.3355146;0.1811739;2.599423
161664.513;NotLabelled;16384;-0.1149584;0.6135734;-0.6708879;-0.400277;-50;-47;48;-980;3896;1238;65536;0.4875346;-0.4182825;0.5096953;0.5723289;98;107;-43;-6295;714;-788;8192;0.6080332;-0.7389246;-0.234072;-0.1717452;12;6;-6;572;4028;-650;32768;0.7222298;-0.6052631;-0.2202216;-0.2520775;-16;8;-18;423;3983;-642;256;0.1814404;-0.06232687;-0.9686403;-0.1578947;10;21;0;522;834;3842;128;-0.2146814;-0.02770083;0.9758579;0.02908587;3;11;-6;98;-160;-4020;4;-0.265928;0.2936288;-0.6357341;-0.6625003;-8;6;-14;-332;4044;-200;16;-0.0401662;-0.9453596;-0.1939058;0.2590028;5;-1;0;-1549;-757;4074;2;0.5872576;-0.6414223;-0.3545706;-0.3434903;12;-4;26;392;3784;-426;8;-0.2022161;-0.9136058;0.1218837;0.3310249;-31;-9;0;1589;-1741;3449;0.4428186;1.405086;1.282236;0.4415748;1.291746;0.7485933;0.4404599;1.190143;0.2799423;0.456995;1.429977;-0.4133604;0.2037714;1.518563;-0.7339512;-0.135733;1.555907;-0.5807152;-0.05571087;0.9398561;0.106603;0;0;0;0.7228637;1.482491;-0.7340522;1.012069;1.476148;-0.5809366;0.9701233;0.532892;-0.3891428;1.041529;-0.399779;-0.5401866;0.1310848;1.410473;1.328336;0.2124378;-0.05033946;1.31193;0.3711231;0.1915712;2.626703;0.1310848;1.410473;1.328336;0.2124378;-0.05033946;1.31193;0.3711231;0.1915712;2.626703
161684.7295;NotLabelled;16384;-0.1274238;0.602493;-0.6778148;-0.4016621;-64;-30;70;-1450;3632;752;65536;0.5069252;-0.4099723;0.5083103;0.5626458;92;38;-73;-3271;2136;-2210;8192;0.6066482;-0.7397392;-0.234072;-0.1731302;11;5;-7;714;3982;-798;32768;0.7202149;-0.6066482;-0.2229917;-0.2520775;-16;1;-18;487;4065;-532;256;0.1800554;-0.05955679;-0.9688462;-0.1592798;14;16;0;460;1092;4048;128;-0.2132964;-0.02908587;0.9761212;0.02908587;3;11;-6;264;-78;-3974;4;-0.2645429;0.2963989;-0.6371191;-0.6604877;-8;0;-13;-434;4110;-240;16;-0.03878116;-0.9457005;-0.1925208;0.2590028;3;-5;0;-1335;-687;3964;2;0.5844875;-0.6439207;-0.3559557;-0.3421052;13;-1;26;548;3664;-568;8;-0.2091413;-0.9125469;0.1218837;0.3296399;-30;-14;3;1221;-1395;3433;0.4852407;1.421864;1.305062;0.4839777;1.306763;0.7717971;0.4828458;1.203613;0.3034841;0.4981711;1.444669;-0.3894223;0.244524;1.532284;-0.7099446;-0.09523924;1.56738;-0.5567503;-0.03004154;0.9392643;0.12115;0;0;0;0.7638195;1.499269;-0.7099477;1.053012;1.494379;-0.5567557;1.005898;0.5518868;-0.3624287;1.0773;-0.3817186;-0.5075883;0.1735086;1.427403;1.351156;0.2531692;-0.03359318;1.352734;0.4137456;0.2038641;2.668088;0.1735086;1.427403;1.351156;0.2531692;-0.03359318;1.352734;0.4137456;0.2038641;2.668088
161706.7296;NotLabelled;16384;-0.1648199;0.5831025;-0.6825557;-0.4085872;-59;29;146;-482;3500;276;65536;0.5387812;-0.3725762;0.5096953;0.5577747;95;30;-73;-2807;1844;-1674;8192;0.6038781;-0.7412393;-0.2354571;-0.1745152;9;8;-5;914;3954;-714;32768;0.7170062;-0.6094183;-0.2257618;-0.2520775;-15;2;-17;299;4093;-476;256;0.1800554;-0.05817174;-0.9684709;-0.1620499;16;10;0;380;1160;4056;128;-0.2119114;-0.03047091;0.9763806;0.02908587;-1;6;-6;226;94;-4066;4;-0.2631579;0.2963989;-0.6398892;-0.6583597;-10;0;-14;-442;4056;-148;16;-0.03878116;-0.945601;-0.1911357;0.2603878;2;-8;0;-1311;-733;3752;2;0.5817174;-0.6471198;-0.3573407;-0.3393352;15;0;27;730;3712;-496;8;-0.2132964;-0.9115846;0.1218837;0.3296399;-28;-14;0;1121;-1151;3167;0.5300062;1.439163;1.347809;0.5287404;1.323799;0.8146003;0.5276061;1.220419;0.3463383;0.541689;1.462633;-0.3461904;0.2876005;1.549373;-0.6666011;-0.05236158;1.582391;-0.5133862;-0.003834497;0.9358248;0.1483738;0;0;0;0.8070672;1.51917;-0.6666044;1.096268;1.515607;-0.5133914;1.046382;0.5735208;-0.3177884;1.117333;-0.3609868;-0.4572521;0.2182744;1.444725;1.393902;0.2990452;-0.01615906;1.406316;0.465421;0.2168428;2.721746;0.2182744;1.444725;1.393902;0.2990452;-0.01615906;1.406316;0.465421;0.2168428;2.721746
161727.5368;NotLabelled;16384;-0.1911357;0.5775623;-0.676194;-0.4155124;-61;72;152;-1520;3886;484;65536;0.5609419;-0.3614958;0.5083103;0.5443213;99;69;-64;-2255;3118;-1434;8192;0.602493;-0.7417089;-0.2354571;-0.1772853;9;11;-3;658;4020;-776;32768;0.7149472;-0.6108033;-0.2285319;-0.2520775;-13;2;-16;411;4087;-542;256;0.1800554;-0.05817174;-0.9675276;-0.16759;27;9;-4;488;1228;3636;128;-0.2105263;-0.03047091;0.976638;0.03047091;-9;-2;-3;244;62;-4104;4;-0.2631579;0.2977839;-0.6412742;-0.6563841;-9;3;-12;-238;4014;-74;16;-0.03878116;-0.945601;-0.1911357;0.2603878;3;-5;0;-1403;-731;3686;2;0.5775623;-0.6500244;-0.3601108;-0.3379501;13;0;28;600;3882;-240;8;-0.2174515;-0.9100998;0.1218837;0.3310249;-25;-2;-5;1331;-1235;2989;0.6218302;1.469042;1.471777;0.6205616;1.35342;0.938624;0.6194246;1.249813;0.4704123;0.6327905;1.49551;-0.2209026;0.3784665;1.58289;-0.5409522;0.03834228;1.613879;-0.3876736;0.0469015;0.9191701;0.2252174;0;0;0;0.8980423;1.554625;-0.5409554;1.187213;1.551381;-0.3876786;1.133376;0.6104302;-0.1877076;1.202068;-0.325474;-0.3186721;0.3100987;1.474626;1.517868;0.3857642;0.01357448;1.539364;0.5566707;0.2463126;2.85426;0.3100987;1.474626;1.517868;0.3857642;0.01357448;1.539364;0.5566707;0.2463126;2.85426
161749.509;NotLabelled;16384;-0.2188366;0.5734072;-0.6695928;-0.4182825;-72;76;149;-2504;4132;482;65536;0.5786541;-0.3518005;0.5055401;0.534626;88;59;-61;-1761;3654;-476;8192;0.599723;-0.7417244;-0.2382271;-0.1828255;12;12;-8;310;4092;-672;32768;0.7102779;-0.6135734;-0.234072;-0.2534626;-10;8;-16;449;4057;-436;256;0.1800554;-0.05817174;-0.9665516;-0.1731302;32;8;-5;520;1340;3742;128;-0.2105263;-0.02908587;0.976636;0.03185596;-4;-12;-3;166;192;-4066;4;-0.2617728;0.299169;-0.6426592;-0.6549519;-8;0;-10;-266;4008;-78;16;-0.03878116;-0.9458799;-0.1897507;0.2603878;5;-8;1;-1391;-697;3652;2;0.5747922;-0.6523693;-0.3628809;-0.33518;12;0;28;444;3932;-156;8;-0.2202216;-0.9091128;0.1204986;0.33241;-23;7;-7;1497;-1251;3093;0.6689958;1.477784;1.536739;0.6677437;1.363664;1.003263;0.6666213;1.261375;0.534761;0.6798677;1.514715;-0.1537923;0.4255446;1.605087;-0.4730111;0.08526731;1.633667;-0.3196038;0.0781628;0.9086189;0.2570976;0;0;0;0.9451788;1.577917;-0.4730139;1.234267;1.57359;-0.3196084;1.175485;0.6328249;-0.1201568;1.244209;-0.3039014;-0.2450933;0.3572628;1.483238;1.582837;0.4300104;0.02215862;1.611376;0.6005434;0.2548971;2.926321;0.3572628;1.483238;1.582837;0.4300104;0.02215862;1.611376;0.6005434;0.2548971;2.926321
161769.518;NotLabelled;16384;-0.2465374;0.5692521;-0.6617296;-0.4210526;-75;81;145;-2750;4048;-308;65536;0.5926263;-0.3448753;0.501385;0.5277008;72;63;-58;-1689;4300;244;8192;0.5983379;-0.7421548;-0.2382271;-0.1855956;8;10;-9;584;4146;-790;32768;0.7081587;-0.6149584;-0.2368421;-0.2534626;-10;6;-19;447;4069;-432;256;0.1814404;-0.05817174;-0.9655389;-0.1772853;27;8;-4;634;1388;3930;128;-0.2105263;-0.02631579;0.9766203;0.03462604;-27;-15;-5;86;122;-4166;4;-0.2590028;0.300554;-0.6454294;-0.6526912;-6;-6;-12;-308;3848;32;16;-0.03739612;-0.9464872;-0.1869806;0.2603878;5;-6;1;-1533;-819;3914;2;0.5692521;-0.6577796;-0.365651;-0.3310249;12;-1;28;370;4222;-388;8;-0.2243767;-0.9069284;0.1177285;0.3365651;-18;9;-9;1627;-1127;3383;0.7116557;1.481976;1.597428;0.7104229;1.369614;1.063579;0.7093174;1.268869;0.5947424;0.7224098;1.529828;-0.09096295;0.4680729;1.623184;-0.4093104;0.1276511;1.64935;-0.2557938;0.09964098;0.8979785;0.2854882;0;0;0;0.9877635;1.597112;-0.4093136;1.276775;1.591699;-0.2557982;1.211375;0.6513991;-0.05621445;1.278298;-0.2869105;-0.1697206;0.3999212;1.487279;1.643532;0.4725881;0.02637839;1.680263;0.6430787;0.2581754;2.99538;0.3999212;1.487279;1.643532;0.4725881;0.02637839;1.680263;0.6430787;0.2581754;2.99538
161789.5259;NotLabelled;16384;-0.2714681;0.5650969;-0.6546121;-0.4224377;-64;67;139;-3156;3948;-1356;65536;0.6061326;-0.3421052;0.4972299;0.5180055;61;83;-46;-1015;5344;554;8192;0.5969529;-0.7425722;-0.2382271;-0.1883656;6;4;-5;526;3982;-912;32768;0.7060194;-0.6163435;-0.2396122;-0.2534626;-8;5;-20;349;4105;-342;256;0.1814404;-0.0567867;-0.9648492;-0.1814404;20;17;-3;550;1542;3634;128;-0.2091413;-0.02216066;0.9769188;0.03739612;-29;-15;-6;82;338;-4424;4;-0.2590028;0.301939;-0.6468144;-0.6506777;-5;3;-13;-166;3912;98;16;-0.03739612;-0.9467598;-0.1855956;0.2603878;3;-5;1;-1457;-815;4042;2;0.566482;-0.6607809;-0.367036;-0.3282548;11;0;25;392;4192;-498;8;-0.2257618;-0.906248;0.1163435;0.3379501;-17;0;-7;1773;-1517;3527;0.7436602;1.485094;1.657294;0.7424657;1.37625;1.122717;0.7413942;1.278594;0.6532273;0.7542112;1.545301;-0.03026736;0.499806;1.640779;-0.3479307;0.159268;1.664944;-0.1943428;0.1112652;0.8887281;0.3091584;0;0;0;1.01955;1.615802;-0.3479338;1.308511;1.609716;-0.1943481;1.237641;0.6696372;0.004409075;1.304746;-0.2693975;-0.1028243;0.4319224;1.490093;1.703409;0.5032042;0.02952909;1.753711;0.6709958;0.2559173;3.070115;0.4319224;1.490093;1.703409;0.5032042;0.02952909;1.753711;0.6709958;0.2559173;3.070115
161809.7961;NotLabelled;16384;-0.3088643;0.5526316;-0.6422323;-0.432133;-28;20;109;-4176;3714;-1084;65536;0.6251588;-0.3365651;0.4930748;0.5027701;43;0;-25;345;6040;2060;8192;0.5955678;-0.7433314;-0.2382271;-0.1897507;6;6;-4;728;4004;-764;32768;0.7038601;-0.6177285;-0.2423823;-0.2534626;-7;0;-19;129;4069;-474;256;0.1814404;-0.05540166;-0.9644047;-0.1842105;15;20;-1;132;1840;3714;128;-0.2077562;-0.0166205;0.9770965;0.04293629;-41;-33;-10;-70;366;-4350;4;-0.2590028;0.3033241;-0.6500332;-0.6468144;-4;4;-12;-176;3978;130;16;-0.03739612;-0.9470302;-0.1842105;0.2603878;0;-7;0;-1355;-661;3938;2;0.5637119;-0.6630619;-0.368421;-0.3268698;10;-1;24;414;4004;-628;8;-0.2285319;-0.9053744;0.1177285;0.3379501;-13;-10;-7;1857;-1707;3569;0.7734399;1.486452;1.70778;0.7722883;1.381482;1.172428;0.7712542;1.28723;0.7022436;0.7831647;1.559273;0.02083844;0.5284621;1.656122;-0.2961707;0.1877721;1.677644;-0.1425274;0.1230184;0.8810847;0.3261183;0;0;0;1.048308;1.633362;-0.2961739;1.33724;1.627319;-0.1425325;1.261628;0.6874785;0.05560327;1.328498;-0.2522466;-0.04555845;0.4616984;1.491117;1.753906;0.5299793;0.03066802;1.811244;0.6985633;0.2561126;3.127709;0.4616984;1.491117;1.753906;0.5299793;0.03066802;1.811244;0.6985633;0.2561126;3.127709
161830.6068;NotLabelled;16384;-0.3227147;0.5457063;-0.6375751;-0.4376731;-17;5;102;-3774;3528;-1142;65536;0.6266376;-0.3296399;0.4944598;0.5041551;26;-47;-21;451;5808;1880;8192;0.5955678;-0.7425309;-0.2396122;-0.1911357;6;15;-5;612;4000;-702;32768;0.7024155;-0.6177285;-0.2465374;-0.2534626;-5;6;-18;215;4065;-428;256;0.1800554;-0.05263158;-0.9642864;-0.1869806;9;12;2;66;1790;3906;128;-0.2063712;-0.008310249;0.9772369;0.04847645;-51;-42;-12;144;606;-4412;4;-0.2576177;0.3047091;-0.6513113;-0.6454294;-3;0;-12;-288;3956;60;16;-0.03739612;-0.9472986;-0.1828255;0.2603878;0;-6;-1;-1397;-541;3864;2;0.5609418;-0.6659933;-0.3698061;-0.3240997;11;-2;25;466;3872;-666;8;-0.2313019;-0.9039707;0.1191136;0.3393352;-12;-17;-6;1809;-1363;3541;0.8100523;1.492462;1.798434;0.8089782;1.394581;1.261741;0.8080124;1.306553;0.7903508;0.8190444;1.58203;0.1103114;0.5640458;1.679506;-0.2062672;0.223247;1.698992;-0.05259308;0.1437897;0.868544;0.3503613;0;0;0;1.083973;1.658685;-0.2062699;1.372895;1.652954;-0.05259717;1.293825;0.7136005;0.1464932;1.360413;-0.2267796;0.0514189;0.4983037;1.496517;1.844572;0.5581715;0.03623903;1.914306;0.7276483;0.2607402;3.230818;0.4983037;1.496517;1.844572;0.5581715;0.03623903;1.914306;0.7276483;0.2607402;3.230818
161850.5202;NotLabelled;16384;-0.333795;0.5401662;-0.6327427;-0.4432133;-14;13;85;-2884;3124;-712;65536;0.6261982;-0.3240997;0.4958449;0.5069252;14;-33;-10;123;5660;1244;8192;0.5941828;-0.7421109;-0.2409972;-0.1952908;4;3;-3;584;4028;-614;32768;0.6987215;-0.6191136;-0.2534626;-0.2534626;-4;2;-19;243;4013;-444;256;0.1786704;-0.05124654;-0.9638038;-0.1911357;14;6;3;232;1528;3854;128;-0.2036011;0.006925208;0.9772162;0.05955679;-33;-45;-9;-158;312;-3846;4;-0.2562327;0.3060942;-0.6512082;-0.6454294;-2;-1;-12;-320;3988;-2;16;-0.03739612;-0.9472986;-0.1828255;0.2603878;0;-3;-2;-1385;-573;3774;2;0.5581717;-0.668219;-0.3711911;-0.3227147;10;-2;27;536;4080;-656;8;-0.234072;-0.9028878;0.1218837;0.3393352;-12;-20;-5;1713;-1151;3413;0.8210763;1.485929;1.835814;0.8200868;1.395748;1.297773;0.819195;1.314483;0.8251698;0.8287176;1.593004;0.1463485;0.5732006;1.690377;-0.1698435;0.2322709;1.707195;-0.01614532;0.1510066;0.8638813;0.3587516;0;0;0;1.093241;1.672596;-0.1698468;1.382168;1.667879;-0.01615041;1.304189;0.7282937;0.1822731;1.373529;-0.2123909;0.09231454;0.5093206;1.489323;1.881956;0.5696051;0.02945101;1.959404;0.7443802;0.2530084;3.275384;0.5093206;1.489323;1.881956;0.5696051;0.02945101;1.959404;0.7443802;0.2530084;3.275384
161871.725;NotLabelled;16384;-0.3407202;0.5387812;-0.6282701;-0.4459834;-2;15;67;-2138;3336;-24;65536;0.6269131;-0.3227147;0.4958449;0.5069252;-1;10;-3;257;5336;1182;8192;0.5927978;-0.7427672;-0.2423823;-0.1952908;4;9;0;720;4000;-680;32768;0.6969815;-0.6204986;-0.2562327;-0.2520775;-3;1;-17;89;4023;-384;256;0.1786704;-0.05124654;-0.9635281;-0.1925208;12;6;2;304;1648;3804;128;-0.2022161;0.01246537;0.9771868;0.06371191;-34;-30;-8;114;388;-4056;4;-0.2562327;0.3060942;-0.6525781;-0.6440443;0;-4;-11;-332;4078;94;16;-0.03739612;-0.9472986;-0.1828255;0.2603878;3;-1;-2;-1333;-619;3636;2;0.5526316;-0.672483;-0.3753462;-0.3185596;7;-1;28;548;4030;-522;8;-0.2382271;-0.900899;0.1246537;0.3407202;-11;-2;-4;1513;-1053;3193;0.8250583;1.460672;1.866545;0.8242345;1.385592;1.326189;0.8234881;1.317593;0.8514957;0.8321432;1.601388;0.174851;0.5763432;1.70026;-0.140646;0.2353173;1.714632;0.01308747;0.1550938;0.8609593;0.3639947;0;0;0;1.096445;1.684399;-0.1406493;1.385352;1.67956;0.01308239;1.303489;0.740001;0.210066;1.375282;-0.2015185;0.1314891;0.5132886;1.462773;1.912668;0.5780292;0.00329268;1.993805;0.757018;0.2268496;3.309218;0.5132886;1.462773;1.912668;0.5780292;0.00329268;1.993805;0.757018;0.2268496;3.309218
161892.5315;NotLabelled;16384;-0.3490305;0.536011;-0.6230933;-0.4501385;0;23;58;-1772;3726;244;65536;0.6295376;-0.3282548;0.4916897;0.5041551;-24;41;9;1015;4526;1358;8192;0.5914127;-0.7430525;-0.2437673;-0.1966759;4;12;3;660;3964;-704;32768;0.6959569;-0.6204986;-0.2590028;-0.2520775;-3;4;-15;9;4089;-422;256;0.1786704;-0.05124654;-0.9632503;-0.1939058;7;4;2;204;1740;3708;128;-0.200831;0.01800554;0.9771063;0.06786703;-35;-30;-7;-214;544;-4282;4;-0.2520775;0.3074792;-0.6549065;-0.6426592;2;-3;-13;-194;3846;86;16;-0.03462604;-0.9476701;-0.1814404;0.2603878;9;-3;2;-1227;-809;3718;2;0.5484765;-0.6769199;-0.3781163;-0.3130194;3;-4;24;708;3890;-554;8;-0.2396122;-0.9005316;0.1246537;0.3407202;-11;6;-3;1625;-1131;3229;0.8251221;1.452482;1.88293;0.8243603;1.383032;1.341822;0.8236684;1.319979;0.8664463;0.8322308;1.605656;0.1905927;0.5764053;1.705269;-0.1246506;0.2353593;1.719035;0.02909357;0.156326;0.8597531;0.3663113;0;0;0;1.096516;1.68968;-0.1246539;1.385412;1.684565;0.0290882;1.302919;0.7457266;0.2292176;1.376082;-0.1962383;0.1575448;0.5133471;1.454103;1.929037;0.5740687;-0.005319595;2.014218;0.7530046;0.2182372;3.329639;0.5133471;1.454103;1.929037;0.5740687;-0.005319595;2.014218;0.7530046;0.2182372;3.329639
161913.5147;NotLabelled;16384;-0.3628809;0.5387812;-0.6096308;-0.4542936;19;55;40;-1410;2826;-1130;65536;0.6262594;-0.3601108;0.4847645;0.4930748;-61;95;71;2663;4186;766;8192;0.5914127;-0.7425967;-0.2451524;-0.1966759;5;9;4;572;3998;-794;32768;0.6949197;-0.6204986;-0.2617728;-0.2520775;-2;8;-14;121;4105;-414;256;0.1786704;-0.05263158;-0.9628958;-0.1952908;4;0;2;400;1720;3796;128;-0.199446;0.02493075;0.9769404;0.07202215;-37;-31;-8;-190;578;-4312;4;-0.2506925;0.3102493;-0.6541313;-0.6426592;4;3;-14;-248;3942;10;16;-0.033241;-0.9479838;-0.1800554;0.2603878;9;1;5;-1257;-739;3870;2;0.5470914;-0.677904;-0.3795014;-0.3116343;3;-2;21;710;3760;-530;8;-0.2409972;-0.8998273;0.1232687;0.3421052;-13;5;-2;1883;-1159;3341;0.8168014;1.445191;1.89098;0.8161013;1.381371;1.349179;0.8154637;1.323266;0.8731734;0.8240619;1.610822;0.1981181;0.5682709;1.711175;-0.1169181;0.2271756;1.724336;0.03676933;0.150227;0.8613944;0.3650046;0;0;0;1.088389;1.695858;-0.1168215;1.377246;1.690468;0.03698564;1.292819;0.7542717;0.248367;1.367952;-0.1878116;0.1803797;0.505021;1.446333;1.937066;0.5686298;-0.01212406;2.035635;0.7486961;0.2034314;3.352237;0.505021;1.446333;1.937066;0.5686298;-0.01212406;2.035635;0.7486961;0.2034314;3.352237
161934.5072;NotLabelled;16384;-0.3642659;0.5457063;-0.6015579;-0.4556787;52;51;18;-3032;2196;-2044;65536;0.6218745;-0.3767313;0.4833795;0.4875346;-49;12;77;3175;5526;-228;8192;0.5900277;-0.7428718;-0.2465374;-0.1980609;4;7;4;696;3996;-798;32768;0.6933652;-0.6204986;-0.2645429;-0.2534626;0;4;-12;47;4087;-336;256;0.1772853;-0.05263158;-0.9631518;-0.1952908;4;9;4;524;1610;3684;128;-0.1980609;0.03047091;0.9767499;0.07617728;-34;-33;-10;-320;606;-4062;4;-0.2506925;0.3116343;-0.6548318;-0.6412742;4;7;-14;-222;4050;16;16;-0.03185596;-0.9480314;-0.1800554;0.2603878;10;2;6;-1179;-627;3890;2;0.5457063;-0.6795093;-0.3808864;-0.3088643;3;-1;19;624;3876;-504;8;-0.2423823;-0.8994552;0.1232687;0.3421052;-13;0;-1;1875;-1067;3457;0.7858062;1.458136;1.875035;0.785171;1.400253;1.332568;0.7845905;1.347363;0.8559541;0.7938961;1.637138;0.1818577;0.5383635;1.739084;-0.1328772;0.1972757;1.752463;0.02080876;0.1286906;0.8803636;0.325877;0;0;0;1.058448;1.722655;-0.1327631;1.347271;1.716138;0.02106333;1.264205;0.7800554;0.2334887;1.341306;-0.1621313;0.1692414;0.4740205;1.458773;1.921093;0.5446715;0.0009884834;2.02468;0.724732;0.2120668;3.342007;0.4740205;1.458773;1.921093;0.5446715;0.0009884834;2.02468;0.724732;0.2120668;3.342007
161954.5239;NotLabelled;16384;-0.3628809;0.5512465;-0.5930615;-0.4612188;46;3;12;-4270;3896;-64;65536;0.6122667;-0.3781163;0.4916897;0.4903047;1;-69;61;-807;5302;-2218;8192;0.5872576;-0.7433055;-0.2506925;-0.199446;5;14;5;656;3948;-694;32768;0.6906832;-0.6204986;-0.2714681;-0.2534626;1;7;-10;73;4109;-352;256;0.1772853;-0.04847645;-0.963088;-0.1966759;3;5;0;-392;1314;3662;128;-0.1952908;0.0401662;0.9763924;0.08310249;-12;-17;-1;-284;798;-4012;4;-0.2493075;0.3144044;-0.6540359;-0.6412742;4;8;-12;-258;3992;6;16;-0.03047091;-0.9480769;-0.1800554;0.2603878;9;4;8;-1245;-547;3878;2;0.5443213;-0.68047;-0.3822715;-0.3074792;3;0;17;584;4064;-500;8;-0.2437673;-0.8988898;0.1246537;0.3421052;-11;-8;-2;1773;-883;3439;0.7640677;1.458443;1.850261;0.7634943;1.406194;1.307222;0.7629682;1.358254;0.8300852;0.7724336;1.647996;0.1559765;0.5169567;1.750073;-0.1587607;0.1758778;1.763653;-0.00507322;0.1210192;0.8905871;0.3000096;0;0;0;1.037032;1.733349;-0.1586496;1.325853;1.726674;-0.004825175;1.242209;0.7909834;0.2090948;1.319286;-0.1513932;0.1476588;0.4522766;1.458603;1.896288;0.5220996;0.001137972;2.004829;0.7063715;0.2086854;3.322135;0.4522766;1.458603;1.896288;0.5220996;0.001137972;2.004829;0.7063715;0.2086854;3.322135
161974.7751;NotLabelled;16384;-0.3601108;0.5484765;-0.5929838;-0.466759;26;-49;22;-2580;4680;1366;65536;0.6069122;-0.3795014;0.4972299;0.4903047;-7;-18;46;-1589;3738;-298;8192;0.5858725;-0.743459;-0.2534626;-0.199446;2;5;7;482;4138;-490;32768;0.6896269;-0.6204986;-0.2728532;-0.2548476;1;4;-8;117;4093;-456;256;0.1772853;-0.04847645;-0.963088;-0.1966759;0;0;-2;-42;1338;4098;128;-0.1952908;0.04293629;0.9762745;0.08310249;1;-12;0;56;646;-3978;4;-0.2493075;0.3171745;-0.654055;-0.6398892;4;12;-12;-284;3946;-24;16;-0.02770083;-0.9485411;-0.1800554;0.2590028;8;6;9;-1395;-687;4014;2;0.5429363;-0.6814207;-0.3836565;-0.3060942;2;0;16;600;4232;-602;8;-0.2437673;-0.8986967;0.1260388;0.3421052;-7;-8;-2;1477;-949;3449;0.7531382;1.454;1.843804;0.752669;1.411239;1.299936;0.7522345;1.371636;0.8220347;0.759106;1.662236;0.148264;0.5027099;1.762505;-0.166307;0.1615572;1.773004;-0.01254135;0.1255903;0.8955927;0.2827316;0;0;0;1.022908;1.750204;-0.1663098;1.311805;1.745806;-0.012546;1.227235;0.8091829;0.1968813;1.308855;-0.1333654;0.1446411;0.4413384;1.453356;1.889767;0.5185053;-0.003372192;2.003105;0.7058955;0.2006431;3.320523;0.4413384;1.453356;1.889767;0.5185053;-0.003372192;2.003105;0.7058955;0.2006431;3.320523
161995.5116;NotLabelled;16384;-0.3573407;0.5443213;-0.5929968;-0.4736842;26;-46;22;-808;4580;850;65536;0.6008511;-0.3836565;0.501385;0.4903047;-10;-20;42;-481;4416;-1174;8192;0.5858725;-0.743459;-0.2534626;-0.199446;0;0;10;600;4134;-604;32768;0.6885245;-0.6204986;-0.2756233;-0.2548476;0;-1;-6;19;4087;-486;256;0.1772853;-0.04709141;-0.9631568;-0.1966759;0;3;-1;302;2056;3822;128;-0.1952908;0.04293629;0.9762745;0.08310249;-5;-2;-3;-110;590;-4306;4;-0.2493075;0.3227147;-0.6526971;-0.6385041;7;6;-13;-376;3912;-40;16;-0.02493075;-0.9485725;-0.1842105;0.2562327;2;15;8;-1505;-585;3982;2;0.5401662;-0.6834587;-0.3850415;-0.3047091;0;0;10;876;4422;-626;8;-0.2437673;-0.8983614;0.1246537;0.3434903;1;12;0;1445;-1255;3375;0.7496452;1.457091;1.83553;0.7491826;1.414944;1.291613;0.748754;1.37588;0.8136674;0.7556256;1.66648;0.1398967;0.4992292;1.766749;-0.1746744;0.1580767;1.777248;-0.02090868;0.1301408;0.8984963;0.2712278;0;0;0;1.019428;1.754449;-0.1746774;1.308325;1.750051;-0.02091312;1.22485;0.8141805;0.1922855;1.305617;-0.128507;0.1412475;0.4378448;1.456396;1.881488;0.5167755;0.0002610683;2.001074;0.701568;0.1965686;3.320029;0.4378448;1.456396;1.881488;0.5167755;0.0002610683;2.001074;0.701568;0.1965686;3.320029
162016.5289;NotLabelled;16384;-0.3545706;0.5415512;-0.5938615;-0.4778393;10;-14;7;-712;4636;230;65536;0.5953263;-0.3850415;0.5055401;0.4916897;-9;-46;32;-857;4620;-1874;8192;0.5858725;-0.7433559;-0.2548476;-0.1980609;0;1;10;686;3960;-830;32768;0.6892151;-0.6191136;-0.2770083;-0.2548476;0;0;-6;73;4071;-434;256;0.1772853;-0.04847645;-0.963088;-0.1966759;4;0;2;212;2132;4038;128;-0.1939058;0.04293629;0.9764317;0.08448754;-7;0;-3;-366;794;-4420;4;-0.2479224;0.3254848;-0.6518486;-0.6385041;9;5;-13;-460;3914;-160;16;-0.0235457;-0.9480658;-0.1869806;0.2562327;2;17;7;-1473;-475;3756;2;0.5401662;-0.6832931;-0.3864266;-0.3033241;-3;3;7;1028;4238;-454;8;-0.2423823;-0.899116;0.1218837;0.3434903;3;19;3;1619;-1341;3397;0.7421706;1.465393;1.826474;0.7417082;1.423246;1.282558;0.7412795;1.384182;0.8046122;0.7473695;1.674442;0.1306873;0.4907033;1.773861;-0.1839333;0.1495259;1.783533;-0.03016889;0.1307779;0.9027284;0.2564675;0;0;0;1.010933;1.762946;-0.1839368;1.299842;1.759397;-0.03017455;1.216491;0.8235272;0.1830727;1.299032;-0.1192015;0.13577;0.43037;1.464697;1.872432;0.5168865;0.009709477;2.000428;0.6953338;0.2004684;3.32107;0.43037;1.464697;1.872432;0.5168865;0.009709477;2.000428;0.6953338;0.2004684;3.32107
162036.5242;NotLabelled;16384;-0.3628809;0.5443213;-0.5907328;-0.4722992;-12;48;1;-1038;4320;584;65536;0.5893283;-0.3905817;0.5083103;0.4916897;-24;15;26;-867;4084;-1364;8192;0.5844875;-0.7439698;-0.2562327;-0.1980609;2;2;7;564;3880;-982;32768;0.6886568;-0.6191136;-0.2783934;-0.2548476;2;-2;-7;87;4145;-344;256;0.1772853;-0.04847645;-0.9628041;-0.1980609;-1;3;6;240;1692;4040;128;-0.1939058;0.04432133;0.9763698;0.08448754;0;-3;-3;-598;882;-4112;4;-0.2479224;0.3282548;-0.650458;-0.6385041;10;8;-12;-370;3976;-110;16;-0.02216066;-0.947825;-0.1883656;0.2562327;4;15;5;-1427;-401;3698;2;0.5387812;-0.6836019;-0.3878116;-0.3033241;-6;5;7;998;3970;-258;8;-0.2409972;-0.8996748;0.1204986;0.3434903;4;15;8;1797;-1209;3443;0.7393695;1.462104;1.821902;0.738923;1.421402;1.277876;0.7385081;1.383607;0.7998281;0.7450072;1.675997;0.1268283;0.4884371;1.7771;-0.1873338;0.1473695;1.78719;-0.03335223;0.1316843;0.9048045;0.2485672;0;0;0;1.008636;1.764801;-0.1876571;1.297617;1.759995;-0.03406519;1.214856;0.8239226;0.178525;1.300694;-0.1183479;0.1280613;0.4275678;1.461287;1.86785;0.5212256;0.006833792;1.996904;0.69972;0.192425;3.318275;0.4275678;1.461287;1.86785;0.5212256;0.006833792;1.996904;0.69972;0.192425;3.318275
162057.5283;NotLabelled;16384;-0.368421;0.5484765;-0.5867543;-0.468144;-12;39;-2;-1762;4274;90;65536;0.5881944;-0.3975069;0.5069252;0.4889196;-28;35;21;-1267;4408;-974;8192;0.5831025;-0.7432436;-0.2603878;-0.199446;0;14;3;784;4054;-588;32768;0.6880423;-0.6191136;-0.2811634;-0.2534626;4;3;-9;-83;4123;-422;256;0.1759003;-0.04709141;-0.9634106;-0.1966759;-3;7;9;152;1530;3756;128;-0.1925208;0.04570637;0.97658;0.08448754;1;0;-5;-440;742;-4250;4;-0.2465374;0.3310249;-0.6495801;-0.6385041;10;14;-10;-450;3908;-108;16;-0.02077562;-0.9479535;-0.1897507;0.2548476;5;9;3;-1447;-525;3752;2;0.5401662;-0.6823337;-0.3891967;-0.301939;-8;3;7;838;3898;-112;8;-0.2396122;-0.9007564;0.1191136;0.3421052;4;5;12;1755;-1281;3567;0.7434912;1.467286;1.806627;0.7430481;1.426891;1.262578;0.7426364;1.389365;0.784509;0.7494;1.68184;0.1115492;0.4929716;1.78285;-0.2027588;0.1518038;1.792745;-0.04898663;0.1291083;0.9098525;0.230862;0;0;0;1.013176;1.77082;-0.2027624;1.302066;1.766144;-0.04899234;1.221016;0.8313107;0.169624;1.30777;-0.111104;0.1236194;0.4316893;1.466444;1.852572;0.5310378;0.01292729;1.987774;0.7091186;0.1994336;3.309073;0.4316893;1.466444;1.852572;0.5310378;0.01292729;1.987774;0.7091186;0.1994336;3.309073
162077.5291;NotLabelled;16384;-0.3711911;0.5498615;-0.5859151;-0.4653739;-7;17;3;-1602;3750;-488;65536;0.5870028;-0.4044321;0.5041551;0.4875346;-30;28;18;-433;4244;-672;8192;0.5831025;-0.7423836;-0.2617728;-0.200831;-1;11;0;636;4086;-678;32768;0.6870644;-0.6177285;-0.2853186;-0.2548476;4;7;-9;59;4009;-518;256;0.1717452;-0.04709141;-0.9644415;-0.1952908;-7;5;12;98;1546;3920;128;-0.1911357;0.04432133;0.9770346;0.08310249;1;-1;-6;-218;624;-4088;4;-0.2465374;0.333795;-0.648161;-0.6385041;9;15;-9;-594;4022;-158;16;-0.01939058;-0.9477045;-0.1911357;0.2548476;5;5;4;-1577;-635;3838;2;0.5401662;-0.6813588;-0.3919668;-0.300554;-12;2;6;842;3810;-124;8;-0.2396122;-0.9018035;0.1191136;0.3393352;3;1;16;1651;-1337;3483;0.7438034;1.473858;1.799421;0.743363;1.433726;1.255352;0.7429539;1.396433;0.7772651;0.7492089;1.68667;0.1033321;0.4925995;1.786226;-0.2112916;0.1514276;1.796097;-0.0575273;0.126092;0.91278;0.220751;0;0;0;1.012823;1.775015;-0.2112945;1.30173;1.771306;-0.05753183;1.222786;0.8369958;0.1640671;1.312922;-0.1052973;0.12227;0.4320012;1.472993;1.845364;0.5389758;0.02044916;1.985122;0.7181357;0.2036755;3.306734;0.4320012;1.472993;1.845364;0.5389758;0.02044916;1.985122;0.7181357;0.2036755;3.306734
162097.6969;NotLabelled;16384;-0.3711911;0.5512465;-0.5846123;-0.4653739;-2;7;7;-1282;3580;-768;65536;0.5857105;-0.4113573;0.501385;0.4861496;-27;20;21;-841;4030;-582;8192;0.5817174;-0.7429802;-0.2631579;-0.200831;0;6;1;608;3972;-864;32768;0.6859075;-0.6177285;-0.2880886;-0.2548476;4;6;-10;-1;4075;-430;256;0.1703601;-0.04709141;-0.9649665;-0.1939058;-7;0;10;120;1396;3960;128;-0.1911357;0.04570637;0.9770877;0.08171745;9;-6;-4;-214;658;-4128;4;-0.2465374;0.3365651;-0.6467269;-0.6385041;9;10;-8;-816;3958;-232;16;-0.01800554;-0.9477319;-0.1911357;0.2548476;4;4;5;-1455;-695;3872;2;0.5429363;-0.67816;-0.3947368;-0.299169;-14;3;7;820;3856;-322;8;-0.2382271;-0.9044163;0.1177285;0.333795;2;6;19;1487;-1463;3385;0.7395436;1.48134;1.79125;0.7390831;1.439377;1.24732;0.7386562;1.400475;0.7693609;0.745506;1.688761;0.09459713;0.4890956;1.787981;-0.2202948;0.1479568;1.799046;-0.06653857;0.12077;0.9156954;0.2114574;0;0;0;1.009293;1.775621;-0.2202984;1.298202;1.771716;-0.06654334;1.221363;0.8371356;0.1546565;1.314407;-0.104952;0.1146255;0.4277429;1.480629;1.837207;0.5416818;0.0287385;1.978241;0.7321918;0.2093673;3.298621;0.4277429;1.480629;1.837207;0.5416818;0.0287385;1.978241;0.7321918;0.2093673;3.298621
162119.5503;NotLabelled;16384;-0.3725762;0.5526316;-0.5824195;-0.4653739;3;11;9;-1158;3690;-820;65536;0.5841231;-0.4168975;0.5;0.4847645;-21;13;22;-667;4206;-284;8192;0.5817174;-0.7421122;-0.2645429;-0.2022161;0;7;2;642;3942;-744;32768;0.68657;-0.6163435;-0.2894737;-0.2548476;6;5;-10;-23;4093;-372;256;0.1689751;-0.04709141;-0.9654872;-0.1925208;-2;-2;10;8;1650;3976;128;-0.1897507;0.04570637;0.9774724;0.08033241;2;-5;-3;-210;574;-4268;4;-0.2437673;0.3421052;-0.6448674;-0.6385041;12;2;-9;-906;3912;-206;16;-0.01800554;-0.9478229;-0.1925208;0.2534626;1;2;6;-1459;-631;3918;2;0.5429363;-0.6771508;-0.3975069;-0.2977839;-14;4;7;858;3904;-514;8;-0.2382271;-0.9057897;0.1149584;0.3310249;2;7;19;1451;-1449;3319;0.7299005;1.487934;1.782577;0.7294269;1.444788;1.238739;0.7289885;1.404847;0.7608657;0.7360975;1.691227;0.08529294;0.4797705;1.789833;-0.2298598;0.1386543;1.801693;-0.07611197;0.1142145;0.9185153;0.2026866;0;0;0;0.9999543;1.77692;-0.2298628;1.28887;1.773142;-0.07611716;1.212157;0.8393465;0.1484227;1.306834;-0.1027235;0.1119878;0.4181008;1.487323;1.828543;0.5382575;0.03611398;1.971414;0.7330879;0.2132105;3.291643;0.4181008;1.487323;1.828543;0.5382575;0.03611398;1.971414;0.7330879;0.2132105;3.291643
162140.516;NotLabelled;16384;-0.3767313;0.5567867;-0.5746287;-0.466759;10;12;15;-1312;3980;-412;65536;0.5782412;-0.4265928;0.5;0.4833795;-11;2;27;-683;4176;-508;8192;0.5817174;-0.7412379;-0.265928;-0.2036011;0;15;0;596;4074;-536;32768;0.6853955;-0.6163435;-0.2922437;-0.2548476;6;8;-10;-87;4061;-516;256;0.16759;-0.04847645;-0.96566;-0.1925208;-2;-8;9;96;1634;4020;128;-0.1897507;0.04709141;0.9774066;0.08033241;-1;-8;-4;-140;570;-4278;4;-0.2423823;0.3434903;-0.6446531;-0.6385041;12;1;-7;-740;3932;-254;16;-0.0166205;-0.9482175;-0.1925208;0.2520775;2;4;6;-1477;-539;3836;2;0.5429363;-0.676944;-0.398892;-0.2963989;-14;8;7;990;3912;-528;8;-0.2382271;-0.9069717;0.1135734;0.3282548;4;7;16;1449;-1479;3317;0.723042;1.495326;1.776272;0.7225517;1.450651;1.232558;0.7220987;1.409366;0.7547986;0.7294606;1.693836;0.07842231;0.473215;1.791825;-0.2369891;0.1321227;1.804478;-0.0832518;0.1102514;0.9208212;0.1942411;0;0;0;0.9933847;1.778364;-0.2369921;1.282307;1.774713;-0.08325642;1.206493;0.8406439;0.1404453;1.304321;-0.1010695;0.1031045;0.4112439;1.494844;1.822249;0.5463142;0.04588532;1.974345;0.7408534;0.2232187;3.294585;0.4112439;1.494844;1.822249;0.5463142;0.04588532;1.974345;0.7408534;0.2232187;3.294585
162162.8002;NotLabelled;16384;-0.3781163;0.5567867;-0.5714535;-0.4695291;10;4;19;-1294;3976;-146;65536;0.5773464;-0.4293629;0.5;0.4819945;-10;0;28;-593;4190;-480;8192;0.5817174;-0.7403575;-0.267313;-0.2049861;0;13;-3;456;4074;-618;32768;0.6848552;-0.6149584;-0.2963989;-0.2548476;6;11;-14;35;4073;-488;256;0.16759;-0.04847645;-0.9659352;-0.1911357;-2;-4;7;-4;1480;3778;128;-0.1897507;0.04847645;0.9774518;0.07894737;0;-8;-4;-140;580;-4120;4;-0.2409972;0.3448753;-0.6430576;-0.6398892;11;0;-7;-508;4042;-312;16;-0.01523546;-0.9479585;-0.1939058;0.2520775;2;4;5;-1541;-449;3782;2;0.5443213;-0.6747953;-0.4016621;-0.2950138;-13;9;6;990;3914;-482;8;-0.2368421;-0.9078342;0.1135734;0.3268698;6;4;11;1363;-1413;3205;0.7053224;1.498884;1.761822;0.7048353;1.45451;1.218082;0.7043852;1.413489;0.7403007;0.7126803;1.698253;0.06405881;0.4567594;1.797217;-0.2513116;0.1157062;1.810897;-0.09757593;0.1034295;0.9254849;0.1748642;0;0;0;0.9768832;1.782078;-0.25131;1.265788;1.777422;-0.09756953;1.191228;0.8432016;0.1259202;1.290704;-0.09847689;0.09224683;0.3935238;1.498377;1.807796;0.5332801;0.0502224;1.963283;0.7276085;0.2233202;3.284116;0.3935238;1.498377;1.807796;0.5332801;0.0502224;1.963283;0.7276085;0.2233202;3.284116
162183.0596;NotLabelled;16384;-0.3795014;0.5554016;-0.5707431;-0.4709141;3;2;21;-1096;3864;-246;65536;0.5741862;-0.433518;0.501385;0.4806094;-9;-2;31;-279;4064;-638;8192;0.5803324;-0.7406723;-0.267313;-0.2077562;2;2;-4;930;3960;-638;32768;0.6825445;-0.6135734;-0.3033241;-0.2562327;7;8;-16;-49;4039;-378;256;0.166205;-0.04986149;-0.966104;-0.1911357;0;-5;6;30;1412;3534;128;-0.1883656;0.04847645;0.9777197;0.07894737;-3;-9;-4;-96;652;-4174;4;-0.2409972;0.3462604;-0.6398892;-0.6423129;9;1;-6;-512;4034;-328;16;-0.01523546;-0.9476742;-0.1952908;0.2520775;2;4;4;-1569;-527;3860;2;0.5443213;-0.673969;-0.4030471;-0.2950138;-10;5;4;962;3892;-396;8;-0.2368421;-0.9083318;0.1135734;0.3254848;8;0;5;1483;-1391;3261;0.6995486;1.505908;1.763296;0.6990486;1.460351;1.219655;0.6985871;1.418291;0.7419636;0.7069595;1.701169;0.06493157;0.4510579;1.799381;-0.2506896;0.1100256;1.813657;-0.09696154;0.1028553;0.9264796;0.1698635;0;0;0;0.9711742;1.783986;-0.250693;1.260092;1.779617;-0.09696722;1.185334;0.8449972;0.124783;1.289741;-0.09625983;0.09439647;0.3877513;1.505502;1.80928;0.5358759;0.05813754;1.964377;0.7306848;0.2286301;3.285478;0.3877513;1.505502;1.80928;0.5358759;0.05813754;1.964377;0.7306848;0.2286301;3.285478
162204.5205;NotLabelled;16384;-0.3822715;0.5554016;-0.5677421;-0.4722992;6;4;21;-1188;3786;-542;65536;0.5719702;-0.4362881;0.5041551;0.4778393;-7;-4;32;-371;4036;-672;8192;0.5803324;-0.7397807;-0.2686981;-0.2091413;1;10;-4;962;4088;-444;32768;0.6824476;-0.6121883;-0.3074792;-0.2548476;7;8;-15;-63;4079;-588;256;0.166205;-0.05124654;-0.9663045;-0.1897507;-3;-3;6;106;1534;3708;128;-0.1869806;0.05124654;0.9778442;0.07894737;-2;-8;-4;-256;606;-3980;4;-0.2396122;0.3476454;-0.6398892;-0.6420829;8;1;-5;-620;3978;-260;16;-0.01385042;-0.9476954;-0.1952908;0.2520775;1;5;3;-1545;-543;3928;2;0.5443213;-0.6737441;-0.4044321;-0.2936288;-3;-4;3;992;3858;-218;8;-0.2354571;-0.9091508;0.1177285;0.3227147;12;-19;1;1465;-1481;3251;0.6965651;1.506916;1.756953;0.6960647;1.46131;1.213316;0.6956025;1.419206;0.7356284;0.7048975;1.702371;0.05872855;0.4493189;1.801554;-0.2568504;0.1083321;1.816857;-0.103121;0.1025371;0.9283776;0.1593672;0;0;0;0.9693828;1.784483;-0.2568537;1.258282;1.77911;-0.1031255;1.179198;0.8446972;0.1179917;1.288272;-0.09621549;0.09403193;0.3847679;1.506513;1.802937;0.5431756;0.05956697;1.951637;0.7406399;0.2309868;3.272224;0.3847679;1.506513;1.802937;0.5431756;0.05956697;1.951637;0.7406399;0.2309868;3.272224
162224.5366;NotLabelled;16384;-0.3822715;0.5554016;-0.566587;-0.4736842;8;1;20;-1410;3750;-498;65536;0.5687093;-0.4404432;0.5055401;0.4764543;-5;-6;31;-359;4100;-364;8192;0.5803324;-0.738883;-0.2700831;-0.2105263;0;9;-4;876;4108;-396;32768;0.6824349;-0.6108033;-0.3102493;-0.2548476;6;10;-13;-239;3995;-534;256;0.166205;-0.05263158;-0.966501;-0.1883656;-3;-3;5;82;1536;3758;128;-0.1869806;0.05263158;0.9778816;0.07756232;6;-10;-3;-146;674;-4070;4;-0.2382271;0.3504155;-0.6371191;-0.6438447;9;3;-4;-654;3914;-302;16;-0.01246537;-0.9477956;-0.1966759;0.2506925;3;2;2;-1517;-525;3782;2;0.5443213;-0.674346;-0.4044321;-0.2922437;-3;-7;2;952;3924;-218;8;-0.234072;-0.9094514;0.1218837;0.3213296;16;-25;0;1347;-1425;3069;0.6966497;1.508691;1.754664;0.6961554;1.463631;1.210981;0.6956988;1.422008;0.7332513;0.7058329;1.703603;0.0557088;0.4505432;1.802875;-0.2600761;0.1096189;1.819605;-0.1063558;0.1064338;0.9294362;0.1503923;0;0;0;0.9705505;1.784161;-0.2600794;1.259444;1.778225;-0.1063606;1.180552;0.8435318;0.1136378;1.296237;-0.09668708;0.09382111;0.384852;1.508242;1.800643;0.5468891;0.06215882;1.953762;0.7443241;0.230046;3.274808;0.384852;1.508242;1.800643;0.5468891;0.06215882;1.953762;0.7443241;0.230046;3.274808
162244.5537;NotLabelled;16384;-0.3850415;0.5540166;-0.5613846;-0.4792244;9;-8;20;-1142;3922;-368;65536;0.5628077;-0.4445983;0.5110803;0.4736842;-1;-7;29;-279;4172;-558;8192;0.5803324;-0.7383752;-0.2714681;-0.2105263;0;6;-4;718;4044;-534;32768;0.680649;-0.6108033;-0.3130194;-0.2562327;4;9;-11;-189;4029;-618;256;0.1648199;-0.05263158;-0.9667382;-0.1883656;0;0;5;-36;1440;3790;128;-0.1869806;0.05401662;0.977806;0.07756232;0;-2;-5;-224;596;-4056;4;-0.2382271;0.3518005;-0.6371191;-0.643089;10;6;-4;-586;3882;-442;16;-0.01246537;-0.9477956;-0.1966759;0.2506925;3;3;3;-1565;-525;3880;2;0.5457063;-0.6738253;-0.4044321;-0.2908587;-4;-5;2;1060;3906;-298;8;-0.232687;-0.9097288;0.1260388;0.3199446;22;-21;0;1451;-1389;3171;0.6918998;1.513128;1.746474;0.6913923;1.466882;1.202891;0.6909242;1.424215;0.7252535;0.7018875;1.704238;0.04707268;0.4468847;1.8036;-0.2689158;0.1060286;1.821755;-0.1152061;0.1056421;0.9311445;0.1400238;0;0;0;0.9668304;1.783242;-0.268919;1.255717;1.776742;-0.1152112;1.177018;0.8417685;0.1036609;1.296692;-0.09798241;0.08538353;0.3801031;1.512779;1.792462;0.5545059;0.06809402;1.945192;0.7479675;0.2326562;3.267243;0.3801031;1.512779;1.792462;0.5545059;0.06809402;1.945192;0.7479675;0.2326562;3.267243
162265.5746;NotLabelled;16384;-0.3850415;0.5526316;-0.5603773;-0.4819945;10;-11;18;-1042;3924;-314;65536;0.559243;-0.4473684;0.5138504;0.4722992;0;-13;29;-213;4120;-496;8192;0.5817174;-0.736376;-0.2728532;-0.2119114;-2;7;-2;972;3980;-510;32768;0.6799666;-0.6094183;-0.3171745;-0.2562327;3;8;-9;-251;4039;-546;256;0.1648199;-0.05263158;-0.9667382;-0.1883656;-1;-2;5;46;1576;3764;128;-0.1855956;0.05401662;0.9780698;0.07756232;1;-5;-5;-112;700;-4110;4;-0.2368421;0.3531856;-0.634349;-0.645575;10;5;-4;-626;3950;-436;16;-0.01246537;-0.9475071;-0.1980609;0.2506925;3;4;4;-1539;-521;3826;2;0.5457063;-0.672992;-0.4058172;-0.2908587;-6;-2;2;1084;3832;-256;8;-0.2299169;-0.9105308;0.1288089;0.3185596;25;-15;-1;1471;-1443;3221;0.6866274;1.51717;1.740379;0.6861231;1.471223;1.19677;0.6856578;1.42882;0.7191094;0.6967734;1.708802;0.040914;0.4418242;1.808286;-0.2750795;0.1009786;1.826637;-0.1213699;0.1109105;0.9329695;0.1227388;0;0;0;0.9617587;1.787645;-0.2750823;1.250642;1.780995;-0.1213745;1.174195;0.846023;0.09830397;1.293574;-0.09381938;0.08308655;0.3748305;1.516796;1.786365;0.5504131;0.07255447;1.941911;0.7475201;0.2371172;3.263423;0.3748305;1.516796;1.786365;0.5504131;0.07255447;1.941911;0.7475201;0.2371172;3.263423
