SEP=;
index;label;RightUpperArm_boneIndex;RightUpperArm_quat9x_w;RightUpperArm_quat9x_x;RightUpperArm_quat9x_y;RightUpperArm_quat9x_z;RightUpperArm_gyroscope_x;RightUpperArm_gyroscope_y;RightUpperArm_gyroscope_z;RightUpperArm_accelerometer_x;RightUpperArm_accelerometer_y;RightUpperArm_accelerometer_z;RightLowerArm_boneIndex;RightLowerArm_quat9x_w;RightLowerArm_quat9x_x;RightLowerArm_quat9x_y;RightLowerArm_quat9x_z;RightLowerArm_gyroscope_x;RightLowerArm_gyroscope_y;RightLowerArm_gyroscope_z;RightLowerArm_accelerometer_x;RightLowerArm_accelerometer_y;RightLowerArm_accelerometer_z;LeftUpperArm_boneIndex;LeftUpperArm_quat9x_w;LeftUpperArm_quat9x_x;LeftUpperArm_quat9x_y;LeftUpperArm_quat9x_z;LeftUpperArm_gyroscope_x;LeftUpperArm_gyroscope_y;LeftUpperArm_gyroscope_z;LeftUpperArm_accelerometer_x;LeftUpperArm_accelerometer_y;LeftUpperArm_accelerometer_z;LeftLowerArm_boneIndex;LeftLowerArm_quat9x_w;LeftLowerArm_quat9x_x;LeftLowerArm_quat9x_y;LeftLowerArm_quat9x_z;LeftLowerArm_gyroscope_x;LeftLowerArm_gyroscope_y;LeftLowerArm_gyroscope_z;LeftLowerArm_accelerometer_x;LeftLowerArm_accelerometer_y;LeftLowerArm_accelerometer_z;Chest_boneIndex;Chest_quat9x_w;Chest_quat9x_x;Chest_quat9x_y;Chest_quat9x_z;Chest_gyroscope_x;Chest_gyroscope_y;Chest_gyroscope_z;Chest_accelerometer_x;Chest_accelerometer_y;Chest_accelerometer_z;Spine_boneIndex;Spine_quat9x_w;Spine_quat9x_x;Spine_quat9x_y;Spine_quat9x_z;Spine_gyroscope_x;Spine_gyroscope_y;Spine_gyroscope_z;Spine_accelerometer_x;Spine_accelerometer_y;Spine_accelerometer_z;RightUpperLeg_boneIndex;RightUpperLeg_quat9x_w;RightUpperLeg_quat9x_x;RightUpperLeg_quat9x_y;RightUpperLeg_quat9x_z;RightUpperLeg_gyroscope_x;RightUpperLeg_gyroscope_y;RightUpperLeg_gyroscope_z;RightUpperLeg_accelerometer_x;RightUpperLeg_accelerometer_y;RightUpperLeg_accelerometer_z;RightLowerLeg_boneIndex;RightLowerLeg_quat9x_w;RightLowerLeg_quat9x_x;RightLowerLeg_quat9x_y;RightLowerLeg_quat9x_z;RightLowerLeg_gyroscope_x;RightLowerLeg_gyroscope_y;RightLowerLeg_gyroscope_z;RightLowerLeg_accelerometer_x;RightLowerLeg_accelerometer_y;RightLowerLeg_accelerometer_z;LeftUpperLeg_boneIndex;LeftUpperLeg_quat9x_w;LeftUpperLeg_quat9x_x;LeftUpperLeg_quat9x_y;LeftUpperLeg_quat9x_z;LeftUpperLeg_gyroscope_x;LeftUpperLeg_gyroscope_y;LeftUpperLeg_gyroscope_z;LeftUpperLeg_accelerometer_x;LeftUpperLeg_accelerometer_y;LeftUpperLeg_accelerometer_z;LeftLowerLeg_boneIndex;LeftLowerLeg_quat9x_w;LeftLowerLeg_quat9x_x;LeftLowerLeg_quat9x_y;LeftLowerLeg_quat9x_z;LeftLowerLeg_gyroscope_x;LeftLowerLeg_gyroscope_y;LeftLowerLeg_gyroscope_z;LeftLowerLeg_accelerometer_x;LeftLowerLeg_accelerometer_y;LeftLowerLeg_accelerometer_z;pelvis_x;pelvis_y;pelvis_z;lowerSpine_x;lowerSpine_y;lowerSpine_z;middleSpine_x;middleSpine_y;middleSpine_z;upperSpine_x;upperSpine_y;upperSpine_z;rightClavicle_x;rightClavicle_y;rightClavicle_z;rightShoulder_x;rightShoulder_y;rightShoulder_z;rightElbow_x;rightElbow_y;rightElbow_z;rightWrist_x;rightWrist_y;rightWrist_z;leftClavicle_x;leftClavicle_y;leftClavicle_z;leftShoulder_x;leftShoulder_y;leftShoulder_z;leftElbow_x;leftElbow_y;leftElbow_z;leftWrist_x;leftWrist_y;leftWrist_z;rightHip_x;rightHip_y;rightHip_z;rightKnee_x;rightKnee_y;rightKnee_z;rightAnkle_x;rightAnkle_y;rightAnkle_z;leftHip_x;leftHip_y;leftHip_z;leftKnee_x;leftKnee_y;leftKnee_z;leftAnkle_x;leftAnkle_y;leftAnkle_z;
424436.5197;NotLabelled;16384;0.5756977;-0.4764543;0.4875346;0.4515235;-1;-4;1;178;4034;556;65536;0.7681152;-0.4556787;0.3296399;0.3060942;2;-2;0;-764;3795;-1693;8192;0.5166205;-0.4224377;-0.5544476;-0.4972299;1;0;0;-200;4044;666;32768;0.669534;-0.3822715;-0.5124654;-0.3781163;0;1;1;475;3738;-1738;256;-0.1218837;0.1274238;-0.6038781;-0.777328;0;0;3;-78;3924;-978;128;0.1108033;-0.07202215;0.6952909;0.7064744;-3;0;-2;-106;4074;-12;4;0.574101;-0.5166205;0.4293629;0.468144;-1;0;0;370;3972;132;16;0.6454294;-0.750405;-0.08033241;-0.1177285;-1;-1;0;135;4185;582;2;0.5096953;-0.4058172;-0.5193906;-0.5529526;0;-1;0;-512;3966;188;8;0.6620498;-0.7440317;0.001385042;0.0900277;0;0;0;-499;4173;531;0.4016649;2.828203;-0.08447824;0.4074664;3.356896;-0.2189098;0.4125604;3.821119;-0.3390354;0.4394034;4.532886;-0.162598;0.1931689;4.86815;-0.1212002;-0.1535966;4.729829;-0.09363045;-0.2866682;3.813134;-0.1106947;-0.6075023;2.957298;-0.3605073;0.7131433;4.848541;-0.1211917;0.9961554;4.686469;-0.09361106;1.120649;3.734161;-0.1703359;1.413505;2.881908;-0.4630587;0.08940499;2.785641;-0.08068438;0.02713207;1.329509;-0.209754;0;0;0;0.08940499;2.785641;-0.08068438;0.02713207;1.329509;-0.209754;0;0;0
424457.5092;NotLabelled;16384;0.5745219;-0.4764543;0.4889196;0.4515235;-1;-3;0;238;3992;602;65536;0.7675617;-0.4556787;0.3296399;0.3074792;2;-2;0;-800;3717;-1639;8192;0.5180055;-0.4224377;-0.5531538;-0.4972299;2;-1;0;-166;4064;626;32768;0.6687499;-0.3822715;-0.5124654;-0.3795014;0;0;0;487;3714;-1740;256;-0.1232687;0.1274238;-0.6038781;-0.7771096;0;0;3;10;3888;-1012;128;0.1108033;-0.07202215;0.6952909;0.7064744;-1;-1;-2;-114;4010;54;4;0.574101;-0.5166205;0.4293629;0.468144;0;0;0;370;3984;88;16;0.6454294;-0.750405;-0.08033241;-0.1177285;0;0;0;79;4177;626;2;0.5096953;-0.4058172;-0.5193906;-0.5529526;0;-1;0;-500;4010;260;8;0.6620498;-0.7440317;0.001385042;0.0900277;0;-1;0;-527;4175;497;0.4018049;2.828204;-0.08432245;0.4076064;3.356896;-0.218754;0.4127003;3.821119;-0.3388795;0.4380467;4.53282;-0.1619574;0.1911082;4.867539;-0.1203335;-0.1553662;4.728471;-0.09286083;-0.291315;3.812244;-0.1122617;-0.6137794;2.957711;-0.3644238;0.7111226;4.849023;-0.1203337;0.9944745;4.687527;-0.09286094;1.119873;3.735157;-0.1673121;1.413237;2.882904;-0.4595261;0.08954498;2.785642;-0.08052856;0.02749626;1.329509;-0.2097065;0;0;0;0.08954498;2.785642;-0.08052856;0.02749626;1.329509;-0.2097065;0;0;0
424477.5682;NotLabelled;16384;0.5745786;-0.4750692;0.4889196;0.4529086;0;-2;0;280;4090;576;65536;0.7675617;-0.4556787;0.3296399;0.3074792;1;-1;0;-750;3723;-1661;8192;0.5180055;-0.4224377;-0.5531538;-0.4972299;1;0;0;-126;4046;740;32768;0.6687499;-0.3822715;-0.5124654;-0.3795014;0;0;0;505;3688;-1738;256;-0.1232687;0.1260388;-0.6038781;-0.7773354;-1;0;4;32;3970;-1014;128;0.1108033;-0.07202215;0.6939058;0.7078349;-1;-2;-2;-146;4050;82;4;0.574101;-0.5166205;0.4293629;0.468144;0;0;0;284;4010;66;16;0.6454294;-0.7501864;-0.08033241;-0.1191136;-1;1;0;143;4177;600;2;0.5096953;-0.4058172;-0.5193906;-0.5529526;0;0;0;-542;4024;244;8;0.6620498;-0.7440317;0.001385042;0.0900277;0;-1;0;-463;4155;533;0.4016638;2.828204;-0.08447942;0.4074652;3.356896;-0.218911;0.4125593;3.821119;-0.3390365;0.4394052;4.532885;-0.1625995;0.1931715;4.86815;-0.1211975;-0.1535935;4.729829;-0.09362188;-0.2890928;3.813483;-0.1102928;-0.6105525;2.958562;-0.3624249;0.7131459;4.848542;-0.1211976;0.9961584;4.68647;-0.09362167;1.12065;3.73421;-0.1709396;1.411846;2.881178;-0.4630546;0.08940385;2.785642;-0.08068557;0.02712867;1.329509;-0.2097544;0;0;0;0.08940385;2.785642;-0.08068557;0.02712867;1.329509;-0.2097544;0;0;0
424497.6165;NotLabelled;16384;0.5745786;-0.4750692;0.4889196;0.4529086;-1;-1;0;304;4014;544;65536;0.7683824;-0.4542936;0.3296399;0.3074792;1;-1;0;-772;3781;-1663;8192;0.5180055;-0.4224377;-0.5531538;-0.4972299;1;1;-1;-222;4056;610;32768;0.669534;-0.3822715;-0.5124654;-0.3781163;0;1;1;467;3684;-1730;256;-0.1232687;0.1260388;-0.6038781;-0.7773354;-1;0;3;56;3926;-1020;128;0.1108033;-0.07063711;0.6939058;0.7079744;0;-3;-2;-164;4122;-10;4;0.574101;-0.5166205;0.4293629;0.468144;0;0;0;332;3968;120;16;0.6454294;-0.7501864;-0.08033241;-0.1191136;0;-1;0;165;4177;628;2;0.5096953;-0.4072022;-0.5193906;-0.5519334;0;0;0;-486;3980;192;8;0.6620498;-0.7440317;0.001385042;0.0900277;0;0;0;-489;4195;537;0.4047075;2.828137;-0.08421688;0.4105146;3.357345;-0.2166092;0.4156135;3.822027;-0.3349441;0.4436907;4.533743;-0.1584954;0.1980372;4.869432;-0.1170879;-0.1489666;4.731711;-0.08951446;-0.2852632;3.815534;-0.1087818;-0.606165;2.960612;-0.3616236;0.7179768;4.848925;-0.1170882;1.000709;4.686362;-0.08951503;1.125371;3.734102;-0.1665575;1.417211;2.881072;-0.4580278;0.09244743;2.785561;-0.08060027;0.03045773;1.329429;-0.2098065;0;0;0;0.09244743;2.785561;-0.08060027;0.03045773;1.329429;-0.2098065;0;0;0
424518.8314;NotLabelled;16384;0.5745786;-0.4750692;0.4889196;0.4529086;0;0;0;294;3982;552;65536;0.7683824;-0.4542936;0.3296399;0.3074792;1;0;0;-748;3741;-1671;8192;0.5180055;-0.4224377;-0.5531538;-0.4972299;0;1;-1;-278;4008;636;32768;0.6687499;-0.3822715;-0.5124654;-0.3795014;0;3;0;465;3704;-1692;256;-0.1232687;0.1260388;-0.6038781;-0.7773354;0;1;3;84;3884;-1016;128;0.1108033;-0.07063711;0.6952909;0.7066142;0;-1;-1;-166;4066;-26;4;0.574101;-0.5166205;0.4293629;0.468144;0;0;0;336;4032;116;16;0.6454294;-0.750405;-0.08033241;-0.1177285;0;0;0;111;4159;630;2;0.5096953;-0.4072022;-0.5193906;-0.5519334;0;0;0;-494;4012;238;8;0.6620498;-0.7440317;0.001385042;0.0900277;0;0;1;-471;4203;495;0.4047075;2.828138;-0.08421671;0.4105147;3.357345;-0.2166084;0.4156137;3.822027;-0.3349429;0.4436907;4.533743;-0.1584941;0.1980374;4.869432;-0.1170866;-0.1489663;4.731711;-0.08951326;-0.2852629;3.815534;-0.1087807;-0.6082274;2.96192;-0.3634089;0.7179769;4.848925;-0.117087;1.000709;4.686363;-0.08951378;1.125371;3.734102;-0.1665563;1.418868;2.881849;-0.458636;0.09244753;2.785561;-0.08060016;0.03045788;1.329428;-0.2098062;0;0;0;0.09244753;2.785561;-0.08060016;0.03045788;1.329428;-0.2098062;0;0;0
424539.6488;NotLabelled;16384;0.5745786;-0.4750692;0.4889196;0.4529086;0;1;1;210;4008;588;65536;0.7683824;-0.4542936;0.3296399;0.3074792;0;0;0;-760;3729;-1651;8192;0.5180055;-0.4224377;-0.5531538;-0.4972299;1;0;-1;-218;4062;592;32768;0.669809;-0.3822715;-0.5110803;-0.3795014;0;0;1;501;3778;-1696;256;-0.1232687;0.1260388;-0.6038781;-0.7773354;0;2;3;24;3878;-1030;128;0.1108033;-0.07063711;0.6952909;0.7066142;1;-2;-1;-206;3982;36;4;0.574101;-0.5166205;0.4293629;0.468144;0;0;0;310;4024;92;16;0.6454294;-0.750405;-0.08033241;-0.1177285;0;0;0;171;4175;638;2;0.5096953;-0.4072022;-0.5193906;-0.5519334;0;1;0;-476;4000;268;8;0.6620498;-0.7440317;0.001385042;0.0900277;0;0;0;-469;4199;523;0.4018418;2.828204;-0.08428176;0.4076432;3.356897;-0.2187128;0.4127372;3.821119;-0.3388379;0.4408144;4.532835;-0.1623892;0.1951609;4.868525;-0.1209817;-0.1518427;4.730803;-0.09340839;-0.2881393;3.814626;-0.1126756;-0.6111038;2.961013;-0.3673037;0.7151005;4.848017;-0.1209821;0.9978324;4.685454;-0.09340885;1.122494;3.733195;-0.1704514;1.414335;2.880164;-0.4619219;0.08958192;2.785642;-0.0804878;0.02759219;1.329509;-0.2096939;0;0;0;0.08958192;2.785642;-0.0804878;0.02759219;1.329509;-0.2096939;0;0;0
424560.5391;NotLabelled;16384;0.5745786;-0.4750692;0.4889196;0.4529086;0;0;0;220;3970;586;65536;0.7683824;-0.4542936;0.3296399;0.3074792;1;0;0;-754;3707;-1641;8192;0.5180055;-0.4224377;-0.5531538;-0.4972299;1;0;0;-148;4096;650;32768;0.6687499;-0.3822715;-0.5124654;-0.3795014;0;0;1;495;3720;-1696;256;-0.1246537;0.1246537;-0.602493;-0.7784119;1;2;2;-8;3892;-1008;128;0.1094183;-0.06925207;0.6952909;0.7069671;3;-2;0;-120;4052;-24;4;0.574101;-0.5166205;0.4293629;0.468144;0;-1;0;324;3976;104;16;0.6440443;-0.7515941;-0.08033241;-0.1177285;0;-1;0;175;4191;684;2;0.5096953;-0.4072022;-0.5193906;-0.5519334;0;0;0;-576;4064;278;8;0.6620498;-0.7440317;0.001385042;0.0900277;0;-1;0;-479;4235;509;0.4018418;2.828204;-0.08428176;0.4076432;3.356897;-0.2187128;0.4127372;3.821119;-0.3388379;0.4408144;4.532835;-0.1623892;0.1951609;4.868525;-0.1209817;-0.1518427;4.730803;-0.09340839;-0.2881393;3.814626;-0.1126756;-0.6111038;2.961013;-0.3673037;0.7151005;4.848017;-0.1209821;0.9978324;4.685454;-0.09340885;1.122494;3.733195;-0.1704514;1.412723;2.880393;-0.4641917;0.08958192;2.785642;-0.0804878;0.02759219;1.329509;-0.2096939;0;0;0;0.08958192;2.785642;-0.0804878;0.02759219;1.329509;-0.2096939;0;0;0
424580.546;NotLabelled;16384;0.575721;-0.4736842;0.4889196;0.4529086;0;0;1;248;3988;532;65536;0.7683824;-0.4542936;0.3296399;0.3074792;1;0;0;-722;3751;-1695;8192;0.5180055;-0.4224377;-0.5519056;-0.4986149;1;1;-1;-216;4092;584;32768;0.6695397;-0.3808864;-0.5124654;-0.3795014;0;2;1;537;3722;-1700;256;-0.1246537;0.1246537;-0.602493;-0.7784119;0;2;2;44;3968;-998;128;0.1094183;-0.06925207;0.6952909;0.7069671;2;-1;0;-158;4054;-62;4;0.574101;-0.5166205;0.4293629;0.468144;-1;0;0;338;3972;140;16;0.6440443;-0.7515941;-0.08033241;-0.1177285;0;-2;0;133;4181;656;2;0.5096953;-0.4072022;-0.5193906;-0.5519334;0;0;0;-570;3966;212;8;0.6620498;-0.7440317;0.001385042;0.0900277;0;-1;0;-479;4205;515;0.4008621;2.82747;-0.08895386;0.4066645;3.356245;-0.2230617;0.4117592;3.82054;-0.3429031;0.4429771;4.531631;-0.1644717;0.1988126;4.868293;-0.1221571;-0.148803;4.732038;-0.09500504;-0.2850897;3.815861;-0.1143412;-0.6079204;2.962248;-0.3691389;0.7186561;4.845474;-0.1221579;1.000659;4.681581;-0.09500605;1.125361;3.729321;-0.1719858;1.417354;2.876291;-0.4633024;0.08860213;2.784905;-0.085188;0.02668032;1.328773;-0.2144267;0;0;0;0.08860213;2.784905;-0.085188;0.02668032;1.328773;-0.2144267;0;0;0
424602.5174;NotLabelled;16384;0.575721;-0.4736842;0.4889196;0.4529086;0;0;1;226;3990;552;65536;0.7683824;-0.4542936;0.3296399;0.3074792;1;0;0;-742;3713;-1663;8192;0.5166205;-0.4224377;-0.5532024;-0.4986149;1;1;-2;-176;4118;656;32768;0.6705976;-0.3808864;-0.5110803;-0.3795014;1;2;0;469;3798;-1682;256;-0.1246537;0.1246537;-0.602493;-0.7784119;0;2;2;46;3856;-988;128;0.1094183;-0.06925207;0.6966759;0.7056022;3;-1;-1;-162;4046;6;4;0.5739807;-0.5180055;0.4293629;0.466759;0;0;0;368;4048;92;16;0.6440443;-0.7515941;-0.08033241;-0.1177285;0;1;0;121;4145;626;2;0.5096953;-0.4072022;-0.5193906;-0.5519334;0;-1;0;-546;4024;300;8;0.6620498;-0.7440317;0.001385042;0.0900277;0;-1;0;-479;4133;493;0.4008621;2.82747;-0.08895386;0.4066645;3.356245;-0.2230617;0.4117592;3.82054;-0.3429031;0.4429771;4.531631;-0.1644717;0.1988126;4.868293;-0.1221571;-0.148803;4.732038;-0.09500504;-0.2879914;3.816331;-0.1158728;-0.6108222;2.962718;-0.3706708;0.7186561;4.845474;-0.1221579;1.000659;4.681581;-0.09500605;1.122216;3.729052;-0.1736608;1.415175;2.877206;-0.4674658;0.08860213;2.784905;-0.085188;0.02668032;1.328773;-0.2144267;0;0;0;0.08860213;2.784905;-0.085188;0.02668032;1.328773;-0.2144267;0;0;0
424623.5297;NotLabelled;16384;0.575721;-0.4736842;0.4889196;0.4529086;0;1;0;198;4010;578;65536;0.7683824;-0.4542936;0.3296399;0.3074792;1;0;0;-758;3731;-1669;8192;0.5166205;-0.4224377;-0.5532024;-0.4986149;1;2;-1;-186;4080;624;32768;0.6698119;-0.3808864;-0.5110803;-0.3808864;0;3;1;439;3736;-1700;256;-0.1246537;0.1246537;-0.602493;-0.7784119;0;2;2;-16;3890;-1020;128;0.1094183;-0.06925207;0.6966759;0.7056022;3;-1;0;-198;4034;46;4;0.5739807;-0.5180055;0.4293629;0.466759;0;0;0;292;4016;110;16;0.6440443;-0.7517408;-0.07894737;-0.1177285;0;1;0;117;4169;632;2;0.5096953;-0.4072022;-0.5180055;-0.5532336;0;-1;0;-506;4004;210;8;0.6620498;-0.7440317;0.001385042;0.0900277;0;-1;0;-539;4207;523;0.3994648;2.827859;-0.09308544;0.4052615;3.356112;-0.229235;0.4103512;3.819941;-0.350869;0.441569;4.531033;-0.1724376;0.1974045;4.867694;-0.1301233;-0.1502112;4.73144;-0.1029715;-0.2893994;3.815732;-0.1238392;-0.6122301;2.962118;-0.3786372;0.7172481;4.844875;-0.1301236;0.9992513;4.680983;-0.1029716;1.121584;3.728337;-0.1789792;1.412929;2.876724;-0.4750536;0.08720502;2.785309;-0.08914219;0.02668064;1.328772;-0.2144269;0;0;0;0.08720502;2.785309;-0.08914219;0.02668064;1.328772;-0.2144269;0;0;0
424644.6246;NotLabelled;16384;0.575721;-0.4736842;0.4889196;0.4529086;0;1;1;242;3990;548;65536;0.7683824;-0.4542936;0.3296399;0.3074792;0;1;0;-736;3709;-1661;8192;0.5166205;-0.4210526;-0.5530081;-0.5;1;1;0;-206;4070;644;32768;0.6698119;-0.3808864;-0.5110803;-0.3808864;0;3;1;465;3732;-1696;256;-0.1246537;0.1246537;-0.602493;-0.7784119;0;3;1;42;3918;-1000;128;0.1094183;-0.06925207;0.6966759;0.7056022;4;-1;0;-148;4038;20;4;0.5739807;-0.5180055;0.4293629;0.466759;0;0;0;348;3994;118;16;0.6454294;-0.750552;-0.07894737;-0.1177285;-1;0;0;171;4091;628;2;0.5096953;-0.4072022;-0.5180055;-0.5532336;0;0;0;-532;3988;192;8;0.6620498;-0.7440317;0.001385042;0.0900277;0;0;0;-469;4199;515;0.4017631;2.827674;-0.09392899;0.4075598;3.355928;-0.2300785;0.4126495;3.819757;-0.3517126;0.4438673;4.530848;-0.1732811;0.1997028;4.867509;-0.1309669;-0.1479129;4.731256;-0.103815;-0.2871012;3.815547;-0.1246828;-0.6099318;2.961934;-0.3794808;0.7195463;4.84469;-0.1309672;1.00155;4.680798;-0.1038152;1.123882;3.728153;-0.1798229;1.413574;2.875765;-0.4752906;0.0895033;2.785125;-0.08998577;0.02897892;1.328588;-0.2152705;0;0;0;0.0895033;2.785125;-0.08998577;0.02897892;1.328588;-0.2152705;0;0;0
424664.5247;NotLabelled;16384;0.575721;-0.4736842;0.4889196;0.4529086;0;0;0;172;4030;626;65536;0.7683824;-0.4542936;0.3296399;0.3074792;1;1;0;-692;3725;-1657;8192;0.5166205;-0.4210526;-0.5530081;-0.5;1;2;-1;-204;4096;648;32768;0.6698119;-0.3808864;-0.5110803;-0.3808864;0;2;0;489;3756;-1684;256;-0.1246537;0.1246537;-0.602493;-0.7784119;0;3;2;-36;3912;-1060;128;0.1094183;-0.06925207;0.6980609;0.704232;2;0;0;-76;4058;14;4;0.5739807;-0.5180055;0.4293629;0.466759;-1;-1;0;376;4012;120;16;0.6454294;-0.750552;-0.07894737;-0.1177285;0;-2;0;149;4241;640;2;0.5096953;-0.4072022;-0.5180055;-0.5532336;0;0;0;-532;3972;216;8;0.6620498;-0.7440278;0.002770083;0.0900277;0;0;0;-455;4213;475;0.4027902;2.828412;-0.0891836;0.4085869;3.356665;-0.2253332;0.4136766;3.820494;-0.3469672;0.4448944;4.531585;-0.1685358;0.2007299;4.868247;-0.1262215;-0.1468859;4.731993;-0.09906965;-0.2860741;3.816285;-0.1199373;-0.6089047;2.962671;-0.3747354;0.7205734;4.845428;-0.1262218;1.002577;4.681535;-0.09906983;1.123998;3.728978;-0.1775938;1.41369;2.87659;-0.4730613;0.09053037;2.785862;-0.08524036;0.03000598;1.329325;-0.2105251;0;0;0;0.09053037;2.785862;-0.08524036;0.03000598;1.329325;-0.2105251;0;0;0
424686.5229;NotLabelled;16384;0.575721;-0.4736842;0.4889196;0.4529086;0;0;1;210;4024;586;65536;0.7683824;-0.4542936;0.3296399;0.3074792;0;0;0;-754;3713;-1625;8192;0.5152354;-0.4210526;-0.5542988;-0.5;1;2;0;-220;4080;640;32768;0.6687528;-0.3808864;-0.5124654;-0.3808864;0;3;0;445;3730;-1714;256;-0.1246537;0.1260388;-0.602493;-0.7781888;0;3;2;24;3924;-1024;128;0.1094183;-0.06925207;0.6980609;0.704232;2;0;0;-84;4070;-26;4;0.5752277;-0.5166205;0.4293629;0.466759;0;0;0;372;3988;108;16;0.6454294;-0.750552;-0.07894737;-0.1177285;0;-1;0;111;4181;646;2;0.5096953;-0.4072022;-0.5180055;-0.5532336;0;1;0;-552;3992;186;8;0.6620498;-0.7438589;0.002770083;0.09141274;0;0;0;-443;4185;569;0.4027898;2.828396;-0.08936141;0.4085807;3.356118;-0.2275544;0.4136652;3.819473;-0.3509826;0.444883;4.530564;-0.1725511;0.2007185;4.867226;-0.1302368;-0.1468972;4.730971;-0.1030849;-0.2860829;3.815263;-0.1239704;-0.6089135;2.961651;-0.3787687;0.720562;4.844407;-0.1302372;1.002565;4.680515;-0.1030853;1.123996;3.727956;-0.1815937;1.413689;2.875568;-0.4770616;0.09053021;2.785862;-0.08524024;0.03000583;1.329325;-0.2105248;0;0;0;0.09053021;2.785862;-0.08524024;0.03000583;1.329325;-0.2105248;0;0;0
424707.5029;NotLabelled;16384;0.575721;-0.4736842;0.4889196;0.4529086;0;0;0;248;4028;566;65536;0.7683824;-0.4542936;0.3296399;0.3074792;0;1;0;-780;3775;-1639;8192;0.5152354;-0.4196676;-0.554098;-0.501385;1;2;0;-234;4126;608;32768;0.6687499;-0.3795014;-0.5124654;-0.3822715;0;2;0;495;3668;-1710;256;-0.1246537;0.1260388;-0.601108;-0.7792591;0;3;2;-4;3948;-1026;128;0.1094183;-0.06925207;0.6980609;0.704232;1;0;0;-78;4050;6;4;0.5752277;-0.5166205;0.4293629;0.466759;0;0;0;396;3988;138;16;0.6454294;-0.750552;-0.07894737;-0.1177285;0;1;0;93;4159;670;2;0.5096953;-0.4072022;-0.5180055;-0.5532336;0;0;0;-600;3984;188;8;0.6620498;-0.7438589;0.002770083;0.09141274;0;0;0;-531;4171;489;0.4072989;2.827955;-0.08682696;0.4130898;3.355678;-0.2250199;0.4181743;3.819032;-0.3484482;0.4481647;4.53018;-0.1700298;0.2034193;4.86642;-0.1277215;-0.1439606;4.729567;-0.1005669;-0.2831947;3.813858;-0.1211267;-0.6065881;2.960245;-0.3752099;0.7233014;4.8445;-0.1277218;1.005587;4.681093;-0.1005672;1.127602;3.728419;-0.1767169;1.418255;2.875796;-0.4705579;0.09503929;2.785421;-0.08270581;0.02953988;1.329325;-0.2105907;0;0;0;0.09503929;2.785421;-0.08270581;0.02953988;1.329325;-0.2105907;0;0;0
424727.8193;NotLabelled;16384;0.575721;-0.4736842;0.4889196;0.4529086;0;1;0;220;3978;592;65536;0.7683824;-0.4542936;0.3296399;0.3074792;0;1;-1;-784;3765;-1603;8192;0.5152354;-0.4196676;-0.554098;-0.501385;0;1;0;-286;4094;674;32768;0.6687499;-0.3795014;-0.5124654;-0.3822715;0;2;0;503;3690;-1740;256;-0.1260388;0.1260388;-0.601108;-0.7790363;0;2;1;0;3908;-1004;128;0.1094183;-0.06925207;0.6980609;0.704232;1;0;0;-126;4026;-8;4;0.5752277;-0.5166205;0.4293629;0.466759;0;0;0;380;3998;96;16;0.6454294;-0.750552;-0.07894737;-0.1177285;0;0;0;191;4205;610;2;0.5096953;-0.4072022;-0.5180055;-0.5532336;0;0;0;-554;3982;210;8;0.6620498;-0.7438589;0.002770083;0.09141274;0;0;0;-481;4207;501;0.4073052;2.827955;-0.08682054;0.4130959;3.355678;-0.2250135;0.4181805;3.819032;-0.3484417;0.4485827;4.529541;-0.16757;0.2040385;4.865786;-0.124139;-0.1434297;4.729053;-0.09750658;-0.2826625;3.813345;-0.1180763;-0.6060379;2.959733;-0.3721825;0.7239069;4.843544;-0.1241393;1.006088;4.679871;-0.09750661;1.127191;3.727285;-0.1761697;1.417173;2.875074;-0.4718628;0.0950455;2.785421;-0.0826993;0.02955512;1.329325;-0.2105888;0;0;0;0.0950455;2.785421;-0.0826993;0.02955512;1.329325;-0.2105888;0;0;0
424749.543;NotLabelled;16384;0.575721;-0.4736842;0.4889196;0.4529086;0;1;0;218;3958;606;65536;0.7683824;-0.4542936;0.3296399;0.3074792;0;1;0;-792;3735;-1625;8192;0.5152354;-0.4196676;-0.554098;-0.501385;0;1;0;-262;4110;622;32768;0.6687499;-0.3795014;-0.5124654;-0.3822715;0;2;0;501;3662;-1762;256;-0.1260388;0.1246537;-0.601108;-0.7792591;0;2;2;16;3946;-1036;128;0.1094183;-0.06925207;0.6980609;0.704232;0;0;-1;-114;4032;-50;4;0.5752277;-0.5166205;0.4293629;0.466759;0;0;0;364;3930;158;16;0.6454294;-0.750552;-0.07894737;-0.1177285;0;0;0;165;4181;626;2;0.5096953;-0.4072022;-0.5180055;-0.5532336;0;1;0;-582;3998;278;8;0.6620498;-0.7438589;0.002770083;0.09141274;0;0;0;-495;4187;533;0.4071599;2.827955;-0.0869869;0.4129508;3.355677;-0.2251799;0.4180353;3.819032;-0.3486082;0.4499385;4.529602;-0.1682299;0.2061038;4.866389;-0.1250247;-0.1416506;4.730406;-0.09828696;-0.2809192;3.814699;-0.1186126;-0.6047395;2.961085;-0.3721519;0.7259243;4.843053;-0.1250251;1.007761;4.678807;-0.09828752;1.128726;3.726219;-0.1771627;1.41819;2.874009;-0.4733631;0.09490032;2.785421;-0.08286566;0.0291859;1.329326;-0.2106401;0;0;0;0.09490032;2.785421;-0.08286566;0.0291859;1.329326;-0.2106401;0;0;0
424769.7246;NotLabelled;16384;0.577979;-0.4736842;0.4875346;0.4515235;0;1;0;244;3978;536;65536;0.7683824;-0.4542936;0.3296399;0.3074792;0;1;-1;-784;3723;-1691;8192;0.5152354;-0.4196676;-0.554098;-0.501385;0;0;0;-228;4096;612;32768;0.6687499;-0.3795014;-0.5124654;-0.3822715;0;1;-1;521;3684;-1672;256;-0.1260388;0.1246537;-0.601108;-0.7792591;0;3;1;0;3878;-1038;128;0.1094183;-0.06786703;0.6980609;0.7043669;1;0;-1;-124;3996;-26;4;0.5739807;-0.5180055;0.4293629;0.466759;0;1;1;366;4014;134;16;0.6454294;-0.7506964;-0.07756232;-0.1177285;-1;1;0;145;4169;632;2;0.5096953;-0.4072022;-0.5180055;-0.5532336;0;1;0;-468;4086;210;8;0.6620498;-0.7438589;0.002770083;0.09141274;0;0;0;-479;4197;519;0.4073433;2.827955;-0.08677639;0.4131342;3.355678;-0.2249694;0.4182187;3.819032;-0.3483977;0.4513458;4.529542;-0.1680052;0.2080918;4.866748;-0.1247936;-0.1398965;4.731365;-0.09805916;-0.2791196;3.815657;-0.1186936;-0.602377;2.962044;-0.3729499;0.7278713;4.842517;-0.1247936;1.009425;4.677783;-0.09805903;1.130563;3.725197;-0.176666;1.420684;2.872986;-0.4722244;0.09508364;2.785421;-0.08265516;0.02965257;1.329326;-0.2105749;0;0;0;0.09508364;2.785421;-0.08265516;0.02965257;1.329326;-0.2105749;0;0;0
424790.5532;NotLabelled;16384;0.577979;-0.4736842;0.4875346;0.4515235;0;0;0;252;4008;550;65536;0.7697916;-0.4529086;0.3282548;0.3074792;0;1;-1;-700;3741;-1637;8192;0.5152354;-0.4196676;-0.554098;-0.501385;1;1;0;-242;4090;630;32768;0.6687499;-0.3795014;-0.5124654;-0.3822715;0;2;0;589;3694;-1706;256;-0.1260388;0.1260388;-0.601108;-0.7790363;0;2;1;6;3926;-1006;128;0.1080332;-0.06786703;0.699446;0.7032057;0;0;-1;-152;4016;-36;4;0.5752277;-0.5166205;0.4293629;0.466759;0;0;1;330;3998;144;16;0.6454294;-0.750552;-0.07894737;-0.1177285;0;1;0;123;4191;640;2;0.5083103;-0.4072022;-0.5180055;-0.5545064;0;1;0;-524;4026;182;8;0.6620498;-0.7438589;0.002770083;0.09141274;0;0;0;-455;4189;513;0.4049477;2.828208;-0.09036246;0.4107385;3.355931;-0.2285555;0.4158231;3.819285;-0.3519837;0.4489503;4.529795;-0.1715912;0.2056962;4.867001;-0.1283796;-0.142292;4.731618;-0.1016452;-0.284051;3.81634;-0.124012;-0.6073087;2.962727;-0.3782682;0.7254758;4.842771;-0.1283797;1.007029;4.678037;-0.101645;1.128168;3.72545;-0.180252;1.418288;2.87324;-0.4758103;0.09268806;2.785674;-0.08624124;0.03195366;1.329137;-0.211424;0;0;0;0.09268806;2.785674;-0.08624124;0.03195366;1.329137;-0.211424;0;0;0
424810.5309;NotLabelled;16384;0.577979;-0.4736842;0.4875346;0.4515235;0;0;0;238;4004;538;65536;0.7697916;-0.4529086;0.3282548;0.3074792;0;1;0;-710;3679;-1641;8192;0.5152354;-0.4196676;-0.554098;-0.501385;1;1;0;-274;4092;652;32768;0.6679564;-0.3795014;-0.5124654;-0.3836565;0;1;0;579;3726;-1720;256;-0.1260388;0.1260388;-0.601108;-0.7790363;0;2;2;52;3906;-1030;128;0.1080332;-0.06786703;0.699446;0.7032057;0;0;-1;-108;4022;-10;4;0.5739807;-0.5180055;0.4293629;0.466759;0;0;0;306;3950;98;16;0.6454294;-0.750552;-0.07894737;-0.1177285;0;0;0;157;4171;650;2;0.5083103;-0.4072022;-0.5180055;-0.5545064;0;1;0;-566;4030;220;8;0.6620498;-0.7438589;0.002770083;0.09141274;0;0;0;-437;4117;549;0.4071507;2.827941;-0.0871497;0.4129366;3.355208;-0.2270698;0.4180167;3.818157;-0.3520145;0.4499398;4.528726;-0.1716403;0.20611;4.865513;-0.1284083;-0.1416414;4.729531;-0.1016322;-0.2835094;3.814331;-0.1263393;-0.6084765;2.962331;-0.3838089;0.7259304;4.842178;-0.128466;1.00777;4.677931;-0.1017595;1.128537;3.725607;-0.1840417;1.417969;2.873396;-0.4802734;0.09489132;2.78542;-0.08287804;0.02916275;1.329325;-0.2106443;0;0;0;0.09489132;2.78542;-0.08287804;0.02916275;1.329325;-0.2106443;0;0;0
424831.832;NotLabelled;16384;0.577979;-0.4736842;0.4875346;0.4515235;0;1;0;248;4034;566;65536;0.7697916;-0.4529086;0.3282548;0.3074792;0;1;0;-706;3791;-1681;8192;0.5152354;-0.4196676;-0.554098;-0.501385;0;0;0;-212;4030;604;32768;0.6687413;-0.3781163;-0.5124654;-0.3836565;0;1;0;543;3696;-1766;256;-0.1260388;0.1260388;-0.601108;-0.7790363;0;2;2;24;3964;-1070;128;0.1080332;-0.06786703;0.699446;0.7032057;0;0;-1;-106;4048;12;4;0.5750142;-0.5180055;0.4279778;0.466759;0;0;0;342;3992;148;16;0.6454294;-0.7506964;-0.07756232;-0.1177285;0;0;0;181;4229;656;2;0.5083103;-0.4072022;-0.5180055;-0.5545064;0;1;0;-502;3968;208;8;0.6620498;-0.7438589;0.002770083;0.09141274;0;0;0;-491;4217;517;0.4024572;2.828382;-0.08986386;0.408243;3.355649;-0.229784;0.413323;3.818598;-0.3547288;0.445226;4.529167;-0.1743505;0.2013913;4.865954;-0.1311454;-0.1463631;4.729972;-0.1044079;-0.2881714;3.814695;-0.1264611;-0.6131098;2.962696;-0.3839673;0.7212119;4.842619;-0.1311455;1.003049;4.678372;-0.1044078;1.124013;3.725785;-0.1832832;1.411821;2.8728;-0.4788684;0.09019768;2.785862;-0.08559216;0.02918617;1.329326;-0.2106402;0;0;0;0.09019768;2.785862;-0.08559216;0.02918617;1.329326;-0.2106402;0;0;0
424852.5861;NotLabelled;16384;0.577979;-0.4736842;0.4875346;0.4515235;0;1;0;222;4054;564;65536;0.7691995;-0.4529086;0.3296399;0.3074792;0;0;0;-720;3699;-1679;8192;0.5152354;-0.4196676;-0.554098;-0.501385;1;1;0;-264;4084;622;32768;0.6687413;-0.3781163;-0.5124654;-0.3836565;0;2;0;485;3742;-1716;256;-0.1274238;0.1260388;-0.601108;-0.778811;0;2;1;14;3930;-1044;128;0.1080332;-0.06786703;0.699446;0.7032057;0;0;-1;-196;4008;-22;4;0.5750142;-0.5180055;0.4279778;0.466759;0;0;0;330;3968;112;16;0.6454294;-0.7506964;-0.07756232;-0.1177285;0;0;0;165;4171;656;2;0.5083103;-0.4072022;-0.5180055;-0.5545064;0;2;0;-492;3992;194;8;0.6620498;-0.7438589;0.002770083;0.09141274;0;0;0;-481;4165;527;0.4049988;2.827869;-0.08710259;0.4107846;3.355136;-0.2270227;0.4158647;3.818085;-0.3519675;0.4477677;4.528654;-0.1715895;0.203933;4.865441;-0.1283847;-0.1438214;4.729459;-0.1016471;-0.2856296;3.814182;-0.1236987;-0.6105682;2.962182;-0.3812047;0.7237536;4.842106;-0.1283847;1.00559;4.677859;-0.101647;1.126555;3.725272;-0.1805211;1.415329;2.873477;-0.478586;0.09273932;2.785348;-0.08283083;0.03148497;1.329137;-0.2114949;0;0;0;0.09273932;2.785348;-0.08283083;0.03148497;1.329137;-0.2114949;0;0;0
424872.7356;NotLabelled;16384;0.577979;-0.4736842;0.4875346;0.4515235;0;1;0;308;4034;574;65536;0.7703434;-0.4529086;0.3282548;0.3060942;0;1;0;-728;3731;-1681;8192;0.5152354;-0.4196676;-0.554098;-0.501385;1;0;0;-244;4092;666;32768;0.6687413;-0.3781163;-0.5124654;-0.3836565;0;2;0;525;3700;-1726;256;-0.1274238;0.1260388;-0.601108;-0.778811;-1;3;1;42;3930;-1010;128;0.1080332;-0.06786703;0.699446;0.7032057;0;0;-1;-98;4062;4;4;0.5750142;-0.5180055;0.4279778;0.466759;0;0;0;346;4006;124;16;0.6454294;-0.7506964;-0.07756232;-0.1177285;0;0;0;127;4171;678;2;0.5083103;-0.4072022;-0.5180055;-0.5545064;0;2;0;-546;3978;206;8;0.6620498;-0.7438589;0.002770083;0.09141274;0;0;0;-425;4213;545;0.4048532;2.827869;-0.08726489;0.4106389;3.355136;-0.227185;0.4157189;3.818085;-0.3521296;0.449122;4.528712;-0.1722502;0.2059975;4.866041;-0.1292732;-0.1420411;4.730809;-0.1024294;-0.2838876;3.815531;-0.124233;-0.610219;2.963233;-0.3789733;0.7257677;4.841612;-0.1292735;1.007259;4.676792;-0.1024297;1.128086;3.724205;-0.1815166;1.416337;2.87241;-0.4800875;0.09259374;2.785348;-0.08299321;0.03111402;1.329137;-0.2115497;0;0;0;0.09259374;2.785348;-0.08299321;0.03111402;1.329137;-0.2115497;0;0;0
424893.5795;NotLabelled;16384;0.577979;-0.4736842;0.4875346;0.4515235;0;2;0;352;4008;616;65536;0.7703434;-0.4529086;0.3282548;0.3060942;0;2;0;-718;3759;-1669;8192;0.5138504;-0.4196676;-0.5541292;-0.5027701;1;0;0;-314;4100;632;32768;0.6687413;-0.3781163;-0.5124654;-0.3836565;0;1;0;489;3708;-1672;256;-0.1274238;0.1260388;-0.601108;-0.778811;-1;3;2;58;3888;-1048;128;0.1094183;-0.06786703;0.699446;0.7029915;1;0;-1;-170;4048;-14;4;0.5750142;-0.5180055;0.4279778;0.466759;0;0;0;332;3982;110;16;0.6454294;-0.7506964;-0.07756232;-0.1177285;0;0;0;149;4159;626;2;0.5083103;-0.4072022;-0.5180055;-0.5545064;0;1;0;-578;3982;188;8;0.6620498;-0.7438524;0.004155125;0.09141274;0;0;0;-465;4175;497;0.4048536;2.827869;-0.08726539;0.4106393;3.355136;-0.2271855;0.4157194;3.818085;-0.3521302;0.4491225;4.528712;-0.1722509;0.2059979;4.866041;-0.1292741;-0.1420409;4.730809;-0.1024306;-0.2838876;3.815531;-0.1242339;-0.6107125;2.96392;-0.3806331;0.7257682;4.841612;-0.1292741;1.00726;4.676791;-0.1024299;1.128086;3.724205;-0.1815161;1.416337;2.87241;-0.4800866;0.0925941;2.785348;-0.08299379;0.03111421;1.329137;-0.21155;0;0;0;0.0925941;2.785348;-0.08299379;0.03111421;1.329137;-0.21155;0;0;0
424914.5628;NotLabelled;16384;0.5791445;-0.4736842;0.4861496;0.4515235;0;2;2;362;4058;698;65536;0.7695274;-0.4542936;0.3282548;0.3060942;-1;3;2;-788;3691;-1733;8192;0.5138504;-0.4182825;-0.5551754;-0.5027701;1;1;-1;-384;4206;690;32768;0.6668914;-0.3795014;-0.5138504;-0.3836565;-1;1;-2;527;3776;-1744;256;-0.1274238;0.1260388;-0.601108;-0.778811;0;1;1;-76;3896;-1018;128;0.1094183;-0.06786703;0.699446;0.7029915;0;0;-2;-82;4040;-4;4;0.5750142;-0.5180055;0.4279778;0.466759;0;0;0;342;3980;122;16;0.6454294;-0.7506964;-0.07756232;-0.1177285;0;0;0;185;4185;624;2;0.5083103;-0.4072022;-0.5180055;-0.5545064;0;0;0;-560;4008;216;8;0.6620498;-0.7438524;0.004155125;0.09141274;0;1;0;-441;4113;505;0.4048536;2.827867;-0.08729146;0.4106385;3.355049;-0.2275301;0.4157178;3.817922;-0.3527545;0.4491208;4.528549;-0.1728746;0.2059963;4.865878;-0.1298977;-0.1420424;4.730647;-0.1030543;-0.2838891;3.815369;-0.1248582;-0.6107136;2.963757;-0.3812581;0.7257665;4.84145;-0.1298977;1.007258;4.676629;-0.1030537;1.125695;3.723664;-0.1811884;1.413945;2.87187;-0.4797596;0.09259413;2.785349;-0.08299206;0.03111432;1.329137;-0.2115492;0;0;0;0.09259413;2.785349;-0.08299206;0.03111432;1.329137;-0.2115492;0;0;0
424936.5155;NotLabelled;16384;0.5791445;-0.4736842;0.4861496;0.4515235;0;3;6;492;4048;650;65536;0.7700769;-0.4542936;0.3282548;0.3047091;-2;5;3;-812;3709;-1789;8192;0.5152354;-0.4182825;-0.5538903;-0.5027701;2;0;-3;-532;4202;758;32768;0.6668914;-0.3795014;-0.5138504;-0.3836565;-2;0;-3;567;3792;-1790;256;-0.1274238;0.1260388;-0.601108;-0.778811;-1;0;2;-40;4026;-1086;128;0.1094183;-0.06786703;0.699446;0.7029915;-3;0;-3;-90;4064;-46;4;0.5739807;-0.5180055;0.4293629;0.466759;0;-1;0;340;4002;124;16;0.6454294;-0.7506964;-0.07756232;-0.1177285;0;0;0;161;4219;638;2;0.5083103;-0.4072022;-0.5180055;-0.5545064;0;0;0;-584;3974;244;8;0.6620498;-0.7438524;0.004155125;0.09141274;0;0;0;-447;4175;525;0.4048536;2.827867;-0.08729146;0.4106385;3.355049;-0.2275301;0.4157178;3.817922;-0.3527545;0.4491208;4.528549;-0.1728746;0.2059963;4.865878;-0.1298977;-0.1420424;4.730647;-0.1030543;-0.2843577;3.815504;-0.1273493;-0.609121;2.962574;-0.3819773;0.7257665;4.84145;-0.1298977;1.007258;4.676629;-0.1030537;1.127919;3.724012;-0.1820293;1.416822;2.870786;-0.4758455;0.09259413;2.785349;-0.08299206;0.03111432;1.329137;-0.2115492;0;0;0;0.09259413;2.785349;-0.08299206;0.03111432;1.329137;-0.2115492;0;0;0
424957.5118;NotLabelled;16384;0.5803043;-0.4736842;0.4847645;0.4515235;-1;6;11;666;3970;564;65536;0.7700769;-0.4542936;0.3282548;0.3047091;-2;8;5;-846;3585;-2047;8192;0.5152354;-0.4182825;-0.5526299;-0.5041551;3;-5;-9;-652;4134;716;32768;0.6668914;-0.3795014;-0.5138504;-0.3836565;-2;-1;-5;763;3752;-1974;256;-0.1274238;0.1260388;-0.602493;-0.7777401;-3;0;2;66;4054;-1076;128;0.1094183;-0.06786703;0.699446;0.7029915;-2;0;-3;-156;4138;-136;4;0.5739807;-0.5180055;0.4293629;0.466759;0;-1;1;324;3972;134;16;0.6454294;-0.7506964;-0.07756232;-0.1177285;0;-1;0;183;4153;604;2;0.5083103;-0.4072022;-0.5180055;-0.5545064;0;0;0;-576;4068;196;8;0.6620498;-0.7438524;0.004155125;0.09141274;1;0;0;-505;4219;551;0.4046046;2.828192;-0.09090768;0.4103895;3.355374;-0.2311463;0.4154687;3.818247;-0.3563707;0.4488717;4.528874;-0.1764909;0.2057472;4.866203;-0.133514;-0.1422915;4.730972;-0.1066705;-0.2846068;3.815829;-0.1309655;-0.6108077;2.963287;-0.3850566;0.7255174;4.841775;-0.1335139;1.007009;4.676954;-0.1066699;1.126907;3.724463;-0.1882824;1.415809;2.871237;-0.4820986;0.09234501;2.785674;-0.08660828;0.03111423;1.329138;-0.2115493;0;0;0;0.09234501;2.785674;-0.08660828;0.03111423;1.329138;-0.2115493;0;0;0
424977.5769;NotLabelled;16384;0.5826566;-0.4722992;0.4819945;0.4529086;-1;8;17;708;4052;544;65536;0.7703496;-0.4556787;0.3282548;0.301939;-1;10;8;-868;3633;-2063;8192;0.5180055;-0.4168975;-0.5510847;-0.5041551;4;-11;-16;-674;4300;630;32768;0.6676863;-0.3795014;-0.5138504;-0.3822715;-1;-8;-9;621;3850;-2176;256;-0.1274238;0.1260388;-0.602493;-0.7777401;-1;0;1;36;3788;-964;128;0.1094183;-0.06786703;0.699446;0.7029915;-1;0;-2;-82;4062;-116;4;0.5752277;-0.5166205;0.4293629;0.466759;0;-1;2;278;3962;136;16;0.6454294;-0.7506964;-0.07756232;-0.1177285;0;-1;0;131;4181;616;2;0.5083103;-0.4072022;-0.5180055;-0.5545064;0;-2;-1;-586;4002;192;8;0.6620498;-0.7438524;0.004155125;0.09141274;0;0;0;-541;4185;489;0.4045975;2.828192;-0.09091494;0.4103824;3.355374;-0.2311536;0.4154617;3.818247;-0.356378;0.4484507;4.52951;-0.1789524;0.2051228;4.866834;-0.1370982;-0.1428272;4.731479;-0.1097326;-0.2855999;3.816477;-0.1365047;-0.6118207;2.963935;-0.3905702;0.7249081;4.84273;-0.1370985;1.006507;4.678177;-0.1097325;1.123238;3.72544;-0.1930439;1.412118;2.872214;-0.4868829;0.092338;2.785674;-0.08661553;0.03109751;1.329137;-0.2115515;0;0;0;0.092338;2.785674;-0.08661553;0.03109751;1.329137;-0.2115515;0;0;0
424998.5179;NotLabelled;16384;0.5894976;-0.468144;0.4750692;0.4556787;0;3;35;932;4196;550;65536;0.770245;-0.4556787;0.3310249;0.299169;-2;-2;19;-946;3805;-2045;8192;0.5207756;-0.4168975;-0.5471914;-0.5055401;1;-11;-23;-836;4330;596;32768;0.6658277;-0.3808864;-0.5152354;-0.3822715;1;2;-13;453;3940;-2338;256;-0.1274238;0.1246537;-0.602493;-0.7779632;2;-1;1;-22;3702;-922;128;0.1108033;-0.06786703;0.699446;0.7027745;0;0;-2;-152;4008;-2;4;0.5752277;-0.5166205;0.4293629;0.466759;-1;-2;2;240;3992;98;16;0.6454294;-0.7509122;-0.07756232;-0.1163435;0;-3;0;179;4167;684;2;0.5096953;-0.4072022;-0.5180055;-0.5532336;0;-2;-1;-508;3984;194;8;0.6620498;-0.7438589;0.002770083;0.09141274;0;1;0;-477;4177;541;0.4093053;2.82775;-0.08819692;0.4150901;3.354933;-0.2284356;0.4201695;3.817806;-0.3536599;0.4531584;4.529069;-0.1762343;0.2098306;4.866392;-0.1343802;-0.1381194;4.731037;-0.1070146;-0.2826063;3.816545;-0.1410339;-0.6096418;2.96347;-0.3922451;0.7296159;4.842288;-0.1343805;1.011215;4.677735;-0.1070145;1.128601;3.725635;-0.1964486;1.419139;2.873186;-0.4909069;0.09704579;2.785233;-0.08389752;0.03109763;1.329137;-0.2115515;0;0;0;0.09704579;2.785233;-0.08389752;0.03109763;1.329137;-0.2115515;0;0;0
425019.0519;NotLabelled;16384;0.5917938;-0.4653739;0.4709141;0.4598338;-1;5;43;1082;4014;648;65536;0.7693641;-0.4570637;0.33241;0.2977839;-3;4;21;-1600;3775;-2179;8192;0.5290859;-0.4099723;-0.5405567;-0.5096953;-8;-3;-42;-1066;3872;934;32768;0.6638902;-0.3795014;-0.5207756;-0.3795014;3;7;-29;1101;3428;-2664;256;-0.1260388;0.1246537;-0.601108;-0.7792591;3;-1;0;178;4078;-962;128;0.1108033;-0.06786703;0.699446;0.7027745;0;0;-1;-192;4030;-164;4;0.5752277;-0.5166205;0.4293629;0.466759;0;-3;2;274;3994;98;16;0.6454294;-0.751054;-0.07617728;-0.1163435;0;-5;0;177;4249;650;2;0.5096953;-0.4072022;-0.5180055;-0.5532336;0;0;-1;-534;4004;246;8;0.6620498;-0.7438589;0.002770083;0.09141274;1;1;0;-411;4181;503;0.4066256;2.827834;-0.08787835;0.4124096;3.35493;-0.2284395;0.417488;3.817727;-0.353947;0.4517058;4.528928;-0.176507;0.2089612;4.866671;-0.1346462;-0.1392222;4.731917;-0.1072836;-0.2900786;3.819345;-0.1600499;-0.6213263;2.966512;-0.4065228;0.7287041;4.841668;-0.1346463;1.010018;4.676629;-0.1072835;1.122796;3.724626;-0.2034434;1.414619;2.870763;-0.4924844;0.09436624;2.785319;-0.08355089;0.02870047;1.329223;-0.2113503;0;0;0;0.09436624;2.785319;-0.08355089;0.02870047;1.329223;-0.2113503;0;0;0
425039.6427;NotLabelled;16384;0.5972453;-0.4612188;0.4653739;0.4626039;0;19;49;1192;3876;508;65536;0.7690074;-0.4584487;0.333795;0.2950138;1;22;18;-2274;3795;-2501;8192;0.5379652;-0.4044321;-0.534626;-0.5110803;-16;-11;-50;-1104;3930;946;32768;0.6613976;-0.3808864;-0.5249307;-0.3767313;10;-12;-24;2027;3580;-2980;256;-0.1260388;0.1246537;-0.601108;-0.7792591;1;3;1;290;4158;-878;128;0.1108033;-0.06786703;0.699446;0.7027745;5;0;0;-266;4110;-46;4;0.5752277;-0.5166205;0.4293629;0.466759;0;-2;1;340;4008;148;16;0.6454294;-0.7512673;-0.07617728;-0.1149584;0;-6;0;119;4201;638;2;0.5096953;-0.4072022;-0.5180055;-0.5532336;0;1;-1;-492;4024;302;8;0.6620498;-0.7438589;0.002770083;0.09141274;1;2;0;-549;4179;519;0.4090788;2.827646;-0.08855323;0.4148628;3.354743;-0.2291144;0.4199412;3.817539;-0.3546219;0.4530682;4.528049;-0.1742295;0.2098141;4.865255;-0.131018;-0.1381741;4.729872;-0.1042836;-0.2894474;3.818227;-0.1702422;-0.6205748;2.964224;-0.4127905;0.7295936;4.841024;-0.131018;1.011147;4.676291;-0.1042832;1.120823;3.726767;-0.225322;1.423825;2.874766;-0.5082897;0.09681937;2.785131;-0.08422565;0.0313883;1.329036;-0.2121457;0;0;0;0.09681937;2.785131;-0.08422565;0.0313883;1.329036;-0.2121457;0;0;0
425059.6436;NotLabelled;16384;0.6036224;-0.4598338;0.4570637;0.4639889;4;35;57;1130;3988;526;65536;0.7697629;-0.4598338;0.333795;0.2908587;14;26;8;-2220;3775;-2781;8192;0.5448533;-0.398892;-0.5304709;-0.5124654;-17;-16;-58;-860;4192;630;32768;0.6618514;-0.3822715;-0.5263157;-0.3725762;19;-12;-13;2143;3748;-3150;256;-0.1274238;0.1246537;-0.601108;-0.7790339;1;5;2;114;3984;-976;128;0.1108033;-0.06786703;0.7013933;0.700831;6;0;1;-226;4008;-58;4;0.5752277;-0.5166205;0.4293629;0.466759;0;1;1;426;3960;178;16;0.6454294;-0.751617;-0.07479224;-0.1135734;0;-5;0;157;4197;632;2;0.5096953;-0.4072022;-0.5180055;-0.5532336;0;-1;-1;-540;4008;218;8;0.6620498;-0.7438589;0.002770083;0.09141274;0;3;0;-603;4147;505;0.4062145;2.827733;-0.08841587;0.4119985;3.354829;-0.228977;0.4170768;3.817626;-0.3544846;0.4502039;4.528135;-0.1740921;0.2069498;4.865341;-0.1308806;-0.1410384;4.729958;-0.1041463;-0.2980413;3.820539;-0.1856052;-0.6309391;2.965796;-0.4230744;0.7267293;4.84111;-0.1308806;1.008283;4.676377;-0.1041459;1.117493;3.729932;-0.2476383;1.427555;2.877756;-0.5223075;0.09395503;2.785218;-0.0840883;0.02852396;1.329122;-0.2120084;0;0;0;0.09395503;2.785218;-0.0840883;0.02852396;1.329122;-0.2120084;0;0;0
425080.5278;NotLabelled;16384;0.6108112;-0.4570637;0.4473684;0.466759;1;34;68;970;4428;620;65536;0.7721442;-0.4584487;0.333795;0.2867036;22;8;-2;-2064;3787;-2681;8192;0.5515649;-0.3933518;-0.5263157;-0.5138504;-15;-7;-68;-710;4646;472;32768;0.663893;-0.3795014;-0.5277008;-0.3698061;28;9;4;2671;3854;-2878;256;-0.1274238;0.1246537;-0.601108;-0.7790339;5;5;1;-4;3716;-926;128;0.1094183;-0.06786703;0.7029915;0.699446;5;0;1;-198;3980;-234;4;0.5774976;-0.5152354;0.4279778;0.466759;0;2;3;414;3972;214;16;0.6468144;-0.7505622;-0.0734072;-0.1135734;0;-4;0;191;4203;568;2;0.5096953;-0.4072022;-0.5180055;-0.5532336;-1;-3;-2;-506;4004;188;8;0.6620498;-0.7438589;0.002770083;0.09141274;0;3;0;-453;4225;473;0.4055003;2.827609;-0.08953084;0.4112757;3.35393;-0.2329709;0.4163465;3.816032;-0.3610061;0.4509745;4.526597;-0.1811114;0.2084318;4.864344;-0.1381276;-0.1398396;4.729712;-0.111287;-0.2991965;3.82234;-0.2093152;-0.6347896;2.967549;-0.4427831;0.7281592;4.839019;-0.1381278;1.009366;4.673713;-0.1112871;1.119067;3.73035;-0.2734824;1.434251;2.879264;-0.5456944;0.09324106;2.785118;-0.08495229;0.02758554;1.329022;-0.2127571;0;0;0;0.09324106;2.785118;-0.08495229;0.02758554;1.329022;-0.2127571;0;0;0
425100.5323;NotLabelled;16384;0.6254609;-0.4487534;0.4293629;0.4722992;-6;23;86;1062;4300;640;65536;0.7784969;-0.4515235;0.3296399;0.2853186;25;16;-33;-3114;4183;-2369;8192;0.560367;-0.3864266;-0.5193906;-0.5166205;-16;-5;-82;-1192;4714;618;32768;0.6659314;-0.3739612;-0.5290859;-0.3698061;37;16;21;2981;4474;-2508;256;-0.1274238;0.1260388;-0.599723;-0.779878;10;1;0;-108;3688;-848;128;0.1094183;-0.06786703;0.7029915;0.699446;1;1;0;-80;3970;-154;4;0.5774976;-0.5152354;0.4279778;0.466759;0;2;3;344;3984;178;16;0.6468144;-0.7505622;-0.0734072;-0.1135734;0;-2;0;129;4203;594;2;0.5110803;-0.4072022;-0.5166205;-0.5532509;-1;2;-4;-466;4058;192;8;0.6620498;-0.7440278;0.002770083;0.0900277;1;0;-1;-365;4181;569;0.4137901;2.827332;-0.07947765;0.4195594;3.353092;-0.2249612;0.4246246;3.814694;-0.3547905;0.4592526;4.525258;-0.1748957;0.2167098;4.863006;-0.1319118;-0.1315615;4.728373;-0.1050714;-0.293644;3.824046;-0.2244493;-0.6355881;2.971835;-0.4581318;0.7364371;4.837681;-0.1319121;1.017645;4.672375;-0.1050714;1.127934;3.732398;-0.2854985;1.449934;2.885109;-0.5615534;0.101531;2.78486;-0.07472087;0.03095938;1.329565;-0.2088688;0;0;0;0.101531;2.78486;-0.07472087;0.03095938;1.329565;-0.2088688;0;0;0
425121.9356;NotLabelled;16384;0.6337651;-0.4418283;0.4196676;0.4764543;-10;20;95;1150;4144;624;65536;0.7832077;-0.4473684;0.3240997;0.2853186;32;18;-58;-2926;4033;-2857;8192;0.5781102;-0.367036;-0.5069252;-0.5235457;-30;6;-102;-1248;4536;1106;32768;0.6764252;-0.3587258;-0.5263157;-0.3698061;49;21;60;2473;4060;-3258;256;-0.1260388;0.1260388;-0.5983379;-0.7811659;10;-3;1;-50;3874;-836;128;0.1108033;-0.06786703;0.7027745;0.699446;-5;3;-2;-74;4046;-186;4;0.5763754;-0.5152354;0.4279778;0.468144;0;3;3;358;4030;174;16;0.6468144;-0.7505622;-0.0734072;-0.1135734;0;-2;0;173;4201;606;2;0.5110803;-0.4058172;-0.5166205;-0.5542676;-2;4;-3;-436;4030;150;8;0.6634349;-0.7426239;0.002770083;0.09141274;1;1;0;-537;4195;525;0.4136302;2.827332;-0.07969436;0.4193995;3.353092;-0.2251779;0.4244649;3.814694;-0.3550072;0.45828;4.524677;-0.1726784;0.2153581;4.862008;-0.1285806;-0.132769;4.726901;-0.1022587;-0.3044826;3.830953;-0.2638758;-0.6555876;2.986561;-0.5119169;0.735113;4.837256;-0.1285806;1.016498;4.67217;-0.1022584;1.123717;3.737036;-0.3079371;1.450514;2.894301;-0.5921741;0.1013713;2.78486;-0.07493752;0.03051323;1.329565;-0.2089344;0;0;0;0.1013713;2.78486;-0.07493752;0.03051323;1.329565;-0.2089344;0;0;0
425142.5197;NotLabelled;16384;0.6416122;-0.433518;0.4099723;0.4819945;-13;8;110;1356;4284;798;65536;0.7902084;-0.4390582;0.3171745;0.2867036;44;-5;-79;-2722;3931;-3399;8192;0.5880574;-0.3545706;-0.5;-0.5277008;-35;10;-118;-1592;4538;1308;32768;0.6845722;-0.3462604;-0.5221606;-0.3725762;55;31;84;3189;4266;-3548;256;-0.1260388;0.1260388;-0.5969529;-0.7822248;14;-1;0;110;3940;-934;128;0.1108033;-0.06925207;0.699446;0.7026394;-10;3;-2;-206;4074;-28;4;0.5785214;-0.5152354;0.4265928;0.466759;0;1;2;342;4008;94;16;0.6468144;-0.7509046;-0.07202215;-0.1121884;0;0;0;159;4249;614;2;0.5110803;-0.4058172;-0.5166205;-0.5542676;-1;3;-2;-494;3950;254;8;0.6634349;-0.7427969;0.001385042;0.0900277;1;7;-1;-623;4197;489;0.4104918;2.827374;-0.07829285;0.416261;3.353134;-0.2237768;0.4213263;3.814736;-0.3536066;0.4540499;4.524009;-0.1683367;0.2106176;4.860792;-0.1228923;-0.137313;4.72506;-0.0971978;-0.3160334;3.835586;-0.2848761;-0.668695;2.996324;-0.5476837;0.7304089;4.836814;-0.1228923;1.012034;4.672039;-0.09719765;1.118395;3.75082;-0.3585749;1.452963;2.922116;-0.6733832;0.09823275;2.784902;-0.07353602;0.03089474;1.329565;-0.2088783;0;0;0;0.09823275;2.784902;-0.07353602;0.03089474;1.329565;-0.2088783;0;0;0
425162.5179;NotLabelled;16384;0.6506836;-0.4224377;0.398892;0.4889196;-19;-3;126;1848;4492;980;65536;0.7975158;-0.4279778;0.3088643;0.2922437;54;-17;-98;-3462;4315;-3777;8192;0.600185;-0.3393352;-0.4916897;-0.5318559;-40;2;-136;-2034;4656;1274;32768;0.6947237;-0.3310249;-0.5166205;-0.3753462;64;18;108;3743;4530;-3934;256;-0.1246537;0.1260388;-0.5941828;-0.7845524;19;-1;-1;6;3742;-924;128;0.1108033;-0.06925207;0.699446;0.7026394;-9;4;-1;-158;3980;-66;4;0.5774012;-0.5152354;0.4265928;0.468144;0;3;4;502;3974;142;16;0.6468144;-0.7509046;-0.07202215;-0.1121884;0;-7;0;273;4163;574;2;0.5110803;-0.4058172;-0.5166205;-0.5542676;0;2;-2;-584;3982;228;8;0.6634349;-0.7427982;0;0.0900277;1;8;0;-571;4169;471;0.4134241;2.826931;-0.07614523;0.4192081;3.354027;-0.2167059;0.4242865;3.816823;-0.3422129;0.4574176;4.525436;-0.1545056;0.2141858;4.862212;-0.1079442;-0.1338326;4.726607;-0.08277078;-0.3201109;3.844931;-0.2978927;-0.6779814;3.01509;-0.582655;0.7339621;4.837913;-0.1079443;1.015482;4.672876;-0.08277047;1.12194;3.761658;-0.3770891;1.456912;2.943757;-0.7185847;0.1011647;2.784416;-0.07181782;0.03035227;1.329469;-0.2095663;0;0;0;0.1011647;2.784416;-0.07181782;0.03035227;1.329469;-0.2095663;0;0;0
425182.6605;NotLabelled;16384;0.6590047;-0.4099723;0.3878116;0.4972299;-25;-3;143;2206;4636;1004;65536;0.8051988;-0.4155124;0.299169;0.299169;62;-5;-118;-3772;4611;-4045;8192;0.6126442;-0.3240997;-0.4819945;-0.536011;-44;-7;-154;-2292;4756;1136;32768;0.7063468;-0.3157895;-0.5083103;-0.3781163;75;16;126;3255;4796;-4102;256;-0.1232687;0.1274238;-0.5914127;-0.7866378;27;-3;-2;-8;3750;-898;128;0.1121884;-0.06925207;0.6980609;0.703796;-14;7;-1;-154;3902;-52;4;0.578422;-0.5152354;0.4252077;0.468144;0;4;4;552;3958;128;16;0.6468144;-0.7510361;-0.07063711;-0.1121884;0;-4;0;179;4199;570;2;0.5110803;-0.4044321;-0.5166205;-0.5552791;0;0;-2;-646;4012;214;8;0.6634349;-0.7429647;0;0.08864266;1;4;-1;-443;4209;531;0.4102884;2.826971;-0.0747468;0.4160723;3.354067;-0.2153074;0.4211507;3.816864;-0.3408145;0.4535857;4.524069;-0.1477571;0.210038;4.860268;-0.09874338;-0.1378679;4.724169;-0.07471591;-0.3336351;3.853333;-0.3230105;-0.6944552;3.035429;-0.6370772;0.7298356;4.836432;-0.09874335;1.011493;4.67146;-0.07471544;1.119993;3.774;-0.4079831;1.456106;2.970692;-0.7814971;0.09802895;2.784456;-0.07041933;0.0307484;1.329469;-0.2095088;0;0;0;0.09802895;2.784456;-0.07041933;0.0307484;1.329469;-0.2095088;0;0;0
425204.5343;NotLabelled;16384;0.6834348;-0.3795014;0.3573407;0.5110803;-29;13;175;2366;4798;1170;65536;0.825896;-0.3836565;0.2728532;0.3102493;85;-19;-145;-3146;5205;-4425;8192;0.6270722;-0.3074792;-0.4695291;-0.5401662;-48;-14;-168;-2356;4752;1220;32768;0.7192381;-0.2977839;-0.5;-0.3795014;85;30;139;3047;5030;-4278;256;-0.1218837;0.1274238;-0.5886427;-0.788928;33;-3;-1;34;3714;-1096;128;0.1135734;-0.07063711;0.6952909;0.7061743;-17;8;-3;-92;3984;-112;4;0.5794376;-0.5152354;0.4238227;0.468144;0;3;4;490;3944;66;16;0.6468144;-0.7510361;-0.07063711;-0.1121884;0;0;0;161;4149;544;2;0.5110803;-0.4044321;-0.5166205;-0.5552791;-1;0;-4;-644;4032;310;8;0.6634349;-0.7429647;0;0.08864266;1;0;-1;-475;4207;525;0.4127564;2.826437;-0.07187398;0.4185454;3.353989;-0.2107159;0.4236282;3.817192;-0.3347139;0.4541598;4.523012;-0.1363504;0.209722;4.8582;-0.08490194;-0.1378364;4.72102;-0.06201451;-0.3437354;3.86295;-0.3442386;-0.7071487;3.059275;-0.6904119;0.72958;4.835716;-0.08490205;1.011658;4.671302;-0.06201458;1.119503;3.78967;-0.4353368;1.452265;3.002704;-0.8449;0.1004968;2.783908;-0.06769626;0.03297342;1.32928;-0.2103702;0;0;0;0.1004968;2.783908;-0.06769626;0.03297342;1.32928;-0.2103702;0;0;0
425224.5386;NotLabelled;16384;0.6952716;-0.3628809;0.3393352;0.5193906;-31;16;192;2462;4792;1246;65536;0.8365135;-0.3628809;0.2590028;0.3185596;97;-27;-159;-3628;5433;-4403;8192;0.6614571;-0.2686981;-0.4404432;-0.5443213;-61;-25;-189;-2502;4752;1362;32768;0.7475299;-0.2520775;-0.4778393;-0.3864266;105;23;172;3397;5244;-4194;256;-0.1204986;0.1274238;-0.5844875;-0.7922232;38;-3;0;-146;3600;-1162;128;0.1135734;-0.07202215;0.6939058;0.7073957;-19;8;-3;-132;4004;204;4;0.5794376;-0.5152354;0.4238227;0.468144;1;2;3;474;3994;70;16;0.6468144;-0.7510361;-0.07063711;-0.1121884;-1;4;0;147;4173;628;2;0.5124654;-0.4030471;-0.5166205;-0.5550095;0;4;-4;-560;3978;258;8;0.66482;-0.7415588;0;0.0900277;1;3;0;-625;4183;443;0.4130507;2.826099;-0.0677546;0.4188504;3.354625;-0.2028431;0.4239428;3.818697;-0.3235455;0.4537644;4.523039;-0.1198891;0.209003;4.857609;-0.06600972;-0.1384368;4.719943;-0.04426342;-0.3712178;3.900777;-0.4091058;-0.7422084;3.139849;-0.8347259;0.7288813;4.835601;-0.06601;1.011103;4.671278;-0.0442639;1.116989;3.809738;-0.4623701;1.450219;3.044238;-0.9104283;0.1007908;2.783542;-0.06390363;0.03336447;1.32928;-0.2103078;0;0;0;0.1007908;2.783542;-0.06390363;0.03336447;1.32928;-0.2103078;0;0;0
425244.4977;NotLabelled;16384;0.7079418;-0.3434903;0.3199446;0.5277008;-39;8;202;2548;4714;1170;65536;0.8471587;-0.3393352;0.2437673;0.3282548;106;-27;-174;-3710;5563;-4443;8192;0.6798029;-0.2465374;-0.4252077;-0.5443213;-70;-27;-194;-2632;4842;1490;32768;0.7633615;-0.2271468;-0.4639889;-0.3878116;113;19;189;3593;5574;-4156;256;-0.1163435;0.1274238;-0.5734072;-0.8008943;47;-8;1;0;3748;-1336;128;0.1149584;-0.0734072;0.6897507;0.7110837;-15;8;-3;-156;4060;142;4;0.5804482;-0.5152354;0.4224377;0.468144;1;2;2;482;4000;102;16;0.6468144;-0.7509046;-0.07202215;-0.1121884;-2;3;0;233;4135;618;2;0.5124654;-0.4030471;-0.5166205;-0.5550095;0;5;-2;-632;3952;258;8;0.66482;-0.7417256;0;0.08864266;0;6;0;-533;4171;355;0.4131732;2.826114;-0.06738406;0.4189785;3.355156;-0.2004341;0.424076;3.81969;-0.3193465;0.4535685;4.521789;-0.1080397;0.2086705;4.855673;-0.0506428;-0.1387329;4.717664;-0.03055274;-0.3816627;3.9234;-0.4409905;-0.7573486;3.191749;-0.9114623;0.7285562;4.833838;-0.05064276;1.010823;4.669381;-0.03055269;1.11569;3.863405;-0.5479313;1.442813;3.156347;-1.087233;0.1009131;2.783542;-0.06371041;0.03376748;1.32928;-0.2102434;0;0;0;0.1009131;2.783542;-0.06371041;0.03376748;1.32928;-0.2102434;0;0;0
425264.6939;NotLabelled;16384;0.7215189;-0.3213296;0.300554;0.534626;-47;4;208;2824;4754;1140;65536;0.8580665;-0.3144044;0.2271468;0.3365651;116;-29;-191;-3572;5627;-4541;8192;0.6966291;-0.2243767;-0.4099723;-0.5443213;-77;-26;-194;-2816;4700;1640;32768;0.7808232;-0.199446;-0.4473684;-0.3878116;121;13;203;3335;5698;-4324;256;-0.1135734;0.1274238;-0.567867;-0.8052275;47;-11;0;-82;3904;-1774;128;0.1163435;-0.07479224;0.6869806;0.7133918;-23;8;-4;-104;4028;264;4;0.5804482;-0.5152354;0.4224377;0.468144;1;2;2;474;3954;112;16;0.6468144;-0.7509046;-0.07202215;-0.1121884;-1;1;0;227;4161;606;2;0.5124654;-0.4016621;-0.5166205;-0.5560127;-1;5;-1;-708;3996;276;8;0.66482;-0.7417243;-0.001385042;0.08864266;0;7;0;-491;4229;399;0.4113443;2.825966;-0.06189044;0.4171652;3.356426;-0.1891716;0.4222766;3.822227;-0.3030184;0.4502868;4.517963;-0.07143696;0.2047346;4.849622;-0.004695296;-0.1424484;4.710491;0.01096814;-0.3959502;3.946863;-0.4483129;-0.7738971;3.250407;-0.9678351;0.7246574;4.828693;-0.004695296;1.00719;4.664211;0.01096863;1.116534;3.893607;-0.5569112;1.441926;3.22397;-1.142996;0.09908388;2.783357;-0.05871773;0.03263389;1.329469;-0.2092234;0;0;0;0.09908388;2.783357;-0.05871773;0.03263389;1.329469;-0.2092234;0;0;0
425285.5239;NotLabelled;16384;0.7331385;-0.2977839;0.2811634;0.5429363;-53;7;212;2958;4632;1354;65536;0.8684266;-0.2867036;0.2091413;0.3462604;125;-39;-202;-3228;5783;-4517;8192;0.7145432;-0.200831;-0.3947368;-0.5415512;-83;-30;-192;-2864;4544;1754;32768;0.7975639;-0.1703601;-0.4307479;-0.3864266;128;17;213;2953;5588;-4498;256;-0.1108033;0.1274238;-0.5609418;-0.8104506;46;-7;-1;84;3998;-1994;128;0.1177285;-0.07617728;0.6842105;0.7156766;-24;12;-4;-94;4140;426;4;0.5814536;-0.5152354;0.4210526;0.468144;1;4;2;570;3972;112;16;0.6468144;-0.7510361;-0.07063711;-0.1121884;-2;0;0;175;4229;548;2;0.5124654;-0.4016621;-0.5166205;-0.5560127;-1;4;-1;-834;3956;284;8;0.66482;-0.7417243;-0.001385042;0.08864266;0;2;0;-483;4231;409;0.4115534;2.825987;-0.0612141;0.4173839;3.357326;-0.1847762;0.4225039;3.823913;-0.2953573;0.4489601;4.51623;-0.05357294;0.2026922;4.846372;0.01788422;-0.1442142;4.706318;0.03129885;-0.4123068;3.978762;-0.4757692;-0.7929171;3.32259;-1.043547;0.7226568;4.826506;0.01788446;1.005516;4.662387;0.03129929;1.117682;3.929389;-0.5838484;1.438554;3.305436;-1.220646;0.09929276;2.783357;-0.0583639;0.0333803;1.329469;-0.2091057;0;0;0;0.09929276;2.783357;-0.0583639;0.0333803;1.329469;-0.2091057;0;0;0
425306.2251;NotLabelled;16384;0.7452797;-0.2742382;0.2617728;0.5484765;-59;13;210;3080;4322;1480;65536;0.8778651;-0.2562327;0.1897507;0.3573407;132;-45;-212;-3266;5731;-4529;8192;0.7309333;-0.1772853;-0.3795014;-0.5387812;-89;-45;-192;-2866;4322;1966;32768;0.8135666;-0.1398892;-0.4113573;-0.3864266;136;14;220;2871;5520;-4520;256;-0.1094183;0.1288089;-0.5554016;-0.8142266;36;2;-2;56;3930;-2074;128;0.1177285;-0.07617728;0.6814404;0.7183146;-22;12;-2;-226;4138;154;4;0.5824541;-0.5152354;0.4196676;0.468144;0;4;2;550;3970;94;16;0.6468144;-0.7509046;-0.07202215;-0.1121884;-2;3;0;171;4211;538;2;0.5124654;-0.400277;-0.5166205;-0.5570107;-1;2;-1;-874;3946;282;8;0.66482;-0.7417243;-0.001385042;0.08864266;0;0;0;-451;4189;449;0.414156;2.825436;-0.05775569;0.4199958;3.357622;-0.177612;0.425124;3.824968;-0.2849388;0.4503514;4.512884;-0.03077543;0.2035267;4.841315;0.04641478;-0.1431716;4.700511;0.05708153;-0.4241548;4.012887;-0.4965879;-0.806058;3.403768;-1.113777;0.7235212;4.822249;0.04641467;1.006625;4.658352;0.05708146;1.124819;3.96797;-0.6044911;1.442342;3.39499;-1.28908;0.1018951;2.782786;-0.05522646;0.03644109;1.32928;-0.2097968;0;0;0;0.1018951;2.782786;-0.05522646;0.03644109;1.32928;-0.2097968;0;0;0
425326.5002;NotLabelled;16384;0.7690636;-0.2243767;0.2229917;0.5554016;-70;21;204;3358;4038;1722;65536;0.8936706;-0.1897507;0.1495845;0.3781163;143;-42;-226;-2914;5607;-4527;8192;0.7491757;-0.1537396;-0.365651;-0.5304709;-101;-65;-187;-2906;4204;2304;32768;0.8297948;-0.1080332;-0.3919668;-0.3822715;144;4;226;2833;5478;-4586;256;-0.1066482;0.1288089;-0.5512465;-0.8174116;23;-9;-1;-60;3794;-2282;128;0.1191136;-0.07894737;0.6786703;0.7204067;-20;13;-1;-144;4056;300;4;0.5822235;-0.5166205;0.4182825;0.468144;1;3;1;472;3926;98;16;0.6454294;-0.7518875;-0.07202215;-0.1135734;-3;5;0;159;4131;630;2;0.5138504;-0.400277;-0.5152354;-0.5570176;0;0;-1;-800;3938;212;8;0.66482;-0.7417256;0;0.08864266;-1;0;0;-623;4163;419;0.4118924;2.825254;-0.05303188;0.4177421;3.358335;-0.1688453;0.4228791;3.826482;-0.2726218;0.4468685;4.510849;-0.008937687;0.1994827;4.837798;0.07262322;-0.1470037;4.696325;0.08109905;-0.4434876;4.046821;-0.5092993;-0.8276883;3.492002;-1.174403;0.719506;4.819536;0.07271868;1.002857;4.655943;0.08131021;1.123036;4.004845;-0.6186198;1.429354;3.487875;-1.351217;0.09963138;2.782587;-0.05085239;0.03406979;1.329469;-0.2089943;0;0;0;0.09963138;2.782587;-0.05085239;0.03406979;1.329469;-0.2089943;0;0;0
425346.5126;NotLabelled;16384;0.7808527;-0.199446;0.2049861;0.5554016;-77;36;198;3262;3744;1830;65536;0.9002078;-0.1551246;0.1274238;0.3864266;147;-40;-227;-2804;5353;-4483;8192;0.7846905;-0.1080332;-0.3379501;-0.5083103;-122;-77;-166;-2638;3868;2330;32768;0.8594236;-0.04293629;-0.3504155;-0.3698061;159;0;228;2231;5244;-4570;256;-0.1038781;0.1288089;-0.5484765;-0.8196287;14;-9;0;-102;3816;-2446;128;0.1204986;-0.08033241;0.6759003;0.7226241;-18;12;-2;-162;4100;638;4;0.5822235;-0.5166205;0.4182825;0.468144;0;2;1;486;3980;92;16;0.6454294;-0.7518875;-0.07202215;-0.1135734;-3;5;0;175;4163;584;2;0.5138504;-0.400277;-0.5152354;-0.5570176;0;-2;0;-774;3948;230;8;0.66482;-0.7417256;0;0.08864266;-1;0;0;-521;4193;415;0.4093836;2.824559;-0.05651118;0.4152419;3.358426;-0.1686441;0.4203867;3.827278;-0.2691883;0.4424372;4.508733;0.002097607;0.1941339;4.83407;0.0872393;-0.1519616;4.691555;0.0940688;-0.4767591;4.142035;-0.5773948;-0.8623576;3.713438;-1.329336;0.7142059;4.817244;0.0872395;0.9980061;4.65435;0.09406954;1.128419;4.056417;-0.65007;1.428447;3.602519;-1.425794;0.09712232;2.781878;-0.05464987;0.036611;1.328645;-0.2137479;0;0;0;0.09712232;2.781878;-0.05464987;0.036611;1.328645;-0.2137479;0;0;0
425366.7453;NotLabelled;16384;0.7932094;-0.1745152;0.1869806;0.5526316;-85;53;188;3130;3360;1786;65536;0.9051965;-0.1204986;0.1066482;0.3933518;151;-33;-225;-2772;5043;-4281;8192;0.8013863;-0.08310249;-0.3282548;-0.4930748;-136;-95;-155;-2396;3288;2594;32768;0.8715423;-0.008310249;-0.3296399;-0.3628809;164;3;224;2113;4818;-4278;256;-0.1038781;0.1288089;-0.5457063;-0.8214756;9;-6;-2;158;3972;-2598;128;0.1232687;-0.08310249;0.6703601;0.7269911;-13;15;-2;-188;4278;498;4;0.5833344;-0.5166205;0.4182825;0.466759;0;1;0;398;4006;78;16;0.6454294;-0.7517536;-0.0734072;-0.1135734;-3;3;0;181;4163;618;2;0.5138504;-0.400277;-0.5152354;-0.5570176;0;-4;0;-742;3960;254;8;0.66482;-0.7417256;0;0.08864266;-2;-3;0;-481;4247;443;0.4095619;2.82457;-0.05587605;0.4154284;3.359195;-0.1643388;0.4205807;3.828727;-0.2616597;0.4402823;4.50812;0.01492727;0.190869;4.831949;0.1025358;-0.1547475;4.688225;0.1081689;-0.4926879;4.188387;-0.594887;-0.8741236;3.830379;-1.384909;0.7109946;4.81687;0.102536;0.9953387;4.65488;0.1081695;1.141144;4.157971;-0.7042953;1.421017;3.8424;-1.552749;0.09730043;2.781878;-0.05433149;0.0373103;1.328645;-0.2136267;0;0;0;0.09730043;2.781878;-0.05433149;0.0373103;1.328645;-0.2136267;0;0;0
425388.5346;NotLabelled;16384;0.8054931;-0.1495845;0.1717452;0.5470914;-97;64;177;2934;2996;1742;65536;0.9116709;-0.04847645;0.06371191;0.4030471;153;-22;-226;-2592;4321;-3725;8192;0.8180966;-0.05955679;-0.3185596;-0.4750692;-145;-108;-152;-2726;2876;2474;32768;0.882191;0.02493075;-0.3088643;-0.3545706;168;-1;219;1745;4382;-3952;256;-0.1024931;0.1288089;-0.5443213;-0.8225678;12;0;-3;-62;4054;-2530;128;0.1232687;-0.08448754;0.6703601;0.7268315;0;10;0;-230;4268;630;4;0.5843251;-0.5166205;0.4168975;0.466759;0;-3;-1;478;3958;74;16;0.6440443;-0.7527303;-0.0734072;-0.1149584;-3;-1;0;183;4199;700;2;0.5152354;-0.4016621;-0.5138504;-0.5560196;0;-4;1;-762;4000;250;8;0.66482;-0.7415588;0;0.0900277;-2;-4;1;-513;4201;447;0.4105187;2.824762;-0.05556506;0.4164009;3.360816;-0.156728;0.4215673;3.831631;-0.2476378;0.4419596;4.509171;0.03340837;0.1928847;4.832691;0.1230942;-0.1528906;4.689313;0.1277176;-0.5050816;4.241021;-0.6025735;-0.8852414;3.954757;-1.42192;0.712993;4.817041;0.1230946;0.9971583;4.654706;0.1277181;1.157738;4.211791;-0.7127081;1.426105;3.971306;-1.589026;0.09825709;2.782053;-0.05464938;0.03501571;1.328836;-0.2128273;0;0;0;0.09825709;2.782053;-0.05464938;0.03501571;1.328836;-0.2128273;0;0;0
425409.666;NotLabelled;16384;0.8178058;-0.1246537;0.1592798;0.5387812;-110;77;166;2868;2654;1934;65536;0.9135386;-0.01246537;0.04155125;0.4044321;155;-6;-224;-2710;4081;-3487;8192;0.8341228;-0.03462604;-0.3088643;-0.4556787;-146;-90;-150;-3324;2650;2062;32768;0.8909091;0.05955679;-0.2894737;-0.3448753;171;-2;206;1331;4106;-3846;256;-0.1024931;0.1301939;-0.5415512;-0.8241765;18;16;-2;-300;3916;-2312;128;0.1246537;-0.08448754;0.6703601;0.7265952;12;9;-1;-108;4316;606;4;0.5833344;-0.5166205;0.4182825;0.466759;0;-3;-3;544;3942;172;16;0.6440443;-0.7529405;-0.0734072;-0.1135734;-2;0;0;197;4159;718;2;0.5152354;-0.4016621;-0.5138504;-0.5560196;1;-3;2;-688;3942;240;8;0.66482;-0.7415588;0;0.0900277;-3;-2;0;-497;4169;521;0.4125263;2.823532;-0.05666685;0.4184085;3.359585;-0.1578346;0.4235749;3.830399;-0.2487487;0.4427873;4.506879;0.03491983;0.1931542;4.829628;0.1258279;-0.1523778;4.685647;0.1298558;-0.5196425;4.287937;-0.6219895;-0.891434;4.155456;-1.483393;0.7132884;4.814859;0.1258281;0.9977279;4.652989;0.1298568;1.172451;4.264621;-0.7343867;1.429131;4.09869;-1.631253;0.1002648;2.780823;-0.0557507;0.03727752;1.328001;-0.2176076;0;0;0;0.1002648;2.780823;-0.0557507;0.03727752;1.328001;-0.2176076;0;0;0
425430.5078;NotLabelled;16384;0.8308991;-0.101108;0.1495845;0.5263157;-124;97;153;2792;2624;2038;65536;0.9140634;0.02216066;0.02077562;0.4044321;155;5;-218;-2172;3819;-3049;8192;0.8464123;-0.009695291;-0.299169;-0.4404432;-149;-79;-144;-3092;2432;1460;32768;0.8973637;0.09418282;-0.2728532;-0.333795;174;-8;182;973;3522;-3938;256;-0.1038781;0.1315789;-0.5387812;-0.8255975;22;0;1;-196;3926;-1964;128;0.1260388;-0.08587258;0.6703601;0.7261938;7;8;-3;-60;4174;782;4;0.5833344;-0.5166205;0.4182825;0.466759;0;0;-5;604;3958;154;16;0.6440443;-0.7529405;-0.0734072;-0.1135734;-2;0;0;157;4193;678;2;0.5152354;-0.4030471;-0.5138504;-0.5550165;0;-1;4;-604;3996;222;8;0.6634349;-0.7427982;0;0.0900277;-3;0;1;-491;4217;509;0.4095198;2.824016;-0.06041282;0.4154013;3.36;-0.1619453;0.420567;3.830752;-0.2531798;0.4394181;4.505376;0.03490108;0.1896206;4.827411;0.1278672;-0.1558461;4.683249;0.1308914;-0.5429888;4.334971;-0.6353673;-0.9094268;4.281478;-1.507524;0.7097616;4.81288;0.1278678;0.9942744;4.651116;0.1308928;1.179268;4.321243;-0.7552427;1.423412;4.232529;-1.666457;0.09725826;2.781307;-0.05946533;0.03391745;1.328091;-0.2176034;0;0;0;0.09725826;2.781307;-0.05946533;0.03391745;1.328091;-0.2176034;0;0;0
425471.5516;NotLabelled;16384;0.8669032;-0.02493075;0.1246537;0.4819945;-138;77;139;2900;1456;972;65536;0.9142953;0.1135734;-0.02770083;0.3878116;153;43;-168;-1556;2193;-2427;8192;0.8735155;0.06648199;-0.2770083;-0.3947368;-160;-34;-127;-2174;950;2092;32768;0.9062544;0.1814404;-0.2423823;-0.2950138;192;-16;116;789;2668;-3216;256;-0.1038781;0.1315789;-0.5277008;-0.8327233;37;15;6;-74;3776;-1138;128;0.1274238;-0.08725762;0.666205;0.7296028;-18;-5;-1;-386;4332;734;4;0.5811071;-0.5180055;0.4196676;0.466759;0;2;-6;560;3988;110;16;0.6426592;-0.7539132;-0.0734072;-0.1149584;-2;3;0;165;4181;642;2;0.5152354;-0.4044321;-0.5138504;-0.554008;0;0;6;-710;3978;290;8;0.6620498;-0.744033;0;0.0900277;-3;-1;1;-501;4149;505;0.4092925;2.824016;-0.06081375;0.4151731;3.359928;-0.1627203;0.4203382;3.830617;-0.2542832;0.4403577;4.503489;0.03778732;0.1911264;4.825418;0.132616;-0.1546009;4.681867;0.1347301;-0.5637073;4.379927;-0.6397333;-0.9251836;4.402323;-1.515308;0.7112404;4.809948;0.1326163;0.9954597;4.647655;0.1347311;1.185655;4.374809;-0.7695121;1.419972;4.362298;-1.687513;0.09703089;2.781308;-0.05983402;0.03308796;1.328091;-0.2177303;0;0;0;0.09703089;2.781308;-0.05983402;0.03308796;1.328091;-0.2177303;0;0;0
425512.5072;NotLabelled;16384;0.8744725;0.001385042;0.1163435;0.4709141;-139;59;136;2676;932;1158;65536;0.913086;0.1440443;-0.03878116;0.3795014;153;55;-144;-1714;1389;-1483;8192;0.8786656;0.09418282;-0.2700831;-0.3822715;-160;-36;-124;-2490;630;2174;32768;0.9050778;0.2119114;-0.2368421;-0.2825485;190;-14;96;953;1854;-2368;256;-0.1052632;0.132964;-0.5221606;-0.8358161;41;10;6;-52;3648;-1338;128;0.1246537;-0.08587258;0.6634349;0.7327629;-19;-15;0;-222;4232;704;4;0.5809817;-0.5193906;0.4196676;0.4653739;0;3;-8;478;3936;86;16;0.6426592;-0.753777;-0.07479224;-0.1149584;-3;3;0;107;4167;604;2;0.5152354;-0.4058172;-0.5138504;-0.5529943;0;0;7;-766;3954;348;8;0.6620498;-0.744033;0;0.0900277;-3;-3;1;-597;4155;475;0.4065793;2.824052;-0.07155514;0.4124714;3.361002;-0.1678459;0.4176467;3.832623;-0.2544764;0.4403591;4.497588;0.05498749;0.1924586;4.818044;0.1579533;-0.1538969;4.676009;0.1560712;-0.616482;4.524176;-0.6321487;-0.9531423;4.741247;-1.490831;0.7124994;4.800284;0.1579535;0.9960021;4.63674;0.1560716;1.216582;4.534575;-0.776228;1.450934;4.710593;-1.677274;0.09431768;2.781337;-0.07105838;0.03507194;1.32724;-0.2225566;0;0;0;0.09431768;2.781337;-0.07105838;0.03507194;1.32724;-0.2225566;0;0;0
425533.5145;NotLabelled;16384;0.8802045;0.02908587;0.1080332;0.4612188;-133;52;134;2486;558;1478;65536;0.9118445;0.1745152;-0.04847645;0.368421;152;58;-127;-1808;911;-1731;8192;0.884032;0.1204986;-0.2631579;-0.367036;-157;-51;-120;-2050;384;2112;32768;0.902265;0.2409972;-0.232687;-0.2714681;186;1;88;1669;1116;-1984;256;-0.1038781;0.132964;-0.5166205;-0.8394244;49;-1;6;-158;3582;-1916;128;0.1218837;-0.08448754;0.6606648;0.735886;-27;-15;0;-106;4334;458;4;0.5820884;-0.5193906;0.4196676;0.4639889;0;4;-8;482;3994;160;16;0.6426592;-0.753777;-0.07479224;-0.1149584;-3;2;0;175;4207;628;2;0.5152354;-0.4058172;-0.5138504;-0.5529943;0;-1;7;-740;3922;268;8;0.6620498;-0.7440317;0.001385042;0.0900277;-3;-3;1;-603;4211;451;0.4026764;2.824711;-0.07466761;0.4085776;3.362489;-0.1662238;0.413761;3.834855;-0.2486957;0.4383059;4.495901;0.06891793;0.1913106;4.815803;0.1757059;-0.1554642;4.674834;0.1719347;-0.633845;4.57509;-0.6151687;-0.969204;4.852159;-1.456931;0.7112964;4.796499;0.1757066;0.9943133;4.632148;0.1719364;1.221038;4.589264;-0.7634953;1.459837;4.825834;-1.649383;0.09041469;2.781993;-0.07457744;0.03195548;1.327433;-0.2218728;0;0;0;0.09041469;2.781993;-0.07457744;0.03195548;1.327433;-0.2218728;0;0;0
425553.5954;NotLabelled;16384;0.8856418;0.05540166;0.09972299;0.4501385;-135;53;126;2394;258;1510;65536;0.909674;0.2022161;-0.05401662;0.3587258;153;51;-113;-1594;669;-1365;8192;0.8890467;0.1454294;-0.2562327;-0.3504155;-159;-65;-110;-1738;356;2128;32768;0.8979439;0.2700831;-0.2285319;-0.2617728;182;-7;92;2319;1074;-1606;256;-0.1038781;0.132964;-0.5096953;-0.8436472;45;3;5;86;3512;-2032;128;0.1191136;-0.08310249;0.6578947;0.7389726;-23;-15;0;8;4234;558;4;0.5809519;-0.5207756;0.4210526;0.4626039;0;5;-8;452;4006;132;16;0.6412742;-0.7549556;-0.07479224;-0.1149584;-3;3;-1;179;4217;656;2;0.5152354;-0.4085872;-0.5138504;-0.5509507;0;-6;7;-658;4038;224;8;0.6606648;-0.7452579;0.002770083;0.0900277;-4;-8;2;-417;4107;487;0.4060749;2.824692;-0.07525212;0.4119846;3.36325;-0.1620973;0.4171757;3.83632;-0.240431;0.4414993;4.493035;0.08605903;0.1944203;4.81145;0.1970176;-0.1523389;4.670514;0.1911771;-0.6405109;4.625146;-0.5949265;-0.969292;4.960487;-1.417877;0.7144079;4.792194;0.197018;0.9974422;4.627934;0.1911784;1.233818;4.643647;-0.742714;1.483219;4.935932;-1.608829;0.09381324;2.781974;-0.07556581;0.03234114;1.327433;-0.2218167;0;0;0;0.09381324;2.781974;-0.07556581;0.03234114;1.327433;-0.2218167;0;0;0
425574.5226;NotLabelled;16384;0.893223;0.1066482;0.08725762;0.4279778;-129;60;111;2358;-296;1496;65536;0.9003133;0.2562327;-0.06232687;0.3462604;152;23;-84;-1078;23;-1439;8192;0.8951859;0.1952908;-0.2465374;-0.3157895;-155;-47;-93;-1468;-536;2040;32768;0.8892301;0.3254848;-0.2188366;-0.2354571;176;-15;88;1129;612;-1842;256;-0.1038781;0.132964;-0.5041551;-0.8469697;34;3;5;28;3450;-1954;128;0.1163435;-0.08171745;0.6551247;0.742023;-22;-21;1;-200;4010;458;4;0.5808099;-0.5221606;0.4210526;0.4612188;0;4;-7;446;3914;144;16;0.6412742;-0.7547435;-0.07479224;-0.1163435;-4;3;0;159;4147;534;2;0.5152354;-0.4099723;-0.5138504;-0.5499209;0;-5;5;-658;4012;206;8;0.6606648;-0.7450829;0.004155125;0.09141274;-5;-7;2;-567;4157;527;0.4037253;2.824713;-0.08714385;0.409643;3.364006;-0.1693008;0.4148414;3.83774;-0.2435164;0.4407406;4.489082;0.09344631;0.1944567;4.806355;0.2093353;-0.1526803;4.666476;0.2010369;-0.648842;4.673726;-0.5813316;-0.9764091;5.058977;-1.382629;0.71439;4.785685;0.2093361;0.9969808;4.620768;0.2010385;1.238898;4.693436;-0.7287308;1.497636;5.039577;-1.571956;0.09146363;2.782;-0.08785889;0.03143246;1.326658;-0.2265393;0;0;0;0.09146363;2.782;-0.08785889;0.03143246;1.326658;-0.2265393;0;0;0
425595.541;NotLabelled;16384;0.896505;0.1301939;0.08171745;0.4155124;-123;60;101;2244;-562;1556;65536;0.8947733;0.2811634;-0.06509695;0.3407202;152;25;-76;-986;-347;-1477;8192;0.8951848;0.2188366;-0.2423823;-0.3033241;-151;-25;-85;-1330;-860;2294;32768;0.8837336;0.3518005;-0.2119114;-0.2243767;174;0;89;863;50;-1804;256;-0.1038781;0.132964;-0.5;-0.8494292;26;0;8;150;3498;-1768;128;0.1149584;-0.08033241;0.6537396;0.74361;-21;-10;1;-186;3858;362;4;0.5819071;-0.5221606;0.4210526;0.4598338;0;3;-4;318;3960;82;16;0.6412742;-0.7546049;-0.07617728;-0.1163435;-5;4;-1;155;4121;500;2;0.5152354;-0.4113573;-0.5138504;-0.5488856;0;-5;4;-512;3924;264;8;0.6592798;-0.7462997;0.005540166;0.09141274;-6;-5;3;-537;4149;507;0.4053183;2.825048;-0.09080411;0.4112437;3.365031;-0.1682971;0.416449;3.839388;-0.2384157;0.4434842;4.48633;0.1068346;0.1977931;4.802635;0.2265641;-0.1496383;4.663626;0.2162166;-0.6593291;4.763818;-0.5509245;-0.9868625;5.241821;-1.300612;0.7176803;4.780838;0.2267037;0.9999209;4.615428;0.2165249;1.257445;4.790942;-0.6951497;1.526183;5.24171;-1.484058;0.09305683;2.782343;-0.09191781;0.03442981;1.32657;-0.2266165;0;0;0;0.09305683;2.782343;-0.09191781;0.03442981;1.32657;-0.2266165;0;0;0
425615.592;NotLabelled;16384;0.8984469;0.1523546;0.07756232;0.4044321;-124;62;91;1872;-720;1762;65536;0.8886636;0.3060942;-0.06509695;0.33518;154;21;-70;-728;-381;-1283;8192;0.8942876;0.2423823;-0.2368421;-0.2922437;-142;-13;-77;-1512;-778;2388;32768;0.876541;0.3781163;-0.2049861;-0.2160665;169;16;85;389;-156;-1472;256;-0.1024931;0.1315789;-0.4930748;-0.8538498;29;-7;11;546;3474;-2238;128;0.1121884;-0.07894737;0.6509695;0.7466055;-10;-4;-1;-326;3804;342;4;0.5806612;-0.5235457;0.4210526;0.4598338;0;1;-4;252;4002;108;16;0.6398892;-0.7557797;-0.07617728;-0.1163435;-6;5;0;179;4187;652;2;0.5166205;-0.4127424;-0.5124654;-0.5478379;0;-4;4;-622;3908;200;8;0.6578947;-0.7475209;0.005540166;0.09141274;-6;-4;3;-425;4211;559;0.4062875;2.825208;-0.09095173;0.4122165;3.36552;-0.1661178;0.417425;3.840174;-0.2341922;0.4454545;4.483756;0.1172041;0.2002569;4.799303;0.2399067;-0.147397;4.66096;0.2281904;-0.6613601;4.813816;-0.5273269;-0.9891853;5.33254;-1.249305;0.7201083;4.776666;0.2399074;1.002083;4.610903;0.2281921;1.265823;4.843287;-0.6688663;1.534802;5.342278;-1.428107;0.09402604;2.782508;-0.09226412;0.03211566;1.326764;-0.2258147;0;0;0;0.09402604;2.782508;-0.09226412;0.03211566;1.326764;-0.2258147;0;0;0
425636.1336;NotLabelled;16384;0.8995693;0.1745152;0.07479224;0.3933518;-120;47;82;1262;-986;1894;65536;0.8806283;0.3310249;-0.06648199;0.33241;146;12;-66;-592;-771;-847;8192;0.8918183;0.2631579;-0.234072;-0.2839335;-136;-13;-69;-1626;-932;2388;32768;0.8680245;0.4044321;-0.1980609;-0.2091413;160;34;79;221;-396;-1064;256;-0.1024931;0.1301939;-0.4889196;-0.8564475;28;-9;10;262;3138;-2120;128;0.1108033;-0.07894737;0.6495845;0.7480174;-1;-7;0;-134;4088;350;4;0.580506;-0.5249307;0.4210526;0.4584487;0;-2;-4;238;4024;106;16;0.6385041;-0.7569503;-0.07617728;-0.1163435;-6;0;0;173;4145;728;2;0.5166205;-0.4141274;-0.5124654;-0.5467916;1;-5;5;-548;4000;242;8;0.6578947;-0.7475094;0.006925208;0.09141274;-5;-6;2;-371;4213;555;0.4011375;2.824855;-0.09778799;0.4070733;3.36579;-0.1683254;0.412288;3.84101;-0.2323335;0.4411862;4.47868;0.1296136;0.1964519;4.7926;0.2573108;-0.1514357;4.655084;0.2430737;-0.6658806;4.850091;-0.5023441;-0.9945136;5.406862;-1.195022;0.7162626;4.769047;0.2573112;0.9979544;4.603001;0.2430745;1.269258;4.88392;-0.6376942;1.542857;5.428003;-1.363577;0.08887613;2.782168;-0.09949522;0.03212312;1.325974;-0.2304066;0;0;0;0.08887613;2.782168;-0.09949522;0.03212312;1.325974;-0.2304066;0;0;0
425655.8154;NotLabelled;16384;0.8991203;0.1952908;0.07202215;0.3850415;-121;25;71;1264;-1088;1988;65536;0.873443;0.3531856;-0.06786703;0.3282548;140;5;-64;-396;-967;-981;8192;0.8891988;0.2839335;-0.2313019;-0.2742382;-134;-15;-59;-1346;-1274;2228;32768;0.8595408;0.4279778;-0.1897507;-0.2049861;148;41;74;383;-842;-790;256;-0.1024931;0.1301939;-0.4847645;-0.8588062;23;-4;5;178;3100;-1770;128;0.1108033;-0.07894737;0.6495845;0.7480174;-8;-1;0;-26;3628;250;4;0.5794989;-0.5249307;0.4224377;0.4584487;0;0;-4;296;3990;88;16;0.6385041;-0.7569503;-0.07617728;-0.1163435;-5;1;0;105;4143;754;2;0.5166205;-0.4155124;-0.5124654;-0.5457398;2;-6;6;-492;3972;254;8;0.6565097;-0.7485416;0.008310249;0.09279778;-5;-7;2;-429;4215;611;0.3991662;2.82445;-0.1061223;0.4051053;3.36568;-0.1743589;0.410323;3.841167;-0.2363456;0.4409561;4.475286;0.1316473;0.1971003;4.78871;0.2622117;-0.151189;4.652374;0.2465207;-0.6674837;4.888248;-0.4856901;-0.9965246;5.482497;-1.146294;0.7168384;4.763606;0.2622123;0.9980404;4.596862;0.2465223;1.279234;4.917691;-0.6173494;1.556933;5.504395;-1.307602;0.08690502;2.78177;-0.1080256;0.03180464;1.325168;-0.2350423;0;0;0;0.08690502;2.78177;-0.1080256;0.03180464;1.325168;-0.2350423;0;0;0
425676.541;NotLabelled;16384;0.8946361;0.234072;0.07063711;0.3739612;-106;13;51;1798;-1416;1938;65536;0.8563018;0.3947368;-0.07063711;0.3254848;121;-5;-56;-346;-1487;-87;8192;0.8821737;0.3213296;-0.2299169;-0.2562327;-120;-17;-34;-1486;-1510;2190;32768;0.8421167;0.4709141;-0.1759003;-0.1952908;133;15;68;369;-1452;-640;256;-0.1024931;0.1288089;-0.4819945;-0.8605723;17;-8;5;236;3050;-1640;128;0.1108033;-0.07756232;0.6481994;0.7493625;-13;-7;0;112;3742;530;4;0.5805919;-0.5249307;0.4224377;0.4570637;0;0;-5;284;3958;96;16;0.6371191;-0.7579759;-0.07756232;-0.1163435;-5;1;0;147;4137;786;2;0.5166205;-0.4182825;-0.5124654;-0.5436196;2;-9;5;-464;4020;264;8;0.6551247;-0.7497374;0.009695291;0.09279778;-6;-2;3;-541;4203;613;0.3991337;2.82476;-0.1096962;0.4050727;3.365991;-0.1779329;0.4102904;3.841478;-0.2399197;0.441743;4.472052;0.1340467;0.1983166;4.784615;0.2674478;-0.1501784;4.64898;0.2503141;-0.6690243;4.922452;-0.4668617;-0.9977767;5.549215;-1.096852;0.7180148;4.758697;0.2674486;0.9989627;4.591667;0.2503157;1.286828;4.952658;-0.5953166;1.564539;5.576004;-1.252663;0.08687235;2.782081;-0.1115996;0.03185774;1.325168;-0.2350353;0;0;0;0.08687235;2.782081;-0.1115996;0.03185774;1.325168;-0.2350353;0;0;0
425696.6025;NotLabelled;16384;0.891856;0.2506925;0.07063711;0.3698061;-98;16;38;1788;-1490;1892;65536;0.8487118;0.4127424;-0.07202215;0.3227147;106;0;-53;-442;-1653;229;8192;0.8784691;0.3365651;-0.2299169;-0.2493075;-114;-18;-24;-1624;-1526;2212;32768;0.8345378;0.4889196;-0.1703601;-0.1883656;122;1;63;105;-1612;-374;256;-0.1024931;0.1288089;-0.4806094;-0.8613467;20;-4;3;-124;3184;-1798;128;0.1094183;-0.07756232;0.6468144;0.7507615;-11;-1;0;22;3672;462;4;0.5793366;-0.5263157;0.4224377;0.4570637;0;1;-5;334;3944;120;16;0.6371191;-0.7579759;-0.07756232;-0.1163435;-4;1;0;113;4137;766;2;0.5166205;-0.4196676;-0.5110803;-0.543856;3;-8;5;-484;3968;262;8;0.6551247;-0.7497374;0.009695291;0.09279778;-6;-5;3;-463;4207;621;0.3995138;2.82409;-0.1143555;0.4054556;3.365567;-0.1806134;0.4106756;3.841278;-0.2408618;0.4435313;4.469401;0.1370863;0.2008183;4.781704;0.2723808;-0.1479984;4.647025;0.254282;-0.6741439;4.985613;-0.4289882;-1.002478;5.669686;-0.9964719;0.7204521;4.754527;0.2723814;1.001001;4.586929;0.2542831;1.307759;5.016474;-0.5517352;1.588301;5.702824;-1.141656;0.08725264;2.781418;-0.1164273;0.02926344;1.324539;-0.2388889;0;0;0;0.08725264;2.781418;-0.1164273;0.02926344;1.324539;-0.2388889;0;0;0
425716.704;NotLabelled;16384;0.8900226;0.2645429;0.07202215;0.3642659;-86;20;29;1716;-1902;1846;65536;0.84207;0.4279778;-0.0734072;0.3199446;90;2;-50;-548;-2193;245;8192;0.8744462;0.3518005;-0.2313019;-0.2409972;-104;-18;-20;-1292;-1938;2010;32768;0.8272757;0.5055401;-0.166205;-0.1800554;110;-5;53;405;-1938;166;256;-0.101108;0.1288089;-0.4764543;-0.8638152;24;0;3;136;3128;-1804;128;0.1094183;-0.07756232;0.6454294;0.7519526;-11;-2;1;-68;3890;384;4;0.5804266;-0.5263157;0.4224377;0.4556787;0;4;-5;376;3954;122;16;0.6357341;-0.759138;-0.07756232;-0.1163435;-5;1;0;97;4193;680;2;0.5180055;-0.4210526;-0.5110803;-0.5414627;2;-8;5;-498;4004;304;8;0.6537396;-0.7509263;0.01108033;0.09279778;-5;-10;2;-361;4145;667;0.3949316;2.824501;-0.1170968;0.4008763;3.366253;-0.181062;0.4060991;3.842215;-0.2392961;0.4392163;4.469134;0.1406218;0.196642;4.781138;0.2768533;-0.1522411;4.646697;0.258276;-0.6824077;5.012096;-0.407859;-1.009056;5.719929;-0.9464412;0.7162619;4.753694;0.276854;0.9967268;4.586007;0.2582772;1.310979;5.042173;-0.5300334;1.590455;5.754523;-1.088815;0.08267041;2.781839;-0.1193636;0.02928255;1.324539;-0.2388867;0;0;0;0.08267041;2.781839;-0.1193636;0.02928255;1.324539;-0.2388867;0;0;0
425737.5473;NotLabelled;16384;0.8876895;0.2770083;0.07479224;0.3601108;-76;12;19;2022;-1966;1984;65536;0.8365502;0.4404432;-0.07479224;0.3171745;74;5;-45;-610;-2587;255;8192;0.8697278;0.3642659;-0.234072;-0.2368421;-94;8;-11;-1520;-2196;2004;32768;0.8206999;0.5193906;-0.1634349;-0.1731302;99;-11;47;349;-2172;30;256;-0.101108;0.1274238;-0.4695291;-0.8678035;25;-1;8;124;3292;-1742;128;0.1080332;-0.07756232;0.6454294;0.7521528;-9;0;0;-242;3544;94;4;0.5802547;-0.5277008;0.4224377;0.4542936;0;4;-3;202;3990;96;16;0.634349;-0.7600825;-0.07756232;-0.1177285;-6;5;0;191;4069;716;2;0.5180055;-0.4224377;-0.5110803;-0.5403828;2;-10;4;-432;4088;352;8;0.6523545;-0.751936;0.01246537;0.09418282;-4;-13;2;-459;4119;699;0.3975285;2.823622;-0.122612;0.4034759;3.365602;-0.1846112;0.4087009;3.841772;-0.2411181;0.4411071;4.464904;0.1450421;0.1982065;4.775337;0.2842465;-0.1505565;4.640803;0.2641473;-0.6836429;5.027987;-0.3871868;-1.007001;5.755401;-0.9010997;0.7178484;4.748317;0.2842474;0.9984604;4.581054;0.264149;1.323064;5.063378;-0.5041419;1.602293;5.79916;-1.03182;0.08526754;2.780968;-0.1250461;0.02877714;1.323702;-0.243545;0;0;0;0.08526754;2.780968;-0.1250461;0.02877714;1.323702;-0.243545;0;0;0
425757.5137;NotLabelled;16384;0.8850405;0.2880886;0.07756232;0.3573407;-71;8;6;2348;-2126;1932;65536;0.8315488;0.4515235;-0.07617728;0.3144044;59;11;-40;-926;-2807;287;8192;0.8651556;0.3767313;-0.234072;-0.234072;-83;10;-7;-2252;-2294;1992;32768;0.8149449;0.5318559;-0.1592798;-0.166205;90;-2;40;497;-2582;140;256;-0.101108;0.1274238;-0.466759;-0.8692965;24;-2;6;0;3330;-1974;128;0.1066482;-0.07617728;0.6440443;0.7536777;-10;-9;0;92;3736;236;4;0.5800762;-0.5290859;0.4224377;0.4529086;0;1;-3;116;3998;106;16;0.634349;-0.7598667;-0.07756232;-0.1191136;-5;-2;0;279;4187;750;2;0.5180055;-0.4238227;-0.5110803;-0.5392972;1;-8;4;-428;4010;304;8;0.6523545;-0.751737;0.01385042;0.09556787;-3;-9;3;-535;4161;659;0.3986296;2.823067;-0.1311662;0.4045772;3.365083;-0.192845;0.4098027;3.841287;-0.2490703;0.4442955;4.458181;0.1468003;0.2024829;4.76735;0.2906386;-0.1467831;4.634509;0.2681577;-0.6837205;5.039764;-0.3688629;-1.002611;5.78291;-0.8626637;0.7220157;4.738304;0.2906396;1.001992;4.570282;0.2681593;1.340295;5.07094;-0.4822859;1.620969;5.825055;-0.9826058;0.08636855;2.780414;-0.1336276;0.03149483;1.322772;-0.2482096;0;0;0;0.08636855;2.780414;-0.1336276;0.03149483;1.322772;-0.2482096;0;0;0
425778.5984;NotLabelled;16384;0.8826954;0.2977839;0.08033241;0.3545706;-61;19;3;2498;-2214;1874;65536;0.8284217;0.4598338;-0.07756232;0.3102493;44;18;-35;-1172;-2981;417;8192;0.8602435;0.3878116;-0.2354571;-0.232687;-71;0;-6;-2448;-2396;1924;32768;0.80899;0.5429363;-0.1565097;-0.1620499;78;6;34;891;-2828;262;256;-0.09972299;0.1274238;-0.4626039;-0.8716744;25;0;3;32;3424;-2106;128;0.1052632;-0.07617728;0.6426592;0.7550535;-11;-5;0;-252;3972;224;4;0.579065;-0.5290859;0.4238227;0.4529086;-1;-1;-3;156;4056;86;16;0.632964;-0.7612363;-0.07756232;-0.1177285;-5;-6;0;159;4191;776;2;0.5193906;-0.4279778;-0.5096953;-0.5359843;2;-12;4;-360;4070;262;8;0.6509695;-0.7528806;0.0166205;0.09556787;-3;-3;3;-347;4211;599;0.4002776;2.82334;-0.1350825;0.4062281;3.365612;-0.1944723;0.4114561;3.842048;-0.2486866;0.4464311;4.456438;0.1510191;0.2048797;4.764952;0.2966906;-0.1445121;4.632605;0.2732642;-0.6869868;5.053227;-0.3489311;-1.002414;5.810094;-0.8237528;0.7243828;4.735381;0.2966912;1.004198;4.567219;0.2732655;1.349838;5.086759;-0.4608231;1.627133;5.857915;-0.9364405;0.08801672;2.780698;-0.1377382;0.03443973;1.322693;-0.2482409;0;0;0;0.08801672;2.780698;-0.1377382;0.03443973;1.322693;-0.2482409;0;0;0
425800.5374;NotLabelled;16384;0.8800073;0.3116343;0.08725762;0.3476454;-44;16;-3;2256;-2428;1690;65536;0.8248443;0.4722992;-0.07894737;0.300554;24;14;-31;-1022;-3241;197;8192;0.8526222;0.4058172;-0.2382271;-0.2271468;-51;-6;-2;-2330;-2756;1758;32768;0.7985266;0.5609418;-0.1537396;-0.1551246;57;-7;21;1417;-3076;498;256;-0.09972299;0.1274238;-0.4598338;-0.8731388;19;8;2;-62;3382;-1968;128;0.1052632;-0.07617728;0.6426592;0.7550535;-7;-2;2;-282;4104;142;4;0.579065;-0.5290859;0.4238227;0.4529086;-2;-2;-3;138;3972;108;16;0.632964;-0.7613761;-0.07617728;-0.1177285;-5;-2;0;45;4151;748;2;0.5193906;-0.4293629;-0.5083103;-0.5361918;3;-13;3;-314;4060;228;8;0.6509695;-0.7528806;0.0166205;0.09556787;-3;-3;3;-415;4111;639;0.3966919;2.822809;-0.1430072;0.4026451;3.365326;-0.2001232;0.4078756;3.841985;-0.2523396;0.4420894;4.45243;0.1534314;0.2001862;4.759278;0.3020054;-0.149076;4.626864;0.2770772;-0.6957216;5.060675;-0.3322796;-1.005362;5.828127;-0.7937293;0.7197151;4.730164;0.3020063;0.9996907;4.562485;0.2770789;1.355774;5.096886;-0.4411793;1.63394;5.881134;-0.8943524;0.08443123;2.780179;-0.1458561;0.03107172;1.321905;-0.2528442;0;0;0;0.08443123;2.780179;-0.1458561;0.03107172;1.321905;-0.2528442;0;0;0
425820.528;NotLabelled;16384;0.8782933;0.3171745;0.0900277;0.3462604;-30;2;0;2534;-2594;1524;65536;0.8233242;0.4764543;-0.08033241;0.2977839;17;4;-22;-1008;-3399;143;8192;0.8500274;0.4127424;-0.2382271;-0.2243767;-39;4;-2;-2320;-2864;1842;32768;0.7946844;0.567867;-0.1523546;-0.1509695;48;-9;16;1171;-3304;374;256;-0.09972299;0.1274238;-0.4584487;-0.8738669;16;2;2;62;3526;-2154;128;0.1038781;-0.07617728;0.6426592;0.7552453;-10;0;0;-106;3934;308;4;0.5791312;-0.5290859;0.4252077;0.4515235;-1;-1;-3;194;3982;138;16;0.632964;-0.7613761;-0.07617728;-0.1177285;-5;0;0;119;4117;738;2;0.5207756;-0.4307479;-0.5083103;-0.5337319;3;-12;1;-290;4002;224;8;0.6495845;-0.7540442;0.01800554;0.09556787;-2;-3;2;-409;4173;699;0.3989992;2.822609;-0.1437496;0.4049524;3.365126;-0.2008656;0.410183;3.841785;-0.2530822;0.4448629;4.449674;0.1564681;0.2032139;4.755841;0.3068531;-0.1461718;4.623932;0.2809853;-0.7021969;5.07542;-0.3066578;-1.001865;5.858604;-0.7478116;0.7227134;4.726206;0.3068541;1.00253;4.558404;0.2809873;1.37298;5.118083;-0.410244;1.653904;5.921683;-0.8262927;0.08673848;2.779978;-0.1465986;0.03339724;1.321704;-0.2535959;0;0;0;0.08673848;2.779978;-0.1465986;0.03339724;1.321704;-0.2535959;0;0;0
425840.6527;NotLabelled;16384;0.8762728;0.3227147;0.0900277;0.3462604;-20;-4;2;2730;-2602;1552;65536;0.8219402;0.4792244;-0.08310249;0.2963989;14;-6;-18;-1318;-3465;-295;8192;0.847315;0.4182825;-0.2382271;-0.2243767;-30;3;-1;-2614;-2768;1876;32768;0.7902145;0.5747922;-0.1523546;-0.1481994;38;-2;11;1239;-3566;570;256;-0.09833795;0.1274238;-0.4542936;-0.8761907;11;2;-2;20;3502;-2394;128;0.1038781;-0.07756232;0.6412742;0.7562809;-10;3;2;-192;4038;328;4;0.5799572;-0.5304709;0.4238227;0.4501385;1;6;0;316;4028;186;16;0.6315789;-0.7625255;-0.07617728;-0.1177285;-6;0;1;75;4149;678;2;0.5207756;-0.433518;-0.5069252;-0.5328056;3;-11;0;-270;3974;174;8;0.6495845;-0.7540442;0.01800554;0.09556787;-3;-2;2;-441;4213;685;0.4022706;2.822822;-0.148422;0.4082241;3.365371;-0.2052296;0.4134549;3.84206;-0.2571751;0.4483656;4.448664;0.1542563;0.2068427;4.754484;0.3055436;-0.1426041;4.622831;0.2792073;-0.7028975;5.080795;-0.299299;-0.9980823;5.869472;-0.7336413;0.7263273;4.724591;0.3055443;1.006065;4.55673;0.2792084;1.379692;5.127032;-0.4015518;1.659705;5.938584;-0.8025034;0.09000987;2.780193;-0.1512969;0.03341912;1.321704;-0.2535931;0;0;0;0.09000987;2.780193;-0.1512969;0.03341912;1.321704;-0.2535931;0;0;0
425867.1613;NotLabelled;16384;0.8741818;0.3268698;0.0900277;0.3476454;-12;-5;1;2744;-2676;1724;65536;0.8188595;0.4833795;-0.08448754;0.2977839;14;-15;-16;-1488;-3585;-415;8192;0.8452261;0.4224377;-0.2396122;-0.2229917;-20;-8;-1;-2580;-2882;1760;32768;0.7856581;0.5817174;-0.1509695;-0.1468144;29;0;5;1423;-3568;642;256;-0.09833795;0.1288089;-0.4542936;-0.8759882;6;4;-3;134;3498;-2410;128;0.1038781;-0.07756232;0.6398892;0.7574531;-10;1;1;-176;4112;434;4;0.5809668;-0.5304709;0.4224377;0.4501385;5;8;3;198;4012;-24;16;0.6301939;-0.7636705;-0.07617728;-0.1177285;-6;6;1;191;4115;780;2;0.5221606;-0.434903;-0.5055401;-0.5316359;3;-8;-2;-250;4094;204;8;0.6495845;-0.7540442;0.01800554;0.09556787;-2;0;2;-453;4189;683;0.4004567;2.822008;-0.153276;0.4064125;3.364757;-0.2081338;0.4116454;3.84163;-0.2583662;0.4457071;4.444196;0.1590279;0.2037969;4.748298;0.3131348;-0.1455108;4.616594;0.285252;-0.7048015;5.080311;-0.28963;-0.9937763;5.873397;-0.7201003;0.7233084;4.718875;0.313221;1.003218;4.551534;0.2854421;1.383072;5.126337;-0.3880455;1.666275;5.94425;-0.7735339;0.08819611;2.77939;-0.1563164;0.03300489;1.320819;-0.2582156;0;0;0;0.08819611;2.77939;-0.1563164;0.03300489;1.320819;-0.2582156;0;0;0
425887.5201;NotLabelled;16384;0.8736627;0.3282548;0.0900277;0.3476454;-6;-5;5;2684;-2518;1880;65536;0.8155943;0.4875346;-0.08725762;0.299169;9;-14;-11;-1594;-3637;-605;8192;0.8442007;0.4252077;-0.2396122;-0.2216066;-13;-13;0;-2150;-2824;1762;32768;0.7815256;0.5872576;-0.1509695;-0.1468144;22;-3;1;1615;-3548;366;256;-0.09972299;0.1301939;-0.4529086;-0.8763439;0;7;-4;194;3442;-2446;128;0.1038781;-0.07894737;0.6398892;0.75731;-6;5;1;-142;4170;498;4;0.5796991;-0.5318559;0.4224377;0.4501385;3;7;4;114;4064;-22;16;0.6301939;-0.7636705;-0.07617728;-0.1177285;-6;2;1;249;4159;800;2;0.5221606;-0.4362881;-0.5041551;-0.5318164;1;0;-4;-170;4144;108;8;0.6481994;-0.7552351;0.01800554;0.09556787;-2;0;2;-391;4183;681;0.3992081;2.820839;-0.1544093;0.4051659;3.363782;-0.20731;0.4104007;3.840833;-0.255823;0.4437488;4.443463;0.1615351;0.2014691;4.747259;0.3156672;-0.1476716;4.6151;0.2878495;-0.71088;5.086128;-0.2771788;-1.000302;5.883865;-0.6986619;0.7210184;4.718512;0.3156679;1.00114;4.551533;0.2878506;1.382466;5.133901;-0.3782676;1.666376;5.957949;-0.7499237;0.08694765;2.778232;-0.1576157;0.03145107;1.319918;-0.262971;0;0;0;0.08694765;2.778232;-0.1576157;0.03145107;1.319918;-0.262971;0;0;0
425907.8689;NotLabelled;16384;0.8718185;0.33241;0.08725762;0.3490305;0;-6;6;2736;-2528;2036;65536;0.8119215;0.4916897;-0.08864266;0.301939;4;-9;-3;-1518;-3549;-947;8192;0.8438644;0.4265928;-0.2396122;-0.2202216;-5;0;2;-2366;-2672;1960;32768;0.7778596;0.5927978;-0.1495845;-0.1454294;9;-2;2;1219;-3574;-112;256;-0.09972299;0.1315789;-0.4529086;-0.8761371;-4;6;-3;78;3274;-2434;128;0.1052632;-0.08033241;0.6398892;0.7569731;-1;8;2;-160;4112;626;4;0.5807059;-0.5318559;0.4210526;0.4501385;0;4;4;-16;3990;60;16;0.6288089;-0.7645969;-0.07617728;-0.1191136;-7;1;1;95;4169;838;2;0.5221606;-0.4362881;-0.5041551;-0.5318164;0;5;-4;-34;4126;154;8;0.6481994;-0.7554091;0.01800554;0.09418282;-2;2;2;-357;4169;675;0.394032;2.82122;-0.1577332;0.3999898;3.364163;-0.210643;0.4052247;3.841213;-0.2591638;0.4394796;4.442764;0.1596752;0.1976653;4.746568;0.3145188;-0.1516829;4.615037;0.2863294;-0.7172209;5.087995;-0.2747472;-1.005358;5.890955;-0.6870924;0.7171679;4.716988;0.3145198;0.997026;4.54963;0.2863315;1.376925;5.136323;-0.3767988;1.663704;5.964021;-0.7379951;0.08177151;2.778614;-0.1609389;0.03047064;1.319918;-0.2630873;0;0;0;0.08177151;2.778614;-0.1609389;0.03047064;1.319918;-0.2630873;0;0;0
425928.5247;NotLabelled;16384;0.871956;0.33241;0.08587258;0.3490305;2;-4;5;2596;-2372;2150;65536;0.8117691;0.4916897;-0.0900277;0.301939;0;-6;-1;-1650;-3601;-949;8192;0.8431286;0.4279778;-0.2409972;-0.2188366;-3;-8;5;-2340;-2746;2032;32768;0.7759992;0.5955678;-0.1495845;-0.1440443;5;-1;0;1407;-3632;-386;256;-0.101108;0.1315789;-0.4542936;-0.8752608;-5;11;-3;-16;3416;-2560;128;0.1052632;-0.08171745;0.6398892;0.7568248;1;11;3;-178;4030;648;4;0.5817768;-0.5318559;0.4210526;0.4487534;0;2;4;50;3986;68;16;0.6274238;-0.7657338;-0.07617728;-0.1191136;-6;5;1;49;4119;880;2;0.5207756;-0.434903;-0.5041551;-0.5343031;-1;10;-5;-56;4054;134;8;0.6481994;-0.7554091;0.01800554;0.09418282;-1;3;2;-375;4185;687;0.3957025;2.81997;-0.1590795;0.4016599;3.362882;-0.2123073;0.4068944;3.839903;-0.2611075;0.4403699;4.441518;0.157701;0.1981619;4.745017;0.3125302;-0.1510152;4.613031;0.2843486;-0.7154171;5.093144;-0.2717724;-1.005182;5.900357;-0.6745652;0.7177025;4.716112;0.312531;0.9977774;4.549115;0.28435;1.376104;5.138431;-0.3773525;1.662773;5.970994;-0.7272773;0.08344198;2.777361;-0.1622582;0.03183893;1.318923;-0.2678731;0;0;0;0.08344198;2.777361;-0.1622582;0.03183893;1.318923;-0.2678731;0;0;0
425949.5212;NotLabelled;16384;0.8720912;0.33241;0.08448754;0.3490305;6;-8;8;2416;-2382;2182;65536;0.8104115;0.4930748;-0.0900277;0.3033241;-1;-3;-1;-1616;-3499;-877;8192;0.8430899;0.4279778;-0.2423823;-0.2174515;0;-11;4;-2260;-3110;2216;32768;0.7759992;0.5955678;-0.1495845;-0.1440443;1;-7;-1;1475;-3646;-550;256;-0.101108;0.132964;-0.4542936;-0.8750514;-5;8;-3;112;3204;-2542;128;0.1066482;-0.08310249;0.6398892;0.75648;2;9;2;-112;3990;668;4;0.5804383;-0.533241;0.4196676;0.4501385;2;2;3;-4;4032;124;16;0.6274238;-0.7655171;-0.07617728;-0.1204986;-4;6;2;133;4117;892;2;0.5207756;-0.434903;-0.5041551;-0.5343031;-1;13;-6;-68;4130;166;8;0.6481994;-0.7554091;0.01800554;0.09418282;-1;4;1;-441;4209;703;0.397864;2.819;-0.1649628;0.4038215;3.36191;-0.2181996;0.4090559;3.838931;-0.2670078;0.4437551;4.442011;0.1495897;0.2021532;4.74653;0.3033565;-0.1472785;4.615102;0.2757289;-0.710513;5.096196;-0.2807277;-0.9987049;5.904058;-0.6833453;0.7216383;4.716644;0.3033574;1.001391;4.549017;0.2757307;1.381229;5.140038;-0.38358;1.66816;5.974978;-0.7275773;0.08560354;2.776391;-0.1681407;0.03056184;1.317992;-0.2725611;0;0;0;0.08560354;2.776391;-0.1681407;0.03056184;1.317992;-0.2725611;0;0;0
425969.6887;NotLabelled;16384;0.8716952;0.333795;0.08310249;0.3490305;6;-8;9;2528;-2270;1924;65536;0.8104115;0.4930748;-0.0900277;0.3033241;-4;-5;-2;-1724;-3465;-1005;8192;0.8430899;0.4279778;-0.2423823;-0.2174515;-1;-6;6;-2354;-2864;1972;32768;0.7759868;0.5955678;-0.1509695;-0.1426593;0;-12;-3;1443;-3908;-530;256;-0.1024931;0.1357341;-0.4556787;-0.8737439;-9;3;-5;-8;3330;-2420;128;0.1080332;-0.08587258;0.6398892;0.7559739;0;15;1;62;4082;702;4;0.5804383;-0.533241;0.4196676;0.4501385;2;0;2;134;4088;196;16;0.6260388;-0.7662923;-0.07756232;-0.1218837;-3;5;1;151;4139;900;2;0.5193906;-0.433518;-0.5055401;-0.5354668;-2;17;-6;-132;4138;112;8;0.6481994;-0.7555805;0.01800554;0.09279778;0;4;1;-361;4205;679;0.3925265;2.81907;-0.1635273;0.3984836;3.361949;-0.2170861;0.4037178;3.838941;-0.2661772;0.4376327;4.442087;0.1503894;0.1956347;4.746298;0.3041416;-0.1536255;4.614414;0.276522;-0.7162703;5.096488;-0.2796835;-1.006813;5.905448;-0.6783862;0.7151582;4.71709;0.3041422;0.9951296;4.549826;0.2765231;1.374811;5.140876;-0.3828532;1.660886;5.975815;-0.7275615;0.08026601;2.77646;-0.1666778;0.03280924;1.31791;-0.2726963;0;0;0;0.08026601;2.77646;-0.1666778;0.03280924;1.31791;-0.2726963;0;0;0
425989.7024;NotLabelled;16384;0.8713992;0.333795;0.08033241;0.3504155;8;-7;8;2584;-2478;2016;65536;0.8102564;0.4930748;-0.09141274;0.3033241;-6;-6;-4;-1730;-3563;-1071;8192;0.8430467;0.4279778;-0.2437673;-0.2160665;2;-8;8;-2386;-2710;2040;32768;0.7762402;0.5955678;-0.1509695;-0.1412742;0;-10;-6;1455;-3720;-816;256;-0.1024931;0.1371191;-0.4570637;-0.8728037;-12;3;-3;20;3390;-2416;128;0.1094183;-0.08864266;0.6398892;0.7554548;0;14;2;-52;3976;776;4;0.5804383;-0.533241;0.4196676;0.4501385;0;-1;2;170;4058;124;16;0.6260388;-0.7662923;-0.07756232;-0.1218837;-2;2;1;187;4181;922;2;0.5180055;-0.4293629;-0.5069252;-0.5388364;-3;22;-6;-372;4084;130;8;0.6481994;-0.7557811;0.0166205;0.09141274;1;4;0;-417;4187;795;0.3912109;2.818263;-0.1679735;0.3971677;3.361109;-0.2218668;0.4024015;3.83807;-0.2712518;0.4359578;4.442807;0.1430306;0.1937675;4.747418;0.2956857;-0.1554011;4.615173;0.2686374;-0.7198375;5.100136;-0.283224;-1.012919;5.909097;-0.6800637;0.7133123;4.718593;0.2956865;0.9934013;4.551433;0.2686393;1.368866;5.142482;-0.393147;1.65344;5.977426;-0.7390867;0.07895041;2.775651;-0.1710957;0.03081783;1.317101;-0.2768089;0;0;0;0.07895041;2.775651;-0.1710957;0.03081783;1.317101;-0.2768089;0;0;0
426010.5176;NotLabelled;16384;0.8721793;0.33241;0.07756232;0.3504155;9;0;7;2864;-2352;2212;65536;0.8109403;0.4916897;-0.09279778;0.3033241;-11;-2;-6;-1746;-3641;-1067;8192;0.8429431;0.4265928;-0.2465374;-0.2160665;3;-11;6;-2444;-2630;2108;32768;0.775716;0.5955678;-0.1523546;-0.1426593;0;-4;-10;1567;-3698;-824;256;-0.1024931;0.1371191;-0.4584487;-0.872077;-13;4;-4;-30;3382;-2550;128;0.1108033;-0.0900277;0.6398892;0.755089;3;6;2;-64;4010;664;4;0.5804383;-0.533241;0.4196676;0.4501385;0;0;3;88;3902;114;16;0.6246537;-0.7672006;-0.07756232;-0.1232687;0;3;1;117;4149;922;2;0.5166205;-0.4265928;-0.5083103;-0.5410569;-3;23;-6;-538;4010;198;8;0.6481994;-0.7557811;0.0166205;0.09141274;3;4;0;-349;4219;861;0.3907723;2.818265;-0.1682041;0.3967286;3.361077;-0.2224364;0.4019621;3.838007;-0.2721193;0.4344768;4.444098;0.1402634;0.1917526;4.748739;0.2920071;-0.1571768;4.615768;0.2654335;-0.7198666;5.102137;-0.2869762;-1.011826;5.911748;-0.6833149;0.7113498;4.720868;0.2920077;0.9917408;4.554139;0.2654346;1.366961;5.145221;-0.3964622;1.649242;5.980846;-0.7426326;0.07851169;2.77565;-0.1712976;0.03010834;1.317101;-0.2768871;0;0;0;0.07851169;2.77565;-0.1712976;0.03010834;1.317101;-0.2768871;0;0;0
426031.5937;NotLabelled;16384;0.8728564;0.33241;0.07617728;0.3490305;7;5;7;2832;-2312;2130;65536;0.811619;0.4903047;-0.09418282;0.3033241;-11;-2;-5;-1678;-3567;-1423;8192;0.8439962;0.4252077;-0.2465374;-0.2146814;3;-11;5;-2274;-2476;2158;32768;0.7751668;0.5955678;-0.1551246;-0.1426593;0;-6;-13;1627;-3542;-1054;256;-0.1024931;0.1385041;-0.4598338;-0.8711284;-14;4;-1;40;3444;-2506;128;0.1108033;-0.0900277;0.6398892;0.755089;6;3;2;-46;4096;458;4;0.5804383;-0.533241;0.4196676;0.4501385;0;-4;3;6;4086;78;16;0.6246537;-0.7670593;-0.07894737;-0.1232687;0;5;1;163;4135;992;2;0.5166205;-0.4238227;-0.5096953;-0.5419302;-3;21;-7;-566;3974;216;8;0.6481994;-0.7557811;0.0166205;0.09141274;4;2;0;-307;4211;777;0.3927585;2.817226;-0.1729239;0.3987145;3.360005;-0.2274908;0.4039477;3.836905;-0.2774675;0.4362086;4.44428;0.1330402;0.1933479;4.74926;0.2838843;-0.1555155;4.616023;0.2577781;-0.714115;5.102432;-0.2987311;-1.003937;5.911351;-0.6980426;0.7129596;4.721663;0.2838851;0.9934348;4.555002;0.2577796;1.372391;5.142584;-0.4051037;1.658162;5.976848;-0.7516966;0.08049793;2.77461;-0.1759891;0.03208623;1.31606;-0.2815747;0;0;0;0.08049793;2.77461;-0.1759891;0.03208623;1.31606;-0.2815747;0;0;0
426052.5363;NotLabelled;16384;0.8728564;0.33241;0.07617728;0.3490305;9;2;6;2760;-2438;2138;65536;0.8122923;0.4889196;-0.09556787;0.3033241;-10;0;-2;-1728;-3669;-1505;8192;0.844287;0.4238227;-0.2479224;-0.2146814;2;-6;5;-2136;-2548;2238;32768;0.775695;0.5941828;-0.1565097;-0.1440443;0;-5;-13;1831;-3500;-1154;256;-0.1024931;0.1385041;-0.4612188;-0.8703959;-18;3;-1;124;3306;-2326;128;0.1108033;-0.09141274;0.6412742;0.7537464;9;6;1;-82;4080;618;4;0.5804383;-0.533241;0.4196676;0.4501385;0;-8;3;-70;4040;98;16;0.6246537;-0.7668354;-0.07894737;-0.1246537;0;3;1;161;4141;946;2;0.5152354;-0.4224377;-0.5110803;-0.5430246;-2;17;-5;-572;3966;210;8;0.6495845;-0.7545909;0.0166205;0.09141274;4;2;0;-335;4197;647;0.3900706;2.817448;-0.1723303;0.3960266;3.360227;-0.2268971;0.4012598;3.837126;-0.2768738;0.432462;4.445843;0.1317251;0.1890612;4.750843;0.2816541;-0.159559;4.61688;0.256023;-0.7169037;5.104799;-0.3004212;-1.005578;5.913017;-0.7019795;0.7087231;4.724209;0.2816554;0.9895022;4.557985;0.2560255;1.364851;5.144828;-0.4095596;1.653962;5.977723;-0.7566745;0.07781003;2.774831;-0.1753955;0.02912878;1.316282;-0.2808572;0;0;0;0.07781003;2.774831;-0.1753955;0.02912878;1.316282;-0.2808572;0;0;0
426072.6338;NotLabelled;16384;0.8735024;0.3310249;0.07479224;0.3490305;9;3;2;2954;-2272;2194;65536;0.8122923;0.4889196;-0.09556787;0.3033241;-9;-1;-2;-1762;-3595;-1503;8192;0.8442303;0.4238227;-0.2493075;-0.2132964;3;-7;6;-2380;-2528;2260;32768;0.7751309;0.5941828;-0.1592798;-0.1440443;1;-3;-11;1889;-3550;-1106;256;-0.1038781;0.1385041;-0.4653739;-0.8680167;-13;5;0;-44;3380;-2386;128;0.1108033;-0.09141274;0.6440443;0.7513809;10;2;2;-70;3996;658;4;0.5788099;-0.5304709;0.4224377;0.4529086;0;-13;3;206;3970;178;16;0.6246537;-0.7668354;-0.07894737;-0.1246537;2;-2;0;231;4109;864;2;0.5152354;-0.4210526;-0.5110803;-0.5440993;-1;13;-5;-516;3960;208;8;0.6495845;-0.7545909;0.0166205;0.09141274;4;5;-1;-415;4181;611;0.3929662;2.817376;-0.1725813;0.3989201;3.359954;-0.2291104;0.4041511;3.83667;-0.2808114;0.4351505;4.446662;0.1258972;0.1916317;4.751993;0.2749574;-0.1569245;4.617765;0.2498453;-0.7144925;5.107693;-0.3046077;-1.00108;5.9152;-0.7090795;0.7113078;4.725636;0.2748837;0.992168;4.559484;0.2496821;1.368647;5.146138;-0.4154316;1.660085;5.976807;-0.7659164;0.08070547;2.774749;-0.17548;0.03200098;1.316199;-0.2809302;0;0;0;0.08070547;2.774749;-0.17548;0.03200098;1.316199;-0.2809302;0;0;0
426094.6163;NotLabelled;16384;0.8745778;0.3296399;0.07479224;0.3476454;7;13;0;2938;-2384;2318;65536;0.8136397;0.4875346;-0.09556787;0.301939;-9;0;-2;-1682;-3677;-1581;8192;0.8445143;0.4224377;-0.2506925;-0.2132964;4;-10;8;-2522;-2558;2374;32768;0.7745863;0.5941828;-0.1606648;-0.1454294;1;-3;-9;1919;-3548;-1042;256;-0.1052632;0.1398892;-0.466759;-0.8668833;-10;4;0;-22;3620;-2332;128;0.1108033;-0.09279778;0.6440443;0.7512112;11;4;1;-136;4074;564;4;0.5789921;-0.5290859;0.4224377;0.4542936;-1;-13;4;344;3972;288;16;0.6260388;-0.7658466;-0.07756232;-0.1246537;1;-4;0;221;4121;836;2;0.5152354;-0.4182825;-0.5110803;-0.5462317;-1;5;-6;-566;3944;186;8;0.6509695;-0.7535925;0.01523546;0.0900277;3;3;-1;-373;4213;593;0.39524;2.817236;-0.1720272;0.4011891;3.359392;-0.2324716;0.406416;3.835722;-0.2876125;0.4380301;4.449678;0.1130387;0.1947992;4.756654;0.2591622;-0.1538687;4.622453;0.235502;-0.7098135;5.109424;-0.3231698;-0.9969861;5.91693;-0.7272258;0.7144548;4.7299;0.2591631;0.9951788;4.563291;0.2355039;1.372501;5.14758;-0.4312121;1.667664;5.976856;-0.7818739;0.08297908;2.77459;-0.1745933;0.03159459;1.3162;-0.2809755;0;0;0;0.08297908;2.77459;-0.1745933;0.03159459;1.3162;-0.2809755;0;0;0
426115.5509;NotLabelled;16384;0.8755544;0.3296399;0.07617728;0.3448753;5;15;0;2616;-2280;2304;65536;0.8148165;0.4861496;-0.09695291;0.300554;-9;4;0;-1612;-3517;-1543;8192;0.8451421;0.4210526;-0.2520775;-0.2119114;3;-17;8;-2410;-2570;2410;32768;0.7742977;0.5941828;-0.1620499;-0.1454294;0;-5;-8;1775;-3670;-1006;256;-0.1052632;0.1398892;-0.468144;-0.8661362;-11;7;0;-236;3418;-2352;128;0.1121884;-0.09279778;0.6454294;0.7498155;9;1;0;-142;4178;574;4;0.5781549;-0.5277008;0.4238227;0.4556787;0;-9;7;440;3944;188;16;0.6260388;-0.7660707;-0.07756232;-0.1232687;1;-3;0;157;4123;804;2;0.5152354;-0.4168975;-0.5110803;-0.5472895;-3;3;-6;-742;3968;236;8;0.6509695;-0.7535925;0.01523546;0.0900277;2;0;-1;-319;4237;581;0.3991407;2.817613;-0.164485;0.4050899;3.359768;-0.2249364;0.4103167;3.836097;-0.2800834;0.4423097;4.451537;0.1182549;0.1992578;4.759179;0.2632726;-0.1494804;4.625061;0.2401838;-0.7068533;5.110636;-0.3182788;-0.9942997;5.917003;-0.7244085;0.7189003;4.732169;0.2632732;0.9995377;4.565335;0.2401847;1.37545;5.147023;-0.4295942;1.672748;5.974886;-0.7817898;0.08687982;2.774967;-0.1670504;0.03369194;1.316928;-0.2772958;0;0;0;0.08687982;2.774967;-0.1670504;0.03369194;1.316928;-0.2772958;0;0;0
426137.6188;NotLabelled;16384;0.8780945;0.3268698;0.07756232;0.3407202;7;10;-3;2370;-2256;2214;65536;0.8171346;0.4833795;-0.09556787;0.299169;-6;-4;-2;-1602;-3311;-1631;8192;0.8462989;0.4182825;-0.2562327;-0.2077562;0;-20;8;-2256;-2628;2326;32768;0.7755367;0.5914127;-0.166205;-0.1454294;0;-17;-7;1983;-3612;-1312;256;-0.1052632;0.1398892;-0.4695291;-0.8653861;-13;3;0;-2;3334;-2350;128;0.1121884;-0.09418282;0.6468144;0.748448;10;1;0;-4;4086;614;4;0.5783241;-0.5263157;0.4238227;0.4570637;0;-7;8;460;3916;132;16;0.6260388;-0.7662097;-0.07617728;-0.1232687;0;-3;0;191;4155;752;2;0.5152354;-0.4155124;-0.5110803;-0.5483418;-3;1;-6;-772;3958;236;8;0.6523545;-0.7522268;0.01523546;0.09141274;2;-3;-2;-327;4181;505;0.3974389;2.817632;-0.164149;0.4033852;3.359527;-0.2268925;0.4086094;3.835618;-0.2840533;0.4403297;4.452306;0.112371;0.1971328;4.760263;0.2564737;-0.1515357;4.625884;0.2338563;-0.709376;5.111553;-0.324058;-0.9933987;5.917408;-0.7336015;0.7167901;4.733538;0.2564747;0.997515;4.566786;0.2338583;1.374007;5.146821;-0.4370271;1.673394;5.973979;-0.7891126;0.08517782;2.774974;-0.1665197;0.03074034;1.317016;-0.2772179;0;0;0;0.08517782;2.774974;-0.1665197;0.03074034;1.317016;-0.2772179;0;0;0
426157.7069;NotLabelled;16384;0.8786306;0.3268698;0.07756232;0.3393352;5;10;-7;2318;-2094;2294;65536;0.8169714;0.4833795;-0.09695291;0.299169;-8;-5;-7;-1656;-3331;-1553;8192;0.8468145;0.4168975;-0.2590028;-0.2049861;0;-17;7;-2162;-2492;2366;32768;0.7751966;0.5914127;-0.1689751;-0.1440443;0;-16;-3;1887;-3610;-1162;256;-0.1052632;0.1398892;-0.4709141;-0.8646332;-15;1;0;-174;3288;-2338;128;0.1121884;-0.09418282;0.6481994;0.7472488;13;5;0;58;4018;656;4;0.5794989;-0.5249307;0.4224377;0.4584487;-1;-7;10;414;3936;42;16;0.6260388;-0.7662097;-0.07617728;-0.1232687;-1;-4;0;173;4163;662;2;0.5166205;-0.4155124;-0.5096953;-0.5483278;-1;-2;-6;-698;3878;196;8;0.6523545;-0.7522268;0.01523546;0.09141274;1;-2;-1;-451;4215;551;0.401027;2.81705;-0.1611075;0.4069708;3.358713;-0.2258203;0.4121928;3.834594;-0.2847113;0.4436962;4.452526;0.1097888;0.2003746;4.760796;0.2530099;-0.1482272;4.626156;0.2309159;-0.7058344;5.110613;-0.3282841;-0.9907997;5.913274;-0.7434075;0.7200465;4.734353;0.2529353;1.000856;4.567686;0.2307504;1.379547;5.146912;-0.4395966;1.682992;5.970246;-0.7971236;0.08876582;2.774384;-0.1633106;0.03291627;1.316791;-0.278038;0;0;0;0.08876582;2.774384;-0.1633106;0.03291627;1.316791;-0.278038;0;0;0
426177.5994;NotLabelled;16384;0.8795548;0.3254848;0.07894737;0.3379501;2;14;-9;2334;-2038;2456;65536;0.817624;0.4819945;-0.09833795;0.299169;-10;0;-10;-1644;-3405;-1545;8192;0.8467239;0.4168975;-0.2603878;-0.2036011;0;-17;5;-2188;-2424;2198;32768;0.775899;0.5900277;-0.1717452;-0.1426593;0;-8;-5;1677;-3396;-1154;256;-0.1052632;0.1398892;-0.4736842;-0.8631188;-15;3;0;-80;3354;-2234;128;0.1121884;-0.09418282;0.6495845;0.7460451;10;0;0;82;3998;652;4;0.5796544;-0.5235457;0.4224377;0.4598338;0;-6;12;514;3966;22;16;0.6260388;-0.7662097;-0.07617728;-0.1232687;-2;0;0;153;4119;658;2;0.5180055;-0.4141274;-0.5096953;-0.5480688;-1;-5;-6;-558;3898;214;8;0.6523545;-0.7522268;0.01523546;0.09141274;0;0;-1;-489;4203;463;0.4025677;2.816377;-0.1536424;0.4085089;3.357802;-0.2203201;0.4137285;3.833466;-0.2809373;0.444898;4.452638;0.1116421;0.2014095;4.761217;0.2539085;-0.1471188;4.626319;0.2322369;-0.7037901;5.109262;-0.3291997;-0.9865659;5.912559;-0.7445905;0.7210954;4.735059;0.2539094;1.001996;4.568477;0.2322389;1.383031;5.143678;-0.4402421;1.689368;5.966313;-0.796917;0.09030667;2.773704;-0.1556784;0.03293552;1.316791;-0.2780362;0;0;0;0.09030667;2.773704;-0.1556784;0.03293552;1.316791;-0.2780362;0;0;0
426198.6042;NotLabelled;16384;0.8808722;0.3240997;0.08171745;0.33518;-1;16;-11;2472;-2176;2378;65536;0.8192787;0.4806094;-0.09972299;0.2963989;-9;8;-9;-1426;-3281;-1967;8192;0.8473093;0.4155124;-0.2617728;-0.2022161;0;-15;5;-2000;-2558;2256;32768;0.7766429;0.5886427;-0.1731302;-0.1426593;1;-6;-5;1699;-3470;-1224;256;-0.1066482;0.1398892;-0.4764543;-0.8614224;-13;3;2;-2;3280;-2152;128;0.1121884;-0.09418282;0.6509695;0.7448369;10;0;0;-24;3842;426;4;0.5807108;-0.5221606;0.4196676;0.4626039;0;-3;15;480;3962;148;16;0.6260388;-0.7662097;-0.07617728;-0.1232687;-4;-1;0;133;4173;652;2;0.5193906;-0.4155124;-0.5083103;-0.546995;1;-6;-7;-548;4006;146;8;0.6523545;-0.7522268;0.01523546;0.09141274;0;1;0;-485;4201;511;0.4039286;2.815986;-0.149804;0.4098461;3.357165;-0.2184618;0.4150632;3.832606;-0.2808075;0.4457285;4.454239;0.1079018;0.2019649;4.763431;0.2483577;-0.1464248;4.628019;0.2276825;-0.7045577;5.110635;-0.3325836;-0.9852773;5.913169;-0.7508341;0.7216792;4.737842;0.248286;1.002752;4.571435;0.2275243;1.384853;5.149147;-0.442195;1.692867;5.970227;-0.8010015;0.09164634;2.773306;-0.1516852;0.03285497;1.316791;-0.2780451;0;0;0;0.09164634;2.773306;-0.1516852;0.03285497;1.316791;-0.2780451;0;0;0
426218.6295;NotLabelled;16384;0.8811368;0.3240997;0.08448754;0.333795;0;12;-8;2596;-2118;2314;65536;0.8204194;0.4792244;-0.101108;0.2950138;-6;10;-3;-1382;-3327;-1699;8192;0.8475368;0.4155124;-0.2631579;-0.199446;-1;-10;6;-2056;-2466;2282;32768;0.776896;0.5886427;-0.1731302;-0.1412742;0;-5;-4;1603;-3424;-1058;256;-0.1066482;0.1398892;-0.4778393;-0.8606548;-10;2;2;36;3246;-2232;128;0.1121884;-0.09418282;0.6523545;0.7436242;10;0;-1;-164;3900;552;4;0.5819796;-0.5193906;0.4182825;0.4653739;-1;-5;17;544;3866;120;16;0.6260388;-0.7662097;-0.07617728;-0.1232687;-7;-1;0;127;4115;662;2;0.5207756;-0.4141274;-0.5055401;-0.5492908;0;1;-11;-588;4078;262;8;0.6523545;-0.7522536;0.01385042;0.09141274;-3;2;0;-495;4205;503;0.40207;2.814932;-0.1377406;0.4080057;3.355857;-0.2083551;0.4132203;3.831068;-0.2724309;0.4447457;4.455308;0.1120081;0.2013994;4.76576;0.2503923;-0.1471642;4.630648;0.2307138;-0.7082091;5.10844;-0.3307772;-0.9847881;5.910596;-0.7524961;0.7210812;4.739519;0.2503929;1.001941;4.572621;0.2307151;1.383937;5.146248;-0.4425648;1.692486;5.965746;-0.8045134;0.08980873;2.772245;-0.1394411;0.03246384;1.316791;-0.278091;0;0;0;0.08980873;2.772245;-0.1394411;0.03246384;1.316791;-0.278091;0;0;0
426240.5327;NotLabelled;16384;0.8829246;0.3213296;0.08725762;0.3310249;2;11;-7;2460;-2034;2270;65536;0.8223858;0.4778393;-0.09972299;0.2922437;-7;0;1;-1690;-3425;-1445;8192;0.8481081;0.4141274;-0.2645429;-0.1980609;0;-11;5;-2194;-2450;2226;32768;0.776586;0.5886427;-0.1745152;-0.1412742;-4;-6;1;1999;-3464;-804;256;-0.1080332;0.1398892;-0.4792244;-0.8597115;-9;1;2;60;3394;-2206;128;0.1135734;-0.09418282;0.6551247;0.7409739;14;0;-1;-106;3980;394;4;0.5821048;-0.5180055;0.4182825;0.466759;0;-5;19;624;3958;70;16;0.6246537;-0.7673393;-0.07617728;-0.1232687;-9;-1;0;125;4113;660;2;0.5221606;-0.4127424;-0.5055401;-0.5490184;-2;6;-12;-642;4040;276;8;0.6523545;-0.7522536;0.01385042;0.09141274;-3;2;1;-517;4239;535;0.4049376;2.813674;-0.126364;0.4108704;3.354339;-0.1989504;0.4160824;3.829313;-0.2647585;0.447323;4.454766;0.1177275;0.2038266;4.765512;0.2551816;-0.1446655;4.630147;0.235979;-0.7090479;5.106594;-0.3233071;-0.9822054;5.908146;-0.7483883;0.7235231;4.739558;0.2551823;1.004472;4.572755;0.2359805;1.386974;5.147424;-0.4361227;1.694122;5.96766;-0.7975938;0.09267618;2.770982;-0.1278965;0.03244283;1.316791;-0.2780942;0;0;0;0.09267618;2.770982;-0.1278965;0.03244283;1.316791;-0.2780942;0;0;0
426260.7193;NotLabelled;16384;0.8833048;0.3213296;0.08864266;0.3296399;1;10;-8;2452;-2218;2434;65536;0.8223858;0.4778393;-0.09972299;0.2922437;-6;0;1;-1526;-3483;-1617;8192;0.8486723;0.4127424;-0.265928;-0.1966759;4;-12;4;-2136;-2488;2132;32768;0.776586;0.5886427;-0.1745152;-0.1412742;-5;-6;2;1719;-3364;-940;256;-0.1080332;0.1398892;-0.4806094;-0.858938;-11;1;4;30;3478;-1930;128;0.1135734;-0.09279778;0.6565097;0.7399221;12;0;-2;-168;3930;484;4;0.5821016;-0.5166205;0.4168975;0.4695291;0;-6;19;494;3938;104;16;0.6246537;-0.7674755;-0.07479224;-0.1232687;-11;-2;0;253;4165;720;2;0.5221606;-0.4113573;-0.5041551;-0.5513266;-4;6;-13;-668;4030;312;8;0.6509695;-0.7536191;0.01385042;0.0900277;-4;1;1;-479;4105;597;0.4051522;2.812254;-0.1275033;0.4110785;3.352326;-0.2043744;0.4162847;3.826763;-0.2739465;0.448722;4.453586;0.1061896;0.2058105;4.765283;0.2425251;-0.1429275;4.630473;0.2238948;-0.7103393;5.102191;-0.336332;-0.9837652;5.902074;-0.7643768;0.7254593;4.738395;0.2425254;1.006105;4.571018;0.2238957;1.388204;5.144044;-0.4498369;1.696948;5.963563;-0.8115733;0.09289069;2.769551;-0.1286701;0.03104227;1.315833;-0.2827471;0;0;0;0.09289069;2.769551;-0.1286701;0.03104227;1.315833;-0.2827471;0;0;0
426282.548;NotLabelled;16384;0.8836804;0.3213296;0.0900277;0.3282548;3;12;-5;2762;-2132;2318;65536;0.8233557;0.4764543;-0.09833795;0.2922437;-5;8;8;-1504;-3419;-1567;8192;0.8489096;0.4113573;-0.267313;-0.1966759;6;-9;4;-2238;-2376;2358;32768;0.7778842;0.5872576;-0.1745152;-0.1398892;-7;-3;1;1665;-3462;-720;256;-0.1080332;0.1385041;-0.4819945;-0.8583862;-11;0;5;60;3472;-2080;128;0.1135734;-0.09279778;0.6565097;0.7399221;8;0;-3;-36;3932;572;4;0.5833015;-0.5138504;0.4155124;0.4722992;-1;-9;21;498;3888;158;16;0.6232687;-0.7688216;-0.07479224;-0.1218837;-12;-3;0;251;4147;666;2;0.5235457;-0.4085872;-0.5041551;-0.5520725;-4;7;-13;-726;3996;394;8;0.6509695;-0.7536191;0.01385042;0.0900277;-4;1;2;-457;4163;549;0.405609;2.811151;-0.1197773;0.4115322;3.350938;-0.1986214;0.4167354;3.825118;-0.2699268;0.448885;4.453143;0.1082447;0.2058222;4.765129;0.2436453;-0.1428439;4.630067;0.2254923;-0.7114749;5.10139;-0.3338313;-0.9849339;5.901273;-0.7618552;0.7254859;4.73853;0.2436458;1.006221;4.571251;0.2254934;1.388974;5.142633;-0.449264;1.69769;5.962152;-0.8110242;0.09334746;2.768443;-0.1207756;0.0332495;1.315603;-0.2835676;0;0;0;0.09334746;2.768443;-0.1207756;0.0332495;1.315603;-0.2835676;0;0;0
426303.561;NotLabelled;16384;0.8845537;0.3199446;0.09141274;0.3268698;5;16;0;2606;-2070;2352;65536;0.8248094;0.4750692;-0.09695291;0.2908587;-4;14;13;-1636;-3293;-1469;8192;0.8498988;0.4099723;-0.267313;-0.1952908;8;-7;3;-2244;-2392;2332;32768;0.7778842;0.5872576;-0.1745152;-0.1398892;-10;-4;1;1685;-3434;-816;256;-0.1094183;0.1371191;-0.4847645;-0.8568718;-12;0;5;38;3454;-2090;128;0.1135734;-0.09141274;0.6592798;0.7376279;14;-3;-2;-76;4028;188;4;0.5855303;-0.5096953;0.4127424;0.4764543;0;-7;24;568;3912;-34;16;0.6204986;-0.771059;-0.07479224;-0.1218837;-15;4;0;123;4089;824;2;0.5249307;-0.4072022;-0.5041551;-0.5517806;-3;10;-15;-746;4002;362;8;0.6509695;-0.7536434;0.01246537;0.0900277;-5;1;2;-427;4251;649;0.4048077;2.80882;-0.1126047;0.410731;3.348607;-0.1914488;0.4159343;3.822787;-0.2627543;0.4486652;4.451948;0.1134743;0.2058828;4.764551;0.2479507;-0.1428982;4.629724;0.2302691;-0.7115456;5.100654;-0.3293683;-0.9861647;5.898487;-0.7604644;0.7255243;4.737521;0.2479515;1.006118;4.569954;0.230271;1.391854;5.138725;-0.4449936;1.698975;5.958109;-0.8084141;0.09254618;2.766112;-0.1136029;0.03000166;1.314721;-0.2879865;0;0;0;0.09254618;2.766112;-0.1136029;0.03000166;1.314721;-0.2879865;0;0;0
426324.5499;NotLabelled;16384;0.8855638;0.3185596;0.09141274;0.3254848;4;15;0;2316;-2102;2350;65536;0.8252872;0.4750692;-0.09279778;0.2908587;-5;13;14;-1702;-3315;-1515;8192;0.8505655;0.4085872;-0.267313;-0.1952908;8;-9;2;-2244;-2614;2218;32768;0.778928;0.5858725;-0.1745152;-0.1398892;-11;-8;0;1883;-3562;-1000;256;-0.1094183;0.1357341;-0.4861496;-0.8563074;-14;0;5;-18;3538;-1996;128;0.1135734;-0.0900277;0.6606648;0.7365583;12;-1;-2;0;3944;366;4;0.5866481;-0.5069252;0.4113573;0.4792244;0;-7;27;508;3932;58;16;0.6177285;-0.7730604;-0.07479224;-0.1232687;-17;1;-1;253;4059;816;2;0.5249307;-0.4016621;-0.5041551;-0.5558264;-3;10;-16;-690;3952;226;8;0.6495845;-0.7550014;0.01246537;0.08864266;-5;2;2;-459;4099;693;0.4071541;2.804252;-0.1031658;0.4130708;3.343446;-0.1859688;0.4182682;3.81709;-0.2607518;0.4527908;4.448722;0.1111506;0.21088;4.762875;0.2435711;-0.1382602;4.628846;0.2269367;-0.7073591;5.097417;-0.3342204;-0.982524;5.893375;-0.7684218;0.7304485;4.73448;0.2435719;1.010595;4.56606;0.2269384;1.395343;5.134051;-0.4495446;1.702776;5.953435;-0.8127021;0.09489246;2.761538;-0.1038255;0.02829426;1.312725;-0.2971205;0;0;0;0.09489246;2.761538;-0.1038255;0.02829426;1.312725;-0.2971205;0;0;0
426344.6134;NotLabelled;16384;0.8869361;0.3185596;0.09279778;0.3213296;4;9;-3;2574;-2228;2380;65536;0.827817;0.4722992;-0.08864266;0.2894737;-8;9;13;-1508;-3419;-1371;8192;0.8512295;0.4072022;-0.267313;-0.1952908;11;-7;2;-2190;-2596;2252;32768;0.7799678;0.5844875;-0.1745152;-0.1398892;-12;-8;0;1687;-3524;-944;256;-0.1094183;0.1357341;-0.4889196;-0.8547289;-16;0;5;-34;3548;-2070;128;0.1135734;-0.0900277;0.6620498;0.7353137;9;0;-2;-56;3988;378;4;0.5886981;-0.5041551;0.4085872;0.4819945;-3;-10;29;450;3948;136;16;0.6163435;-0.7742977;-0.0734072;-0.1232687;-19;0;-1;295;4121;820;2;0.5263157;-0.400277;-0.5027701;-0.5567695;-1;10;-17;-730;3942;266;8;0.6481994;-0.7561908;0.01246537;0.08864266;-5;2;3;-437;4195;685;0.4111599;2.800426;-0.1010031;0.4170732;3.339313;-0.1857862;0.4222675;3.812679;-0.2623085;0.4573873;4.445428;0.1076345;0.2157645;4.760192;0.2391245;-0.1334915;4.626408;0.2229632;-0.7006091;5.093537;-0.341392;-0.9812899;5.887635;-0.7754687;0.7353091;4.731359;0.2391251;1.01531;4.562651;0.2229648;1.400522;5.128891;-0.4547216;1.707742;5.947391;-0.820044;0.09889822;2.75771;-0.1014934;0.03002335;1.310582;-0.3062706;0;0;0;0.09889822;2.75771;-0.1014934;0.03002335;1.310582;-0.3062706;0;0;0
426365.3878;NotLabelled;16384;0.8877868;0.3171745;0.09418282;0.3199446;6;15;-4;2712;-2104;2424;65536;0.8288974;0.4709141;-0.08587258;0.2894737;-11;16;16;-1598;-3407;-1391;8192;0.8528652;0.4044321;-0.267313;-0.1939058;13;-10;0;-2356;-2500;2354;32768;0.7827544;0.5803324;-0.1759003;-0.1398892;-13;-3;-3;1807;-3464;-1032;256;-0.1108033;0.134349;-0.4916897;-0.8531789;-18;0;6;22;3550;-2086;128;0.1135734;-0.0900277;0.6634349;0.7340642;10;-2;-2;-54;3994;250;4;0.5888251;-0.5;0.4085872;0.4861496;-3;-14;31;456;3840;132;16;0.6135734;-0.7764946;-0.0734072;-0.1232687;-19;0;-2;149;4107;882;2;0.5263157;-0.3975069;-0.5027701;-0.5587506;-1;12;-19;-782;4108;210;8;0.6481994;-0.7563519;0.01246537;0.08725762;-5;4;3;-459;4207;683;0.4150726;2.796834;-0.0917206;0.4209825;3.335405;-0.1784913;0.4261737;3.808486;-0.2567596;0.4607236;4.443583;0.1091913;0.2187995;4.758901;0.2387866;-0.1303146;4.624635;0.2235874;-0.6973335;5.092451;-0.3402982;-0.983371;5.881958;-0.7792265;0.7383754;4.730639;0.2387874;1.018556;4.56214;0.2235889;1.402856;5.126624;-0.4560788;1.70895;5.944231;-0.8243336;0.102811;2.754117;-0.09204064;0.03122014;1.309292;-0.3116186;0;0;0;0.102811;2.754117;-0.09204064;0.03122014;1.309292;-0.3116186;0;0;0
426385.511;NotLabelled;16384;0.888778;0.3157895;0.09418282;0.3185596;9;22;-4;2628;-2164;2318;65536;0.8304465;0.4695291;-0.08310249;0.2880886;-12;16;16;-1710;-3317;-1485;8192;0.8541732;0.4016621;-0.267313;-0.1939058;15;-8;0;-2072;-2316;2384;32768;0.7837794;0.5789474;-0.1759003;-0.1398892;-15;-5;-2;1833;-3342;-1032;256;-0.1108033;0.132964;-0.4944598;-0.8517938;-21;-1;7;70;3570;-2022;128;0.1135734;-0.08864266;0.666205;0.7317202;15;-4;-2;-48;4106;128;4;0.5898359;-0.4972299;0.4072022;0.4889196;-2;-14;33;548;3848;8;16;0.6108033;-0.7786755;-0.0734072;-0.1232687;-20;2;-2;89;4059;1038;2;0.5277008;-0.3947368;-0.501385;-0.5606494;-2;12;-20;-794;3898;202;8;0.6468144;-0.7575367;0.01246537;0.08725762;-5;0;3;-393;4171;693;0.4173147;2.792686;-0.08936066;0.423221;3.330931;-0.1781209;0.428409;3.80372;-0.2581369;0.4647771;4.441224;0.1034265;0.2237363;4.758063;0.2309416;-0.1257367;4.624618;0.2167964;-0.6935169;5.090072;-0.348276;-0.9835541;5.876851;-0.7894728;0.7432358;4.728431;0.2309421;1.022965;4.559093;0.2167975;1.405047;5.121002;-0.4662437;1.71041;5.935165;-0.8426483;0.105053;2.749968;-0.08951017;0.0295681;1.307147;-0.3206566;0;0;0;0.105053;2.749968;-0.08951017;0.0295681;1.307147;-0.3206566;0;0;0
426405.5194;NotLabelled;16384;0.8904492;0.3144044;0.09695291;0.3144044;9;22;-8;2214;-2114;2378;65536;0.8327568;0.466759;-0.08033241;0.2867036;-12;11;13;-1622;-3201;-1629;8192;0.8554704;0.398892;-0.267313;-0.1939058;14;-5;0;-2230;-2360;2350;32768;0.7848005;0.5775623;-0.1759003;-0.1398892;-15;-3;-3;1673;-3346;-1224;256;-0.1108033;0.1315789;-0.4972299;-0.8503952;-23;-2;8;108;3560;-1940;128;0.1135734;-0.08725762;0.66759;0.7306235;15;-7;-2;-62;4082;256;4;0.5926991;-0.4903047;0.4030471;0.4958449;-4;-13;34;472;3944;116;16;0.6066482;-0.781917;-0.0734072;-0.1232687;-19;0;-3;255;4025;1052;2;0.5277008;-0.3919668;-0.5;-0.5638208;-1;8;-21;-790;3842;254;8;0.6468144;-0.7575367;0.01246537;0.08725762;-5;0;2;-355;4175;681;0.4182751;2.788508;-0.08733868;0.4241741;3.326083;-0.1800807;0.4293555;3.798265;-0.2635942;0.466056;4.438008;0.09396005;0.2251616;4.755716;0.2195762;-0.1243588;4.622296;0.2063911;-0.6898458;5.086293;-0.3621689;-0.9820126;5.870536;-0.8064642;0.7446516;4.725918;0.2195768;1.024322;4.556405;0.2063924;1.406384;5.11476;-0.4795699;1.711543;5.927992;-0.8581433;0.1060135;2.74579;-0.08714665;0.02841143;1.304942;-0.3296159;0;0;0;0.1060135;2.74579;-0.08714665;0.02841143;1.304942;-0.3296159;0;0;0
426426.5213;NotLabelled;16384;0.8917581;0.3116343;0.09833795;0.3130194;9;14;-10;2170;-2210;2462;65536;0.8345654;0.4639889;-0.07756232;0.2867036;-14;7;13;-1506;-3325;-1687;8192;0.8561148;0.3975069;-0.267313;-0.1939058;16;-8;0;-2244;-2404;2406;32768;0.7865841;0.5747922;-0.1759003;-0.1412742;-15;-1;-4;1661;-3360;-1216;256;-0.1121884;0.1288089;-0.5027701;-0.847375;-20;-1;7;130;3338;-2060;128;0.1121884;-0.08587258;0.6717451;0.7271851;15;-6;-2;-62;3876;310;4;0.5935707;-0.4861496;0.4016621;0.5;-6;-19;35;470;3934;80;16;0.6038781;-0.7840583;-0.0734072;-0.1232687;-19;-3;-3;161;4067;1182;2;0.5304709;-0.3878116;-0.4972299;-0.5665379;0;2;-22;-840;3942;322;8;0.6454294;-0.7588751;0.01246537;0.08587258;-6;2;4;-429;4143;693;0.4220895;2.779469;-0.07131997;0.4279845;3.316695;-0.166054;0.4331625;3.788566;-0.2513171;0.4702035;4.430525;0.1022054;0.2294595;4.749095;0.2259135;-0.1201099;4.615711;0.2136909;-0.6862656;5.077508;-0.355994;-0.9805648;5.857711;-0.805958;0.7489398;4.719124;0.2259141;1.02855;4.549439;0.2136922;1.410134;5.104216;-0.4754311;1.7151;5.916508;-0.856172;0.1098278;2.736752;-0.07095698;0.0263813;1.301525;-0.343022;0;0;0;0.1098278;2.736752;-0.07095698;0.0263813;1.301525;-0.343022;0;0;0
426447.5133;NotLabelled;16384;0.8930544;0.3102493;0.09972299;0.3102493;11;17;-10;2374;-2112;2494;65536;0.8359354;0.4626039;-0.07617728;0.2853186;-15;8;10;-1646;-3331;-1649;8192;0.8577076;0.3947368;-0.267313;-0.1925208;16;-9;0;-2104;-2232;2500;32768;0.7875944;0.5734072;-0.1759003;-0.1412742;-15;-3;-4;1697;-3328;-1206;256;-0.1121884;0.1274238;-0.5041551;-0.8467612;-22;-2;7;172;3458;-1934;128;0.1121884;-0.08448754;0.6731302;0.7260657;21;-3;-1;-132;3868;216;4;0.5945669;-0.4806094;0.4016621;0.5041551;-8;-26;37;602;3828;232;16;0.601108;-0.7865281;-0.07202215;-0.1218837;-20;-11;-4;317;4083;1022;2;0.5318559;-0.3850415;-0.4958449;-0.5683398;0;1;-24;-826;3924;326;8;0.6440443;-0.760051;0.01246537;0.08587258;-7;2;4;-463;4175;585;0.4243247;2.774019;-0.06571707;0.4302085;3.310217;-0.1661169;0.4353763;3.781161;-0.2563564;0.47463;4.427618;0.08862957;0.2349438;4.748517;0.2083034;-0.1150343;4.616039;0.1981097;-0.6801891;5.073464;-0.376078;-0.9774925;5.849381;-0.8314462;0.7543315;4.716983;0.208304;1.03342;4.546309;0.1981109;1.416542;5.099288;-0.4916036;1.721928;5.908942;-0.8775922;0.1120631;2.731309;-0.06486707;0.02559718;1.299175;-0.3518761;0;0;0;0.1120631;2.731309;-0.06486707;0.02559718;1.299175;-0.3518761;0;0;0
426467.6374;NotLabelled;16384;0.8954452;0.3060942;0.1038781;0.3060942;8;18;-12;2190;-1988;2484;65536;0.8396939;0.4570637;-0.0734072;0.2839335;-10;10;8;-1482;-3123;-2015;8192;0.8605445;0.3891967;-0.267313;-0.1911357;13;-13;3;-2106;-2234;2442;32768;0.7912892;0.567867;-0.1772853;-0.1412742;-14;-7;-1;1723;-3238;-1450;256;-0.1135734;0.1246537;-0.5083103;-0.8445017;-24;-3;6;164;3474;-1888;128;0.1108033;-0.08310249;0.6759003;0.7238615;18;-5;0;-138;3892;150;4;0.5953069;-0.4764543;0.400277;0.5083103;-7;-28;40;626;3758;288;16;0.599723;-0.7879231;-0.07063711;-0.1204986;-20;-8;-5;253;4091;962;2;0.534626;-0.3836565;-0.4944598;-0.567884;0;0;-26;-862;3838;292;8;0.6440443;-0.7602062;0.01246537;0.08448754;-9;2;6;-463;4099;515;0.4302551;2.768099;-0.06153479;0.4361348;3.303917;-0.1639365;0.4412988;3.774521;-0.2559342;0.4812029;4.422018;0.08702016;0.2418299;4.743507;0.2057351;-0.1082697;4.611313;0.1960224;-0.6727766;5.066901;-0.3802594;-0.9699875;5.840876;-0.8389817;0.7611887;4.711503;0.2057356;1.040121;4.540546;0.1960232;1.422021;5.090864;-0.4964918;1.727271;5.899551;-0.8846088;0.1179937;2.725392;-0.0605124;0.02378422;1.296596;-0.361387;0;0;0;0.1179937;2.725392;-0.0605124;0.02378422;1.296596;-0.361387;0;0;0
