SEP=;
index;label;segment;RightUpperArm_boneIndex;RightUpperArm_quat9x_w;RightUpperArm_quat9x_x;RightUpperArm_quat9x_y;RightUpperArm_quat9x_z;RightUpperArm_gyroscope_x;RightUpperArm_gyroscope_y;RightUpperArm_gyroscope_z;RightUpperArm_accelerometer_x;RightUpperArm_accelerometer_y;RightUpperArm_accelerometer_z;RightLowerArm_boneIndex;RightLowerArm_quat9x_w;RightLowerArm_quat9x_x;RightLowerArm_quat9x_y;RightLowerArm_quat9x_z;RightLowerArm_gyroscope_x;RightLowerArm_gyroscope_y;RightLowerArm_gyroscope_z;RightLowerArm_accelerometer_x;RightLowerArm_accelerometer_y;RightLowerArm_accelerometer_z;LeftUpperArm_boneIndex;LeftUpperArm_quat9x_w;LeftUpperArm_quat9x_x;LeftUpperArm_quat9x_y;LeftUpperArm_quat9x_z;LeftUpperArm_gyroscope_x;LeftUpperArm_gyroscope_y;LeftUpperArm_gyroscope_z;LeftUpperArm_accelerometer_x;LeftUpperArm_accelerometer_y;LeftUpperArm_accelerometer_z;LeftLowerArm_boneIndex;LeftLowerArm_quat9x_w;LeftLowerArm_quat9x_x;LeftLowerArm_quat9x_y;LeftLowerArm_quat9x_z;LeftLowerArm_gyroscope_x;LeftLowerArm_gyroscope_y;LeftLowerArm_gyroscope_z;LeftLowerArm_accelerometer_x;LeftLowerArm_accelerometer_y;LeftLowerArm_accelerometer_z;Chest_boneIndex;Chest_quat9x_w;Chest_quat9x_x;Chest_quat9x_y;Chest_quat9x_z;Chest_gyroscope_x;Chest_gyroscope_y;Chest_gyroscope_z;Chest_accelerometer_x;Chest_accelerometer_y;Chest_accelerometer_z;Spine_boneIndex;Spine_quat9x_w;Spine_quat9x_x;Spine_quat9x_y;Spine_quat9x_z;Spine_gyroscope_x;Spine_gyroscope_y;Spine_gyroscope_z;Spine_accelerometer_x;Spine_accelerometer_y;Spine_accelerometer_z;RightUpperLeg_boneIndex;RightUpperLeg_quat9x_w;RightUpperLeg_quat9x_x;RightUpperLeg_quat9x_y;RightUpperLeg_quat9x_z;RightUpperLeg_gyroscope_x;RightUpperLeg_gyroscope_y;RightUpperLeg_gyroscope_z;RightUpperLeg_accelerometer_x;RightUpperLeg_accelerometer_y;RightUpperLeg_accelerometer_z;RightLowerLeg_boneIndex;RightLowerLeg_quat9x_w;RightLowerLeg_quat9x_x;RightLowerLeg_quat9x_y;RightLowerLeg_quat9x_z;RightLowerLeg_gyroscope_x;RightLowerLeg_gyroscope_y;RightLowerLeg_gyroscope_z;RightLowerLeg_accelerometer_x;RightLowerLeg_accelerometer_y;RightLowerLeg_accelerometer_z;LeftUpperLeg_boneIndex;LeftUpperLeg_quat9x_w;LeftUpperLeg_quat9x_x;LeftUpperLeg_quat9x_y;LeftUpperLeg_quat9x_z;LeftUpperLeg_gyroscope_x;LeftUpperLeg_gyroscope_y;LeftUpperLeg_gyroscope_z;LeftUpperLeg_accelerometer_x;LeftUpperLeg_accelerometer_y;LeftUpperLeg_accelerometer_z;LeftLowerLeg_boneIndex;LeftLowerLeg_quat9x_w;LeftLowerLeg_quat9x_x;LeftLowerLeg_quat9x_y;LeftLowerLeg_quat9x_z;LeftLowerLeg_gyroscope_x;LeftLowerLeg_gyroscope_y;LeftLowerLeg_gyroscope_z;LeftLowerLeg_accelerometer_x;LeftLowerLeg_accelerometer_y;LeftLowerLeg_accelerometer_z;pelvis_x;pelvis_y;pelvis_z;lowerSpine_x;lowerSpine_y;lowerSpine_z;middleSpine_x;middleSpine_y;middleSpine_z;upperSpine_x;upperSpine_y;upperSpine_z;rightClavicle_x;rightClavicle_y;rightClavicle_z;rightShoulder_x;rightShoulder_y;rightShoulder_z;rightElbow_x;rightElbow_y;rightElbow_z;rightWrist_x;rightWrist_y;rightWrist_z;leftClavicle_x;leftClavicle_y;leftClavicle_z;leftShoulder_x;leftShoulder_y;leftShoulder_z;leftElbow_x;leftElbow_y;leftElbow_z;leftWrist_x;leftWrist_y;leftWrist_z;rightHip_x;rightHip_y;rightHip_z;rightKnee_x;rightKnee_y;rightKnee_z;rightAnkle_x;rightAnkle_y;rightAnkle_z;leftHip_x;leftHip_y;leftHip_z;leftKnee_x;leftKnee_y;leftKnee_z;leftAnkle_x;leftAnkle_y;leftAnkle_z;
824943.83;NotLabelled;NONE;16384;0.8014294;0.4044321;0.3448753;0.2742382;-17;6;3;2964;-1748;2183;65536;-0.566482;-0.299169;0.7552567;0.1385041;-18;8;-1;2304;-1005;-3592;8192;0.4986149;-0.698153;-0.4861496;-0.166205;14;2;0;2596;3417;-29;32768;0.2022161;-0.7771096;-0.2299169;-0.5498615;-2;13;9;-325;2574;3551;256;0.1468144;-0.2174515;-0.7097781;-0.6537396;7;1;4;317;4092;309;128;-0.06094183;0.1260388;0.666205;0.7325102;-8;-2;-2;-73;4357;428;4;0.650775;-0.2770083;0.4210526;0.567867;3;4;-4;2364;3418;1270;16;0.7767182;-0.6108033;0.06371191;-0.1398892;0;12;2;1427;3839;-1232;2;0.4764543;-0.5726691;-0.4819945;-0.4612188;0;-8;10;1094;4522;-254;8;0.4778393;-0.8760845;-0.06094183;0.02077562;7;-17;-4;-1173;3677;2803;0.4020181;2.524109;1.258606;0.4079318;3.06304;1.174108;0.4131267;3.536446;1.097835;0.4986708;4.264281;1.060391;0.2795378;4.616038;1.005662;-0.07540479;4.519995;1.075879;-0.4956777;4.943266;0.3669777;0.1229318;5.06865;1.073658;0.796325;4.555303;1.005661;1.067299;4.385696;1.075878;1.065144;3.559975;1.572323;0.2919856;3.020983;1.474851;0.08975649;2.481393;1.258092;0.1488265;1.256334;0.4602202;0;0;0;0.08975649;2.481393;1.258092;0.1488265;1.256334;0.4602202;0;0;0
824965.8271;NotLabelled;NONE;16384;0.8004989;0.4072022;0.3448753;0.2728532;-16;0;4;3064;-1734;2081;65536;-0.566482;-0.299169;0.7547435;0.1412742;-13;11;-3;2412;-1049;-3684;8192;0.4958449;-0.6991593;-0.4875346;-0.166205;14;5;1;2472;3557;163;32768;0.200831;-0.7746754;-0.232687;-0.5526316;-3;24;17;-267;2642;3797;256;0.1468144;-0.2188366;-0.7080733;-0.6551247;5;-10;4;251;4260;147;128;-0.06094183;0.1274238;0.666205;0.7322706;-2;-9;-6;-327;4269;316;4;0.650775;-0.2770083;0.4210526;0.567867;3;6;-1;2450;3288;1180;16;0.7762142;-0.6108033;0.06371191;-0.1426593;-2;15;0;1495;3847;-1040;2;0.4736842;-0.5737417;-0.4847645;-0.4598338;-1;3;16;682;4054;-446;8;0.4806094;-0.8744703;-0.06232687;0.02077562;13;11;0;-603;3511;2539;0.4029965;2.523299;1.262547;0.4089135;3.062512;1.179865;0.4141111;3.536173;1.105187;0.4996552;4.264008;1.067743;0.2805223;4.615765;1.013014;-0.07442036;4.519721;1.083231;-0.4976192;4.944616;0.3770475;0.1242249;5.067513;1.081323;0.7973096;4.555028;1.013013;1.068284;4.385422;1.08323;1.062297;3.559639;1.57954;0.2883017;3.022322;1.479496;0.09073508;2.480586;1.261877;0.151321;1.253363;0.4674515;0;0;0;0.09073508;2.480586;1.261877;0.151321;1.253363;0.4674515;0;0;0
825007.8175;NotLabelled;NONE;16384;0.7983717;0.4113573;0.3448753;0.2728532;-13;-5;7;3370;-1748;2183;65536;-0.566482;-0.300554;0.7534028;0.1454294;-8;14;-5;2690;-1197;-3234;8192;0.4930748;-0.6991511;-0.4889196;-0.1703601;18;7;0;2098;3811;131;32768;0.199446;-0.7702113;-0.2354571;-0.5581717;1;13;18;-339;2698;3333;256;0.1468144;-0.2202216;-0.7076437;-0.6551247;7;-13;4;293;4190;211;128;-0.06094183;0.1288089;0.666205;0.7320282;1;-11;-6;-359;4249;262;4;0.651981;-0.2770083;0.4210526;0.566482;3;6;0;2186;3302;1010;16;0.7760708;-0.6108033;0.06232687;-0.1440443;-4;6;-2;1757;3951;-1030;2;0.4722992;-0.574819;-0.4861496;-0.4584487;-1;-3;18;462;4002;-354;8;0.4819945;-0.8736078;-0.06371191;0.02077562;13;6;0;-479;3611;2231;0.4039941;2.521995;1.264977;0.4099111;3.061209;1.182303;0.4151087;3.534871;1.107633;0.5012691;4.262807;1.073758;0.2824553;4.615005;1.020606;-0.07260609;4.518914;1.090156;-0.495815;4.948108;0.3865824;0.1260369;5.067177;1.091508;0.7991925;4.553846;1.020605;1.069988;4.383679;1.090155;1.058662;3.560234;1.590239;0.2863172;3.021774;1.483792;0.09173262;2.479281;1.264306;0.1541298;1.252059;0.470021;0;0;0;0.09173262;2.479281;1.264306;0.1541298;1.252059;0.470021;0;0;0
825028.0655;NotLabelled;NONE;16384;0.7976565;0.4127424;0.3448753;0.2728532;-12;-2;10;3382;-1784;2241;65536;-0.566482;-0.301939;0.7523084;0.1481994;-9;13;-7;2682;-1253;-3164;8192;0.4916897;-0.700753;-0.4875346;-0.1717452;18;3;-2;1894;3681;83;32768;0.199446;-0.7677704;-0.2368421;-0.5609418;0;8;18;-573;2578;2975;256;0.1481994;-0.2229917;-0.7064866;-0.6551247;6;-14;5;381;4114;243;128;-0.06094183;0.1315789;0.666205;0.7315354;1;-13;-8;-405;4213;394;4;0.6528734;-0.2770083;0.4196676;0.566482;1;6;0;1908;3398;924;16;0.7749787;-0.6121883;0.06232687;-0.1440443;-4;12;-3;1159;3915;-972;2;0.4709141;-0.5781482;-0.4861496;-0.4556787;-1;-10;15;354;3896;-326;8;0.4847645;-0.8721056;-0.06371191;0.01939058;10;5;-2;-347;3597;1903;0.4028279;2.52133;1.266558;0.4087448;3.060545;1.183892;0.4139424;3.534208;1.10923;0.5014068;4.26203;1.076246;0.2832296;4.614682;1.023489;-0.07201278;4.519141;1.092872;-0.497548;4.952881;0.3935015;0.1250862;5.067864;1.098415;0.7998569;4.5526;1.023488;1.070338;4.381867;1.092871;1.050711;3.557812;1.591692;0.281316;3.0177;1.472957;0.09056628;2.478616;1.265886;0.1523598;1.252123;0.4704283;0;0;0;0.09056628;2.478616;1.265886;0.1523598;1.252123;0.4704283;0;0;0
825048.8249;NotLabelled;NONE;16384;0.7972885;0.4155124;0.3434903;0.2714681;-11;2;14;3372;-1770;2263;65536;-0.566482;-0.3033241;0.7514766;0.1495845;-12;12;-9;2620;-1101;-3084;8192;0.4903047;-0.7013823;-0.4875346;-0.1731302;17;0;-2;1866;3529;53;32768;0.199446;-0.7667566;-0.2368421;-0.5623268;0;9;17;-585;2508;3073;256;0.1495845;-0.2257618;-0.705314;-0.6551247;6;-16;7;421;4068;227;128;-0.06232687;0.132964;0.666205;0.7311682;0;-12;-9;-455;4141;326;4;0.6534843;-0.2783934;0.4196676;0.5650969;4;8;-2;1808;3298;668;16;0.7746767;-0.6121883;0.05955679;-0.1468144;-4;35;-1;1151;3831;-826;2;0.4709141;-0.5792373;-0.4861496;-0.4542936;2;-12;11;598;3878;-392;8;0.4861496;-0.8713343;-0.06371191;0.01939058;8;2;-1;-185;3591;1901;0.3944987;2.520852;1.2655;0.4004157;3.060071;1.182853;0.4056133;3.533736;1.108206;0.4942527;4.261495;1.077031;0.276656;4.614624;1.025073;-0.07875937;4.519483;1.094118;-0.5012125;4.954726;0.3938135;0.1184833;5.067548;1.101659;0.7931833;4.551715;1.025072;1.06337;4.380379;1.094116;1.035448;3.555845;1.591749;0.2689773;3.013947;1.462689;0.08223712;2.478138;1.264827;0.152038;1.253217;0.4676102;0;0;0;0.08223712;2.478138;1.264827;0.152038;1.253217;0.4676102;0;0;0
825069.8158;NotLabelled;NONE;16384;0.7975038;0.4168975;0.3434903;0.2686981;-12;3;17;3296;-1772;2195;65536;-0.5650969;-0.3033241;0.7519628;0.1523546;-14;10;-10;2648;-1007;-3026;8192;0.4889196;-0.7016599;-0.4875346;-0.1759003;14;-1;-5;1804;3365;115;32768;0.199446;-0.764287;-0.2382271;-0.5650969;0;8;14;-491;2402;3115;256;0.1495845;-0.2285319;-0.7044213;-0.6551247;7;-16;9;409;4086;113;128;-0.06232687;0.1357341;0.666205;0.7306589;1;-9;-11;-299;4135;340;4;0.654382;-0.2811634;0.4182825;0.5637119;3;5;-2;1660;3536;940;16;0.7712618;-0.6149584;0.05401662;-0.1551246;-3;12;-3;1819;3941;-434;2;0.4695291;-0.5802812;-0.4875346;-0.4529086;1;5;5;692;3902;-286;8;0.4875346;-0.8703529;-0.06648199;0.01939058;3;12;0;-709;3451;2295;0.3858482;2.522427;1.263961;0.3917648;3.061617;1.181128;0.3969622;3.535256;1.106318;0.4867617;4.26295;1.076975;0.2697396;4.616549;1.025828;-0.0858469;4.5218;1.094528;-0.5034888;4.962438;0.3947122;0.1124297;5.075008;1.105887;0.7861665;4.552824;1.025827;1.056061;4.380891;1.094527;1.021237;3.55634;1.591698;0.2562886;3.014204;1.454847;0.07358664;2.479713;1.263304;0.1475684;1.253349;0.4686869;0;0;0;0.07358664;2.479713;1.263304;0.1475684;1.253349;0.4686869;0;0;0
825090.8193;NotLabelled;NONE;16384;0.7978393;0.4182825;0.3421052;0.267313;-12;6;18;3162;-1760;2233;65536;-0.5650969;-0.3033241;0.7513962;0.1551246;-15;11;-10;2522;-879;-3112;8192;0.4889196;-0.7022721;-0.4861496;-0.1772853;11;-7;-8;1796;3257;25;32768;0.199446;-0.763261;-0.2382271;-0.566482;-2;2;13;-525;2220;3101;256;0.1495845;-0.234072;-0.7013058;-0.6565097;7;-15;11;457;3850;251;128;-0.06094183;0.1398892;0.666205;0.7299918;2;-8;-11;-367;4075;254;4;0.6540902;-0.2825485;0.4196676;0.5623268;2;3;-4;1658;3390;912;16;0.7701553;-0.6163435;0.05401662;-0.1551246;-3;-4;-5;1497;3919;-598;2;0.468144;-0.5813134;-0.4889196;-0.4515235;1;4;5;584;3962;-222;8;0.4875346;-0.8702757;-0.06786703;0.01800554;2;19;0;-725;3505;2221;0.3830727;2.525582;1.255762;0.3889894;3.064774;1.172947;0.3941869;3.538416;1.098154;0.4865613;4.26586;1.07066;0.2708038;4.62035;1.02033;-0.08513653;4.526683;1.088683;-0.4998402;4.971297;0.3896351;0.1124867;5.078986;1.104657;0.7870028;4.554804;1.020329;1.056267;4.381747;1.088683;1.014576;3.556214;1.583688;0.2525181;3.012284;1.4381;0.07081109;2.482868;1.255104;0.1518327;1.254454;0.4643489;0;0;0;0.07081109;2.482868;1.255104;0.1518327;1.254454;0.4643489;0;0;0
825111.8218;NotLabelled;NONE;16384;0.7986696;0.4224377;0.3393352;0.2617728;-14;3;21;2862;-1826;2153;65536;-0.5650969;-0.3033241;0.7502311;0.1606648;-17;14;-11;2418;-765;-3254;8192;0.4889196;-0.7044281;-0.4819945;-0.1800554;14;-8;-11;1992;3295;-287;32768;0.199446;-0.7605922;-0.2368421;-0.5706371;-6;-2;12;-543;2106;3261;256;0.1495845;-0.2368421;-0.7016709;-0.6551247;6;-11;12;529;3896;227;128;-0.06094183;0.1412742;0.66759;0.7284581;2;-9;-12;-305;4127;250;4;0.6534902;-0.2839335;0.4196676;0.5623268;0;5;-5;1774;3300;712;16;0.7704331;-0.6163435;0.05401662;-0.1537396;-1;0;-4;1125;3859;-570;2;0.468144;-0.5813134;-0.4889196;-0.4515235;1;-3;5;480;3886;-104;8;0.4875346;-0.8700829;-0.07063711;0.0166205;1;16;0;-647;3479;2049;0.3788596;2.529617;1.248406;0.3847767;3.068844;1.165818;0.3899744;3.542517;1.091225;0.4867271;4.269608;1.070193;0.2731509;4.62581;1.022725;-0.08342206;4.533682;1.089862;-0.4903758;4.982171;0.3887377;0.1173949;5.08608;1.108193;0.7889486;4.557176;1.022724;1.057095;4.381921;1.089861;1.008729;3.554989;1.581917;0.248743;3.010821;1.426704;0.06659806;2.486903;1.247728;0.1505421;1.255494;0.4619518;0;0;0;0.06659806;2.486903;1.247728;0.1505421;1.255494;0.4619518;0;0;0
825132.8224;NotLabelled;NONE;16384;0.7994258;0.4238227;0.3379501;0.2590028;-15;3;20;2784;-1784;2149;65536;-0.5637119;-0.3033241;0.7506747;0.1634349;-16;15;-10;2540;-737;-3084;8192;0.4875346;-0.7069182;-0.4792244;-0.1814404;16;-10;-12;2008;3365;-331;32768;0.199446;-0.7604093;-0.234072;-0.5720221;-7;-2;13;-395;2210;3307;256;0.1495845;-0.2396122;-0.7007297;-0.6551247;6;-12;13;491;3944;161;128;-0.06094183;0.1440443;0.66759;0.7279155;3;-12;-11;-223;4083;262;4;0.654077;-0.2853186;0.4196676;0.5609418;-1;4;-2;1724;3358;798;16;0.7705289;-0.6163435;0.05263158;-0.1537396;-1;11;-2;1321;3805;-816;2;0.468144;-0.5823866;-0.4889196;-0.4501385;1;-5;4;478;3930;-170;8;0.4889196;-0.8691917;-0.07202215;0.0166205;0;8;-1;-655;3471;2103;0.3756084;2.537025;1.234282;0.3815222;3.075943;1.149695;0.3867168;3.549337;1.073345;0.4866575;4.275873;1.04844;0.2744911;4.632808;1.000171;-0.08220714;4.542616;1.069243;-0.4865424;5.001269;0.3731971;0.1246392;5.100304;1.090446;0.7899697;4.561841;0.9983323;1.057603;4.385693;1.065178;1.001348;3.558174;1.555403;0.2429143;3.01403;1.392696;0.06334686;2.494309;1.233775;0.1486343;1.257856;0.4561069;0;0;0;0.06334686;2.494309;1.233775;0.1486343;1.257856;0.4561069;0;0;0
825153.8175;NotLabelled;NONE;16384;0.7994294;0.4265928;0.3365651;0.2562327;-16;4;21;2774;-1810;2171;65536;-0.5637119;-0.3047091;0.7491961;0.16759;-18;15;-9;2476;-693;-2914;8192;0.4875346;-0.7084322;-0.4764543;-0.1828255;17;-10;-12;2212;3309;-341;32768;0.1980609;-0.7586805;-0.234072;-0.5747922;-8;3;14;-595;2106;3519;256;0.1495845;-0.2423823;-0.6997764;-0.6551247;5;-12;13;451;3890;249;128;-0.06232687;0.1468144;0.66759;0.7272444;5;-20;-12;-247;4043;198;4;0.6534711;-0.2867036;0.4196676;0.5609418;1;0;0;1856;3478;748;16;0.7692344;-0.6177285;0.05124654;-0.1551246;-2;8;-3;1401;3881;-888;2;0.4695291;-0.5812705;-0.4889196;-0.4501385;1;-6;3;468;3906;-200;8;0.4889196;-0.8690758;-0.0734072;0.0166205;0;3;-1;-695;3461;2143;0.3634639;2.534604;1.240664;0.3693777;3.073524;1.156098;0.3745724;3.546921;1.079767;0.4771308;4.273248;1.05991;0.2664156;4.631218;1.012962;-0.0908964;4.541834;1.079877;-0.4862008;5.007022;0.3829822;0.11838;5.098527;1.106796;0.7816491;4.55847;1.012961;1.048372;4.380973;1.079876;0.9832728;3.550129;1.563339;0.2254129;3.009043;1.388235;0.05120242;2.491888;1.240155;0.1421428;1.256889;0.4608187;0;0;0;0.05120242;2.491888;1.240155;0.1421428;1.256889;0.4608187;0;0;0
825174.8291;NotLabelled;NONE;16384;0.8001537;0.4279778;0.33518;0.2534626;-16;7;22;2768;-1884;2179;65536;-0.5637119;-0.3033241;0.7491334;0.1703601;-20;12;-9;2526;-579;-2858;8192;0.4861496;-0.7095929;-0.4750692;-0.1855956;17;-7;-12;2186;3271;-333;32768;0.1966759;-0.7584162;-0.232687;-0.5761772;-8;9;14;-817;2142;3555;256;0.1495845;-0.2479224;-0.6991305;-0.6537396;4;-14;11;699;3954;191;128;-0.06509695;0.1523546;0.66759;0.7258609;1;-11;-10;-359;4077;284;4;0.6534711;-0.2867036;0.4196676;0.5609418;-2;-6;0;1694;3474;636;16;0.7690449;-0.6177285;0.04986149;-0.1565097;0;5;-2;1371;3957;-670;2;0.4695291;-0.5835005;-0.4875346;-0.4487534;3;-8;5;646;3946;-122;8;0.4889196;-0.8689577;-0.07479224;0.0166205;1;1;-1;-687;3537;2175;0.3589672;2.537848;1.233627;0.3648806;3.076741;1.148885;0.3700752;3.550113;1.0724;0.4751488;4.276132;1.054508;0.2656874;4.634952;1.008443;-0.09195423;4.546625;1.075001;-0.4802758;5.018541;0.3787037;0.1236675;5.106083;1.103539;0.7806664;4.560423;1.008419;1.046752;4.381828;1.07495;0.9738309;3.549118;1.554066;0.2170665;3.009448;1.370079;0.04670554;2.495132;1.233133;0.1422783;1.257991;0.4577583;0;0;0;0.04670554;2.495132;1.233133;0.1422783;1.257991;0.4577583;0;0;0
825194.8198;NotLabelled;NONE;16384;0.8012391;0.432133;0.33241;0.2465374;-13;10;19;2558;-2054;1999;65536;-0.5637119;-0.3033241;0.7475248;0.1772853;-19;7;-8;2600;-357;-2852;8192;0.4833795;-0.7135143;-0.4709141;-0.1883656;19;-4;-9;2030;3333;-297;32768;0.1925208;-0.7558838;-0.234072;-0.5803324;-11;7;9;-1169;2388;3215;256;0.1495845;-0.2506925;-0.6981421;-0.6537396;5;-11;11;475;3872;229;128;-0.06509695;0.1537396;0.66759;0.7255688;0;-8;-9;-287;4141;306;4;0.6519942;-0.2853186;0.4210526;0.5623268;-2;-9;-2;1668;3354;750;16;0.7690449;-0.6177285;0.04986149;-0.1565097;0;-5;-1;1449;3827;-610;2;0.4695291;-0.5856205;-0.4875346;-0.4459834;2;-11;5;734;4108;-42;8;0.4889196;-0.8689577;-0.07479224;0.0166205;1;0;0;-721;3575;2183;0.3478673;2.537927;1.233943;0.3537801;3.076762;1.148839;0.358974;3.550082;1.072034;0.4698102;4.275275;1.055467;0.2632167;4.635826;1.009977;-0.09513515;4.550222;1.076271;-0.4781542;5.026917;0.3802906;0.1215266;5.109067;1.109284;0.7775881;4.557216;1.009976;1.042228;4.376397;1.076269;0.9612665;3.542615;1.55222;0.2047658;3.005933;1.35866;0.03560573;2.495211;1.23348;0.1377127;1.258068;0.4589402;0;0;0;0.03560573;2.495211;1.23348;0.1377127;1.258068;0.4589402;0;0;0
825216.0222;NotLabelled;NONE;16384;0.8013384;0.433518;0.33241;0.2437673;-12;10;16;2516;-2056;2021;65536;-0.5637119;-0.301939;0.7470884;0.1814404;-20;4;-7;2634;-311;-2750;8192;0.4819945;-0.7159031;-0.468144;-0.1897507;18;-12;-9;1978;3491;-267;32768;0.1897507;-0.7555196;-0.234072;-0.5817174;-13;3;3;-1047;2506;3133;256;0.1495845;-0.2520775;-0.6976432;-0.6537396;5;-8;10;599;3954;203;128;-0.06509695;0.1565097;0.66759;0.7249763;0;-8;-8;-349;4087;294;4;0.6510977;-0.2853186;0.4224377;0.5623268;-3;-10;-3;1836;3404;784;16;0.7692344;-0.6177285;0.05124654;-0.1551246;1;-14;-2;1347;3915;-594;2;0.4695291;-0.5878209;-0.4861496;-0.4445983;2;-10;5;676;4102;-194;8;0.4889196;-0.8689577;-0.07479224;0.0166205;1;0;0;-705;3501;2207;0.3447315;2.538025;1.23423;0.3506443;3.076863;1.149137;0.3558382;3.550185;1.072342;0.4691591;4.275036;1.057819;0.2638187;4.636416;1.013234;-0.09485257;4.551856;1.07914;-0.4676736;5.041131;0.3863612;0.1332106;5.113992;1.115352;0.7779186;4.556047;1.013234;1.04191;4.374143;1.079142;0.9453603;3.539525;1.550698;0.1891998;3.006382;1.346326;0.03246999;2.495309;1.233766;0.1357167;1.258068;0.4595345;0;0;0;0.03246999;2.495309;1.233766;0.1357167;1.258068;0.4595345;0;0;0
825236.8379;NotLabelled;NONE;16384;0.8016616;0.4362881;0.3310249;0.2396122;-12;9;14;2486;-2170;2037;65536;-0.5637119;-0.300554;0.746969;0.1842105;-21;1;-5;2746;-229;-2804;8192;0.4806094;-0.7173686;-0.466759;-0.1911357;16;-16;-8;2142;3663;-187;32768;0.1883656;-0.7558661;-0.234072;-0.5817174;-11;0;-2;-957;2532;3315;256;0.1495845;-0.2548476;-0.696636;-0.6537396;6;-5;10;673;3976;277;128;-0.06509695;0.1578947;0.66759;0.7246759;-2;-11;-8;-435;4041;262;4;0.6510977;-0.2853186;0.4224377;0.5623268;-3;-5;-5;1980;3356;646;16;0.7697878;-0.6177285;0.05124654;-0.1523546;3;-17;0;1265;3891;-606;2;0.4695291;-0.5878209;-0.4861496;-0.4445983;3;-6;5;754;3976;-150;8;0.4889196;-0.8688374;-0.07617728;0.0166205;1;0;0;-813;3539;2169;0.3458976;2.539479;1.232274;0.3518105;3.07832;1.147204;0.3570044;3.551646;1.070431;0.4715627;4.276323;1.056937;0.2668475;4.638114;1.01281;-0.09198135;4.554072;1.078522;-0.4662353;5.047206;0.3892592;0.1358135;5.112851;1.117974;0.7808098;4.556869;1.012809;1.044476;4.374425;1.07852;0.9425641;3.539264;1.547984;0.1850619;3.009607;1.339561;0.03363615;2.496763;1.231808;0.1354173;1.257991;0.4598333;0;0;0;0.03363615;2.496763;1.231808;0.1354173;1.257991;0.4598333;0;0;0
825256.8369;NotLabelled;NONE;16384;0.8017297;0.4376731;0.3310249;0.2368421;-10;11;11;2488;-2166;2027;65536;-0.5637119;-0.2977839;0.74739;0.1869806;-19;-1;-4;2690;-161;-2920;8192;0.4806094;-0.7191634;-0.4639889;-0.1911357;15;-16;-7;2322;3655;-257;32768;0.1869806;-0.7562099;-0.234072;-0.5817174;-14;-6;-6;-763;2518;3329;256;0.1495845;-0.2562327;-0.6974259;-0.6523545;4;-2;10;723;3978;273;128;-0.06648199;0.1606648;0.66759;0.723941;-4;-10;-7;-365;4059;236;4;0.650197;-0.2853186;0.4238227;0.5623268;-3;-1;-5;1980;3386;662;16;0.7698713;-0.6177285;0.05401662;-0.1509695;4;-22;0;1359;3871;-636;2;0.4695291;-0.5888659;-0.4861496;-0.4432133;2;-3;5;658;3988;-140;8;0.4889196;-0.8688374;-0.07617728;0.0166205;1;4;1;-875;3457;2171;0.3367262;2.540781;1.229925;0.3426391;3.079624;1.144868;0.347833;3.552951;1.068104;0.4648559;4.27727;1.056691;0.2613898;4.639875;1.013487;-0.09775186;4.55687;1.078805;-0.4671959;5.057553;0.3923966;0.1335292;5.117838;1.122665;0.7750732;4.556887;1.013486;1.03809;4.373365;1.078803;0.9291148;3.538037;1.546378;0.1711529;3.010239;1.334929;0.02446461;2.498065;1.229459;0.1296186;1.259293;0.4579359;0;0;0;0.02446461;2.498065;1.229459;0.1296186;1.259293;0.4579359;0;0;0
825277.8295;NotLabelled;NONE;16384;0.8025429;0.4376731;0.3310249;0.234072;-8;12;9;2442;-2174;1901;65536;-0.5650969;-0.2963989;0.7461956;0.1897507;-18;-4;-2;2534;-173;-3030;8192;0.4806094;-0.720943;-0.4612188;-0.1911357;12;-13;-6;2320;3695;-311;32768;0.1855956;-0.7569781;-0.232687;-0.5817174;-12;-7;-5;-831;2632;3173;256;0.1481994;-0.2576177;-0.6972113;-0.6523545;3;-2;9;653;4072;91;128;-0.06648199;0.1620499;0.666205;0.7249075;-2;-8;-7;-265;4041;214;4;0.6492921;-0.2853186;0.4252077;0.5623268;-3;-7;-1;1932;3386;754;16;0.7720026;-0.6163435;0.05817174;-0.1440443;3;-29;-1;1301;3901;-992;2;0.4695291;-0.5920774;-0.4847645;-0.4404432;3;-8;5;482;4056;-182;8;0.4889196;-0.8687148;-0.07756232;0.0166205;0;0;0;-617;3589;2031;0.3408349;2.541512;1.229171;0.3467474;3.080326;1.143926;0.3519411;3.553627;1.066999;0.4709764;4.277589;1.053943;0.2685051;4.640664;1.01001;-0.09084266;4.558803;1.075639;-0.4588379;5.0633;0.3912467;0.1424289;5.116555;1.121616;0.7819554;4.556244;1.010009;1.044483;4.372137;1.075638;0.9318976;3.536183;1.541235;0.1729718;3.010247;1.328607;0.02857327;2.498796;1.22872;0.1320511;1.258498;0.4594269;0;0;0;0.02857327;2.498796;1.22872;0.1320511;1.258498;0.4594269;0;0;0
825297.8198;NotLabelled;NONE;16384;0.8029873;0.4390582;0.3310249;0.2299169;-5;7;5;2306;-2258;1965;65536;-0.566482;-0.2908587;0.7466158;0.1925208;-11;-4;-3;2512;-67;-3208;8192;0.4792244;-0.7223799;-0.4598338;-0.1925208;9;-11;-5;2310;3655;-383;32768;0.1855956;-0.7584643;-0.2313019;-0.5803324;-10;-7;-4;-717;2594;3251;256;0.1468144;-0.2603878;-0.6964749;-0.6523545;0;-5;7;631;3992;213;128;-0.06925207;0.166205;0.666205;0.7237064;0;-13;-6;-409;4133;320;4;0.648698;-0.2839335;0.4252077;0.5637119;-2;-12;1;2084;3350;762;16;0.7732577;-0.6149584;0.05955679;-0.1426593;0;5;0;917;3985;-1288;2;0.4709141;-0.5931375;-0.4833795;-0.4390582;3;-14;3;610;3958;-394;8;0.4889196;-0.8687148;-0.07756232;0.0166205;0;-1;0;-565;3563;1929;0.3386123;2.543095;1.228405;0.3445283;3.082225;1.145185;0.349725;3.555811;1.070036;0.4714326;4.279349;1.058103;0.2703342;4.643228;1.014518;-0.08936632;4.562596;1.079735;-0.4549228;5.066879;0.39388;0.149965;5.115938;1.121548;0.7834705;4.55692;1.01482;1.045265;4.371755;1.080404;0.9293299;3.536938;1.547216;0.1684027;3.014243;1.33375;0.02635068;2.500381;1.227781;0.1272615;1.258559;0.4606082;0;0;0;0.02635068;2.500381;1.227781;0.1272615;1.258559;0.4606082;0;0;0
825318.8218;NotLabelled;NONE;16384;0.8033826;0.4390582;0.3310249;0.2285319;-4;5;2;2374;-2208;1955;65536;-0.566482;-0.2894737;0.7471538;0.1925208;-8;-3;-2;2566;-81;-3300;8192;0.4792244;-0.7245025;-0.4570637;-0.1911357;4;-10;0;2200;3701;-199;32768;0.1842105;-0.7583783;-0.232687;-0.5803324;-1;9;0;-603;2756;3371;256;0.1481994;-0.2617728;-0.6969581;-0.6509695;0;-7;5;723;4032;101;128;-0.07063711;0.16759;0.666205;0.723253;-2;-13;-6;-415;4027;438;4;0.6474918;-0.2839335;0.4252077;0.5650969;1;-12;3;2220;3436;726;16;0.7729501;-0.6149584;0.0567867;-0.1454294;-2;39;2;1109;4007;-1348;2;0.4709141;-0.5931375;-0.4833795;-0.4390582;3;-9;0;736;3804;-348;8;0.4889196;-0.8688374;-0.07617728;0.0166205;-1;-5;0;-591;3409;2021;0.3333679;2.540578;1.234155;0.3392833;3.079646;1.150536;0.3444794;3.553177;1.075036;0.4700638;4.276083;1.065158;0.2709155;4.641158;1.022635;-0.0892061;4.56227;1.087661;-0.4531859;5.074094;0.4065703;0.1547611;5.113914;1.13225;0.7835816;4.5521;1.022634;1.044386;4.365346;1.087659;0.9229684;3.52868;1.549743;0.1606295;3.007597;1.337377;0.0211063;2.497863;1.233565;0.1243471;1.257444;0.4644362;0;0;0;0.0211063;2.497863;1.233565;0.1243471;1.257444;0.4644362;0;0;0
825338.8237;NotLabelled;NONE;16384;0.8030172;0.4404432;0.3310249;0.2271468;-2;3;0;2370;-2238;1991;65536;-0.566482;-0.2880886;0.747331;0.1939058;-4;-2;-1;2662;-67;-3286;8192;0.4792244;-0.7248665;-0.4570637;-0.1897507;3;-9;0;2338;3707;-259;32768;0.1842105;-0.7579519;-0.234072;-0.5803324;0;10;-1;-465;2606;3149;256;0.1481994;-0.2631579;-0.6964363;-0.6509695;0;-4;4;781;3954;107;128;-0.07063711;0.1703601;0.66482;0.72388;-2;-8;-4;-521;4049;352;4;0.6468871;-0.2825485;0.4252077;0.566482;0;-8;3;2212;3366;714;16;0.7721815;-0.6149584;0.05263158;-0.1509695;-2;42;1;1291;3917;-768;2;0.4709141;-0.5942636;-0.4819945;-0.4390582;3;-6;-1;734;3870;-322;8;0.4889196;-0.8688374;-0.07617728;0.0166205;-1;-6;0;-693;3501;2189;0.3248019;2.54143;1.232776;0.3307168;3.080466;1.148945;0.3359126;3.553967;1.073259;0.4620694;4.27675;1.061767;0.263196;4.64189;1.018528;-0.0969637;4.563431;1.083861;-0.4574808;5.076425;0.4018095;0.1476639;5.114561;1.129918;0.7757908;4.552423;1.018527;1.036471;4.365603;1.083859;0.9114717;3.529242;1.54554;0.1494117;3.008656;1.330964;0.01254022;2.498715;1.232204;0.121014;1.257575;0.4649616;0;0;0;0.01254022;2.498715;1.232204;0.121014;1.257575;0.4649616;0;0;0
825359.9438;NotLabelled;NONE;16384;0.8034077;0.4404432;0.3310249;0.2257618;0;2;-2;2348;-2300;1989;65536;-0.566482;-0.2880886;0.747331;0.1939058;-1;-3;-1;2550;-223;-3166;8192;0.4792244;-0.7260987;-0.4556787;-0.1883656;0;-5;0;2276;3609;-351;32768;0.1842105;-0.7575228;-0.2354571;-0.5803324;1;2;-2;-453;2502;3011;256;0.1481994;-0.2645429;-0.6959114;-0.6509695;2;-2;3;757;3962;39;128;-0.07202215;0.1717452;0.66482;0.7234161;-2;-7;-2;-455;4113;338;4;0.6462759;-0.2811634;0.4252077;0.567867;0;-4;5;2184;3376;944;16;0.7699611;-0.6163435;0.04847645;-0.1578947;-1;51;3;1455;3971;-830;2;0.4709141;-0.5953842;-0.4806094;-0.4390582;3;-7;-1;686;3928;-236;8;0.4889196;-0.8689301;-0.07479224;0.01800554;-2;-4;0;-675;3573;2201;0.3207864;2.539597;1.236349;0.3267047;3.078944;1.154554;0.3319037;3.552728;1.080657;0.4592783;4.275313;1.070246;0.2610301;4.64085;1.027486;-0.09927762;4.562902;1.092613;-0.4593772;5.07851;0.4123157;0.1450869;5.113133;1.141165;0.7734739;4.550522;1.027485;1.033823;4.363169;1.092611;0.9090521;3.527694;1.555955;0.1482589;3.005733;1.340225;0.008524895;2.496884;1.235603;0.119649;1.257144;0.4664769;0;0;0;0.008524895;2.496884;1.235603;0.119649;1.257144;0.4664769;0;0;0
825379.9913;NotLabelled;NONE;16384;0.8034077;0.4404432;0.3310249;0.2257618;1;1;-2;2514;-2254;2111;65536;-0.566482;-0.2867036;0.7478634;0.1939058;-1;-3;-1;2516;-255;-3086;8192;0.4792244;-0.7260987;-0.4556787;-0.1883656;-3;-3;-1;2136;3595;-461;32768;0.1855956;-0.7582442;-0.2354571;-0.5789474;1;-5;-4;-693;2336;2911;256;0.1481994;-0.2645429;-0.6959114;-0.6509695;3;-2;2;681;4004;73;128;-0.07202215;0.1731302;0.66482;0.7230859;-4;-7;-3;-471;4095;502;4;0.647785;-0.2797784;0.4238227;0.567867;-2;6;6;2134;3388;978;16;0.7672018;-0.6177285;0.04155125;-0.16759;-5;32;0;1377;3929;-792;2;0.4709141;-0.5964031;-0.4806094;-0.4376731;3;0;0;906;4194;-292;8;0.4875346;-0.8697079;-0.07479224;0.01800554;-1;1;0;-821;3563;2221;0.3217073;2.538176;1.237341;0.3276253;3.077491;1.15533;0.3328238;3.551244;1.081242;0.4614121;4.273629;1.071908;0.2637854;4.63956;1.029644;-0.09666514;4.562122;1.094589;-0.4526712;5.079171;0.4132315;0.1502243;5.113794;1.143379;0.776077;4.548372;1.029608;1.036099;4.360489;1.094511;0.9086586;3.525421;1.557864;0.1491226;3.002088;1.341033;0.009445727;2.495462;1.236613;0.1231734;1.257124;0.4656129;0;0;0;0.009445727;2.495462;1.236613;0.1231734;1.257124;0.4656129;0;0;0
825400.847;NotLabelled;NONE;16384;0.8041655;0.4390582;0.3310249;0.2257618;0;-1;-3;2592;-2222;2227;65536;-0.567867;-0.2853186;0.7477006;0.1925208;-2;-5;-1;2562;-221;-3236;8192;0.4806094;-0.7260512;-0.4542936;-0.1883656;-3;-3;-3;2058;3757;-609;32768;0.1869806;-0.7604396;-0.234072;-0.5761772;4;-11;-6;-547;2374;3677;256;0.1481994;-0.265928;-0.6953833;-0.6509695;4;0;1;705;4000;-11;128;-0.0734072;0.1745152;0.6634349;0.7238854;-3;-7;-3;-499;4179;452;4;0.6498989;-0.2797784;0.4224377;0.566482;0;6;6;2084;3608;932;16;0.7667365;-0.6177285;0.03878116;-0.1703601;-6;28;-2;1351;3907;-730;2;0.4709141;-0.5964031;-0.4806094;-0.4376731;5;2;0;822;3978;-450;8;0.4875346;-0.8697079;-0.07479224;0.01800554;-1;2;1;-695;3575;2211;0.3230494;2.534631;1.241672;0.3289674;3.073948;1.159674;0.3341661;3.547704;1.085599;0.462755;4.270089;1.076274;0.2651312;4.63602;1.033996;-0.09532362;4.558581;1.098917;-0.452754;5.075357;0.4180979;0.1501445;5.108298;1.148321;0.7774228;4.544831;1.033995;1.03744;4.356948;1.098915;0.9109692;3.522066;1.56287;0.1517935;2.99711;1.34872;0.01078784;2.491918;1.240943;0.1264756;1.257265;0.4643436;0;0;0;0.01078784;2.491918;1.240943;0.1264756;1.257265;0.4643436;0;0;0
825421.8439;NotLabelled;NONE;16384;0.8032035;0.4390582;0.33241;0.2271468;0;-2;-5;2622;-2336;2251;65536;-0.567867;-0.2839335;0.7482276;0.1925208;-2;-3;-2;2738;-247;-3312;8192;0.4819945;-0.7254908;-0.4542936;-0.1869806;-3;-4;-4;2008;3779;-525;32768;0.1883656;-0.7600977;-0.234072;-0.5761772;5;-6;-5;-477;2418;3683;256;0.1468144;-0.265928;-0.695677;-0.6509695;5;0;0;739;4128;-41;128;-0.07479224;0.1759003;0.6620498;0.724676;-5;-2;-2;-485;4293;558;4;0.6513908;-0.2783934;0.4210526;0.566482;-2;3;7;1982;3646;870;16;0.7651324;-0.6191136;0.03601108;-0.1731302;-8;18;-4;1445;4139;-550;2;0.4695291;-0.5964772;-0.4806094;-0.4390582;3;10;-2;778;3904;-322;8;0.4875346;-0.8695877;-0.07617728;0.01800554;-1;0;0;-431;3503;2181;0.3179957;2.532532;1.245157;0.3239167;3.072118;1.164946;0.329118;3.546116;1.09244;0.4589177;4.268298;1.084208;0.2619175;4.63462;1.042415;-0.0986836;4.55769;1.107128;-0.4536163;5.073019;0.4239099;0.1491974;5.107244;1.154143;0.7740558;4.542576;1.042415;1.033741;4.354162;1.107128;0.9078932;3.517886;1.568734;0.1477575;2.99291;1.358067;0.005734205;2.489822;1.244275;0.1241441;1.257452;0.4644669;0;0;0;0.005734205;2.489822;1.244275;0.1241441;1.257452;0.4644669;0;0;0
825442.8227;NotLabelled;NONE;16384;0.8032035;0.4390582;0.33241;0.2271468;-2;-3;-7;2702;-2324;2237;65536;-0.567867;-0.2839335;0.7482276;0.1925208;-3;0;0;2918;-305;-3464;8192;0.4833795;-0.7254353;-0.4529086;-0.1869806;-3;-1;-3;2132;3747;-413;32768;0.1883656;-0.7611456;-0.234072;-0.5747922;5;4;-3;-405;2496;3727;256;0.1468144;-0.265928;-0.6943784;-0.6523545;3;0;0;725;4148;-49;128;-0.07479224;0.1772853;0.6620498;0.7243384;-2;0;-1;-557;4347;440;4;0.6513908;-0.2783934;0.4210526;0.566482;-1;0;5;1890;3214;838;16;0.7637585;-0.6204986;0.03462604;-0.1745152;-10;3;-5;1369;3997;-610;2;0.4695291;-0.5964772;-0.4806094;-0.4390582;1;4;-4;812;3812;-406;8;0.4875346;-0.8697079;-0.07479224;0.01800554;0;-1;0;-617;3433;2223;0.3203193;2.530002;1.247134;0.3262432;3.069849;1.168703;0.3314471;3.544083;1.09776;0.4626845;4.266006;1.089525;0.2664141;4.632719;1.047731;-0.09433943;4.556508;1.112444;-0.4537557;5.069622;0.429903;0.1505786;5.102163;1.158956;0.7783682;4.539655;1.04773;1.037678;4.350725;1.112444;0.9164178;3.514235;1.574888;0.1572287;2.987384;1.365489;0.008057833;2.487295;1.246101;0.1268326;1.25864;0.4605076;0;0;0;0.008057833;2.487295;1.246101;0.1268326;1.25864;0.4605076;0;0;0
825462.9306;NotLabelled;NONE;16384;0.8026289;0.4390582;0.333795;0.2271468;-3;-2;-5;2702;-2338;2163;65536;-0.567867;-0.2839335;0.7478698;0.1939058;-2;2;2;2966;-319;-3536;8192;0.4833795;-0.7254353;-0.4529086;-0.1869806;-4;-2;-3;2088;3799;-421;32768;0.1883656;-0.7607183;-0.2354571;-0.5747922;5;8;-1;-359;2452;3599;256;0.1468144;-0.265928;-0.6943784;-0.6523545;2;0;0;715;4256;-191;128;-0.0734072;0.1772853;0.6620498;0.72448;0;1;-2;-573;4177;642;4;0.6513908;-0.2783934;0.4210526;0.566482;0;1;3;2048;3126;814;16;0.7629467;-0.6218836;0.03462604;-0.1731302;-10;-4;-7;1171;3931;-780;2;0.4695291;-0.5954552;-0.4806094;-0.4404432;3;3;-3;796;4008;-434;8;0.4875346;-0.8695877;-0.07617728;0.01800554;0;7;1;-667;3535;2211;0.3223687;2.531076;1.243514;0.3282926;3.070926;1.165097;0.3334965;3.545162;1.094167;0.4639333;4.267255;1.088626;0.267281;4.633898;1.048028;-0.09342945;4.557052;1.112229;-0.45226;5.070166;0.4293796;0.1518562;5.102708;1.158613;0.7793384;4.541405;1.048027;1.038817;4.352532;1.112228;0.9185562;3.514653;1.572414;0.1584464;2.988042;1.365769;0.01010722;2.48837;1.242479;0.129117;1.259714;0.4569213;0;0;0;0.01010722;2.48837;1.242479;0.129117;1.259714;0.4569213;0;0;0
825483.822;NotLabelled;NONE;16384;0.8022357;0.4390582;0.333795;0.2285319;-3;-4;-4;2768;-2274;1987;65536;-0.5692521;-0.2839335;0.7468162;0.1939058;0;7;4;2896;-259;-3398;8192;0.4847645;-0.7245105;-0.4529086;-0.1869806;-4;0;-2;2042;3855;-477;32768;0.1883656;-0.7602882;-0.2368421;-0.5747922;4;6;0;-409;2448;3311;256;0.1468144;-0.267313;-0.6938464;-0.6523545;2;0;0;731;4070;-243;128;-0.0734072;0.1772853;0.6606648;0.7257433;0;5;-3;-661;4021;560;4;0.652284;-0.2783934;0.4196676;0.566482;3;6;3;2166;3266;854;16;0.7621908;-0.6232687;0.033241;-0.1717452;-9;2;-6;983;3909;-696;2;0.466759;-0.5954874;-0.4819945;-0.4418283;0;18;-5;1060;3974;-488;8;0.4861496;-0.8703904;-0.07617728;0.0166205;-1;2;6;-815;3547;2293;0.3235169;2.532694;1.238719;0.3294412;3.072578;1.160543;0.3346454;3.546846;1.089825;0.4650822;4.268939;1.084283;0.2684298;4.635582;1.043685;-0.09228069;4.558735;1.107886;-0.4535313;5.070799;0.425524;0.1514514;5.101509;1.154119;0.7804872;4.543089;1.043684;1.039966;4.354215;1.107885;0.9197382;3.516336;1.56808;0.1604234;2.988369;1.361972;0.01125538;2.489987;1.237664;0.1302652;1.261332;0.4521058;0;0;0;0.01125538;2.489987;1.237664;0.1302652;1.261332;0.4521058;0;0;0
825504.0155;NotLabelled;NONE;16384;0.8014761;0.4404432;0.333795;0.2285319;-3;-2;-4;2738;-2308;1879;65536;-0.5692521;-0.2853186;0.7462881;0.1939058;2;9;5;2730;-333;-3104;8192;0.4861496;-0.7239383;-0.4529086;-0.1855956;-5;3;-1;2008;3621;-549;32768;0.1897507;-0.7599437;-0.2368421;-0.5747922;3;-3;2;-423;2286;3173;256;0.1468144;-0.267313;-0.6925416;-0.6537396;3;0;-1;733;3984;-127;128;-0.07202215;0.1772853;0.6620498;0.724619;1;7;-2;-713;3933;532;4;0.6564469;-0.2783934;0.4168975;0.5637119;4;21;4;2184;3006;778;16;0.759719;-0.6260388;0.03047091;-0.1731302;-5;19;0;1311;3707;-860;2;0.4653739;-0.5933833;-0.4833795;-0.4445983;0;25;-5;818;3958;-454;8;0.4861496;-0.8702934;-0.07756232;0.01523546;-2;13;4;-897;3435;2259;0.3162321;2.533468;1.234653;0.3221596;3.073638;1.158481;0.3273666;3.548165;1.089522;0.4590073;4.270047;1.085081;0.2629769;4.637077;1.044971;-0.09787816;4.560737;1.108963;-0.458718;5.071625;0.425503;0.1469971;5.103467;1.15344;0.7748795;4.543731;1.04497;1.034026;4.354331;1.108961;0.9157534;3.515368;1.567686;0.1576974;2.986046;1.360425;0.003970683;2.490766;1.233427;0.1279231;1.263678;0.4461842;0;0;0;0.003970683;2.490766;1.233427;0.1279231;1.263678;0.4461842;0;0;0
825524.8277;NotLabelled;NONE;16384;0.7997377;0.4418283;0.33518;0.2299169;-1;-3;0;2530;-2298;1789;65536;-0.5706371;-0.2894737;0.7436255;0.1939058;3;7;0;2398;-415;-2646;8192;0.4875346;-0.7230063;-0.4529086;-0.1855956;-5;4;-1;1956;3447;-497;32768;0.1911357;-0.7585465;-0.2368421;-0.5761772;3;-4;3;-553;2054;3203;256;0.1481994;-0.267313;-0.6909359;-0.6551247;5;2;-1;813;3772;-155;128;-0.06925207;0.1759003;0.6620498;0.7252264;2;14;0;-751;3803;468;4;0.6587951;-0.2797784;0.4141274;0.5623268;4;25;5;2130;2902;960;16;0.7591367;-0.6260388;0.02908587;-0.1759003;-5;19;0;1483;3629;-748;2;0.4639889;-0.5911613;-0.4861496;-0.4459834;-4;23;-7;734;3750;-404;8;0.4861496;-0.8701919;-0.07894737;0.01385042;-1;9;3;-515;3245;1951;0.3168349;2.531577;1.232673;0.3227595;3.071495;1.154734;0.327964;3.545794;1.084224;0.4587965;4.267835;1.082481;0.26238;4.634788;1.043571;-0.09843099;4.557812;1.107047;-0.459616;5.07014;0.424849;0.1458306;5.103669;1.152934;0.7743872;4.542016;1.04357;1.033704;4.352676;1.107046;0.918413;3.513515;1.566166;0.1618009;2.982322;1.358416;0.004573345;2.48887;1.231597;0.130878;1.266364;0.4376309;0;0;0;0.004573345;2.48887;1.231597;0.130878;1.266364;0.4376309;0;0;0
825545.0721;NotLabelled;NONE;16384;0.8003168;0.4418283;0.333795;0.2299169;0;-4;1;2522;-2210;1623;65536;-0.5692521;-0.2894737;0.7443242;0.1952908;4;3;-3;2516;-237;-2572;8192;0.4875346;-0.7221369;-0.4542936;-0.1855956;-5;6;0;1860;3263;-457;32768;0.1911357;-0.7585465;-0.2368421;-0.5761772;3;0;3;-503;1880;3203;256;0.1468144;-0.267313;-0.6912315;-0.6551247;6;7;-2;847;3650;-183;128;-0.06648199;0.1745152;0.6634349;0.7245542;0;17;0;-737;3621;474;4;0.661428;-0.2811634;0.4127424;0.5595568;5;30;3;2166;2880;896;16;0.7584895;-0.6260388;0.02908587;-0.1786704;-7;-2;1;2033;3567;-612;2;0.4639889;-0.5879155;-0.4875346;-0.4487534;-4;27;-8;320;3662;-290;8;0.4861496;-0.8702129;-0.07894737;0.01246537;0;-1;0;-557;3497;1973;0.3098377;2.529358;1.235562;0.315763;3.069341;1.158069;0.3209683;3.543699;1.087951;0.449541;4.266146;1.088912;0.252002;4.632621;1.051203;-0.1086071;4.554287;1.114164;-0.473168;5.065804;0.4331535;0.1327898;5.105555;1.160499;0.764297;4.541453;1.051202;1.024164;4.352696;1.114162;0.9108732;3.512466;1.571824;0.1571334;2.979162;1.3591;-0.002423763;2.486653;1.234448;0.1312246;1.265811;0.4391235;0;0;0;-0.002423763;2.486653;1.234448;0.1312246;1.265811;0.4391235;0;0;0
825565.9611;NotLabelled;NONE;16384;0.7995505;0.4432133;0.333795;0.2299169;2;-7;2;2424;-2260;1567;65536;-0.5692521;-0.2908587;0.7437841;0.1952908;6;1;-6;2514;-193;-2628;8192;0.4875346;-0.7221369;-0.4542936;-0.1855956;-5;5;-1;1878;3125;-533;32768;0.1911357;-0.7585465;-0.2368421;-0.5761772;3;-3;4;-401;1772;3149;256;0.1454294;-0.267313;-0.6902094;-0.6565097;8;11;-2;861;3546;-53;128;-0.06509695;0.1731302;0.6634349;0.7250121;-6;22;0;-767;3533;624;4;0.6642989;-0.2839335;0.4099723;0.5567867;9;28;2;2178;3032;1110;16;0.7578216;-0.6274238;0.033241;-0.1759003;-7;-37;0;2033;3587;-792;2;0.4639889;-0.5846353;-0.4889196;-0.4515235;-4;27;-7;-74;4004;-468;8;0.4861496;-0.8701919;-0.07894737;0.01385042;0;-1;0;-949;3741;2291;0.3165559;2.527265;1.239202;0.3224787;3.067019;1.160131;0.3276817;3.541169;1.088628;0.4577024;4.263358;1.089525;0.2608796;4.630229;1.051913;-0.09985459;4.552618;1.115052;-0.4653254;5.067185;0.4368333;0.1409765;5.103966;1.164049;0.7729906;4.538033;1.051659;1.03251;4.348756;1.114491;0.9227527;3.507503;1.571132;0.1684851;2.974199;1.360289;0.004294276;2.484557;1.238223;0.136141;1.264503;0.4413892;0;0;0;0.004294276;2.484557;1.238223;0.136141;1.264503;0.4413892;0;0;0
825586.8537;NotLabelled;NONE;16384;0.7997281;0.4432133;0.33241;0.2313019;6;-9;2;2394;-2364;1483;65536;-0.567867;-0.2908587;0.7452038;0.1939058;10;0;-9;2418;-167;-2788;8192;0.4889196;-0.7211998;-0.4542936;-0.1855956;-6;6;-4;1948;3039;-651;32768;0.1925208;-0.7586274;-0.2354571;-0.5761772;2;-10;4;-349;1746;3143;256;0.1454294;-0.265928;-0.6894252;-0.6578947;10;13;-2;979;3558;-105;128;-0.06232687;0.1717452;0.6620498;0.7268487;-10;27;2;-727;3671;564;4;0.6657168;-0.2853186;0.4085872;0.5554016;4;17;1;2080;3286;1166;16;0.759724;-0.6260388;0.03739612;-0.1717452;2;-43;-1;1385;3617;-956;2;0.4639889;-0.5790617;-0.4916897;-0.4556787;-2;15;-3;-50;4050;-330;8;0.4861496;-0.8700652;-0.08033241;0.01385042;-3;5;-3;-485;3777;1881;0.3201041;2.527102;1.236641;0.3260272;3.066885;1.157771;0.3312304;3.541062;1.086444;0.4618843;4.263128;1.090115;0.2654273;4.630306;1.053611;-0.09544748;4.552784;1.116052;-0.4614783;5.066792;0.4377107;0.1456412;5.105267;1.164156;0.7774571;4.53766;1.05361;1.036738;4.347928;1.116052;0.9264372;3.508011;1.575017;0.1719158;2.974707;1.365083;0.007842541;2.484394;1.235645;0.1433382;1.264453;0.4392513;0;0;0;0.007842541;2.484394;1.235645;0.1433382;1.264453;0.4392513;0;0;0
825607.9754;NotLabelled;NONE;16384;0.7999008;0.4432133;0.3310249;0.232687;11;-14;1;2474;-2562;1603;65536;-0.5650969;-0.2908587;0.7476646;0.1925208;15;-3;-15;2398;-165;-3024;8192;0.4903047;-0.7186631;-0.4556787;-0.1883656;-3;8;-12;2010;3273;-947;32768;0.1966759;-0.7588398;-0.2313019;-0.5761772;4;-17;6;-647;2042;3761;256;0.1426593;-0.2645429;-0.6892138;-0.6592798;13;19;-2;999;3632;-43;128;-0.05955679;0.1689751;0.6620498;0.7277296;-9;24;4;-495;4235;364;4;0.6682707;-0.2867036;0.4072022;0.5526316;-2;9;3;1736;4234;1046;16;0.7613395;-0.6260388;0.04155125;-0.1634349;-2;-25;-6;1171;4633;-306;2;0.4639889;-0.5779691;-0.4916897;-0.4570637;-1;9;-4;-198;3822;-382;8;0.4861496;-0.8700652;-0.08033241;0.01385042;-6;1;-4;-419;3609;1837;0.318868;2.525891;1.240279;0.3247949;3.066022;1.163824;0.3300016;3.540513;1.094618;0.4586492;4.262929;1.0999;0.2611877;4.629638;1.064112;-0.09949446;4.550981;1.126245;-0.4651752;5.064871;0.4476271;0.1401305;5.104013;1.175549;0.7734727;4.538414;1.064111;1.033255;4.349266;1.126244;0.9265566;3.508294;1.584126;0.1722146;2.974482;1.37484;0.00660646;2.483188;1.239077;0.1428576;1.263283;0.4427567;0;0;0;0.00660646;2.483188;1.239077;0.1428576;1.263283;0.4427567;0;0;0
825627.9705;NotLabelled;NONE;16384;0.799565;0.4432133;0.3268698;0.2396122;18;-25;-5;2920;-2406;1831;65536;-0.5595568;-0.2922437;0.7523352;0.1883656;24;-6;-21;3136;-569;-3524;8192;0.4903047;-0.7182987;-0.4556787;-0.1897507;0;11;-13;2242;3791;-907;32768;0.1980609;-0.7578468;-0.2299169;-0.5775623;3;-5;10;-657;2464;4411;256;0.1371191;-0.2603878;-0.6892653;-0.6620498;6;23;-2;527;4556;159;128;-0.0567867;0.1648199;0.6606648;0.7301587;-8;6;1;89;4947;454;4;0.6676748;-0.2880886;0.4072022;0.5526316;0;-1;2;1652;3674;570;16;0.7617729;-0.6260388;0.04432133;-0.1606648;-3;-23;-6;1345;4303;-370;2;0.4653739;-0.5769343;-0.4903047;-0.4584487;1;-6;-7;-2;3716;-320;8;0.4847645;-0.8708377;-0.08033241;0.01385042;-9;1;-5;-515;3569;1805;0.3219235;2.526911;1.237618;0.3278511;3.067094;1.161536;0.3330582;3.541633;1.092657;0.4626037;4.263874;1.09958;0.2656178;4.630907;1.064492;-0.09519351;4.552565;1.126272;-0.4671298;5.065874;0.4506195;0.1368391;5.104547;1.179675;0.7777886;4.539044;1.064551;1.037303;4.349438;1.126402;0.938122;3.506299;1.581986;0.1843366;2.970971;1.374578;0.009662092;2.484209;1.236384;0.1414832;1.265015;0.438231;0;0;0;0.009662092;2.484209;1.236384;0.1414832;1.265015;0.438231;0;0;0
825648.91;NotLabelled;NONE;16384;0.7997797;0.4418283;0.3240997;0.2451524;19;-28;-4;3114;-2134;1985;65536;-0.5567867;-0.2922437;0.7550738;0.1855956;24;-4;-16;3412;-867;-3444;8192;0.4916897;-0.7166128;-0.4556787;-0.1925208;2;15;-9;2462;4233;-643;32768;0.1980609;-0.7563671;-0.2313019;-0.5789474;1;15;15;-687;2730;4491;256;0.1357341;-0.2576177;-0.6892486;-0.6634349;-1;10;-3;443;4684;115;128;-0.05540166;0.1648199;0.6606648;0.7302651;-4;-1;0;-59;4623;402;4;0.6676748;-0.2880886;0.4072022;0.5526316;1;-6;0;1600;3262;648;16;0.7614164;-0.6274238;0.04570637;-0.1565097;-3;-25;-7;1453;3917;-466;2;0.466759;-0.5769908;-0.4889196;-0.4584487;2;-4;-9;454;3936;-234;8;0.4847645;-0.8708145;-0.08033241;0.01523546;-8;-5;-6;-697;3599;2327;0.3394772;2.528954;1.234037;0.3454084;3.069462;1.160302;0.3506188;3.544295;1.093485;0.4807805;4.266402;1.102599;0.284124;4.633706;1.068517;-0.07678014;4.55549;1.129914;-0.4515205;5.066592;0.4541376;0.1507521;5.107899;1.184451;0.7962159;4.541403;1.068516;1.055542;4.351392;1.129913;0.9595449;3.507066;1.583977;0.2044117;2.971027;1.38342;0.02721578;2.486258;1.232602;0.1489212;1.264857;0.436218;0;0;0;0.02721578;2.486258;1.232602;0.1489212;1.264857;0.436218;0;0;0
825669.8254;NotLabelled;NONE;16384;0.7998192;0.4404432;0.3227147;0.2493075;19;-22;2;3382;-2040;2277;65536;-0.5540166;-0.2936288;0.756911;0.1842105;21;-3;-10;3436;-961;-3298;8192;0.4903047;-0.7163062;-0.4570637;-0.1939058;5;19;-3;2486;4213;-247;32768;0.1966759;-0.7541752;-0.232687;-0.5817174;2;25;17;-821;2922;4025;256;0.1357341;-0.2576177;-0.6892486;-0.6634349;-6;3;-4;639;4434;13;128;-0.0567867;0.1648199;0.6592798;0.7314095;-6;-7;0;-491;4039;618;4;0.6676748;-0.2880886;0.4072022;0.5526316;-1;-2;0;1708;3170;916;16;0.7607536;-0.6288089;0.04709141;-0.1537396;-3;-18;-5;1143;3991;-416;2;0.468144;-0.5759376;-0.4875346;-0.4598338;0;-2;-5;676;4290;-100;8;0.4833795;-0.8715588;-0.08033241;0.0166205;-6;-3;-5;-1273;3707;2731;0.3466945;2.531104;1.22769;0.352626;3.071638;1.154145;0.3578367;3.546495;1.087494;0.4862587;4.268905;1.097202;0.2887236;4.635761;1.063384;-0.07199997;4.556629;1.124668;-0.447366;5.063757;0.4462504;0.1529975;5.106518;1.178051;0.8010359;4.544691;1.063384;1.06081;4.355256;1.124666;0.9681174;3.508163;1.57424;0.2135252;2.970556;1.375854;0.03443319;2.488408;1.226239;0.1512373;1.267008;0.4291216;0;0;0;0.03443319;2.488408;1.226239;0.1512373;1.267008;0.4291216;0;0;0
825689.8208;NotLabelled;NONE;16384;0.8008248;0.4390582;0.3199446;0.2520775;19;-10;8;3504;-1880;2483;65536;-0.5526316;-0.2950138;0.7580531;0.1814404;15;-1;-6;3096;-939;-2966;8192;0.4889196;-0.7156123;-0.4584487;-0.1966759;7;20;1;2238;3963;-41;32768;0.1966759;-0.7522433;-0.2354571;-0.5831025;7;23;14;-815;2936;3265;256;0.1371191;-0.2562327;-0.6908207;-0.6620498;-4;3;-6;473;4162;-95;128;-0.0567867;0.166205;0.6578947;0.7323426;-5;-1;0;-671;3855;592;4;0.6676748;-0.2880886;0.4072022;0.5526316;-1;-2;0;1618;3428;842;16;0.7610322;-0.6288089;0.04709141;-0.1523546;-1;-8;-3;853;3969;-402;2;0.468144;-0.5781384;-0.4875346;-0.4570637;0;-5;3;1324;4372;122;8;0.4819945;-0.8720913;-0.08310249;0.01523546;0;2;-1;-559;3433;2583;0.3482583;2.532583;1.222876;0.3541923;3.073362;1.151147;0.3594055;3.54844;1.086092;0.4878274;4.270849;1.0958;0.2902924;4.637707;1.061982;-0.07043117;4.558574;1.123265;-0.4446445;5.061827;0.4413342;0.1501101;5.105847;1.177626;0.8026047;4.546637;1.061981;1.062379;4.357201;1.123264;0.967615;3.510578;1.573291;0.2143516;2.973032;1.369756;0.03599703;2.489893;1.221271;0.1528008;1.268492;0.424153;0;0;0;0.03599703;2.489893;1.221271;0.1528008;1.268492;0.424153;0;0;0
825710.0159;NotLabelled;NONE;16384;0.802134;0.4376731;0.3185596;0.2520775;17;2;10;3238;-1840;2607;65536;-0.5526316;-0.2963989;0.7578431;0.1800554;8;-6;-5;2664;-799;-2814;8192;0.4889196;-0.713447;-0.4612188;-0.1980609;7;16;4;1936;3859;-89;32768;0.1966759;-0.7498527;-0.2396122;-0.5844875;10;11;11;-711;2796;2645;256;0.1371191;-0.2548476;-0.6900038;-0.6634349;0;5;-5;405;3834;-223;128;-0.0567867;0.166205;0.6578947;0.7323426;-4;2;0;-743;3941;542;4;0.6662281;-0.2894737;0.4085872;0.5526316;0;0;-7;2192;3550;804;16;0.760162;-0.6301939;0.04709141;-0.1509695;2;-3;-1;1511;3955;-368;2;0.468144;-0.5780621;-0.4889196;-0.4556787;-1;-1;6;1448;4072;-158;8;0.4819945;-0.8721969;-0.08171745;0.0166205;4;-7;0;-915;3401;2649;0.3462227;2.533224;1.22181;0.3521596;3.074266;1.152101;0.3573754;3.549584;1.08882;0.4839212;4.272365;1.094805;0.2854233;4.63853;1.059175;-0.07507604;4.558774;1.120967;-0.4442495;5.057866;0.4332551;0.1462953;5.106147;1.172662;0.7979708;4.548793;1.059488;1.058254;4.360348;1.12166;0.9599704;3.515007;1.573338;0.2093656;2.97451;1.367808;0.03396153;2.49054;1.220033;0.1508225;1.26914;0.4229231;0;0;0;0.03396153;2.49054;1.220033;0.1508225;1.26914;0.4229231;0;0;0
825730.824;NotLabelled;NONE;16384;0.8066545;0.432133;0.3157895;0.2506925;7;7;7;2614;-1956;2525;65536;-0.5526316;-0.2950138;0.7587108;0.1786704;-3;-9;-6;2258;-413;-3064;8192;0.4861496;-0.7126412;-0.4653739;-0.1980609;1;11;8;1722;3565;31;32768;0.1980609;-0.7475133;-0.2423823;-0.5858725;0;2;2;-819;2432;2715;256;0.1371191;-0.2520775;-0.6896881;-0.66482;6;12;-1;577;3884;-9;128;-0.05401662;0.1648199;0.6578947;0.732865;-1;11;0;-577;4151;464;4;0.6653767;-0.2894737;0.4099723;0.5526316;-2;5;-6;2106;3470;814;16;0.7603487;-0.6301939;0.04847645;-0.1495845;3;-19;-2;1505;4055;-420;2;0.466759;-0.5790982;-0.4903047;-0.4542936;-1;3;5;1202;3998;-226;8;0.4819945;-0.872066;-0.08310249;0.0166205;6;10;3;-1005;3397;2549;0.3521919;2.538482;1.211294;0.3581288;3.079525;1.141584;0.3633446;3.554842;1.078304;0.487903;4.277954;1.085889;0.2883905;4.643651;1.051126;-0.07187408;4.562764;1.112817;-0.4390989;5.064072;0.4256741;0.1523749;5.115864;1.1641;0.801183;4.555323;1.051125;1.061997;4.367456;1.112816;0.9667112;3.520175;1.561491;0.2191034;2.975349;1.356469;0.03993058;2.495798;1.209516;0.1528109;1.270677;0.4175593;0;0;0;0.03993058;2.495798;1.209516;0.1528109;1.270677;0.4175593;0;0;0
825751.8243;NotLabelled;NONE;16384;0.8078237;0.4307479;0.3157895;0.2493075;3;4;4;2422;-2002;2301;65536;-0.5512465;-0.2922437;0.7611115;0.1772853;-4;-6;-5;2298;-207;-3258;8192;0.4861496;-0.7117348;-0.466759;-0.1980609;0;9;7;1510;3447;-21;32768;0.1980609;-0.7475133;-0.2423823;-0.5858725;0;-2;0;-461;2366;3077;256;0.1357341;-0.2506925;-0.6891302;-0.666205;6;12;0;621;3844;-5;128;-0.05263158;0.1634349;0.6578947;0.7332759;0;16;1;-443;4111;402;4;0.6659213;-0.2908587;0.4099723;0.5512465;-3;9;-8;1886;3308;636;16;0.7619441;-0.6288089;0.04986149;-0.1468144;3;-22;-1;1071;4033;-490;2;0.4653739;-0.5790385;-0.4916897;-0.4542936;-2;9;3;1170;3950;-268;8;0.4819945;-0.8719813;-0.08448754;0.01385042;4;17;5;-545;3433;2203;0.3608901;2.539934;1.209205;0.3668275;3.081023;1.139855;0.3720438;3.556382;1.07689;0.4933997;4.280031;1.08513;0.2922798;4.644872;1.050633;-0.06763881;4.562339;1.112163;-0.4295908;5.060669;0.4200751;0.1640776;5.112707;1.156721;0.8054581;4.558814;1.050685;1.067086;4.372049;1.11228;0.9741554;3.528045;1.567578;0.2298545;2.978424;1.363324;0.04862887;2.497251;1.207397;0.155119;1.270611;0.4169069;0;0;0;0.04862887;2.497251;1.207397;0.155119;1.270611;0.4169069;0;0;0
825771.8244;NotLabelled;NONE;16384;0.8078237;0.4307479;0.3157895;0.2493075;0;0;0;2472;-2008;2189;65536;-0.5526316;-0.2908587;0.7606375;0.1772853;-3;-2;-3;2572;-189;-3486;8192;0.4861496;-0.7108246;-0.468144;-0.1980609;-1;2;5;1456;3373;-45;32768;0.199446;-0.7475929;-0.2409972;-0.5858725;-1;-9;-2;-237;2328;3249;256;0.134349;-0.2493075;-0.6899036;-0.666205;5;10;3;517;3842;-39;128;-0.05124654;0.1606648;0.6592798;0.732742;1;16;1;-425;4093;268;4;0.6656058;-0.2922437;0.4113573;0.5498615;0;13;-9;1894;3228;582;16;0.7623808;-0.6288089;0.05124654;-0.1440443;4;-15;0;887;4017;-772;2;0.4639889;-0.5789723;-0.4930748;-0.4542936;-2;14;0;834;3852;-322;8;0.4833795;-0.8710998;-0.08587258;0.01246537;5;10;4;-505;3515;1981;0.3624836;2.541112;1.209315;0.3684212;3.082221;1.14013;0.3736377;3.5576;1.077309;0.4944593;4.281317;1.087243;0.293081;4.646088;1.053525;-0.06679392;4.563148;1.114765;-0.4266808;5.061612;0.4216962;0.1669086;5.111166;1.158576;0.8063222;4.560407;1.053524;1.06807;4.373693;1.114764;0.9765347;3.5297;1.570364;0.2314187;2.980079;1.369101;0.05022234;2.498429;1.207493;0.1526397;1.270291;0.4187941;0;0;0;0.05022234;2.498429;1.207493;0.1526397;1.270291;0.4187941;0;0;0
825793.857;NotLabelled;NONE;16384;0.8082498;0.4307479;0.3157895;0.2479224;0;-2;-2;2478;-2098;2089;65536;-0.5526316;-0.2908587;0.7606375;0.1772853;0;0;0;2546;-247;-3454;8192;0.4861496;-0.7108246;-0.468144;-0.1980609;-2;-2;3;1574;3435;-55;32768;0.199446;-0.7480379;-0.2396122;-0.5858725;-4;-7;-4;-261;2246;3257;256;0.132964;-0.2479224;-0.689332;-0.66759;2;11;2;551;3964;-7;128;-0.04986149;0.1592798;0.6592798;0.7331398;1;14;0;-419;4091;326;4;0.6663806;-0.2950138;0.4099723;0.5484765;3;19;-6;1956;3310;694;16;0.7634268;-0.6274238;0.05263158;-0.1440443;6;0;3;993;3977;-754;2;0.4626039;-0.5743282;-0.4972299;-0.4570637;-4;21;-6;218;3898;-262;8;0.4847645;-0.8700708;-0.08864266;0.01108033;2;8;2;-739;3531;2031;0.3702935;2.544688;1.203497;0.3762285;3.085557;1.132449;0.3814427;3.560716;1.067993;0.5025029;4.284407;1.076896;0.3012359;4.649196;1.04272;-0.05865204;4.566461;1.104158;-0.421039;5.064923;0.4123932;0.1780391;5.113954;1.144854;0.8144492;4.563348;1.042719;1.07615;4.376635;1.104157;0.9876561;3.532956;1.560941;0.2422706;2.98288;1.361932;0.05803227;2.502;1.201833;0.1530713;1.270865;0.4168906;0;0;0;0.05803227;2.502;1.201833;0.1530713;1.270865;0.4168906;0;0;0
825814.8206;NotLabelled;NONE;16384;0.8078237;0.4307479;0.3157895;0.2493075;0;-4;-3;2592;-2034;1955;65536;-0.5526316;-0.2908587;0.7606375;0.1772853;3;3;0;2522;-443;-3264;8192;0.4889196;-0.7102199;-0.466759;-0.1966759;-5;-3;-3;1920;3581;-455;32768;0.200831;-0.7489862;-0.2354571;-0.5858725;-4;-13;-1;-123;2306;3323;256;0.1315789;-0.2479224;-0.6895977;-0.66759;0;8;2;637;4020;-11;128;-0.04847645;0.1578947;0.6606648;0.732285;1;12;0;-441;3969;348;4;0.6680382;-0.2963989;0.4099723;0.5457063;3;19;-2;1754;3434;954;16;0.7634268;-0.6274238;0.05263158;-0.1440443;5;0;4;1187;3939;-676;2;0.4626039;-0.570906;-0.4986149;-0.4598338;-3;16;-7;24;3886;-52;8;0.4847645;-0.8700708;-0.08864266;0.01108033;0;4;1;-651;3583;1883;0.3712961;2.545249;1.204377;0.3772313;3.086138;1.133485;0.3824456;3.561316;1.069166;0.5029756;4.28507;1.079792;0.3014563;4.649792;1.046382;-0.05839497;4.566653;1.107489;-0.4231554;5.066266;0.4178044;0.1787799;5.115295;1.147919;0.8147321;4.564318;1.046381;1.076545;4.377652;1.107488;0.9901029;3.533974;1.564664;0.2430773;2.985268;1.368039;0.05903476;2.502561;1.202699;0.1545522;1.269252;0.421236;0;0;0;0.05903476;2.502561;1.202699;0.1545522;1.269252;0.421236;0;0;0
825835.8444;NotLabelled;NONE;16384;0.8069636;0.4307479;0.3157895;0.2520775;3;-7;-2;2738;-2024;1881;65536;-0.5512465;-0.2936288;0.7608998;0.1759003;7;1;-4;2388;-741;-2940;8192;0.4889196;-0.7102199;-0.466759;-0.1966759;-4;1;-5;2176;3601;-561;32768;0.200831;-0.7505009;-0.234072;-0.5844875;0;-9;0;-507;2322;3363;256;0.1301939;-0.2465374;-0.6916934;-0.666205;-1;4;0;549;3888;45;128;-0.04709141;0.1537396;0.6606648;0.7332589;0;11;0;-247;3985;420;4;0.6701813;-0.299169;0.4099723;0.5415512;0;8;-2;1700;3448;994;16;0.7644664;-0.6260388;0.05401662;-0.1440443;3;-3;1;1509;3923;-750;2;0.4639889;-0.5686604;-0.4986149;-0.4612188;-2;4;-6;20;3914;-162;8;0.4861496;-0.8692976;-0.08864266;0.01108033;-1;-8;-1;-583;3531;2001;0.3767754;2.546069;1.203178;0.382708;3.086712;1.130431;0.3879198;3.561666;1.064482;0.5099034;4.285178;1.075112;0.3091171;4.650304;1.041704;-0.05090052;4.567887;1.10281;-0.4177252;5.066351;0.413388;0.1856544;5.11538;1.142309;0.82222;4.563799;1.041703;1.083657;4.376608;1.102809;1.003098;3.531466;1.558354;0.2545171;2.985048;1.361268;0.06451404;2.503376;1.201659;0.1553857;1.269252;0.4209292;0;0;0;0.06451404;2.503376;1.201659;0.1553857;1.269252;0.4209292;0;0;0
825856.8234;NotLabelled;NONE;16384;0.8072678;0.4293629;0.3157895;0.2534626;6;-5;0;2896;-2010;1919;65536;-0.5512465;-0.2936288;0.7612187;0.1745152;8;-2;-8;2380;-753;-2920;8192;0.4903047;-0.7092643;-0.466759;-0.1966759;-2;4;-6;2198;3559;-439;32768;0.2022161;-0.7490476;-0.234072;-0.5858725;3;-2;2;-565;2354;3433;256;0.1301939;-0.2465374;-0.6916934;-0.666205;0;2;0;525;3906;69;128;-0.04570637;0.1523546;0.6606648;0.7336355;-3;11;1;-383;4093;466;4;0.6701813;-0.299169;0.4099723;0.5415512;-2;-4;-1;1924;3594;1084;16;0.7655986;-0.6246537;0.05401662;-0.1440443;2;7;0;1213;3939;-944;2;0.4653739;-0.5687413;-0.4972299;-0.4612188;0;-3;-6;8;3848;-256;8;0.4847645;-0.870192;-0.08725762;0.01246537;-2;-9;-2;-817;3595;2095;0.3860815;2.546744;1.204605;0.3920142;3.087401;1.131971;0.3972262;3.56237;1.06612;0.5201954;4.28576;1.072983;0.3198734;4.650983;1.037899;-0.04020238;4.569365;1.099729;-0.4115951;5.065523;0.4110893;0.1917336;5.118591;1.13977;0.8328589;4.563784;1.037897;1.094096;4.376551;1.099727;1.015593;3.53141;1.555631;0.2643481;2.986568;1.36441;0.07382005;2.50405;1.203076;0.1571724;1.26762;0.4251617;0;0;0;0.07382005;2.50405;1.203076;0.1571724;1.26762;0.4251617;0;0;0
825877.081;NotLabelled;NONE;16384;0.8068316;0.4293629;0.3157895;0.2548476;8;-6;0;2844;-1994;1991;65536;-0.5498615;-0.2950138;0.7623141;0.1717452;9;-5;-10;2526;-695;-3082;8192;0.4903047;-0.7092643;-0.466759;-0.1966759;-1;5;-5;2098;3485;-349;32768;0.2022161;-0.7490476;-0.234072;-0.5858725;3;-1;5;-693;2416;3409;256;0.1301939;-0.2465374;-0.6916934;-0.666205;0;1;-1;601;3956;133;128;-0.04570637;0.1509695;0.6606648;0.7339218;-3;9;2;-355;4165;460;4;0.6690597;-0.299169;0.4099723;0.5429363;-3;-15;0;1862;3622;980;16;0.7649958;-0.6246537;0.05124654;-0.1481994;0;42;4;969;4011;-906;2;0.466759;-0.5676897;-0.4958449;-0.4626039;2;-7;-5;238;3956;-262;8;0.4847645;-0.8703297;-0.08587258;0.01246537;-5;0;0;-597;3533;2245;0.3833043;2.545797;1.208423;0.3892373;3.086474;1.135932;0.3944494;3.561459;1.070207;0.5174183;4.28485;1.077075;0.3170979;4.650074;1.041982;-0.04298049;4.568454;1.103796;-0.4136944;5.061789;0.4127672;0.1887536;5.116749;1.142036;0.8300834;4.562874;1.042003;1.091318;4.37564;1.103844;1.015486;3.529615;1.558558;0.2666001;2.982746;1.3639;0.07104295;2.503104;1.206883;0.1544287;1.266674;0.4289718;0;0;0;0.07104295;2.503104;1.206883;0.1544287;1.266674;0.4289718;0;0;0
825897.8209;NotLabelled;NONE;16384;0.8076693;0.4279778;0.3144044;0.2562327;9;-7;1;2842;-2044;2127;65536;-0.5484765;-0.2950138;0.7636215;0.1703601;9;-5;-10;2764;-639;-3204;8192;0.4903047;-0.7092643;-0.466759;-0.1966759;-1;4;-4;2068;3475;-285;32768;0.2022161;-0.7490476;-0.234072;-0.5858725;1;0;4;-795;2448;3373;256;0.1301939;-0.2451524;-0.6921855;-0.666205;0;1;-1;631;4074;161;128;-0.04432133;0.1495845;0.6606648;0.7342902;-4;7;2;-345;4183;336;4;0.6677007;-0.2977839;0.4113573;0.5443213;-4;-16;0;2070;3404;932;16;0.7631994;-0.6246537;0.04432133;-0.1592798;-1;93;7;1269;4021;-976;2;0.468144;-0.5689605;-0.4930748;-0.4626039;5;-9;-7;246;3852;-296;8;0.4833795;-0.8711185;-0.08587258;0.01108033;-11;-2;1;-607;3439;1857;0.3817839;2.545964;1.208388;0.3877167;3.086638;1.135879;0.3929289;3.561622;1.070139;0.5158981;4.285012;1.077002;0.3155762;4.650235;1.041918;-0.04449952;4.568617;1.103748;-0.4159917;5.060977;0.4124416;0.1823916;5.12025;1.144712;0.8285615;4.563036;1.041916;1.089799;4.375803;1.103746;1.014003;3.529657;1.558242;0.2651086;2.982788;1.363617;0.0695225;2.503271;1.206849;0.1550659;1.266161;0.4302539;0;0;0;0.0695225;2.503271;1.206849;0.1550659;1.266161;0.4302539;0;0;0
825917.9833;NotLabelled;NONE;16384;0.8084989;0.4265928;0.3130194;0.2576177;10;-8;1;2878;-2064;2233;65536;-0.5470914;-0.2950138;0.7649217;0.1689751;8;-5;-8;2878;-589;-3280;8192;0.4916897;-0.7083049;-0.466759;-0.1966759;-2;3;-4;2112;3575;-257;32768;0.2022161;-0.7490476;-0.234072;-0.5858725;0;0;2;-813;2490;3251;256;0.1301939;-0.2451524;-0.6921855;-0.666205;-1;0;-1;565;4130;97;128;-0.04432133;0.1481994;0.6606648;0.734571;-4;1;0;-359;4183;444;4;0.6677998;-0.2950138;0.4113573;0.5457063;-3;-12;6;2318;3400;882;16;0.7606514;-0.6260388;0.03739612;-0.16759;-2;55;4;1345;3943;-646;2;0.4695291;-0.5690853;-0.4903047;-0.4639889;6;-8;-10;306;3856;-152;8;0.4819945;-0.8718856;-0.08587258;0.01108033;-10;-10;0;-783;3751;1965;0.3892866;2.544355;1.212196;0.3952197;3.085049;1.139826;0.400432;3.560049;1.074208;0.5221735;4.283656;1.08006;0.3212249;4.648491;1.044515;-0.03870001;4.566345;1.106525;-0.4102498;5.056967;0.4140158;0.1865579;5.117043;1.147506;0.8343578;4.562162;1.044535;1.095924;4.375458;1.10657;1.022099;3.529428;1.561609;0.2727857;2.982559;1.368604;0.07702523;2.501663;1.210645;0.1586463;1.264581;0.433583;0;0;0;0.07702523;2.501663;1.210645;0.1586463;1.264581;0.433583;0;0;0
825938.0535;NotLabelled;NONE;16384;0.8096027;0.4238227;0.3116343;0.2603878;8;-1;1;2916;-1952;2369;65536;-0.5470914;-0.2950138;0.7652264;0.16759;4;-4;-2;2576;-685;-3204;8192;0.4916897;-0.7073902;-0.468144;-0.1966759;-4;3;-2;2036;3629;-203;32768;0.2022161;-0.7486134;-0.2354571;-0.5858725;-2;-2;0;-781;2548;3285;256;0.1315789;-0.2451524;-0.6919236;-0.666205;-1;0;-1;513;4046;95;128;-0.04432133;0.1481994;0.6606648;0.734571;-4;0;0;-391;4103;540;4;0.6682047;-0.2908587;0.4099723;0.5484765;0;-6;13;2178;3212;820;16;0.7581417;-0.6274238;0.033241;-0.1745152;-8;14;-2;1329;3921;-1064;2;0.4709141;-0.5691325;-0.4889196;-0.4639889;4;-8;-10;570;4398;-78;8;0.4806094;-0.8728993;-0.08310249;0.01246537;-8;-12;-2;-1135;3669;2521;0.3914405;2.54138;1.215393;0.3973736;3.082071;1.143007;0.402586;3.557069;1.077374;0.5243276;4.280676;1.083221;0.3233775;4.64551;1.047685;-0.03654492;4.563365;1.10971;-0.4036715;5.052602;0.4138691;0.1900036;5.113492;1.149831;0.8365105;4.559183;1.047684;1.098079;4.372478;1.109708;1.026012;3.525337;1.562955;0.2766901;2.978467;1.369981;0.07917911;2.498687;1.213844;0.1603767;1.265265;0.430942;0;0;0;0.07917911;2.498687;1.213844;0.1603767;1.265265;0.430942;0;0;0
825979.8231;NotLabelled;NONE;16384;0.8110468;0.4210526;0.3116343;0.2603878;2;0;0;2860;-1886;2487;65536;-0.5470914;-0.2950138;0.7658278;0.1648199;-3;-2;0;2538;-665;-3154;8192;0.4930748;-0.7068097;-0.468144;-0.1952908;-1;2;1;2020;3739;-113;32768;0.2022161;-0.7486134;-0.2354571;-0.5858725;0;-2;0;-479;2544;3427;256;0.132964;-0.2437673;-0.6921481;-0.666205;2;2;0;439;4044;-117;128;-0.04432133;0.1495845;0.6578947;0.7367731;-2;3;-3;-409;4089;750;4;0.6690626;-0.2894737;0.4058172;0.5512465;2;-3;12;2184;3448;1006;16;0.7565205;-0.6288089;0.02908587;-0.1772853;-8;19;-2;1171;4033;-428;2;0.4722992;-0.5691729;-0.4875346;-0.4639889;3;-5;-1;944;4022;-330;8;0.4778393;-0.8743047;-0.08448754;0.01108033;-7;10;4;-723;3431;2469;0.3904794;2.534568;1.224087;0.3964125;3.075259;1.1517;0.4016247;3.550257;1.086068;0.5219181;4.274107;1.091913;0.3202384;4.638538;1.056376;-0.03951895;4.555672;1.118401;-0.4016846;5.040686;0.4170263;0.1896795;5.103488;1.154685;0.8335431;4.553237;1.056375;1.095485;4.367057;1.1184;1.023937;3.520248;1.572351;0.2758678;2.972008;1.378412;0.0782181;2.491876;1.222538;0.1645986;1.265117;0.4297824;0;0;0;0.0782181;2.491876;1.222538;0.1645986;1.265117;0.4297824;0;0;0
826000.8128;NotLabelled;NONE;16384;0.8110468;0.4210526;0.3116343;0.2603878;-1;1;-1;2828;-1944;2427;65536;-0.5484765;-0.2950138;0.7648364;0.1648199;-6;-1;1;2638;-567;-3256;8192;0.4930748;-0.7068097;-0.468144;-0.1952908;0;1;2;1906;3637;-115;32768;0.2022161;-0.7486134;-0.2354571;-0.5858725;0;0;0;-389;2542;3241;256;0.132964;-0.2437673;-0.6921481;-0.666205;3;1;0;445;4106;-121;128;-0.04432133;0.1495845;0.6578947;0.7367731;-2;7;0;-535;4243;582;4;0.6685176;-0.2880886;0.4058172;0.5526316;-4;-3;9;1988;3422;922;16;0.7550929;-0.6301939;0.02770083;-0.1786704;-10;11;-4;1545;3979;-430;2;0.4709141;-0.5715005;-0.4861496;-0.4639889;4;3;-6;906;3970;-376;8;0.4764543;-0.8750767;-0.08448754;0.009695291;-3;-4;1;-245;3391;2223;0.3774726;2.531012;1.226101;0.3834116;3.072227;1.157741;0.3886291;3.5477;1.095646;0.5062435;4.271998;1.100481;0.3032081;4.635631;1.064494;-0.05622619;4.551519;1.126713;-0.4166681;5.033501;0.4223675;0.1731598;5.100131;1.16092;0.816825;4.552231;1.064493;1.079468;4.367106;1.126712;1.01222;3.5202;1.581139;0.2641103;2.97196;1.387357;0.06521142;2.488333;1.224208;0.1639451;1.266935;0.4246467;0;0;0;0.06521142;2.488333;1.224208;0.1639451;1.266935;0.4246467;0;0;0
826041.821;NotLabelled;NONE;16384;0.8105133;0.4210526;0.3130194;0.2603878;-4;2;-2;2860;-1934;2349;65536;-0.5484765;-0.2936288;0.7650697;0.166205;-7;0;2;2706;-491;-3404;8192;0.4944598;-0.7053031;-0.4695291;-0.1939058;0;0;2;1750;3709;-65;32768;0.2036011;-0.7482379;-0.2354571;-0.5858725;0;-1;-2;-279;2496;3177;256;0.132964;-0.2437673;-0.6908123;-0.66759;4;2;0;595;4056;-111;128;-0.04432133;0.1481994;0.6578947;0.7370529;0;8;1;-551;4217;530;4;0.6691127;-0.2867036;0.4058172;0.5526316;-9;1;8;2008;3286;762;16;0.7539348;-0.6315789;0.02770083;-0.1786704;-13;2;-4;1283;4019;-420;2;0.4695291;-0.5715139;-0.4861496;-0.4653739;4;9;-10;736;3880;-362;8;0.4764543;-0.8750909;-0.08448754;0.008310249;-3;3;3;-1173;3301;2411;0.3790079;2.530442;1.224525;0.3849469;3.071657;1.156165;0.3901643;3.54713;1.094069;0.5077788;4.271428;1.098904;0.3047434;4.635061;1.062918;-0.05469084;4.550949;1.125137;-0.4143391;5.032932;0.4203849;0.1778111;5.100646;1.156979;0.8183603;4.551661;1.062917;1.081003;4.366536;1.125135;1.013243;3.519631;1.579487;0.2651335;2.97139;1.385705;0.06674677;2.487762;1.222632;0.1663278;1.267892;0.420848;0;0;0;0.06674677;2.487762;1.222632;0.1663278;1.267892;0.420848;0;0;0
826062.0443;NotLabelled;NONE;16384;0.8104209;0.4210526;0.3144044;0.2590028;-9;0;-3;2922;-2068;2075;65536;-0.5498615;-0.2936288;0.7637722;0.16759;-7;7;4;2734;-493;-3284;8192;0.4944598;-0.7053031;-0.4695291;-0.1939058;-1;-1;2;1800;3737;-137;32768;0.2036011;-0.7486724;-0.234072;-0.5858725;0;-7;-2;19;2532;3209;256;0.1315789;-0.2437673;-0.6910774;-0.66759;4;4;0;659;4098;-155;128;-0.04293629;0.1481994;0.6592798;0.7358965;2;8;0;-583;4119;418;4;0.6734009;-0.2839335;0.4044321;0.5498615;-14;18;10;2160;2970;1146;16;0.7504842;-0.6357341;0.02631579;-0.1786704;-17;8;-2;1141;3935;-868;2;0.4695291;-0.5703833;-0.4861496;-0.466759;2;12;-10;570;4008;-230;8;0.4750692;-0.8757089;-0.08587258;0.008310249;-3;10;5;-1321;3419;2237;0.3829142;2.529078;1.224325;0.388853;3.070291;1.155948;0.3940705;3.545763;1.093837;0.5109329;4.270158;1.101417;0.3075431;4.633712;1.066652;-0.05184108;4.549;1.128344;-0.4136341;5.029898;0.423949;0.1792561;5.094091;1.160262;0.821246;4.550843;1.066651;1.084043;4.36576;1.128343;1.021274;3.519117;1.5839;0.2746538;2.969056;1.389532;0.07065296;2.486399;1.222434;0.1691344;1.268738;0.4171619;0;0;0;0.07065296;2.486399;1.222434;0.1691344;1.268738;0.4171619;0;0;0
826083.8245;NotLabelled;NONE;16384;0.8091606;0.4224377;0.3157895;0.2590028;-10;0;-2;2806;-2030;1951;65536;-0.5512465;-0.2950138;0.7619328;0.1689751;-6;10;5;2580;-577;-3152;8192;0.4944598;-0.7062232;-0.468144;-0.1939058;-2;0;0;1802;3713;-225;32768;0.2049861;-0.7487262;-0.232687;-0.5858725;0;-10;0;-51;2330;3131;256;0.1301939;-0.2437673;-0.6899996;-0.6689751;2;3;2;687;3886;-171;128;-0.0401662;0.1468144;0.6592798;0.7363303;2;6;-4;-681;3569;578;4;0.6787524;-0.2811634;0.4030471;0.5457063;-24;27;18;2566;2576;1406;16;0.7489771;-0.6371191;0.02631579;-0.1800554;-21;6;-3;1791;3711;-1306;2;0.4695291;-0.5680613;-0.4875346;-0.468144;0;15;-9;318;4206;30;8;0.4750692;-0.875584;-0.08725762;0.006925208;-1;4;3;-983;3393;2349;0.3953947;2.5249;1.222978;0.4013309;3.065875;1.152749;0.406546;3.541131;1.089012;0.5248601;4.265291;1.096595;0.3221996;4.629252;1.061831;-0.03735381;4.54526;1.123522;-0.4021887;5.026224;0.420743;0.1953171;5.089592;1.153388;0.8357353;4.545354;1.06183;1.098161;4.359744;1.123521;1.036298;3.513102;1.579202;0.288422;2.964411;1.385792;0.08313334;2.482214;1.221244;0.1762396;1.271933;0.4042935;0;0;0;0.08313334;2.482214;1.221244;0.1762396;1.271933;0.4042935;0;0;0
826103.8186;NotLabelled;NONE;16384;0.8084361;0.4238227;0.3157895;0.2590028;-9;0;1;2652;-1886;1733;65536;-0.5526316;-0.2963989;0.7603903;0.1689751;-4;14;4;2302;-653;-2874;8192;0.4958449;-0.7056308;-0.468144;-0.1925208;-3;1;0;1894;3569;-257;32768;0.2063712;-0.7487748;-0.2313019;-0.5858725;0;-10;3;-73;2214;3005;256;0.1301939;-0.2437673;-0.6899996;-0.6689751;3;1;0;645;3584;-209;128;-0.0401662;0.1468144;0.6592798;0.7363303;-1;11;-5;-897;3243;794;4;0.6845665;-0.2756233;0.398892;0.5443213;-16;27;36;3220;2044;1090;16;0.7471718;-0.6398892;0.02908587;-0.1772853;-28;-30;-4;2743;3421;-2468;2;0.4695291;-0.565723;-0.4889196;-0.4695291;-4;16;-6;220;4002;-236;8;0.4736842;-0.8761951;-0.08864266;0.006925208;-6;9;3;-1007;3337;2273;0.408236;2.51683;1.232904;0.4141727;3.057841;1.162949;0.4193882;3.53313;1.099453;0.5384036;4.25714;1.10979;0.3361192;4.621426;1.076252;-0.02355331;4.537557;1.137415;-0.3932987;5.01895;0.4375018;0.208499;5.083121;1.166555;0.8495728;4.537025;1.076251;1.11178;4.350932;1.137413;1.049302;3.50394;1.592358;0.3016626;2.9548;1.399308;0.09597468;2.474145;1.231147;0.1818799;1.272048;0.4014221;0;0;0;0.09597468;2.474145;1.231147;0.1818799;1.272048;0.4014221;0;0;0
826124.8318;NotLabelled;NONE;16384;0.8081513;0.4252077;0.3157895;0.2576177;-8;1;6;2508;-1888;1625;65536;-0.5526316;-0.2977839;0.7595397;0.1703601;-1;14;-1;2026;-537;-2652;8192;0.4958449;-0.7047099;-0.4695291;-0.1925208;-4;3;0;1884;3253;-211;32768;0.2077562;-0.7488184;-0.2299169;-0.5858725;2;-6;7;-105;2048;2811;256;0.1301939;-0.2437673;-0.6899996;-0.6689751;5;2;0;803;3300;-283;128;-0.03739612;0.1454294;0.6606648;0.7355093;0;20;-1;-807;3247;462;4;0.6899593;-0.2700831;0.3933518;0.5443213;-10;5;48;3196;2860;1520;16;0.7461686;-0.6426592;0.03462604;-0.1703601;-30;-62;-9;1959;3647;-2092;2;0.4709141;-0.5610889;-0.4889196;-0.4736842;-4;7;-6;-526;3704;-486;8;0.4722992;-0.8769523;-0.08864266;0.005540166;-11;-8;-1;-17;3721;1771;0.412732;2.503612;1.245884;0.4186687;3.044623;1.17593;0.4238842;3.519912;1.112434;0.5428996;4.243923;1.122771;0.3406152;4.608209;1.089233;-0.01905733;4.52434;1.150396;-0.3900687;5.007242;0.4521946;0.2139255;5.074132;1.179184;0.8540688;4.523808;1.089232;1.116276;4.337715;1.150394;1.05747;3.490641;1.605679;0.3103968;2.941056;1.41171;0.1004707;2.460927;1.244127;0.1887045;1.273398;0.3939232;0;0;0;0.1004707;2.460927;1.244127;0.1887045;1.273398;0.3939232;0;0;0
826146.8886;NotLabelled;NONE;16384;0.808207;0.4279778;0.3130194;0.2562327;-1;-11;4;2470;-2644;1655;65536;-0.5498615;-0.299169;0.760379;0.1731302;5;0;-17;2400;125;-2830;8192;0.4972299;-0.7037333;-0.4695291;-0.1925208;-5;7;-4;1722;2949;-455;32768;0.2105263;-0.7473823;-0.2285319;-0.5872576;4;-9;7;-9;1762;2969;256;0.1288089;-0.2437673;-0.6889144;-0.6703601;11;10;0;789;3314;-211;128;-0.03462604;0.1426593;0.6606648;0.736187;-1;24;3;-637;3795;424;4;0.6933596;-0.2645429;0.3891967;0.5457063;-17;-19;50;2860;3802;1708;16;0.7456504;-0.6454294;0.0401662;-0.1606648;-31;-72;-19;2481;4625;-2064;2;0.4722992;-0.5599578;-0.4875346;-0.4750692;0;-4;-14;-460;3802;-326;8;0.4709141;-0.8779721;-0.08587258;0.005540166;-13;-16;-3;-153;3859;1851;0.4107161;2.489795;1.257548;0.4166503;3.030577;1.185843;0.4218634;3.505657;1.12081;0.540879;4.229668;1.131147;0.3385945;4.593953;1.097609;-0.02107799;4.510085;1.158772;-0.3923528;4.995649;0.4625591;0.2123846;5.062268;1.188956;0.8520481;4.509553;1.097608;1.114255;4.323461;1.15877;1.056649;3.476745;1.614874;0.3101437;2.926714;1.419978;0.09845471;2.447104;1.25594;0.1944306;1.275236;0.3850947;0;0;0;0.09845471;2.447104;1.25594;0.1944306;1.275236;0.3850947;0;0;0
826166.8407;NotLabelled;NONE;16384;0.807124;0.4293629;0.3116343;0.2590028;2;-17;-5;2556;-2654;1709;65536;-0.5470914;-0.299169;0.7623745;0.1731302;10;-4;-18;3024;-29;-3200;8192;0.4986149;-0.7014439;-0.4709141;-0.1939058;-6;9;-12;1584;3231;-575;32768;0.2132964;-0.7474388;-0.2257618;-0.5872576;2;-19;4;-131;2068;3733;256;0.1274238;-0.2423823;-0.6883113;-0.6717451;13;15;1;825;3742;5;128;-0.033241;0.1398892;0.6606648;0.7367823;0;17;3;-373;4625;310;4;0.6997709;-0.2465374;0.3836565;0.5498615;-22;0;60;3150;4024;1082;16;0.7370529;-0.6578947;0.04432133;-0.1481994;-53;0;-8;2897;5621;-492;2;0.4736842;-0.560016;-0.4847645;-0.4764543;5;-5;-16;390;3990;-470;8;0.4695291;-0.8788381;-0.08448754;0.006925208;-12;-9;-1;-511;3631;2451;0.4079388;2.479372;1.26316;0.4138732;3.020183;1.191679;0.4190867;3.495291;1.126842;0.5388047;4.219141;1.139939;0.3368976;4.583747;1.107631;-0.0228942;4.500004;1.168262;-0.3929805;4.991889;0.4758636;0.210008;5.054125;1.2041;0.8502679;4.498844;1.10763;1.112255;4.312267;1.16826;1.058418;3.464595;1.623045;0.3145273;2.912144;1.425026;0.0956775;2.436682;1.261534;0.1966921;1.278408;0.3732459;0;0;0;0.0956775;2.436682;1.261534;0.1966921;1.278408;0.3732459;0;0;0
826187.8569;NotLabelled;NONE;16384;0.8054907;0.4307479;0.3116343;0.2617728;6;-21;-11;2840;-2522;1731;65536;-0.5457063;-0.299169;0.7633665;0.1731302;14;-5;-13;3574;-335;-3494;8192;0.5;-0.7010021;-0.4695291;-0.1952908;-7;6;-17;1658;3835;-693;32768;0.2146814;-0.7478737;-0.2229917;-0.5872576;-6;-23;1;-401;2354;4633;256;0.1232687;-0.2409972;-0.6882012;-0.6731302;2;6;5;769;4920;53;128;-0.02908587;0.1371191;0.6606648;0.7374784;-2;9;-1;89;5133;524;4;0.704089;-0.2396122;0.3781163;0.5512465;-19;11;66;3816;3998;1468;16;0.7316665;-0.6634349;0.04155125;-0.1509695;-54;66;0;1319;4569;-46;2;0.4736842;-0.5600331;-0.4833795;-0.4778393;8;4;-14;696;4014;-372;8;0.468144;-0.8795766;-0.08448754;0.006925208;-9;-6;0;-1047;3393;2877;0.4261045;2.452768;1.264551;0.4320391;2.993591;1.193157;0.4372526;3.468709;1.128397;0.5564536;4.19261;1.14326;0.3543025;4.557149;1.111731;-0.005455315;4.47301;1.172014;-0.3812825;4.965055;0.4828302;0.2199385;5.025068;1.212713;0.8677328;4.472608;1.111743;1.129826;4.286074;1.172041;1.082684;3.437004;1.624956;0.3391774;2.883688;1.427909;0.1138431;2.410079;1.262917;0.2127541;1.287894;0.3292263;0;0;0;0.1138431;2.410079;1.262917;0.2127541;1.287894;0.3292263;0;0;0
826207.9996;NotLabelled;NONE;16384;0.8046639;0.4307479;0.3102493;0.265928;8;-22;-10;3128;-2362;1827;65536;-0.5443213;-0.299169;0.7649769;0.1703601;16;-4;-7;3756;-591;-3558;8192;0.501385;-0.7001615;-0.468144;-0.1980609;-5;4;-18;1794;4365;-445;32768;0.2146814;-0.7486941;-0.2202216;-0.5872576;-9;-16;0;-649;2704;5243;256;0.1232687;-0.2423823;-0.6877147;-0.6731302;-3;-2;2;665;4960;-111;128;-0.02908587;0.1371191;0.6606648;0.7374784;-4;-2;-3;-129;4753;788;4;0.7111443;-0.232687;0.3711911;0.5498615;-22;22;72;2926;3796;1634;16;0.7238443;-0.6703601;0.03601108;-0.1592798;-51;52;-1;2399;5073;258;2;0.4736842;-0.5576578;-0.4833795;-0.4806094;6;11;-10;710;4310;-428;8;0.466759;-0.8804442;-0.08310249;0.006925208;-3;-7;0;-1173;3563;2675;0.438481;2.4364;1.268694;0.4444161;2.977263;1.197608;0.4496301;3.452418;1.133119;0.5712321;4.17588;1.149762;0.3703065;4.541164;1.119034;0.01024812;4.458077;1.178981;-0.3710929;4.949407;0.4923187;0.2335576;5.008307;1.219454;0.8834527;4.454917;1.119033;1.144902;4.267367;1.17898;1.099874;3.416036;1.627849;0.3545244;2.863665;1.435162;0.1262197;2.393711;1.267033;0.2258031;1.290062;0.3115742;0;0;0;0.1262197;2.393711;1.267033;0.2258031;1.290062;0.3115742;0;0;0
826227.8258;NotLabelled;NONE;16384;0.8037431;0.4307479;0.3102493;0.2686981;10;-18;-7;3600;-2344;2141;65536;-0.5429363;-0.300554;0.7657251;0.1689751;13;-1;-2;3714;-981;-3302;8192;0.5027701;-0.6996996;-0.466759;-0.199446;-1;0;-16;1952;4481;-139;32768;0.2146814;-0.7491001;-0.2188366;-0.5872576;-10;-6;-2;-679;2978;4963;256;0.1232687;-0.2423823;-0.6877147;-0.6731302;-6;-7;0;483;4710;-243;128;-0.02908587;0.1385041;0.6592798;0.7384584;-5;-12;-5;-593;4279;886;4;0.7193995;-0.2257618;0.365651;0.5457063;-33;37;60;1112;3356;1676;16;0.7184335;-0.6759003;0.03462604;-0.1606648;-44;5;-9;1473;4687;-60;2;0.4722992;-0.5552307;-0.4847645;-0.4833795;-2;14;-4;814;4418;-280;8;0.468144;-0.8798263;-0.08171745;0.008310249;8;-8;-1;-755;3393;2817;0.4452245;2.41523;1.275732;0.4511595;2.956093;1.204646;0.4563735;3.431248;1.140157;0.5791973;4.15448;1.157802;0.3788976;4.520145;1.127519;0.01868528;4.437589;1.187273;-0.3609979;4.926541;0.4980025;0.238044;4.988145;1.229542;0.891897;4.433028;1.127518;1.153014;4.244956;1.187271;1.106362;3.39058;1.630151;0.3596784;2.840958;1.434791;0.1329632;2.372541;1.274071;0.2423486;1.291033;0.2946665;0;0;0;0.1329632;2.372541;1.274071;0.2423486;1.291033;0.2946665;0;0;0
826247.9232;NotLabelled;NONE;16384;0.8040867;0.4293629;0.3088643;0.2714681;7;4;5;3708;-1928;2417;65536;-0.5429363;-0.301939;0.7654846;0.16759;-3;0;2;2958;-1055;-2732;8192;0.5041551;-0.7001492;-0.4639889;-0.200831;8;-9;-3;2390;4315;-105;32768;0.2132964;-0.7494956;-0.2188366;-0.5872576;0;8;0;-647;2932;3125;256;0.1246537;-0.2437673;-0.6883295;-0.6717451;-8;-4;-3;603;4444;-359;128;-0.03047091;0.1412742;0.6592798;0.7378776;0;-8;-5;-1057;4157;726;4;0.7256323;-0.2202216;0.3628809;0.5415512;-35;20;47;748;2750;1358;16;0.7151189;-0.6800554;0.03462604;-0.1578947;-36;-18;-17;1179;4381;-372;2;0.4709141;-0.5539872;-0.4861496;-0.4847645;-1;15;-2;738;4206;-406;8;0.468144;-0.8798263;-0.08171745;0.008310249;9;5;0;-893;3435;2507;0.4556455;2.39432;1.283611;0.4615835;2.935446;1.214554;0.4668001;3.41084;1.151846;0.5896237;4.134072;1.169491;0.3893242;4.499737;1.139209;0.0291118;4.41718;1.198962;-0.3524305;4.903807;0.5090718;0.2433621;4.967818;1.243054;0.9023235;4.41262;1.139208;1.163441;4.224546;1.198962;1.117389;3.368028;1.637744;0.3698277;2.819782;1.441873;0.1433843;2.351638;1.281778;0.2537789;1.292449;0.2783891;0;0;0;0.1433843;2.351638;1.281778;0.2537789;1.292449;0.2783891;0;0;0
826268.9314;NotLabelled;NONE;16384;0.8052906;0.4279778;0.3088643;0.2700831;1;12;10;3338;-1956;2323;65536;-0.5443213;-0.301939;0.7645003;0.16759;-10;0;2;2670;-749;-2636;8192;0.501385;-0.7021355;-0.4639889;-0.200831;9;4;11;2444;3557;-215;32768;0.2119114;-0.7490745;-0.2216066;-0.5872576;1;15;4;-635;2636;2579;256;0.1274238;-0.2437673;-0.687822;-0.6717451;-4;1;0;597;3820;-521;128;-0.02908587;0.1426593;0.6592798;0.737667;1;2;-2;-1119;3783;774;4;0.7293306;-0.2063712;0.3573407;0.5457063;-5;-23;41;2134;2230;402;16;0.7107072;-0.6869806;0.03739612;-0.1468144;-18;-19;-11;-281;2855;1266;2;0.4695291;-0.5539457;-0.4875346;-0.4847645;-2;17;-2;778;4014;-288;8;0.4695291;-0.8789581;-0.08310249;0.008310249;9;9;0;-915;3469;2139;0.459251;2.380064;1.286814;0.4651887;2.921181;1.217683;0.4704054;3.396565;1.15491;0.5937392;4.119753;1.170784;0.3936806;4.485484;1.139718;0.03343654;4.403319;1.199821;-0.3401113;4.887357;0.5037612;0.2518809;4.954879;1.240499;0.9066193;4.39801;1.139706;1.167631;4.209898;1.199795;1.116849;3.350845;1.633066;0.3686061;2.804405;1.434764;0.1469898;2.337382;1.284987;0.2572916;1.294675;0.264471;0;0;0;0.1469898;2.337382;1.284987;0.2572916;1.294675;0.264471;0;0;0
826288.9633;NotLabelled;NONE;16384;0.8062144;0.4279778;0.3088643;0.267313;-2;16;12;2958;-2016;2153;65536;-0.5443213;-0.300554;0.7647412;0.1689751;-14;-4;-1;2416;-379;-2768;8192;0.4986149;-0.7035848;-0.4653739;-0.199446;7;11;14;2154;3241;-137;32768;0.2105263;-0.7479661;-0.2229917;-0.5886427;1;16;7;-447;2482;2465;256;0.1260388;-0.2437673;-0.6880772;-0.6717451;4;6;0;759;3686;-497;128;-0.02631579;0.1426593;0.6592798;0.737771;2;11;-1;-1129;3553;714;4;0.7297684;-0.2022161;0.3545706;0.5484765;1;-5;16;790;1898;846;16;0.7093658;-0.6883656;0.03739612;-0.1468144;-14;15;1;-647;2207;1640;2;0.468144;-0.5514536;-0.4903047;-0.4861496;-4;26;-4;468;4056;-400;8;0.4709141;-0.8780847;-0.08448754;0.008310249;8;6;-1;-787;3505;2197;0.451701;2.353564;1.289357;0.4576391;2.894698;1.220357;0.4628557;3.370097;1.157699;0.5832775;4.093776;1.173565;0.3817491;4.458698;1.14249;0.02183741;4.375085;1.202587;-0.3495985;4.858709;0.505111;0.2417811;4.927337;1.242239;0.8950357;4.373289;1.142489;1.156802;4.186231;1.202586;1.100468;3.329078;1.638926;0.3533137;2.781692;1.439135;0.1394397;2.310882;1.287519;0.2586151;1.299787;0.2366418;0;0;0;0.1394397;2.310882;1.287519;0.2586151;1.299787;0.2366418;0;0;0
826310.9632;NotLabelled;NONE;16384;0.8071275;0.4279778;0.3088643;0.2645429;-3;14;11;2622;-2286;1851;65536;-0.5457063;-0.299169;0.7639895;0.1703601;-11;-3;-4;2298;-55;-2988;8192;0.4972299;-0.7027268;-0.468144;-0.199446;3;14;12;1752;3127;-123;32768;0.2105263;-0.746459;-0.2243767;-0.5900277;2;14;7;-327;2242;2605;256;0.1218837;-0.2423823;-0.6866035;-0.6745152;10;14;4;743;3738;-215;128;-0.02216066;0.1398892;0.6592798;0.7384376;-3;14;-2;-713;3849;602;4;0.7308073;-0.2022161;0.3545706;0.5470914;1;12;-5;982;2054;876;16;0.7072858;-0.6897507;0.03462604;-0.1509695;-10;41;9;-447;2447;1582;2;0.466759;-0.5489397;-0.4916897;-0.4889196;-4;25;-4;204;4084;-268;8;0.4722992;-0.877206;-0.08587258;0.008310249;8;5;0;-471;3523;2393;0.4513445;2.343569;1.293905;0.4572829;2.884729;1.225119;0.4624998;3.360154;1.162648;0.584378;4.083588;1.17852;0.3835848;4.448915;1.147447;0.02350551;4.366028;1.207543;-0.3478434;4.851967;0.511633;0.24595;4.917083;1.247137;0.8966985;4.362473;1.147446;1.158087;4.174888;1.207542;1.09949;3.320815;1.649584;0.3522948;2.773711;1.449176;0.1390833;2.300888;1.292049;0.2620418;1.299951;0.231924;0;0;0;0.1390833;2.300888;1.292049;0.2620418;1.299951;0.231924;0;0;0
826332.0426;NotLabelled;NONE;16384;0.8078237;0.4293629;0.3074792;0.2617728;-2;8;6;2350;-2352;1581;65536;-0.5443213;-0.2977839;0.7652076;0.1717452;-4;-1;-6;2452;29;-3124;8192;0.4958449;-0.701854;-0.4709141;-0.199446;-1;12;9;1556;3251;-233;32768;0.2091413;-0.7453339;-0.2257618;-0.5914127;1;10;7;-55;2054;2963;256;0.1191136;-0.2423823;-0.6857271;-0.6759003;9;16;5;763;3774;-129;128;-0.01939058;0.1385041;0.6592798;0.7387766;-4;14;-4;-555;4063;594;4;0.7323832;-0.2063712;0.3531856;0.5443213;7;32;-15;1732;2640;816;16;0.7049168;-0.6911357;0.03047091;-0.1565097;-5;31;5;147;2537;1526;2;0.4653739;-0.5438806;-0.4958449;-0.4916897;-3;22;1;122;3856;-434;8;0.4736842;-0.8763341;-0.08725762;0.006925208;5;12;0;-653;3299;2175;0.4673142;2.342236;1.29122;0.4732528;2.883428;1.222682;0.4784701;3.358881;1.160431;0.6020054;4.08192;1.180868;0.4020934;4.447896;1.151811;0.04175615;4.365478;1.211;-0.3384674;4.853407;0.5213019;0.2640269;4.916115;1.249907;0.9150051;4.360264;1.151848;1.175891;4.171708;1.211083;1.124079;3.319471;1.657494;0.3772012;2.770834;1.460115;0.155053;2.299556;1.289342;0.2684737;1.299442;0.2273793;0;0;0;0.155053;2.299556;1.289342;0.2684737;1.299442;0.2273793;0;0;0
826352.8144;NotLabelled;NONE;16384;0.8082712;0.4293629;0.3074792;0.2603878;0;0;3;2238;-2214;1455;65536;-0.5443213;-0.2963989;0.7657452;0.1717452;1;0;-7;2530;-113;-3092;8192;0.4944598;-0.7009665;-0.4736842;-0.199446;1;15;2;1664;3463;-539;32768;0.2091413;-0.7431274;-0.2257618;-0.5941828;0;7;11;309;1896;3517;256;0.1163435;-0.2409972;-0.6866902;-0.6759003;4;15;4;741;3764;-129;128;-0.01800554;0.1371191;0.6578947;0.7403031;-2;12;-4;-459;4033;644;4;0.7342745;-0.2105263;0.3531856;0.5401662;9;38;-21;1718;2960;936;16;0.7046664;-0.6911357;0.02908587;-0.1578947;0;4;-4;-53;2861;1590;2;0.4639889;-0.542544;-0.4972299;-0.4930748;-3;19;0;54;3748;-420;8;0.4750692;-0.8754547;-0.08864266;0.005540166;2;6;0;-607;3433;1935;0.4722421;2.346457;1.283231;0.478181;2.887668;1.214846;0.4833984;3.363139;1.152729;0.6091081;4.085718;1.175953;0.4103211;4.452404;1.148158;0.04970199;4.370855;1.206833;-0.3254913;4.863986;0.5180799;0.2783481;4.922078;1.245954;0.9229654;4.363221;1.148157;1.183246;4.173654;1.206831;1.129948;3.322851;1.655796;0.3827038;2.774478;1.459072;0.159981;2.303777;1.28134;0.2739112;1.298905;0.2239326;0;0;0;0.159981;2.303777;1.28134;0.2739112;1.298905;0.2239326;0;0;0
826372.826;NotLabelled;NONE;16384;0.8078996;0.4293629;0.3060942;0.2631579;4;-10;2;2504;-2176;1549;65536;-0.5415512;-0.2977839;0.7671705;0.1717452;7;3;-9;2468;-373;-2798;8192;0.4944598;-0.700571;-0.4736842;-0.200831;4;16;1;1564;3379;-537;32768;0.2091413;-0.7424378;-0.2243767;-0.5955678;1;8;15;265;1890;3739;256;0.1149584;-0.2396122;-0.6874077;-0.6759003;2;15;3;731;3656;-233;128;-0.01523546;0.1357341;0.6592798;0.7393878;1;15;-3;-557;3867;424;4;0.734319;-0.2229917;0.3559557;0.533241;22;7;-39;924;2072;898;16;0.7063577;-0.6911357;0.03185596;-0.1495845;5;-36;-17;-525;2807;700;2;0.4639889;-0.5400064;-0.4986149;-0.4944598;-3;15;0;-182;3802;-278;8;0.4750692;-0.8753036;-0.0900277;0.006925208;0;1;-2;-969;3399;2015;0.4805956;2.352235;1.277112;0.4865375;2.893704;1.210799;0.4917575;3.369409;1.150502;0.6191663;4.091722;1.172738;0.421233;4.458835;1.144502;0.06043732;4.37821;1.203368;-0.3186407;4.872486;0.5175689;0.2897417;4.928973;1.241777;0.9336668;4.36845;1.144501;1.193515;4.178352;1.203367;1.143428;3.329199;1.65581;0.3968167;2.780515;1.457554;0.1683345;2.309562;1.275045;0.2751083;1.298914;0.2224066;0;0;0;0.1683345;2.309562;1.275045;0.2751083;1.298914;0.2224066;0;0;0
826394.4406;NotLabelled;NONE;16384;0.8079708;0.4293629;0.3047091;0.2645429;5;-11;3;2628;-2150;1611;65536;-0.5401662;-0.299169;0.767608;0.1717452;8;1;-13;2436;-523;-2736;8192;0.4930748;-0.7002108;-0.4750692;-0.2022161;8;16;0;1554;3355;-559;32768;0.2077562;-0.7405971;-0.2243767;-0.5983379;2;13;17;139;1828;3561;256;0.1108033;-0.2396122;-0.6867265;-0.6772853;1;7;3;875;3666;-277;128;-0.01246537;0.134349;0.6606648;0.7384558;3;5;-1;-715;3743;442;4;0.7285503;-0.2285319;0.3601108;0.536011;34;-29;-45;1004;2072;838;16;0.708795;-0.6897507;0.033241;-0.1440443;11;-18;-15;-1013;3019;246;2;0.4639889;-0.5400064;-0.4986149;-0.4944598;-4;0;1;-240;3914;-70;8;0.4750692;-0.8753036;-0.0900277;0.006925208;0;0;-2;-965;3457;2255;0.4799075;2.378903;1.247616;0.4858468;2.920138;1.179419;0.4910644;3.39563;1.117466;0.6187088;4.11793;1.138711;0.4208858;4.485069;1.110033;0.06007823;4.404638;1.169091;-0.3201855;4.897717;0.4830866;0.2865897;4.953606;1.208688;0.9332905;4.394522;1.110033;1.193093;4.204418;1.16909;1.14337;3.354377;1.619901;0.3959653;2.806937;1.421199;0.1676465;2.336223;1.24571;0.2674814;1.301597;0.215934;0;0;0;0.1676465;2.336223;1.24571;0.2674814;1.301597;0.215934;0;0;0
826414.8314;NotLabelled;NONE;16384;0.8078189;0.4307479;0.301939;0.265928;8;-10;5;2766;-2294;1731;65536;-0.5387812;-0.300554;0.7683486;0.1703601;9;-2;-16;2638;-423;-2784;8192;0.4903047;-0.7004094;-0.4764543;-0.2049861;11;15;0;1318;3389;-577;32768;0.2077562;-0.7383506;-0.2243767;-0.601108;0;13;18;109;1836;3381;256;0.1094183;-0.2396122;-0.6869485;-0.6772853;1;5;2;831;3746;-277;128;-0.01108033;0.134349;0.6606648;0.7384779;0;-1;-3;-703;3755;720;4;0.721624;-0.234072;0.3642659;0.5401662;36;-39;-53;1648;2558;818;16;0.7104831;-0.6883656;0.03185596;-0.1426593;17;3;-10;363;3433;552;2;0.4653739;-0.540081;-0.4986149;-0.4930748;-5;-7;6;-64;4002;-188;8;0.4750692;-0.87516;-0.09141274;0.006925208;0;-1;-3;-831;3455;2317;0.4792542;2.398189;1.229099;0.4851907;2.939181;1.158996;0.490406;3.414452;1.09537;0.6217045;4.136011;1.119351;0.4257456;4.504253;1.092047;0.06453049;4.425427;1.150777;-0.3229218;4.920864;0.4705178;0.2859509;4.977247;1.194321;0.9376856;4.411112;1.091738;1.196517;4.219475;1.150094;1.150338;3.368255;1.599059;0.4021307;2.822312;1.399264;0.1669931;2.355503;1.227355;0.2594326;1.303427;0.214711;0;0;0;0.1669931;2.355503;1.227355;0.2594326;1.303427;0.214711;0;0;0
826434.9749;NotLabelled;NONE;16384;0.8083352;0.4307479;0.300554;0.265928;10;-8;8;2824;-2208;1699;65536;-0.536011;-0.300554;0.7702836;0.1703601;10;-4;-17;2758;-483;-2776;8192;0.4889196;-0.7000272;-0.4778393;-0.2063712;11;13;-1;1204;3361;-641;32768;0.2063712;-0.7368968;-0.2229917;-0.6038781;-1;6;15;-39;1792;3307;256;0.1094183;-0.2396122;-0.6869485;-0.6772853;3;5;3;957;3758;-207;128;-0.01108033;0.134349;0.6592798;0.7397147;-4;3;-1;-623;3907;750;4;0.7140732;-0.2409972;0.368421;0.5443213;39;-31;-60;2178;3344;776;16;0.7123087;-0.6869806;0.033241;-0.1398892;23;-52;-11;2827;4047;610;2;0.466759;-0.5426783;-0.4972299;-0.4903047;1;-17;8;-4;3860;-98;8;0.4750692;-0.8752772;-0.0900277;0.009695291;-3;-9;-3;-593;3485;1987;0.4724444;2.417344;1.21175;0.4783808;2.958344;1.141706;0.4835962;3.433622;1.078132;0.6163337;4.154915;1.102204;0.4211346;4.523552;1.074782;0.05972478;4.445454;1.133286;-0.3232105;4.940946;0.4505142;0.283424;4.999733;1.176004;0.9328857;4.429379;1.074791;1.191294;4.237219;1.133306;1.137941;3.388113;1.585465;0.391345;2.841875;1.380509;0.160183;2.374659;1.210001;0.2522125;1.304569;0.2163737;0;0;0;0.160183;2.374659;1.210001;0.2522125;1.304569;0.2163737;0;0;0
826454.8257;NotLabelled;NONE;16384;0.8104221;0.4279778;0.2963989;0.2686981;15;-3;11;2894;-2402;2051;65536;-0.5318559;-0.300554;0.7734623;0.1689751;7;-12;-20;2792;-443;-2912;8192;0.4861496;-0.7012442;-0.4764543;-0.2119114;15;5;-4;1270;3511;-581;32768;0.2049861;-0.7354245;-0.2216066;-0.6066482;-4;0;6;-327;1864;3713;256;0.1080332;-0.2396122;-0.6871676;-0.6772853;1;7;4;889;4014;-125;128;-0.009695291;0.132964;0.6592798;0.7399843;-4;5;2;-429;4227;506;4;0.7061797;-0.2493075;0.3739612;0.5470914;31;-21;-62;2908;4252;1346;16;0.7165205;-0.6842105;0.03878116;-0.1301939;25;-72;-6;2565;4609;380;2;0.468144;-0.5452422;-0.4958449;-0.4875346;2;-15;3;74;3778;14;8;0.4750692;-0.8754022;-0.08864266;0.01108033;-6;-10;-4;-769;3517;1919;0.4649725;2.438127;1.192199;0.4709119;2.979383;1.124172;0.4761298;3.454896;1.062371;0.6088678;4.176189;1.08644;0.413668;4.544826;1.059022;0.0522593;4.466727;1.117533;-0.3275006;4.963389;0.4338385;0.2746129;5.019975;1.163259;0.9254192;4.450653;1.059021;1.183828;4.258492;1.117531;1.127692;3.409745;1.570026;0.3806942;2.866421;1.358883;0.1527113;2.395448;1.190278;0.2473677;1.305011;0.2192751;0;0;0;0.1527113;2.395448;1.190278;0.2473677;1.305011;0.2192751;0;0;0
826476.8215;NotLabelled;NONE;16384;0.8121589;0.4265928;0.2936288;0.2686981;15;0;12;2968;-2298;2205;65536;-0.5290859;-0.299169;0.7761956;0.16759;4;-16;-21;2766;-317;-3132;8192;0.4847645;-0.7022994;-0.4750692;-0.2146814;19;0;-6;1312;3741;-561;32768;0.2049861;-0.7346963;-0.2202216;-0.6080332;-6;0;2;-395;1928;4153;256;0.1052632;-0.2396122;-0.6862305;-0.6786703;1;9;5;797;4252;-181;128;-0.009695291;0.1315789;0.6578947;0.7414631;-7;8;6;-441;4447;642;4;0.6971617;-0.2617728;0.3822715;0.5470914;15;4;-37;3552;4962;2396;16;0.723245;-0.6772853;0.04432133;-0.1274238;33;-20;7;2183;5593;-1386;2;0.4695291;-0.5465442;-0.4944598;-0.4861496;1;-18;2;122;3884;-44;8;0.4736842;-0.8762728;-0.08725762;0.01246537;-8;-10;-3;-787;3517;2331;0.4567447;2.462962;1.169221;0.4626841;3.004223;1.101229;0.4679021;3.479738;1.039458;0.6020931;4.200763;1.063536;0.4076366;4.569792;1.036122;0.04607114;4.492421;1.094631;-0.326528;4.987114;0.4055892;0.2693314;5.042336;1.140232;0.919197;4.474588;1.036121;1.177218;4.281907;1.094629;1.110958;3.431246;1.542133;0.3631964;2.890849;1.326234;0.1444835;2.420284;1.167297;0.2365189;1.306384;0.2230435;0;0;0;0.1444835;2.420284;1.167297;0.2365189;1.306384;0.2230435;0;0;0
826496.8299;NotLabelled;NONE;16384;0.8138402;0.4252077;0.2922437;0.267313;16;0;10;2952;-2598;2393;65536;-0.5277008;-0.2963989;0.7784956;0.166205;3;-23;-19;3056;-203;-3538;8192;0.4833795;-0.7042674;-0.4722992;-0.2174515;23;-10;-11;1476;4035;-483;32768;0.2036011;-0.7354949;-0.2188366;-0.6080332;-9;-2;-5;-501;2228;4655;256;0.1038781;-0.2382271;-0.688289;-0.6772853;-12;-8;5;615;5142;121;128;-0.01385042;0.1315789;0.6578947;0.7413971;8;-40;3;389;5617;56;4;0.6951129;-0.2631579;0.3850415;0.5470914;-8;-8;-11;4166;5710;2122;16;0.7287872;-0.6717451;0.04570637;-0.1246537;35;-13;0;3565;8423;-1640;2;0.4709141;-0.5478325;-0.4930748;-0.4847645;5;-22;4;152;4130;-168;8;0.4722992;-0.8771568;-0.08587258;0.01246537;-7;-12;-3;-357;3727;2385;0.4592764;2.492402;1.153315;0.4652186;3.033909;1.087316;0.470439;3.50965;1.027294;0.6068203;4.230163;1.054191;0.4135146;4.599888;1.028036;0.0516721;4.523405;1.085997;-0.3178955;5.018769;0.3958064;0.275252;5.072186;1.132773;0.9247808;4.503117;1.028035;1.182169;4.309426;1.085996;1.111714;3.457696;1.530819;0.3632826;2.918598;1.314004;0.1470154;2.449731;1.151221;0.2292914;1.303674;0.2453268;0;0;0;0.1470154;2.449731;1.151221;0.2292914;1.303674;0.2453268;0;0;0
826517.8198;NotLabelled;NONE;16384;0.8146023;0.4238227;0.2908587;0.2686981;14;-2;-1;3066;-2390;2605;65536;-0.5263157;-0.2936288;0.7804804;0.166205;0;-17;-8;3538;-571;-3838;8192;0.4833795;-0.7056893;-0.4695291;-0.2188366;24;-17;-12;1872;4661;-285;32768;0.2022161;-0.7374289;-0.2174515;-0.6066482;-13;-6;-9;-251;2928;4823;256;0.1052632;-0.2409972;-0.6898328;-0.6745152;-24;-18;5;385;4524;117;128;-0.0166205;0.134349;0.6578947;0.7408432;0;-22;-4;-31;4921;1042;4;0.6945441;-0.2617728;0.3850415;0.5484765;-8;-20;5;2354;2890;678;16;0.7313872;-0.6689751;0.04847645;-0.1232687;25;-39;10;1145;4731;-502;2;0.4736842;-0.5540287;-0.4875346;-0.4806094;8;-33;7;954;4350;-608;8;0.4709141;-0.8782288;-0.08171745;0.0166205;0;-8;-2;-1273;3645;2799;0.4569293;2.497187;1.161556;0.4628711;3.038672;1.095375;0.4680912;3.514391;1.035195;0.6054117;4.234858;1.058304;0.4125496;4.604691;1.030458;0.05066669;4.528965;1.089154;-0.3171684;5.025006;0.3985251;0.2763411;5.076181;1.135359;0.9236925;4.507271;1.030457;1.180891;4.31355;1.089154;1.104585;3.460512;1.53049;0.3528839;2.924628;1.317036;0.1446682;2.454515;1.159477;0.2179061;1.302776;0.2600375;0;0;0;0.1446682;2.454515;1.159477;0.2179061;1.302776;0.2600375;0;0;0
826539.5887;NotLabelled;NONE;16384;0.8155802;0.4210526;0.2908587;0.2700831;7;5;-2;3248;-1602;2543;65536;-0.5277008;-0.2908587;0.780876;0.1648199;-4;-10;3;3526;-985;-3666;8192;0.4778393;-0.712232;-0.4639889;-0.2216066;36;-13;6;2476;3839;69;32768;0.1966759;-0.7385168;-0.2188366;-0.6066482;-6;29;-6;-1073;3102;3943;256;0.1080332;-0.2423823;-0.6916199;-0.6717451;-22;-16;1;245;4124;-173;128;-0.01939058;0.1371191;0.6578947;0.7402681;7;-23;-6;-803;3863;648;4;0.6931992;-0.2603878;0.3864266;0.5498615;3;-22;-7;972;1466;302;16;0.7342105;-0.666205;0.05401662;-0.1191136;17;-35;5;549;3067;-710;2;0.4736842;-0.5588347;-0.4847645;-0.4778393;6;-20;10;954;4492;-510;8;0.4709141;-0.878254;-0.08171745;0.01523546;2;3;0;-1093;3519;2681;0.4473248;2.493993;1.173758;0.4532666;3.035466;1.107479;0.4584866;3.511175;1.047213;0.5982213;4.231284;1.066723;0.4065627;4.601618;1.037271;0.04448527;4.527379;1.096665;-0.3165219;5.02187;0.4013361;0.2706079;5.068879;1.14354;0.917379;4.502499;1.03727;1.173987;4.308208;1.096663;1.091288;3.453769;1.53412;0.337558;2.921242;1.319425;0.1350636;2.451321;1.171688;0.2140215;1.301274;0.2705681;0;0;0;0.1350636;2.451321;1.171688;0.2140215;1.301274;0.2705681;0;0;0
826559.9541;NotLabelled;NONE;16384;0.8176568;0.4196676;0.2908587;0.265928;0;20;12;3502;-1754;2823;65536;-0.5304709;-0.2894737;0.7795127;0.1648199;-19;-6;4;2364;-1107;-2990;8192;0.4736842;-0.7158991;-0.4626039;-0.2216066;40;-15;11;2410;3527;-21;32768;0.1925208;-0.7372286;-0.2229917;-0.6080332;3;47;-3;-883;3000;2749;256;0.1108033;-0.2437673;-0.6920386;-0.6703601;-14;-13;0;457;3806;-265;128;-0.02077562;0.1398892;0.6578947;0.7397121;8;-19;-1;-1131;3367;378;4;0.6883239;-0.2603878;0.3891967;0.5540166;13;-42;-21;1360;1800;678;16;0.7366117;-0.6634349;0.05540166;-0.1191136;15;3;6;333;3307;-828;2;0.4736842;-0.560016;-0.4847645;-0.4764543;3;-16;12;722;4228;-116;8;0.4722992;-0.8773798;-0.08310249;0.01523546;5;0;0;-893;3481;2465;0.4420662;2.492317;1.183579;0.4480077;3.033777;1.117185;0.4532275;3.509473;1.056817;0.5927176;4.229738;1.071752;0.4008868;4.599815;1.040262;0.03890771;4.525809;1.100539;-0.3163918;5.016133;0.3993444;0.2683002;5.063066;1.143474;0.9117396;4.500884;1.040261;1.16849;4.307055;1.100538;1.064998;3.454059;1.536386;0.3077859;2.927278;1.319782;0.1298051;2.449645;1.181519;0.2110408;1.299649;0.2805369;0;0;0;0.1298051;2.449645;1.181519;0.2110408;1.299649;0.2805369;0;0;0
826580.9125;NotLabelled;NONE;16384;0.8197048;0.4182825;0.2908587;0.2617728;-5;30;12;3250;-1782;2781;65536;-0.533241;-0.2867036;0.7783515;0.166205;-27;-10;1;2236;-821;-2928;8192;0.468144;-0.7204227;-0.4612188;-0.2216066;36;-11;14;2382;3547;-313;32768;0.1897507;-0.7358183;-0.2299169;-0.6080332;5;44;-1;-625;2798;1985;256;0.1121884;-0.2451524;-0.6926662;-0.6689751;-7;-7;5;607;3738;-151;128;-0.02216066;0.1426593;0.6592798;0.7379075;13;-16;-1;-1161;3513;426;4;0.6803812;-0.2631579;0.3933518;0.5595568;9;-1;-16;3066;3566;1046;16;0.7393425;-0.6592798;0.04986149;-0.1274238;18;20;13;1263;4203;-364;2;0.4736842;-0.5623611;-0.4847645;-0.4736842;1;-16;10;530;4102;-122;8;0.4722992;-0.8772476;-0.08448754;0.01523546;5;5;0;-1101;3539;2121;0.4328407;2.496161;1.186684;0.4387821;3.037615;1.120247;0.444002;3.513306;1.059841;0.5825487;4.233789;1.073001;0.3902156;4.603536;1.04072;0.02836195;4.529197;1.101339;-0.3193743;5.02128;0.397589;0.2656997;5.068773;1.141383;0.9011983;4.50528;1.040719;1.158231;4.311932;1.101337;1.042793;3.461927;1.540017;0.2863361;2.936069;1.318582;0.1205794;2.453489;1.184628;0.206682;1.298018;0.2911333;0;0;0;0.1205794;2.453489;1.184628;0.206682;1.298018;0.2911333;0;0;0
826601.8124;NotLabelled;NONE;16384;0.8205281;0.4182825;0.2922437;0.2576177;-10;31;12;2740;-1748;2519;65536;-0.536011;-0.2825485;0.7776709;0.16759;-31;-9;1;2106;-533;-3160;8192;0.4639889;-0.7235288;-0.4612188;-0.2202216;26;-1;15;2308;3577;-293;32768;0.1855956;-0.733978;-0.2354571;-0.6094183;0;34;2;-533;2740;1717;256;0.1108033;-0.2479224;-0.6932392;-0.66759;-2;-7;12;769;3660;143;128;-0.02631579;0.1468144;0.6620498;0.7344679;11;-17;-3;-505;3963;432;4;0.6804417;-0.265928;0.3933518;0.5581717;13;10;-11;2998;3570;586;16;0.7398482;-0.6578947;0.04986149;-0.1315789;20;26;14;1159;4187;-396;2;0.4736842;-0.5646827;-0.4847645;-0.4709141;-2;-10;8;530;4126;-174;8;0.4736842;-0.8765004;-0.08448754;0.01523546;3;5;1;-871;3353;2117;0.4211266;2.506013;1.185922;0.4270653;3.047211;1.117425;0.4322825;3.522669;1.055211;0.5713326;4.243083;1.066611;0.3792402;4.612888;1.033547;0.01736289;4.538942;1.094505;-0.3236874;5.032749;0.3886948;0.2641323;5.077282;1.130504;0.8901548;4.514278;1.033546;1.147082;4.320895;1.094503;1.017646;3.475097;1.537388;0.2636239;2.945637;1.316232;0.1088655;2.463333;1.18404;0.1999342;1.295286;0.3075526;0;0;0;0.1088655;2.463333;1.18404;0.1999342;1.295286;0.3075526;0;0;0
826622.8347;NotLabelled;NONE;16384;0.8217534;0.4182825;0.2936288;0.2520775;-13;28;12;2386;-1902;2145;65536;-0.5373961;-0.2797784;0.7771145;0.1703601;-28;-4;1;2180;-123;-3436;8192;0.4612188;-0.7244151;-0.4626039;-0.2202216;13;6;12;2158;3355;-29;32768;0.1828255;-0.7326267;-0.2382271;-0.6108033;-4;24;2;-467;2722;1989;256;0.1108033;-0.2493075;-0.6940745;-0.666205;-4;-7;11;697;3664;235;128;-0.02770083;0.1481994;0.6620498;0.7341387;7;-13;-5;-125;3925;442;4;0.6801527;-0.2686981;0.3919668;0.5581717;21;12;-7;2722;3286;884;16;0.7413906;-0.6551247;0.04847645;-0.1371191;19;27;11;1703;3981;-548;2;0.4736842;-0.5658349;-0.4847645;-0.4695291;-3;-2;5;428;3510;-228;8;0.4736842;-0.8763406;-0.08587258;0.0166205;1;1;-1;-625;3321;2159;0.42137;2.507576;1.188093;0.4273026;3.048217;1.115337;0.4325143;3.52317;1.049379;0.5761755;4.242691;1.060068;0.3864479;4.613685;1.026687;0.02411619;4.542115;1.087781;-0.3160645;5.038136;0.383105;0.2758224;5.078129;1.121934;0.8967209;4.511806;1.026686;1.152417;4.316841;1.08778;1.015386;3.475301;1.536453;0.2622479;2.945281;1.313631;0.1091086;2.464882;1.186575;0.2028891;1.292866;0.3156885;0;0;0;0.1091086;2.464882;1.186575;0.2028891;1.292866;0.3156885;0;0;0
826643.8274;NotLabelled;NONE;16384;0.8223112;0.4196676;0.2936288;0.2479224;-13;21;10;2146;-2070;1851;65536;-0.5387812;-0.2770083;0.7765354;0.1731302;-20;0;0;2308;147;-3430;8192;0.4598338;-0.723941;-0.4653739;-0.2188366;2;0;3;1640;3581;15;32768;0.1814404;-0.7313623;-0.2396122;-0.6121883;-2;1;-1;-371;2758;2637;256;0.1108033;-0.2506925;-0.6949031;-0.66482;-5;-5;8;619;3770;105;128;-0.03047091;0.1495845;0.6634349;0.7324958;7;-11;-4;-29;4143;310;4;0.6804305;-0.2728532;0.3905817;0.5567867;10;26;-4;2362;3464;1612;16;0.7429622;-0.6523545;0.04570637;-0.1426593;17;29;11;1649;4101;-258;2;0.4750692;-0.5646317;-0.4861496;-0.468144;-2;-2;3;356;3898;-310;8;0.4736842;-0.8763658;-0.08587258;0.01523546;0;0;-1;-237;3719;2117;0.4134647;2.507572;1.195428;0.4193971;3.048202;1.122587;0.4246089;3.523145;1.056555;0.5702143;4.242299;1.065514;0.3814721;4.613726;1.031363;0.0189774;4.543274;1.09279;-0.3192838;5.042596;0.3895224;0.2752764;5.076606;1.126502;0.8914683;4.510471;1.031362;1.146666;4.31496;1.092789;1.004931;3.475919;1.544673;0.2522898;2.946397;1.319011;0.1012033;2.464879;1.193917;0.2026682;1.289837;0.3279839;0;0;0;0.1012033;2.464879;1.193917;0.2026682;1.289837;0.3279839;0;0;0
826665.9306;NotLabelled;NONE;16384;0.822759;0.4210526;0.2950138;0.2423823;-6;8;1;2138;-2350;1693;65536;-0.5387812;-0.2742382;0.776896;0.1759003;-4;1;-1;2248;33;-3264;8192;0.4612188;-0.7230594;-0.4653739;-0.2188366;1;-7;1;1720;3949;-189;32768;0.1814404;-0.730907;-0.2409972;-0.6121883;0;9;-3;-183;2762;3243;256;0.1108033;-0.2520775;-0.6957253;-0.6634349;-5;-6;6;615;3968;159;128;-0.03185596;0.1509695;0.6634349;0.7321527;8;-14;-2;-359;4253;148;4;0.6832553;-0.2742382;0.3905817;0.5526316;-2;19;-4;1596;3424;1422;16;0.7436396;-0.6509695;0.04570637;-0.1454294;12;14;7;1665;4069;-358;2;0.4750692;-0.5658213;-0.4847645;-0.468144;0;-6;1;406;4130;-470;8;0.4750692;-0.8757505;-0.08448754;0.01523546;1;-8;-2;-303;3645;2237;0.4035946;2.509796;1.199173;0.4095237;3.050123;1.124113;0.4147324;3.524791;1.056131;0.5622824;4.243567;1.063371;0.3745273;4.615422;1.028455;0.0118728;4.546091;1.090212;-0.3236218;5.050217;0.3890495;0.2735934;5.078242;1.124131;0.8842431;4.510792;1.028454;1.138941;4.314733;1.090211;0.997104;3.478109;1.546521;0.2454849;2.948713;1.317185;0.09133318;2.467097;1.197851;0.1997748;1.287409;0.3391114;0;0;0;0.09133318;2.467097;1.197851;0.1997748;1.287409;0.3391114;0;0;0
826686.8604;NotLabelled;NONE;16384;0.822759;0.4210526;0.2950138;0.2423823;-1;3;0;2036;-2198;1721;65536;-0.5387812;-0.2728532;0.7773835;0.1759003;1;0;0;2298;-197;-3120;8192;0.4612188;-0.7243661;-0.4639889;-0.2174515;0;-10;0;1908;4053;-201;32768;0.1800554;-0.7307916;-0.2423823;-0.6121883;0;18;-4;-221;2846;3703;256;0.1121884;-0.2534626;-0.6963193;-0.6620498;-7;-6;3;645;4122;253;128;-0.03462604;0.1523546;0.66482;0.7304817;8;-16;-1;-521;4083;250;4;0.6805391;-0.2742382;0.3933518;0.5540166;2;-28;-4;1816;2910;510;16;0.7450378;-0.6481994;0.04432133;-0.1509695;8;10;2;1207;3913;-660;2;0.4750692;-0.5658213;-0.4847645;-0.468144;1;-8;1;360;4178;-384;8;0.4750692;-0.8757253;-0.08448754;0.0166205;2;-6;-1;-1075;3503;2473;0.4075709;2.508148;1.205973;0.4134999;3.04846;1.130816;0.4187084;3.523116;1.06275;0.5682034;4.241506;1.06828;0.381437;4.613787;1.032603;0.01862589;4.545577;1.094688;-0.3167675;5.054554;0.3969902;0.2807558;5.075555;1.132056;0.8908682;4.507779;1.032602;1.145065;4.311173;1.094687;1.00534;3.473391;1.549518;0.255024;2.942544;1.319269;0.09530944;2.465448;1.20466;0.2005288;1.285484;0.3458978;0;0;0;0.09530944;2.465448;1.20466;0.2005288;1.285484;0.3458978;0;0;0
826707.8438;NotLabelled;NONE;16384;0.822759;0.4210526;0.2950138;0.2423823;2;-2;-2;2230;-2032;1815;65536;-0.5387812;-0.2728532;0.7776956;0.1745152;6;-4;-1;2376;-285;-3134;8192;0.4626039;-0.7243688;-0.4626039;-0.2174515;-4;-9;-5;1936;3965;-229;32768;0.1786704;-0.7302073;-0.2451524;-0.6121883;0;11;-4;-225;2748;3653;256;0.1149584;-0.2548476;-0.6979882;-0.6592798;-3;-17;-1;701;4032;155;128;-0.03739612;0.1551246;0.666205;0.7284976;4;-11;-2;-383;3929;384;4;0.6774453;-0.2714681;0.3947368;0.5581717;5;-36;-3;2274;3180;970;16;0.7463215;-0.6468144;0.04293629;-0.1509695;8;1;2;1119;4137;-454;2;0.4750692;-0.5681457;-0.4833795;-0.466759;1;-11;6;356;4092;-134;8;0.4750692;-0.8758305;-0.08310249;0.01800554;4;-7;-1;-1147;3393;2495;0.40737;2.508822;1.212971;0.4132955;3.048818;1.135569;0.4185009;3.523186;1.065531;0.5685127;4.24148;1.069359;0.381996;4.613813;1.032925;0.01916555;4.546004;1.095336;-0.3129827;5.054981;0.3960875;0.2817308;5.074405;1.133471;0.8913512;4.507441;1.032924;1.145436;4.310794;1.095335;1.003151;3.473682;1.550609;0.2532298;2.943187;1.318273;0.09510845;2.466117;1.211849;0.1993236;1.282259;0.3583404;0;0;0;0.09510845;2.466117;1.211849;0.1993236;1.282259;0.3583404;0;0;0
826727.8261;NotLabelled;NONE;16384;0.8230574;0.4196676;0.2950138;0.2437673;7;-3;-4;2448;-2086;2087;65536;-0.5387812;-0.2728532;0.7780051;0.1731302;9;-6;-2;2416;-397;-3342;8192;0.4653739;-0.7234771;-0.4612188;-0.2174515;-8;-9;-7;1914;3731;-295;32768;0.1786704;-0.7302073;-0.2451524;-0.6121883;2;0;-6;-525;2760;3121;256;0.1177285;-0.2576177;-0.6965079;-0.6592798;0;-16;-3;685;3904;61;128;-0.03878116;0.1565097;0.666205;0.7281289;3;-14;-3;-383;4029;598;4;0.6743418;-0.2714681;0.3961219;0.5609418;4;-24;-5;2464;3350;932;16;0.7475197;-0.6454294;0.04293629;-0.1509695;9;-4;1;1061;4063;-328;2;0.4764543;-0.5715508;-0.4819945;-0.4626039;2;-22;12;382;4114;-110;8;0.4750692;-0.8758009;-0.08310249;0.01939058;4;-1;0;-839;3651;2219;0.396051;2.507918;1.217287;0.4019729;3.047588;1.137641;0.4071749;3.521661;1.065631;0.5570036;4.240002;1.064904;0.3703137;4.612065;1.026653;0.007630289;4.544536;1.09021;-0.3185332;5.056419;0.3902667;0.2719247;5.07778;1.13101;0.8796961;4.505823;1.026234;1.133961;4.309614;1.089284;0.9890648;3.46927;1.537729;0.240604;2.937678;1.303204;0.08378941;2.465209;1.216357;0.1922855;1.28228;0.3620937;0;0;0;0.08378941;2.465209;1.216357;0.1922855;1.28228;0.3620937;0;0;0
826748.9431;NotLabelled;NONE;16384;0.8237621;0.4182825;0.2950138;0.2437673;10;-3;-3;2672;-2140;2353;65536;-0.5387812;-0.2728532;0.778312;0.1717452;8;-5;-2;2570;-597;-3464;8192;0.4695291;-0.7225007;-0.4598338;-0.2146814;-11;-10;-6;2310;3635;-575;32768;0.1800554;-0.7312481;-0.2479224;-0.6094183;2;-3;-6;-909;2546;2465;256;0.1204986;-0.2590028;-0.6955198;-0.6592798;-1;-15;-2;813;3856;103;128;-0.0401662;0.1578947;0.666205;0.7277547;3;-14;-3;-617;4111;538;4;0.6731872;-0.2714681;0.3961219;0.5623268;2;-1;-5;2458;3450;766;16;0.7474388;-0.6454294;0.04432133;-0.1509695;9;3;4;1177;4017;-288;2;0.4778393;-0.5726289;-0.4819945;-0.4598338;2;-20;9;526;4208;-214;8;0.4764543;-0.8750482;-0.08310249;0.01939058;3;-1;0;-455;3533;2053;0.3809567;2.510225;1.217597;0.3868784;3.049877;1.137833;0.3920803;3.523935;1.065721;0.5415069;4.242359;1.067245;0.3546626;4.614426;1.029786;-0.008072406;4.546514;1.092639;-0.3304088;5.052854;0.3869131;0.2523428;5.076153;1.133676;0.8641044;4.508469;1.029785;1.11839;4.312223;1.092638;0.97532;3.471252;1.540493;0.229066;2.939659;1.299038;0.06869525;2.467516;1.216677;0.1860764;1.281579;0.3677754;0;0;0;0.06869525;2.467516;1.216677;0.1860764;1.281579;0.3677754;0;0;0
826769.8397;NotLabelled;NONE;16384;0.8242557;0.4155124;0.2963989;0.2451524;1;-1;0;2882;-2042;2793;65536;-0.5387812;-0.2742382;0.7784315;0.1689751;-2;2;0;2604;-615;-3524;8192;0.4709141;-0.7228895;-0.4584487;-0.2132964;-12;-5;-3;2256;3547;-565;32768;0.1814404;-0.7320583;-0.2479224;-0.6080332;3;-14;-5;-981;2502;2999;256;0.1218837;-0.2603878;-0.6960726;-0.6578947;0;-15;0;981;3858;-161;128;-0.04155125;0.1592798;0.666205;0.727375;1;-10;0;-745;4173;514;4;0.672627;-0.2728532;0.3961219;0.5623268;1;7;-6;2270;3512;680;16;0.7484327;-0.6440443;0.04293629;-0.1523546;10;9;6;1187;4007;-290;2;0.4778393;-0.5748991;-0.4806094;-0.4584487;0;-11;4;728;3934;-316;8;0.4764543;-0.8751786;-0.08171745;0.01939058;1;0;1;-655;3319;2157;0.3738553;2.510211;1.217887;0.3797769;3.049844;1.138002;0.3849787;3.523886;1.065783;0.5327648;4.242646;1.068378;0.3450827;4.614338;1.031396;-0.01751485;4.545509;1.094043;-0.3341362;5.050281;0.384617;0.2431497;5.075524;1.13555;0.8547651;4.509545;1.031395;1.109479;4.31379;1.094042;0.9720508;3.470924;1.540096;0.2280719;2.935147;1.300876;0.06159389;2.467501;1.216977;0.1863302;1.280875;0.3700897;0;0;0;0.06159389;2.467501;1.216977;0.1863302;1.280875;0.3700897;0;0;0
826790.8876;NotLabelled;NONE;16384;0.8242557;0.4155124;0.2963989;0.2451524;-4;2;1;2958;-2070;2835;65536;-0.5401662;-0.2742382;0.7774711;0.1689751;-7;5;0;2560;-539;-3588;8192;0.4722992;-0.7223932;-0.4584487;-0.2119114;-14;-5;0;2074;3563;-511;32768;0.1828255;-0.7333295;-0.2465374;-0.6066482;3;-16;-2;-755;2452;3459;256;0.1232687;-0.2617728;-0.6953088;-0.6578947;2;-12;1;831;3982;-165;128;-0.04293629;0.1606648;0.666205;0.7269898;2;-8;1;-625;4225;472;4;0.6724216;-0.2770083;0.3975069;0.5595568;4;6;-18;1638;3190;842;16;0.7500304;-0.6412742;0.04155125;-0.1565097;17;3;9;1253;4027;-40;2;0.4778393;-0.5760008;-0.4806094;-0.4570637;0;-2;1;772;3798;-314;8;0.4764543;-0.8751786;-0.08171745;0.01939058;2;2;1;-731;3375;2301;0.3643931;2.51183;1.218635;0.3703146;3.051445;1.138625;0.3755161;3.52547;1.066294;0.5238357;4.244125;1.067235;0.336412;4.615873;1.029516;-0.02620769;4.547451;1.092481;-0.3405015;5.046987;0.3783291;0.2321914;5.077691;1.132568;0.8460164;4.510702;1.029515;1.100614;4.314898;1.092479;0.9636564;3.471545;1.537758;0.2208313;2.93422;1.298424;0.05213171;2.469121;1.217736;0.1814962;1.280214;0.3747507;0;0;0;0.05213171;2.469121;1.217736;0.1814962;1.280214;0.3747507;0;0;0
826810.8443;NotLabelled;NONE;16384;0.823967;0.4168975;0.2963989;0.2437673;-10;5;2;2804;-1996;2825;65536;-0.5415512;-0.2742382;0.7762043;0.1703601;-13;8;3;2650;-361;-3552;8192;0.4750692;-0.7209803;-0.4584487;-0.2105263;-14;-6;1;2074;3705;-559;32768;0.1842105;-0.7329828;-0.2465374;-0.6066482;1;-5;-2;-477;2410;3717;256;0.1232687;-0.2631579;-0.6947858;-0.6578947;2;-9;0;753;4086;21;128;-0.04432133;0.1620499;0.666205;0.7265992;1;-9;0;-575;4187;560;4;0.6707807;-0.2797784;0.400277;0.5581717;5;10;-22;1740;3336;966;16;0.7508445;-0.6398892;0.04293629;-0.1578947;21;-5;9;1137;3933;-206;2;0.4764543;-0.5759908;-0.4819945;-0.4570637;0;3;3;724;3990;-112;8;0.4764543;-0.8750482;-0.08310249;0.01939058;3;4;3;-959;3449;2569;0.3603592;2.51618;1.219527;0.3662804;3.055776;1.139387;0.3714817;3.529784;1.066944;0.5195851;4.24848;1.068967;0.3320609;4.620227;1.031731;-0.03055695;4.551605;1.094488;-0.3418559;5.05114;0.3790255;0.2300297;5.082872;1.133834;0.841697;4.515209;1.03173;1.096335;4.31939;1.094486;0.9610931;3.475773;1.539791;0.2186494;2.93833;1.299543;0.04809773;2.47347;1.21864;0.1776045;1.277494;0.3857363;0;0;0;0.04809773;2.47347;1.21864;0.1776045;1.277494;0.3857363;0;0;0
826831.8221;NotLabelled;NONE;16384;0.8238762;0.4168975;0.2977839;0.2423823;-16;6;0;2734;-1962;2755;65536;-0.5429363;-0.2742382;0.7746222;0.1731302;-17;13;9;2670;-373;-3708;8192;0.4764543;-0.7204693;-0.4584487;-0.2091413;-11;-5;1;2036;3757;-777;32768;0.1842105;-0.7334471;-0.2451524;-0.6066482;1;-3;0;-321;2164;3879;256;0.1260388;-0.2645429;-0.692446;-0.6592798;3;-13;0;747;4052;-105;128;-0.04709141;0.1634349;0.66482;0.7273829;0;-9;-1;-471;4019;646;4;0.6701856;-0.2839335;0.400277;0.5567867;9;5;-21;2174;3506;800;16;0.7529048;-0.6371191;0.04293629;-0.1592798;23;0;10;1325;3945;-324;2;0.4750692;-0.5781616;-0.4833795;-0.4542936;2;-5;12;396;4100;-180;8;0.4778393;-0.8743222;-0.08310249;0.01800554;7;0;3;-719;3577;2269;0.3652095;2.521062;1.216635;0.3711305;3.060639;1.136361;0.3763317;3.534628;1.063799;0.5256456;4.25307;1.066906;0.3387578;4.625186;1.030164;-0.02399108;4.557085;1.092729;-0.3327584;5.059452;0.3781536;0.2406735;5.090271;1.131827;0.8482161;4.519309;1.030138;1.102508;4.32297;1.092674;0.9715804;3.477883;1.536476;0.231065;2.938635;1.294327;0.052948;2.478352;1.215759;0.1783793;1.275356;0.3923967;0;0;0;0.052948;2.478352;1.215759;0.1783793;1.275356;0.3923967;0;0;0
826851.9453;NotLabelled;NONE;16384;0.8230783;0.4182825;0.299169;0.2409972;-20;7;0;2554;-1890;2583;65536;-0.5443213;-0.2756233;0.7725317;0.1759003;-17;19;13;2466;-451;-3696;8192;0.4764543;-0.7217488;-0.4570637;-0.2077562;-2;-2;0;1698;3487;-853;32768;0.1855956;-0.7340184;-0.2423823;-0.6066482;2;-4;1;-353;1856;3869;256;0.1274238;-0.265928;-0.6916615;-0.6592798;7;-13;-2;859;3942;-185;128;-0.04847645;0.1648199;0.66482;0.7269793;2;-7;0;-551;3999;582;4;0.6681745;-0.2867036;0.4016621;0.5567867;11;0;-21;2250;3652;842;16;0.7548667;-0.634349;0.04432133;-0.1606648;26;-9;9;1631;4145;-86;2;0.4750692;-0.5792472;-0.4833795;-0.4529086;1;-8;12;432;4050;-126;8;0.4792244;-0.8735638;-0.08310249;0.01800554;7;-4;2;-629;3419;2109;0.3515948;2.524873;1.216747;0.3575185;3.064703;1.138195;0.3627222;3.538921;1.067147;0.509604;4.257837;1.074086;0.3215;4.629504;1.039036;-0.04108483;4.559861;1.100852;-0.3487934;5.062117;0.3857414;0.2236833;5.090101;1.140251;0.8313129;4.525348;1.039035;1.086198;4.329551;1.10085;0.957179;3.484333;1.544963;0.2174227;2.946516;1.297374;0.03933328;2.482166;1.215724;0.1719047;1.27313;0.4023877;0;0;0;0.03933328;2.482166;1.215724;0.1719047;1.27313;0.4023877;0;0;0
826871.9292;NotLabelled;NONE;16384;0.8215469;0.4224377;0.301939;0.2354571;-23;5;1;2454;-2168;2405;65536;-0.5484765;-0.2770083;0.7678016;0.1814404;-17;23;12;2150;-293;-3298;8192;0.4778393;-0.721709;-0.4556787;-0.2077562;0;-6;-2;1566;3291;-797;32768;0.1842105;-0.7336773;-0.2409972;-0.6080332;1;4;2;-365;1864;3681;256;0.1274238;-0.267313;-0.6898036;-0.6606648;7;-11;-3;807;3890;-89;128;-0.04847645;0.1648199;0.66482;0.7269793;2;-3;1;-581;4119;502;4;0.6666958;-0.2908587;0.4030471;0.5554016;13;4;-28;1684;3502;682;16;0.7571036;-0.6315789;0.04570637;-0.1606648;29;-11;10;1225;4079;-114;2;0.4750692;-0.5814784;-0.4819945;-0.4515235;1;-13;11;358;3830;-364;8;0.4806094;-0.8729334;-0.08171745;0.01800554;6;-10;1;-613;3377;2027;0.345797;2.527852;1.218003;0.3517205;3.06766;1.139303;0.356924;3.541859;1.068125;0.5035646;4.260814;1.076165;0.3153476;4.632469;1.041605;-0.04723257;4.562613;1.103209;-0.3544331;5.066513;0.3890365;0.2188567;5.093276;1.142973;0.8251951;4.528481;1.041604;1.080127;4.332679;1.103207;0.9484531;3.488074;1.547708;0.2094431;2.951316;1.295633;0.03353566;2.485144;1.216992;0.1688287;1.270106;0.4131031;0;0;0;0.03353566;2.485144;1.216992;0.1688287;1.270106;0.4131031;0;0;0
826892.83;NotLabelled;NONE;16384;0.8200019;0.4252077;0.3033241;0.234072;-27;1;0;2436;-2210;2303;65536;-0.5512465;-0.2783934;0.7646508;0.1842105;-18;25;10;2336;-297;-3258;8192;0.4778393;-0.7225816;-0.4542936;-0.2077562;1;-10;-3;1680;3363;-725;32768;0.1828255;-0.7324173;-0.2423823;-0.6094183;1;23;9;-459;2018;3855;256;0.1288089;-0.2686981;-0.6890078;-0.6606648;8;-9;-3;773;3976;-47;128;-0.04986149;0.1648199;0.66482;0.7268856;0;-5;1;-485;4147;530;4;0.6606721;-0.301939;0.4085872;0.5526316;18;10;-38;1886;3240;770;16;0.76245;-0.6246537;0.04709141;-0.1620499;34;-1;14;1283;3931;-382;2;0.4750692;-0.5825512;-0.4819945;-0.4501385;3;-14;10;378;3766;-294;8;0.4806094;-0.8730322;-0.08033241;0.01939058;4;-8;1;-759;3561;2105;0.3409518;2.532915;1.215617;0.3468752;3.072723;1.136919;0.3520787;3.546922;1.065741;0.4991269;4.265739;1.077626;0.3111614;4.637677;1.044778;-0.05152351;4.567719;1.105642;-0.362809;5.078621;0.3982461;0.2189991;5.10251;1.145725;0.8209484;4.533394;1.044777;1.075702;4.337129;1.105641;0.9442343;3.491186;1.547651;0.2048498;2.957433;1.290347;0.02869028;2.490207;1.214607;0.1644247;1.267681;0.4222288;0;0;0;0.02869028;2.490207;1.214607;0.1644247;1.267681;0.4222288;0;0;0
826914.4779;NotLabelled;NONE;16384;0.81844;0.4279778;0.3047091;0.232687;-31;-2;0;2500;-2208;2371;65536;-0.5526316;-0.2797784;0.7621291;0.1883656;-20;24;9;2608;-481;-3584;8192;0.4778393;-0.7243158;-0.4515235;-0.2077562;2;-12;-5;1766;3473;-663;32768;0.1786704;-0.7302073;-0.2451524;-0.6121883;-5;49;17;-689;1994;3821;256;0.1301939;-0.2686981;-0.6874161;-0.6620498;7;-11;-5;921;3934;-143;128;-0.04986149;0.166205;0.6634349;0.7278351;-1;-3;1;-613;4093;486;4;0.6590571;-0.3060942;0.4099723;0.5512465;15;4;-30;2236;3406;906;16;0.7654545;-0.6204986;0.04847645;-0.1634349;31;-6;13;1587;3967;-912;2;0.4750692;-0.5847599;-0.4806094;-0.4487534;1;-14;8;474;3998;-228;8;0.4819945;-0.8723948;-0.07894737;0.01939058;4;0;3;-661;3571;2209;0.3331935;2.549003;1.202949;0.3391166;3.088787;1.124082;0.3443197;3.562963;1.052757;0.4911097;4.281815;1.065754;0.3030225;4.653734;1.0334;-0.05965632;4.583558;1.09405;-0.3722422;5.097635;0.3895344;0.2128134;5.121496;1.134476;0.8128463;4.549631;1.0334;1.067651;4.353366;1.09405;0.9329207;3.507182;1.534613;0.1953257;2.973559;1.271959;0.0209319;2.506295;1.201953;0.152466;1.261781;0.4438354;0;0;0;0.0209319;2.506295;1.201953;0.152466;1.261781;0.4438354;0;0;0
826934.8332;NotLabelled;NONE;16384;0.8166474;0.432133;0.3047091;0.2313019;-33;-5;0;2652;-2224;2189;65536;-0.5540166;-0.2825485;0.7590571;0.1925208;-18;29;10;2654;-523;-3738;8192;0.4778393;-0.7251774;-0.4501385;-0.2077562;4;-6;-7;1990;3417;-771;32768;0.1731302;-0.7266309;-0.2493075;-0.6163435;-6;53;19;-443;2138;3363;256;0.132964;-0.2714681;-0.6844559;-0.6634349;10;-8;-6;749;3692;-155;128;-0.05124654;0.16759;0.6634349;0.7274212;1;-5;0;-567;3803;596;4;0.6577635;-0.3088643;0.4099723;0.5512465;11;0;-21;2064;3078;710;16;0.7697331;-0.6149584;0.05124654;-0.1634349;24;-22;9;1627;3803;-1704;2;0.4750692;-0.5868753;-0.4806094;-0.4459834;2;-5;10;356;3928;-422;8;0.4833795;-0.8716281;-0.07894737;0.01939058;2;-5;2;-617;3593;2059;0.3280118;2.551868;1.20502;0.3339381;3.091946;1.128187;0.3391441;3.566387;1.058649;0.4836886;4.285639;1.07438;0.2944697;4.657088;1.043244;-0.06803334;4.585564;1.103368;-0.3838857;5.102795;0.4026272;0.2043459;5.123716;1.145152;0.8046147;4.55457;1.043243;1.059984;4.358877;1.103366;0.9218633;3.512221;1.541969;0.1849359;2.980628;1.273391;0.01575029;2.509165;1.203851;0.1471667;1.257486;0.4576016;0;0;0;0.01575029;2.509165;1.203851;0.1471667;1.257486;0.4576016;0;0;0
826957.066;NotLabelled;NONE;16384;0.8135642;0.4376731;0.3060942;0.2299169;-34;-6;5;2688;-2134;2159;65536;-0.5554016;-0.2853186;0.7559371;0.1966759;-18;37;10;2564;-565;-3532;8192;0.4764543;-0.7274014;-0.4473684;-0.2091413;9;0;-6;2230;3575;-897;32768;0.1634349;-0.718129;-0.2562327;-0.6260388;-17;38;30;-905;2160;2541;256;0.134349;-0.2728532;-0.6822873;-0.66482;14;-11;-6;695;3700;-299;128;-0.05263158;0.1689751;0.6634349;0.7270017;-1;-6;0;-575;3767;800;4;0.6550793;-0.3102493;0.4113573;0.5526316;7;-12;-8;2276;2920;720;16;0.7721367;-0.6121883;0.05263158;-0.1620499;16;-14;7;1203;3817;-2148;2;0.4750692;-0.5890548;-0.4792244;-0.4445983;2;-12;10;328;3992;-478;8;0.4833795;-0.8717524;-0.07756232;0.01939058;2;-9;0;-545;3635;2113;0.3085548;2.550489;1.214488;0.314481;3.090544;1.1375;0.3196869;3.564967;1.067825;0.4628609;4.284366;1.088536;0.2729871;4.65566;1.05962;-0.08946067;4.58306;1.118782;-0.4019562;5.105943;0.4207351;0.1846134;5.125627;1.164607;0.783323;4.554097;1.05962;1.038979;4.358485;1.118781;0.895306;3.511598;1.555148;0.1617669;2.982062;1.273548;-0.003706634;2.507785;1.213331;0.1365585;1.251933;0.4757553;0;0;0;-0.003706634;2.507785;1.213331;0.1365585;1.251933;0.4757553;0;0;0
826977.0332;NotLabelled;NONE;16384;0.8090563;0.4473684;0.3060942;0.2271468;-41;-8;13;2608;-2024;2381;65536;-0.5581717;-0.2908587;0.7495506;0.2049861;-25;42;6;2092;-427;-3466;8192;0.4750692;-0.7279075;-0.4473684;-0.2105263;11;9;-4;2264;3643;-803;32768;0.1606648;-0.7146157;-0.2576177;-0.6301939;-14;32;31;-781;2470;3067;256;0.134349;-0.2728532;-0.6795771;-0.66759;17;-8;-8;735;3702;-249;128;-0.05401662;0.1703601;0.6620498;0.7278391;-4;-6;0;-635;3965;792;4;0.6539084;-0.3102493;0.4113573;0.5540166;7;-15;3;2034;3204;820;16;0.7742295;-0.6094183;0.05401662;-0.1620499;10;-3;6;1055;3717;-1944;2;0.4750692;-0.5900977;-0.4792244;-0.4432133;0;-20;9;544;4004;-366;8;0.4833795;-0.8718427;-0.07617728;0.02077562;3;-14;0;-647;3431;2357;0.2977502;2.552428;1.214456;0.303676;3.09246;1.137308;0.3088818;3.566862;1.067493;0.4509344;4.286361;1.092078;0.2605225;4.657511;1.06489;-0.101874;4.584053;1.123301;-0.4183762;5.113017;0.4316694;0.169736;5.131544;1.174352;0.7710128;4.556726;1.064889;1.026907;4.361201;1.1233;0.8750052;3.514148;1.556547;0.1472937;2.987799;1.254585;-0.01451123;2.509724;1.213313;0.1292547;1.249741;0.4834957;0;0;0;-0.01451123;2.509724;1.213313;0.1292547;1.249741;0.4834957;0;0;0
826997.891;NotLabelled;NONE;16384;0.8063571;0.4529086;0.3060942;0.2257618;-45;-13;10;2486;-2302;2335;65536;-0.5581717;-0.2922437;0.7474734;0.2105263;-28;44;4;2144;-51;-3666;8192;0.4736842;-0.7275556;-0.4487534;-0.2119114;10;13;-1;2176;3641;-535;32768;0.1565097;-0.7096092;-0.2603878;-0.6357341;-5;42;33;-727;2512;3833;256;0.1357341;-0.2728532;-0.6779379;-0.6689751;19;0;-8;819;3812;-309;128;-0.05401662;0.1717452;0.6606648;0.7287714;0;-4;0;-607;4111;654;4;0.6530805;-0.3088643;0.4099723;0.5567867;8;-15;2;1914;3472;798;16;0.7753177;-0.6080332;0.05401662;-0.1620499;7;0;5;1137;3845;-1250;2;0.4750692;-0.5932863;-0.4778393;-0.4404432;1;-20;11;682;3840;-258;8;0.4833795;-0.8720462;-0.0734072;0.02216066;5;-17;0;-717;3407;2425;0.2907471;2.550099;1.221441;0.2966758;3.090392;1.146143;0.3018841;3.56503;1.077952;0.4422478;4.284647;1.108134;0.2510486;4.655556;1.083284;-0.1113001;4.580851;1.140396;-0.4343238;5.119947;0.45969;0.1628184;5.136409;1.195181;0.7617658;4.55593;1.083605;1.017983;4.360556;1.141107;0.8614103;3.515284;1.576162;0.1366805;2.990103;1.265132;-0.02151442;2.507399;1.22014;0.125409;1.246812;0.4919966;0;0;0;-0.02151442;2.507399;1.22014;0.125409;1.246812;0.4919966;0;0;0
827019.852;NotLabelled;NONE;16384;0.8033432;0.4598338;0.3047091;0.2243767;-53;-15;6;2120;-2388;2389;65536;-0.5595568;-0.2936288;0.743904;0.2174515;-29;49;6;2150;149;-3776;8192;0.4722992;-0.7271956;-0.4501385;-0.2132964;10;11;2;2006;3473;-439;32768;0.1523546;-0.7034471;-0.265928;-0.6412742;-8;65;39;-949;2492;4067;256;0.1357341;-0.2728532;-0.6751933;-0.6717451;19;2;-6;781;4020;-285;128;-0.05540166;0.1717452;0.6606648;0.7286675;-1;3;1;-507;4251;690;4;0.6501468;-0.3088643;0.4127424;0.5581717;-2;-7;-9;1810;3706;1052;16;0.776014;-0.6066482;0.05540166;-0.1634349;9;-12;4;1833;3821;4;2;0.4750692;-0.5964417;-0.4764543;-0.4376731;3;-17;15;714;3884;-198;8;0.4847645;-0.8714697;-0.07063711;0.0235457;5;-16;0;-763;3575;2209;0.2784949;2.546667;1.227728;0.2844268;3.087239;1.154459;0.2896378;3.56213;1.088051;0.4276888;4.282074;1.120986;0.2353293;4.652463;1.097354;-0.1268227;4.576396;1.153913;-0.452029;5.122124;0.4795604;0.1470084;5.133012;1.213613;0.7463606;4.554458;1.0977;1.003154;4.359691;1.154679;0.8426306;3.515066;1.589555;0.1224479;2.990955;1.266395;-0.03376651;2.503972;1.226253;0.1213527;1.245706;0.4957998;0;0;0;-0.03376651;2.503972;1.226253;0.1213527;1.245706;0.4957998;0;0;0
827040.817;NotLabelled;NONE;16384;0.7997269;0.466759;0.3047091;0.2229917;-58;-21;2;1914;-2488;2289;65536;-0.5595568;-0.2963989;0.7407422;0.2243767;-21;58;12;2498;291;-3500;8192;0.4695291;-0.7281302;-0.4515235;-0.2132964;10;12;4;1882;3691;-323;32768;0.1454294;-0.6964143;-0.2714681;-0.6481994;-14;74;41;-711;2472;3785;256;0.1357341;-0.2728532;-0.6703601;-0.6765684;17;-2;-9;619;4328;-325;128;-0.05540166;0.1703601;0.6606648;0.7289925;-1;5;0;-559;4251;276;4;0.6504536;-0.3088643;0.4141274;0.5567867;-5;-11;-6;2068;3518;1062;16;0.7769948;-0.6052631;0.0567867;-0.1634349;8;-4;4;1507;3877;-638;2;0.4750692;-0.5984646;-0.4764543;-0.434903;3;-16;15;732;4074;-238;8;0.4847645;-0.8715423;-0.06925207;0.02493075;4;-10;1;-717;3665;1989;0.2842299;2.547637;1.228485;0.2901615;3.088184;1.155029;0.2953724;3.563051;1.088457;0.4317463;4.283046;1.126831;0.2385543;4.653158;1.105803;-0.123463;4.575845;1.161527;-0.4546326;5.133245;0.499741;0.1513537;5.138031;1.228132;0.7498087;4.556324;1.105802;1.007007;4.361729;1.161526;0.8455511;3.515979;1.593864;0.1311579;2.98977;1.261399;-0.02803141;2.504942;1.227026;0.1229183;1.243141;0.5018157;0;0;0;-0.02803141;2.504942;1.227026;0.1229183;1.243141;0.5018157;0;0;0
