SEP=;
index;label;segment;RightUpperArm_boneIndex;RightUpperArm_quat9x_w;RightUpperArm_quat9x_x;RightUpperArm_quat9x_y;RightUpperArm_quat9x_z;RightUpperArm_gyroscope_x;RightUpperArm_gyroscope_y;RightUpperArm_gyroscope_z;RightUpperArm_accelerometer_x;RightUpperArm_accelerometer_y;RightUpperArm_accelerometer_z;RightLowerArm_boneIndex;RightLowerArm_quat9x_w;RightLowerArm_quat9x_x;RightLowerArm_quat9x_y;RightLowerArm_quat9x_z;RightLowerArm_gyroscope_x;RightLowerArm_gyroscope_y;RightLowerArm_gyroscope_z;RightLowerArm_accelerometer_x;RightLowerArm_accelerometer_y;RightLowerArm_accelerometer_z;LeftUpperArm_boneIndex;LeftUpperArm_quat9x_w;LeftUpperArm_quat9x_x;LeftUpperArm_quat9x_y;LeftUpperArm_quat9x_z;LeftUpperArm_gyroscope_x;LeftUpperArm_gyroscope_y;LeftUpperArm_gyroscope_z;LeftUpperArm_accelerometer_x;LeftUpperArm_accelerometer_y;LeftUpperArm_accelerometer_z;LeftLowerArm_boneIndex;LeftLowerArm_quat9x_w;LeftLowerArm_quat9x_x;LeftLowerArm_quat9x_y;LeftLowerArm_quat9x_z;LeftLowerArm_gyroscope_x;LeftLowerArm_gyroscope_y;LeftLowerArm_gyroscope_z;LeftLowerArm_accelerometer_x;LeftLowerArm_accelerometer_y;LeftLowerArm_accelerometer_z;Chest_boneIndex;Chest_quat9x_w;Chest_quat9x_x;Chest_quat9x_y;Chest_quat9x_z;Chest_gyroscope_x;Chest_gyroscope_y;Chest_gyroscope_z;Chest_accelerometer_x;Chest_accelerometer_y;Chest_accelerometer_z;Spine_boneIndex;Spine_quat9x_w;Spine_quat9x_x;Spine_quat9x_y;Spine_quat9x_z;Spine_gyroscope_x;Spine_gyroscope_y;Spine_gyroscope_z;Spine_accelerometer_x;Spine_accelerometer_y;Spine_accelerometer_z;RightUpperLeg_boneIndex;RightUpperLeg_quat9x_w;RightUpperLeg_quat9x_x;RightUpperLeg_quat9x_y;RightUpperLeg_quat9x_z;RightUpperLeg_gyroscope_x;RightUpperLeg_gyroscope_y;RightUpperLeg_gyroscope_z;RightUpperLeg_accelerometer_x;RightUpperLeg_accelerometer_y;RightUpperLeg_accelerometer_z;RightLowerLeg_boneIndex;RightLowerLeg_quat9x_w;RightLowerLeg_quat9x_x;RightLowerLeg_quat9x_y;RightLowerLeg_quat9x_z;RightLowerLeg_gyroscope_x;RightLowerLeg_gyroscope_y;RightLowerLeg_gyroscope_z;RightLowerLeg_accelerometer_x;RightLowerLeg_accelerometer_y;RightLowerLeg_accelerometer_z;LeftUpperLeg_boneIndex;LeftUpperLeg_quat9x_w;LeftUpperLeg_quat9x_x;LeftUpperLeg_quat9x_y;LeftUpperLeg_quat9x_z;LeftUpperLeg_gyroscope_x;LeftUpperLeg_gyroscope_y;LeftUpperLeg_gyroscope_z;LeftUpperLeg_accelerometer_x;LeftUpperLeg_accelerometer_y;LeftUpperLeg_accelerometer_z;LeftLowerLeg_boneIndex;LeftLowerLeg_quat9x_w;LeftLowerLeg_quat9x_x;LeftLowerLeg_quat9x_y;LeftLowerLeg_quat9x_z;LeftLowerLeg_gyroscope_x;LeftLowerLeg_gyroscope_y;LeftLowerLeg_gyroscope_z;LeftLowerLeg_accelerometer_x;LeftLowerLeg_accelerometer_y;LeftLowerLeg_accelerometer_z;pelvis_x;pelvis_y;pelvis_z;lowerSpine_x;lowerSpine_y;lowerSpine_z;middleSpine_x;middleSpine_y;middleSpine_z;upperSpine_x;upperSpine_y;upperSpine_z;rightClavicle_x;rightClavicle_y;rightClavicle_z;rightShoulder_x;rightShoulder_y;rightShoulder_z;rightElbow_x;rightElbow_y;rightElbow_z;rightWrist_x;rightWrist_y;rightWrist_z;leftClavicle_x;leftClavicle_y;leftClavicle_z;leftShoulder_x;leftShoulder_y;leftShoulder_z;leftElbow_x;leftElbow_y;leftElbow_z;leftWrist_x;leftWrist_y;leftWrist_z;rightHip_x;rightHip_y;rightHip_z;rightKnee_x;rightKnee_y;rightKnee_z;rightAnkle_x;rightAnkle_y;rightAnkle_z;leftHip_x;leftHip_y;leftHip_z;leftKnee_x;leftKnee_y;leftKnee_z;leftAnkle_x;leftAnkle_y;leftAnkle_z;
1523305.1775;NotLabelled;NONE;16384;0.703057;0.5443213;0.3864266;0.2451524;0;-4;2;3098;-2378;1053;65536;-0.6315789;-0.3254848;0.6645805;0.2313019;9;-16;-2;2974;-647;-2922;8192;0.4099723;-0.7465721;-0.4376731;-0.2880886;0;-6;6;1754;3675;-855;32768;0.16759;-0.6648344;-0.4044321;-0.6052631;-2;7;-9;-1028;3169;2005;256;0.2091413;-0.432133;-0.6453432;-0.5941828;-6;0;0;1303;3886;-227;128;-0.04986149;0.1897507;0.6759003;0.7103994;5;-2;0;-635;4003;332;4;0.6398323;-0.2479224;0.434903;0.5831025;0;-6;0;1994;3376;754;16;0.7809817;-0.6066482;0.03601108;-0.1440443;0;-3;0;1189;3943;-860;2;0.5041551;-0.6527985;-0.4127424;-0.3864266;0;-3;2;530;3914;-552;8;0.4529086;-0.8883614;-0.009695291;0.07479224;0;-3;0;-245;3373;2265;-0.1789479;2.510685;1.192226;-0.173049;3.048253;1.09945;-0.1678677;3.520431;1.015906;0.05842724;4.215529;1.079865;-0.08595216;4.607717;1.070302;-0.455439;4.575312;1.120983;-0.7963216;5.107841;0.443826;-0.335848;5.200494;1.266733;0.4088324;4.44664;1.070301;0.6386137;4.219141;1.120983;0.2016926;3.387173;1.333599;-0.320042;2.711233;0.9228862;-0.4912095;2.467967;1.192421;-0.1128793;1.261668;0.4558288;0;0;0;-0.4912095;2.467967;1.192421;-0.1128793;1.261668;0.4558288;0;0;0
1523325.9761;NotLabelled;NONE;16384;0.7038165;0.5443213;0.3850415;0.2451524;1;-3;2;3178;-2316;1135;65536;-0.6315789;-0.3254848;0.6655381;0.2285319;12;-17;-2;3076;-669;-2720;8192;0.4099723;-0.7471051;-0.4376731;-0.2867036;-2;-7;6;1788;3587;-925;32768;0.1689751;-0.6644837;-0.4044321;-0.6052631;-3;-8;-10;-934;3035;2149;256;0.2091413;-0.432133;-0.6466157;-0.5927978;-7;0;0;1093;3942;-295;128;-0.05124654;0.1897507;0.6759003;0.7103008;6;-2;0;-681;4101;268;4;0.6388886;-0.2479224;0.4362881;0.5831025;-1;-6;-1;2100;3370;782;16;0.7809817;-0.6066482;0.03601108;-0.1440443;0;-5;-1;1153;3957;-846;2;0.5041551;-0.6536164;-0.4127424;-0.3850415;0;-6;1;588;3870;-590;8;0.4529086;-0.8882437;-0.009695291;0.07617728;0;-4;-1;-387;3415;2493;-0.1808041;2.510684;1.191284;-0.1749092;3.047894;1.09646;-0.1697315;3.519751;1.011118;0.05637294;4.215141;1.072526;-0.08816314;4.607241;1.061818;-0.4575828;4.574868;1.113006;-0.7988825;5.108126;0.4366338;-0.3414203;5.206365;1.260572;0.4066812;4.446347;1.061817;0.6366021;4.219103;1.113004;0.1988022;3.387881;1.32673;-0.3255047;2.712909;0.9177055;-0.4930658;2.467966;1.191655;-0.1135892;1.261668;0.4556524;0;0;0;-0.4930658;2.467966;1.191655;-0.1135892;1.261668;0.4556524;0;0;0
1523346.94;NotLabelled;NONE;16384;0.7033325;0.5443213;0.3850415;0.2465374;3;0;1;3214;-2262;1183;65536;-0.6315789;-0.3240997;0.6671575;0.2257618;11;-15;-4;2712;-839;-2776;8192;0.4113573;-0.7468739;-0.4376731;-0.2853186;-5;-6;3;1628;3557;-923;32768;0.1689751;-0.6665822;-0.4030471;-0.6038781;0;-15;-8;-914;3059;2223;256;0.2105263;-0.432133;-0.647434;-0.5914127;-2;2;-2;1295;3766;-153;128;-0.05263158;0.1897507;0.6772853;0.7088788;5;-2;2;-809;4055;188;4;0.6376218;-0.2479224;0.4362881;0.5844875;-2;-4;0;2078;3314;726;16;0.7811708;-0.6066482;0.03739612;-0.1426593;0;0;0;1153;3979;-944;2;0.5041551;-0.654489;-0.4113573;-0.3850415;0;-5;0;618;3932;-584;8;0.4529086;-0.8882437;-0.009695291;0.07617728;0;-1;0;-427;3469;2527;-0.1766365;2.512362;1.190605;-0.1707419;3.049543;1.095611;-0.1655645;3.521372;1.010119;0.06183162;4.216558;1.069024;-0.08202362;4.608876;1.057192;-0.4514451;4.577322;1.108876;-0.7914066;5.111976;0.4329317;-0.3359256;5.213288;1.257595;0.4125358;4.447109;1.057192;0.6421096;4.219625;1.108876;0.2043273;3.389154;1.325529;-0.318584;2.712548;0.9174161;-0.4888982;2.469646;1.19099;-0.1134087;1.261668;0.4556974;0;0;0;-0.4888982;2.469646;1.19099;-0.1134087;1.261668;0.4556974;0;0;0
1523366.9638;NotLabelled;NONE;16384;0.7044023;0.5429363;0.3850415;0.2465374;3;0;2;2998;-2298;1131;65536;-0.6315789;-0.3240997;0.6680884;0.2229917;16;-5;-6;2364;-499;-3168;8192;0.4127424;-0.7471629;-0.4376731;-0.2825485;-6;-7;2;1704;3551;-1195;32768;0.1745152;-0.6689034;-0.398892;-0.602493;1;-24;-5;-1182;2877;2667;256;0.2119114;-0.432133;-0.646982;-0.5914127;0;0;-2;1359;3756;-119;128;-0.05401662;0.1897507;0.6786703;0.7074485;5;-2;1;-811;4005;132;4;0.6381586;-0.2465374;0.4362881;0.5844875;-1;-5;0;2116;3252;696;16;0.7811708;-0.6066482;0.03739612;-0.1426593;1;0;1;1161;3951;-960;2;0.5041551;-0.6553018;-0.4113573;-0.3836565;0;-2;0;612;3882;-578;8;0.4529086;-0.8882437;-0.009695291;0.07617728;0;0;0;-421;3363;2405;-0.1778287;2.513121;1.188523;-0.1719385;3.049903;1.091306;-0.166765;3.521375;1.003862;0.0605095;4.216835;1.059931;-0.08352125;4.609059;1.047149;-0.4528065;4.57754;1.099818;-0.7930481;5.113514;0.4250612;-0.3399519;5.215969;1.250896;0.4110976;4.447475;1.046502;0.6408796;4.220247;1.098387;0.2054032;3.388226;1.313737;-0.3206402;2.713595;0.9063818;-0.4900903;2.470406;1.189099;-0.1129226;1.261579;0.4560637;0;0;0;-0.4900903;2.470406;1.189099;-0.1129226;1.261579;0.4560637;0;0;0
1523388.0934;NotLabelled;NONE;16384;0.7051576;0.5429363;0.3836565;0.2465374;4;-5;1;2896;-2278;1151;65536;-0.6301939;-0.3254848;0.669183;0.2216066;16;-4;-6;2878;-675;-2652;8192;0.4141274;-0.7477288;-0.4362881;-0.2811634;-7;-6;0;1708;3529;-1125;32768;0.1759003;-0.6706091;-0.3975069;-0.601108;1;-21;-8;-1654;2815;2811;256;0.2119114;-0.432133;-0.646982;-0.5914127;0;-1;0;1093;3710;-277;128;-0.05401662;0.1897507;0.6786703;0.7074485;3;-5;1;-697;4007;274;4;0.6381586;-0.2465374;0.4362881;0.5844875;0;-4;0;2178;3216;716;16;0.7811708;-0.6066482;0.03739612;-0.1426593;0;-3;0;1177;3943;-996;2;0.5041551;-0.6553018;-0.4113573;-0.3836565;0;-4;1;614;3872;-634;8;0.4529086;-0.8881238;-0.009695291;0.07756232;0;-1;0;-407;3369;2481;-0.1816504;2.51092;1.190374;-0.1757647;3.047295;1.09093;-0.1705952;3.5184;1.00153;0.05512232;4.214345;1.057857;-0.08972824;4.606261;1.044868;-0.4590132;4.573956;1.097062;-0.7950132;5.106404;0.4174064;-0.3468994;5.211967;1.245566;0.4052347;4.445732;1.044868;0.6354339;4.218998;1.097061;0.2014348;3.387981;1.319168;-0.3218054;2.711385;0.9114609;-0.493912;2.468208;1.191142;-0.1144153;1.261578;0.4556922;0;0;0;-0.493912;2.468208;1.191142;-0.1144153;1.261578;0.4556922;0;0;0
1523408.9452;NotLabelled;NONE;16384;0.7051576;0.5429363;0.3836565;0.2465374;3;-6;-1;3026;-2206;1365;65536;-0.6288089;-0.3254848;0.6709408;0.2202216;12;-2;-6;2974;-599;-2702;8192;0.4155124;-0.74696;-0.4362881;-0.2811634;-8;-5;-3;1668;3371;-1075;32768;0.1759003;-0.6726655;-0.3961219;-0.599723;0;-12;-7;-1740;2845;2681;256;0.2132964;-0.432133;-0.6465267;-0.5914127;0;2;0;1189;3848;-377;128;-0.05540166;0.1911357;0.6786703;0.7069684;1;-6;1;-659;4041;372;4;0.6368873;-0.2465374;0.4362881;0.5858725;0;-2;0;2254;3298;774;16;0.7811708;-0.6066482;0.03739612;-0.1426593;1;-4;0;1191;3905;-968;2;0.5041551;-0.6561692;-0.4099723;-0.3836565;0;-3;1;590;3954;-598;8;0.4515235;-0.8888428;-0.008310249;0.07756232;-1;-2;0;-369;3371;2465;-0.1816504;2.51092;1.190374;-0.1757647;3.047295;1.09093;-0.1705952;3.5184;1.00153;0.05512232;4.214345;1.057857;-0.08972824;4.606261;1.044868;-0.4590132;4.573956;1.097062;-0.792667;5.107796;0.4173428;-0.3486544;5.215457;1.247439;0.4052347;4.445732;1.044868;0.6354339;4.218998;1.097061;0.2029963;3.387454;1.320236;-0.3218684;2.711159;0.9141206;-0.493912;2.468208;1.191142;-0.1144153;1.261578;0.4556922;0;0;0;-0.493912;2.468208;1.191142;-0.1144153;1.261578;0.4556922;0;0;0
1523430.3826;NotLabelled;NONE;16384;0.7046718;0.5429363;0.3836565;0.2479224;1;-1;-3;2982;-2228;1255;65536;-0.6274238;-0.3296399;0.6711123;0.2174515;5;-1;0;3342;-845;-2202;8192;0.4168975;-0.7461879;-0.4362881;-0.2811634;-5;-9;-1;1728;3383;-1197;32768;0.1745152;-0.6750696;-0.3947368;-0.5983379;-1;-2;-5;-1604;2829;2861;256;0.2132964;-0.432133;-0.6465267;-0.5914127;1;5;-2;1209;3794;-195;128;-0.0567867;0.1911357;0.6786703;0.7068585;2;-5;1;-651;4055;406;4;0.6374217;-0.2451524;0.4362881;0.5858725;0;0;0;2250;3334;756;16;0.7811033;-0.6066482;0.03878116;-0.1426593;1;-4;0;1227;3885;-986;2;0.5041551;-0.6561692;-0.4099723;-0.3836565;1;0;1;528;3928;-632;8;0.4515235;-0.8888428;-0.008310249;0.07756232;-1;-1;0;-391;3377;2355;-0.1854692;2.511772;1.187216;-0.1795837;3.048116;1.087606;-0.1744145;3.519192;0.9980605;0.04981756;4.215622;1.054348;-0.09586978;4.607227;1.041342;-0.465084;4.574136;1.093544;-0.7973341;5.107976;0.4131372;-0.3589374;5.215806;1.246191;0.3994347;4.447754;1.041342;0.6301183;4.221515;1.093543;0.1999359;3.388581;1.31589;-0.3273182;2.714218;0.9096573;-0.4977308;2.46906;1.187998;-0.1153118;1.261579;0.4554656;0;0;0;-0.4977308;2.46906;1.187998;-0.1153118;1.261579;0.4554656;0;0;0
1523450.9403;NotLabelled;NONE;16384;0.7057368;0.5415512;0.3836565;0.2479224;0;0;-3;3180;-2216;1431;65536;-0.6274238;-0.3310249;0.6704302;0.2174515;0;0;5;3448;-779;-2468;8192;0.4168975;-0.7475158;-0.434903;-0.2797784;-1;-11;2;2000;3479;-1361;32768;0.1731302;-0.6746148;-0.3961219;-0.5983379;-2;16;1;-1622;2857;3089;256;0.2132964;-0.4307479;-0.6474503;-0.5914127;-1;2;-1;991;3920;-371;128;-0.0567867;0.1911357;0.6786703;0.7068585;1;-1;1;-757;4093;322;4;0.6374217;-0.2451524;0.4362881;0.5858725;-1;0;0;2140;3264;762;16;0.782177;-0.6052631;0.03878116;-0.1426593;0;5;1;1133;3899;-1004;2;0.5041551;-0.6561692;-0.4099723;-0.3836565;1;-1;0;462;3862;-638;8;0.4515235;-0.8888428;-0.008310249;0.07756232;-2;-1;0;-365;3449;2353;-0.1835287;2.508931;1.193091;-0.1776437;3.045241;1.093297;-0.1724747;3.516286;1.003589;0.05175719;4.212716;1.059877;-0.09393013;4.604321;1.046871;-0.4631443;4.57123;1.099072;-0.7959738;5.103598;0.4177952;-0.3630766;5.218964;1.252713;0.4013744;4.444849;1.04687;0.632058;4.218609;1.099072;0.2045942;3.384291;1.321475;-0.3274024;2.713509;0.9154971;-0.4957901;2.46622;1.193889;-0.1134426;1.260936;0.4577084;0;0;0;-0.4957901;2.46622;1.193889;-0.1134426;1.260936;0.4577084;0;0;0
1523470.9374;NotLabelled;NONE;16384;0.7044935;0.5415512;0.3850415;0.2493075;-1;3;-6;3342;-2228;1393;65536;-0.6288089;-0.3310249;0.6691313;0.2174515;-5;-9;8;3386;-1025;-2580;8192;0.4155124;-0.7493165;-0.434903;-0.2770083;3;2;2;2090;3647;-1349;32768;0.1689751;-0.6707421;-0.400277;-0.601108;3;24;3;-1206;2999;2541;256;0.2146814;-0.4307479;-0.6469924;-0.5914127;-2;0;0;1127;4032;-347;128;-0.05817174;0.1925208;0.6786703;0.7063699;0;-5;0;-747;4181;304;4;0.6374217;-0.2451524;0.4362881;0.5858725;0;-2;1;2066;3260;710;16;0.7822444;-0.6052631;0.03739612;-0.1426593;0;2;0;1231;3943;-1038;2;0.5055401;-0.6559675;-0.4085872;-0.3836565;0;-4;-2;400;4004;-588;8;0.4515235;-0.8887327;-0.006925208;0.07894737;-2;-5;0;-353;3427;2541;-0.1841363;2.507768;1.196687;-0.1782511;3.044079;1.096892;-0.1730824;3.515124;1.007185;0.05046457;4.211922;1.061611;-0.09564251;4.603341;1.047771;-0.4647812;4.569992;1.100341;-0.79737;5.101618;0.4183671;-0.3622627;5.218913;1.251866;0.3998285;4.444387;1.04777;0.630789;4.218516;1.100339;0.2028329;3.385051;1.324984;-0.331093;2.71462;0.9209642;-0.4963977;2.465057;1.197484;-0.1161216;1.259774;0.4602321;0;0;0;-0.4963977;2.465057;1.197484;-0.1161216;1.259774;0.4602321;0;0;0
1523490.9814;NotLabelled;NONE;16384;0.7042239;0.5415512;0.3864266;0.2479224;-5;9;-5;3378;-2384;1371;65536;-0.6301939;-0.3310249;0.6678271;0.2174515;-9;0;9;2798;-1105;-2710;8192;0.4141274;-0.7500828;-0.434903;-0.2770083;1;7;1;1950;3657;-1259;32768;0.16759;-0.6694295;-0.4030471;-0.601108;4;12;0;-1368;3161;2319;256;0.2146814;-0.4307479;-0.6469924;-0.5914127;-4;-4;0;1295;4024;-221;128;-0.05817174;0.1925208;0.6786703;0.7063699;0;-8;0;-715;4135;374;4;0.6374217;-0.2451524;0.4362881;0.5858725;0;-3;0;2042;3302;730;16;0.7822444;-0.6052631;0.03739612;-0.1426593;0;1;0;1189;3915;-1038;2;0.5055401;-0.6559675;-0.4085872;-0.3836565;1;-3;0;618;3988;-664;8;0.4515235;-0.8887327;-0.006925208;0.07894737;0;-3;0;-499;3427;2595;-0.1882537;2.50841;1.193496;-0.182369;3.044687;1.093527;-0.1772004;3.515703;1.003666;0.04486516;4.212979;1.058034;-0.1020784;4.604085;1.044192;-0.4711391;4.569951;1.096806;-0.8040989;5.098927;0.4129561;-0.3677109;5.217626;1.245586;0.3937307;4.446189;1.044142;0.6251789;4.220814;1.096695;0.19314;3.390163;1.323935;-0.3375685;2.719471;0.9161251;-0.5005152;2.465698;1.194309;-0.1188582;1.260415;0.4577697;0;0;0;-0.5005152;2.465698;1.194309;-0.1188582;1.260415;0.4577697;0;0;0
1523511.1287;NotLabelled;NONE;16384;0.7042484;0.5401662;0.3891967;0.2465374;-7;13;-1;3318;-2304;1315;65536;-0.632964;-0.3296399;0.6658896;0.2174515;-11;-1;8;2854;-977;-2812;8192;0.4127424;-0.7495289;-0.4362881;-0.2783934;0;11;0;1710;3681;-999;32768;0.16759;-0.6685936;-0.4044321;-0.601108;2;3;0;-1236;2975;2269;256;0.2160665;-0.432133;-0.6468722;-0.5900277;-4;-5;1;1197;3866;-341;128;-0.05955679;0.1939058;0.6786703;0.7058754;0;-5;0;-737;4057;520;4;0.6361458;-0.2451524;0.4362881;0.5872576;1;-5;0;2092;3340;794;16;0.7819906;-0.6052631;0.03739612;-0.1440443;0;4;1;1157;3885;-958;2;0.5055401;-0.6576352;-0.4072022;-0.3822715;1;-5;2;734;3974;-632;8;0.4515235;-0.8886086;-0.006925208;0.08033241;0;0;0;-495;3335;2573;-0.1883736;2.508409;1.193446;-0.182489;3.044687;1.093477;-0.1773204;3.515702;1.003617;0.04473969;4.212979;1.058007;-0.1022026;4.604084;1.04415;-0.4712684;4.56995;1.096727;-0.8072069;5.098785;0.4142253;-0.3680604;5.21889;1.245202;0.3936065;4.446188;1.044149;0.6250496;4.220814;1.096726;0.1907068;3.391637;1.32495;-0.3399448;2.719967;0.9186781;-0.5006352;2.465698;1.194259;-0.1189041;1.260415;0.4577581;0;0;0;-0.5006352;2.465698;1.194259;-0.1189041;1.260415;0.4577581;0;0;0
1523532.9426;NotLabelled;NONE;16384;0.7026107;0.5415512;0.3919668;0.2437673;-4;9;0;3112;-2378;1105;65536;-0.6357341;-0.3268698;0.6650666;0.2160665;-5;-3;2;2746;-617;-2798;8192;0.4141274;-0.7479558;-0.4376731;-0.2783934;-1;5;0;1518;3527;-889;32768;0.1689751;-0.6682449;-0.4044321;-0.601108;2;-7;-1;-1172;2969;2211;256;0.2174515;-0.433518;-0.6467432;-0.5886427;-3;-3;0;1207;3896;-395;128;-0.05955679;0.1939058;0.6772853;0.7072044;0;0;0;-747;4047;368;4;0.6351937;-0.2451524;0.4376731;0.5872576;0;-4;-1;2234;3390;940;16;0.7819906;-0.6052631;0.03739612;-0.1440443;0;0;0;1279;3987;-846;2;0.5055401;-0.6576352;-0.4072022;-0.3822715;0;-5;2;644;3870;-632;8;0.4515235;-0.8886086;-0.006925208;0.08033241;0;0;0;-341;3399;2453;-0.1938393;2.508709;1.190893;-0.187955;3.044954;1.090746;-0.1827868;3.51594;1.000729;0.03976285;4.213111;1.054451;-0.1069169;4.604304;1.040294;-0.4759912;4.570467;1.093003;-0.810828;5.097243;0.4083715;-0.3695033;5.218223;1.238066;0.3887845;4.446072;1.040293;0.6200888;4.220585;1.093002;0.1831648;3.391947;1.318239;-0.3449157;2.718965;0.9107921;-0.5061007;2.465998;1.191721;-0.119667;1.259862;0.4590798;0;0;0;-0.5061007;2.465998;1.191721;-0.119667;1.259862;0.4590798;0;0;0
1523574.0368;NotLabelled;NONE;16384;0.7038574;0.5401662;0.3933518;0.2409972;-4;11;-2;3100;-2428;1227;65536;-0.6371191;-0.3268698;0.6637399;0.2160665;-5;-11;2;3064;-707;-2504;8192;0.4155124;-0.7471873;-0.4376731;-0.2783934;-5;-5;-2;1564;3535;-875;32768;0.1745152;-0.6726227;-0.398892;-0.5983379;-1;-21;-6;-1082;2847;2737;256;0.2188366;-0.434903;-0.6466053;-0.5872576;0;0;2;1267;3902;-319;128;-0.05955679;0.1939058;0.6786703;0.7058754;1;0;-1;-867;4053;230;4;0.6357265;-0.2437673;0.4376731;0.5872576;-1;1;0;2178;3292;728;16;0.7815403;-0.6052631;0.03601108;-0.1468144;0;7;0;1259;3933;-986;2;0.5055401;-0.6584383;-0.4072022;-0.3808864;0;1;0;818;3942;-794;8;0.4515235;-0.8886183;-0.005540166;0.08033241;0;3;0;-401;3355;2571;-0.1953859;2.510409;1.187988;-0.1894975;3.047031;1.08989;-0.1843256;3.518358;1.001672;0.03871298;4.215424;1.054738;-0.1077045;4.606705;1.040287;-0.4767876;4.573164;1.093125;-0.8144028;5.10085;0.4105626;-0.3718681;5.222307;1.239543;0.3878891;4.448133;1.040287;0.6190543;4.222536;1.093125;0.1847014;3.392392;1.31779;-0.3400335;2.717766;0.9087403;-0.5076474;2.467695;1.18864;-0.1216887;1.259862;0.4585483;0;0;0;-0.5076474;2.467695;1.18864;-0.1216887;1.259862;0.4585483;0;0;0
1523594.9516;NotLabelled;NONE;16384;0.7035548;0.5401662;0.3947368;0.2396122;-6;11;-4;3036;-2284;1097;65536;-0.6371191;-0.3240997;0.6655453;0.2146814;-6;-19;0;3084;-705;-2670;8192;0.4168975;-0.7472258;-0.4362881;-0.2783934;-5;-6;-3;1630;3575;-1045;32768;0.1759003;-0.675125;-0.3961219;-0.5969529;-1;-20;-6;-1300;2859;2653;256;0.2188366;-0.434903;-0.6466053;-0.5872576;0;0;2;1289;3846;-343;128;-0.05955679;0.1952908;0.6786703;0.7054935;0;0;0;-753;3991;252;4;0.6357265;-0.2437673;0.4376731;0.5872576;0;1;0;2070;3186;708;16;0.7815403;-0.6052631;0.03601108;-0.1468144;0;1;0;1249;3907;-1046;2;0.5041551;-0.6586976;-0.4072022;-0.3822715;0;3;0;820;3884;-708;8;0.4515235;-0.8886086;-0.006925208;0.08033241;0;3;0;-357;3339;2509;-0.1985482;2.507746;1.191259;-0.192664;3.04399;1.091112;-0.1874956;3.514977;1.001095;0.03609246;4.211935;1.053252;-0.1100805;4.603303;1.038685;-0.4791089;4.570057;1.092087;-0.8112744;5.101185;0.4095195;-0.3685586;5.224044;1.238196;0.385405;4.444395;1.038098;0.6164936;4.218684;1.09079;0.1834122;3.386303;1.309552;-0.3417096;2.711618;0.9010963;-0.5108097;2.465035;1.192087;-0.122538;1.259397;0.459599;0;0;0;-0.5108097;2.465035;1.192087;-0.122538;1.259397;0.459599;0;0;0
1523635.9379;NotLabelled;NONE;16384;0.7013974;0.5415512;0.3975069;0.2382271;0;6;-3;3196;-2358;1063;65536;-0.6398892;-0.3199446;0.6657859;0.2119114;-1;-10;-3;2924;-717;-2684;8192;0.4196676;-0.7478019;-0.433518;-0.2770083;-3;-8;-4;1678;3555;-1225;32768;0.1772853;-0.678816;-0.3933518;-0.5941828;0;-17;-8;-1534;2815;2713;256;0.2188366;-0.4362881;-0.6456715;-0.5872576;1;1;1;1177;3784;-297;128;-0.05955679;0.1952908;0.6786703;0.7054935;1;0;0;-729;4071;316;4;0.6361458;-0.2451524;0.4362881;0.5872576;2;4;1;2032;3412;690;16;0.7810775;-0.6052631;0.03462604;-0.1495845;-1;12;1;1121;3961;-1018;2;0.5041551;-0.6586976;-0.4072022;-0.3822715;0;0;1;582;4018;-596;8;0.4515235;-0.8884823;-0.006925208;0.08171745;0;0;0;-359;3497;2501;-0.1999571;2.507747;1.190654;-0.1940728;3.043994;1.090521;-0.1889046;3.514983;1.000516;0.03462192;4.211941;1.052938;-0.1115337;4.603309;1.038198;-0.4806252;4.570064;1.091163;-0.8160121;5.098677;0.4082185;-0.3751113;5.219196;1.238205;0.383952;4.444402;1.038197;0.614978;4.21869;1.091162;0.1842175;3.38587;1.31282;-0.3427895;2.712767;0.9041849;-0.5122187;2.465036;1.191481;-0.1230811;1.259397;0.4594531;0;0;0;-0.5122187;2.465036;1.191481;-0.1230811;1.259397;0.4594531;0;0;0
1523697.0604;NotLabelled;NONE;16384;0.7013592;0.5401662;0.400277;0.2368421;1;7;-3;3214;-2358;1201;65536;-0.6412742;-0.3171745;0.6657787;0.2119114;-5;-10;-1;3072;-695;-2956;8192;0.4196676;-0.7499115;-0.4307479;-0.2756233;2;-4;0;2062;3549;-1209;32768;0.1786704;-0.680463;-0.3919668;-0.5927978;0;5;0;-1600;2987;2869;256;0.2188366;-0.4362881;-0.6469286;-0.5858725;0;0;2;1227;3866;-273;128;-0.05955679;0.1952908;0.6786703;0.7054935;0;-3;0;-787;4177;156;4;0.6374217;-0.2451524;0.4362881;0.5858725;-1;-1;0;1942;3340;848;16;0.7797956;-0.6066482;0.033241;-0.1509695;-1;6;0;1035;3919;-866;2;0.5041551;-0.6594995;-0.4072022;-0.3808864;0;0;1;644;3970;-624;8;0.4515235;-0.8884823;-0.006925208;0.08171745;1;2;0;-385;3333;2469;-0.2064143;2.507779;1.187816;-0.2005299;3.044026;1.087683;-0.1953616;3.515015;0.9976777;0.02883756;4.211613;1.051976;-0.1169053;4.603166;1.038078;-0.4860722;4.570169;1.090673;-0.8259351;5.098214;0.4095041;-0.38342;5.218794;1.238623;0.3784173;4.44375;1.038077;0.6091701;4.217673;1.090672;0.1812433;3.383039;1.310987;-0.3493338;2.712121;0.9033766;-0.5186757;2.465068;1.188643;-0.1237403;1.258932;0.4605491;0;0;0;-0.5186757;2.465068;1.188643;-0.1237403;1.258932;0.4605491;0;0;0
1523716.9452;NotLabelled;NONE;16384;0.7024237;0.5387812;0.400277;0.2368421;1;7;-3;3248;-2310;1187;65536;-0.6412742;-0.3157895;0.6664368;0.2119114;-2;-5;-1;2730;-723;-3206;8192;0.4196676;-0.7491142;-0.432133;-0.2756233;2;0;2;2098;3627;-1171;32768;0.1772853;-0.6800258;-0.3933518;-0.5927978;0;11;0;-1600;3017;2631;256;0.2202216;-0.4390582;-0.6458365;-0.5844875;-3;-4;2;1289;3840;-295;128;-0.06094183;0.1966759;0.6786703;0.7049903;1;-4;0;-725;4131;304;4;0.6374217;-0.2451524;0.4362881;0.5858725;-1;-3;0;1934;3338;770;16;0.7795262;-0.6066482;0.033241;-0.1523546;0;4;0;1293;3955;-782;2;0.5041551;-0.6602975;-0.4072022;-0.3795014;1;-3;2;502;3858;-664;8;0.4515235;-0.8884823;-0.006925208;0.08171745;0;-1;0;-335;3421;2449;-0.2010702;2.508179;1.187682;-0.195186;3.044426;1.087549;-0.1900178;3.515415;0.9975439;0.03548294;4.211782;1.049367;-0.109574;4.603548;1.03436;-0.4787443;4.571383;1.087443;-0.8208364;5.09739;0.4058143;-0.3748537;5.215446;1.233437;0.3854626;4.443246;1.034359;0.6158656;4.216927;1.087442;0.1860401;3.38323;1.307616;-0.3462411;2.712562;0.9018216;-0.5133319;2.465468;1.188509;-0.1201166;1.260185;0.4580753;0;0;0;-0.5133319;2.465468;1.188509;-0.1201166;1.260185;0.4580753;0;0;0
1523737.9406;NotLabelled;NONE;16384;0.7016326;0.5387812;0.4016621;0.2368421;3;6;-2;3214;-2332;1167;65536;-0.6412742;-0.3157895;0.6668756;0.2105263;0;-3;-1;2824;-769;-3056;8192;0.4182825;-0.7498884;-0.432133;-0.2756233;1;5;2;1976;3567;-1191;32768;0.1759003;-0.6795828;-0.3947368;-0.5927978;0;11;0;-1368;2979;2455;256;0.2202216;-0.4390582;-0.6458365;-0.5844875;-5;-4;2;1265;3878;-285;128;-0.06232687;0.1966759;0.6786703;0.7048692;0;-5;0;-701;4011;176;4;0.6364715;-0.2451524;0.4376731;0.5858725;-1;-6;0;1964;3336;706;16;0.7795262;-0.6066482;0.033241;-0.1523546;0;-5;0;1263;3965;-736;2;0.5041551;-0.6602975;-0.4072022;-0.3795014;0;-4;2;544;3968;-644;8;0.4515235;-0.8884823;-0.006925208;0.08171745;0;0;0;-437;3445;2425;-0.2084675;2.507615;1.185786;-0.2025836;3.043827;1.08547;-0.1974157;3.514785;0.9953045;0.02923694;4.210682;1.048397;-0.1151477;4.602718;1.033958;-0.4844005;4.571092;1.086791;-0.8192374;5.09636;0.4010029;-0.3791426;5.212469;1.232046;0.3796164;4.441578;1.033958;0.6096069;4.214781;1.08679;0.1790104;3.380986;1.305078;-0.351134;2.710696;0.8958772;-0.5207291;2.464904;1.186628;-0.1222211;1.259621;0.4590689;0;0;0;-0.5207291;2.464904;1.186628;-0.1222211;1.259621;0.4590689;0;0;0
1523757.9666;NotLabelled;NONE;16384;0.7034239;0.536011;0.4030471;0.2354571;2;6;0;3188;-2240;1337;65536;-0.6426592;-0.3157895;0.665541;0.2105263;-3;-4;0;3010;-723;-2692;8192;0.4182825;-0.7490886;-0.433518;-0.2756233;1;5;2;1778;3525;-1159;32768;0.1759003;-0.6787764;-0.3961219;-0.5927978;0;5;0;-1308;2995;2371;256;0.2216066;-0.4404432;-0.6456716;-0.5831025;-5;-2;3;1217;3798;-287;128;-0.06232687;0.1980609;0.6786703;0.7044812;1;-3;0;-799;4021;278;4;0.6351937;-0.2451524;0.4376731;0.5872576;-1;-8;-1;1954;3214;702;16;0.7797956;-0.6066482;0.033241;-0.1509695;0;-5;0;1179;3925;-808;2;0.5041551;-0.6611496;-0.4058172;-0.3795014;0;-4;1;582;3884;-648;8;0.4529086;-0.887777;-0.006925208;0.08171745;0;0;0;-415;3375;2361;-0.2047523;2.509307;1.184988;-0.1988689;3.045481;1.084472;-0.1937013;3.516406;0.9941309;0.03295135;4.212303;1.047224;-0.1114334;4.60434;1.032785;-0.4806861;4.572713;1.085618;-0.8179041;5.096584;0.3999275;-0.3789001;5.214266;1.231326;0.3833306;4.443199;1.032784;0.6133212;4.216401;1.085617;0.1800003;3.383992;1.3038;-0.3509614;2.714079;0.8950423;-0.5170138;2.466596;1.185848;-0.1222211;1.259621;0.4590694;0;0;0;-0.5170138;2.466596;1.185848;-0.1222211;1.259621;0.4590694;0;0;0
1523778.9496;NotLabelled;NONE;16384;0.7034239;0.536011;0.4030471;0.2354571;1;8;-1;3050;-2288;1311;65536;-0.6426592;-0.3144044;0.6661964;0.2105263;-5;-4;0;2910;-645;-2728;8192;0.4168975;-0.7498603;-0.433518;-0.2756233;1;3;3;1632;3503;-1049;32768;0.1759003;-0.6787764;-0.3961219;-0.5927978;1;2;0;-1324;2923;2421;256;0.2216066;-0.4404432;-0.6469197;-0.5817174;-4;-1;3;1229;3756;-249;128;-0.06232687;0.1980609;0.6786703;0.7044812;2;-2;0;-751;4041;252;4;0.6347708;-0.2437673;0.4390582;0.5872576;0;-5;0;2120;3248;788;16;0.7797956;-0.6066482;0.033241;-0.1509695;1;-1;0;1153;3993;-980;2;0.5041551;-0.6611496;-0.4058172;-0.3795014;0;-4;0;546;3806;-628;8;0.4529086;-0.8877868;-0.005540166;0.08171745;-1;-3;-1;-255;3369;2299;-0.2126542;2.510729;1.17858;-0.2067707;3.046906;1.078078;-0.2016031;3.517833;0.9877485;0.02553004;4.213619;1.040238;-0.1185951;4.605741;1.025528;-0.4878557;4.574404;1.078477;-0.8164238;5.096857;0.3875251;-0.3782205;5.215901;1.219152;0.3760607;4.444268;1.025531;0.6059121;4.217358;1.078485;0.1715189;3.384856;1.294168;-0.3568797;2.713655;0.8842032;-0.5249158;2.468018;1.179439;-0.1254719;1.260185;0.4566374;0;0;0;-0.5249158;2.468018;1.179439;-0.1254719;1.260185;0.4566374;0;0;0
1523799.2304;NotLabelled;NONE;16384;0.7041448;0.534626;0.4044321;0.234072;2;9;-2;3034;-2356;1255;65536;-0.6440443;-0.3144044;0.6648575;0.2105263;-5;-6;0;2940;-601;-2752;8192;0.4168975;-0.7490578;-0.434903;-0.2756233;0;1;3;1576;3541;-1025;32768;0.1759003;-0.6779662;-0.3975069;-0.5927978;2;0;-2;-1178;2967;2431;256;0.2216066;-0.4418283;-0.6472191;-0.5803324;-5;-1;4;1263;3842;-291;128;-0.06232687;0.1980609;0.6786703;0.7044812;1;-1;-2;-769;4043;202;4;0.6347708;-0.2437673;0.4390582;0.5872576;0;-3;0;2278;3264;790;16;0.7797956;-0.6066482;0.033241;-0.1509695;1;2;0;1111;3933;-1028;2;0.5055401;-0.6608855;-0.4058172;-0.3781163;0;-6;-1;624;3892;-708;8;0.4515235;-0.8883635;-0.005540166;0.08310249;-1;-9;-2;-321;3377;2447;-0.2084897;2.510233;1.181644;-0.2026062;3.04641;1.081142;-0.1974387;3.517338;0.9908127;0.03100273;4.212876;1.04084;-0.1124313;4.605208;1.025027;-0.4816917;4.574707;1.078464;-0.8135973;5.097178;0.3891231;-0.374939;5.214273;1.220787;0.3819325;4.442844;1.025026;0.6114306;4.21569;1.078464;0.1753688;3.384573;1.296108;-0.3531882;2.713371;0.8863476;-0.5207512;2.467522;1.182503;-0.1252952;1.260185;0.456686;0;0;0;-0.5207512;2.467522;1.182503;-0.1252952;1.260185;0.456686;0;0;0
1523821.1122;NotLabelled;NONE;16384;0.7041448;0.534626;0.4044321;0.234072;2;8;-2;3022;-2290;1265;65536;-0.6440443;-0.3130194;0.6655107;0.2105263;-5;-5;1;2848;-557;-2960;8192;0.4182825;-0.7490886;-0.433518;-0.2756233;-1;-1;0;1518;3649;-981;32768;0.1772853;-0.6796237;-0.3961219;-0.5914127;2;-7;-6;-1200;2905;2629;256;0.2229917;-0.4432133;-0.6470368;-0.5789474;-6;-5;5;1189;3740;-237;128;-0.06232687;0.199446;0.6800554;0.7027527;1;-1;-2;-815;4043;284;4;0.6349747;-0.2423823;0.4376731;0.5886427;1;0;2;2184;3272;740;16;0.7797956;-0.6066482;0.033241;-0.1509695;-1;0;0;1251;3959;-962;2;0.5055401;-0.661734;-0.4044321;-0.3781163;0;-5;0;694;4076;-706;8;0.4515235;-0.8882405;-0.004155125;0.08448754;0;1;-1;-527;3543;2577;-0.2113997;2.510233;1.180358;-0.2055162;3.04641;1.079856;-0.2003486;3.517338;0.9895265;0.03005961;4.212267;1.039001;-0.1122743;4.604989;1.022941;-0.4816064;4.575564;1.076487;-0.8097432;5.097376;0.3848456;-0.3702275;5.215832;1.215864;0.381631;4.441236;1.02294;0.6105019;4.213475;1.076486;0.1741989;3.382258;1.29327;-0.3526089;2.709772;0.8833648;-0.5236613;2.467522;1.181217;-0.1264193;1.260185;0.456376;0;0;0;-0.5236613;2.467522;1.181217;-0.1264193;1.260185;0.456376;0;0;0
1523842.0981;NotLabelled;NONE;16384;0.7043982;0.533241;0.4058172;0.234072;4;6;-3;3028;-2376;1203;65536;-0.6454294;-0.3116343;0.6648185;0.2105263;-1;-5;1;2796;-543;-2938;8192;0.4182825;-0.7490886;-0.433518;-0.2756233;-1;-4;0;1490;3655;-989;32768;0.1772853;-0.6808265;-0.3961219;-0.5900277;3;-9;-8;-1324;3035;2645;256;0.2243767;-0.4432133;-0.6477953;-0.5775623;-7;-5;6;1223;3798;-159;128;-0.06232687;0.199446;0.6800554;0.7027527;1;0;-2;-795;4043;270;4;0.6349747;-0.2423823;0.4376731;0.5886427;2;0;2;2126;3276;836;16;0.7797956;-0.6066482;0.033241;-0.1509695;-1;-1;-1;1321;3953;-930;2;0.5055401;-0.6625785;-0.4030471;-0.3781163;0;-3;0;732;4058;-732;8;0.4515235;-0.8881076;-0.004155125;0.08587258;-1;5;-1;-369;3449;2521;-0.2218143;2.507195;1.180019;-0.2159351;3.042987;1.077479;-0.2107713;3.513567;0.9853599;0.02011859;4.208377;1.034257;-0.121954;4.601183;1.017939;-0.4912924;4.572048;1.071599;-0.8180496;5.09386;0.3793043;-0.3821106;5.210363;1.21248;0.3718406;4.437096;1.017938;0.600571;4.209221;1.071598;0.1657298;3.376714;1.286355;-0.3608215;2.704486;0.8756959;-0.5340759;2.464488;1.181053;-0.1284518;1.260185;0.4558074;0;0;0;-0.5340759;2.464488;1.181053;-0.1284518;1.260185;0.4558074;0;0;0
1523863.9484;NotLabelled;NONE;16384;0.7056893;0.5304709;0.4072022;0.234072;8;6;-5;3044;-2318;1343;65536;-0.6468144;-0.3116343;0.663909;0.2091413;-6;-8;2;2952;-779;-2568;8192;0.4196676;-0.7496223;-0.432133;-0.2742382;-1;-10;-1;1608;3621;-1053;32768;0.1772853;-0.6820244;-0.3961219;-0.5886427;4;-7;-9;-1478;3019;2627;256;0.2243767;-0.4445983;-0.6480796;-0.5761772;-6;-5;6;1277;3858;-167;128;-0.06232687;0.199446;0.6800554;0.7027527;0;0;-2;-845;4077;204;4;0.6359271;-0.2423823;0.4362881;0.5886427;1;0;1;2244;3288;910;16;0.7797956;-0.6066482;0.033241;-0.1509695;-1;2;-2;1185;3913;-1006;2;0.5055401;-0.663367;-0.4030471;-0.3767313;-2;0;0;802;4106;-576;8;0.4515235;-0.8882329;-0.005540166;0.08448754;0;4;0;-265;3407;2553;-0.2237201;2.507195;1.179157;-0.2178408;3.042987;1.076617;-0.2126771;3.513567;0.9844978;0.01803684;4.208606;1.030914;-0.124182;4.601312;1.013484;-0.4934533;4.572229;1.067632;-0.8192791;5.091882;0.3732773;-0.3816378;5.207788;1.205643;0.3696661;4.437385;1.013483;0.5985283;4.209758;1.067631;0.163341;3.37725;1.281685;-0.3649353;2.705658;0.8722024;-0.5359816;2.464488;1.180191;-0.1291875;1.260185;0.4556003;0;0;0;-0.5359816;2.464488;1.180191;-0.1291875;1.260185;0.4556003;0;0;0
1523884.4667;NotLabelled;NONE;16384;0.7059284;0.5290859;0.4085872;0.234072;6;8;-6;3106;-2270;1499;65536;-0.6481994;-0.3102493;0.6632065;0.2091413;-9;-8;2;2848;-705;-2910;8192;0.4196676;-0.7504191;-0.4307479;-0.2742382;0;-13;0;1734;3649;-1113;32768;0.1786704;-0.6828564;-0.3961219;-0.5872576;3;-5;-7;-1394;2983;2643;256;0.2257618;-0.4459834;-0.6478768;-0.5747922;-5;-4;5;1361;3898;-113;128;-0.06094183;0.199446;0.6800554;0.7028741;-2;1;-2;-829;4109;272;4;0.6359271;-0.2423823;0.4362881;0.5886427;1;-1;2;2272;3324;820;16;0.7795262;-0.6066482;0.033241;-0.1523546;-1;6;-2;1259;3921;-886;2;0.5055401;-0.6625235;-0.4044321;-0.3767313;-2;3;0;734;3996;-790;8;0.4515235;-0.8881;-0.005540166;0.08587258;1;3;0;-369;3359;2589;-0.2303585;2.505486;1.178559;-0.2244792;3.041277;1.076019;-0.2193155;3.511857;0.9839002;0.01336354;4.206276;1.029789;-0.127754;4.599368;1.012123;-0.4970933;4.571362;1.066374;-0.8191854;5.088062;0.3680868;-0.3817637;5.206894;1.200155;0.365631;4.434053;1.012123;0.5938643;4.20582;1.066374;0.1597264;3.37277;1.280448;-0.3699164;2.701816;0.8716869;-0.54262;2.462779;1.179593;-0.1303134;1.260185;0.4552788;0;0;0;-0.54262;2.462779;1.179593;-0.1303134;1.260185;0.4552788;0;0;0
1523904.0614;NotLabelled;NONE;16384;0.706162;0.5277008;0.4099723;0.234072;6;9;-7;3112;-2268;1473;65536;-0.6495845;-0.3074792;0.6631414;0.2091413;-7;-9;2;2758;-595;-3300;8192;0.4210526;-0.7514434;-0.4293629;-0.2714681;-1;-8;1;2026;3487;-1181;32768;0.1786704;-0.6840451;-0.3961219;-0.5858725;2;-6;-5;-1396;2857;2407;256;0.2257618;-0.4473684;-0.6481492;-0.5734072;-4;-5;4;1393;3820;-231;128;-0.06094183;0.199446;0.6786703;0.7042116;-2;2;-2;-793;4123;198;4;0.6359271;-0.2423823;0.4362881;0.5886427;1;1;1;2136;3310;764;16;0.7795841;-0.6066482;0.03185596;-0.1523546;-1;1;-2;1285;3945;-794;2;0.5055401;-0.6625235;-0.4044321;-0.3767313;-1;4;0;704;3866;-748;8;0.4515235;-0.8881;-0.005540166;0.08587258;2;5;0;-383;3315;2585;-0.2344515;2.504921;1.178039;-0.2285718;3.040751;1.075699;-0.2234077;3.511365;0.9837554;0.009753495;4.205658;1.029097;-0.1311012;4.598834;1.011186;-0.5004466;4.571117;1.065545;-0.819699;5.085639;0.3643505;-0.3829438;5.203864;1.196856;0.3621714;4.433183;1.011185;0.5902627;4.204834;1.065544;0.1543838;3.371879;1.276424;-0.3742477;2.699893;0.8680498;-0.5467131;2.462214;1.179056;-0.1311688;1.259621;0.4565928;0;0;0;-0.5467131;2.462214;1.179056;-0.1311688;1.259621;0.4565928;0;0;0
1523926.0666;NotLabelled;NONE;16384;0.7068477;0.5263157;0.4113573;0.232687;6;9;-8;3068;-2244;1427;65536;-0.6495845;-0.3060942;0.6642166;0.2077562;-4;-6;2;2728;-703;-3368;8192;0.4210526;-0.7519423;-0.4293629;-0.2700831;-1;-3;1;1986;3389;-1245;32768;0.1786704;-0.685229;-0.3961219;-0.5844875;1;-7;-5;-1700;2821;2449;256;0.2271468;-0.4487534;-0.6491517;-0.5706371;-7;-5;5;1469;3806;-207;128;-0.05955679;0.200831;0.6800554;0.7025985;-1;2;-2;-911;4095;158;4;0.6363463;-0.2437673;0.434903;0.5886427;0;3;0;2052;3436;766;16;0.7793674;-0.6066482;0.03047091;-0.1537396;0;9;0;1171;3953;-866;2;0.5055401;-0.661676;-0.4058172;-0.3767313;-1;1;0;740;3902;-656;8;0.4529086;-0.8875178;-0.006925208;0.08448754;2;6;0;-319;3445;2375;-0.2405878;2.505587;1.173819;-0.2347038;3.041805;1.073532;-0.2295358;3.512768;0.9833913;0.005529583;4.206432;1.028524;-0.1342003;4.599991;1.010212;-0.5036781;4.573347;1.064206;-0.8178149;5.082984;0.3571575;-0.3809826;5.198639;1.189983;0.3586042;4.432954;1.01083;0.5859961;4.204;1.065574;0.1497672;3.372055;1.279696;-0.3797064;2.700706;0.871364;-0.5528493;2.462876;1.174659;-0.1346051;1.260284;0.4537556;0;0;0;-0.5528493;2.462876;1.174659;-0.1346051;1.260284;0.4537556;0;0;0
1523946.9514;NotLabelled;NONE;16384;0.7080963;0.5235457;0.4127424;0.232687;6;7;-6;3138;-2212;1469;65536;-0.6509695;-0.3060942;0.6628593;0.2077562;-3;-5;1;2560;-833;-3376;8192;0.4210526;-0.7519423;-0.4293629;-0.2700831;-2;-3;2;1864;3405;-1145;32768;0.1786704;-0.686408;-0.3961219;-0.5831025;2;-5;-5;-1616;2851;2647;256;0.2271468;-0.4501385;-0.6494088;-0.5692521;-4;0;5;1513;3768;-223;128;-0.05955679;0.200831;0.6800554;0.7025985;0;1;-2;-881;4041;264;4;0.6363463;-0.2437673;0.434903;0.5886427;1;2;0;2018;3306;742;16;0.7782874;-0.6080332;0.03047091;-0.1537396;-1;0;-1;1463;3929;-738;2;0.5055401;-0.661676;-0.4058172;-0.3767313;-1;2;-1;732;3916;-678;8;0.4529086;-0.8875058;-0.008310249;0.08448754;1;5;0;-331;3315;2363;-0.2481266;2.506176;1.168669;-0.2422464;3.042045;1.066539;-0.2370818;3.512696;0.9747802;-0.0001708567;4.205936;1.016665;-0.1389644;4.599771;0.9972074;-0.5083683;4.57426;1.052245;-0.8219986;5.085905;0.3464229;-0.3884935;5.201173;1.181039;0.3534216;4.431503;0.9972066;0.5803807;4.202191;1.052244;0.1437775;3.370169;1.2653;-0.3868954;2.699459;0.8574762;-0.5603881;2.463468;1.169667;-0.136444;1.260385;0.4529248;0;0;0;-0.5603881;2.463468;1.169667;-0.136444;1.260385;0.4529248;0;0;0
1523968.062;NotLabelled;NONE;16384;0.7078538;0.5221606;0.4141274;0.234072;4;1;-5;3158;-2284;1461;65536;-0.6509695;-0.3033241;0.6649916;0.2049861;2;-5;-6;2732;-845;-3222;8192;0.4210526;-0.7524384;-0.4293629;-0.2686981;-2;-5;3;1814;3475;-1141;32768;0.1786704;-0.686408;-0.3961219;-0.5831025;0;-2;-3;-1410;2843;2731;256;0.2271468;-0.4501385;-0.6506202;-0.567867;-3;0;4;1477;3890;-231;128;-0.05817174;0.200831;0.6800554;0.7027144;0;0;-2;-939;4097;180;4;0.6376247;-0.2437673;0.434903;0.5872576;1;3;1;1934;3282;734;16;0.7782874;-0.6080332;0.03047091;-0.1537396;0;-3;-2;1139;4025;-850;2;0.5055401;-0.661676;-0.4058172;-0.3767313;-2;5;-3;800;3940;-720;8;0.4529086;-0.8875058;-0.008310249;0.08448754;1;4;0;-419;3341;2425;-0.2469227;2.507313;1.165326;-0.2410425;3.043183;1.063196;-0.2358779;3.513834;0.9714376;0.002989739;4.206431;1.012845;-0.1347005;4.600642;0.993174;-0.5041627;4.576203;1.048305;-0.8148572;5.084831;0.3390126;-0.3804848;5.201436;1.172992;0.3572107;4.430991;0.9931733;0.583536;4.201076;1.048304;0.1466438;3.369054;1.260766;-0.3853695;2.698983;0.8536357;-0.5591841;2.464606;1.166325;-0.1334527;1.261523;0.4506423;0;0;0;-0.5591841;2.464606;1.166325;-0.1334527;1.261523;0.4506423;0;0;0
1523988.9517;NotLabelled;NONE;16384;0.7078538;0.5221606;0.4141274;0.234072;3;-3;-5;3080;-2252;1475;65536;-0.6509695;-0.301939;0.6660466;0.2036011;-1;-17;-8;3218;-971;-3102;8192;0.4210526;-0.7537197;-0.4279778;-0.267313;-2;-5;3;1964;3533;-1231;32768;0.1786704;-0.6872054;-0.3947368;-0.5831025;-3;-1;0;-1272;2711;2821;256;0.2271468;-0.4515235;-0.6508678;-0.566482;-4;-6;4;1457;3964;-189;128;-0.05817174;0.200831;0.6800554;0.7027144;-3;3;-1;-875;4041;290;4;0.6370935;-0.2451524;0.434903;0.5872576;2;2;1;2030;3238;702;16;0.7782874;-0.6080332;0.03047091;-0.1537396;0;2;-1;997;3933;-894;2;0.5055401;-0.660033;-0.4072022;-0.3781163;-1;10;-3;636;3884;-692;8;0.4542936;-0.8869286;-0.008310249;0.08310249;2;3;0;-417;3315;2509;-0.2451149;2.506463;1.167791;-0.2392343;3.04237;1.065854;-0.2340693;3.513053;0.9742645;0.006101787;4.205339;1.013252;-0.1308925;4.599737;0.9924977;-0.5003389;4.576142;1.048102;-0.8121459;5.081059;0.3366486;-0.3793314;5.196897;1.171544;0.360709;4.429192;0.992497;0.5866755;4.199037;1.048101;0.1495722;3.367761;1.263032;-0.3825974;2.69769;0.8561058;-0.5573764;2.463755;1.168773;-0.1332798;1.261522;0.4506937;0;0;0;-0.5573764;2.463755;1.168773;-0.1332798;1.261522;0.4506937;0;0;0
1524009.9427;NotLabelled;NONE;16384;0.7065817;0.5221606;0.4155124;0.2354571;2;-4;-1;3194;-2110;1503;65536;-0.6509695;-0.300554;0.6670942;0.2022161;0;-13;-7;2710;-559;-3308;8192;0.4196676;-0.7541943;-0.4293629;-0.265928;0;3;2;1964;3393;-1413;32768;0.1772853;-0.6871817;-0.3933518;-0.5844875;-4;-1;4;-1372;2713;2601;256;0.2271468;-0.4529086;-0.6511095;-0.5650969;-3;-3;3;1473;3762;-231;128;-0.0567867;0.200831;0.6786703;0.7041653;0;3;-2;-877;4037;212;4;0.6380368;-0.2451524;0.433518;0.5872576;1;2;1;2018;3364;780;16;0.7783404;-0.6080332;0.02908587;-0.1537396;0;2;0;1213;3885;-942;2;0.5055401;-0.6592376;-0.4072022;-0.3795014;-2;0;-2;574;4008;-556;8;0.4542936;-0.8869145;-0.009695291;0.08310249;2;7;0;-611;3399;2521;-0.2479238;2.508667;1.162753;-0.2420432;3.044573;1.060816;-0.2368783;3.515257;0.969227;0.00524655;4.206888;1.007751;-0.1306426;4.601657;0.9867902;-0.5001422;4.579136;1.042485;-0.8100842;5.08405;0.3302178;-0.3802907;5.199518;1.166723;0.3604774;4.42973;0.9867895;0.5858074;4.198975;1.042485;0.1470346;3.368526;1.257218;-0.3848155;2.699717;0.8478078;-0.5601853;2.465959;1.163735;-0.1344063;1.261523;0.4503591;0;0;0;-0.5601853;2.465959;1.163735;-0.1344063;1.261523;0.4503591;0;0;0
1524031.1726;NotLabelled;NONE;16384;0.7076031;0.5207756;0.4155124;0.2354571;5;-1;0;3294;-2182;1357;65536;-0.6509695;-0.300554;0.6670942;0.2022161;1;4;-6;2614;-729;-3012;8192;0.4196676;-0.7541943;-0.4293629;-0.265928;0;7;2;1846;3459;-1449;32768;0.1772853;-0.6860012;-0.3933518;-0.5858725;-2;-3;4;-1500;2753;2563;256;0.2285319;-0.4542936;-0.6508605;-0.5637119;-6;-6;5;1383;3766;-295;128;-0.0567867;0.200831;0.6800554;0.7028278;1;1;-1;-925;4061;196;4;0.6380368;-0.2451524;0.433518;0.5872576;1;-1;4;2052;3378;808;16;0.7794204;-0.6066482;0.02908587;-0.1537396;0;1;-1;1199;3961;-926;2;0.5069252;-0.6581732;-0.4072022;-0.3795014;-2;0;-2;700;4014;-548;8;0.4542936;-0.8868983;-0.01108033;0.08310249;1;7;0;-405;3385;2433;-0.2579158;2.507626;1.158984;-0.2520306;3.043955;1.059293;-0.2468615;3.515018;0.9696752;-0.002840966;4.205988;1.008098;-0.137594;4.601125;0.9867415;-0.5072235;4.579675;1.041995;-0.8145124;5.078696;0.3244446;-0.3889457;5.193803;1.163158;0.3530404;4.427818;0.9874439;0.5776523;4.196463;1.043549;0.1349438;3.368994;1.261676;-0.3951514;2.702494;0.846267;-0.5701774;2.464914;1.159773;-0.1378611;1.262182;0.4474556;0;0;0;-0.5701774;2.464914;1.159773;-0.1378611;1.262182;0.4474556;0;0;0
1524052.1112;NotLabelled;NONE;16384;0.7084146;0.5207756;0.4141274;0.2354571;5;1;0;3116;-2392;1333;65536;-0.6495845;-0.300554;0.6688604;0.200831;0;-5;-8;2692;-711;-2688;8192;0.4182825;-0.7541739;-0.4307479;-0.265928;1;10;3;1622;3455;-1385;32768;0.1759003;-0.6871496;-0.3919668;-0.5858725;-1;-2;1;-1646;2771;2519;256;0.2299169;-0.4556787;-0.6506026;-0.5623268;-7;-7;7;1415;3776;-301;128;-0.05540166;0.200831;0.6800554;0.7029383;0;3;-1;-925;4093;318;4;0.6389757;-0.2451524;0.432133;0.5872576;0;0;4;2124;3252;812;16;0.7783404;-0.6080332;0.02908587;-0.1537396;0;-1;-2;1331;3979;-912;2;0.5069252;-0.6573143;-0.4085872;-0.3795014;-3;1;-3;712;3904;-726;8;0.4556787;-0.8861874;-0.01108033;0.08310249;1;4;0;-321;3387;2405;-0.2656386;2.506485;1.15894;-0.2597576;3.042427;1.057192;-0.2545924;3.513143;0.9657681;-0.01003614;4.203969;1.003372;-0.1445539;4.599185;0.9819995;-0.5141066;4.578022;1.037874;-0.8188282;5.07921;0.3207387;-0.3958561;5.194315;1.160764;0.3459623;4.425543;0.981999;0.570508;4.194067;1.037874;0.1277027;3.365685;1.252307;-0.3987199;2.698549;0.8332642;-0.5779002;2.463777;1.159906;-0.1433843;1.261044;0.4489275;0;0;0;-0.5779002;2.463777;1.159906;-0.1433843;1.261044;0.4489275;0;0;0
1524072.9426;NotLabelled;NONE;16384;0.7084146;0.5207756;0.4141274;0.2354571;1;0;2;3270;-2442;1467;65536;-0.6495845;-0.2977839;0.6696815;0.2022161;-11;-13;-6;3222;-519;-2516;8192;0.4168975;-0.7549404;-0.4307479;-0.265928;1;8;4;1542;3471;-1217;32768;0.1759003;-0.6871496;-0.3919668;-0.5858725;0;0;0;-1562;2879;2687;256;0.2299169;-0.4570637;-0.6520178;-0.5595568;-7;-4;7;1461;3856;-333;128;-0.05540166;0.200831;0.6800554;0.7029383;3;0;0;-897;4111;242;4;0.6389757;-0.2451524;0.432133;0.5872576;0;-1;5;2152;3328;780;16;0.7783404;-0.6080332;0.02908587;-0.1537396;-1;-1;-3;1173;3899;-928;2;0.5069252;-0.6573143;-0.4085872;-0.3795014;-3;1;-4;684;3920;-662;8;0.4556787;-0.886169;-0.01246537;0.08310249;1;2;0;-361;3309;2469;-0.2704721;2.505917;1.155022;-0.2645908;3.041894;1.053459;-0.2594252;3.512641;0.962198;-0.01438975;4.203322;0.9993451;-0.1486422;4.598619;0.9777681;-0.5181976;4.577739;1.033733;-0.8182565;5.080315;0.3156021;-0.403132;5.19571;1.159494;0.3417556;4.424642;0.9777671;0.5661549;4.193045;1.033731;0.1207573;3.365986;1.2479;-0.4059665;2.701806;0.824563;-0.5827337;2.463208;1.155972;-0.1412677;1.262182;0.4463921;0;0;0;-0.5827337;2.463208;1.155972;-0.1412677;1.262182;0.4463921;0;0;0
1524093.939;NotLabelled;NONE;16384;0.7088735;0.5207756;0.4141274;0.234072;0;8;1;3292;-2396;1417;65536;-0.6495845;-0.2963989;0.6698763;0.2036011;-11;-7;-2;3240;-379;-2734;8192;0.4168975;-0.7541485;-0.432133;-0.265928;1;5;7;1612;3555;-1129;32768;0.1759003;-0.6883281;-0.3919668;-0.5844875;-1;0;-3;-1526;2977;2731;256;0.2299169;-0.4584487;-0.6522325;-0.5581717;-10;-7;10;1311;3902;-467;128;-0.05540166;0.200831;0.6800554;0.7029383;1;2;-1;-921;4047;300;4;0.6386364;-0.2451524;0.4307479;0.5886427;0;-1;6;2094;3248;692;16;0.7786127;-0.6080332;0.02908587;-0.1523546;0;0;-2;1163;3919;-884;2;0.5069252;-0.6573143;-0.4085872;-0.3795014;-3;4;-5;736;3892;-622;8;0.4556787;-0.886169;-0.01246537;0.08310249;0;4;0;-369;3361;2375;-0.2729449;2.505917;1.153772;-0.2670635;3.041894;1.052209;-0.2618979;3.512642;0.9609481;-0.01361385;4.202308;0.9952815;-0.1460595;4.598141;0.9724469;-0.5156346;4.57918;1.028961;-0.8140703;5.081756;0.3101543;-0.3994669;5.191671;1.155033;0.3435256;4.42189;0.9724462;0.566921;4.189459;1.02896;0.1183434;3.363806;1.241918;-0.4074731;2.699626;0.8174545;-0.5852064;2.463208;1.154722;-0.142223;1.262182;0.4460885;0;0;0;-0.5852064;2.463208;1.154722;-0.142223;1.262182;0.4460885;0;0;0
1524114.2247;NotLabelled;NONE;16384;0.7085189;0.5207756;0.4155124;0.232687;0;15;0;3228;-2314;1209;65536;-0.6509695;-0.2950138;0.6687198;0.2049861;-11;-7;1;3350;-509;-2646;8192;0.4155124;-0.7546049;-0.433518;-0.2645429;1;2;10;1508;3717;-1149;32768;0.1745152;-0.6898536;-0.3919668;-0.5831025;1;0;-10;-1666;3049;2669;256;0.2313019;-0.4612188;-0.6521546;-0.5554016;-14;-9;12;1369;3868;-243;128;-0.05540166;0.200831;0.6814404;0.7015957;3;3;-1;-951;4019;312;4;0.6391663;-0.2437673;0.4307479;0.5886427;0;-1;6;2070;3312;736;16;0.7786127;-0.6080332;0.02908587;-0.1523546;-1;-6;-2;1411;3983;-746;2;0.5083103;-0.6554408;-0.4085872;-0.3808864;-4;5;-5;694;3900;-682;8;0.4556787;-0.886169;-0.01246537;0.08310249;1;3;0;-395;3379;2481;-0.2820394;2.505593;1.148647;-0.2761581;3.041571;1.047084;-0.2709925;3.512318;0.9558231;-0.02076676;4.201301;0.9897537;-0.152105;4.597495;0.9667392;-0.5217214;4.5796;1.023332;-0.8178427;5.083681;0.3046223;-0.4042126;5.190057;1.15043;0.3369834;4.41987;0.9667382;0.5597361;4.186841;1.023331;0.1113865;3.361107;1.236455;-0.4157562;2.697564;0.8126425;-0.5943009;2.462885;1.149598;-0.1444834;1.262737;0.4437874;0;0;0;-0.5943009;2.462885;1.149598;-0.1444834;1.262737;0.4437874;0;0;0
1524134.9639;NotLabelled;NONE;16384;0.7091751;0.5193906;0.4168975;0.2313019;0;20;1;3232;-2350;1189;65536;-0.6509695;-0.2936288;0.6689034;0.2063712;-11;-13;1;3158;-405;-2568;8192;0.4141274;-0.7553659;-0.433518;-0.2645429;1;-2;13;1462;3713;-1113;32768;0.1731302;-0.6894141;-0.3933518;-0.5831025;1;4;-11;-1446;3091;2917;256;0.232687;-0.4639889;-0.6532215;-0.5512465;-15;-13;13;1381;3912;-317;128;-0.05401662;0.200831;0.6828254;0.700356;6;4;1;-979;4117;240;4;0.6400975;-0.2437673;0.4293629;0.5886427;1;0;4;2094;3316;784;16;0.7788295;-0.6080332;0.03047091;-0.1509695;-1;-14;-4;1263;4001;-784;2;0.5083103;-0.6537675;-0.4099723;-0.3822715;-3;6;-7;668;4054;-668;8;0.4570637;-0.8854349;-0.01385042;0.08310249;2;4;0;-433;3519;2477;-0.2888137;2.503378;1.14868;-0.2829367;3.038961;1.045057;-0.2777749;3.509355;0.9519862;-0.02508965;4.197495;0.9847749;-0.1550855;4.594119;0.9615828;-0.5246627;4.577573;1.018836;-0.8144599;5.084539;0.2995795;-0.4015146;5.188677;1.146001;0.3333797;4.41479;0.9609132;0.5554168;4.181044;1.017357;0.1023622;3.356592;1.225438;-0.4262469;2.69538;0.7998121;-0.6010752;2.460674;1.149808;-0.1470257;1.262737;0.4429524;0;0;0;-0.6010752;2.460674;1.149808;-0.1470257;1.262737;0.4429524;0;0;0
1524155.9472;NotLabelled;NONE;16384;0.7110836;0.5180055;0.4168975;0.2285319;1;22;0;3184;-2436;1115;65536;-0.6523545;-0.2908587;0.6687643;0.2063712;-11;-20;0;3086;-291;-2554;8192;0.4141274;-0.7563304;-0.433518;-0.2617728;1;-8;18;1614;3707;-1037;32768;0.1717452;-0.6901386;-0.3947368;-0.5817174;0;5;-10;-1464;3057;2789;256;0.234072;-0.466759;-0.6530849;-0.5484765;-14;-17;12;1297;3698;-317;128;-0.05401662;0.200831;0.6842105;0.699003;8;3;0;-933;4099;358;4;0.6410244;-0.2437673;0.4279778;0.5886427;0;-1;5;2124;3294;874;16;0.7790967;-0.6080332;0.03047091;-0.1495845;1;3;-1;1061;3861;-776;2;0.5083103;-0.6529557;-0.4099723;-0.3836565;-5;7;-5;672;4110;-652;8;0.4570637;-0.8854349;-0.01385042;0.08310249;3;4;0;-575;3355;2619;-0.3013396;2.501553;1.144543;-0.2954665;3.036769;1.039036;-0.2903084;3.506832;0.9443114;-0.03395733;4.193742;0.9743225;-0.1618415;4.590958;0.9495572;-0.5314947;4.576609;1.006914;-0.8184077;5.080096;0.2840653;-0.411176;5.180697;1.133676;0.3256616;4.409028;0.9495559;0.5464573;4.174329;1.006912;0.08994314;3.352111;1.216264;-0.4360335;2.691322;0.7867354;-0.6136011;2.458853;1.145833;-0.1500989;1.262637;0.4422048;0;0;0;-0.6136011;2.458853;1.145833;-0.1500989;1.262637;0.4422048;0;0;0
1524175.9698;NotLabelled;NONE;16384;0.7109663;0.5166205;0.4210526;0.2243767;1;29;-3;3102;-2320;1051;65536;-0.6537396;-0.2867036;0.6696315;0.2049861;-7;-29;-7;3144;-505;-2566;8192;0.4127424;-0.7580392;-0.433518;-0.2590028;2;-8;21;1824;3719;-1081;32768;0.1717452;-0.6913037;-0.3947368;-0.5803324;0;7;-10;-1348;3023;2695;256;0.234072;-0.468144;-0.6544127;-0.5457063;-14;-8;10;1423;3788;-351;128;-0.05401662;0.199446;0.6842105;0.6993994;10;3;0;-951;4065;300;4;0.6410244;-0.2437673;0.4279778;0.5886427;3;-1;3;2036;3170;844;16;0.7790967;-0.6080332;0.03047091;-0.1495845;3;-8;-2;1361;3933;-676;2;0.5083103;-0.652084;-0.4113573;-0.3836565;-5;7;-4;694;4034;-624;8;0.4570637;-0.8854121;-0.01523546;0.08310249;3;6;0;-485;3373;2585;-0.3143597;2.500375;1.138411;-0.3084911;3.035179;1.030838;-0.3033371;3.504871;0.9342975;-0.04458487;4.190912;0.9636141;-0.1710929;4.588549;0.9385384;-0.5407747;4.575537;0.9960298;-0.8192105;5.081174;0.271368;-0.4148448;5.179176;1.12265;0.3157735;4.404921;0.9385377;0.5357694;4.169505;0.996029;0.07699645;3.348836;1.206515;-0.4491434;2.689127;0.7755288;-0.6266211;2.45768;1.139879;-0.154355;1.263188;0.439155;0;0;0;-0.6266211;2.45768;1.139879;-0.154355;1.263188;0.439155;0;0;0
1524196.954;NotLabelled;NONE;16384;0.7121956;0.5138504;0.4238227;0.2216066;3;30;-1;3082;-2478;1131;65536;-0.6537396;-0.2825485;0.6718166;0.2036011;-9;-21;-6;2832;-301;-3140;8192;0.4113573;-0.7589396;-0.434903;-0.2562327;2;-5;23;1916;3643;-1093;32768;0.1703601;-0.690854;-0.3961219;-0.5803324;1;6;-7;-1186;3057;2627;256;0.2354571;-0.4695291;-0.6552272;-0.5429363;-13;-2;8;1465;3694;-315;128;-0.05401662;0.199446;0.6855956;0.6980417;11;2;0;-883;4069;394;4;0.6410244;-0.2437673;0.4279778;0.5886427;3;2;1;2054;3192;854;16;0.7796234;-0.6080332;0.03047091;-0.1468144;3;-14;-4;1163;3897;-714;2;0.5083103;-0.652084;-0.4113573;-0.3836565;-4;3;-2;830;3932;-602;8;0.4570637;-0.8853872;-0.0166205;0.08310249;3;7;0;-361;3267;2527;-0.316842;2.500375;1.137042;-0.3109735;3.035176;1.029456;-0.3058195;3.504867;0.9329053;-0.04384166;4.189791;0.9595435;-0.1685323;4.587925;0.9332741;-0.5381947;4.576831;0.991289;-0.8182222;5.082026;0.2669328;-0.413439;5.177061;1.118353;0.3174747;4.402034;0.9332691;0.536449;4.165794;0.9912786;0.07367003;3.348107;1.204582;-0.4539416;2.689055;0.7743914;-0.6291034;2.45768;1.138511;-0.1553116;1.263188;0.4388178;0;0;0;-0.6291034;2.45768;1.138511;-0.1553116;1.263188;0.4388178;0;0;0
1524216.9632;NotLabelled;NONE;16384;0.7132238;0.5124654;0.4252077;0.2188366;8;27;0;2960;-2466;949;65536;-0.6537396;-0.2797784;0.6729749;0.2036011;-4;-22;-2;3040;-277;-3176;8192;0.4099723;-0.7598237;-0.4362881;-0.2534626;2;-2;23;1986;3611;-1113;32768;0.1703601;-0.6912204;-0.3975069;-0.5789474;3;3;-7;-1106;2959;2437;256;0.2354571;-0.4709141;-0.6565214;-0.5401662;-13;3;7;1761;4050;-207;128;-0.05401662;0.199446;0.6869806;0.6966786;9;5;1;-859;4059;388;4;0.640496;-0.2451524;0.4279778;0.5886427;3;4;0;2150;3380;934;16;0.779883;-0.6080332;0.03047091;-0.1454294;4;-8;-3;1183;3995;-904;2;0.5083103;-0.6503902;-0.4127424;-0.3850415;-7;11;0;794;3856;-782;8;0.4584487;-0.8846709;-0.0166205;0.08310249;3;7;0;-289;3177;2363;-0.3238193;2.501458;1.130248;-0.3179555;3.03584;1.020593;-0.3128055;3.505153;0.9222254;-0.0490565;4.189496;0.9461914;-0.1727707;4.587853;0.9187275;-0.5423843;4.577896;0.9772581;-0.8194329;5.081614;0.2507316;-0.4190339;5.172417;1.104683;0.3127626;4.40073;0.9187266;0.5312122;4.164133;0.977257;0.06504378;3.349396;1.194436;-0.4615729;2.690781;0.762361;-0.6360805;2.458769;1.131895;-0.1593276;1.264278;0.4342159;0;0;0;-0.6360805;2.458769;1.131895;-0.1593276;1.264278;0.4342159;0;0;0
1524238.0897;NotLabelled;NONE;16384;0.7152234;0.5096953;0.4265928;0.2160665;11;26;-1;2954;-2264;1091;65536;-0.6551247;-0.2770083;0.6731915;0.2022161;-2;-17;-3;2732;-523;-2676;8192;0.4058172;-0.7626274;-0.4376731;-0.2493075;3;0;22;1820;3439;-1265;32768;0.1703601;-0.6907803;-0.400277;-0.5775623;5;1;-8;-1328;2889;2499;256;0.2354571;-0.4722992;-0.6577985;-0.5373961;-15;-18;13;643;3002;-445;128;-0.05401662;0.1980609;0.6883656;0.695706;13;7;0;-803;3825;286;4;0.6414193;-0.2451524;0.4265928;0.5886427;2;5;1;2358;3344;968;16;0.7809608;-0.6066482;0.03047091;-0.1454294;4;0;-3;1185;3855;-934;2;0.5083103;-0.6477998;-0.4155124;-0.3864266;-6;11;-7;428;3406;-680;8;0.4584487;-0.8848703;-0.01939058;0.08033241;-4;10;-1;43;3375;1909;-0.325441;2.504209;1.124011;-0.3195819;3.038161;1.012285;-0.3144362;3.507089;0.9120988;-0.04744467;4.190273;0.9330403;-0.1693823;4.589108;0.9045819;-0.5388741;4.581068;0.9641663;-0.8152263;5.088357;0.2398625;-0.4152715;5.175281;1.094425;0.3152744;4.399727;0.9038676;0.532784;4.162313;0.9625876;0.06400052;3.349696;1.182067;-0.4640807;2.690483;0.7527009;-0.6377022;2.461526;1.125837;-0.1607201;1.264816;0.4321293;0;0;0;-0.6377022;2.461526;1.125837;-0.1607201;1.264816;0.4321293;0;0;0
1524257.9462;NotLabelled;NONE;16384;0.7157986;0.5083103;0.4279778;0.2146814;11;27;0;2964;-2164;1247;65536;-0.6551247;-0.2756233;0.6741738;0.200831;0;-21;-9;2566;-605;-2394;8192;0.4044321;-0.7634671;-0.4390582;-0.2465374;2;-1;21;1914;3393;-1141;32768;0.1689751;-0.6922756;-0.400277;-0.5761772;4;4;-7;-1444;2739;2577;256;0.234072;-0.4722992;-0.6616629;-0.533241;-13;10;7;1577;3524;-279;128;-0.05263158;0.1966759;0.6934551;0.6911357;17;10;1;-947;3917;50;4;0.6436048;-0.2451524;0.4252077;0.5872576;2;12;5;2276;3144;724;16;0.7812175;-0.6066482;0.03047091;-0.1440443;3;2;-4;789;3967;-1308;2;0.5096953;-0.6450474;-0.4155124;-0.3891967;-6;13;-13;334;3670;-708;8;0.4584487;-0.8848703;-0.01939058;0.08033241;-11;1;-2;-199;3535;2213;-0.3375031;2.501331;1.123621;-0.3316488;3.034842;1.009812;-0.3265075;3.503377;0.9077952;-0.05634525;4.185377;0.9265186;-0.1764224;4.584678;0.8967167;-0.5459571;4.578553;0.9562622;-0.8162585;5.082883;0.2276208;-0.4172473;5.168785;1.082728;0.3073485;4.393044;0.8967159;0.5237423;4.154818;0.9562612;0.0458093;3.349806;1.183884;-0.4818397;2.688745;0.7568317;-0.6497643;2.458656;1.125627;-0.1665047;1.263669;0.4332948;0;0;0;-0.6497643;2.458656;1.125627;-0.1665047;1.263669;0.4332948;0;0;0
1524278.9348;NotLabelled;NONE;16384;0.7196794;0.5027701;0.4307479;0.2091413;5;28;2;3070;-2302;1547;65536;-0.6523545;-0.2700831;0.6798974;0.1980609;-6;-26;-19;2690;-559;-2980;8192;0.4030471;-0.7638476;-0.4404432;-0.2451524;2;1;19;2064;3189;-1023;32768;0.1689751;-0.6914729;-0.4016621;-0.5761772;7;14;-4;-1316;2803;2319;256;0.232687;-0.4695291;-0.6652281;-0.5318559;-18;11;11;557;2928;-83;128;-0.05263158;0.1952908;0.6965947;0.6883656;15;10;0;-967;3671;-62;4;0.6461572;-0.2465374;0.4224377;0.5858725;5;12;6;1992;2974;696;16;0.7823438;-0.6052631;0.02908587;-0.1440443;3;14;-2;661;3869;-1200;2;0.5096953;-0.6424712;-0.4168975;-0.3919668;-4;18;-16;102;3966;-692;8;0.4570637;-0.8855865;-0.01939058;0.08033241;-8;-1;-3;-707;3651;2409;-0.337404;2.499289;1.12575;-0.3315678;3.031151;1.00446;-0.3264427;3.498206;0.8958744;-0.05102921;4.17826;0.9076111;-0.1681677;4.578188;0.8746963;-0.5375232;4.575416;0.9355893;-0.8071012;5.078993;0.2061604;-0.4062512;5.164568;1.06044;0.3141266;4.382868;0.8746957;0.5289111;4.143528;0.9355886;0.04827338;3.341582;1.168278;-0.4846203;2.682907;0.7440624;-0.6496648;2.456647;1.128403;-0.1661667;1.264201;0.4318676;0;0;0;-0.6496648;2.456647;1.128403;-0.1661667;1.264201;0.4318676;0;0;0
1524299.4247;NotLabelled;NONE;16384;0.7206144;0.501385;0.432133;0.2063712;6;29;2;3024;-2170;1325;65536;-0.6509695;-0.265928;0.6832566;0.1966759;0;-30;-21;2784;-375;-3210;8192;0.400277;-0.7645856;-0.4432133;-0.2423823;2;3;18;2210;3081;-1155;32768;0.1689751;-0.6890426;-0.4058172;-0.5761772;12;22;0;-1332;2703;2185;256;0.232687;-0.4695291;-0.6674334;-0.5290859;-22;8;17;1127;3544;-367;128;-0.05124654;0.1939058;0.6984497;0.6869806;18;12;-2;-907;3937;220;4;0.6465312;-0.2479224;0.4210526;0.5858725;12;9;7;2000;3058;710;16;0.7821856;-0.6052631;0.02631579;-0.1454294;2;9;-3;1357;3955;-1138;2;0.5110803;-0.6396688;-0.4168975;-0.3947368;-6;13;-17;86;4212;-586;8;0.4556787;-0.8861734;-0.01939058;0.08171745;-6;0;-5;-931;3647;2673;-0.3395483;2.496701;1.129535;-0.3337242;3.027459;1.003509;-0.3286099;3.493529;0.8907643;-0.05184481;4.173114;0.8960389;-0.1683185;4.572989;0.860248;-0.5374743;4.571438;0.9223822;-0.8091626;5.074594;0.1934462;-0.4089178;5.153263;1.048673;0.3135946;4.376731;0.8602471;0.5281172;4.137475;0.9223813;0.04776159;3.337793;1.163298;-0.4880604;2.677862;0.744759;-0.6518088;2.454084;1.132599;-0.1682848;1.263661;0.4326301;0;0;0;-0.6518088;2.454084;1.132599;-0.1682848;1.263661;0.4326301;0;0;0
1524319.9622;NotLabelled;NONE;16384;0.7220983;0.4986149;0.433518;0.2049861;10;29;0;3070;-2294;1239;65536;-0.6495845;-0.2617728;0.6873505;0.1925208;3;-29;-22;2278;-567;-3354;8192;0.3975069;-0.7656637;-0.4445983;-0.2409972;4;7;17;2242;3015;-1291;32768;0.1689751;-0.6885622;-0.4085872;-0.5747922;14;15;0;-1492;2943;2533;256;0.2313019;-0.4695291;-0.6711853;-0.5249307;-26;0;18;1493;3946;-75;128;-0.04986149;0.1925208;0.7002916;0.6855956;18;17;-3;-773;4223;210;4;0.6477954;-0.2493075;0.4182825;0.5858725;18;4;8;2182;3272;970;16;0.7821856;-0.6052631;0.02631579;-0.1454294;-2;0;-7;1545;4059;-1130;2;0.5124654;-0.6377436;-0.4155124;-0.3975069;-7;0;-13;348;4308;-528;8;0.4556787;-0.886142;-0.02077562;0.08171745;-3;4;-6;-847;3343;2679;-0.344164;2.497919;1.123645;-0.3383469;3.028042;0.9949738;-0.3332388;3.493544;0.8799059;-0.05400109;4.172137;0.8805244;-0.1691112;4.572217;0.8426632;-0.5381192;4.572373;0.9056889;-0.8109661;5.076231;0.1776696;-0.4138545;5.149596;1.034826;0.3120863;4.37421;0.8426622;0.52589;4.134544;0.9056877;0.04179969;3.339434;1.154148;-0.4924269;2.675745;0.7395315;-0.6564245;2.455318;1.126939;-0.1700362;1.26438;0.4298371;0;0;0;-0.6564245;2.455318;1.126939;-0.1700362;1.26438;0.4298371;0;0;0
1524340.9876;NotLabelled;NONE;16384;0.7239516;0.4958449;0.434903;0.2022161;14;24;0;2992;-2354;1219;65536;-0.6481994;-0.2590028;0.6904707;0.1897507;7;-32;-25;2576;-517;-3410;8192;0.3933518;-0.7654395;-0.4501385;-0.2382271;2;17;19;2042;3491;-1115;32768;0.1689751;-0.6869108;-0.4113573;-0.5747922;4;4;-1;-1556;3185;2567;256;0.2313019;-0.4709141;-0.6734479;-0.5207756;-25;3;18;1643;3930;-171;128;-0.04847645;0.1911357;0.7034675;0.6828254;19;14;-5;-785;4303;382;4;0.6483237;-0.2493075;0.4155124;0.5872576;18;3;13;2506;3380;1162;16;0.7821856;-0.6052631;0.02631579;-0.1454294;-9;-4;-9;1535;3973;-1360;2;0.5152354;-0.6364111;-0.4141274;-0.3975069;-7;-2;-5;142;3770;-674;8;0.4542936;-0.8865932;-0.02077562;0.08448754;-4;1;-6;-133;3497;2273;-0.345252;2.496695;1.124004;-0.3394419;3.026173;0.992698;-0.3343401;3.491097;0.8753172;-0.05005512;4.167555;0.8683869;-0.1623956;4.568141;0.8276575;-0.5310259;4.571617;0.8927631;-0.8109035;5.077338;0.1687169;-0.4150085;5.148777;1.026598;0.3173052;4.366538;0.8266804;0.529674;4.125836;0.8906034;0.04406723;3.333277;1.144202;-0.4934258;2.66779;0.7367517;-0.6575121;2.454111;1.127526;-0.1677233;1.264379;0.430745;0;0;0;-0.6575121;2.454111;1.127526;-0.1677233;1.264379;0.430745;0;0;0
1524361.9477;NotLabelled;NONE;16384;0.7250094;0.4930748;0.4362881;0.2022161;20;19;3;3078;-2426;1219;65536;-0.6468144;-0.2562327;0.6935518;0.1869806;12;-34;-25;2696;-597;-3454;8192;0.3919668;-0.7649456;-0.4529086;-0.2368421;2;15;23;1984;3783;-1165;32768;0.1689751;-0.6869108;-0.4113573;-0.5747922;1;7;-1;-1194;3169;2787;256;0.2313019;-0.4709141;-0.6787467;-0.5138504;-30;-2;19;1443;3750;-235;128;-0.04709141;0.1911357;0.7062395;0.6800554;25;3;-4;-965;4103;614;4;0.6497159;-0.2493075;0.4113573;0.5886427;16;4;22;2380;3368;1192;16;0.7816225;-0.6066482;0.02631579;-0.1426593;-17;-10;-15;1577;3993;-1540;2;0.5166205;-0.6352873;-0.4141274;-0.3975069;-8;-9;-2;186;3936;-804;8;0.4529086;-0.887268;-0.02216066;0.08448754;-5;7;-7;-635;3387;2355;-0.3581201;2.493983;1.119525;-0.3523231;3.022282;0.9835523;-0.3472328;3.486152;0.8620738;-0.05861905;4.160718;0.8508476;-0.1684113;4.561758;0.8077264;-0.5369741;4.567998;0.8730081;-0.8076354;5.069805;0.1427609;-0.4198502;5.13964;1.00447;0.3099859;4.357079;0.8077254;0.5208434;4.115416;0.8730069;0.02756152;3.330246;1.134651;-0.5070865;2.66227;0.7275307;-0.6703799;2.451433;1.123453;-0.1693378;1.264379;0.4301123;0;0;0;-0.6703799;2.451433;1.123453;-0.1693378;1.264379;0.4301123;0;0;0
1524382.9461;NotLabelled;NONE;16384;0.727164;0.4916897;0.434903;0.200831;22;18;8;3164;-2324;1295;65536;-0.6454294;-0.2534626;0.6969594;0.1828255;11;-29;-23;2856;-495;-3280;8192;0.3891967;-0.7651424;-0.4556787;-0.2354571;3;15;26;1904;3877;-1149;32768;0.1689751;-0.6860795;-0.4127424;-0.5747922;0;13;0;-1102;3069;3131;256;0.2313019;-0.4722992;-0.6809138;-0.5096953;-30;-8;20;1373;3584;-389;128;-0.04709141;0.1911357;0.7088965;0.6772853;27;3;-2;-1053;3847;450;4;0.6523826;-0.2437673;0.4044321;0.5927978;7;-29;34;2824;3038;1086;16;0.7783761;-0.6121883;0.0235457;-0.1371191;-31;6;-22;1143;3915;-1514;2;0.5180055;-0.6350608;-0.4127424;-0.3975069;-7;-2;-1;188;3832;-740;8;0.4529086;-0.8871945;-0.02493075;0.08448754;-7;17;-7;-449;3493;2157;-0.3623267;2.491687;1.115779;-0.3565413;3.018921;0.9757363;-0.3514616;3.481841;0.8506837;-0.05701926;4.153557;0.8269618;-0.1636726;4.554905;0.7790834;-0.5315217;4.565392;0.8477577;-0.8084474;5.069555;0.1214931;-0.4208159;5.137846;0.9833952;0.3128753;4.345962;0.7775112;0.5222064;4.10338;0.8442821;0.03042284;3.318511;1.10962;-0.5064444;2.650535;0.7054296;-0.6745862;2.449167;1.120062;-0.1650377;1.266573;0.4253037;0;0;0;-0.6745862;2.449167;1.120062;-0.1650377;1.266573;0.4253037;0;0;0
1524404.0213;NotLabelled;NONE;16384;0.7324566;0.4861496;0.433518;0.1980609;24;22;18;2958;-2268;1455;65536;-0.6412742;-0.2493075;0.7033421;0.1786704;8;-28;-18;2718;-83;-2874;8192;0.3878116;-0.7650383;-0.4584487;-0.232687;4;17;27;1708;3847;-1151;32768;0.16759;-0.6864191;-0.4127424;-0.5747922;0;12;-2;-902;3023;3087;256;0.2313019;-0.4736842;-0.6820188;-0.5069252;-28;-1;16;1685;3778;-661;128;-0.04709141;0.1925208;0.7111592;0.6745152;21;-1;-3;-1021;3809;468;4;0.6510815;-0.2382271;0.4016621;0.5983379;7;-33;37;3106;2800;1024;16;0.7752051;-0.6163435;0.01939058;-0.1371191;-36;48;-21;769;3995;-1380;2;0.5180055;-0.6350608;-0.4127424;-0.3975069;-5;-4;-2;84;3690;-646;8;0.4529086;-0.8871545;-0.02631579;0.08448754;-11;13;-9;39;3583;1875;-0.3818184;2.483733;1.100972;-0.3760448;3.009876;0.9568798;-0.3709758;3.47182;0.8282722;-0.07223368;4.141489;0.8007213;-0.176291;4.543216;0.7503667;-0.5441088;4.556461;0.8187311;-0.8059293;5.056732;0.0842191;-0.4284042;5.125243;0.950578;0.2989135;4.331229;0.7503656;0.5066485;4.08772;0.8187293;0.007272184;3.308792;1.087374;-0.5269139;2.639574;0.6816894;-0.6940774;2.441248;1.105607;-0.158004;1.274296;0.4043896;0;0;0;-0.6940774;2.441248;1.105607;-0.158004;1.274296;0.4043896;0;0;0
1524423.9447;NotLabelled;NONE;16384;0.7367523;0.4819945;0.432133;0.1952908;24;25;18;2774;-2622;1579;65536;-0.6385041;-0.2465374;0.7071787;0.1772853;4;-31;-18;2646;167;-2940;8192;0.3850415;-0.7647725;-0.4612188;-0.232687;3;19;26;1382;3887;-1123;32768;0.16759;-0.685257;-0.4127424;-0.5761772;-2;3;-9;-798;2759;2811;256;0.2313019;-0.4736842;-0.684069;-0.5041551;-22;2;13;1783;3550;-591;128;-0.04709141;0.1925208;0.7124703;0.6731302;24;9;0;-1269;3847;1024;4;0.6526457;-0.232687;0.3961219;0.602493;6;-18;42;3234;2718;916;16;0.7701604;-0.6218836;0.01246537;-0.1412742;-44;45;-25;1159;4005;-1336;2;0.5207756;-0.6336924;-0.4113573;-0.3975069;-8;-7;-6;244;3812;-620;8;0.4515235;-0.8877274;-0.02631579;0.08587258;-12;-4;-14;-87;3069;2283;-0.3892197;2.478905;1.092374;-0.3834568;3.004088;0.9448232;-0.378397;3.465176;0.8131785;-0.07660475;4.13337;0.7831454;-0.178876;4.535415;0.7316927;-0.5465332;4.550572;0.8005227;-0.7953364;5.050879;0.06152451;-0.4315436;5.115672;0.9340233;0.295344;4.321235;0.7316918;0.5020475;4.076981;0.8005216;0.0006394684;3.301361;1.07489;-0.5341601;2.633835;0.6672298;-0.7014784;2.436451;1.097312;-0.1508618;1.279276;0.3911778;0;0;0;-0.7014784;2.436451;1.097312;-0.1508618;1.279276;0.3911778;0;0;0
1524443.9438;NotLabelled;NONE;16384;0.7404508;0.4792244;0.4307479;0.1911357;23;27;17;2480;-2592;1597;65536;-0.6385041;-0.2437673;0.7088261;0.1745152;1;-31;-13;2588;405;-3162;8192;0.3836565;-0.7646308;-0.4639889;-0.2299169;0;3;25;632;3681;-1359;32768;0.166205;-0.6895671;-0.4099723;-0.5734072;1;-14;-21;-656;2581;2821;256;0.2299169;-0.4736842;-0.6865672;-0.501385;-21;1;13;1729;3594;-569;128;-0.04570637;0.1925208;0.7151671;0.6703601;29;-1;0;-1305;3919;352;4;0.6540858;-0.2271468;0.3905817;0.6066482;9;-13;47;3342;2630;906;16;0.7659643;-0.6274238;0.008310249;-0.1398892;-51;10;-35;1561;4113;-1442;2;0.5221606;-0.6334503;-0.4099723;-0.3975069;-9;3;-4;54;3766;-892;8;0.4473684;-0.8891902;-0.02908587;0.09141274;-12;5;-15;-801;3453;2767;-0.3942424;2.470044;1.087606;-0.3884857;2.994659;0.9380484;-0.3834316;3.455241;0.8046421;-0.0793592;4.122179;0.7700433;-0.1803421;4.524287;0.716572;-0.5477643;4.541136;0.7862574;-0.7884814;5.042364;0.04520679;-0.4308932;5.103052;0.9205609;0.2931167;4.308428;0.7165706;0.4991332;4.063837;0.7862554;-0.005422741;3.291257;1.06342;-0.5382121;2.623019;0.6542996;-0.7065009;2.42761;1.092719;-0.1376545;1.28481;0.3776804;0;0;0;-0.7065009;2.42761;1.092719;-0.1376545;1.28481;0.3776804;0;0;0
1524464.2276;NotLabelled;NONE;16384;0.7437454;0.4764543;0.4293629;0.1883656;21;27;17;2268;-2628;1679;65536;-0.6371191;-0.2396122;0.7114841;0.1745152;-1;-27;-6;2436;637;-3396;8192;0.3836565;-0.7646308;-0.4639889;-0.2299169;-1;-8;24;670;3671;-1537;32768;0.16759;-0.6931618;-0.4072022;-0.5706371;4;-26;-25;-530;2501;3025;256;0.2285319;-0.4750692;-0.6880884;-0.4986149;-25;-5;14;1697;3428;-559;128;-0.04709141;0.1939058;0.7172911;0.66759;27;-8;-2;-1157;3857;476;4;0.6562145;-0.2216066;0.3836565;0.6108033;15;-10;52;3350;2572;530;16;0.761017;-0.634349;0.005540166;-0.1357341;-55;-12;-42;1351;3859;-1168;2;0.5235457;-0.6314332;-0.4099723;-0.398892;-10;7;0;-164;4022;-722;8;0.4459834;-0.8896959;-0.03047091;0.09279778;-10;4;-14;-829;3661;2433;-0.3978256;2.461373;1.080815;-0.3920817;2.984831;0.9272556;-0.3870389;3.44438;0.790336;-0.07937127;4.109412;0.7511448;-0.1782671;4.511765;0.6956443;-0.5454059;4.531049;0.7661874;-0.7790745;5.035592;0.0251317;-0.420541;5.096097;0.9001119;0.293988;4.293285;0.6956431;0.49883;4.047954;0.7661854;-0.006890088;3.278751;1.050528;-0.5484353;2.616131;0.6437733;-0.7100837;2.418979;1.086278;-0.1248613;1.290821;0.3612726;0;0;0;-0.7100837;2.418979;1.086278;-0.1248613;1.290821;0.3612726;0;0;0
1524484.9426;NotLabelled;NONE;16384;0.7473451;0.4736842;0.4279778;0.1842105;16;25;14;2022;-2644;1711;65536;-0.6371191;-0.2354571;0.7132077;0.1731302;-1;-21;0;2290;749;-3472;8192;0.3836565;-0.7671305;-0.4612188;-0.2271468;-1;-13;22;944;3705;-1687;32768;0.1689751;-0.6975152;-0.4030471;-0.567867;6;-25;-25;-560;2577;3143;256;0.2271468;-0.4750692;-0.6915367;-0.4944598;-27;4;8;1951;3374;-505;128;-0.05124654;0.199446;0.7193395;0.6634349;27;-21;1;-1163;3607;586;4;0.6595722;-0.2119114;0.3698061;0.6191136;14;-14;39;3652;2248;494;16;0.7514154;-0.6481994;0.004155125;-0.1232687;-52;-24;-40;1279;3539;-748;2;0.5235457;-0.6305317;-0.4113573;-0.398892;-7;9;4;-170;4188;-322;8;0.4445983;-0.8899967;-0.033241;0.09556787;-11;-1;-15;-1203;3647;2313;-0.4042765;2.451421;1.068111;-0.3985437;2.973869;0.9111491;-0.3935108;3.432519;0.7712429;-0.08150369;4.095374;0.7295685;-0.1778133;4.498201;0.6729715;-0.5447142;4.520134;0.7439775;-0.7734306;5.026477;0.002603769;-0.4178081;5.080443;0.8791976;0.2929843;4.276599;0.67297;0.4962991;4.030133;0.7439752;-0.008430988;3.260931;1.030071;-0.5544883;2.600505;0.6257846;-0.7165343;2.409064;1.073871;-0.1094911;1.297759;0.3408244;0;0;0;-0.7165343;2.409064;1.073871;-0.1094911;1.297759;0.3408244;0;0;0
1524504.9502;NotLabelled;NONE;16384;0.7532793;0.468144;0.4265928;0.1772853;8;21;4;1888;-2960;1799;65536;-0.6385041;-0.2285319;0.7145553;0.1717452;-2;-14;3;1952;609;-3524;8192;0.3822715;-0.7690598;-0.4598338;-0.2257618;2;-12;21;1430;3787;-1863;32768;0.1703601;-0.6998956;-0.400277;-0.566482;10;-8;-20;-720;2671;3515;256;0.2285319;-0.4750692;-0.6930538;-0.4916897;-27;0;3;1983;3408;-395;128;-0.05540166;0.2022161;0.7195341;0.6620498;15;-37;4;-1201;3655;626;4;0.6600636;-0.2077562;0.3642659;0.6232687;6;2;32;3606;1802;-224;16;0.7472848;-0.6537396;0.001385042;-0.1191136;-50;10;-33;31;3703;-684;2;0.5249307;-0.6284717;-0.4127424;-0.398892;-13;8;3;-80;4084;-168;8;0.4432133;-0.8904848;-0.03462604;0.09695291;-14;6;-13;-1589;3619;2301;-0.4111798;2.43135;1.041433;-0.4054589;2.952702;0.8808683;-0.4004367;3.410374;0.737799;-0.08381706;4.07057;0.6892649;-0.1774404;4.473593;0.6296408;-0.5438825;4.49879;0.7019211;-0.764874;5.008249;-0.03966045;-0.4068885;5.0585;0.8361924;0.291739;4.248585;0.6296395;0.4935524;4.001258;0.7019192;-0.01275158;3.233917;0.9902218;-0.5653168;2.576887;0.5892584;-0.7234369;2.389033;1.047509;-0.07642758;1.310027;0.300527;0;0;0;-0.7234369;2.389033;1.047509;-0.07642758;1.310027;0.300527;0;0;0
1524525.9362;NotLabelled;NONE;16384;0.755103;0.466759;0.4265928;0.1731302;6;18;2;1918;-3046;2055;65536;-0.6385041;-0.2257618;0.7154353;0.1717452;0;-17;1;2096;589;-3796;8192;0.3808864;-0.7705538;-0.4598338;-0.2229917;7;-6;23;1836;3841;-1937;32768;0.1703601;-0.7005422;-0.4030471;-0.5637119;16;18;-14;-1080;2711;3891;256;0.2285319;-0.4750692;-0.6950108;-0.4889196;-26;-5;0;2027;3470;-413;128;-0.05955679;0.2049861;0.7196914;0.6606648;15;-18;12;-1271;4123;-52;4;0.6633974;-0.2049861;0.3573407;0.6246537;14;26;30;3306;2176;-364;16;0.740926;-0.6606648;-0.005540166;-0.1204986;-51;63;-27;-233;3999;-682;2;0.5263157;-0.6254809;-0.4155124;-0.398892;-19;16;4;196;4172;-122;8;0.4404432;-0.8916516;-0.03601108;0.09833795;-14;5;-10;-1191;3587;2549;-0.4183922;2.422884;1.025173;-0.412674;2.944;0.8638417;-0.407654;3.401461;0.7200996;-0.09018961;4.060906;0.6670816;-0.1833757;4.463734;0.6054807;-0.5495869;4.489876;0.6785909;-0.7587296;5.002749;-0.06407166;-0.3993647;5.046673;0.8115562;0.2854691;4.238029;0.6054795;0.4871086;3.990804;0.6785892;-0.02214926;3.225941;0.9682727;-0.5763228;2.570344;0.5671846;-0.7306494;2.380577;1.031316;-0.06539795;1.3149;0.2812288;0;0;0;-0.7306494;2.380577;1.031316;-0.06539795;1.3149;0.2812288;0;0;0
1524545.9453;NotLabelled;NONE;16384;0.7565865;0.4653739;0.4265928;0.1703601;6;13;0;2046;-2886;2137;65536;-0.6385041;-0.2243767;0.7165298;0.1689751;1;-14;2;2070;453;-4142;8192;0.3753462;-0.7740611;-0.4598338;-0.2202216;4;0;15;1952;3533;-1703;32768;0.166205;-0.6961774;-0.4141274;-0.5623268;16;40;-7;-1286;2903;3135;256;0.2299169;-0.4750692;-0.6964955;-0.4861496;-27;-8;-3;2277;3676;-63;128;-0.06232687;0.2049861;0.7207262;0.6592798;4;-3;17;-1107;4361;328;4;0.6670813;-0.2049861;0.3504155;0.6246537;20;26;31;3208;3482;194;16;0.7351192;-0.666205;-0.01523546;-0.1246537;-42;69;-23;577;4231;-604;2;0.5263157;-0.6189308;-0.4252077;-0.398892;-28;38;17;816;4988;220;8;0.4390582;-0.8920281;-0.04293629;0.09833795;-3;29;-6;-1225;4215;3523;-0.4189764;2.413207;1.009644;-0.4132606;2.934091;0.8475676;-0.4082431;3.391347;0.7031709;-0.08864048;4.049379;0.6456314;-0.1805964;4.452179;0.5820388;-0.5465162;4.48;0.6559836;-0.7530057;4.995801;-0.08539408;-0.3927268;5.036086;0.7900335;0.2874621;4.224849;0.5820378;0.4884404;3.977333;0.6559823;-0.02328739;3.215894;0.9502946;-0.5810869;2.55923;0.5560361;-0.7312333;2.370908;1.015853;-0.04827106;1.319764;0.2611901;0;0;0;-0.7312333;2.370908;1.015853;-0.04827106;1.319764;0.2611901;0;0;0
1524565.9574;NotLabelled;NONE;16384;0.7577469;0.4639889;0.4265928;0.1689751;4;10;-7;2076;-2828;2219;65536;-0.6398892;-0.2229917;0.7160518;0.16759;5;-9;8;2050;243;-4420;8192;0.3739612;-0.7747312;-0.4598338;-0.2202216;0;1;11;2132;3513;-1689;32768;0.1648199;-0.6951391;-0.4182825;-0.5609418;13;22;-9;-1870;3123;2397;256;0.232687;-0.4750692;-0.696541;-0.4847645;-26;-8;-4;2185;3944;279;128;-0.06232687;0.200831;0.7206277;0.6606648;-4;30;24;-707;4505;188;4;0.6703988;-0.2077562;0.3448753;0.6232687;26;39;21;2472;3774;240;16;0.7306774;-0.6703601;-0.02216066;-0.1274238;-35;31;-28;615;4023;-378;2;0.5249307;-0.6161957;-0.432133;-0.3975069;-22;33;20;1342;5528;300;8;0.4390582;-0.8918958;-0.04847645;0.09695291;-6;40;-6;-973;4725;3139;-0.424614;2.406687;0.9886479;-0.4189048;2.926965;0.8246367;-0.4138932;3.383681;0.678542;-0.09347689;4.040912;0.6165513;-0.1850092;4.443495;0.550999;-0.550689;4.472264;0.6257631;-0.7525722;4.989594;-0.1158174;-0.3950637;5.031608;0.7606639;0.2827124;4.215472;0.5509978;0.4835228;3.968066;0.6257614;-0.0390746;3.214811;0.9220268;-0.5979183;2.554288;0.5357738;-0.7368706;2.364411;0.9950269;-0.03574796;1.323716;0.2425383;0;0;0;-0.7368706;2.364411;0.9950269;-0.03574796;1.323716;0.2425383;0;0;0
1524587.0262;NotLabelled;NONE;16384;0.7581202;0.4626039;0.4279778;0.16759;5;6;-13;2244;-2666;2341;65536;-0.6412742;-0.2229917;0.7151349;0.166205;9;-7;12;2018;-75;-4426;8192;0.3739612;-0.7743002;-0.4612188;-0.2188366;-1;3;10;2444;3477;-1313;32768;0.1648199;-0.6945828;-0.4210526;-0.5595568;8;0;-18;-2618;3547;1881;256;0.2354571;-0.4709141;-0.7003436;-0.4819945;-7;19;-11;2145;4290;1001;128;-0.05955679;0.1855956;0.7211253;0.66482;-4;52;28;-1627;4985;-984;4;0.6726213;-0.2119114;0.3379501;0.6232687;27;-35;4;1094;2846;-298;16;0.7228458;-0.6786703;-0.03185596;-0.1260388;-33;22;-16;-547;4631;876;2;0.5249307;-0.61317;-0.4376731;-0.3961219;-23;18;20;1298;6072;424;8;0.4390582;-0.8917269;-0.05401662;0.09556787;-1;47;-7;-1651;4771;3043;-0.430904;2.405285;0.9656783;-0.4251943;2.925621;0.801852;-0.4201821;3.382389;0.6559196;-0.1013123;4.040168;0.5918028;-0.1938258;4.442372;0.5253154;-0.5594738;4.470522;0.6004702;-0.7573647;4.988001;-0.1420821;-0.4009733;5.030956;0.7348085;0.2744032;4.215393;0.525314;0.4758598;3.968633;0.6004682;-0.04983929;3.216969;0.8952856;-0.6089708;2.555269;0.5114729;-0.7431608;2.363007;0.9720411;-0.02648962;1.326413;0.228594;0;0;0;-0.7431608;2.363007;0.9720411;-0.02648962;1.326413;0.228594;0;0;0
1524607.9475;NotLabelled;NONE;16384;0.7565168;0.4598338;0.432133;0.1717452;10;-3;-24;2888;-2406;2865;65536;-0.6426592;-0.2243767;0.7147244;0.1606648;11;-10;18;2592;-719;-4232;8192;0.3739612;-0.7746903;-0.4612188;-0.2174515;0;-2;7;2732;3487;-833;32768;0.1648199;-0.6979098;-0.4210526;-0.5554016;6;-26;-32;-3062;3835;1937;256;0.234072;-0.466759;-0.7026312;-0.4833795;-5;27;-9;2227;4596;1295;128;-0.0567867;0.1772853;0.7221607;0.666205;4;41;23;-1281;5357;-1184;4;0.6672595;-0.2146814;0.3365651;0.6288089;35;-31;-9;1586;3096;-610;16;0.7183027;-0.6828254;-0.03462604;-0.1288089;-24;47;0;-675;4501;1254;2;0.5249307;-0.6100759;-0.4432133;-0.3947368;-36;29;7;1380;6226;50;8;0.4404432;-0.8907939;-0.06232687;0.09279778;8;50;-12;-2115;4561;2939;-0.4238568;2.407425;0.9263152;-0.4181481;2.927665;0.7621803;-0.4131369;3.384346;0.6159768;-0.09732729;4.042479;0.5412256;-0.1918759;4.443409;0.4700639;-0.5571536;4.471101;0.5471639;-0.7593712;4.987617;-0.194892;-0.3957964;5.033326;0.678905;0.2772537;4.218297;0.4700627;0.480171;3.973339;0.547162;-0.04327512;3.222623;0.8483343;-0.6054944;2.559257;0.4719807;-0.7361135;2.365151;0.9327052;-0.006672822;1.331658;0.1974049;0;0;0;-0.7361135;2.365151;0.9327052;-0.006672822;1.331658;0.1974049;0;0;0
1524629.1391;NotLabelled;NONE;16384;0.7567691;0.4570637;0.433518;0.1745152;14;-4;-32;3106;-2142;2891;65536;-0.6454294;-0.2257618;0.7127112;0.1565097;12;-9;24;2798;-1369;-4164;8192;0.3739612;-0.7759002;-0.4598338;-0.2160665;-3;-21;2;3124;3565;-443;32768;0.166205;-0.7036107;-0.4182825;-0.5498615;2;-54;-43;-3454;4107;1949;256;0.232687;-0.4626039;-0.7048814;-0.4847645;-9;31;-5;2053;4688;1643;128;-0.05540166;0.1717452;0.7236057;0.666205;1;38;20;-365;5133;-1156;4;0.6635246;-0.2202216;0.33518;0.6315789;32;12;-15;2760;4140;-444;16;0.714088;-0.6855956;-0.0401662;-0.1357341;-15;58;5;447;3995;1336;2;0.5263157;-0.6048098;-0.4487534;-0.3947368;-43;52;-3;1332;5634;-108;8;0.4432133;-0.888941;-0.07063711;0.09141274;15;55;-13;-795;3659;2595;-0.4061754;2.413357;0.9135683;-0.4004709;2.933215;0.7482312;-0.3954633;3.389557;0.6009723;-0.08210939;4.048352;0.5218443;-0.1782392;4.448605;0.4490122;-0.5433389;4.475471;0.5272398;-0.7683002;4.983832;-0.2139018;-0.3947772;5.039445;0.6551123;0.2916355;4.225053;0.4485061;0.4956335;3.981159;0.526122;-0.02061582;3.230681;0.8400386;-0.5938205;2.569591;0.4764665;-0.7184319;2.371098;0.920064;0.01000891;1.332591;0.1908622;0;0;0;-0.7184319;2.371098;0.920064;0.01000891;1.332591;0.1908622;0;0;0
1524649.1364;NotLabelled;NONE;16384;0.7550738;0.4542936;0.4376731;0.1786704;15;-1;-29;3402;-1562;2833;65536;-0.6481994;-0.2257618;0.7107977;0.1537396;13;-9;25;2406;-1969;-4002;8192;0.3808864;-0.7816373;-0.4487534;-0.2063712;-13;-37;11;4954;3341;-979;32768;0.1703601;-0.7185883;-0.4072022;-0.5373961;2;-46;-42;-3136;4005;1463;256;0.2313019;-0.4584487;-0.7080448;-0.4847645;-17;33;-3;1713;4282;1805;128;-0.05401662;0.1648199;0.7240443;0.66759;2;31;17;597;4573;-1302;4;0.6669891;-0.2257618;0.33241;0.6274238;20;54;-16;2676;4764;382;16;0.7114316;-0.6869806;-0.04432133;-0.1412742;-5;29;6;1143;4281;1308;2;0.5277008;-0.5880851;-0.4653739;-0.398892;-38;66;-4;510;2856;96;8;0.4473684;-0.8861864;-0.08171745;0.08864266;9;42;0;699;1977;1935;-0.3915275;2.422159;0.8994346;-0.3858301;2.941371;0.7320811;-0.380829;3.397139;0.5830523;-0.06981203;4.056595;0.5002966;-0.1673904;4.456157;0.4256223;-0.5324816;4.48217;0.5041776;-0.7542029;4.982473;-0.2433962;-0.3687599;5.047183;0.6197628;0.3032393;4.234199;0.4256208;0.5081605;3.991381;0.5041752;-0.01002833;3.242562;0.8188574;-0.5950698;2.585152;0.4676788;-0.7037838;2.379925;0.9061075;0.02334116;1.332839;0.1879451;0;0;0;-0.7037838;2.379925;0.9061075;0.02334116;1.332839;0.1879451;0;0;0
1524669.943;NotLabelled;NONE;16384;0.7556021;0.4515235;0.4390582;0.1800554;18;6;-17;3604;-1244;2805;65536;-0.6495845;-0.2271468;0.709978;0.1495845;15;-6;19;1408;-2159;-3668;8192;0.3808864;-0.7831562;-0.4473684;-0.2036011;-12;-12;16;5036;2821;-1051;32768;0.1703601;-0.7216771;-0.4072022;-0.533241;8;11;-24;-2648;3629;1173;256;0.2313019;-0.4529086;-0.712543;-0.4833795;-26;25;-6;1151;3704;1927;128;-0.05540166;0.1592798;0.7251787;0.66759;-2;22;19;1029;3881;-1040;4;0.6712838;-0.2409972;0.333795;0.6163435;5;27;-25;242;3788;36;16;0.7109609;-0.6869806;-0.04293629;-0.1440443;11;2;6;813;4223;832;2;0.5277008;-0.5817553;-0.4709141;-0.4016621;-11;42;-9;-240;1510;-28;8;0.4487534;-0.8853634;-0.08725762;0.08448754;2;42;9;1097;1879;1763;-0.3781134;2.425967;0.8975137;-0.3724177;2.945028;0.7296907;-0.3674179;3.40066;0.5802498;-0.05788508;4.060016;0.4913589;-0.1564483;4.458825;0.4139953;-0.5213022;4.484788;0.4936608;-0.7576941;4.975064;-0.2560578;-0.358238;5.045258;0.6002743;0.3145767;4.237707;0.413994;0.5202138;3.995858;0.4936586;0.01313424;3.245498;0.822453;-0.5948257;2.598878;0.4907075;-0.6903696;2.383739;0.9042278;0.03219476;1.332768;0.187138;0;0;0;-0.6903696;2.383739;0.9042278;0.03219476;1.332768;0.187138;0;0;0
1524690.9454;NotLabelled;NONE;16384;0.7587108;0.4418283;0.4418283;0.1842105;31;19;8;2780;-506;2329;65536;-0.6509695;-0.2313019;0.7098848;0.1371191;33;-13;-2;212;-1597;-3120;8192;0.3808864;-0.783079;-0.4487534;-0.200831;-12;22;21;4652;2459;-981;32768;0.1689751;-0.7193034;-0.4155124;-0.5304709;17;41;-6;-1776;3395;893;256;0.2368421;-0.4432133;-0.7186671;-0.4806094;-26;3;-18;631;2886;1879;128;-0.06232687;0.1495845;0.7266797;0.66759;0;-7;25;1249;3197;-918;4;0.6708636;-0.2437673;0.33518;0.6149584;0;-13;-27;500;3228;446;16;0.7106789;-0.6869806;-0.04293629;-0.1454294;17;0;8;557;4069;524;2;0.5263157;-0.5810906;-0.4709141;-0.4044321;7;8;-6;-36;1460;-138;8;0.4501385;-0.8847522;-0.09141274;0.07894737;7;53;26;-269;2013;1267;-0.3503733;2.449351;0.8887098;-0.3446842;2.967813;0.7190423;-0.3396903;3.422911;0.5679824;-0.03299318;4.082138;0.4688917;-0.1334043;4.479592;0.387063;-0.4978693;4.505319;0.4685644;-0.7429953;4.990573;-0.2816166;-0.3326123;5.068893;0.5688238;0.3383819;4.260102;0.3870614;0.5453299;4.019989;0.4685619;0.04192045;3.271464;0.8070356;-0.5757993;2.627054;0.4893176;-0.6626292;2.407148;0.8955861;0.0383536;1.331691;0.1935366;0;0;0;-0.6626292;2.407148;0.8955861;0.0383536;1.331691;0.1935366;0;0;0
1524712.4597;NotLabelled;NONE;16384;0.7630448;0.4362881;0.4404432;0.1828255;39;14;11;2112;-470;2265;65536;-0.6495845;-0.234072;0.7112927;0.1315789;41;-14;-7;-118;-1155;-3172;8192;0.3795014;-0.7792899;-0.4570637;-0.199446;-13;50;20;3546;2211;-635;32768;0.1689751;-0.7152583;-0.4224377;-0.5304709;24;36;6;-1526;3005;733;256;0.2409972;-0.4404432;-0.7199126;-0.4792244;-23;-2;-26;503;2576;1845;128;-0.06786703;0.1481994;0.7264672;0.66759;0;-15;23;1309;3029;-964;4;0.6669878;-0.2451524;0.3393352;0.6163435;-2;-31;-24;1526;2978;456;16;0.7134282;-0.6842105;-0.04155125;-0.1454294;18;-11;5;861;4059;180;2;0.5263157;-0.5812458;-0.4695291;-0.4058172;17;-1;-2;296;2270;330;8;0.4556787;-0.8819811;-0.09833795;0.06925207;32;94;41;-1887;2353;283;-0.3335945;2.45523;0.8934207;-0.3279164;2.972688;0.7207201;-0.3229323;3.426894;0.5669978;-0.02634875;4.087857;0.4502532;-0.1330361;4.482;0.3607145;-0.4969915;4.504587;0.4453632;-0.7429804;4.974477;-0.3142564;-0.3266957;5.075315;0.5309275;0.3417059;4.268979;0.3607131;0.5527437;4.033561;0.4453612;0.05352521;3.28694;0.7940922;-0.5691604;2.638967;0.49379;-0.6458501;2.413067;0.900564;0.0420639;1.331329;0.1952452;0;0;0;-0.6458501;2.413067;0.900564;0.0420639;1.331329;0.1952452;0;0;0
1524753.94;NotLabelled;NONE;16384;0.7698564;0.4252077;0.4376731;0.1869806;46;0;0;1068;-144;2537;65536;-0.6468144;-0.2409972;0.7134644;0.1204986;44;-4;3;96;-787;-2864;8192;0.3767313;-0.7663612;-0.4806094;-0.199446;-16;47;13;1490;1335;393;32768;0.1731302;-0.706071;-0.4376731;-0.5290859;32;18;2;-1538;1973;299;256;0.2506925;-0.433518;-0.7208047;-0.4792244;-17;2;-34;459;2228;1669;128;-0.07479224;0.1468144;0.7260683;0.66759;4;-4;22;611;2849;-1364;4;0.6577913;-0.2423823;0.3490305;0.6218836;-20;-35;-7;2910;3566;166;16;0.7181451;-0.6814404;-0.033241;-0.1371191;12;-60;-5;1409;4161;-210;2;0.5221606;-0.5933073;-0.4626039;-0.4016621;31;-26;0;140;1834;70;8;0.4709141;-0.8767259;-0.06925207;0.06925207;29;-168;-5;-4617;1311;6501;-0.3334407;2.463237;0.8948491;-0.3277639;2.980567;0.7217588;-0.3227811;3.434656;0.5676945;-0.03107694;4.096757;0.4452448;-0.1407293;4.489511;0.3532194;-0.5045592;4.510238;0.4388775;-0.7416813;4.97744;-0.325206;-0.3322786;5.088182;0.522097;0.3354498;4.279722;0.353218;0.5483533;4.046358;0.4388752;0.05172747;3.302565;0.7972202;-0.5673292;2.648926;0.5017339;-0.6456962;2.421081;0.9020268;0.03373915;1.330551;0.2020467;0;0;0;-0.6456962;2.421081;0.9020268;0.03373915;1.330551;0.2020467;0;0;0
1524773.9748;NotLabelled;NONE;16384;0.7719032;0.4210526;0.4362881;0.1911357;39;-8;-9;918;-100;2915;65536;-0.6454294;-0.2451524;0.7142169;0.1149584;36;0;11;254;-733;-2676;8192;0.3767313;-0.7632195;-0.4861496;-0.1980609;-17;22;9;1158;1415;489;32768;0.1759003;-0.7038314;-0.4418283;-0.5277008;34;11;-4;-1484;2045;715;256;0.2562327;-0.4307479;-0.7205172;-0.4792244;-20;6;-29;629;2224;1793;128;-0.07756232;0.1440443;0.7263325;0.66759;4;-2;22;-59;3001;-1348;4;0.6578335;-0.2382271;0.3518005;0.6218836;-20;-12;-2;2900;3020;-4;16;0.7209764;-0.6800554;-0.02770083;-0.1301939;10;-49;-3;25;4211;-736;2;0.5235457;-0.5984854;-0.4542936;-0.4016621;27;-56;-30;600;3096;438;8;0.4709141;-0.8766471;-0.07756232;0.06094183;-31;185;34;-6611;2451;6207;-0.3270153;2.473784;0.8996242;-0.3213398;2.990986;0.7261541;-0.3163583;3.444962;0.5717565;-0.03861025;4.111409;0.4407346;-0.1565693;4.50085;0.3449776;-0.5203483;4.515201;0.4321444;-0.7374687;4.969663;-0.3454486;-0.3425086;5.102104;0.5055873;0.3237333;4.300682;0.3449757;0.5416824;4.072595;0.4321413;0.05133903;3.333177;0.8077763;-0.5566515;2.662753;0.5273017;-0.6392707;2.431632;0.9068354;0.02288242;1.329887;0.2078582;0;0;0;-0.6392707;2.431632;0.9068354;0.02288242;1.329887;0.2078582;0;0;0
1524793.9475;NotLabelled;NONE;16384;0.7719479;0.4113573;0.4404432;0.2022161;22;-19;-45;1646;-568;3469;65536;-0.6481994;-0.2506925;0.7110674;0.1066482;21;0;24;798;-1803;-3248;8192;0.3795014;-0.7613195;-0.4875346;-0.1966759;-20;-7;4;1426;1611;453;32768;0.1786704;-0.7044922;-0.4445983;-0.5235457;36;-3;-14;-1558;2153;1031;256;0.2631579;-0.4252077;-0.7213115;-0.4792244;-12;6;-18;821;2856;1557;128;-0.08310249;0.1440443;0.7269911;0.666205;6;-11;6;-385;3469;-1118;4;0.6601347;-0.2354571;0.3518005;0.6204986;-9;12;9;2416;2294;-254;16;0.7240178;-0.6772853;-0.02908587;-0.1274238;8;1;11;187;4021;-708;2;0.5263157;-0.599195;-0.4501385;-0.4016621;1;-18;-15;3064;5590;636;8;0.4695291;-0.8765267;-0.09695291;0.04293629;4;122;37;263;2927;2851;-0.3301196;2.470788;0.9090804;-0.3244472;2.987718;0.7347997;-0.3194681;3.441452;0.5796902;-0.04883905;4.11018;0.4454327;-0.1709751;4.49798;0.3482682;-0.5347358;4.508937;0.4360021;-0.7425549;4.956189;-0.3482851;-0.3571387;5.100407;0.5052093;0.3113688;4.302783;0.3482664;0.5318083;4.07732;0.4359995;0.04316276;3.33932;0.8165984;-0.5603859;2.662929;0.540897;-0.6423749;2.428648;0.9163631;0.01560331;1.329831;0.2088863;0;0;0;-0.6423749;2.428648;0.9163631;0.01560331;1.329831;0.2088863;0;0;0
1524835.1659;NotLabelled;NONE;16384;0.7698514;0.4058172;0.4459834;0.2091413;15;-17;-53;2122;-292;3559;65536;-0.6509695;-0.2534626;0.7083591;0.101108;12;0;30;1166;-2447;-3578;8192;0.3822715;-0.7615298;-0.4861496;-0.1939058;-24;-25;0;2028;2047;9;32768;0.1828255;-0.7066427;-0.4459834;-0.5180055;28;-38;-21;-1710;2397;1417;256;0.2645429;-0.4210526;-0.7232397;-0.4792244;-8;13;-16;1123;3304;1499;128;-0.08587258;0.1440443;0.7279365;0.66482;11;-8;6;-65;4043;-950;4;0.6619253;-0.234072;0.3518005;0.6191136;-8;15;14;2540;2608;-334;16;0.7257076;-0.6759003;-0.02493075;-0.1260388;1;-33;5;947;4277;-752;2;0.5249307;-0.6013331;-0.4501385;-0.400277;7;14;29;4940;4946;-364;8;0.4722992;-0.8754438;-0.09556787;0.03739612;34;-17;21;19;2867;3327;-0.3428266;2.466027;0.91524;-0.3371614;2.982312;0.7390617;-0.3321888;3.435473;0.5822867;-0.07207993;4.106998;0.4413603;-0.2003483;4.492073;0.341298;-0.5639374;4.498334;0.4301969;-0.770045;4.921231;-0.3679303;-0.3841068;5.085426;0.4817102;0.284869;4.304132;0.3412963;0.5089605;4.082763;0.430194;0.02590567;3.342826;0.8141543;-0.5784574;2.663246;0.5482513;-0.6550816;2.423914;0.92269;0.002259433;1.330269;0.2066581;0;0;0;-0.6550816;2.423914;0.92269;0.002259433;1.330269;0.2066581;0;0;0
1524855.9389;NotLabelled;NONE;16384;0.7673593;0.4030471;0.4501385;0.2146814;4;-18;-50;2840;-356;3811;65536;-0.6551247;-0.2548476;0.7044104;0.09833795;2;0;31;1568;-2647;-3746;8192;0.3891967;-0.762733;-0.4819945;-0.1855956;-24;-29;-5;3264;2753;-841;32768;0.1897507;-0.7161308;-0.4390582;-0.5083103;7;-45;-22;-1988;2769;2145;256;0.265928;-0.4168975;-0.7251364;-0.4792244;-5;13;-12;1025;3742;1411;128;-0.08725762;0.1426593;0.7305645;0.6620498;19;-5;9;-295;4487;-1120;4;0.6633901;-0.234072;0.3490305;0.6191136;-6;17;21;2716;2888;-300;16;0.7278337;-0.6745152;-0.02077562;-0.1218837;-2;-43;7;285;4329;-766;2;0.5180055;-0.6001355;-0.4584487;-0.4016621;-1;75;34;1354;3794;502;8;0.4764543;-0.8738592;-0.08864266;0.03878116;25;-62;14;-885;4147;2561;-0.3384494;2.461981;0.9314627;-0.3327913;2.977613;0.7533795;-0.327825;3.430191;0.5949326;-0.07218754;4.102324;0.4488151;-0.2030632;4.485927;0.3464992;-0.5664545;4.490571;0.4363006;-0.7815548;4.896165;-0.3684072;-0.387901;5.073076;0.4751188;0.2832921;4.30095;0.3464977;0.5089597;4.081555;0.4362985;0.03218895;3.340512;0.8259391;-0.5754426;2.657949;0.5755833;-0.6507041;2.419895;0.9390808;0.001359381;1.329125;0.2138963;0;0;0;-0.6507041;2.419895;0.9390808;0.001359381;1.329125;0.2138963;0;0;0
1524876.0917;NotLabelled;NONE;16384;0.762504;0.4030471;0.4556787;0.2202216;-6;-17;-46;3750;-844;3987;65536;-0.6578947;-0.2534626;0.7023253;0.09833795;-9;-6;25;2216;-2509;-4054;8192;0.3919668;-0.7633954;-0.4792244;-0.1842105;-24;-23;-7;3514;2995;-1053;32768;0.1911357;-0.7203801;-0.4362881;-0.5041551;4;-47;-18;-2060;3079;2685;256;0.267313;-0.4141274;-0.7262136;-0.4792244;-3;16;-5;1431;3994;1321;128;-0.0900277;0.1426593;0.7327302;0.6592798;25;-17;5;-1247;4845;-866;4;0.6660451;-0.232687;0.3448753;0.6191136;1;21;26;2662;3110;-434;16;0.7279075;-0.6745152;-0.01800554;-0.1218837;1;16;22;-1253;4477;-268;2;0.5138504;-0.5974429;-0.4653739;-0.4030471;0;8;7;-1154;5956;140;8;0.4833795;-0.8713585;-0.07063711;0.04570637;24;-61;6;-1373;6025;791;-0.3448122;2.457414;0.9375185;-0.3391702;2.97157;0.7552192;-0.3342184;3.422837;0.5930718;-0.08309045;4.095537;0.4418386;-0.2165809;4.477638;0.337304;-0.5797694;4.480649;0.427992;-0.8040555;4.874198;-0.3801814;-0.3982477;5.059278;0.4557988;0.2709031;4.295657;0.3373024;0.4981407;4.078257;0.4279895;0.03461766;3.335408;0.8299822;-0.582157;2.655024;0.5966277;-0.6570662;2.415392;0.945509;-0.00212384;1.328638;0.216898;0;0;0;-0.6570662;2.415392;0.945509;-0.00212384;1.328638;0.216898;0;0;0
1524896.9642;NotLabelled;NONE;16384;0.7542502;0.4044321;0.4653739;0.2257618;-17;-1;-43;5140;-2282;3635;65536;-0.6606648;-0.2520775;0.7004135;0.09695291;-16;-13;14;3042;-2339;-4714;8192;0.3961219;-0.7636479;-0.4764543;-0.1814404;-25;-29;-8;3414;3309;-1319;32768;0.1939058;-0.724893;-0.4307479;-0.501385;-3;-49;-10;-2128;3261;3409;256;0.265928;-0.4127424;-0.7275095;-0.4792244;2;14;2;2197;4688;1113;128;-0.09418282;0.1454294;0.7341491;0.6565097;13;-21;3;-1565;5457;-472;4;0.6674722;-0.232687;0.3421052;0.6191136;9;9;20;1854;3364;460;16;0.7279234;-0.6731302;-0.02077562;-0.1288089;11;55;33;-389;3985;866;2;0.5138504;-0.5963613;-0.466759;-0.4030471;-11;-17;0;-2144;6668;376;8;0.4861496;-0.8703209;-0.06094183;0.04986149;19;-68;-2;147;3611;1097;-0.3496195;2.44817;0.9469896;-0.3439924;2.96097;0.7609112;-0.3390539;3.411032;0.5954472;-0.09136847;4.084251;0.4408801;-0.2268407;4.465254;0.3349006;-0.5898933;4.466938;0.4261646;-0.8288499;4.84998;-0.3828516;-0.414449;5.03506;0.4489017;0.261502;4.28559;0.3348991;0.4899152;4.069668;0.4261623;0.03157246;3.324518;0.8298301;-0.5907472;2.646818;0.6034905;-0.6618728;2.406208;0.9553142;0.001220293;1.327863;0.2216;0;0;0;-0.6618728;2.406208;0.9553142;0.001220293;1.327863;0.2216;0;0;0
1524918.2671;NotLabelled;NONE;16384;0.7516707;0.4044321;0.4695291;0.2257618;-14;6;-27;5064;-2126;2961;65536;-0.6620498;-0.2493075;0.6999039;0.09833795;-15;-9;5;3196;-2549;-5610;8192;0.400277;-0.7638577;-0.4736842;-0.1786704;-30;-27;-4;3546;3767;-1655;32768;0.1966759;-0.728366;-0.4252077;-0.5;-11;-38;-3;-2276;3397;3573;256;0.2645429;-0.4155124;-0.7264368;-0.4792244;-1;-21;14;2423;4918;1123;128;-0.09695291;0.1481994;0.7319915;0.6578947;-16;-7;0;-21;5331;-66;4;0.665071;-0.2354571;0.3448753;0.6191136;0;-20;-21;2134;3958;1436;16;0.7300444;-0.6689751;-0.01800554;-0.1385041;26;-20;20;2669;3789;896;2;0.5180055;-0.5998605;-0.4612188;-0.398892;-2;-60;-3;-576;3632;-14;8;0.4875346;-0.869923;-0.05124654;0.05401662;18;-62;0;429;3275;2047;-0.3520308;2.442685;0.9579009;-0.3464155;2.95441;0.7688835;-0.3414874;3.403515;0.6008399;-0.09366143;4.076262;0.444458;-0.2290702;4.457068;0.3376925;-0.5920421;4.459118;0.4292695;-0.8588455;4.829202;-0.3770703;-0.434818;5.016072;0.4494146;0.2591986;4.277204;0.3376909;0.4876032;4.061405;0.4292668;0.03908399;3.313467;0.8387724;-0.5871942;2.637883;0.6170774;-0.6642836;2.400772;0.9664857;0.002036817;1.326473;0.229765;0;0;0;-0.6642836;2.400772;0.9664857;0.002036817;1.326473;0.229765;0;0;0
1524939.9462;NotLabelled;NONE;16384;0.7520853;0.4044321;0.4695291;0.2243767;5;0;19;4192;-1836;2575;65536;-0.6606648;-0.2493075;0.7010158;0.09972299;3;16;-13;1924;-2217;-5284;8192;0.4058172;-0.7624336;-0.4722992;-0.1759003;-34;-8;-2;3574;4091;-1903;32768;0.1980609;-0.7304016;-0.4210526;-0.5;-15;-30;5;-1792;3401;3449;256;0.2645429;-0.4182825;-0.7257591;-0.4778393;0;-22;6;1743;4498;965;128;-0.09833795;0.1495845;0.7290241;0.6606648;-21;-7;4;505;4617;206;4;0.6616035;-0.2354571;0.3490305;0.6204986;-13;-25;-32;3116;3992;1714;16;0.7332065;-0.666205;-0.01246537;-0.1357341;29;-53;9;2451;4101;546;2;0.5221606;-0.6032314;-0.4556787;-0.3947368;8;-48;1;666;2926;-738;8;0.4889196;-0.8692777;-0.04570637;0.0567867;11;-13;5;-805;3425;2841;-0.3509973;2.446691;0.974391;-0.3453711;2.959414;0.788097;-0.3404332;3.409406;0.6224437;-0.08885965;4.081635;0.4698648;-0.2220775;4.463542;0.3642798;-0.5853582;4.466925;0.4545837;-0.8525099;4.829042;-0.3552496;-0.428342;5.011356;0.4721807;0.265328;4.281353;0.3652181;0.492378;4.064073;0.4566598;0.04680818;3.315536;0.8682852;-0.5795468;2.641232;0.6429397;-0.6632506;2.404733;0.9827347;-0.0001597703;1.321659;0.2560157;0;0;0;-0.6632506;2.404733;0.9827347;-0.0001597703;1.321659;0.2560157;0;0;0
1524960.0831;NotLabelled;NONE;16384;0.7538075;0.4044321;0.466759;0.2243767;9;-3;26;3440;-1488;2629;65536;-0.6578947;-0.2520775;0.7022297;0.1024931;8;18;-22;1622;-1747;-4246;8192;0.4127424;-0.7567437;-0.4764543;-0.1731302;-23;23;-8;2386;3957;-1625;32768;0.200831;-0.7323112;-0.4113573;-0.5041551;-8;-24;17;-1040;2965;3383;256;0.265928;-0.4196676;-0.7253639;-0.4764543;2;-16;-3;1375;4096;925;128;-0.09972299;0.1495845;0.7263154;0.6634349;-28;-11;2;41;3981;166;4;0.658651;-0.2354571;0.3545706;0.6204986;-22;-18;-30;3242;3526;1572;16;0.7382869;-0.6620498;-0.005540166;-0.1288089;32;-64;4;1497;4145;246;2;0.5221606;-0.6071113;-0.4529086;-0.3919668;13;-21;9;562;3534;-802;8;0.4889196;-0.8693804;-0.04709141;0.05401662;-1;19;9;-223;3731;1747;-0.3509004;2.451379;0.9809525;-0.3452576;2.965612;0.7988706;-0.340305;3.416948;0.6369141;-0.08592206;4.088302;0.4851367;-0.2175651;4.470978;0.3803662;-0.5807099;4.475834;0.4711481;-0.8514066;4.843761;-0.3348807;-0.4319734;5.023373;0.4955485;0.2690206;4.286608;0.3803649;0.4952136;4.06816;0.4711463;0.06191027;3.313365;0.8844339;-0.5642217;2.640322;0.6547403;-0.6631544;2.409354;0.9889237;-0.007012591;1.319727;0.2657023;0;0;0;-0.6631544;2.409354;0.9889237;-0.007012591;1.319727;0.2657023;0;0;0
1524981.1754;NotLabelled;NONE;16384;0.7563646;0.4044321;0.4626039;0.2243767;5;-6;27;2746;-1144;2619;65536;-0.6551247;-0.2548476;0.7038178;0.1024931;9;22;-22;1596;-1271;-3602;8192;0.4155124;-0.7537096;-0.4778393;-0.1759003;-10;19;-12;1826;3593;-1041;32768;0.2036011;-0.7336813;-0.4058172;-0.5055401;0;-24;21;-788;2665;3231;256;0.267313;-0.4210526;-0.7231376;-0.4778393;8;-13;-9;1055;3888;627;128;-0.09972299;0.1523546;0.7219189;0.66759;-25;-12;-2;-575;3875;26;4;0.6553721;-0.234072;0.3614958;0.6204986;-23;-28;-27;2730;2932;1156;16;0.7419532;-0.6592798;0;-0.1218837;29;-66;0;1095;4049;-362;2;0.5193906;-0.6151877;-0.4487534;-0.3878116;16;-31;12;864;3826;-344;8;0.4903047;-0.8686938;-0.04986149;0.04986149;-5;-2;0;-9;3241;1781;-0.3545642;2.457681;0.9865348;-0.3489068;2.973249;0.8082674;-0.3439412;3.425772;0.6496588;-0.08879861;4.096765;0.4975612;-0.2200115;4.47955;0.3926519;-0.583136;4.484869;0.4834893;-0.844618;4.855238;-0.3244604;-0.4340602;5.03308;0.5107707;0.2663586;4.294613;0.3926503;0.4923108;4.075939;0.4834871;0.07306224;3.316558;0.9028275;-0.5485189;2.644902;0.6572645;-0.6668188;2.415599;0.9941691;-0.02113737;1.317946;0.273674;0;0;0;-0.6668188;2.415599;0.9941691;-0.02113737;1.317946;0.273674;0;0;0
1525001.9414;NotLabelled;NONE;16384;0.7584605;0.4044321;0.4598338;0.2229917;-3;-7;24;2276;-1180;2617;65536;-0.6523545;-0.2576177;0.7049726;0.1052632;4;24;-17;1550;-791;-2990;8192;0.4155124;-0.7521771;-0.4792244;-0.1786704;3;15;-14;1536;3079;-621;32768;0.2063712;-0.7332798;-0.4016621;-0.5083103;0;-18;21;-1128;2489;2703;256;0.2686981;-0.4210526;-0.7207847;-0.4806094;12;-6;-11;1071;3600;499;128;-0.09972299;0.1537396;0.7203415;0.6689751;-18;-9;-4;-777;3849;-346;4;0.6527808;-0.232687;0.367036;0.6204986;-20;-34;-24;2564;2406;646;16;0.7467031;-0.6551247;0.005540166;-0.1149584;26;-57;-1;551;4109;-822;2;0.5180055;-0.6192282;-0.4459834;-0.3864266;16;-18;1;760;3572;-1040;8;0.4889196;-0.8695524;-0.04986149;0.04847645;-8;3;0;-153;3355;2019;-0.3521494;2.464515;0.9906763;-0.3464674;2.982322;0.8190232;-0.3414799;3.436838;0.6662205;-0.08742297;4.109141;0.5181419;-0.2192181;4.492199;0.4149754;-0.5825318;4.496296;0.5051171;-0.8295093;4.870309;-0.3057133;-0.4298576;5.049959;0.5344072;0.2675319;4.308264;0.4149737;0.493755;4.089583;0.5051146;0.07677126;3.325547;0.9182129;-0.5411916;2.653746;0.6640644;-0.664405;2.422338;0.9977274;-0.0321825;1.317027;0.2770056;0;0;0;-0.664405;2.422338;0.9977274;-0.0321825;1.317027;0.2770056;0;0;0
1525045.0564;NotLabelled;NONE;16384;0.7573214;0.4127424;0.4542936;0.2229917;-20;-12;0;2050;-1534;1985;65536;-0.6495845;-0.2645429;0.7036747;0.1135734;-7;26;3;2060;-93;-2626;8192;0.4168975;-0.7509544;-0.4778393;-0.1842105;5;-9;-22;1152;2665;-325;32768;0.2091413;-0.7335832;-0.3961219;-0.5110803;-4;-19;5;-1556;2381;1857;256;0.2686981;-0.4196676;-0.7169313;-0.4875346;19;10;-9;1139;3118;597;128;-0.09695291;0.1578947;0.7159366;0.6731302;-13;6;-3;-483;3625;-186;4;0.6464006;-0.2313019;0.3767313;0.6218836;-4;11;-17;2886;2784;-108;16;0.7564293;-0.6454294;0.01246537;-0.1052632;23;-9;7;627;4123;-842;2;0.5180055;-0.6224341;-0.4390582;-0.3891967;14;-6;-19;628;3620;-852;8;0.4861496;-0.8712583;-0.04709141;0.04847645;-12;-11;-4;-495;3513;2209;-0.3549781;2.468549;0.9980267;-0.3492876;2.987135;0.8287417;-0.3442924;3.442344;0.6780176;-0.09336656;4.116783;0.5343805;-0.226901;4.499753;0.4331413;-0.5904241;4.501471;0.5225117;-0.8292128;4.879386;-0.2889618;-0.4372451;5.057199;0.5551598;0.2607843;4.318313;0.4331397;0.4879305;4.100273;0.5225095;0.06999397;3.334425;0.9312657;-0.5424443;2.660801;0.6687087;-0.6672341;2.426341;1.004869;-0.04670246;1.31539;0.2826591;0;0;0;-0.6672341;2.426341;1.004869;-0.04670246;1.31539;0.2826591;0;0;0
1525066.0572;NotLabelled;NONE;16384;0.7558051;0.4155124;0.4542936;0.2229917;-22;-14;-9;2262;-1714;1959;65536;-0.6495845;-0.265928;0.7026994;0.1163435;-9;23;8;2168;-365;-2528;8192;0.4224377;-0.7532768;-0.468144;-0.1869806;-4;-31;-25;2190;2731;-601;32768;0.2119114;-0.7376722;-0.3905817;-0.5083103;-3;-34;-7;-1798;2727;1999;256;0.267313;-0.4196676;-0.7146077;-0.4916897;21;10;-6;1213;3288;669;128;-0.09556787;0.1578947;0.7148184;0.6745152;-12;9;-2;-643;3847;-244;4;0.6480604;-0.234072;0.3767313;0.6191136;2;21;-18;2498;2940;644;16;0.758951;-0.6426592;0.01385042;-0.1038781;22;-25;5;783;4083;-812;2;0.5180055;-0.6226435;-0.4362881;-0.3919668;11;4;-24;844;4060;-498;8;0.4847645;-0.8719516;-0.04709141;0.04986149;-12;-8;-1;-1675;3433;2595;-0.3673275;2.476398;1.009876;-0.3616118;2.997268;0.847756;-0.3565944;3.454511;0.7033215;-0.1108647;4.132972;0.5700151;-0.2471455;4.515837;0.4720901;-0.61147;4.513031;0.5581067;-0.8435993;4.8929;-0.2543864;-0.4578381;5.067064;0.5933475;0.2422419;4.339055;0.4744512;0.4706488;4.122134;0.563329;0.05064476;3.356181;0.9697636;-0.5565757;2.681844;0.6971105;-0.6795844;2.434099;1.016089;-0.07931782;1.310981;0.2955723;0;0;0;-0.6795844;2.434099;1.016089;-0.07931782;1.310981;0.2955723;0;0;0
1525086.9524;NotLabelled;NONE;16384;0.7530284;0.4182825;0.4556787;0.2243767;-20;-15;-16;2584;-1736;1953;65536;-0.6509695;-0.267313;0.7004244;0.1191136;-10;18;10;2202;-557;-2696;8192;0.4238227;-0.7550675;-0.4639889;-0.1869806;-1;-25;-23;2878;3033;-817;32768;0.2146814;-0.740009;-0.3864266;-0.5069252;-3;-34;-6;-1748;2901;2289;256;0.265928;-0.4182825;-0.7140249;-0.4944598;20;7;-3;1275;3478;697;128;-0.09279778;0.1578947;0.7138743;0.6759003;-13;6;-3;-619;4101;-92;4;0.6488872;-0.2368421;0.3781163;0.6163435;3;26;-19;2376;3052;798;16;0.7616054;-0.6398892;0.0166205;-0.101108;23;-11;7;417;4005;-762;2;0.5180055;-0.6182299;-0.4362881;-0.398892;0;15;-16;832;4412;260;8;0.4819945;-0.8734101;-0.04986149;0.04847645;-4;13;2;-1179;3615;2345;-0.3668953;2.478124;1.015858;-0.3611731;2.999599;0.8556914;-0.3561498;3.457381;0.7129718;-0.1127043;4.137683;0.584968;-0.2503134;4.520948;0.4905239;-0.6144723;4.516313;0.5771605;-0.8592164;4.910055;-0.2249596;-0.467081;5.082445;0.620208;0.2396076;4.345634;0.4905224;0.4688261;4.128661;0.5771582;0.05846539;3.348206;0.965448;-0.5531601;2.675792;0.6979395;-0.6791526;2.435803;1.021899;-0.08570875;1.309362;0.3009177;0;0;0;-0.6791526;2.435803;1.021899;-0.08570875;1.309362;0.3009177;0;0;0
1525107.9456;NotLabelled;NONE;16384;0.750226;0.4210526;0.4570637;0.2257618;-17;-17;-18;2982;-1812;1957;65536;-0.6523545;-0.2686981;0.6981255;0.1218837;-11;15;11;2432;-1007;-3070;8192;0.4265928;-0.7548603;-0.4612188;-0.1883656;1;-14;-22;3188;3303;-1129;32768;0.2160665;-0.741992;-0.3836565;-0.5055401;-2;-27;0;-1732;3137;2409;256;0.2645429;-0.4182825;-0.7126143;-0.4972299;21;6;-1;1265;3690;515;128;-0.09141274;0.1565097;0.7130449;0.6772853;-12;6;-4;-313;4225;64;4;0.6512862;-0.2409972;0.3781163;0.6121883;-1;24;-19;2608;3086;592;16;0.7637082;-0.6371191;0.01800554;-0.1024931;21;-1;7;953;4013;-844;2;0.5180055;-0.6154512;-0.4376731;-0.4016621;0;12;-7;526;4324;-76;8;0.4806094;-0.8742487;-0.04986149;0.04709141;-1;0;1;-743;3531;2365;-0.364345;2.48168;1.020742;-0.3586161;3.003751;0.8625325;-0.3535869;3.462065;0.7215307;-0.1118535;4.143456;0.5960979;-0.2503994;4.526657;0.5027732;-0.614647;4.520736;0.5889569;-0.869261;4.914465;-0.2100909;-0.4692954;5.086087;0.6315567;0.2399996;4.352684;0.5027719;0.4697084;4.13605;0.5889552;0.06135207;3.353634;0.9754074;-0.5517116;2.681414;0.7107195;-0.6766024;2.439336;1.026612;-0.09219201;1.307624;0.3065067;0;0;0;-0.6766024;2.439336;1.026612;-0.09219201;1.307624;0.3065067;0;0;0
1525128.9336;NotLabelled;NONE;16384;0.7469754;0.4238227;0.4584487;0.2285319;-15;-15;-12;3404;-1756;2043;65536;-0.6537396;-0.2700831;0.6958025;0.1246537;-10;14;7;2468;-1435;-3438;8192;0.4265928;-0.7558508;-0.4584487;-0.1911357;3;-3;-15;3400;3597;-1333;32768;0.2174515;-0.7423022;-0.3822715;-0.5055401;1;-5;9;-1930;3389;2979;256;0.2631579;-0.4182825;-0.7111875;-0.5;20;3;-2;1273;3894;567;128;-0.09141274;0.1565097;0.7117268;0.6786703;-10;2;-2;-189;4373;-188;4;0.6524928;-0.2451524;0.3822715;0.6066482;-8;5;-9;2034;3304;476;16;0.7685521;-0.6315789;0.02216066;-0.09972299;14;-31;2;995;4181;-952;2;0.5180055;-0.6154512;-0.4376731;-0.4016621;0;6;-3;150;4046;-168;8;0.4806094;-0.8742487;-0.04986149;0.04709141;0;-6;0;-639;3673;2195;-0.364337;2.484163;1.026092;-0.3586032;3.00669;0.8693945;-0.3535696;3.46541;0.7297204;-0.1125126;4.147825;0.6086237;-0.2513926;4.531361;0.517188;-0.6158032;4.52446;0.602607;-0.8779719;4.918124;-0.1940275;-0.4723758;5.089014;0.6450708;0.2392414;4.358052;0.5171865;0.4690719;4.141243;0.6026046;0.0649046;3.354728;0.9851198;-0.549893;2.683422;0.7221405;-0.6765947;2.441803;1.031829;-0.09715095;1.305107;0.3155706;0;0;0;-0.6765947;2.441803;1.031829;-0.09715095;1.305107;0.3155706;0;0;0
1525148.965;NotLabelled;NONE;16384;0.7433778;0.4293629;0.4584487;0.2299169;-11;-13;1;3756;-1726;2059;65536;-0.6537396;-0.2714681;0.6945055;0.1288089;-3;17;-5;2384;-1675;-4038;8192;0.4265928;-0.754657;-0.4598338;-0.1925208;7;15;-7;3342;3857;-1347;32768;0.2174515;-0.7396913;-0.3836565;-0.5083103;4;29;20;-2246;3449;3249;256;0.2617728;-0.4196676;-0.7079419;-0.5041551;15;-5;-7;1471;4102;721;128;-0.09141274;0.1578947;0.7087679;0.6814404;-11;-6;-2;-549;4301;-14;4;0.650862;-0.2451524;0.3850415;0.6066482;-8;-14;-7;1842;3180;408;16;0.7700844;-0.6301939;0.02631579;-0.09556787;10;-28;0;661;4105;-1136;2;0.5180055;-0.614545;-0.4376731;-0.4030471;3;-4;-1;-2;4012;-326;8;0.4819945;-0.8734881;-0.04847645;0.04847645;0;-13;0;-683;3603;1927;-0.3609877;2.490079;1.036154;-0.3552474;3.013194;0.8814325;-0.3502079;3.472439;0.7434928;-0.1098358;4.155854;0.6267517;-0.2490532;4.539715;0.5372143;-0.6136239;4.53184;0.6218622;-0.8842192;4.923872;-0.1727562;-0.4729921;5.094067;0.6637384;0.2418145;4.367068;0.5372132;0.471768;4.150089;0.6218609;0.06638169;3.361331;0.9984206;-0.5477881;2.689275;0.7358861;-0.6732455;2.447697;1.041718;-0.1107825;1.300971;0.3279172;0;0;0;-0.6732455;2.447697;1.041718;-0.1107825;1.300971;0.3279172;0;0;0
1525169.941;NotLabelled;NONE;16384;0.742195;0.432133;0.4570637;0.2313019;-8;-12;11;3644;-1808;2013;65536;-0.6523545;-0.2742382;0.6942002;0.1315789;0;23;-8;2486;-1469;-3936;8192;0.4224377;-0.7521605;-0.4653739;-0.1980609;14;33;3;2854;3227;-1215;32768;0.2146814;-0.7303268;-0.3919668;-0.5166205;-1;33;33;-1364;2869;2191;256;0.2617728;-0.4196676;-0.705961;-0.5069252;15;-4;-10;1519;4114;517;128;-0.09141274;0.1592798;0.7071231;0.6828254;-11;-5;-3;-703;4253;-86;4;0.6484865;-0.2423823;0.3864266;0.6094183;-3;-31;-4;2088;2972;460;16;0.7713376;-0.6288089;0.02770083;-0.09418282;9;-13;2;673;3953;-984;2;0.5193906;-0.615342;-0.434903;-0.4030471;4;-16;-1;-146;3920;-116;8;0.4819945;-0.8734859;-0.04709141;0.04986149;0;-20;-1;-759;3571;1907;-0.3582172;2.492784;1.038426;-0.3524628;3.017188;0.8881302;-0.3474108;3.477581;0.7540759;-0.107729;4.162613;0.6456935;-0.2472405;4.5472;0.5598041;-0.6121173;4.537817;0.6429665;-0.8903646;4.933483;-0.1471949;-0.4782184;5.100232;0.689541;0.2439091;4.375359;0.5598027;0.4738979;4.157842;0.6429646;0.06917632;3.368319;1.018633;-0.5405717;2.693997;0.7516392;-0.6704755;2.450357;1.043603;-0.1140678;1.299883;0.331088;0;0;0;-0.6704755;2.450357;1.043603;-0.1140678;1.299883;0.331088;0;0;0
1525190.9308;NotLabelled;NONE;16384;0.7414281;0.434903;0.4556787;0.2313019;-6;-10;17;3412;-1774;2033;65536;-0.6509695;-0.2770083;0.6938699;0.134349;1;26;-9;2556;-1327;-3470;8192;0.4182825;-0.7511652;-0.4695291;-0.200831;16;37;5;2454;3021;-1007;32768;0.2146814;-0.7256269;-0.3933518;-0.5221606;-4;21;35;-1390;2817;2233;256;0.2617728;-0.4196676;-0.7049644;-0.5083103;16;-2;-9;1419;4008;521;128;-0.0900277;0.1606648;0.7069874;0.6828254;-14;-2;-2;-593;4205;-150;4;0.6455601;-0.2409972;0.3878116;0.6121883;-4;-31;-3;2680;3164;468;16;0.7725813;-0.6274238;0.02908587;-0.09279778;9;-9;3;811;3983;-904;2;0.5221606;-0.6196463;-0.4279778;-0.400277;8;-41;2;308;4018;-336;8;0.4819945;-0.8735847;-0.0401662;0.05401662;-2;-25;-2;-569;3339;2367;-0.3617492;2.490435;1.043687;-0.3559871;3.015537;0.8958474;-0.3509283;3.476552;0.7639491;-0.1132917;4.162989;0.6600409;-0.253899;4.547608;0.576106;-0.6189097;4.536539;0.6584699;-0.8969544;4.934495;-0.1306126;-0.4872047;5.100387;0.7074699;0.2378144;4.377385;0.5761043;0.468352;4.160147;0.6584677;0.05727333;3.371664;1.029393;-0.5412086;2.690858;0.7535123;-0.6740079;2.447984;1.04865;-0.1179502;1.29888;0.3336547;0;0;0;-0.6740079;2.447984;1.04865;-0.1179502;1.29888;0.3336547;0;0;0
1525211.9492;NotLabelled;NONE;16384;0.7423112;0.4362881;0.4529086;0.2313019;-8;-9;19;3232;-1794;2201;65536;-0.6495845;-0.2811634;0.6929542;0.1371191;-1;25;-10;2526;-1171;-2990;8192;0.4141274;-0.7501122;-0.4736842;-0.2036011;15;35;2;1820;2971;-695;32768;0.2132964;-0.7230289;-0.3933518;-0.5263157;-7;17;32;-1410;2745;2481;256;0.2617728;-0.4210526;-0.70213;-0.5110803;15;-1;-6;1315;3692;591;128;-0.0900277;0.1620499;0.7053303;0.6842105;-15;-4;-2;-439;4035;-78;4;0.6431174;-0.2382271;0.3891967;0.6149584;-6;-26;-5;2804;3154;486;16;0.7736508;-0.6260388;0.03047091;-0.09279778;9;2;5;511;3919;-834;2;0.5235457;-0.6221628;-0.4252077;-0.3975069;8;-30;5;732;3984;-242;8;0.4806094;-0.8743233;-0.03878116;0.05540166;-3;-1;1;-819;3583;2085;-0.3648475;2.490343;1.045351;-0.359084;3.015575;0.8979748;-0.3540239;3.476707;0.7664841;-0.1174185;4.163835;0.6648179;-0.2585772;4.548465;0.581863;-0.6236516;4.536553;0.663826;-0.9014364;4.938297;-0.1234267;-0.4937433;5.103327;0.7158285;0.2334168;4.379055;0.5818615;0.4642305;4.161958;0.6638235;0.04652086;3.37621;1.03314;-0.5440073;2.69183;0.749084;-0.6771062;2.447887;1.050273;-0.1216837;1.297862;0.3362661;0;0;0;-0.6771062;2.447887;1.050273;-0.1216837;1.297862;0.3362661;0;0;0
1525233.1702;NotLabelled;NONE;16384;0.7436564;0.4418283;0.4459834;0.2299169;-7;-8;22;2966;-1778;1983;65536;-0.6468144;-0.2867036;0.6921564;0.1426593;-4;20;-10;2400;-931;-2900;8192;0.4127424;-0.7483622;-0.4764543;-0.2063712;12;25;-5;1578;3005;-715;32768;0.2132964;-0.7199858;-0.3933518;-0.5304709;-9;9;24;-1246;2517;2503;256;0.2617728;-0.4210526;-0.7011197;-0.5124654;15;-1;-5;1193;3634;493;128;-0.0900277;0.1620499;0.7026325;0.6869806;-13;-4;-2;-335;4009;-30;4;0.6419455;-0.2368421;0.3919668;0.6149584;-7;-10;-7;2642;3018;448;16;0.7747695;-0.6246537;0.03047091;-0.09279778;10;0;6;825;4103;-834;2;0.5235457;-0.6258028;-0.4224377;-0.3947368;9;-17;0;928;3882;-444;8;0.4806094;-0.8742608;-0.0401662;0.05540166;-6;8;3;-713;3537;2029;-0.3697987;2.487642;1.050701;-0.3640277;3.013561;0.9057982;-0.3589608;3.475307;0.7764791;-0.1234504;4.163707;0.6810682;-0.2651478;4.548719;0.6008495;-0.6304245;4.535419;0.6816899;-0.9031807;4.940968;-0.1053703;-0.5002095;5.10698;0.7359685;0.2271826;4.38029;0.6008482;0.4582016;4.162991;0.6816878;0.03376102;3.379963;1.049103;-0.5520262;2.695441;0.7557275;-0.6820577;2.445164;1.055407;-0.1251588;1.296438;0.3404588;0;0;0;-0.6820577;2.445164;1.055407;-0.1251588;1.296438;0.3404588;0;0;0
1525254.0701;NotLabelled;NONE;16384;0.7449142;0.4432133;0.4432133;0.2285319;-7;-7;22;2828;-1744;1877;65536;-0.6454294;-0.2880886;0.6922978;0.1454294;-3;18;-8;2232;-987;-3026;8192;0.4113573;-0.7479673;-0.4764543;-0.2105263;11;17;-11;1756;3281;-887;32768;0.2132964;-0.7194474;-0.3905817;-0.533241;-10;-10;18;-978;2619;2391;256;0.2603878;-0.4196676;-0.6983893;-0.5180055;18;8;-7;1177;3824;459;128;-0.0900277;0.1648199;0.6992663;0.6897507;-15;-3;-1;-499;4143;-50;4;0.6402459;-0.2368421;0.3947368;0.6149584;-3;-2;-9;2630;3248;488;16;0.7769849;-0.6218836;0.03462604;-0.09141274;7;-20;2;1031;4099;-948;2;0.5221606;-0.626959;-0.4224377;-0.3947368;7;-6;-1;612;4054;-464;8;0.4806094;-0.8743474;-0.0401662;0.05401662;-7;-1;0;-237;3653;1995;-0.3671176;2.488239;1.056094;-0.3613346;3.01525;0.9152147;-0.3562572;3.477971;0.7894275;-0.1217992;4.167038;0.6962687;-0.264058;4.552047;0.6170356;-0.6293924;4.537902;0.6974705;-0.8966238;4.956289;-0.08474922;-0.4973085;5.12056;0.7586722;0.2285522;4.384438;0.6170344;0.4598523;4.167287;0.6974689;0.03434283;3.384013;1.063118;-0.5457333;2.697623;0.7628397;-0.6793769;2.445726;1.060449;-0.129353;1.295434;0.3427033;0;0;0;-0.6793769;2.445726;1.060449;-0.129353;1.295434;0.3427033;0;0;0
1525274.9541;NotLabelled;NONE;16384;0.7453274;0.4459834;0.4404432;0.2271468;-7;-12;20;2820;-1920;1967;65536;-0.6440443;-0.2894737;0.6924224;0.1481994;-6;19;-8;2160;-885;-2984;8192;0.4085872;-0.7453262;-0.4792244;-0.2188366;15;23;-16;2196;3455;-749;32768;0.2174515;-0.7198713;-0.3836565;-0.536011;-4;-18;12;-1254;3243;2675;256;0.2590028;-0.4196676;-0.6968425;-0.5207756;17;10;-4;1121;3702;513;128;-0.08864266;0.1648199;0.6980747;0.6911357;-16;-1;-2;-421;4073;130;4;0.6393899;-0.2368421;0.3961219;0.6149584;-1;0;-9;2592;3276;416;16;0.7780914;-0.6204986;0.03462604;-0.09141274;6;-3;4;569;3981;-960;2;0.5221606;-0.6270171;-0.4210526;-0.3961219;5;-8;-8;356;3932;-452;8;0.4792244;-0.8751435;-0.03739612;0.05540166;-7;-18;-2;-251;3479;2243;-0.3604025;2.489107;1.067702;-0.354605;3.017432;0.9318308;-0.3495147;3.481325;0.8104411;-0.1189243;4.172632;0.7245013;-0.2632527;4.557509;0.6484306;-0.6287457;4.540417;0.7275625;-0.8929668;4.964065;-0.05284679;-0.4922091;5.125606;0.7904178;0.2303567;4.392866;0.6484295;0.4627085;4.17636;0.7275609;0.03466678;3.391587;1.086986;-0.5440881;2.706148;0.7820202;-0.6726622;2.446555;1.071621;-0.132223;1.292456;0.3527064;0;0;0;-0.6726622;2.446555;1.071621;-0.132223;1.292456;0.3527064;0;0;0
1525295.9683;NotLabelled;NONE;16384;0.7452965;0.4487534;0.4376731;0.2271468;-7;-14;18;2902;-1828;1953;65536;-0.6426592;-0.2908587;0.6925305;0.1509695;-6;17;-9;2368;-923;-3200;8192;0.4072022;-0.7439594;-0.4806094;-0.2229917;18;18;-17;2446;3439;-491;32768;0.2188366;-0.7181184;-0.3822715;-0.5387812;-4;-4;14;-1370;3213;2647;256;0.2576177;-0.4182825;-0.6961126;-0.5235457;20;11;-5;1161;3820;387;128;-0.08864266;0.1648199;0.6967008;0.6925207;-14;-1;-2;-263;4057;138;4;0.6388752;-0.2382271;0.3961219;0.6149584;-1;7;-6;2466;3200;572;16;0.7780914;-0.6204986;0.03462604;-0.09141274;5;7;5;743;4105;-996;2;0.5235457;-0.6286365;-0.4168975;-0.3961219;5;-4;-7;942;4038;-382;8;0.4764543;-0.8766241;-0.03601108;0.0567867;-4;7;2;-1313;3515;2679;-0.3592456;2.489972;1.070814;-0.3534424;3.018816;0.9369773;-0.3483469;3.483172;0.8173738;-0.1185405;4.175283;0.7359231;-0.2632495;4.560402;0.661821;-0.6288714;4.542349;0.7401393;-0.8933821;4.972468;-0.03662348;-0.4927737;5.131273;0.8072314;0.2305847;4.396434;0.6618198;0.4630797;4.179786;0.7401378;0.03205454;3.392279;1.08989;-0.5417449;2.705985;0.7775744;-0.6715055;2.447406;1.074556;-0.135715;1.291407;0.3552131;0;0;0;-0.6715055;2.447406;1.074556;-0.135715;1.291407;0.3552131;0;0;0
1525316.9568;NotLabelled;NONE;16384;0.7460824;0.4501385;0.434903;0.2271468;-6;-12;20;2894;-1844;1899;65536;-0.6426592;-0.2922437;0.6916435;0.1523546;-2;16;-10;2466;-893;-3268;8192;0.4072022;-0.7427014;-0.4806094;-0.2271468;17;18;-16;2490;3449;-473;32768;0.2188366;-0.7178137;-0.3808864;-0.5401662;-6;1;16;-1380;3331;2483;256;0.2576177;-0.4168975;-0.6948534;-0.5263157;21;11;-9;661;3816;451;128;-0.08864266;0.166205;0.6925207;0.6963716;-14;3;-1;-289;4073;250;4;0.6402054;-0.2382271;0.3961219;0.6135734;-2;10;-4;2402;3198;702;16;0.7789674;-0.6191136;0.03601108;-0.09279778;3;2;5;839;4023;-1126;2;0.5221606;-0.6279938;-0.4182825;-0.3975069;1;2;0;450;4204;-358;8;0.4764543;-0.8766547;-0.03739612;0.05540166;-2;9;3;-873;3561;2355;-0.3548609;2.492219;1.070121;-0.3490522;3.021574;0.938324;-0.3439517;3.486389;0.8205116;-0.1158926;4.179395;0.7418087;-0.2615391;4.56439;0.6689123;-0.6272037;4.545085;0.7467317;-0.8935247;4.980173;-0.02663791;-0.4908175;5.13624;0.8167285;0.2327295;4.401736;0.6689109;0.4657081;4.185428;0.7467296;0.0342384;3.396547;1.092817;-0.5360044;2.70849;0.7778765;-0.667121;2.449638;1.073686;-0.1342439;1.291407;0.3557716;0;0;0;-0.667121;2.449638;1.073686;-0.1342439;1.291407;0.3557716;0;0;0
1525337.9418;NotLabelled;NONE;16384;0.7460155;0.4529086;0.432133;0.2271468;-3;-15;21;2866;-1908;1843;65536;-0.6412742;-0.2936288;0.6917267;0.1551246;-1;17;-9;2428;-855;-3332;8192;0.4058172;-0.7417089;-0.4819945;-0.2299169;15;21;-15;2378;3331;-365;32768;0.2188366;-0.7157208;-0.3808864;-0.5429363;-8;4;19;-1130;3367;2319;256;0.2562327;-0.4155124;-0.6930331;-0.5304709;22;11;-10;1285;3950;433;128;-0.08725762;0.1648199;0.6911357;0.6982492;-13;4;-2;-483;4117;164;4;0.640156;-0.2396122;0.3975069;0.6121883;-3;2;-3;2328;3066;608;16;0.7789674;-0.6191136;0.03601108;-0.09279778;2;7;5;635;3985;-1100;2;0.5221606;-0.6279938;-0.4182825;-0.3975069;0;-3;0;316;4066;-332;8;0.4764543;-0.8766547;-0.03739612;0.05540166;0;-9;0;-319;3559;2173;-0.3523746;2.489662;1.08057;-0.3465493;3.020521;0.9549661;-0.3414341;3.48668;0.8425921;-0.116497;4.181021;0.7667105;-0.2638399;4.565602;0.6950526;-0.6295035;4.544317;0.7723585;-0.8959356;4.983142;0.00114131;-0.4908988;5.139334;0.8433685;0.2311771;4.40524;0.6950512;0.4650632;4.189729;0.7723565;0.03514832;3.397981;1.113802;-0.5344988;2.710464;0.7966101;-0.664635;2.447043;1.083597;-0.1345066;1.28949;0.3625606;0;0;0;-0.664635;2.447043;1.083597;-0.1345066;1.28949;0.3625606;0;0;0
1525359.1043;NotLabelled;NONE;16384;0.7474594;0.4570637;0.4252077;0.2271468;-5;-19;17;2912;-2070;1915;65536;-0.6385041;-0.2977839;0.6912481;0.1606648;-2;28;-4;2530;-761;-3282;8192;0.4044321;-0.740263;-0.4833795;-0.234072;9;20;-15;2104;3549;-217;32768;0.2202216;-0.7139228;-0.3795014;-0.5457063;-8;5;20;-832;3449;2241;256;0.2548476;-0.4155124;-0.6914161;-0.533241;21;7;-8;1309;4024;339;128;-0.08587258;0.166205;0.6897507;0.6994611;-16;7;-2;-637;4181;188;4;0.640156;-0.2396122;0.3975069;0.6121883;0;0;-2;2568;3088;488;16;0.7796234;-0.6177285;0.03462604;-0.09695291;0;15;5;835;4041;-1044;2;0.5221606;-0.6289141;-0.4168975;-0.3975069;0;-5;0;394;3864;-530;8;0.4764543;-0.8766799;-0.03462604;0.0567867;0;-16;0;-523;3377;2309;-0.3434131;2.493112;1.08129;-0.3375819;3.024511;0.9579939;-0.3324613;3.491154;0.8476462;-0.1103677;4.186946;0.7768579;-0.2592195;4.571357;0.7074369;-0.6249508;4.547983;0.7838135;-0.8911628;4.991749;0.01535261;-0.4842928;5.145204;0.8571995;0.236485;4.413133;0.7074357;0.4711362;4.198123;0.7838118;0.03990075;3.405953;1.122602;-0.527076;2.717304;0.8030899;-0.6556737;2.45048;1.084117;-0.1331369;1.289491;0.3630642;0;0;0;-0.6556737;2.45048;1.084117;-0.1331369;1.289491;0.3630642;0;0;0
1525379.9443;NotLabelled;NONE;16384;0.7476903;0.4598338;0.4210526;0.2285319;-5;-21;16;2876;-1978;1841;65536;-0.6385041;-0.300554;0.6893974;0.1634349;0;27;-2;2724;-735;-3240;8192;0.4085872;-0.7352862;-0.4847645;-0.2396122;0;8;-23;1914;3629;-385;32768;0.2257618;-0.7111956;-0.3753462;-0.5498615;-8;-25;16;-494;3343;1787;256;0.2534626;-0.4141274;-0.6884548;-0.5387812;20;5;-4;1281;4064;361;128;-0.08310249;0.166205;0.6869806;0.7025151;-12;3;-4;-381;4163;66;4;0.6414776;-0.2396122;0.3975069;0.6108033;5;7;-1;2480;3186;552;16;0.7794499;-0.6177285;0.03462604;-0.09833795;0;9;4;1143;4153;-1046;2;0.5221606;-0.6289141;-0.4168975;-0.3975069;1;-3;-2;430;3960;-598;8;0.4764543;-0.8766799;-0.03462604;0.0567867;-2;6;3;-963;3647;2345;-0.3438109;2.491268;1.088262;-0.337974;3.023198;0.9672748;-0.3328482;3.490315;0.8589547;-0.1115642;4.186814;0.7927342;-0.2608054;4.571431;0.7253217;-0.6266485;4.547112;0.8008624;-0.8869795;5.000765;0.03616846;-0.4816144;5.150588;0.8793938;0.2351123;4.413877;0.72532;0.4699098;4.198731;0.80086;0.03745195;3.40518;1.134825;-0.5250829;2.714836;0.8111473;-0.6560717;2.448624;1.090889;-0.1346144;1.287635;0.3690546;0;0;0;-0.6560717;2.448624;1.090889;-0.1346144;1.287635;0.3690546;0;0;0
1525400.944;NotLabelled;NONE;16384;0.7471115;0.4626039;0.4182825;0.2299169;-4;-23;17;2896;-1992;1683;65536;-0.6371191;-0.3033241;0.688803;0.166205;2;29;-3;2426;-799;-3140;8192;0.4099723;-0.7340603;-0.4833795;-0.2437673;0;6;-24;1948;3593;-697;32768;0.2285319;-0.7121404;-0.3698061;-0.5512465;-4;-34;14;-932;3129;2225;256;0.2520775;-0.4141274;-0.6867879;-0.5415512;19;7;-5;1289;4100;225;128;-0.08171745;0.166205;0.6855956;0.704029;-14;4;-5;-429;3999;394;4;0.6414776;-0.2396122;0.3975069;0.6108033;3;7;1;2470;3302;636;16;0.7790954;-0.6177285;0.03462604;-0.101108;-2;17;2;1103;3853;-1096;2;0.5221606;-0.6289538;-0.4155124;-0.398892;2;4;-5;476;3766;-574;8;0.4764543;-0.8767412;-0.03739612;0.05401662;-4;-5;0;-3;3429;2243;-0.3374268;2.490187;1.094889;-0.3315786;3.023141;0.9784987;-0.3264428;3.491176;0.8742152;-0.1091338;4.189596;0.8154817;-0.26047;4.573958;0.7513633;-0.6263891;4.546721;0.8255281;-0.8869894;5.005078;0.06373739;-0.4772294;5.155199;0.9047828;0.2363802;4.419368;0.7513621;0.472231;4.204897;0.8255266;0.05058631;3.403492;1.154526;-0.5022844;2.708161;0.8249277;-0.6496879;2.447522;1.097119;-0.1320873;1.287217;0.3714178;0;0;0;-0.6496879;2.447522;1.097119;-0.1320873;1.287217;0.3714178;0;0;0
1525420.9505;NotLabelled;NONE;16384;0.7472784;0.4653739;0.4141274;0.2313019;0;-25;16;2806;-2114;1651;65536;-0.6357341;-0.3074792;0.6879043;0.16759;5;29;-8;2262;-861;-3198;8192;0.4127424;-0.7315786;-0.4833795;-0.2465374;0;8;-27;1600;3571;-781;32768;0.232687;-0.7122279;-0.367036;-0.5512465;-3;-29;10;-1236;3083;2441;256;0.2506925;-0.4141274;-0.6851029;-0.5443213;22;7;-6;1027;3500;255;128;-0.08033241;0.166205;0.6842105;0.7055343;-13;6;-5;-399;4029;176;4;0.6418155;-0.2409972;0.3961219;0.6108033;2;8;2;2458;3260;596;16;0.7787912;-0.6177285;0.033241;-0.1038781;-4;15;1;1153;4039;-722;2;0.5207756;-0.6292222;-0.4155124;-0.400277;3;8;-5;376;3896;-402;8;0.4750692;-0.8775504;-0.03601108;0.05401662;-5;-1;0;-791;3497;2501;-0.3332602;2.489348;1.099856;-0.3274065;3.022798;0.9857562;-0.3222659;3.491277;0.8834848;-0.1057912;4.190329;0.8293733;-0.2575264;4.574868;0.7672908;-0.6235463;4.546693;0.8406033;-0.8835621;5.008495;0.08069551;-0.4739427;5.157741;0.9219654;0.2395314;4.420947;0.7672894;0.4755327;4.206348;0.8406011;0.05613786;3.400712;1.162055;-0.4946536;2.706039;0.8276216;-0.6455213;2.446675;1.101887;-0.1289984;1.28637;0.3754187;0;0;0;-0.6455213;2.446675;1.101887;-0.1289984;1.28637;0.3754187;0;0;0
