SEP=;
index;label;segment;RightUpperArm_boneIndex;RightUpperArm_quat9x_w;RightUpperArm_quat9x_x;RightUpperArm_quat9x_y;RightUpperArm_quat9x_z;RightUpperArm_gyroscope_x;RightUpperArm_gyroscope_y;RightUpperArm_gyroscope_z;RightUpperArm_accelerometer_x;RightUpperArm_accelerometer_y;RightUpperArm_accelerometer_z;RightLowerArm_boneIndex;RightLowerArm_quat9x_w;RightLowerArm_quat9x_x;RightLowerArm_quat9x_y;RightLowerArm_quat9x_z;RightLowerArm_gyroscope_x;RightLowerArm_gyroscope_y;RightLowerArm_gyroscope_z;RightLowerArm_accelerometer_x;RightLowerArm_accelerometer_y;RightLowerArm_accelerometer_z;LeftUpperArm_boneIndex;LeftUpperArm_quat9x_w;LeftUpperArm_quat9x_x;LeftUpperArm_quat9x_y;LeftUpperArm_quat9x_z;LeftUpperArm_gyroscope_x;LeftUpperArm_gyroscope_y;LeftUpperArm_gyroscope_z;LeftUpperArm_accelerometer_x;LeftUpperArm_accelerometer_y;LeftUpperArm_accelerometer_z;LeftLowerArm_boneIndex;LeftLowerArm_quat9x_w;LeftLowerArm_quat9x_x;LeftLowerArm_quat9x_y;LeftLowerArm_quat9x_z;LeftLowerArm_gyroscope_x;LeftLowerArm_gyroscope_y;LeftLowerArm_gyroscope_z;LeftLowerArm_accelerometer_x;LeftLowerArm_accelerometer_y;LeftLowerArm_accelerometer_z;Chest_boneIndex;Chest_quat9x_w;Chest_quat9x_x;Chest_quat9x_y;Chest_quat9x_z;Chest_gyroscope_x;Chest_gyroscope_y;Chest_gyroscope_z;Chest_accelerometer_x;Chest_accelerometer_y;Chest_accelerometer_z;Spine_boneIndex;Spine_quat9x_w;Spine_quat9x_x;Spine_quat9x_y;Spine_quat9x_z;Spine_gyroscope_x;Spine_gyroscope_y;Spine_gyroscope_z;Spine_accelerometer_x;Spine_accelerometer_y;Spine_accelerometer_z;RightUpperLeg_boneIndex;RightUpperLeg_quat9x_w;RightUpperLeg_quat9x_x;RightUpperLeg_quat9x_y;RightUpperLeg_quat9x_z;RightUpperLeg_gyroscope_x;RightUpperLeg_gyroscope_y;RightUpperLeg_gyroscope_z;RightUpperLeg_accelerometer_x;RightUpperLeg_accelerometer_y;RightUpperLeg_accelerometer_z;RightLowerLeg_boneIndex;RightLowerLeg_quat9x_w;RightLowerLeg_quat9x_x;RightLowerLeg_quat9x_y;RightLowerLeg_quat9x_z;RightLowerLeg_gyroscope_x;RightLowerLeg_gyroscope_y;RightLowerLeg_gyroscope_z;RightLowerLeg_accelerometer_x;RightLowerLeg_accelerometer_y;RightLowerLeg_accelerometer_z;LeftUpperLeg_boneIndex;LeftUpperLeg_quat9x_w;LeftUpperLeg_quat9x_x;LeftUpperLeg_quat9x_y;LeftUpperLeg_quat9x_z;LeftUpperLeg_gyroscope_x;LeftUpperLeg_gyroscope_y;LeftUpperLeg_gyroscope_z;LeftUpperLeg_accelerometer_x;LeftUpperLeg_accelerometer_y;LeftUpperLeg_accelerometer_z;LeftLowerLeg_boneIndex;LeftLowerLeg_quat9x_w;LeftLowerLeg_quat9x_x;LeftLowerLeg_quat9x_y;LeftLowerLeg_quat9x_z;LeftLowerLeg_gyroscope_x;LeftLowerLeg_gyroscope_y;LeftLowerLeg_gyroscope_z;LeftLowerLeg_accelerometer_x;LeftLowerLeg_accelerometer_y;LeftLowerLeg_accelerometer_z;pelvis_x;pelvis_y;pelvis_z;lowerSpine_x;lowerSpine_y;lowerSpine_z;middleSpine_x;middleSpine_y;middleSpine_z;upperSpine_x;upperSpine_y;upperSpine_z;rightClavicle_x;rightClavicle_y;rightClavicle_z;rightShoulder_x;rightShoulder_y;rightShoulder_z;rightElbow_x;rightElbow_y;rightElbow_z;rightWrist_x;rightWrist_y;rightWrist_z;leftClavicle_x;leftClavicle_y;leftClavicle_z;leftShoulder_x;leftShoulder_y;leftShoulder_z;leftElbow_x;leftElbow_y;leftElbow_z;leftWrist_x;leftWrist_y;leftWrist_z;rightHip_x;rightHip_y;rightHip_z;rightKnee_x;rightKnee_y;rightKnee_z;rightAnkle_x;rightAnkle_y;rightAnkle_z;leftHip_x;leftHip_y;leftHip_z;leftKnee_x;leftKnee_y;leftKnee_z;leftAnkle_x;leftAnkle_y;leftAnkle_z;
1444886.9481;NotLabelled;NONE;16384;-0.4030471;0.3975069;-0.6626784;-0.4903047;-1;-8;20;216;4156;1377;65536;0.4238227;-0.3559557;0.5207756;0.6499712;-7;22;-36;-2516;4027;-542;8192;0.7102807;-0.5844875;-0.300554;-0.2520775;39;-37;-48;20;3977;295;32768;0.7096686;-0.6385041;0.002770083;-0.2977839;8;-42;34;1107;3743;565;256;0.2409972;-0.2506925;-0.6774298;-0.6481994;2;-30;-3;481;4040;-123;128;-0.1357341;0.2257618;0.666205;0.6976954;1;-35;0;-983;4019;372;4;-0.4598338;0.365651;-0.5166205;-0.6228608;15;-22;-31;1758;3632;-20;16;0.5872576;-0.7986155;0.04986149;0.1218837;53;14;23;249;4483;-592;2;0.5900277;-0.6268212;-0.3088643;-0.4044321;8;-45;7;-64;3970;-574;8;0.6246537;-0.7776167;0.05263158;0.04847645;-5;-2;-7;177;4079;891;0.6469979;-0.1146646;0.2606316;0.652884;0.4217386;0.1613412;0.6580538;0.8928685;0.07207614;0.6764667;1.626;0.04673862;0.426004;1.957026;-0.002636254;0.08134258;1.82768;0.06531195;-0.136093;0.9291596;0.1262491;0;0;0;0.9461838;1.943964;-0.002637386;1.231549;1.798797;0.06531024;1.425729;0.8551097;0.06037736;1.26154;-0.004892826;-0.3018738;0.3347364;-0.1573768;0.2613862;0.4984299;-1.589397;0.009631574;0.3948589;-2.861962;0.4364561;0.3347364;-0.1573768;0.2613862;0.4984299;-1.589397;0.009631574;0.3948589;-2.861962;0.4364561
1444907.9433;NotLabelled;NONE;16384;-0.4058172;0.3933518;-0.662441;-0.4916897;-7;-4;23;70;4216;1529;65536;0.4279778;-0.3531856;0.5166205;0.6520723;-6;25;-41;-2492;3979;-452;8192;0.7103927;-0.5886427;-0.2908587;-0.2534626;40;-38;-44;170;4127;327;32768;0.710884;-0.6371191;0.006925208;-0.2977839;9;-15;32;723;3771;639;256;0.2437673;-0.2548476;-0.6748834;-0.6481994;0;-28;-2;487;3954;-73;128;-0.1385041;0.2299169;0.666205;0.6957914;4;-27;1;-1019;3971;436;4;-0.4556787;0.367036;-0.5180055;-0.6239486;11;-12;-30;1352;3702;-36;16;0.5955678;-0.7930654;0.04986149;0.1177285;46;39;16;-245;3943;314;2;0.5900277;-0.6315045;-0.3047091;-0.400277;7;-33;7;-68;4106;-402;8;0.6232687;-0.7786398;0.05263158;0.04986149;-6;-5;-8;9;4139;877;0.6405138;-0.1174994;0.2771405;0.6464016;0.4190507;0.1786447;0.6515728;0.8903122;0.09007752;0.6715395;1.623416;0.0651325;0.4217795;1.954998;0.01593137;0.07684368;1.826346;0.08380551;-0.1414402;0.9273415;0.1335279;0;0;0;0.9419305;1.940835;0.01593041;1.226986;1.795026;0.08380425;1.405495;0.8483562;0.06875837;1.243379;-0.008796215;-0.3011003;0.3282524;-0.1602125;0.2778268;0.496066;-1.593886;0.03850156;0.3888856;-2.872991;0.4443716;0.3282524;-0.1602125;0.2778268;0.496066;-1.593886;0.03850156;0.3888856;-2.872991;0.4443716
1444927.9456;NotLabelled;NONE;16384;-0.4113573;0.3891967;-0.6614773;-0.4916897;-12;-2;26;76;4102;1421;65536;0.433518;-0.3490305;0.5124654;0.653926;-7;26;-45;-2376;4129;-690;8192;0.7085716;-0.5969529;-0.2742382;-0.2576177;34;-32;-40;184;4297;583;32768;0.7109433;-0.6357341;0.008310249;-0.300554;10;6;28;1063;3881;681;256;0.2465374;-0.2576177;-0.674154;-0.6468144;-1;-23;0;545;4024;-181;128;-0.1412742;0.232687;0.66482;0.6956384;5;-22;1;-1053;4017;450;4;-0.4515235;0.367036;-0.5207756;-0.6246629;3;-6;-12;1576;3798;682;16;0.602493;-0.7889073;0.04847645;0.1108033;6;2;-1;589;4229;944;2;0.5914127;-0.6326245;-0.3033241;-0.3975069;1;-22;6;-184;4026;-326;8;0.6218836;-0.7795643;0.05263158;0.05263158;-7;-10;-10;109;4129;1021;0.6336316;-0.1197023;0.2989539;0.6395175;0.416698;0.1996456;0.6446874;0.8878245;0.1103647;0.6651993;1.621012;0.088503;0.4156894;1.952983;0.04067385;0.07065222;1.824302;0.1079761;-0.1486163;0.9248366;0.1427843;0;0;0;0.9358299;1.938435;0.04065943;1.220772;1.79213;0.1079453;1.38818;0.8436489;0.08280659;1.228475;-0.01076412;-0.2943679;0.32137;-0.1624146;0.2997099;0.4930606;-1.597662;0.07289711;0.3884559;-2.885179;0.4519574;0.32137;-0.1624146;0.2997099;0.4930606;-1.597662;0.07289711;0.3884559;-2.885179;0.4519574
1444948.1233;NotLabelled;NONE;16384;-0.4155124;0.3850415;-0.661312;-0.4916897;-13;-2;29;-42;4076;1353;65536;0.4376731;-0.3462604;0.5083103;0.6558709;-5;25;-50;-2194;4119;-798;8192;0.7084363;-0.6038781;-0.2576177;-0.2590028;27;-36;-39;138;4381;505;32768;0.7092171;-0.634349;0.008310249;-0.3074792;-6;14;21;1149;4133;-209;256;0.2479224;-0.2631579;-0.6728323;-0.6454294;0;-15;0;613;4052;-177;128;-0.1454294;0.2382271;0.66482;0.6929016;1;-15;3;-895;4091;414;4;-0.4515235;0.365651;-0.5221606;-0.624319;2;-7;0;1704;3902;360;16;0.602493;-0.7880461;0.05263158;0.1149584;3;-34;-8;741;4453;328;2;0.5927978;-0.6337243;-0.301939;-0.3947368;-2;-17;4;-246;4120;-434;8;0.6218836;-0.7794696;0.05263158;0.05401662;-6;-1;-9;-149;4145;1133;0.6292509;-0.1235151;0.321294;0.6351393;0.4130969;0.2231393;0.6403111;0.8844147;0.1348717;0.6611577;1.617577;0.1124622;0.4118009;1.949625;0.06437427;0.06670238;1.821152;0.1317585;-0.1544783;0.9217973;0.1556375;0;0;0;0.9319347;1.93484;0.06439233;1.216807;1.788456;0.1317995;1.359645;0.8365479;0.09004736;1.202025;-0.01524496;-0.2938683;0.3169894;-0.1662288;0.321951;0.4875191;-1.60316;0.1051429;0.3807868;-2.897376;0.4600246;0.3169894;-0.1662288;0.321951;0.4875191;-1.60316;0.1051429;0.3807868;-2.897376;0.4600246
1444967.9541;NotLabelled;NONE;16384;-0.4252077;0.3781163;-0.6591416;-0.4916897;-18;2;31;182;4054;1407;65536;0.4501385;-0.333795;0.5;0.6602698;-8;19;-53;-1904;3983;-476;8192;0.7092306;-0.6052631;-0.2506925;-0.2603878;16;-36;-37;162;4459;673;32768;0.7097781;-0.634349;0.01108033;-0.3060942;-16;-29;10;1607;4093;-5;256;0.2493075;-0.2645429;-0.6717766;-0.6454294;-1;-10;0;483;4144;-57;128;-0.1468144;0.2382271;0.6634349;0.6939363;6;-11;4;-823;4189;400;4;-0.4515235;0.3642659;-0.5221606;-0.6251281;2;-6;2;1224;3924;-10;16;0.6038781;-0.7858668;0.0567867;0.1204986;4;-27;-14;-199;4483;-64;2;0.5941828;-0.6341465;-0.301939;-0.3919668;-5;-9;1;-316;3936;-762;8;0.6191136;-0.7816569;0.04986149;0.0567867;-6;3;-11;379;4171;1141;0.6186804;-0.1294293;0.3435153;0.6245662;0.4069476;0.2440814;0.6297358;0.8780537;0.1546903;0.6547412;1.611132;0.1338842;0.4072734;1.944695;0.08651593;0.06144932;1.818034;0.1536103;-0.1619385;0.918973;0.1645037;0;0;0;0.9273151;1.926959;0.08651477;1.21135;1.778815;0.1536089;1.334447;0.8253136;0.0907048;1.177536;-0.02242994;-0.3023567;0.3064188;-0.1721416;0.3442823;0.4748587;-1.609249;0.1270083;0.367476;-2.903896;0.4801168;0.3064188;-0.1721416;0.3442823;0.4748587;-1.609249;0.1270083;0.367476;-2.903896;0.4801168
1444988.2332;NotLabelled;NONE;16384;-0.4307479;0.3739612;-0.6579137;-0.4916897;-22;3;33;234;4104;1475;65536;0.4556787;-0.3296399;0.4944598;0.6627247;-8;25;-52;-2190;4065;-486;8192;0.7104602;-0.6066482;-0.2437673;-0.2603878;1;-37;-36;-70;4671;959;32768;0.7106532;-0.6371191;0.01939058;-0.2977839;-25;-97;-3;1919;4205;-243;256;0.2493075;-0.265928;-0.6725586;-0.6440443;-4;-7;0;401;4196;-141;128;-0.1481994;0.2396122;0.66482;0.6918362;4;-11;5;-731;4127;388;4;-0.4501385;0.3628809;-0.5221606;-0.6269299;3;-16;0;828;3810;-200;16;0.6052631;-0.7844692;0.05540166;0.1232687;0;8;-13;-811;4155;232;2;0.5941828;-0.634804;-0.300554;-0.3919668;-4;-12;1;-354;4142;-834;8;0.6191136;-0.7816421;0.04847645;0.05817174;-6;11;-13;59;4105;1241;0.6116911;-0.1387825;0.3956704;0.6175801;0.3978777;0.2977775;0.6227524;0.8692384;0.2097398;0.6474061;1.602359;0.1900088;0.3997829;1.935871;0.1431001;0.05401222;1.808944;0.2099694;-0.1712876;0.9103594;0.199254;0;0;0;0.9198329;1.918386;0.143133;1.203932;1.770282;0.210043;1.321636;0.8165517;0.1406159;1.164822;-0.03028107;-0.2544411;0.2994296;-0.1814966;0.3963048;0.4695745;-1.618011;0.1764486;0.3691154;-2.914186;0.5259688;0.2994296;-0.1814966;0.3963048;0.4695745;-1.618011;0.1764486;0.3691154;-2.914186;0.5259688
1445008.9713;NotLabelled;NONE;16384;-0.4376731;0.3698061;-0.6567245;-0.4903047;-26;8;33;142;4166;1493;65536;0.4612188;-0.3254848;0.4889196;0.6650522;-10;31;-52;-2078;3939;-360;8192;0.7144788;-0.6052631;-0.2368421;-0.2590028;-9;-43;-29;166;4303;759;32768;0.7128256;-0.6398892;0.03185596;-0.2853186;-20;-120;-5;1755;4563;-835;256;0.2493075;-0.265928;-0.6725586;-0.6440443;-4;-3;-1;497;4044;-127;128;-0.1495845;0.2409972;0.66482;0.6910566;5;-12;5;-779;4043;346;4;-0.4473684;0.3601108;-0.5221606;-0.6304998;9;-31;1;1186;3476;-360;16;0.6066482;-0.7835897;0.05263158;0.1232687;-8;29;-8;-469;4055;570;2;0.5941828;-0.6356572;-0.300554;-0.3905817;-3;-11;1;-316;3950;-888;8;0.6177285;-0.7830852;0.04432133;0.0567867;-8;40;-12;79;4097;997;0.6019818;-0.1450329;0.4355689;0.6078657;0.3911786;0.3352469;0.6130335;0.8621359;0.2450756;0.6398587;1.595137;0.2237939;0.3932145;1.929283;0.176245;0.04708586;1.803524;0.2434688;-0.1792499;0.9056449;0.213245;0;0;0;0.9132104;1.910254;0.1761836;1.196885;1.761448;0.2433339;1.309855;0.8084478;0.1578624;1.146885;-0.0386529;-0.2341176;0.2897201;-0.1877437;0.4364122;0.4633754;-1.62371;0.2157247;0.3720216;-2.920502;0.5654545;0.2897201;-0.1877437;0.4364122;0.4633754;-1.62371;0.2157247;0.3720216;-2.920502;0.5654545
1445029.9504;NotLabelled;NONE;16384;-0.4432133;0.365651;-0.656368;-0.4889196;-28;9;33;58;4118;1477;65536;0.468144;-0.3213296;0.4833795;0.6662828;-13;32;-49;-1828;3869;-136;8192;0.7182707;-0.6052631;-0.2313019;-0.2534626;-9;-45;-15;598;4211;533;32768;0.7158736;-0.6412742;0.04293629;-0.2728532;-10;-102;2;1291;4545;-609;256;0.2493075;-0.265928;-0.6725586;-0.6440443;-5;4;-1;339;4104;-125;128;-0.1509695;0.2409972;0.66482;0.6907554;8;-10;4;-789;4073;376;4;-0.4418283;0.3545706;-0.5193906;-0.6397663;17;-13;12;1238;3578;-486;16;0.6052631;-0.7850938;0.04570637;0.1232687;-13;20;-12;-471;3763;1052;2;0.5955678;-0.6358638;-0.299169;-0.3891967;0;-11;1;-340;3836;-984;8;0.6163435;-0.7847321;0.03739612;0.05401662;-13;58;-13;371;4071;675;0.5976813;-0.1510873;0.4614888;0.6035643;0.3850408;0.3607211;0.6087313;0.8559227;0.2701584;0.6355585;1.588923;0.2488793;0.3889188;1.923069;0.2013068;0.04278377;1.797312;0.2684976;-0.186737;0.9006729;0.2274067;0;0;0;0.9089147;1.904041;0.2012951;1.192583;1.755235;0.2684723;1.308033;0.8032217;0.1756406;1.137263;-0.04396248;-0.2128229;0.2854196;-0.1937971;0.4623705;0.4652117;-1.628651;0.239369;0.3798484;-2.926012;0.5885005;0.2854196;-0.1937971;0.4623705;0.4652117;-1.628651;0.239369;0.3798484;-2.926012;0.5885005
1445049.9695;NotLabelled;NONE;16384;-0.4501385;0.3614958;-0.6560143;-0.4861496;-30;11;34;142;4036;1567;65536;0.4750692;-0.3185596;0.4778393;0.6667073;-15;46;-48;-1922;3823;-16;8192;0.7224689;-0.6052631;-0.2271468;-0.2451524;-18;-19;-3;532;4355;777;32768;0.7208047;-0.6385041;0.05263158;-0.2645429;4;-1;24;823;4143;-643;256;0.2493075;-0.265928;-0.6738822;-0.6426592;-11;-3;0;247;4070;-91;128;-0.1523546;0.2423823;0.66482;0.6899662;13;0;5;-795;4147;316;4;-0.4418283;0.3545706;-0.5166205;-0.6420053;16;0;11;862;3904;-90;16;0.6038781;-0.7861719;0.04155125;0.1246537;-14;22;-13;-319;4197;1112;2;0.5941828;-0.6378068;-0.2977839;-0.3891967;5;-12;0;-504;3762;-952;8;0.6163435;-0.7853589;0.02908587;0.04986149;-20;55;-16;629;4053;151;0.5954798;-0.1578212;0.4900424;0.6013618;0.3782201;0.3888163;0.606528;0.8490248;0.297851;0.6333551;1.582026;0.2765719;0.3867154;1.916172;0.2289997;0.04058042;1.790414;0.2961908;-0.1927152;0.8954034;0.2427118;0;0;0;0.9067113;1.897143;0.2289874;1.19038;1.748337;0.2961645;1.309634;0.7971182;0.2000518;1.134919;-0.05066442;-0.1853395;0.2832183;-0.2005305;0.4909635;0.4850023;-1.631356;0.2610049;0.4053769;-2.925948;0.6215845;0.2832183;-0.2005305;0.4909635;0.4850023;-1.631356;0.2610049;0.4053769;-2.925948;0.6215845
1445070.9542;NotLabelled;NONE;16384;-0.466759;0.3545706;-0.6532685;-0.4792244;-43;27;33;216;4054;1359;65536;0.4930748;-0.3185596;0.4612188;0.6653377;-20;79;-46;-2120;4163;-240;8192;0.7252766;-0.602493;-0.2285319;-0.2423823;-26;-2;-2;382;4283;861;32768;0.7215202;-0.6371191;0.05263158;-0.265928;5;7;24;1237;4323;-1295;256;0.2493075;-0.265928;-0.6765131;-0.6398892;-14;3;0;357;4294;-231;128;-0.1523546;0.2368421;0.6717451;0.6851659;25;27;9;-579;4383;322;4;-0.4418283;0.3545706;-0.5152354;-0.6431173;13;1;10;860;4412;112;16;0.602493;-0.7873752;0.03878116;0.1246537;-10;18;-12;191;4443;1076;2;0.5969529;-0.6375691;-0.2908587;-0.3905817;3;-18;-16;-1638;3704;-206;8;0.6121883;-0.7889;0.01939058;0.04986149;-43;19;-29;425;4045;-261;0.5941544;-0.165729;0.5205045;0.6000355;0.3702264;0.4188247;0.6052009;0.8409538;0.3274609;0.6330483;1.573836;0.3035643;0.3868696;1.908154;0.2548273;0.04056719;1.78312;0.3225042;-0.1984521;0.8905172;0.2557201;0;0;0;0.9068385;1.8884;0.2548264;1.190307;1.739439;0.3225031;1.316331;0.7888837;0.2284911;1.143386;-0.05692434;-0.1620036;0.2818928;-0.2084374;0.5214647;0.4937041;-1.637462;0.2893327;0.4191661;-2.929655;0.6594776;0.2818928;-0.2084374;0.5214647;0.4937041;-1.637462;0.2893327;0.4191661;-2.929655;0.6594776
1445093.1056;NotLabelled;NONE;16384;-0.4750692;0.3518005;-0.6528161;-0.4736842;-47;32;28;100;4106;1411;65536;0.5055401;-0.3227147;0.4515235;0.660614;-20;119;-45;-2212;4029;240;8192;0.7282724;-0.5983379;-0.2299169;-0.2423823;-37;9;-2;-34;4409;991;32768;0.7224263;-0.6357341;0.0567867;-0.265928;0;-35;14;1701;4299;-985;256;0.2493075;-0.265928;-0.6778204;-0.6385041;-18;8;0;349;4276;-159;128;-0.1509695;0.2313019;0.6745152;0.6846436;21;30;9;-461;4325;220;4;-0.4418283;0.3531856;-0.5138504;-0.6449849;11;-2;7;720;4262;-214;16;0.602493;-0.7872862;0.03601108;0.1260388;-8;20;-14;-155;4093;1448;2;0.599723;-0.6357673;-0.2853186;-0.3933518;0;-22;-34;-1822;3616;-70;8;0.6080332;-0.7921094;0.01523546;0.05124654;-63;19;-35;519;4095;-601;0.58297;-0.1804776;0.599821;0.5888293;0.3534856;0.488148;0.5939751;0.8224244;0.3880078;0.623854;1.555038;0.35889;0.3785921;1.889684;0.3078422;0.03196278;1.766099;0.3765008;-0.2173025;0.8791924;0.2785632;0;0;0;0.8985039;1.868484;0.3078411;1.181577;1.719219;0.376499;1.316845;0.769794;0.2839215;1.145353;-0.07484865;-0.1097246;0.2707087;-0.2231598;0.6016427;0.4874926;-1.651259;0.3684098;0.4136604;-2.941543;0.7452965;0.2707087;-0.2231598;0.6016427;0.4874926;-1.651259;0.3684098;0.4136604;-2.941543;0.7452965
1445114.9473;NotLabelled;NONE;16384;-0.4833795;0.3490305;-0.6521987;-0.468144;-51;33;21;224;4046;1563;65536;0.5221606;-0.3282548;0.4390582;0.6533184;-23;159;-42;-1966;3941;-32;8192;0.7319143;-0.5927978;-0.232687;-0.2423823;-48;10;0;-320;4475;1327;32768;0.7254525;-0.634349;0.06509695;-0.2590028;3;-89;1;1881;4339;-913;256;0.2493075;-0.2631579;-0.6802007;-0.6371191;-23;11;0;171;4064;-141;128;-0.1495845;0.2271468;0.6772853;0.6836032;20;36;8;-151;4007;278;4;-0.4404432;0.3531856;-0.5138504;-0.6459315;9;-9;2;358;4200;-310;16;0.601108;-0.788523;0.03185596;0.1260388;-5;28;-13;-379;3893;1698;2;0.6052631;-0.6309849;-0.2783934;-0.3975069;-5;-16;-58;-1888;3342;42;8;0.601108;-0.7972632;0.01108033;0.05401662;-83;12;-41;619;4275;-453;0.5816064;-0.1886024;0.6319441;0.5874574;0.3446021;0.5167032;0.5925957;0.812861;0.4134295;0.6234863;1.545324;0.3817092;0.3786812;1.880128;0.3295103;0.03189115;1.757268;0.3986567;-0.2257783;0.8744326;0.2866848;0;0;0;0.8985631;1.858206;0.3295094;1.181439;1.708793;0.3986555;1.326187;0.761035;0.3033756;1.152618;-0.08071184;-0.09552753;0.2693452;-0.2312717;0.634074;0.4917076;-1.657781;0.3964097;0.4239706;-2.947125;0.7776321;0.2693452;-0.2312717;0.634074;0.4917076;-1.657781;0.3964097;0.4239706;-2.947125;0.7776321
1445135.9865;NotLabelled;NONE;16384;-0.4903047;0.3476454;-0.6536795;-0.4598338;-54;39;12;202;3684;1609;65536;0.5401662;-0.33518;0.4252077;0.6442618;-25;166;-43;-1508;3761;-150;8192;0.7354962;-0.5872576;-0.2368421;-0.2409972;-58;1;8;-308;4153;1657;32768;0.7305225;-0.632964;0.07479224;-0.2451524;5;-129;-8;1873;4157;-1121;256;0.2493075;-0.2617728;-0.6820285;-0.6357341;-25;18;-2;-9;3824;-159;128;-0.1481994;0.2216066;0.6800554;0.682973;19;40;9;-37;3823;448;4;-0.4376731;0.3531856;-0.5138504;-0.6478117;5;-9;-2;120;4250;-168;16;0.599723;-0.7900008;0.02631579;0.1246537;-3;38;-15;-215;3971;1526;2;0.6094183;-0.6261782;-0.2700831;-0.4044321;-11;-11;-83;-1762;3032;-18;8;0.5900277;-0.8051643;0.005540166;0.05955679;-96;0;-45;441;4863;21;0.5830879;-0.1963;0.6688292;0.5889304;0.3361197;0.5500138;0.594061;0.8036752;0.4436011;0.6236142;1.535973;0.4071354;0.3781884;1.869987;0.3528389;0.03163981;1.746949;0.4228729;-0.2345188;0.8684049;0.2977754;0;0;0;0.8981091;1.849008;0.352838;1.181273;1.700559;0.4228719;1.338514;0.7550712;0.3248712;1.162194;-0.08508444;-0.07617474;0.2708271;-0.2389536;0.6712682;0.4944349;-1.665455;0.4347265;0.4306612;-2.952456;0.8244583;0.2708271;-0.2389536;0.6712682;0.4944349;-1.665455;0.4347265;0.4306612;-2.952456;0.8244583
1445156.2015;NotLabelled;NONE;16384;-0.4972299;0.3462604;-0.6549753;-0.4515235;-57;48;3;212;3542;1635;65536;0.5567867;-0.3434903;0.4127424;0.633756;-28;144;-44;-1434;3505;-196;8192;0.7490937;-0.5720221;-0.2437673;-0.2285319;-65;-19;22;-320;3861;1799;32768;0.7418175;-0.6288089;0.09695291;-0.2119114;2;-118;-9;1219;3829;-895;256;0.2479224;-0.2562327;-0.6859159;-0.634349;-32;24;-5;-209;3814;-81;128;-0.1468144;0.2160665;0.6836664;0.6814404;15;33;8;63;3963;192;4;-0.432133;0.3531856;-0.5180055;-0.6482216;0;-17;-1;400;4030;-664;16;0.601108;-0.7888927;0.02077562;0.1260388;-1;2;-19;-87;4019;1008;2;0.6163435;-0.6174459;-0.2617728;-0.4127424;-19;-12;-109;-1632;3134;-234;8;0.5775623;-0.8136338;0.001385042;0.06648199;-103;-8;-48;271;5581;1209;0.5865802;-0.206214;0.6986939;0.5924136;0.3253918;0.5762882;0.5975363;0.7922187;0.4667225;0.6269085;1.524332;0.4265999;0.3813926;1.858014;0.3706878;0.03488714;1.735244;0.4414042;-0.2447812;0.8622513;0.3072505;0;0;0;0.9013183;1.837158;0.370687;1.184532;1.689126;0.4414034;1.356128;0.7460394;0.3443609;1.181859;-0.09549809;-0.05467737;0.2743195;-0.2488499;0.7014437;0.5019342;-1.675316;0.4685364;0.440246;-2.959783;0.8668647;0.2743195;-0.2488499;0.7014437;0.5019342;-1.675316;0.4685364;0.440246;-2.959783;0.8668647
1445176.9979;NotLabelled;NONE;16384;-0.5124654;0.3476454;-0.657396;-0.4293629;-66;52;-2;454;3720;1331;65536;0.5831025;-0.3559557;0.3864266;0.6196463;-29;125;-35;-1424;3445;-26;8192;0.7554967;-0.5650969;-0.2465374;-0.2216066;-64;-21;19;-92;3963;1755;32768;0.7456748;-0.6274238;0.1052632;-0.1980609;5;-89;-9;913;3847;-769;256;0.2493075;-0.2451524;-0.6932545;-0.6301939;-42;24;-7;-507;4420;95;128;-0.1454294;0.2077562;0.6892708;0.6786703;30;19;10;-123;4721;-44;4;-0.4293629;0.3504155;-0.5193906;-0.6504536;-4;-25;2;668;3816;-858;16;0.599723;-0.789272;0.02077562;0.1301939;-5;-21;-21;-463;4219;900;2;0.6265289;-0.6066482;-0.2493075;-0.4210526;-21;-25;-126;-1558;4038;-600;8;0.5650969;-0.8216262;-0.001385042;0.07479224;-105;-22;-54;91;6229;1909;0.5987571;-0.2119269;0.7303549;0.6045782;0.3185444;0.6031227;0.6096896;0.7843561;0.4893188;0.6367629;1.516155;0.442403;0.3901876;1.848537;0.3834927;0.04409134;1.725348;0.4554728;-0.2498881;0.8581414;0.3145573;0;0;0;0.9101759;1.829303;0.3834915;1.193874;1.682817;0.455471;1.410505;0.7488122;0.3606936;1.24043;-0.09624577;-0.03267539;0.2864968;-0.2545362;0.7335233;0.5059128;-1.683774;0.5099303;0.4605515;-2.967613;0.9124585;0.2864968;-0.2545362;0.7335233;0.5059128;-1.683774;0.5099303;0.4605515;-2.967613;0.9124585
1445196.9551;NotLabelled;NONE;16384;-0.5193906;0.3476454;-0.6582212;-0.4196676;-65;49;-1;594;4102;991;65536;0.5941828;-0.3614958;0.3767313;0.6118342;-19;128;-21;-1544;3669;-238;8192;0.7603008;-0.5595568;-0.2493075;-0.2160665;-58;-11;18;38;4221;1573;32768;0.7489477;-0.6260388;0.1080332;-0.1883656;11;-49;-13;623;3939;-783;256;0.2493075;-0.2409972;-0.6984565;-0.6260388;-48;19;-6;-407;4712;113;128;-0.1468144;0.2049861;0.6938699;0.6745152;39;8;9;-69;4797;-50;4;-0.4279778;0.3490305;-0.5193906;-0.652109;0;-14;7;674;3786;-1042;16;0.599723;-0.7883381;0.02077562;0.1357341;-5;-9;-16;-1329;4257;854;2;0.6418947;-0.5872576;-0.2216066;-0.4404432;-2;-10;-134;-1958;5416;-1032;8;0.5373961;-0.838711;-0.01246537;0.08725762;-99;12;-44;-271;5609;1641;0.6207923;-0.2257824;0.7890478;0.6265923;0.3027682;0.6540568;0.6316848;0.7668629;0.5334402;0.6504618;1.497732;0.4706708;0.4001139;1.825957;0.4047761;0.05547187;1.700459;0.4796834;-0.2711657;0.8471098;0.3266054;0;0;0;0.9202862;1.812596;0.4047748;1.205662;1.670914;0.4796814;1.442485;0.7419295;0.3838782;1.270316;-0.1051931;-0.004100442;0.3085325;-0.2683406;0.7928903;0.5253164;-1.697255;0.5647085;0.4915083;-2.978996;0.9749818;0.3085325;-0.2683406;0.7928903;0.5253164;-1.697255;0.5647085;0.4915083;-2.978996;0.9749818
1445217.9479;NotLabelled;NONE;16384;-0.5263157;0.3476454;-0.6579662;-0.4113573;-61;48;-2;560;4368;611;65536;0.6073419;-0.368421;0.368421;0.599723;-8;122;-8;-1294;3551;-354;8192;0.7645267;-0.5540166;-0.2534626;-0.2105263;-50;4;22;-68;4307;1259;32768;0.7513324;-0.6246537;0.1066482;-0.1842105;16;1;-14;607;3979;-1069;256;0.2506925;-0.2368421;-0.7030788;-0.6218836;-50;15;-5;-473;4660;-47;128;-0.1481994;0.2022161;0.6984003;0.6703601;43;-1;10;-59;4811;94;4;-0.4252077;0.3462604;-0.5193906;-0.6553896;5;-13;8;718;3774;-988;16;0.599723;-0.7881337;0.01939058;0.1371191;-5;15;-10;-1193;4057;1020;2;0.6499757;-0.5720221;-0.1939058;-0.4612188;11;-33;-114;-1838;4932;308;8;0.5249307;-0.8458795;-0.01800554;0.09279778;-86;-6;-33;539;4337;1549;0.6307651;-0.2306051;0.8263894;0.6365443;0.2960629;0.6842304;0.6416185;0.7584763;0.5573199;0.659507;1.488378;0.4839243;0.4087469;1.815314;0.4133581;0.0642805;1.690511;0.4902108;-0.2763726;0.8438606;0.3306262;0;0;0;0.9289347;1.802568;0.4133567;1.214505;1.662327;0.4902087;1.467992;0.7376499;0.3953881;1.300501;-0.1123443;0.01166391;0.3185059;-0.2731071;0.8308562;0.5366045;-1.701382;0.5999433;0.5165886;-2.981925;1.014836;0.3185059;-0.2731071;0.8308562;0.5366045;-1.701382;0.5999433;0.5165886;-2.981925;1.014836
1445237.9437;NotLabelled;NONE;16384;-0.5318559;0.3490305;-0.6570705;-0.4044321;-55;47;-3;548;4356;595;65536;0.6167154;-0.3739612;0.3628809;0.5900277;0;96;3;-1048;3311;-282;8192;0.7670405;-0.5484765;-0.2590028;-0.2091413;-40;21;30;-262;4099;1131;32768;0.754235;-0.6218836;0.09972299;-0.1855956;23;51;-13;607;3793;-951;256;0.2520775;-0.232687;-0.7076194;-0.6177285;-52;12;-5;-419;4532;-53;128;-0.1523546;0.200831;0.7018731;0.666205;50;-2;10;133;4749;312;4;-0.4238227;0.3448753;-0.5180055;-0.6581076;6;-14;8;830;3862;-946;16;0.599723;-0.7879547;0.0166205;0.1385041;-4;3;-8;-719;4103;1278;2;0.6548391;-0.566482;-0.1800554;-0.466759;6;-37;-106;-1232;4220;500;8;0.5138504;-0.8520888;-0.01523546;0.09833795;-69;-53;-30;895;3929;2327;0.6445261;-0.2309003;0.8637011;0.6502838;0.2938042;0.7144558;0.6553386;0.7544646;0.5813239;0.6708187;1.483287;0.4974075;0.4189696;1.808351;0.4222242;0.07493649;1.683547;0.5009898;-0.2762787;0.8427563;0.3335091;0;0;0;0.9391962;1.797305;0.4222226;1.225246;1.659119;0.5009875;1.495948;0.7389688;0.4097778;1.334709;-0.1132164;0.02824175;0.3322676;-0.2733378;0.8687866;0.5548261;-1.700323;0.6341839;0.5409753;-2.980102;1.051678;0.3322676;-0.2733378;0.8687866;0.5548261;-1.700323;0.6341839;0.5409753;-2.980102;1.051678
1445258.9695;NotLabelled;NONE;16384;-0.5373961;0.3504155;-0.6560508;-0.3975069;-45;43;-5;298;4002;741;65536;0.623661;-0.3781163;0.3601108;0.5817174;7;60;10;-1032;3131;-10;8192;0.7680177;-0.5401662;-0.2742382;-0.2077562;-32;28;37;-830;3467;1461;32768;0.7560183;-0.6191136;0.08033241;-0.1966759;27;67;-26;1399;3303;-853;256;0.2534626;-0.2285319;-0.7120798;-0.6135734;-59;9;-6;-557;4298;-63;128;-0.1551246;0.199446;0.7068803;0.6606648;52;-4;10;263;4501;244;4;-0.4168975;0.3407202;-0.5180055;-0.6646627;4;-32;7;572;3840;-952;16;0.5969529;-0.7890009;0.01939058;0.1440443;-7;-17;-9;-621;4047;996;2;0.6607447;-0.5595568;-0.1689751;-0.4709141;1;-34;-99;-962;4038;332;8;0.5055401;-0.8559725;-0.008310249;0.1080332;-42;-90;-25;1631;4243;833;0.6570516;-0.2282877;0.8951656;0.6627887;0.2945476;0.7394992;0.6678253;0.7535429;0.60073;0.6808352;1.481137;0.506395;0.4278761;1.804247;0.4266472;0.0842845;1.679427;0.5072938;-0.274437;0.8428125;0.3348845;0;0;0;0.948137;1.794947;0.4266461;1.23467;1.658863;0.5072923;1.519117;0.7426157;0.4186559;1.368999;-0.1112018;0.03623223;0.3447938;-0.2706594;0.9008127;0.573961;-1.695987;0.6625254;0.5679797;-2.974517;1.084015;0.3447938;-0.2706594;0.9008127;0.573961;-1.695987;0.6625254;0.5679797;-2.974517;1.084015
1445279.9256;NotLabelled;NONE;16384;-0.5429363;0.3531856;-0.6574368;-0.3850415;-23;29;-10;6;3120;1083;65536;0.6272083;-0.3822715;0.3628809;0.5734072;13;13;21;-1412;2723;140;8192;0.769303;-0.536011;-0.2797784;-0.2063712;-33;17;38;-922;3265;1615;32768;0.7573923;-0.6177285;0.07063711;-0.199446;25;36;-37;1783;3017;-797;256;0.2590028;-0.2188366;-0.7225166;-0.602493;-69;9;-8;-465;4042;79;128;-0.1620499;0.1925208;0.7161803;0.6509695;54;8;14;125;4253;266;4;-0.4141274;0.3379501;-0.5180055;-0.6678012;2;-31;7;650;3916;-966;16;0.5969529;-0.7884902;0.01939058;0.1468144;-7;-5;-6;-993;3997;1006;2;0.6653247;-0.5554016;-0.1565097;-0.4736842;7;-50;-83;-976;4008;-460;8;0.5027701;-0.8559086;0.01108033;0.1204986;0;-177;-22;1803;3225;611;0.6723422;-0.2232084;0.9299448;0.6780515;0.2970915;0.7660027;0.6830634;0.7538271;0.6199685;0.6935447;1.480051;0.5153166;0.4394567;1.801122;0.4310567;0.09631386;1.676276;0.5135531;-0.2696685;0.8438778;0.3360737;0;0;0;0.9597464;1.793617;0.4310555;1.246763;1.659678;0.5135518;1.553347;0.7492323;0.440268;1.422056;-0.1078501;0.05822253;0.3600854;-0.2654843;0.9363178;0.6006412;-1.688691;0.6965785;0.5992124;-2.964347;1.126725;0.3600854;-0.2654843;0.9363178;0.6006412;-1.688691;0.6965785;0.5992124;-2.964347;1.126725
1445300.0868;NotLabelled;NONE;16384;-0.5443213;0.3559557;-0.6580187;-0.3795014;-14;25;-12;48;2912;1181;65536;0.6273168;-0.3822715;0.367036;0.5706371;14;-2;22;-1552;2671;-74;8192;0.7708886;-0.5318559;-0.2853186;-0.2036011;-35;2;40;-1058;3109;1793;32768;0.7598553;-0.6163435;0.06371191;-0.1966759;17;3;-47;1779;2769;-879;256;0.2617728;-0.2132964;-0.7288886;-0.5955678;-74;9;-8;-389;3880;233;128;-0.1648199;0.1883656;0.7204054;0.6468144;51;8;14;145;4079;-12;4;-0.4099723;0.333795;-0.5193906;-0.6713696;0;-39;6;842;3910;-798;16;0.5955678;-0.7892781;0.01939058;0.1481994;-6;-4;-3;-611;4017;1166;2;0.6707535;-0.5526316;-0.132964;-0.4764543;29;-41;-60;-1144;3302;-826;8;0.5083103;-0.8460858;0.05817174;0.1495845;83;-130;3;-1997;3199;973;0.7115237;-0.2055774;0.9931126;0.7171746;0.309401;0.813148;0.7221345;0.7613988;0.6530498;0.7251182;1.483444;0.522267;0.4677234;1.798637;0.4266139;0.1258972;1.673323;0.5137385;-0.2563796;0.8486972;0.3343325;0;0;0;0.9880629;1.796489;0.4266123;1.276457;1.668574;0.5137362;1.593639;0.7614474;0.4445112;1.472897;-0.09850216;0.06543863;0.3992693;-0.2476344;1.000897;0.6437116;-1.669479;0.757046;0.6500087;-2.94446;1.189149;0.3992693;-0.2476344;1.000897;0.6437116;-1.669479;0.757046;0.6500087;-2.94446;1.189149
1445320.9488;NotLabelled;NONE;16384;-0.5443213;0.3573407;-0.6588592;-0.3767313;-7;20;-14;134;2860;1107;65536;0.6261292;-0.3822715;0.3711911;0.5692521;14;-2;25;-1704;2605;-272;8192;0.7727576;-0.5277008;-0.2908587;-0.199446;-37;-11;44;-1188;2879;1843;32768;0.7617112;-0.6163435;0.05817174;-0.1911357;7;-10;-51;1639;2525;-721;256;0.2645429;-0.2077562;-0.7350879;-0.5886427;-84;12;-8;-553;3764;197;128;-0.16759;0.1842105;0.7257737;0.6412742;53;1;14;245;4109;-180;4;-0.4058172;0.3296399;-0.5207756;-0.674865;-1;-30;6;1028;3978;-538;16;0.5955678;-0.7887177;0.02077562;0.1509695;-6;-20;-6;-175;3967;1294;2;0.6717709;-0.5512465;-0.1232687;-0.4792244;21;-22;-47;-746;3384;-98;8;0.5221606;-0.8364906;0.06648199;0.1523546;112;-35;14;-1729;3327;931;0.7329912;-0.1944547;1.024647;0.738614;0.317955;0.8374935;0.7435489;0.7676692;0.671086;0.7429253;1.486702;0.5246144;0.4839598;1.798446;0.4221449;0.1427629;1.673352;0.5120077;-0.2463092;0.8513656;0.3351203;0;0;0;1.004304;1.798901;0.4221436;1.293332;1.674356;0.5120059;1.622397;0.7710495;0.4485219;1.514052;-0.09274006;0.07446814;0.4207381;-0.2363987;1.033067;0.6669742;-1.657279;0.7854308;0.6749989;-2.930655;1.222212;0.4207381;-0.2363987;1.033067;0.6669742;-1.657279;0.7854308;0.6749989;-2.930655;1.222212
1445341.9464;NotLabelled;NONE;16384;-0.5443213;0.3601108;-0.6597132;-0.3725762;-4;21;-16;198;2890;1031;65536;0.6253167;-0.3836565;0.3753462;0.566482;13;2;29;-1732;2511;-200;8192;0.7751656;-0.5249307;-0.2950138;-0.1911357;-39;-24;47;-1060;2779;1823;32768;0.762265;-0.6177285;0.05401662;-0.1855956;-1;0;-50;1417;2373;-579;256;0.267313;-0.2022161;-0.742204;-0.5803324;-90;7;-8;-607;3600;191;128;-0.1717452;0.1814404;0.7303596;0.6357341;58;-4;14;451;3929;-320;4;-0.4044321;0.3254848;-0.5235457;-0.6755696;-5;-29;9;976;3940;-384;16;0.5927978;-0.789877;0.02493075;0.1551246;-10;-27;-11;-39;3985;1022;2;0.6720164;-0.5512465;-0.1163435;-0.4806094;16;-24;-34;-710;3306;122;8;0.5387812;-0.8260446;0.07063711;0.1495845;136;10;21;-683;3451;1233;0.7505451;-0.1801367;1.057242;0.7561312;0.3289294;0.8611741;0.7610333;0.7756701;0.6869432;0.7567364;1.491367;0.5250095;0.4961869;1.799497;0.4158408;0.1556251;1.674618;0.5083725;-0.2377426;0.8540239;0.3345422;0;0;0;1.016521;1.802623;0.4158388;1.306174;1.68153;0.5083696;1.648252;0.7826157;0.4516995;1.550699;-0.08601665;0.08598244;0.4382935;-0.2219267;1.066452;0.6861869;-1.641862;0.8150768;0.699499;-2.915047;1.252286;0.4382935;-0.2219267;1.066452;0.6861869;-1.641862;0.8150768;0.699499;-2.915047;1.252286
1445361.9471;NotLabelled;NONE;16384;-0.5443213;0.3628809;-0.6597539;-0.3698061;-4;20;-18;264;2820;1159;65536;0.6232072;-0.3850415;0.3795014;0.5650969;8;0;31;-1494;2377;216;8192;0.7778202;-0.5221606;-0.3047091;-0.1717452;-31;-34;52;-782;2623;1529;32768;0.7599361;-0.6232687;0.0401662;-0.1800554;-13;28;-47;1643;2271;-603;256;0.2714681;-0.1966759;-0.7507168;-0.5692521;-94;4;-11;-601;3664;199;128;-0.1772853;0.1786704;0.7356944;0.6288089;70;-10;16;529;3869;-372;4;-0.4016621;0.3157895;-0.5263157;-0.679659;-13;-30;19;956;3678;-470;16;0.5900277;-0.7901331;0.02908587;0.1634349;-18;-12;-13;-599;3885;854;2;0.6729521;-0.5512465;-0.1108033;-0.4806094;16;-25;-26;-832;3102;-18;8;0.5581717;-0.8138224;0.0734072;0.1440443;156;10;25;-33;3415;1591;0.7692667;-0.1649504;1.088086;0.7748172;0.340857;0.8837586;0.7796876;0.7847042;0.7022794;0.7725094;1.496167;0.5227492;0.5107313;1.800444;0.4059783;0.1706592;1.676493;0.5015103;-0.2281248;0.8575883;0.332111;0;0;0;1.031049;1.805696;0.4059764;1.32117;1.688106;0.5015073;1.676915;0.7939787;0.4539993;1.586184;-0.07937193;0.09789121;0.4570172;-0.2065845;1.098031;0.6972024;-1.626817;0.8409125;0.7103957;-2.897937;1.284091;0.4570172;-0.2065845;1.098031;0.6972024;-1.626817;0.8409125;0.7103957;-2.897937;1.284091
1445383.9444;NotLabelled;NONE;16384;-0.5443213;0.3698061;-0.6605138;-0.3614958;-6;29;-19;382;2516;1161;65536;0.618861;-0.3891967;0.3864266;0.5623268;0;-4;33;-1474;2147;-44;8192;0.7782615;-0.5221606;-0.3088643;-0.1620499;-25;-39;56;-884;2515;1413;32768;0.7572328;-0.6274238;0.03185596;-0.1786704;-17;22;-50;1619;2255;-729;256;0.2756233;-0.1911357;-0.7589092;-0.5581717;-106;0;-12;-791;3502;157;128;-0.1842105;0.1759003;0.7405311;0.6218836;75;-19;18;599;3863;-328;4;-0.400277;0.3088643;-0.5277008;-0.6825782;-14;-32;27;894;3394;-410;16;0.5872576;-0.7916176;0.02908587;0.166205;-25;-19;-17;-233;3937;478;2;0.6738409;-0.5512465;-0.1052632;-0.4806094;18;-21;-22;-1068;2908;-130;8;0.5775623;-0.8007289;0.08033241;0.1371191;166;-2;30;315;3683;1471;0.7822472;-0.1452823;1.127063;0.7877525;0.3564086;0.9128255;0.7925829;0.7966003;0.7226511;0.7828662;1.502132;0.5211737;0.520021;1.80168;0.3949547;0.1803662;1.679494;0.4941729;-0.2208368;0.8611541;0.3277803;0;0;0;1.040316;1.808848;0.3949528;1.330826;1.695343;0.4941698;1.711438;0.8104653;0.4741277;1.633264;-0.07342911;0.1418521;0.4699998;-0.1867118;1.137892;0.7051458;-1.604685;0.8641796;0.7260689;-2.872707;1.315854;0.4699998;-0.1867118;1.137892;0.7051458;-1.604685;0.8641796;0.7260689;-2.872707;1.315854
1445404.108;NotLabelled;NONE;16384;-0.5443213;0.3739612;-0.6604354;-0.3573407;-2;39;-25;172;2142;1025;65536;0.61789;-0.3905817;0.3905817;0.5595568;1;-1;31;-1406;2005;-68;8192;0.778455;-0.5235457;-0.3116343;-0.1509695;-22;-46;60;-946;2247;1299;32768;0.7561135;-0.6301939;0.02631579;-0.1745152;-18;5;-54;1599;2061;-747;256;0.2867036;-0.1800554;-0.7771626;-0.5304709;-129;-11;-16;-727;3066;183;128;-0.200831;0.1745152;0.7524716;0.602493;92;-44;15;303;3735;-368;4;-0.400277;0.301939;-0.5290859;-0.6846015;-13;-28;38;880;3250;-350;16;0.5844875;-0.7923782;0.03185596;0.1717452;-32;-31;-23;-149;3989;412;2;0.6719694;-0.5526316;-0.09695291;-0.4833795;23;-3;-15;-1162;3220;-202;8;0.6149584;-0.7699175;0.1066482;0.132964;179;-90;30;449;4197;1457;0.8060745;-0.1230526;1.154007;0.8115331;0.3743682;0.9300333;0.8163218;0.81077;0.7313158;0.8040316;1.509764;0.5083363;0.5401177;1.804304;0.3728982;0.2008765;1.683915;0.475666;-0.2087326;0.8682437;0.316829;0;0;0;1.060381;1.813454;0.3728962;1.351268;1.704147;0.4756629;1.741403;0.8232183;0.4698209;1.66741;-0.06636286;0.1520841;0.4938297;-0.1642628;1.165709;0.7261273;-1.580106;0.878859;0.7481614;-2.8448;1.33972;0.4938297;-0.1642628;1.165709;0.7261273;-1.580106;0.878859;0.7481614;-2.8448;1.33972
1445424.9598;NotLabelled;NONE;16384;-0.5429363;0.3795014;-0.6613889;-0.3518005;3;41;-30;106;1932;867;65536;0.6147369;-0.3933518;0.3947368;0.5581717;0;-2;31;-1210;1821;-6;8192;0.7781654;-0.5249307;-0.3157895;-0.1385041;-20;-55;64;-992;2025;1281;32768;0.7543761;-0.634349;0.02077562;-0.16759;-20;-15;-57;1531;1849;-555;256;0.2936288;-0.1731302;-0.7872521;-0.5138504;-141;-17;-17;-517;3036;319;128;-0.2091413;0.1759003;0.7608014;0.5886427;111;-46;11;43;3749;-476;4;-0.4016621;0.2950138;-0.5290859;-0.6868061;-20;-28;42;764;3538;-210;16;0.5803324;-0.79421;0.03185596;0.1772853;-34;-23;-26;-297;3819;1056;2;0.6702228;-0.5540166;-0.09418282;-0.4847645;18;-6;-12;-1456;3210;26;8;0.634349;-0.7505072;0.1246537;0.1371191;185;-111;24;-165;4531;1545;0.820867;-0.07361841;1.257217;0.8261975;0.412159;1.008996;0.830873;0.8382359;0.7890081;0.8143179;1.519034;0.5156889;0.5486866;1.801131;0.3588172;0.2100739;1.686251;0.4696466;-0.2019443;0.8715272;0.3121802;0;0;0;1.068877;1.813784;0.3588156;1.360303;1.714226;0.4696442;1.758187;0.8368225;0.4808799;1.691724;-0.05747938;0.1749492;0.508629;-0.1141977;1.271104;0.7374064;-1.527829;0.9708268;0.7602674;-2.789529;1.439779;0.508629;-0.1141977;1.271104;0.7374064;-1.527829;0.9708268;0.7602674;-2.789529;1.439779
1445446.0834;NotLabelled;NONE;16384;-0.5415512;0.3864266;-0.6607113;-0.3476454;6;43;-31;282;2016;785;65536;0.6124249;-0.3961219;0.3975069;0.5567867;-3;4;33;-1108;1793;-30;8192;0.7778745;-0.5263157;-0.3199446;-0.1246537;-19;-66;68;-1014;1849;1231;32768;0.7527723;-0.6385041;0.0166205;-0.1592798;-24;-26;-58;1459;1681;-419;256;0.300554;-0.16759;-0.7973197;-0.4958449;-157;-17;-18;-493;3046;517;128;-0.2188366;0.1772853;0.7683062;0.5747922;111;-61;3;-89;3891;-236;4;-0.4016621;0.2839335;-0.5318559;-0.689332;-24;-53;40;944;3362;-674;16;0.5747922;-0.7962809;0.033241;0.1855956;-41;-36;-30;-459;3623;1402;2;0.6706062;-0.5540166;-0.09141274;-0.4847645;13;-10;-10;-2006;3316;270;8;0.6523545;-0.7308375;0.1426593;0.1412742;184;-95;18;-807;4869;1527;0.8361638;-0.004814625;1.23929;0.8414019;0.4725318;0.9752163;0.8459953;0.8911395;0.741326;0.824939;1.549124;0.4171733;0.5572788;1.817227;0.2404622;0.2196831;1.709489;0.3611305;-0.1948169;0.8853402;0.2757102;0;0;0;1.077394;1.832314;0.2372929;1.369747;1.742847;0.3541242;1.781277;0.8767109;0.4475387;1.72022;-0.03258514;0.1882312;0.523931;-0.04491329;1.254617;0.7494233;-1.464763;0.9825154;0.7775449;-2.704353;1.506875;0.523931;-0.04491329;1.254617;0.7494233;-1.464763;0.9825154;0.7775449;-2.704353;1.506875
1445466.9381;NotLabelled;NONE;16384;-0.5415512;0.3933518;-0.6595154;-0.3421052;4;47;-32;318;1950;769;65536;0.6100759;-0.398892;0.400277;0.5554016;-7;4;35;-990;1693;-22;8192;0.7768379;-0.5318559;-0.3240997;-0.09279778;-23;-90;74;-896;1749;1245;32768;0.7484071;-0.6481994;0.01246537;-0.1398892;-42;-39;-60;1147;1615;-349;256;0.3088643;-0.1606648;-0.8089579;-0.4736842;-175;-27;-15;-465;2962;485;128;-0.2271468;0.1772853;0.7790782;0.5567867;148;-43;6;-77;3357;394;4;-0.400277;0.2728532;-0.534626;-0.6924626;-25;-60;46;1370;2826;-812;16;0.567867;-0.7991437;0.03601108;0.1939058;-49;-50;-34;-339;3913;804;2;0.6721192;-0.5526316;-0.08864266;-0.4847645;6;-15;-13;-2502;3106;534;8;0.6703601;-0.711755;0.1551246;0.1412742;175;-48;14;-1027;4993;1283;0.8408507;0.0007281303;1.361599;0.8459922;0.4692769;1.082211;0.8505003;0.8800945;0.8348919;0.8303368;1.534229;0.5029814;0.5633342;1.799753;0.3214486;0.2251641;1.692785;0.4411896;-0.193402;0.8791676;0.2957318;0;0;0;1.083431;1.815787;0.3214464;1.375187;1.728238;0.4411861;1.791828;0.8611007;0.4937022;1.739202;-0.04474926;0.2208409;0.5286236;-0.03885126;1.378327;0.7465981;-1.445455;1.039486;0.7761109;-2.694391;1.541098;0.5286236;-0.03885126;1.378327;0.7465981;-1.445455;1.039486;0.7761109;-2.694391;1.541098
1445486.9823;NotLabelled;NONE;16384;-0.5387812;0.4072022;-0.6597263;-0.3296399;2;52;-38;508;2006;845;65536;0.6062433;-0.4099723;0.4044321;0.5484765;-14;26;46;-1104;1743;52;8192;0.7764316;-0.534626;-0.3254848;-0.0734072;-26;-103;75;-886;1895;1067;32768;0.7446154;-0.6551247;0.01108033;-0.1274238;-51;-65;-65;1235;1827;-439;256;0.3171745;-0.1537396;-0.820451;-0.4501385;-182;-26;-13;-443;2610;271;128;-0.2354571;0.1759003;0.7904584;0.5373961;153;-33;9;-71;3275;50;4;-0.4030471;0.2520775;-0.534626;-0.6987024;-21;-19;61;1194;4092;-740;16;0.5567867;-0.8043348;0.03185596;0.2049861;-43;35;-21;-1915;3311;2188;2;0.6749204;-0.5498615;-0.08448754;-0.4847645;-7;-12;-27;-2804;3070;630;8;0.6869806;-0.6937745;0.1648199;0.1398892;156;-44;15;-273;4395;1405;0.8468815;0.05038738;1.431124;0.8518874;0.5065823;1.131987;0.8562754;0.9064679;0.8673539;0.8355156;1.541667;0.5005373;0.5683542;1.796483;0.3044727;0.2301672;1.6955;0.429257;-0.1908007;0.8824782;0.2874441;0;0;0;1.088421;1.813482;0.3044704;1.380122;1.733088;0.4292532;1.813786;0.8776622;0.5212194;1.76863;-0.03836584;0.2832255;0.5346626;0.01156139;1.449673;0.7457857;-1.391398;1.091913;0.7745544;-2.632055;1.613709;0.5346626;0.01156139;1.449673;0.7457857;-1.391398;1.091913;0.7745544;-2.632055;1.613709
1445507.9514;NotLabelled;NONE;16384;-0.5373961;0.4155124;-0.6590979;-0.3227147;0;66;-39;632;1928;1183;65536;0.604337;-0.4168975;0.4058172;0.5443213;-23;41;51;-1090;1633;-14;8192;0.7762055;-0.5373961;-0.3254848;-0.05263158;-27;-118;78;-732;1913;1121;32768;0.7398793;-0.6634349;0.01246537;-0.1108033;-62;-93;-73;1043;1739;-297;256;0.3310249;-0.1398892;-0.843646;-0.398892;-205;-23;-11;-109;2510;1021;128;-0.2520775;0.1689751;0.8119652;0.4986149;152;-18;20;209;4183;-342;4;-0.4044321;0.2396122;-0.536011;-0.7012224;-30;-52;49;1222;3970;-1302;16;0.5484765;-0.8094712;0.02770083;0.2077562;-49;-9;-26;295;3081;2634;2;0.6776634;-0.5429363;-0.07479224;-0.4903047;16;-6;-46;-2444;3068;68;8;0.705095;-0.6689751;0.1869806;0.1426593;85;-88;21;187;4149;1317;0.8628252;0.1023278;1.5238;0.8676741;0.544229;1.203923;0.8719236;0.9314733;0.9211122;0.8523148;1.545046;0.519109;0.5858079;1.788269;0.308005;0.2471812;1.694234;0.4369563;-0.1819242;0.891376;0.264858;0;0;0;1.105863;1.805583;0.3090601;1.397111;1.732519;0.4392906;1.839708;0.880795;0.5226525;1.797742;-0.04097462;0.3073221;0.550616;0.06440306;1.54428;0.7554373;-1.326026;1.137323;0.7895592;-2.549405;1.698134;0.550616;0.06440306;1.54428;0.7554373;-1.326026;1.137323;0.7895592;-2.549405;1.698134
1445527.9415;NotLabelled;NONE;16384;-0.5373961;0.4265928;-0.6566908;-0.3130194;0;87;-40;622;1802;1295;65536;0.6037685;-0.4265928;0.4058172;0.5373961;-30;54;57;-974;1687;254;8192;0.7745553;-0.5415512;-0.3254848;-0.02908587;-29;-130;80;-674;2011;1093;32768;0.7351035;-0.6717451;0.0166205;-0.0900277;-72;-122;-81;979;1879;-77;256;0.3379501;-0.1301939;-0.8556184;-0.3698061;-217;-16;-12;-117;3130;1707;128;-0.2603878;0.1648199;0.8210037;0.4806094;156;-29;20;-179;4003;556;4;-0.4030471;0.2299169;-0.5373961;-0.7041993;-28;-36;44;1286;2768;-1528;16;0.5401662;-0.8127775;0.03047091;0.2160665;-57;-57;-31;-517;4339;1418;2;0.6775869;-0.5401662;-0.06786703;-0.4944598;24;-9;-50;-2790;3494;408;8;0.7089722;-0.6592798;0.200831;0.1495845;61;-95;9;-1037;4173;2215;0.8678485;0.2311978;1.623757;0.8723505;0.6414533;1.264185;0.8762929;1.000734;0.9466004;0.8605258;1.562577;0.4748513;0.5956126;1.780529;0.2359672;0.2563159;1.704169;0.3744809;-0.1794433;0.896069;0.2503133;0;0;0;1.115752;1.795127;0.2359643;1.406432;1.736447;0.3744761;1.860728;0.8984056;0.5143892;1.820238;-0.02919245;0.3254164;0.5556625;0.1953554;1.647991;0.7544174;-1.188127;1.215173;0.7784367;-2.399007;1.802984;0.5556625;0.1953554;1.647991;0.7544174;-1.188127;1.215173;0.7784367;-2.399007;1.802984
1445548.9445;NotLabelled;NONE;16384;-0.5373961;0.4376731;-0.6539435;-0.3033241;6;95;-37;550;2044;1233;65536;0.6009501;-0.4390582;0.4058172;0.5304709;-39;67;64;-516;1911;366;8192;0.7737203;-0.5443213;-0.3240997;-0.005540166;-28;-144;78;-612;2169;967;32768;0.7286767;-0.6814404;0.02077562;-0.06509695;-83;-138;-87;689;2141;147;256;0.3448753;-0.1204986;-0.8657396;-0.3421052;-194;-15;-14;-175;2698;875;128;-0.2686981;0.1606648;0.830988;0.4598338;162;-27;18;-451;3541;572;4;-0.4044321;0.2188366;-0.5373961;-0.7069304;-27;-32;61;1568;2394;-522;16;0.5318559;-0.815947;0.03185596;0.2243767;-67;-41;-26;-1587;4047;460;2;0.6764252;-0.5387812;-0.05955679;-0.4986149;24;-5;-60;-3184;3464;432;8;0.7117794;-0.6523545;0.2091413;0.1551246;29;-49;8;-1891;2909;3045;0.8773508;0.3035364;1.682266;0.8816791;0.697978;1.305412;0.8854685;1.043294;0.9726955;0.8710977;1.572235;0.4642884;0.6068285;1.77389;0.2108223;0.2672072;1.707275;0.3535076;-0.1740587;0.9013867;0.234525;0;0;0;1.12698;1.788023;0.2108195;1.417352;1.738526;0.3535031;1.88158;0.9108229;0.5198591;1.841927;-0.02212667;0.3591726;0.5651766;0.2687707;1.708164;0.7597811;-1.10983;1.258221;0.7824923;-2.309637;1.868363;0.5651766;0.2687707;1.708164;0.7597811;-1.10983;1.258221;0.7824923;-2.309637;1.868363
1445568.939;NotLabelled;NONE;16384;-0.5387812;0.4487534;-0.6490778;-0.2950138;13;100;-28;536;2636;1153;65536;0.5998126;-0.4529086;0.4030471;0.5221606;-51;79;72;-766;2263;60;8192;0.7713053;-0.5498615;-0.3199446;0.01939058;-23;-159;72;-88;2267;895;32768;0.719798;-0.6925207;0.02631579;-0.0401662;-96;-134;-88;489;2399;285;256;0.3504155;-0.1135734;-0.8739052;-0.3171745;-170;-21;-13;21;2114;197;128;-0.2783934;0.1565097;0.8405023;0.4376731;177;-31;18;-421;2943;-476;4;-0.4072022;0.2063712;-0.5373961;-0.7090858;-20;-41;80;574;2524;-466;16;0.5235457;-0.8203083;0.02770083;0.2285319;-70;31;-14;-2525;3795;492;2;0.6751989;-0.536011;-0.05124654;-0.5041551;25;5;-63;-2542;2658;-206;8;0.7102414;-0.6523545;0.2132964;0.1565097;-29;-4;11;-109;1097;4629;0.8849214;0.3772731;1.775233;0.8890446;0.7530165;1.379731;0.8926529;1.081828;1.030692;0.8801023;1.577483;0.4897372;0.6167419;1.762609;0.2230594;0.2766122;1.705097;0.3684669;-0.1688071;0.9079771;0.2118444;0;0;0;1.136891;1.77683;0.2240169;1.42675;1.73654;0.3705857;1.901512;0.9122515;0.5236354;1.86442;-0.02617455;0.3980638;0.5727616;0.3438048;1.802948;0.764123;-1.026908;1.328202;0.7857047;-2.214587;1.96167;0.5727616;0.3438048;1.802948;0.764123;-1.026908;1.328202;0.7857047;-2.214587;1.96167
1445589.9484;NotLabelled;NONE;16384;-0.5415512;0.4778393;-0.6349687;-0.2742382;17;135;-27;-648;1742;1095;65536;0.5961201;-0.4861496;0.3961219;0.501385;-59;90;75;-1640;2225;-80;8192;0.765839;-0.5595568;-0.3088643;0.07063711;-21;-161;68;1184;1815;911;32768;0.6980609;-0.7151953;0.03462604;0.002770083;-109;-117;-78;745;2689;-47;256;0.3545706;-0.1066482;-0.881299;-0.2936288;-177;-20;-10;133;1698;1001;128;-0.2867036;0.1495845;0.8508372;0.4141274;182;-11;19;-71;2493;-1272;4;-0.4085872;0.1772853;-0.534626;-0.7181932;-31;-63;69;2758;2826;-1812;16;0.5055401;-0.8306394;0.01800554;0.232687;-77;-50;-24;-41;3739;2396;2;0.6727126;-0.534626;-0.04293629;-0.5096953;41;3;-52;-2130;1866;-432;8;0.7002724;-0.6620498;0.2132964;0.1606648;-104;-29;1;-269;2517;2417;0.88806;0.4559703;1.819841;0.891958;0.8111992;1.405813;0.8953674;1.12191;1.040566;0.8852957;1.587108;0.4731576;0.6229415;1.758238;0.1963321;0.2824266;1.710037;0.3442018;-0.1649097;0.9136405;0.189371;0;0;0;1.143137;1.770613;0.1972404;1.432669;1.7374;0.3462119;1.915239;0.9215136;0.5186384;1.876412;-0.02111769;0.4307396;0.575916;0.4239535;1.849389;0.7600344;-0.9370694;1.344835;0.7781218;-2.110439;2.004534;0.575916;0.4239535;1.849389;0.7600344;-0.9370694;1.344835;0.7781218;-2.110439;2.004534
1445611.1362;NotLabelled;NONE;16384;-0.5429363;0.4930748;-0.6267738;-0.2631579;12;132;-25;-1054;1714;869;65536;0.5940618;-0.5027701;0.3905817;0.4916897;-69;102;67;-1286;2295;176;8192;0.763315;-0.5623268;-0.3033241;0.09556787;-20;-151;68;1176;1561;669;32768;0.6855956;-0.726446;0.0401662;0.02493075;-109;-123;-70;697;2739;-291;256;0.3601108;-0.09695291;-0.8885179;-0.267313;-184;-9;-10;7;1374;1877;128;-0.2936288;0.1398892;0.8618231;0.3891967;190;-4;21;49;2981;-2000;4;-0.4113573;0.1634349;-0.5318559;-0.7219442;-26;-25;62;3038;2574;-824;16;0.4930748;-0.8356829;0.02077562;0.2409972;-78;-57;-17;-1933;4287;1940;2;0.6626045;-0.5401662;-0.02908587;-0.5180055;50;10;-22;-3764;3112;-138;8;0.6772853;-0.6804841;0.2174515;0.1759003;-44;-98;5;1751;3279;-2599;0.9085656;0.5522127;1.770793;0.9122083;0.8841743;1.337884;0.9153926;1.174362;0.956126;0.9065782;1.609636;0.3654304;0.6446403;1.767169;0.08026439;0.3040603;1.727901;0.230605;-0.1496053;0.9255729;0.1368616;0;0;0;1.164878;1.777705;0.08026111;1.454394;1.751196;0.2306001;1.959219;0.9666452;0.4712356;1.912149;0.02036715;0.4598702;0.59644;0.5218716;1.802243;0.7706541;-0.8137112;1.230643;0.7782963;-1.955611;1.943618;0.59644;0.5218716;1.802243;0.7706541;-0.8137112;1.230643;0.7782963;-1.955611;1.943618
1445631.9389;NotLabelled;NONE;16384;-0.5457063;0.5069252;-0.6178094;-0.2520775;5;121;-19;-1082;2240;413;65536;0.5927897;-0.5207756;0.3808864;0.4819945;-72;113;53;-1334;2847;-268;8192;0.7585565;-0.566482;-0.299169;0.1191136;-16;-142;67;1300;1751;367;32768;0.6731302;-0.7366065;0.04709141;0.04570637;-104;-131;-63;475;2973;-167;256;0.368421;-0.07617728;-0.9009874;-0.2160665;-184;-4;-15;-247;786;2601;128;-0.3088643;0.1246537;0.8791894;0.3407202;160;-20;22;-443;2113;-1374;4;-0.4182825;0.1523546;-0.5290859;-0.7224237;-8;8;62;2902;2226;-828;16;0.4819945;-0.8413247;0.02077562;0.2437673;-79;-6;1;-3011;3943;1770;2;0.6594689;-0.5429363;-0.0235457;-0.5193906;58;-32;-16;-2406;3364;-1098;8;0.66759;-0.6805263;0.232687;0.1925208;-61;-159;12;1441;1833;967;0.9152018;0.6488991;1.80369;0.9185575;0.954711;1.351927;0.9214889;1.221844;0.9536943;0.9133966;1.621656;0.3384328;0.6518049;1.762154;0.04419094;0.3110448;1.731779;0.1961743;-0.144903;0.9299445;0.1095531;0;0;0;1.172042;1.772684;0.04418814;1.461378;1.755062;0.1961688;1.978567;0.983068;0.4507577;1.927219;0.03735447;0.4786135;0.603097;0.6204748;1.83708;0.7756935;-0.6998892;1.23069;0.7769365;-1.822807;1.97324;0.603097;0.6204748;1.83708;0.7756935;-0.6998892;1.23069;0.7769365;-1.822807;1.97324
1445651.9411;NotLabelled;NONE;16384;-0.5470914;0.5180055;-0.6117856;-0.2409972;5;109;-17;-1434;2536;-49;65536;0.5919088;-0.5373961;0.3711911;0.4722992;-64;107;41;-900;3435;-414;8192;0.7537884;-0.5706371;-0.2936288;0.1412742;-11;-138;61;1710;1927;83;32768;0.6620498;-0.7445484;0.05401662;0.06648199;-95;-127;-57;361;3065;-233;256;0.3711911;-0.06648199;-0.9059432;-0.1925208;-169;-4;-14;-47;704;2385;128;-0.3144044;0.1191136;0.886274;0.3185596;157;-17;13;-375;2145;-2128;4;-0.4224377;0.1454294;-0.5249307;-0.7244615;6;-4;61;1428;2222;-930;16;0.4736842;-0.8460949;0.01800554;0.2437673;-95;1;6;-1067;3959;542;2;0.6608042;-0.5443213;-0.01246537;-0.5166205;17;-56;-40;-2350;2264;246;8;0.6523545;-0.6882333;0.2423823;0.2049861;-113;-36;30;-1867;4893;1377;0.9166416;0.8392677;1.884357;0.9194322;1.09356;1.401709;0.9218652;1.315292;0.9765181;0.9146925;1.642183;0.3195908;0.6536206;1.747665;0.01062047;0.3125282;1.734227;0.1642906;-0.1448601;0.9329262;0.08037782;0;0;0;1.173839;1.759081;0.01061761;1.462821;1.759468;0.1642852;1.988488;0.999475;0.436974;1.932002;0.05578232;0.5005405;0.6045792;0.8147073;1.921046;0.7726412;-0.4902964;1.281061;0.7584701;-1.595759;2.049226;0.6045792;0.8147073;1.921046;0.7726412;-0.4902964;1.281061;0.7584701;-1.595759;2.049226
1445671.9564;NotLabelled;NONE;16384;-0.5498615;0.5290859;-0.6035063;-0.2313019;4;96;-16;-1772;3058;-531;65536;0.5921859;-0.5498615;0.3628809;0.4639889;-51;87;33;-784;3773;-172;8192;0.7447584;-0.5775623;-0.2825485;0.1786704;-10;-118;33;2562;2243;-287;32768;0.6398892;-0.7588802;0.06648199;0.101108;-74;-90;-48;343;3145;-187;256;0.3739612;-0.0567867;-0.9101515;-0.1689751;-164;0;-12;-143;414;2745;128;-0.3199446;0.1108033;0.8925709;0.2977839;156;6;11;-293;1563;-2904;4;-0.4252077;0.1385041;-0.5193906;-0.7281816;17;-25;54;1452;2432;-984;16;0.4612188;-0.853008;0.01523546;0.2437673;-95;2;8;-1637;3861;1918;2;0.6599123;-0.5415512;-0.005540166;-0.5207756;39;18;-62;-2362;1706;-1234;8;0.6412742;-0.7007284;0.2396122;0.200831;-93;26;44;-1101;11113;-3529;0.9232908;0.9263844;1.899;0.9258208;1.15696;1.404582;0.9280245;1.357804;0.969133;0.9214588;1.649989;0.2960452;0.6606966;1.739069;-0.01830399;0.3194309;1.733473;0.1354668;-0.1434226;0.9350228;0.05439211;0;0;0;1.180909;1.75076;-0.01830733;1.46971;1.759322;0.1354617;2.00289;1.009876;0.4223834;1.945756;0.06896162;0.5183214;0.6112484;0.9036365;1.937003;0.7829012;-0.3890042;1.273322;0.7574431;-1.479908;2.061743;0.6112484;0.9036365;1.937003;0.7829012;-0.3890042;1.273322;0.7574431;-1.479908;2.061743
1445693.039;NotLabelled;NONE;16384;-0.5498615;0.5526316;-0.5878486;-0.2160665;6;85;-10;-1938;3608;-421;65536;0.5917841;-0.566482;0.3518005;0.4529086;-27;45;22;-1074;3877;456;8192;0.7413816;-0.5803324;-0.2756233;0.1939058;-12;-108;18;2700;2239;-365;32768;0.6315789;-0.763815;0.06925207;0.1135734;-63;-66;-42;303;3033;-123;256;0.3767313;-0.04570637;-0.9136929;-0.1454294;-167;3;-6;-319;-72;3453;128;-0.3240997;0.1024931;0.8991587;0.2756233;154;-2;8;-321;1003;-3536;4;-0.4224377;0.1232687;-0.5083103;-0.7402513;33;-44;48;2958;3482;46;16;0.432133;-0.8693406;0.009695291;0.2396122;-116;19;28;45;3843;2564;2;0.6499181;-0.5401662;-0.001385042;-0.534626;37;106;-78;-3238;6024;-406;8;0.6301939;-0.7116378;0.2368421;0.200831;-104;56;13;-2303;4779;2263;0.925709;1.015489;1.917457;0.9279796;1.222409;1.41268;0.9299549;1.402421;0.9682139;0.9240423;1.659293;0.2808683;0.66361;1.731798;-0.03798276;0.3221639;1.733988;0.1154737;-0.1419707;0.9361396;0.03581145;0;0;0;1.183816;1.743772;-0.03798592;1.472428;1.760465;0.1154686;2.019032;1.028553;0.4217445;1.958759;0.09559965;0.5758588;0.6136867;0.9945688;1.956656;0.7953401;-0.284543;1.269828;0.7520918;-1.353817;2.086596;0.6136867;0.9945688;1.956656;0.7953401;-0.284543;1.269828;0.7520918;-1.353817;2.086596
1445714.1475;NotLabelled;NONE;16384;-0.5498615;0.5623268;-0.5806199;-0.2105263;6;82;-2;-2120;3666;-247;65536;0.5915458;-0.5706371;0.3490305;0.4501385;-18;30;22;-1222;4087;256;8192;0.7392672;-0.5831025;-0.267313;0.2049861;-10;-98;0;2792;2225;-393;32768;0.6246537;-0.7676455;0.07063711;0.1246537;-50;-53;-36;377;3059;9;256;0.3781163;-0.02493075;-0.9204745;-0.09556787;-150;-1;0;25;-844;4241;128;-0.3296399;0.08725762;0.9104581;0.234072;139;11;3;-531;913;-3256;4;-0.4224377;0.1177285;-0.501385;-0.7458549;26;-18;52;3672;3192;446;16;0.4182825;-0.8776378;0.001385042;0.234072;-116;59;28;-399;3753;2870;2;0.64627;-0.5318559;0.01246537;-0.5470914;14;-52;-41;-3338;1242;128;8;0.6066482;-0.7371635;0.2257618;0.1939058;-82;-49;25;2159;2469;513;0.9303622;1.112135;1.911751;0.9323546;1.29372;1.397314;0.9340852;1.451427;0.9444523;0.9283437;1.671709;0.2445198;0.6681325;1.726512;-0.07802397;0.3264711;1.735735;0.07468995;-0.1388967;0.9372301;0.01026013;0;0;0;1.1883;1.740068;-0.07802749;1.47665;1.76571;0.0746839;2.027956;1.03939;0.3858054;1.968694;0.1103148;0.5621465;0.6183615;1.093193;1.952111;0.8261285;-0.160305;1.226552;0.7339855;-1.178036;2.102942;0.6183615;1.093193;1.952111;0.8261285;-0.160305;1.226552;0.7339855;-1.178036;2.102942
1445735.9277;NotLabelled;NONE;16384;0.5512465;-0.5731329;0.5706371;0.2049861;10;71;9;-2574;3914;-343;65536;0.5914858;-0.5747922;0.3476454;0.4459834;-2;18;21;-1166;4657;240;8192;0.7357726;-0.5872576;-0.2590028;0.2160665;-9;-88;-19;3122;2427;-705;32768;0.6204986;-0.7693591;0.0734072;0.132964;-31;-57;-31;511;3789;-247;256;0.3767313;-0.01523546;-0.9233928;-0.07202215;-136;-1;5;65;-1070;4139;128;-0.3296399;0.07756232;0.9160969;0.2146814;131;23;0;-675;1063;-3814;4;-0.4252077;0.1108033;-0.4958449;-0.7490386;22;-14;68;3418;3356;404;16;0.4044321;-0.8858584;-0.009695291;0.2271468;-121;74;19;-569;3527;3668;2;0.6494929;-0.5290859;0.02077562;-0.5457063;12;-55;-35;-3118;2490;-984;8;0.5955678;-0.7425477;0.232687;0.199446;-85;-40;26;-773;2947;3323;0.9292153;1.300079;1.951733;0.930681;1.433647;1.422791;0.9319478;1.549092;0.957357;0.928176;1.692029;0.2376227;0.6688813;1.711342;-0.08970106;0.326782;1.736938;0.06013864;-0.1379193;0.9374213;0.003978983;0;0;0;1.189044;1.725066;-0.08970499;1.476951;1.767284;0.06013286;2.031313;1.04205;0.3683429;1.975776;0.1166859;0.5643103;0.6172564;1.284938;1.993976;0.8401525;0.04506874;1.249732;0.7232972;-0.944205;2.155275;0.6172564;1.284938;1.993976;0.8401525;0.04506874;1.249732;0.7232972;-0.944205;2.155275
1445757.1031;NotLabelled;NONE;16384;0.5540166;-0.5782761;0.5637119;0.2022161;12;55;23;-2742;4336;-427;65536;0.5914047;-0.5761772;0.3490305;0.4432133;10;11;20;-770;5041;428;8192;0.7326059;-0.5927978;-0.2493075;0.2229917;-6;-78;-33;3570;3007;-973;32768;0.6191136;-0.7685857;0.07756232;0.1412742;-7;-68;-33;537;4451;-55;256;0.3753462;-0.006925208;-0.925441;-0.05124654;-129;6;10;-7;-896;4189;128;-0.3296399;0.06786703;0.9208964;0.1966759;124;32;0;-541;1063;-3728;4;-0.4293629;0.1024931;-0.4889196;-0.7523963;20;4;74;2744;3786;-644;16;0.3905817;-0.8932219;-0.02216066;0.2216066;-133;63;3;-1713;2347;5600;2;0.6525795;-0.5263157;0.02908587;-0.5443213;3;-39;-39;-2566;3626;-924;8;0.5831025;-0.750773;0.2354571;0.2022161;-82;-22;19;-709;6185;1193;0.9291509;1.393701;1.959004;0.9303581;1.503685;1.424659;0.9313971;1.598378;0.9545636;0.9286261;1.704404;0.2284685;0.6697737;1.707046;-0.09976327;0.3274819;1.740327;0.04811439;-0.1333183;0.9380947;-0.001030758;0;0;0;1.18994;1.720642;-0.09976625;1.477658;1.77039;0.04810977;2.032574;1.045519;0.3561779;1.980858;0.1223742;0.5633415;0.6172128;1.380452;2.002029;0.8435234;0.155718;1.23413;0.7035121;-0.8029766;2.168811;0.6172128;1.380452;2.002029;0.8435234;0.155718;1.23413;0.7035121;-0.8029766;2.168811
1445777.4754;NotLabelled;NONE;16384;0.5567867;-0.5823107;0.5567867;0.2022161;15;42;32;-2474;4658;-155;65536;0.5936807;-0.5761772;0.3504155;0.4390582;14;12;17;-926;5335;526;8192;0.7324684;-0.599723;-0.2271468;0.2285319;-5;-55;-61;4028;3707;-761;32768;0.6204986;-0.7631755;0.08725762;0.1578947;32;-53;-26;417;4931;1163;256;0.3725762;0.001385042;-0.9274537;-0.03185596;-120;5;14;-171;-740;4355;128;-0.3296399;0.0567867;0.9250367;0.1800554;115;33;-6;-223;1445;-3390;4;-0.434903;0.09695291;-0.4819945;-0.7544143;24;1;53;1084;4336;-1308;16;0.3698061;-0.9016291;-0.03462604;0.2216066;-166;33;-25;-1687;-437;7008;2;0.6522928;-0.5235457;0.033241;-0.5470914;5;-5;-41;-2706;4392;-908;8;0.5734072;-0.7570276;0.2368421;0.2049861;-81;-12;21;191;4619;1165;0.9296839;1.479425;1.970909;0.9306467;1.56718;1.432467;0.9314712;1.64232;0.9588513;0.9295869;1.715737;0.2287356;0.6711133;1.703799;-0.09958816;0.3286684;1.743822;0.04625115;-0.1275387;0.9388965;-0.001714796;0;0;0;1.191286;1.717147;-0.09959137;1.478859;1.773335;0.04624569;2.029085;1.043589;0.3511983;1.98403;0.1211023;0.5628031;0.6177654;1.467972;2.014588;0.8484302;0.2627081;1.217724;0.6892375;-0.6634026;2.181729;0.6177654;1.467972;2.014588;0.8484302;0.2627081;1.217724;0.6892375;-0.6634026;2.181729
1445797.9445;NotLabelled;NONE;16384;0.5623268;-0.5930227;0.5401662;0.200831;10;61;26;-2632;4324;855;65536;0.5964338;-0.5747922;0.3531856;0.434903;20;6;-6;-1104;4933;518;8192;0.7328376;-0.6038781;-0.2160665;0.2271468;-4;-43;-70;4144;3679;-687;32768;0.6246537;-0.7582821;0.0900277;0.1634349;45;-24;-14;549;5241;1461;256;0.3698061;0.008310249;-0.9289469;-0.01523546;-105;8;17;-153;-624;4041;128;-0.3268698;0.04709141;0.9291472;0.166205;109;31;-11;-131;831;-3502;4;-0.4293629;0.09972299;-0.4764543;-0.7607195;25;9;-29;-1156;2634;1524;16;0.3074792;-0.9198251;-0.05124654;0.2382271;-250;-30;-89;-2105;-5383;6892;2;0.65306;-0.5193906;0.03739612;-0.5498615;1;-17;-43;-2294;2484;-104;8;0.5623268;-0.7649217;0.2368421;0.2063712;-85;-11;20;1369;4003;-271;0.9269521;1.561396;2.014825;0.9276811;1.627818;1.473337;0.9282999;1.684194;0.9971229;0.928261;1.726797;0.2645606;0.6706437;1.700868;-0.06362963;0.3278006;1.746764;0.07951829;-0.1207899;0.9397863;0.002816021;0;0;0;1.190807;1.714556;-0.06286395;1.47797;1.77703;0.08121288;2.017555;1.019959;0.3341284;1.990189;0.09647322;0.5443966;0.6150528;1.55168;2.059057;0.8501214;0.3642057;1.237164;0.6776472;-0.5128729;2.243798;0.6150528;1.55168;2.059057;0.8501214;0.3642057;1.237164;0.6776472;-0.5128729;2.243798
1445839.9481;NotLabelled;NONE;16384;0.567867;-0.6027382;0.5249307;0.1966759;6;49;16;-2918;3914;1075;65536;0.6041164;-0.5720221;0.3462604;0.433518;2;32;-36;-392;5025;66;8192;0.7346703;-0.6108033;-0.1966759;0.2202216;10;-24;-63;4284;3435;-235;32768;0.6385041;-0.7481391;0.0900277;0.1565097;69;27;22;465;5077;2395;256;0.3587258;0.03185596;-0.932528;0.02631579;-83;16;21;-329;-1236;4277;128;-0.3213296;0.01800554;0.9385545;0.1246537;94;30;-9;175;709;-4012;4;-0.4224377;0.1177285;-0.4903047;-0.753185;-42;7;-98;-1584;4164;790;16;0.2299169;-0.9336526;-0.08310249;0.2617728;-270;35;-96;-745;-3055;4312;2;0.6449462;-0.5124654;0.04570637;-0.5650969;10;16;-30;-4370;1598;-1342;8;0.5290859;-0.7867109;0.2396122;0.2091413;-86;-7;14;1247;4123;1367;0.9186237;1.641241;1.991968;0.9191558;1.689748;1.448582;0.9196017;1.730371;0.9707665;0.919167;1.746632;0.237147;0.6613896;1.708837;-0.08976322;0.3186031;1.759719;0.05182606;-0.1125747;0.9407517;0.01051301;0;0;0;1.181548;1.722733;-0.08976591;1.468762;1.790447;0.05182099;1.99817;1.032317;0.3224503;1.983226;0.1068399;0.525075;0.6067403;1.632992;2.03661;0.8619292;0.4470493;1.218517;0.6763957;-0.2815793;2.33521;0.6067403;1.632992;2.03661;0.8619292;0.4470493;1.218517;0.6763957;-0.2815793;2.33521
1445860.9663;NotLabelled;NONE;16384;0.5706371;-0.6046211;0.5207756;0.1939058;0;34;11;-2774;4272;989;65536;0.6083455;-0.5706371;0.3393352;0.434903;-1;31;-42;-268;4831;252;8192;0.7335035;-0.6163435;-0.1897507;0.2146814;19;-4;-61;4194;3523;3;32768;0.6468144;-0.7425037;0.09141274;0.1481994;66;32;41;457;5129;2549;256;0.3545706;0.0401662;-0.9334173;0.03739612;-79;18;21;-267;-896;4205;128;-0.3199446;0.008310249;0.9407339;0.1121884;89;31;-6;-71;809;-3794;4;-0.4127424;0.1260388;-0.5055401;-0.7471192;-63;-11;-128;-892;5176;130;16;0.1911357;-0.9379912;-0.09972299;0.2714681;-255;18;-96;-15;-2939;3632;2;0.6445222;-0.5110803;0.04986149;-0.566482;13;-16;-30;-4430;2790;-966;8;0.5180055;-0.7925246;0.2409972;0.2132964;-81;-42;5;1621;4443;1671;0.895574;1.841911;1.99887;0.8955188;1.836887;1.453346;0.8954481;1.830447;0.9738494;0.8975896;1.777661;0.2419538;0.641601;1.705708;-0.08059913;0.2976141;1.76489;0.05471456;-0.1217848;0.9393334;0.02486666;0;0;0;1.161517;1.726798;-0.08060229;1.447238;1.811523;0.05470967;1.959526;1.03035;0.2905171;1.957021;0.09842348;0.4616693;0.5837394;1.838097;2.044441;0.8095386;0.6118948;1.278738;0.6511292;0.0924983;2.51059;0.5837394;1.838097;2.044441;0.8095386;0.6118948;1.278738;0.6511292;0.0924983;2.51059
1445880.9626;NotLabelled;NONE;16384;0.5720221;-0.6073135;0.5166205;0.1925208;-5;33;14;-1970;4400;671;65536;0.6129072;-0.5706371;0.3310249;0.434903;-5;52;-39;-804;5019;-180;8192;0.7325326;-0.6246537;-0.1828255;0.199446;27;16;-48;3568;3785;-27;32768;0.6606648;-0.7353384;0.09279778;0.1191136;49;61;75;221;5121;2229;256;0.3504155;0.04709141;-0.9341528;0.04847645;-74;17;24;-29;-864;4145;128;-0.3171745;0;0.9429621;0.101108;86;33;-5;-69;617;-3976;4;-0.400277;0.1371191;-0.5235457;-0.7395111;-69;-26;-155;-380;5194;-22;16;0.1509695;-0.9405422;-0.1163435;0.2811634;-242;12;-91;-887;-3553;4144;2;0.6474695;-0.5083103;0.05540166;-0.5650969;12;-48;-24;-3224;2398;-940;8;0.5069252;-0.7969359;0.2437673;0.2202216;-80;-49;0;791;3825;1571;0.880352;1.9007;2.004433;0.8801179;1.879371;1.459302;0.87989;1.858601;0.9802129;0.8833892;1.786472;0.2499747;0.6283932;1.703969;-0.07083362;0.2837748;1.763975;0.06249557;-0.1337362;0.9375231;0.03102218;0;0;0;1.148125;1.729187;-0.07083678;1.432992;1.819735;0.06248987;1.930162;1.027156;0.2925253;1.926919;0.09138215;0.4411982;0.5685322;1.898251;2.0502;0.7637438;0.6407454;1.328098;0.6150098;0.230922;2.601774;0.5685322;1.898251;2.0502;0.7637438;0.6407454;1.328098;0.6150098;0.230922;2.601774
1445901.9473;NotLabelled;NONE;16384;0.5789474;-0.6126301;0.5055401;0.1842105;-9;62;16;-1986;4346;517;65536;0.6238502;-0.5734072;0.3144044;0.4279778;-3;65;-24;148;4985;-240;8192;0.7315367;-0.6288089;-0.1814404;0.1911357;27;16;-39;3188;3979;139;32768;0.66482;-0.7337257;0.09418282;0.1038781;39;42;79;35;5243;1909;256;0.3448753;0.05263158;-0.9353646;0.05817174;-69;15;24;81;-1012;4185;128;-0.3157895;-0.006925208;0.9446542;0.08864266;83;29;-3;53;261;-4440;4;-0.3850415;0.1495845;-0.5429363;-0.7311551;-75;-28;-179;4;5104;66;16;0.1163435;-0.9407389;-0.132964;0.2894737;-209;37;-80;-883;-1469;3046;2;0.6491311;-0.5069252;0.06232687;-0.5637119;14;-32;-23;-2454;1746;-962;8;0.4944598;-0.8023468;0.2465374;0.2257618;-81;-23;9;-199;2931;1871;0.8641465;1.953848;2.002272;0.8637556;1.918238;1.457888;0.86339;1.88492;0.9795076;0.8682944;1.794243;0.2513484;0.6142007;1.702182;-0.06756997;0.2690724;1.763644;0.0637617;-0.1455201;0.9356077;0.0354968;0;0;0;1.133785;1.730283;-0.06757283;1.417962;1.825781;0.06375682;1.888102;1.01439;0.2848688;1.863819;0.07282066;0.3880379;0.5523399;1.952601;2.048177;0.7147233;0.6590042;1.384024;0.5772606;0.3647689;2.690492;0.5523399;1.952601;2.048177;0.7147233;0.6590042;1.384024;0.5772606;0.3647689;2.690492
1445942.9417;NotLabelled;NONE;16384;0.5831025;-0.6167122;0.4972299;0.1800554;-8;60;20;-2428;4380;231;65536;0.6282519;-0.5761772;0.3060942;0.4238227;0;64;-20;182;5215;-266;8192;0.7309189;-0.6315789;-0.1800554;0.1855956;21;9;-28;2634;4345;-135;32768;0.6689751;-0.7308703;0.09972299;0.09141274;35;7;72;-225;5389;1635;256;0.3407202;0.05817174;-0.9359059;0.06786703;-63;13;23;25;-1594;4439;128;-0.3144044;-0.01523546;0.9459925;0.07756232;78;25;-2;61;-131;-4498;4;-0.3490305;0.1800554;-0.5858725;-0.7088802;-86;10;-210;1724;5878;-174;16;0.07202215;-0.9377775;-0.1634349;0.2977839;-120;52;-36;-1177;211;3330;2;0.6495093;-0.5055401;0.06925207;-0.5637119;7;-9;-18;-3288;3464;-584;8;0.4736842;-0.8164641;0.2396122;0.2271468;-82;6;17;613;4463;2059;0.8442082;2.004025;2.009914;0.8436501;1.953174;1.466743;0.8431374;1.906461;0.9894841;0.8493605;1.799967;0.2634793;0.5960729;1.699877;-0.05365664;0.2505155;1.762684;0.07589777;-0.1602024;0.9328929;0.04293552;0;0;0;1.115531;1.73023;-0.05365956;1.399125;1.829801;0.07589316;1.857042;1.010315;0.2927575;1.81823;0.0673908;0.3774699;0.5324159;2.004067;2.055933;0.6604156;0.6738516;1.460111;0.5403455;0.4827977;2.787292;0.5324159;2.004067;2.055933;0.6604156;0.6738516;1.460111;0.5403455;0.4827977;2.787292
1445963.1422;NotLabelled;NONE;16384;0.5872576;-0.619507;0.4903047;0.1759003;-12;53;19;-2680;4354;375;65536;0.6337394;-0.5775623;0.2977839;0.4196676;5;66;-19;148;5269;-542;8192;0.7295568;-0.634349;-0.1786704;0.1828255;14;-8;-20;2346;4367;-251;32768;0.6717451;-0.7281355;0.1080332;0.08310249;31;-13;61;-539;5205;1409;256;0.33241;0.06786703;-0.9370121;0.08310249;-58;12;19;-43;-1862;4385;128;-0.3116343;-0.02908587;0.9478877;0.05955679;68;25;-3;193;-287;-4538;4;-0.33518;0.200831;-0.6052631;-0.6935256;-77;36;-213;2228;5830;-462;16;0.06094183;-0.9363065;-0.1759003;0.2977839;-77;53;-12;-1563;907;3370;2;0.6490808;-0.5041551;0.07202215;-0.5650969;-2;-14;-24;-3400;3662;-182;8;0.4626039;-0.8224092;0.2396122;0.2285319;-80;-5;20;37;4505;2025;0.8300312;2.053426;2.027169;0.8293175;1.988358;1.485517;0.8286678;1.929156;1.009646;0.8377443;1.80685;0.2861676;0.5859348;1.698758;-0.02951598;0.2396867;1.762886;0.09752312;-0.1661879;0.9318235;0.04339351;0;0;0;1.105256;1.731351;-0.02851403;1.387994;1.834955;0.09974098;1.838229;1.004565;0.2895238;1.784198;0.06074715;0.3533622;0.5182521;2.054674;2.07326;0.5829619;0.6554229;1.650451;0.4704592;0.6046097;2.991007;0.5182521;2.054674;2.07326;0.5829619;0.6554229;1.650451;0.4704592;0.6046097;2.991007
1445983.9445;NotLabelled;NONE;16384;0.5914127;-0.6210781;0.4847645;0.1717452;-18;48;18;-3032;4176;299;65536;0.6399327;-0.5775623;0.2922437;0.4141274;19;56;-21;116;5427;-994;8192;0.727814;-0.6371191;-0.1759003;0.1828255;11;-26;-15;2644;4315;-129;32768;0.6731302;-0.726623;0.1135734;0.07756232;22;-3;51;-823;5055;835;256;0.3296399;0.0734072;-0.9369333;0.0900277;-56;11;18;-223;-1882;4507;128;-0.3088643;-0.03601108;0.9490415;0.05124654;65;18;-5;485;-435;-4724;4;-0.3199446;0.2229917;-0.6218836;-0.6790957;-57;40;-206;2086;5276;-690;16;0.05817174;-0.9352118;-0.1869806;0.2950138;-37;61;10;-2559;1493;3350;2;0.6521325;-0.5;0.0734072;-0.5650969;-20;-22;-36;-2714;3188;-282;8;0.4515235;-0.8289436;0.2382271;0.2285319;-82;-1;30;253;4295;2119;0.8188946;2.135452;1.997383;0.8179274;2.047329;1.459002;0.8170555;1.967872;0.9860914;0.8276856;1.820485;0.2673243;0.5770724;1.699109;-0.04445916;0.230171;1.764412;0.08017601;-0.1721719;0.93046;0.0489696;0;0;0;1.096069;1.73654;-0.04446173;1.377759;1.847177;0.0801717;1.823803;1.018433;0.2863344;1.755766;0.07451963;0.3330848;0.5071369;2.138669;2.043525;0.5371689;0.7133102;1.714424;0.4409813;0.7007098;3.057151;0.5071369;2.138669;2.043525;0.5371689;0.7133102;1.714424;0.4409813;0.7007098;3.057151
1446005.0977;NotLabelled;NONE;16384;0.5969529;-0.6212124;0.4792244;0.16759;-20;41;18;-3290;4300;-129;65536;0.6469434;-0.5761772;0.2853186;0.4099723;34;55;-23;144;5723;-952;8192;0.7254789;-0.6412742;-0.1703601;0.1828255;0;-17;-12;2998;4401;-93;32768;0.6772853;-0.7235606;0.1177285;0.06232687;22;7;33;-585;5357;273;256;0.3254848;0.07756232;-0.93736;0.09695291;-52;8;17;-271;-2096;4525;128;-0.3074792;-0.0401662;0.9497982;0.04155125;60;11;-6;217;-909;-4644;4;-0.3060942;0.2451524;-0.634349;-0.6661892;-33;49;-193;1728;4664;-582;16;0.06232687;-0.9338025;-0.200831;0.2894737;-2;114;34;-3715;2095;2694;2;0.6572282;-0.4930748;0.07479224;-0.5650969;-36;-24;-41;-2168;3342;-770;8;0.4404432;-0.8360307;0.2368421;0.2257618;-75;13;53;-41;3629;2165;0.8126775;2.174547;2.003657;0.8115933;2.075754;1.46713;0.8106183;1.986926;0.9958906;0.8231143;1.827621;0.2797005;0.5736762;1.699479;-0.03031242;0.226209;1.76467;0.09279567;-0.1736991;0.929765;0.05623454;0;0;0;1.092427;1.740169;-0.03031528;1.373255;1.854644;0.0927906;1.813932;1.023192;0.2995915;1.735462;0.07961535;0.33555;0.50093;2.17868;2.049793;0.5108889;0.7340555;1.817803;0.4108268;0.7361002;3.160305;0.50093;2.17868;2.049793;0.5108889;0.7340555;1.817803;0.4108268;0.7361002;3.160305
1446025.9469;NotLabelled;NONE;16384;0.6066482;-0.622454;0.468144;0.1592798;-29;34;16;-3278;4694;-173;65536;0.6642339;-0.5692521;0.2770083;0.3975069;53;45;-19;276;6123;-438;8192;0.7258028;-0.6412742;-0.1689751;0.1828255;-4;-9;-10;2958;4177;-51;32768;0.6800554;-0.7208472;0.1204986;0.05817174;28;-11;27;-429;5551;33;256;0.3213296;0.08171745;-0.9376987;0.1038781;-51;5;15;-219;-2596;4431;128;-0.3047091;-0.04570637;0.9507178;0.03462604;54;14;-8;91;-1145;-4564;4;-0.2936288;0.2686981;-0.6426592;-0.6546546;1;58;-192;1394;3964;-610;16;0.07202215;-0.9301902;-0.2229917;0.2825485;18;200;46;-5697;2175;4612;2;0.6615035;-0.4875346;0.0734072;-0.5650969;-53;-11;-31;-1724;3844;-528;8;0.4293629;-0.8447323;0.234072;0.2174515;-70;50;79;-1053;1795;2839;0.8024328;2.211457;2.013584;0.8012257;2.101455;1.479244;0.8001429;2.002783;1.009967;0.8142153;1.832358;0.2963706;0.5657042;1.698361;-0.01190674;0.2178143;1.764038;0.1097409;-0.1791584;0.9280597;0.06636216;0;0;0;1.084283;1.741181;-0.01190996;1.364481;1.85872;0.1097354;1.797062;1.022407;0.3140126;1.701516;0.07982576;0.3280953;0.4906962;2.216556;2.059696;0.4892356;0.7603061;1.917595;0.3857747;0.7601296;3.25984;0.4906962;2.216556;2.059696;0.4892356;0.7603061;1.917595;0.3857747;0.7601296;3.25984
1446046.0468;NotLabelled;NONE;16384;0.6108033;-0.6211691;0.4653739;0.1565097;-27;20;13;-3512;4662;-247;65536;0.6719636;-0.5637119;0.2756233;0.3933518;67;26;-20;684;6113;-40;8192;0.7261239;-0.6412742;-0.16759;0.1828255;-8;-7;-6;3112;4163;5;32768;0.6828254;-0.7176253;0.1246537;0.0567867;40;-31;20;-339;5595;-155;256;0.3185596;0.08448754;-0.9374409;0.1121884;-50;2;14;-155;-2588;4287;128;-0.301939;-0.04986149;0.9516193;0.02770083;51;24;-13;187;-991;-4552;4;-0.2603878;0.3171745;-0.6469835;-0.6426592;60;38;-181;1968;3484;-1034;16;0.09972299;-0.9204015;-0.265928;0.2686981;36;63;22;-755;5127;6054;2;0.6722219;-0.4709141;0.06232687;-0.567867;-68;-2;-7;-3356;3792;-1126;8;0.4085872;-0.8631988;0.2243767;0.1939058;-59;41;67;2135;2073;3349;0.7926603;2.24231;2.065163;0.7913575;2.123602;1.532689;0.7901909;2.017283;1.065086;0.8070827;1.835793;0.3542842;0.5600452;1.695949;0.04742283;0.2115261;1.762047;0.1670244;-0.17983;0.9252248;0.09704298;0;0;0;1.078439;1.740954;0.04824781;1.357782;1.861562;0.1688496;1.791159;1.02119;0.3538755;1.691574;0.07892752;0.3572932;0.4809316;2.248161;2.111241;0.4786115;0.786114;2.054051;0.3695781;0.7753756;3.395812;0.4809316;2.248161;2.111241;0.4786115;0.786114;2.054051;0.3695781;0.7753756;3.395812
1446066.941;NotLabelled;NONE;16384;0.6149584;-0.6187928;0.4639889;0.1537396;-21;10;5;-3242;4460;-167;65536;0.6817979;-0.5554016;0.2742382;0.3891967;68;12;-26;298;5721;386;8192;0.7261239;-0.6412742;-0.16759;0.1828255;-13;-5;0;2920;4117;87;32768;0.6883656;-0.7114302;0.1301939;0.05540166;50;-37;18;-203;5259;-53;256;0.3116343;0.09141274;-0.9375442;0.1246537;-45;6;16;-583;-2220;4219;128;-0.2950138;-0.06648199;0.9530324;0.0166205;52;44;-21;557;-949;-5042;4;-0.2465374;0.3379501;-0.6446323;-0.6398892;70;61;-144;1830;4080;-836;16;0.09695291;-0.9230572;-0.2576177;0.2686981;-18;-126;-5;739;6117;5520;2;0.6773901;-0.4639889;0.05817174;-0.567867;-62;-6;-7;-4054;3178;-1190;8;0.398892;-0.8688815;0.2257618;0.1869806;-50;-10;54;1997;4461;2861;0.7921265;2.272877;2.069271;0.7907337;2.145951;1.538697;0.7894881;2.032415;1.072793;0.806403;1.838568;0.3652624;0.5594018;1.693292;0.0609054;0.2108636;1.761319;0.179365;-0.1789405;0.923296;0.1153332;0;0;0;1.077776;1.738522;0.06090367;1.357078;1.861331;0.1793616;1.790089;1.023242;0.3752764;1.688284;0.08123302;0.3687941;0.4804056;2.27944;2.115306;0.5269981;0.8210187;2.223446;0.4103838;0.7662797;3.563495;0.4804056;2.27944;2.115306;0.5269981;0.8210187;2.223446;0.4103838;0.7662797;3.563495
1446086.9486;NotLabelled;NONE;16384;0.6191337;-0.6163435;0.4626039;0.1509695;-23;9;-1;-2876;4772;-59;65536;0.689492;-0.5484765;0.2728532;0.3864266;58;26;-30;-256;5409;50;8192;0.728878;-0.6385041;-0.166205;0.1828255;-20;-7;0;2772;4277;299;32768;0.6939058;-0.7048733;0.1357341;0.0567867;57;-38;16;171;5313;-35;256;0.3074792;0.09418282;-0.937889;0.1301939;-46;9;18;-655;-2510;4407;128;-0.2894737;-0.07479224;0.9541951;0.01108033;52;43;-19;779;-1051;-5348;4;-0.2382271;0.3573407;-0.634349;-0.6427727;71;54;-106;1382;4336;-420;16;0.08448754;-0.9301222;-0.234072;0.2700831;-42;-177;1;-1679;7989;3994;2;0.6824236;-0.4570637;0.05401662;-0.567867;-58;-12;-10;-3768;2928;-1192;8;0.3905817;-0.8728081;0.2285319;0.1828255;-44;1;53;125;3471;2733;0.7866355;2.325038;2.111615;0.7850662;2.182059;1.58514;0.7836657;2.054428;1.1229;0.8059888;1.841104;0.421147;0.5617378;1.685733;0.119569;0.21207;1.754639;0.2341266;-0.1787001;0.9198745;0.1403357;0;0;0;1.079789;1.734495;0.1212223;1.35757;1.862461;0.2377837;1.793069;1.01889;0.4021147;1.691099;0.07717252;0.378508;0.4749299;2.332998;2.157534;0.5542222;0.8820903;2.329109;0.4455159;0.82751;3.669829;0.4749299;2.332998;2.157534;0.5542222;0.8820903;2.329109;0.4455159;0.82751;3.669829
1446106.9437;NotLabelled;NONE;16384;0.6225343;-0.6149584;0.4612188;0.1468144;-35;17;-8;-2690;4862;101;65536;0.6977751;-0.5429363;0.2686981;0.3822715;42;48;-35;-540;6371;-342;8192;0.7324238;-0.634349;-0.1634349;0.1855956;-33;-17;-2;2904;4695;203;32768;0.7073225;-0.6883656;0.1481994;0.06232687;61;-66;0;273;5615;-107;256;0.3033241;0.09833795;-0.9378286;0.1371191;-52;10;18;-505;-2654;4757;128;-0.2867036;-0.08310249;0.9543921;0.005540166;45;36;-14;783;-903;-5204;4;-0.2299169;0.3711911;-0.6288089;-0.6433932;78;32;-66;1608;4514;-578;16;0.07479224;-0.9351892;-0.2216066;0.265928;-45;-28;15;-5275;5533;3192;2;0.6873254;-0.4501385;0.04986149;-0.567867;-65;-8;-2;-2992;2386;-442;8;0.3836565;-0.8792658;0.2229917;0.1731302;-46;73;67;-431;2321;2607;0.7876542;2.350329;2.106114;0.786;2.199579;1.581812;0.7845245;2.065126;1.121509;0.806042;1.843421;0.4223337;0.5616307;1.683725;0.1231546;0.2119979;1.753003;0.2375942;-0.1787445;0.9164714;0.1610187;0;0;0;1.079541;1.73399;0.123152;1.357186;1.864148;0.2375895;1.796765;1.026029;0.418151;1.697532;0.0845257;0.3792781;0.475956;2.358968;2.151961;0.605984;0.916664;2.361031;0.5044044;0.8752944;3.702782;0.475956;2.358968;2.151961;0.605984;0.916664;2.361031;0.5044044;0.8752944;3.702782
1446127.9517;NotLabelled;NONE;16384;0.6276225;-0.6121883;0.4626039;0.1315789;-27;30;-37;-3662;4480;-151;65536;0.7188753;-0.5401662;0.2423823;0.3642659;7;153;-73;1212;7187;2954;8192;0.7356044;-0.6301939;-0.1620499;0.1883656;-37;-25;2;2758;4675;85;32768;0.7134712;-0.6800554;0.1551246;0.06648199;59;-64;0;5;5555;541;256;0.300554;0.1038781;-0.9370848;0.1440443;-55;9;17;-379;-2466;4797;128;-0.2825485;-0.0900277;0.955018;0.001385042;39;30;-13;1223;-801;-4946;4;-0.2243767;0.3808864;-0.6191136;-0.6490601;84;40;-35;966;3850;-310;16;0.07202215;-0.9325219;-0.2396122;0.2603878;-44;185;11;-5079;4217;3024;2;0.6911371;-0.4432133;0.04293629;-0.5692521;-66;8;1;-3040;2740;-254;8;0.3767313;-0.8869978;0.2132964;0.1606648;-42;82;72;1163;2999;2891;0.7846259;2.376173;2.121281;0.7828845;2.217486;1.599326;0.7813326;2.076065;1.141116;0.804998;1.843564;0.4455258;0.5618117;1.678066;0.1485098;0.2116774;1.747481;0.2613215;-0.1814206;0.9125983;0.1790197;0;0;0;1.079481;1.730757;0.1485068;1.356332;1.863991;0.2613168;1.803579;1.027239;0.4289217;1.71441;0.08704114;0.3523468;0.4729354;2.385507;2.167043;0.6356228;0.9518526;2.410001;0.5242542;0.9221995;3.751286;0.4729354;2.385507;2.167043;0.6356228;0.9518526;2.410001;0.5242542;0.9221995;3.751286
1446147.9356;NotLabelled;NONE;16384;0.6274728;-0.6135734;0.4639889;0.1204986;-18;41;-55;-4450;5026;317;65536;0.7277863;-0.5415512;0.2243767;0.3559557;-3;109;-58;966;6527;2334;8192;0.7378593;-0.6274238;-0.1592798;0.1911357;-36;-30;3;2832;4531;-59;32768;0.7183961;-0.6731302;0.1606648;0.07063711;50;-55;1;31;5361;667;256;0.2963989;0.1066482;-0.9367828;0.1523546;-54;5;14;-837;-2338;4757;128;-0.2797784;-0.09556787;0.9552952;-0.001385042;36;23;-15;1581;-771;-4806;4;-0.2285319;0.3975069;-0.602493;-0.6532714;55;54;-11;-142;4350;634;16;0.07894737;-0.9170429;-0.2963989;0.2548476;-31;128;-28;489;2507;3288;2;0.6971411;-0.4293629;0.02908587;-0.5734072;-62;8;-3;-3704;1970;-616;8;0.3642659;-0.8976202;0.2049861;0.1398892;-37;15;53;1573;4339;2899;0.7760617;2.386401;2.152923;0.7742554;2.221772;1.632812;0.7726464;2.075136;1.176244;0.7991695;1.831216;0.4846795;0.5576643;1.659109;0.1900573;0.2068577;1.727986;0.301097;-0.2032572;0.9032025;0.2017626;0;0;0;1.074959;1.715356;0.1900555;1.350685;1.852359;0.3010933;1.805444;1.017949;0.4599349;1.721154;0.07892537;0.3655044;0.464377;2.396255;2.198615;0.6691514;0.970241;2.454366;0.5450182;0.9573978;3.794796;0.464377;2.396255;2.198615;0.6691514;0.970241;2.454366;0.5450182;0.9573978;3.794796
1446168.0287;NotLabelled;NONE;16384;0.6257599;-0.6163435;0.4653739;0.1094183;-7;38;-65;-4340;4172;-147;65536;0.731378;-0.5415512;0.2146814;0.3545706;-2;20;-43;300;5655;1058;8192;0.7397121;-0.6246537;-0.1565097;0.1952908;-32;-24;2;3068;4325;159;32768;0.7218764;-0.66759;0.166205;0.07479224;43;-58;0;967;5153;839;256;0.2908587;0.1121884;-0.9355164;0.166205;-45;-4;8;-977;-2512;4537;128;-0.2728532;-0.1038781;0.956395;-0.008310249;23;14;-18;957;-885;-4614;4;-0.2299169;0.4016621;-0.5955678;-0.6565857;48;37;-1;-386;4474;-444;16;0.07617728;-0.9133107;-0.3060942;0.2576177;-29;42;-33;-603;1779;2884;2;0.7012662;-0.4210526;0.0235457;-0.5747922;-64;5;-10;-3740;2348;-258;8;0.3573407;-0.9017621;0.2036011;0.132964;-46;38;53;275;4169;1867;0.7714213;2.396743;2.155349;0.7695684;2.227897;1.636592;0.7679186;2.077558;1.181231;0.7967786;1.821706;0.4940852;0.5563636;1.644166;0.2018047;0.2051428;1.714462;0.3106239;-0.2204709;0.8982728;0.2056577;0;0;0;1.073579;1.70114;0.2023108;1.348794;1.840443;0.3117439;1.809534;1.005878;0.4513719;1.729589;0.06797147;0.3430784;0.4597406;2.406969;2.200987;0.7109983;0.989351;2.461926;0.5851181;0.9978012;3.802228;0.4597406;2.406969;2.200987;0.7109983;0.989351;2.461926;0.5851181;0.9978012;3.802228
1446187.9427;NotLabelled;NONE;16384;0.6191136;-0.6210765;0.4695291;0.1024931;23;-6;-51;-3306;3834;-1171;65536;0.7343503;-0.5387812;0.2091413;0.3559557;18;8;-39;-264;4483;-826;8192;0.7419674;-0.6218836;-0.1551246;0.1966759;-31;-12;3;2984;4281;319;32768;0.7258583;-0.6606648;0.1731302;0.08171745;31;-86;-5;1159;4963;713;256;0.2880886;0.1121884;-0.9351175;0.1731302;-43;-12;6;-97;-2366;4523;128;-0.2686981;-0.1052632;0.9573914;-0.01108033;15;3;-14;873;-895;-4702;4;-0.2299169;0.4058172;-0.5886427;-0.6602654;47;29;2;-546;4274;-746;16;0.07479224;-0.9111574;-0.3116343;0.2590028;-14;38;-32;-2085;1345;3030;2;0.704089;-0.4127424;0.01800554;-0.5775623;-71;12;-14;-3052;2292;144;8;0.3504155;-0.9067718;0.199446;0.1232687;-43;50;63;1249;3281;2769;0.7700256;2.428748;2.147349;0.7680765;2.251132;1.631528;0.7663423;2.093096;1.178782;0.7992426;1.817013;0.4996951;0.5608004;1.629946;0.211773;0.2088373;1.702125;0.3168982;-0.2323712;0.8948559;0.2074446;0;0;0;1.077797;1.688859;0.212866;1.352006;1.832394;0.3193159;1.819002;0.998695;0.4423413;1.741274;0.06187654;0.3235258;0.4583535;2.439746;2.192864;0.7312103;1.025185;2.448645;0.6187683;1.050176;3.789936;0.4583535;2.439746;2.192864;0.7312103;1.025185;2.448645;0.6187683;1.050176;3.789936
1446208.9443;NotLabelled;NONE;16384;0.6108033;-0.6243834;0.4750692;0.1066482;31;-78;-21;-1172;3576;-1467;65536;0.7380478;-0.534626;0.2091413;0.3545706;41;-2;-9;-36;2993;-1134;8192;0.746148;-0.6149584;-0.1537396;0.2036011;-24;-21;13;2078;4135;-209;32768;0.7273381;-0.6551247;0.1814404;0.09418282;-4;-42;-12;-241;4229;1975;256;0.2867036;0.1121884;-0.9342349;0.1800554;-39;-19;-1;439;-2356;4679;128;-0.265928;-0.1052632;0.9581475;-0.01246537;7;-3;-7;767;-855;-4260;4;-0.2313019;0.4099723;-0.5817174;-0.6633453;39;41;7;-256;3900;-688;16;0.0734072;-0.9071906;-0.3199446;0.2631579;-12;57;-44;-2827;31;5370;2;0.7075624;-0.4030471;0.01108033;-0.5803324;-78;16;-13;-2770;2230;384;8;0.3434903;-0.9117509;0.1952908;0.1121884;-42;57;77;1187;3009;2981;0.7781591;2.433808;2.120372;0.7761797;2.25344;1.605508;0.7744188;2.092988;1.153612;0.8059829;1.807954;0.4781695;0.5667522;1.617905;0.1928662;0.2150918;1.692576;0.2972611;-0.2416888;0.8908788;0.2138196;0;0;0;1.083935;1.675175;0.1928642;1.358671;1.81921;0.2972569;1.829902;0.9888753;0.4267207;1.756354;0.05329192;0.296105;0.4664895;2.44505;2.165847;0.7632551;1.03466;2.418015;0.6627351;1.068495;3.760058;0.4664895;2.44505;2.165847;0.7632551;1.03466;2.418015;0.6627351;1.068495;3.760058
1446229.938;NotLabelled;NONE;16384;0.602493;-0.6231672;0.4806094;0.132964;58;-70;28;-42;3754;909;65536;0.7418007;-0.5249307;0.2132964;0.3587258;1;-25;-42;-5650;3465;4358;8192;0.7465271;-0.6135734;-0.1537396;0.2063712;-9;-13;12;1784;4251;-471;32768;0.725348;-0.6565097;0.1814404;0.09972299;-27;-25;-26;161;3991;2219;256;0.2853186;0.1094183;-0.9339033;0.1855956;-30;-20;-8;387;-2342;4251;128;-0.2645429;-0.1052632;0.9584908;-0.01523546;2;-3;-1;565;-871;-3974;4;-0.2382271;0.4141274;-0.5706371;-0.6679218;18;19;20;-944;3796;-536;16;0.05401662;-0.9067877;-0.3144044;0.2756233;-41;-87;-69;-731;1277;1916;2;0.7108152;-0.3933518;0.002770083;-0.5831025;-83;19;-9;-2822;1900;292;8;0.3365651;-0.9166495;0.1911357;0.09972299;-44;48;79;507;2851;3127;0.7836085;2.441404;2.107139;0.7816173;2.259941;1.592659;0.7798461;2.098527;1.141105;0.8113068;1.804451;0.4695463;0.5717754;1.611524;0.1864353;0.2202476;1.688874;0.2893156;-0.2414937;0.8882949;0.2245245;0;0;0;1.089167;1.666874;0.1864328;1.364289;1.811263;0.2893115;1.84979;0.9873677;0.4066199;1.782908;0.05199456;0.2710073;0.47194;2.452742;2.152597;0.7886837;1.046032;2.400994;0.7005805;1.093424;3.743499;0.47194;2.452742;2.152597;0.7886837;1.046032;2.400994;0.7005805;1.093424;3.743499
1446251.0953;NotLabelled;NONE;16384;0.5983379;-0.6233164;0.4819945;0.1454294;70;-38;9;-2216;4658;1413;65536;0.7440742;-0.5221606;0.2049861;0.3628809;15;-18;-69;-2044;11075;-5880;8192;0.7458562;-0.6135734;-0.1551246;0.2077562;2;-7;12;1634;4333;-611;32768;0.7212663;-0.6606648;0.1786704;0.1066482;-49;-39;-32;621;4641;3833;256;0.2853186;0.1080332;-0.9329466;0.1911357;-23;-13;-10;295;-2262;3767;128;-0.2645429;-0.1038781;0.9586419;-0.01523546;-1;0;2;417;-841;-3740;4;-0.2409972;0.4127424;-0.567867;-0.6701426;8;4;29;-692;3590;-1254;16;0.04709141;-0.9055206;-0.3130194;0.2825485;-26;23;-57;-3543;1373;2016;2;0.7161924;-0.3725762;-0.01108033;-0.5900277;-78;19;-10;-4084;2054;182;8;0.3213296;-0.9255167;0.1842105;0.07894737;-46;40;59;403;2815;3655;0.7643235;2.457538;2.096357;0.7623037;2.273443;1.582814;0.7605071;2.10972;1.132093;0.7902101;1.809526;0.4631652;0.5493971;1.616034;0.181531;0.1984065;1.697075;0.2834;-0.2420229;0.8829402;0.2442114;0;0;0;1.067213;1.667267;0.181529;1.343385;1.810362;0.2833964;1.833585;0.9888304;0.3977;1.770608;0.05211926;0.2696607;0.4526578;2.469109;2.141774;0.7938892;1.06506;2.372143;0.7277184;1.1665;3.71291;0.4526578;2.469109;2.141774;0.7938892;1.06506;2.372143;0.7277184;1.1665;3.71291
1446270.9662;NotLabelled;NONE;16384;0.5872576;-0.6334472;0.4819945;0.1468144;75;31;-68;-9034;7518;1557;65536;0.7421264;-0.5138504;0.2105263;0.3753462;19;-96;-25;-2892;5423;-548;8192;0.7436461;-0.6149584;-0.1565097;0.2105263;11;-15;18;2048;3801;103;32768;0.7161535;-0.66482;0.1786704;0.1149584;-52;-53;-15;1533;4869;2125;256;0.2853186;0.1052632;-0.9321114;0.1966759;0;-14;-11;-1851;-2664;4223;128;-0.2631579;-0.1038781;0.9590231;-0.01523546;-13;0;-8;1801;-1269;-4260;4;-0.2437673;0.4099723;-0.5650969;-0.6731758;4;9;41;-868;3082;-1238;16;0.04432133;-0.8994403;-0.3268698;0.2867036;-29;103;-51;-2355;285;4052;2;0.719878;-0.3628809;-0.01800554;-0.5914127;-74;0;-11;-4726;2078;-290;8;0.3144044;-0.9299087;0.1772853;0.07063711;-50;64;46;611;2717;3385;0.7364767;2.462907;2.083785;0.7344611;2.279218;1.570096;0.7326686;2.115851;1.119246;0.7611855;1.808912;0.4533344;0.5194761;1.614099;0.1733838;0.168884;1.698235;0.2741084;-0.2595742;0.877261;0.2466404;0;0;0;1.037589;1.662234;0.1733818;1.31452;1.80467;0.2741046;1.807009;0.9849058;0.3912177;1.751086;0.04577351;0.2785631;0.4248105;2.474442;2.129208;0.77114;1.069738;2.34766;0.7182924;1.193055;3.687186;0.4248105;2.474442;2.129208;0.77114;1.069738;2.34766;0.7182924;1.193055;3.687186
1446291.9507;NotLabelled;NONE;16384;0.5817174;-0.6332519;0.4889196;0.1468144;0;-87;-15;-4826;7078;5085;65536;0.7412845;-0.5110803;0.2077562;0.3822715;-24;-19;-31;-1168;3161;-1808;8192;0.7391595;-0.6177285;-0.1592798;0.2160665;30;-29;20;3148;2221;115;32768;0.7101672;-0.6703601;0.1800554;0.1177285;-49;-21;8;857;3935;-15;256;0.2853186;0.09972299;-0.9327204;0.1966759;20;-43;-7;-2319;-3264;4529;128;-0.2603878;-0.1038781;0.9598188;-0.01246537;-23;-1;-14;1215;-1135;-4536;4;-0.2479224;0.4058172;-0.5637119;-0.6753339;0;2;42;-1052;3122;-1390;16;0.0401662;-0.8947133;-0.3365651;0.2908587;-39;41;-55;-29;231;3692;2;0.724525;-0.3531856;-0.0235457;-0.5914127;-67;-12;-12;-3930;1902;-32;8;0.3060942;-0.9344649;0.1703601;0.06371191;-48;64;38;1881;2667;2943;0.7352124;2.459976;2.062358;0.7331982;2.276431;1.548618;0.731407;2.11319;1.097722;0.7577858;1.800067;0.4346078;0.514625;1.604825;0.1562175;0.1646913;1.692849;0.2559032;-0.2657036;0.8724295;0.2570313;0;0;0;1.03313;1.648533;0.1562015;1.311194;1.789497;0.2558683;1.805783;0.9718127;0.3785398;1.754408;0.03063047;0.2819803;0.4235459;2.471498;2.107784;0.7756014;1.065841;2.310374;0.7312716;1.210831;3.648036;0.4235459;2.471498;2.107784;0.7756014;1.065841;2.310374;0.7312716;1.210831;3.648036
1446312.1013;NotLabelled;NONE;16384;0.5803324;-0.6271272;0.4958449;0.1551246;23;-60;10;-48;2464;559;65536;0.739175;-0.5110803;0.2049861;0.3878116;-41;-24;-28;-1732;3439;-1520;8192;0.7324985;-0.6246537;-0.1648199;0.2146814;21;51;-9;2996;4033;-937;32768;0.7071516;-0.6745152;0.1772853;0.1163435;2;28;-19;-3045;5157;-1705;256;0.2853186;0.09141274;-0.9335715;0.1966759;11;-49;-10;273;-2430;3917;128;-0.2590028;-0.101108;0.960534;-0.008310249;-28;-10;-11;777;-905;-4492;4;-0.2520775;0.4016621;-0.5623268;-0.6774312;-2;-5;38;52;3820;-1120;16;0.03047091;-0.8932766;-0.3365651;0.2963989;-42;-26;-56;-727;-641;2422;2;0.7290767;-0.3434903;-0.02631579;-0.5914127;-62;-6;-16;-3094;1718;338;8;0.299169;-0.9379789;0.166205;0.05540166;-46;40;40;2357;2135;2741;0.7376318;2.436555;2.058908;0.7356515;2.256082;1.544081;0.7338898;2.095537;1.092217;0.7569017;1.784558;0.4279698;0.5116876;1.592822;0.1489442;0.1626973;1.684063;0.249044;-0.2766744;0.8684745;0.2588426;0;0;0;1.030613;1.63122;0.1489422;1.31013;1.768968;0.2490401;1.80858;0.9554995;0.3835415;1.752371;0.01315713;0.302187;0.4259626;2.447806;2.104381;0.7774714;1.039346;2.287527;0.7431045;1.206159;3.622937;0.4259626;2.447806;2.104381;0.7774714;1.039346;2.287527;0.7431045;1.206159;3.622937
1446333.1323;NotLabelled;NONE;16384;0.5775623;-0.6304648;0.4930748;0.1606648;23;0;-18;-1384;3528;-377;65536;0.7330024;-0.5152354;0.1980609;0.3975069;-17;-27;-15;-1712;4213;-262;8192;0.7340067;-0.6246537;-0.1703601;0.2049861;22;64;-15;1460;4689;-527;32768;0.7097389;-0.6745152;0.1703601;0.1108033;16;50;0;2133;5369;959;256;0.2839335;0.08310249;-0.9347696;0.1966759;17;-44;-9;139;-2446;4095;128;-0.2576177;-0.09833795;0.9612209;-0.004155125;-35;-16;-7;1081;-1017;-4252;4;-0.2562327;0.3975069;-0.5595568;-0.6806095;-5;21;41;-552;3756;-1260;16;0.01800554;-0.8927471;-0.33518;0.300554;-61;-19;-45;-3811;-3467;4488;2;0.7327734;-0.33518;-0.03047091;-0.5914127;-57;4;-20;-2500;1138;26;8;0.2908587;-0.9411426;0.1648199;0.04986149;-50;27;39;1451;2323;2767;0.7331084;2.413006;2.059701;0.7311844;2.237659;1.543105;0.729472;2.081614;1.089668;0.7474908;1.773869;0.4237621;0.4992697;1.58742;0.1438147;0.1517554;1.683481;0.2445372;-0.2851251;0.866577;0.2560166;0;0;0;1.018724;1.617832;0.1438125;1.300358;1.750729;0.2445334;1.793698;0.9373459;0.3971705;1.735395;-0.005649805;0.3254297;0.4214342;2.423804;2.10525;0.772369;1.012761;2.268534;0.7502339;1.208068;3.600335;0.4214342;2.423804;2.10525;0.772369;1.012761;2.268534;0.7502339;1.208068;3.600335
1446354.4206;NotLabelled;NONE;16384;0.5720221;-0.6340662;0.4944598;0.1620499;33;-1;-9;-2910;3642;-443;65536;0.73089;-0.5166205;0.1966759;0.400277;-11;-16;-10;-1718;4161;-506;8192;0.731753;-0.6288089;-0.1745152;0.1966759;37;26;-12;1562;4575;667;32768;0.710977;-0.6759003;0.1648199;0.1024931;-4;51;7;2967;4529;571;256;0.2825485;0.07617728;-0.9357788;0.1966759;20;-41;-4;-643;-2574;3985;128;-0.2562327;-0.09418282;0.9620158;0;-39;-22;-7;1457;-901;-4102;4;-0.2645429;0.3975069;-0.5526316;-0.683084;10;20;28;-914;4336;-1394;16;-0.001385042;-0.8886896;-0.3462604;0.300554;-61;30;-19;-1907;-1485;2334;2;0.7360372;-0.3171745;-0.03601108;-0.5969529;-50;8;-32;-3400;1764;-444;8;0.2756233;-0.9466564;0.1620499;0.0401662;-51;28;28;1783;1743;3121;0.7131581;2.392964;2.026423;0.7112903;2.222751;1.508113;0.7096274;2.071211;1.05315;0.7225756;1.766769;0.3856103;0.4714062;1.585498;0.1048919;0.1254293;1.686154;0.2064173;-0.3019315;0.8649186;0.2419703;0;0;0;0.9912538;1.608223;0.1046077;1.274901;1.736405;0.2057905;1.765653;0.921806;0.3602742;1.710521;-0.02118158;0.2859645;0.4014789;2.403311;2.072043;0.7565244;0.9907862;2.211962;0.7455425;1.218744;3.538703;0.4014789;2.403311;2.072043;0.7565244;0.9907862;2.211962;0.7455425;1.218744;3.538703
1446376.1586;NotLabelled;NONE;16384;0.5692521;-0.6372742;0.4930748;0.1634349;23;-11;-1;-2886;3868;669;65536;0.7293661;-0.5166205;0.1966759;0.4030471;-9;-21;-11;-1050;3873;-1044;8192;0.7289386;-0.632964;-0.1759003;0.1925208;44;9;-16;2764;3515;639;32768;0.7105655;-0.6786703;0.1592798;0.09556787;-11;52;13;871;4617;-919;256;0.2811634;0.06786703;-0.9371247;0.1952908;23;-37;-5;-445;-2508;3825;128;-0.2548476;-0.09141274;0.9626467;0.002770083;-41;-22;-6;1223;-741;-4068;4;-0.2686981;0.3961219;-0.5498615;-0.6845007;8;19;26;-794;4150;-1480;16;-0.009695291;-0.8863768;-0.3531856;0.299169;-58;36;-9;-2213;-1649;2670;2;0.7361206;-0.3088643;-0.03739612;-0.601108;-35;14;-30;-3514;1820;-142;8;0.265928;-0.9498276;0.1606648;0.03601108;-49;25;23;2165;819;3383;0.7153103;2.370882;2.02468;0.7135034;2.206194;1.504587;0.7118938;2.059505;1.048037;0.7213805;1.757813;0.3791918;0.4681222;1.580849;0.09760389;0.1233639;1.685299;0.1994414;-0.3050219;0.864763;0.2386278;0;0;0;0.9882092;1.597201;0.09760153;1.273365;1.721457;0.1994374;1.753802;0.9010371;0.3555331;1.695518;-0.04164076;0.2797122;0.4036258;2.380742;2.070371;0.7675857;0.9683419;2.186643;0.7461601;1.25186;3.502503;0.4036258;2.380742;2.070371;0.7675857;0.9683419;2.186643;0.7461601;1.25186;3.502503
1446396.9613;NotLabelled;NONE;16384;0.566482;-0.6365136;0.4958449;0.16759;25;-48;3;-2542;3492;319;65536;0.7278285;-0.5166205;0.1966759;0.4058172;-8;-22;-11;-1352;3783;-630;8192;0.7245052;-0.6385041;-0.1786704;0.1883656;47;20;-13;4698;3369;105;32768;0.7116985;-0.6800554;0.1537396;0.08587258;3;52;15;-527;5339;-1243;256;0.2811634;0.0567867;-0.9387169;0.1911357;27;-26;-10;77;-2066;3811;128;-0.2520775;-0.08310249;0.9640516;0.01246537;-43;-8;-6;193;-367;-4282;4;-0.2714681;0.3975069;-0.5470914;-0.6848243;2;30;22;-1044;3742;-1464;16;-0.01800554;-0.8843889;-0.3601108;0.2963989;-51;31;-6;-1809;-1903;2922;2;0.7355888;-0.301939;-0.03739612;-0.6052631;-23;19;-26;-3870;1938;-110;8;0.2562327;-0.9530998;0.1578947;0.03185596;-47;19;16;1569;1377;3355;0.7162328;2.349108;2.0102;0.7144666;2.188148;1.488941;0.7128928;2.044733;1.031352;0.7179125;1.74814;0.3601816;0.4620972;1.576944;0.07734185;0.1188752;1.685434;0.1801413;-0.3061232;0.8643035;0.2388828;0;0;0;0.9823624;1.585987;0.07723379;1.26927;1.705431;0.1799034;1.743671;0.8828936;0.3431621;1.68217;-0.05982065;0.2703972;0.4045447;2.35864;2.055936;0.7712921;0.9457533;2.15647;0.7468042;1.253383;3.466848;0.4045447;2.35864;2.055936;0.7712921;0.9457533;2.15647;0.7468042;1.253383;3.466848
1446417.2689;NotLabelled;NONE;16384;0.5623268;-0.635085;0.5;0.1745152;21;-47;3;-1564;3490;-103;65536;0.7262771;-0.5166205;0.1966759;0.4085872;-11;-16;-11;-1604;3695;-658;8192;0.7212344;-0.6440443;-0.1897507;0.1703601;30;66;-8;2762;4305;533;32768;0.7123289;-0.6828254;0.1454294;0.07202215;-6;38;16;1201;5025;-331;256;0.2797784;0.05124654;-0.93973;0.1897507;30;-18;-4;121;-2056;3667;128;-0.2506925;-0.08033241;0.9645599;0.01800554;-42;-2;-8;267;-265;-4460;4;-0.2742382;0.3975069;-0.5443213;-0.6859271;-2;15;18;-1294;4312;-1050;16;-0.0235457;-0.8835892;-0.3628809;0.2950138;-30;-14;0;-415;-943;1334;2;0.7349979;-0.2977839;-0.03739612;-0.6080332;-15;11;-26;-4694;1982;-28;8;0.2493075;-0.9552078;0.1565097;0.03047091;-48;20;7;1367;2293;3693;0.7189851;2.302768;2.02378;0.7173557;2.154269;1.498835;0.7159021;2.021792;1.03796;0.7156538;1.73504;0.3625078;0.4568181;1.572711;0.07719898;0.115611;1.685926;0.1815972;-0.3077711;0.8638303;0.2384753;0;0;0;0.9771619;1.572258;0.07719725;1.26618;1.684925;0.1815944;1.731008;0.8585258;0.35269;1.664748;-0.08368635;0.2776316;0.4072851;2.311209;2.069648;0.7783546;0.899042;2.164253;0.744032;1.2293;3.468891;0.4072851;2.311209;2.069648;0.7783546;0.899042;2.164253;0.744032;1.2293;3.468891
1446438.2025;NotLabelled;NONE;16384;0.5595568;-0.6348932;0.501385;0.1800554;8;-5;-6;-1366;3884;501;65536;0.7236813;-0.5180055;0.1939058;0.4127424;-17;-4;-4;-1742;3879;-534;8192;0.720432;-0.6454294;-0.1952908;0.1620499;27;39;-4;2198;4333;733;32768;0.7122266;-0.6842105;0.1426593;0.06509695;-6;32;17;273;4587;-759;256;0.2797784;0.04847645;-0.940432;0.1869806;26;-12;1;-35;-2032;3705;128;-0.2493075;-0.07756232;0.9650261;0.0235457;-38;0;-8;623;-161;-4404;4;-0.2770083;0.3975069;-0.5429363;-0.6859117;-6;14;18;-1402;5148;-1334;16;-0.02770083;-0.8860824;-0.3587258;0.2922437;-4;-52;13;-1439;-1607;970;2;0.7355914;-0.2936288;-0.03601108;-0.6094183;-14;-8;-27;-4410;1878;296;8;0.2423823;-0.9576588;0.1523546;0.03047091;-45;20;0;1433;2701;3621;0.7162536;2.280771;2.019182;0.7146959;2.138844;1.492422;0.7133055;2.012137;1.029927;0.7105176;1.729401;0.3527899;0.4502488;1.571097;0.06652394;0.1100675;1.686757;0.1715892;-0.3093097;0.8633436;0.2382477;0;0;0;0.9705677;1.565965;0.06652194;1.260581;1.675408;0.1715851;1.709321;0.8427645;0.3549209;1.635949;-0.09882998;0.27874;0.404547;2.288639;2.06511;0.7801401;0.8770441;2.149898;0.7436594;1.2213;3.450853;0.404547;2.288639;2.06511;0.7801401;0.8770441;2.149898;0.7436594;1.2213;3.450853
1446459.5315;NotLabelled;NONE;16384;0.5581717;-0.6357175;0.501385;0.1814404;11;0;-4;-1690;3894;3;65536;0.723058;-0.5193906;0.1925208;0.4127424;-14;-5;-2;-1414;3937;-612;8192;0.7177243;-0.6481994;-0.199446;0.1578947;19;23;0;2392;3763;831;32768;0.7116554;-0.6855956;0.1412742;0.05955679;-9;18;17;889;4333;-419;256;0.2770083;0.04709141;-0.941868;0.1842105;23;-6;4;-3;-1956;3799;128;-0.2493075;-0.07756232;0.964875;0.02908587;-36;5;-5;735;-227;-4514;4;-0.2811634;0.3947368;-0.5429363;-0.6858208;-5;-5;6;-952;4036;-1700;16;-0.02493075;-0.8899751;-0.3559557;0.2839335;5;-16;33;-2481;-2809;4154;2;0.7401852;-0.2853186;-0.03185596;-0.6080332;-7;-12;-24;-3692;2184;428;8;0.2299169;-0.9617555;0.1454294;0.03185596;-39;22;-10;1125;1465;3679;0.7042084;2.26109;2.012757;0.702723;2.125747;1.484267;0.7013961;2.004821;1.020227;0.6976573;1.726849;0.3411247;0.4368495;1.571491;0.05373842;0.09707533;1.687631;0.1595882;-0.3170091;0.8620837;0.2326234;0;0;0;0.9571463;1.564491;0.05373603;1.24754;1.672154;0.1595842;1.690221;0.8372625;0.3473744;1.611422;-0.103819;0.2702808;0.3924955;2.268384;2.058737;0.7678047;0.8563724;2.137624;0.723627;1.204724;3.437249;0.3924955;2.268384;2.058737;0.7678047;0.8563724;2.137624;0.723627;1.204724;3.437249
1446480.0422;NotLabelled;NONE;16384;0.5554016;-0.6377437;0.501385;0.1828255;13;-10;3;-2228;3814;-23;65536;0.7212676;-0.5207756;0.1925208;0.4141274;-12;-5;3;-1540;3931;-552;8192;0.7175531;-0.6481994;-0.2022161;0.1551246;11;24;-1;2618;3803;515;32768;0.7109285;-0.6869806;0.1398892;0.05540166;-5;19;14;801;4247;-143;256;0.2756233;0.04570637;-0.9428797;0.1814404;22;-4;6;-31;-2050;4023;128;-0.2479224;-0.07617728;0.9651593;0.03462604;-36;5;-3;999;-151;-4390;4;-0.2811634;0.3933518;-0.5429363;-0.6866161;-1;6;3;-474;4322;-1664;16;-0.02631579;-0.8928986;-0.3518005;0.2797784;-23;-24;23;-4437;-3073;4556;2;0.7401671;-0.2825485;-0.03047091;-0.6094183;1;-5;-23;-3600;2276;-60;8;0.2243767;-0.9633818;0.1426593;0.03462604;-36;9;-13;1529;1191;3601;0.7015454;2.245775;2.010341;0.7001231;2.116167;1.480416;0.6988516;2.000275;1.015092;0.6951967;1.726499;0.3342866;0.434428;1.572891;0.04592553;0.09463375;1.688342;0.1524618;-0.3173479;0.8622863;0.2314083;0;0;0;0.9547257;1.565943;0.04592335;1.2451;1.672981;0.1524576;1.683795;0.8373429;0.3461872;1.598769;-0.1032126;0.2692835;0.3898271;2.252572;2.05636;0.7587488;0.8381491;2.120903;0.70366;1.17001;3.424421;0.3898271;2.252572;2.05636;0.7587488;0.8381491;2.120903;0.70366;1.17001;3.424421
1446499.9815;NotLabelled;NONE;16384;0.5540166;-0.6370574;0.5027701;0.1855956;10;-17;7;-1920;4024;247;65536;0.7192594;-0.5235457;0.1925208;0.4141274;-10;-6;8;-1478;3967;-552;8192;0.7164;-0.6495845;-0.2049861;0.1509695;11;29;-6;2022;4055;-231;32768;0.7101712;-0.6883656;0.1385041;0.05124654;-5;20;5;1049;4511;-193;256;0.2728532;0.04293629;-0.9448633;0.1759003;27;-6;1;-351;-1908;3753;128;-0.2465374;-0.07479224;0.9652259;0.04432133;-28;-3;-5;1205;71;-4406;4;-0.2825485;0.3947368;-0.5415512;-0.6863465;11;11;0;-698;4194;-1624;16;-0.02908587;-0.8934355;-0.3545706;0.2742382;-43;24;23;-4839;-3149;5236;2;0.74075;-0.2811634;-0.02908587;-0.6094183;2;-2;-21;-3248;2360;454;8;0.2188366;-0.9648085;0.1412742;0.03601108;-33;7;-9;1239;1547;3639;0.6992784;2.229153;2.004178;0.6979247;2.105792;1.472762;0.6967133;1.995388;1.006107;0.6929853;1.725828;0.3236215;0.4321678;1.57413;0.03429481;0.09241955;1.689083;0.1415144;-0.3177295;0.8629227;0.2284962;0;0;0;0.9524621;1.566933;0.03429234;1.242879;1.673171;0.1415102;1.681297;0.837503;0.3357347;1.591783;-0.102716;0.2598203;0.3875542;2.235407;2.050233;0.7568287;0.8208603;2.109849;0.6953914;1.149134;3.413992;0.3875542;2.235407;2.050233;0.7568287;0.8208603;2.109849;0.6953914;1.149134;3.413992
1446520.6239;NotLabelled;NONE;16384;0.5526316;-0.6370364;0.5027701;0.1897507;11;-18;4;-1518;3766;-5;65536;0.7178766;-0.5249307;0.1939058;0.4141274;-7;-7;8;-1426;3775;-532;8192;0.7156444;-0.6509695;-0.2091413;0.1426593;9;12;-6;1600;3825;699;32768;0.7089167;-0.6911357;0.132964;0.04570637;-9;3;-1;557;3813;-217;256;0.2728532;0.04155125;-0.9454367;0.1731302;24;-6;1;-297;-1718;3749;128;-0.2451524;-0.07202215;0.9655895;0.04847645;-24;-9;-5;935;227;-4204;4;-0.2825485;0.3975069;-0.5401662;-0.685839;17;22;-8;-1090;4646;-1414;16;-0.033241;-0.8931736;-0.3601108;0.267313;-44;18;21;-3237;-2393;2778;2;0.7401865;-0.2797784;-0.02770083;-0.6108033;3;3;-20;-3580;2526;712;8;0.2132964;-0.9662499;0.1398892;0.03601108;-31;5;-6;611;1597;3861;0.6978234;2.198418;1.984158;0.6965861;2.085665;1.450391;0.695477;1.984576;0.981629;0.6916524;1.723465;0.2958676;0.4307556;1.575618;0.004625022;0.09109721;1.689587;0.1131712;-0.3157765;0.8647149;0.224387;0;0;0;0.9510424;1.567888;0.004663646;1.24154;1.672496;0.1132573;1.678416;0.8396006;0.3223027;1.584155;-0.1002606;0.2477138;0.3860893;2.203754;2.030261;0.7575844;0.7896788;2.087186;0.6871772;1.121452;3.38999;0.3860893;2.203754;2.030261;0.7575844;0.7896788;2.087186;0.6871772;1.121452;3.38999
1446541.0189;NotLabelled;NONE;16384;0.5498615;-0.6407714;0.5;0.1925208;12;5;4;-2006;3922;423;65536;0.716266;-0.5277008;0.1952908;0.4127424;-8;-1;14;-1526;3873;-562;8192;0.7145231;-0.6523545;-0.2105263;0.1398892;8;13;-8;2014;3063;771;32768;0.7079107;-0.6925207;0.1315789;0.04432133;-12;0;5;489;3533;-43;256;0.2714681;0.0401662;-0.946398;0.1703601;21;-7;0;-95;-1536;3863;128;-0.2437673;-0.07063711;0.9658994;0.05124654;-22;-12;-4;829;373;-4298;4;-0.2825485;0.4016621;-0.536011;-0.6866776;21;21;-15;-1360;4774;-1252;16;-0.03601108;-0.8914795;-0.367036;0.2631579;-30;65;23;-4049;-2165;1708;2;0.7412781;-0.2770083;-0.02631579;-0.6108033;0;4;-18;-3948;2668;336;8;0.2091413;-0.9675019;0.1371191;0.03739612;-28;5;-5;357;1597;3953;0.6957906;2.188438;2.000872;0.6946104;2.080888;1.466033;0.6935512;1.984369;0.9963084;0.6894641;1.727509;0.3089452;0.4284169;1.581742;0.01679069;0.08887674;1.695397;0.1260348;-0.3134083;0.8663139;0.2215219;0;0;0;0.9486949;1.573461;0.01678824;1.239301;1.677088;0.1260304;1.667313;0.8370204;0.3244402;1.571348;-0.1029912;0.254043;0.3840516;2.193326;2.046992;0.7596841;0.780544;2.108687;0.6669368;1.119665;3.408195;0.3840516;2.193326;2.046992;0.7596841;0.780544;2.108687;0.6669368;1.119665;3.408195
1446560.9515;NotLabelled;NONE;16384;0.5498615;-0.6403537;0.5;0.1939058;8;4;7;-1996;3874;595;65536;0.7154313;-0.5304709;0.1966759;0.4099723;-10;-4;13;-918;3891;-744;8192;0.7146506;-0.6523545;-0.2119114;0.1371191;10;5;-9;2092;3045;177;32768;0.7066387;-0.6939058;0.1315789;0.04293629;-12;-1;11;283;3943;31;256;0.2700831;0.03878116;-0.9473462;0.16759;21;-9;-2;-255;-1378;3895;128;-0.2437673;-0.06786703;0.9659471;0.05401662;-18;-7;-3;611;433;-4072;4;-0.2783934;0.4085872;-0.5318559;-0.6875194;24;6;-21;-1162;4244;-1542;16;-0.03462604;-0.8853363;-0.3864266;0.2562327;-19;25;12;-3085;-2179;2872;2;0.7405791;-0.2728532;-0.02493075;-0.6135734;-6;-4;-11;-3936;2658;914;8;0.2022161;-0.9691135;0.1357341;0.03878116;-18;3;1;265;1991;4059;0.693539;2.18122;1.989962;0.6923962;2.077062;1.454452;0.6913695;1.983521;0.9841249;0.6872085;1.730899;0.2951929;0.4261095;1.587081;0.002120733;0.08662206;1.70025;0.1120295;-0.308798;0.8690463;0.2172541;0;0;0;0.946383;1.578509;0.002118528;1.237035;1.681299;0.1120248;1.661849;0.8399936;0.3120589;1.564454;-0.1000935;0.244692;0.3817965;2.185815;2.036089;0.7702476;0.7766212;2.100418;0.6665622;1.123118;3.397151;0.3817965;2.185815;2.036089;0.7702476;0.7766212;2.100418;0.6665622;1.123118;3.397151
1446581.143;NotLabelled;NONE;16384;0.5484765;-0.6415404;0.5;0.1939058;7;-4;1;-2228;3176;37;65536;0.7140195;-0.5318559;0.1980609;0.4099723;-8;-2;6;-1332;3897;-468;8192;0.7123774;-0.6551247;-0.2119114;0.1357341;10;2;-8;2434;2993;-309;32768;0.7054391;-0.6952909;0.1315789;0.0401662;-4;-2;16;395;3917;69;256;0.2700831;0.03601108;-0.9479413;0.1648199;17;-9;0;-193;-1310;3543;128;-0.2423823;-0.06648199;0.966233;0.0567867;-13;-6;-5;453;351;-4248;4;-0.2742382;0.4127424;-0.5304709;-0.6877774;27;5;-23;-872;4306;-1650;16;-0.03601108;-0.8854728;-0.3878116;0.2534626;-19;-11;6;-3405;-1667;2692;2;0.7427375;-0.2700831;-0.02493075;-0.6121883;-12;-6;-7;-4036;2732;974;8;0.199446;-0.9700711;0.132964;0.03878116;-14;8;6;373;1611;3997;0.6974263;2.172521;1.98838;0.6963232;2.071987;1.452177;0.6953316;1.98163;0.9812284;0.6910962;1.733254;0.2907551;0.4299446;1.591391;-0.003222704;0.09051125;1.70408;0.1073461;-0.3027664;0.8720177;0.2138107;0;0;0;0.9502128;1.582518;-0.003225327;1.240913;1.684462;0.1073411;1.664475;0.8422302;0.3061296;1.563769;-0.09769666;0.2414514;0.3856807;2.176804;2.034514;0.7936692;0.7738918;2.11352;0.6708897;1.123025;3.407877;0.3856807;2.176804;2.034514;0.7936692;0.7738918;2.11352;0.6708897;1.123025;3.407877
1446603.0844;NotLabelled;NONE;16384;0.5470914;-0.6423025;0.5;0.1952908;5;-3;0;-2186;3160;53;65536;0.7129858;-0.533241;0.1980609;0.4099723;-7;-1;3;-1298;3723;-414;8192;0.7109501;-0.6565097;-0.2132964;0.134349;11;9;-6;2808;2857;-373;32768;0.7053316;-0.6952909;0.132964;0.03739612;4;2;23;521;4209;169;256;0.267313;0.03185596;-0.9493518;0.1620499;9;-11;4;153;-1562;3655;128;-0.2396122;-0.06371191;0.9670278;0.05817174;-4;-4;-5;725;127;-4202;4;-0.2714681;0.4168975;-0.5277008;-0.6885008;30;11;-25;-508;4256;-1748;16;-0.03878116;-0.8861442;-0.3878116;0.2506925;-20;7;10;-4203;-1715;2980;2;0.743192;-0.2686981;-0.02631579;-0.6121883;-16;-4;-4;-3688;2448;590;8;0.1966759;-0.9710662;0.1301939;0.03739612;-11;9;9;593;1393;3919;0.7006071;2.158936;1.985039;0.6995409;2.061794;1.448211;0.6985821;1.974416;0.9767003;0.6935245;1.730845;0.2845229;0.4318908;1.591992;-0.01046088;0.09286207;1.705171;0.1008454;-0.3003375;0.8735484;0.2109696;0;0;0;0.9521226;1.581189;-0.01046389;1.243183;1.681285;0.1008401;1.661602;0.8375653;0.3041565;1.556168;-0.1019448;0.2409786;0.3888579;2.162928;2.031177;0.8077808;0.7640351;2.123168;0.6774311;1.114546;3.416411;0.3888579;2.162928;2.031177;0.8077808;0.7640351;2.123168;0.6774311;1.114546;3.416411
1446624.9436;NotLabelled;NONE;16384;0.5457063;-0.6438984;0.5;0.1939058;6;3;-1;-2322;3468;257;65536;0.7127435;-0.534626;0.1980609;0.4085872;-6;-1;1;-1208;3939;-536;8192;0.7054867;-0.6606648;-0.2202216;0.1315789;15;21;1;2622;3639;-205;32768;0.7069318;-0.6939058;0.134349;0.02631579;17;20;22;869;4619;-197;256;0.265928;0.03047091;-0.9497861;0.1620499;5;-10;4;11;-1648;3661;128;-0.2382271;-0.06371191;0.96737;0.05817174;-2;-1;-5;709;23;-4232;4;-0.2686981;0.4224377;-0.5235457;-0.6893821;35;17;-24;-588;3828;-1680;16;-0.0401662;-0.885645;-0.3905817;0.2479224;-23;17;13;-3371;-1531;2996;2;0.7452747;-0.265928;-0.02770083;-0.6108033;-17;-3;-1;-3484;2394;740;8;0.1952908;-0.9715827;0.1288089;0.03601108;-9;4;11;665;1291;3883;0.7009209;2.145731;1.980954;0.6998816;2.050989;1.443698;0.6989458;1.96572;0.9718009;0.692713;1.727444;0.2777922;0.4303932;1.592249;-0.01827917;0.09195731;1.706407;0.09382939;-0.298656;0.8743773;0.2099181;0;0;0;0.950559;1.57864;-0.0182814;1.242133;1.676315;0.09382606;1.659485;0.8323038;0.2981231;1.548569;-0.1064726;0.2334436;0.3891698;2.149516;2.027095;0.821413;0.7551265;2.125598;0.6907306;1.109419;3.417777;0.3891698;2.149516;2.027095;0.821413;0.7551265;2.125598;0.6907306;1.109419;3.417777
1446644.9721;NotLabelled;NONE;16384;0.5429363;-0.6455765;0.501385;0.1925208;3;-4;-5;-2048;3362;-91;65536;0.7120865;-0.536011;0.1966759;0.4085872;-1;0;0;-1636;3877;-288;8192;0.7053792;-0.6606648;-0.2229917;0.1274238;17;26;2;2520;4117;143;32768;0.7089925;-0.6925207;0.1315789;0.02077562;17;26;14;811;4155;-239;256;0.2645429;0.02908587;-0.9502162;0.1620499;3;-7;5;169;-1692;3731;128;-0.2368421;-0.06371191;0.96771;0.05817174;0;2;-5;547;-79;-4274;4;-0.265928;0.4279778;-0.5193906;-0.6901817;38;19;-23;-586;3784;-1482;16;-0.04293629;-0.8854424;-0.3933518;0.2437673;-22;-1;15;-2605;-769;2390;2;0.7456594;-0.2645429;-0.03047091;-0.6108033;-17;3;1;-3508;2356;752;8;0.1925208;-0.9722341;0.1288089;0.033241;-6;0;14;857;1371;3929;0.705204;2.143371;1.975259;0.7041656;2.048747;1.437982;0.703231;1.96358;0.9660666;0.6964976;1.725806;0.2718906;0.4338923;1.591385;-0.0242804;0.09570117;1.706193;0.08790267;-0.2963166;0.8754839;0.20862;0;0;0;0.9540277;1.576655;-0.02428365;1.245809;1.673623;0.08789754;1.659387;0.8315336;0.3072466;1.535267;-0.1047742;0.231688;0.3934525;2.147146;2.0214;0.8425594;0.7588009;2.129386;0.706923;1.115301;3.420447;0.3934525;2.147146;2.0214;0.8425594;0.7588009;2.129386;0.706923;1.115301;3.420447
1446665.2568;NotLabelled;NONE;16384;0.5429363;-0.6466498;0.5;0.1925208;4;1;0;-1458;3956;-193;65536;0.7128795;-0.536011;0.1966759;0.4072022;-1;0;5;-1498;3851;-542;8192;0.7034907;-0.6620498;-0.2271468;0.1232687;14;32;-3;1644;4021;285;32768;0.7107382;-0.6911357;0.1301939;0.01523546;10;19;10;1197;3973;-221;256;0.2617728;0.02908587;-0.9507461;0.1634349;3;-3;4;315;-1768;3841;128;-0.2368421;-0.06371191;0.9677923;0.0567867;0;1;-4;583;-33;-4304;4;-0.2603878;0.4404432;-0.5083103;-0.6926967;46;21;-16;-680;3602;-1788;16;-0.04432133;-0.8855118;-0.398892;0.234072;-21;41;32;-3603;-1225;3088;2;0.7457391;-0.2603878;-0.03601108;-0.6121883;-17;0;1;-3884;2228;622;8;0.1911357;-0.9726405;0.1288089;0.02908587;0;0;14;853;1683;3971;0.7070385;2.138924;1.964835;0.7060015;2.044417;1.427537;0.705068;1.959353;0.9556029;0.6978392;1.722076;0.2612618;0.4349523;1.588428;-0.03500909;0.09700684;1.703887;0.07724565;-0.2974589;0.8756137;0.2064346;0;0;0;0.9550546;1.572575;-0.03500992;1.247042;1.668835;0.07724619;1.659461;0.8258362;0.2952802;1.534116;-0.1098019;0.2136835;0.3952869;2.142689;2.010976;0.8610578;0.7606244;2.128508;0.7157605;1.121155;3.417397;0.3952869;2.142689;2.010976;0.8610578;0.7606244;2.128508;0.7157605;1.121155;3.417397
1446687.115;NotLabelled;NONE;16384;0.5429363;-0.6477184;0.4986149;0.1925208;1;11;2;-1576;4078;147;65536;0.7122427;-0.5373961;0.1980609;0.4058172;-1;0;8;-1206;3885;-536;8192;0.7039909;-0.6620498;-0.2285319;0.1177285;7;15;-5;1330;4027;713;32768;0.7121593;-0.6897507;0.1301939;0.01108033;3;7;8;897;4043;-471;256;0.2603878;0.02770083;-0.9511676;0.1634349;4;-2;5;59;-1822;3851;128;-0.2354571;-0.06509695;0.968038;0.0567867;0;5;-4;565;19;-4274;4;-0.2562327;0.4445983;-0.5027701;-0.6956288;45;17;-13;-564;3514;-1616;16;-0.04432133;-0.8838106;-0.4058172;0.2285319;-25;43;35;-2487;-693;2928;2;0.7472168;-0.2590028;-0.03878116;-0.6108033;-17;0;1;-4080;2036;494;8;0.1911357;-0.9726809;0.1288089;0.02770083;1;-4;13;801;1663;3933;0.7079103;2.145145;1.964472;0.7068571;2.049177;1.427433;0.7059098;1.96283;0.9557327;0.6986678;1.723613;0.2620577;0.4357815;1.589084;-0.03381526;0.0978226;1.704788;0.07814655;-0.2948069;0.8759035;0.2089947;0;0;0;0.9558873;1.573337;-0.03381777;1.247865;1.66997;0.07814264;1.657013;0.8266574;0.3010703;1.528328;-0.1079849;0.2134861;0.3961599;2.149035;2.010612;0.9024466;0.7830487;2.147044;0.7366401;1.140113;3.434422;0.3961599;2.149035;2.010612;0.9024466;0.7830487;2.147044;0.7366401;1.140113;3.434422
1446707.9896;NotLabelled;NONE;16384;0.5429363;-0.6487823;0.4972299;0.1925208;0;9;2;-2068;3666;331;65536;0.7119842;-0.5387812;0.1980609;0.4044321;-1;0;9;-1236;3849;-536;8192;0.7031443;-0.6634349;-0.2285319;0.1149584;0;1;-5;2214;3777;301;32768;0.7113696;-0.6911357;0.1274238;0.006925208;0;8;0;961;4155;-51;256;0.2590028;0.02770083;-0.9515457;0.1634349;7;-4;5;-5;-1846;3827;128;-0.234072;-0.06509695;0.9683739;0.0567867;-1;5;-5;631;-19;-4142;4;-0.2548476;0.4501385;-0.4972299;-0.6965562;44;18;-8;-470;3678;-1556;16;-0.04432133;-0.8836565;-0.4099723;0.2216066;-26;18;33;-2231;-553;2780;2;0.7480225;-0.2562327;-0.04155125;-0.6108033;-17;-4;0;-3966;1940;472;8;0.1911357;-0.9727558;0.1288089;0.02493075;4;1;12;803;1757;3895;0.7108181;2.146013;1.961015;0.7097626;2.049818;1.424016;0.7088131;1.963272;0.9523519;0.70107;1.724542;0.2585145;0.4379009;1.590782;-0.03745508;0.1001898;1.707139;0.07457823;-0.2904695;0.8776748;0.2076321;0;0;0;0.9579713;1.573912;-0.03745747;1.250154;1.669839;0.07457423;1.655108;0.8237607;0.2946647;1.522938;-0.109849;0.2014363;0.3990682;2.149923;2.007154;0.9281288;0.7930925;2.148453;0.7500499;1.148265;3.434714;0.3990682;2.149923;2.007154;0.9281288;0.7930925;2.148453;0.7500499;1.148265;3.434714
1446748.9396;NotLabelled;NONE;16384;0.5443213;-0.6501468;0.4944598;0.1911357;-3;2;6;-2066;3558;85;65536;0.7114545;-0.5415512;0.200831;0.400277;0;0;8;-1244;3955;-466;8192;0.7020507;-0.66482;-0.2299169;0.1108033;2;6;-10;2034;3489;-155;32768;0.7121296;-0.6911357;0.1232687;0.002770083;2;11;-1;603;3955;-213;256;0.2548476;0.02631579;-0.9529428;0.1620499;10;0;4;189;-1652;3783;128;-0.2313019;-0.06925207;0.9687512;0.0567867;-4;6;-3;681;-55;-3964;4;-0.2520775;0.4556787;-0.4875346;-0.7008023;33;13;0;-640;3710;-1204;16;-0.04570637;-0.8837075;-0.4155124;0.2105263;-22;11;23;-2823;-847;2868;2;0.7504011;-0.2520775;-0.04432133;-0.6094183;-15;-4;-2;-3614;1814;468;8;0.1925208;-0.9723653;0.1301939;0.02216066;4;-7;11;849;1495;3567;0.7110098;2.147778;1.957552;0.7099558;2.051701;1.420533;0.7090074;1.965259;0.9488494;0.7013771;1.726495;0.2550226;0.4382709;1.592597;-0.04094067;0.100505;1.708799;0.07108733;-0.2882442;0.8787601;0.2061376;0;0;0;0.9583493;1.575974;-0.04094309;1.250487;1.672044;0.0710845;1.651159;0.8239541;0.291271;1.5163;-0.1094285;0.1996373;0.3992599;2.151677;2.003692;0.9457195;0.8024457;2.151391;0.7523099;1.152512;3.436839;0.3992599;2.151677;2.003692;0.9457195;0.8024457;2.151391;0.7523099;1.152512;3.436839
1446768.9603;NotLabelled;NONE;16384;0.5457063;-0.6504433;0.4930748;0.1897507;-2;0;6;-2062;3508;155;65536;0.712232;-0.5415512;0.200831;0.398892;0;1;5;-1248;3897;-544;8192;0.7022679;-0.66482;-0.2299169;0.1094183;0;6;-11;2058;3249;35;32768;0.7123734;-0.6911357;0.1218837;0;3;9;4;715;4049;-69;256;0.2534626;0.02631579;-0.9535466;0.1606648;11;0;4;25;-1740;3797;128;-0.2299169;-0.07063711;0.9689808;0.0567867;-6;7;-3;765;-97;-4020;4;-0.2493075;0.4570637;-0.4833795;-0.7037633;13;1;2;-490;3864;-1228;16;-0.04986149;-0.8837987;-0.4182825;0.2036011;-18;-2;2;-2019;-523;2484;2;0.7531035;-0.2465374;-0.04847645;-0.6080332;-12;-4;-1;-3410;1478;634;8;0.1939058;-0.9719893;0.1315789;0.01800554;3;-4;12;1065;1475;3499;0.7192888;2.150557;1.954764;0.7182258;2.053706;1.417884;0.71727;1.966583;0.9463258;0.7095938;1.730108;0.251716;0.4464521;1.597317;-0.0447138;0.1087324;1.713317;0.06766129;-0.2776228;0.8824952;0.2047533;0;0;0;0.9665222;1.580434;-0.04471684;1.258696;1.675989;0.06765628;1.655768;0.8258922;0.2866199;1.521059;-0.1074612;0.1944665;0.4075395;2.154524;2.000903;0.9863026;0.8185587;2.146126;0.773326;1.162836;3.430042;0.4075395;2.154524;2.000903;0.9863026;0.8185587;2.146126;0.773326;1.162836;3.430042
1446789.9517;NotLabelled;NONE;16384;0.5457063;-0.6504433;0.4930748;0.1897507;-4;1;6;-2106;3582;349;65536;0.7126143;-0.5415512;0.2022161;0.3975069;0;1;5;-1146;3989;-606;8192;0.7020275;-0.66482;-0.2313019;0.1080332;0;6;-8;2412;3419;223;32768;0.7126076;-0.6911357;0.1204986;-0.001385042;8;8;4;505;4155;39;256;0.2534626;0.02770083;-0.9537396;0.1592798;11;0;5;1;-1652;3759;128;-0.2299169;-0.07063711;0.9688987;0.05817174;-6;4;-3;811;43;-3924;4;-0.2493075;0.4570637;-0.4833795;-0.7037633;6;2;6;-638;3888;-1274;16;-0.05263158;-0.883638;-0.4182825;0.2036011;-12;-3;-2;-2563;-683;2526;2;0.7534652;-0.2451524;-0.04986149;-0.6080332;-12;-3;-2;-3192;1452;316;8;0.1939058;-0.9718255;0.132964;0.0166205;0;-7;11;1153;1491;3407;0.7209544;2.149806;1.95824;0.7198892;2.052745;1.421398;0.718931;1.965438;0.9498741;0.7115931;1.730811;0.254634;0.4486336;1.5985;-0.04217261;0.1107674;1.713801;0.07048304;-0.2755551;0.8827666;0.206372;0;0;0;0.9687233;1.582233;-0.04217541;1.260775;1.677833;0.0704782;1.656994;0.8268403;0.2874962;1.520764;-0.1061856;0.1942657;0.4092051;2.153791;2.004379;1.00436;0.8248421;2.147712;0.7730201;1.172789;3.427455;0.4092051;2.153791;2.004379;1.00436;0.8248421;2.147712;0.7730201;1.172789;3.427455
1446810.3162;NotLabelled;NONE;16384;0.5470914;-0.6492788;0.4930748;0.1897507;-6;-2;8;-1934;3722;335;65536;0.7123317;-0.5429363;0.2022161;0.3961219;1;0;7;-1332;4003;-420;8192;0.7017816;-0.66482;-0.232687;0.1066482;0;13;-6;2248;3497;5;32768;0.7143996;-0.6897507;0.1177285;-0.004155125;12;11;3;861;4075;-135;256;0.2520775;0.02631579;-0.954376;0.1578947;12;0;3;115;-1570;3623;128;-0.2285319;-0.07202215;0.9691244;0.05817174;-7;-1;-1;985;135;-3890;4;-0.2506925;0.4570637;-0.4819945;-0.7042211;2;0;8;-658;3758;-1346;16;-0.05401662;-0.8832157;-0.4196676;0.2022161;-10;11;-4;-2697;-989;2894;2;0.7543609;-0.2423823;-0.04986149;-0.6080332;-9;0;-5;-3070;1438;414;8;0.1925208;-0.9717407;0.1357341;0.01523546;0;-10;10;1297;1373;3533;0.7234961;2.148231;1.960088;0.7224475;2.052634;1.422983;0.7215035;1.966614;0.9512226;0.7149926;1.733364;0.2555111;0.4524957;1.60077;-0.04157808;0.1142381;1.714709;0.07128771;-0.272142;0.8836746;0.2070116;0;0;0;0.9726371;1.586249;-0.04158062;1.264359;1.682601;0.07128406;1.659859;0.831588;0.2895328;1.523989;-0.101428;0.1956844;0.4117459;2.15209;2.006228;1.006832;0.8231409;2.149848;0.7724614;1.177657;3.427234;0.4117459;2.15209;2.006228;1.006832;0.8231409;2.149848;0.7724614;1.177657;3.427234
1446831.5372;NotLabelled;NONE;16384;0.5484765;-0.6491606;0.4916897;0.1897507;-6;2;9;-1718;3772;61;65536;0.7127059;-0.5429363;0.2036011;0.3947368;1;1;9;-1300;3903;-554;8192;0.7008269;-0.666205;-0.234072;0.101108;4;12;-8;1598;3649;233;32768;0.7161107;-0.6883656;0.1149584;-0.01108033;7;7;4;693;3909;-269;256;0.2506925;0.02493075;-0.955232;0.1551246;13;-5;-1;-203;-1484;3665;128;-0.2285319;-0.07063711;0.9691422;0.05955679;-7;-9;1;939;-9;-3894;4;-0.2506925;0.4556787;-0.4833795;-0.7041694;0;0;10;-436;3666;-1464;16;-0.05540166;-0.8831299;-0.4196676;0.2022161;-10;8;-5;-2259;-983;2906;2;0.7536866;-0.2409972;-0.04986149;-0.6094183;-5;6;-8;-3130;1526;332;8;0.1925208;-0.9715669;0.1371191;0.01385042;0;-10;8;1401;1427;3509;0.7257398;2.146292;1.96149;0.7246886;2.050489;1.424422;0.7237428;1.964288;0.9526942;0.7169585;1.733398;0.2561984;0.4542965;1.602195;-0.04136148;0.1161953;1.716249;0.0718563;-0.269839;0.8847232;0.2055422;0;0;0;0.9744158;1.586909;-0.04136378;1.266268;1.68245;0.07185316;1.66183;0.8314178;0.2899129;1.527802;-0.1014596;0.1921185;0.4139896;2.150168;2.00763;1.011164;0.8215733;2.145752;0.7757685;1.178517;3.422274;0.4139896;2.150168;2.00763;1.011164;0.8215733;2.145752;0.7757685;1.178517;3.422274
1446872.1451;NotLabelled;NONE;16384;0.5512465;-0.6489064;0.4889196;0.1897507;-10;6;12;-1890;3780;163;65536;0.7135411;-0.5443213;0.2049861;0.3905817;2;1;11;-1256;3981;-426;8192;0.701221;-0.666205;-0.234072;0.09833795;0;7;-8;1728;3603;607;32768;0.7174168;-0.6869806;0.1149584;-0.01246537;3;1;6;937;4053;-299;256;0.2506925;0.02493075;-0.9554558;0.1537396;14;-7;-4;-17;-1624;3721;128;-0.2285319;-0.06925207;0.9692422;0.05955679;-9;-9;1;613;-35;-4042;4;-0.2506925;0.4542936;-0.4833795;-0.7050638;-3;-2;14;-568;3566;-1476;16;-0.05817174;-0.8832679;-0.4196676;0.200831;-10;-7;-6;-2055;-871;2610;2;0.7530068;-0.2396122;-0.04986149;-0.6108033;-1;11;-11;-3452;1506;128;8;0.1925208;-0.9711907;0.1398892;0.01246537;0;-12;5;1287;1407;3521;0.7280291;2.139026;1.966472;0.7269977;2.045023;1.429086;0.7260691;1.960401;0.9570728;0.7192332;1.73376;0.2591836;0.4565241;1.604573;-0.03921595;0.1184908;1.718199;0.07463358;-0.2656599;0.8856134;0.2071457;0;0;0;0.9766314;1.588884;-0.0392186;1.268537;1.683508;0.07462955;1.657719;0.8296132;0.2929772;1.520804;-0.1021352;0.1886362;0.4162771;2.142748;2.012614;1.010344;0.8123884;2.1471;0.7778077;1.172613;3.423224;0.4162771;2.142748;2.012614;1.010344;0.8123884;2.1471;0.7778077;1.172613;3.423224
1446893.3841;NotLabelled;NONE;16384;0.5526316;-0.6487704;0.4875346;0.1897507;-9;1;14;-1984;3674;125;65536;0.7128404;-0.5457063;0.2063712;0.3891967;3;2;12;-1226;3909;-514;8192;0.7027267;-0.66482;-0.234072;0.09695291;-6;0;-6;2048;3743;759;32768;0.7173914;-0.6869806;0.1149584;-0.01385042;0;-7;8;907;3973;-361;256;0.2506925;0.02216066;-0.9557459;0.1523546;17;-9;-5;113;-1594;3719;128;-0.2285319;-0.06786703;0.969254;0.06094183;-11;-9;1;377;135;-3980;4;-0.2534626;0.4501385;-0.4833795;-0.7067364;-6;-6;18;-406;3354;-1702;16;-0.06232687;-0.8836413;-0.4182825;0.200831;-15;4;-1;-3149;-1177;2732;2;0.7510234;-0.2354571;-0.04847645;-0.6149584;2;5;-13;-3814;1646;466;8;0.1925208;-0.9705831;0.1440443;0.01246537;0;-13;0;1377;1855;3713;0.73151;2.140689;1.971331;0.7304822;2.047018;1.433887;0.7295568;1.962688;0.9618216;0.7229364;1.737938;0.2633191;0.4603422;1.609376;-0.03545198;0.1222198;1.722453;0.07867839;-0.259;0.887768;0.2063575;0;0;0;0.9804608;1.594054;-0.03545439;1.27229;1.688575;0.07867348;1.658504;0.8329163;0.2953817;1.521554;-0.09835124;0.18688;0.4197578;2.144383;2.017473;1.014161;0.8137739;2.14795;0.7757126;1.179042;3.421546;0.4197578;2.144383;2.017473;1.014161;0.8137739;2.14795;0.7757126;1.179042;3.421546
