SEP=;
index;label;segment;RightUpperArm_boneIndex;RightUpperArm_quat9x_w;RightUpperArm_quat9x_x;RightUpperArm_quat9x_y;RightUpperArm_quat9x_z;RightUpperArm_gyroscope_x;RightUpperArm_gyroscope_y;RightUpperArm_gyroscope_z;RightUpperArm_accelerometer_x;RightUpperArm_accelerometer_y;RightUpperArm_accelerometer_z;RightLowerArm_boneIndex;RightLowerArm_quat9x_w;RightLowerArm_quat9x_x;RightLowerArm_quat9x_y;RightLowerArm_quat9x_z;RightLowerArm_gyroscope_x;RightLowerArm_gyroscope_y;RightLowerArm_gyroscope_z;RightLowerArm_accelerometer_x;RightLowerArm_accelerometer_y;RightLowerArm_accelerometer_z;LeftUpperArm_boneIndex;LeftUpperArm_quat9x_w;LeftUpperArm_quat9x_x;LeftUpperArm_quat9x_y;LeftUpperArm_quat9x_z;LeftUpperArm_gyroscope_x;LeftUpperArm_gyroscope_y;LeftUpperArm_gyroscope_z;LeftUpperArm_accelerometer_x;LeftUpperArm_accelerometer_y;LeftUpperArm_accelerometer_z;LeftLowerArm_boneIndex;LeftLowerArm_quat9x_w;LeftLowerArm_quat9x_x;LeftLowerArm_quat9x_y;LeftLowerArm_quat9x_z;LeftLowerArm_gyroscope_x;LeftLowerArm_gyroscope_y;LeftLowerArm_gyroscope_z;LeftLowerArm_accelerometer_x;LeftLowerArm_accelerometer_y;LeftLowerArm_accelerometer_z;Chest_boneIndex;Chest_quat9x_w;Chest_quat9x_x;Chest_quat9x_y;Chest_quat9x_z;Chest_gyroscope_x;Chest_gyroscope_y;Chest_gyroscope_z;Chest_accelerometer_x;Chest_accelerometer_y;Chest_accelerometer_z;Spine_boneIndex;Spine_quat9x_w;Spine_quat9x_x;Spine_quat9x_y;Spine_quat9x_z;Spine_gyroscope_x;Spine_gyroscope_y;Spine_gyroscope_z;Spine_accelerometer_x;Spine_accelerometer_y;Spine_accelerometer_z;RightUpperLeg_boneIndex;RightUpperLeg_quat9x_w;RightUpperLeg_quat9x_x;RightUpperLeg_quat9x_y;RightUpperLeg_quat9x_z;RightUpperLeg_gyroscope_x;RightUpperLeg_gyroscope_y;RightUpperLeg_gyroscope_z;RightUpperLeg_accelerometer_x;RightUpperLeg_accelerometer_y;RightUpperLeg_accelerometer_z;RightLowerLeg_boneIndex;RightLowerLeg_quat9x_w;RightLowerLeg_quat9x_x;RightLowerLeg_quat9x_y;RightLowerLeg_quat9x_z;RightLowerLeg_gyroscope_x;RightLowerLeg_gyroscope_y;RightLowerLeg_gyroscope_z;RightLowerLeg_accelerometer_x;RightLowerLeg_accelerometer_y;RightLowerLeg_accelerometer_z;LeftUpperLeg_boneIndex;LeftUpperLeg_quat9x_w;LeftUpperLeg_quat9x_x;LeftUpperLeg_quat9x_y;LeftUpperLeg_quat9x_z;LeftUpperLeg_gyroscope_x;LeftUpperLeg_gyroscope_y;LeftUpperLeg_gyroscope_z;LeftUpperLeg_accelerometer_x;LeftUpperLeg_accelerometer_y;LeftUpperLeg_accelerometer_z;LeftLowerLeg_boneIndex;LeftLowerLeg_quat9x_w;LeftLowerLeg_quat9x_x;LeftLowerLeg_quat9x_y;LeftLowerLeg_quat9x_z;LeftLowerLeg_gyroscope_x;LeftLowerLeg_gyroscope_y;LeftLowerLeg_gyroscope_z;LeftLowerLeg_accelerometer_x;LeftLowerLeg_accelerometer_y;LeftLowerLeg_accelerometer_z;pelvis_x;pelvis_y;pelvis_z;lowerSpine_x;lowerSpine_y;lowerSpine_z;middleSpine_x;middleSpine_y;middleSpine_z;upperSpine_x;upperSpine_y;upperSpine_z;rightClavicle_x;rightClavicle_y;rightClavicle_z;rightShoulder_x;rightShoulder_y;rightShoulder_z;rightElbow_x;rightElbow_y;rightElbow_z;rightWrist_x;rightWrist_y;rightWrist_z;leftClavicle_x;leftClavicle_y;leftClavicle_z;leftShoulder_x;leftShoulder_y;leftShoulder_z;leftElbow_x;leftElbow_y;leftElbow_z;leftWrist_x;leftWrist_y;leftWrist_z;rightHip_x;rightHip_y;rightHip_z;rightKnee_x;rightKnee_y;rightKnee_z;rightAnkle_x;rightAnkle_y;rightAnkle_z;leftHip_x;leftHip_y;leftHip_z;leftKnee_x;leftKnee_y;leftKnee_z;leftAnkle_x;leftAnkle_y;leftAnkle_z;
980101.961;NotLabelled;NONE;16384;0.7428486;-0.5304709;-0.3365651;-0.2313019;27;-4;-15;-412;4032;1619;65536;0.536011;-0.5886785;-0.5290859;-0.2936288;18;-31;-1;-2792;4537;-2164;8192;-0.16759;0.1426593;-0.8300248;-0.5124654;15;-3;35;-16;3823;2125;32768;-0.2756233;0.07063711;0.7744079;0.5650969;-29;27;-23;2063;4501;-2932;256;0.5817174;-0.6657355;0.3213296;0.3393352;-4;2;3;-185;4056;-397;128;0.567867;-0.7175291;0.2091413;0.3448753;2;0;-1;-325;3941;1156;4;0.6177285;-0.6365272;-0.3878116;-0.2506925;0;-6;0;666;3932;240;16;-0.08033241;0.03047091;0.6301939;0.7716696;0;-1;0;369;4111;812;2;-0.1952908;0.2534626;-0.6592798;-0.6804178;0;0;0;-338;3982;-194;8;-0.0401662;0.1315789;0.6232687;0.7698116;0;0;0;-387;4139;903;0.5776853;2.793012;0.1991065;0.5836704;3.33844;0.2087654;0.5889318;3.817907;0.2152332;0.5636073;4.545965;0.3032856;0.293654;4.865138;0.3045611;-0.04234248;4.706574;0.3504225;-0.3478872;3.83768;0.2504539;-0.2578399;2.94775;-0.06213754;0.8136834;4.88323;0.3045605;1.107531;4.746576;0.350422;1.511412;3.881834;0.2186054;1.489346;3.02085;-0.176372;0.2654322;2.751075;0.1906472;0.2678438;1.315935;-0.09435293;0;0;0;0.2654322;2.751075;0.1906472;0.2678438;1.315935;-0.09435293;0;0;0
980123.231;NotLabelled;NONE;16384;0.7423035;-0.533241;-0.33241;-0.232687;21;-11;-18;-322;4050;1761;65536;0.5373961;-0.5901512;-0.5290859;-0.2880886;32;-23;-35;-3962;4441;-2282;8192;-0.1717452;0.1371191;-0.8283927;-0.5152354;14;-12;41;80;3757;1981;32768;-0.2700831;0.06925207;0.7744587;0.567867;-5;34;-10;2131;4281;-3380;256;0.5817174;-0.6657355;0.3213296;0.3393352;-7;0;3;-223;4012;-399;128;0.567867;-0.7175291;0.2091413;0.3448753;3;0;-2;-419;3969;1074;4;0.6191136;-0.6374066;-0.3850415;-0.2493075;0;-12;2;660;4040;268;16;-0.08033241;0.03047091;0.6301939;0.7716696;0;-1;0;315;4179;852;2;-0.1952908;0.2534626;-0.6592798;-0.6804178;-1;0;0;-210;4044;-202;8;-0.04155125;0.1315789;0.6232687;0.769738;1;-1;0;-457;4149;937;0.5776783;2.793039;0.1989684;0.5836638;3.338496;0.2068594;0.5889253;3.817981;0.211773;0.5648418;4.546363;0.2974567;0.2954369;4.866002;0.2976649;-0.04083619;4.708166;0.3440034;-0.3344957;3.833557;0.2594267;-0.2547247;2.941176;-0.04893801;0.8154966;4.8832;0.297664;1.109104;4.746192;0.3440022;1.51075;3.878791;0.223294;1.489382;3.01257;-0.1601013;0.265425;2.751075;0.1906562;0.2678476;1.315934;-0.09434316;0;0;0;0.265425;2.751075;0.1906562;0.2678476;1.315934;-0.09434316;0;0;0
980144.0335;NotLabelled;NONE;16384;0.7427207;-0.534626;-0.3282548;-0.234072;14;-22;-19;-226;4114;1883;65536;0.5387812;-0.591051;-0.5318559;-0.2783934;34;-18;-53;-3684;3983;-2204;8192;-0.1814404;0.1301939;-0.823967;-0.5207756;16;9;35;-56;3889;1705;32768;-0.2631579;0.05817174;0.7767342;0.5692521;16;42;4;2169;3627;-2960;256;0.5831025;-0.6645227;0.3213296;0.3393352;-3;-1;4;-215;4032;-359;128;0.567867;-0.7175291;0.2091413;0.3448753;3;-1;-2;-297;3953;1048;4;0.6191136;-0.6379466;-0.3850415;-0.2479224;-6;0;1;736;3934;70;16;-0.08033241;0.03047091;0.6301939;0.7716696;1;-4;0;471;4141;858;2;-0.1952908;0.2534626;-0.6592798;-0.6804178;0;1;-1;-244;4058;-186;8;-0.04155125;0.1315789;0.6232687;0.769738;0;0;0;-471;4113;975;0.5792954;2.793619;0.1960393;0.5852808;3.339076;0.2039302;0.5905423;3.818562;0.2088439;0.5664588;4.546945;0.2945276;0.2970539;4.866583;0.2947357;-0.03921914;4.708747;0.3410743;-0.3277559;3.831797;0.2633926;-0.2490789;2.941925;-0.05241524;0.8171136;4.883781;0.2947349;1.110721;4.746774;0.341073;1.511716;3.877279;0.2340252;1.494103;3.008389;-0.1434764;0.267042;2.751655;0.1877272;0.2678475;1.315934;-0.09434305;0;0;0;0.267042;2.751655;0.1877272;0.2678475;1.315934;-0.09434305;0;0;0
980164.9508;NotLabelled;NONE;16384;0.7445832;-0.536011;-0.3227147;-0.232687;3;-34;-15;48;4196;1929;65536;0.5373961;-0.5924126;-0.536011;-0.2700831;26;-14;-49;-2918;3759;-1860;8192;-0.1869806;0.1315789;-0.8207467;-0.5235457;16;22;26;-376;3873;1549;32768;-0.2603878;0.05263158;0.7790732;0.567867;12;34;0;1591;3265;-2522;256;0.5844875;-0.6633048;0.3213296;0.3393352;-3;-4;2;-181;3916;-295;128;0.5692521;-0.7157624;0.2091413;0.3462604;3;-2;-2;-341;3953;994;4;0.6191136;-0.6379466;-0.3850415;-0.2479224;-1;1;0;894;3828;128;16;-0.08033241;0.03047091;0.6301939;0.7716696;1;-4;0;301;4145;838;2;-0.1952908;0.2548476;-0.6592798;-0.6799002;0;0;-1;-328;4064;-132;8;-0.04155125;0.132964;0.6232687;0.7695;1;0;0;-483;4075;1015;0.578858;2.793037;0.1989971;0.5848435;3.338494;0.2068881;0.5901051;3.81798;0.2118017;0.5672658;4.546677;0.2951121;0.2984112;4.866778;0.2942508;-0.03813767;4.709671;0.3410662;-0.3244204;3.831356;0.2708317;-0.2476842;2.947275;-0.06129641;0.8184996;4.883082;0.2942504;1.111866;4.74572;0.3410661;1.509194;3.871741;0.260036;1.493363;3.004798;-0.1219934;0.2666047;2.751073;0.1906849;0.2678512;1.315935;-0.09433213;0;0;0;0.2666047;2.751073;0.1906849;0.2678512;1.315935;-0.09433213;0;0;0
980185.1232;NotLabelled;NONE;16384;0.7466581;-0.5373961;-0.3185596;-0.2285319;-6;-39;-6;472;4160;1941;65536;0.536011;-0.5930098;-0.5401662;-0.2631579;17;-3;-41;-2050;3551;-1316;8192;-0.1911357;0.134349;-0.818453;-0.5249307;15;31;19;-728;3817;1489;32768;-0.2576177;0.04709141;0.7803477;0.567867;3;35;-5;1011;3115;-1672;256;0.5844875;-0.662632;0.3227147;0.3393352;-3;-6;2;-153;3944;-285;128;0.5692521;-0.7153562;0.2105263;0.3462604;1;-2;-2;-381;3929;1068;4;0.6191136;-0.6371086;-0.3864266;-0.2479224;3;-1;2;888;3878;272;16;-0.08033241;0.03047091;0.6315789;0.7705364;2;1;0;225;4119;808;2;-0.1939058;0.2534626;-0.6592798;-0.6808138;0;-4;0;-390;4032;-228;8;-0.04155125;0.1315789;0.6232687;0.769738;1;0;0;-371;4037;949;0.5788518;2.793063;0.1988609;0.5848374;3.338543;0.2050073;0.5900991;3.818042;0.2083873;0.568508;4.547046;0.289319;0.3002057;4.867604;0.2873868;-0.03661799;4.711231;0.3346803;-0.3229221;3.832393;0.2714236;-0.2431539;2.954725;-0.07661741;0.8203214;4.883011;0.2873859;1.113447;4.745298;0.3346788;1.506009;3.868312;0.2635235;1.493129;3.003928;-0.1243728;0.2665981;2.751073;0.190694;0.2678545;1.315935;-0.09432289;0;0;0;0.2665981;2.751073;0.190694;0.2678545;1.315935;-0.09432289;0;0;0
980205.9303;NotLabelled;NONE;16384;0.7511345;-0.536011;-0.3171745;-0.2188366;-24;-11;15;1368;3952;1795;65536;0.5318559;-0.592835;-0.5470914;-0.2576177;0;23;-18;-1288;3367;-666;8192;-0.1939058;0.1398892;-0.81598;-0.5263157;13;33;11;-1064;3807;1577;32768;-0.2534626;0.04432133;0.7808613;0.5692521;-2;34;-6;973;3021;-1200;256;0.5844875;-0.661921;0.3227147;0.3407202;-2;-6;1;-103;4022;-209;128;0.5692521;-0.7153562;0.2105263;0.3462604;1;-1;-2;-429;3961;984;4;0.6191136;-0.6371086;-0.3864266;-0.2479224;0;1;1;710;3902;332;16;-0.08033241;0.03047091;0.6315789;0.7705364;1;2;1;401;4083;740;2;-0.1939058;0.2534626;-0.6592798;-0.6808138;1;-7;0;-328;3926;-284;8;-0.04155125;0.132964;0.6232687;0.7695;1;-2;0;-381;4091;929;0.5765234;2.793511;0.2049185;0.5825092;3.338998;0.2103786;0.5877708;3.818501;0.2131555;0.5651519;4.547617;0.2927808;0.2963998;4.867795;0.2902604;-0.04020666;4.711035;0.3378156;-0.3276288;3.832462;0.2759467;-0.2447784;2.960703;-0.0859509;0.8164935;4.883933;0.2902597;1.109809;4.746716;0.3378147;1.499131;3.867802;0.2728974;1.487925;3.005028;-0.1186165;0.2642696;2.751511;0.1968087;0.2643823;1.316886;-0.09078418;0;0;0;0.2642696;2.751511;0.1968087;0.2643823;1.316886;-0.09078418;0;0;0
980226.9439;NotLabelled;NONE;16384;0.7515545;-0.534626;-0.3213296;-0.2146814;-26;10;21;1234;3738;1653;65536;0.5304709;-0.5896147;-0.5512465;-0.2590028;-3;40;-8;-1274;3455;-594;8192;-0.1952908;0.1440443;-0.814926;-0.5263157;13;24;4;-1172;3631;1697;32768;-0.2493075;0.04155125;0.7803268;0.5720221;-11;27;-12;1075;3021;-1174;256;0.5844875;-0.6612439;0.3240997;0.3407202;0;-3;1;-79;4040;-259;128;0.5692521;-0.7146841;0.2105263;0.3476454;1;0;-1;-501;3931;1040;4;0.6191136;-0.6376458;-0.3864266;-0.2465374;-2;-3;2;848;3946;326;16;-0.08033241;0.03047091;0.6315789;0.7705364;0;-1;0;429;4187;754;2;-0.1925208;0.2520775;-0.6592798;-0.6817205;1;-4;0;-294;4014;-168;8;-0.04155125;0.132964;0.6232687;0.7695;0;0;0;-401;4105;901;0.5760664;2.793511;0.2055308;0.5820522;3.338998;0.210991;0.5873138;3.818501;0.2137677;0.5662107;4.547663;0.2933881;0.2981249;4.868399;0.2908655;-0.03880668;4.712338;0.3384218;-0.3356714;3.837512;0.2685711;-0.2455427;2.972889;-0.1083903;0.818251;4.883455;0.2908649;1.111281;4.745629;0.338421;1.495428;3.864268;0.2758972;1.487689;3.000594;-0.1137098;0.2638127;2.751511;0.1974208;0.2645921;1.316885;-0.09017104;0;0;0;0.2638127;2.751511;0.1974208;0.2645921;1.316885;-0.09017104;0;0;0
980247.9409;NotLabelled;NONE;16384;0.7519169;-0.5318559;-0.3268698;-0.2119114;-24;27;25;888;3662;1447;65536;0.5277008;-0.5863521;-0.5554016;-0.2631579;-4;43;-3;-1162;3551;-562;8192;-0.1939058;0.1481994;-0.8127149;-0.5290859;17;-12;-3;-764;3593;1609;32768;-0.2396122;0.0401662;0.7783268;0.5789474;-29;24;-24;1077;3247;-1152;256;0.5844875;-0.661921;0.3227147;0.3407202;6;3;0;-1;4062;-387;128;0.5692521;-0.7146841;0.2105263;0.3476454;0;0;0;-463;3947;1102;4;0.6191136;-0.6381796;-0.3864266;-0.2451524;-1;-5;1;776;3880;226;16;-0.08033241;0.03047091;0.6315789;0.7705364;0;1;0;329;4139;724;2;-0.1911357;0.2520775;-0.6606648;-0.6807687;0;-2;0;-290;4030;-196;8;-0.04293629;0.132964;0.6232687;0.769424;0;0;0;-417;4143;859;0.5752067;2.792917;0.2090346;0.5811925;3.338404;0.2145211;0.5864542;3.817906;0.2173211;0.5643296;4.547181;0.2956295;0.2957967;4.867537;0.2925169;-0.04091944;4.711093;0.3403369;-0.3418051;3.838558;0.259843;-0.2512285;2.975252;-0.1200196;0.8159012;4.88332;0.2925152;1.10912;4.745988;0.3403335;1.491158;3.863759;0.2771249;1.484588;2.998223;-0.1083502;0.2629529;2.750917;0.2009224;0.2647837;1.316885;-0.08960674;0;0;0;0.2629529;2.750917;0.2009224;0.2647837;1.316885;-0.08960674;0;0;0
980267.9462;NotLabelled;NONE;16384;0.7508279;-0.5290859;-0.333795;-0.2119114;-19;37;25;492;3686;1239;65536;0.5263157;-0.5837108;-0.5581717;-0.265928;-1;39;0;-1118;3671;-598;8192;-0.1897507;0.1481994;-0.8118872;-0.5318559;19;-23;-9;-468;3635;1499;32768;-0.234072;0.0401662;0.7769095;0.5831025;-35;23;-28;1199;3403;-1074;256;0.5844875;-0.6625944;0.3213296;0.3407202;4;5;1;7;3974;-413;128;0.5692521;-0.7150907;0.2091413;0.3476454;-1;2;-1;-457;3903;1118;4;0.6191136;-0.6381796;-0.3864266;-0.2451524;0;-2;0;802;3854;184;16;-0.08033241;0.03047091;0.6315789;0.7705364;0;0;0;347;4101;748;2;-0.1911357;0.2520775;-0.6606648;-0.6807687;0;1;-1;-286;4006;-204;8;-0.04293629;0.132964;0.6232687;0.769424;0;0;0;-371;4085;887;0.5752152;2.792318;0.2114131;0.581201;3.337805;0.2168995;0.5864626;3.817307;0.2196995;0.5653595;4.546471;0.2993199;0.2972737;4.867206;0.2967973;-0.03965786;4.711146;0.3443535;-0.3464958;3.841582;0.2546912;-0.2545519;2.978221;-0.1247172;0.8173998;4.882262;0.2967966;1.11043;4.744436;0.3443527;1.483887;3.858971;0.2753958;1.47941;2.986781;-0.09481096;0.2629615;2.750319;0.203301;0.2645921;1.316885;-0.09017108;0;0;0;0.2629615;2.750319;0.203301;0.2645921;1.316885;-0.09017108;0;0;0
980309.952;NotLabelled;NONE;16384;0.7492704;-0.5263157;-0.3407202;-0.2132964;-14;35;24;154;3760;1043;65536;0.5249307;-0.5803853;-0.5609418;-0.2700831;2;30;1;-1080;3825;-618;8192;-0.1855956;0.1468144;-0.8112798;-0.534626;21;-25;-13;-202;3665;1427;32768;-0.2285319;0.04155125;0.7743039;0.5886427;-37;25;-30;987;3597;-900;256;0.5844875;-0.6632643;0.3199446;0.3407202;3;6;1;-59;4042;-499;128;0.5692521;-0.7150907;0.2091413;0.3476454;-1;3;0;-467;3943;1094;4;0.6191136;-0.6381796;-0.3864266;-0.2451524;0;0;0;818;3898;220;16;-0.08033241;0.03047091;0.6315789;0.7705364;0;-1;0;357;4113;748;2;-0.1911357;0.2520775;-0.6606648;-0.6807687;0;1;0;-282;3984;-200;8;-0.04293629;0.132964;0.6232687;0.769424;0;0;0;-391;4141;935;0.5756471;2.792308;0.21091;0.5816328;3.337788;0.2170837;0.5868944;3.817286;0.2204877;0.566817;4.546333;0.3014145;0.2991809;4.867448;0.2994801;-0.03796668;4.711777;0.3467742;-0.3481405;3.844416;0.2477411;-0.2567659;2.980917;-0.1314903;0.8193275;4.881776;0.2994795;1.112166;4.743455;0.3467735;1.479064;3.855705;0.2722081;1.475461;2.979375;-0.08809906;0.2633935;2.750318;0.2027408;0.2643996;1.316885;-0.09073397;0;0;0;0.2633935;2.750318;0.2027408;0.2643996;1.316885;-0.09073397;0;0;0
980331.063;NotLabelled;NONE;16384;0.7465875;-0.5235457;-0.3490305;-0.2160665;-7;14;22;-292;3692;1031;65536;0.5263157;-0.5764819;-0.5623268;-0.2728532;8;4;0;-972;3859;-548;8192;-0.1814404;0.1454294;-0.8106387;-0.5373961;22;-20;-16;0;3759;1259;32768;-0.2216066;0.04155125;0.7720821;0.5941828;-32;27;-29;1019;3879;-878;256;0.5844875;-0.6639307;0.3185596;0.3407202;3;7;1;-125;4038;-527;128;0.5692521;-0.7154943;0.2077562;0.3476454;-1;4;0;-421;3971;1136;4;0.6191136;-0.6381796;-0.3864266;-0.2451524;0;1;0;892;3954;266;16;-0.08033241;0.03047091;0.6315789;0.7705364;0;-1;0;379;4153;754;2;-0.1911357;0.2520775;-0.6606648;-0.6807687;0;-1;-1;-290;4000;-254;8;-0.04293629;0.132964;0.6232687;0.769424;0;0;0;-379;4133;915;0.576077;2.792308;0.2103505;0.5820627;3.337788;0.2165242;0.5873244;3.817286;0.2199282;0.5682767;4.546216;0.3021559;0.3010926;4.86771;0.3008071;-0.03627174;4.712428;0.3478399;-0.3489362;3.846844;0.2413805;-0.258672;2.982372;-0.1358955;0.8212589;4.881305;0.3008068;1.113905;4.742488;0.34784;1.474833;3.85273;0.2682459;1.470651;2.970973;-0.07856143;0.2638234;2.750318;0.2021812;0.2642064;1.316885;-0.09129521;0;0;0;0.2638234;2.750318;0.2021812;0.2642064;1.316885;-0.09129521;0;0;0
980353.106;NotLabelled;NONE;16384;0.745429;-0.5235457;-0.3531856;-0.2132964;-1;-5;17;-244;3682;1211;65536;0.5277008;-0.5752143;-0.5623268;-0.2728532;9;-6;-1;-926;3807;-534;8192;-0.1745152;0.1454294;-0.8075327;-0.5443213;23;-10;-12;276;3773;1123;32768;-0.2091413;0.0401662;0.7691871;0.602493;-20;32;-28;1067;4101;-1262;256;0.5844875;-0.6645935;0.3171745;0.3407202;3;8;1;-113;4024;-519;128;0.5692521;-0.7154943;0.2077562;0.3476454;-1;4;0;-425;3931;1198;4;0.6191136;-0.6381796;-0.3864266;-0.2451524;0;2;0;694;3892;286;16;-0.08033241;0.03047091;0.6315789;0.7705364;0;2;0;367;4093;780;2;-0.1911357;0.2520775;-0.6606648;-0.6807687;0;0;0;-224;4002;-352;8;-0.04293629;0.132964;0.6232687;0.769424;0;0;0;-441;4049;903;0.5765047;2.792298;0.2098478;0.5824904;3.337769;0.2167049;0.587752;3.817263;0.2207097;0.5697383;4.546072;0.3042327;0.3030087;4.867945;0.3034674;-0.03457254;4.713057;0.3502403;-0.3475643;3.848842;0.2340581;-0.2637596;2.983079;-0.1417446;0.8231937;4.880805;0.3034667;1.115645;4.741492;0.3502394;1.470853;3.849743;0.2672413;1.467079;2.962906;-0.06636328;0.2642512;2.750318;0.2016216;0.2640123;1.316885;-0.09185484;0;0;0;0.2642512;2.750318;0.2016216;0.2640123;1.316885;-0.09185484;0;0;0
980373.945;NotLabelled;NONE;16384;0.7448499;-0.5249307;-0.3531856;-0.2119114;1;-8;13;-186;3728;1339;65536;0.5290859;-0.5759492;-0.5609418;-0.2714681;11;-9;-2;-1076;3833;-580;8192;-0.1731302;0.1454294;-0.8050154;-0.5484765;26;-3;-8;390;3731;1149;32768;-0.2022161;0.03878116;0.7689351;0.6052631;-14;35;-28;1037;4131;-1278;256;0.5844875;-0.6652527;0.3157895;0.3407202;3;6;2;-131;4024;-547;128;0.5692521;-0.716566;0.2063712;0.3462604;-2;3;0;-431;3921;1226;4;0.6191136;-0.6381796;-0.3864266;-0.2451524;0;1;0;730;3860;312;16;-0.08033241;0.03047091;0.6315789;0.7705364;0;1;0;357;4139;784;2;-0.1911357;0.2520775;-0.6592798;-0.6821101;0;0;-1;-286;4032;-246;8;-0.04293629;0.132964;0.6232687;0.769424;0;1;0;-425;4111;945;0.5769301;2.792298;0.2092893;0.5829157;3.337769;0.2161463;0.5881773;3.817263;0.2201511;0.5712013;4.545948;0.3049639;0.3049287;4.8682;0.3047795;-0.03286999;4.713708;0.351293;-0.3460047;3.850764;0.2263826;-0.2664819;2.984756;-0.1497843;0.8251314;4.880322;0.3047789;1.117387;4.740511;0.3512925;1.456612;3.843196;0.2616983;1.45545;2.949037;-0.05177474;0.2646766;2.750318;0.201063;0.2638177;1.316886;-0.09241234;0;0;0;0.2646766;2.750318;0.201063;0.2638177;1.316886;-0.09241234;0;0;0
980395.0685;NotLabelled;NONE;16384;0.7436062;-0.5263157;-0.3545706;-0.2105263;1;-3;5;16;3800;1551;65536;0.5304709;-0.5759742;-0.5609418;-0.2686981;9;-2;-5;-1074;3789;-624;8192;-0.1717452;0.1468144;-0.8002988;-0.5554016;30;15;-2;236;3885;1381;32768;-0.1883656;0.033241;0.7694302;0.6094183;-3;44;-19;677;4257;-868;256;0.5844875;-0.6659084;0.3144044;0.3407202;3;5;2;-25;4038;-557;128;0.5692521;-0.7169634;0.2049861;0.3462604;-1;4;1;-447;4003;1208;4;0.6191136;-0.6381796;-0.3864266;-0.2451524;0;0;-1;746;3920;290;16;-0.08033241;0.03047091;0.6315789;0.7705364;0;0;0;379;4187;796;2;-0.1925208;0.2520775;-0.6606648;-0.6803784;-1;1;0;-288;4014;-226;8;-0.04155125;0.132964;0.6232687;0.7695;0;1;0;-429;4121;991;0.5773532;2.792288;0.208785;0.5833387;3.337751;0.2162941;0.5886003;3.81724;0.2208721;0.5726659;4.545796;0.3069691;0.3068529;4.868428;0.3073633;-0.03116389;4.714336;0.3536185;-0.3425809;3.85095;0.2274791;-0.2656507;2.984883;-0.1490931;0.8270724;4.879809;0.3073627;1.11913;4.7395;0.3536179;1.44936;3.838803;0.2643579;1.451772;2.941953;-0.04132569;0.2650998;2.750319;0.2005046;0.2636223;1.316885;-0.0929683;0;0;0;0.2650998;2.750319;0.2005046;0.2636223;1.316885;-0.0929683;0;0;0
980436.0079;NotLabelled;NONE;16384;0.7445845;-0.5249307;-0.3545706;-0.2105263;0;0;0;162;3788;1671;65536;0.5318559;-0.575341;-0.5609418;-0.267313;4;0;-4;-1110;3811;-786;8192;-0.1731302;0.1495845;-0.7965844;-0.5595568;29;19;0;18;4011;1533;32768;-0.1814404;0.03047091;0.7701105;0.6108033;0;40;-15;1025;4159;-1080;256;0.5844875;-0.6665605;0.3130194;0.3407202;4;5;1;-63;4048;-539;128;0.5692521;-0.7176307;0.2049861;0.3448753;-1;4;0;-465;3991;1170;4;0.6191136;-0.6381796;-0.3864266;-0.2451524;0;2;-1;808;3938;302;16;-0.08033241;0.03047091;0.6315789;0.7705364;0;1;0;419;4149;824;2;-0.1925208;0.2520775;-0.6606648;-0.6803784;0;2;1;-228;4046;-256;8;-0.04155125;0.1315789;0.6232687;0.769738;0;2;0;-393;4127;961;0.5777744;2.792278;0.2082833;0.5837598;3.337731;0.2164688;0.5890213;3.817214;0.2216413;0.5741325;4.54564;0.3090169;0.3087813;4.868651;0.3099873;-0.0294539;4.714962;0.3559852;-0.338516;3.851243;0.2263767;-0.2648887;2.986583;-0.1540703;0.8290167;4.879287;0.3099867;1.120875;4.73848;0.3559844;1.43548;3.832078;0.2680403;1.445745;2.931598;-0.02660984;0.265521;2.750318;0.1999466;0.2634262;1.316886;-0.09352258;0;0;0;0.265521;2.750318;0.1999466;0.2634262;1.316886;-0.09352258;0;0;0
980456.9544;NotLabelled;NONE;16384;0.7445845;-0.5249307;-0.3545706;-0.2105263;-1;2;-3;278;3864;1701;65536;0.5318559;-0.5739874;-0.5623268;-0.267313;0;4;-4;-1226;3801;-874;8192;-0.1759003;0.1537396;-0.792245;-0.5637119;21;16;6;-68;4059;1747;32768;-0.1731302;0.02216066;0.7701055;0.6135734;-4;30;-9;947;4109;-1266;256;0.5844875;-0.6672092;0.3116343;0.3407202;3;6;2;-125;4032;-519;128;0.5692521;-0.7180248;0.2036011;0.3448753;-1;3;0;-417;3943;1104;4;0.6191136;-0.6368044;-0.3878116;-0.2465374;1;4;-2;772;3946;228;16;-0.08033241;0.03047091;0.6315789;0.7705364;1;0;0;407;4147;766;2;-0.1925208;0.2520775;-0.6592798;-0.6817205;0;3;0;-278;3978;-312;8;-0.04155125;0.1315789;0.6232687;0.769738;0;2;0;-349;4169;901;0.5781929;2.792278;0.2077236;0.5841783;3.337732;0.2158806;0.5894399;3.817214;0.2210282;0.5756004;4.545509;0.3096768;0.3107137;4.868898;0.311221;-0.02774033;4.715615;0.3569622;-0.3399643;3.85285;0.2285755;-0.2701588;2.988789;-0.153946;0.8309635;4.878787;0.3112206;1.122621;4.73748;0.3569618;1.427072;3.827399;0.2712953;1.441929;2.925502;-0.01878637;0.2659397;2.750319;0.1993891;0.2632293;1.316886;-0.0940749;0;0;0;0.2659397;2.750319;0.1993891;0.2632293;1.316886;-0.0940749;0;0;0
980478.0021;NotLabelled;NONE;16384;0.7451665;-0.5235457;-0.3545706;-0.2119114;-4;6;-4;444;3886;1709;65536;0.5318559;-0.5733403;-0.5623268;-0.2686981;-2;7;-1;-1262;3749;-814;8192;-0.1786704;0.1565097;-0.7900931;-0.5650969;18;15;8;-210;4057;1781;32768;-0.1689751;0.02077562;0.7699623;0.6149584;-6;21;-6;1031;4105;-1396;256;0.5844875;-0.6685592;0.3102493;0.3393352;3;7;1;-89;4076;-517;128;0.5692521;-0.7186884;0.2036011;0.3434903;1;4;0;-449;3999;1086;4;0.6177285;-0.6376112;-0.3878116;-0.2479224;1;4;-2;690;3918;272;16;-0.08033241;0.03047091;0.6315789;0.7705364;0;0;0;365;4141;732;2;-0.1925208;0.2520775;-0.6592798;-0.6817205;0;3;0;-282;4032;-238;8;-0.04155125;0.1315789;0.6232687;0.769738;0;2;0;-349;4147;899;0.5807668;2.792342;0.2068283;0.5867521;3.337785;0.2156579;0.5920135;3.817261;0.2213968;0.5792274;4.545419;0.311313;0.3148075;4.869186;0.3134288;-0.02386591;4.716312;0.3589145;-0.3363529;3.853548;0.23117;-0.2685425;2.99015;-0.1532018;0.835071;4.878325;0.3134282;1.126526;4.736518;0.3589137;1.420196;3.82261;0.2764192;1.43526;2.919883;-0.01105744;0.2685137;2.750392;0.198438;0.2630318;1.316885;-0.09462564;0;0;0;0.2685137;2.750392;0.198438;0.2630318;1.316885;-0.09462564;0;0;0
980497.9495;NotLabelled;NONE;16384;0.745478;-0.5221606;-0.3559557;-0.2119114;-8;12;-3;596;3908;1761;65536;0.5304709;-0.5739723;-0.5623268;-0.2700831;-7;13;1;-1486;3721;-816;8192;-0.1800554;0.1565097;-0.7887857;-0.566482;14;10;8;-370;4085;1753;32768;-0.16759;0.01939058;0.7703011;0.6149584;-8;10;-4;819;4085;-1378;256;0.5844875;-0.6692002;0.3088643;0.3393352;3;7;1;-93;4096;-551;128;0.5706371;-0.7179807;0.2022161;0.3434903;1;4;0;-437;4013;1090;4;0.6177285;-0.6376112;-0.3878116;-0.2479224;0;4;-1;744;3924;314;16;-0.08033241;0.03047091;0.6315789;0.7705364;0;2;0;401;4137;722;2;-0.1925208;0.2534626;-0.6592798;-0.6812068;0;2;0;-372;4018;-236;8;-0.04155125;0.1315789;0.6232687;0.769738;0;1;0;-465;4173;903;0.576449;2.792792;0.2035059;0.5824343;3.338235;0.212307;0.5876957;3.817712;0.2180207;0.5744692;4.545705;0.3092023;0.3098523;4.869307;0.3118887;-0.02872676;4.716148;0.3571191;-0.3437351;3.85382;0.2326669;-0.2780932;2.989596;-0.1502276;0.8301104;4.878762;0.3118879;1.121653;4.737054;0.3571182;1.410964;3.821618;0.2761726;1.426953;2.917654;-0.007342815;0.2641958;2.750842;0.1951179;0.2626112;1.316886;-0.0957869;0;0;0;0.2641958;2.750842;0.1951179;0.2626112;1.316886;-0.0957869;0;0;0
980517.9486;NotLabelled;NONE;16384;0.7463549;-0.5193906;-0.3573407;-0.2132964;-12;20;-2;570;3884;1823;65536;0.5290859;-0.5712134;-0.5650969;-0.2728532;-11;41;4;-1522;3743;-584;8192;-0.1814404;0.1578947;-0.7881921;-0.566482;9;5;9;-466;4083;1637;32768;-0.166205;0.01800554;0.7695274;0.6163435;-10;5;-2;873;4039;-1488;256;0.5844875;-0.6698377;0.3074792;0.3393352;4;6;1;-157;4084;-499;128;0.5706371;-0.7179807;0.2022161;0.3434903;2;4;0;-403;3941;1094;4;0.6177285;-0.637071;-0.3878116;-0.2493075;0;2;0;696;3950;334;16;-0.08033241;0.02908587;0.6315789;0.7705899;0;3;0;413;4137;768;2;-0.1939058;0.2534626;-0.6592798;-0.6808138;-1;1;0;-372;4008;-180;8;-0.04155125;0.1315789;0.6232687;0.769738;0;1;0;-375;4111;951;0.5768552;2.792809;0.2028627;0.5828407;3.338268;0.2105559;0.5881022;3.817756;0.2152957;0.5759385;4.545609;0.3077336;0.3117933;4.869591;0.3109865;-0.02700713;4.716847;0.3559632;-0.3445246;3.855584;0.2305137;-0.2766472;2.990756;-0.1506181;0.8320644;4.878288;0.310986;1.123401;4.736078;0.3559625;1.410005;3.819558;0.2777061;1.426296;2.915693;-0.006109625;0.2646019;2.750842;0.1945668;0.2624111;1.316885;-0.09633401;0;0;0;0.2646019;2.750842;0.1945668;0.2624111;1.316885;-0.09633401;0;0;0
980537.9473;NotLabelled;NONE;16384;0.7469972;-0.5124654;-0.3642659;-0.2160665;-20;36;0;596;3914;1823;65536;-0.5207756;0.5637119;0.5741211;0.2853186;-21;57;1;-1838;3803;-274;8192;-0.1828255;0.1578947;-0.7868742;-0.567867;4;1;10;-378;4085;1685;32768;-0.166205;0.01800554;0.7695274;0.6163435;-11;1;-2;909;4011;-1454;256;0.5844875;-0.6705375;0.3074792;0.3379501;4;8;1;-151;4066;-433;128;0.5706371;-0.7179807;0.2022161;0.3434903;3;3;-1;-397;4023;1130;4;0.6177285;-0.637071;-0.3878116;-0.2493075;0;0;0;644;3934;280;16;-0.08033241;0.02908587;0.6315789;0.7705899;0;2;0;417;4161;806;2;-0.1939058;0.2548476;-0.6592798;-0.6802966;-1;1;-1;-190;4018;-230;8;-0.04155125;0.1315789;0.6232687;0.769738;0;1;0;-411;4143;931;0.5790725;2.793195;0.2021208;0.5850579;3.338655;0.2098141;0.5903194;3.818141;0.2145539;0.5790274;4.545852;0.3082194;0.3153488;4.870214;0.3114883;-0.02376556;4.717889;0.3555071;-0.3464421;3.858833;0.2281052;-0.2784568;2.993892;-0.152754;0.835631;4.87815;0.3125695;1.126667;4.735438;0.3578986;1.411526;3.818384;0.2795269;1.4263;2.913888;-0.002355248;0.2668191;2.751228;0.193825;0.2642533;1.316677;-0.09412336;0;0;0;0.2668191;2.751228;0.193825;0.2642533;1.316677;-0.09412336;0;0;0
980558.944;NotLabelled;NONE;16384;0.7475261;-0.5069252;-0.368421;-0.2202216;-20;51;1;568;3784;1727;65536;-0.5152354;0.5609418;0.5783341;0.2922437;-23;78;-6;-2070;3905;-638;8192;-0.1842105;0.1565097;-0.7878257;-0.566482;-1;0;8;-302;3995;1519;32768;-0.1648199;0.0166205;0.7676305;0.6191136;-11;1;-2;1037;3913;-1316;256;0.5844875;-0.6711709;0.3060942;0.3379501;3;8;0;-141;4116;-497;128;0.5720221;-0.7168778;0.2022161;0.3434903;3;4;0;-403;3989;1088;4;0.6177285;-0.637071;-0.3878116;-0.2493075;0;3;-1;692;3930;258;16;-0.08033241;0.02908587;0.6315789;0.7705899;0;0;0;333;4127;834;2;-0.1939058;0.2548476;-0.6592798;-0.6802966;0;2;0;-194;4048;-248;8;-0.04155125;0.1315789;0.6232687;0.769738;0;1;0;-415;4103;961;0.5799247;2.793195;0.2009425;0.5859102;3.338655;0.2086358;0.5911717;3.818142;0.2133756;0.578583;4.545828;0.3070675;0.3142473;4.869649;0.3108861;-0.0244619;4.716629;0.3556093;-0.3558296;3.861238;0.2258701;-0.2813113;2.994469;-0.1495694;0.8345134;4.878652;0.3108855;1.125935;4.736535;0.3556086;1.409081;3.818696;0.2802836;1.422612;2.914201;-0.001660943;0.2676713;2.751228;0.1926466;0.2638358;1.316677;-0.09528769;0;0;0;0.2676713;2.751228;0.1926466;0.2638358;1.316677;-0.09528769;0;0;0
980578.9734;NotLabelled;NONE;16384;0.7459269;-0.5027701;-0.3739612;-0.2257618;-15;63;0;380;3638;1445;65536;-0.5083103;0.5554016;0.5855058;0.300554;-28;94;-9;-1650;3809;-1438;8192;-0.1855956;0.1551246;-0.7877746;-0.566482;-2;0;5;-330;3885;1369;32768;-0.1648199;0.0166205;0.7676305;0.6191136;-9;5;-2;819;3901;-1244;256;0.5844875;-0.6718009;0.3047091;0.3379501;1;7;1;-137;3986;-437;128;0.5720221;-0.7168778;0.2022161;0.3434903;3;2;0;-421;3935;1070;4;0.6177285;-0.637071;-0.3878116;-0.2493075;0;2;-1;674;3998;184;16;-0.08033241;0.02908587;0.6315789;0.7705899;0;0;0;365;4151;826;2;-0.1952908;0.2548476;-0.6592798;-0.6799002;0;3;0;-220;4026;-208;8;-0.0401662;0.1301939;0.6246537;0.7689239;0;1;0;-411;4115;955;0.5803075;2.793222;0.2002615;0.5862932;3.338704;0.2061759;0.5915549;3.818204;0.209352;0.5800301;4.545746;0.304288;0.3161705;4.869948;0.3086454;-0.0227659;4.71735;0.3530873;-0.3611563;3.865056;0.2211195;-0.2801663;2.997041;-0.1500801;0.8364491;4.878186;0.3086902;1.127659;4.735566;0.3531868;1.414724;3.81909;0.2761012;1.423769;2.91326;-0.001710385;0.2680539;2.751228;0.1921139;0.2636458;1.316677;-0.09581206;0;0;0;0.2680539;2.751228;0.1921139;0.2636458;1.316677;-0.09581206;0;0;0
980599.962;NotLabelled;NONE;16384;0.7447133;-0.4972299;-0.3795014;-0.232687;-9;63;4;162;3614;1197;65536;-0.501385;0.5484765;0.5936241;0.3088643;-31;83;-6;-442;3601;-1318;8192;-0.1855956;0.1551246;-0.7877746;-0.566482;0;-3;3;-384;3881;1229;32768;-0.1634349;0.0166205;0.7668079;0.6204986;-11;2;-2;1285;3799;-1304;256;0.5844875;-0.6731217;0.3033241;0.3365651;2;8;0;-151;4038;-539;128;0.5734072;-0.7157704;0.2022161;0.3434903;3;2;-1;-417;3957;1076;4;0.6177285;-0.6365272;-0.3878116;-0.2506925;0;2;-1;724;3918;270;16;-0.08033241;0.02908587;0.6315789;0.7705899;0;0;0;369;4107;808;2;-0.1952908;0.2548476;-0.6592798;-0.6799002;-1;3;-1;-260;3968;-220;8;-0.0401662;0.1301939;0.6246537;0.7689239;1;1;0;-457;4101;935;0.5807215;2.793222;0.1996816;0.5867072;3.338704;0.2055959;0.5919689;3.818204;0.2087721;0.5815282;4.5456;0.3049483;0.3181477;4.870182;0.3098882;-0.02100858;4.718009;0.354109;-0.3613667;3.866431;0.2225781;-0.2741333;2.997923;-0.1460411;0.838438;4.877653;0.3098872;1.129442;4.734528;0.3541075;1.417806;3.817942;0.2834466;1.42625;2.912113;0.005616874;0.2684678;2.751228;0.1915338;0.2634384;1.316677;-0.09638143;0;0;0;0.2684678;2.751228;0.1915338;0.2634384;1.316677;-0.09638143;0;0;0
980620.1452;NotLabelled;NONE;16384;0.7419571;-0.4944598;-0.3850415;-0.2382271;-8;52;6;-164;3638;1283;65536;-0.4958449;0.5429363;0.5989645;0.3171745;-34;79;-12;-1148;3747;-1304;8192;-0.1855956;0.1551246;-0.7877746;-0.566482;-1;-3;2;-316;3879;1195;32768;-0.1648199;0.01523546;0.7654169;0.6218836;-14;-2;-1;1603;3739;-822;256;0.5844875;-0.6744342;0.301939;0.33518;2;4;1;-149;4032;-449;128;0.5734072;-0.7157704;0.2022161;0.3434903;3;2;0;-459;3995;1082;4;0.6177285;-0.6365272;-0.3878116;-0.2506925;0;2;0;674;3870;216;16;-0.07894737;0.02908587;0.6315789;0.7707331;0;0;0;323;4151;732;2;-0.1952908;0.2562327;-0.6592798;-0.6793795;-1;2;-1;-316;4060;-224;8;-0.0401662;0.1301939;0.6246537;0.7689239;0;2;0;-455;4103;941;0.5818956;2.793837;0.1954166;0.5878816;3.339335;0.1995485;0.5931433;3.818844;0.2011578;0.5822898;4.546068;0.2985703;0.3187274;4.870495;0.3040462;-0.02034619;4.718057;0.3479877;-0.3655043;3.868497;0.2159118;-0.2741629;2.999886;-0.1514661;0.8390135;4.878257;0.3040894;1.130095;4.735218;0.3480838;1.417828;3.818872;0.2719533;1.424506;2.91204;-0.002632171;0.2696417;2.751817;0.1874173;0.2630202;1.316677;-0.09751613;0;0;0;0.2696417;2.751817;0.1874173;0.2630202;1.316677;-0.09751613;0;0;0
980640.9453;NotLabelled;NONE;16384;0.7415666;-0.4861496;-0.3919668;-0.2451524;-13;30;1;-356;3694;1461;65536;-0.4736842;0.5373961;0.6111895;0.3365651;-44;90;-27;-2204;4075;204;8192;-0.1855956;0.1551246;-0.7877746;-0.566482;-2;-2;1;-300;3899;1179;32768;-0.166205;0.01523546;0.7639895;0.6232687;-16;-6;-1;1357;3745;-982;256;0.5858725;-0.6732314;0.301939;0.33518;0;3;2;-101;3976;-441;128;0.5747922;-0.7146587;0.2022161;0.3434903;3;3;0;-395;3937;1028;4;0.6177285;-0.6365272;-0.3878116;-0.2506925;0;1;0;686;4008;182;16;-0.07894737;0.02908587;0.6315789;0.7707331;0;1;0;351;4111;778;2;-0.1952908;0.2562327;-0.6592798;-0.6793795;0;1;0;-312;3970;-184;8;-0.0401662;0.1301939;0.6246537;0.7689239;1;1;0;-431;4077;909;0.5813286;2.793972;0.1923021;0.5873145;3.33947;0.1964341;0.5925763;3.818979;0.1980433;0.5813357;4.546031;0.2966881;0.3175965;4.870304;0.3027421;-0.02138875;4.717606;0.3464626;-0.3654112;3.867622;0.2141591;-0.271358;2.997415;-0.1487343;0.8378782;4.878351;0.3027413;1.129043;4.735397;0.3464617;1.416774;3.818812;0.2732681;1.417025;2.911994;-0.001449406;0.2690747;2.751952;0.1843028;0.2611775;1.316812;-0.1005982;0;0;0;0.2690747;2.751952;0.1843028;0.2611775;1.316812;-0.1005982;0;0;0
980662.9489;NotLabelled;NONE;16384;0.7412587;-0.4833795;-0.3933518;-0.2493075;-7;23;0;-512;3638;1239;65536;-0.4653739;0.534626;0.6169004;0.3421052;-30;48;-17;-560;3683;-1032;8192;-0.1842105;0.1537396;-0.7873739;-0.567867;3;-5;-3;-194;3803;993;32768;-0.1634349;0.0166205;0.7622914;0.6260388;-10;4;-5;1021;3807;-906;256;0.5858725;-0.6732314;0.301939;0.33518;0;3;2;-93;4020;-549;128;0.5747922;-0.7153227;0.2022161;0.3421052;4;2;0;-455;3977;1092;4;0.6177285;-0.6365272;-0.3878116;-0.2506925;0;0;0;696;3882;302;16;-0.07894737;0.02908587;0.6315789;0.7707331;0;0;0;417;4131;790;2;-0.1966759;0.2562327;-0.6592798;-0.6789798;-1;0;0;-190;4030;-206;8;-0.0401662;0.1301939;0.6246537;0.7689239;1;1;0;-427;4059;909;0.5813257;2.793998;0.1921581;0.5873117;3.339507;0.1945048;0.5925735;3.819018;0.1945447;0.5825318;4.546406;0.2908079;0.3193293;4.871133;0.2957867;-0.01991017;4.719141;0.3399897;-0.3720348;3.872842;0.2053933;-0.2463927;3.000605;-0.1427605;0.8396236;4.878319;0.2957861;1.130549;4.735029;0.3399891;1.418276;3.818443;0.2667773;1.414299;2.911263;-0.006710351;0.2690715;2.751952;0.1843076;0.2611794;1.316812;-0.1005935;0;0;0;0.2690715;2.751952;0.1843076;0.2611794;1.316812;-0.1005935;0;0;0
980683.9401;NotLabelled;NONE;16384;0.7395837;-0.4833795;-0.3947368;-0.2520775;5;9;3;-316;3536;931;65536;-0.4598338;0.533241;0.619928;0.3462604;-23;13;-21;-778;3449;-760;8192;-0.1828255;0.1537396;-0.7876967;-0.567867;5;-6;-4;-128;3729;1021;32768;-0.1620499;0.0166205;0.7614479;0.6274238;-9;6;-6;907;3813;-622;256;0.5858725;-0.6738509;0.300554;0.33518;-1;3;3;-97;4068;-565;128;0.5747922;-0.7157128;0.200831;0.3421052;4;0;0;-477;3957;1110;4;0.6177285;-0.6365272;-0.3878116;-0.2506925;-1;0;0;708;3928;252;16;-0.07894737;0.02908587;0.6315789;0.7707331;0;-1;0;343;4061;782;2;-0.1966759;0.2562327;-0.6592798;-0.6789798;0;1;0;-284;4030;-262;8;-0.0401662;0.1301939;0.6246537;0.7689239;0;0;0;-409;4147;905;0.5813258;2.793998;0.1921558;0.5873117;3.339508;0.1944737;0.5925735;3.819018;0.1944883;0.5825318;4.546407;0.2907515;0.3193294;4.871134;0.2957303;-0.01991016;4.719142;0.3399333;-0.373946;3.873268;0.2077013;-0.2371325;3.001817;-0.1382054;0.8396237;4.87832;0.2957298;1.130549;4.735029;0.3399328;1.415965;3.817695;0.2670495;1.411813;2.908171;0.001465321;0.2690715;2.751952;0.1843076;0.2611795;1.316812;-0.1005934;0;0;0;0.2690715;2.751952;0.1843076;0.2611795;1.316812;-0.1005934;0;0;0
980703.9754;NotLabelled;NONE;16384;0.7386766;-0.4847645;-0.3947368;-0.2520775;14;-3;2;-166;3526;1047;65536;-0.4570637;0.536011;0.6195875;0.3462604;-16;-7;-20;-1160;3817;-480;8192;-0.1828255;0.1537396;-0.7866963;-0.5692521;4;-2;-3;-16;3827;1135;32768;-0.1606648;0.01523546;0.7606274;0.6288089;-5;7;-4;949;3959;-826;256;0.5872576;-0.6726441;0.300554;0.33518;-1;0;4;-89;4022;-455;128;0.5761772;-0.7142076;0.2022161;0.3421052;5;0;0;-383;3971;1104;4;0.6177285;-0.6365272;-0.3878116;-0.2506925;0;0;0;692;3868;228;16;-0.07894737;0.02908587;0.6315789;0.7707331;0;0;0;337;4113;726;2;-0.1966759;0.2576177;-0.6592798;-0.6784555;0;1;0;-340;4030;-228;8;-0.0401662;0.1301939;0.6246537;0.7689239;0;1;0;-427;4135;939;0.5817049;2.793989;0.1916561;0.5876908;3.339495;0.1946364;0.5929526;3.819005;0.1952335;0.5839987;4.546246;0.2927195;0.3212814;4.871356;0.2982505;-0.01818386;4.719797;0.342206;-0.3697906;3.872758;0.2109448;-0.2259944;3.001283;-0.1320562;0.8415859;4.877765;0.2982496;1.132298;4.733966;0.3422047;1.417174;3.816687;0.2665668;1.411886;2.906209;0.004291981;0.2694507;2.751952;0.1837529;0.2609715;1.316812;-0.1011313;0;0;0;0.2694507;2.751952;0.1837529;0.2609715;1.316812;-0.1011313;0;0;0
980724.9472;NotLabelled;NONE;16384;0.7371168;-0.4875346;-0.3933518;-0.2534626;16;0;-1;-118;3772;1157;65536;-0.4570637;0.5401662;0.6175174;0.3434903;2;-58;-15;-292;3987;-1060;8192;-0.1814404;0.1537396;-0.7870169;-0.5692521;5;2;0;6;3947;1161;32768;-0.1592798;0.01385042;0.7609451;0.6288089;-1;6;-3;897;4057;-1056;256;0.5872576;-0.6719522;0.300554;0.3365651;-2;-2;3;-103;4118;-503;128;0.5775623;-0.713088;0.2022161;0.3421052;5;1;0;-457;3991;1022;4;0.6177285;-0.6365272;-0.3878116;-0.2506925;0;0;0;768;3910;242;16;-0.07894737;0.02908587;0.6315789;0.7707331;0;0;0;381;4149;708;2;-0.1966759;0.2576177;-0.6592798;-0.6784555;0;1;0;-324;3998;-128;8;-0.0401662;0.1301939;0.6246537;0.7689239;0;0;0;-417;4129;913;0.5817025;2.794024;0.1914555;0.5876884;3.339538;0.1919849;0.5929502;3.819046;0.1904274;0.5851958;4.546617;0.2855267;0.3230165;4.872177;0.2899805;-0.01670037;4.721324;0.3344193;-0.3655442;3.873204;0.202773;-0.2146817;3.002352;-0.1387734;0.8433308;4.877726;0.2899795;1.133803;4.733591;0.3344179;1.415774;3.81532;0.2599416;1.4089;2.904286;-0.0003600121;0.269448;2.751952;0.1837565;0.2609729;1.316811;-0.1011277;0;0;0;0.269448;2.751952;0.1837565;0.2609729;1.316811;-0.1011277;0;0;0
980746.0108;NotLabelled;NONE;16384;0.7325547;-0.4958449;-0.3905817;-0.2548476;30;-19;1;-86;3692;1045;65536;-0.4722992;0.5567867;0.5993086;0.3282548;18;-119;22;-1504;4221;-2300;8192;-0.1828255;0.1537396;-0.7856922;-0.5706371;4;3;3;30;3937;1205;32768;-0.1592798;0.01385042;0.7609451;0.6288089;0;8;-2;975;3911;-1118;256;0.5872576;-0.6719522;0.300554;0.3365651;-2;-1;5;-139;4088;-541;128;0.5775623;-0.713088;0.2022161;0.3421052;5;2;0;-431;3997;1014;4;0.6177285;-0.6365272;-0.3878116;-0.2506925;0;0;0;734;3970;250;16;-0.07894737;0.02908587;0.632964;0.769596;0;0;0;415;4145;750;2;-0.1980609;0.2576177;-0.6592798;-0.6780525;0;1;-1;-368;4048;-220;8;-0.0401662;0.1301939;0.6246537;0.7689239;0;-1;0;-385;4131;907;0.5812744;2.794049;0.1919319;0.5872605;3.339562;0.19067;0.5925221;3.819062;0.1875381;0.5862539;4.546648;0.2826352;0.3247401;4.872744;0.2870878;-0.01528423;4.722584;0.3315268;-0.3581173;3.871724;0.2017906;-0.2025453;3.001872;-0.1401936;0.8450648;4.87723;0.2870874;1.135242;4.732501;0.3315263;1.416996;3.814287;0.2555459;1.411554;2.903332;-0.005067319;0.2690196;2.751952;0.1843822;0.2612078;1.316812;-0.1005205;0;0;0;0.2690196;2.751952;0.1843822;0.2612078;1.316812;-0.1005205;0;0;0
980766.9367;NotLabelled;NONE;16384;0.7316822;-0.5;-0.3878116;-0.2534626;29;-24;4;186;3756;1409;65536;-0.4792244;0.5581717;0.5940101;0.3254848;17;-18;21;-3326;3585;-1790;8192;-0.1842105;0.1537396;-0.7853687;-0.5706371;3;3;2;-146;3819;1479;32768;-0.1565097;0.01108033;0.7615651;0.6288089;-4;3;1;1199;3871;-970;256;0.5886427;-0.6707392;0.300554;0.3365651;-2;-4;6;-169;4040;-537;128;0.5789474;-0.7126278;0.2022161;0.3407202;6;3;-1;-411;4021;1060;4;0.6177285;-0.6365272;-0.3878116;-0.2506925;0;1;1;776;3974;280;16;-0.07894737;0.02908587;0.632964;0.769596;0;0;0;353;4157;800;2;-0.1980609;0.2590028;-0.6592798;-0.6775246;-1;1;0;-316;4040;-222;8;-0.0401662;0.1301939;0.6246537;0.7689239;0;0;0;-413;4103;921;0.577704;2.794985;0.1950371;0.58369;3.340498;0.1937752;0.5889517;3.819998;0.1906433;0.5826835;4.547584;0.2857408;0.3211697;4.87368;0.2901936;-0.01885474;4.72352;0.3346325;-0.3454513;3.86581;0.2081549;-0.1998889;2.994644;-0.1348884;0.8414943;4.878165;0.290193;1.131672;4.733437;0.334632;1.410916;3.814184;0.2620296;1.405473;2.903228;0.001416147;0.2654491;2.752888;0.1874875;0.2576373;1.317748;-0.09741579;0;0;0;0.2654491;2.752888;0.1874875;0.2576373;1.317748;-0.09741579;0;0;0
980786.952;NotLabelled;NONE;16384;0.7300404;-0.5041551;-0.3864266;-0.2520775;13;-15;9;572;3812;2111;65536;-0.4819945;0.5554016;0.5928399;0.3282548;4;28;35;-1792;3637;-848;8192;-0.1842105;0.1537396;-0.7853687;-0.5706371;3;4;0;-182;3899;1467;32768;-0.1578947;0.01108033;0.760133;0.6301939;-8;-5;0;1183;3949;-932;256;0.5886427;-0.6700424;0.300554;0.3379501;-3;-4;6;-213;3968;-493;128;0.5789474;-0.7126278;0.2022161;0.3407202;6;1;-1;-381;3991;980;4;0.6177285;-0.6365272;-0.3878116;-0.2506925;0;0;0;600;3864;274;16;-0.07894737;0.02908587;0.632964;0.769596;0;0;0;347;4063;766;2;-0.1980609;0.2590028;-0.6592798;-0.6775246;0;2;0;-336;3966;-212;8;-0.0401662;0.1301939;0.6246537;0.7689239;0;1;0;-443;4133;879;0.5777024;2.79501;0.194886;0.5836884;3.340516;0.191801;0.5889499;3.820003;0.1870666;0.5838885;4.547906;0.2797722;0.3229167;4.874449;0.2831458;-0.01735768;4.725002;0.3280683;-0.3379964;3.864767;0.2035076;-0.2027586;2.99145;-0.1382909;0.8432481;4.878069;0.2831452;1.133184;4.733007;0.3280679;1.412807;3.8137;0.2576238;1.409003;2.902902;-0.003561497;0.2654473;2.752888;0.1874886;0.2576382;1.317748;-0.09741406;0;0;0;0.2654473;2.752888;0.1874886;0.2576382;1.317748;-0.09741406;0;0;0
980807.9686;NotLabelled;NONE;16384;0.7295594;-0.5055401;-0.3864266;-0.2506925;-3;-7;10;224;4132;2413;65536;-0.4847645;0.5526316;0.5908514;0.33241;-10;-8;33;-674;3731;-566;8192;-0.1842105;0.1551246;-0.7850962;-0.5706371;0;4;0;-430;4015;1461;32768;-0.1592798;0.01246537;0.7598225;0.6301939;-10;-6;-1;1027;3965;-996;256;0.5886427;-0.669342;0.300554;0.3393352;0;-7;5;-163;3946;-435;128;0.5803324;-0.7111052;0.2036011;0.3407202;3;-2;-1;-357;3961;944;4;0.6177285;-0.6365272;-0.3878116;-0.2506925;0;0;0;644;3936;282;16;-0.07894737;0.02908587;0.632964;0.769596;0;0;0;375;4115;814;2;-0.1980609;0.2590028;-0.6592798;-0.6775246;0;0;0;-302;3936;-198;8;-0.0401662;0.1301939;0.6246537;0.7689239;0;0;0;-431;4109;905;0.5772655;2.79501;0.1955034;0.5832514;3.340516;0.1924184;0.5885129;3.820003;0.1876841;0.5849434;4.547915;0.2803887;0.3246413;4.874991;0.2837619;-0.01593859;4.726242;0.3286849;-0.3294491;3.863553;0.2029564;-0.2007538;2.987447;-0.1341961;0.8449791;4.877546;0.2837611;1.134617;4.73189;0.3286836;1.414407;3.812584;0.2589066;1.406969;2.901467;-0.00108996;0.2650103;2.752888;0.1881059;0.257864;1.317748;-0.09681423;0;0;0;0.2650103;2.752888;0.1881059;0.257864;1.317748;-0.09681423;0;0;0
980828.9397;NotLabelled;NONE;16384;0.729771;-0.5055401;-0.3878116;-0.2479224;-6;-13;8;-90;3856;2215;65536;-0.4875346;0.5526316;0.5869946;0.33518;-10;-24;25;-1202;4221;-996;8192;-0.1842105;0.1551246;-0.7850962;-0.5706371;0;-2;-1;-468;4051;1343;32768;-0.1592798;0.01246537;0.7586716;0.6315789;-11;-6;-1;871;4005;-910;256;0.5886427;-0.6680138;0.301939;0.3407202;0;-9;5;-157;4018;-455;128;0.5803324;-0.7111052;0.2036011;0.3407202;2;-6;-2;-399;4013;1048;4;0.6177285;-0.6365272;-0.3878116;-0.2506925;0;-4;0;682;3988;322;16;-0.07894737;0.02908587;0.632964;0.769596;0;0;0;341;4149;772;2;-0.1980609;0.2590028;-0.6592798;-0.6775246;0;0;0;-338;4018;-212;8;-0.0401662;0.1301939;0.6246537;0.7689239;0;-2;0;-425;4151;943;0.576827;2.795043;0.1959159;0.5828127;3.340529;0.1903704;0.588074;3.81999;0.1834733;0.5859978;4.547907;0.2761774;0.3263674;4.875518;0.2795504;-0.01451713;4.727468;0.3244734;-0.3258269;3.864348;0.1962585;-0.2038606;2.984456;-0.1334551;0.8467093;4.877005;0.2795497;1.136048;4.730754;0.3244725;1.415037;3.811257;0.2540127;1.407387;2.900064;-0.005710453;0.2645715;2.752888;0.188724;0.258089;1.317748;-0.09621259;0;0;0;0.2645715;2.752888;0.188724;0.258089;1.317748;-0.09621259;0;0;0
980848.9503;NotLabelled;NONE;16384;0.73193;-0.5041551;-0.3864266;-0.2465374;0;-2;-2;-190;3908;1755;65536;-0.4903047;0.5540166;0.5825726;0.3365651;2;-5;1;-1242;4143;-780;8192;-0.1828255;0.1551246;-0.7854199;-0.5706371;1;-8;-3;-432;4115;1287;32768;-0.1592798;0.01385042;0.7574924;0.632964;-11;-2;-1;949;3943;-754;256;0.5886427;-0.6673055;0.301939;0.3421052;-3;-7;4;-45;4132;-415;128;0.5803324;-0.7100415;0.2049861;0.3421052;3;-6;-2;-459;4055;990;4;0.6191136;-0.6360237;-0.3864266;-0.2506925;-1;-6;1;652;4002;268;16;-0.07894737;0.02908587;0.632964;0.769596;0;0;0;401;4183;862;2;-0.1980609;0.2590028;-0.6592798;-0.6775246;0;-2;1;-386;4032;-228;8;-0.0401662;0.1301939;0.6246537;0.7689239;0;0;0;-375;4161;901;0.5759958;2.795043;0.1970756;0.5819815;3.340529;0.1915301;0.5872428;3.81999;0.184633;0.5855874;4.548064;0.2761123;0.3261466;4.87583;0.2789328;-0.01482365;4.728052;0.324103;-0.3266528;3.866079;0.189593;-0.2082498;2.982635;-0.1318155;0.8464892;4.877016;0.2789322;1.135743;4.730674;0.3241024;1.415043;3.811176;0.2548857;1.406071;2.899367;-0.002621174;0.2637404;2.752889;0.1898838;0.258509;1.317748;-0.09507859;0;0;0;0.2637404;2.752889;0.1898838;0.258509;1.317748;-0.09507859;0;0;0
980869.028;NotLabelled;NONE;16384;0.73193;-0.5041551;-0.3864266;-0.2465374;0;-1;-2;-122;3902;1563;65536;-0.4903047;0.5554016;0.5820521;0.33518;7;-12;-6;-1528;3981;-634;8192;-0.1786704;0.1551246;-0.7853687;-0.5720221;3;-13;-6;-302;4029;1173;32768;-0.1606648;0.01385042;0.7548756;0.6357341;-14;0;-2;1173;3845;-700;256;0.5886427;-0.6666771;0.3033241;0.3421052;-6;-5;3;65;4182;-473;128;0.5803324;-0.7093725;0.2049861;0.3434903;3;-6;-4;-471;4049;982;4;0.6191136;-0.6365679;-0.3864266;-0.2493075;-2;-6;1;648;3964;266;16;-0.07894737;0.02908587;0.632964;0.769596;0;-2;0;355;4145;818;2;-0.1980609;0.2590028;-0.6592798;-0.6775246;0;-5;1;-330;4008;-264;8;-0.0401662;0.1301939;0.6246537;0.7689239;0;-1;0;-353;4125;917;0.5792912;2.795703;0.1942489;0.5852769;3.341182;0.1880643;0.590538;3.820635;0.1806054;0.5903811;4.548711;0.2720841;0.3316156;4.877009;0.2749043;-0.009658083;4.729935;0.3200746;-0.3258273;3.869443;0.18621;-0.2103129;2.98309;-0.1281669;0.8519596;4.877125;0.2749038;1.140911;4.730187;0.3200742;1.420014;3.810746;0.2493314;1.410144;2.897942;-0.004593611;0.2670357;2.75354;0.1871104;0.25873;1.317748;-0.09447572;0;0;0;0.2670357;2.75354;0.1871104;0.25873;1.317748;-0.09447572;0;0;0
980889.9439;NotLabelled;NONE;16384;0.7326595;-0.5041551;-0.3850415;-0.2465374;-4;-6;-3;-84;3850;1489;65536;-0.4916897;0.5554016;0.5824722;0.33241;10;-3;-8;-1886;4009;-938;8192;-0.1772853;0.1537396;-0.7859547;-0.5720221;3;-11;-7;-238;3971;1173;32768;-0.1606648;0.01385042;0.752534;0.6385041;-16;-2;-5;975;3945;-824;256;0.5886427;-0.6659645;0.3033241;0.3434903;-3;-5;3;61;4114;-573;128;0.5803324;-0.7093725;0.2049861;0.3434903;2;-6;-4;-527;4009;1010;4;0.6191136;-0.6379466;-0.3850415;-0.2479224;0;-4;0;760;3886;222;16;-0.08033241;0.02908587;0.632964;0.7694526;1;-2;0;365;4121;768;2;-0.1966759;0.2576177;-0.6592798;-0.6784555;0;-6;1;-310;4012;-266;8;-0.04155125;0.1301939;0.6246537;0.7688503;0;-2;0;-403;4113;905;0.5785259;2.795123;0.1977543;0.5845116;3.340602;0.1915975;0.5897727;3.820055;0.184163;0.5885473;4.548284;0.2744115;0.3293003;4.876206;0.2766769;-0.01175734;4.728707;0.3220954;-0.3276482;3.868215;0.1875752;-0.2101042;2.982436;-0.1276626;0.8496435;4.877085;0.2766765;1.13881;4.730649;0.3220952;1.414029;3.810416;0.2465766;1.397932;2.896752;-0.003913641;0.2662704;2.75296;0.1906134;0.2589243;1.317748;-0.09394205;0;0;0;0.2662704;2.75296;0.1906134;0.2589243;1.317748;-0.09394205;0;0;0
980910.0399;NotLabelled;NONE;16384;0.7338499;-0.5041551;-0.3836565;-0.2451524;-6;-10;-1;-76;3784;1451;65536;-0.4916897;0.5554016;0.5832604;0.3310249;8;2;-6;-1482;3821;-888;8192;-0.1759003;0.1537396;-0.7852563;-0.5734072;4;-11;-8;-184;3883;983;32768;-0.1592798;0.01523546;0.7516247;0.6398892;-16;-1;-6;369;3927;-662;256;0.5886427;-0.6659645;0.3033241;0.3434903;-1;-8;3;-7;4056;-515;128;0.5803324;-0.7082981;0.2063712;0.3448753;2;-7;-3;-481;3959;1014;4;0.6204986;-0.6371372;-0.3850415;-0.2465374;-1;-4;0;768;3938;284;16;-0.08033241;0.02908587;0.632964;0.7694526;1;-3;0;403;4107;776;2;-0.1966759;0.2576177;-0.6592798;-0.6784555;1;-5;1;-304;4010;-244;8;-0.04155125;0.1301939;0.6246537;0.7688503;0;-2;0;-375;4111;859;0.5772752;2.794914;0.2007192;0.5832608;3.340393;0.1945624;0.588522;3.819846;0.187128;0.588799;4.548076;0.2773764;0.3302289;4.876533;0.2796419;-0.01113227;4.729737;0.3250605;-0.3275329;3.869197;0.1920569;-0.211302;2.98475;-0.127382;0.8505729;4.876338;0.2796413;1.139437;4.729304;0.32506;1.415398;3.809311;0.2493451;1.394894;2.894518;0.003337502;0.2650196;2.752751;0.1935784;0.2605186;1.317612;-0.09140532;0;0;0;0.2650196;2.752751;0.1935784;0.2605186;1.317612;-0.09140532;0;0;0
980931.0633;NotLabelled;NONE;16384;0.7343111;-0.5041551;-0.3836565;-0.2437673;-7;-15;0;12;3786;1417;65536;-0.4916897;0.5540166;0.5853583;0.3296399;3;-5;-2;-930;3763;-806;8192;-0.1731302;0.1537396;-0.7858717;-0.5734072;5;-13;-8;-178;3889;927;32768;-0.1578947;0.0166205;0.7507066;0.6412742;-13;0;-7;537;3911;-470;256;0.5886427;-0.6638945;0.3047091;0.3462604;-1;-9;3;33;4008;-441;128;0.5803324;-0.7069426;0.2063712;0.3476454;2;-6;-2;-501;3961;1010;4;0.6204986;-0.6371372;-0.3850415;-0.2465374;-1;-5;0;752;3900;246;16;-0.08033241;0.02908587;0.632964;0.7694526;0;-2;0;387;4117;744;2;-0.1966759;0.2576177;-0.6592798;-0.6784555;0;-5;0;-288;4040;-196;8;-0.04155125;0.1315789;0.6246537;0.7686145;0;-1;0;-425;4083;867;0.5824765;2.794477;0.2027715;0.5884621;3.339949;0.1959711;0.5937232;3.819392;0.187971;0.593999;4.547622;0.2782198;0.335429;4.87608;0.2804821;-0.005932868;4.729284;0.3258964;-0.3240847;3.869405;0.1927956;-0.2077032;2.985992;-0.1294379;0.8557729;4.875884;0.2804881;1.144636;4.728851;0.3259102;1.417287;3.808044;0.2481169;1.397035;2.891998;0.006798148;0.2702208;2.752306;0.1956846;0.2605197;1.317612;-0.09140142;0;0;0;0.2702208;2.752306;0.1956846;0.2605197;1.317612;-0.09140142;0;0;0
980951.0537;NotLabelled;NONE;16384;0.7366156;-0.5055401;-0.3808864;-0.2382271;-1;-22;2;232;3666;1387;65536;-0.4944598;0.5567867;0.5811599;0.3282548;1;-23;1;-528;3717;-518;8192;-0.1703601;0.1523546;-0.785735;-0.5747922;3;-15;-7;-166;3861;1003;32768;-0.1565097;0.01800554;0.7497797;0.6426592;-10;-2;-6;629;3895;-428;256;0.5886427;-0.6638945;0.3047091;0.3462604;0;-10;3;57;4062;-425;128;0.5803324;-0.7065368;0.2077562;0.3476454;2;-5;-2;-469;4033;958;4;0.6204986;-0.6379722;-0.3836565;-0.2465374;-2;-6;0;870;3904;250;16;-0.08171745;0.02908587;0.632964;0.7693068;0;-1;0;367;4159;740;2;-0.1952908;0.2562327;-0.6592798;-0.6793795;1;-5;0;-302;4048;-162;8;-0.04155125;0.1315789;0.6246537;0.7686145;0;-1;0;-397;4143;939;0.5811538;2.794477;0.2045885;0.5871394;3.339949;0.1978453;0.5924004;3.819394;0.1898956;0.594628;4.547772;0.2789084;0.3369386;4.876923;0.280617;-0.004814193;4.731121;0.3262849;-0.3230051;3.871637;0.190742;-0.2054973;2.989735;-0.1351987;0.85728;4.875335;0.2806162;1.145749;4.727606;0.3262839;1.418149;3.806845;0.2470848;1.399732;2.889567;0.01033953;0.2688982;2.752306;0.1974965;0.2611284;1.317612;-0.08964752;0;0;0;0.2688982;2.752306;0.1974965;0.2611284;1.317612;-0.08964752;0;0;0
980971.9515;NotLabelled;NONE;16384;0.737269;-0.5069252;-0.3795014;-0.2354571;1;-17;0;298;3636;1385;65536;-0.4958449;0.5581717;0.5786458;0.3282548;4;-13;2;-994;3893;-582;8192;-0.166205;0.1495845;-0.7861426;-0.5761772;4;-13;-3;114;3817;1093;32768;-0.1551246;0.01939058;0.7476505;0.6454294;-6;2;-3;877;3919;-498;256;0.5886427;-0.6625321;0.3060942;0.3476454;0;-9;3;85;4054;-485;128;0.5803324;-0.7058536;0.2077562;0.3490305;1;-5;-2;-501;4029;996;4;0.6204986;-0.6385057;-0.3836565;-0.2451524;-2;-4;0;896;3838;272;16;-0.08171745;0.02908587;0.632964;0.7693068;0;-1;0;407;4129;694;2;-0.1952908;0.2562327;-0.6592798;-0.6793795;0;-3;0;-278;4044;-214;8;-0.04155125;0.1315789;0.6246537;0.7686145;0;0;0;-419;4117;921;0.580726;2.794862;0.2039226;0.5867115;3.340326;0.1965032;0.5919724;3.81976;0.187959;0.5942;4.548139;0.2769722;0.3365104;4.877291;0.2786809;-0.005242452;4.731487;0.3243489;-0.3259135;3.873119;0.1875856;-0.210579;2.989861;-0.1354486;0.8568521;4.875702;0.27868;1.145322;4.727974;0.3243476;1.41493;3.80655;0.2433235;1.396713;2.888063;0.01129401;0.2684702;2.752683;0.1968873;0.2624912;1.317472;-0.08770588;0;0;0;0.2684702;2.752683;0.1968873;0.2624912;1.317472;-0.08770588;0;0;0
980992.9399;NotLabelled;NONE;16384;0.7370269;-0.5083103;-0.3781163;-0.2354571;5;-9;-3;138;3664;1437;65536;-0.4972299;0.5581717;0.5782412;0.3268698;6;-10;1;-1040;3777;-636;8192;-0.166205;0.1481994;-0.7853882;-0.5775623;4;-10;-2;122;3865;1077;32768;-0.1551246;0.01800554;0.7464873;0.6468144;-6;1;-2;1001;3837;-584;256;0.5886427;-0.6618035;0.3060942;0.3490305;-1;-9;3;143;4034;-455;128;0.5803324;-0.7054445;0.2091413;0.3490305;1;-5;-1;-527;3995;1044;4;0.6204986;-0.6390358;-0.3836565;-0.2437673;-1;-2;0;766;3922;222;16;-0.08171745;0.03047091;0.632964;0.7692531;0;0;0;387;4167;728;2;-0.1952908;0.2562327;-0.6592798;-0.6793795;0;-2;0;-236;4006;-218;8;-0.04155125;0.1315789;0.6246537;0.7686145;0;0;0;-361;4131;947;0.579477;2.794275;0.2080531;0.5854625;3.339739;0.2006625;0.5907234;3.819174;0.1921436;0.5934072;4.547701;0.2799155;0.3359236;4.877017;0.2810644;-0.005920082;4.731505;0.3269824;-0.3257696;3.873192;0.187971;-0.2101767;2.988736;-0.1316729;0.8562641;4.875103;0.2810638;1.144641;4.727273;0.3269817;1.412317;3.805411;0.2445329;1.392746;2.885233;0.01941702;0.2672213;2.752097;0.2010155;0.2628752;1.317472;-0.08654781;0;0;0;0.2672213;2.752097;0.2010155;0.2628752;1.317472;-0.08654781;0;0;0
981012.9486;NotLabelled;NONE;16384;0.7367796;-0.5096953;-0.3767313;-0.2354571;7;-7;-6;-10;3672;1475;65536;-0.5;0.5581717;0.5766316;0.3254848;7;-15;0;-1074;3765;-662;8192;-0.1648199;0.1468144;-0.7849203;-0.5789474;5;-9;-1;116;3899;1029;32768;-0.1537396;0.01800554;0.7467738;0.6468144;-5;0;-2;1033;3935;-618;256;0.5886427;-0.6604282;0.3074792;0.3504155;-1;-7;2;117;4078;-449;128;0.5803324;-0.7047576;0.2091413;0.3504155;1;-5;-1;-553;3991;1086;4;0.6218836;-0.637688;-0.3836565;-0.2437673;-1;-2;0;712;3866;214;16;-0.08171745;0.03047091;0.632964;0.7692531;0;0;0;399;4101;752;2;-0.1952908;0.2548476;-0.6592798;-0.6799002;0;-1;1;-284;3982;-228;8;-0.04155125;0.1315789;0.6246537;0.7686145;0;-1;0;-431;4189;949;0.5768207;2.793905;0.2093369;0.5828061;3.33936;0.2012662;0.5880669;3.818783;0.1921496;0.5922636;4.547303;0.2799222;0.3354645;4.877152;0.2810716;-0.006680593;4.732351;0.3269894;-0.3241424;3.87298;0.1890469;-0.2100113;2.988828;-0.131961;0.8557997;4.874158;0.281071;1.14387;4.725729;0.3269887;1.409718;3.803065;0.2476672;1.387141;2.882758;0.02336282;0.264565;2.751718;0.202356;0.2612647;1.317686;-0.0881612;0;0;0;0.264565;2.751718;0.202356;0.2612647;1.317686;-0.0881612;0;0;0
981033.1627;NotLabelled;NONE;16384;0.7374862;-0.5096953;-0.3753462;-0.2354571;8;-11;-7;-32;3726;1531;65536;-0.501385;0.5595568;0.574864;0.3240997;6;-20;0;-1096;3761;-676;8192;-0.1634349;0.1454294;-0.7854676;-0.5789474;5;-7;-1;90;3911;971;32768;-0.1537396;0.01800554;0.7455719;0.6481994;-4;0;-3;1003;4033;-576;256;0.5872576;-0.6609247;0.3074792;0.3518005;-1;-4;1;79;3994;-505;128;0.5803324;-0.7040672;0.2091413;0.3518005;0;-3;0;-555;3941;1024;4;0.6218836;-0.637688;-0.3836565;-0.2437673;0;-2;0;754;3904;208;16;-0.08171745;0.03047091;0.632964;0.7692531;0;0;0;331;4133;766;2;-0.1952908;0.2548476;-0.6592798;-0.6799002;0;-2;1;-358;4042;-260;8;-0.04155125;0.1315789;0.6246537;0.7686145;0;0;0;-421;4125;875;0.5815014;2.794042;0.2097335;0.5874867;3.339497;0.2016916;0.5927476;3.818921;0.1926003;0.5974138;4.547587;0.2791261;0.3408268;4.877604;0.2797137;-0.001410887;4.733101;0.3258827;-0.3155831;3.87267;0.1870144;-0.2046239;2.988099;-0.1339498;0.8611601;4.874274;0.2797129;1.149135;4.725738;0.3258816;1.413239;3.802341;0.249307;1.393382;2.881731;0.025994;0.2692456;2.751854;0.2027503;0.2616513;1.317685;-0.08700764;0;0;0;0.2692456;2.751854;0.2027503;0.2616513;1.317685;-0.08700764;0;0;0
981053.2599;NotLabelled;NONE;16384;0.7376695;-0.5124654;-0.3711911;-0.2354571;7;-14;-8;240;3764;1585;65536;-0.5041551;0.5609418;0.5734173;0.3199446;4;-19;3;-1100;3789;-836;8192;-0.1634349;0.1454294;-0.7844448;-0.5803324;5;-4;-3;6;3975;1063;32768;-0.1537396;0.01800554;0.7443655;0.6495845;-4;5;-2;645;4019;-576;256;0.5872576;-0.6595387;0.3088643;0.3531856;0;-5;1;121;4006;-483;128;0.5803324;-0.7036543;0.2105263;0.3518005;0;-4;0;-499;3949;980;4;0.6218836;-0.6390463;-0.3822715;-0.2423823;0;-3;0;738;3952;268;16;-0.08171745;0.03047091;0.632964;0.7692531;0;0;0;397;4081;778;2;-0.1952908;0.2548476;-0.6592798;-0.6799002;0;-2;1;-306;4014;-236;8;-0.04155125;0.1315789;0.6246537;0.7686145;0;0;0;-425;4113;865;0.5810227;2.794042;0.2103699;0.5870082;3.339497;0.2023569;0.5922691;3.818922;0.1932909;0.5971887;4.547298;0.2822072;0.3407176;4.877401;0.283872;-0.001571715;4.732868;0.3295593;-0.3168344;3.872381;0.1935346;-0.2061343;2.987628;-0.1270177;0.8610497;4.87389;0.2838716;1.148971;4.725102;0.3295589;1.413436;3.801925;0.2516007;1.391521;2.88083;0.03048503;0.2687671;2.751854;0.2033841;0.2618554;1.317685;-0.08639088;0;0;0;0.2687671;2.751854;0.2033841;0.2618554;1.317685;-0.08639088;0;0;0
981074.4083;NotLabelled;NONE;16384;0.7378425;-0.5138504;-0.3698061;-0.234072;8;-12;-7;234;3750;1519;65536;-0.5069252;0.5623268;0.5703816;0.3185596;3;-20;3;-1140;3853;-936;8192;-0.1620499;0.1454294;-0.7837059;-0.5817174;6;0;-4;-58;3955;991;32768;-0.1509695;0.0166205;0.7449644;0.6495845;0;8;-1;529;4049;-614;256;0.5872576;-0.6595387;0.3088643;0.3531856;0;-4;0;65;4006;-487;128;0.5803324;-0.7029601;0.2105263;0.3531856;0;-4;0;-467;3995;994;4;0.6218836;-0.6390463;-0.3822715;-0.2423823;0;-4;0;786;4006;320;16;-0.08171745;0.03047091;0.632964;0.7692531;0;0;0;407;4129;822;2;-0.1952908;0.2534626;-0.6592798;-0.6804178;0;-3;1;-230;4008;-194;8;-0.04155125;0.1315789;0.6246537;0.7686145;-1;0;0;-421;4129;933;0.5779844;2.793985;0.2118561;0.5839697;3.33943;0.2031588;0.5892304;3.818843;0.1934913;0.5946258;4.547368;0.2811548;0.33837;4.87764;0.2822539;-0.004013181;4.733409;0.3281922;-0.314707;3.870945;0.1941926;-0.2056721;2.987335;-0.1300613;0.8586997;4.873789;0.2822557;1.146525;4.724892;0.3281967;1.408705;3.800871;0.2525589;1.38517;2.879304;0.0335862;0.2657284;2.751789;0.2049277;0.2622353;1.317686;-0.08523206;0;0;0;0.2657284;2.751789;0.2049277;0.2622353;1.317686;-0.08523206;0;0;0
981094.9428;NotLabelled;NONE;16384;0.7382597;-0.5152354;-0.367036;-0.234072;8;-10;-8;294;3796;1523;65536;-0.5083103;0.5623268;0.5699207;0.3171745;4;-19;4;-1242;3871;-974;8192;-0.1606648;0.1454294;-0.7829615;-0.5831025;8;0;-4;-160;3955;1039;32768;-0.1495845;0.01523546;0.7452734;0.6495845;5;6;0;725;4125;-754;256;0.5872576;-0.6587951;0.3088643;0.3545706;0;-3;0;89;4044;-405;128;0.5789474;-0.7041013;0.2105263;0.3531856;0;-2;0;-437;3987;988;4;0.6232687;-0.6390478;-0.3808864;-0.2409972;0;0;-2;832;3904;288;16;-0.08171745;0.03047091;0.632964;0.7692531;0;-1;0;441;4133;784;2;-0.1952908;0.2534626;-0.6592798;-0.6804178;0;-2;2;-298;4084;-248;8;-0.04155125;0.1315789;0.6246537;0.7686145;0;0;0;-433;4133;909;0.5779853;2.793984;0.2118588;0.5839706;3.33943;0.2031904;0.5892313;3.818844;0.1935483;0.5946272;4.547368;0.2812122;0.3383715;4.877641;0.2823126;-0.004011437;4.73341;0.3282525;-0.3140956;3.87027;0.1972287;-0.2084801;2.985722;-0.1255985;0.8587011;4.87379;0.2823118;1.146526;4.724893;0.3282512;1.404999;3.799906;0.2516656;1.383924;2.878093;0.0334805;0.2657295;2.751789;0.2049278;0.2622347;1.317685;-0.0852326;0;0;0;0.2657295;2.751789;0.2049278;0.2622347;1.317685;-0.0852326;0;0;0
981116.9531;NotLabelled;NONE;16384;0.737979;-0.5166205;-0.365651;-0.234072;8;-9;-8;298;3712;1539;65536;-0.5096953;0.5637119;0.5680816;0.3157895;4;-19;3;-1350;3851;-1056;8192;-0.1606648;0.1468144;-0.7816692;-0.5844875;7;-1;-2;-82;4049;1123;32768;-0.1495845;0.01385042;0.7465053;0.6481994;7;3;2;965;4173;-862;256;0.5872576;-0.6587951;0.3088643;0.3545706;0;-3;0;59;4000;-447;128;0.5789474;-0.7041013;0.2105263;0.3531856;0;-3;0;-463;3959;1004;4;0.6232687;-0.6390478;-0.3808864;-0.2409972;0;0;-1;852;3954;248;16;-0.08310249;0.03047091;0.632964;0.7691047;0;0;0;369;4123;766;2;-0.1952908;0.2534626;-0.6592798;-0.6804178;0;-2;2;-280;4032;-248;8;-0.04155125;0.1315789;0.6246537;0.7686145;-1;0;0;-379;4101;911;0.580964;2.794028;0.2122494;0.5869496;3.339499;0.2053749;0.5922107;3.818942;0.1973097;0.5991262;4.547454;0.2849751;0.34356;4.878259;0.2860759;0.0008768141;4.734742;0.3320153;-0.307553;3.870522;0.204255;-0.2034152;2.986272;-0.1198661;0.8638805;4.873322;0.2860756;1.151394;4.723826;0.3320151;1.406671;3.797987;0.2550015;1.386854;2.87623;0.03646243;0.2687084;2.751855;0.2051685;0.2624345;1.317685;-0.08461534;0;0;0;0.2687084;2.751855;0.2051685;0.2624345;1.317685;-0.08461534;0;0;0
981137.2822;NotLabelled;NONE;16384;0.7388129;-0.5180055;-0.3628809;-0.232687;5;-8;-5;230;3836;1585;65536;0.5124654;-0.5671217;-0.5637119;-0.3130194;2;-16;2;-1454;3841;-938;8192;-0.1592798;0.1468144;-0.7809154;-0.5858725;4;0;-2;-70;4025;1301;32768;-0.1495845;0.01385042;0.7465053;0.6481994;6;0;3;983;4085;-914;256;0.5858725;-0.6586307;0.3102493;0.3559557;1;-3;0;37;3990;-467;128;0.5789474;-0.7029887;0.2119114;0.3545706;0;-2;0;-535;3985;994;4;0.6232687;-0.6390478;-0.3808864;-0.2409972;0;0;-1;788;3898;244;16;-0.08310249;0.03047091;0.632964;0.7691047;0;0;0;367;4107;748;2;-0.1952908;0.2520775;-0.6592798;-0.6809322;0;-2;1;-254;4016;-184;8;-0.04155125;0.1315789;0.6246537;0.7686145;-1;0;-1;-379;4185;905;0.5822874;2.793889;0.2142173;0.5882729;3.33936;0.2073428;0.5935341;3.818803;0.1992776;0.6004496;4.547315;0.2869426;0.3448833;4.87812;0.2880433;0.002200171;4.734604;0.3339827;-0.3040936;3.869359;0.2080244;-0.2009988;2.984892;-0.115837;0.8652039;4.873184;0.288043;1.152718;4.723687;0.3339826;1.40409;3.796798;0.2567516;1.385935;2.875877;0.03457785;0.2700318;2.751717;0.2071364;0.263758;1.317546;-0.0826467;0;0;0;0.2700318;2.751717;0.2071364;0.263758;1.317546;-0.0826467;0;0;0
981157.9536;NotLabelled;NONE;16384;0.7385194;-0.5193906;-0.3614958;-0.232687;4;-7;-5;226;3792;1503;65536;0.5138504;-0.5687633;-0.5623268;-0.3102493;2;-14;0;-1370;3823;-880;8192;-0.1592798;0.1468144;-0.7809154;-0.5858725;1;0;-3;-108;4021;1343;32768;-0.1509695;0.01246537;0.7474516;0.6468144;5;-2;5;865;4061;-856;256;0.5858725;-0.6586307;0.3102493;0.3559557;0;-2;0;89;4008;-401;128;0.5789474;-0.7029887;0.2119114;0.3545706;-1;-1;0;-589;3947;970;4;0.6232687;-0.6390478;-0.3808864;-0.2409972;0;0;0;798;3890;254;16;-0.08310249;0.03047091;0.632964;0.7691047;0;0;0;379;4127;720;2;-0.1952908;0.2520775;-0.6592798;-0.6809322;0;-1;1;-270;4002;-240;8;-0.04155125;0.1315789;0.6232687;0.769738;-1;0;0;-437;4125;939;0.5813657;2.793898;0.2153585;0.5873512;3.33936;0.2078239;0.5926121;3.818792;0.1991785;0.5987382;4.547175;0.2879689;0.3428141;4.877703;0.289577;0.0002858937;4.733745;0.3352897;-0.304962;3.867939;0.2106522;-0.2019693;2.982775;-0.1113344;0.8631396;4.873329;0.2895765;1.150815;4.724072;0.3352891;1.399137;3.796351;0.2581839;1.381967;2.87543;0.03593153;0.2691099;2.751717;0.2083328;0.2641221;1.317547;-0.08147541;0;0;0;0.2691099;2.751717;0.2083328;0.2641221;1.317547;-0.08147541;0;0;0
981178.975;NotLabelled;NONE;16384;0.7391958;-0.5193906;-0.3601108;-0.232687;4;-7;-2;312;3850;1485;65536;0.5152354;-0.5696311;-0.5609418;-0.3088643;1;-13;1;-1460;3847;-870;8192;-0.1592798;0.1468144;-0.7819526;-0.5844875;-1;-1;-5;-192;4033;1181;32768;-0.1523546;0.01108033;0.7483891;0.6454294;3;-4;5;701;4047;-760;256;0.5858725;-0.6586307;0.3102493;0.3559557;1;-2;0;107;4046;-411;128;0.5789474;-0.7029887;0.2119114;0.3545706;-1;-1;0;-527;3961;1022;4;0.6232687;-0.6390478;-0.3808864;-0.2409972;0;0;0;774;3912;322;16;-0.08310249;0.03047091;0.632964;0.7691047;-1;0;0;403;4137;698;2;-0.1939058;0.2520775;-0.6592798;-0.6813279;1;-1;1;-322;4006;-232;8;-0.04155125;0.1315789;0.6232687;0.769738;-1;0;-1;-435;4157;925;0.5813653;2.793897;0.2153598;0.5873508;3.33936;0.2078251;0.5926117;3.818792;0.1991796;0.5987377;4.547175;0.2879704;0.3428137;4.877703;0.2895785;0.000285551;4.733745;0.3352909;-0.3028011;3.866924;0.2124451;-0.2005135;2.982447;-0.1116459;0.8631391;4.873329;0.2895783;1.150814;4.724072;0.3352911;1.399136;3.796351;0.2581859;1.381943;2.876588;0.03118688;0.2691097;2.751717;0.208334;0.2641219;1.317546;-0.08147469;0;0;0;0.2691097;2.751717;0.208334;0.2641219;1.317546;-0.08147469;0;0;0
981198.9634;NotLabelled;NONE;16384;0.7386558;-0.5207756;-0.3601108;-0.2313019;3;-4;-2;310;3868;1491;65536;0.5152354;-0.5696311;-0.5609418;-0.3088643;0;-8;0;-1560;3827;-918;8192;-0.1578947;0.1481994;-0.7819722;-0.5844875;-2;-1;-5;-146;4019;1155;32768;-0.1537396;0.01108033;0.7492986;0.6440443;4;-5;4;673;4039;-748;256;0.5858725;-0.6586307;0.3102493;0.3559557;1;-1;0;39;4074;-483;128;0.5789474;-0.7029887;0.2119114;0.3545706;-2;-1;0;-463;3983;1018;4;0.6232687;-0.6390478;-0.3808864;-0.2409972;1;1;-1;780;3956;272;16;-0.08310249;0.03185596;0.632964;0.7690486;-1;1;0;339;4119;808;2;-0.1939058;0.2520775;-0.6592798;-0.6813279;0;-2;1;-312;3974;-186;8;-0.04155125;0.132964;0.6232687;0.7695;-2;0;-1;-385;4125;855;0.5813653;2.793897;0.2153598;0.5873508;3.33936;0.2078251;0.5926117;3.818792;0.1991796;0.5987377;4.547175;0.2879704;0.3428137;4.877703;0.2895785;0.000285551;4.733745;0.3352909;-0.3035418;3.866871;0.2146723;-0.2027642;2.98234;-0.1097455;0.8631391;4.873329;0.2895783;1.150814;4.724072;0.3352911;1.402133;3.797254;0.2570445;1.384907;2.878674;0.02531159;0.2691097;2.751717;0.208334;0.2641219;1.317546;-0.08147469;0;0;0;0.2691097;2.751717;0.208334;0.2641219;1.317546;-0.08147469;0;0;0
981240.9478;NotLabelled;NONE;16384;0.7376773;-0.5221606;-0.3601108;-0.2313019;2;0;1;176;3814;1415;65536;0.5166205;-0.5712319;-0.5595568;-0.3060942;0;-8;-1;-1374;3833;-846;8192;-0.1565097;0.1481994;-0.7832836;-0.5831025;-2;-2;-3;-116;3909;1115;32768;-0.1551246;0.01108033;0.7490131;0.6440443;4;-5;4;785;3929;-608;256;0.5844875;-0.6584573;0.3116343;0.3573407;2;-2;0;7;4056;-431;128;0.5775623;-0.703428;0.2119114;0.3559557;-1;-1;0;-421;4013;962;4;0.6232687;-0.6385237;-0.3808864;-0.2423823;0;1;-1;734;3936;270;16;-0.08310249;0.03047091;0.632964;0.7691047;0;0;-1;385;4123;728;2;-0.1939058;0.2520775;-0.6592798;-0.6813279;0;0;0;-298;4004;-246;8;-0.04155125;0.132964;0.6232687;0.7695;-2;0;-1;-483;4115;933;0.5795854;2.794111;0.213105;0.5855709;3.339574;0.2055704;0.5908318;3.819006;0.1969249;0.5969578;4.547389;0.2857156;0.3410337;4.877916;0.2873237;-0.001494378;4.733958;0.3330362;-0.3033086;3.866633;0.2106213;-0.202531;2.982103;-0.1137965;0.8613591;4.873543;0.2873235;1.149034;4.724286;0.3330363;1.39904;3.797415;0.2512879;1.382712;2.87966;0.01624435;0.2673298;2.751931;0.2060793;0.262342;1.31776;-0.08372945;0;0;0;0.2673298;2.751931;0.2060793;0.262342;1.31776;-0.08372945;0;0;0
981281.9288;NotLabelled;NONE;16384;0.7376773;-0.5221606;-0.3601108;-0.2313019;2;-2;1;134;3762;1369;65536;0.5166205;-0.5719719;-0.5595568;-0.3047091;0;-8;-2;-1446;3821;-884;8192;-0.1565097;0.1481994;-0.7832836;-0.5831025;-2;-1;-3;-142;3961;1057;32768;-0.1551246;0.01246537;0.75018;0.6426592;4;-4;3;845;3917;-586;256;0.5844875;-0.6584573;0.3116343;0.3573407;2;-1;0;-25;4038;-493;128;0.5775623;-0.703428;0.2119114;0.3559557;-2;-1;1;-509;4013;962;4;0.6232687;-0.6385237;-0.3808864;-0.2423823;0;2;-1;712;3882;264;16;-0.08171745;0.03047091;0.632964;0.7692531;0;1;-1;357;4127;738;2;-0.1952908;0.2520775;-0.6592798;-0.6809322;0;0;0;-274;4062;-296;8;-0.04155125;0.132964;0.6218836;0.7706198;-3;0;-1;-399;4105;917;0.580852;2.794462;0.2137743;0.5868378;3.339946;0.2080598;0.592099;3.819405;0.2010141;0.597435;4.547657;0.2909191;0.3411529;4.877904;0.2930297;-0.00121966;4.733505;0.3385178;-0.2995659;3.865233;0.214331;-0.1981125;2.981388;-0.1117411;0.8614829;4.874094;0.293029;1.149319;4.72508;0.3385168;1.402281;3.799203;0.2546243;1.385284;2.881767;0.01838481;0.2685966;2.752305;0.2065967;0.2644814;1.317546;-0.08030091;0;0;0;0.2685966;2.752305;0.2065967;0.2644814;1.317546;-0.08030091;0;0;0
981302.9541;NotLabelled;NONE;16384;0.7387844;-0.5221606;-0.3587258;-0.2299169;2;-3;2;216;3800;1377;65536;0.5166205;-0.5719719;-0.5595568;-0.3047091;1;-3;-2;-1456;3899;-908;8192;-0.1551246;0.1481994;-0.7835591;-0.5831025;-1;0;-3;-168;3915;1075;32768;-0.1565097;0.01246537;0.7498923;0.6426592;2;-1;1;805;3901;-554;256;0.5844875;-0.6584573;0.3116343;0.3573407;2;-1;0;-5;4022;-489;128;0.5761772;-0.704563;0.2119114;0.3559557;-1;-1;1;-469;4019;1010;4;0.6232687;-0.6385237;-0.3808864;-0.2423823;0;1;0;708;3920;292;16;-0.08171745;0.03047091;0.632964;0.7692531;-1;1;0;421;4153;732;2;-0.1952908;0.2520775;-0.6592798;-0.6809322;0;0;0;-270;4034;-252;8;-0.04155125;0.132964;0.6218836;0.7706198;-3;0;-1;-353;4139;925;0.5795461;2.794601;0.2117924;0.5855318;3.340086;0.2060778;0.590793;3.819544;0.1990321;0.5961289;4.547797;0.2889367;0.3398468;4.878043;0.291047;-0.002525806;4.733644;0.3365349;-0.3008719;3.865372;0.2123487;-0.1986693;2.982271;-0.1155003;0.8601769;4.874234;0.2910467;1.148013;4.725219;0.3365349;1.400975;3.799343;0.2526441;1.387522;2.882043;0.01564354;0.2672905;2.752444;0.2046146;0.2631755;1.317685;-0.08228224;0;0;0;0.2672905;2.752444;0.2046146;0.2631755;1.317685;-0.08228224;0;0;0
981323.9283;NotLabelled;NONE;16384;0.7378035;-0.5235457;-0.3587258;-0.2299169;1;-5;3;188;3856;1417;65536;0.5166205;-0.5727076;-0.5595568;-0.3033241;1;-3;-3;-1298;3893;-862;8192;-0.1551246;0.1481994;-0.7835591;-0.5831025;0;0;-3;-146;3869;1057;32768;-0.1578947;0.01108033;0.7496237;0.6426592;1;0;0;777;3867;-534;256;0.5831025;-0.6596841;0.3116343;0.3573407;3;-1;0;19;4074;-461;128;0.5761772;-0.704563;0.2119114;0.3559557;-3;-1;0;-455;3981;978;4;0.6232687;-0.6379963;-0.3808864;-0.2437673;0;0;-1;618;3884;270;16;-0.08171745;0.03185596;0.632964;0.769197;-1;0;-1;359;4137;776;2;-0.1952908;0.2520775;-0.6592798;-0.6809322;0;0;0;-292;4088;-202;8;-0.04155125;0.134349;0.6218836;0.7703795;-3;0;-1;-515;4117;973;0.579546;2.794577;0.2119426;0.5855319;3.340077;0.2080155;0.5907934;3.819557;0.2025407;0.5961294;4.547809;0.2924457;0.3398472;4.878056;0.2945564;-0.00252533;4.733657;0.3400445;-0.3025097;3.865827;0.216715;-0.2003076;2.982727;-0.1111342;0.8601773;4.874246;0.2945556;1.148013;4.725232;0.3400434;1.400569;3.799438;0.2540258;1.385396;2.882458;0.01590264;0.2672908;2.752444;0.2046157;0.2631755;1.317686;-0.08228181;0;0;0;0.2672908;2.752444;0.2046157;0.2631755;1.317686;-0.08228181;0;0;0
981344.0011;NotLabelled;NONE;16384;0.7382336;-0.5235457;-0.3587258;-0.2285319;1;-3;3;184;3826;1441;65536;0.5180055;-0.5721881;-0.5595568;-0.301939;2;-6;-3;-1254;3841;-902;8192;-0.1551246;0.1481994;-0.7835591;-0.5831025;0;-1;-4;-146;3853;997;32768;-0.1565097;0.01108033;0.7499141;0.6426592;0;0;0;739;3881;-568;256;0.5831025;-0.6596841;0.3116343;0.3573407;5;-1;-1;9;3996;-409;128;0.5761772;-0.704563;0.2119114;0.3559557;-2;-1;0;-421;3967;982;4;0.6232687;-0.6379963;-0.3808864;-0.2437673;0;0;-1;706;3930;306;16;-0.08171745;0.03185596;0.6315789;0.7703347;-1;0;0;333;4079;762;2;-0.1939058;0.2520775;-0.6592798;-0.6813279;0;-1;0;-324;3994;-176;8;-0.04155125;0.134349;0.6204986;0.7714955;-3;0;0;-457;4127;951;0.578202;2.795368;0.2067508;0.5841879;3.340868;0.2028235;0.5894493;3.820348;0.1973487;0.5935059;4.548311;0.2896261;0.3366446;4.878099;0.2928063;-0.00547491;4.732953;0.3378153;-0.3025342;3.86418;0.2140444;-0.1995902;2.981827;-0.1155829;0.8569806;4.875203;0.2928059;1.145077;4.726546;0.3378152;1.397633;3.800753;0.2517984;1.379805;2.884481;0.01114446;0.2659467;2.753235;0.1994238;0.261406;1.317895;-0.08454274;0;0;0;0.2659467;2.753235;0.1994238;0.261406;1.317895;-0.08454274;0;0;0
981364.1564;NotLabelled;NONE;16384;0.7376774;-0.5249307;-0.3587258;-0.2271468;0;-2;3;168;3832;1465;65536;0.5180055;-0.5736414;-0.5595568;-0.299169;2;-2;-5;-1376;3891;-886;8192;-0.1537396;0.1481994;-0.783832;-0.5831025;0;-1;-4;-94;3839;1041;32768;-0.1565097;0.01108033;0.7499141;0.6426592;1;1;0;679;3899;-540;256;0.5817174;-0.6609058;0.3116343;0.3573407;3;-1;0;-5;4048;-475;128;0.5747922;-0.7045752;0.2132964;0.3573407;-3;-1;0;-395;3997;1016;4;0.6232687;-0.6379963;-0.3808864;-0.2437673;0;0;-1;662;3958;262;16;-0.08171745;0.03185596;0.6315789;0.7703347;-1;0;0;357;4085;768;2;-0.1939058;0.2520775;-0.6592798;-0.6813279;0;-2;0;-286;4004;-228;8;-0.04155125;0.134349;0.6204986;0.7714955;-2;0;-1;-433;4077;961;0.5819176;2.794434;0.2038195;0.5879035;3.339934;0.1998922;0.593165;3.819414;0.1944174;0.5972215;4.547377;0.2866947;0.3403603;4.877165;0.289875;-0.001759306;4.732018;0.334884;-0.2997158;3.863748;0.2097534;-0.1995121;2.981871;-0.1219832;0.8606962;4.874269;0.2898746;1.148792;4.725612;0.3348838;1.401348;3.799819;0.2488651;1.385244;2.883223;0.009327948;0.2696624;2.752301;0.1964924;0.2651216;1.316961;-0.08747405;0;0;0;0.2696624;2.752301;0.1964924;0.2651216;1.316961;-0.08747405;0;0;0
981385.1314;NotLabelled;NONE;16384;0.7376774;-0.5249307;-0.3587258;-0.2271468;0;-2;3;156;3850;1405;65536;0.5180055;-0.5722871;-0.5609418;-0.299169;1;0;-5;-1322;3853;-818;8192;-0.1537396;0.1481994;-0.783832;-0.5831025;1;0;-2;-88;3833;1061;32768;-0.1565097;0.01108033;0.7499141;0.6426592;2;2;0;783;3919;-608;256;0.5817174;-0.6609058;0.3116343;0.3573407;3;-1;-1;63;4054;-493;128;0.5747922;-0.7045752;0.2132964;0.3573407;-3;-1;0;-417;3987;1014;4;0.6232687;-0.6379963;-0.3808864;-0.2437673;0;0;-1;754;3940;240;16;-0.08171745;0.03185596;0.6315789;0.7703347;-2;0;0;365;4141;784;2;-0.1939058;0.2506925;-0.6592798;-0.6818387;1;-3;1;-216;3986;-180;8;-0.04155125;0.1357341;0.6204986;0.771253;-3;-1;-1;-473;4119;1047;0.5819167;2.794419;0.203914;0.5879027;3.339926;0.2011048;0.5931643;3.819416;0.1966128;0.5959449;4.547082;0.291257;0.3385065;4.876408;0.2955055;-0.003358841;4.730515;0.3400365;-0.2992804;3.861812;0.213092;-0.19764;2.981446;-0.1222008;0.8588467;4.874422;0.2955044;1.147202;4.726124;0.3400348;1.399345;3.800419;0.2518944;1.383242;2.883821;0.012357;0.2696616;2.752301;0.1964935;0.2651221;1.316961;-0.08747307;0;0;0;0.2696616;2.752301;0.1964935;0.2651221;1.316961;-0.08747307;0;0;0
981406.0339;NotLabelled;NONE;16384;0.7374277;-0.5249307;-0.3601108;-0.2257618;0;-1;3;188;3860;1497;65536;0.5180055;-0.573009;-0.5609418;-0.2977839;0;0;-6;-1208;3865;-866;8192;-0.1537396;0.1481994;-0.783832;-0.5831025;1;2;-1;-122;3943;1145;32768;-0.1551246;0.009695291;0.750221;0.6426592;1;3;0;719;3941;-644;256;0.5817174;-0.6601551;0.3116343;0.3587258;3;-1;-1;17;4008;-495;128;0.5734072;-0.7057028;0.2132964;0.3573407;-3;-2;0;-427;3979;1058;4;0.6232687;-0.6388211;-0.3795014;-0.2437673;0;0;0;706;3960;254;16;-0.08171745;0.03185596;0.6315789;0.7703347;-2;0;0;381;4145;832;2;-0.1939058;0.2493075;-0.6592798;-0.6823463;1;-2;2;-194;4024;-184;8;-0.04155125;0.1357341;0.6191136;0.7723653;-2;0;-1;-481;4091;1025;0.5819165;2.794419;0.2039142;0.5879025;3.339926;0.201105;0.593164;3.819416;0.196613;0.5959445;4.547081;0.2912572;0.3385062;4.876407;0.2955054;-0.003359213;4.730515;0.340036;-0.2992826;3.861812;0.2130953;-0.1988133;2.981991;-0.1239737;0.8588463;4.874422;0.2955049;1.147202;4.726123;0.3400356;1.399343;3.800418;0.251892;1.38324;2.883821;0.01235491;0.2696615;2.752301;0.1964938;0.2651222;1.316961;-0.08747275;0;0;0;0.2696615;2.752301;0.1964938;0.2651222;1.316961;-0.08747275;0;0;0
981426.9731;NotLabelled;NONE;16384;0.7374277;-0.5249307;-0.3601108;-0.2257618;-1;-2;3;202;3854;1403;65536;0.5180055;-0.5737267;-0.5609418;-0.2963989;2;-1;-6;-1358;3897;-866;8192;-0.1537396;0.1481994;-0.783832;-0.5831025;1;2;-1;-170;3971;1137;32768;-0.1551246;0.009695291;0.750221;0.6426592;0;4;-1;701;3947;-622;256;0.5803324;-0.661373;0.3116343;0.3587258;4;0;0;-25;4076;-479;128;0.5734072;-0.7057028;0.2132964;0.3573407;-3;-1;1;-421;4043;1054;4;0.6232687;-0.6379963;-0.3808864;-0.2437673;0;0;-1;698;3916;246;16;-0.08171745;0.03185596;0.6315789;0.7703347;-1;0;0;337;4115;814;2;-0.1925208;0.2493075;-0.6592798;-0.6827384;1;-3;1;-286;4062;-194;8;-0.04155125;0.1357341;0.6191136;0.7723653;-2;0;0;-371;4079;949;0.5797423;2.794911;0.2020962;0.5857283;3.340424;0.2010673;0.5909899;3.819926;0.1981402;0.5952835;4.547584;0.2927854;0.3385305;4.877444;0.2970341;-0.003637493;4.732264;0.3415646;-0.2994004;3.864144;0.2103361;-0.1974232;2.985084;-0.1282687;0.8588653;4.874377;0.2970334;1.146912;4.72548;0.3415639;1.399262;3.799774;0.2540216;1.384516;2.88324;0.01415861;0.2674875;2.752817;0.1945272;0.2653285;1.316961;-0.08684482;0;0;0;0.2674875;2.752817;0.1945272;0.2653285;1.316961;-0.08684482;0;0;0
981489.9415;NotLabelled;NONE;16384;0.7372833;-0.5263157;-0.3601108;-0.2229917;0;-2;3;318;3838;1419;65536;0.5180055;-0.5745019;-0.5623268;-0.2922437;1;-2;-6;-1352;3829;-844;8192;-0.1537396;0.1495845;-0.7835689;-0.5831025;0;0;0;-158;4009;1227;32768;-0.1523546;0.008310249;0.7496172;0.6440443;-1;4;0;763;3911;-742;256;0.5789474;-0.6625857;0.3116343;0.3587258;2;0;0;-17;4126;-531;128;0.5720221;-0.706124;0.2132964;0.3587258;-2;1;0;-525;4011;1028;4;0.6232687;-0.6388211;-0.3795014;-0.2437673;0;-1;-1;772;3876;264;16;-0.08171745;0.033241;0.6301939;0.7714097;-1;0;0;391;4157;806;2;-0.1925208;0.2479224;-0.6592798;-0.6832426;0;0;0;-158;4044;-238;8;-0.04155125;0.1357341;0.6177285;0.7734735;-1;-2;0;-413;4083;1049;0.581449;2.794394;0.2047022;0.5874351;3.339908;0.2036734;0.5926968;3.819409;0.2007463;0.5957136;4.546763;0.2977527;0.3383826;4.876157;0.303067;-0.003530875;4.730233;0.3471193;-0.2992953;3.862114;0.2158943;-0.1966157;2.983823;-0.1244859;0.8587222;4.874002;0.3030666;1.147028;4.725467;0.3471191;1.399378;3.799761;0.2595741;1.384633;2.883227;0.0197106;0.2691943;2.752301;0.1971332;0.265329;1.316961;-0.08684338;0;0;0;0.2691943;2.752301;0.1971332;0.265329;1.316961;-0.08684338;0;0;0
981510.9504;NotLabelled;NONE;16384;0.7377008;-0.5263157;-0.3601108;-0.2216066;0;-3;3;302;3798;1435;65536;0.5180055;-0.5745019;-0.5623268;-0.2922437;-1;-2;-5;-1358;3723;-794;8192;-0.1537396;0.1495845;-0.7835689;-0.5831025;-4;2;0;-246;3933;1301;32768;-0.1523546;0.006925208;0.7496313;0.6440443;-2;1;1;861;3893;-892;256;0.5789474;-0.6625857;0.3116343;0.3587258;2;0;0;1;4072;-509;128;0.5720221;-0.706124;0.2132964;0.3587258;-1;1;0;-449;4055;1008;4;0.6232687;-0.6388211;-0.3795014;-0.2437673;0;0;0;746;3910;246;16;-0.08171745;0.033241;0.6301939;0.7714097;0;0;0;377;4131;806;2;-0.1925208;0.2465374;-0.6592798;-0.6837436;0;0;0;-150;4014;-304;8;-0.04155125;0.1371191;0.6177285;0.7732291;-1;0;0;-409;4103;931;0.5816819;2.794142;0.1970571;0.5876679;3.339655;0.1978351;0.5929297;3.819165;0.1964962;0.594676;4.546204;0.2958586;0.3367694;4.875128;0.3022439;-0.004887417;4.728465;0.3458287;-0.299517;3.86;0.2143283;-0.1959575;2.984598;-0.1331522;0.8571119;4.873884;0.3022285;1.145679;4.72571;0.3457951;1.397121;3.799601;0.2599207;1.382237;2.882286;0.02307141;0.2694274;2.752074;0.1893374;0.2672629;1.316217;-0.09203468;0;0;0;0.2694274;2.752074;0.1893374;0.2672629;1.316217;-0.09203468;0;0;0
981552.3401;NotLabelled;NONE;16384;0.7374381;-0.5263157;-0.3614958;-0.2202216;-2;1;5;334;3778;1515;65536;0.5180055;-0.573847;-0.5637119;-0.2908587;-3;-3;-5;-1378;3811;-1112;8192;-0.1537396;0.1495845;-0.7856227;-0.5803324;-9;0;-6;-476;3991;1437;32768;-0.1523546;0.006925208;0.7484391;0.6454294;-14;-2;0;771;3871;-1130;256;0.5775623;-0.6637933;0.3116343;0.3587258;4;0;0;-3;4064;-547;128;0.5720221;-0.7065409;0.2119114;0.3587258;0;0;0;-485;4023;1032;4;0.6232687;-0.6382908;-0.3795014;-0.2451524;0;2;0;668;3926;282;16;-0.08171745;0.033241;0.6301939;0.7714097;0;1;0;369;4111;822;2;-0.1925208;0.2465374;-0.6592798;-0.6837436;0;1;0;-160;4028;-278;8;-0.04155125;0.1371191;0.6177285;0.7732291;0;-1;0;-517;4117;983;0.5816762;2.794142;0.1970648;0.5876623;3.339655;0.1978429;0.5929241;3.819165;0.1965041;0.5946677;4.546204;0.2958665;0.3367608;4.875128;0.3022444;-0.004897252;4.728465;0.3458193;-0.3004079;3.860957;0.2100534;-0.1968385;2.985554;-0.1374244;0.8571032;4.873884;0.3022439;1.145669;4.72571;0.3458186;1.397119;3.799891;0.2569002;1.381312;2.882958;0.01863348;0.2694218;2.752073;0.1893451;0.2672654;1.316217;-0.09202693;0;0;0;0.2694218;2.752073;0.1893451;0.2672654;1.316217;-0.09202693;0;0;0
981572.9463;NotLabelled;NONE;16384;0.7371701;-0.5263157;-0.3628809;-0.2188366;-3;-3;7;418;3908;1645;65536;0.5166205;-0.577838;-0.5623268;-0.2880886;-2;-15;-8;-1656;3895;-1240;8192;-0.1523546;0.1509695;-0.7876662;-0.5775623;-14;-2;-11;-524;4033;1481;32768;-0.1523546;0.006925208;0.7472425;0.6468144;-19;0;2;1107;4047;-1436;256;0.5775623;-0.6637933;0.3116343;0.3587258;4;1;0;29;4096;-455;128;0.5720221;-0.7065409;0.2119114;0.3587258;0;0;0;-531;4025;978;4;0.6232687;-0.6382908;-0.3795014;-0.2451524;0;2;0;638;3920;282;16;-0.08171745;0.03185596;0.6301939;0.7714682;-1;1;0;355;4133;764;2;-0.1925208;0.2465374;-0.6592798;-0.6837436;0;2;0;-160;4060;-338;8;-0.04155125;0.1371191;0.6177285;0.7732291;0;-1;0;-501;4147;1055;0.5821216;2.794703;0.1941886;0.5881076;3.340215;0.1956648;0.5933694;3.819725;0.1949397;0.593843;4.546441;0.2966522;0.3353621;4.874893;0.3040916;-0.006039411;4.727492;0.3471894;-0.3016822;3.860598;0.207838;-0.1986027;2.986551;-0.1431782;0.855706;4.874557;0.304091;1.14453;4.726748;0.3471889;1.401952;3.802788;0.2560426;1.383515;2.885346;0.01993555;0.2698672;2.752644;0.1864106;0.2672656;1.316217;-0.09202702;0;0;0;0.2698672;2.752644;0.1864106;0.2672656;1.316217;-0.09202702;0;0;0
981593.0806;NotLabelled;NONE;16384;0.7373042;-0.5263157;-0.3642659;-0.2160665;-5;-3;8;536;3958;1713;65536;0.5166205;-0.5792108;-0.5623268;-0.2853186;-3;-10;-9;-1904;3767;-984;8192;-0.1481994;0.1523546;-0.792222;-0.5720221;-18;-2;-15;-514;3989;1425;32768;-0.1551246;0.008310249;0.7442495;0.6495845;-10;-16;6;1615;4153;-1368;256;0.5775623;-0.6637933;0.3116343;0.3587258;0;5;0;87;4080;-409;128;0.5720221;-0.7065409;0.2119114;0.3587258;-1;4;0;-577;3999;954;4;0.6232687;-0.6382908;-0.3795014;-0.2451524;0;1;0;650;3978;234;16;-0.08033241;0.03185596;0.6301939;0.7716136;-1;1;0;357;4163;816;2;-0.1939058;0.2479224;-0.6578947;-0.6841853;0;2;0;-150;4044;-236;8;-0.04155125;0.1371191;0.6177285;0.7732291;1;0;0;-435;4083;1021;0.5838995;2.794497;0.1964577;0.5898855;3.34001;0.1979339;0.5951473;3.819519;0.1972088;0.5956209;4.546235;0.2989216;0.3371401;4.874687;0.3063611;-0.004261404;4.727286;0.3494589;-0.3000316;3.861019;0.2065294;-0.1910415;2.988286;-0.145969;0.8574839;4.874351;0.3063607;1.146308;4.726542;0.3494584;1.408358;3.804467;0.2525919;1.387284;2.886528;0.01864851;0.2716451;2.752439;0.1886797;0.2690436;1.316011;-0.08975858;0;0;0;0.2716451;2.752439;0.1886797;0.2690436;1.316011;-0.08975858;0;0;0
981635.1447;NotLabelled;NONE;16384;0.7377242;-0.5235457;-0.3698061;-0.2119114;-15;12;16;876;3956;1741;65536;0.5138504;-0.5796593;-0.5650969;-0.2839335;-8;8;-10;-1954;3837;-1408;8192;-0.1440443;0.1537396;-0.7976722;-0.5650969;-21;-3;-22;-404;3939;1349;32768;-0.1606648;0.009695291;0.7430564;0.6495845;1;-15;15;1347;4219;-1422;256;0.5803324;-0.6627724;0.3102493;0.3573407;-1;7;1;-41;4034;-513;128;0.5720221;-0.707656;0.2105263;0.3573407;0;5;0;-457;3983;982;4;0.6232687;-0.6369309;-0.3808864;-0.2465374;1;4;0;694;3906;310;16;-0.08171745;0.03185596;0.6301939;0.7714682;0;0;0;335;4089;810;2;-0.1939058;0.2479224;-0.6578947;-0.6841853;0;3;-1;-204;4094;-206;8;-0.04155125;0.1371191;0.6177285;0.7732291;1;0;0;-397;4067;995;0.5826039;2.794625;0.1944822;0.5885899;3.340137;0.1959584;0.5938517;3.819648;0.1952333;0.5943253;4.546364;0.2969461;0.3358444;4.874815;0.3043856;-0.00555703;4.727415;0.3474834;-0.3023355;3.862322;0.1996121;-0.1920841;2.991197;-0.1564532;0.8561882;4.874479;0.3043851;1.145012;4.72667;0.3474829;1.416659;3.808741;0.2384536;1.387831;2.890119;0.008039176;0.2703495;2.752567;0.1867042;0.2677479;1.316139;-0.0917341;0;0;0;0.2703495;2.752567;0.1867042;0.2677479;1.316139;-0.0917341;0;0;0
981655.1657;NotLabelled;NONE;16384;0.7370074;-0.5221606;-0.3739612;-0.2105263;-16;19;19;734;3832;1653;65536;0.5110803;-0.5807554;-0.566482;-0.2839335;-8;7;-13;-2126;3913;-1666;8192;-0.1412742;0.1551246;-0.799854;-0.5623268;-22;0;-26;-414;3927;1225;32768;-0.1648199;0.009695291;0.7433559;0.6481994;11;-13;18;1621;4221;-1314;256;0.5803324;-0.663419;0.3088643;0.3573407;2;7;0;25;4110;-483;128;0.5734072;-0.7069454;0.2091413;0.3573407;0;4;0;-469;4019;942;4;0.6218836;-0.6382833;-0.3808864;-0.2465374;0;5;1;674;3950;278;16;-0.08171745;0.03185596;0.6301939;0.7714682;0;2;0;397;4147;814;2;-0.1939058;0.2479224;-0.6578947;-0.6841853;-1;3;-2;-136;4046;-214;8;-0.04155125;0.1371191;0.6177285;0.7732291;1;0;0;-471;4151;1055;0.5869048;2.794545;0.1949712;0.5928907;3.340055;0.1971106;0.5981526;3.819565;0.1969683;0.6007005;4.546751;0.2952386;0.3431575;4.875969;0.3011235;0.001337692;4.72975;0.3449199;-0.3014816;3.868656;0.1863439;-0.1876231;3.000119;-0.1748732;0.8634983;4.87415;0.3011228;1.1519;4.725723;0.3449192;1.435312;3.813198;0.2214259;1.399524;2.895536;-0.01181811;0.2746504;2.752496;0.187138;0.2686422;1.316011;-0.09095305;0;0;0;0.2746504;2.752496;0.187138;0.2686422;1.316011;-0.09095305;0;0;0
981676.9591;NotLabelled;NONE;16384;0.7368512;-0.5180055;-0.3822715;-0.2063712;-24;9;29;652;3944;1675;65536;0.5069252;-0.5816763;-0.5706371;-0.2811634;3;17;-23;-2682;3893;-1400;8192;-0.1385041;0.1578947;-0.8017369;-0.5595568;-23;5;-31;-542;4023;1351;32768;-0.1689751;0.008310249;0.7448485;0.6454294;17;-14;25;1985;4175;-1360;256;0.5803324;-0.6648055;0.3074792;0.3559557;2;5;0;-13;3982;-371;128;0.5734072;-0.7076438;0.2091413;0.3559557;-1;4;0;-413;3947;996;4;0.6218836;-0.6369174;-0.3822715;-0.2479224;0;5;1;644;3914;306;16;-0.08033241;0.03185596;0.6301939;0.7716136;0;2;0;359;4127;776;2;-0.1952908;0.2493075;-0.6578947;-0.6832875;0;5;-2;-118;4058;-300;8;-0.04155125;0.1371191;0.6177285;0.7732291;2;1;1;-475;4081;1063;0.5816928;2.79444;0.1950109;0.5876788;3.339954;0.1960616;0.5929406;3.819463;0.1949624;0.5965323;4.546473;0.2944918;0.3394625;4.87605;0.3009452;-0.002567276;4.730246;0.3444862;-0.3070968;3.871063;0.1789695;-0.1882778;3.003763;-0.1836173;0.8598;4.873482;0.3009446;1.147988;4.724566;0.3444856;1.435026;3.81435;0.2126114;1.396154;2.898194;-0.02599639;0.2694384;2.752376;0.1872684;0.2684541;1.316011;-0.09150675;0;0;0;0.2694384;2.752376;0.1872684;0.2684541;1.316011;-0.09150675;0;0;0
981697.0883;NotLabelled;NONE;16384;0.7370504;-0.5152354;-0.3878116;-0.2022161;-30;7;35;712;3914;1707;65536;0.5041551;-0.5799903;-0.5747922;-0.2811634;7;23;-31;-2960;4029;-1654;8192;-0.132964;0.1648199;-0.8079649;-0.5498615;-26;11;-37;-474;3965;1507;32768;-0.1800554;0.004155125;0.7482481;0.6385041;30;-19;45;2183;4287;-1584;256;0.5817174;-0.664335;0.3074792;0.3545706;1;5;0;-41;4018;-479;128;0.5734072;-0.7076438;0.2091413;0.3559557;-2;4;0;-491;4003;972;4;0.6218836;-0.6369174;-0.3822715;-0.2479224;0;2;2;616;3924;298;16;-0.08033241;0.03185596;0.6301939;0.7716136;0;1;0;345;4103;870;2;-0.1952908;0.2493075;-0.6578947;-0.6832875;-1;5;-1;-228;4036;-168;8;-0.04155125;0.1357341;0.6177285;0.7734735;2;0;1;-405;4087;983;0.5833813;2.794631;0.1915008;0.5893673;3.340144;0.1925205;0.594629;3.819654;0.1913942;0.5977674;4.546494;0.2921757;0.3404925;4.875899;0.2991945;-0.001446813;4.729807;0.3424815;-0.3130854;3.876141;0.1623039;-0.1879205;3.013288;-0.208662;0.8608314;4.873655;0.299194;1.149112;4.724844;0.3424808;1.438476;3.816929;0.2002377;1.397501;2.903216;-0.04722059;0.2711268;2.752566;0.1837609;0.2667288;1.316139;-0.09465671;0;0;0;0.2711268;2.752566;0.1837609;0.2667288;1.316139;-0.09465671;0;0;0
981716.9921;NotLabelled;NONE;16384;0.737174;-0.5124654;-0.3933518;-0.1980609;-33;8;39;630;3956;1709;65536;-0.501385;0.5761772;0.5823487;0.2783934;15;21;-40;-2852;4201;-1938;8192;-0.1288089;0.1689751;-0.8105925;-0.5457063;-27;14;-43;-612;3993;1441;32768;-0.1883656;0.001385042;0.7497452;0.634349;36;-22;52;2137;4415;-1582;256;0.5817174;-0.6649743;0.3060942;0.3545706;2;4;1;-27;4002;-445;128;0.5734072;-0.7080516;0.2077562;0.3559557;-1;3;0;-533;3985;1010;4;0.6218836;-0.6369174;-0.3822715;-0.2479224;0;1;1;614;3932;246;16;-0.08033241;0.03185596;0.6301939;0.7716136;0;0;0;361;4097;812;2;-0.1966759;0.2506925;-0.6578947;-0.6823829;-1;3;-2;-266;4012;-190;8;-0.04155125;0.1357341;0.6191136;0.7723653;2;1;1;-489;4085;1007;0.5838168;2.794631;0.1908586;0.5898028;3.340144;0.1918783;0.5950646;3.819654;0.1907519;0.59796;4.546818;0.2891715;0.3405744;4.876159;0.2951239;-0.001315206;4.730093;0.33889;-0.3188041;3.880879;0.1481933;-0.1911685;3.020476;-0.2275904;0.8609142;4.87409;0.2951232;1.149245;4.725516;0.3388893;1.451128;3.825803;0.1725825;1.405186;2.918993;-0.09828806;0.2715623;2.752566;0.1831188;0.2665038;1.316139;-0.09528843;0;0;0;0.2715623;2.752566;0.1831188;0.2665038;1.316139;-0.09528843;0;0;0
981736.995;NotLabelled;NONE;16384;0.736471;-0.5096953;-0.400277;-0.1939058;-34;4;45;688;4016;1755;65536;-0.4986149;0.5747922;0.5886834;0.2728532;22;16;-48;-2744;4273;-2070;8192;-0.1246537;0.1745152;-0.8137729;-0.5401662;-28;14;-50;-750;4091;1545;32768;-0.1966759;-0.001385042;0.752274;0.6288089;42;-23;60;2149;4465;-1720;256;0.5817174;-0.6649743;0.3060942;0.3545706;3;4;1;35;4020;-377;128;0.5734072;-0.7087463;0.2077562;0.3545706;-3;4;0;-511;3933;1018;4;0.6218836;-0.636084;-0.3836565;-0.2479224;0;2;2;662;3934;228;16;-0.08033241;0.03185596;0.6301939;0.7716136;0;0;0;327;4125;816;2;-0.1966759;0.2506925;-0.6578947;-0.6823829;-1;2;-2;-234;4064;-334;8;-0.04155125;0.1357341;0.6191136;0.7723653;2;2;1;-445;4093;1013;0.5841923;2.794621;0.1903571;0.5901784;3.340132;0.1920625;0.5954401;3.819643;0.1915388;0.5993882;4.546633;0.2912064;0.3424801;4.876335;0.2977222;0.0003787577;4.73069;0.3412352;-0.3218737;3.886086;0.1384341;-0.1933849;3.031381;-0.2498522;0.8628162;4.873512;0.2977217;1.150931;4.724446;0.3412345;1.456896;3.828688;0.1615716;1.405091;2.926892;-0.1245517;0.2719381;2.752566;0.1825599;0.2663071;1.316139;-0.09583624;0;0;0;0.2719381;2.752566;0.1825599;0.2663071;1.316139;-0.09583624;0;0;0
981757.9899;NotLabelled;NONE;16384;0.7363772;-0.5069252;-0.4072022;-0.1869806;-38;0;53;772;3984;1841;65536;-0.4958449;0.5747922;0.5935449;0.267313;29;14;-57;-2988;4215;-2198;8192;-0.1204986;0.1800554;-0.8168446;-0.534626;-32;16;-54;-700;4113;1663;32768;-0.2063712;-0.006925208;0.754254;0.6232687;51;-20;69;2041;4499;-1990;256;0.5817174;-0.6656101;0.3047091;0.3545706;4;4;2;7;3914;-435;128;0.5734072;-0.7091508;0.2063712;0.3545706;-4;3;0;-437;3989;972;4;0.6204986;-0.6374352;-0.3836565;-0.2479224;0;1;2;680;3972;252;16;-0.08033241;0.03185596;0.6301939;0.7716136;0;2;0;387;4155;844;2;-0.1966759;0.2520775;-0.6578947;-0.6818724;-1;1;-2;-298;3982;-320;8;-0.04155125;0.1357341;0.6191136;0.7723653;2;1;1;-387;4133;961;0.5859464;2.79411;0.1929411;0.5919324;3.339622;0.194615;0.5971943;3.819132;0.1940637;0.6011423;4.546122;0.2937313;0.3442341;4.875823;0.3002471;0.002132788;4.730178;0.3437601;-0.3238269;3.890556;0.1267028;-0.1916435;3.043022;-0.2758013;0.8645704;4.873;0.3002465;1.152685;4.723935;0.3437594;1.464496;3.833493;0.1484036;1.409633;2.937565;-0.1550564;0.2736921;2.752054;0.1851466;0.2663074;1.316139;-0.09583621;0;0;0;0.2736921;2.752054;0.1851466;0.2663074;1.316139;-0.09583621;0;0;0
981779.6839;NotLabelled;NONE;16384;0.7364137;-0.501385;-0.4210526;-0.1703601;-52;-9;66;1042;3932;2317;65536;-0.4889196;0.5720221;0.6090168;0.2506925;39;20;-72;-3322;4365;-2382;8192;-0.1149584;0.1869806;-0.8196895;-0.5290859;-34;23;-59;-860;3977;1723;32768;-0.2174515;-0.01385042;0.7567322;0.6163435;56;-18;74;2053;4619;-2040;256;0.5817174;-0.6662424;0.3033241;0.3545706;5;5;1;49;4068;-449;128;0.5734072;-0.7091508;0.2063712;0.3545706;-4;4;0;-459;4015;1016;4;0.6204986;-0.6374352;-0.3836565;-0.2479224;0;1;3;674;3944;258;16;-0.08033241;0.03185596;0.6301939;0.7716136;0;1;0;363;4079;862;2;-0.1966759;0.2520775;-0.6578947;-0.6818724;0;1;-1;-266;3990;-222;8;-0.04155125;0.1357341;0.6191136;0.7723653;2;0;0;-437;4017;937;0.5807363;2.793976;0.1931748;0.5867223;3.339485;0.195531;0.591984;3.818995;0.1955794;0.5969884;4.545807;0.2964895;0.34056;4.87587;0.3035665;-0.001753345;4.730649;0.3468273;-0.3334111;3.897623;0.1135897;-0.19728;3.056823;-0.3015248;0.8608915;4.872291;0.303566;1.148789;4.722732;0.3468267;1.465883;3.837877;0.1352667;1.403252;2.949697;-0.1887726;0.268482;2.75193;0.1853235;0.2661099;1.316139;-0.09638236;0;0;0;0.268482;2.75193;0.1853235;0.2661099;1.316139;-0.09638236;0;0;0
981801.6658;NotLabelled;NONE;16384;0.7361037;-0.4972299;-0.4307479;-0.1592798;-61;-10;73;1148;4104;2489;65536;-0.4847645;0.5692521;0.6187696;0.2409972;41;28;-80;-3568;4519;-2444;8192;-0.1052632;0.2036011;-0.8266947;-0.5138504;-42;27;-74;-1384;4223;1915;32768;-0.2409972;-0.02493075;0.7637346;0.5983379;69;-39;82;2831;4809;-2484;256;0.5817174;-0.6662424;0.3033241;0.3545706;2;3;1;15;4016;-473;128;0.5734072;-0.7095524;0.2049861;0.3545706;-4;3;0;-559;3927;1052;4;0.6204986;-0.6374352;-0.3836565;-0.2479224;0;1;2;652;3968;266;16;-0.08033241;0.03185596;0.6301939;0.7716136;1;0;0;359;4109;810;2;-0.1966759;0.2520775;-0.6578947;-0.6818724;-1;1;-2;-308;4058;-248;8;-0.04155125;0.134349;0.6204986;0.7714955;2;0;0;-397;4125;987;0.5811151;2.793976;0.192625;0.5871012;3.339485;0.1949813;0.592363;3.818995;0.1950297;0.5984272;4.545627;0.2971768;0.3424809;4.876052;0.3048126;-4.48525E-05;4.731256;0.3478221;-0.3436706;3.913905;0.07914689;-0.1989154;3.094557;-0.3741858;0.8628067;4.871713;0.304812;1.150485;4.721661;0.3478216;1.471132;3.842965;0.1168325;1.399887;2.964786;-0.2317553;0.2688609;2.75193;0.1847736;0.2659122;1.316139;-0.0969269;0;0;0;0.2688609;2.75193;0.1847736;0.2659122;1.316139;-0.0969269;0;0;0
981821.9426;NotLabelled;NONE;16384;0.7375057;-0.4916897;-0.4390582;-0.1468144;-72;-11;81;1466;4200;2647;65536;-0.4792244;0.566482;0.6292388;0.2313019;44;34;-88;-3848;4671;-2838;8192;-0.09833795;0.2119114;-0.8305736;-0.5055401;-46;21;-83;-1610;4387;1941;32768;-0.2562327;-0.03047091;0.7671667;0.5872576;77;-54;84;2841;5151;-2956;256;0.5817174;-0.6676059;0.301939;0.3531856;3;2;1;69;3988;-529;128;0.5720221;-0.7110674;0.2036011;0.3545706;-6;1;0;-423;4025;1054;4;0.6204986;-0.6365995;-0.3850415;-0.2479224;0;0;2;666;3894;312;16;-0.08033241;0.03185596;0.6301939;0.7716136;0;0;0;343;4127;814;2;-0.1952908;0.2534626;-0.6578947;-0.6817571;-1;1;-3;-264;4048;-256;8;-0.04155125;0.134349;0.6204986;0.7714955;1;1;0;-515;4097;1019;0.581115;2.793966;0.1926827;0.5871009;3.339472;0.1957176;0.5923627;3.818982;0.1963626;0.5984268;4.545612;0.29851;0.3424806;4.876039;0.3061458;-4.48972E-05;4.731244;0.3491552;-0.3512234;3.925618;0.05594961;-0.201682;3.120051;-0.4199681;0.8628064;4.871698;0.3061453;1.150484;4.721646;0.3491549;1.485781;3.860082;0.07793933;1.404168;3.005458;-0.32299;0.2688608;2.75193;0.1847747;0.2659122;1.31614;-0.09692627;0;0;0;0.2688608;2.75193;0.1847747;0.2659122;1.31614;-0.09692627;0;0;0
981842.14;NotLabelled;NONE;16384;0.7368746;-0.4861496;-0.4501385;-0.134349;-80;-9;89;1602;4212;2775;65536;-0.4736842;0.5609418;0.6417617;0.2216066;60;52;-95;-4146;4951;-2700;8192;-0.0900277;0.2202216;-0.8351858;-0.4958449;-51;17;-92;-1678;4455;2133;32768;-0.2714681;-0.03462604;0.7711809;0.5747922;86;-55;89;2709;5263;-3232;256;0.5817174;-0.6676059;0.301939;0.3531856;6;6;-1;7;4034;-447;128;0.5720221;-0.7110674;0.2036011;0.3545706;-6;0;-1;-507;3945;1086;4;0.6204986;-0.6365995;-0.3850415;-0.2479224;0;0;2;728;3860;308;16;-0.08171745;0.03185596;0.6301939;0.7714682;0;0;0;405;4129;790;2;-0.1952908;0.2534626;-0.6578947;-0.6817571;0;2;-2;-336;3990;-288;8;-0.04293629;0.134349;0.6204986;0.7714196;1;1;0;-433;4157;943;0.5837004;2.793417;0.1942668;0.5896862;3.338904;0.1997582;0.5949479;3.818407;0.2025625;0.6005826;4.544866;0.3059395;0.3444416;4.875128;0.3141309;0.002000749;4.730058;0.3568904;-0.3622715;3.938385;0.04242603;-0.2077057;3.14809;-0.4569121;0.8647698;4.871095;0.3141304;1.152535;4.721139;0.35689;1.493722;3.870112;0.06088597;1.402333;3.031111;-0.3698283;0.2714466;2.751418;0.1861543;0.2654822;1.316139;-0.0980988;0;0;0;0.2714466;2.751418;0.1861543;0.2654822;1.316139;-0.0980988;0;0;0
981863.1398;NotLabelled;NONE;16384;0.7365388;-0.4709141;-0.4736842;-0.1066482;-87;0;103;1618;4078;2913;65536;-0.4612188;0.5457063;0.6710094;0.1980609;75;62;-114;-4424;4895;-2564;8192;-0.08033241;0.2285319;-0.8396299;-0.4861496;-59;22;-102;-1784;4417;2293;32768;-0.2867036;-0.03878116;0.7756554;0.5609418;95;-52;96;3139;5115;-3152;256;0.5803324;-0.6694337;0.300554;0.3531856;8;6;-2;57;3964;-577;128;0.5706371;-0.7125739;0.2022161;0.3545706;-7;0;0;-539;3971;1128;4;0.6204986;-0.6371372;-0.3850415;-0.2465374;0;-2;3;632;3996;230;16;-0.08171745;0.03185596;0.6301939;0.7714682;1;0;1;379;4167;808;2;-0.1952908;0.2534626;-0.6578947;-0.6817571;0;0;-1;-390;4006;-222;8;-0.04293629;0.134349;0.6204986;0.7714196;2;0;0;-401;4135;981;0.585043;2.793289;0.1962124;0.5910288;3.338776;0.2017038;0.5962905;3.818278;0.204508;0.6019253;4.544738;0.3078854;0.3457842;4.875;0.3160771;0.003343493;4.72993;0.3588367;-0.3697184;3.953764;0.01719278;-0.2099427;3.180689;-0.5068523;0.8661125;4.870966;0.3160764;1.153878;4.721012;0.3588357;1.503595;3.882969;0.03687245;1.406337;3.060735;-0.4238421;0.2727892;2.751289;0.1880998;0.2668246;1.316012;-0.09615407;0;0;0;0.2727892;2.751289;0.1880998;0.2668246;1.316012;-0.09615407;0;0;0
981883.9491;NotLabelled;NONE;16384;0.7348139;-0.4626039;-0.4875346;-0.09141274;-89;1;111;1610;4012;2829;65536;-0.4529086;0.5373961;0.6874984;0.1828255;83;65;-126;-4554;5011;-2636;8192;-0.07063711;0.2396122;-0.8445234;-0.4736842;-64;26;-110;-1862;4275;2321;32768;-0.3033241;-0.04570637;0.7798141;0.5457063;104;-59;103;3543;5027;-3152;256;0.5803324;-0.6700538;0.299169;0.3531856;12;6;-3;85;3912;-687;128;0.5692521;-0.7129911;0.2022161;0.3559557;-7;0;0;-543;4033;1168;4;0.6204986;-0.6371372;-0.3850415;-0.2465374;-1;-4;3;690;3902;274;16;-0.08171745;0.03185596;0.6301939;0.7714682;1;-2;0;397;4095;850;2;-0.1952908;0.2548476;-0.6592798;-0.6799002;0;-1;-2;-296;4046;-242;8;-0.04293629;0.134349;0.6204986;0.7714196;2;0;0;-445;4105;947;0.5850261;2.792668;0.1988047;0.5910115;3.338125;0.206747;0.5962731;3.817609;0.2117057;0.6017385;4.54355;0.3186694;0.3455219;4.87371;0.3284821;0.00311254;4.728353;0.3705117;-0.3938212;3.991699;-0.02712464;-0.225026;3.262845;-0.6085668;0.865851;4.869795;0.3284812;1.153649;4.719696;0.3705105;1.509843;3.895849;0.0202592;1.406832;3.092352;-0.4712392;0.2727727;2.750705;0.1904883;0.266629;1.316011;-0.09669576;0;0;0;0.2727727;2.750705;0.1904883;0.266629;1.316011;-0.09669576;0;0;0
981904.9435;NotLabelled;NONE;16384;0.732412;-0.4542936;-0.501385;-0.07617728;-92;3;118;1584;4080;2661;65536;-0.4445983;0.5277008;0.7041149;0.16759;93;65;-136;-4486;5169;-2720;8192;-0.04570637;0.2603878;-0.8543832;-0.4473684;-68;12;-127;-2260;4175;2113;32768;-0.3407202;-0.05540166;0.788962;0.5083103;129;-88;109;3437;5317;-3370;256;0.5761772;-0.6748536;0.2963989;0.3531856;23;9;-1;33;4078;-603;128;0.5692521;-0.7129911;0.2022161;0.3559557;-7;1;0;-639;3907;1194;4;0.6204986;-0.6376714;-0.3850415;-0.2451524;0;-2;2;840;3862;286;16;-0.08171745;0.03185596;0.6301939;0.7714682;1;-2;0;383;4059;740;2;-0.1939058;0.2548476;-0.6592798;-0.6802966;0;0;-2;-184;4072;-252;8;-0.04293629;0.134349;0.6218836;0.7703035;2;0;0;-357;4121;935;0.585412;2.79264;0.1984008;0.5913971;3.338068;0.2081523;0.5966585;3.817533;0.2147015;0.603199;4.543285;0.3228856;0.3474724;4.873806;0.3332501;0.004847169;4.728888;0.3750308;-0.4027746;4.016063;-0.05398484;-0.227024;3.316592;-0.6685162;0.8677952;4.86912;0.3332494;1.15537;4.718524;0.3750301;1.520879;3.913051;-0.006928563;1.409056;3.132849;-0.5328249;0.273159;2.750705;0.1899339;0.266432;1.316011;-0.09723718;0;0;0;0.273159;2.750705;0.1899339;0.266432;1.316011;-0.09723718;0;0;0
981926.9594;NotLabelled;NONE;16384;0.7301718;-0.4445983;-0.5152354;-0.06094183;-98;2;124;1562;4048;2763;65536;-0.4362881;0.5180055;0.7206663;0.1481994;105;59;-143;-4076;5211;-2680;8192;-0.033241;0.2700831;-0.8597739;-0.432133;-76;7;-132;-2336;4091;2195;32768;-0.3601108;-0.05955679;0.7939973;0.4861496;140;-88;109;3123;5271;-3304;256;0.5720221;-0.6801795;0.2922437;0.3531856;24;5;0;25;3930;-675;128;0.567867;-0.7144855;0.200831;0.3559557;-6;2;0;-547;3851;1276;4;0.6204986;-0.6376714;-0.3850415;-0.2451524;0;1;2;922;3902;282;16;-0.08171745;0.03185596;0.6301939;0.7714682;0;0;0;327;4049;714;2;-0.1939058;0.2548476;-0.6592798;-0.6802966;0;1;-2;-212;4028;-164;8;-0.04293629;0.134349;0.6218836;0.7703035;1;0;0;-405;4071;977;0.5858057;2.79205;0.2002476;0.5917907;3.337477;0.2099991;0.597052;3.816943;0.2165482;0.6020813;4.541232;0.3342046;0.3456704;4.87106;0.3488556;0.003341973;4.724899;0.3886992;-0.4145353;4.037203;-0.07040937;-0.2339228;3.368933;-0.7173957;0.8660018;4.86745;0.3488553;1.153883;4.716915;0.388699;1.534583;3.95527;-0.06212211;1.405759;3.231011;-0.6593164;0.2735527;2.750115;0.1917806;0.2660393;1.316011;-0.09830607;0;0;0;0.2735527;2.750115;0.1917806;0.2660393;1.316011;-0.09830607;0;0;0
981947.101;NotLabelled;NONE;16384;0.7271165;-0.433518;-0.5304709;-0.04432133;-106;-3;130;1736;3836;2951;65536;-0.4279778;0.5069252;0.7373093;0.1274238;112;53;-148;-3920;5149;-2602;8192;-0.01939058;0.2797784;-0.8652731;-0.4155124;-82;11;-138;-2412;4055;2295;32768;-0.3781163;-0.06509695;0.7992422;0.4626039;153;-85;106;2797;5089;-3418;256;0.5692521;-0.683679;0.2894737;0.3531856;26;8;-1;-29;3970;-791;128;0.566482;-0.7155841;0.200831;0.3559557;-5;2;1;-491;3929;1284;4;0.6204986;-0.6376714;-0.3850415;-0.2451524;0;2;2;908;3898;232;16;-0.08171745;0.03185596;0.6301939;0.7714682;0;1;0;385;4117;772;2;-0.1939058;0.2548476;-0.6592798;-0.6802966;0;2;-2;-316;4024;-228;8;-0.04293629;0.134349;0.6218836;0.7703035;2;2;1;-409;4151;971;0.5869492;2.792011;0.1988087;0.5929338;3.337389;0.2110036;0.5981947;3.816821;0.2197008;0.6028937;4.539312;0.3479483;0.3463362;4.868778;0.3674004;0.0040683;4.7219;0.4050653;-0.4261777;4.061779;-0.08223139;-0.24301;3.431056;-0.765193;0.8666692;4.865397;0.3673999;1.154613;4.714421;0.4050648;1.5433;3.978905;-0.08095497;1.404278;3.288009;-0.7142977;0.2746965;2.750114;0.1901387;0.2654459;1.316011;-0.09989776;0;0;0;0.2746965;2.750114;0.1901387;0.2654459;1.316011;-0.09989776;0;0;0
981966.9824;NotLabelled;NONE;16384;0.7194794;-0.4113573;-0.5595568;-0.005540166;-112;-6;132;1898;3324;3253;65536;-0.4113573;0.4847645;0.7673868;0.08310249;124;47;-152;-3234;4911;-2492;8192;-0.004155125;0.2894737;-0.8700994;-0.398892;-81;15;-144;-2422;3839;2431;32768;-0.3961219;-0.07202215;0.8047068;0.4362881;161;-80;103;2625;4989;-3220;256;0.567867;-0.6846982;0.2880886;0.3545706;26;7;-2;-17;3964;-919;128;0.566482;-0.7159714;0.199446;0.3559557;-6;4;1;-571;3969;1264;4;0.6191136;-0.63871;-0.3864266;-0.2437673;1;4;0;882;3872;250;16;-0.08171745;0.03185596;0.6301939;0.7714682;0;1;0;347;4139;758;2;-0.1952908;0.2562327;-0.6592798;-0.6793795;-1;3;-2;-314;4086;-236;8;-0.04432133;0.134349;0.6218836;0.7702251;2;2;0;-417;4171;945;0.5876997;2.791983;0.1978665;0.5936838;3.337318;0.2118313;0.5989444;3.81672;0.2220842;0.6034806;4.537933;0.3573362;0.3468511;4.86714;0.379968;0.004612446;4.71983;0.4161846;-0.4370157;4.091752;-0.102287;-0.2513797;3.502526;-0.8207219;0.8671848;4.863871;0.3799672;1.155159;4.712599;0.4161835;1.552426;4.006959;-0.1058577;1.405563;3.352892;-0.775496;0.2754474;2.750115;0.1890494;0.2650481;1.316011;-0.1009482;0;0;0;0.2754474;2.750115;0.1890494;0.2650481;1.316011;-0.1009482;0;0;0
981987.9472;NotLabelled;NONE;16384;0.7144063;-0.398892;-0.5747922;0.01108033;-111;3;134;2036;3268;3195;65536;-0.4016621;0.4736842;0.7815011;0.05955679;126;52;-150;-3150;4729;-2324;8192;0.009695291;0.300554;-0.8743562;-0.3808864;-81;10;-146;-2366;3713;2453;32768;-0.4127424;-0.07894737;0.8095269;0.4099723;170;-76;100;2501;4939;-3068;256;0.5650969;-0.6881413;0.2853186;0.3545706;26;9;-1;59;4052;-983;128;0.5650969;-0.7170651;0.199446;0.3559557;-4;4;2;-531;3957;1388;4;0.6191136;-0.63871;-0.3864266;-0.2437673;1;5;0;850;3902;288;16;-0.08171745;0.03185596;0.6301939;0.7714682;0;1;0;343;4079;822;2;-0.1952908;0.2562327;-0.6592798;-0.6793795;-1;5;-2;-268;4070;-258;8;-0.04293629;0.134349;0.6232687;0.7691833;2;3;1;-409;4139;931;0.58355;2.790696;0.204393;0.5895339;3.336014;0.2190262;0.5947943;3.815403;0.2298669;0.6006962;4.535943;0.3686062;0.3446922;4.865524;0.3928222;0.002172798;4.718691;0.428315;-0.4562076;4.164077;-0.1553117;-0.2613703;3.665278;-0.9369988;0.8650187;4.861265;0.3928221;1.152703;4.709272;0.4283152;1.558109;4.035675;-0.1286292;1.406778;3.424364;-0.8365734;0.2712978;2.748839;0.1955202;0.265092;1.316011;-0.1008329;0;0;0;0.2712978;2.748839;0.1955202;0.265092;1.316011;-0.1008329;0;0;0
982009.5277;NotLabelled;NONE;16384;0.7094564;-0.3864266;-0.5886427;0.02908587;-111;0;132;2030;3200;2967;65536;-0.3933518;0.4598338;0.7953179;0.03601108;128;59;-145;-3192;4589;-2322;8192;0.0401662;0.3185596;-0.8820246;-0.3448753;-92;3;-141;-2304;3507;2793;32768;-0.4432133;-0.09279778;0.8180649;0.3545706;174;-74;94;2499;4557;-2868;256;0.5623268;-0.6909775;0.2839335;0.3545706;24;5;-1;185;4064;-1065;128;0.5650969;-0.7181343;0.1980609;0.3545706;-4;4;2;-519;3943;1392;4;0.6191136;-0.6373389;-0.3878116;-0.2451524;2;6;0;926;3860;296;16;-0.08171745;0.03185596;0.6301939;0.7714682;0;0;0;405;4083;768;2;-0.1952908;0.2576177;-0.6592798;-0.6788555;0;5;0;-422;3958;-260;8;-0.04293629;0.132964;0.6232687;0.769424;2;3;0;-367;4127;905;0.5843128;2.790667;0.2034764;0.5902961;3.335935;0.2198769;0.5955562;3.815285;0.232271;0.6013492;4.534457;0.3779476;0.3452985;4.863754;0.4053181;0.002796218;4.71654;0.4393674;-0.4630924;4.199823;-0.1724177;-0.2654865;3.75101;-0.9831679;0.8656255;4.859567;0.4053179;1.153328;4.707277;0.4393673;1.565884;4.068583;-0.152361;1.407239;3.50134;-0.8945571;0.2720609;2.748839;0.1944571;0.2646953;1.316011;-0.1018696;0;0;0;0.2720609;2.748839;0.1944571;0.2646953;1.316011;-0.1018696;0;0;0
982031.0462;NotLabelled;NONE;16384;0.7047018;-0.3739612;-0.601108;0.04709141;-119;2;128;1706;2960;3219;65536;-0.3850415;0.4445983;0.8086306;0.01385042;130;65;-142;-2942;4363;-2234;8192;0.05401662;0.3268698;-0.8861138;-0.3240997;-102;1;-139;-2372;3355;2879;32768;-0.4556787;-0.09972299;0.8224791;0.3254848;173;-75;89;2377;4327;-2716;256;0.5567867;-0.6976857;0.2783934;0.3545706;25;8;-2;19;4158;-1155;128;0.5637119;-0.7196021;0.1966759;0.3545706;0;4;2;-593;4027;1470;4;0.6177285;-0.6386814;-0.3878116;-0.2451524;1;7;0;828;3956;286;16;-0.08171745;0.03185596;0.6301939;0.7714682;0;1;0;365;4113;770;2;-0.1966759;0.2590028;-0.6592798;-0.677928;-1;5;0;-442;4056;-234;8;-0.04293629;0.132964;0.6232687;0.769424;1;2;0;-397;4087;865;0.5868239;2.790733;0.202569;0.5928071;3.335981;0.2196001;0.5980669;3.815317;0.2325485;0.6026523;4.533311;0.3839641;0.3460509;4.861951;0.4139469;0.003792942;4.713898;0.4467975;-0.4688312;4.237136;-0.1916795;-0.2710033;3.840032;-1.028919;0.8663843;4.858632;0.4139467;1.154339;4.706556;0.4467974;1.578975;4.142302;-0.2086231;1.411591;3.6705;-1.013094;0.2745721;2.748915;0.1934974;0.2644973;1.316011;-0.1023824;0;0;0;0.2745721;2.748915;0.1934974;0.2644973;1.316011;-0.1023824;0;0;0
982051.2496;NotLabelled;NONE;16384;0.7004327;-0.3587258;-0.6135734;0.06509695;-125;2;122;1580;2620;3333;65536;-0.3767313;0.4293629;0.8207759;-0.006925208;130;64;-138;-2580;3967;-2188;8192;0.06786703;0.33518;-0.8894059;-0.3033241;-106;1;-136;-2314;2931;2667;32768;-0.4695291;-0.1066482;0.8243139;0.2977839;172;-78;85;2165;4055;-2556;256;0.5540166;-0.6997339;0.2770083;0.3559557;23;8;-3;-73;4120;-1227;128;0.5637119;-0.7202829;0.1966759;0.3531856;0;5;2;-435;4033;1446;4;0.6177285;-0.6378383;-0.3891967;-0.2451524;1;5;-1;778;3878;296;16;-0.08171745;0.03047091;0.6301939;0.7715241;0;1;0;407;4093;754;2;-0.1966759;0.2590028;-0.6592798;-0.677928;0;5;0;-444;4008;-210;8;-0.04293629;0.132964;0.6232687;0.769424;0;2;0;-301;4137;889;0.5827701;2.790536;0.2015802;0.5887524;3.335703;0.221038;0.5940116;3.814976;0.2361199;0.5985722;4.52995;0.4012069;0.3419643;4.857957;0.4374233;-0.0002961308;4.709303;0.4674016;-0.4834476;4.272934;-0.1917469;-0.2905705;3.927239;-1.052612;0.8622977;4.854641;0.437423;1.15025;4.701969;0.4674013;1.57969;4.179746;-0.2189946;1.405946;3.758483;-1.04974;0.2705188;2.748758;0.1923072;0.2636991;1.316011;-0.1044214;0;0;0;0.2705188;2.748758;0.1923072;0.2636991;1.316011;-0.1044214;0;0;0
982072.9667;NotLabelled;NONE;16384;0.69295;-0.3282548;-0.634349;0.09833795;-128;-1;110;1576;2140;3341;65536;-0.3614958;0.3961219;0.8425688;-0.04986149;124;69;-128;-2206;3517;-2316;8192;0.07894737;0.3407202;-0.8932208;-0.2825485;-108;-10;-129;-2208;2741;2687;32768;-0.4806094;-0.1135734;0.8269928;0.2686981;168;-72;82;1791;3795;-2464;256;0.5512465;-0.7024633;0.2756233;0.3559557;22;8;-4;-53;4136;-1223;128;0.5637119;-0.7202829;0.1966759;0.3531856;0;3;2;-465;4019;1484;4;0.6177285;-0.6373042;-0.3891967;-0.2465374;1;5;-1;772;3846;218;16;-0.08171745;0.03047091;0.6301939;0.7715241;0;1;0;373;4091;776;2;-0.1966759;0.2603878;-0.6592798;-0.6773972;0;4;0;-420;3998;-228;8;-0.04293629;0.132964;0.6246537;0.7682999;0;2;0;-339;4103;809;0.5864024;2.789796;0.2063985;0.5923846;3.334965;0.2258212;0.5976438;3.81424;0.2408721;0.6024587;4.527884;0.4116045;0.3459696;4.855689;0.4503989;0.003652737;4.706929;0.4791842;-0.4863277;4.314837;-0.2023669;-0.2909686;4.019012;-1.08107;0.8663017;4.852181;0.4503987;1.154196;4.699171;0.4791842;1.59226;4.220226;-0.2328457;1.412763;3.849881;-1.086317;0.2741511;2.748018;0.1971285;0.2656455;1.315802;-0.1021062;0;0;0;0.2741511;2.748018;0.1971285;0.2656455;1.315802;-0.1021062;0;0;0
982093.9971;NotLabelled;NONE;16384;0.6897771;-0.3130194;-0.6426592;0.1149584;-132;3;102;1592;2078;3171;65536;-0.3531856;0.3781163;0.8529315;-0.06925207;123;74;-124;-2364;3345;-2436;8192;0.0900277;0.3434903;-0.8974321;-0.2617728;-114;-17;-119;-2248;2581;2685;32768;-0.4916897;-0.1191136;0.8282351;0.2409972;164;-77;76;1803;3623;-2626;256;0.5484765;-0.7051684;0.2742382;0.3559557;20;5;-6;7;4050;-1323;128;0.5637119;-0.7202829;0.1966759;0.3531856;3;1;2;-425;4021;1388;4;0.6177285;-0.6367667;-0.3891967;-0.2479224;2;5;-2;790;3942;252;16;-0.08171745;0.03047091;0.6301939;0.7715241;0;1;0;383;4133;832;2;-0.1966759;0.2603878;-0.6592798;-0.6773972;-1;4;0;-424;3980;-238;8;-0.04293629;0.132964;0.6246537;0.7682999;0;1;0;-363;4097;877;0.5870698;2.790408;0.2029244;0.593052;3.335576;0.2223471;0.5983113;3.814851;0.2373982;0.6020213;4.527137;0.4137458;0.3450267;4.854231;0.4551071;0.002938077;4.704721;0.4827017;-0.5015693;4.398282;-0.2313684;-0.3081498;4.206466;-1.138888;0.8653636;4.851523;0.4551067;1.153492;4.698733;0.4827013;1.60117;4.261236;-0.249729;1.418774;3.943507;-1.123553;0.2748186;2.748631;0.1936546;0.2654514;1.315802;-0.1026098;0;0;0;0.2748186;2.748631;0.1936546;0.2654514;1.315802;-0.1026098;0;0;0
982113.9398;NotLabelled;NONE;16384;0.686612;-0.2963989;-0.6509695;0.1301939;-138;6;93;1448;1732;3267;65536;-0.3462604;0.3601108;0.8617229;-0.08864266;124;81;-121;-2238;3139;-2458;8192;0.1052632;0.3462604;-0.9064978;-0.2174515;-133;-28;-94;-2256;1895;3023;32768;-0.5110803;-0.1232687;0.8301542;0.1855956;157;-100;67;1533;3113;-2736;256;0.5470914;-0.7080083;0.2714681;0.3545706;20;5;-6;-19;4136;-1319;128;0.5637119;-0.7202829;0.1966759;0.3531856;2;1;4;-413;4135;1522;4;0.6177285;-0.6367667;-0.3891967;-0.2479224;1;3;-2;786;3978;244;16;-0.08171745;0.03047091;0.6301939;0.7715241;0;0;-1;375;4153;770;2;-0.1966759;0.2603878;-0.6592798;-0.6773972;0;2;1;-480;3966;-216;8;-0.04155125;0.1315789;0.6246537;0.7686145;0;2;0;-423;4113;877;0.5877368;2.791014;0.1994492;0.5937191;3.336183;0.2188719;0.5989784;3.815457;0.233923;0.6016076;4.52634;0.4158577;0.3441181;4.852712;0.4597754;0.002254769;4.702475;0.4861813;-0.5105662;4.438734;-0.2389294;-0.3168348;4.297526;-1.155622;0.8644586;4.85079;0.4597752;1.152816;4.698223;0.4861815;1.609295;4.302032;-0.2641086;1.421341;4.034696;-1.153486;0.2754855;2.749236;0.1901791;0.2652569;1.315802;-0.1031115;0;0;0;0.2754855;2.749236;0.1901791;0.2652569;1.315802;-0.1031115;0;0;0
982136.194;NotLabelled;NONE;16384;0.6852514;-0.2797784;-0.6565097;0.1454294;-142;5;85;1448;1430;3421;65536;-0.3407202;0.3421052;0.8695304;-0.1038781;121;77;-118;-1826;2713;-2446;8192;0.1108033;0.3462604;-0.9111679;-0.1939058;-140;-32;-80;-2196;1659;3051;32768;-0.5180055;-0.1218837;0.831265;0.1606648;156;-107;62;1321;2745;-2622;256;0.5415512;-0.7127812;0.2700831;0.3545706;12;-2;-6;-191;4118;-1329;128;0.5637119;-0.7205811;0.1980609;0.3518005;4;0;4;-557;4135;1426;4;0.6177285;-0.6367667;-0.3891967;-0.2479224;1;2;-2;736;3960;296;16;-0.08171745;0.03185596;0.6301939;0.7714682;0;0;-1;365;4095;824;2;-0.1966759;0.2617728;-0.6592798;-0.6768632;0;1;1;-430;3988;-160;8;-0.04155125;0.1315789;0.6246537;0.7686145;0;1;-1;-317;4083;895;0.5889164;2.791014;0.1977288;0.5948987;3.336182;0.2171515;0.6001579;3.815456;0.2322025;0.602686;4.525187;0.4185828;0.345151;4.851243;0.4645362;0.003307626;4.700797;0.4899935;-0.5246621;4.480176;-0.2386377;-0.3372228;4.388564;-1.162905;0.8654916;4.849393;0.4645358;1.15387;4.696703;0.4899934;1.629156;4.383847;-0.2875018;1.429237;4.211192;-1.197452;0.2766652;2.749236;0.1884587;0.264609;1.315801;-0.1047624;0;0;0;0.2766652;2.749236;0.1884587;0.264609;1.315801;-0.1047624;0;0;0
982156.9882;NotLabelled;NONE;16384;0.6841601;-0.2603878;-0.6620498;0.1606648;-148;11;78;1640;1274;3593;65536;-0.333795;0.3240997;0.8773142;-0.1177285;113;80;-114;-2020;2299;-2568;8192;0.1135734;0.3434903;-0.9165658;-0.1703601;-144;-36;-69;-2252;1737;3019;32768;-0.5249307;-0.1204986;0.8317922;0.134349;151;-109;55;1151;2355;-2648;256;0.5401662;-0.7133058;0.2714681;0.3545706;13;-3;-7;-61;4138;-1399;128;0.5637119;-0.720199;0.199446;0.3518005;3;-1;5;-425;4203;1424;4;0.6177285;-0.637071;-0.3878116;-0.2493075;0;2;-2;728;3918;268;16;-0.08171745;0.03185596;0.6301939;0.7714682;-1;1;-1;361;4115;794;2;-0.1980609;0.2617728;-0.6578947;-0.6778063;0;0;1;-400;4004;-218;8;-0.04155125;0.1315789;0.6246537;0.7686145;-1;0;-1;-357;4111;895;0.587353;2.791235;0.1949986;0.5933355;3.336428;0.2137255;0.5985949;3.815722;0.2281649;0.5978994;4.522768;0.424496;0.3388856;4.846972;0.4750119;-0.002269998;4.69463;0.4983363;-0.5361311;4.515724;-0.2374037;-0.350821;4.465933;-1.165293;0.8592292;4.847487;0.4750116;1.148299;4.695768;0.4983363;1.643166;4.425918;-0.2830492;1.440361;4.292403;-1.198926;0.2751015;2.749446;0.1857864;0.2624959;1.316011;-0.1074109;0;0;0;0.2751015;2.749446;0.1857864;0.2624959;1.316011;-0.1074109;0;0;0
982177.9728;NotLabelled;NONE;16384;0.684083;-0.2202216;-0.6689751;0.1897507;-163;34;52;1808;732;3407;65536;-0.3227147;0.2839335;0.8920022;-0.1398892;109;118;-107;-1910;1999;-2702;8192;0.1149584;0.3421052;-0.9209746;-0.1468144;-148;-34;-59;-2336;1537;3009;32768;-0.5318559;-0.1177285;0.8318025;0.1066482;147;-109;46;1081;1871;-2872;256;0.5373961;-0.7153951;0.2714681;0.3545706;13;0;-8;-157;4224;-1401;128;0.5637119;-0.720874;0.199446;0.3504155;2;-3;4;-263;4249;1476;4;0.6177285;-0.637071;-0.3878116;-0.2493075;0;2;-1;718;3948;226;16;-0.08033241;0.03185596;0.6301939;0.7716136;-1;1;0;357;4025;772;2;-0.1980609;0.2617728;-0.6578947;-0.6778063;0;0;0;-324;4030;-242;8;-0.04155125;0.1315789;0.6246537;0.7686145;-1;0;-1;-387;4107;859;0.585425;2.792363;0.1900078;0.5914077;3.337579;0.2080705;0.5966673;3.816889;0.2219259;0.593681;4.523624;0.4193569;0.3336178;4.846907;0.4703774;-0.007041946;4.693424;0.4934651;-0.5489423;4.559841;-0.2460134;-0.358553;4.550488;-1.174163;0.8539572;4.849109;0.4703776;1.143517;4.698291;0.4934658;1.658587;4.469181;-0.2878708;1.455311;4.377209;-1.208744;0.2731734;2.750562;0.1808505;0.2626966;1.316011;-0.1069185;0;0;0;0.2731734;2.750562;0.1808505;0.2626966;1.316011;-0.1069185;0;0;0
982198.9613;NotLabelled;NONE;16384;0.6859173;-0.1966759;-0.6703601;0.2036011;-170;47;39;1912;580;3509;65536;-0.3171745;0.2590028;0.8997367;-0.1509695;103;126;-100;-1928;1515;-2656;8192;0.1149584;0.3407202;-0.9249319;-0.1232687;-154;-37;-52;-2536;1395;3039;32768;-0.536011;-0.1163435;0.8324203;0.07894737;139;-112;35;1061;1441;-3006;256;0.536011;-0.7164335;0.2714681;0.3545706;10;-4;-8;-119;4250;-1317;128;0.5637119;-0.7204893;0.200831;0.3504155;1;-4;5;-411;4317;1408;4;0.6177285;-0.637071;-0.3878116;-0.2493075;0;-3;-2;652;3928;222;16;-0.08033241;0.03185596;0.6301939;0.7716136;-1;-1;-1;419;4121;866;2;-0.1980609;0.2617728;-0.6578947;-0.6778063;0;0;0;-302;4068;-256;8;-0.04155125;0.132964;0.6232687;0.7695;0;0;0;-485;4075;971;0.584007;2.792492;0.1881137;0.5899898;3.337708;0.2061437;0.5952494;3.817019;0.2199703;0.5900822;4.522503;0.4217857;0.3290208;4.844655;0.474819;-0.01116082;4.689977;0.4969621;-0.5732129;4.645494;-0.2381896;-0.3765747;4.708247;-1.162956;0.8493508;4.848469;0.4748196;1.139377;4.698409;0.4969636;1.673131;4.510236;-0.2827629;1.466443;4.460716;-1.206134;0.2717555;2.750691;0.1789591;0.2612748;1.316139;-0.1088098;0;0;0;0.2717555;2.750691;0.1789591;0.2612748;1.316139;-0.1088098;0;0;0
982239.3857;NotLabelled;NONE;16384;0.6933721;-0.1481994;-0.66759;0.2271468;-172;51;22;1786;276;2943;65536;-0.3074792;0.2063712;0.9121001;-0.1759003;112;136;-81;-926;961;-2678;8192;0.1052632;0.33241;-0.9359151;-0.04986149;-166;-44;-27;-2558;687;2829;32768;-0.5401662;-0.1066482;0.8347734;0;127;-107;9;1139;527;-2850;256;0.534626;-0.7183053;0.2728532;0.3518005;-7;-3;-7;39;4336;-1249;128;0.5637119;-0.7202656;0.2063712;0.3476454;13;-3;11;-475;4175;1210;4;0.6191136;-0.6365679;-0.3864266;-0.2493075;0;0;-4;784;3904;212;16;-0.08033241;0.03185596;0.6301939;0.7716136;0;0;0;305;4101;794;2;-0.1980609;0.2603878;-0.6578947;-0.6783396;0;0;3;-240;4000;-144;8;-0.04155125;0.132964;0.6232687;0.7695;0;1;0;-499;4141;937;0.5840045;2.792503;0.1880621;0.5899875;3.337741;0.2054249;0.5952474;3.817069;0.218665;0.5889902;4.521914;0.4226649;0.3274314;4.843497;0.4766958;-0.01251055;4.688226;0.4983593;-0.5868204;4.691452;-0.2286117;-0.3861444;4.793114;-1.149042;0.8477547;4.848116;0.4767083;1.138013;4.698437;0.4983875;1.690735;4.551655;-0.2770014;1.484653;4.545229;-1.201813;0.2717529;2.750691;0.1789628;0.2612763;1.316139;-0.1088062;0;0;0;0.2717529;2.750691;0.1789628;0.2612763;1.316139;-0.1088062;0;0;0
982259.9444;NotLabelled;NONE;16384;0.6964638;-0.1246537;-0.66482;0.2396122;-169;51;17;1960;236;2627;65536;-0.3047091;0.1814404;0.915833;-0.1883656;114;122;-73;-1192;651;-2290;8192;0.101108;0.3282548;-0.9388314;-0.02493075;-164;-52;-22;-2582;471;2553;32768;-0.5387812;-0.1024931;0.8358562;-0.0235457;126;-108;5;1317;211;-2848;256;0.536011;-0.7174222;0.2742382;0.3504155;-9;0;-7;-251;3978;-1191;128;0.566482;-0.7183587;0.2077562;0.3462604;19;6;12;-533;3853;1240;4;0.6191136;-0.6360237;-0.3864266;-0.2506925;0;2;-4;766;3918;176;16;-0.08033241;0.03185596;0.6301939;0.7716136;0;0;0;357;4139;878;2;-0.1980609;0.2590028;-0.6578947;-0.6788696;0;0;3;-158;4090;-158;8;-0.04155125;0.132964;0.6232687;0.7695;0;0;-1;-385;4085;913;0.5882115;2.793209;0.1835081;0.5941954;3.338528;0.1981133;0.5994558;3.817916;0.2089293;0.5883096;4.522386;0.4140168;0.3245245;4.842059;0.4685538;-0.01432891;4.684395;0.4899905;-0.61754;4.774374;-0.207411;-0.4140542;4.95809;-1.114405;0.8448032;4.850295;0.4685537;1.136096;4.702603;0.489991;1.7482;4.67649;-0.2535965;1.54701;4.785597;-1.173056;0.2759593;2.751351;0.1746379;0.2609375;1.316139;-0.1096164;0;0;0;0.2759593;2.751351;0.1746379;0.2609375;1.316139;-0.1096164;0;0;0
982280.056;NotLabelled;NONE;16384;0.7034293;-0.07756232;-0.6551247;0.2645429;-169;38;6;1554;-416;2595;65536;-0.300554;0.134349;0.9195268;-0.2146814;126;103;-57;-1004;-159;-2432;8192;0.09556787;0.3240997;-0.9411834;0;-164;-49;-16;-2402;317;2473;32768;-0.5373961;-0.09972299;0.8360088;-0.04847645;126;-106;2;1165;37;-2964;256;0.534626;-0.7185991;0.2756233;0.3490305;-1;-4;-8;-153;3736;-1089;128;0.567867;-0.7175291;0.2091413;0.3448753;18;2;10;-469;3675;1186;4;0.6191136;-0.6363162;-0.3850415;-0.2520775;0;2;-5;786;3908;250;16;-0.08033241;0.03185596;0.6301939;0.7716136;0;0;0;343;4107;762;2;-0.199446;0.2590028;-0.6578947;-0.678464;-1;1;2;-208;4034;-222;8;-0.0401662;0.132964;0.6232687;0.7695736;0;0;0;-453;4121;919;0.5886082;2.793857;0.1800379;0.5945932;3.339272;0.1904069;0.5998544;3.81873;0.1974989;0.5872711;4.524123;0.3993045;0.3228376;4.843514;0.4523336;-0.01569919;4.685269;0.474479;-0.6302297;4.818975;-0.2058178;-0.4275329;5.041051;-1.104368;0.8430986;4.852798;0.4523336;1.134687;4.705795;0.4744796;1.764603;4.721011;-0.2543885;1.567734;4.862894;-1.170303;0.2763553;2.751931;0.1715197;0.2608755;1.316139;-0.1097639;0;0;0;0.2763553;2.751931;0.1715197;0.2608755;1.316139;-0.1097639;0;0;0
982301.0616;NotLabelled;NONE;16384;0.7052038;-0.0567867;-0.6495845;0.2783934;-162;30;5;1582;-746;2251;65536;-0.300554;0.1121884;0.9188141;-0.2299169;131;91;-46;-1134;-273;-2466;8192;0.08310249;0.3144044;-0.9444714;0.04709141;-154;-42;-13;-2180;-267;2297;32768;-0.5318559;-0.09556787;0.8358207;-0.09695291;122;-86;-7;783;-731;-2966;256;0.534626;-0.7180663;0.2770083;0.3490305;-3;-6;-8;-141;3626;-979;128;0.5692521;-0.7173526;0.2105263;0.3421052;20;5;11;-455;3989;1154;4;0.6191136;-0.6363162;-0.3850415;-0.2520775;0;5;-6;800;3940;286;16;-0.08033241;0.03185596;0.6301939;0.7716136;0;2;0;399;4121;816;2;-0.199446;0.2590028;-0.6578947;-0.678464;-2;3;1;-208;4110;-244;8;-0.0401662;0.132964;0.6232687;0.7695736;0;0;0;-537;4161;979;0.5871286;2.79497;0.1742101;0.5931141;3.340426;0.1821011;0.5983756;3.819912;0.1870147;0.5822102;4.524922;0.3899001;0.3161567;4.842882;0.4434254;-0.02156959;4.682882;0.4653381;-0.6565278;4.902325;-0.1726289;-0.4573881;5.199827;-1.049916;0.8363639;4.854814;0.443425;1.128697;4.709262;0.4653376;1.776353;4.765298;-0.2457717;1.582482;4.943597;-1.155943;0.2748752;2.753006;0.1658979;0.2608096;1.316139;-0.1099203;0;0;0;0.2748752;2.753006;0.1658979;0.2608096;1.316139;-0.1099203;0;0;0
