SEP=;
index;label;segment;RightUpperArm_boneIndex;RightUpperArm_quat9x_w;RightUpperArm_quat9x_x;RightUpperArm_quat9x_y;RightUpperArm_quat9x_z;RightUpperArm_gyroscope_x;RightUpperArm_gyroscope_y;RightUpperArm_gyroscope_z;RightUpperArm_accelerometer_x;RightUpperArm_accelerometer_y;RightUpperArm_accelerometer_z;RightLowerArm_boneIndex;RightLowerArm_quat9x_w;RightLowerArm_quat9x_x;RightLowerArm_quat9x_y;RightLowerArm_quat9x_z;RightLowerArm_gyroscope_x;RightLowerArm_gyroscope_y;RightLowerArm_gyroscope_z;RightLowerArm_accelerometer_x;RightLowerArm_accelerometer_y;RightLowerArm_accelerometer_z;LeftUpperArm_boneIndex;LeftUpperArm_quat9x_w;LeftUpperArm_quat9x_x;LeftUpperArm_quat9x_y;LeftUpperArm_quat9x_z;LeftUpperArm_gyroscope_x;LeftUpperArm_gyroscope_y;LeftUpperArm_gyroscope_z;LeftUpperArm_accelerometer_x;LeftUpperArm_accelerometer_y;LeftUpperArm_accelerometer_z;LeftLowerArm_boneIndex;LeftLowerArm_quat9x_w;LeftLowerArm_quat9x_x;LeftLowerArm_quat9x_y;LeftLowerArm_quat9x_z;LeftLowerArm_gyroscope_x;LeftLowerArm_gyroscope_y;LeftLowerArm_gyroscope_z;LeftLowerArm_accelerometer_x;LeftLowerArm_accelerometer_y;LeftLowerArm_accelerometer_z;Chest_boneIndex;Chest_quat9x_w;Chest_quat9x_x;Chest_quat9x_y;Chest_quat9x_z;Chest_gyroscope_x;Chest_gyroscope_y;Chest_gyroscope_z;Chest_accelerometer_x;Chest_accelerometer_y;Chest_accelerometer_z;Spine_boneIndex;Spine_quat9x_w;Spine_quat9x_x;Spine_quat9x_y;Spine_quat9x_z;Spine_gyroscope_x;Spine_gyroscope_y;Spine_gyroscope_z;Spine_accelerometer_x;Spine_accelerometer_y;Spine_accelerometer_z;RightUpperLeg_boneIndex;RightUpperLeg_quat9x_w;RightUpperLeg_quat9x_x;RightUpperLeg_quat9x_y;RightUpperLeg_quat9x_z;RightUpperLeg_gyroscope_x;RightUpperLeg_gyroscope_y;RightUpperLeg_gyroscope_z;RightUpperLeg_accelerometer_x;RightUpperLeg_accelerometer_y;RightUpperLeg_accelerometer_z;RightLowerLeg_boneIndex;RightLowerLeg_quat9x_w;RightLowerLeg_quat9x_x;RightLowerLeg_quat9x_y;RightLowerLeg_quat9x_z;RightLowerLeg_gyroscope_x;RightLowerLeg_gyroscope_y;RightLowerLeg_gyroscope_z;RightLowerLeg_accelerometer_x;RightLowerLeg_accelerometer_y;RightLowerLeg_accelerometer_z;LeftUpperLeg_boneIndex;LeftUpperLeg_quat9x_w;LeftUpperLeg_quat9x_x;LeftUpperLeg_quat9x_y;LeftUpperLeg_quat9x_z;LeftUpperLeg_gyroscope_x;LeftUpperLeg_gyroscope_y;LeftUpperLeg_gyroscope_z;LeftUpperLeg_accelerometer_x;LeftUpperLeg_accelerometer_y;LeftUpperLeg_accelerometer_z;LeftLowerLeg_boneIndex;LeftLowerLeg_quat9x_w;LeftLowerLeg_quat9x_x;LeftLowerLeg_quat9x_y;LeftLowerLeg_quat9x_z;LeftLowerLeg_gyroscope_x;LeftLowerLeg_gyroscope_y;LeftLowerLeg_gyroscope_z;LeftLowerLeg_accelerometer_x;LeftLowerLeg_accelerometer_y;LeftLowerLeg_accelerometer_z;pelvis_x;pelvis_y;pelvis_z;lowerSpine_x;lowerSpine_y;lowerSpine_z;middleSpine_x;middleSpine_y;middleSpine_z;upperSpine_x;upperSpine_y;upperSpine_z;rightClavicle_x;rightClavicle_y;rightClavicle_z;rightShoulder_x;rightShoulder_y;rightShoulder_z;rightElbow_x;rightElbow_y;rightElbow_z;rightWrist_x;rightWrist_y;rightWrist_z;leftClavicle_x;leftClavicle_y;leftClavicle_z;leftShoulder_x;leftShoulder_y;leftShoulder_z;leftElbow_x;leftElbow_y;leftElbow_z;leftWrist_x;leftWrist_y;leftWrist_z;rightHip_x;rightHip_y;rightHip_z;rightKnee_x;rightKnee_y;rightKnee_z;rightAnkle_x;rightAnkle_y;rightAnkle_z;leftHip_x;leftHip_y;leftHip_z;leftKnee_x;leftKnee_y;leftKnee_z;leftAnkle_x;leftAnkle_y;leftAnkle_z;
1152571.1876;NotLabelled;NONE;16384;0.7240602;0.05124654;-0.4556787;0.5152354;1;-9;-8;2802;-2324;1923;65536;-0.4113573;-0.2396122;0.6807053;-0.5567867;14;-11;6;-866;-3875;-1070;8192;0;0.3864266;-0.8629798;0.3254848;-17;-2;-3;-2584;-2267;1941;32768;-0.2963989;-0.2174515;0.8059633;-0.4639889;13;-8;2;-43;-3425;-1642;256;0.5443213;-0.7404171;0.2451524;0.3088643;1;7;-4;-67;3956;-1049;128;0.6218836;-0.6934302;0.2091413;0.2977839;0;12;3;-429;4089;518;4;0.6232687;-0.6652339;-0.3310249;-0.2437673;-7;1;-1;598;3886;-84;16;-0.1204986;0.1066482;0.632964;0.7572733;-2;0;0;199;4185;692;2;-0.1745152;0.2617728;-0.6703601;-0.6720392;-2;5;0;-452;4020;-156;8;-0.0734072;0.1454294;0.6398892;0.7510017;0;2;0;-313;4119;737;0.4485626;2.817359;0.02858984;0.4545064;3.359029;-0.03606068;0.4597284;3.834917;-0.0948969;0.4430797;4.538538;0.1127147;0.1768023;4.855937;0.1684121;-0.1608035;4.695547;0.1893031;-0.9357302;5.20156;0.1472693;-1.093761;6.105924;-0.08713952;0.6970005;4.868248;0.1684118;0.9894436;4.722768;0.189303;1.710591;5.257453;-0.1604602;1.805834;6.085383;-0.6112902;0.1363015;2.774693;0.02638137;0.1644433;1.325166;-0.1709427;0;0;0;0.1363015;2.774693;0.02638137;0.1644433;1.325166;-0.1709427;0;0;0
1152592.3981;NotLabelled;NONE;16384;0.7240404;0.04986149;-0.4542936;0.5166205;0;-9;-8;2860;-2220;1953;65536;-0.4113573;-0.2382271;0.6800568;-0.5581717;13;-7;4;-646;-3933;-1016;8192;0;0.3850415;-0.8625496;0.3282548;-17;-1;-2;-2508;-2379;1947;32768;-0.2950138;-0.2160665;0.8052441;-0.466759;12;-9;3;-23;-3469;-1608;256;0.5443213;-0.7404171;0.2451524;0.3088643;2;7;-4;-65;3862;-1165;128;0.6232687;-0.6927798;0.2091413;0.2963989;1;13;4;-387;3971;568;4;0.6232687;-0.6645429;-0.33241;-0.2437673;-2;3;0;554;3872;-80;16;-0.1204986;0.1066482;0.632964;0.7572733;-3;0;-1;201;4139;600;2;-0.1759003;0.2617728;-0.6716781;-0.6703601;-2;6;0;-398;3992;-172;8;-0.0734072;0.1454294;0.6398892;0.7510017;0;3;0;-307;4213;671;0.4541287;2.817279;0.02895384;0.4600734;3.359024;-0.03507228;0.4652962;3.834979;-0.09335992;0.4464688;4.537583;0.1174844;0.1792052;4.853887;0.1746685;-0.157894;4.692345;0.1948589;-0.9347399;5.195735;0.1569399;-1.097743;6.100735;-0.07153223;0.6993624;4.867828;0.1746684;0.9922624;4.72317;0.1948591;1.71003;5.261829;-0.1557561;1.800142;6.092603;-0.6023915;0.1418676;2.774616;0.02669212;0.1632978;1.325166;-0.1720375;0;0;0;0.1418676;2.774616;0.02669212;0.1632978;1.325166;-0.1720375;0;0;0
1152613.9458;NotLabelled;NONE;16384;0.7231442;0.04847645;-0.4542936;0.5180055;1;-9;-6;2758;-2198;1967;65536;-0.4099723;-0.2382271;0.6763132;-0.5637119;11;-10;1;-954;-3963;-874;8192;-0.001385042;0.3850415;-0.8614892;0.3310249;-15;-2;0;-2448;-2371;1793;32768;-0.2950138;-0.2146814;0.8048105;-0.468144;11;-10;2;125;-3399;-1642;256;0.5443213;-0.7409934;0.2451524;0.3074792;0;6;-4;-33;3916;-1071;128;0.6232687;-0.693787;0.2077562;0.2950138;0;12;4;-393;4005;544;4;0.6232687;-0.6640332;-0.33241;-0.2451524;-3;5;-1;684;3960;-2;16;-0.1191136;0.1066482;0.6315789;0.7586476;-3;2;-1;129;4153;638;2;-0.1759003;0.2617728;-0.6730576;-0.6689751;-2;6;0;-526;3978;-90;8;-0.07202215;0.1440443;0.6398892;0.7514026;-1;3;0;-285;4121;673;0.4562098;2.817014;0.03097995;0.462152;3.358531;-0.03494225;0.4673725;3.834279;-0.09489571;0.4485451;4.536883;0.1159485;0.1812816;4.853187;0.1731327;-0.1558177;4.691646;0.193323;-0.9340799;5.19302;0.1578205;-1.09943;6.098042;-0.0688742;0.7014387;4.867128;0.1731326;0.9943387;4.722471;0.1933235;1.710357;5.265473;-0.154156;1.799731;6.098495;-0.59673;0.1439487;2.774343;0.02887952;0.1632978;1.325165;-0.1720374;0;0;0;0.1439487;2.774343;0.02887952;0.1632978;1.325165;-0.1720374;0;0;0
1152634.0239;NotLabelled;NONE;16384;0.7241039;0.04709141;-0.4529086;0.5180055;1;-9;-6;2736;-2234;2003;65536;-0.4085872;-0.2368421;0.6764819;-0.5650969;9;-8;0;-786;-3949;-850;8192;-0.001385042;0.3850415;-0.8609557;0.33241;-10;0;0;-2470;-2299;1785;32768;-0.2950138;-0.2132964;0.8035617;-0.4709141;12;-5;2;-207;-3445;-1570;256;0.5443213;-0.742023;0.2437673;0.3060942;1;7;-5;-85;3844;-1081;128;0.6232687;-0.6947872;0.2063712;0.2936288;-1;12;3;-455;4007;538;4;0.6246537;-0.662034;-0.333795;-0.2451524;-9;1;-2;460;3918;-30;16;-0.1191136;0.1066482;0.6315789;0.7586476;-3;0;0;251;4173;810;2;-0.1772853;0.2631579;-0.6721534;-0.6689751;-1;6;0;-542;4030;-112;8;-0.07202215;0.1440443;0.6398892;0.7514026;-1;2;0;-349;4171;753;0.4573008;2.816545;0.02206411;0.4632438;3.358138;-0.04322641;0.4684651;3.833956;-0.102625;0.4483793;4.536522;0.1082296;0.1805497;4.852346;0.1654186;-0.1562594;4.6902;0.1856067;-0.9350888;5.190804;0.1516887;-1.102968;6.098342;-0.06275795;0.700681;4.867219;0.1654185;0.9938396;4.723086;0.1856068;1.709561;5.269001;-0.1578946;1.795807;6.102978;-0.5992897;0.1450397;2.773877;0.01991001;0.1640812;1.324281;-0.1780012;0;0;0;0.1450397;2.773877;0.01991001;0.1640812;1.324281;-0.1780012;0;0;0
1152654.9383;NotLabelled;NONE;16384;0.7232;0.04570637;-0.4529086;0.5193906;1;-11;-5;2896;-2152;1955;65536;-0.4085872;-0.2368421;0.6753225;-0.566482;6;-4;-3;-994;-4029;-844;8192;-0.002770083;0.3850415;-0.8598777;0.33518;-8;4;1;-2638;-2555;1929;32768;-0.2936288;-0.2132964;0.8016208;-0.4750692;10;-3;0;155;-3557;-1732;256;0.5443213;-0.7425929;0.2437673;0.3047091;4;9;-3;-77;3802;-1117;128;0.6246537;-0.6945373;0.2049861;0.2922437;-2;11;3;-403;4037;484;4;0.6246537;-0.662034;-0.333795;-0.2451524;-9;6;-2;484;3912;-66;16;-0.1191136;0.1066482;0.6315789;0.7586476;-3;0;0;195;4123;766;2;-0.1772853;0.2645429;-0.6716095;-0.6689751;-1;7;0;-484;4074;-112;8;-0.07202215;0.1440443;0.6398892;0.7514026;0;4;0;-397;4197;751;0.4647139;2.816573;0.02181239;0.4706578;3.358242;-0.04284968;0.4758798;3.834128;-0.1016961;0.4558425;4.536397;0.1101538;0.1880313;4.85215;0.1678124;-0.1487832;4.689991;0.1878003;-0.929917;5.187458;0.161613;-1.098753;6.095255;-0.05098136;0.7081634;4.867001;0.1677885;1.001318;4.722826;0.1877478;1.713504;5.270307;-0.1605791;1.79472;6.106621;-0.5984934;0.1524528;2.773907;0.01960484;0.163318;1.324281;-0.1787011;0;0;0;0.1524528;2.773907;0.01960484;0.163318;1.324281;-0.1787011;0;0;0
1152675.3028;NotLabelled;NONE;16384;0.7222896;0.04432133;-0.4529086;0.5207756;1;-8;-3;2966;-2260;1909;65536;-0.4072022;-0.2382271;0.6745082;-0.567867;5;-2;-4;-844;-4087;-904;8192;-0.002770083;0.3864266;-0.8587146;0.3365651;-8;3;4;-2624;-2439;1885;32768;-0.2936288;-0.2132964;0.8007984;-0.4764543;9;-5;0;157;-3603;-1696;256;0.5443213;-0.7440626;0.2409972;0.3033241;11;7;-3;-159;4022;-1087;128;0.6246537;-0.696103;0.2036011;0.2894737;-4;9;3;-297;4211;516;4;0.6260388;-0.6595067;-0.33518;-0.2465374;-7;9;-2;574;3894;-122;16;-0.1191136;0.1066482;0.6301939;0.7597985;-3;0;-1;161;4055;714;2;-0.1800554;0.265928;-0.6717038;-0.66759;-2;8;1;-458;3992;-148;8;-0.07063711;0.1440443;0.6398892;0.7515341;0;3;0;-289;4141;675;0.4647597;2.816578;0.02134353;0.4707019;3.358094;-0.04458335;0.4759224;3.833842;-0.1045409;0.454621;4.53607;0.1073189;0.1862435;4.851344;0.1649702;-0.1502816;4.688583;0.1849403;-0.9318495;5.185312;0.1577335;-1.102263;6.093639;-0.0513048;0.7063482;4.867124;0.1649701;0.9997586;4.723473;0.1849403;1.713061;5.274239;-0.1558415;1.79239;6.114574;-0.5863426;0.1524986;2.773907;0.01924366;0.1628959;1.324281;-0.1790867;0;0;0;0.1524986;2.773907;0.01924366;0.1628959;1.324281;-0.1790867;0;0;0
1152697.0786;NotLabelled;NONE;16384;0.7223732;0.04293629;-0.4529086;0.5207756;1;-10;-2;3036;-2204;1929;65536;-0.4072022;-0.2382271;0.6733397;-0.5692521;7;-9;-3;-964;-4015;-886;8192;-0.004155125;0.3864266;-0.8581648;0.3379501;-7;2;5;-2726;-2429;1867;32768;-0.2922437;-0.2132964;0.7996513;-0.4792244;10;-4;1;99;-3607;-1652;256;0.5429363;-0.7450739;0.2409972;0.3033241;11;4;-4;-149;4074;-1137;128;0.6246537;-0.6970806;0.2022161;0.2880886;-7;6;3;-291;4083;472;4;0.6260388;-0.6589873;-0.33518;-0.2479224;-2;12;-2;576;3980;-24;16;-0.1177285;0.1066482;0.6301939;0.7600144;-3;0;-1;203;4119;748;2;-0.1814404;0.265928;-0.6713309;-0.66759;-1;6;1;-552;3986;-158;8;-0.07063711;0.1426593;0.6398892;0.7517982;-1;1;0;-265;4157;641;0.4748547;2.816105;0.01384439;0.4807977;3.357695;-0.05147449;0.486019;3.833509;-0.1108979;0.4660677;4.535183;0.1029214;0.1982941;4.850804;0.1614747;-0.1385378;4.688627;0.1810192;-0.9207348;5.184588;0.1582655;-1.089847;6.094259;-0.04593006;0.7184275;4.865596;0.1614746;1.011566;4.721334;0.1810194;1.722906;5.273646;-0.1613572;1.798559;6.115343;-0.5898546;0.1625937;2.773437;0.01169281;0.1646268;1.323405;-0.183916;0;0;0;0.1625937;2.773437;0.01169281;0.1646268;1.323405;-0.183916;0;0;0
1152717.9262;NotLabelled;NONE;16384;0.7205278;0.0401662;-0.4529086;0.5235457;0;-7;0;2972;-2120;2055;65536;-0.4044321;-0.2368421;0.6731502;-0.5720221;6;-6;-4;-826;-4061;-866;8192;-0.005540166;0.3864266;-0.858157;0.3379501;-6;2;4;-2730;-2247;1893;32768;-0.2922437;-0.2119114;0.7991882;-0.4806094;9;-1;0;25;-3571;-1660;256;0.5415512;-0.7470884;0.2396122;0.301939;5;5;-3;-177;3946;-1143;128;0.6232687;-0.6983193;0.2022161;0.2880886;-7;7;1;-355;4063;446;4;0.6260388;-0.6577577;-0.3365651;-0.2493075;0;12;-1;654;4046;132;16;-0.1177285;0.1066482;0.6301939;0.7600144;-4;0;-1;213;4191;718;2;-0.1814404;0.267313;-0.6707807;-0.66759;-1;4;1;-580;4008;-148;8;-0.07063711;0.1426593;0.6398892;0.7517982;-1;2;0;-307;4187;605;0.4729897;2.816478;0.009126775;0.4789335;3.358142;-0.055577;0.4841555;3.834024;-0.11446;0.4632925;4.53499;0.1015792;0.1951054;4.850069;0.1611542;-0.1415091;4.687384;0.1802159;-0.9248502;5.181499;0.1566422;-1.095032;6.091679;-0.0443666;0.7152188;4.865552;0.1611542;1.008551;4.721618;0.1802165;1.720914;5.274839;-0.1585453;1.796768;6.119139;-0.581856;0.1607287;2.773812;0.006922681;0.1629311;1.323373;-0.1856441;0;0;0;0.1607287;2.773812;0.006922681;0.1629311;1.323373;-0.1856441;0;0;0
1152737.9506;NotLabelled;NONE;16384;0.7205278;0.0401662;-0.4529086;0.5235457;0;-6;1;3000;-2128;2017;65536;-0.4030471;-0.2368421;0.6728024;-0.5734072;5;-6;-4;-954;-4033;-816;8192;-0.006925208;0.3878116;-0.8569748;0.3393352;-7;4;3;-2720;-2359;1985;32768;-0.2908587;-0.2119114;0.7988593;-0.4819945;6;-5;-4;201;-3729;-1930;256;0.5415512;-0.7470884;0.2396122;0.301939;2;6;-2;-189;3846;-1145;128;0.6232687;-0.6992883;0.200831;0.2867036;-4;6;2;-309;4125;534;4;0.6246537;-0.6571246;-0.3393352;-0.2506925;0;9;0;528;4048;150;16;-0.1163435;0.1066482;0.6288089;0.7613736;-4;3;0;175;4195;696;2;-0.1814404;0.267313;-0.6721563;-0.666205;0;3;0;-542;3944;-154;8;-0.07063711;0.1426593;0.6398892;0.7517982;-2;0;0;-277;4193;711;0.4749874;2.816586;0.00772734;0.4809336;3.358473;-0.05508648;0.4861578;3.834557;-0.112309;0.4644547;4.534507;0.1069208;0.1958849;4.848976;0.1679655;-0.1405245;4.685788;0.1863322;-0.9249028;5.178386;0.1656611;-1.094759;6.089584;-0.03096625;0.7159787;4.865107;0.1679655;1.009491;4.721452;0.1863326;1.722034;5.273635;-0.1537426;1.793979;6.118844;-0.5759181;0.1627265;2.773928;0.005362526;0.1621386;1.323373;-0.1863371;0;0;0;0.1627265;2.773928;0.005362526;0.1621386;1.323373;-0.1863371;0;0;0
1152759.1978;NotLabelled;NONE;16384;0.7205278;0.0401662;-0.4529086;0.5235457;0;-6;2;2970;-2116;1965;65536;-0.4030471;-0.2368421;0.6728024;-0.5734072;2;-5;-4;-920;-4063;-876;8192;-0.006925208;0.3891967;-0.8557965;0.3407202;-8;2;4;-2858;-2391;1907;32768;-0.2880886;-0.2119114;0.7990262;-0.4833795;7;-6;-6;-7;-3731;-1784;256;0.5415512;-0.7476467;0.2396122;0.300554;5;4;-1;-177;3898;-1197;128;0.6232687;-0.6992883;0.200831;0.2867036;-4;4;1;-297;4063;540;4;0.6246537;-0.6565945;-0.3393352;-0.2520775;0;8;0;372;3930;-2;16;-0.1163435;0.1066482;0.6288089;0.7613736;-4;1;-1;215;4139;752;2;-0.1828255;0.267313;-0.6717808;-0.666205;0;2;0;-592;3980;-168;8;-0.07063711;0.1440443;0.6398892;0.7515341;-1;0;0;-329;4185;795;0.4749836;2.815226;0.005424708;0.4809306;3.357182;-0.05677709;0.4861556;3.833331;-0.113462;0.4644524;4.533281;0.1057676;0.1958825;4.847752;0.1668122;-0.1405269;4.684563;0.1851791;-0.9249076;5.17716;0.1645856;-1.093528;6.089127;-0.02953176;0.7159765;4.863881;0.1668122;1.00949;4.720226;0.1851794;1.723655;5.272889;-0.1506874;1.796885;6.11934;-0.5701466;0.1627226;2.77257;0.003007852;0.1632448;1.322443;-0.1918962;0;0;0;0.1627226;2.77257;0.003007852;0.1632448;1.322443;-0.1918962;0;0;0
1152780.9547;NotLabelled;NONE;16384;0.7187219;0.03878116;-0.4542936;0.5249307;-1;-5;2;2986;-2140;1919;65536;-0.4016621;-0.2368421;0.6724488;-0.5747922;2;-3;-5;-904;-3993;-884;8192;-0.008310249;0.3891967;-0.8557842;0.3407202;-7;1;4;-2784;-2407;1905;32768;-0.2867036;-0.2119114;0.7986852;-0.4847645;8;-2;-7;19;-3705;-1700;256;0.5401662;-0.7490898;0.2382271;0.300554;9;4;-2;-159;3996;-1203;128;0.6218836;-0.7014809;0.199446;0.2853186;-3;2;1;-393;4185;560;4;0.6246537;-0.6553428;-0.3407202;-0.2534626;2;9;0;358;3996;22;16;-0.1163435;0.1066482;0.6288089;0.7613736;-4;1;-1;153;4119;860;2;-0.1828255;0.2686981;-0.6712281;-0.666205;0;2;1;-410;3996;-172;8;-0.06925207;0.1440443;0.6385041;0.7528399;-2;2;-1;-353;4171;745;0.4748339;2.815632;0.001985498;0.4807809;3.357589;-0.06021638;0.4860058;3.833738;-0.1169014;0.4630648;4.533644;0.1023408;0.1939392;4.847638;0.1633913;-0.142181;4.683854;0.1817553;-0.9266099;5.176452;0.1630875;-1.095696;6.088417;-0.03062336;0.7140038;4.864687;0.1633913;1.00777;4.721551;0.1817556;1.721181;5.275723;-0.1532266;1.797044;6.123311;-0.5699121;0.162573;2.772977;-0.0004312247;0.1627824;1.322442;-0.192288;0;0;0;0.162573;2.772977;-0.0004312247;0.1627824;1.322442;-0.192288;0;0;0
1152800.9412;NotLabelled;NONE;16384;0.7187219;0.03878116;-0.4542936;0.5249307;-1;-6;3;2998;-2064;1839;65536;-0.4016621;-0.2368421;0.6724488;-0.5747922;3;-6;-6;-838;-3963;-880;8192;-0.008310249;0.3905817;-0.8545998;0.3421052;-7;2;3;-2702;-2465;1855;32768;-0.2867036;-0.2132964;0.7974737;-0.4861496;8;-2;-8;223;-3721;-1712;256;0.5387812;-0.7505251;0.2368421;0.300554;8;4;-1;-169;3976;-1193;128;0.6218836;-0.7014809;0.199446;0.2853186;-3;2;1;-311;4125;518;4;0.6232687;-0.6554028;-0.3421052;-0.2548476;2;8;0;360;4034;62;16;-0.1163435;0.1066482;0.6274238;0.7625154;-4;1;0;171;4133;826;2;-0.1828255;0.2686981;-0.6712281;-0.666205;0;1;1;-404;3980;-170;8;-0.06925207;0.1426593;0.6385041;0.7531036;-2;3;0;-333;4139;727;0.4768476;2.815735;0.001015626;0.4827978;3.357972;-0.05869061;0.4880255;3.834377;-0.1131829;0.4655025;4.533297;0.1092271;0.1965591;4.847159;0.1717374;-0.1396488;4.683479;0.1894099;-0.9237109;5.176608;0.1694202;-1.091918;6.089334;-0.02145964;0.716633;4.863922;0.1717375;1.010323;4.720542;0.1894107;1.724767;5.273667;-0.1451017;1.801132;6.122483;-0.5591878;0.1645869;2.773091;-0.001613341;0.1624262;1.322442;-0.1925889;0;0;0;0.1645869;2.773091;-0.001613341;0.1624262;1.322442;-0.1925889;0;0;0
1152820.9488;NotLabelled;NONE;16384;0.7166904;0.03878116;-0.4542936;0.5277008;-2;-5;3;2916;-2274;1793;65536;-0.398892;-0.2368421;0.6729122;-0.5761772;5;-6;-4;-658;-4001;-966;8192;-0.009695291;0.3905817;-0.8540295;0.3434903;-7;3;4;-2666;-2449;1865;32768;-0.2839335;-0.2132964;0.7984641;-0.4861496;7;-3;-7;281;-3687;-1772;256;0.5373961;-0.7520699;0.2368421;0.299169;6;3;-2;-243;3920;-1263;128;0.6218836;-0.7014809;0.199446;0.2853186;-2;3;1;-319;4117;556;4;0.6232687;-0.6548626;-0.3421052;-0.2562327;1;7;0;310;3984;84;16;-0.1149584;0.1066482;0.6274238;0.7627254;-3;1;-1;195;4105;902;2;-0.1828255;0.2686981;-0.6698505;-0.66759;0;1;0;-420;3986;-150;8;-0.06925207;0.1426593;0.6385041;0.7531036;-1;3;0;-383;4233;735;0.4763969;2.814692;-0.002118908;0.482347;3.356929;-0.06182513;0.4875747;3.833334;-0.1163174;0.4654772;4.531255;0.1092489;0.1967195;4.844983;0.1732146;-0.139578;4.681415;0.190197;-0.9236791;5.174543;0.1718089;-1.092237;6.087269;-0.01876049;0.7168027;4.861453;0.1732147;1.010415;4.717831;0.1901977;1.724254;5.272449;-0.1431296;1.799816;6.122998;-0.5537928;0.1641361;2.772048;-0.004747842;0.1648428;1.321532;-0.1967404;0;0;0;0.1641361;2.772048;-0.004747842;0.1648428;1.321532;-0.1967404;0;0;0
1152842.1412;NotLabelled;NONE;16384;0.7166904;0.03878116;-0.4542936;0.5277008;-2;-5;3;2960;-2176;1835;65536;-0.3975069;-0.2368421;0.6737313;-0.5761772;3;-5;-5;-816;-3893;-738;8192;-0.01108033;0.3905817;-0.8534542;0.3448753;-9;1;4;-2850;-2375;1809;32768;-0.2839335;-0.2132964;0.7976192;-0.4875346;6;-4;-7;73;-3707;-1716;256;0.5373961;-0.7525047;0.2354571;0.299169;5;2;0;-183;3926;-1331;128;0.6218836;-0.7014809;0.199446;0.2853186;-2;2;1;-337;4095;574;4;0.6232687;-0.654319;-0.3421052;-0.2576177;0;3;0;346;4044;68;16;-0.1149584;0.1080332;0.6260388;0.763668;-3;1;-1;113;4123;828;2;-0.1842105;0.2686981;-0.669471;-0.66759;0;1;0;-442;4034;-142;8;-0.06786703;0.1426593;0.6385041;0.7532296;-1;0;0;-361;4173;811;0.4745462;2.81505;-0.007270418;0.4804963;3.357288;-0.06697664;0.485724;3.833693;-0.1214689;0.4615197;4.530825;0.1063092;0.1918119;4.843527;0.1712955;-0.1439826;4.678879;0.1877936;-0.9267727;5.174196;0.1726753;-1.09227;6.087949;-0.01563762;0.7118425;4.861585;0.1712953;1.005894;4.718807;0.1877937;1.719948;5.274293;-0.143623;1.799204;6.124634;-0.5540196;0.1622854;2.772407;-0.009899445;0.1626566;1.321489;-0.198837;0;0;0;0.1622854;2.772407;-0.009899445;0.1626566;1.321489;-0.198837;0;0;0
1152862.9478;NotLabelled;NONE;16384;0.714711;0.0401662;-0.4556787;0.5290859;-3;-4;2;2926;-2138;1759;65536;-0.3975069;-0.2368421;0.6725443;-0.5775623;2;-3;-7;-858;-3835;-780;8192;-0.01246537;0.3919668;-0.8522385;0.3462604;-7;0;4;-2744;-2423;1741;32768;-0.2811634;-0.2146814;0.7965302;-0.4903047;8;-1;-8;275;-3613;-1576;256;0.5373961;-0.7525047;0.2354571;0.299169;4;3;0;-273;3880;-1243;128;0.6218836;-0.7014809;0.199446;0.2853186;-1;2;1;-325;4063;568;4;0.6232687;-0.654319;-0.3421052;-0.2576177;0;0;0;364;3948;78;16;-0.1149584;0.1066482;0.6260388;0.7638627;-2;2;0;127;4145;876;2;-0.1842105;0.2686981;-0.669471;-0.66759;0;1;0;-396;4050;-118;8;-0.06786703;0.1426593;0.6385041;0.7532296;-1;-1;0;-353;4167;803;0.4746048;2.814618;-0.01586929;0.4805549;3.356856;-0.07557558;0.4857826;3.83326;-0.1300679;0.4628988;4.530128;0.09865633;0.1937822;4.843247;0.1640791;-0.1423204;4.679209;0.1803696;-0.9251364;5.174526;0.1666566;-1.088684;6.088553;-0.02203578;0.7138457;4.860329;0.1640791;1.007629;4.716975;0.18037;1.722117;5.273323;-0.1486574;1.79956;6.12498;-0.5566661;0.1623439;2.771975;-0.01849818;0.1625053;1.320662;-0.204377;0;0;0;0.1623439;2.771975;-0.01849818;0.1625053;1.320662;-0.204377;0;0;0
1152882.9398;NotLabelled;NONE;16384;0.714711;0.0401662;-0.4556787;0.5290859;-4;-3;3;2848;-2172;1715;65536;-0.3961219;-0.2368421;0.673361;-0.5775623;2;-3;-7;-686;-3925;-700;8192;-0.01385042;0.3919668;-0.8522171;0.3462604;-6;0;7;-2570;-2587;1753;32768;-0.2797784;-0.2160665;0.7966434;-0.4903047;7;-1;-7;153;-3643;-1498;256;0.536011;-0.7534919;0.2354571;0.299169;4;3;0;-163;3878;-1221;128;0.6218836;-0.7024346;0.1980609;0.2839335;0;4;1;-331;4079;592;4;0.6232687;-0.654319;-0.3421052;-0.2576177;0;2;0;360;3980;50;16;-0.1135734;0.1066482;0.6260388;0.7640699;-1;1;-1;165;4137;868;2;-0.1842105;0.2686981;-0.669471;-0.66759;0;-1;0;-376;3994;-198;8;-0.06786703;0.1440443;0.6371191;0.7541382;0;0;0;-323;4169;755;0.4771518;2.814518;-0.01447325;0.4831019;3.356755;-0.07417951;0.4883296;3.833159;-0.1286719;0.4654457;4.530027;0.1000523;0.1963291;4.843147;0.1654749;-0.1397735;4.679108;0.1817653;-0.9198886;5.178644;0.1671537;-1.08449;6.093139;-0.01832081;0.7163926;4.860228;0.1654752;1.010176;4.716875;0.1817663;1.726321;5.273625;-0.1429484;1.807336;6.128077;-0.5443691;0.164891;2.771874;-0.01710222;0.1650524;1.320562;-0.202981;0;0;0;0.164891;2.771874;-0.01710222;0.1650524;1.320562;-0.202981;0;0;0
1152902.94;NotLabelled;NONE;16384;0.714711;0.0401662;-0.4556787;0.5290859;-3;-4;2;2884;-2272;1791;65536;-0.3947368;-0.2382271;0.6736857;-0.5775623;2;-5;-7;-450;-3953;-814;8192;-0.01523546;0.3919668;-0.8516294;0.3476454;-6;0;7;-2784;-2457;1787;32768;-0.2783934;-0.2160665;0.7962748;-0.4916897;7;-3;-5;173;-3693;-1470;256;0.536011;-0.7544715;0.234072;0.2977839;4;2;0;-195;3930;-1303;128;0.6218836;-0.7024346;0.1980609;0.2839335;0;3;0;-227;4069;566;4;0.6232687;-0.6537719;-0.3421052;-0.2590028;0;2;0;378;4104;50;16;-0.1135734;0.1066482;0.6260388;0.7640699;-1;1;0;169;4163;840;2;-0.1842105;0.2686981;-0.669471;-0.66759;0;-1;0;-328;4018;-180;8;-0.06786703;0.1440443;0.6371191;0.7541382;0;0;0;-343;4121;793;0.4754491;2.814466;-0.01612226;0.4814;3.35677;-0.07522391;0.4866284;3.833235;-0.129185;0.4628789;4.529349;0.1017335;0.1933677;4.841913;0.1681823;-0.1425197;4.677389;0.1840085;-0.9226376;5.176908;0.1689976;-1.084972;6.091676;-0.01713052;0.7134088;4.859667;0.168156;1.00738;4.716645;0.1839506;1.725029;5.271973;-0.1398768;1.8094;6.126698;-0.5400171;0.1631884;2.771826;-0.01880253;0.1633322;1.320513;-0.2046812;0;0;0;0.1631884;2.771826;-0.01880253;0.1633322;1.320513;-0.2046812;0;0;0
1152923.9509;NotLabelled;NONE;16384;0.712652;0.0401662;-0.4556787;0.5318559;-1;-5;3;2946;-2232;1661;65536;-0.3933518;-0.2382271;0.6733069;-0.5789474;4;-4;-8;-766;-3869;-726;8192;-0.01523546;0.3933518;-0.8509905;0.3476454;-5;1;5;-2744;-2403;1641;32768;-0.2770083;-0.2160665;0.7959014;-0.4930748;7;-3;-5;229;-3747;-1456;256;0.536011;-0.7544715;0.234072;0.2977839;4;1;0;-249;3866;-1309;128;0.6218836;-0.7029929;0.1980609;0.2825485;1;4;0;-351;4109;542;4;0.6232687;-0.6537719;-0.3421052;-0.2590028;0;0;0;282;4012;32;16;-0.1135734;0.1066482;0.6260388;0.7640699;0;0;0;227;4159;882;2;-0.1842105;0.267313;-0.6700252;-0.66759;0;0;0;-284;4028;-186;8;-0.06925207;0.1440443;0.6371191;0.7540123;0;-2;0;-385;4217;789;0.4752405;2.814855;-0.01986193;0.4811912;3.357159;-0.07896359;0.4864196;3.833624;-0.1329248;0.4627696;4.529425;0.09894642;0.1933031;4.841936;0.1658222;-0.1426082;4.677439;0.1814221;-0.9227782;5.176974;0.1701261;-1.082261;6.092513;-0.01467653;0.7133467;4.859616;0.1658219;1.007297;4.716528;0.1814218;1.724648;5.273059;-0.1410008;1.808611;6.128966;-0.5386959;0.1629797;2.772215;-0.02254206;0.1624804;1.320513;-0.2053581;0;0;0;0.1629797;2.772215;-0.02254206;0.1624804;1.320513;-0.2053581;0;0;0
1152944.944;NotLabelled;NONE;16384;0.712652;0.0401662;-0.4556787;0.5318559;-1;-5;2;2882;-2282;1695;65536;-0.3905817;-0.2382271;0.673727;-0.5803324;4;-4;-7;-532;-3917;-768;8192;-0.01800554;0.3933518;-0.8503693;0.3490305;-4;1;6;-2716;-2415;1739;32768;-0.2756233;-0.2188366;0.7947653;-0.4944598;3;0;-4;227;-3769;-1426;256;0.534626;-0.7554535;0.234072;0.2977839;3;3;0;-231;3864;-1283;128;0.6232687;-0.7021546;0.1966759;0.2825485;0;3;0;-279;4057;554;4;0.6232687;-0.6537719;-0.3421052;-0.2590028;0;-1;0;418;3950;60;16;-0.1135734;0.1066482;0.6246537;0.7652026;0;0;0;187;4115;904;2;-0.1842105;0.267313;-0.6700252;-0.66759;0;0;0;-322;4008;-176;8;-0.06925207;0.1454294;0.6371191;0.7537464;0;-1;-1;-347;4173;851;0.4752404;2.814856;-0.01986289;0.4811911;3.357158;-0.07897614;0.4864195;3.833622;-0.1329475;0.4627693;4.529423;0.0989237;0.1933029;4.841934;0.1657992;-0.1426083;4.677436;0.1813989;-0.9213911;5.179161;0.1714626;-1.079642;6.095426;-0.01077521;0.7133464;4.859613;0.1657993;1.007297;4.716526;0.1813994;1.725289;5.272594;-0.1403922;1.810498;6.129674;-0.5352838;0.1629797;2.772215;-0.02254206;0.1624804;1.320513;-0.2053581;0;0;0;0.1629797;2.772215;-0.02254206;0.1624804;1.320513;-0.2053581;0;0;0
1152966.9419;NotLabelled;NONE;16384;0.7116163;0.0401662;-0.4556787;0.533241;-1;-5;0;3066;-2238;1755;65536;-0.3905817;-0.2396122;0.6732357;-0.5803324;2;0;-6;-448;-4025;-762;8192;-0.01800554;0.3947368;-0.8497272;0.3490305;-3;2;5;-2896;-2435;1823;32768;-0.2756233;-0.2188366;0.7939019;-0.4958449;3;-3;-3;165;-3907;-1442;256;0.534626;-0.7558813;0.232687;0.2977839;3;3;0;-175;3886;-1165;128;0.6232687;-0.7021546;0.1966759;0.2825485;0;1;-1;-309;4119;538;4;0.6232687;-0.6537719;-0.3421052;-0.2590028;0;0;0;516;3986;54;16;-0.1135734;0.1080332;0.6246537;0.7650083;0;1;-1;163;4115;812;2;-0.1842105;0.267313;-0.6700252;-0.66759;0;0;-1;-392;4036;-146;8;-0.06925207;0.1440443;0.6371191;0.7540123;0;0;0;-353;4097;783;0.4779727;2.813917;-0.02383134;0.4839219;3.356079;-0.08422123;0.4891488;3.832414;-0.1393142;0.4646301;4.527452;0.09474495;0.1947697;4.839406;0.1626308;-0.140928;4.674428;0.1777494;-0.9197122;5.176153;0.1679327;-1.074473;6.093397;-0.01236725;0.71479;4.857753;0.162631;1.008926;4.714996;0.1777501;1.729432;5.270823;-0.1387975;1.817994;6.129808;-0.5287836;0.165712;2.771271;-0.02640209;0.1652044;1.319569;-0.2092181;0;0;0;0.165712;2.771271;-0.02640209;0.1652044;1.319569;-0.2092181;0;0;0
1152986.9672;NotLabelled;NONE;16384;0.7116163;0.0401662;-0.4556787;0.533241;-3;-2;1;3038;-2178;1777;65536;-0.3891967;-0.2396122;0.6740373;-0.5803324;2;4;-6;-694;-3901;-656;8192;-0.01939058;0.3947368;-0.8496968;0.3490305;-2;0;4;-2876;-2449;1761;32768;-0.2742382;-0.2188366;0.7943814;-0.4958449;3;-1;-3;341;-3855;-1506;256;0.534626;-0.7568501;0.2313019;0.2963989;4;4;1;-231;3944;-1277;128;0.6232687;-0.7021546;0.1966759;0.2825485;1;2;-1;-369;4105;604;4;0.6232687;-0.6537719;-0.3421052;-0.2590028;0;1;0;506;3986;34;16;-0.1135734;0.1080332;0.6246537;0.7650083;0;1;0;169;4207;808;2;-0.1855956;0.2686981;-0.6704674;-0.666205;0;5;0;-340;3998;-66;8;-0.06925207;0.1440443;0.6371191;0.7540123;0;-4;0;-225;4185;663;0.4753667;2.814014;-0.02551031;0.481316;3.356176;-0.08590017;0.486543;3.832511;-0.1409931;0.4633518;4.52728;0.09400011;0.1940859;4.839652;0.1623177;-0.1419233;4.675291;0.1772307;-0.9200242;5.178108;0.1693995;-1.073758;6.095839;-0.009304419;0.7141402;4.857014;0.1623177;1.008005;4.71368;0.1772309;1.728624;5.269033;-0.1398925;1.815405;6.129292;-0.5274608;0.1631058;2.771367;-0.02808113;0.1622725;1.319666;-0.2108962;0;0;0;0.1631058;2.771367;-0.02808113;0.1622725;1.319666;-0.2108962;0;0;0
1153007.9365;NotLabelled;NONE;16384;0.7125013;0.0401662;-0.4542936;0.533241;-2;0;0;2972;-2282;1607;65536;-0.3891967;-0.2409972;0.6735433;-0.5803324;2;1;-7;-602;-3951;-650;8192;-0.01939058;0.3947368;-0.8496968;0.3490305;-2;-2;5;-2898;-2449;1711;32768;-0.2742382;-0.2202216;0.7931319;-0.4972299;2;0;-3;453;-3787;-1632;256;0.534626;-0.7572721;0.2299169;0.2963989;2;5;1;-169;3940;-1335;128;0.6246537;-0.7018663;0.1952908;0.2811634;4;6;-1;-275;4169;458;4;0.6232687;-0.6537719;-0.3421052;-0.2590028;1;1;0;468;4006;38;16;-0.1135734;0.1080332;0.6246537;0.7650083;0;1;0;203;4149;820;2;-0.1855956;0.2686981;-0.6704674;-0.666205;0;5;0;-430;4074;-66;8;-0.06925207;0.1454294;0.6371191;0.7537464;1;-7;-1;-411;4163;759;0.4752474;2.814014;-0.02619458;0.4811966;3.356176;-0.08658448;0.4864236;3.832511;-0.1416774;0.4633575;4.526964;0.09425816;0.1941462;4.839288;0.1630113;-0.1418893;4.674962;0.1777169;-0.9200286;5.17778;0.1764175;-1.072242;6.095762;-0.0022901;0.7142033;4.856565;0.1630112;1.008046;4.713162;0.1777169;1.727545;5.26744;-0.1437996;1.815021;6.127575;-0.5314869;0.1629865;2.771367;-0.02876542;0.1613859;1.319666;-0.2115752;0;0;0;0.1629865;2.771367;-0.02876542;0.1613859;1.319666;-0.2115752;0;0;0
1153049.1092;NotLabelled;NONE;16384;0.7105763;0.0401662;-0.4556787;0.534626;0;-4;2;3002;-2210;1699;65536;-0.3864266;-0.2423823;0.6734465;-0.5817174;2;-2;-5;-634;-4063;-622;8192;-0.02077562;0.3947368;-0.849664;0.3490305;-1;-4;6;-2752;-2451;1739;32768;-0.2728532;-0.2202216;0.7936095;-0.4972299;1;-3;-4;311;-3781;-1534;256;0.534626;-0.7572721;0.2299169;0.2963989;0;4;0;-115;3994;-1279;128;0.6260388;-0.7011854;0.1952908;0.2797784;3;5;0;-349;4195;528;4;0.6232687;-0.6537719;-0.3421052;-0.2590028;0;1;0;476;3992;116;16;-0.1135734;0.1080332;0.6246537;0.7650083;0;1;0;171;4167;806;2;-0.1869806;0.2700831;-0.6695254;-0.666205;-1;5;-1;-414;4144;-102;8;-0.06925207;0.1454294;0.6371191;0.7537464;1;-1;0;-439;4151;873;0.4751961;2.81402;-0.02659405;0.4811437;3.356036;-0.08828005;0.4863692;3.832238;-0.1445118;0.4646349;4.52642;0.09234737;0.1960215;4.839163;0.1615273;-0.1403257;4.675458;0.1760292;-0.9193062;5.176974;0.1752753;-1.070479;6.095435;-0.001849711;0.7161106;4.85545;0.1615272;1.00968;4.711469;0.1760294;1.729956;5.265747;-0.1437424;1.81675;6.12751;-0.5279527;0.1629351;2.771367;-0.02905454;0.1610103;1.319666;-0.2118612;0;0;0;0.1629351;2.771367;-0.02905454;0.1610103;1.319666;-0.2118612;0;0;0
1153069.1147;NotLabelled;NONE;16384;0.7095321;0.0401662;-0.4556787;0.536011;0;0;1;3026;-2212;1659;65536;-0.3850415;-0.2437673;0.6737398;-0.5817174;0;0;-6;-696;-3951;-596;8192;-0.02216066;0.3961219;-0.8489842;0.3490305;0;0;3;-2860;-2433;1777;32768;-0.2714681;-0.2202216;0.7932154;-0.4986149;1;0;-5;383;-3781;-1610;256;0.534626;-0.7582315;0.2285319;0.2950138;0;4;2;-215;3942;-1363;128;0.6274238;-0.7003313;0.1939058;0.2797784;4;4;-1;-293;4041;622;4;0.6218836;-0.6538144;-0.3434903;-0.2603878;4;3;0;400;4004;90;16;-0.1121884;0.1066482;0.6246537;0.7654068;0;0;0;143;4141;794;2;-0.1883656;0.2714681;-0.6685764;-0.666205;4;3;0;-322;4086;-146;8;-0.06925207;0.1454294;0.6371191;0.7537464;2;-1;0;-291;4211;735;0.4751964;2.814028;-0.02675623;0.4811416;3.355824;-0.09034882;0.4863648;3.831825;-0.1482556;0.4646305;4.526007;0.08860357;0.1960171;4.838751;0.1577836;-0.14033;4.675046;0.1722855;-0.9177585;5.178957;0.1697809;-1.064076;6.098829;-0.004070818;0.7161062;4.855038;0.1577834;1.009676;4.711056;0.1722857;1.73151;5.264257;-0.1458322;1.820621;6.125894;-0.5297995;0.1629353;2.771367;-0.02905461;0.1610104;1.319666;-0.2118613;0;0;0;0.1629353;2.771367;-0.02905461;0.1610104;1.319666;-0.2118613;0;0;0
1153089.9435;NotLabelled;NONE;16384;0.7095321;0.0401662;-0.4556787;0.536011;0;0;2;3044;-2190;1611;65536;-0.3850415;-0.2437673;0.6725414;-0.5831025;0;-1;-5;-552;-3983;-604;8192;-0.0235457;0.3961219;-0.8489469;0.3490305;0;-1;3;-2828;-2363;1757;32768;-0.2714681;-0.2216066;0.7936989;-0.4972299;0;-1;-5;383;-3715;-1522;256;0.536011;-0.7576697;0.2271468;0.2950138;-1;5;1;-147;3888;-1205;128;0.6274238;-0.7003313;0.1939058;0.2797784;5;5;-1;-345;4083;552;4;0.6218836;-0.6538144;-0.3434903;-0.2603878;4;1;0;458;4056;102;16;-0.1121884;0.1066482;0.6246537;0.7654068;0;2;0;205;4197;804;2;-0.1883656;0.2728532;-0.66482;-0.6693907;10;2;1;-470;4036;-30;8;-0.07063711;0.1454294;0.6385041;0.7524447;2;0;0;-327;4229;743;0.4727721;2.813752;-0.02677687;0.4787157;3.355394;-0.09166504;0.4839374;3.831256;-0.15071;0.4623128;4.525124;0.08707744;0.1937511;4.837822;0.1566603;-0.1426261;4.674158;0.1709232;-0.9193307;5.179159;0.1766398;-1.062733;6.099728;0.00405778;0.713843;4.854016;0.1567128;1.007386;4.709964;0.1710394;1.728823;5.262361;-0.1493688;1.817611;6.125128;-0.5308602;0.160511;2.771086;-0.02896522;0.1609921;1.319515;-0.2128131;0;0;0;0.160511;2.771086;-0.02896522;0.1609921;1.319515;-0.2128131;0;0;0
1153109.9454;NotLabelled;NONE;16384;0.7095321;0.0401662;-0.4556787;0.536011;1;-3;3;2942;-2258;1659;65536;-0.3836565;-0.2437673;0.6733325;-0.5831025;0;-4;-4;-548;-3985;-600;8192;-0.0235457;0.3961219;-0.8489469;0.3490305;0;-3;4;-2818;-2345;1809;32768;-0.2714681;-0.2216066;0.7936989;-0.4972299;-1;-1;-3;337;-3771;-1500;256;0.536011;-0.7576697;0.2271468;0.2950138;0;5;1;-125;3840;-1299;128;0.6288089;-0.6996407;0.1939058;0.2783934;3;5;-1;-317;4099;556;4;0.6218836;-0.6545402;-0.3421052;-0.2603878;3;-3;0;450;4016;78;16;-0.1121884;0.1066482;0.6246537;0.7654068;0;1;0;215;4183;868;2;-0.1883656;0.2728532;-0.66482;-0.6693907;9;3;0;-542;4230;-100;8;-0.07063711;0.1454294;0.6385041;0.7524447;2;-2;0;-315;4255;753;0.4727188;2.813752;-0.02707022;0.4786624;3.355394;-0.09195835;0.4838841;3.831256;-0.1510033;0.4644738;4.525623;0.08551361;0.1969094;4.8393;0.1545352;-0.1399849;4.67673;0.1691127;-0.9167027;5.181735;0.1718874;-1.061438;6.102749;0.002824351;0.7170502;4.853843;0.1545353;1.010135;4.708885;0.169113;1.73384;5.259439;-0.149349;1.824081;6.121292;-0.5325617;0.1604577;2.771086;-0.02925847;0.1606025;1.319515;-0.2131071;0;0;0;0.1604577;2.771086;-0.02925847;0.1606025;1.319515;-0.2131071;0;0;0
1153130.9466;NotLabelled;NONE;16384;0.7075909;0.0401662;-0.4570637;0.5373961;2;-2;3;3014;-2242;1663;65536;-0.3822715;-0.2437673;0.6741198;-0.5831025;-2;-2;-4;-654;-3911;-570;8192;-0.0235457;0.3947368;-0.8495918;0.3490305;0;-4;4;-2716;-2421;1867;32768;-0.2700831;-0.2216066;0.7941713;-0.4972299;-2;-3;-3;253;-3781;-1576;256;0.536011;-0.758621;0.2257618;0.2936288;0;5;1;-209;3868;-1257;128;0.6301939;-0.6987765;0.1925208;0.2783934;4;5;-1;-347;4119;604;4;0.6218836;-0.6545402;-0.3421052;-0.2603878;1;-2;1;560;3964;-48;16;-0.1121884;0.1066482;0.6246537;0.7654068;0;0;0;189;4157;886;2;-0.1897507;0.2742382;-0.6634349;-0.6698076;8;4;1;-530;4138;-400;8;-0.07063711;0.1454294;0.6385041;0.7524447;2;-1;0;-407;4193;735;0.4704967;2.814025;-0.02935605;0.4764377;3.355434;-0.09615663;0.4816571;3.831084;-0.1568818;0.4622469;4.525452;0.07963517;0.1946826;4.839128;0.1486568;-0.1422117;4.676559;0.1632342;-0.9189287;5.181565;0.1661158;-1.06141;6.102813;-0.003583699;0.7148231;4.853672;0.1486569;1.007908;4.708714;0.1632345;1.731569;5.259267;-0.1553267;1.821811;6.121121;-0.5385392;0.1582355;2.771351;-0.03138157;0.1606027;1.319515;-0.2131069;0;0;0;0.1582355;2.771351;-0.03138157;0.1606027;1.319515;-0.2131069;0;0;0
1153151.9369;NotLabelled;NONE;16384;0.7077454;0.0401662;-0.4584487;0.536011;2;0;2;2882;-2278;1691;65536;-0.3822715;-0.2437673;0.6741198;-0.5831025;-4;-1;-6;-790;-3973;-594;8192;-0.02493075;0.3947368;-0.8495523;0.3490305;0;-2;3;-2802;-2415;1781;32768;-0.2700831;-0.2216066;0.7941713;-0.4972299;-2;-3;-6;197;-3783;-1630;256;0.5373961;-0.7576405;0.2257618;0.2936288;0;5;1;-143;3878;-1213;128;0.6301939;-0.6997065;0.1911357;0.2770083;3;6;-1;-349;4119;510;4;0.6204986;-0.6558535;-0.3421052;-0.2603878;4;-1;0;404;3960;-98;16;-0.1121884;0.1066482;0.6246537;0.7654068;2;-1;0;151;4103;850;2;-0.1883656;0.2742382;-0.6620498;-0.6715667;14;-6;0;-304;3868;-360;8;-0.07063711;0.1454294;0.6385041;0.7524447;2;-1;0;-435;4081;761;0.4703641;2.81403;-0.03012744;0.4763033;3.355276;-0.0982345;0.4815212;3.830779;-0.1601074;0.4622476;4.524836;0.07732958;0.1947437;4.83847;0.1467766;-0.1421802;4.675943;0.1611511;-0.9173212;5.183355;0.1654926;-1.058259;6.104834;-0.004245549;0.7148871;4.852917;0.1467767;1.007946;4.707886;0.1611517;1.729635;5.25893;-0.1610148;1.820588;6.120647;-0.5443662;0.1581028;2.771351;-0.03204181;0.1597101;1.319515;-0.2137763;0;0;0;0.1581028;2.771351;-0.03204181;0.1597101;1.319515;-0.2137763;0;0;0
1153193.1699;NotLabelled;NONE;16384;0.7067717;0.03878116;-0.4584487;0.5373961;3;-3;3;2978;-2208;1625;65536;-0.3808864;-0.2437673;0.6749034;-0.5831025;-3;-4;-5;-534;-3953;-632;8192;-0.02631579;0.3947368;-0.8500782;0.3476454;1;-6;4;-2802;-2357;1889;32768;-0.2686981;-0.2216066;0.794641;-0.4972299;-3;-3;-5;289;-3765;-1634;256;0.5373961;-0.7585869;0.2243767;0.2922437;-3;4;0;-89;3860;-1259;128;0.6301939;-0.6991566;0.1911357;0.2783934;-2;-6;-2;-339;4107;432;4;0.6191136;-0.6566105;-0.3421052;-0.2617728;2;1;-1;576;4018;36;16;-0.1121884;0.1066482;0.6260388;0.7642744;2;1;0;191;4147;794;2;-0.1842105;0.2714681;-0.6578947;-0.6778983;5;-5;3;-398;4058;-164;8;-0.07063711;0.1468144;0.6398892;0.7509978;6;3;1;-631;4143;839;0.4651687;2.813759;-0.02805962;0.4711087;3.355079;-0.09558565;0.4763272;3.830647;-0.1569481;0.4579064;4.525473;0.078298;0.190791;4.839661;0.1467326;-0.146338;4.677604;0.1615902;-0.9213511;5.185228;0.1627177;-1.062283;6.106706;-0.007025197;0.7109522;4.853454;0.1467326;1.003827;4.708102;0.1615899;1.727117;5.258064;-0.1588304;1.818083;6.119781;-0.5421779;0.1529075;2.771083;-0.03002324;0.1597176;1.319515;-0.2137706;0;0;0;0.1529075;2.771083;-0.03002324;0.1597176;1.319515;-0.2137706;0;0;0
1153235.1195;NotLabelled;NONE;16384;0.7051141;0.03878116;-0.4626039;0.536011;4;0;5;2836;-2292;1711;65536;-0.3781163;-0.2423823;0.6769567;-0.5831025;-5;-4;-4;-586;-3975;-752;8192;-0.02770083;0.3933518;-0.850676;0.3476454;0;-4;2;-2846;-2357;1841;32768;-0.265928;-0.2202216;0.7968203;-0.4958449;-4;-4;-6;413;-3743;-1690;256;0.5387812;-0.7585452;0.2229917;0.2908587;0;5;0;-143;3892;-1257;128;0.6301939;-0.6978397;0.1939058;0.2797784;2;-3;-1;-365;4113;542;4;0.6191136;-0.6560566;-0.3421052;-0.2631579;2;0;0;556;3966;-16;16;-0.1121884;0.1066482;0.6260388;0.7642744;2;0;0;49;4131;802;2;-0.1855956;0.2700831;-0.6578947;-0.6780737;2;5;1;-368;3976;-314;8;-0.07063711;0.1454294;0.6412742;0.7500854;4;7;2;-219;4161;615;0.4570285;2.814805;-0.02583637;0.4629685;3.356126;-0.09335046;0.4681871;3.831695;-0.1547025;0.4499032;4.526214;0.08145788;0.1828484;4.840362;0.1503147;-0.1543102;4.678348;0.1649708;-0.9297761;5.185263;0.1691742;-1.069166;6.106967;-0.0006143153;0.7030121;4.854058;0.1503148;0.9958608;4.708632;0.1649711;1.719885;5.255617;-0.1588672;1.811562;6.117196;-0.5423585;0.1447673;2.772128;-0.02780125;0.1561712;1.32046;-0.2105277;0;0;0;0.1447673;2.772128;-0.02780125;0.1561712;1.32046;-0.2105277;0;0;0
1153255.9461;NotLabelled;NONE;16384;0.7042034;0.03878116;-0.4639889;0.536011;4;0;3;2886;-2274;1705;65536;-0.3781163;-0.2423823;0.6781473;-0.5817174;-7;-2;-5;-508;-3865;-784;8192;-0.02908587;0.3919668;-0.8518332;0.3462604;0;-3;1;-2798;-2295;1773;32768;-0.2645429;-0.2202216;0.7981409;-0.4944598;-4;-4;-5;383;-3699;-1672;256;0.5387812;-0.7585452;0.2229917;0.2908587;2;3;0;-73;3886;-1305;128;0.6301939;-0.6972828;0.1939058;0.2811634;3;0;-2;-401;4077;640;4;0.6177285;-0.6573609;-0.3421052;-0.2631579;2;3;0;578;4002;-122;16;-0.1121884;0.1066482;0.6260388;0.7642744;2;2;0;139;4169;836;2;-0.1869806;0.2714681;-0.6565097;-0.6784824;1;12;0;-436;3990;-304;8;-0.06925207;0.1440443;0.6426592;0.749296;4;4;1;-199;4173;529;0.4567277;2.815192;-0.0296158;0.4626661;3.356364;-0.09830846;0.4678832;3.8318;-0.1606959;0.4505868;4.526781;0.07417718;0.1839807;4.841438;0.1424393;-0.1534109;4.679936;0.1573787;-0.9270306;5.189681;0.156856;-1.06401;6.111383;-0.01490018;0.7041636;4.854387;0.1424394;0.996802;4.708567;0.157379;1.72037;5.254967;-0.1684609;1.81502;6.114645;-0.5554768;0.1444665;2.772511;-0.03148029;0.1552983;1.32046;-0.2111723;0;0;0;0.1444665;2.772511;-0.03148029;0.1552983;1.32046;-0.2111723;0;0;0
1153276.995;NotLabelled;NONE;16384;0.7032889;0.03878116;-0.4653739;0.536011;4;-1;3;2946;-2264;1721;65536;-0.3767313;-0.2423823;0.6789177;-0.5817174;-6;-1;-4;-382;-3959;-992;8192;-0.02908587;0.3919668;-0.8518332;0.3462604;0;-1;3;-2768;-2331;1853;32768;-0.2645429;-0.2202216;0.7981409;-0.4944598;-3;-4;-3;413;-3733;-1666;256;0.5387812;-0.7594803;0.2216066;0.2894737;2;4;0;-91;3914;-1367;128;0.6315789;-0.6960285;0.1939058;0.2811634;3;4;-1;-443;4095;608;4;0.6163435;-0.6573828;-0.3434903;-0.2645429;4;9;0;524;4004;-22;16;-0.1121884;0.1066482;0.6274238;0.7631378;1;0;0;165;4131;744;2;-0.1869806;0.2728532;-0.6565097;-0.6779265;1;7;-3;-540;3994;-196;8;-0.06925207;0.1440443;0.6426592;0.749296;3;4;1;-297;4177;577;0.4515609;2.814891;-0.02757897;0.4574994;3.356065;-0.09625998;0.4627165;3.831501;-0.1586372;0.4454201;4.526483;0.07623555;0.178814;4.84114;0.1444976;-0.1585776;4.679638;0.1594371;-0.931327;5.190694;0.1564134;-1.067311;6.11193;-0.01859491;0.6989969;4.85409;0.1444974;0.9916354;4.70827;0.1594372;1.716656;5.252183;-0.1673315;1.81465;6.110429;-0.5566872;0.1392997;2.77221;-0.02944442;0.1552981;1.320461;-0.2111731;0;0;0;0.1392997;2.77221;-0.02944442;0.1552981;1.320461;-0.2111731;0;0;0
1153297.9541;NotLabelled;NONE;16384;0.7032889;0.03878116;-0.4653739;0.536011;3;-1;4;2860;-2284;1717;65536;-0.3767313;-0.2423823;0.680102;-0.5803324;-4;-2;-3;-486;-3947;-976;8192;-0.03047091;0.3919668;-0.8517848;0.3462604;0;-3;4;-2934;-2307;1883;32768;-0.2631579;-0.2202216;0.7994546;-0.4930748;-2;-6;-2;481;-3681;-1742;256;0.5387812;-0.7594803;0.2216066;0.2894737;0;4;0;-63;3830;-1343;128;0.6315789;-0.6964129;0.1925208;0.2811634;4;2;0;-409;4159;500;4;0.6163435;-0.6568238;-0.3434903;-0.265928;3;6;0;556;3958;-54;16;-0.1121884;0.1066482;0.6274238;0.7631378;1;1;0;129;4131;726;2;-0.1883656;0.2770083;-0.6551247;-0.6771975;-2;10;-4;-558;3964;-248;8;-0.06925207;0.1426593;0.6440443;0.7483712;2;2;1;-327;4177;681;0.4457155;2.815661;-0.02334634;0.4516512;3.35659;-0.09393349;0.4568658;3.831804;-0.1579853;0.439712;4.526483;0.07779045;0.1731693;4.841102;0.1464695;-0.1642534;4.679647;0.1612102;-0.9361376;5.192013;0.1590618;-1.070603;6.113463;-0.01599842;0.6933547;4.853951;0.1464697;0.9859653;4.708055;0.1612107;1.709576;5.251969;-0.168669;1.805946;6.110216;-0.5584299;0.1334541;2.772974;-0.02504916;0.1517907;1.32139;-0.2078803;0;0;0;0.1334541;2.772974;-0.02504916;0.1517907;1.32139;-0.2078803;0;0;0
1153339.1293;NotLabelled;NONE;16384;0.7023704;0.03878116;-0.466759;0.536011;3;-3;4;2728;-2322;1687;65536;-0.3767313;-0.2423823;0.680102;-0.5803324;-1;-4;-4;-620;-3879;-1052;8192;-0.03185596;0.3919668;-0.8517341;0.3462604;-1;-5;3;-2880;-2253;1899;32768;-0.2631579;-0.2202216;0.7994546;-0.4930748;-2;-3;-4;293;-3751;-1790;256;0.5387812;-0.7598831;0.2202216;0.2894737;-2;4;0;-23;3856;-1335;128;0.6315789;-0.6969705;0.1925208;0.2797784;5;2;0;-365;4095;676;4;0.6149584;-0.656834;-0.3448753;-0.267313;2;6;0;480;3950;-42;16;-0.1121884;0.1052632;0.6274238;0.76333;1;1;1;199;4159;786;2;-0.1883656;0.2783934;-0.6551247;-0.6766293;-2;9;-3;-528;3916;-198;8;-0.06925207;0.1412742;0.6440443;0.7486339;1;4;1;-337;4179;671;0.4455374;2.816043;-0.02638639;0.451474;3.35705;-0.09637697;0.4566894;3.832334;-0.1599047;0.4395356;4.527012;0.07587129;0.172993;4.841632;0.1445507;-0.1644296;4.680177;0.1592912;-0.9363133;5.192543;0.1570467;-1.069796;6.113512;-0.0212592;0.6931783;4.854481;0.1445507;0.9857889;4.708584;0.1592918;1.711004;5.251419;-0.1688378;1.810705;6.108219;-0.5609342;0.1332762;2.773358;-0.02814008;0.1517909;1.321391;-0.2078798;0;0;0;0.1332762;2.773358;-0.02814008;0.1517909;1.321391;-0.2078798;0;0;0
1153361.9622;NotLabelled;NONE;16384;0.7015232;0.03739612;-0.468144;0.536011;1;-7;2;2910;-2280;1743;65536;-0.3739612;-0.2423823;0.6828058;-0.5789474;3;-2;-6;-294;-4019;-1032;8192;-0.033241;0.3919668;-0.8516812;0.3462604;-3;-2;3;-2770;-2321;1919;32768;-0.2603878;-0.2202216;0.8012127;-0.4916897;0;-3;-5;545;-3665;-2000;256;0.5401662;-0.7598263;0.2188366;0.2880886;3;4;-1;-79;3876;-1377;128;0.634349;-0.6959417;0.1911357;0.2770083;4;11;1;-405;4183;550;4;0.6149584;-0.6562687;-0.3448753;-0.2686981;0;6;0;474;4060;-38;16;-0.1121884;0.1052632;0.6274238;0.76333;1;0;1;175;4109;784;2;-0.1897507;0.2811634;-0.6551247;-0.6750952;0;7;-3;-576;4040;-204;8;-0.06925207;0.1398892;0.6440443;0.7488939;1;0;1;-303;4173;621;0.4450048;2.815781;-0.02429404;0.4509413;3.356786;-0.09429644;0.4561567;3.832069;-0.1578345;0.4403483;4.526477;0.07882904;0.1744143;4.841523;0.1479184;-0.1633182;4.680699;0.1624632;-0.9343317;5.194375;0.1604937;-1.068128;6.115345;-0.01757744;0.6946235;4.853368;0.1479187;0.9869528;4.706891;0.1624642;1.712575;5.248651;-0.166539;1.811589;6.105451;-0.5588098;0.1327435;2.773096;-0.02604671;0.1540142;1.321297;-0.2068365;0;0;0;0.1327435;2.773096;-0.02604671;0.1540142;1.321297;-0.2068365;0;0;0
1153383.8982;NotLabelled;NONE;16384;0.6996078;0.03601108;-0.4695291;0.5373961;0;-6;3;2972;-2312;1807;65536;-0.3725762;-0.2423823;0.6823871;-0.5803324;3;-4;-3;-410;-3947;-904;8192;-0.033241;0.3905817;-0.8523173;0.3462604;-5;-4;3;-2804;-2309;1853;32768;-0.2603878;-0.2202216;0.8020611;-0.4903047;2;-5;-2;569;-3587;-1952;256;0.5387812;-0.7617288;0.2174515;0.2867036;3;4;-1;-77;3838;-1351;128;0.6357341;-0.6956067;0.1897507;0.2756233;4;11;2;-375;4113;538;4;0.6135734;-0.6568354;-0.3462604;-0.2686981;0;0;0;570;3930;-46;16;-0.1121884;0.1052632;0.6274238;0.76333;1;0;1;133;4131;766;2;-0.1897507;0.2811634;-0.6551247;-0.6750952;-1;3;-2;-630;3998;-254;8;-0.06925207;0.1398892;0.6440443;0.7488939;1;0;0;-347;4167;629;0.4447294;2.816172;-0.02819201;0.4506612;3.356745;-0.1014484;0.4558724;3.831637;-0.1678451;0.4410059;4.526512;0.06750755;0.1755084;4.842068;0.1359408;-0.1624582;4.681757;0.1507084;-0.9337857;5.19496;0.1532107;-1.06282;6.115839;-0.02880031;0.695734;4.853167;0.1360421;0.9878494;4.706296;0.1509324;1.713047;5.248937;-0.1775573;1.816143;6.104121;-0.5722958;0.132468;2.773477;-0.02966742;0.1531982;1.321297;-0.2074408;0;0;0;0.132468;2.773477;-0.02966742;0.1531982;1.321297;-0.2074408;0;0;0
1153404.0923;NotLabelled;NONE;16384;0.6996078;0.03601108;-0.4695291;0.5373961;0;-5;2;2854;-2260;1769;65536;-0.3725762;-0.2423823;0.6823871;-0.5803324;3;-3;-3;-536;-3901;-816;8192;-0.03462604;0.3905817;-0.851698;0.3476454;-5;-1;2;-2738;-2253;1767;32768;-0.2590028;-0.2202216;0.8016616;-0.4916897;5;-3;-3;253;-3673;-1928;256;0.5387812;-0.7617288;0.2174515;0.2867036;2;4;-1;-167;3898;-1337;128;0.6357341;-0.6965299;0.1883656;0.2742382;5;11;1;-367;4099;592;4;0.6135734;-0.6568354;-0.3462604;-0.2686981;-2;0;0;612;3928;-66;16;-0.1121884;0.1052632;0.6274238;0.76333;0;0;0;161;4081;718;2;-0.1897507;0.2839335;-0.6565097;-0.6725857;-2;3;-3;-546;3996;-302;8;-0.06925207;0.1398892;0.6440443;0.7488939;0;-1;0;-237;4153;563;0.4417325;2.815622;-0.02476596;0.4476623;3.356012;-0.09936234;0.4528715;3.830738;-0.1669362;0.4373702;4.524545;0.07150492;0.1715734;4.839525;0.1414161;-0.1662263;4.678807;0.155569;-0.9371257;5.192651;0.1528427;-1.065665;6.114226;-0.02597044;0.6917874;4.851151;0.1414161;0.9840556;4.704513;0.1555693;1.708395;5.24569;-0.177196;1.810751;6.09956;-0.5749622;0.1294711;2.772923;-0.02612686;0.1522877;1.321297;-0.2081109;0;0;0;0.1294711;2.772923;-0.02612686;0.1522877;1.321297;-0.2081109;0;0;0
1153425.9541;NotLabelled;NONE;16384;0.6996078;0.03601108;-0.4695291;0.5373961;0;-4;1;2790;-2280;1799;65536;-0.3711911;-0.2423823;0.6831415;-0.5803324;2;-2;-5;-538;-3971;-804;8192;-0.03462604;0.3905817;-0.851698;0.3476454;-5;3;0;-2916;-2245;1841;32768;-0.2590028;-0.2202216;0.8016616;-0.4916897;8;2;-5;429;-3713;-1906;256;0.5387812;-0.7617288;0.2174515;0.2867036;1;4;0;-183;3848;-1293;128;0.6371191;-0.695808;0.1883656;0.2728532;5;11;1;-355;4053;602;4;0.6135734;-0.6574004;-0.3462604;-0.267313;-3;0;2;550;4006;-102;16;-0.1121884;0.1052632;0.6288089;0.7621895;0;0;1;181;4127;708;2;-0.1897507;0.2839335;-0.6565097;-0.6725857;-1;2;-3;-524;4006;-296;8;-0.07063711;0.1412742;0.6440443;0.7485045;0;-3;0;-343;4213;629;0.4417326;2.815621;-0.02471723;0.4476632;3.35609;-0.09874227;0.4528733;3.830887;-0.1658142;0.4373719;4.524694;0.07262686;0.171575;4.839674;0.142538;-0.1662247;4.678956;0.1566911;-0.937124;5.1928;0.1538735;-1.065663;6.114375;-0.02493967;0.691789;4.851299;0.142538;0.9840574;4.704661;0.1566913;1.709511;5.246663;-0.172286;1.813186;6.101688;-0.5672198;0.1294712;2.772923;-0.02612689;0.1522876;1.321297;-0.208111;0;0;0;0.1294712;2.772923;-0.02612689;0.1522876;1.321297;-0.208111;0;0;0
1153446.9418;NotLabelled;NONE;16384;0.6985417;0.03601108;-0.4695291;0.5387812;0;-6;1;2878;-2258;1701;65536;-0.3711911;-0.2437673;0.6826485;-0.5803324;3;-2;-2;-424;-3869;-896;8192;-0.03462604;0.3919668;-0.8510615;0.3476454;-5;4;0;-2794;-2333;1777;32768;-0.2576177;-0.2216066;0.8008751;-0.4930748;10;0;-5;559;-3659;-1824;256;0.5387812;-0.7626424;0.2160665;0.2853186;3;3;0;-89;3898;-1263;128;0.6385041;-0.6963633;0.1855956;0.2700831;2;11;2;-353;4125;492;4;0.6135734;-0.6574004;-0.3462604;-0.267313;-1;2;1;472;4000;-50;16;-0.1121884;0.1052632;0.6288089;0.7621895;0;0;1;155;4131;760;2;-0.1897507;0.2853186;-0.6565097;-0.6719993;0;1;-2;-412;4034;-302;8;-0.07063711;0.1412742;0.6440443;0.7485045;0;-2;0;-305;4155;671;0.439325;2.816152;-0.01781079;0.4452527;3.356353;-0.09376624;0.4504601;3.830908;-0.162534;0.4349586;4.524714;0.07590698;0.1691618;4.839694;0.1458181;-0.1686378;4.678977;0.1599711;-0.9395368;5.19282;0.1572723;-1.065831;6.114589;-0.02214152;0.6893758;4.85132;0.1458182;0.981644;4.704681;0.1599714;1.707046;5.246684;-0.1691178;1.810722;6.101708;-0.5640511;0.1270636;2.77345;-0.01905567;0.1496927;1.322212;-0.2041405;0;0;0;0.1270636;2.77345;-0.01905567;0.1496927;1.322212;-0.2041405;0;0;0
1153466.9555;NotLabelled;NONE;16384;0.6985417;0.03601108;-0.4695291;0.5387812;-1;-6;1;2936;-2220;1699;65536;-0.3698061;-0.2437673;0.6822212;-0.5817174;3;-4;0;-430;-3949;-822;8192;-0.03601108;0.3919668;-0.8504369;0.3490305;-7;1;3;-2822;-2279;1903;32768;-0.2562327;-0.2229917;0.8000807;-0.4944598;9;-3;-1;385;-3689;-1558;256;0.5387812;-0.7626424;0.2160665;0.2853186;3;1;-1;-169;3862;-1293;128;0.6398892;-0.6956274;0.1855956;0.2686981;0;10;2;-357;4121;454;4;0.6149584;-0.6561049;-0.3462604;-0.267313;-1;1;0;480;3956;62;16;-0.1121884;0.1052632;0.6288089;0.7621895;0;0;1;207;4171;740;2;-0.1911357;0.2853186;-0.6565097;-0.6716067;-1;4;-1;-514;3958;-228;8;-0.07063711;0.1412742;0.6440443;0.7485045;0;0;0;-405;4187;747;0.4392449;2.816153;-0.01840609;0.4451714;3.356242;-0.09515458;0.4503777;3.830694;-0.1646191;0.4350375;4.524203;0.07470219;0.1693128;4.839153;0.1450201;-0.1685224;4.678493;0.158979;-0.9386674;5.193472;0.1601086;-1.064314;6.115673;-0.01752977;0.6895295;4.850663;0.1450204;0.9817656;4.703941;0.1589797;1.706469;5.245431;-0.172484;1.810926;6.101923;-0.5640173;0.1269834;2.773449;-0.01958346;0.1488435;1.322212;-0.2047608;0;0;0;0.1269834;2.773449;-0.01958346;0.1488435;1.322212;-0.2047608;0;0;0
1153508.2887;NotLabelled;NONE;16384;0.6974713;0.03601108;-0.4695291;0.5401662;-1;-4;-1;2910;-2368;1769;65536;-0.3698061;-0.2437673;0.6822212;-0.5817174;3;-1;-3;-626;-3943;-720;8192;-0.03601108;0.3933518;-0.8492271;0.3504155;-8;1;2;-2848;-2291;1897;32768;-0.2562327;-0.2229917;0.7992229;-0.4958449;9;-3;-2;277;-3781;-1556;256;0.5373961;-0.763619;0.2160665;0.2853186;5;1;0;-221;3836;-1391;128;0.6398892;-0.6959955;0.1842105;0.2686981;2;9;2;-351;4133;476;4;0.6149584;-0.6553721;-0.3476454;-0.267313;-3;1;0;544;4004;48;16;-0.1121884;0.1052632;0.6288089;0.7621895;0;0;0;181;4099;768;2;-0.1911357;0.2867036;-0.6565097;-0.6710165;-3;6;-1;-556;3968;-270;8;-0.07063711;0.1412742;0.6440443;0.7485045;0;2;1;-329;4179;677;0.4443702;2.816491;-0.02066121;0.4502937;3.356301;-0.09934576;0.4554972;3.830502;-0.170511;0.440157;4.52401;0.06881025;0.1744323;4.83896;0.1391283;-0.1634029;4.678299;0.153087;-0.9335483;5.193279;0.1541793;-1.057902;6.11616;-0.02081239;0.694649;4.85047;0.1391284;0.9868851;4.703748;0.1530877;1.712684;5.246049;-0.1746331;1.819559;6.103991;-0.5623235;0.1321087;2.773783;-0.02167314;0.1488435;1.322212;-0.2047607;0;0;0;0.1321087;2.773783;-0.02167314;0.1488435;1.322212;-0.2047607;0;0;0
1153528.9365;NotLabelled;NONE;16384;0.6974713;0.03601108;-0.4695291;0.5401662;-2;-1;-2;2912;-2320;1655;65536;-0.3698061;-0.2437673;0.6822212;-0.5817174;3;0;-4;-656;-3891;-800;8192;-0.03739612;0.3933518;-0.8485943;0.3518005;-8;0;2;-2918;-2255;1775;32768;-0.2548476;-0.2229917;0.7988052;-0.4972299;9;-1;-3;387;-3695;-1468;256;0.5373961;-0.7640095;0.2146814;0.2853186;2;2;0;-115;3874;-1325;128;0.6398892;-0.6965286;0.1842105;0.267313;1;10;1;-385;4051;460;4;0.6149584;-0.6553721;-0.3476454;-0.267313;-5;-1;0;506;3968;-46;16;-0.1121884;0.1052632;0.6288089;0.7621895;0;0;0;207;4123;744;2;-0.1911357;0.2867036;-0.6565097;-0.6710165;0;-1;-1;-500;4056;-382;8;-0.07063711;0.1412742;0.6440443;0.7485045;0;-3;0;-309;4209;645;0.4466504;2.816254;-0.01856854;0.4525747;3.356147;-0.09668489;0.4577791;3.830423;-0.167351;0.4416157;4.52315;0.074165;0.1755146;4.837554;0.1454981;-0.1621244;4.67644;0.1589719;-0.9315079;5.192555;0.1607425;-1.055867;6.115438;-0.01424493;0.6957167;4.849694;0.1454982;0.9881315;4.703284;0.1589723;1.714096;5.246955;-0.166099;1.819968;6.10619;-0.5511892;0.1343889;2.773548;-0.01962904;0.1488371;1.322212;-0.2047655;0;0;0;0.1343889;2.773548;-0.01962904;0.1488371;1.322212;-0.2047655;0;0;0
1153548.957;NotLabelled;NONE;16384;0.6974713;0.03601108;-0.4695291;0.5401662;-2;0;-1;2764;-2256;1669;65536;-0.368421;-0.2437673;0.681788;-0.5831025;3;-1;-3;-452;-3917;-774;8192;-0.03739612;0.3933518;-0.8485943;0.3518005;-7;0;3;-2764;-2367;1687;32768;-0.2548476;-0.2243767;0.7975531;-0.4986149;8;0;-2;485;-3711;-1480;256;0.5373961;-0.7645254;0.2146814;0.2839335;2;3;0;-27;3800;-1295;128;0.6412742;-0.6961498;0.1828255;0.265928;3;11;2;-411;4083;460;4;0.6149584;-0.6553721;-0.3476454;-0.267313;-4;0;1;484;3902;-54;16;-0.1121884;0.1038781;0.6288089;0.7623795;-1;-1;0;153;4171;736;2;-0.1911357;0.2867036;-0.6565097;-0.6710165;0;0;-1;-514;4006;-266;8;-0.07063711;0.1398892;0.6440443;0.7487646;0;0;0;-347;4193;649;0.4466159;2.816254;-0.01880287;0.4525403;3.356146;-0.09692981;0.4577446;3.83042;-0.1676052;0.442937;4.522876;0.07477599;0.1774507;4.837707;0.1465093;-0.1605012;4.677235;0.1597914;-0.9298737;5.19335;0.1642748;-1.054537;6.116232;-0.01049633;0.6976756;4.848835;0.1465097;0.989805;4.701838;0.1597928;1.715697;5.24631;-0.1640982;1.822205;6.106664;-0.5465053;0.1343545;2.773548;-0.01986246;0.1484808;1.322212;-0.2050238;0;0;0;0.1343545;2.773548;-0.01986246;0.1484808;1.322212;-0.2050238;0;0;0
1153568.9704;NotLabelled;NONE;16384;0.6973282;0.03601108;-0.468144;0.5415512;-1;-7;-1;2890;-2434;1507;65536;-0.367036;-0.2451524;0.6808519;-0.5844875;7;-4;-4;-480;-3987;-780;8192;-0.03878116;0.3933518;-0.8479565;0.3531856;-6;0;4;-2702;-2405;1745;32768;-0.2534626;-0.2243767;0.7971272;-0.5;7;-2;0;305;-3759;-1472;256;0.536011;-0.7658842;0.2132964;0.2839335;4;2;0;-123;3886;-1333;128;0.6426592;-0.6962876;0.1814404;0.2631579;2;7;0;-397;4095;446;4;0.6163435;-0.6533316;-0.3490305;-0.267313;-3;4;1;512;3894;50;16;-0.1121884;0.1052632;0.6274238;0.76333;-1;0;0;119;4141;726;2;-0.1911357;0.2880886;-0.6565097;-0.6704231;-2;3;-2;-508;3998;-230;8;-0.07063711;0.1398892;0.6440443;0.7487646;-1;1;0;-305;4165;741;0.4491695;2.81616;-0.01797191;0.4550916;3.355851;-0.09747416;0.4602939;3.829943;-0.1693577;0.4443022;4.522369;0.07303272;0.1782778;4.836746;0.1447703;-0.1593992;4.675695;0.1580509;-0.9287685;5.19181;0.1630427;-1.052556;6.115365;-0.00877358;0.698483;4.848763;0.1447704;0.9908632;4.702266;0.1580513;1.716537;5.246732;-0.1663395;1.822251;6.108668;-0.5453888;0.1369079;2.773451;-0.01891396;0.1505876;1.322116;-0.2041088;0;0;0;0.1369079;2.773451;-0.01891396;0.1505876;1.322116;-0.2041088;0;0;0
1153590.1411;NotLabelled;NONE;16384;0.6963207;0.03462604;-0.468144;0.5429363;0;-5;-4;2914;-2300;1573;65536;-0.367036;-0.2451524;0.6808519;-0.5844875;7;-2;-5;-602;-3889;-588;8192;-0.0401662;0.3947368;-0.8466694;0.3545706;-5;0;4;-2858;-2389;1667;32768;-0.2534626;-0.2243767;0.795383;-0.5027701;6;-1;0;253;-3789;-1408;256;0.536011;-0.7658842;0.2132964;0.2839335;3;3;0;-135;3848;-1345;128;0.6426592;-0.6962876;0.1814404;0.2631579;1;8;0;-401;4077;380;4;0.6163435;-0.6533316;-0.3490305;-0.267313;-2;4;1;540;4038;50;16;-0.1121884;0.1038781;0.6274238;0.7635198;-1;1;0;163;4187;752;2;-0.1911357;0.2880886;-0.6565097;-0.6704231;-2;3;-2;-482;3970;-296;8;-0.07063711;0.1398892;0.6440443;0.7487646;-1;1;0;-341;4175;653;0.4565178;2.815403;-0.02366442;0.4624377;3.354886;-0.1045598;0.467638;3.828792;-0.1776671;0.4521697;4.520156;0.06777056;0.1863825;4.834413;0.1408962;-0.1514152;4.67356;0.1534728;-0.9208537;5.189456;0.1654905;-1.042232;6.114086;-0.002206385;0.7065966;4.846039;0.1409409;0.998867;4.699265;0.1535719;1.724535;5.245348;-0.1681034;1.830917;6.108385;-0.5444508;0.1442562;2.772692;-0.02448737;0.1501957;1.321296;-0.2096256;0;0;0;0.1442562;2.772692;-0.02448737;0.1501957;1.321296;-0.2096256;0;0;0
1153610.9425;NotLabelled;NONE;16384;0.6952385;0.03462604;-0.468144;0.5443213;0;-4;-4;2926;-2268;1641;65536;-0.365651;-0.2465374;0.679906;-0.5858725;7;-4;-6;-428;-3995;-566;8192;-0.0401662;0.3947368;-0.8466694;0.3545706;-4;0;4;-2932;-2353;1629;32768;-0.2534626;-0.2243767;0.795383;-0.5027701;6;1;0;407;-3799;-1424;256;0.536011;-0.7663962;0.2132964;0.2825485;2;4;0;-109;3870;-1367;128;0.6426592;-0.6971686;0.1800554;0.2617728;2;6;0;-349;4069;450;4;0.6163435;-0.6525898;-0.3504155;-0.267313;-6;0;0;504;3882;-58;16;-0.1121884;0.1038781;0.6274238;0.7635198;-1;-3;0;227;4127;826;2;-0.1911357;0.2880886;-0.6565097;-0.6704231;0;0;0;-480;4004;-294;8;-0.07063711;0.1398892;0.6440443;0.7487646;-1;0;0;-321;4175;637;0.4591225;2.815305;-0.02240621;0.4650424;3.354788;-0.1033015;0.4702426;3.828694;-0.1764087;0.4547954;4.520058;0.06903016;0.1890146;4.834315;0.1421785;-0.1487819;4.673461;0.154784;-0.9186766;5.188732;0.1641153;-1.040069;6.113362;-0.003570944;0.7092286;4.845941;0.1421787;1.0015;4.699168;0.1547844;1.729391;5.244661;-0.162841;1.833754;6.110221;-0.5339228;0.1468611;2.772594;-0.02322908;0.1527848;1.321199;-0.2083676;0;0;0;0.1468611;2.772594;-0.02322908;0.1527848;1.321199;-0.2083676;0;0;0
1153630.9604;NotLabelled;NONE;16384;0.6953061;0.033241;-0.468144;0.5443213;-1;-4;-3;3028;-2228;1635;65536;-0.3642659;-0.2465374;0.6794543;-0.5872576;6;-2;-5;-444;-4015;-562;8192;-0.0401662;0.3961219;-0.8460223;0.3545706;-2;0;4;-2814;-2441;1653;32768;-0.2534626;-0.2257618;0.7941133;-0.5041551;6;1;2;537;-3805;-1340;256;0.536011;-0.7667804;0.2119114;0.2825485;0;3;0;-117;3910;-1329;128;0.6440443;-0.6958894;0.1800554;0.2617728;0;6;0;-377;4069;492;4;0.6163435;-0.6525898;-0.3504155;-0.267313;-6;3;0;540;3858;-8;16;-0.1121884;0.1052632;0.6274238;0.76333;0;-1;0;149;4137;846;2;-0.1911357;0.2880886;-0.6565097;-0.6704231;0;3;0;-540;3998;-284;8;-0.07063711;0.1398892;0.6440443;0.7487646;0;1;0;-361;4203;727;0.4613736;2.81505;-0.02067624;0.4672944;3.354614;-0.1010267;0.4724955;3.828593;-0.1736553;0.4558705;4.519927;0.07179336;0.1895546;4.83373;0.1449463;-0.1479674;4.672302;0.1575496;-0.9170678;5.188705;0.1693901;-1.036159;6.114389;0.005918697;0.7097481;4.846242;0.1449463;1.002269;4.699967;0.1575499;1.729404;5.24546;-0.1618053;1.832871;6.111019;-0.5331377;0.1491121;2.772339;-0.02154571;0.1522818;1.321199;-0.2087357;0;0;0;0.1491121;2.772339;-0.02154571;0.1522818;1.321199;-0.2087357;0;0;0
1153652.9409;NotLabelled;NONE;16384;0.6951515;0.033241;-0.466759;0.5457063;0;-4;-1;2990;-2240;1653;65536;-0.3642659;-0.2479224;0.6789501;-0.5872576;5;-2;-1;-464;-4101;-508;8192;-0.04155125;0.3961219;-0.8459555;0.3545706;-2;0;4;-2860;-2359;1725;32768;-0.2534626;-0.2257618;0.7932323;-0.5055401;5;0;4;491;-3815;-1298;256;0.536011;-0.7667804;0.2119114;0.2825485;0;2;0;-97;3822;-1377;128;0.6440443;-0.6967654;0.1786704;0.2603878;0;5;0;-399;4079;428;4;0.6163435;-0.6518442;-0.3518005;-0.267313;-3;7;0;594;3894;50;16;-0.1121884;0.1052632;0.6274238;0.76333;-1;0;0;205;4091;748;2;-0.1911357;0.2894737;-0.6565097;-0.6698262;-2;5;-1;-502;4008;-278;8;-0.07063711;0.1398892;0.6440443;0.7487646;0;1;0;-293;4159;679;0.4587238;2.81515;-0.02235943;0.4646414;3.354423;-0.1046453;0.4698395;3.828139;-0.178974;0.4545767;4.5192;0.06732812;0.1888787;4.833434;0.1408761;-0.1489589;4.672652;0.1532903;-0.9192421;5.187275;0.1657491;-1.037325;6.113595;0.005169347;0.7090958;4.844926;0.1408763;1.00133;4.698063;0.1532907;1.728527;5.243012;-0.1668482;1.831499;6.110111;-0.534709;0.1464621;2.772437;-0.02306348;0.149308;1.321297;-0.2102589;0;0;0;0.1464621;2.772437;-0.02306348;0.149308;1.321297;-0.2102589;0;0;0
1153672.9705;NotLabelled;NONE;16384;0.6951515;0.033241;-0.466759;0.5457063;-1;0;-2;3000;-2350;1625;65536;-0.3628809;-0.2479224;0.6772882;-0.5900277;0;0;-2;-652;-4161;-362;8192;-0.04155125;0.3961219;-0.8459555;0.3545706;-2;0;3;-2972;-2319;1689;32768;-0.2534626;-0.2257618;0.7923479;-0.5069252;4;1;3;383;-3981;-1304;256;0.5373961;-0.7663199;0.2119114;0.2811634;0;2;0;-199;3868;-1365;128;0.6440443;-0.6967654;0.1786704;0.2603878;-1;2;0;-337;4099;498;4;0.6163435;-0.6505244;-0.3531856;-0.2686981;0;12;0;550;4010;172;16;-0.1121884;0.1052632;0.6274238;0.76333;-1;0;0;219;4075;738;2;-0.1925208;0.2894737;-0.6565097;-0.6694294;-3;3;-1;-480;3950;-346;8;-0.07063711;0.1398892;0.6440443;0.7487646;-1;0;0;-235;4187;601;0.4610369;2.814888;-0.0202777;0.4669554;3.354244;-0.1020232;0.4721544;3.828033;-0.1758774;0.4568916;4.519094;0.07042475;0.1911936;4.833328;0.1439727;-0.146644;4.672546;0.1563869;-0.917011;5.186963;0.1718518;-1.033676;6.113677;0.01252043;0.7114105;4.84482;0.1439729;1.003644;4.697957;0.1563874;1.732441;5.241803;-0.1619872;1.834424;6.110142;-0.5271878;0.1487753;2.772176;-0.02102795;0.1493079;1.321297;-0.2102588;0;0;0;0.1487753;2.772176;-0.02102795;0.1493079;1.321297;-0.2102588;0;0;0
1153693.9468;NotLabelled;NONE;16384;0.6952164;0.03185596;-0.466759;0.5457063;-1;2;-2;3038;-2292;1605;65536;-0.3628809;-0.2479224;0.6772882;-0.5900277;-2;1;-3;-474;-4107;-448;8192;-0.04293629;0.3961219;-0.8458863;0.3545706;-1;-1;1;-2980;-2305;1695;32768;-0.2534626;-0.2271468;0.7910637;-0.5083103;-1;-1;-2;379;-3871;-1258;256;0.5373961;-0.7663199;0.2119114;0.2811634;0;1;0;-201;3938;-1323;128;0.6440443;-0.6976349;0.1772853;0.2590028;-2;3;0;-347;4169;428;4;0.6163435;-0.6497705;-0.3545706;-0.2686981;-1;6;1;550;4214;208;16;-0.1121884;0.1052632;0.6274238;0.76333;-1;1;0;177;4155;744;2;-0.1925208;0.2908587;-0.6565097;-0.6688288;-1;0;-1;-486;4002;-274;8;-0.07063711;0.1398892;0.6440443;0.7487646;0;-1;0;-207;4255;747;0.4630904;2.815023;-0.02167747;0.4690088;3.354378;-0.103423;0.4742078;3.828168;-0.1772771;0.4585745;4.519993;0.06684539;0.1927106;4.834321;0.1393843;-0.1450458;4.673408;0.1522815;-0.9153732;5.187823;0.1696059;-1.032052;6.115593;0.0165505;0.7129218;4.84608;0.1393846;1.00523;4.699405;0.1522821;1.733256;5.243251;-0.1678504;1.833384;6.112823;-0.5306237;0.1508288;2.77231;-0.02242755;0.1488071;1.321297;-0.2106138;0;0;0;0.1508288;2.77231;-0.02242755;0.1488071;1.321297;-0.2106138;0;0;0
1153713.9626;NotLabelled;NONE;16384;0.6952164;0.03185596;-0.466759;0.5457063;0;1;-1;3020;-2308;1651;65536;-0.3628809;-0.2479224;0.6772882;-0.5900277;-3;1;-2;-430;-4113;-488;8192;-0.04293629;0.3961219;-0.8458863;0.3545706;0;-3;1;-2906;-2435;1749;32768;-0.2534626;-0.2257618;0.7914601;-0.5083103;-3;-2;-1;387;-3895;-1268;256;0.5373961;-0.7667015;0.2105263;0.2811634;0;1;0;-117;3918;-1325;128;0.6440443;-0.6976349;0.1772853;0.2590028;-2;3;0;-341;4133;434;4;0.6177285;-0.6490261;-0.3545706;-0.267313;-2;-2;1;372;3936;-44;16;-0.1121884;0.1038781;0.6260388;0.7646558;0;0;0;193;4125;880;2;-0.1925208;0.2908587;-0.6578947;-0.6674665;-3;5;-1;-582;3928;-298;8;-0.07063711;0.1398892;0.6440443;0.7487646;-1;3;0;-391;4155;701;0.4654147;2.814752;-0.0196001;0.4713341;3.354188;-0.1008095;0.4765339;3.828051;-0.1741927;0.4609089;4.519876;0.06993021;0.1950476;4.834204;0.1424782;-0.1427082;4.67329;0.1553866;-0.9142383;5.185942;0.1714276;-1.030922;6.113713;0.01837637;0.7152586;4.845963;0.1424608;1.007567;4.699287;0.1553486;1.737117;5.241711;-0.1637263;1.837391;6.112792;-0.5228224;0.1531532;2.77204;-0.02039618;0.1487999;1.321297;-0.2106186;0;0;0;0.1531532;2.77204;-0.02039618;0.1487999;1.321297;-0.2106186;0;0;0
1153733.9445;NotLabelled;NONE;16384;0.6952164;0.03185596;-0.466759;0.5457063;0;0;0;3066;-2252;1643;65536;-0.3628809;-0.2479224;0.6784922;-0.5886427;-4;0;-1;-540;-4059;-486;8192;-0.04293629;0.3961219;-0.8458863;0.3545706;0;-2;0;-2846;-2417;1743;32768;-0.2534626;-0.2257618;0.7914601;-0.5083103;-3;-1;0;313;-3847;-1366;256;0.5373961;-0.7667015;0.2105263;0.2811634;0;1;0;-143;3924;-1405;128;0.6440443;-0.6976349;0.1772853;0.2590028;-3;2;0;-309;4127;428;4;0.6177285;-0.6484539;-0.3545706;-0.2686981;0;1;0;364;3950;34;16;-0.1121884;0.1038781;0.6260388;0.7646558;0;0;0;119;4077;846;2;-0.1925208;0.2922437;-0.6578947;-0.6668612;-5;4;-1;-484;3982;-238;8;-0.06925207;0.1385041;0.6440443;0.7491513;0;2;0;-243;4131;677;0.4758824;2.813572;-0.02168817;0.4818017;3.353008;-0.1028976;0.4870015;3.826871;-0.1762809;0.4727322;4.518426;0.06868996;0.2074876;4.833187;0.1416217;-0.1305834;4.672919;0.1543309;-0.9020852;5.185555;0.1721554;-1.019028;6.113325;0.01930201;0.7277207;4.843925;0.1416218;1.019741;4.69666;0.1543313;1.748763;5.239401;-0.165408;1.84728;6.110198;-0.525676;0.1636208;2.77086;-0.02248428;0.153579;1.320267;-0.2136272;0;0;0;0.1636208;2.77086;-0.02248428;0.153579;1.320267;-0.2136272;0;0;0
1153755.9263;NotLabelled;NONE;16384;0.6952164;0.03185596;-0.466759;0.5457063;1;0;0;3014;-2362;1561;65536;-0.3628809;-0.2479224;0.6784922;-0.5886427;-3;-1;-3;-606;-3999;-546;8192;-0.04293629;0.3961219;-0.8458863;0.3545706;1;-2;0;-2918;-2381;1673;32768;-0.2534626;-0.2257618;0.7914601;-0.5083103;-3;0;0;289;-3875;-1312;256;0.5373961;-0.767208;0.2105263;0.2797784;-1;1;0;-159;3890;-1323;128;0.6426592;-0.698911;0.1772853;0.2590028;-3;2;0;-411;4123;396;4;0.6163435;-0.6497705;-0.3545706;-0.2686981;0;3;0;468;3946;58;16;-0.1121884;0.1052632;0.6260388;0.7644664;0;0;0;121;4141;756;2;-0.1939058;0.2922437;-0.6578947;-0.6664598;-3;2;0;-430;4004;-276;8;-0.06925207;0.1385041;0.6440443;0.7491513;0;0;0;-207;4203;633;0.4756679;2.813975;-0.02475902;0.4815873;3.353411;-0.1059685;0.4867871;3.827274;-0.1793518;0.4725177;4.518829;0.06561912;0.2072732;4.83359;0.1385508;-0.1307978;4.673322;0.15126;-0.9022996;5.185958;0.1690845;-1.018323;6.113294;0.01292796;0.7275063;4.844327;0.138551;1.019526;4.697062;0.1512604;1.748549;5.239803;-0.1684788;1.847065;6.1106;-0.5287469;0.1634064;2.771263;-0.02555513;0.153579;1.320266;-0.2136272;0;0;0;0.1634064;2.771263;-0.02555513;0.153579;1.320266;-0.2136272;0;0;0
1153776.9474;NotLabelled;NONE;16384;0.6952164;0.03185596;-0.466759;0.5457063;2;0;0;2918;-2304;1531;65536;-0.3628809;-0.2479224;0.6784922;-0.5886427;-4;0;-4;-428;-3987;-618;8192;-0.04293629;0.3961219;-0.8458863;0.3545706;4;0;-1;-2866;-2293;1665;32768;-0.2534626;-0.2271468;0.791952;-0.5069252;-4;3;-1;327;-3731;-1332;256;0.5387812;-0.7662359;0.2105263;0.2797784;-2;1;0;-77;3872;-1335;128;0.6426592;-0.6992609;0.1759003;0.2590028;-4;0;0;-423;4091;466;4;0.6163435;-0.6497705;-0.3545706;-0.2686981;0;3;0;476;4024;76;16;-0.1121884;0.1052632;0.6260388;0.7644664;0;-1;0;209;4137;756;2;-0.1939058;0.2922437;-0.6578947;-0.6664598;-1;2;0;-554;4038;-222;8;-0.06925207;0.1385041;0.6440443;0.7491513;0;0;0;-341;4171;707;0.4678358;2.813817;-0.02407908;0.4737583;3.353542;-0.1033521;0.478961;3.827665;-0.1750342;0.4635146;4.519192;0.06994526;0.1977346;4.833499;0.1428811;-0.1400631;4.672656;0.1555885;-0.9115223;5.185292;0.1751793;-1.027921;6.112628;0.0193027;0.7179488;4.845121;0.1428811;1.010219;4.698355;0.1555886;1.738508;5.241095;-0.1658198;1.836156;6.111892;-0.5263247;0.1555743;2.771108;-0.02504068;0.1504402;1.320365;-0.2152431;0;0;0;0.1555743;2.771108;-0.02504068;0.1504402;1.320365;-0.2152431;0;0;0
1153796.9585;NotLabelled;NONE;16384;0.6952164;0.03185596;-0.466759;0.5457063;2;0;1;2980;-2294;1625;65536;-0.3628809;-0.2479224;0.6784922;-0.5886427;-4;-1;-3;-452;-3971;-592;8192;-0.04293629;0.3961219;-0.8458863;0.3545706;5;0;0;-2800;-2299;1645;32768;-0.2548476;-0.2271468;0.7915074;-0.5069252;-5;2;0;503;-3643;-1326;256;0.5387812;-0.7662359;0.2105263;0.2797784;-4;1;0;-127;3826;-1389;128;0.6426592;-0.6992609;0.1759003;0.2590028;-3;0;0;-411;4027;494;4;0.6177285;-0.6484539;-0.3545706;-0.2686981;-1;2;0;542;4000;160;16;-0.1121884;0.1052632;0.6260388;0.7644664;0;0;0;183;4163;782;2;-0.1939058;0.2922437;-0.6578947;-0.6664598;-4;4;-2;-622;3934;-236;8;-0.06925207;0.1385041;0.6440443;0.7491513;-1;0;0;-305;4169;689;0.4678367;2.813816;-0.02402683;0.4737601;3.35362;-0.1027572;0.4789636;3.827815;-0.1739626;0.46432;4.520133;0.06882288;0.1989077;4.834984;0.1407434;-0.1390814;4.674582;0.1539367;-0.9105394;5.187219;0.1735718;-1.026933;6.114553;0.01769193;0.7191353;4.845991;0.1407433;1.011231;4.698918;0.1539368;1.739501;5.241659;-0.1675131;1.839286;6.111516;-0.5296978;0.1555751;2.771109;-0.02503472;0.1504467;1.320366;-0.215238;0;0;0;0.1555751;2.771109;-0.02503472;0.1504467;1.320366;-0.215238;0;0;0
1153817.9365;NotLabelled;NONE;16384;0.6942845;0.03185596;-0.468144;0.5457063;2;0;2;2938;-2228;1671;65536;-0.3614958;-0.2479224;0.6792312;-0.5886427;-4;-1;-2;-380;-3989;-696;8192;-0.04293629;0.3961219;-0.8464655;0.3531856;5;-2;2;-2856;-2275;1723;32768;-0.2548476;-0.2271468;0.7923927;-0.5055401;-7;0;1;383;-3671;-1336;256;0.5387812;-0.7662359;0.2105263;0.2797784;-2;2;0;-25;3770;-1301;128;0.6426592;-0.6992609;0.1759003;0.2590028;-2;0;0;-379;4081;500;4;0.6177285;-0.6476946;-0.3559557;-0.2686981;0;0;1;476;3948;12;16;-0.1121884;0.1052632;0.6260388;0.7644664;0;0;0;195;4151;834;2;-0.1952908;0.2936288;-0.6592798;-0.6640736;-7;2;-3;-454;3978;-226;8;-0.06925207;0.1385041;0.6426592;0.7503398;-1;1;0;-355;4195;705;0.4729833;2.81407;-0.02618184;0.4789067;3.353873;-0.1049122;0.4841101;3.828068;-0.1761177;0.4694666;4.520386;0.06666789;0.2040543;4.835238;0.1385884;-0.1339348;4.674836;0.1517816;-0.9053923;5.187472;0.1714419;-1.021786;6.114807;0.01556188;0.7242818;4.846244;0.1385883;1.016377;4.699172;0.1517817;1.744638;5.241913;-0.1696921;1.842141;6.111938;-0.5320911;0.1607217;2.771362;-0.02718972;0.1504468;1.320366;-0.215238;0;0;0;0.1607217;2.771362;-0.02718972;0.1504468;1.320366;-0.215238;0;0;0
1153838.0843;NotLabelled;NONE;16384;0.6953709;0.03185596;-0.468144;0.5443213;2;0;1;2990;-2264;1629;65536;-0.3614958;-0.2479224;0.680429;-0.5872576;-5;0;-1;-520;-3941;-634;8192;-0.04293629;0.3947368;-0.8471123;0.3531856;4;-5;3;-2780;-2349;1771;32768;-0.2562327;-0.2271468;0.7919459;-0.5055401;-8;-3;2;241;-3819;-1516;256;0.5401662;-0.7652602;0.2105263;0.2797784;-1;0;0;-103;3880;-1329;128;0.6412742;-0.7000176;0.1759003;0.2603878;-1;0;0;-397;4151;480;4;0.6177285;-0.6476946;-0.3559557;-0.2686981;0;1;0;422;3960;32;16;-0.1121884;0.1038781;0.6260388;0.7646558;0;0;0;181;4133;802;2;-0.1952908;0.2936288;-0.6592798;-0.6640736;-4;2;-2;-396;4028;-228;8;-0.06925207;0.1385041;0.6426592;0.7503398;0;1;0;-297;4145;705;0.4753242;2.813787;-0.0241487;0.4812476;3.35359;-0.102879;0.4864511;3.827785;-0.1740845;0.4718075;4.520103;0.06870104;0.2063952;4.834954;0.1406215;-0.1315938;4.674552;0.1538148;-0.9022142;5.188534;0.1710233;-1.016399;6.116044;0.01454359;0.7266229;4.845961;0.1406215;1.018718;4.698888;0.1538148;1.747448;5.239758;-0.169742;1.845921;6.108555;-0.5348192;0.1630626;2.771079;-0.02515657;0.1504468;1.320366;-0.2152381;0;0;0;0.1630626;2.771079;-0.02515657;0.1504468;1.320366;-0.2152381;0;0;0
1153859.1029;NotLabelled;NONE;16384;0.6953709;0.03185596;-0.468144;0.5443213;2;3;-1;2866;-2328;1581;65536;-0.3614958;-0.2479224;0.681622;-0.5858725;-7;2;-10;-536;-3995;-694;8192;-0.04293629;0.3947368;-0.8476884;0.3518005;3;-4;1;-2878;-2297;1771;32768;-0.2562327;-0.2257618;0.7932239;-0.5041551;-8;-3;-1;121;-3765;-1658;256;0.5387812;-0.7662359;0.2105263;0.2797784;0;0;1;-167;3876;-1427;128;0.6412742;-0.7000176;0.1759003;0.2603878;-1;1;0;-357;4083;518;4;0.6177285;-0.6471183;-0.3559557;-0.2700831;0;0;0;482;4010;76;16;-0.1121884;0.1038781;0.6260388;0.7646558;0;0;0;191;4165;826;2;-0.1952908;0.2936288;-0.6592798;-0.6640736;-3;1;-1;-480;4062;-156;8;-0.06925207;0.1385041;0.6426592;0.7503398;0;1;0;-305;4223;683;0.4779483;2.813683;-0.02273297;0.4838748;3.353767;-0.09951831;0.4890811;3.828215;-0.1690152;0.4752432;4.521317;0.07157064;0.2102;4.836709;0.1424734;-0.1279799;4.676752;0.1561528;-0.8993756;5.189595;0.172583;-1.012643;6.116655;0.012805;0.7304403;4.8471;0.1424736;1.02236;4.699724;0.1561534;1.750471;5.241142;-0.1678783;1.846668;6.110107;-0.5331624;0.1656868;2.77098;-0.02390712;0.1530763;1.320266;-0.2139884;0;0;0;0.1656868;2.77098;-0.02390712;0.1530763;1.320266;-0.2139884;0;0;0
1153879.9416;NotLabelled;NONE;16384;0.6955819;0.03047091;-0.4695291;0.5429363;3;2;-1;3086;-2242;1655;65536;-0.3614958;-0.2493075;0.6823056;-0.5844875;-6;2;-9;-424;-4067;-768;8192;-0.04293629;0.3947368;-0.8482619;0.3504155;6;0;1;-2780;-2401;1643;32768;-0.2562327;-0.2257618;0.7941025;-0.5027701;-2;5;0;521;-3689;-1536;256;0.5401662;-0.7652602;0.2105263;0.2797784;-5;0;1;-73;3872;-1375;128;0.6412742;-0.7008776;0.1745152;0.2590028;0;1;0;-375;4117;476;4;0.6177285;-0.6484539;-0.3545706;-0.2686981;-1;-2;0;468;4048;52;16;-0.1121884;0.1038781;0.6260388;0.7646558;0;-1;0;215;4125;846;2;-0.1952908;0.2950138;-0.6606648;-0.6620803;-4;3;-1;-600;4030;-182;8;-0.06925207;0.1385041;0.6426592;0.7503398;-1;1;0;-309;4145;731;0.4777415;2.814084;-0.02580935;0.483668;3.354168;-0.1025947;0.4888741;3.828616;-0.1720916;0.4742306;4.520934;0.07069349;0.2088184;4.835785;0.1426138;-0.1291706;4.675385;0.155807;-0.9005638;5.188227;0.1723447;-1.012924;6.114824;0.009282485;0.7290457;4.846792;0.1426138;1.021141;4.69972;0.1558073;1.749674;5.23926;-0.1704016;1.845681;6.106695;-0.5393542;0.1654801;2.771381;-0.02698339;0.1530702;1.320267;-0.2139928;0;0;0;0.1654801;2.771381;-0.02698339;0.1530702;1.320267;-0.2139928;0;0;0
1153901.1033;NotLabelled;NONE;16384;0.6955819;0.03047091;-0.4695291;0.5429363;3;2;1;3106;-2202;1663;65536;-0.3614958;-0.2493075;0.6823056;-0.5844875;-4;-1;-4;-370;-4059;-760;8192;-0.04293629;0.3947368;-0.8482619;0.3504155;7;0;4;-2832;-2351;1753;32768;-0.2562327;-0.2271468;0.7937074;-0.5027701;-1;4;2;463;-3789;-1456;256;0.5415512;-0.7642807;0.2105263;0.2797784;-5;-1;0;-49;3906;-1373;128;0.6412742;-0.7008776;0.1745152;0.2590028;0;0;0;-437;4093;548;4;0.6177285;-0.6484539;-0.3545706;-0.2686981;-1;-3;0;522;3966;58;16;-0.1121884;0.1052632;0.6260388;0.7644664;0;1;0;195;4159;820;2;-0.1966759;0.2950138;-0.6630502;-0.6592798;-7;4;-3;-542;3894;-290;8;-0.06925207;0.1385041;0.6426592;0.7503398;0;1;-1;-361;4149;733;0.4756074;2.813966;-0.02471972;0.4815347;3.354124;-0.1009758;0.4867417;3.82864;-0.1700077;0.4729038;4.521741;0.07057837;0.2078606;4.837135;0.1414812;-0.1303192;4.677177;0.1551606;-0.9028369;5.188437;0.1677227;-1.012866;6.114952;0.002610967;0.7281008;4.847524;0.1414815;1.020021;4.700149;0.1551613;1.749025;5.237806;-0.1730958;1.846005;6.103996;-0.5447088;0.163346;2.771263;-0.02593914;0.1530764;1.320266;-0.2139877;0;0;0;0.163346;2.771263;-0.02593914;0.1530764;1.320266;-0.2139877;0;0;0
1153921.9721;NotLabelled;NONE;16384;0.6955819;0.03047091;-0.4695291;0.5429363;2;1;1;3056;-2262;1713;65536;-0.3601108;-0.2493075;0.6830376;-0.5844875;-4;-2;-4;-604;-3997;-784;8192;-0.04293629;0.3947368;-0.8488327;0.3490305;8;0;3;-2838;-2355;1829;32768;-0.2576177;-0.2271468;0.7932589;-0.5027701;-1;3;1;291;-3933;-1608;256;0.5415512;-0.7642807;0.2105263;0.2797784;-4;0;0;-123;3874;-1339;128;0.6412742;-0.7008776;0.1745152;0.2590028;0;0;0;-367;4165;506;4;0.6177285;-0.6484539;-0.3545706;-0.2686981;0;0;0;522;3950;86;16;-0.1121884;0.1052632;0.6260388;0.7644664;0;0;0;147;4121;840;2;-0.1966759;0.2950138;-0.6644245;-0.6578947;-7;-2;-4;-376;3908;-266;8;-0.06786703;0.1385041;0.6426592;0.7504663;0;1;0;-341;4165;655;0.4729843;2.814065;-0.02596166;0.4789116;3.354223;-0.1022177;0.4841185;3.828739;-0.1712497;0.4710896;4.522618;0.06713161;0.206417;4.838549;0.1370149;-0.1319533;4.679037;0.1511813;-0.9044715;5.190297;0.1637233;-1.014495;6.116811;-0.001391709;0.7266691;4.84832;0.1370151;1.018413;4.700642;0.1511818;1.747425;5.238299;-0.177056;1.845557;6.104785;-0.5476753;0.160723;2.771362;-0.0271809;0.1504584;1.320366;-0.2152296;0;0;0;0.160723;2.771362;-0.0271809;0.1504584;1.320366;-0.2152296;0;0;0
1153942.9409;NotLabelled;NONE;16384;0.694645;0.03047091;-0.4709141;0.5429363;1;3;0;2950;-2274;1713;65536;-0.3614958;-0.2493075;0.6834896;-0.5831025;-5;2;-5;-672;-3979;-786;8192;-0.04293629;0.3961219;-0.848756;0.3476454;6;3;0;-2956;-2223;1839;32768;-0.2590028;-0.2271468;0.7936844;-0.501385;-2;4;-1;335;-3843;-1556;256;0.5415512;-0.7642807;0.2105263;0.2797784;-1;0;2;-165;3858;-1373;128;0.6412742;-0.7008776;0.1745152;0.2590028;0;0;-1;-355;4133;538;4;0.6177285;-0.6484539;-0.3545706;-0.2686981;-1;-2;0;482;3988;52;16;-0.1121884;0.1052632;0.6260388;0.7644664;0;-2;0;185;4141;814;2;-0.1952908;0.2950138;-0.6648329;-0.6578947;-4;-5;-3;-404;4018;-146;8;-0.06925207;0.1385041;0.6426592;0.7503398;0;0;0;-321;4201;683;0.4729843;2.814065;-0.02596166;0.4789116;3.354223;-0.1022177;0.4841185;3.828739;-0.1712497;0.4710896;4.522618;0.06713161;0.206417;4.838549;0.1370149;-0.1319533;4.679037;0.1511813;-0.9044715;5.190297;0.1637233;-1.012278;6.116969;-0.001974449;0.7266691;4.84832;0.1370151;1.018413;4.700642;0.1511818;1.747883;5.236413;-0.1791199;1.843722;6.103067;-0.5499437;0.160723;2.771362;-0.0271809;0.1504584;1.320366;-0.2152296;0;0;0;0.160723;2.771362;-0.0271809;0.1504584;1.320366;-0.2152296;0;0;0
1153963.9443;NotLabelled;NONE;16384;0.6957253;0.03047091;-0.4709141;0.5415512;0;0;0;2978;-2210;1655;65536;-0.3614958;-0.2493075;0.6846688;-0.5817174;-3;0;-5;-378;-4009;-790;8192;-0.04155125;0.3961219;-0.8493908;0.3462604;7;2;0;-2904;-2351;1787;32768;-0.2590028;-0.2299169;0.7928864;-0.501385;-3;7;-2;457;-3773;-1434;256;0.5415512;-0.7642807;0.2105263;0.2797784;-2;0;2;-115;3880;-1317;128;0.6412742;-0.7008776;0.1745152;0.2590028;1;1;0;-337;4065;490;4;0.6177285;-0.6484539;-0.3545706;-0.2686981;0;-2;0;502;3972;78;16;-0.1121884;0.1052632;0.6260388;0.7644664;0;-2;0;177;4113;804;2;-0.1952908;0.2950138;-0.6662007;-0.6565097;-5;-2;-3;-568;4078;6;8;-0.06925207;0.1385041;0.6426592;0.7503398;0;0;0;-327;4177;713;0.4729843;2.814065;-0.02596166;0.4789116;3.354223;-0.1022177;0.4841185;3.828739;-0.1712497;0.4710896;4.522618;0.06713161;0.206417;4.838549;0.1370149;-0.1319533;4.679037;0.1511813;-0.9036185;5.191638;0.1612658;-1.012739;6.11767;-0.007123008;0.7266691;4.84832;0.1370151;1.018413;4.700642;0.1511818;1.748988;5.233979;-0.1806113;1.843487;6.099552;-0.5542948;0.160723;2.771362;-0.0271809;0.1504584;1.320366;-0.2152296;0;0;0;0.160723;2.771362;-0.0271809;0.1504584;1.320366;-0.2152296;0;0;0
1153984.9416;NotLabelled;NONE;16384;0.6957253;0.03047091;-0.4709141;0.5415512;0;0;1;3070;-2222;1663;65536;-0.3614958;-0.2506925;0.6853381;-0.5803324;-2;0;-4;-242;-3981;-814;8192;-0.0401662;0.3975069;-0.8493738;0.3448753;7;-1;0;-2882;-2315;1883;32768;-0.2590028;-0.2299169;0.7937605;-0.5;-5;3;0;483;-3709;-1452;256;0.5429363;-0.7632974;0.2105263;0.2797784;-7;0;1;-45;3864;-1407;128;0.6426592;-0.6996078;0.1745152;0.2590028;1;1;0;-395;4053;528;4;0.6177285;-0.6490261;-0.3545706;-0.267313;0;0;0;592;4020;104;16;-0.1121884;0.1052632;0.6260388;0.7644664;0;0;0;127;4145;814;2;-0.1952908;0.2950138;-0.6662007;-0.6565097;-5;1;-2;-574;4092;-72;8;-0.06925207;0.1398892;0.6426592;0.7500829;0;1;0;-255;4177;767;0.4729843;2.814065;-0.02596166;0.4789116;3.354223;-0.1022177;0.4841185;3.828739;-0.1712497;0.4710896;4.522618;0.06713161;0.206417;4.838549;0.1370149;-0.1319533;4.679037;0.1511813;-0.9043889;5.190489;0.1605977;-1.012609;6.116026;-0.01105833;0.7266691;4.84832;0.1370151;1.018413;4.700642;0.1511818;1.74787;5.233188;-0.1843212;1.844651;6.099363;-0.5560218;0.160723;2.771362;-0.0271809;0.1504584;1.320366;-0.2152296;0;0;0;0.160723;2.771362;-0.0271809;0.1504584;1.320366;-0.2152296;0;0;0
1154006.0688;NotLabelled;NONE;16384;0.6957253;0.03047091;-0.4709141;0.5415512;0;1;3;3092;-2230;1681;65536;-0.3601108;-0.2506925;0.6860669;-0.5803324;-1;0;-2;-478;-3955;-764;8192;-0.0401662;0.3961219;-0.8500206;0.3448753;7;-2;1;-2850;-2301;1829;32768;-0.2590028;-0.2299169;0.7937605;-0.5;-6;2;0;509;-3759;-1594;256;0.5443213;-0.7623103;0.2105263;0.2797784;-3;0;1;-119;3830;-1177;128;0.6426592;-0.6996078;0.1745152;0.2590028;0;0;0;-389;4057;508;4;0.6177285;-0.6490261;-0.3545706;-0.267313;0;0;0;562;4002;112;16;-0.1121884;0.1052632;0.6260388;0.7644664;0;1;0;183;4155;740;2;-0.1952908;0.2950138;-0.6675627;-0.6551247;-4;1;-2;-592;3982;-206;8;-0.06925207;0.1385041;0.6426592;0.7503398;0;0;0;-289;4187;691;0.4732068;2.813666;-0.02305245;0.479131;3.353549;-0.1012433;0.4843352;3.827814;-0.1719748;0.4721182;4.522463;0.06419663;0.2078176;4.838929;0.1330588;-0.1307432;4.679866;0.1477123;-0.9031782;5.191318;0.1571892;-1.009084;6.116742;-0.01650319;0.728081;4.848082;0.1330588;1.019648;4.700103;0.1477126;1.748599;5.23132;-0.1909843;1.846334;6.096241;-0.565344;0.1609452;2.77096;-0.02410659;0.1504638;1.320366;-0.2152259;0;0;0;0.1609452;2.77096;-0.02410659;0.1504638;1.320366;-0.2152259;0;0;0
1154026.1689;NotLabelled;NONE;16384;0.6957253;0.03047091;-0.4709141;0.5415512;0;1;2;2962;-2284;1683;65536;-0.3601108;-0.2506925;0.6860669;-0.5803324;-2;1;-2;-520;-3967;-784;8192;-0.0401662;0.3961219;-0.8505813;0.3434903;6;-1;0;-2786;-2249;1791;32768;-0.2590028;-0.2299169;0.7946313;-0.4986149;-7;2;0;435;-3777;-1626;256;0.5443213;-0.7623103;0.2105263;0.2797784;-3;1;2;-123;3926;-1323;128;0.6426592;-0.6990935;0.1745152;0.2603878;0;-3;-2;-349;4037;502;4;0.6177285;-0.6490261;-0.3545706;-0.267313;0;-1;0;494;3934;34;16;-0.1121884;0.1052632;0.6260388;0.7644664;0;0;0;191;4169;868;2;-0.1952908;0.2963989;-0.6669489;-0.6551247;-1;0;-1;-414;3994;-148;8;-0.06925207;0.1398892;0.6426592;0.7500829;0;0;0;-357;4157;717;0.4732074;2.813666;-0.02304883;0.4791316;3.353549;-0.1012397;0.4843358;3.827814;-0.1719712;0.4729338;4.523226;0.06198513;0.2090067;4.840225;0.1298236;-0.1297439;4.681612;0.144965;-0.9021803;5.193063;0.1543264;-1.005857;6.118632;-0.01994446;0.7292805;4.848758;0.1298237;1.02067;4.700479;0.1449652;1.749021;5.232227;-0.1941872;1.846765;6.097149;-0.5685445;0.160946;2.770959;-0.02410299;0.1504689;1.320366;-0.2152224;0;0;0;0.160946;2.770959;-0.02410299;0.1504689;1.320366;-0.2152224;0;0;0
1154046.941;NotLabelled;NONE;16384;0.6957253;0.03047091;-0.4709141;0.5415512;0;1;0;2902;-2248;1723;65536;-0.3614958;-0.2506925;0.6853381;-0.5803324;-2;2;-2;-422;-3987;-776;8192;-0.03878116;0.3961219;-0.8512036;0.3421052;6;2;-2;-2860;-2187;1775;32768;-0.2603878;-0.2299169;0.7950464;-0.4972299;-6;5;-1;417;-3699;-1668;256;0.5457063;-0.7613195;0.2105263;0.2797784;-2;2;2;-179;3866;-1359;128;0.6426592;-0.6987463;0.1759003;0.2603878;1;-2;-2;-347;4047;556;4;0.6177285;-0.6490261;-0.3545706;-0.267313;0;0;0;526;3980;104;16;-0.1121884;0.1052632;0.6260388;0.7644664;1;-1;0;131;4099;806;2;-0.1966759;0.2963989;-0.6679003;-0.6537396;-2;0;0;-540;3996;-114;8;-0.06925207;0.1398892;0.6426592;0.7500829;0;2;0;-361;4157;719;0.4732073;2.813666;-0.0230471;0.4791315;3.353549;-0.1012271;0.4843358;3.827817;-0.1719492;0.4729338;4.523228;0.06200735;0.2090066;4.840227;0.129846;-0.1297441;4.681614;0.1449873;-0.9021806;5.193066;0.1543676;-1.005857;6.118636;-0.01990315;0.7292806;4.84876;0.1298461;1.020671;4.700481;0.1449875;1.749446;5.230325;-0.1962284;1.848129;6.093985;-0.5732402;0.1609458;2.770959;-0.02410211;0.1504688;1.320365;-0.2152221;0;0;0;0.1609458;2.770959;-0.02410211;0.1504688;1.320365;-0.2152221;0;0;0
1154067.9478;NotLabelled;NONE;16384;0.6958631;0.03047091;-0.4722992;0.5401662;0;-1;3;2922;-2206;1645;65536;-0.3601108;-0.2506925;0.6872361;-0.5789474;-1;0;-1;-272;-3959;-760;8192;-0.03739612;0.3961219;-0.8518208;0.3407202;6;0;0;-2776;-2251;1795;32768;-0.2603878;-0.2313019;0.7955096;-0.4958449;-5;1;0;453;-3625;-1744;256;0.5457063;-0.761827;0.2105263;0.2783934;-3;1;3;-81;3810;-1269;128;0.6426592;-0.6982286;0.1759003;0.2617728;0;-1;-1;-445;4041;508;4;0.6177285;-0.6490261;-0.3545706;-0.267313;0;-1;0;494;4024;144;16;-0.1121884;0.1052632;0.6260388;0.7644664;0;-1;0;123;4117;826;2;-0.1966759;0.2963989;-0.6679003;-0.6537396;-1;0;0;-638;4004;-76;8;-0.06786703;0.1385041;0.6426592;0.7504663;0;1;0;-345;4203;687;0.4732077;2.813667;-0.02309055;0.4791311;3.353472;-0.1018104;0.4843345;3.827669;-0.1730067;0.4737504;4.523836;0.05872931;0.2101982;4.841364;0.1255424;-0.1287421;4.683205;0.141172;-0.9011784;5.194655;0.1505559;-1.007076;6.120081;-0.02314115;0.7304819;4.849277;0.1255425;1.021694;4.7007;0.1411722;1.749318;5.229734;-0.203736;1.846646;6.092304;-0.5835877;0.1609462;2.770959;-0.02409949;0.1504734;1.320366;-0.2152193;0;0;0;0.1609462;2.770959;-0.02409949;0.1504734;1.320366;-0.2152193;0;0;0
1154089.1387;NotLabelled;NONE;16384;0.6958631;0.03047091;-0.4722992;0.5401662;0;-1;1;2956;-2236;1681;65536;-0.3601108;-0.2506925;0.6872361;-0.5789474;-2;0;-1;-466;-3933;-746;8192;-0.03739612;0.3961219;-0.8518208;0.3407202;5;-1;0;-2828;-2201;1923;32768;-0.2617728;-0.2313019;0.795917;-0.4944598;-4;1;0;399;-3585;-1772;256;0.5457063;-0.7613195;0.2105263;0.2797784;0;0;2;-157;3858;-1241;128;0.6412742;-0.698981;0.1759003;0.2631579;0;-4;-2;-409;4089;574;4;0.6177285;-0.6490261;-0.3545706;-0.267313;0;-1;0;518;3972;92;16;-0.1121884;0.1052632;0.6260388;0.7644664;0;0;0;213;4173;830;2;-0.1966759;0.2963989;-0.6679003;-0.6537396;-2;-1;0;-740;4000;-100;8;-0.06786703;0.1385041;0.6426592;0.7504663;1;0;0;-305;4201;657;0.4731495;2.813667;-0.02347522;0.479073;3.353473;-0.102184;0.4842764;3.827672;-0.1733705;0.4724911;4.523818;0.05837173;0.2083914;4.84089;0.1251878;-0.1302754;4.682146;0.1408161;-0.9026049;5.193781;0.1489002;-1.005806;6.118831;-0.02837816;0.7286608;4.849701;0.1251878;1.020129;4.701626;0.1408161;1.745764;5.229844;-0.2094903;1.844242;6.091446;-0.5912389;0.160888;2.770959;-0.02448509;0.1499578;1.320366;-0.215579;0;0;0;0.160888;2.770959;-0.02448509;0.1499578;1.320366;-0.215579;0;0;0
1154110.0138;NotLabelled;NONE;16384;0.6958011;0.03185596;-0.4722992;0.5401662;0;1;1;2894;-2324;1709;65536;-0.3601108;-0.2506925;0.6872361;-0.5789474;-3;2;-2;-584;-3957;-726;8192;-0.03739612;0.3961219;-0.8523735;0.3393352;4;-1;0;-2732;-2187;1901;32768;-0.2617728;-0.2299169;0.7963182;-0.4944598;-3;2;0;257;-3589;-1834;256;0.5457063;-0.7617011;0.2091413;0.2797784;0;0;3;-81;3854;-1325;128;0.6412742;-0.698981;0.1759003;0.2631579;0;-7;-3;-449;4033;488;4;0.6191136;-0.647705;-0.3545706;-0.267313;0;-1;-1;584;3942;52;16;-0.1121884;0.1052632;0.6260388;0.7644664;1;-1;0;215;4141;798;2;-0.1966759;0.2963989;-0.6692532;-0.6523545;-1;0;0;-640;3980;-126;8;-0.06786703;0.1385041;0.6426592;0.7504663;0;0;0;-301;4205;719;0.4732078;2.813663;-0.02292342;0.4791343;3.35375;-0.09968638;0.4843406;3.828202;-0.1691636;0.4737565;4.524368;0.06257244;0.2102043;4.841896;0.1293856;-0.1287359;4.683737;0.1450151;-0.901083;5.195372;0.1511771;-1.003859;6.120423;-0.02634788;0.730488;4.849809;0.1293856;1.0217;4.701232;0.1450153;1.748205;5.22945;-0.2034836;1.846215;6.089952;-0.5878233;0.1609463;2.770959;-0.02409952;0.1504734;1.320366;-0.2152193;0;0;0;0.1609463;2.770959;-0.02409952;0.1504734;1.320366;-0.2152193;0;0;0
1154130.9458;NotLabelled;NONE;16384;0.6958011;0.03185596;-0.4722992;0.5401662;0;4;0;2874;-2242;1657;65536;-0.3614958;-0.2506925;0.6865085;-0.5789474;-5;4;-3;-516;-3933;-798;8192;-0.03739612;0.3961219;-0.8523735;0.3393352;4;3;-1;-2776;-2177;1823;32768;-0.2617728;-0.2313019;0.7967758;-0.4930748;-2;3;-1;357;-3605;-1794;256;0.5457063;-0.7617011;0.2091413;0.2797784;0;0;4;-141;3854;-1245;128;0.6412742;-0.698458;0.1759003;0.2645429;2;-9;-3;-367;4029;446;4;0.6191136;-0.6471317;-0.3545706;-0.2686981;0;0;-2;570;3996;62;16;-0.1135734;0.1052632;0.6260388;0.7642618;1;0;0;177;4129;786;2;-0.1966759;0.2963989;-0.6692532;-0.6523545;-2;0;1;-596;3898;-140;8;-0.06786703;0.1385041;0.6426592;0.7504663;0;0;0;-317;4159;687;0.4783145;2.8139;-0.02537672;0.4842409;3.353987;-0.1021397;0.4894472;3.828439;-0.171617;0.480224;4.524343;0.06096567;0.2172922;4.842302;0.1281696;-0.1219554;4.684785;0.1436132;-0.8930817;5.198203;0.1533602;-0.9961669;6.123254;-0.02398546;0.7375904;4.849201;0.1281697;1.028513;4.700038;0.1436135;1.754173;5.226336;-0.2095173;1.850382;6.086528;-0.5950069;0.166053;2.771197;-0.02655285;0.1500981;1.320366;-0.2154811;0;0;0;0.166053;2.771197;-0.02655285;0.1500981;1.320366;-0.2154811;0;0;0
1154151.945;NotLabelled;NONE;16384;0.6968095;0.033241;-0.4722992;0.5387812;0;0;1;2836;-2276;1697;65536;-0.3614958;-0.2520775;0.6871676;-0.5775623;-3;0;-3;-312;-3923;-858;8192;-0.03601108;0.3961219;-0.8524331;0.3393352;5;4;0;-2732;-2193;1883;32768;-0.2631579;-0.2313019;0.7963194;-0.4930748;-2;3;-1;373;-3669;-1764;256;0.5470914;-0.7607069;0.2091413;0.2797784;0;0;3;7;3852;-1183;128;0.6412742;-0.6975813;0.1772853;0.265928;1;-10;-3;-411;4041;540;4;0.6191136;-0.6471317;-0.3545706;-0.2686981;0;0;-2;490;3950;100;16;-0.1135734;0.1052632;0.6260388;0.7642618;1;0;0;213;4167;794;2;-0.1966759;0.2963989;-0.6692532;-0.6523545;-1;0;1;-618;3980;-192;8;-0.06786703;0.1385041;0.6426592;0.7504663;0;1;0;-313;4213;661;0.4799013;2.814346;-0.02687685;0.4858278;3.354434;-0.1036283;0.4910341;3.828887;-0.1730953;0.4818109;4.524792;0.05948699;0.2188792;4.842751;0.126691;-0.1203685;4.685235;0.1421344;-0.8915104;5.198652;0.1505375;-0.9968226;6.123562;-0.02623057;0.7391775;4.849651;0.1266911;1.0301;4.700487;0.1421348;1.756375;5.226786;-0.2097309;1.854631;6.086001;-0.5968771;0.1676398;2.771642;-0.02805395;0.151907;1.320413;-0.2139157;0;0;0;0.1676398;2.771642;-0.02805395;0.151907;1.320413;-0.2139157;0;0;0
1154171.9397;NotLabelled;NONE;16384;0.6968095;0.033241;-0.4722992;0.5387812;0;0;1;2890;-2306;1717;65536;-0.3614958;-0.2520775;0.6883295;-0.5761772;-1;0;-3;-440;-3969;-872;8192;-0.03601108;0.3975069;-0.8528865;0.3365651;4;0;2;-2828;-2149;1925;32768;-0.2631579;-0.2313019;0.7971753;-0.4916897;-2;0;0;469;-3655;-1776;256;0.5470914;-0.7607069;0.2091413;0.2797784;1;-1;2;57;3886;-1255;128;0.6412742;-0.6970517;0.1772853;0.267313;0;-9;-2;-475;4081;534;4;0.6191136;-0.6478886;-0.3531856;-0.2686981;0;0;-3;542;3960;70;16;-0.1135734;0.1052632;0.6260388;0.7642618;0;-1;0;181;4115;814;2;-0.1966759;0.2963989;-0.6692532;-0.6523545;0;0;2;-668;3934;-200;8;-0.06786703;0.1385041;0.6426592;0.7504663;0;0;0;-251;4203;677;0.4799018;2.814348;-0.02691817;0.4858275;3.35436;-0.1042029;0.491033;3.828744;-0.1741385;0.4826297;4.525398;0.05621924;0.2200743;4.843884;0.1223959;-0.1193614;4.686821;0.138328;-0.8900792;5.200873;0.1468849;-0.9930943;6.125652;-0.03191373;0.7403804;4.850163;0.122396;1.031124;4.700704;0.1383286;1.755805;5.2281;-0.2151765;1.851757;6.087496;-0.602499;0.1676403;2.771643;-0.02804967;0.1519107;1.320414;-0.2139125;0;0;0;0.1676403;2.771643;-0.02804967;0.1519107;1.320414;-0.2139125;0;0;0
1154192.0844;NotLabelled;NONE;16384;0.6968095;0.033241;-0.4722992;0.5387812;0;0;0;2844;-2328;1707;65536;-0.3614958;-0.2520775;0.6883295;-0.5761772;-1;0;-4;-476;-3955;-856;8192;-0.03601108;0.3975069;-0.8528865;0.3365651;3;2;1;-2752;-2139;1963;32768;-0.2631579;-0.2313019;0.7980279;-0.4903047;-2;0;0;387;-3707;-1784;256;0.5457063;-0.761191;0.2091413;0.2811634;4;-1;3;-103;3856;-1307;128;0.6398892;-0.6974382;0.1786704;0.2686981;-1;-5;-2;-437;4073;516;4;0.6191136;-0.6478886;-0.3531856;-0.2686981;0;1;-3;586;3984;110;16;-0.1135734;0.1052632;0.6260388;0.7642618;0;0;0;143;4129;782;2;-0.1966759;0.2963989;-0.6692532;-0.6523545;0;0;2;-768;3938;-120;8;-0.06925207;0.1385041;0.6426592;0.7503398;-1;0;0;-289;4163;673;0.4775549;2.81463;-0.02894904;0.4834807;3.354644;-0.1062222;0.4886862;3.829029;-0.1761476;0.4802829;4.525683;0.05421016;0.2177275;4.844169;0.1203869;-0.1217082;4.687106;0.1363189;-0.8924262;5.201158;0.1448582;-0.9945611;6.125402;-0.03718381;0.7380337;4.850448;0.1203869;1.028777;4.700988;0.1363195;1.754911;5.224023;-0.220668;1.851773;6.082127;-0.6106207;0.1652934;2.771925;-0.03008156;0.1519108;1.320413;-0.2139123;0;0;0;0.1652934;2.771925;-0.03008156;0.1519108;1.320413;-0.2139123;0;0;0
1154212.9427;NotLabelled;NONE;16384;0.6968095;0.033241;-0.4722992;0.5387812;-1;0;0;2814;-2304;1767;65536;-0.3614958;-0.2520775;0.6883295;-0.5761772;-2;1;-5;-414;-3965;-892;8192;-0.03601108;0.3975069;-0.8534318;0.33518;3;4;1;-2852;-2177;1905;32768;-0.2645429;-0.232687;0.7971669;-0.4903047;0;3;-2;421;-3661;-1814;256;0.5457063;-0.7610574;0.2077562;0.2825485;3;-1;3;-21;3900;-1289;128;0.6398892;-0.696903;0.1786704;0.2700831;-1;-4;-2;-433;4109;476;4;0.6191136;-0.6473125;-0.3531856;-0.2700831;0;0;-2;550;3986;114;16;-0.1135734;0.1052632;0.6260388;0.7642618;0;0;0;153;4091;696;2;-0.1966759;0.2963989;-0.6692532;-0.6523545;0;-3;0;-692;3952;-86;8;-0.06925207;0.1385041;0.6426592;0.7503398;-1;-2;-1;-295;4219;647;0.4776258;2.814626;-0.02843717;0.4835537;3.354838;-0.1043164;0.4887611;3.829402;-0.1730172;0.4807385;4.525323;0.05956034;0.2183559;4.843737;0.1267622;-0.1211629;4.686805;0.1422068;-0.8918988;5.200858;0.1488694;-0.9936011;6.125101;-0.03341509;0.7386651;4.849738;0.1267622;1.02933;4.700073;0.1422069;1.75633;5.223108;-0.2130109;1.855031;6.079911;-0.6053545;0.1653644;2.771925;-0.02968857;0.1524189;1.320413;-0.2135505;0;0;0;0.1653644;2.771925;-0.02968857;0.1524189;1.320413;-0.2135505;0;0;0
1154233.9569;NotLabelled;NONE;16384;0.6968095;0.033241;-0.4722992;0.5387812;-1;-1;0;2884;-2274;1743;65536;-0.3614958;-0.2520775;0.6894864;-0.5747922;-1;2;-4;-298;-3971;-942;8192;-0.03601108;0.398892;-0.8527853;0.33518;3;3;1;-2912;-2237;1879;32768;-0.2645429;-0.232687;0.7971669;-0.4903047;0;3;-1;527;-3675;-1810;256;0.5457063;-0.7610574;0.2077562;0.2825485;1;0;1;35;3902;-1243;128;0.6398892;-0.6963647;0.1786704;0.2714681;-2;-3;-2;-453;4079;554;4;0.6191136;-0.6478886;-0.3531856;-0.2686981;0;-1;-1;532;3920;40;16;-0.1135734;0.1052632;0.6260388;0.7642618;-1;-1;0;157;4167;722;2;-0.1966759;0.2963989;-0.6692532;-0.6523545;1;-4;1;-600;3992;-184;8;-0.06925207;0.1398892;0.6426592;0.7500829;-1;-1;-1;-339;4199;741;0.4774432;2.815014;-0.03139929;0.4833711;3.355228;-0.1072664;0.4885786;3.829793;-0.1759567;0.4831164;4.525458;0.05746032;0.2219065;4.844752;0.1250498;-0.1181869;4.689052;0.1403098;-0.8889272;5.203104;0.1465079;-0.9905083;6.127348;-0.03584354;0.7422345;4.848841;0.1250497;1.032347;4.69809;0.1403098;1.75996;5.219193;-0.2164886;1.857727;6.076498;-0.6079696;0.1651818;2.772313;-0.03265172;0.15256;1.320413;-0.21345;0;0;0;0.1651818;2.772313;-0.03265172;0.15256;1.320413;-0.21345;0;0;0
1154275.0033;NotLabelled;NONE;16384;0.6957363;0.033241;-0.4722992;0.5401662;-1;-2;1;2936;-2260;1673;65536;-0.3614958;-0.2534626;0.6889786;-0.5747922;2;-1;-2;-384;-3947;-864;8192;-0.03601108;0.398892;-0.8533284;0.333795;2;1;3;-2986;-2199;1947;32768;-0.2645429;-0.232687;0.7971669;-0.4903047;1;3;0;573;-3757;-1770;256;0.5457063;-0.7610574;0.2077562;0.2825485;1;0;1;-21;3904;-1309;128;0.6385041;-0.6976349;0.1786704;0.2714681;-3;-3;-2;-421;4099;502;4;0.6191136;-0.6478886;-0.3531856;-0.2686981;0;0;0;546;4000;80;16;-0.1135734;0.1052632;0.6260388;0.7642618;-1;1;0;121;4109;772;2;-0.1966759;0.2950138;-0.6698649;-0.6523545;1;-4;1;-518;4036;-188;8;-0.06925207;0.1398892;0.6426592;0.7500829;-2;-1;-1;-403;4131;731;0.4776455;2.814626;-0.02832584;0.4835734;3.354841;-0.1041806;0.4887809;3.829409;-0.1728599;0.4833187;4.525074;0.06055707;0.2221089;4.844368;0.1281464;-0.1179845;4.688666;0.1434066;-0.8887247;5.202719;0.1496044;-0.9894185;6.126416;-0.0359803;0.7424366;4.848456;0.1281464;1.032549;4.697705;0.1434066;1.760796;5.218302;-0.2128399;1.858563;6.075606;-0.604321;0.165384;2.771925;-0.02957936;0.15256;1.320413;-0.2134499;0;0;0;0.165384;2.771925;-0.02957936;0.15256;1.320413;-0.2134499;0;0;0
1154295.9399;NotLabelled;NONE;16384;0.6956688;0.03462604;-0.4722992;0.5401662;-2;0;0;2878;-2296;1727;65536;-0.3601108;-0.2534626;0.6897035;-0.5747922;1;0;-3;-396;-3965;-852;8192;-0.03601108;0.400277;-0.8526796;0.333795;1;3;2;-2910;-2115;1947;32768;-0.2645429;-0.234072;0.797612;-0.4889196;1;2;-2;365;-3773;-1860;256;0.5457063;-0.7610574;0.2077562;0.2825485;2;0;1;-73;3860;-1263;128;0.6385041;-0.6970943;0.1786704;0.2728532;-3;-4;-2;-385;4081;528;4;0.6191136;-0.6478886;-0.3531856;-0.2686981;1;0;0;520;3976;40;16;-0.1135734;0.1052632;0.6260388;0.7642618;-1;0;0;193;4129;770;2;-0.1952908;0.2950138;-0.6689192;-0.6537396;1;-3;2;-454;3996;-170;8;-0.06925207;0.1398892;0.6426592;0.7500829;-2;0;0;-309;4169;735;0.4776455;2.814621;-0.02816141;0.4835763;3.355104;-0.1020872;0.4887865;3.829914;-0.169072;0.4833243;4.525578;0.06434494;0.2221144;4.844872;0.1319344;-0.117979;4.689172;0.1471944;-0.8879473;5.204371;0.1540122;-0.987241;6.128464;-0.03035286;0.7424423;4.848961;0.1319343;1.032555;4.69821;0.1471944;1.761217;5.216873;-0.2110185;1.858984;6.074177;-0.6024994;0.1653841;2.771925;-0.02957955;0.15256;1.320413;-0.2134501;0;0;0;0.1653841;2.771925;-0.02957955;0.15256;1.320413;-0.2134501;0;0;0
1154316.942;NotLabelled;NONE;16384;0.6956688;0.03462604;-0.4722992;0.5401662;-2;0;0;2804;-2258;1659;65536;-0.3601108;-0.2534626;0.6897035;-0.5747922;1;2;-4;-372;-3931;-802;8192;-0.03601108;0.400277;-0.8532205;0.33241;0;5;0;-2954;-2127;1873;32768;-0.2645429;-0.234072;0.797612;-0.4889196;1;1;-3;461;-3701;-1794;256;0.5443213;-0.7619101;0.2063712;0.2839335;5;0;2;-35;3810;-1341;128;0.6371191;-0.6978177;0.1786704;0.2742382;-2;-2;-1;-387;4055;548;4;0.6191136;-0.6478886;-0.3531856;-0.2686981;0;0;-1;522;4028;80;16;-0.1135734;0.1052632;0.6260388;0.7642618;-2;-1;0;149;4107;836;2;-0.1952908;0.2936288;-0.6695283;-0.6537396;0;-3;2;-496;3982;-96;8;-0.06925207;0.1398892;0.6412742;0.7512673;-2;0;0;-309;4175;691;0.4776455;2.814622;-0.0281615;0.4835764;3.355106;-0.1020741;0.4887865;3.829917;-0.1690474;0.4833243;4.525582;0.06436925;0.2221144;4.844877;0.1319585;-0.117979;4.689175;0.1472187;-0.886744;5.206157;0.1549066;-0.983803;6.130373;-0.03002408;0.7424425;4.848965;0.1319584;1.032555;4.698214;0.1472187;1.761823;5.216369;-0.2104941;1.861617;6.072687;-0.6036183;0.1653841;2.771925;-0.02958075;0.15256;1.320413;-0.2134506;0;0;0;0.1653841;2.771925;-0.02958075;0.15256;1.320413;-0.2134506;0;0;0
1154336.9536;NotLabelled;NONE;16384;0.6956688;0.03462604;-0.4722992;0.5401662;-2;-1;0;2866;-2234;1663;65536;-0.3601108;-0.2548476;0.6891929;-0.5747922;1;2;-3;-326;-3855;-794;8192;-0.03601108;0.4016621;-0.8525693;0.33241;0;3;0;-2958;-2193;1905;32768;-0.2631579;-0.234072;0.7980701;-0.4889196;2;1;-2;585;-3623;-1742;256;0.5429363;-0.7628977;0.2063712;0.2839335;5;-2;1;-49;3862;-1331;128;0.6371191;-0.6978177;0.1786704;0.2742382;-3;-1;-1;-431;4055;612;4;0.6191136;-0.6486418;-0.3518005;-0.2686981;0;0;-1;470;3956;58;16;-0.1135734;0.1052632;0.6260388;0.7642618;-1;0;0;187;4125;790;2;-0.1952908;0.2936288;-0.6695283;-0.6537396;0;0;1;-486;3996;-146;8;-0.06786703;0.1398892;0.6412742;0.7513937;-2;0;0;-347;4189;741;0.4776648;2.814616;-0.027885;0.4835985;3.355363;-0.09985793;0.4888113;3.830411;-0.1651271;0.4850807;4.525055;0.07134334;0.2246656;4.844697;0.1403434;-0.1158126;4.689774;0.1549307;-0.8845831;5.206757;0.1620651;-0.9815196;6.130973;-0.02292928;0.745002;4.847494;0.1403438;1.03474;4.695958;0.1549317;1.76465;5.212177;-0.2042668;1.864704;6.068495;-0.5973245;0.1654035;2.771925;-0.02946991;0.1527012;1.320413;-0.2133488;0;0;0;0.1654035;2.771925;-0.02946991;0.1527012;1.320413;-0.2133488;0;0;0
1154356.9432;NotLabelled;NONE;16384;0.6945911;0.03462604;-0.4722992;0.5415512;-2;-1;0;2820;-2308;1673;65536;-0.3601108;-0.2548476;0.6891929;-0.5747922;1;0;-1;-192;-3895;-774;8192;-0.03601108;0.4016621;-0.8525693;0.33241;0;2;2;-2784;-2205;1875;32768;-0.2631579;-0.2354571;0.7976626;-0.4889196;3;0;0;479;-3655;-1718;256;0.5429363;-0.7628977;0.2063712;0.2839335;5;-2;1;-81;3902;-1317;128;0.6371191;-0.6972718;0.1786704;0.2756233;-2;-4;-2;-429;4101;500;4;0.6191136;-0.6480663;-0.3518005;-0.2700831;0;1;-2;458;3978;82;16;-0.1135734;0.1066482;0.6246537;0.7652026;-1;1;0;145;4111;802;2;-0.1966759;0.2922437;-0.6697289;-0.6537396;0;0;1;-476;4014;-178;8;-0.06925207;0.1412742;0.6412742;0.7510081;-1;0;0;-359;4177;755;0.4753271;2.814892;-0.0299252;0.4812609;3.355638;-0.1018981;0.4864737;3.830687;-0.1671673;0.4819187;4.524569;0.07151496;0.2211233;4.843678;0.1415377;-0.1191694;4.688303;0.1556374;-0.8879392;5.205285;0.1628234;-0.9834781;6.129891;-0.02094939;0.7414562;4.847096;0.1415377;1.031375;4.695861;0.1556377;1.761889;5.211573;-0.2030627;1.864256;6.067701;-0.5959392;0.1630658;2.772201;-0.03151006;0.1526992;1.320414;-0.2133503;0;0;0;0.1630658;2.772201;-0.03151006;0.1526992;1.320414;-0.2133503;0;0;0
1154378.1314;NotLabelled;NONE;16384;0.6955309;0.03462604;-0.4709141;0.5415512;-3;0;-1;2798;-2318;1627;65536;-0.3601108;-0.2562327;0.6886792;-0.5747922;2;1;-3;-404;-3909;-734;8192;-0.03739612;0.4016621;-0.8525097;0.33241;0;3;3;-2914;-2153;1859;32768;-0.2631579;-0.2354571;0.7968119;-0.4903047;4;1;0;417;-3729;-1682;256;0.5415512;-0.7633653;0.2063712;0.2853186;3;-1;1;-47;3852;-1323;128;0.6357341;-0.6976308;0.1800554;0.2770083;-1;-5;-1;-437;4043;546;4;0.6191136;-0.6480663;-0.3518005;-0.2700831;0;0;-1;432;4066;38;16;-0.1121884;0.1066482;0.6246537;0.7654068;-2;0;0;151;4173;814;2;-0.1966759;0.2922437;-0.6683741;-0.6551247;0;0;1;-462;4082;-158;8;-0.06786703;0.1412742;0.6412742;0.7511345;-1;0;0;-421;4203;769;0.4749998;2.81443;-0.0382477;0.4809335;3.355178;-0.1102072;0.4861464;3.830228;-0.1754646;0.4815913;4.524111;0.06321756;0.2207961;4.84322;0.1332402;-0.1194966;4.687845;0.1473399;-0.8874886;5.205972;0.1552028;-0.9830275;6.130578;-0.02856977;0.7411287;4.846638;0.1332403;1.031048;4.695403;0.1473404;1.761562;5.211114;-0.2113598;1.865049;6.067555;-0.6032591;0.1627385;2.771739;-0.03983378;0.152575;1.319569;-0.2185991;0;0;0;0.1627385;2.771739;-0.03983378;0.152575;1.319569;-0.2185991;0;0;0
1154399.0935;NotLabelled;NONE;16384;0.6954606;0.03601108;-0.4709141;0.5415512;-2;0;-2;2818;-2332;1557;65536;-0.3601108;-0.2562327;0.6886792;-0.5747922;1;0;-4;-420;-3907;-686;8192;-0.03739612;0.4030471;-0.8518558;0.33241;0;4;1;-2972;-2137;1847;32768;-0.2631579;-0.2368421;0.7955469;-0.4916897;5;3;-1;491;-3759;-1604;256;0.5415512;-0.7633653;0.2063712;0.2853186;3;-1;1;-63;3856;-1305;128;0.6357341;-0.6976308;0.1800554;0.2770083;-1;-3;-1;-431;4041;576;4;0.6191136;-0.6480663;-0.3518005;-0.2700831;0;0;-2;420;3940;58;16;-0.1121884;0.1066482;0.6246537;0.7654068;-1;0;0;115;4183;906;2;-0.1966759;0.2922437;-0.6683741;-0.6551247;0;0;2;-434;4040;-126;8;-0.06786703;0.1412742;0.6398892;0.7523147;-1;1;0;-317;4099;755;0.4732991;2.814372;-0.03931439;0.4792349;3.355302;-0.1098935;0.4844496;3.830517;-0.1739383;0.4802603;4.52364;0.06694756;0.2196326;4.84266;0.137989;-0.1207407;4.687419;0.151602;-0.889622;5.204215;0.1600435;-0.9833216;6.129207;-0.02273287;0.739967;4.845808;0.1379893;1.029807;4.694378;0.151603;1.762778;5.208978;-0.2036665;1.866294;6.066722;-0.5926967;0.1610379;2.771685;-0.04101812;0.1513034;1.319515;-0.2198068;0;0;0;0.1610379;2.771685;-0.04101812;0.1513034;1.319515;-0.2198068;0;0;0
1154419.9503;NotLabelled;NONE;16384;0.6943798;0.03601108;-0.4709141;0.5429363;-2;-2;-2;2802;-2332;1599;65536;-0.3587258;-0.2576177;0.6877272;-0.5761772;2;0;-5;-158;-3991;-696;8192;-0.03739612;0.4044321;-0.8506569;0.333795;0;3;1;-2890;-2249;1885;32768;-0.2631579;-0.2368421;0.7955469;-0.4916897;4;3;-1;477;-3731;-1522;256;0.5401662;-0.7647185;0.2049861;0.2853186;5;0;1;-35;3930;-1313;128;0.6357341;-0.6976308;0.1800554;0.2770083;-1;0;0;-467;4123;550;4;0.6191136;-0.6474873;-0.3518005;-0.2714681;0;0;-3;396;3976;40;16;-0.1121884;0.1066482;0.6246537;0.7654068;-1;0;0;125;4125;872;2;-0.1980609;0.2922437;-0.6679649;-0.6551247;-1;0;3;-582;4048;-80;8;-0.06786703;0.1412742;0.6398892;0.7523147;-1;1;0;-283;4137;659;0.4732991;2.814372;-0.03931439;0.4792349;3.355302;-0.1098935;0.4844496;3.830517;-0.1739383;0.4802603;4.52364;0.06694756;0.2196326;4.84266;0.137989;-0.1207407;4.687419;0.151602;-0.8884124;5.205996;0.160898;-0.9821116;6.130987;-0.02187872;0.739967;4.845808;0.1379893;1.029807;4.694378;0.151603;1.763387;5.208466;-0.2031503;1.867114;6.067814;-0.5885689;0.1610379;2.771685;-0.04101812;0.1513034;1.319515;-0.2198068;0;0;0;0.1610379;2.771685;-0.04101812;0.1513034;1.319515;-0.2198068;0;0;0
1154440.9722;NotLabelled;NONE;16384;0.6953171;0.03601108;-0.4695291;0.5429363;-1;-4;-1;2948;-2362;1569;65536;-0.3587258;-0.2576177;0.6877272;-0.5761772;3;0;-4;-166;-3945;-632;8192;-0.03739612;0.4044321;-0.8506569;0.333795;-1;3;1;-2876;-2169;1835;32768;-0.2631579;-0.2382271;0.7951333;-0.4916897;2;1;0;677;-3703;-1490;256;0.5401662;-0.7642004;0.2049861;0.2867036;6;-1;0;9;3928;-1383;128;0.6357341;-0.6979867;0.1786704;0.2770083;-1;1;0;-477;4139;488;4;0.6191136;-0.6482379;-0.3504155;-0.2714681;1;2;-3;416;3956;78;16;-0.1121884;0.1066482;0.6246537;0.7654068;0;0;0;175;4095;806;2;-0.1980609;0.2908587;-0.6685692;-0.6551247;0;-1;2;-590;4084;-48;8;-0.06786703;0.1412742;0.6398892;0.7523147;-1;0;0;-321;4169;667;0.4730403;2.814749;-0.04267104;0.4789761;3.355679;-0.1132503;0.4841907;3.830894;-0.1772951;0.4805403;4.522958;0.06662449;0.2201598;4.841865;0.1390695;-0.1203326;4.686827;0.1520115;-0.8871869;5.206542;0.164635;-0.9784532;6.132571;-0.01407364;0.7404965;4.844612;0.1390698;1.030221;4.692901;0.1520124;1.762822;5.208405;-0.2027065;1.865885;6.067753;-0.5883039;0.1607791;2.772062;-0.04437476;0.1509239;1.319514;-0.2200677;0;0;0;0.1607791;2.772062;-0.04437476;0.1509239;1.319514;-0.2200677;0;0;0
1154461.9559;NotLabelled;NONE;16384;0.6942334;0.03601108;-0.4695291;0.5443213;0;-3;-2;2936;-2348;1599;65536;-0.3573407;-0.2590028;0.687928;-0.5761772;3;-2;-2;-270;-3993;-614;8192;-0.03739612;0.4044321;-0.8506569;0.333795;0;1;3;-2838;-2219;1773;32768;-0.2631579;-0.2382271;0.7942752;-0.4930748;2;0;3;587;-3777;-1446;256;0.5387812;-0.7651775;0.2049861;0.2867036;5;-1;1;-57;3912;-1321;128;0.634349;-0.6992458;0.1786704;0.2770083;-3;0;0;-525;4173;454;4;0.6191136;-0.6476561;-0.3504155;-0.2728532;0;0;-2;542;3980;48;16;-0.1121884;0.1066482;0.6246537;0.7654068;0;0;0;199;4139;808;2;-0.1980609;0.2908587;-0.6685692;-0.6551247;0;0;1;-542;4050;-162;8;-0.06786703;0.1412742;0.6398892;0.7523147;-1;0;0;-315;4163;739;0.4708122;2.815007;-0.0442856;0.4767488;3.356009;-0.1143068;0.4819642;3.83129;-0.1778613;0.4795001;4.52336;0.06605674;0.2196659;4.842711;0.138505;-0.1210907;4.688256;0.1514524;-0.8888814;5.206652;0.160997;-0.9797195;6.132681;-0.01792924;0.7400066;4.84457;0.1384974;1.029471;4.692363;0.151436;1.764369;5.207504;-0.1990363;1.869481;6.067157;-0.5833972;0.158551;2.772322;-0.04603688;0.1514516;1.319515;-0.2197047;0;0;0;0.158551;2.772322;-0.04603688;0.1514516;1.319515;-0.2197047;0;0;0
1154483.0673;NotLabelled;NONE;16384;0.6943038;0.03462604;-0.4695291;0.5443213;1;1;-4;2828;-2388;1603;65536;-0.3573407;-0.2590028;0.6867656;-0.5775623;0;-2;-4;-312;-3961;-312;8192;-0.03878116;0.4058172;-0.8504776;0.33241;2;0;2;-2880;-2261;1687;32768;-0.2631579;-0.2382271;0.7942752;-0.4930748;-3;2;3;719;-3827;-1188;256;0.5387812;-0.7651775;0.2049861;0.2867036;2;0;1;-31;3952;-1325;128;0.634349;-0.6992458;0.1786704;0.2770083;-3;1;0;-499;4129;498;4;0.6191136;-0.6476561;-0.3504155;-0.2728532;0;0;-1;484;3996;58;16;-0.1121884;0.1066482;0.6246537;0.7654068;-1;0;0;251;4133;828;2;-0.1980609;0.2908587;-0.6685692;-0.6551247;0;-1;1;-510;3960;-160;8;-0.06786703;0.1398892;0.6398892;0.7525735;-2;1;0;-337;4153;701;0.4706423;2.815367;-0.04720463;0.4765816;3.356614;-0.1153041;0.4817994;3.832117;-0.1771705;0.4785086;4.523407;0.06894204;0.2182931;4.842215;0.1424023;-0.1222787;4.687313;0.1548584;-0.8892666;5.206831;0.1674457;-0.9764719;6.133343;-0.01079547;0.7386311;4.844696;0.1424023;1.028277;4.692795;0.1548589;1.762339;5.208299;-0.1968287;1.866541;6.069238;-0.5785515;0.1583811;2.772687;-0.04911962;0.1514536;1.319515;-0.2197029;0;0;0;0.1583811;2.772687;-0.04911962;0.1514536;1.319515;-0.2197029;0;0;0
1154502.941;NotLabelled;NONE;16384;0.6952385;0.03462604;-0.468144;0.5443213;3;1;-5;2786;-2358;1501;65536;-0.3559557;-0.2590028;0.6874844;-0.5775623;-2;-8;-4;-424;-3797;-182;8192;-0.03878116;0.4058172;-0.8504776;0.33241;5;0;3;-2786;-2277;1715;32768;-0.2645429;-0.2396122;0.793398;-0.4930748;-9;2;6;1045;-3697;-1058;256;0.5387812;-0.7646571;0.2049861;0.2880886;3;0;1;-9;3894;-1319;128;0.634349;-0.6992458;0.1786704;0.2770083;-3;1;0;-451;4087;436;4;0.6191136;-0.6476561;-0.3504155;-0.2728532;1;1;-1;478;3962;40;16;-0.1121884;0.1066482;0.6246537;0.7654068;-1;0;0;147;4195;794;2;-0.1980609;0.2908587;-0.6685692;-0.6551247;1;0;2;-508;4024;-104;8;-0.06786703;0.1412742;0.6398892;0.7523147;-2;0;0;-333;4199;691;0.4706423;2.815367;-0.04720463;0.4765816;3.356614;-0.1153041;0.4817994;3.832117;-0.1771705;0.4785086;4.523407;0.06894204;0.2182931;4.842215;0.1424023;-0.1222787;4.687313;0.1548584;-0.8904808;5.205054;0.1666197;-0.9785812;6.132098;-0.008377701;0.7386311;4.844696;0.1424023;1.028277;4.692795;0.1548589;1.764919;5.204729;-0.1966496;1.869121;6.065668;-0.5783728;0.1583811;2.772687;-0.04911962;0.1514536;1.319515;-0.2197029;0;0;0;0.1583811;2.772687;-0.04911962;0.1514536;1.319515;-0.2197029;0;0;0
1154523.0913;NotLabelled;NONE;16384;0.6963207;0.03462604;-0.468144;0.5429363;8;5;-10;2570;-2530;1407;65536;-0.3545706;-0.2576177;0.6875556;-0.5789474;-7;-15;-4;-336;-3669;98;8192;-0.03878116;0.4058172;-0.8510176;0.3310249;8;-5;7;-2570;-2315;1671;32768;-0.265928;-0.2396122;0.7937943;-0.4916897;-18;2;10;895;-3613;-836;256;0.5387812;-0.7646571;0.2049861;0.2880886;2;1;0;-37;3916;-1209;128;0.634349;-0.6986955;0.1786704;0.2783934;-4;0;0;-375;4093;458;4;0.6191136;-0.6476561;-0.3504155;-0.2728532;1;2;-1;448;3948;88;16;-0.1121884;0.1066482;0.6232687;0.7665351;-1;0;0;125;4149;798;2;-0.1980609;0.2908587;-0.6685692;-0.6551247;1;-1;1;-482;4012;-44;8;-0.06786703;0.1412742;0.6398892;0.7523147;-2;0;0;-317;4179;717;0.4707606;2.815367;-0.04682158;0.4766998;3.356614;-0.1149212;0.4819177;3.832117;-0.1767876;0.4798062;4.523411;0.06932333;0.220135;4.842664;0.1427829;-0.1207006;4.688343;0.1552396;-0.889793;5.204747;0.1675917;-0.9752431;6.131898;-0.008151099;0.7404765;4.844257;0.1427828;1.029863;4.691862;0.1552396;1.767352;5.203796;-0.1944875;1.871297;6.065236;-0.5751513;0.1584994;2.772687;-0.04873658;0.1519842;1.319515;-0.2193362;0;0;0;0.1584994;2.772687;-0.04873658;0.1519842;1.319515;-0.2193362;0;0;0
1154543.2395;NotLabelled;NONE;16384;0.6974658;0.033241;-0.468144;0.5415512;15;6;-13;2468;-2454;1437;65536;-0.3531856;-0.2576177;0.6882681;-0.5789474;-12;-18;-5;236;-3867;32;8192;-0.03878116;0.4044321;-0.8522137;0.3296399;10;-6;11;-2514;-2343;1649;32768;-0.2686981;-0.2382271;0.794135;-0.4903047;-27;2;17;743;-3571;-710;256;0.5373961;-0.7660006;0.2036011;0.2880886;4;1;0;-45;3874;-1195;128;0.634349;-0.6990482;0.1772853;0.2783934;-4;0;-1;-383;3985;460;4;0.6191136;-0.6476561;-0.3504155;-0.2728532;1;2;-1;402;3924;104;16;-0.1121884;0.1066482;0.6232687;0.7665351;-2;0;0;187;4147;796;2;-0.1980609;0.2894737;-0.66917;-0.6551247;0;-1;1;-490;4014;-168;8;-0.06648199;0.1412742;0.6385041;0.7536141;-2;0;0;-335;4159;783;0.4732821;2.814405;-0.05080271;0.4792213;3.355655;-0.1188875;0.4844392;3.83116;-0.180741;0.4823276;4.522454;0.06536962;0.2226565;4.841707;0.1388291;-0.1181792;4.687386;0.1512858;-0.888042;5.202657;0.162945;-0.9735788;6.13008;-0.01131368;0.7429979;4.8433;0.1388289;1.032385;4.690905;0.1512857;1.770255;5.200897;-0.2004679;1.872805;6.061251;-0.5839518;0.1610209;2.771727;-0.05271895;0.1545057;1.318554;-0.223318;0;0;0;0.1610209;2.771727;-0.05271895;0.1545057;1.318554;-0.223318;0;0;0
1154563.9447;NotLabelled;NONE;16384;0.6986035;0.03185596;-0.468144;0.5401662;16;0;-11;2672;-2340;1387;65536;-0.3504155;-0.2548476;0.690711;-0.5789474;-17;-23;1;-284;-3971;546;8192;-0.0401662;0.4044321;-0.8526841;0.3282548;14;-4;13;-2444;-2263;1775;32768;-0.2714681;-0.2368421;0.7953118;-0.4875346;-34;1;25;625;-3661;-434;256;0.5373961;-0.7660006;0.2036011;0.2880886;6;2;-1;-111;3732;-1181;128;0.632964;-0.7003025;0.1772853;0.2783934;-5;-1;-1;-311;3901;520;4;0.6191136;-0.6470709;-0.3504155;-0.2742382;1;2;-1;394;3972;64;16;-0.1121884;0.1066482;0.6232687;0.7665351;-2;0;0;165;4175;864;2;-0.1980609;0.2894737;-0.6678113;-0.6565097;0;-1;2;-500;3956;-162;8;-0.06648199;0.1412742;0.6385041;0.7536141;-2;1;0;-307;4111;785;0.4731914;2.814404;-0.05102995;0.4791314;3.355722;-0.1185599;0.4843499;3.83129;-0.1799258;0.4827752;4.521504;0.06920252;0.2233516;4.840634;0.1440594;-0.1176031;4.686523;0.1558463;-0.8894156;5.198874;0.1673254;-0.9730263;6.126402;-0.007305369;0.7436942;4.841825;0.1440594;1.032963;4.689154;0.1558465;1.769993;5.197733;-0.1996937;1.867036;6.056874;-0.5873105;0.1609302;2.771727;-0.05299328;0.1541234;1.318554;-0.2235815;0;0;0;0.1609302;2.771727;-0.05299328;0.1541234;1.318554;-0.2235815;0;0;0
1154583.9477;NotLabelled;NONE;16384;0.7000395;0.02631579;-0.4695291;0.5373961;24;3;-8;3208;-2154;1621;65536;-0.3518005;-0.2506925;0.6926842;-0.5775623;-52;-4;10;210;-4275;1172;8192;-0.04155125;0.4030471;-0.8559052;0.3213296;25;-11;10;-2670;-2209;1541;32768;-0.2797784;-0.2299169;0.7969985;-0.4833795;-38;-7;46;1443;-3401;-678;256;0.5373961;-0.7665201;0.2036011;0.2867036;5;4;0;-71;3714;-1155;128;0.632964;-0.7003025;0.1772853;0.2783934;-7;0;-3;-367;3921;434;4;0.6191136;-0.6470709;-0.3504155;-0.2742382;3;2;-1;414;3910;98;16;-0.1121884;0.1066482;0.6232687;0.7665351;-1;5;0;149;4183;888;2;-0.1980609;0.2894737;-0.6678113;-0.6565097;0;-1;3;-490;3958;-140;8;-0.06648199;0.1398892;0.6385041;0.7538724;-2;2;0;-319;4121;741;0.4730366;2.814756;-0.05395464;0.4789792;3.356311;-0.1195648;0.4842001;3.832094;-0.1792442;0.4826253;4.522308;0.06988416;0.2232016;4.841437;0.1447409;-0.117753;4.687326;0.1565277;-0.8915209;5.196751;0.1664833;-0.9734804;6.123767;-0.01161386;0.7435442;4.842627;0.1447411;1.032813;4.689956;0.1565284;1.771796;5.195471;-0.1993275;1.864871;6.052069;-0.593492;0.1607755;2.772087;-0.05608144;0.1541235;1.318554;-0.2235813;0;0;0;0.1607755;2.772087;-0.05608144;0.1541235;1.318554;-0.2235813;0;0;0
1154604.0893;NotLabelled;NONE;16384;0.7012443;0.02216066;-0.4695291;0.536011;23;13;-12;3258;-2072;1627;65536;-0.3531856;-0.2465374;0.6957681;-0.5747922;-69;-13;15;-390;-3955;1504;8192;-0.04155125;0.4030471;-0.8569401;0.3185596;27;-9;10;-2800;-2099;1547;32768;-0.2867036;-0.2243767;0.7969552;-0.4819945;-40;-12;50;477;-3855;-732;256;0.5373961;-0.7668867;0.2022161;0.2867036;4;4;1;-223;3742;-1063;128;0.6315789;-0.7013496;0.1759003;0.2797784;-12;-3;-4;-311;3971;336;4;0.6177285;-0.6478058;-0.3504155;-0.2756233;2;4;-1;404;3998;42;16;-0.1121884;0.1066482;0.6232687;0.7665351;0;10;1;183;4127;884;2;-0.199446;0.2894737;-0.6673989;-0.6565097;1;-1;4;-608;3940;-124;8;-0.06648199;0.1398892;0.6385041;0.7538724;-2;1;-1;-291;4119;701;0.4729001;2.814756;-0.05434381;0.4788427;3.356311;-0.119954;0.4840636;3.832094;-0.1796334;0.4813153;4.522304;0.06949618;0.2213497;4.840992;0.1443536;-0.1193425;4.686302;0.1561403;-0.8984506;5.187595;0.1609019;-0.9863368;6.112858;-0.02338809;0.7416893;4.843066;0.1443537;1.031217;4.690887;0.1561406;1.772056;5.186007;-0.2103144;1.847214;6.037946;-0.6181619;0.160639;2.772087;-0.05647061;0.1535816;1.318554;-0.2239538;0;0;0;0.160639;2.772087;-0.05647061;0.1535816;1.318554;-0.2239538;0;0;0
1154625.003;NotLabelled;NONE;16384;0.7035575;0.01939058;-0.4709141;0.5318559;29;21;-12;2886;-2226;1479;65536;-0.3573407;-0.2409972;0.7001286;-0.5692521;-71;9;14;-28;-3207;912;8192;-0.04155125;0.4030471;-0.8584733;0.3144044;31;0;5;-2838;-2485;1419;32768;-0.2936288;-0.2174515;0.7971898;-0.4806094;-49;-7;52;-467;-3973;-172;256;0.5373961;-0.7668867;0.2022161;0.2867036;2;-5;8;-341;3866;-945;128;0.6288089;-0.7032821;0.1759003;0.2811634;-14;-9;-5;-191;3993;306;4;0.6177285;-0.6478058;-0.3504155;-0.2756233;1;5;0;376;4020;-50;16;-0.1108033;0.1052632;0.6232687;0.766928;0;10;1;175;4075;942;2;-0.1980609;0.2880886;-0.6684099;-0.6565097;2;-5;4;-642;4016;-94;8;-0.06509695;0.1398892;0.6371191;0.755164;-3;1;0;-353;4145;749;0.4674799;2.814872;-0.05535395;0.4734257;3.356722;-0.1184784;0.4786495;3.832774;-0.1759738;0.4772651;4.52269;0.07397909;0.2179295;4.841801;0.1492179;-0.1230675;4.68777;0.1608216;-0.9063594;5.182516;0.1636988;-0.9991305;6.105377;-0.02999634;0.7382723;4.842848;0.149218;1.027499;4.690084;0.160822;1.768405;5.181257;-0.2107733;1.827513;6.03107;-0.6256335;0.1552189;2.772213;-0.05769221;0.1532003;1.318554;-0.2242155;0;0;0;0.1552189;2.772213;-0.05769221;0.1532003;1.318554;-0.2242155;0;0;0
1154645.0443;NotLabelled;NONE;16384;0.7068246;0.01800554;-0.4722992;0.5263157;35;35;-9;2846;-2012;1335;65536;-0.3642659;-0.2396122;0.7037333;-0.5609418;-83;35;16;-360;-3355;580;8192;-0.03878116;0.4044321;-0.8594627;0.3102493;33;1;0;-3048;-2285;1709;32768;-0.301939;-0.2119114;0.7972428;-0.4778393;-60;10;46;-879;-4041;-32;256;0.5373961;-0.7660006;0.2036011;0.2880886;0;-7;9;-221;3780;-1167;128;0.6274238;-0.7030583;0.1772853;0.2839335;-15;-13;-4;-257;3973;464;4;0.6177285;-0.6472147;-0.3504155;-0.2770083;0;2;0;224;3992;8;16;-0.1094183;0.1038781;0.6218836;0.7684385;0;6;0;193;4099;910;2;-0.1966759;0.2867036;-0.6680525;-0.6578947;4;-10;4;-614;4050;-278;8;-0.06371191;0.1398892;0.6371191;0.7552821;-4;8;0;-425;4175;777;0.4683176;2.814703;-0.05534381;0.4742682;3.356986;-0.1146253;0.4794964;3.833434;-0.1687443;0.478112;4.52335;0.08120881;0.2187762;4.842461;0.1564478;-0.1222207;4.68843;0.1680513;-0.9091269;5.177405;0.1648323;-1.010494;6.095853;-0.04486685;0.7391191;4.843508;0.1564478;1.028346;4.690744;0.1680518;1.770232;5.175963;-0.2093627;1.812816;6.022992;-0.631875;0.1560569;2.772061;-0.05800874;0.1540382;1.318402;-0.2245327;0;0;0;0.1560569;2.772061;-0.05800874;0.1540382;1.318402;-0.2245327;0;0;0
1154667.0588;NotLabelled;NONE;16384;0.7110729;0.01523546;-0.4736842;0.5193906;49;35;-14;2620;-2286;989;65536;-0.3711911;-0.2354571;0.7091575;-0.5512465;-83;20;15;-1812;-1983;534;8192;-0.03739612;0.4044321;-0.8610125;0.3060942;37;-3;0;-3262;-2231;1533;32768;-0.3116343;-0.2063712;0.7982659;-0.4722992;-64;23;39;-831;-3431;-510;256;0.5373961;-0.764953;0.2036011;0.2908587;0;-15;7;-179;3824;-1291;128;0.6246537;-0.7049617;0.1772853;0.2853186;-13;-16;-2;-225;4017;518;4;0.6177285;-0.6472147;-0.3504155;-0.2770083;-1;-5;4;148;4066;32;16;-0.1080332;0.1024931;0.6232687;0.767698;-1;12;1;89;4123;810;2;-0.1966759;0.2853186;-0.6672797;-0.6592798;5;-10;5;-560;3976;-204;8;-0.06232687;0.1385041;0.6371191;0.7556528;-5;10;0;-267;4185;671;0.471781;2.813916;-0.06194975;0.4777333;3.35635;-0.1198439;0.4829629;3.832934;-0.172744;0.4813882;4.523148;0.07638432;0.2219646;4.842277;0.1512412;-0.11899;4.688166;0.163028;-0.9090071;5.171956;0.1507662;-1.016737;6.085415;-0.07679072;0.7423071;4.843467;0.1512412;1.031576;4.690797;0.1630283;1.773351;5.17177;-0.2199979;1.800728;6.014916;-0.6514395;0.1595203;2.771281;-0.06473248;0.1583219;1.317271;-0.2281638;0;0;0;0.1595203;2.771281;-0.06473248;0.1583219;1.317271;-0.2281638;0;0;0
1154687.9729;NotLabelled;NONE;16384;0.7193674;0.002770083;-0.4778393;0.5041551;57;21;-31;1080;-1648;1619;65536;-0.3725762;-0.2229917;0.7290609;-0.5290859;-120;-62;-33;-468;-1265;-868;8192;-0.03185596;0.4030471;-0.8657396;0.2950138;61;-19;7;-2662;-2389;1595;32768;-0.33241;-0.1966759;0.8027699;-0.4542936;-81;22;55;-1029;-2883;-710;256;0.5373961;-0.7636818;0.2063712;0.2922437;-4;-24;4;-161;3944;-1121;128;0.6232687;-0.7047113;0.1786704;0.2880886;-10;-17;0;-205;4107;482;4;0.6177285;-0.648553;-0.3490305;-0.2756233;-1;-9;5;136;4050;102;16;-0.1066482;0.101108;0.6232687;0.7680752;0;12;2;193;4197;854;2;-0.1952908;0.2839335;-0.6669073;-0.6606648;5;-12;5;-576;4018;-126;8;-0.06232687;0.1385041;0.6357341;0.7568185;-5;2;0;-279;4169;661;0.4703842;2.814728;-0.0571879;0.4763408;3.357557;-0.1112549;0.4815744;3.834502;-0.1607925;0.4823492;4.524718;0.08833542;0.2240132;4.844728;0.1631922;-0.117464;4.691779;0.1749792;-0.9122208;5.167325;0.1515743;-1.027989;6.07374;-0.09903228;0.744357;4.844147;0.1631921;1.033105;4.690492;0.1749792;1.776073;5.16656;-0.2118453;1.7879;6.002873;-0.6570722;0.1581237;2.772115;-0.06029532;0.1577174;1.318104;-0.2237307;0;0;0;0.1581237;2.772115;-0.06029532;0.1577174;1.318104;-0.2237307;0;0;0
