SEP=;
index;label;segment;RightUpperArm_boneIndex;RightUpperArm_quat9x_w;RightUpperArm_quat9x_x;RightUpperArm_quat9x_y;RightUpperArm_quat9x_z;RightUpperArm_gyroscope_x;RightUpperArm_gyroscope_y;RightUpperArm_gyroscope_z;RightUpperArm_accelerometer_x;RightUpperArm_accelerometer_y;RightUpperArm_accelerometer_z;RightLowerArm_boneIndex;RightLowerArm_quat9x_w;RightLowerArm_quat9x_x;RightLowerArm_quat9x_y;RightLowerArm_quat9x_z;RightLowerArm_gyroscope_x;RightLowerArm_gyroscope_y;RightLowerArm_gyroscope_z;RightLowerArm_accelerometer_x;RightLowerArm_accelerometer_y;RightLowerArm_accelerometer_z;LeftUpperArm_boneIndex;LeftUpperArm_quat9x_w;LeftUpperArm_quat9x_x;LeftUpperArm_quat9x_y;LeftUpperArm_quat9x_z;LeftUpperArm_gyroscope_x;LeftUpperArm_gyroscope_y;LeftUpperArm_gyroscope_z;LeftUpperArm_accelerometer_x;LeftUpperArm_accelerometer_y;LeftUpperArm_accelerometer_z;LeftLowerArm_boneIndex;LeftLowerArm_quat9x_w;LeftLowerArm_quat9x_x;LeftLowerArm_quat9x_y;LeftLowerArm_quat9x_z;LeftLowerArm_gyroscope_x;LeftLowerArm_gyroscope_y;LeftLowerArm_gyroscope_z;LeftLowerArm_accelerometer_x;LeftLowerArm_accelerometer_y;LeftLowerArm_accelerometer_z;Chest_boneIndex;Chest_quat9x_w;Chest_quat9x_x;Chest_quat9x_y;Chest_quat9x_z;Chest_gyroscope_x;Chest_gyroscope_y;Chest_gyroscope_z;Chest_accelerometer_x;Chest_accelerometer_y;Chest_accelerometer_z;Spine_boneIndex;Spine_quat9x_w;Spine_quat9x_x;Spine_quat9x_y;Spine_quat9x_z;Spine_gyroscope_x;Spine_gyroscope_y;Spine_gyroscope_z;Spine_accelerometer_x;Spine_accelerometer_y;Spine_accelerometer_z;RightUpperLeg_boneIndex;RightUpperLeg_quat9x_w;RightUpperLeg_quat9x_x;RightUpperLeg_quat9x_y;RightUpperLeg_quat9x_z;RightUpperLeg_gyroscope_x;RightUpperLeg_gyroscope_y;RightUpperLeg_gyroscope_z;RightUpperLeg_accelerometer_x;RightUpperLeg_accelerometer_y;RightUpperLeg_accelerometer_z;RightLowerLeg_boneIndex;RightLowerLeg_quat9x_w;RightLowerLeg_quat9x_x;RightLowerLeg_quat9x_y;RightLowerLeg_quat9x_z;RightLowerLeg_gyroscope_x;RightLowerLeg_gyroscope_y;RightLowerLeg_gyroscope_z;RightLowerLeg_accelerometer_x;RightLowerLeg_accelerometer_y;RightLowerLeg_accelerometer_z;LeftUpperLeg_boneIndex;LeftUpperLeg_quat9x_w;LeftUpperLeg_quat9x_x;LeftUpperLeg_quat9x_y;LeftUpperLeg_quat9x_z;LeftUpperLeg_gyroscope_x;LeftUpperLeg_gyroscope_y;LeftUpperLeg_gyroscope_z;LeftUpperLeg_accelerometer_x;LeftUpperLeg_accelerometer_y;LeftUpperLeg_accelerometer_z;LeftLowerLeg_boneIndex;LeftLowerLeg_quat9x_w;LeftLowerLeg_quat9x_x;LeftLowerLeg_quat9x_y;LeftLowerLeg_quat9x_z;LeftLowerLeg_gyroscope_x;LeftLowerLeg_gyroscope_y;LeftLowerLeg_gyroscope_z;LeftLowerLeg_accelerometer_x;LeftLowerLeg_accelerometer_y;LeftLowerLeg_accelerometer_z;pelvis_x;pelvis_y;pelvis_z;lowerSpine_x;lowerSpine_y;lowerSpine_z;middleSpine_x;middleSpine_y;middleSpine_z;upperSpine_x;upperSpine_y;upperSpine_z;rightClavicle_x;rightClavicle_y;rightClavicle_z;rightShoulder_x;rightShoulder_y;rightShoulder_z;rightElbow_x;rightElbow_y;rightElbow_z;rightWrist_x;rightWrist_y;rightWrist_z;leftClavicle_x;leftClavicle_y;leftClavicle_z;leftShoulder_x;leftShoulder_y;leftShoulder_z;leftElbow_x;leftElbow_y;leftElbow_z;leftWrist_x;leftWrist_y;leftWrist_z;rightHip_x;rightHip_y;rightHip_z;rightKnee_x;rightKnee_y;rightKnee_z;rightAnkle_x;rightAnkle_y;rightAnkle_z;leftHip_x;leftHip_y;leftHip_z;leftKnee_x;leftKnee_y;leftKnee_z;leftAnkle_x;leftAnkle_y;leftAnkle_z;
149765.808;NotLabelled;NONE;16384;0.7124905;-0.4390582;0.5470914;-0.0166205;-9;7;-5;-420;2258;2389;65536;0.7507666;-0.5401662;-0.3587258;0.1260388;-15;80;-6;-1283;1501;-1404;8192;0.333795;-0.4806094;-0.7873983;-0.1939058;-18;-43;25;1374;2185;1115;32768;0.7674093;-0.4113573;-0.1371191;-0.4722992;-68;-20;29;2932;1870;-1838;256;-0.1551246;0.1745152;-0.6745152;-0.7003642;-5;-30;2;269;4098;-171;128;0.2105263;-0.1966759;0.5401662;0.7907071;16;-27;-11;-737;3927;1264;4;0.6858767;-0.5443213;0.33241;0.3504155;-5;-6;9;859;4182;790;16;0.5900277;-0.760008;-0.08033241;-0.2603878;3;19;6;1309;3974;1086;2;0.3808864;-0.3850415;-0.5083103;-0.669544;5;-21;4;-73;4076;-833;8;0.6066482;-0.7611935;-0.09695291;-0.2077562;-4;2;2;367;3915;1049;0.7706681;-0.6790786;-0.03118134;0.7766331;-0.135489;0.01460218;0.7818781;0.3424954;0.05283022;0.7690471;1.075475;0.08506942;0.5046635;1.398404;0.06127131;0.165904;1.24959;0.1181565;-0.4945855;0.6818199;0.4339402;0;0;0;1.024928;1.407512;0.06132686;1.316297;1.269729;0.1182803;1.902495;0.6535525;0.5710213;1.498557;-0.07315302;0.1165754;0.4584223;-0.720355;-0.04262802;0.2393011;-2.155322;-0.2262431;-0.01287741;-3.419459;0.161945;0.4584223;-0.720355;-0.04262802;0.2393011;-2.155322;-0.2262431;-0.01287741;-3.419459;0.161945
149785.804;NotLabelled;NONE;16384;0.7126278;-0.4404432;0.5457063;-0.01939058;0;18;2;-676;2120;2283;65536;0.7506746;-0.5387812;-0.3628809;0.1204986;-18;54;-5;-1287;1767;-2004;8192;0.33518;-0.4861496;-0.7847492;-0.1883656;-15;-41;14;1606;2085;1173;32768;0.7665113;-0.4113573;-0.1274238;-0.4764543;-53;-1;41;3210;1672;-1804;256;-0.1537396;0.1703601;-0.6759003;-0.7003573;-5;-23;3;267;4062;-181;128;0.2091413;-0.1925208;0.5429363;0.7901999;17;-23;-9;-781;3813;1252;4;0.685976;-0.5415512;0.333795;0.3531856;-7;-5;4;463;4340;734;16;0.5900277;-0.7573012;-0.08310249;-0.267313;0;20;9;1413;3972;1246;2;0.3808864;-0.3864266;-0.5069252;-0.6697962;6;-16;3;41;4124;-783;8;0.6052631;-0.7619164;-0.09695291;-0.2091413;-5;5;2;389;3885;1191;0.7658829;-0.6828651;-0.03915089;0.7718503;-0.1390491;0.003868222;0.7770973;0.3391232;0.03966558;0.7637997;1.072157;0.07043946;0.4992077;1.394868;0.04601485;0.1605477;1.245953;0.1032225;-0.5013564;0.6828771;0.4244044;0;0;0;1.019466;1.404309;0.04601395;1.310928;1.266827;0.1032215;1.906236;0.6624761;0.5599968;1.487575;-0.05851936;0.1098022;0.4536364;-0.7241993;-0.05037004;0.2327019;-2.157573;-0.2439815;-0.02567228;-3.421259;0.1415955;0.4536364;-0.7241993;-0.05037004;0.2327019;-2.157573;-0.2439815;-0.02567228;-3.421259;0.1415955
149806.8036;NotLabelled;NONE;16384;0.7119693;-0.4432133;0.5443213;-0.01939058;8;22;6;-1046;2114;2181;65536;0.7503027;-0.5373961;-0.367036;0.1163435;-16;37;-6;-1959;2199;-2490;8192;0.3365651;-0.4903047;-0.7825546;-0.1842105;-12;-34;0;1740;1985;1099;32768;0.7671605;-0.4085872;-0.1163435;-0.4806094;-39;1;53;2858;1630;-2102;256;-0.1523546;0.16759;-0.6759003;-0.7013277;-4;-23;4;241;4004;-237;128;0.2091413;-0.1897507;0.5443213;0.789917;16;-15;-8;-641;3773;1398;4;0.6874803;-0.5387812;0.33518;0.3531856;-12;-6;3;483;4302;724;16;0.5886427;-0.7569008;-0.08310249;-0.2714681;1;23;9;1155;3978;1240;2;0.3808864;-0.3891967;-0.5069252;-0.6681904;4;-10;3;-61;4112;-843;8;0.6038781;-0.7626336;-0.09695291;-0.2105263;-3;4;2;361;3935;1137;0.7643657;-0.6838589;-0.02381158;0.7703354;-0.1398306;0.01642531;0.7755844;0.3385191;0.0497762;0.7646213;1.071678;0.07842964;0.5010651;1.395159;0.0530239;0.1619215;1.247492;0.110599;-0.5060067;0.6836295;0.417618;0;0;0;1.021351;1.40294;0.05309176;1.312362;1.264694;0.11075;1.904197;0.662529;0.5748663;1.471406;-0.05009365;0.1247003;0.4521185;-0.7252498;-0.03480157;0.2288862;-2.157348;-0.2351072;-0.04406917;-3.420224;0.1429999;0.4521185;-0.7252498;-0.03480157;0.2288862;-2.157348;-0.2351072;-0.04406917;-3.420224;0.1429999
149826.8038;NotLabelled;NONE;16384;0.7114828;-0.4473684;0.5415512;-0.01939058;9;8;9;-1748;2244;2425;65536;0.751871;-0.5318559;-0.3739612;0.1094183;4;23;-6;-2965;2947;-3330;8192;0.3407202;-0.4930748;-0.7796579;-0.1814404;-10;-27;-17;1756;1917;1073;32768;0.768009;-0.4030471;-0.1066482;-0.4861496;-24;12;66;2900;1588;-2298;256;-0.1509695;0.1634349;-0.6786703;-0.6999313;-6;-14;3;179;3998;-121;128;0.2077562;-0.1869806;0.5443213;0.7909424;1;-8;-4;-585;3889;1534;4;0.6878875;-0.5373961;0.3365651;0.3531856;-14;-6;1;457;4140;706;16;0.5886427;-0.7550877;-0.08587258;-0.2756233;3;25;10;933;3964;1168;2;0.3808864;-0.3919668;-0.5055401;-0.6676202;3;-5;2;-51;4082;-781;8;0.6038781;-0.7620725;-0.09833795;-0.2119114;-1;3;1;407;3921;1181;0.7540509;-0.6841683;-0.03163785;0.760022;-0.1400175;0.006908298;0.7652721;0.3384333;0.03877264;0.7558532;1.071589;0.06804895;0.4929734;1.395645;0.04295549;0.1535287;1.248641;0.1004546;-0.5107576;0.6832218;0.41247;0;0;0;1.013274;1.402332;0.04295462;1.304003;1.263426;0.1004535;1.900255;0.6667142;0.5659547;1.45103;-0.03329992;0.1121209;0.4418035;-0.7255931;-0.04248863;0.2107094;-2.155933;-0.2464027;-0.07282594;-3.416281;0.132356;0.4418035;-0.7255931;-0.04248863;0.2107094;-2.155933;-0.2464027;-0.07282594;-3.416281;0.132356
149847.827;NotLabelled;NONE;16384;0.7125713;-0.4473684;0.5401662;-0.01800554;2;-4;15;-2044;2738;2915;65536;0.7544727;-0.5263157;-0.3781163;0.1038781;11;52;-7;-2433;3093;-2824;8192;0.3518005;-0.4972299;-0.772061;-0.1814404;-2;-41;-50;1654;2297;857;32768;0.7774896;-0.3947368;-0.08587258;-0.4819945;-2;-51;59;932;2784;-2138;256;-0.1509695;0.1620499;-0.6786703;-0.7002532;-7;-8;1;183;3970;-149;128;0.2077562;-0.1869806;0.5443213;0.7909424;-1;-3;-2;-521;3785;1602;4;0.6875766;-0.536011;0.3379501;0.3545706;-12;-2;-1;593;4158;630;16;0.5886427;-0.7539119;-0.08725762;-0.2783934;4;27;11;905;3976;1172;2;0.3795014;-0.3933518;-0.5055401;-0.6675944;3;-1;2;53;4048;-955;8;0.602493;-0.763168;-0.09833795;-0.2119114;0;4;1;429;3913;1255;0.745115;-0.6836433;-0.02243698;0.7510855;-0.1395426;0.01680803;0.7563353;0.3388672;0.04928678;0.7486351;1.072221;0.0736717;0.4865187;1.396719;0.04639518;0.1467257;1.250899;0.1048445;-0.5159351;0.680306;0.4108411;0;0;0;1.006834;1.402185;0.04639393;1.297231;1.262984;0.1048429;1.893596;0.6657324;0.5695091;1.4308;-0.01916599;0.1063429;0.4328676;-0.7250543;-0.03334531;0.1985708;-2.15468;-0.2386105;-0.09315974;-3.41514;0.1334936;0.4328676;-0.7250543;-0.03334531;0.1985708;-2.15468;-0.2386105;-0.09315974;-3.41514;0.1334936
149867.8014;NotLabelled;NONE;16384;0.7135035;-0.4459834;0.5401662;-0.01523546;-4;-16;22;-1980;2894;3255;65536;0.7558953;-0.5207756;-0.3836565;0.101108;15;56;-11;-2291;3167;-2992;8192;0.3614958;-0.501385;-0.7641991;-0.1842105;-3;-37;-59;2336;2715;995;32768;0.7845524;-0.3905817;-0.07894737;-0.4750692;11;-61;40;1332;2894;-1436;256;-0.1509695;0.1606648;-0.6786703;-0.7005723;-4;-3;0;121;3932;-165;128;0.2063712;-0.1855956;0.5429363;0.7925815;-8;-3;-2;-515;3675;1226;4;0.6886847;-0.534626;0.3393352;0.3531856;-11;0;-2;643;3978;580;16;0.5886427;-0.752038;-0.0900277;-0.2825485;6;25;11;703;3908;1114;2;0.3781163;-0.3947368;-0.5069252;-0.6665117;4;2;3;-39;4124;-887;8;0.602493;-0.763168;-0.09833795;-0.2119114;0;5;1;265;3965;1211;0.7444417;-0.6846986;-0.01232237;0.7504122;-0.1405978;0.02692258;0.7556618;0.3378119;0.05940133;0.7494119;1.071179;0.08378583;0.4879374;1.396195;0.05650905;0.1478568;1.251048;0.1149586;-0.515534;0.6781158;0.4149449;0;0;0;1.008263;1.400633;0.05650777;1.298384;1.260858;0.1149567;1.895613;0.6529427;0.5644357;1.408895;-0.007139206;0.08989847;0.4321944;-0.7261095;-0.02323067;0.1960503;-2.155261;-0.2296815;-0.1005294;-3.415535;0.1392027;0.4321944;-0.7261095;-0.02323067;0.1960503;-2.155261;-0.2296815;-0.1005294;-3.415535;0.1392027
149888.7988;NotLabelled;NONE;16384;0.715489;-0.4445983;0.5387812;-0.01108033;-6;-19;26;-1810;2772;3231;65536;0.7572239;-0.5152354;-0.3891967;0.09833795;19;47;-15;-3215;3287;-3162;8192;0.3698061;-0.5027701;-0.7589598;-0.1855956;-13;-18;-62;2724;2743;1437;32768;0.7903116;-0.3905817;-0.07063711;-0.466759;12;-80;25;2156;2940;-656;256;-0.1509695;0.1606648;-0.6800554;-0.6992279;-2;-5;0;23;3782;-163;128;0.2049861;-0.1842105;0.5401662;0.7951526;-15;-6;-6;-599;3661;1524;4;0.6890746;-0.533241;0.3407202;0.3531856;-7;6;-3;623;3818;418;16;0.5872576;-0.7505085;-0.09418282;-0.2880886;6;17;11;581;3828;1096;2;0.3767313;-0.3947368;-0.5069252;-0.6672955;2;6;3;-139;4086;-745;8;0.602493;-0.7626022;-0.09972299;-0.2132964;1;5;1;227;3957;1123;0.738191;-0.6894436;-0.0102936;0.7441596;-0.1455231;0.03137565;0.7494075;0.332737;0.06598604;0.744607;1.066116;0.09037012;0.4837755;1.391647;0.06309307;0.1434087;1.247172;0.1215425;-0.5197243;0.6725245;0.4188019;0;0;0;1.004108;1.395057;0.06309211;1.293953;1.254709;0.1215413;1.888962;0.6333098;0.5552492;1.399423;-0.01851702;0.07227814;0.4259444;-0.7308054;-0.02140164;0.182774;-2.158965;-0.2265522;-0.1196219;-3.419353;0.1371854;0.4259444;-0.7308054;-0.02140164;0.182774;-2.158965;-0.2265522;-0.1196219;-3.419353;0.1371854
149909.9098;NotLabelled;NONE;16384;0.7182786;-0.4418283;0.5373961;-0.008310249;-12;-17;27;-1748;2786;3353;65536;0.7590027;-0.5096953;-0.3933518;0.09695291;23;47;-20;-2955;3361;-2516;8192;0.3795014;-0.501385;-0.7547384;-0.1869806;-27;-7;-61;2550;2669;2133;32768;0.7966518;-0.3905817;-0.06232687;-0.4570637;0;-90;24;2894;3038;-84;256;-0.1495845;0.1592798;-0.6800554;-0.6998422;-1;-7;1;-11;3866;-169;128;0.2036011;-0.1828255;0.5373961;0.797701;-21;-9;-8;-495;3759;1620;4;0.6897827;-0.533241;0.3407202;0.3518005;-4;9;-2;633;3752;488;16;0.5886427;-0.7479981;-0.09695291;-0.2908587;5;15;11;491;3780;1024;2;0.3767313;-0.3947368;-0.5069252;-0.6672955;1;6;2;-301;4032;-777;8;0.602493;-0.7626022;-0.09972299;-0.2132964;1;2;1;345;3961;1035;0.7347171;-0.6901755;-0.003951728;0.7406819;-0.1465917;0.04189998;0.745927;0.331388;0.08018804;0.7405015;1.064849;0.1018103;0.4793939;1.390054;0.07330132;0.1391484;1.245509;0.1322859;-0.5231905;0.6668668;0.4235056;0;0;0;0.9997236;1.393906;0.07330048;1.289686;1.254026;0.1322849;1.885258;0.6234512;0.5517423;1.389808;-0.02404499;0.06897378;0.4224713;-0.7314506;-0.01540375;0.1744643;-2.158859;-0.2199936;-0.133139;-3.41859;0.1416473;0.4224713;-0.7314506;-0.01540375;0.1744643;-2.158859;-0.2199936;-0.133139;-3.41859;0.1416473
149931.0359;NotLabelled;NONE;16384;0.7245714;-0.434903;0.534626;-0.005540166;-28;-9;22;-1588;3472;3299;65536;0.7561477;-0.5055401;-0.4030471;0.101108;10;12;-36;-3253;2901;-1080;8192;0.3905817;-0.4972299;-0.7518288;-0.1869806;-43;-16;-62;2204;2827;2553;32768;0.8007924;-0.3933518;-0.05124654;-0.4487534;-17;-93;29;3148;3376;-330;256;-0.1509695;0.1592798;-0.6786703;-0.7008885;5;2;0;251;4270;-71;128;0.2022161;-0.1828255;0.5318559;0.8017561;-24;-2;-2;-767;4041;1180;4;0.6897827;-0.533241;0.3407202;0.3518005;-3;9;-1;613;3758;478;16;0.5886427;-0.746734;-0.09833795;-0.2936288;4;14;10;439;3706;978;2;0.3753462;-0.3947368;-0.5083103;-0.6670223;1;6;2;-479;4038;-823;8;0.602493;-0.7626022;-0.09972299;-0.2132964;1;2;2;373;3887;985;0.7334522;-0.6941056;0.001465738;0.739413;-0.1508894;0.05148709;0.7446547;0.3267827;0.09344161;0.7393253;1.060226;0.1156748;0.4782599;1.385489;0.08743829;0.1379958;1.24094;0.1463045;-0.527373;0.6608939;0.4276604;0;0;0;0.9985902;1.389273;0.08743727;1.288535;1.249306;0.1463034;1.885337;0.609827;0.5502464;1.386847;-0.03386784;0.06552625;0.4212072;-0.7352915;-0.01032904;0.1714294;-2.162424;-0.2146895;-0.1403295;-3.423847;0.137369;0.4212072;-0.7352915;-0.01032904;0.1714294;-2.162424;-0.2146895;-0.1403295;-3.423847;0.137369
149952.8005;NotLabelled;NONE;16384;0.7280657;-0.4307479;0.533241;-0.005540166;-31;-3;19;-1626;3136;3067;65536;0.7533494;-0.5055401;-0.4072022;0.1052632;0;-21;-45;-4277;2921;-1438;8192;0.4141274;-0.4958449;-0.7417657;-0.1800554;-41;-50;-52;2710;3439;1875;32768;0.808219;-0.398892;-0.03047091;-0.432133;-28;-77;24;2790;3430;-668;256;-0.1537396;0.1606648;-0.6772853;-0.7013099;6;12;0;107;4124;-155;128;0.2022161;-0.1828255;0.5304709;0.8026731;-12;1;-1;-831;3773;1240;4;0.6911691;-0.533241;0.3393352;0.3504155;-3;9;-2;651;3720;510;16;0.5886427;-0.746004;-0.09972299;-0.2950138;3;17;9;259;3720;982;2;0.3739612;-0.3933518;-0.5083103;-0.6686165;2;4;0;-423;4074;-765;8;0.602493;-0.7626022;-0.09972299;-0.2132964;0;1;1;311;3925;973;0.722236;-0.7092032;-0.0004416108;0.7281886;-0.1667423;0.05719668;0.7334232;0.3102937;0.1058492;0.7300714;1.043681;0.1302328;0.4698834;1.369727;0.1029555;0.1292317;1.225924;0.161405;-0.5429053;0.6472292;0.4291218;0;0;0;0.9902221;1.372109;0.1029546;1.279789;1.231188;0.1614037;1.88439;0.5851345;0.542649;1.374359;-0.05542374;0.06584632;0.4099931;-0.7502193;-0.01286107;0.1598105;-2.177351;-0.2167255;-0.1552714;-3.438589;0.1330324;0.4099931;-0.7502193;-0.01286107;0.1598105;-2.177351;-0.2167255;-0.1552714;-3.438589;0.1330324
149973.7913;NotLabelled;NONE;16384;0.7317137;-0.4279778;0.5304709;-0.005540166;-29;8;21;-1676;2704;2735;65536;0.7508535;-0.5027701;-0.4155124;0.1038781;-6;48;-45;-1103;2573;-1130;8192;0.4238227;-0.4986149;-0.7354023;-0.1759003;-34;-51;-47;3132;3347;1453;32768;0.8093705;-0.4030471;-0.02216066;-0.4265928;-26;-67;18;2562;3174;-548;256;-0.1551246;0.1620499;-0.6772853;-0.7006859;4;10;3;-99;4020;-263;128;0.2036011;-0.1828255;0.5290859;0.803237;-10;1;0;-427;3803;1302;4;0.6911691;-0.533241;0.3393352;0.3504155;-1;8;-3;575;4058;562;16;0.5872576;-0.7456195;-0.1024931;-0.2977839;2;14;8;411;3696;1038;2;0.3739612;-0.3933518;-0.5083103;-0.6686165;0;4;0;-389;4012;-807;8;0.602493;-0.762031;-0.101108;-0.2146814;0;1;2;259;3983;1025;0.7165487;-0.7197466;-0.0009754896;0.7224991;-0.177474;0.05840981;0.7277319;0.2994027;0.1085987;0.7262707;1.032745;0.1344997;0.466924;1.359516;0.1078994;0.125903;1.216471;0.1660541;-0.5500979;0.6405454;0.4299894;0;0;0;0.9872669;1.360556;0.1078988;1.27647;1.218769;0.1660539;1.899685;0.5647378;0.5009007;1.368074;-0.07121468;0.04183567;0.4043061;-0.7607222;-0.01353815;0.1510426;-2.187217;-0.2180622;-0.1628985;-3.448764;0.1316031;0.4043061;-0.7607222;-0.01353815;0.1510426;-2.187217;-0.2180622;-0.1628985;-3.448764;0.1316031
149994.021;NotLabelled;NONE;16384;0.7344939;-0.4265928;0.5277008;-0.008310249;-26;15;20;-1804;2498;2443;65536;0.7481494;-0.5027701;-0.4196676;0.1066482;-9;6;-43;-1867;2567;-974;8192;0.432133;-0.501385;-0.7296422;-0.1717452;-30;-41;-45;3196;2885;1235;32768;0.8110456;-0.4058172;-0.01523546;-0.4210526;-25;-55;16;2442;2658;-244;256;-0.1551246;0.1620499;-0.6759003;-0.7020221;3;7;5;-231;4156;-281;128;0.2036011;-0.1828255;0.5277008;0.8041475;-13;-2;-4;-399;3809;1536;4;0.6901178;-0.534626;0.3407202;0.3490305;1;9;-4;443;4054;662;16;0.5886427;-0.7437789;-0.1038781;-0.299169;3;0;3;605;3940;1018;2;0.3739612;-0.3933518;-0.5083103;-0.6686165;1;3;-1;-365;4054;-829;8;0.602493;-0.762031;-0.101108;-0.2146814;-1;0;1;431;3971;1105;0.7109287;-0.7271962;0.002738535;0.7168778;-0.1850505;0.06326884;0.7221096;0.2917194;0.1144645;0.7205551;1.025083;0.1397378;0.4611669;1.351798;0.1128575;0.120164;1.20876;0.1711344;-0.5589343;0.633646;0.4288144;0;0;0;0.9815097;1.352904;0.1128566;1.270731;1.211205;0.1711333;1.900261;0.5537505;0.4869217;1.358551;-0.08240795;0.04011083;0.3986865;-0.7681456;-0.009917796;0.1446034;-2.19464;-0.2134226;-0.1690679;-3.455762;0.1380141;0.3986865;-0.7681456;-0.009917796;0.1446034;-2.19464;-0.2134226;-0.1690679;-3.455762;0.1380141
150013.8076;NotLabelled;NONE;16384;0.738057;-0.4238227;0.5249307;-0.009695291;-26;8;20;-1654;2342;2257;65536;0.7438782;-0.5041551;-0.4252077;0.1080332;-14;8;-37;-2377;2383;-1380;8192;0.4404432;-0.5027701;-0.7243477;-0.1689751;-28;-28;-48;2990;2559;1147;32768;0.8119014;-0.4085872;-0.008310249;-0.4168975;-27;-45;17;2544;2708;-364;256;-0.1551246;0.1620499;-0.6759003;-0.7020221;1;1;4;-153;4108;-285;128;0.2036011;-0.1828255;0.5263157;0.8050548;-14;8;-3;-325;3851;1524;4;0.6908165;-0.534626;0.3407202;0.3476454;0;9;-1;481;4188;632;16;0.5886427;-0.7437789;-0.1038781;-0.299169;2;-2;2;549;3958;1018;2;0.3739612;-0.3933518;-0.5083103;-0.6686165;0;5;-1;-335;4026;-887;8;0.602493;-0.762031;-0.101108;-0.2146814;-1;0;1;383;3937;1105;0.7058727;-0.7350888;-0.0007324219;0.7118196;-0.1931405;0.06154048;0.7170495;0.2834625;0.1142688;0.7161285;1.016727;0.1422926;0.4570224;1.343765;0.11664;0.1158964;1.200804;0.1743826;-0.5675656;0.6280479;0.4257005;0;0;0;0.9773659;1.344422;0.1166393;1.266465;1.202254;0.1743817;1.900321;0.5423131;0.4760094;1.352561;-0.09362459;0.03631556;0.3936309;-0.7759972;-0.01353136;0.1403964;-2.203687;-0.2095712;-0.1750138;-3.466171;0.135361;0.3936309;-0.7759972;-0.01353136;0.1403964;-2.203687;-0.2095712;-0.1750138;-3.466171;0.135361
150035.0934;NotLabelled;NONE;16384;0.7435003;-0.4210526;0.5193906;-0.01246537;-11;12;22;-1428;2168;1789;65536;0.7406036;-0.5027701;-0.433518;0.1038781;-13;24;-22;-989;1269;-908;8192;0.4487534;-0.5041551;-0.718583;-0.16759;-26;-18;-50;2696;2451;1061;32768;0.8112502;-0.4113573;-0.002770083;-0.4155124;-30;-34;20;2328;2800;-836;256;-0.1565097;0.1634349;-0.6745152;-0.7027254;1;4;1;-95;3962;-259;128;0.2036011;-0.1842105;0.5249307;0.8056431;-5;3;-2;-461;3679;1410;4;0.6897424;-0.536011;0.3407202;0.3476454;0;5;0;369;4040;578;16;0.5900277;-0.7426807;-0.1038781;-0.299169;1;-5;1;653;3898;906;2;0.3725762;-0.3933518;-0.5083103;-0.6693893;1;4;0;-239;3978;-935;8;0.601108;-0.763124;-0.101108;-0.2146814;0;2;1;395;3917;1187;0.7003741;-0.7413397;-0.003269196;0.7063187;-0.199594;0.06074452;0.7115467;0.2768369;0.1150038;0.7106256;1.010102;0.1430277;0.4515195;1.337139;0.1173751;0.1103937;1.194178;0.1751177;-0.5780097;0.6236963;0.4179766;0;0;0;0.971863;1.337796;0.1173742;1.260962;1.195629;0.1751167;1.898027;0.5321007;0.4617407;1.343348;-0.1031661;0.02982116;0.3881328;-0.7822065;-0.01621035;0.1323231;-2.209609;-0.2109981;-0.1830871;-3.472093;0.133934;0.3881328;-0.7822065;-0.01621035;0.1323231;-2.209609;-0.2109981;-0.1830871;-3.472093;0.133934
150055.8146;NotLabelled;NONE;16384;0.7456246;-0.4224377;0.5152354;-0.01108033;0;12;34;-1068;1910;1697;65536;0.7394657;-0.5041551;-0.433518;0.1052632;-13;-2;-15;-1775;863;-1398;8192;0.4653739;-0.5027701;-0.7089167;-0.16759;-13;-18;-49;2324;2513;997;32768;0.8112254;-0.4155124;0.006925208;-0.4113573;-24;-27;18;2462;2468;-664;256;-0.1565097;0.1620499;-0.6745152;-0.7030461;0;2;1;-171;3926;-289;128;0.2036011;-0.1828255;0.5221606;0.8077559;-9;2;-3;-551;3717;1480;4;0.6897424;-0.536011;0.3407202;0.3476454;1;0;1;311;3916;718;16;0.5900277;-0.7434294;-0.1024931;-0.2977839;0;-12;0;871;3902;930;2;0.3711911;-0.3933518;-0.5083103;-0.6701584;1;5;0;-201;3988;-883;8;0.601108;-0.762733;-0.101108;-0.2160665;0;1;1;407;3943;1159;0.6977503;-0.7467008;-0.003586769;0.7036927;-0.2051578;0.06211829;0.7089189;0.271102;0.1178648;0.7085442;1.004283;0.1480003;0.4496818;1.331586;0.1232905;0.1084496;1.188714;0.1806225;-0.5854123;0.6203361;0.4126399;0;0;0;0.9700256;1.331856;0.1232898;1.259018;1.189307;0.1806215;1.898142;0.5203257;0.4494336;1.334928;-0.1143107;0.02775443;0.3855095;-0.7875271;-0.01666623;0.1330575;-2.216044;-0.207622;-0.1817591;-3.479557;0.1340697;0.3855095;-0.7875271;-0.01666623;0.1330575;-2.216044;-0.207622;-0.1817591;-3.479557;0.1340697
150075.8126;NotLabelled;NONE;16384;0.7469279;-0.4252077;0.5110803;-0.009695291;17;16;40;-894;1760;1371;65536;0.7375057;-0.5055401;-0.434903;0.1066482;-13;-7;-13;-2683;1215;-1880;8192;0.4709141;-0.5041551;-0.7039282;-0.1689751;0;-19;-47;2366;2691;961;32768;0.8111698;-0.4168975;0.01108033;-0.4099723;-17;-20;14;2530;2306;-810;256;-0.1565097;0.1620499;-0.6745152;-0.7030461;-1;0;4;-393;3958;-163;128;0.2049861;-0.1828255;0.5207756;0.8082996;-13;5;-4;-453;3797;1378;4;0.6908165;-0.534626;0.3407202;0.3476454;0;-3;2;335;3978;784;16;0.5914127;-0.7430719;-0.101108;-0.2963989;-1;-14;-1;843;3852;918;2;0.3711911;-0.3933518;-0.5083103;-0.6701584;1;5;0;-205;4080;-825;8;0.601108;-0.762733;-0.101108;-0.2160665;0;1;1;331;3965;1135;0.6921127;-0.7423635;-0.004744589;0.6980505;-0.2012582;0.06447661;0.7032723;0.2746286;0.1233155;0.7043414;1.007809;0.1534509;0.4461239;1.335622;0.1287412;0.1046109;1.193421;0.1860732;-0.5880123;0.6200547;0.4093536;0;0;0;0.9664673;1.334867;0.1287404;1.255179;1.191749;0.186072;1.894271;0.5109553;0.4234664;1.321423;-0.1224699;0.01309407;0.3798729;-0.7831039;-0.01811111;0.1278131;-2.211622;-0.2095844;-0.1867545;-3.474826;0.1334745;0.3798729;-0.7831039;-0.01811111;0.1278131;-2.211622;-0.2095844;-0.1867545;-3.474826;0.1334745
150116.9772;NotLabelled;NONE;16384;0.7496876;-0.433518;0.5;-0.005540166;20;27;37;-1224;2802;2057;65536;0.7339231;-0.5041551;-0.4418283;0.1094183;-6;11;-16;-2747;1917;-1940;8192;0.4806094;-0.5083103;-0.6922465;-0.1772853;19;-12;-47;2122;3005;979;32768;0.8088963;-0.4210526;0.01800554;-0.4099723;-15;-6;10;2744;2602;-820;256;-0.1551246;0.1606648;-0.6759003;-0.7023404;-5;-8;4;-97;3954;-239;128;0.2049861;-0.1828255;0.5207756;0.8082996;-1;1;-5;-431;3731;1386;4;0.6901664;-0.5318559;0.3421052;0.3518005;-4;-3;6;475;3948;630;16;0.5914127;-0.7445419;-0.09833795;-0.2936288;-5;-8;0;979;3730;1078;2;0.3711911;-0.3933518;-0.5083103;-0.6701584;1;3;0;-337;3998;-799;8;0.601108;-0.762733;-0.101108;-0.2160665;0;0;1;337;3923;1085;0.6847851;-0.7372003;-0.004870951;0.6907213;-0.1962409;0.0654791;0.6959418;0.2795229;0.125311;0.6970109;1.012703;0.1554465;0.4387934;1.340516;0.1307369;0.09728031;1.198315;0.1880688;-0.5919094;0.6187005;0.4057713;0;0;0;0.9591368;1.33976;0.1307359;1.247849;1.196643;0.1880677;1.883322;0.5089636;0.4151073;1.305771;-0.1233373;0.009621978;0.3725455;-0.7779126;-0.01832962;0.1163524;-2.205315;-0.212613;-0.1980672;-3.469235;0.1279364;0.3725455;-0.7779126;-0.01832962;0.1163524;-2.205315;-0.212613;-0.1980672;-3.469235;0.1279364
150157.9055;NotLabelled;NONE;16384;0.7524461;-0.4473684;0.4833795;0.005540166;33;2;49;-1794;2896;2649;65536;0.7311748;-0.5069252;-0.4432133;0.1094183;-13;-3;0;-1275;2873;-1658;8192;0.4889196;-0.5166205;-0.6760153;-0.1925208;30;-12;-38;2390;3101;1331;32768;0.80515;-0.4279778;0.02216066;-0.4099723;-18;1;2;2702;3282;-1086;256;-0.1537396;0.1551246;-0.6786703;-0.7012182;-7;-7;4;67;4198;-191;128;0.2063712;-0.1814404;0.5180055;0.8100374;-1;7;0;-503;3741;1670;4;0.6905249;-0.5304709;0.3421052;0.3531856;-3;2;5;561;4086;574;16;0.5914127;-0.7449026;-0.09556787;-0.2936288;-5;0;2;763;3890;1092;2;0.3698061;-0.3933518;-0.5083103;-0.6709237;2;3;-2;-241;4036;-747;8;0.601108;-0.7629153;-0.09972299;-0.2160665;0;-1;2;351;3875;1023;0.661618;-0.72825;0.007859647;0.667554;-0.1872907;0.07820976;0.6727747;0.2884731;0.1380416;0.6732988;1.021737;0.1660655;0.4148378;1.349286;0.1404129;0.07343067;1.206997;0.1981556;-0.6055335;0.6096234;0.399356;0;0;0;0.9351817;1.348917;0.140412;1.224;1.20618;0.1981543;1.841982;0.4979858;0.4098969;1.256684;-0.1335073;0.01438415;0.3493782;-0.7689624;-0.005599141;0.09275892;-2.195322;-0.2068545;-0.2211385;-3.458639;0.1364042;0.3493782;-0.7689624;-0.005599141;0.09275892;-2.195322;-0.2068545;-0.2211385;-3.458639;0.1364042
150199.8285;NotLabelled;NONE;16384;0.7551297;-0.4529086;0.4736842;0.0166205;15;-6;41;-1890;3414;2981;65536;0.7290504;-0.5138504;-0.4390582;0.1080332;-21;-16;14;-3087;3811;-2382;8192;0.4916897;-0.5221606;-0.6672753;-0.200831;26;-8;-29;2482;3355;1453;32768;0.8007589;-0.433518;0.02216066;-0.4127424;-17;14;-1;3220;3588;-1306;256;-0.1537396;0.1537396;-0.6800554;-0.7001806;-5;-3;5;-107;4068;-149;128;0.2063712;-0.1842105;0.5152354;0.8111781;-9;7;2;-471;3849;1748;4;0.6929749;-0.5290859;0.3407202;0.3518005;-4;8;0;475;3900;566;16;0.5886427;-0.7454471;-0.09556787;-0.2977839;-2;3;6;769;3768;1180;2;0.368421;-0.3919668;-0.5083103;-0.6724944;2;8;-4;-255;4026;-769;8;0.601108;-0.7625217;-0.09972299;-0.2174515;0;1;3;325;3919;1175;0.6286303;-0.6979737;0.02201122;0.6345621;-0.1573997;0.09526378;0.6397792;0.3180361;0.1576482;0.643486;1.051461;0.1807935;0.3864478;1.379951;0.1529635;0.0444284;1.239532;0.2116532;-0.6129759;0.610548;0.3863782;0;0;0;0.9067851;1.377323;0.1529627;1.194983;1.233722;0.2116522;1.779451;0.4953375;0.4152731;1.192589;-0.1405044;0.02915657;0.3163913;-0.7386131;0.008315861;0.06032019;-2.164118;-0.1995806;-0.261288;-3.425819;0.142481;0.3163913;-0.7386131;0.008315861;0.06032019;-2.164118;-0.1995806;-0.261288;-3.425819;0.142481
150220.7956;NotLabelled;NONE;16384;0.7567576;-0.4529086;0.4709141;0.02077562;5;-9;30;-1878;3400;3139;65536;0.7286003;-0.5180055;-0.434903;0.1080332;-18;-26;13;-3695;3783;-2354;8192;0.4930748;-0.5249307;-0.6632282;-0.2036011;22;-11;-23;2576;3459;1509;32768;0.7985362;-0.4362881;0.02216066;-0.4141274;-15;11;-4;3200;3608;-1540;256;-0.1537396;0.1523546;-0.6800554;-0.7004833;-4;-4;4;-37;4162;-85;128;0.2063712;-0.1855956;0.5138504;0.8117407;-13;5;3;-467;3821;1550;4;0.6929749;-0.5290859;0.3407202;0.3518005;-4;5;1;497;3822;532;16;0.5886427;-0.7452682;-0.09695291;-0.2977839;-2;8;7;553;3746;1150;2;0.367036;-0.3919668;-0.5083103;-0.6732513;2;10;-3;-287;4032;-743;8;0.601108;-0.7625217;-0.09972299;-0.2174515;0;2;3;329;3951;1069;0.6162684;-0.6698346;0.02340323;0.6221951;-0.129724;0.09999776;0.6274079;0.3453169;0.1653215;0.6319484;1.078819;0.1857044;0.3752816;1.407493;0.1566502;0.03310613;1.267684;0.2158846;-0.6097486;0.6200886;0.3761566;0;0;0;0.8956158;1.404275;0.1566339;1.183654;1.260569;0.2158498;1.748755;0.5080462;0.4223585;1.160713;-0.132525;0.04597664;0.3040304;-0.7103887;0.009435594;0.04246173;-2.134076;-0.2039984;-0.2874876;-3.392153;0.1434246;0.3040304;-0.7103887;0.009435594;0.04246173;-2.134076;-0.2039984;-0.2874876;-3.392153;0.1434246
150260.8512;NotLabelled;NONE;16384;0.7583631;-0.4515235;0.4695291;0.0235457;0;-5;19;-1852;3350;3041;65536;0.7268645;-0.5221606;-0.432133;0.1108033;-16;-28;7;-3895;3833;-2160;8192;0.4944598;-0.5263157;-0.6602364;-0.2063712;18;-8;-17;2676;3625;1493;32768;0.7978152;-0.4376731;0.02077562;-0.4141274;-12;11;-10;3064;3516;-1274;256;-0.1537396;0.1523546;-0.6800554;-0.7004833;-6;-1;2;81;4200;-135;128;0.2063712;-0.1869806;0.5138504;0.8114228;-10;4;2;-599;3729;1614;4;0.6929749;-0.5290859;0.3407202;0.3518005;-3;5;2;543;3746;546;16;0.5872576;-0.7452489;-0.09695291;-0.300554;-4;10;7;521;3656;1132;2;0.367036;-0.3905817;-0.5083103;-0.6740558;3;9;-2;-349;4070;-773;8;0.601108;-0.7621254;-0.09972299;-0.2188366;0;1;4;341;3905;1155;0.6145937;-0.6585221;0.02668232;0.6205178;-0.11865;0.1049429;0.6257284;0.3561869;0.1717319;0.6317184;1.089679;0.1921156;0.3757029;1.418859;0.1630542;0.03325002;1.279727;0.2222785;-0.6062799;0.6262374;0.3715484;0;0;0;0.8960294;1.414613;0.1630533;1.183781;1.270337;0.2222774;1.741462;0.5105848;0.4223843;1.15321;-0.1322937;0.05028909;0.3023563;-0.6990328;0.01257923;0.04122816;-2.12272;-0.2013943;-0.2873171;-3.381624;0.1443586;0.3023563;-0.6990328;0.01257923;0.04122816;-2.12272;-0.2013943;-0.2873171;-3.381624;0.1443586
150281.9277;NotLabelled;NONE;16384;0.7591746;-0.4515235;0.468144;0.02493075;-2;2;1;-1826;3232;2763;65536;0.7256905;-0.5249307;-0.4307479;0.1108033;-6;-3;0;-2799;3293;-1706;8192;0.4958449;-0.5277008;-0.6567711;-0.2105263;10;9;-12;2692;3559;1423;32768;0.7948968;-0.4418283;0.0166205;-0.4155124;-6;11;-13;2944;3304;-1024;256;-0.1551246;0.1523546;-0.6814404;-0.69883;-2;2;0;297;3982;-237;128;0.2063712;-0.1883656;0.5110803;0.8128507;-6;4;3;-637;3755;1634;4;0.6929749;-0.5290859;0.3407202;0.3518005;-2;6;2;483;3850;636;16;0.5872576;-0.7445072;-0.09833795;-0.301939;-5;8;7;735;3650;1082;2;0.367036;-0.3905817;-0.5083103;-0.6740558;2;7;-1;-429;4008;-869;8;0.601108;-0.7621254;-0.09972299;-0.2188366;0;0;4;411;3907;1115;0.6140096;-0.6544442;0.02832693;0.6199337;-0.1145649;0.1065352;0.6251444;0.3602786;0.1732783;0.6311343;1.093771;0.193662;0.3751187;1.422951;0.1646005;0.03266571;1.283819;0.2238248;-0.6063185;0.6285553;0.3675507;0;0;0;0.8954452;1.418705;0.1645997;1.183197;1.274429;0.2238238;1.734823;0.5096011;0.4213617;1.148433;-0.1358619;0.05080509;0.3017721;-0.6949563;0.01422799;0.04064405;-2.118644;-0.1997457;-0.2932855;-3.375461;0.1484318;0.3017721;-0.6949563;0.01422799;0.04064405;-2.118644;-0.1997457;-0.2932855;-3.375461;0.1484318
150302.1104;NotLabelled;NONE;16384;0.7591746;-0.4515235;0.468144;0.02493075;0;4;-1;-1694;3158;2613;65536;0.7256905;-0.5249307;-0.4307479;0.1108033;-3;1;0;-2473;2939;-1528;8192;0.4972299;-0.5277008;-0.6548274;-0.2132964;7;14;-11;2502;3489;1303;32768;0.7941532;-0.4432133;0.01523546;-0.4155124;-4;11;-12;3096;3222;-1024;256;-0.1565097;0.1523546;-0.6800554;-0.6998696;-1;6;0;155;4148;-207;128;0.2077562;-0.1897507;0.5110803;0.8121755;-3;7;4;-587;3809;1658;4;0.6936763;-0.5290859;0.3407202;0.3504155;-2;5;1;441;4034;660;16;0.5858725;-0.7452168;-0.09695291;-0.3033241;-5;3;7;701;3820;1068;2;0.365651;-0.3905817;-0.5083103;-0.6748081;3;3;-1;-317;4006;-819;8;0.601108;-0.7619063;-0.09833795;-0.2202216;0;-2;4;405;3951;1059;0.6130804;-0.6495924;0.02540773;0.6189992;-0.1102123;0.1069909;0.6242051;0.3642039;0.1767024;0.6309333;1.097777;0.1936909;0.3752476;1.427076;0.1631159;0.03265759;1.288564;0.2229966;-0.6048845;0.6314931;0.3648676;0;0;0;0.8955697;1.422307;0.1631149;1.183178;1.278018;0.222995;1.72693;0.5066161;0.4167713;1.144382;-0.1459022;0.05256546;0.3008441;-0.6900158;0.01103434;0.03928819;-2.113703;-0.2024161;-0.2948844;-3.370835;0.1443889;0.3008441;-0.6900158;0.01103434;0.03928819;-2.113703;-0.2024161;-0.2948844;-3.370835;0.1443889
150322.828;NotLabelled;NONE;16384;0.7591746;-0.4515235;0.468144;0.02493075;1;4;-1;-1614;3066;2431;65536;0.725508;-0.5263157;-0.4293629;0.1108033;-2;-4;1;-2471;2719;-1480;8192;0.4972299;-0.5263157;-0.6554891;-0.2146814;3;13;-9;2272;3311;1275;32768;0.7941785;-0.4432133;0.01385042;-0.4155124;-1;6;-7;2984;3160;-1194;256;-0.1578947;0.1537396;-0.6800554;-0.6992553;-1;8;0;83;4172;-221;128;0.2077562;-0.1911357;0.5110803;0.8118506;-2;8;4;-541;3891;1754;4;0.6929749;-0.5290859;0.3407202;0.3518005;0;2;1;481;4050;636;16;0.5858725;-0.7446515;-0.09695291;-0.3047091;-3;-5;5;759;3950;1192;2;0.365651;-0.3905817;-0.5083103;-0.6748081;2;3;-1;-307;4072;-909;8;0.601108;-0.7619063;-0.09833795;-0.2202216;0;0;4;439;3937;1049;0.6110373;-0.6512227;0.02391422;0.6169571;-0.111743;0.1048356;0.6221639;0.3627591;0.173965;0.63086;1.096258;0.1930877;0.3760599;1.42633;0.1634641;0.03309734;1.288564;0.2229324;-0.6041642;0.6314936;0.3660582;0;0;0;0.8963673;1.420164;0.163463;1.183586;1.27493;0.222931;1.722975;0.4994159;0.4124391;1.141585;-0.1556544;0.05097425;0.2988005;-0.6916633;0.009594589;0.03425205;-2.115056;-0.2021275;-0.3036786;-3.369767;0.149769;0.2988005;-0.6916633;0.009594589;0.03425205;-2.115056;-0.2021275;-0.3036786;-3.369767;0.149769
150342.8057;NotLabelled;NONE;16384;0.7583492;-0.4529086;0.468144;0.02493075;2;3;0;-1470;2880;2313;65536;0.7238813;-0.5290859;-0.4279778;0.1135734;-3;-16;3;-2569;2503;-1480;8192;0.4972299;-0.5263157;-0.6550339;-0.2160665;2;10;-4;2210;3335;1191;32768;0.7934753;-0.4432133;0.01246537;-0.4168975;1;7;-8;2996;3080;-1080;256;-0.1578947;0.1551246;-0.6800554;-0.6989494;0;9;0;-33;4184;-233;128;0.2077562;-0.1925208;0.5096953;0.8123939;-2;8;4;-523;3877;1758;4;0.6929749;-0.5290859;0.3407202;0.3518005;1;4;0;489;4020;756;16;0.5858725;-0.7453957;-0.09556787;-0.3033241;-3;-15;3;931;3830;1196;2;0.3642659;-0.3905817;-0.5083103;-0.6755568;2;5;-1;-217;3970;-989;8;0.601108;-0.7615047;-0.09833795;-0.2216066;0;0;4;435;3907;1133;0.6134368;-0.6491847;0.02346784;0.6193566;-0.1096973;0.1043368;0.6245635;0.3648114;0.17342;0.6331577;1.098329;0.1919039;0.3783113;1.428339;0.1619952;0.03536842;1.290576;0.2215869;-0.6013125;0.6335063;0.3672736;0;0;0;0.8986197;1.422246;0.1619947;1.185859;1.277102;0.2215862;1.725324;0.5008855;0.4079707;1.144335;-0.1552963;0.04788053;0.3012001;-0.6896267;0.009152442;0.03837048;-2.113314;-0.2027277;-0.3012078;-3.367495;0.1494716;0.3012001;-0.6896267;0.009152442;0.03837048;-2.113314;-0.2027277;-0.3012078;-3.367495;0.1494716
150362.8;NotLabelled;NONE;16384;0.7574924;-0.4529086;0.4695291;0.02493075;3;2;0;-1480;2786;2207;65536;0.7240602;-0.5304709;-0.4252077;0.1163435;-4;-25;2;-2641;2463;-1534;8192;0.4972299;-0.5263157;-0.6550339;-0.2160665;2;9;-1;2192;3339;1181;32768;0.7934959;-0.4432133;0.01108033;-0.4168975;6;5;-5;2986;3014;-1004;256;-0.1592798;0.1565097;-0.6800554;-0.6983261;0;9;0;-65;4050;-139;128;0.2077562;-0.1939058;0.5096953;0.8120644;-5;7;4;-541;3777;1730;4;0.6943549;-0.5290859;0.3393352;0.3504155;0;3;1;455;3990;790;16;0.5858725;-0.7457455;-0.09279778;-0.3033241;-3;-14;3;825;3882;1110;2;0.3642659;-0.3905817;-0.5083103;-0.6755568;2;6;0;-317;4036;-961;8;0.601108;-0.7611002;-0.09833795;-0.2229917;0;1;4;405;3941;1087;0.6124754;-0.6460752;0.01561731;0.6183926;-0.1068387;0.0981425;0.6235971;0.3674555;0.1686826;0.6307386;1.100988;0.187166;0.3752392;1.430493;0.1572575;0.03256988;1.292052;0.2168493;-0.6021079;0.6337285;0.3655843;0;0;0;0.8955586;1.42543;0.1572564;1.183085;1.280857;0.2168479;1.720765;0.5030818;0.4018922;1.139861;-0.1535673;0.04251671;0.3002392;-0.6864729;0.001167282;0.03697953;-2.11016;-0.2101782;-0.3009183;-3.364022;0.1447626;0.3002392;-0.6864729;0.001167282;0.03697953;-2.11016;-0.2101782;-0.3009183;-3.364022;0.1447626
150384.4912;NotLabelled;NONE;16384;0.7558293;-0.4556787;0.4695291;0.02493075;6;2;-2;-1532;2866;2247;65536;0.7229665;-0.533241;-0.4224377;0.1204986;0;-15;0;-2651;2723;-1768;8192;0.4958449;-0.5263157;-0.6556252;-0.2174515;4;9;1;2162;3373;1171;32768;0.793543;-0.4432133;0.006925208;-0.4168975;10;3;-5;2770;3024;-648;256;-0.1592798;0.1578947;-0.6800554;-0.6980142;0;8;-1;-89;4004;-193;128;0.2077562;-0.1952908;0.5083103;0.8126004;-8;7;4;-531;3713;1646;4;0.6936542;-0.5290859;0.3393352;0.3518005;0;4;1;573;3988;772;16;0.5858725;-0.7464784;-0.09141274;-0.301939;-3;-5;3;603;3870;1040;2;0.3628809;-0.3905817;-0.5083103;-0.6763018;2;7;0;-235;4064;-1003;8;0.601108;-0.7611002;-0.09833795;-0.2229917;0;1;4;477;3929;1095;0.614769;-0.6462574;0.01497781;0.6206862;-0.1070132;0.09745109;0.6258909;0.3672881;0.1679456;0.6329252;1.100838;0.1857843;0.3773773;1.430278;0.1555884;0.03472864;1.291841;0.2153047;-0.599378;0.634171;0.3692818;0;0;0;0.8976973;1.425292;0.1555874;1.185245;1.280814;0.2153034;1.723666;0.5030384;0.3981819;1.143169;-0.1547222;0.04018366;0.3025327;-0.6866565;0.0005320907;0.03659005;-2.109679;-0.2119273;-0.3040689;-3.361831;0.1463954;0.3025327;-0.6866565;0.0005320907;0.03659005;-2.109679;-0.2119273;-0.3040689;-3.361831;0.1463954
150404.2964;NotLabelled;NONE;16384;0.7557823;-0.4556787;0.4695291;0.02631579;6;2;-3;-1572;2910;2375;65536;0.7235421;-0.533241;-0.4210526;0.1218837;2;-9;0;-2725;2705;-1690;8192;0.4944598;-0.5263157;-0.6562102;-0.2188366;7;10;2;2154;3397;1221;32768;0.7935974;-0.4418283;0.005540166;-0.4182825;9;9;-6;2792;2982;-802;256;-0.1606648;0.1606648;-0.6786703;-0.6984127;0;8;-2;-13;4032;-135;128;0.2091413;-0.1966759;0.5069252;0.8127764;-2;7;5;-599;3731;1696;4;0.6936542;-0.5290859;0.3393352;0.3518005;0;6;2;661;3904;736;16;0.5858725;-0.7464784;-0.09141274;-0.301939;-3;0;4;763;3872;1088;2;0.3614958;-0.3905817;-0.5083103;-0.6770431;2;7;-1;-271;4010;-991;8;0.601108;-0.7608708;-0.09695291;-0.2243767;0;0;4;481;3855;1105;0.6129724;-0.6421494;0.007337511;0.6188867;-0.1031604;0.09146392;0.6240889;0.3709226;0.1634124;0.6296684;1.104485;0.1812508;0.3734677;1.433418;0.1510547;0.03109444;1.2943;0.210771;-0.5992427;0.6341515;0.3695365;0;0;0;0.8937966;1.429463;0.1510538;1.18163;1.285555;0.21077;1.718731;0.5071936;0.3950257;1.143066;-0.1538887;0.03534961;0.3007366;-0.6825042;-0.007242724;0.03691736;-2.105817;-0.2204028;-0.3020255;-3.357653;0.1406413;0.3007366;-0.6825042;-0.007242724;0.03691736;-2.105817;-0.2204028;-0.3020255;-3.357653;0.1406413
150424.8365;NotLabelled;NONE;16384;0.7540823;-0.4570637;0.4709141;0.02631579;5;0;-2;-1482;2942;2419;65536;0.7233074;-0.533241;-0.4210526;0.1232687;4;-6;0;-2649;2749;-1704;8192;0.4930748;-0.5263157;-0.6567888;-0.2202216;8;12;3;2080;3387;1231;32768;0.7936119;-0.4418283;0.002770083;-0.4182825;10;9;-7;2702;2940;-812;256;-0.1620499;0.1606648;-0.6786703;-0.6980926;0;8;-2;-7;4040;-141;128;0.2091413;-0.1980609;0.5069252;0.81244;-1;5;5;-553;3803;1628;4;0.6943549;-0.5290859;0.3393352;0.3504155;-1;9;3;607;3922;768;16;0.5858725;-0.7459166;-0.09141274;-0.3033241;-5;0;4;1067;3856;1080;2;0.3601108;-0.3905817;-0.5083103;-0.6777808;3;6;-1;-253;4034;-977;8;0.601108;-0.7608708;-0.09695291;-0.2243767;0;0;4;439;3939;1047;0.6153409;-0.6400008;0.005055547;0.6212536;-0.1011744;0.0902164;0.6264542;0.3727694;0.1630746;0.6311083;1.106284;0.1830245;0.3744935;1.434978;0.1537696;0.03229483;1.295259;0.213078;-0.5959832;0.633944;0.3751214;0;0;0;0.894827;1.431681;0.1537687;1.182841;1.287964;0.2130766;1.719361;0.5090151;0.3965433;1.142297;-0.1511102;0.03735;0.3031055;-0.6803269;-0.009608522;0.03800218;-2.103641;-0.2211695;-0.2987517;-3.355476;0.1419177;0.3031055;-0.6803269;-0.009608522;0.03800218;-2.103641;-0.2211695;-0.2987517;-3.355476;0.1419177
150444.8761;NotLabelled;NONE;16384;0.7540327;-0.4570637;0.4709141;0.02770083;5;0;-1;-1430;3014;2455;65536;0.7240894;-0.5318559;-0.4210526;0.1246537;4;-8;-1;-2695;2721;-1690;8192;0.4916897;-0.5263157;-0.657361;-0.2216066;10;11;4;2046;3329;1255;32768;0.7928852;-0.4418283;0;-0.4196676;10;17;-7;2724;3030;-1058;256;-0.1620499;0.1620499;-0.6786703;-0.6977724;0;9;-2;-59;4132;-131;128;0.2105263;-0.199446;0.5069252;0.8117431;0;7;5;-477;3865;1616;4;0.6957018;-0.5290859;0.3365651;0.3504155;-3;12;5;589;4032;688;16;0.5858725;-0.7456864;-0.08864266;-0.3047091;-6;-3;5;1135;3860;1138;2;0.3601108;-0.3905817;-0.5083103;-0.6777808;3;7;-2;-339;4046;-841;8;0.601108;-0.760461;-0.09695291;-0.2257618;0;1;4;379;3889;1083;0.6112207;-0.6419239;0.002015352;0.6171335;-0.1030889;0.08712399;0.6223342;0.370862;0.1599363;0.6283317;1.104384;0.1792304;0.372319;1.433522;0.1496832;0.02986551;1.294482;0.2091184;-0.5963221;0.6326013;0.3768443;0;0;0;0.8926454;1.429271;0.149682;1.180396;1.28508;0.2091168;1.715582;0.5055437;0.3939767;1.141517;-0.1567888;0.03404236;0.2989854;-0.6822515;-0.01264443;0.03091726;-2.105275;-0.2224154;-0.3081992;-3.356565;0.1403517;0.2989854;-0.6822515;-0.01264443;0.03091726;-2.105275;-0.2224154;-0.3081992;-3.356565;0.1403517
150465.9593;NotLabelled;NONE;16384;0.7523237;-0.4584487;0.4722992;0.02770083;5;0;-2;-1466;3066;2441;65536;0.7246534;-0.5318559;-0.4196676;0.1260388;5;-5;-1;-2679;2695;-1652;8192;0.4903047;-0.5263157;-0.6579269;-0.2229917;10;11;5;1964;3385;1287;32768;0.7921493;-0.4418283;-0.001385042;-0.4210526;9;13;-9;2400;2930;-478;256;-0.1620499;0.1634349;-0.6786703;-0.6974493;0;8;-2;-97;4132;-59;128;0.2105263;-0.200831;0.5069252;0.8114015;1;10;4;-469;3829;1600;4;0.6970654;-0.5290859;0.33518;0.3490305;-2;11;6;569;3936;740;16;0.5844875;-0.7469356;-0.08725762;-0.3047091;-7;0;6;1021;3862;1112;2;0.3587258;-0.3891967;-0.5083103;-0.6793103;3;7;-2;-293;4062;-877;8;0.601108;-0.760461;-0.09695291;-0.2257618;0;0;4;421;3947;1101;0.612114;-0.6419911;0.007017136;0.6180279;-0.1030502;0.09145337;0.6232297;0.3709908;0.1636744;0.6277718;1.104523;0.1829679;0.3711067;1.433153;0.1534204;0.02892978;1.293434;0.2128556;-0.5958244;0.6303864;0.3813166;0;0;0;0.8914406;1.429935;0.1534196;1.179477;1.286315;0.2128544;1.713331;0.5061903;0.3990774;1.141218;-0.1577301;0.03895897;0.2998784;-0.6823373;-0.007588074;0.03278946;-2.104605;-0.2236349;-0.3128301;-3.353601;0.1408992;0.2998784;-0.6823373;-0.007588074;0.03278946;-2.104605;-0.2236349;-0.3128301;-3.353601;0.1408992
150486.7992;NotLabelled;NONE;16384;0.7522714;-0.4584487;0.4722992;0.02908587;4;0;0;-1436;3026;2523;65536;0.7241662;-0.5318559;-0.4196676;0.1288089;2;-7;-1;-2691;2681;-1560;8192;0.4875346;-0.5263157;-0.6590397;-0.2257618;9;10;4;1792;3379;1389;32768;0.7914249;-0.4404432;-0.005540166;-0.4238227;7;11;-6;2766;2998;-1134;256;-0.1634349;0.1648199;-0.6786703;-0.6967998;-1;7;-2;-89;4154;-99;128;0.2105263;-0.2022161;0.5083103;0.8101901;2;6;4;-571;3767;1630;4;0.6987778;-0.5277008;0.333795;0.3490305;-3;11;8;601;4002;930;16;0.5844875;-0.7465298;-0.08587258;-0.3060942;-8;5;7;941;3876;1060;2;0.3587258;-0.3891967;-0.5083103;-0.6793103;1;9;-3;-217;4134;-945;8;0.601108;-0.7600484;-0.09695291;-0.2271468;0;0;5;449;3901;1121;0.6136072;-0.6404781;0.004576147;0.6195213;-0.1015296;0.08896083;0.6247231;0.3725185;0.1611364;0.6278093;1.106059;0.1804298;0.3704923;1.434179;0.1508822;0.02859337;1.293781;0.2103174;-0.594008;0.6301808;0.3844778;0;0;0;0.8908318;1.431993;0.1508812;1.179152;1.288946;0.2103159;1.711668;0.5082316;0.3979038;1.139645;-0.156177;0.0385437;0.3013716;-0.6808257;-0.01002482;0.03203133;-2.102426;-0.2276646;-0.3140503;-3.34947;0.1430587;0.3013716;-0.6808257;-0.01002482;0.03203133;-2.102426;-0.2276646;-0.3140503;-3.34947;0.1430587
150507.8197;NotLabelled;NONE;16384;0.7513707;-0.4598338;0.4722992;0.03047091;4;2;0;-1404;3082;2507;65536;0.7239184;-0.5318559;-0.4196676;0.1301939;1;-6;-1;-2683;2647;-1672;8192;0.4847645;-0.5277008;-0.6594994;-0.2271468;11;3;6;1906;3209;1273;32768;0.791414;-0.4404432;-0.006925208;-0.4238227;8;9;-6;2774;2992;-1072;256;-0.1648199;0.166205;-0.6786703;-0.6961443;-1;9;-1;9;4028;-117;128;0.2119114;-0.2049861;0.5083103;0.8091322;2;9;4;-479;3777;1564;4;0.7001272;-0.5277008;0.33241;0.3476454;-4;12;9;533;4004;814;16;0.5831025;-0.7464719;-0.08587258;-0.3088643;-8;14;9;795;3872;1072;2;0.3559557;-0.3878116;-0.5083103;-0.6815559;2;10;-2;-263;4036;-935;8;0.599723;-0.760727;-0.09695291;-0.2285319;0;1;4;443;3893;1105;0.6113592;-0.6424556;0.01021886;0.6172762;-0.1032357;0.09285235;0.6224806;0.3710446;0.1634877;0.6254494;1.104602;0.1821197;0.3680797;1.432654;0.1522773;0.02620337;1.292254;0.2118405;-0.5946002;0.6274872;0.3879531;0;0;0;0.8884195;1.430552;0.1522763;1.176763;1.287604;0.2118392;1.706571;0.5057125;0.4021661;1.136567;-0.1593571;0.04082799;0.299123;-0.6828504;-0.004239798;0.0255162;-2.102855;-0.2269162;-0.3242295;-3.348444;0.1452561;0.299123;-0.6828504;-0.004239798;0.0255162;-2.102855;-0.2269162;-0.3242295;-3.348444;0.1452561
150527.8214;NotLabelled;NONE;16384;0.7513707;-0.4598338;0.4722992;0.03047091;2;4;0;-1332;3034;2407;65536;0.7239184;-0.5318559;-0.4196676;0.1301939;0;-3;-2;-2609;2609;-1702;8192;0.4833795;-0.5277008;-0.6605152;-0.2271468;9;4;6;2026;3361;1395;32768;0.7914007;-0.4404432;-0.008310249;-0.4238227;8;5;-5;2680;3010;-940;256;-0.1648199;0.16759;-0.6786703;-0.6958122;-1;9;-1;-83;4024;-47;128;0.2132964;-0.2049861;0.5083103;0.8087682;1;10;4;-569;3809;1622;4;0.7007831;-0.5277008;0.3310249;0.3476454;-4;12;10;537;3904;700;16;0.5817174;-0.7462406;-0.08725762;-0.3116343;-8;19;9;773;3846;1142;2;0.3559557;-0.3878116;-0.5083103;-0.6815559;2;8;-3;-283;3948;-951;8;0.599723;-0.7609023;-0.09556787;-0.2285319;0;0;5;475;3869;1065;0.6083997;-0.6415834;0.01168549;0.6143179;-0.1022525;0.09359223;0.6195233;0.3721223;0.1635884;0.6223704;1.105697;0.1815532;0.3649464;1.433679;0.1514132;0.0230936;1.293277;0.211105;-0.5941002;0.6261353;0.3908915;0;0;0;0.8852863;1.431663;0.1514125;1.173654;1.288817;0.2111043;1.70148;0.5064988;0.405148;1.131889;-0.1596737;0.04519308;0.2961635;-0.6819983;-0.002714336;0.01988138;-2.101324;-0.226409;-0.3336681;-3.344679;0.1496203;0.2961635;-0.6819983;-0.002714336;0.01988138;-2.101324;-0.226409;-0.3336681;-3.344679;0.1496203
150548.8026;NotLabelled;NONE;16384;0.7513707;-0.4598338;0.4722992;0.03047091;1;5;1;-1376;3024;2411;65536;0.723668;-0.5318559;-0.4196676;0.1315789;0;-1;-2;-2623;2599;-1626;8192;0.4833795;-0.5277008;-0.6605152;-0.2271468;7;6;5;2032;3355;1401;32768;0.7906417;-0.4404432;-0.009695291;-0.4252077;7;6;-5;2728;2864;-906;256;-0.166205;0.1689751;-0.6786703;-0.6951474;-2;10;-1;-75;4072;-61;128;0.2146814;-0.2063712;0.5083103;0.8080492;1;9;4;-559;3713;1584;4;0.7031239;-0.5263157;0.3282548;0.3476454;-2;11;10;461;3826;632;16;0.5775623;-0.7475569;-0.08864266;-0.3157895;-10;11;8;911;3718;1208;2;0.3545706;-0.3864266;-0.5083103;-0.6830629;2;9;-2;-247;4004;-917;8;0.599723;-0.7609023;-0.09556787;-0.2285319;0;0;5;477;3911;1121;0.6106615;-0.6405721;0.01283067;0.6165807;-0.1011457;0.09410608;0.621787;0.3733106;0.1635468;0.6231748;1.10689;0.1815112;0.3650986;1.434359;0.1513711;0.02352584;1.293277;0.2110632;-0.5933018;0.6261358;0.3921021;0;0;0;0.8854417;1.433378;0.1513702;1.174093;1.291106;0.2110621;1.702761;0.5097542;0.4066994;1.134303;-0.1575198;0.04699373;0.2984249;-0.6810036;-0.001517773;0.02241737;-2.099934;-0.2280464;-0.3336293;-3.341945;0.1500613;0.2984249;-0.6810036;-0.001517773;0.02241737;-2.099934;-0.2280464;-0.3336293;-3.341945;0.1500613
150569.8068;NotLabelled;NONE;16384;0.7513707;-0.4598338;0.4722992;0.03047091;0;4;1;-1308;2994;2435;65536;0.723668;-0.5318559;-0.4196676;0.1315789;0;0;-2;-2671;2595;-1668;8192;0.4819945;-0.5277008;-0.6610494;-0.2285319;5;7;4;2000;3321;1381;32768;0.7906234;-0.4404432;-0.01108033;-0.4252077;5;7;-5;2804;2910;-882;256;-0.166205;0.1689751;-0.6786703;-0.6951474;-2;8;0;51;4018;-99;128;0.2146814;-0.2077562;0.5083103;0.8076942;3;8;4;-607;3733;1600;4;0.7037688;-0.5263157;0.3268698;0.3476454;0;11;12;507;3854;602;16;0.5761772;-0.7480392;-0.08864266;-0.3171745;-11;5;7;873;3772;1160;2;0.3531856;-0.3864266;-0.5083103;-0.68378;2;10;-3;-327;4016;-985;8;0.601108;-0.7599815;-0.09418282;-0.2285319;0;-1;5;467;3881;1123;0.6106049;-0.6420565;0.01541001;0.6165253;-0.1025276;0.09599924;0.6217327;0.3720174;0.1648365;0.6229931;1.105612;0.1821283;0.3648602;1.433009;0.1516886;0.02331203;1.291923;0.2115107;-0.5927783;0.6247816;0.3950423;0;0;0;0.8852032;1.432118;0.1516874;1.17388;1.289952;0.2115092;1.703334;0.5085998;0.4050064;1.134257;-0.1591787;0.04721963;0.2983682;-0.6825056;0.001117438;0.01881685;-2.099383;-0.2337646;-0.3403204;-3.337247;0.1548745;0.2983682;-0.6825056;0.001117438;0.01881685;-2.099383;-0.2337646;-0.3403204;-3.337247;0.1548745
150589.8146;NotLabelled;NONE;16384;0.7522395;-0.4598338;0.4709141;0.03047091;-1;6;1;-1420;3064;2459;65536;0.723668;-0.5318559;-0.4196676;0.1315789;-2;1;-2;-2687;2691;-1624;8192;0.4806094;-0.5277008;-0.6615774;-0.2299169;4;6;4;1870;3313;1359;32768;0.7898332;-0.4404432;-0.01385042;-0.4265928;3;8;-3;2684;2926;-918;256;-0.16759;0.1703601;-0.6786703;-0.6944765;-2;10;0;-33;4050;-117;128;0.2160665;-0.2091413;0.5096953;0.806093;5;9;4;-527;3817;1586;4;0.7050487;-0.5263157;0.3240997;0.3476454;0;12;14;581;3834;658;16;0.5747922;-0.748516;-0.08864266;-0.3185596;-13;3;7;793;3686;1124;2;0.3531856;-0.3850415;-0.5083103;-0.6845609;2;9;-3;-393;4012;-975;8;0.601108;-0.7595637;-0.09418282;-0.2299169;0;-1;4;545;3955;1047;0.6106063;-0.6420703;0.01551151;0.6165268;-0.1025333;0.09605044;0.6217342;0.3720174;0.1648436;0.6229947;1.105613;0.1821353;0.3648617;1.433009;0.1516955;0.02331361;1.291923;0.2115176;-0.5927786;0.6247816;0.3950424;0;0;0;0.8852048;1.432118;0.1516945;1.173881;1.289952;0.2115163;1.701573;0.5080147;0.4074512;1.134362;-0.1608644;0.04875755;0.2983696;-0.6825209;0.001222938;0.0195777;-2.098982;-0.2370443;-0.341799;-3.335137;0.1549446;0.2983696;-0.6825209;0.001222938;0.0195777;-2.098982;-0.2370443;-0.341799;-3.335137;0.1549446
150610.8016;NotLabelled;NONE;16384;0.7522395;-0.4598338;0.4709141;0.03047091;-1;6;1;-1428;3046;2481;65536;0.722863;-0.5318559;-0.4210526;0.1315789;-4;4;-1;-2593;2655;-1576;8192;0.4792244;-0.5277008;-0.6625813;-0.2299169;4;4;3;1862;3353;1331;32768;0.7898332;-0.4404432;-0.01385042;-0.4265928;2;7;-3;2666;2896;-968;256;-0.1703601;0.1731302;-0.6800554;-0.6917572;-4;9;0;-125;4084;-73;128;0.2188366;-0.2105263;0.5110803;0.8041058;6;8;3;-523;3819;1492;4;0.7056838;-0.5263157;0.3227147;0.3476454;0;11;17;655;3866;718;16;0.5734072;-0.7489874;-0.08864266;-0.3199446;-14;5;6;605;3760;1092;2;0.3518005;-0.3850415;-0.5083103;-0.6852737;2;6;-4;-253;4022;-971;8;0.601108;-0.7593136;-0.09279778;-0.2313019;0;0;5;485;3893;1131;0.6116974;-0.6419954;0.02342129;0.6176218;-0.1021075;0.1015691;0.6228324;0.3727436;0.168259;0.6239614;1.106355;0.1848724;0.3657697;1.433677;0.1541303;0.02424683;1.292585;0.2140833;-0.5911803;0.6247811;0.3974305;0;0;0;0.886113;1.43288;0.1541293;1.174815;1.29082;0.2140819;1.701535;0.5082979;0.4102938;1.135577;-0.16219;0.05262721;0.29946;-0.6825089;0.009327233;0.02123801;-2.098124;-0.2345719;-0.3407888;-3.332557;0.1622113;0.29946;-0.6825089;0.009327233;0.02123801;-2.098124;-0.2345719;-0.3407888;-3.332557;0.1622113
150631.8171;NotLabelled;NONE;16384;0.7531048;-0.4598338;0.4695291;0.03047091;-2;6;3;-1446;3058;2427;65536;0.722093;-0.533241;-0.4210526;0.1301939;-5;5;-1;-2617;2703;-1594;8192;0.4778393;-0.5277008;-0.6630994;-0.2313019;4;4;4;1910;3331;1223;32768;0.7890581;-0.4404432;-0.01523546;-0.4279778;2;7;-2;2714;2888;-874;256;-0.1703601;0.1731302;-0.6800554;-0.6917572;-4;8;0;-61;4096;-25;128;0.2202216;-0.2119114;0.5110803;0.8033635;8;8;3;-581;3817;1570;4;0.7062612;-0.5263157;0.3199446;0.3490305;2;11;19;645;3878;706;16;0.5720221;-0.7494534;-0.08864266;-0.3213296;-16;12;8;607;3830;1134;2;0.3518005;-0.3836565;-0.5083103;-0.6860501;1;7;-4;-237;4020;-965;8;0.601108;-0.7593136;-0.09279778;-0.2313019;0;0;5;511;3907;1089;0.6124769;-0.6434064;0.03276211;0.618406;-0.103086;0.1078622;0.6236207;0.3721337;0.1718717;0.6237824;1.105828;0.1843492;0.3651593;1.432631;0.1517645;0.02382283;1.291429;0.212515;-0.5901003;0.6236248;0.4008371;0;0;0;0.8855033;1.432519;0.1517637;1.174392;1.291181;0.2125136;1.703143;0.509624;0.4071062;1.134315;-0.1608639;0.05402124;0.3002386;-0.6839986;0.01891625;0.02081251;-2.099182;-0.2261049;-0.3402148;-3.331883;0.1769275;0.3002386;-0.6839986;0.01891625;0.02081251;-2.099182;-0.2261049;-0.3402148;-3.331883;0.1769275
150652.7943;NotLabelled;NONE;16384;0.7522573;-0.4612188;0.4695291;0.03047091;-2;6;3;-1478;3094;2461;65536;0.7212836;-0.533241;-0.4224377;0.1301939;-5;6;0;-2635;2711;-1632;8192;0.4778393;-0.5277008;-0.6630994;-0.2313019;3;3;4;1896;3299;1251;32768;0.7882773;-0.4404432;-0.0166205;-0.4293629;1;7;-2;2668;2890;-874;256;-0.1717452;0.1745152;-0.6800554;-0.6910664;-4;8;0;-17;4096;-91;128;0.2202216;-0.2119114;0.5124654;0.8024807;9;9;2;-535;3823;1570;4;0.7090155;-0.5249307;0.3130194;0.3518005;4;9;22;775;3978;730;16;0.566482;-0.7518646;-0.08864266;-0.3254848;-18;14;10;723;3932;1164;2;0.3518005;-0.3836565;-0.5083103;-0.6860501;1;7;-3;-281;3940;-993;8;0.601108;-0.7594815;-0.09141274;-0.2313019;0;0;5;581;3927;1109;0.6127404;-0.6407032;0.03355312;0.6186705;-0.1002855;0.1079495;0.6238861;0.3750172;0.1713399;0.6240478;1.108711;0.1838174;0.3654248;1.435514;0.1512327;0.02408835;1.294312;0.2119831;-0.5899459;0.6258497;0.3975849;0;0;0;0.8857688;1.435403;0.1512318;1.174658;1.294064;0.211982;1.701626;0.5119209;0.4090378;1.133623;-0.1590791;0.05559862;0.3005019;-0.6813135;0.01976451;0.02507095;-2.095865;-0.2332975;-0.3381809;-3.326821;0.1730549;0.3005019;-0.6813135;0.01976451;0.02507095;-2.095865;-0.2332975;-0.3381809;-3.326821;0.1730549
150672.799;NotLabelled;NONE;16384;0.7522573;-0.4612188;0.4695291;0.03047091;-2;6;3;-1414;3022;2325;65536;0.7215322;-0.533241;-0.4224377;0.1288089;-6;7;0;-2591;2601;-1612;8192;0.4764543;-0.5277008;-0.6640953;-0.2313019;4;3;5;1918;3287;1263;32768;0.7882773;-0.4404432;-0.0166205;-0.4293629;0;7;-2;2680;2926;-886;256;-0.1731302;0.1745152;-0.6800554;-0.6907207;-5;6;0;-51;4098;-61;128;0.2216066;-0.2132964;0.5138504;0.8008451;9;7;2;-499;3805;1576;4;0.71117;-0.5235457;0.3088643;0.3531856;4;8;26;869;3894;782;16;0.5637119;-0.7527418;-0.08864266;-0.3282548;-20;17;12;669;3860;1178;2;0.3518005;-0.3822715;-0.5083103;-0.6868228;1;6;-3;-363;3952;-1013;8;0.601108;-0.7590584;-0.09141274;-0.232687;0;-1;5;579;3895;1143;0.6097835;-0.6410012;0.03445929;0.6157162;-0.1003513;0.1071506;0.620934;0.3751488;0.1690415;0.6209455;1.108854;0.1808236;0.3622554;1.435574;0.1479293;0.02094797;1.294359;0.2088136;-0.590484;0.6246891;0.3986087;0;0;0;0.8825994;1.435568;0.1479284;1.171517;1.294346;0.2088122;1.699284;0.5122037;0.4037199;1.130681;-0.1593118;0.05222929;0.2975445;-0.6816549;0.0208098;0.02585603;-2.093039;-0.2531232;-0.3415267;-3.317485;0.1688831;0.2975445;-0.6816549;0.0208098;0.02585603;-2.093039;-0.2531232;-0.3415267;-3.317485;0.1688831
150692.8056;NotLabelled;NONE;16384;0.7531748;-0.4612188;0.468144;0.02908587;-1;8;0;-1544;2968;2307;65536;0.7212091;-0.533241;-0.4238227;0.1260388;-4;10;0;-2717;2765;-1662;8192;0.4750692;-0.5290859;-0.6639856;-0.2313019;3;1;4;1898;3327;1219;32768;0.7867317;-0.4404432;-0.01800554;-0.432133;0;6;-1;2814;2924;-910;256;-0.1731302;0.1745152;-0.6800554;-0.6907207;-5;6;0;-37;4062;-131;128;0.2229917;-0.2132964;0.5152354;0.7995697;8;7;2;-607;3755;1566;4;0.7109865;-0.5235457;0.3060942;0.3559557;5;6;31;857;3744;780;16;0.5609418;-0.7528233;-0.0900277;-0.33241;-24;22;13;775;3840;1130;2;0.3504155;-0.3822715;-0.5083103;-0.6875305;1;4;-3;-349;3982;-1067;8;0.601108;-0.7592239;-0.0900277;-0.232687;0;-2;5;509;3895;1201;0.6095996;-0.6413445;0.0392589;0.6155359;-0.1003757;0.109535;0.6207566;0.3753963;0.1693017;0.6220847;1.109112;0.1803828;0.3639814;1.436263;0.1471762;0.02242103;1.295719;0.2081953;-0.5886282;0.626049;0.3992193;0;0;0;0.8843246;1.435324;0.1471756;1.172989;1.293642;0.2081947;1.7016;0.5124655;0.404682;1.132294;-0.15905;0.0543319;0.29736;-0.6820588;0.02580619;0.02597346;-2.090844;-0.2614775;-0.3450616;-3.311675;0.1677454;0.29736;-0.6820588;0.02580619;0.02597346;-2.090844;-0.2614775;-0.3450616;-3.311675;0.1677454
150714.0256;NotLabelled;NONE;16384;0.7531748;-0.4612188;0.468144;0.02908587;0;7;0;-1538;3010;2327;65536;0.7216572;-0.5318559;-0.4252077;0.1246537;-2;11;0;-2577;2655;-1910;8192;0.4736842;-0.5304709;-0.66387;-0.2313019;5;3;4;1948;3345;1225;32768;0.7866988;-0.4404432;-0.01939058;-0.432133;0;7;-1;2838;2870;-868;256;-0.1745152;0.1759003;-0.6814404;-0.6886526;-6;5;0;-31;4114;-129;128;0.2243767;-0.2132964;0.5166205;0.7982876;11;3;1;-649;3731;1510;4;0.7123882;-0.5221606;0.301939;0.3587258;6;5;35;907;3838;748;16;0.5567867;-0.753894;-0.09141274;-0.3365651;-27;30;14;735;3810;1148;2;0.3504155;-0.3822715;-0.5069252;-0.6885524;1;3;-3;-251;3976;-1043;8;0.601108;-0.7592239;-0.0900277;-0.232687;1;0;5;481;3889;1139;0.6107512;-0.6408401;0.04330075;0.6166906;-0.09956789;0.1112037;0.6219143;0.376461;0.1688831;0.6232423;1.110177;0.1799639;0.365139;1.437327;0.1467575;0.02357883;1.296784;0.2077767;-0.5886615;0.6276102;0.3967115;0;0;0;0.885482;1.436389;0.1467564;1.174146;1.294707;0.2077751;1.701775;0.5137334;0.4076824;1.132251;-0.1577134;0.0575546;0.2985109;-0.681613;0.03004187;0.03369246;-2.089736;-0.2664714;-0.3430769;-3.307306;0.1669948;0.2985109;-0.681613;0.03004187;0.03369246;-2.089736;-0.2664714;-0.3430769;-3.307306;0.1669948
150739.1181;NotLabelled;NONE;16384;0.7523772;-0.4626039;0.468144;0.02770083;1;7;-2;-1652;3002;2313;65536;0.7231482;-0.5304709;-0.4252077;0.1218837;-2;17;3;-2223;3037;-1326;8192;0.4722992;-0.5304709;-0.6643726;-0.232687;5;2;5;1898;3357;1199;32768;0.7859364;-0.4404432;-0.01939058;-0.433518;0;7;0;2814;2802;-840;256;-0.1745152;0.1759003;-0.6814404;-0.6886526;-6;4;1;75;4066;-165;128;0.2257618;-0.2132964;0.5180055;0.7969984;13;4;1;-761;3715;1578;4;0.7143257;-0.5207756;0.2963989;0.3614958;6;5;38;917;3870;718;16;0.5526316;-0.754915;-0.09279778;-0.3407202;-30;41;14;533;3756;1150;2;0.3490305;-0.3808864;-0.5083103;-0.6890022;0;5;-2;-307;3992;-1061;8;0.601108;-0.7589611;-0.08864266;-0.234072;1;-1;4;589;3919;1083;0.6124886;-0.6415062;0.05280679;0.6184313;-0.09994078;0.1183292;0.6236576;0.3763371;0.1739153;0.6241204;1.110098;0.1815221;0.3656312;1.436784;0.1467693;0.02423716;1.296128;0.2084562;-0.5872422;0.6269536;0.3998408;0;0;0;0.885975;1.436459;0.1467683;1.174806;1.295408;0.208455;1.702254;0.514647;0.4096662;1.133176;-0.1579061;0.06093955;0.3002476;-0.6823368;0.03974229;0.03759196;-2.087839;-0.2707971;-0.342312;-3.300855;0.1725892;0.3002476;-0.6823368;0.03974229;0.03759196;-2.087839;-0.2707971;-0.342312;-3.300855;0.1725892
150758.7987;NotLabelled;NONE;16384;0.7523772;-0.4626039;0.468144;0.02770083;-1;5;-1;-1580;3258;2493;65536;0.7236097;-0.5304709;-0.4252077;0.1191136;-4;9;10;-2695;2999;-1886;8192;0.4709141;-0.5318559;-0.6642484;-0.232687;6;2;4;1874;3359;1149;32768;0.7851708;-0.4404432;-0.01939058;-0.434903;0;8;0;2796;2730;-878;256;-0.1759003;0.1759003;-0.6828254;-0.6869262;-5;4;1;99;4038;-85;128;0.2271468;-0.2132964;0.5193906;0.7957025;12;5;1;-691;3739;1658;4;0.7167547;-0.5180055;0.2867036;0.368421;13;4;44;1091;3694;778;16;0.5401662;-0.7571377;-0.101108;-0.3531856;-35;54;13;487;3828;1382;2;0.3490305;-0.3808864;-0.5083103;-0.6890022;0;4;-2;-317;3988;-1079;8;0.601108;-0.7589611;-0.08864266;-0.234072;1;-3;4;621;3883;1125;0.6147192;-0.6401472;0.05651122;0.620665;-0.09829855;0.1196465;0.6258939;0.3782201;0.1731332;0.6263567;1.111981;0.1807401;0.3678676;1.438666;0.1459872;0.02647357;1.298011;0.2076741;-0.5842273;0.6287904;0.4013695;0;0;0;0.8882114;1.438341;0.1459862;1.177043;1.29729;0.2076727;1.70271;0.5159531;0.4112916;1.132593;-0.1560144;0.0631336;0.3024775;-0.681035;0.0436419;0.04422003;-2.083189;-0.2851817;-0.3406723;-3.291584;0.166446;0.3024775;-0.681035;0.0436419;0.04422003;-2.083189;-0.2851817;-0.3406723;-3.291584;0.166446
150779.8112;NotLabelled;NONE;16384;0.7524269;-0.4626039;0.468144;0.02631579;-2;5;-4;-1732;2954;2429;65536;0.7242589;-0.5290859;-0.4265928;0.1163435;2;18;7;-2889;2887;-1892;8192;0.4709141;-0.5318559;-0.6637616;-0.234072;7;1;4;1794;3367;1113;32768;0.784402;-0.4404432;-0.01939058;-0.4362881;0;8;1;2876;2736;-888;256;-0.1772853;0.1745152;-0.6828254;-0.6869234;-6;4;3;43;4068;-161;128;0.2285319;-0.2132964;0.5207756;0.7943996;13;6;1;-753;3805;1572;4;0.7183414;-0.5166205;0.2797784;0.3725762;16;13;42;1157;3902;706;16;0.533241;-0.7590647;-0.1038781;-0.3587258;-34;44;10;771;3826;1470;2;0.3490305;-0.3808864;-0.5083103;-0.6890022;-1;3;-1;-495;3992;-1229;8;0.602493;-0.7580228;-0.08725762;-0.234072;2;-3;3;633;3951;1093;0.6161294;-0.6377425;0.06599951;0.6220782;-0.09562016;0.1267405;0.6273097;0.3811302;0.1781215;0.6283689;1.114918;0.1822434;0.3701468;1.441645;0.1459294;0.02863631;1.301561;0.2082702;-0.5813189;0.6314869;0.4013602;0;0;0;0.8904902;1.440896;0.1459501;1.179204;1.299906;0.2083172;1.704665;0.5178938;0.4098705;1.132824;-0.1534858;0.06340933;0.3038873;-0.6786866;0.05332604;0.05555613;-2.074286;-0.3092923;-0.3381851;-3.271594;0.163729;0.3038873;-0.6786866;0.05332604;0.05555613;-2.074286;-0.3092923;-0.3381851;-3.271594;0.163729
150799.9425;NotLabelled;NONE;16384;0.7516106;-0.4626039;0.4695291;0.02493075;0;0;-3;-1672;3012;2631;65536;0.7267128;-0.5263157;-0.4265928;0.1135734;2;12;5;-2521;2873;-1922;8192;0.468144;-0.533241;-0.6641199;-0.2354571;6;0;5;1844;3405;1133;32768;0.7828549;-0.4404432;-0.01939058;-0.4390582;0;8;3;2818;2768;-856;256;-0.1786704;0.1745152;-0.6828254;-0.6865644;-5;4;4;91;4090;-163;128;0.2299169;-0.2132964;0.5221606;0.7930896;14;9;1;-687;3805;1572;4;0.7185656;-0.5180055;0.2728532;0.3753462;21;15;38;1141;3948;650;16;0.5277008;-0.7607687;-0.1052632;-0.3628809;-35;35;6;783;3626;1876;2;0.3490305;-0.3795014;-0.5083103;-0.689766;-1;3;-1;-323;4004;-1179;8;0.602493;-0.7574329;-0.08864266;-0.2354571;2;1;3;605;3881;1031;0.6149254;-0.6418571;0.06914908;0.6208771;-0.09947157;0.1274894;0.6261111;0.377502;0.1767592;0.629954;1.111284;0.1801628;0.3729713;1.438952;0.1435401;0.03093477;1.300227;0.2060329;-0.5804583;0.6321654;0.4015374;0;0;0;0.8933081;1.43623;0.1435391;1.181488;1.294206;0.2060317;1.704336;0.5115466;0.4118205;1.131445;-0.1592417;0.06595027;0.3026826;-0.682857;0.05667219;0.06257124;-2.073886;-0.3283514;-0.3363204;-3.264026;0.158248;0.3026826;-0.682857;0.05667219;0.06257124;-2.073886;-0.3283514;-0.3363204;-3.264026;0.158248
150820.8016;NotLabelled;NONE;16384;0.7507436;-0.4626039;0.4709141;0.02493075;0;-2;-4;-1618;3070;2597;65536;0.7269278;-0.5263157;-0.4265928;0.1121884;4;7;5;-2577;2853;-1896;8192;0.466759;-0.534626;-0.6639812;-0.2354571;6;-1;6;1848;3489;1181;32768;0.7820765;-0.4404432;-0.01939058;-0.4404432;0;10;2;2770;2786;-868;256;-0.1800554;0.1745152;-0.6828254;-0.6862025;-5;5;5;183;4098;-73;128;0.2313019;-0.2146814;0.5235457;0.7913982;13;11;1;-735;3947;1560;4;0.7191954;-0.5180055;0.267313;0.3781163;25;15;36;1187;3992;738;16;0.5207756;-0.762958;-0.1094183;-0.367036;-34;47;6;21;3790;1802;2;0.3476454;-0.3795014;-0.5083103;-0.6904651;-1;7;-1;-355;3952;-1195;8;0.602493;-0.7574329;-0.08864266;-0.2354571;1;3;3;711;3913;961;0.61854;-0.6443605;0.07542974;0.6244945;-0.1017213;0.131362;0.6297308;0.3754659;0.1785144;0.6348758;1.109243;0.1811945;0.3784748;1.437331;0.1442502;0.03619312;1.299274;0.2068815;-0.5757489;0.6330504;0.4068878;0;0;0;0.898806;1.433685;0.1442492;1.186734;1.291212;0.2068801;1.707187;0.5082259;0.4174459;1.131523;-0.1613736;0.07388115;0.3062966;-0.6854153;0.06315011;0.07960086;-2.074358;-0.3372343;-0.3230798;-3.258112;0.1616661;0.3062966;-0.6854153;0.06315011;0.07960086;-2.074358;-0.3372343;-0.3230798;-3.258112;0.1616661
150840.7979;NotLabelled;NONE;16384;0.7507436;-0.4626039;0.4709141;0.02493075;1;-2;-6;-1510;3028;2585;65536;0.7287386;-0.5249307;-0.4252077;0.1121884;4;0;5;-2521;2709;-1856;8192;0.466759;-0.536011;-0.6628636;-0.2354571;6;-2;5;1962;3451;1159;32768;0.7812948;-0.4404432;-0.01939058;-0.4418283;-1;11;2;2858;2860;-972;256;-0.1828255;0.1745152;-0.6828254;-0.6854697;-6;8;4;203;4110;-131;128;0.2354571;-0.2146814;0.5235457;0.790172;8;13;0;-723;3823;1586;4;0.7190061;-0.5207756;0.2603878;0.3795014;30;21;33;1271;3898;620;16;0.5124654;-0.765546;-0.1163435;-0.3711911;-28;73;7;-363;3708;1630;2;0.3462604;-0.3767313;-0.5083103;-0.6926745;-2;12;-2;-555;3938;-1183;8;0.602493;-0.7570009;-0.08864266;-0.2368421;-1;4;1;617;3949;949;0.6182282;-0.6452408;0.07764345;0.6241854;-0.1023531;0.1311135;0.629424;0.3750424;0.1761005;0.6358691;1.108812;0.1780515;0.3800494;1.437316;0.1407828;0.03752419;1.299929;0.2035536;-0.5738674;0.6343846;0.4074673;0;0;0;0.9003735;1.432749;0.1407818;1.188049;1.289828;0.2035524;1.707922;0.5070968;0.4164793;1.130529;-0.1619039;0.07465684;0.3059841;-0.6863508;0.06556571;0.08765224;-2.072329;-0.3494694;-0.3144461;-3.250252;0.1635049;0.3059841;-0.6863508;0.06556571;0.08765224;-2.072329;-0.3494694;-0.3144461;-3.250252;0.1635049
150860.9885;NotLabelled;NONE;16384;0.7506785;-0.4612188;0.4722992;0.02631579;1;0;-5;-1332;3054;2617;65536;0.7293307;-0.5249307;-0.4238227;0.1135734;3;-2;4;-2491;2655;-2004;8192;0.4653739;-0.536011;-0.6638368;-0.2354571;6;0;4;2070;3483;1147;32768;0.7805099;-0.4404432;-0.01939058;-0.4432133;0;10;2;2866;2896;-966;256;-0.1842105;0.1745152;-0.6828254;-0.6850988;-6;8;5;195;4090;-159;128;0.2368421;-0.2160665;0.5249307;0.7884598;7;13;0;-715;3833;1582;4;0.7188606;-0.5263157;0.2451524;0.3822715;39;30;27;1123;3772;498;16;0.4986149;-0.7646584;-0.1357341;-0.3850415;-14;83;0;319;3546;1716;2;0.3448753;-0.3753462;-0.5096953;-0.6930995;-2;13;-2;-483;3932;-1193;8;0.602493;-0.7564027;-0.0900277;-0.2382271;-1;7;1;653;3923;961;0.618044;-0.6467733;0.08737093;0.6240035;-0.1036839;0.138749;0.629244;0.3738818;0.1818965;0.638282;1.107626;0.1823723;0.3836236;1.436957;0.1444492;0.04061703;1.300907;0.2075038;-0.5691158;0.6345725;0.4137904;0;0;0;0.9039282;1.430551;0.1444455;1.191099;1.286741;0.2074968;1.711247;0.5024734;0.4140024;1.131435;-0.1659255;0.07510889;0.3057995;-0.6879296;0.07546484;0.102025;-2.072842;-0.3503904;-0.2942209;-3.245409;0.1791397;0.3057995;-0.6879296;0.07546484;0.102025;-2.072842;-0.3503904;-0.2942209;-3.245409;0.1791397
150881.811;NotLabelled;NONE;16384;0.7506785;-0.4612188;0.4722992;0.02631579;0;0;-4;-1236;3014;2575;65536;0.7303255;-0.5235457;-0.4238227;0.1135734;1;-3;4;-2619;2649;-2138;8192;0.4639889;-0.5373961;-0.6631934;-0.2368421;7;1;4;2140;3469;1147;32768;0.7805026;-0.4390582;-0.01939058;-0.4445983;0;9;2;2878;2836;-966;256;-0.1855956;0.1745152;-0.6828254;-0.6847249;-4;8;5;119;4030;-181;128;0.2382271;-0.2160665;0.5249307;0.7880424;6;13;0;-671;3743;1546;4;0.7173954;-0.5304709;0.2382271;0.3836565;41;26;26;957;3742;544;16;0.4930748;-0.7648866;-0.1426593;-0.3891967;-9;67;-3;641;3520;1708;2;0.3434903;-0.3739612;-0.5096953;-0.6945345;-2;14;-2;-495;3974;-1103;8;0.601108;-0.7575038;-0.0900277;-0.2382271;-3;6;0;667;3939;981;0.619424;-0.6499801;0.09428251;0.625386;-0.1066618;0.1431783;0.6306286;0.3710961;0.184143;0.6409597;1.104824;0.1838725;0.3868818;1.434564;0.1456164;0.04363655;1.299182;0.208812;-0.5671291;0.6343431;0.4168569;0;0;0;0.9071742;1.427241;0.1456155;1.194092;1.28299;0.2088108;1.714265;0.5005221;0.4219751;1.132734;-0.1672726;0.08484054;0.307179;-0.6911902;0.08258027;0.1369105;-2.072603;-0.3686031;-0.2587673;-3.239871;0.1729231;0.307179;-0.6911902;0.08258027;0.1369105;-2.072603;-0.3686031;-0.2587673;-3.239871;0.1729231
150902.8056;NotLabelled;NONE;16384;0.7506056;-0.4598338;0.4736842;0.02770083;-3;2;0;-1074;3058;2607;65536;0.7315301;-0.5221606;-0.4238227;0.1121884;0;7;2;-2367;2519;-2106;8192;0.4612188;-0.5387812;-0.6635057;-0.2382271;8;6;4;1968;3355;1035;32768;0.7796615;-0.4376731;-0.02077562;-0.4473684;3;10;1;2796;2772;-828;256;-0.1869806;0.1745152;-0.6828254;-0.6843479;-3;8;5;99;4026;-173;128;0.2396122;-0.2160665;0.5235457;0.7885437;5;10;-1;-691;3715;1490;4;0.7165767;-0.534626;0.2313019;0.3836565;41;23;25;857;3832;530;16;0.4889196;-0.764105;-0.1495845;-0.3933518;-4;58;-4;531;3506;1632;2;0.3421052;-0.3725762;-0.5110803;-0.6949445;-2;15;-2;-463;3904;-1137;8;0.601108;-0.7570668;-0.0900277;-0.2396122;-3;5;0;611;3861;1135;0.6191348;-0.6520796;0.09911603;0.6250974;-0.1086974;0.1473019;0.6303406;0.3691134;0.1876423;0.6419625;1.102821;0.1866201;0.3884644;1.432968;0.1480298;0.04498246;1.298256;0.2113689;-0.5653597;0.6334162;0.4206538;0;0;0;0.9087431;1.42473;0.148029;1.195407;1.280039;0.2113678;1.712767;0.4963021;0.4267056;1.129422;-0.1694889;0.08874238;0.3068895;-0.693305;0.08747199;0.1566907;-2.074403;-0.3717319;-0.2362778;-3.239343;0.1767351;0.3068895;-0.693305;0.08747199;0.1566907;-2.074403;-0.3717319;-0.2362778;-3.239343;0.1767351
150923.8149;NotLabelled;NONE;16384;0.7514524;-0.4584487;0.4736842;0.02770083;-5;4;2;-1106;2970;2607;65536;0.732133;-0.5207756;-0.4252077;0.1094183;-2;11;2;-2317;2417;-1968;8192;0.4598338;-0.5387812;-0.6639682;-0.2396122;9;6;3;1870;3307;1041;32768;0.778827;-0.4376731;-0.02216066;-0.4487534;4;11;2;2802;2724;-828;256;-0.1883656;0.1745152;-0.6814404;-0.6853479;-3;7;5;95;3984;-183;128;0.2409972;-0.2174515;0.5235457;0.7877405;4;9;0;-705;3711;1560;4;0.7149217;-0.5387812;0.2243767;0.3850415;40;20;26;911;3926;598;16;0.4847645;-0.7639343;-0.1565097;-0.3961219;0;53;-7;437;3520;1658;2;0.3407202;-0.3711911;-0.5110803;-0.6963647;-2;13;-2;-515;3902;-1071;8;0.599723;-0.7579987;-0.09141274;-0.2396122;-3;3;0;623;3865;1109;0.6205167;-0.6532793;0.09966797;0.6264783;-0.1099882;0.1488688;0.6317207;0.3677464;0.1901018;0.644631;1.101431;0.1883217;0.3917123;1.431983;0.1493946;0.04799561;1.29794;0.2128787;-0.5625338;0.6338034;0.4238452;0;0;0;0.911976;1.422832;0.1493935;1.198387;1.277702;0.2128769;1.713351;0.4937081;0.4329677;1.129002;-0.1706133;0.09385026;0.3082716;-0.6944828;0.08794057;0.1760091;-2.075248;-0.3777345;-0.2149184;-3.239532;0.1735771;0.3082716;-0.6944828;0.08794057;0.1760091;-2.075248;-0.3777345;-0.2149184;-3.239532;0.1735771
150943.9467;NotLabelled;NONE;16384;0.7523237;-0.4584487;0.4722992;0.02770083;-7;5;5;-1124;2952;2617;65536;0.7323387;-0.5207756;-0.4252077;0.1080332;-4;13;2;-2353;2367;-1894;8192;0.4584487;-0.5387812;-0.6644245;-0.2409972;10;5;3;1818;3261;1033;32768;0.7780026;-0.4362881;-0.02216066;-0.4515235;5;11;2;2694;2684;-810;256;-0.1911357;0.1745152;-0.6814404;-0.6845806;-1;7;5;201;4002;-109;128;0.2451524;-0.2188366;0.5235457;0.786073;5;14;0;-731;3777;1478;4;0.7137978;-0.5415512;0.2188366;0.3864266;39;13;26;957;3832;504;16;0.4833795;-0.7626412;-0.1634349;-0.3975069;4;44;-11;461;3576;1600;2;0.3393352;-0.3698061;-0.5124654;-0.6967599;-3;8;0;-397;3984;-977;8;0.5983379;-0.7590925;-0.09141274;-0.2396122;-3;2;0;503;3965;1147;0.621051;-0.6555376;0.100279;0.6270133;-0.1121778;0.1487121;0.6322563;0.3656149;0.1892699;0.6471887;1.099263;0.1895006;0.3951843;1.430616;0.1514673;0.05109575;1.297347;0.2145669;-0.5608888;0.6344166;0.425108;0;0;0;0.9154207;1.420031;0.1514664;1.201427;1.273939;0.214566;1.714973;0.4894037;0.4360359;1.130749;-0.1754575;0.09776223;0.3088056;-0.6967578;0.08861464;0.1970018;-2.076761;-0.3846195;-0.1887301;-3.240776;0.1709041;0.3088056;-0.6967578;0.08861464;0.1970018;-2.076761;-0.3846195;-0.1887301;-3.240776;0.1709041
150965.8036;NotLabelled;NONE;16384;0.7540327;-0.4570637;0.4709141;0.02770083;-9;5;6;-1054;2850;2597;65536;0.7327197;-0.5193906;-0.4265928;0.1066482;-8;14;2;-2367;2453;-1908;8192;0.4570637;-0.5401662;-0.6637501;-0.2423823;10;4;3;1788;3329;995;32768;0.7779731;-0.434903;-0.02216066;-0.4529086;4;12;3;2752;2690;-746;256;-0.1939058;0.1759003;-0.6800554;-0.6848243;0;8;5;187;4060;-159;128;0.2465374;-0.2188366;0.5235457;0.7856397;6;13;0;-637;3759;1492;4;0.7095469;-0.5484765;0.2077562;0.3905817;37;10;22;1191;3848;438;16;0.4806094;-0.7602478;-0.1786704;-0.398892;18;48;-14;445;3572;1634;2;0.3393352;-0.368421;-0.5138504;-0.6964735;-3;8;0;-427;4002;-1011;8;0.5983379;-0.7590925;-0.09141274;-0.2396122;-2;3;0;571;3853;1057;0.6190526;-0.6551309;0.1084635;0.6250172;-0.1115766;0.1546673;0.630262;0.3663783;0.1932648;0.6477654;1.099968;0.1919514;0.3969198;1.432122;0.1532455;0.05237296;1.300193;0.2166583;-0.5580818;0.6357355;0.4268276;0;0;0;0.9171158;1.419713;0.1532171;1.202615;1.272754;0.2165961;1.716105;0.4867735;0.4330189;1.128343;-0.1754775;0.09575462;0.3068069;-0.6963983;0.09698236;0.2090973;-2.07506;-0.3832296;-0.1679717;-3.242539;0.1709713;0.3068069;-0.6963983;0.09698236;0.2090973;-2.07506;-0.3832296;-0.1679717;-3.242539;0.1709713
150985.9559;NotLabelled;NONE;16384;0.7557328;-0.4556787;0.4695291;0.02770083;-10;7;8;-1100;2912;2625;65536;0.7313256;-0.5207756;-0.4279778;0.1038781;-11;13;1;-2425;2487;-1842;8192;0.4556787;-0.5401662;-0.6641949;-0.2437673;10;4;2;1832;3379;991;32768;0.7771243;-0.434903;-0.0235457;-0.4542936;5;13;2;2732;2716;-804;256;-0.1952908;0.1759003;-0.6800554;-0.6844306;0;8;5;283;4034;-95;128;0.2479224;-0.2202216;0.5235457;0.7848164;3;10;1;-695;3801;1504;4;0.7082359;-0.5512465;0.2022161;0.3919668;36;10;20;1221;3880;344;16;0.4806094;-0.7585869;-0.1855956;-0.398892;24;39;-15;739;3544;1646;2;0.3379501;-0.368421;-0.5152354;-0.6961236;-3;8;1;-401;3998;-947;8;0.5983379;-0.7590925;-0.09141274;-0.2396122;-4;1;0;647;3847;1003;0.6207296;-0.6587601;0.1128601;0.6266949;-0.1151443;0.1583292;0.6319401;0.3628626;0.1962808;0.6512685;1.096408;0.1961708;0.4012535;1.429248;0.1579859;0.05637335;1.298072;0.2211507;-0.5557554;0.635025;0.4309021;0;0;0;0.9214171;1.415545;0.1579851;1.206544;1.267772;0.2211499;1.717195;0.4814715;0.4430563;1.126295;-0.1787715;0.1073425;0.3084837;-0.7000432;0.1014393;0.24678;-2.076344;-0.391356;-0.1090847;-3.25201;0.1595489;0.3084837;-0.7000432;0.1014393;0.24678;-2.076344;-0.391356;-0.1090847;-3.25201;0.1595489
151006.801;NotLabelled;NONE;16384;0.7583277;-0.4542936;0.466759;0.02631579;-9;12;9;-1236;2940;2519;65536;0.7302769;-0.5207756;-0.4307479;0.09972299;-14;13;0;-2409;2577;-1826;8192;0.4542936;-0.5401662;-0.6641213;-0.2465374;9;6;2;1924;3529;1093;32768;0.7762303;-0.433518;-0.02493075;-0.4570637;5;11;2;2836;2922;-870;256;-0.1966759;0.1759003;-0.6800554;-0.6840339;0;7;5;243;4022;-125;128;0.2493075;-0.2202216;0.5235457;0.7843776;0;10;1;-673;3795;1518;4;0.7057055;-0.5540166;0.1980609;0.3947368;36;10;18;1291;3920;274;16;0.4819945;-0.7563291;-0.1911357;-0.398892;29;33;-15;665;3626;1692;2;0.3379501;-0.367036;-0.5152354;-0.6968549;-4;8;1;-413;3874;-957;8;0.5969529;-0.7603474;-0.0900277;-0.2396122;-4;-2;0;675;3813;1083;0.6205379;-0.6579638;0.1143723;0.6265038;-0.1142821;0.1590515;0.6317497;0.3637791;0.1963085;0.6523572;1.09729;0.1954067;0.402922;1.430523;0.1568702;0.05781561;1.300017;0.2201863;-0.5559563;0.6375384;0.4269119;0;0;0;0.9230608;1.415914;0.1568692;1.207931;1.267711;0.2201848;1.717172;0.4808769;0.4434366;1.126389;-0.1799178;0.1086029;0.3082918;-0.6992636;0.1030164;0.2619688;-2.073689;-0.3966518;-0.08350046;-3.254643;0.1495393;0.3082918;-0.6992636;0.1030164;0.2619688;-2.073689;-0.3966518;-0.08350046;-3.254643;0.1495393
151028.5329;NotLabelled;NONE;16384;0.7600522;-0.4529086;0.4653739;0.02493075;-8;12;9;-1258;2808;2501;65536;0.7288412;-0.5221606;-0.432133;0.09695291;-15;14;0;-2491;2629;-1886;8192;0.4529086;-0.5415512;-0.6634234;-0.2479224;8;7;3;2006;3457;1131;32768;0.77614;-0.432133;-0.02631579;-0.4584487;5;11;0;2830;2952;-922;256;-0.1980609;0.1759003;-0.6786703;-0.6850091;0;8;5;285;4058;-127;128;0.2493075;-0.2216066;0.5235457;0.7839873;0;10;2;-649;3811;1486;4;0.704281;-0.5567867;0.1925208;0.3961219;39;9;17;1343;3904;218;16;0.4833795;-0.7543901;-0.1980609;-0.3975069;35;35;-13;537;3630;1608;2;0.3379501;-0.367036;-0.5166205;-0.6958287;-3;7;1;-419;3910;-1029;8;0.5969529;-0.7603474;-0.0900277;-0.2396122;-4;-2;0;597;3885;1141;0.6213259;-0.6583796;0.1185642;0.6272925;-0.1146374;0.1625004;0.6325389;0.3634744;0.199104;0.6544231;1.096946;0.197405;0.4055671;1.430572;0.1585141;0.06023603;1.300735;0.2219825;-0.5564065;0.6393509;0.4236036;0;0;0;0.9256798;1.415057;0.1585131;1.210294;1.266428;0.221981;1.715809;0.4775319;0.4464259;1.124031;-0.1818109;0.1104887;0.3090795;-0.6996946;0.1072697;0.2790925;-2.072598;-0.3978003;-0.05820319;-3.259401;0.1407689;0.3090795;-0.6996946;0.1072697;0.2790925;-2.072598;-0.3978003;-0.05820319;-3.259401;0.1407689
151048.9736;NotLabelled;NONE;16384;0.7608985;-0.4529086;0.4639889;0.02493075;-7;14;8;-1338;2826;2471;65536;0.7282013;-0.5221606;-0.433518;0.09556787;-16;13;-1;-2527;2603;-1830;8192;0.4515235;-0.5415512;-0.6638483;-0.2493075;8;7;3;2044;3535;1153;32768;0.7753202;-0.432133;-0.02631579;-0.4598338;5;9;0;2854;2992;-846;256;-0.200831;0.1759003;-0.6786703;-0.6842021;-1;9;3;199;4088;-171;128;0.2506925;-0.2243767;0.5221606;0.7836815;1;9;3;-729;3753;1558;4;0.7013208;-0.5609418;0.1883656;0.3975069;39;11;14;1381;3906;256;16;0.4861496;-0.7503718;-0.2063712;-0.3975069;41;43;-12;387;3670;1536;2;0.33518;-0.365651;-0.5180055;-0.6968672;-2;8;2;-381;4006;-1037;8;0.5955678;-0.7614328;-0.0900277;-0.2396122;-5;0;0;557;3909;1059;0.6211864;-0.6591606;0.114545;0.6271531;-0.1154146;0.1584296;0.6323996;0.3627009;0.1949878;0.6563152;1.096111;0.1952496;0.4083875;1.430527;0.15723;0.06269282;1.301479;0.2203236;-0.5566134;0.6418529;0.4195275;0;0;0;0.9284551;1.413572;0.1572292;1.212651;1.263986;0.2203227;1.715315;0.4739017;0.4469748;1.12358;-0.1845994;0.1093142;0.3089402;-0.7004766;0.1032547;0.2945299;-2.07116;-0.408485;-0.02943195;-3.26496;0.1227572;0.3089402;-0.7004766;0.1032547;0.2945299;-2.07116;-0.408485;-0.02943195;-3.26496;0.1227572
151069.8003;NotLabelled;NONE;16384;0.7617854;-0.4529086;0.4626039;0.0235457;-8;12;8;-1320;2838;2523;65536;0.7275556;-0.5221606;-0.434903;0.09418282;-15;11;-3;-2441;2701;-1872;8192;0.4501385;-0.5415512;-0.6647882;-0.2493075;8;8;4;2070;3583;1125;32768;0.7760424;-0.4307479;-0.02770083;-0.4598338;6;10;-1;2890;3010;-804;256;-0.2022161;0.1772853;-0.6772853;-0.6848089;0;9;2;161;4066;-131;128;0.2520775;-0.2257618;0.5221606;0.7828389;1;10;3;-711;3811;1592;4;0.6974877;-0.567867;0.1786704;0.398892;34;17;14;1555;3786;224;16;0.4903047;-0.7421329;-0.2229917;-0.398892;48;48;-10;515;3696;1610;2;0.33518;-0.365651;-0.5180055;-0.6968672;-1;9;2;-427;3956;-911;8;0.5955678;-0.7609956;-0.0900277;-0.2409972;-5;2;0;527;3851;1119;0.6178244;-0.6601596;0.1154065;0.6237903;-0.1164846;0.1601655;0.6290362;0.3615713;0.1974928;0.6554988;1.094893;0.1961318;0.408731;1.430083;0.1573911;0.06259501;1.302376;0.2207949;-0.5560615;0.6421032;0.4198766;0;0;0;0.9287366;1.411322;0.15739;1.212416;1.260889;0.2207935;1.714114;0.4702811;0.4477582;1.119985;-0.1876173;0.1131419;0.3055784;-0.7014575;0.1040441;0.3084925;-2.071792;-0.4088229;-0.002701718;-3.274853;0.1089904;0.3055784;-0.7014575;0.1040441;0.3084925;-2.071792;-0.4088229;-0.002701718;-3.274853;0.1089904
151089.7961;NotLabelled;NONE;16384;0.7643221;-0.4515235;0.4598338;0.02216066;-6;11;8;-1366;2842;2475;65536;0.7259071;-0.5235457;-0.4362881;0.09279778;-15;11;-4;-2363;2629;-1858;8192;0.4487534;-0.5415512;-0.6652036;-0.2506925;8;9;5;2060;3583;1099;32768;0.7751161;-0.4307479;-0.03047091;-0.4612188;6;11;-1;2842;3008;-824;256;-0.2036011;0.1786704;-0.6772853;-0.684038;0;11;1;191;4098;-163;128;0.2534626;-0.2271468;0.5221606;0.7819906;0;11;4;-691;3821;1548;4;0.6969664;-0.5706371;0.1717452;0.398892;33;18;14;1521;3822;172;16;0.4930748;-0.7377411;-0.2313019;-0.398892;51;48;-8;619;3842;1568;2;0.333795;-0.365651;-0.5193906;-0.696501;-2;10;1;-395;4028;-919;8;0.5941828;-0.7619126;-0.09141274;-0.2409972;-5;1;0;529;3885;1221;0.6180326;-0.6608968;0.1143602;0.6239992;-0.1171565;0.1583152;0.6292456;0.3609543;0.1949356;0.65626;1.094257;0.1955128;0.409748;1.429734;0.1576336;0.06351008;1.30212;0.2206673;-0.5555537;0.642355;0.4201632;0;0;0;0.9297394;1.410581;0.1576324;1.2133;1.259768;0.2206656;1.716315;0.4701557;0.4481784;1.122555;-0.1875048;0.1124417;0.3057863;-0.7022114;0.1030641;0.3406933;-2.069835;-0.415824;0.05033517;-3.289034;0.07567668;0.3057863;-0.7022114;0.1030641;0.3406933;-2.069835;-0.415824;0.05033517;-3.289034;0.07567668
151109.8138;NotLabelled;NONE;16384;0.7652026;-0.4529086;0.4570637;0.02077562;-4;11;8;-1368;2908;2427;65536;0.7235819;-0.5249307;-0.4390582;0.0900277;-13;7;-4;-2421;2597;-1806;8192;0.4459834;-0.5401662;-0.6671402;-0.2534626;7;11;7;1990;3469;1091;32768;0.7741168;-0.4293629;-0.033241;-0.4639889;7;15;-3;2840;2884;-776;256;-0.2049861;0.1786704;-0.6772853;-0.6836243;-1;10;1;197;4006;-195;128;0.2534626;-0.2285319;0.5207756;0.7825105;0;9;5;-655;3771;1550;4;0.6957033;-0.5734072;0.16759;0.398892;30;16;12;1409;3814;290;16;0.4972299;-0.7310684;-0.2409972;-0.400277;54;47;-6;671;3846;1560;2;0.33241;-0.3642659;-0.5207756;-0.6968549;-3;11;2;-319;4078;-897;8;0.5927978;-0.7629907;-0.09141274;-0.2409972;-5;3;0;563;3915;1227;0.6195022;-0.6605473;0.1167317;0.6254696;-0.1167421;0.1598784;0.6307166;0.3614225;0.195788;0.6575158;1.094733;0.1955387;0.4109025;1.430095;0.1573019;0.0647069;1.302451;0.2205063;-0.5559396;0.643527;0.4178534;0;0;0;0.9308995;1.411095;0.1572812;1.214509;1.260437;0.2204615;1.717494;0.4699616;0.4450288;1.124979;-0.1894364;0.1105011;0.3072558;-0.7018785;0.105502;0.3561825;-2.066202;-0.4208876;0.07890296;-3.294031;0.05647946;0.3072558;-0.7018785;0.105502;0.3561825;-2.066202;-0.4208876;0.07890296;-3.294031;0.05647946
151130.8029;NotLabelled;NONE;16384;0.7660645;-0.4529086;0.4556787;0.01939058;-2;12;8;-1338;2840;2381;65536;0.7237529;-0.5249307;-0.4390582;0.08864266;-13;7;-4;-2407;2611;-1812;8192;0.4432133;-0.5401662;-0.6684573;-0.2548476;8;10;7;1964;3531;1033;32768;0.7731609;-0.4293629;-0.03601108;-0.4653739;7;14;-5;2818;2866;-810;256;-0.2063712;0.1800554;-0.6759003;-0.6842147;0;11;0;151;4008;-185;128;0.2534626;-0.2299169;0.5207756;0.7821047;-1;9;5;-651;3773;1550;4;0.6944019;-0.5761772;0.1634349;0.398892;27;13;12;1397;3806;244;16;0.5;-0.7256124;-0.2493075;-0.4016621;56;47;-4;645;3872;1560;2;0.3310249;-0.3628809;-0.5221606;-0.6972003;-4;12;3;-273;4012;-963;8;0.5927978;-0.7629907;-0.09141274;-0.2409972;-6;4;0;497;3897;1159;0.6153055;-0.6587715;0.1125604;0.6212714;-0.1151013;0.1573768;0.6265172;0.3629508;0.1947544;0.6545823;1.096213;0.193675;0.4085481;1.431957;0.1550595;0.06213307;1.304982;0.2184093;-0.5583851;0.6449366;0.412383;0;0;0;0.9285115;1.412059;0.1550586;1.211861;1.260983;0.2184083;1.711962;0.4704285;0.4490538;1.120291;-0.1887169;0.1125412;0.3030595;-0.7000685;0.1011934;0.3641196;-2.063072;-0.427344;0.09752671;-3.301533;0.02814521;0.3030595;-0.7000685;0.1011934;0.3641196;-2.063072;-0.427344;0.09752671;-3.301533;0.02814521
151151.7909;NotLabelled;NONE;16384;0.7668867;-0.4529086;0.4542936;0.01939058;-1;12;7;-1318;2808;2353;65536;0.7219031;-0.5263157;-0.4404432;0.08864266;-11;6;-4;-2379;2505;-1832;8192;0.4418283;-0.5401662;-0.6693736;-0.2548476;8;11;8;1940;3469;1075;32768;0.7729599;-0.4279778;-0.03878116;-0.466759;8;15;-6;2778;2858;-780;256;-0.2077562;0.1828255;-0.6759003;-0.6830601;-1;13;-1;165;4076;-191;128;0.2562327;-0.234072;0.5193906;0.7808896;0;14;9;-645;3791;1496;4;0.6930621;-0.5789474;0.1592798;0.398892;25;17;11;1561;3756;106;16;0.5041551;-0.7195315;-0.2562327;-0.4030471;57;45;-1;667;3772;1512;2;0.3296399;-0.3628809;-0.5235457;-0.6968177;-3;14;4;-311;3994;-895;8;0.5914127;-0.7636266;-0.09141274;-0.2423823;-6;6;0;563;3817;1087;0.6177083;-0.65832;0.1114356;0.623674;-0.1146455;0.1562009;0.6289199;0.36341;0.1935336;0.6575427;1.096651;0.1943701;0.411768;1.432681;0.156606;0.06525001;1.305806;0.2195897;-0.5556697;0.6462593;0.413978;0;0;0;0.9317162;1.412388;0.1566051;1.214944;1.260932;0.2195889;1.714414;0.4708395;0.4531708;1.124027;-0.1900578;0.1178428;0.3054621;-0.6996179;0.1000728;0.3776527;-2.061216;-0.4306781;0.1211578;-3.307671;0.008514062;0.3054621;-0.6996179;0.1000728;0.3776527;-2.061216;-0.4306781;0.1211578;-3.307671;0.008514062
151191.8067;NotLabelled;NONE;16384;0.7677367;-0.4542936;0.4515235;0.01800554;0;13;7;-1254;2826;2367;65536;0.7212251;-0.5263157;-0.4418283;0.08725762;-12;4;-5;-2423;2545;-1822;8192;0.4404432;-0.5401662;-0.6697575;-0.2562327;8;11;8;1966;3457;1049;32768;0.7719777;-0.4279778;-0.04155125;-0.468144;7;14;-7;2766;2834;-786;256;-0.2091413;0.1855956;-0.6745152;-0.6832594;-2;14;-2;191;4026;-153;128;0.2562327;-0.2354571;0.5193906;0.7804731;0;14;8;-623;3727;1510;4;0.6928462;-0.5803324;0.1551246;0.398892;22;14;9;1527;3820;116;16;0.5083103;-0.712792;-0.2645429;-0.4044321;59;43;0;675;3852;1640;2;0.3254848;-0.3601108;-0.5263157;-0.6981201;-3;14;3;-415;3948;-997;8;0.5886427;-0.7651575;-0.09279778;-0.2437673;-9;6;0;545;3813;1099;0.6182171;-0.6565661;0.110695;0.6241829;-0.1128945;0.1554947;0.6294287;0.3651581;0.1928579;0.6563425;1.098465;0.1928517;0.4097836;1.433878;0.1547132;0.06356512;1.306267;0.2178583;-0.5563138;0.64608;0.4133903;0;0;0;0.9297774;1.414796;0.154712;1.21336;1.264072;0.2178566;1.714646;0.4749756;0.4509053;1.124741;-0.186275;0.1154252;0.3059711;-0.6978631;0.09932941;0.3882231;-2.057971;-0.4337748;0.1404924;-3.312733;-0.01362176;0.3059711;-0.6978631;0.09932941;0.3882231;-2.057971;-0.4337748;0.1404924;-3.312733;-0.01362176
151212.8182;NotLabelled;NONE;16384;0.7685496;-0.4542936;0.4501385;0.01800554;1;12;7;-1292;2912;2341;65536;0.7193608;-0.5277008;-0.4432133;0.08725762;-12;3;-5;-2331;2529;-1828;8192;0.4376731;-0.5401662;-0.6710408;-0.2576177;7;12;8;2004;3417;1125;32768;0.7710602;-0.4279778;-0.04293629;-0.4695291;7;15;-7;2820;2852;-770;256;-0.2105263;0.1869806;-0.6745152;-0.682456;-2;15;-2;231;3986;-135;128;0.2576177;-0.2382271;0.5193906;0.7791755;1;14;9;-693;3737;1528;4;0.6913661;-0.5844875;0.1495845;0.3975069;17;18;4;1417;3806;198;16;0.5180055;-0.6996284;-0.2783934;-0.4058172;64;32;3;639;3870;1458;2;0.3240997;-0.3587258;-0.5277008;-0.6984318;-3;15;3;-431;3982;-947;8;0.5872576;-0.7660519;-0.09418282;-0.2437673;-10;8;0;623;3867;1079;0.61779;-0.6541014;0.1054389;0.6237558;-0.1104255;0.1501876;0.6290017;0.367631;0.1875057;0.6549946;1.100968;0.1893985;0.4080181;1.436169;0.1521047;0.06195445;1.307961;0.2148875;-0.5549907;0.6463323;0.4147744;0;0;0;0.9280356;1.41774;0.1521026;1.211802;1.26721;0.2148834;1.713962;0.4775605;0.4441531;1.124669;-0.185452;0.1110835;0.3055439;-0.6953998;0.09407747;0.3935908;-2.053099;-0.4442143;0.156678;-3.316692;-0.04479961;0.3055439;-0.6953998;0.09407747;0.3935908;-2.053099;-0.4442143;0.156678;-3.316692;-0.04479961
151233.8246;NotLabelled;NONE;16384;0.7685246;-0.4570637;0.4473684;0.01800554;3;14;7;-1258;2826;2447;65536;0.7174863;-0.5290859;-0.4445983;0.08725762;-11;0;-5;-2223;2429;-1928;8192;0.434903;-0.5387812;-0.673418;-0.2590028;8;14;9;2020;3447;1111;32768;0.7698066;-0.4265928;-0.04847645;-0.4722992;8;16;-9;2822;2888;-918;256;-0.2119114;0.1883656;-0.6745152;-0.6816459;-2;15;-3;149;4010;-163;128;0.2576177;-0.2396122;0.5193906;0.7787506;1;14;10;-613;3725;1520;4;0.6904067;-0.5872576;0.1468144;0.3961219;15;15;2;1425;3766;70;16;0.5235457;-0.6932489;-0.2839335;-0.4058172;65;29;3;521;3812;1432;2;0.3227147;-0.3587258;-0.5290859;-0.6980252;-3;17;3;-473;3978;-933;8;0.5858725;-0.7666703;-0.09418282;-0.2451524;-10;8;0;551;3843;1157;0.6171348;-0.6536651;0.1102567;0.6231015;-0.1099181;0.1541331;0.628348;0.3681974;0.1906844;0.6541104;1.101544;0.1917233;0.4070271;1.436624;0.1540493;0.06100601;1.30838;0.2169945;-0.5565006;0.6461315;0.4130603;0;0;0;0.9270506;1.418359;0.1540484;1.210866;1.267991;0.2169935;1.711022;0.4788303;0.4522469;1.121185;-0.1847801;0.1213353;0.3048885;-0.6949811;0.09896702;0.4077969;-2.051501;-0.4396643;0.1883879;-3.331461;-0.0848572;0.3048885;-0.6949811;0.09896702;0.4077969;-2.051501;-0.4396643;0.1883879;-3.331461;-0.0848572
151254.8133;NotLabelled;NONE;16384;0.7685046;-0.4584487;0.4459834;0.01800554;5;14;8;-1148;2856;2339;65536;0.7164629;-0.5304709;-0.4445983;0.08725762;-13;0;-2;-2197;2423;-1724;8192;0.432133;-0.5387812;-0.6746659;-0.2603878;8;17;9;1992;3409;1059;32768;0.7702998;-0.4252077;-0.05263158;-0.4722992;10;17;-10;2852;2844;-1008;256;-0.2132964;0.1897507;-0.6745152;-0.6808293;-1;15;-2;153;4014;-215;128;0.2590028;-0.2423823;0.5193906;0.7774329;1;14;10;-725;3695;1616;4;0.690604;-0.5886427;0.1440443;0.3947368;15;12;0;1577;3800;98;16;0.5277008;-0.6877857;-0.2894737;-0.4058172;66;28;4;363;3810;1416;2;0.3213296;-0.3573407;-0.5304709;-0.6983234;-2;18;2;-425;3908;-959;8;0.5844875;-0.7675555;-0.09556787;-0.2451524;-11;8;0;501;3837;1217;0.6116482;-0.6499124;0.1093001;0.6176149;-0.1061616;0.1531265;0.6228614;0.3719578;0.1896337;0.648388;1.105313;0.1898143;0.4011955;1.440269;0.1517586;0.05521844;1.311988;0.2148681;-0.5580239;0.6459103;0.4113468;0;0;0;0.9212245;1.422171;0.1517576;1.205091;1.271969;0.2148666;1.706008;0.4838696;0.4520514;1.119977;-0.1818871;0.1186985;0.299402;-0.6912298;0.0980145;0.4097118;-2.047887;-0.4388011;0.1992227;-3.335345;-0.1064253;0.299402;-0.6912298;0.0980145;0.4097118;-2.047887;-0.4388011;0.1992227;-3.335345;-0.1064253
151274.9061;NotLabelled;NONE;16384;0.7692793;-0.4598338;0.4432133;0.01800554;4;16;10;-1190;2850;2441;65536;0.7154353;-0.5318559;-0.4445983;0.08725762;-13;-5;-4;-2389;2491;-1798;8192;0.4307479;-0.5373961;-0.6761188;-0.2617728;8;18;9;1940;3457;1039;32768;0.7692544;-0.4252077;-0.05540166;-0.4736842;12;16;-10;2898;2764;-964;256;-0.2146814;0.1925208;-0.6731302;-0.6809871;-1;15;-3;153;4008;-189;128;0.2590028;-0.2451524;0.5180055;0.7774884;-3;15;11;-671;3689;1642;4;0.6907845;-0.5900277;0.1412742;0.3933518;14;13;0;1527;3706;12;16;0.533241;-0.6805249;-0.2963989;-0.4058172;67;28;4;253;3930;1310;2;0.3185596;-0.3559557;-0.5318559;-0.6992458;-3;17;4;-399;4006;-979;8;0.5817174;-0.7692145;-0.09556787;-0.2465374;-12;8;0;513;3897;1217;0.6101191;-0.6471214;0.110211;0.6160866;-0.1033006;0.1531616;0.6213338;0.3748765;0.1888987;0.6466194;1.108241;0.1882136;0.3993151;1.44307;0.1497733;0.05338266;1.314749;0.2130481;-0.5573199;0.6467652;0.4109577;0;0;0;0.9193503;1.425143;0.1497723;1.203269;1.275108;0.2130466;1.703553;0.4874682;0.4530777;1.121527;-0.1803832;0.116912;0.2978727;-0.688457;0.09899741;0.411258;-2.044458;-0.4388345;0.2099603;-3.337963;-0.1247443;0.2978727;-0.688457;0.09899741;0.411258;-2.044458;-0.4388345;0.2099603;-3.337963;-0.1247443
151294.9689;NotLabelled;NONE;16384;0.7708998;-0.4598338;0.4404432;0.0166205;3;16;12;-1250;2902;2447;65536;0.7135398;-0.533241;-0.4459834;0.08725762;-15;-2;-5;-2617;2619;-1934;8192;0.4279778;-0.536011;-0.6778969;-0.2645429;9;18;8;1834;3511;1141;32768;0.769814;-0.4238227;-0.05817174;-0.4736842;13;15;-11;2846;2764;-958;256;-0.2160665;0.1966759;-0.6717451;-0.6807293;1;15;-4;137;4004;-253;128;0.2603878;-0.2506925;0.5152354;0.7770997;-4;13;11;-597;3645;1638;4;0.6894809;-0.5927978;0.1398892;0.3919668;13;10;-1;1475;3622;30;16;0.5387812;-0.6730689;-0.3033241;-0.4058172;68;29;6;151;3900;1146;2;0.3157895;-0.3531856;-0.534626;-0.6997942;-3;15;5;-537;3950;-905;8;0.5775623;-0.7715477;-0.09833795;-0.2479224;-14;11;0;471;3925;1235;0.6099868;-0.6427245;0.1054594;0.6159529;-0.09903336;0.1500217;0.6211989;0.3790355;0.1871758;0.6455672;1.112431;0.1883616;0.3978477;1.447047;0.1507528;0.05207067;1.318133;0.21367;-0.5558154;0.6476097;0.4116647;0;0;0;0.9179046;1.42977;0.1507518;1.202005;1.27993;0.2136686;1.703137;0.4923372;0.4520798;1.12174;-0.1772966;0.1183807;0.2977408;-0.6840267;0.09411338;0.4131576;-2.039366;-0.4449534;0.22356;-3.340272;-0.1550865;0.2977408;-0.6840267;0.09411338;0.4131576;-2.039366;-0.4449534;0.22356;-3.340272;-0.1550865
151315.9557;NotLabelled;NONE;16384;0.7716497;-0.4612188;0.4376731;0.0166205;3;15;13;-1278;2940;2471;65536;0.7118022;-0.534626;-0.4473684;0.08587258;-15;0;-7;-2591;2711;-2036;8192;0.4252077;-0.534626;-0.680188;-0.265928;9;18;8;1840;3479;1115;32768;0.7695075;-0.4224377;-0.06094183;-0.4750692;13;15;-11;2812;2788;-960;256;-0.2174515;0.1980609;-0.6717451;-0.6798862;2;14;-5;99;3942;-253;128;0.2603878;-0.2534626;0.5138504;0.7771182;-4;12;12;-657;3663;1614;4;0.6884354;-0.5955678;0.1371191;0.3905817;10;3;-4;1429;3586;52;16;0.5498615;-0.6582111;-0.3157895;-0.4058172;65;27;5;89;3928;1042;2;0.3144044;-0.3531856;-0.534626;-0.7004176;-3;12;5;-487;3990;-969;8;0.5761772;-0.7721368;-0.09833795;-0.2493075;-15;13;0;445;3853;1287;0.6112012;-0.6414113;0.0909031;0.617165;-0.09792471;0.1378955;0.6224091;0.3799734;0.1771865;0.6443745;1.113439;0.1802329;0.395566;1.447336;0.1434295;0.050203;1.317132;0.2059618;-0.5557665;0.6473427;0.4121503;0;0;0;0.915677;1.431763;0.1434724;1.200257;1.282695;0.2060579;1.70261;0.4956698;0.4437714;1.122066;-0.1748815;0.1104283;0.2989556;-0.682662;0.07935709;0.4181615;-2.039178;-0.4559117;0.2407402;-3.346986;-0.1904187;0.2989556;-0.682662;0.07935709;0.4181615;-2.039178;-0.4559117;0.2407402;-3.346986;-0.1904187
151335.8474;NotLabelled;NONE;16384;0.7731646;-0.4626039;0.433518;0.0166205;1;12;13;-1358;3058;2499;65536;0.7091737;-0.534626;-0.4515235;0.08587258;-11;8;-9;-2621;2803;-2152;8192;0.4224377;-0.533241;-0.681363;-0.2700831;8;19;6;1774;3445;1137;32768;0.7697081;-0.4196676;-0.06648199;-0.4764543;14;13;-11;2856;2738;-1074;256;-0.2174515;0.200831;-0.6703601;-0.6804404;3;15;-6;157;3994;-273;128;0.2603878;-0.2562327;0.5138504;0.7762092;-5;13;12;-631;3739;1554;4;0.68802;-0.5969529;0.1371191;0.3891967;11;2;-6;1511;3624;8;16;0.5540166;-0.651332;-0.3227147;-0.4058172;66;27;4;-57;3866;1004;2;0.3130194;-0.3531856;-0.536011;-0.6999792;-4;10;6;-369;3992;-997;8;0.5734072;-0.7729413;-0.101108;-0.2520775;-15;17;1;423;3895;1335;0.6102065;-0.636508;0.09559071;0.6161689;-0.09316254;0.1441849;0.6214116;0.3846183;0.1848845;0.6431265;1.118093;0.1870474;0.3941995;1.451862;0.1498731;0.04888871;1.321614;0.2126035;-0.5562816;0.6483998;0.4097863;0;0;0;0.9143157;1.436467;0.1498718;1.198954;1.287571;0.2126018;1.700076;0.5004816;0.4526888;1.120665;-0.1704502;0.1181403;0.2979614;-0.6777248;0.08391327;0.4246714;-2.034275;-0.4495431;0.2663094;-3.353786;-0.2347458;0.2979614;-0.6777248;0.08391327;0.4246714;-2.034275;-0.4495431;0.2663094;-3.353786;-0.2347458
151356.8029;NotLabelled;NONE;16384;0.7738826;-0.4639889;0.4307479;0.0166205;1;10;14;-1376;2982;2565;65536;0.7094997;-0.533241;-0.4529086;0.08448754;-10;11;-11;-2595;2761;-2100;8192;0.4210526;-0.5318559;-0.6827511;-0.2714681;7;19;6;1668;3555;1203;32768;0.7702177;-0.4182825;-0.06925207;-0.4764543;14;11;-11;2876;2764;-1006;256;-0.2174515;0.2022161;-0.6689751;-0.6813926;5;14;-6;185;4022;-239;128;0.2603878;-0.2590028;0.5124654;0.7762055;-4;14;13;-669;3735;1712;4;0.6875988;-0.5983379;0.1371191;0.3878116;11;2;-12;1459;3650;-86;16;0.5581717;-0.6451485;-0.3296399;-0.4044321;67;24;5;-43;3906;970;2;0.3116343;-0.3531856;-0.5373961;-0.6995351;-3;10;8;-393;4070;-933;8;0.5706371;-0.7743547;-0.1024931;-0.2534626;-16;20;0;641;3969;1285;0.60557;-0.6349244;0.09450936;0.6115323;-0.09157038;0.1430086;0.6167752;0.3862171;0.1836247;0.636344;1.11974;0.1885166;0.3864451;1.452915;0.1525558;0.04151063;1.321425;0.2147636;-0.5613877;0.6450615;0.4080895;0;0;0;0.9066042;1.439041;0.1525546;1.191671;1.290747;0.2147621;1.688701;0.5015831;0.4565396;1.114035;-0.1706309;0.1164284;0.2933247;-0.6761432;0.08283952;0.4200543;-2.034202;-0.4467587;0.2732238;-3.358383;-0.2535921;0.2933247;-0.6761432;0.08283952;0.4200543;-2.034202;-0.4467587;0.2732238;-3.358383;-0.2535921
151377.9166;NotLabelled;NONE;16384;0.7746519;-0.4639889;0.4293629;0.0166205;1;9;14;-1286;3010;2449;65536;0.7077237;-0.533241;-0.4556787;0.08448754;-8;10;-12;-2525;2629;-2044;8192;0.4182825;-0.5304709;-0.6849756;-0.2728532;6;17;6;1720;3515;1237;32768;0.7707143;-0.4168975;-0.07202215;-0.4764543;13;11;-11;2796;2802;-980;256;-0.2188366;0.2049861;-0.6689751;-0.6801203;4;15;-6;159;4092;-271;128;0.2603878;-0.2617728;0.5110803;0.7761894;-5;15;13;-665;3759;1710;4;0.6856824;-0.601108;0.1385041;0.3864266;12;-2;-19;1337;3590;8;16;0.5637119;-0.6383074;-0.33518;-0.4030471;67;14;0;-45;3896;932;2;0.3102493;-0.3518005;-0.5387812;-0.6997833;-4;13;10;-415;4050;-897;8;0.567867;-0.7754785;-0.1024931;-0.2562327;-18;16;0;587;3909;1245;0.6049847;-0.6320815;0.09229344;0.6109455;-0.08887243;0.1423923;0.616187;0.3887935;0.1844149;0.6351074;1.12231;0.1920297;0.3849179;1.455395;0.1572803;0.04009385;1.323371;0.2189658;-0.5607488;0.6444926;0.4098615;0;0;0;0.905089;1.44198;0.1572791;1.190281;1.293709;0.2189641;1.68709;0.5045404;0.4611826;1.115315;-0.1685586;0.117965;0.2927399;-0.6732659;0.08049232;0.4205925;-2.03282;-0.4449823;0.2879096;-3.361332;-0.2724191;0.2927399;-0.6732659;0.08049232;0.4205925;-2.03282;-0.4449823;0.2879096;-3.361332;-0.2724191
151397.8288;NotLabelled;NONE;16384;0.7761499;-0.4639889;0.4265928;0.01800554;2;8;16;-1310;2990;2431;65536;0.7069766;-0.5318559;-0.4584487;0.08448754;-5;9;-13;-2519;2549;-2056;8192;0.4182825;-0.5277008;-0.6865602;-0.2742382;4;17;5;1742;3573;1267;32768;0.7711983;-0.4155124;-0.07479224;-0.4764543;12;10;-10;2862;2826;-1002;256;-0.2202216;0.2105263;-0.666205;-0.6806996;5;17;-7;199;4038;-251;128;0.2617728;-0.267313;0.5069252;0.7765601;-12;17;14;-737;3663;1812;4;0.6837436;-0.6038781;0.1398892;0.3850415;14;-8;-24;1333;3516;30;16;0.5692521;-0.6329155;-0.3393352;-0.400277;63;-2;-3;-43;3974;972;2;0.3060942;-0.3518005;-0.5429363;-0.6984003;-5;16;10;-433;3998;-1087;8;0.5609418;-0.7785683;-0.1066482;-0.2603878;-21;21;1;557;3855;1313;0.6029536;-0.6326618;0.08442026;0.6089128;-0.08960247;0.1361156;0.6141529;0.387938;0.1795421;0.6313303;1.121506;0.1862703;0.3803503;1.453953;0.1511172;0.03584027;1.321185;0.2129605;-0.5627478;0.6422548;0.4106347;0;0;0;0.9005519;1.441775;0.151135;1.186095;1.294256;0.2130005;1.685507;0.5067649;0.4553237;1.115205;-0.1672063;0.1113651;0.2907092;-0.673811;0.0724881;0.4204638;-2.036578;-0.4441238;0.2999932;-3.369113;-0.2952487;0.2907092;-0.673811;0.0724881;0.4204638;-2.036578;-0.4441238;0.2999932;-3.369113;-0.2952487
151418.8006;NotLabelled;NONE;16384;0.776838;-0.4653739;0.4238227;0.01800554;3;7;17;-1246;2938;2347;65536;0.7071177;-0.5304709;-0.4598338;0.08448754;-4;10;-13;-2495;2485;-2174;8192;0.4168975;-0.5263157;-0.6879099;-0.2756233;1;17;2;1786;3497;1237;32768;0.7709246;-0.4155124;-0.07756232;-0.4764543;12;9;-10;2816;2782;-972;256;-0.2216066;0.2132964;-0.66482;-0.6807419;7;19;-7;167;3950;-339;128;0.2617728;-0.2714681;0.5041551;0.7769219;-12;19;14;-721;3601;1736;4;0.6787255;-0.6094183;0.1440443;0.3836565;16;-7;-24;1805;3598;-190;16;0.5789474;-0.6286731;-0.3421052;-0.3905817;44;-43;-16;-47;3658;1316;2;0.3033241;-0.3504155;-0.5443213;-0.6992266;-4;17;9;-367;3996;-1099;8;0.5581717;-0.7794363;-0.1080332;-0.2631579;-23;24;1;633;3913;1313;0.6060712;-0.6295009;0.08227396;0.6120259;-0.08684444;0.1380396;0.6172624;0.390357;0.1850453;0.6314253;1.123934;0.1963085;0.3790846;1.455559;0.1631833;0.0351177;1.320996;0.2241676;-0.5619806;0.6392012;0.4164101;0;0;0;0.8993316;1.445518;0.1631821;1.185473;1.298793;0.2241658;1.68607;0.5101314;0.4601536;1.115816;-0.1646991;0.1178054;0.2938277;-0.6705594;0.07000798;0.4235327;-2.036458;-0.438279;0.3161389;-3.372229;-0.3097882;0.2938277;-0.6705594;0.07000798;0.4235327;-2.036458;-0.438279;0.3161389;-3.372229;-0.3097882
151439.8146;NotLabelled;NONE;16384;0.7788997;-0.466759;0.4182825;0.02216066;5;5;21;-1148;2924;2315;65536;0.706598;-0.5263157;-0.4653739;0.08448754;0;14;-14;-2567;2567;-2310;8192;0.4155124;-0.5221606;-0.6907929;-0.2783934;-2;19;0;1796;3497;1183;32768;0.7719827;-0.4127424;-0.08171745;-0.4764543;10;8;-8;2858;2826;-940;256;-0.2229917;0.2160665;-0.6634349;-0.6807674;8;22;-7;205;3928;-367;128;0.2631579;-0.2756233;0.501385;0.7767836;-12;22;16;-733;3543;1798;4;0.6767158;-0.6121883;0.1454294;0.3822715;13;2;-23;1903;3532;-170;16;0.5831025;-0.6299397;-0.3421052;-0.3822715;31;-53;-24;-261;3542;1476;2;0.301939;-0.3490305;-0.5457063;-0.6994392;-4;20;9;-341;3966;-973;8;0.5540166;-0.7807925;-0.1094183;-0.267313;-25;25;3;795;3839;1385;0.6056914;-0.6275225;0.07871318;0.6116424;-0.08520555;0.1376881;0.6168756;0.3917098;0.1875162;0.6301607;1.125273;0.2005869;0.377425;1.456676;0.1682664;0.0336167;1.321553;0.2289025;-0.5606067;0.6372662;0.4212002;0;0;0;0.8976837;1.447257;0.1682655;1.183997;1.300725;0.2289014;1.685326;0.5120287;0.4632154;1.116691;-0.1650867;0.1226906;0.2934487;-0.6685081;0.06618419;0.4315821;-2.04064;-0.4227219;0.3472242;-3.380375;-0.3211244;0.2934487;-0.6685081;0.06618419;0.4315821;-2.04064;-0.4227219;0.3472242;-3.380375;-0.3211244
151459.8041;NotLabelled;NONE;16384;0.7796013;-0.466759;0.4168975;0.0235457;2;4;20;-1116;2928;2327;65536;0.7059067;-0.5235457;-0.4695291;0.08448754;3;18;-15;-2539;2529;-2268;8192;0.4141274;-0.5193906;-0.6931493;-0.2797784;-3;20;0;1830;3509;1145;32768;0.7708276;-0.4127424;-0.08448754;-0.4778393;10;9;-9;2700;2822;-992;256;-0.2243767;0.2202216;-0.6606648;-0.6816741;10;24;-7;203;3858;-431;128;0.2645429;-0.2797784;0.5;0.7757197;-13;24;16;-721;3563;1858;4;0.674983;-0.6149584;0.1454294;0.3808864;15;6;-25;1815;3536;-328;16;0.5831025;-0.6356526;-0.3407202;-0.3739612;10;-47;-31;-777;3302;1948;2;0.2977839;-0.3476454;-0.5484765;-0.6997435;-5;23;9;-317;4012;-943;8;0.5498615;-0.7819023;-0.1121884;-0.2714681;-25;30;6;607;3799;1429;0.5967379;-0.6272197;0.07864273;0.6026859;-0.08516884;0.140015;0.6079167;0.3915215;0.1919512;0.6203296;1.125066;0.2068186;0.3672026;1.456246;0.1752918;0.02355087;1.320567;0.2355728;-0.5639147;0.6302924;0.4272331;0;0;0;0.8874722;1.447446;0.1753043;1.173956;1.301105;0.2356014;1.677597;0.5129237;0.4666657;1.112106;-0.1647239;0.1219908;0.2844958;-0.6681495;0.06591761;0.4251345;-2.043149;-0.4141393;0.3573291;-3.384251;-0.3183504;0.2844958;-0.6681495;0.06591761;0.4251345;-2.043149;-0.4141393;0.3573291;-3.384251;-0.3183504
151480.8066;NotLabelled;NONE;16384;0.7810333;-0.466759;0.4141274;0.02493075;2;3;20;-1022;2850;2381;65536;0.7059406;-0.5207756;-0.4722992;0.08587258;6;17;-17;-2427;2347;-2318;8192;0.4141274;-0.5180055;-0.6936252;-0.2811634;-3;23;0;1890;3437;1037;32768;0.7712592;-0.4113573;-0.08725762;-0.4778393;13;10;-10;2668;2926;-1004;256;-0.2257618;0.2229917;-0.6578947;-0.682994;13;23;-7;197;3938;-419;128;0.2645429;-0.2853186;0.4958449;0.7763686;-13;27;17;-569;3623;1912;4;0.6727383;-0.6191136;0.1454294;0.3781163;21;8;-29;1843;3744;-510;16;0.5803324;-0.6413341;-0.3393352;-0.3698061;-17;-32;-26;-311;3328;2902;2;0.2950138;-0.3462604;-0.5512465;-0.6994268;-6;26;9;-183;3980;-1001;8;0.5443213;-0.78392;-0.1149584;-0.2756233;-25;41;8;607;3871;1411;0.5962083;-0.6282287;0.08266556;0.6021554;-0.08625937;0.1447568;0.6073856;0.3903613;0.1973253;0.6183294;1.123825;0.216666;0.3645423;1.454684;0.1871395;0.02115887;1.317953;0.2465656;-0.5650826;0.6252332;0.4330851;0;0;0;0.8848283;1.446925;0.1871384;1.1716;1.300793;0.2465644;1.676213;0.5120564;0.4735794;1.110646;-0.1674109;0.1326302;0.2839665;-0.6691413;0.06988153;0.427646;-2.045919;-0.4041415;0.3756822;-3.38694;-0.2978992;0.2839665;-0.6691413;0.06988153;0.427646;-2.045919;-0.4041415;0.3756822;-3.38694;-0.2978992
151501.9539;NotLabelled;NONE;16384;0.7824026;-0.466759;0.4113573;0.02770083;6;0;23;-1066;2962;2389;65536;0.7062015;-0.5166205;-0.4764543;0.08587258;8;17;-17;-2325;2315;-2242;8192;0.4141274;-0.5152354;-0.695124;-0.2825485;-2;25;-2;1942;3491;1027;32768;0.7716782;-0.4099723;-0.0900277;-0.4778393;14;9;-11;2720;2998;-1012;256;-0.2271468;0.2313019;-0.6523545;-0.685082;17;25;-8;29;4260;-337;128;0.2645429;-0.2950138;0.4875346;0.7780063;-29;25;16;-175;4243;1890;4;0.6699336;-0.6246537;0.1454294;0.3739612;27;22;-38;1793;4340;-366;16;0.5775623;-0.6453506;-0.3379501;-0.368421;-33;-22;-12;1247;3828;2446;2;0.2908587;-0.3448753;-0.5526316;-0.7007571;-7;27;11;-113;4002;-1133;8;0.5401662;-0.7844155;-0.1177285;-0.2811634;-28;45;7;587;3875;1371;0.5935802;-0.6300712;0.07706273;0.5995212;-0.08867121;0.1439354;0.6047459;0.3874674;0.2007088;0.6157316;1.1208;0.2244954;0.3619667;1.451847;0.1969517;0.01856971;1.314778;0.2555171;-0.565794;0.6198773;0.4398019;0;0;0;0.8822525;1.444057;0.1969507;1.16901;1.29755;0.2555155;1.67391;0.507803;0.4783416;1.109778;-0.1724858;0.1366533;0.2813396;-0.6708694;0.06388786;0.4315707;-2.050609;-0.3993709;0.3878959;-3.390576;-0.2772767;0.2813396;-0.6708694;0.06388786;0.4315707;-2.050609;-0.3993709;0.3878959;-3.390576;-0.2772767
151522.8135;NotLabelled;NONE;16384;0.7829235;-0.468144;0.4085872;0.03047091;5;-1;27;-1052;3346;2407;65536;0.7063481;-0.5138504;-0.4792244;0.08587258;6;17;-16;-2851;2769;-2450;8192;0.4127424;-0.5124654;-0.6968617;-0.2853186;-1;28;-4;2030;3687;1035;32768;0.7722064;-0.4099723;-0.09279778;-0.4764543;16;6;-14;2764;3120;-1036;256;-0.2271468;0.234072;-0.6509695;-0.6854585;19;24;-10;-35;4600;-223;128;0.2631579;-0.299169;0.4833795;0.7794807;-42;19;13;-209;4617;1930;4;0.669915;-0.6357341;0.1426593;0.3559557;10;64;-36;2199;5762;338;16;0.5650969;-0.6439237;-0.3462604;-0.3822715;-17;110;7;227;5842;-34;2;0.2825485;-0.3407202;-0.5581717;-0.701798;-8;36;10;-541;3954;-1167;8;0.5290859;-0.7883746;-0.1246537;-0.2880886;-35;34;0;507;4197;1205;0.5972196;-0.6264815;0.05704588;0.6031467;-0.08634233;0.1334401;0.6083596;0.3887224;0.1985876;0.615285;1.121724;0.2321057;0.359696;1.4517;0.2089069;0.01705524;1.311969;0.2655798;-0.5629346;0.6138992;0.4516962;0;0;0;0.8800167;1.446787;0.2089062;1.167573;1.301104;0.2655791;1.675764;0.5108809;0.479038;1.110203;-0.170217;0.1413485;0.2849817;-0.6670408;0.04309458;0.440594;-2.050792;-0.4062122;0.4007314;-3.389582;-0.270649;0.2849817;-0.6670408;0.04309458;0.440594;-2.050792;-0.4062122;0.4007314;-3.389582;-0.270649
151543.9488;NotLabelled;NONE;16384;0.7864414;-0.466759;0.4030471;0.03462604;-6;1;27;-1204;3728;2993;65536;0.7051998;-0.5069252;-0.4889196;0.08171745;6;41;-22;-3655;3217;-2572;8192;0.4127424;-0.5055401;-0.7001985;-0.2894737;5;25;-12;2202;4065;1299;32768;0.7746259;-0.4085872;-0.09972299;-0.4722992;17;-3;-21;3320;3540;-1000;256;-0.2271468;0.2382271;-0.6481994;-0.6866511;19;21;-13;-271;4946;-203;128;0.2617728;-0.300554;0.4792244;0.7819759;-39;5;9;-255;4515;1968;4;0.6732257;-0.6385041;0.1385041;0.3462604;0;67;-21;1709;4624;-214;16;0.5567867;-0.6391858;-0.3559557;-0.3933518;-19;102;3;623;4948;662;2;0.2797784;-0.3379501;-0.5609418;-0.7020385;-9;34;7;-749;4284;-1275;8;0.5235457;-0.7913401;-0.1260388;-0.2894737;-39;27;-3;261;4335;1219;0.5948303;-0.6226692;0.05081707;0.6007484;-0.08334446;0.1327624;0.6059538;0.391026;0.2027923;0.6108297;1.123918;0.238959;0.35432;1.453259;0.2169442;0.01206982;1.312368;0.2731001;-0.563449;0.6098843;0.456468;0;0;0;0.8746525;1.449801;0.2169431;1.162614;1.304718;0.2730991;1.669825;0.5133948;0.4847999;1.107545;-0.1703787;0.147038;0.2825939;-0.6630826;0.03641418;0.4475257;-2.057973;-0.3733859;0.3978562;-3.394089;-0.2163711;0.2825939;-0.6630826;0.03641418;0.4475257;-2.057973;-0.3733859;0.3978562;-3.394089;-0.2163711
151565.9778;NotLabelled;NONE;16384;0.7886119;-0.4653739;0.400277;0.03601108;-14;-2;29;-1470;3836;3301;65536;0.7036638;-0.501385;-0.4972299;0.07894737;4;46;-29;-3455;3345;-2720;8192;0.4127424;-0.5027701;-0.7004628;-0.2936288;7;26;-10;2416;4043;1539;32768;0.7759472;-0.4085872;-0.1024931;-0.4695291;18;-4;-21;3284;3886;-1012;256;-0.2257618;0.2423823;-0.6468144;-0.6869597;17;15;-16;-485;4688;-201;128;0.2576177;-0.301939;0.4764543;0.7845109;-36;-11;7;-511;4075;1572;4;0.6756533;-0.6412742;0.134349;0.3379501;0;54;-25;297;3508;-324;16;0.5512465;-0.6364865;-0.3601108;-0.4016621;-19;32;-7;1139;3934;932;2;0.2770083;-0.33518;-0.5623268;-0.7033557;-5;29;1;-813;4374;-1069;8;0.5180055;-0.7940276;-0.1288089;-0.2908587;-45;28;-4;-43;4207;1279;0.5914875;-0.6226602;0.04833466;0.597396;-0.08421803;0.1358936;0.6025931;0.3893967;0.2108614;0.6048677;1.122022;0.252309;0.3471915;1.450602;0.2326558;0.005442038;1.308095;0.2877786;-0.5685855;0.6017847;0.4608285;0;0;0;0.867533;1.448989;0.2326549;1.156006;1.304529;0.2877774;1.663543;0.5112257;0.4911277;1.111158;-0.1778617;0.147884;0.2792528;-0.662921;0.03347591;0.4392696;-2.06117;-0.3667142;0.3860191;-3.396374;-0.2032456;0.2792528;-0.662921;0.03347591;0.4392696;-2.06117;-0.3667142;0.3860191;-3.396374;-0.2032456
151586.8011;NotLabelled;NONE;16384;0.7922668;-0.4626039;0.3961219;0.03739612;-26;0;31;-1132;3688;3147;65536;0.7019715;-0.4958449;-0.5055401;0.07617728;3;58;-37;-3099;3319;-2890;8192;0.4113573;-0.501385;-0.7011033;-0.2963989;6;28;0;2498;3869;1681;32768;0.7769516;-0.4072022;-0.1066482;-0.468144;22;-1;-21;3118;4144;-1036;256;-0.2229917;0.2493075;-0.6440443;-0.687988;15;11;-18;-95;4292;-391;128;0.2576177;-0.3047091;0.4750692;0.7842797;-21;4;12;-703;3753;1454;4;0.6758024;-0.6454294;0.134349;0.3296399;2;27;-41;-477;3310;-96;16;0.5484765;-0.6388751;-0.3601108;-0.4016621;-15;-11;-21;185;3670;786;2;0.2770083;-0.3310249;-0.5637119;-0.7042143;-5;25;-6;-453;4376;-787;8;0.5096953;-0.7976926;-0.132964;-0.2936288;-52;39;-3;-75;4137;1363;0.5921067;-0.6234851;0.04063344;0.5980048;-0.08597851;0.1337641;0.6031931;0.3868346;0.2136329;0.6007225;1.119249;0.2586331;0.3409229;1.446244;0.2405698;0.0001047999;1.301261;0.2949956;-0.57446;0.5942459;0.4633191;0;0;0;0.8612639;1.448003;0.2405691;1.150667;1.305148;0.2949948;1.654397;0.5082822;0.4938293;1.106221;-0.1837702;0.1498017;0.2798737;-0.66359;0.02532309;0.4382042;-2.064375;-0.3665843;0.376669;-3.398496;-0.1972874;0.2798737;-0.66359;0.02532309;0.4382042;-2.064375;-0.3665843;0.376669;-3.398496;-0.1972874
151607.7976;NotLabelled;NONE;16384;0.7967361;-0.4584487;0.3919668;0.03739612;-33;13;33;-1056;3600;2929;65536;0.7003574;-0.4889196;-0.5152354;0.07063711;5;72;-39;-2549;3041;-2908;8192;0.4085872;-0.4986149;-0.7041054;-0.2977839;3;27;14;2458;3549;1697;32768;0.7777289;-0.4058172;-0.1121884;-0.466759;26;0;-22;2800;4080;-1128;256;-0.2229917;0.2562327;-0.6385041;-0.6906026;19;20;-10;3;3850;-283;128;0.2617728;-0.3116343;0.4722992;0.781852;-5;25;16;-599;3607;1530;4;0.6749914;-0.6481994;0.1385041;0.3240997;14;-8;-56;-471;3512;-354;16;0.5457063;-0.6413296;-0.3614958;-0.400277;-11;9;-17;-1147;3948;746;2;0.2756233;-0.3213296;-0.567867;-0.705908;-11;31;-17;-391;4066;-735;8;0.4889196;-0.8045875;-0.1440443;-0.3047091;-63;65;0;-189;3815;1585;0.5994903;-0.6232595;0.03986049;0.6053855;-0.08601761;0.134505;0.6105714;0.3865685;0.2157055;0.6001061;1.118444;0.2677834;0.3367473;1.44274;0.2528904;-0.002459139;1.293524;0.3059236;-0.5793443;0.5866785;0.4668673;0;0;0;0.857038;1.450183;0.2528894;1.147992;1.30998;0.3059218;1.649897;0.511447;0.5026748;1.10578;-0.1827607;0.1565526;0.2872578;-0.663321;0.02442756;0.4437532;-2.069335;-0.349057;0.3844453;-3.402237;-0.1696595;0.2872578;-0.663321;0.02442756;0.4437532;-2.069335;-0.349057;0.3844453;-3.402237;-0.1696595
151628.8052;NotLabelled;NONE;16384;0.8055955;-0.4501385;0.3836565;0.03462604;-39;6;37;-1192;3254;2699;65536;0.7003642;-0.4709141;-0.533241;0.05817174;12;90;-30;-1445;2509;-2486;8192;0.4058172;-0.4972299;-0.7072641;-0.2963989;-2;25;27;2302;3269;1755;32768;0.7802125;-0.4030471;-0.1163435;-0.4639889;31;0;-22;2600;3728;-1288;256;-0.2243767;0.2590028;-0.6357341;-0.6916754;20;24;-7;5;3996;-157;128;0.2645429;-0.3157895;0.4709141;0.7800859;0;26;16;-333;3701;1372;4;0.6671402;-0.6578947;0.1495845;0.3157895;15;8;-48;1211;4318;-650;16;0.536011;-0.6396809;-0.3725762;-0.4058172;-6;40;-10;191;4174;826;2;0.2756233;-0.3144044;-0.5706371;-0.706792;-14;33;-21;-529;3970;-569;8;0.4764543;-0.8078759;-0.1523546;-0.3116343;-67;71;1;-585;3995;1733;0.6059763;-0.6279521;0.036322;0.6118705;-0.0908103;0.1315334;0.6170553;0.38169;0.2132325;0.6030081;1.112688;0.2757444;0.3380549;1.435865;0.2655313;-0.0003996789;1.284241;0.3165001;-0.5819204;0.5799813;0.4720032;0;0;0;0.8583028;1.445865;0.2655302;1.149957;1.306353;0.3164989;1.654879;0.5090685;0.5105779;1.115282;-0.1883183;0.1637708;0.293744;-0.6679974;0.02084327;0.4428652;-2.079715;-0.3336638;0.3919427;-3.411607;-0.1444644;0.293744;-0.6679974;0.02084327;0.4428652;-2.079715;-0.3336638;0.3919427;-3.411607;-0.1444644
151648.8066;NotLabelled;NONE;16384;0.8105642;-0.4445983;0.3795014;0.03601108;-39;-5;38;-1172;3118;2571;65536;0.7022011;-0.4626039;-0.5387812;0.05124654;13;75;-20;-479;2379;-2870;8192;0.3975069;-0.4930748;-0.7171239;-0.2908587;-11;29;36;2010;3277;1471;32768;0.7845866;-0.3975069;-0.1274238;-0.4584487;39;-2;-23;2396;3134;-1482;256;-0.2257618;0.2617728;-0.634349;-0.6914535;14;21;-5;-5;3980;-107;128;0.2645429;-0.3199446;0.4709141;0.7783909;-6;24;14;113;3965;1362;4;0.6659588;-0.6620498;0.1509695;0.3088643;5;25;-42;859;4240;-442;16;0.533241;-0.6386123;-0.3753462;-0.4085872;-6;18;-14;705;4104;896;2;0.2756233;-0.3074792;-0.5734072;-0.7075963;-17;31;-24;-661;3950;-371;8;0.4626039;-0.8099592;-0.1634349;-0.3213296;-71;101;6;-1075;4083;1457;0.612182;-0.648685;0.05746305;0.6180764;-0.1115127;0.152504;0.6232615;0.3610134;0.234053;0.6094348;1.091637;0.3008365;0.344575;1.414946;0.2925414;0.006081894;1.263125;0.3426615;-0.5887718;0.5662789;0.4800757;0;0;0;0.8648256;1.424794;0.2925407;1.156445;1.284901;0.3426607;1.667048;0.4914241;0.537478;1.13227;-0.2068415;0.1850204;0.2999497;-0.688735;0.04199821;0.4573416;-2.111359;-0.2616929;0.4171396;-3.441629;-0.05898592;0.2999497;-0.688735;0.04199821;0.4573416;-2.111359;-0.2616929;0.4171396;-3.441629;-0.05898592
151669.8024;NotLabelled;NONE;16384;0.8146941;-0.4404432;0.3753462;0.03739612;-33;-13;41;-1146;3120;2275;65536;0.7069291;-0.4542936;-0.5401662;0.04570637;18;49;2;1;2327;-3348;8192;0.3933518;-0.4903047;-0.7218592;-0.2894737;-18;37;31;2086;3231;1353;32768;0.7882748;-0.3947368;-0.132964;-0.4529086;42;-11;-23;2332;3070;-1686;256;-0.2257618;0.2645429;-0.634349;-0.6903985;5;19;-7;-71;3826;-183;128;0.265928;-0.3213296;0.4709141;0.7773477;-6;14;6;95;3723;1338;4;0.6634349;-0.6671215;0.1537396;0.301939;1;23;-37;127;4066;-266;16;0.5304709;-0.6392158;-0.3767313;-0.4099723;-9;10;-17;331;4054;636;2;0.2783934;-0.300554;-0.5747922;-0.7083632;-18;30;-30;-923;4062;-161;8;0.4445983;-0.8109416;-0.1772853;-0.3365651;-80;141;14;-1103;4469;1077;0.6228894;-0.6542935;0.07339704;0.6287842;-0.1170974;0.1683012;0.6339695;0.3554497;0.2497299;0.619429;1.085906;0.3181816;0.3542516;1.408972;0.3106363;0.01590973;1.256705;0.3604243;-0.5851702;0.5633202;0.4878972;0;0;0;0.8744925;1.419331;0.3106354;1.166251;1.27961;0.3604232;1.693401;0.4992619;0.5640056;1.174415;-0.2025123;0.1952863;0.310657;-0.6943479;0.0579432;0.4683583;-2.121015;-0.225975;0.4288571;-3.450807;-0.02001426;0.310657;-0.6943479;0.0579432;0.4683583;-2.121015;-0.225975;0.4288571;-3.450807;-0.02001426
151710.8382;NotLabelled;NONE;16384;0.8218772;-0.4307479;0.3698061;0.04709141;-18;-38;41;-1054;2768;1875;65536;0.724288;-0.4418283;-0.5277008;0.04155125;45;5;55;387;1909;-2970;8192;0.3864266;-0.4806094;-0.7336773;-0.2853186;-27;49;23;2036;3017;1229;32768;0.7978549;-0.3850415;-0.1412742;-0.4418283;50;-22;-22;2398;2948;-1624;256;-0.2271468;0.2714681;-0.632964;-0.6885245;2;20;-12;-225;3958;-187;128;0.2631579;-0.3227147;0.4736842;0.7760325;0;-9;5;-131;3765;1296;4;0.6606648;-0.6731901;0.1578947;0.2922437;7;-2;-14;-41;3924;-516;16;0.5235457;-0.6399162;-0.3836565;-0.4113573;-17;26;-14;-595;3980;56;2;0.2880886;-0.2811634;-0.5803324;-0.707931;-28;22;-48;-1145;4102;87;8;0.4044321;-0.8138802;-0.200831;-0.365651;-103;154;21;-331;4945;461;0.6398225;-0.6557307;0.09680039;0.6457189;-0.118382;0.1908383;0.6509056;0.3542957;0.271505;0.6334495;1.084686;0.3399628;0.3669847;1.406692;0.3324199;0.02925333;1.253077;0.3822066;-0.5762969;0.5618691;0.4999818;0;0;0;0.8871799;1.419128;0.3324194;1.179494;1.280571;0.3822061;1.713181;0.5055227;0.5889726;1.203573;-0.1983094;0.2112044;0.3275898;-0.6958094;0.08141667;0.4885067;-2.126822;-0.1777537;0.4501566;-3.455641;0.03460157;0.3275898;-0.6958094;0.08141667;0.4885067;-2.126822;-0.1777537;0.4501566;-3.455641;0.03460157
151731.8082;NotLabelled;NONE;16384;0.8241451;-0.4265928;0.368421;0.05540166;-8;-48;44;-706;2518;1657;65536;0.7337937;-0.4404432;-0.5152354;0.04570637;54;-27;77;411;1917;-2632;8192;0.3836565;-0.4750692;-0.739786;-0.2825485;-26;45;21;1684;2927;1273;32768;0.8028918;-0.3808864;-0.1454294;-0.434903;55;-29;-22;2326;2808;-1076;256;-0.2257618;0.2770083;-0.634349;-0.6854921;0;11;-16;-519;3866;55;128;0.2603878;-0.3213296;0.4778393;0.7749935;8;-10;4;-229;3721;910;4;0.6551247;-0.6772698;0.1634349;0.2922437;11;-13;-4;-513;3936;-640;16;0.5166205;-0.6421442;-0.3878116;-0.4127424;-16;-2;-18;-501;3946;526;2;0.3199446;-0.2465374;-0.5831025;-0.7048733;-53;-3;-90;-1407;3572;-65;8;0.367036;-0.8225352;-0.2063712;-0.3822715;-113;71;2;-1133;5111;1003;0.6921823;-0.6511865;0.1538382;0.6980817;-0.1135631;0.2462925;0.7032712;0.3593497;0.3255664;0.6807255;1.089444;0.3956931;0.4120206;1.409598;0.3889003;0.07537252;1.253517;0.4383544;-0.5361274;0.564939;0.5396364;0;0;0;0.9321164;1.425663;0.3888996;1.225393;1.289036;0.4383537;1.777951;0.526948;0.643723;1.280386;-0.1735587;0.2443392;0.3799492;-0.6913104;0.1385826;0.5403519;-2.127839;-0.08838868;0.5154264;-3.454802;0.137166;0.3799492;-0.6913104;0.1385826;0.5403519;-2.127839;-0.08838868;0.5154264;-3.454802;0.137166
151752.803;NotLabelled;NONE;16384;0.8277857;-0.4210526;0.3628809;0.07617728;16;-55;56;-576;2282;1167;65536;0.7603601;-0.4404432;-0.4722992;0.06925207;80;-126;114;-1007;1705;-2068;8192;0.3795014;-0.4639889;-0.75046;-0.2783934;-23;34;23;1342;2821;1501;32768;0.8120089;-0.3753462;-0.1537396;-0.4196676;47;-37;-26;1226;2644;-420;256;-0.2257618;0.2783934;-0.6357341;-0.6836453;-5;6;-15;-731;3804;215;128;0.2603878;-0.3213296;0.4819945;0.7724162;16;-10;3;-29;3667;796;4;0.6523545;-0.6792666;0.166205;0.2922437;14;-20;-6;-657;4054;-638;16;0.5124654;-0.6463486;-0.3878116;-0.4113573;-12;0;-17;-721;3866;782;2;0.333795;-0.232687;-0.5831025;-0.7031566;-57;-6;-103;-1283;3772;-53;8;0.3504155;-0.8291553;-0.2036011;-0.3850415;-112;35;-11;-1341;4901;1667;0.7262523;-0.6408968;0.1895494;0.7321576;-0.1027455;0.2788807;0.737352;0.3706193;0.3554074;0.7067021;1.100573;0.4238964;0.4344742;1.41772;0.4162881;0.09955379;1.258033;0.4659639;-0.5113099;0.5678964;0.5602253;0;0;0;0.9543606;1.439538;0.4164472;1.249111;1.306274;0.4663163;1.813589;0.5502219;0.6613154;1.322959;-0.1492085;0.2515986;0.4140182;-0.6811085;0.174547;0.5837515;-2.119282;-0.03451395;0.5665243;-3.443461;0.2075213;0.4140182;-0.6811085;0.174547;0.5837515;-2.119282;-0.03451395;0.5665243;-3.443461;0.2075213
151773.815;NotLabelled;NONE;16384;0.8289089;-0.4196676;0.3587258;0.0900277;33;-62;67;-502;2338;951;65536;0.7741862;-0.4376731;-0.4501385;0.08033241;101;-118;124;-1857;1709;-1424;8192;0.3767313;-0.4612188;-0.7545744;-0.2756233;-20;26;27;1242;2515;1707;32768;0.81462;-0.3725762;-0.1578947;-0.4155124;38;-22;-30;1096;2562;-416;256;-0.2229917;0.2797784;-0.6385041;-0.6814039;-10;-2;-14;-985;3776;225;128;0.2603878;-0.3185596;0.4875346;0.7700831;22;-9;1;75;3719;774;4;0.6495845;-0.6808899;0.1703601;0.2922437;8;-27;-4;-397;4290;-458;16;0.5096953;-0.647705;-0.3891967;-0.4113573;-10;2;-15;-485;3988;868;2;0.3490305;-0.2202216;-0.5831025;-0.6997654;-52;-14;-109;-1205;4042;-61;8;0.3365651;-0.837168;-0.1966759;-0.3836565;-107;-1;-25;-1195;4685;2491;0.7914695;-0.6284976;0.2767355;0.7973832;-0.08957005;0.3612545;0.8025849;0.3844604;0.4335481;0.7694888;1.114543;0.4994723;0.496194;1.430743;0.4907911;0.1618202;1.270107;0.541082;-0.4441288;0.5727153;0.6103636;0;0;0;1.016004;1.45431;0.4907906;1.311209;1.322216;0.5410815;1.890625;0.5793371;0.7427802;1.419675;-0.1205592;0.311343;0.4792339;-0.6688418;0.2621236;0.6538609;-2.107706;0.0620386;0.642066;-3.429056;0.3193765;0.4792339;-0.6688418;0.2621236;0.6538609;-2.107706;0.0620386;0.642066;-3.429056;0.3193765
151793.8031;NotLabelled;NONE;16384;0.8287908;-0.4210526;0.3531856;0.1052632;48;-70;78;-434;2486;811;65536;0.7894214;-0.4307479;-0.4279778;0.0900277;114;-92;126;-2029;1559;-664;8192;0.3739612;-0.4584487;-0.7586362;-0.2728532;-16;20;27;1244;2245;1917;32768;0.8156354;-0.3725762;-0.1634349;-0.4113573;28;-10;-31;900;2540;-706;256;-0.2202216;0.2797784;-0.6426592;-0.6783919;-14;-11;-11;-1149;4064;167;128;0.2590028;-0.3157895;0.4944598;0.7672706;37;-17;0;243;4043;820;4;0.6468144;-0.68128;0.1745152;0.2950138;2;-38;-3;-211;4330;-596;16;0.5083103;-0.6496686;-0.3891967;-0.4099723;-8;-10;-16;-257;4112;922;2;0.3628809;-0.2091413;-0.5803324;-0.6984209;-44;-21;-109;-1347;4726;-277;8;0.3254848;-0.8440689;-0.1911357;-0.3808864;-97;-15;-36;-749;4555;2773;0.8277881;-0.6166782;0.3451428;0.8337125;-0.07678843;0.4232798;0.838923;0.3980637;0.48996;0.7998453;1.128147;0.55252;0.5240058;1.442078;0.5421314;0.1908943;1.278966;0.5928307;-0.4084068;0.573648;0.6339786;0;0;0;1.043608;1.469859;0.542527;1.339823;1.340393;0.593706;1.925;0.6014037;0.7930493;1.463379;-0.09813499;0.3510773;0.5155506;-0.6571922;0.3310498;0.6938847;-2.097189;0.142732;0.6846373;-3.417114;0.4073839;0.5155506;-0.6571922;0.3310498;0.6938847;-2.097189;0.142732;0.6846373;-3.417114;0.4073839
151813.938;NotLabelled;NONE;16384;0.8285258;-0.4224377;0.3462604;0.1232687;61;-76;91;-380;2804;711;65536;0.8042787;-0.4238227;-0.4044321;0.09972299;117;-80;127;-2153;1603;-304;8192;0.3711911;-0.4570637;-0.7613245;-0.2714681;-8;10;23;1242;2269;2031;32768;0.8149154;-0.3725762;-0.1703601;-0.4099723;19;3;-37;848;2546;-1350;256;-0.2160665;0.2770083;-0.6468144;-0.6769142;-14;-25;-9;-1379;4390;131;128;0.2576177;-0.3102493;0.5041551;0.7636793;53;-32;-4;259;4349;1188;4;0.6440443;-0.6812575;0.1800554;0.2977839;2;-47;-2;99;3970;-758;16;0.5069252;-0.6524869;-0.3891967;-0.4072022;-5;-23;-17;-331;4056;818;2;0.3781163;-0.1980609;-0.5775623;-0.6958604;-40;-31;-107;-1473;5064;-495;8;0.3144044;-0.8510357;-0.1869806;-0.3767313;-81;-14;-39;-309;4293;2687;0.8620566;-0.6061878;0.4007534;0.8679919;-0.06529808;0.4716375;0.8732119;0.4104061;0.531939;0.8287222;1.140666;0.5885336;0.5505531;1.452443;0.5756655;0.2186772;1.287279;0.6278063;-0.3685775;0.5714345;0.659856;0;0;0;1.069934;1.484088;0.5756646;1.367117;1.357251;0.6278055;1.95904;0.6269765;0.8389945;1.509995;-0.07635498;0.3901389;0.5498171;-0.6468868;0.3872511;0.7321395;-2.087071;0.2042581;0.725643;-3.405817;0.4748054;0.5498171;-0.6468868;0.3872511;0.7321395;-2.087071;0.2042581;0.725643;-3.405817;0.4748054
