SEP=;
index;label;segment;RightUpperArm_boneIndex;RightUpperArm_quat9x_w;RightUpperArm_quat9x_x;RightUpperArm_quat9x_y;RightUpperArm_quat9x_z;RightUpperArm_gyroscope_x;RightUpperArm_gyroscope_y;RightUpperArm_gyroscope_z;RightUpperArm_accelerometer_x;RightUpperArm_accelerometer_y;RightUpperArm_accelerometer_z;RightLowerArm_boneIndex;RightLowerArm_quat9x_w;RightLowerArm_quat9x_x;RightLowerArm_quat9x_y;RightLowerArm_quat9x_z;RightLowerArm_gyroscope_x;RightLowerArm_gyroscope_y;RightLowerArm_gyroscope_z;RightLowerArm_accelerometer_x;RightLowerArm_accelerometer_y;RightLowerArm_accelerometer_z;LeftUpperArm_boneIndex;LeftUpperArm_quat9x_w;LeftUpperArm_quat9x_x;LeftUpperArm_quat9x_y;LeftUpperArm_quat9x_z;LeftUpperArm_gyroscope_x;LeftUpperArm_gyroscope_y;LeftUpperArm_gyroscope_z;LeftUpperArm_accelerometer_x;LeftUpperArm_accelerometer_y;LeftUpperArm_accelerometer_z;LeftLowerArm_boneIndex;LeftLowerArm_quat9x_w;LeftLowerArm_quat9x_x;LeftLowerArm_quat9x_y;LeftLowerArm_quat9x_z;LeftLowerArm_gyroscope_x;LeftLowerArm_gyroscope_y;LeftLowerArm_gyroscope_z;LeftLowerArm_accelerometer_x;LeftLowerArm_accelerometer_y;LeftLowerArm_accelerometer_z;Chest_boneIndex;Chest_quat9x_w;Chest_quat9x_x;Chest_quat9x_y;Chest_quat9x_z;Chest_gyroscope_x;Chest_gyroscope_y;Chest_gyroscope_z;Chest_accelerometer_x;Chest_accelerometer_y;Chest_accelerometer_z;Spine_boneIndex;Spine_quat9x_w;Spine_quat9x_x;Spine_quat9x_y;Spine_quat9x_z;Spine_gyroscope_x;Spine_gyroscope_y;Spine_gyroscope_z;Spine_accelerometer_x;Spine_accelerometer_y;Spine_accelerometer_z;RightUpperLeg_boneIndex;RightUpperLeg_quat9x_w;RightUpperLeg_quat9x_x;RightUpperLeg_quat9x_y;RightUpperLeg_quat9x_z;RightUpperLeg_gyroscope_x;RightUpperLeg_gyroscope_y;RightUpperLeg_gyroscope_z;RightUpperLeg_accelerometer_x;RightUpperLeg_accelerometer_y;RightUpperLeg_accelerometer_z;RightLowerLeg_boneIndex;RightLowerLeg_quat9x_w;RightLowerLeg_quat9x_x;RightLowerLeg_quat9x_y;RightLowerLeg_quat9x_z;RightLowerLeg_gyroscope_x;RightLowerLeg_gyroscope_y;RightLowerLeg_gyroscope_z;RightLowerLeg_accelerometer_x;RightLowerLeg_accelerometer_y;RightLowerLeg_accelerometer_z;LeftUpperLeg_boneIndex;LeftUpperLeg_quat9x_w;LeftUpperLeg_quat9x_x;LeftUpperLeg_quat9x_y;LeftUpperLeg_quat9x_z;LeftUpperLeg_gyroscope_x;LeftUpperLeg_gyroscope_y;LeftUpperLeg_gyroscope_z;LeftUpperLeg_accelerometer_x;LeftUpperLeg_accelerometer_y;LeftUpperLeg_accelerometer_z;LeftLowerLeg_boneIndex;LeftLowerLeg_quat9x_w;LeftLowerLeg_quat9x_x;LeftLowerLeg_quat9x_y;LeftLowerLeg_quat9x_z;LeftLowerLeg_gyroscope_x;LeftLowerLeg_gyroscope_y;LeftLowerLeg_gyroscope_z;LeftLowerLeg_accelerometer_x;LeftLowerLeg_accelerometer_y;LeftLowerLeg_accelerometer_z;pelvis_x;pelvis_y;pelvis_z;lowerSpine_x;lowerSpine_y;lowerSpine_z;middleSpine_x;middleSpine_y;middleSpine_z;upperSpine_x;upperSpine_y;upperSpine_z;rightClavicle_x;rightClavicle_y;rightClavicle_z;rightShoulder_x;rightShoulder_y;rightShoulder_z;rightElbow_x;rightElbow_y;rightElbow_z;rightWrist_x;rightWrist_y;rightWrist_z;leftClavicle_x;leftClavicle_y;leftClavicle_z;leftShoulder_x;leftShoulder_y;leftShoulder_z;leftElbow_x;leftElbow_y;leftElbow_z;leftWrist_x;leftWrist_y;leftWrist_z;rightHip_x;rightHip_y;rightHip_z;rightKnee_x;rightKnee_y;rightKnee_z;rightAnkle_x;rightAnkle_y;rightAnkle_z;leftHip_x;leftHip_y;leftHip_z;leftKnee_x;leftKnee_y;leftKnee_z;leftAnkle_x;leftAnkle_y;leftAnkle_z;
1467947.0259;NotLabelled;NONE;16384;0.5124654;-0.570738;0.4792244;0.4265928;17;-6;-23;478;4892;825;65536;0.6361082;-0.3698061;0.2479224;0.6301939;-167;156;-49;-3368;3863;3485;8192;0.5914127;-0.6386845;-0.4916897;-0.0235457;-11;-71;-25;578;2478;56;32768;0.7580392;-0.5027701;0.05817174;-0.4113573;28;-512;-149;2051;1583;-1420;256;0.2216066;0.08587258;-0.9218583;-0.3060942;85;-8;3;-1445;2012;2505;128;-0.1648199;-0.05955679;0.8521529;0.4930748;-92;-7;-16;1297;3113;-1628;4;-0.4279778;0.3476454;-0.4653739;-0.6923906;-8;13;-17;1383;3922;-610;16;-0.06094183;-0.9486139;-0.2631579;0.1648199;-8;-8;16;-1253;-512;3578;2;0.6249455;-0.4709141;-0.4182825;-0.4612188;16;-11;-10;-707;3894;605;8;-0.07617728;-0.9662369;-0.09141274;0.2285319;31;16;-30;-645;-653;4303;0.4622282;0.7315524;1.977607;0.4660766;1.082248;1.559732;0.4694423;1.38896;1.191121;0.3590668;1.742304;0.5575377;0.07289918;1.790788;0.2566971;-0.2480459;1.673542;0.4096243;-0.2951692;0.7522118;0.4948232;0;0;0;0.5695749;1.945938;0.2566943;0.8501891;2.016603;0.4096195;1.224822;1.269044;0.8882445;0.9300918;0.6180887;0.2660083;0.1500875;0.6998596;2.007541;0.442332;-0.6761198;1.604884;0.3281474;-0.4021883;2.917991;0.1500875;0.6998596;2.007541;0.442332;-0.6761198;1.604884;0.3281474;-0.4021883;2.917991
1467967.7659;NotLabelled;NONE;16384;0.5124654;-0.5738203;0.4792244;0.4224377;-21;49;-11;1264;4954;1475;65536;0.6685176;-0.4030471;0.1980609;0.5927978;-215;367;-33;-3322;5397;1069;8192;0.5941828;-0.6479064;-0.4764543;-0.01246537;2;-26;10;2556;1606;90;32768;0.7834011;-0.5166205;0.06509695;-0.3393352;-25;-198;-123;277;2779;-1562;256;0.2229917;0.08033241;-0.9182711;-0.3171745;89;-14;1;-1391;1998;2585;128;-0.1648199;-0.05540166;0.8459271;0.5041551;-89;-4;-16;1223;3069;-1386;4;-0.4293629;0.3490305;-0.468144;-0.6889604;-9;22;-21;1077;3834;-664;16;-0.06094183;-0.949474;-0.2617728;0.1620499;-4;-9;17;-1449;-802;3152;2;0.6267906;-0.4709141;-0.4155124;-0.4612188;11;-16;-12;-749;3658;763;8;-0.0734072;-0.9653829;-0.08864266;0.234072;26;19;-31;143;-607;4295;0.4166571;0.630199;1.881511;0.4207819;1.006073;1.486133;0.4243914;1.334999;1.137203;0.3056055;1.721192;0.5246606;0.01490632;1.786358;0.2314117;-0.3041136;1.6626;0.3832323;-0.3455588;0.741879;0.477495;0;0;0;0.5122553;1.939334;0.2314086;0.7956103;2.000857;0.3832274;1.178294;1.250695;0.8512947;0.9091152;0.5737596;0.2454173;0.1044971;0.5967219;1.909214;0.3944969;-0.7815969;1.512986;0.2746394;-0.5091636;2.8259;0.1044971;0.5967219;1.909214;0.3944969;-0.7815969;1.512986;0.2746394;-0.5091636;2.8259
1467987.7803;NotLabelled;NONE;16384;0.5207756;-0.577979;0.4736842;0.4127424;-29;134;10;1544;4746;1235;65536;0.7114505;-0.434903;0.1426593;0.533241;-168;597;-12;-1148;5613;-95;8192;0.5900277;-0.6486816;-0.4806094;-0.009695291;15;28;31;3744;1672;92;32768;0.7647261;-0.5304709;0.033241;-0.3642659;-37;164;-112;807;2615;-820;256;0.2243767;0.0734072;-0.9146121;-0.3282548;83;-23;6;-1345;2034;2181;128;-0.1648199;-0.04986149;0.8395717;0.5152354;-86;-11;-17;1267;3027;-1580;4;-0.4307479;0.3531856;-0.468144;-0.6859719;-8;25;-19;923;3844;-888;16;-0.06232687;-0.9498528;-0.2617728;0.1592798;-6;-1;17;-2173;-1078;3574;2;0.6266865;-0.4709141;-0.4141274;-0.4626039;8;-4;-13;-871;3590;531;8;-0.07202215;-0.9648433;-0.08448754;0.2382271;16;-14;-32;177;-599;4527;0.3711624;0.5799451;1.815323;0.3753995;0.9660616;1.429943;0.3791083;1.304029;1.089763;0.2580133;1.705181;0.4873717;-0.03441855;1.778746;0.1978556;-0.3530013;1.65308;0.3490259;-0.3989471;0.7331235;0.4485169;0;0;0;0.4637235;1.92912;0.1978524;0.7484761;1.985583;0.3490205;1.130977;1.232407;0.8123711;0.8957876;0.5072591;0.2496683;0.05899441;0.5457542;1.842049;0.3403699;-0.8366277;1.453837;0.2106461;-0.5666201;2.766314;0.05899441;0.5457542;1.842049;0.3403699;-0.8366277;1.453837;0.2106461;-0.5666201;2.766314
1468009.7706;NotLabelled;NONE;16384;0.534626;-0.5863259;0.4584487;0.400277;-14;175;20;652;4744;443;65536;0.7497963;-0.4570637;0.08448754;0.4709141;-151;635;-37;842;5495;-2111;8192;0.5831025;-0.647665;-0.4903047;-0.01108033;37;97;30;3826;1872;-434;32768;0.7353188;-0.5373961;-0.01246537;-0.4127424;-42;459;-84;2047;4139;-1488;256;0.2257618;0.06648199;-0.9107488;-0.3393352;83;-25;8;-1349;2232;2113;128;-0.1648199;-0.04432133;0.8329836;0.5263157;-90;-13;-19;1209;3405;-1470;4;-0.432133;0.3587258;-0.4709141;-0.6803064;-6;13;-11;421;3892;-994;16;-0.06509695;-0.950197;-0.2631579;0.1537396;-19;-2;13;-2261;-1282;3790;2;0.6274865;-0.4709141;-0.4113573;-0.4639889;12;-1;-11;-1147;3576;599;8;-0.07202215;-0.9643938;-0.08171745;0.2409972;8;-22;-29;-287;-625;4277;0.344894;0.5351357;1.754795;0.3492415;0.9313042;1.379758;0.3530477;1.278145;1.048631;0.2308405;1.694584;0.4569328;-0.06304419;1.777324;0.1713918;-0.3815237;1.650496;0.3218068;-0.4367049;0.7305322;0.4164231;0;0;0;0.4362446;1.923845;0.1713886;0.7224896;1.974478;0.3218016;1.100064;1.228091;0.7999424;0.8719617;0.4822443;0.2619193;0.03271836;0.5002513;1.780517;0.3152498;-0.8846881;1.402394;0.1732885;-0.6130288;2.713262;0.03271836;0.5002513;1.780517;0.3152498;-0.8846881;1.402394;0.1732885;-0.6130288;2.713262
1468029.8504;NotLabelled;NONE;16384;0.5498615;-0.6120787;0.4279778;0.3739612;37;155;-19;-2180;3096;-1615;65536;0.7707193;-0.4778393;0.01939058;0.4210526;-123;229;-77;10010;4001;-7431;8192;0.5747922;-0.6452942;-0.5027701;-0.02077562;61;114;22;3038;1960;-868;32768;0.7047371;-0.5277008;-0.06648199;-0.4695291;61;524;-35;-175;3779;-460;256;0.2271468;0.05817174;-0.9067687;-0.3504155;86;-29;9;-1285;2590;2183;128;-0.1648199;-0.03878116;0.8270566;0.536011;-74;-13;-21;1005;3667;-1198;4;-0.4307479;0.3601108;-0.4722992;-0.6794924;-5;5;-9;407;3922;-742;16;-0.06786703;-0.9504474;-0.2631579;0.1509695;-22;-16;13;-1947;-1042;3518;2;0.628255;-0.4722992;-0.4085872;-0.4639889;13;-12;-9;-1313;3672;631;8;-0.07202215;-0.9639282;-0.07894737;0.2437673;5;-7;-20;-89;-591;4363;0.3203003;0.4862092;1.673538;0.3247558;0.8922267;1.309187;0.3286574;1.247765;0.9874176;0.2009819;1.679298;0.4078141;-0.09643587;1.771117;0.1287806;-0.4136406;1.643074;0.2808505;-0.4679559;0.7248659;0.3916413;0;0;0;0.403932;1.913856;0.1248285;0.6927584;1.958694;0.2721137;1.07537;1.233899;0.7786278;0.8508782;0.4752717;0.2572103;0.008117199;0.4506531;1.69823;0.281604;-0.9404774;1.33654;0.1290312;-0.665005;2.645419;0.008117199;0.4506531;1.69823;0.281604;-0.9404774;1.33654;0.1290312;-0.665005;2.645419
1468050.7904;NotLabelled;NONE;16384;0.5443213;-0.6251695;0.4196676;0.3698061;109;16;-41;-3642;1948;-5381;65536;0.7354597;-0.4819945;0.06094183;0.4722992;-62;-297;19;7974;2879;-1479;8192;0.566482;-0.6446308;-0.5124654;-0.03047091;79;67;25;1884;2632;-1430;32768;0.6630907;-0.5110803;-0.1274238;-0.5318559;98;615;-28;829;4847;924;256;0.2285319;0.04155125;-0.899035;-0.3711911;75;-32;14;-1127;2890;2439;128;-0.1634349;-0.02216066;0.814117;0.5567867;-82;-25;-25;883;3975;-1420;4;-0.4307479;0.3601108;-0.4750692;-0.6775587;-7;-7;-5;485;3994;-498;16;-0.07063711;-0.9514439;-0.2603878;0.1481994;-22;-22;10;-2079;-964;3236;2;0.6296062;-0.4750692;-0.4016621;-0.4653739;14;-15;-6;-1271;3930;141;8;-0.07202215;-0.9633061;-0.0734072;0.2479224;0;-12;-16;105;-57;4167;0.2578573;0.4360187;1.609434;0.2624056;0.8504879;1.254729;0.2663892;1.213491;0.9414061;0.1437169;1.660423;0.3724898;-0.1524486;1.76208;0.09554264;-0.4710973;1.633545;0.2441396;-0.5236399;0.7134104;0.3385894;0;0;0;0.3493367;1.89981;0.0955396;0.6384355;1.938089;0.2441348;0.9965509;1.203333;0.7541964;0.8034662;0.439399;0.2279743;-0.05433196;0.3998928;1.633204;0.2229387;-0.9931613;1.281951;0.04536259;-0.7125192;2.586571;-0.05433196;0.3998928;1.633204;0.2229387;-0.9931613;1.281951;0.04536259;-0.7125192;2.586571
1468071.7599;NotLabelled;NONE;16384;0.5180055;-0.6309575;0.4279778;0.3878116;179;-241;-40;-4738;1604;-6835;65536;0.6714209;-0.4626039;0.1537396;0.5581717;63;-776;121;7994;5929;-83;8192;0.5415512;-0.6552301;-0.5249307;-0.04293629;84;72;51;3156;3346;724;32768;-0.5831025;0.4459834;0.2285319;0.6394244;163;599;61;2981;4133;3724;256;0.2299169;0.03462604;-0.8943197;-0.3822715;79;-29;12;-1501;2862;2329;128;-0.1634349;-0.01385042;0.8075861;0.566482;-77;-35;-23;977;3899;-1188;4;-0.4279778;0.3587258;-0.4778393;-0.6781006;-5;-22;-6;759;3858;-728;16;-0.07479224;-0.9519317;-0.2590028;0.1454294;-17;-20;9;-2143;-932;3072;2;0.6310183;-0.4778393;-0.3961219;-0.4653739;21;-22;-5;-1319;4208;181;8;-0.07202215;-0.9628968;-0.06925207;0.2506925;0;-15;-17;-83;-199;4141;0.2565587;0.3658249;1.501957;0.261301;0.7979741;1.169021;0.265456;1.176599;0.8747683;0.1455443;1.652421;0.3291711;-0.1516746;1.773193;0.0611731;-0.471191;1.644387;0.2076577;-0.514811;0.7263396;0.3243403;0;0;0;0.3528934;1.900351;0.06117003;0.6444951;1.925554;0.2076527;0.9865415;1.191892;0.7301657;0.8252187;0.4212203;0.2030722;-0.0556435;0.3285301;1.523662;0.2162107;-1.067344;1.179439;0.02070636;-0.7824912;2.480579;-0.0556435;0.3285301;1.523662;0.2162107;-1.067344;1.179439;0.02070636;-0.7824912;2.480579
1468092.7559;NotLabelled;NONE;16384;0.4709141;-0.6254609;0.4515235;0.4279778;243;-408;-20;-4038;1550;-6197;65536;0.5858725;-0.4127424;0.2714681;0.642419;276;-1060;166;7774;7955;7441;8192;0.5304709;-0.6536971;-0.5373961;-0.04986149;62;97;48;3468;3032;1526;32768;-0.5650969;0.4210526;0.2520775;0.6632021;132;368;61;4355;2527;3802;256;0.232687;0.02631579;-0.8896776;-0.3919668;76;-29;8;-1233;2920;2115;128;-0.1634349;-0.006925208;0.8017824;0.5747922;-75;-23;-21;839;3749;-1146;4;-0.4252077;0.3573407;-0.4792244;-0.6795955;-7;-21;-12;1181;3988;-648;16;-0.07617728;-0.9520324;-0.2590028;0.1440443;-11;-11;5;-2459;-1108;2964;2;0.6314726;-0.4819945;-0.3919668;-0.4639889;23;-31;-7;-1075;4158;295;8;-0.07202215;-0.9627304;-0.06648199;0.2520775;0;-12;-15;171;-297;4203;0.2867649;0.3452041;1.418281;0.2915948;0.7853355;1.095973;0.2958272;1.171015;0.811032;0.1725805;1.661065;0.2789377;-0.1270533;1.790478;0.01774837;-0.4456462;1.660238;0.1649735;-0.4645237;0.7512393;0.3430057;0;0;0;0.3783651;1.914172;0.01459643;0.67192;1.933747;0.1580061;0.9700197;1.220592;0.7331773;0.8890315;0.4508405;0.1866331;-0.02544284;0.3073926;1.438988;0.2422963;-1.090078;1.098033;0.03999639;-0.7969675;2.396296;-0.02544284;0.3073926;1.438988;0.2422963;-1.090078;1.098033;0.03999639;-0.7969675;2.396296
1468113.7828;NotLabelled;NONE;16384;0.4141274;-0.6119486;0.4764543;0.4764543;263;-474;-3;-1562;3024;-3831;65536;0.4889196;-0.3476454;0.3795014;0.7043287;332;-1095;153;970;6591;13233;8192;0.5235457;-0.6494988;-0.5484765;-0.0567867;43;87;31;2604;2934;2100;32768;-0.5637119;0.4085872;0.2617728;0.6684014;86;141;45;3821;2849;1436;256;0.234072;0.01800554;-0.8851857;-0.4016621;76;-38;5;-969;2938;2207;128;-0.1648199;0;0.7955036;0.5831025;-73;-31;-22;681;3709;-1124;4;-0.4224377;0.3559557;-0.4861496;-0.6771267;-9;-7;-17;1389;4076;-398;16;-0.07894737;-0.9514288;-0.2603878;0.1440443;0;7;-3;-2523;-1024;3004;2;0.6317475;-0.4847645;-0.3864266;-0.4653739;21;-24;-9;-1035;4224;159;8;-0.07202215;-0.9626448;-0.06232687;0.2534626;1;-18;-14;5;-259;4207;0.3258724;0.3440607;1.384681;0.3307758;0.7908959;1.071734;0.3350732;1.182504;0.7949973;0.2166606;1.685305;0.2738142;-0.0815662;1.823112;0.01532309;-0.401436;1.692446;0.1593671;-0.3800002;0.7887435;0.3623259;0;0;0;0.4249212;1.942396;0.01532045;0.7184942;1.9562;0.1593632;0.9887564;1.236586;0.7402149;0.9500745;0.4688606;0.1862383;0.01365989;0.3058214;1.404513;0.2869737;-1.091863;1.068898;0.06090724;-0.7961473;2.362642;0.01365989;0.3058214;1.404513;0.2869737;-1.091863;1.068898;0.06090724;-0.7961473;2.362642
1468134.7608;NotLabelled;NONE;16384;0.3573407;-0.5890059;0.5041551;0.5207756;175;-442;-9;354;6222;1023;65536;0.4279778;-0.3130194;0.4459834;0.7210774;311;-826;152;-3780;-1439;15825;8192;0.5180055;-0.6463545;-0.5567867;-0.06232687;28;69;11;1384;3892;2792;32768;-0.5775623;0.4058172;0.2603878;0.6587355;71;-30;13;3047;2233;266;256;0.2354571;0.009695291;-0.8804834;-0.4113573;77;-39;9;-1301;2986;2381;128;-0.1648199;0.009695291;0.7892854;0.5914127;-78;-39;-25;863;3893;-1224;4;-0.4210526;0.3559557;-0.4889196;-0.675994;-9;-1;-20;1099;4062;-632;16;-0.07756232;-0.9507803;-0.2631579;0.1440443;6;16;-8;-2267;-880;2876;2;0.6321437;-0.4875346;-0.3822715;-0.4653739;24;-23;-11;-881;4084;-99;8;-0.07202215;-0.9620866;-0.05955679;0.2562327;2;-18;-18;-433;-291;4135;0.3575944;0.336688;1.308469;0.3625696;0.7900641;1.005076;0.3669305;1.187456;0.7367128;0.2506961;1.703069;0.2276995;-0.04751024;1.849543;-0.02600591;-0.3678809;1.718684;0.1167449;-0.2852424;0.8286331;0.360278;0;0;0;0.4600954;1.963974;-0.02600852;0.7545214;1.971711;0.116741;1.014998;1.25664;0.7075875;1.003459;0.4885719;0.1528576;0.04537746;0.2980373;1.327412;0.3048589;-1.105298;1.004646;0.0688113;-0.8020735;2.294864;0.04537746;0.2980373;1.327412;0.3048589;-1.105298;1.004646;0.0688113;-0.8020735;2.294864
1468154.9288;NotLabelled;NONE;16384;0.3213296;-0.5555571;0.5470914;0.5373961;-92;-13;-72;5234;5524;5667;65536;0.4362881;-0.3698061;0.4210526;0.7039963;-230;258;114;-11378;14573;-8467;8192;0.5166205;-0.6420949;-0.5623268;-0.06786703;8;60;-1;624;4514;2642;32768;-0.602493;0.4155124;0.2548476;0.6319844;59;-165;-25;2305;1745;-172;256;0.2368421;0;-0.8755687;-0.4210526;82;-48;15;-1723;2608;2727;128;-0.1648199;0.01939058;0.7828096;0.599723;-71;-37;-31;907;3769;-1352;4;-0.4182825;0.3573407;-0.4903047;-0.6759797;-9;-7;-24;725;3804;-860;16;-0.07617728;-0.9496973;-0.265928;0.1468144;12;16;-9;-2053;-952;3022;2;0.6312296;-0.4916897;-0.3767313;-0.466759;29;-26;-16;-707;3896;89;8;-0.07202215;-0.9615121;-0.0567867;0.2590028;0;-13;-21;-95;-433;4177;0.3709586;0.3182995;1.189831;0.3760057;0.7782233;0.8964602;0.3804301;1.181408;0.6368825;0.2640649;1.709613;0.1409783;-0.03523543;1.864627;-0.1062823;-0.3554054;1.733511;0.03668183;-0.2186237;0.8632901;0.3236219;0;0;0;0.473411;1.97431;-0.1088151;0.7692984;1.976038;0.03108329;1.020085;1.277466;0.6453941;1.02664;0.5082269;0.09220695;0.05873713;0.2792435;1.207846;0.3131095;-1.126518;0.8916349;0.0748167;-0.8259017;2.182052;0.05873713;0.2792435;1.207846;0.3131095;-1.126518;0.8916349;0.0748167;-0.8259017;2.182052
1468174.8394;NotLabelled;NONE;16384;0.3254848;-0.5711781;0.5498615;0.5152354;-53;196;-145;4992;2372;-859;65536;0.5;-0.4113573;0.3864266;0.6568559;4;517;-5;-6138;8765;-5017;8192;0.5263157;-0.6326382;-0.5637119;-0.07063711;-52;-4;-41;346;4362;2490;32768;0.6903804;-0.4750692;-0.2119114;-0.5027701;19;-553;-146;2599;1987;4;256;0.2396122;-0.01385042;-0.8665082;-0.4376731;68;-28;3;1273;3856;1839;128;-0.1648199;0.03739612;0.7702351;0.6149584;-81;-39;-29;199;4235;-1238;4;-0.4155124;0.3587258;-0.4944598;-0.6739249;-7;-9;-22;735;3806;-896;16;-0.07479224;-0.9485947;-0.2686981;0.1495845;15;7;-12;-2131;-1244;3198;2;0.6314088;-0.4958449;-0.365651;-0.4709141;27;-9;-20;-1087;3794;369;8;-0.07479224;-0.9601755;-0.04986149;0.2645429;-4;-19;-27;-245;-371;3781;0.31689;0.29302;1.100513;0.3220075;0.7593751;0.8174788;0.3264944;1.168251;0.5669625;0.216373;1.709297;0.08363604;-0.08105943;1.873561;-0.1598783;-0.4027591;1.742855;-0.02000633;-0.2808006;0.8674703;0.2577659;0;0;0;0.4288299;1.977343;-0.159881;0.7246934;1.972333;-0.02001059;0.9658721;1.259716;0.5818893;0.9890329;0.4800673;0.04393077;0.004664272;0.2535722;1.117577;0.2647317;-1.153718;0.8130159;0.01682943;-0.8538122;2.101786;0.004664272;0.2535722;1.117577;0.2647317;-1.153718;0.8130159;0.01682943;-0.8538122;2.101786
1468195.7697;NotLabelled;NONE;16384;0.3421052;-0.6086356;0.5318559;0.4792244;-65;397;-162;1560;5338;-2359;65536;0.5595568;-0.4556787;0.3434903;0.6010554;8;698;63;1946;4647;-2947;8192;0.5373961;-0.628525;-0.5581717;-0.06786703;-75;-27;-54;1276;3910;2410;32768;0.7332457;-0.5180055;-0.1745152;-0.4044321;-31;-684;-206;5755;4039;-1310;256;0.2396122;-0.01939058;-0.8614357;-0.4473684;55;1;-5;299;3312;1743;128;-0.1620499;0.04293629;0.7671992;0.6191136;-47;-23;-26;79;3947;-938;4;-0.4141274;0.3601108;-0.4958449;-0.6730205;-7;-3;-20;747;3850;-792;16;-0.0734072;-0.948262;-0.2686981;0.1523546;14;1;-14;-2261;-1084;3330;2;0.6324683;-0.4972299;-0.3601108;-0.4722992;32;-17;-22;-963;3880;323;8;-0.07479224;-0.959161;-0.04709141;0.2686981;-1;-16;-25;-289;-467;3831;0.3509308;0.2218688;0.9526973;0.3561741;0.6996884;0.689482;0.3607724;1.118716;0.4563444;0.250776;1.68017;-0.003147259;-0.04810309;1.858153;-0.2349688;-0.369383;1.726398;-0.09511589;-0.2789136;0.87078;0.2484877;0;0;0;0.463168;1.954803;-0.2392681;0.7611247;1.940107;-0.1046211;1.01451;1.247132;0.5149407;1.041682;0.4236684;0.04701298;0.03869745;0.1817431;0.9679466;0.2933421;-1.229581;0.6778089;0.04668099;-0.9303398;1.966972;0.03869745;0.1817431;0.9679466;0.2933421;-1.229581;0.6778089;0.04668099;-0.9303398;1.966972
1468215.7769;NotLabelled;NONE;16384;0.367036;-0.6444746;0.5083103;0.4376731;-109;376;-139;-3620;7260;-547;65536;0.6003145;-0.4916897;0.2963989;0.5567867;-82;595;28;-164;4677;-3971;8192;0.5498615;-0.6244157;-0.5512465;-0.06232687;-69;-46;-34;2652;2934;1450;32768;0.7641;-0.5540166;-0.134349;-0.301939;-49;-750;-226;5983;5303;-510;256;0.2396122;-0.02631579;-0.8568841;-0.4556787;70;-13;5;-1609;2578;2197;128;-0.1578947;0.04709141;0.7633213;0.6246537;-40;2;-25;545;3657;-558;4;-0.4099723;0.3614958;-0.501385;-0.6707135;-9;-16;-13;363;4028;-782;16;-0.07063711;-0.9475658;-0.2686981;0.1578947;16;-1;-18;-2215;-820;3376;2;0.6331534;-0.5;-0.3531856;-0.4736842;33;-23;-25;-629;4004;297;8;-0.07479224;-0.9585128;-0.04432133;0.2714681;1;-12;-24;-235;-667;3751;0.3732033;0.2016363;0.8994275;0.3784809;0.6825671;0.641941;0.3831095;1.10435;0.4138272;0.2767348;1.676751;-0.03283072;-0.02083406;1.8615;-0.2610168;-0.3430179;1.728169;-0.1247827;-0.2832428;0.8744419;0.2300486;0;0;0;0.4909155;1.955674;-0.2622119;0.7885478;1.936405;-0.1274244;1.057921;1.219454;0.4571224;1.084764;0.3658903;0.04664069;0.0609681;0.1613314;0.9141554;0.3170331;-1.251636;0.6334209;0.06693208;-0.9539943;1.922291;0.0609681;0.1613314;0.9141554;0.3170331;-1.251636;0.6334209;0.06693208;-0.9539943;1.922291
1468236.8925;NotLabelled;NONE;16384;0.3822715;-0.6652339;0.5;0.4016621;-112;130;-138;-8184;6336;31;65536;0.6200023;-0.5096953;0.2645429;0.534626;-112;441;-18;3220;6645;-5983;8192;0.5567867;-0.6242651;-0.5457063;-0.04986149;-58;-72;11;3344;2558;1316;32768;0.781706;-0.5761772;-0.09833795;-0.2174515;-61;-695;-191;1453;7019;-1996;256;0.2409972;-0.03185596;-0.8518332;-0.4639889;75;-28;19;-2469;2738;2297;128;-0.1551246;0.05263158;0.7566524;0.632964;-62;-2;-29;977;3695;-72;4;-0.4072022;0.3614958;-0.5041551;-0.6703244;-10;-18;-13;537;4064;-540;16;-0.06925207;-0.9473583;-0.267313;0.1620499;16;-4;-20;-2103;-1106;3468;2;0.6333246;-0.501385;-0.3490305;-0.4750692;30;-12;-27;-489;4118;339;8;-0.07617728;-0.9576778;-0.04293629;0.2742382;3;-14;-23;-195;-1045;3705;0.3892424;0.1719377;0.8384828;0.3945627;0.6567574;0.5883962;0.399229;1.081986;0.3667727;0.2967833;1.664285;-0.06784806;0.000381887;1.856023;-0.2917467;-0.3226643;1.722445;-0.1578173;-0.3054907;0.8721037;0.2095425;0;0;0;0.5128549;1.946186;-0.2917495;0.8105007;1.92181;-0.1578213;1.099045;1.193921;0.4036008;1.135496;0.314806;0.0520106;0.07700473;0.131412;0.8525387;0.3262169;-1.286365;0.5905071;0.08330983;-0.9919195;1.881486;0.07700473;0.131412;0.8525387;0.3262169;-1.286365;0.5905071;0.08330983;-0.9919195;1.881486
1468256.7737;NotLabelled;NONE;16384;0.3531856;-0.6529924;0.5540166;0.3767313;-20;-324;-160;-5832;2834;-5757;65536;0.5581717;-0.4556787;0.3421052;0.6031296;84;-482;-2;4710;7163;-1401;8192;0.5595568;-0.6277035;-0.5401662;-0.033241;-46;-107;59;3688;2440;1148;32768;0.7912589;-0.5775623;-0.08310249;-0.1828255;18;-381;-99;393;6521;-680;256;0.2409972;-0.03601108;-0.8470874;-0.4722992;69;-25;26;-2345;3018;1765;128;-0.1537396;0.06094183;0.7504612;0.6398892;-70;-32;-37;1227;3815;-368;4;-0.4044321;0.3614958;-0.5083103;-0.6688618;-8;-12;-15;781;3984;-400;16;-0.06786703;-0.9473705;-0.265928;0.1648199;16;-13;-22;-1885;-1188;3290;2;0.6335169;-0.501385;-0.3448753;-0.4778393;21;-4;-27;-515;3916;221;8;-0.07756232;-0.9572892;-0.0401662;0.2756233;5;-10;-20;-223;-1517;3511;0.4174329;0.1357043;0.7741272;0.4228144;0.6261179;0.535198;0.4275352;1.056305;0.323361;0.3259163;1.647628;-0.09909984;0.02951153;1.844995;-0.3180485;-0.293601;1.710019;-0.1856897;-0.3280218;0.8668818;0.1967563;0;0;0;0.5423377;1.933126;-0.3180513;0.8403451;1.904891;-0.1856942;1.143362;1.1826;0.3753324;1.195273;0.2885256;0.06593972;0.1051919;0.09486866;0.7871742;0.3526226;-1.324841;0.5340705;0.1139892;-1.031566;1.826112;0.1051919;0.09486866;0.7871742;0.3526226;-1.324841;0.5340705;0.1139892;-1.031566;1.826112
1468277.7673;NotLabelled;NONE;16384;0.3185596;-0.6240116;0.602493;0.3822715;-22;-450;-128;-3288;3880;-7143;65536;0.4986149;-0.3864266;0.4210526;0.6517456;268;-736;-2;7260;6553;6343;8192;0.5526316;-0.6275064;-0.5484765;0.002770083;-51;49;132;7256;4060;1188;32768;0.7723703;-0.5747922;-0.1108033;-0.2465374;-34;287;40;-487;7583;-916;256;0.2423823;-0.05540166;-0.8361453;-0.4889196;76;-41;21;-763;3266;1133;128;-0.1509695;0.07894737;0.7409558;0.6495845;-43;-32;-45;653;3943;-254;4;-0.4030471;0.3614958;-0.5096953;-0.6686438;-5;-11;-14;839;3848;-514;16;-0.06648199;-0.9475102;-0.2631579;0.1689751;17;-11;-21;-1949;-1130;3292;2;0.6329549;-0.5041551;-0.3379501;-0.4806094;19;-13;-16;-891;3512;291;8;-0.08310249;-0.9557298;-0.03739612;0.2797784;3;-13;-19;-373;-2465;3413;0.5313783;0.09170413;0.7228477;0.5368118;0.5868487;0.4938852;0.5415786;1.021232;0.2907915;0.4401978;1.621124;-0.1194686;0.1436129;1.823621;-0.3334317;-0.17943;1.686922;-0.202681;-0.2911416;0.8730125;0.2255726;0;0;0;0.6566812;1.910331;-0.3334342;0.9550518;1.878652;-0.2026848;1.273581;1.167191;0.3635638;1.341712;0.2723413;0.05960608;0.2191346;0.05061388;0.7349969;0.4594792;-1.37214;0.4923787;0.2262762;-1.081018;1.785897;0.2191346;0.05061388;0.7349969;0.4594792;-1.37214;0.4923787;0.2262762;-1.081018;1.785897
1468297.9435;NotLabelled;NONE;16384;-0.2867036;0.5872576;-0.6500244;-0.3878116;-23;-386;-110;-1842;3984;-5317;65536;0.432133;-0.3074792;0.4916897;0.6906221;279;-875;0;-2230;8161;8383;8192;0.5470914;-0.6136125;-0.5692521;0.01108033;-56;149;136;7360;4498;276;32768;0.7603172;-0.5554016;-0.134349;-0.3088643;17;435;111;623;5243;-392;256;0.2451524;-0.06925207;-0.8293774;-0.4972299;77;-71;19;-911;3418;1643;128;-0.1509695;0.09141274;0.7358509;0.6537396;-44;-50;-47;623;4119;-400;4;-0.4016621;0.3614958;-0.5124654;-0.6673587;-2;-14;-12;639;3974;-516;16;-0.06509695;-0.9472398;-0.2617728;0.1731302;18;1;-18;-2151;-958;3442;2;0.6332656;-0.5069252;-0.33518;-0.4792244;17;-19;-6;-789;3296;45;8;-0.08587258;-0.9553244;-0.03047091;0.2811634;-7;-25;-18;-613;-4331;4199;0.6157836;0.0347178;0.6605463;0.6212924;0.5367117;0.4470201;0.6261259;0.9771719;0.2574694;0.5357213;1.596847;-0.1250138;0.2424245;1.815251;-0.3275578;-0.08278131;1.680132;-0.2005804;-0.2229727;0.88517;0.2540741;0;0;0;0.7573174;1.890371;-0.3275603;1.055735;1.846235;-0.2005844;1.398451;1.180935;0.4062076;1.442699;0.287837;0.09282959;0.303536;-0.006727219;0.6713119;0.5464064;-1.430402;0.4367436;0.3025434;-1.141072;1.728698;0.303536;-0.006727219;0.6713119;0.5464064;-1.430402;0.4367436;0.3025434;-1.141072;1.728698
1468318.761;NotLabelled;NONE;16384;-0.2562327;0.5609418;-0.6834728;-0.3905817;-23;-306;-122;-1164;3386;-1373;65536;0.3975069;-0.2423823;0.5387812;0.7021068;298;-641;-55;2240;5123;8227;8192;0.5401662;-0.5914127;-0.5985479;0.01385042;-41;191;133;4680;3498;-538;32768;0.7376201;-0.5304709;-0.1620499;-0.3850415;43;499;170;-495;3799;-346;256;0.2493075;-0.08448754;-0.823365;-0.5027701;77;-86;18;-1127;3958;2033;128;-0.1537396;0.1066482;0.731985;0.6551247;-45;-74;-50;303;4925;-1098;4;-0.3961219;0.3601108;-0.5180055;-0.6671416;-14;-26;-8;177;4120;-832;16;-0.06094183;-0.9458404;-0.2631579;0.1800554;21;2;-19;-1715;-894;3350;2;0.633476;-0.5110803;-0.33241;-0.4764543;15;-25;6;-879;3374;161;8;-0.08864266;-0.9553313;-0.02077562;0.2811634;-2;-98;-9;-669;-2881;7763;0.7177278;-0.006491661;0.6162379;0.723272;0.4987347;0.4104779;0.7281369;0.9420655;0.2277418;0.6454167;1.572206;-0.1390572;0.3545021;1.800015;-0.3345563;0.02790097;1.666914;-0.2090382;-0.1480183;0.8953016;0.2726218;0;0;0;0.8705021;1.867101;-0.3356817;1.168865;1.81525;-0.2115247;1.50998;1.190271;0.4375644;1.551432;0.311368;0.08599639;0.4054785;-0.04809737;0.6263105;0.6456435;-1.4738;0.4014751;0.3942957;-1.185752;1.692281;0.4054785;-0.04809737;0.6263105;0.6456435;-1.4738;0.4014751;0.3942957;-1.185752;1.692281
1468339.7579;NotLabelled;NONE;16384;-0.2313019;0.534626;-0.7135828;-0.3891967;-34;-273;-127;-522;3884;1119;65536;0.3642659;-0.1772853;0.5734072;0.7120987;258;-438;-104;1494;1223;8787;8192;0.533241;-0.5734072;-0.6218251;0.01385042;-17;180;126;1258;3396;-20;32768;0.7091616;-0.4930748;-0.1966759;-0.4639889;54;601;193;-5283;2641;-1456;256;0.2506925;-0.09695291;-0.8164253;-0.5110803;81;-77;17;-689;4866;1811;128;-0.1565097;0.1218837;0.7290136;0.6551247;-37;-92;-47;-255;5243;-170;4;-0.3919668;0.3573407;-0.5207756;-0.6689264;-12;-35;-11;413;4224;-1064;16;-0.05955679;-0.9455128;-0.2617728;0.1842105;20;-3;-22;-1857;-1308;3406;2;0.6328186;-0.5166205;-0.3310249;-0.4722992;25;-23;23;-2033;7474;1063;8;-0.0900277;-0.9555442;-0.0235457;0.2797784;-4;5;0;-45;-1205;4495;0.7963137;-0.03726602;0.5978578;0.8018799;0.4699664;0.3970944;0.8067644;0.9150786;0.2187428;0.7350921;1.553524;-0.1358176;0.4482121;1.790116;-0.3267943;0.1193298;1.660357;-0.2037567;-0.07045016;0.8994479;0.2895278;0;0;0;0.9653077;1.848167;-0.326797;1.262716;1.788719;-0.2037607;1.612204;1.188814;0.4642569;1.654738;0.3290405;0.06831777;0.4840633;-0.078969;0.6074854;0.7217896;-1.507696;0.3999177;0.4590979;-1.224923;1.68963;0.4840633;-0.078969;0.6074854;0.7217896;-1.507696;0.3999177;0.4590979;-1.224923;1.68963
1468360.7954;NotLabelled;NONE;16384;-0.1980609;0.5027701;-0.7530666;-0.3753462;-70;-67;-87;1682;4406;1347;65536;0.3282548;-0.1177285;0.601108;0.7190674;97;-155;-37;-7490;-1229;8173;8192;0.5249307;-0.5554016;-0.6449388;0.005540166;2;178;99;-1328;3652;-308;32768;0.6772245;-0.4515235;-0.2368421;-0.5304709;121;613;157;-12173;-743;158;256;0.2534626;-0.1094183;-0.8104861;-0.5166205;71;-64;18;451;4662;1567;128;-0.1620499;0.1371191;0.7263352;0.6537396;-11;-84;-39;-749;4735;254;4;-0.3878116;0.3559557;-0.5249307;-0.6688389;-11;-28;-20;933;4106;-1018;16;-0.05817174;-0.9447801;-0.2617728;0.1883656;19;2;-20;-2159;-1422;3482;2;0.6375751;-0.5221606;-0.3268698;-0.4626039;0;-63;22;-1141;6758;971;8;-0.09418282;-0.9546645;-0.02631579;0.2811634;-23;25;1;949;-1631;3913;0.877499;-0.08006692;0.5710852;0.8830807;0.428576;0.373924;0.8879789;0.8749423;0.1987333;0.8242049;1.522982;-0.1395563;0.5401304;1.768177;-0.3237541;0.2098018;1.639885;-0.2030759;-0.0007918626;0.896174;0.3076822;0;0;0;1.057973;1.81914;-0.3237565;1.354839;1.752573;-0.2030795;1.700994;1.179533;0.489796;1.766713;0.3439322;0.04793549;0.5652478;-0.1218367;0.5803926;0.8042132;-1.551136;0.3782556;0.5350289;-1.269685;1.666918;0.5652478;-0.1218367;0.5803926;0.8042132;-1.551136;0.3782556;0.5350289;-1.269685;1.666918
1468381.7847;NotLabelled;NONE;16384;-0.1980609;0.501385;-0.760727;-0.3614958;-91;0;-25;2374;3922;2767;65536;0.3573407;-0.1440443;0.6080332;0.6941574;75;14;15;-6668;527;-2231;8192;0.5207756;-0.5470914;-0.6553442;0.002770083;-3;29;55;-2778;2346;-40;32768;0.6321543;-0.4182825;-0.2894737;-0.5844875;129;591;14;-5227;-2723;3172;256;0.2562327;-0.1246537;-0.8038374;-0.5221606;69;-68;13;1235;3480;1323;128;-0.16759;0.1523546;0.7195114;0.6565097;-37;-99;-30;-565;4091;24;4;-0.3850415;0.3559557;-0.5263157;-0.6693506;-12;-9;-25;1443;3878;-1068;16;-0.0567867;-0.9440265;-0.2617728;0.1925208;17;3;-15;-1873;-1110;3418;2;0.6390957;-0.5290859;-0.3282548;-0.4515235;-9;-84;31;1843;3342;-293;8;-0.101108;-0.9540282;-0.0235457;0.2811634;-21;3;-6;1123;-1777;3537;0.9638488;-0.1375358;0.5245096;0.9694398;0.3719554;0.3295504;0.9743464;0.8190746;0.1562923;0.9187677;1.474281;-0.1694051;0.6377264;1.726761;-0.3483383;0.3058943;1.600635;-0.2295167;0.05717323;0.8923483;0.3134359;0;0;0;1.156208;1.770745;-0.3483405;1.452346;1.697888;-0.2295201;1.781262;1.142372;0.4856661;1.892825;0.3247826;0.01995158;0.6515971;-0.1793456;0.5336213;0.8878723;-1.610727;0.3434089;0.6077614;-1.329988;1.629897;0.6515971;-0.1793456;0.5336213;0.8878723;-1.610727;0.3434089;0.6077614;-1.329988;1.629897
1468402.7698;NotLabelled;NONE;16384;-0.2077562;0.4958449;-0.7662973;-0.3518005;-102;4;29;3246;2918;1767;65536;0.4238227;-0.2285319;0.6094183;0.6298864;126;743;121;4496;-1759;-3061;8192;0.5263157;-0.5470914;-0.6508959;0.004155125;-13;-29;-63;-1494;232;1802;32768;-0.5734072;0.3878116;0.3642659;0.6229901;112;335;-95;9345;-497;-412;256;0.2590028;-0.1454294;-0.7883418;-0.5387812;87;-55;2;1231;2906;1589;128;-0.1703601;0.1717452;0.7014973;0.6703601;-79;-45;-16;-799;3187;-126;4;-0.3836565;0.3559557;-0.5290859;-0.6679606;-15;1;-23;1363;3732;-1138;16;-0.05401662;-0.9440031;-0.2603878;0.1952908;18;-6;-13;-1629;-732;3386;2;0.6288683;-0.5415512;-0.33518;-0.4459834;26;3;43;-859;4360;299;8;-0.1094183;-0.9525642;-0.005540166;0.2839335;-11;-64;-18;-469;-593;3081;1.00335;-0.1725562;0.4714361;1.008974;0.3400204;0.2847404;1.013911;0.7898822;0.1187346;0.9692746;1.452757;-0.1928211;0.6924127;1.713843;-0.3658233;0.3586071;1.590991;-0.2491175;0.07372331;0.8973956;0.2950301;0;0;0;1.211581;1.748806;-0.3658254;1.506576;1.668297;-0.2491204;1.816965;1.122108;0.4813673;1.967473;0.3003681;0.03428853;0.6910963;-0.2145073;0.4798153;0.9316655;-1.646502;0.2998814;0.6363443;-1.366473;1.583118;0.6910963;-0.2145073;0.4798153;0.9316655;-1.646502;0.2998814;0.6363443;-1.366473;1.583118
1468422.7745;NotLabelled;NONE;16384;-0.2243767;0.4875346;-0.7688353;-0.3476454;-98;19;55;878;3534;1237;65536;0.4792244;-0.33518;0.5950845;0.5512465;66;866;261;2628;-47;361;8192;0.5373961;-0.5512465;-0.6382021;0.005540166;-49;-76;-109;-918;918;2336;32768;0.6133561;-0.4279778;-0.3698061;-0.5512465;145;-287;-206;2911;45;3234;256;0.2576177;-0.1509695;-0.7810345;-0.5484765;86;-19;6;591;3236;1631;128;-0.1689751;0.1786704;0.6920483;0.6786703;-82;-35;-16;-457;3463;-674;4;-0.3836565;0.3573407;-0.5304709;-0.6661201;-15;0;-17;885;3874;-804;16;-0.05263158;-0.9442642;-0.2576177;0.1980609;19;-12;-13;-1803;-506;3492;2;0.6267646;-0.5470914;-0.333795;-0.4432133;26;-3;33;-1915;3978;1039;8;-0.1094183;-0.9521624;-0.002770083;0.2853186;0;-29;-15;-509;-345;2721;1.055026;-0.2073698;0.3466079;1.060745;0.3138058;0.1854715;1.065766;0.7713211;0.0419004;1.031932;1.449955;-0.2351813;0.7592367;1.724316;-0.3936461;0.4236329;1.601453;-0.2822287;0.09669939;0.9110019;0.2419107;0;0;0;1.278935;1.75023;-0.393648;1.572775;1.658749;-0.2822313;1.871674;1.108429;0.4499451;2.053023;0.256954;0.07592726;0.7427688;-0.2496798;0.3527346;0.9812611;-1.683506;0.185033;0.6601976;-1.409297;1.463335;0.7427688;-0.2496798;0.3527346;0.9812611;-1.683506;0.185033;0.6601976;-1.409297;1.463335
1468443.769;NotLabelled;NONE;16384;-0.2409972;0.4792244;-0.7721231;-0.3407202;-115;-5;49;602;3450;1353;65536;0.5235457;-0.4487534;0.5490481;0.4722992;-75;968;260;2086;2913;-2319;8192;0.5609418;-0.5512465;-0.617595;0.006925208;-97;-98;-175;-2144;3238;3774;32768;0.6596507;-0.5;-0.3545706;-0.434903;128;-752;-374;915;-2645;5906;256;0.2520775;-0.1509695;-0.7759571;-0.5581717;77;17;9;535;3304;1443;128;-0.166205;0.1855956;0.6800554;0.6895323;-97;-19;-15;-411;3679;-360;4;-0.3822715;0.3587258;-0.5373961;-0.660598;-15;-5;-16;259;4000;-292;16;-0.04847645;-0.9451719;-0.2506925;0.2036011;17;-19;-11;-1713;-906;3606;2;0.6255637;-0.5526316;-0.33241;-0.4390582;21;-37;26;-1059;3876;137;8;-0.1052632;-0.9522148;-0.002770083;0.2867036;15;8;-11;189;-339;3273;1.100793;-0.2028463;0.2420145;1.106558;0.3225317;0.09515953;1.111619;0.7837934;-0.03587425;1.079512;1.469562;-0.2950156;0.8074591;1.748806;-0.4458722;0.4716199;1.624074;-0.3372768;0.1203422;0.9260559;0.160423;0;0;0;1.327234;1.773144;-0.4458746;1.62093;1.677889;-0.33728;1.933185;1.113213;0.378201;2.112984;0.2294273;0.08771276;0.7885337;-0.2453065;0.2468913;1.022887;-1.680537;0.08549273;0.7058438;-1.409347;1.365441;0.7885337;-0.2453065;0.2468913;1.022887;-1.680537;0.08549273;0.7058438;-1.409347;1.365441
1468464.7932;NotLabelled;NONE;16384;-0.2548476;0.4792244;-0.7754044;-0.3227147;-25;53;-11;-428;-1402;-2857;65536;0.567867;-0.5875973;0.4709141;0.33241;5;625;197;3084;3743;-5333;8192;0.5913365;-0.5526316;-0.5872576;0.006925208;-98;-124;-214;-2104;2870;1234;32768;0.6834391;-0.5941828;-0.3033241;-0.2963989;-50;-1000;-460;3545;1187;-146;256;0.2451524;-0.1481994;-0.7716633;-0.567867;67;51;9;707;3566;1049;128;-0.1634349;0.1897507;0.6717451;0.6971673;-83;-9;-11;-465;3769;-12;4;-0.3808864;0.3587258;-0.5401662;-0.6591372;-10;-3;-19;399;3976;-342;16;-0.04709141;-0.9460351;-0.2465374;0.2049861;18;-18;-9;-1747;-1020;3580;2;0.6225758;-0.5581717;-0.33241;-0.4362881;23;-23;30;-297;3794;-719;8;-0.1038781;-0.9519529;0;0.2880886;22;1;-14;889;-743;4211;1.117409;-0.221246;0.09289551;1.123226;0.3089201;-0.03560209;1.128335;0.7744589;-0.1505171;1.09523;1.465953;-0.3938327;0.8226328;1.748473;-0.5374343;0.4871666;1.621173;-0.4306799;0.121635;0.9366498;0.07542662;0;0;0;1.342398;1.77299;-0.5384836;1.636456;1.675384;-0.4329989;2.001727;1.110909;0.2570879;2.159085;0.1936378;0.079211;0.8051481;-0.2638478;0.09617358;1.016616;-1.703995;-0.05253947;0.7329746;-1.443204;1.237368;0.8051481;-0.2638478;0.09617358;1.016616;-1.703995;-0.05253947;0.7329746;-1.443204;1.237368
1468485.7706;NotLabelled;NONE;16384;-0.2548476;0.4847645;-0.7713724;-0.3240997;50;23;8;-3314;-388;-4905;65536;0.534626;-0.5795336;0.5166205;0.333795;-30;-57;234;3312;4761;3819;8192;0.6287082;-0.5761772;-0.5221606;0.009695291;55;-198;-148;2750;1764;-5158;32768;0.6620498;-0.7275095;-0.1800554;0;-194;-1058;-485;-3065;17185;-1268;256;0.232687;-0.1481994;-0.7598642;-0.5886427;78;32;8;-205;3964;131;128;-0.1565097;0.1952908;0.6592798;0.709025;-63;0;-8;-771;4165;-172;4;-0.3795014;0.3601108;-0.5429363;-0.6569012;-10;2;-20;521;3934;-258;16;-0.04570637;-0.9462166;-0.2437673;0.2077562;17;-19;-7;-1525;-952;3496;2;0.6165271;-0.5650969;-0.333795;-0.434903;32;-1;33;-7;4082;-407;8;-0.1024931;-0.9516737;0.004155125;0.2894737;14;-34;-13;769;-871;4959;1.217634;-0.2331233;-0.01961958;1.223484;0.3000104;-0.1351874;1.228622;0.7682059;-0.2387482;1.193962;1.464631;-0.4673363;0.9207724;1.74944;-0.6051731;0.5855346;1.61904;-0.5014896;0.1838533;0.9289763;-0.03160278;0;0;0;1.440473;1.775308;-0.6051749;1.734681;1.676235;-0.5014925;2.138893;1.053662;0.1127467;2.2453;0.1137297;0.05802679;0.9053726;-0.2757912;-0.01746142;1.107971;-1.71753;-0.1630673;0.847132;-1.461513;1.132596;0.9053726;-0.2757912;-0.01746142;1.107971;-1.71753;-0.1630673;0.847132;-1.461513;1.132596
1468505.7704;NotLabelled;NONE;16384;-0.2493075;0.4806094;-0.7698377;-0.3379501;86;-99;50;-4332;3364;-2479;65536;0.4806094;-0.5083103;0.6147728;0.3642659;64;-629;258;4258;7455;361;8192;0.6221828;-0.6066482;-0.4944598;0.01939058;135;-275;-17;9842;4598;-5500;32768;0.6731302;-0.7157704;-0.1634349;0.08864266;119;-702;-413;-11871;8679;4110;256;0.2299169;-0.1523546;-0.7544702;-0.5955678;62;1;16;-2109;4050;15;128;-0.1523546;0.199446;0.6523545;0.7151524;-68;11;-11;-29;4495;658;4;-0.3795014;0.3614958;-0.5443213;-0.6549914;-10;7;-18;397;3902;-160;16;-0.04432133;-0.9470383;-0.2396122;0.2091413;17;-23;-7;-1541;-924;3730;2;0.6109949;-0.5734072;-0.33518;-0.4307479;18;-9;19;27;4340;-71;8;-0.1024931;-0.9520778;0.006925208;0.2880886;2;-2;2;635;-961;4375;1.253722;-0.2662454;-0.162912;1.259616;0.2708676;-0.2582874;1.264793;0.742636;-0.3441139;1.230308;1.449685;-0.5373867;0.9570825;1.741305;-0.6600782;0.6219621;1.606179;-0.5622309;0.2360452;0.9139383;-0.08243829;0;0;0;1.476809;1.766657;-0.66008;1.771165;1.662234;-0.5622332;2.206213;0.9734066;-0.04791212;2.336148;0.0606873;0.17083;0.9414603;-0.3089619;-0.1624939;1.134125;-1.752576;-0.3029168;0.9105593;-1.499774;1.000324;0.9414603;-0.3089619;-0.1624939;1.134125;-1.752576;-0.3029168;0.9105593;-1.499774;1.000324
1468526.0106;NotLabelled;NONE;16384;-0.2382271;0.4570637;-0.7763106;-0.3628809;111;-260;70;-4088;3588;-1821;65536;0.4141274;-0.3975069;0.7151028;0.398892;228;-1014;235;926;9841;8169;8192;0.6094183;-0.6310791;-0.4792244;0.02631579;81;-43;1;12342;7080;-424;32768;0.6973612;-0.6814404;-0.2119114;0.06648199;194;149;-163;-9611;4401;3318;256;0.2285319;-0.1620499;-0.7517715;-0.5969529;43;-24;30;-2931;4626;181;128;-0.1509695;0.2049861;0.6454294;0.7201457;-76;-14;-18;479;4937;738;4;-0.3795014;0.3628809;-0.5470914;-0.6519104;-11;8;-14;179;4000;-108;16;-0.04293629;-0.9478371;-0.2354571;0.2105263;16;-19;-6;-1721;-834;3804;2;0.6099061;-0.5747922;-0.3365651;-0.4293629;12;-6;9;131;4148;-241;8;-0.1024931;-0.9524958;0.006925208;0.2867036;0;-2;4;447;-909;4075;1.305371;-0.2916183;-0.2279694;1.311285;0.2473671;-0.3121184;1.316481;0.720823;-0.3880838;1.285196;1.43168;-0.5674326;1.013257;1.726942;-0.6841254;0.677581;1.591514;-0.5886244;0.3140065;0.8873394;-0.1087491;0;0;0;1.533097;1.749823;-0.6841269;1.827038;1.642106;-0.5886264;2.230893;0.9329965;-0.07643676;2.470748;0.04743433;0.1602848;0.9931092;-0.3343334;-0.2285138;1.181168;-1.779106;-0.3631433;0.9625263;-1.531165;0.9418658;0.9931092;-0.3343334;-0.2285138;1.181168;-1.779106;-0.3631433;0.9625263;-1.531165;0.9418658
1468546.9232;NotLabelled;NONE;16384;-0.2160665;0.4182825;-0.7897021;-0.3933518;132;-373;31;-5258;1392;-1109;65536;0.3518005;-0.2770083;0.7895454;0.4196676;246;-1058;163;-3178;6193;7203;8192;0.6052631;-0.6216014;-0.4972299;0.005540166;44;302;-3;11154;5120;2602;32768;0.7154246;-0.632964;-0.2950138;-0.02216066;151;757;-11;-2515;4887;4072;256;0.234072;-0.1717452;-0.7490079;-0.5955678;21;-53;24;-843;4616;277;128;-0.1523546;0.2091413;0.6440443;0.7198993;-20;-25;-17;383;4327;300;4;-0.3781163;0.3642659;-0.5526316;-0.6472532;-15;-4;-4;-197;4190;-132;16;-0.0401662;-0.9477106;-0.232687;0.2146814;9;-3;-8;-1807;-758;3884;2;0.606849;-0.5761772;-0.3379501;-0.4307479;9;14;8;-153;4084;-529;8;-0.1024931;-0.9524847;0.008310249;0.2867036;0;-3;2;169;-811;3815;1.346987;-0.3208888;-0.2659842;1.352918;0.2195969;-0.339889;1.358128;0.6944084;-0.4068556;1.337304;1.407377;-0.5792062;1.069725;1.707757;-0.6928785;0.7321116;1.576375;-0.5985662;0.3923096;0.8525338;-0.1306784;0;0;0;1.589847;1.722951;-0.6928802;1.88219;1.609971;-0.5985682;2.247731;0.8931613;-0.06862617;2.546891;0.0193398;0.1428618;1.034725;-0.3635852;-0.2674043;1.214664;-1.810273;-0.3922092;0.9882743;-1.567234;0.9124007;1.034725;-0.3635852;-0.2674043;1.214664;-1.810273;-0.3922092;0.9882743;-1.567234;0.9124007
1468567.7563;NotLabelled;NONE;16384;-0.1606648;0.3240997;-0.8209348;-0.4418283;39;-327;25;2038;6290;5263;65536;0.2922437;-0.1634349;0.8300491;0.4459834;79;-430;34;-15932;-1801;8245;8192;0.6024709;-0.5941828;-0.5318559;-0.033241;59;422;-17;5654;1776;418;32768;0.7191221;-0.5706371;-0.3725762;-0.1357341;111;1036;92;6953;2885;6228;256;0.2396122;-0.1828255;-0.7457262;-0.5941828;-2;-83;-3;2461;3530;-299;128;-0.1537396;0.2132964;0.6412742;0.7208579;-11;-23;-12;-457;3827;-58;4;-0.3781163;0.3628809;-0.5540166;-0.6468471;-12;-7;-1;-69;4090;-294;16;-0.0401662;-0.9477348;-0.2313019;0.2160665;7;-5;-8;-1597;-1028;3716;2;0.6037669;-0.5775623;-0.3393352;-0.432133;13;16;9;-597;3934;-775;8;-0.1038781;-0.9523347;0.008310249;0.2867036;0;-5;0;245;-831;3711;1.389292;-0.3472736;-0.272648;1.395226;0.1934147;-0.3450539;1.400438;0.6684108;-0.4107033;1.385067;1.382084;-0.5806946;1.11979;1.684879;-0.6933475;0.7811863;1.555777;-0.5994372;0.4650778;0.8126187;-0.145432;0;0;0;1.640013;1.696087;-0.6933489;1.931489;1.580558;-0.5994394;2.272861;0.860755;-0.05756927;2.596329;-0.009767294;0.1304438;1.077031;-0.389966;-0.2741959;1.242893;-1.839752;-0.3812821;1.001229;-1.602764;0.9217003;1.077031;-0.389966;-0.2741959;1.242893;-1.839752;-0.3812821;1.001229;-1.602764;0.9217003
1468588.7783;NotLabelled;NONE;16384;-0.1523546;0.301939;-0.8309084;-0.4418283;-56;-60;-9;4418;5114;8819;65536;0.3213296;-0.2146814;0.8042299;0.4515235;-226;207;-39;-10176;7993;-277;8192;0.5952634;-0.5457063;-0.5803324;-0.1052632;4;163;-41;-4592;4168;3674;32768;0.7084363;-0.4916897;-0.4238227;-0.2770083;-12;505;156;9485;-7;4414;256;0.2409972;-0.200831;-0.7350214;-0.601108;58;-28;0;927;3956;1699;128;-0.1537396;0.2243767;0.6315789;0.7260353;-59;-27;-10;-887;4001;152;4;-0.3781163;0.3614958;-0.5567867;-0.6452421;-9;-5;-1;167;4074;-482;16;-0.04155125;-0.9476954;-0.2299169;0.2174515;6;-3;-7;-1725;-1294;3650;2;0.6001067;-0.5803324;-0.3393352;-0.433518;13;6;10;-855;4028;-545;8;-0.1024931;-0.9528875;0.009695291;0.2853186;3;-4;-1;117;-715;3905;1.377072;-0.3498018;-0.268749;1.383011;0.191335;-0.3377225;1.388227;0.666738;-0.4003568;1.379601;1.38132;-0.5669731;1.117196;1.687142;-0.6781672;0.7773908;1.560807;-0.5848336;0.4979984;0.7920709;-0.149732;0;0;0;1.637502;1.693425;-0.678169;1.927876;1.574699;-0.584836;2.247871;0.8504186;-0.03593278;2.581957;-0.02306008;0.1164191;1.064811;-0.3924837;-0.2705896;1.228498;-1.842702;-0.3751376;0.9603232;-1.605649;0.9226354;1.064811;-0.3924837;-0.2705896;1.228498;-1.842702;-0.3751376;0.9603232;-1.605649;0.9226354
1468629.9113;NotLabelled;NONE;16384;-0.1842105;0.3642659;-0.8107132;-0.4196676;-18;487;14;5730;3292;2413;65536;0.4501385;-0.398892;0.6945814;0.3947368;-104;905;-171;304;5289;-3065;8192;0.6170745;-0.5526316;-0.5512465;-0.09972299;-9;-203;-97;-3878;1586;1370;32768;0.734174;-0.5415512;-0.3379501;-0.2313019;-95;-425;112;8377;6051;-1306;256;0.2423823;-0.2036011;-0.726916;-0.6094183;27;-3;-12;1253;4694;1637;128;-0.1523546;0.2285319;0.6274238;0.7286292;-1;2;-7;-1011;4561;368;4;-0.3767313;0.3601108;-0.5595568;-0.64443;-9;-9;-1;415;3934;-434;16;-0.04155125;-0.9473907;-0.2285319;0.2202216;3;-5;-5;-1549;-836;3674;2;0.5996814;-0.5872576;-0.33518;-0.4279778;13;-20;11;-469;3942;-97;8;-0.1024931;-0.9528723;0.01108033;0.2853186;-2;-3;0;311;-463;4103;1.347381;-0.344902;-0.2754451;1.353336;0.1977923;-0.3308449;1.358569;0.6746147;-0.3815538;1.362526;1.394071;-0.5258739;1.105553;1.707764;-0.6274099;0.7635648;1.584577;-0.5379211;0.4634785;0.8189018;-0.1112841;0;0;0;1.625889;1.704904;-0.6274111;1.914116;1.578254;-0.5379224;2.201649;0.83375;0.001812458;2.540038;-0.04884768;0.0674088;1.03512;-0.3875229;-0.2784396;1.191919;-1.838838;-0.3782277;0.8935401;-1.598202;0.9122729;1.03512;-0.3875229;-0.2784396;1.191919;-1.838838;-0.3782277;0.8935401;-1.598202;0.9122729
1468651.9004;NotLabelled;NONE;16384;-0.2188366;0.4224377;-0.7803649;-0.4058172;-6;472;43;764;4704;417;65536;0.5069252;-0.4709141;0.6192608;0.3711911;-154;833;-215;2320;3983;-5537;8192;0.6267095;-0.5720221;-0.5221606;-0.08587258;5;-271;-86;-1002;1716;174;32768;0.7572303;-0.5761772;-0.2631579;-0.1592798;-31;-677;105;1719;5757;-736;256;0.2396122;-0.200831;-0.7274423;-0.6108033;4;31;0;-175;4298;931;128;-0.1468144;0.2271468;0.6301939;0.7278087;1;28;-8;-859;4353;-8;4;-0.3767313;0.3573407;-0.5609418;-0.6447678;-9;4;0;805;4024;-538;16;-0.0401662;-0.9481204;-0.2243767;0.2216066;4;-15;-2;-1469;-598;3662;2;0.598721;-0.5900277;-0.333795;-0.4265928;15;-15;8;-207;4120;-171;8;-0.1024931;-0.953286;0.01108033;0.2839335;-2;0;2;251;-535;3779;1.301378;-0.3162458;-0.2415104;1.30734;0.227051;-0.2906498;1.312578;0.7044258;-0.3358575;1.312996;1.426992;-0.4637675;1.054483;1.741645;-0.5581704;0.7131045;1.614773;-0.4715506;0.3962271;0.8598623;-0.03792864;0;0;0;1.574827;1.741347;-0.558172;1.863673;1.614112;-0.4715531;2.172679;0.8502469;0.02774644;2.464072;-0.05135107;0.02744246;0.9891177;-0.3588293;-0.2450354;1.139422;-1.811053;-0.3415469;0.8408918;-1.569559;0.948758;0.9891177;-0.3588293;-0.2450354;1.139422;-1.811053;-0.3415469;0.8408918;-1.569559;0.948758
1468673.7689;NotLabelled;NONE;16384;-0.2520775;0.4570637;-0.7532118;-0.400277;-19;-56;70;-6636;3084;-3493;65536;0.5304709;-0.4626039;0.5830187;0.4058172;-27;-85;-170;7184;3165;-2573;8192;0.6351152;-0.5955678;-0.4875346;-0.06509695;6;-304;-70;1906;3824;-1388;32768;0.7716957;-0.5983379;-0.1911357;-0.09972299;-42;-704;115;-1719;7833;-3104;256;0.2354571;-0.1980609;-0.7283936;-0.6121883;2;36;13;-393;3548;121;128;-0.1412742;0.2243767;0.632964;0.7273605;9;45;-9;-499;3715;336;4;-0.3795014;0.3573407;-0.5609418;-0.6431412;-8;15;0;711;3998;-408;16;-0.0401662;-0.9484471;-0.2216066;0.2229917;6;-18;-1;-1345;-670;3546;2;0.5973529;-0.5914127;-0.333795;-0.4265928;13;-9;3;65;4216;41;8;-0.1024931;-0.953286;0.01108033;0.2839335;0;-1;1;285;-679;3801;1.234569;-0.2839758;-0.2006583;1.240529;0.2591393;-0.251765;1.245766;0.7363477;-0.2987015;1.245386;1.459061;-0.4257754;0.9865263;1.773538;-0.5198145;0.6452878;1.646189;-0.4333418;0.3305243;0.8879948;-0.003930002;0;0;0;1.50687;1.773815;-0.519816;1.795857;1.646798;-0.4333439;2.109097;0.8689284;0.04107618;2.384124;-0.03731489;0.01156569;0.9223086;-0.3265719;-0.2040169;1.067425;-1.778908;-0.3065857;0.7845508;-1.542494;0.9881796;0.9223086;-0.3265719;-0.2040169;1.067425;-1.778908;-0.3065857;0.7845508;-1.542494;0.9881796
1468694.7636;NotLabelled;NONE;16384;-0.2506925;0.4279778;-0.7632082;-0.4141274;20;-268;110;-4174;1456;-3693;65536;0.4861496;-0.3795014;0.6348735;0.4653739;11;-676;-92;4962;4167;-2437;8192;0.6443421;-0.6135734;-0.4529086;-0.0567867;22;127;-68;8316;3748;-2746;32768;0.7859351;-0.566482;-0.1731302;-0.1772853;70;304;222;-11867;4963;-1692;256;0.2313019;-0.199446;-0.7270123;-0.6149584;22;19;16;-363;3112;-219;128;-0.1371191;0.2229917;0.6288089;0.7321697;-35;36;-7;-243;3585;1316;4;-0.3808864;0.3587258;-0.5595568;-0.6427578;-6;19;3;343;3938;-292;16;-0.0401662;-0.9487696;-0.2202216;0.2229917;5;-10;0;-1819;-742;3708;2;0.5981247;-0.5914127;-0.33241;-0.4265928;9;-4;-3;223;4162;-301;8;-0.1024931;-0.9536612;0.01385042;0.2825485;1;-10;0;403;-889;3911;1.140414;-0.2432444;-0.1204753;1.146372;0.2996731;-0.1736424;1.151606;0.7767;-0.2223893;1.151789;1.499565;-0.3485988;0.8931749;1.814353;-0.4422721;0.5518349;1.687164;-0.3559651;0.2465048;0.9134178;0.05198114;0;0;0;1.413519;1.814229;-0.4422526;1.702404;1.686886;-0.355921;2.022384;0.8946671;0.08936167;2.274316;-0.01646471;0.02489376;0.8281534;-0.2858529;-0.1236593;0.9671302;-1.738415;-0.2313904;0.7019777;-1.502793;1.067264;0.8281534;-0.2858529;-0.1236593;0.9671302;-1.738415;-0.2313904;0.7019777;-1.502793;1.067264
1468714.7964;NotLabelled;NONE;16384;-0.2382271;0.3878116;-0.7714806;-0.4445983;109;-330;128;-726;400;-3583;65536;0.432133;-0.2756233;0.6889645;0.5124654;166;-882;-31;5560;5555;4821;8192;0.6435154;-0.599723;-0.466759;-0.09141274;60;295;-95;4066;2758;-1278;32768;0.7743733;-0.5221606;-0.2132964;-0.2867036;122;698;246;-10701;2003;2326;256;0.234072;-0.2077562;-0.7202402;-0.6191136;17;-27;8;-81;4118;1;128;-0.1371191;0.2243767;0.6246537;0.7352967;-15;0;2;-249;4071;458;4;-0.3836565;0.3601108;-0.5595568;-0.6403313;-6;15;6;-145;4112;-174;16;-0.03878116;-0.9494659;-0.2174515;0.2229917;3;-10;0;-1707;-772;3786;2;0.5914127;-0.5951394;-0.33241;-0.4307479;9;11;-8;-219;4102;-555;8;-0.1024931;-0.9540493;0.01523546;0.2811634;1;-4;0;465;-885;4191;1.146144;-0.241755;-0.09768748;1.152109;0.3018093;-0.143773;1.15735;0.7794311;-0.1862977;1.161344;1.503273;-0.306712;0.9043939;1.820161;-0.3978506;0.5623876;1.694085;-0.3125525;0.2553864;0.9095395;0.07289132;0;0;0;1.42473;1.817293;-0.3978519;1.71294;1.687741;-0.3125544;2.020858;0.8760183;0.1052582;2.240146;-0.02586937;-0.0852623;0.8338838;-0.2843182;-0.1014711;0.9744923;-1.736638;-0.2103468;0.7158831;-1.501813;1.08977;0.8338838;-0.2843182;-0.1014711;0.9744923;-1.736638;-0.2103468;0.7158831;-1.501813;1.08977
1468735.7655;NotLabelled;NONE;16384;-0.2243767;0.3531856;-0.7715303;-0.4792244;172;-229;102;1226;750;-1815;65536;0.3767313;-0.1772853;0.726178;0.5470914;146;-883;-37;-5164;5277;5333;8192;0.6371161;-0.5844875;-0.4833795;-0.1371191;105;299;-105;14;2674;-730;32768;0.7437751;-0.468144;-0.2617728;-0.398892;107;872;207;-5371;963;3322;256;0.234072;-0.2119114;-0.7190287;-0.6191136;12;-26;2;707;3978;69;128;-0.1357341;0.2243767;0.6246537;0.7355536;-4;3;0;-575;3877;1048;4;-0.3850415;0.3601108;-0.5609418;-0.6382848;-9;8;8;-283;4172;-20;16;-0.0401662;-0.9493983;-0.2160665;0.2243767;0;-8;-1;-1609;-984;3876;2;0.5914127;-0.5941344;-0.33241;-0.432133;8;8;-9;-591;4052;-491;8;-0.1024931;-0.9540705;0.01385042;0.2811634;0;0;0;327;-815;4123;1.162437;-0.2394135;-0.06621683;1.168407;0.3046088;-0.1065358;1.173653;0.7826543;-0.1439935;1.180502;1.508442;-0.251919;0.9248091;1.827857;-0.3376091;0.582298;1.701672;-0.254528;0.2954401;0.8948178;0.09906475;0;0;0;1.44513;1.822951;-0.3376105;1.732816;1.690821;-0.2545302;2.020934;0.8644586;0.1484445;2.249326;-0.01770782;-0.1111851;0.850178;-0.2819338;-0.07048786;0.9871539;-1.734744;-0.1774461;0.7090216;-1.505047;1.119554;0.850178;-0.2819338;-0.07048786;0.9871539;-1.734744;-0.1774461;0.7090216;-1.505047;1.119554
1468755.7725;NotLabelled;NONE;16384;-0.2146814;0.33241;-0.7648765;-0.5083103;146;-115;80;1398;3712;3019;65536;0.3490305;-0.1246537;0.7413065;0.5595568;131;-613;-36;144;-3483;6181;8192;0.6311947;-0.5761772;-0.4875346;-0.1786704;123;165;-105;-2916;2598;-14;32768;0.7053466;-0.4196676;-0.2977839;-0.4875346;89;825;169;1849;15;4092;256;0.234072;-0.2132964;-0.7174234;-0.6204986;10;-7;-2;949;3896;415;128;-0.134349;0.2243767;0.6232687;0.7369814;-9;12;-1;-791;3941;882;4;-0.3864266;0.3573407;-0.5637119;-0.6365619;-10;-16;7;33;4172;-88;16;-0.04155125;-0.9496528;-0.2146814;0.2243767;-2;-8;0;-1609;-1090;3720;2;0.5914127;-0.5938987;-0.3310249;-0.433518;6;3;-9;-753;4096;-399;8;-0.1038781;-0.9539207;0.01385042;0.2811634;-1;4;1;445;-807;3973;1.160873;-0.2334938;-0.02592814;1.166844;0.3105609;-0.06581151;1.17209;0.788636;-0.1028864;1.182916;1.51475;-0.2082598;0.9289799;1.83586;-0.292836;0.5857787;1.711259;-0.2102117;0.3345881;0.8794677;0.1112785;0;0;0;1.449266;1.828106;-0.2928355;1.73622;1.694112;-0.2102094;1.994962;0.8485382;0.1723242;2.248026;-0.009211779;-0.1407428;0.8486139;-0.2760108;-0.03023601;0.9786904;-1.729516;-0.1363528;0.6965417;-1.496312;1.159153;0.8486139;-0.2760108;-0.03023601;0.9786904;-1.729516;-0.1363528;0.6965417;-1.496312;1.159153
1468776.7694;NotLabelled;NONE;16384;-0.2257618;0.3254848;-0.7465028;-0.534626;31;128;73;1632;5520;6097;65536;0.367036;-0.1412742;0.7074282;0.5872576;-167;115;-60;-7748;5329;5035;8192;0.6276882;-0.5803324;-0.4778393;-0.2022161;109;-27;-122;-4668;2490;3182;32768;0.6862012;-0.3933518;-0.3144044;-0.5249307;66;484;98;8853;-561;6340;256;0.234072;-0.2160665;-0.7165941;-0.6204986;7;-5;0;827;3888;689;128;-0.1315789;0.2271468;0.6191136;0.7401282;-28;5;-4;-763;3935;1004;4;-0.3864266;0.3545706;-0.5650969;-0.6368827;-9;-13;7;417;4062;-16;16;-0.04293629;-0.949575;-0.2132964;0.2257618;-2;-11;0;-1557;-1040;3578;2;0.5914127;-0.5944234;-0.3282548;-0.434903;5;-2;-8;-735;3956;-403;8;-0.1038781;-0.9539207;0.01385042;0.2811634;-1;2;2;457;-665;3917;1.145351;-0.2259386;-0.006216884;1.151323;0.3182826;-0.04375505;1.156571;0.7965136;-0.07876909;1.167884;1.523103;-0.180759;0.9141673;1.84477;-0.2638605;0.5708768;1.720013;-0.1818466;0.3603435;0.8685479;0.116506;0;0;0;1.434448;1.836673;-0.2638514;1.721307;1.702108;-0.1818256;1.95175;0.8343329;0.167657;2.227648;-0.001774311;-0.1824751;0.8330916;-0.2684364;-0.01072252;0.9514949;-1.7226;-0.1213812;0.6665848;-1.486664;1.173025;0.8330916;-0.2684364;-0.01072252;0.9514949;-1.7226;-0.1213812;0.6665848;-1.486664;1.173025
1468817.7598;NotLabelled;NONE;16384;-0.2451524;0.3393352;-0.7361258;-0.5318559;1;188;37;-4;3178;3173;65536;0.4155124;-0.1842105;0.6697345;0.5872576;-256;359;-122;-6238;10613;-4323;8192;0.6459152;-0.5955678;-0.4293629;-0.2091413;-8;-139;-116;284;4234;2744;32768;0.7239768;-0.4432133;-0.2506925;-0.4653739;-131;-419;17;6583;5737;926;256;0.2313019;-0.2160665;-0.717493;-0.6204986;5;9;4;201;4150;685;128;-0.1288089;0.2285319;0.6135734;0.7447881;-42;4;-5;-541;4075;744;4;-0.3864266;0.3518005;-0.566482;-0.6371884;-7;-6;6;637;3994;-108;16;-0.04432133;-0.9498215;-0.2119114;0.2257618;0;-9;-1;-1601;-978;3488;2;0.5914127;-0.5951861;-0.3268698;-0.434903;4;-5;-6;-655;4082;-363;8;-0.1024931;-0.9544775;0.01385042;0.2797784;0;0;2;251;-595;3873;1.0352;-0.1877975;0.08496535;1.041176;0.3568397;0.0540415;1.046429;0.8354604;0.02484;1.060372;1.562247;-0.07541072;0.8078226;1.885027;-0.1577464;0.4640811;1.761316;-0.07603729;0.2902144;0.8855693;0.1712856;0;0;0;1.328071;1.875048;-0.1577483;1.614439;1.73925;-0.07603991;1.815385;0.8505676;0.2372311;2.111238;0.02626967;-0.1244206;0.7229411;-0.2302372;0.07990211;0.8373942;-1.68438;-0.03511322;0.5509852;-1.444952;1.25832;0.7229411;-0.2302372;0.07990211;0.8373942;-1.68438;-0.03511322;0.5509852;-1.444952;1.25832
1468837.7694;NotLabelled;NONE;16384;-0.265928;0.3601108;-0.7218964;-0.5277008;18;232;30;724;3278;71;65536;0.4792244;-0.2396122;0.6347587;0.5567867;-122;560;-152;-3364;8933;-3849;8192;0.658948;-0.601108;-0.4044321;-0.2022161;-15;-177;-96;804;5236;88;32768;0.7720361;-0.4709141;-0.1980609;-0.3781163;-120;-629;24;7263;13319;-1174;256;0.2285319;-0.2132964;-0.7204;-0.6191136;-14;9;4;461;4340;339;128;-0.1246537;0.232687;0.6066482;0.7498641;-36;2;-6;-719;4413;758;4;-0.3878116;0.3504155;-0.566482;-0.6371101;-5;0;7;687;3854;-318;16;-0.04432133;-0.9501294;-0.2105263;0.2257618;0;-8;0;-1613;-756;3546;2;0.5927978;-0.5953231;-0.3240997;-0.434903;3;-5;-7;-369;3980;-293;8;-0.1024931;-0.9549015;0.01246537;0.2783934;0;2;1;273;-745;4103;0.9793732;-0.1820698;0.1322089;0.9853544;0.362982;0.1097499;0.9906111;0.8419988;0.0879873;1.007336;1.568725;-0.01227129;0.7560234;1.892468;-0.09461081;0.4118111;1.770075;-0.01290029;0.2378392;0.8904068;0.2200121;0;0;0;1.27623;1.880499;-0.09461212;1.562076;1.743607;-0.01290226;1.748697;0.8288267;0.2250571;1.9849;-0.0003662109;-0.1679256;0.6671156;-0.2244256;0.1264338;0.7766161;-1.678523;0.00615567;0.4957;-1.436368;1.300286;0.6671156;-0.2244256;0.1264338;0.7766161;-1.678523;0.00615567;0.4957;-1.436368;1.300286
1468857.9264;NotLabelled;NONE;16384;-0.2880886;0.3864266;-0.702552;-0.5235457;50;280;47;638;5372;-1333;65536;0.5373961;-0.2922437;0.5990846;0.5166205;-29;665;-100;2598;6507;-3625;8192;0.6683095;-0.6135734;-0.3753462;-0.1897507;43;-236;-78;1148;6394;-2980;32768;0.8127374;-0.4875346;-0.1454294;-0.2839335;72;-855;-41;-5545;8801;868;256;0.2271468;-0.2132964;-0.720838;-0.6191136;-15;16;14;-733;4332;-219;128;-0.1246537;0.234072;0.6094183;0.7471821;-2;4;-10;-403;4575;956;4;-0.3891967;0.3490305;-0.5650969;-0.6382548;-3;5;8;691;3940;-282;16;-0.04432133;-0.9504353;-0.2091413;0.2257618;0;-7;-1;-1721;-658;3772;2;0.595062;-0.5927978;-0.3227147;-0.4362881;1;0;-9;-425;4160;-347;8;-0.101108;-0.9550663;0.01108033;0.2783934;0;7;1;243;-733;4007;0.9502198;-0.1822226;0.1598416;0.9562049;0.3631663;0.1481417;0.9614652;0.8425188;0.1358353;0.9791467;1.568621;0.03130686;0.7282547;1.89221;-0.05289906;0.3838908;1.770759;0.02957553;0.2157833;0.8873844;0.252553;0;0;0;1.248445;1.879547;-0.05290031;1.534119;1.742754;0.0295738;1.726834;0.8214302;0.23524;1.957277;-0.009489775;-0.1575124;0.6379635;-0.2244554;0.1531643;0.7441607;-1.678278;0.02674776;0.4742761;-1.436926;1.323374;0.6379635;-0.2244554;0.1531643;0.7441607;-1.678278;0.02674776;0.4742761;-1.436926;1.323374
1468878.7688;NotLabelled;NONE;16384;-0.3144044;0.4113573;-0.6787693;-0.5207756;31;265;89;-534;8226;-905;65536;0.5803358;-0.3240997;0.5637119;0.4903047;-53;496;-115;2776;5421;-4621;8192;0.6723232;-0.6301939;-0.3462604;-0.1759003;53;-213;-61;3350;8236;-2262;32768;0.8228814;-0.4903047;-0.1149584;-0.2631579;-6;-446;60;-6881;4651;-1534;256;0.2271468;-0.2160665;-0.7200125;-0.6191136;6;0;12;-777;4580;-327;128;-0.1260388;0.2354571;0.6135734;0.7431029;32;-5;-9;-281;4547;918;4;-0.3933518;0.3476454;-0.5637119;-0.637688;-3;10;13;359;4226;46;16;-0.04570637;-0.9506451;-0.2063712;0.2271468;-3;-13;-3;-1573;-664;3784;2;0.5954229;-0.5914127;-0.3227147;-0.4376731;1;1;-10;-385;4218;-455;8;-0.101108;-0.9550943;0.008310249;0.2783934;0;12;0;265;-699;3843;0.9194705;-0.1818645;0.2005023;0.9254544;0.363431;0.1850548;0.9307137;0.8426876;0.1694546;0.9497765;1.568754;0.06492084;0.6995007;1.89282;-0.01928735;0.3549064;1.772024;0.06318823;0.1986633;0.8841581;0.2767561;0;0;0;1.219665;1.879167;-0.0192889;1.505079;1.741832;0.06318617;1.690526;0.814023;0.2450012;1.930045;-0.0151484;-0.146014;0.6072137;-0.2241421;0.1941389;0.7158067;-1.677118;0.06024629;0.4490538;-1.436572;1.35767;0.6072137;-0.2241421;0.1941389;0.7158067;-1.677118;0.06024629;0.4490538;-1.436572;1.35767
1468898.7792;NotLabelled;NONE;16384;-0.3504155;0.4168975;-0.655214;-0.5235457;-3;-15;87;-5056;4058;387;65536;0.6139079;-0.3268698;0.5290859;0.4861496;-2;86;-124;3570;2109;-2677;8192;0.6756079;-0.6385041;-0.3268698;-0.1703601;34;-65;-51;4684;6486;1098;32768;0.8123478;-0.4875346;-0.1135734;-0.299169;-42;80;129;-3057;2635;-1030;256;0.2271468;-0.2188366;-0.7203654;-0.6177285;-4;-19;14;-93;4350;-283;128;-0.1288089;0.2354571;0.6191136;0.7380154;49;-9;-7;-267;4251;1224;4;-0.3947368;0.3476454;-0.5637119;-0.6368315;-3;6;14;147;4172;-62;16;-0.04570637;-0.9509448;-0.2049861;0.2271468;-1;-10;-1;-1411;-744;3544;2;0.5951523;-0.5914127;-0.3213296;-0.4390582;0;3;-10;-499;4180;-515;8;-0.09972299;-0.955251;0.006925208;0.2783934;2;14;0;269;-725;3847;0.8718727;-0.1809299;0.2590521;0.8778545;0.3641596;0.2375352;0.8831115;0.8432131;0.2166006;0.9048232;1.569453;0.1138029;0.6557341;1.894628;0.03035331;0.3106967;1.77489;0.1125183;0.1692011;0.8802309;0.3071828;0;0;0;1.175846;1.879081;0.030352;1.460752;1.740512;0.1125166;1.626597;0.8064113;0.280521;1.851897;-0.0155313;-0.1335289;0.5596152;-0.2232757;0.2531979;0.6663429;-1.675379;0.1087577;0.3983715;-1.432178;1.405435;0.5596152;-0.2232757;0.2531979;0.6663429;-1.675379;0.1087577;0.3983715;-1.432178;1.405435
1468919.788;NotLabelled;NONE;16384;-0.3504155;0.4030471;-0.6560611;-0.533241;9;-120;79;-2976;2658;847;65536;0.6021587;-0.3033241;0.5290859;0.5152354;-37;-154;-110;4666;1939;-1265;8192;0.6703802;-0.6357341;-0.3282548;-0.1966759;38;90;-67;1812;3168;1356;32768;0.7758162;-0.4764543;-0.1191136;-0.3961219;-58;314;140;4705;2317;1574;256;0.2271468;-0.2216066;-0.7195181;-0.6177285;-5;-15;9;765;4156;263;128;-0.1288089;0.2354571;0.6232687;0.7345096;56;6;-4;-499;3775;1460;4;-0.3961219;0.3462604;-0.5623268;-0.6379496;-3;-3;14;61;4014;-252;16;-0.04570637;-0.9509104;-0.2036011;0.2285319;1;-5;0;-1383;-854;3388;2;0.5972694;-0.5900277;-0.3199446;-0.4390582;0;0;-11;-767;4104;-461;8;-0.09972299;-0.955251;0.006925208;0.2783934;2;6;0;375;-823;3985;0.8109618;-0.1835787;0.3824507;0.8169392;0.3611121;0.3524902;0.8221919;0.8397837;0.3241352;0.8473676;1.565804;0.2205751;0.599831;1.892076;0.1367925;0.2542287;1.774074;0.219094;0.1236479;0.8677363;0.3599193;0;0;0;1.119862;1.874046;0.136791;1.404107;1.734205;0.2190919;1.556971;0.7954087;0.3726128;1.758173;-0.01954365;-0.06688404;0.4987034;-0.2260091;0.3773063;0.6034545;-1.678109;0.2313892;0.3307973;-1.435717;1.527241;0.4987034;-0.2260091;0.3773063;0.6034545;-1.678109;0.2313892;0.3307973;-1.435717;1.527241
1468940.7687;NotLabelled;NONE;16384;-0.3448753;0.3836565;-0.6580595;-0.5484765;30;-147;72;52;2376;-229;65536;0.5567867;-0.2534626;0.5457063;0.5726691;-47;-436;-78;5332;2911;-993;8192;0.671451;-0.6315789;-0.3254848;-0.2105263;5;18;-75;122;4410;2240;32768;0.7627128;-0.4875346;-0.101108;-0.4127424;-128;142;100;8713;2855;1530;256;0.2257618;-0.2229917;-0.721895;-0.6149584;-11;1;0;1323;3280;365;128;-0.1288089;0.2368421;0.6246537;0.732886;7;1;-2;-837;3277;782;4;-0.3975069;0.3448753;-0.5623268;-0.6378384;-3;-10;13;153;3960;-282;16;-0.04709141;-0.9508429;-0.2036011;0.2285319;3;-3;1;-1455;-1006;3604;2;0.5969899;-0.5900277;-0.3185596;-0.4404432;-1;-2;-10;-803;4048;-461;8;-0.09833795;-0.9553946;0.006925208;0.2783934;4;1;0;165;-801;3973;0.7782938;-0.1865757;0.4295473;0.7842673;0.3577697;0.393855;0.7895166;0.8361168;0.360463;0.8173283;1.562291;0.2586811;0.5709814;1.889661;0.1756757;0.2249468;1.772709;0.257659;0.09989771;0.862752;0.3787822;0;0;0;1.090944;1.86975;0.1756744;1.374673;1.728681;0.2576572;1.503717;0.7828021;0.3877976;1.652604;-0.007136345;-0.113817;0.4660347;-0.2290578;0.4248859;0.5740874;-1.68022;0.2722041;0.3003576;-1.437921;1.567847;0.4660347;-0.2290578;0.4248859;0.5740874;-1.68022;0.2722041;0.3003576;-1.437921;1.567847
1468961.914;NotLabelled;NONE;16384;-0.3421052;0.367036;-0.6549153;-0.5650969;56;-68;77;2860;2288;-601;65536;0.4930748;-0.1855956;0.5734072;0.627404;35;-718;-33;4330;2965;1135;8192;0.6777766;-0.6288089;-0.3157895;-0.2132964;-47;-49;-70;-408;4300;2218;32768;0.7685259;-0.5069252;-0.05540166;-0.3864266;-179;-138;95;11333;5705;2662;256;0.2257618;-0.2229917;-0.721895;-0.6149584;-4;4;-2;939;3440;245;128;-0.1288089;0.2368421;0.6218836;0.735238;-28;-7;1;-731;3729;748;4;-0.3975069;0.3421052;-0.5637119;-0.6381075;-2;-12;14;473;3998;-258;16;-0.04570637;-0.9509104;-0.2036011;0.2285319;3;0;3;-1581;-938;3732;2;0.5977269;-0.5900277;-0.3171745;-0.4404432;1;-4;-4;-767;3906;-187;8;-0.09695291;-0.9551476;0.004155125;0.2797784;2;7;-2;249;-811;4283;0.7442347;-0.1878102;0.4726133;0.7502068;0.3564076;0.4350254;0.7554547;0.8346353;0.3999678;0.7875993;1.560039;0.2940451;0.5431966;1.888408;0.2092599;0.1964946;1.77401;0.2920232;0.08332093;0.8596811;0.3896185;0;0;0;1.06303;1.865367;0.2091982;1.345935;1.72306;0.2918876;1.468713;0.7732129;0.3967178;1.567613;-0.01057816;-0.1264256;0.4319755;-0.2303085;0.4681118;0.5376576;-1.68108;0.3101481;0.2641244;-1.435243;1.605165;0.4319755;-0.2303085;0.4681118;0.5376576;-1.68108;0.3101481;0.2641244;-1.435243;1.605165
1468982.9201;NotLabelled;NONE;16384;-0.3490305;0.3614958;-0.6421203;-0.5789474;86;54;78;2984;2312;-345;65536;0.4362881;-0.134349;0.5914127;0.664706;59;-683;-1;-3926;3267;5509;8192;0.6904151;-0.6218836;-0.3047091;-0.2091413;-58;-85;-50;-592;3324;1280;32768;0.7910528;-0.5193906;0.01800554;-0.3227147;-171;-568;119;3607;7507;2206;256;0.2243767;-0.2216066;-0.7227529;-0.6149584;0;12;-2;253;4388;241;128;-0.1274238;0.2368421;0.6191136;0.7378126;-27;0;4;-615;4389;514;4;-0.3975069;0.3365651;-0.5623268;-0.6422622;0;-4;12;933;3842;-296;16;-0.04709141;-0.9511384;-0.2022161;0.2285319;-2;-3;0;-1667;-876;3966;2;0.5984598;-0.5900277;-0.3157895;-0.4404432;1;-6;-3;-773;4060;-257;8;-0.09695291;-0.9551476;0.004155125;0.2797784;1;1;-3;271;-671;4205;0.7386863;-0.189213;0.4876916;0.7446612;0.3552556;0.4539334;0.7499118;0.8337183;0.4222411;0.7820933;1.559121;0.3163297;0.5377207;1.887491;0.2314588;0.1909896;1.773093;0.3141003;0.09605061;0.8551998;0.3964908;0;0;0;1.057554;1.864451;0.2315795;1.34043;1.722144;0.3143685;1.465639;0.7714267;0.4078308;1.506685;-0.007462025;-0.1301606;0.4264274;-0.2316785;0.4828671;0.5275641;-1.682257;0.3202237;0.254008;-1.439957;1.615903;0.4264274;-0.2316785;0.4828671;0.5275641;-1.682257;0.3202237;0.254008;-1.439957;1.615903
1469003.815;NotLabelled;NONE;16384;-0.3725762;0.3753462;-0.6205821;-0.5789474;-58;93;19;-2788;7084;6375;65536;0.4778393;-0.2036011;0.5554016;0.6494191;-150;378;42;-11268;2203;7027;8192;0.6987532;-0.6232687;-0.2908587;-0.1966759;-21;-150;-16;-816;2852;-1114;32768;0.8000878;-0.5221606;0.08587258;-0.2825485;-145;-624;179;-2609;9233;-2584;256;0.2229917;-0.2202216;-0.7247792;-0.6135734;-11;16;2;-979;4872;211;128;-0.1288089;0.2368421;0.6218836;0.735238;7;5;1;-189;4749;338;4;-0.400277;0.33518;-0.5609418;-0.6424772;0;4;11;991;3996;-132;16;-0.04709141;-0.9511384;-0.2022161;0.2285319;-4;-7;-3;-1713;-742;3840;2;0.5999134;-0.5900277;-0.3130194;-0.4404432;0;-9;-6;-525;4112;-345;8;-0.09556787;-0.9552872;0.004155125;0.2797784;0;3;-2;269;-589;4055;0.7233605;-0.1839781;0.5107886;0.729338;0.3607371;0.4812696;0.7345911;0.8394315;0.4533026;0.7668029;1.5647;0.3464789;0.5224332;1.892984;0.2612701;0.1757165;1.778717;0.3441544;0.1066627;0.8560674;0.3918779;0;0;0;1.042265;1.8699;0.2612688;1.325153;1.727672;0.3441529;1.469332;0.7771165;0.4068542;1.453279;0.009479761;-0.1483606;0.411102;-0.2264044;0.5056071;0.5171039;-1.674789;0.3272656;0.2490773;-1.429767;1.623588;0.411102;-0.2264044;0.5056071;0.5171039;-1.674789;0.3272656;0.2490773;-1.429767;1.623588
1469024.9495;NotLabelled;NONE;16384;-0.3864266;0.3767313;-0.6252815;-0.5637119;-130;82;0;-904;6140;3707;65536;0.5650969;-0.2922437;0.4958449;0.5910981;-228;902;-21;-2706;9329;2881;8192;0.6954923;-0.6440443;-0.2700831;-0.1689751;76;-6;24;1538;4536;-1526;32768;0.7596988;-0.5152354;0.09556787;-0.3850415;-21;339;224;-12341;-659;-146;256;0.2243767;-0.2202216;-0.7278509;-0.6094183;-29;6;6;-1627;4796;75;128;-0.1315789;0.2368421;0.6274238;0.730022;38;-1;-3;-17;4745;402;4;-0.4016621;0.333795;-0.5595568;-0.6435407;1;9;13;733;4082;-104;16;-0.04847645;-0.9513623;-0.200831;0.2285319;-4;-8;-6;-1629;-734;3654;2;0.6019914;-0.5886427;-0.3116343;-0.4404432;0;-6;-8;-429;4126;-273;8;-0.09556787;-0.9552922;0.002770083;0.2797784;0;7;0;343;-657;3895;0.6293072;-0.1695988;0.5338224;0.635282;0.3748698;0.5000642;0.6405325;0.8533325;0.4683718;0.6736006;1.578052;0.3581436;0.4296108;1.90623;0.2714482;0.08277369;1.792774;0.3549396;0.03397529;0.8679037;0.3786631;0;0;0;0.949414;1.882515;0.2714468;1.232147;1.740334;0.3549373;1.384652;0.790463;0.4074824;1.302674;0.04469872;-0.1712259;0.3170483;-0.2120643;0.528998;0.4223342;-1.659304;0.3411934;0.1597706;-1.414282;1.638634;0.3170483;-0.2120643;0.528998;0.4223342;-1.659304;0.3411934;0.1597706;-1.414282;1.638634
1469046.0777;NotLabelled;NONE;16384;-0.4016621;0.3781163;-0.6319889;-0.5443213;-122;121;-7;1080;3352;563;65536;0.6553969;-0.367036;0.4293629;0.501385;-145;1059;-73;3898;10081;475;8192;0.6836299;-0.6509695;-0.2756233;-0.1814404;102;107;-13;260;5994;-3146;32768;0.7104831;-0.5166205;0.05124654;-0.4750692;-17;675;148;-5443;-729;822;256;0.2257618;-0.2216066;-0.7316101;-0.6038781;-37;-13;11;-713;4650;381;128;-0.1357341;0.2382271;0.634349;0.7227901;65;-10;-3;115;4599;812;4;-0.4030471;0.333795;-0.5581717;-0.6438775;1;8;14;429;4120;-264;16;-0.04847645;-0.9510285;-0.200831;0.2299169;0;-2;-6;-1651;-790;3434;2;0.6019914;-0.5886427;-0.3116343;-0.4404432;-1;-1;-9;-441;4066;-401;8;-0.09556787;-0.9552872;0.004155125;0.2797784;0;2;0;393;-741;3989;0.5975297;-0.1695464;0.5654517;0.603498;0.3743277;0.5231782;0.6087425;0.8522353;0.484003;0.6428565;1.575731;0.3663005;0.3993227;1.903369;0.276344;0.05235443;1.791307;0.3611624;-0.02696532;0.868403;0.3780808;0;0;0;0.9190894;1.878864;0.2763427;1.201647;1.737121;0.3611607;1.334752;0.7857623;0.4351538;1.176703;0.1136835;-0.2137824;0.28527;-0.2120814;0.5613459;0.3934743;-1.65819;0.3666095;0.1281912;-1.410443;1.662979;0.28527;-0.2120814;0.5613459;0.3934743;-1.65819;0.3666095;0.1281912;-1.410443;1.662979
1469065.8736;NotLabelled;NONE;16384;-0.4238227;0.3905817;-0.626313;-0.5249307;-65;247;14;3320;2554;-977;65536;0.724353;-0.4099723;0.368421;0.4141274;8;1019;-81;11180;4481;-1977;8192;0.6725058;-0.6565097;-0.2783934;-0.1980609;98;66;-38;-1034;5054;-2102;32768;0.6607926;-0.5138504;-0.001385042;-0.5470914;35;725;52;2385;977;3350;256;0.232687;-0.2188366;-0.738183;-0.5941828;-44;-5;-12;1685;4066;157;128;-0.1454294;0.2382271;0.6523545;0.70465;85;-15;0;-865;3951;502;4;-0.4044321;0.33241;-0.5567867;-0.6449239;1;2;16;169;4134;-292;16;-0.04847645;-0.9506925;-0.200831;0.2313019;1;-2;-5;-1387;-756;3506;2;0.6030437;-0.5872576;-0.3102493;-0.4418283;-3;1;-11;-527;4092;-409;8;-0.09556787;-0.9556917;0.004155125;0.2783934;0;-3;0;225;-707;3977;0.6012731;-0.1771729;0.6113566;0.607231;0.3657427;0.5581703;0.6124656;0.8427677;0.5094064;0.6497575;1.564583;0.3826988;0.4076419;1.892172;0.288819;0.06022763;1.782736;0.3752273;-0.05754016;0.8638434;0.3850445;0;0;0;0.9272929;1.865327;0.2888177;1.209265;1.723378;0.3752255;1.314728;0.7692914;0.4581184;1.148453;0.1198101;-0.2114444;0.2890127;-0.2197814;0.6081743;0.4004329;-1.665184;0.4100442;0.1338689;-1.416732;1.706016;0.2890127;-0.2197814;0.6081743;0.4004329;-1.665184;0.4100442;0.1338689;-1.416732;1.706016
1469086.7669;NotLabelled;NONE;16384;-0.4501385;0.4127424;-0.6094655;-0.5055401;-12;287;26;1582;4826;-2765;65536;0.7596849;-0.4293629;0.3268698;0.3628809;44;661;-113;9436;1773;-1205;8192;0.6646396;-0.6620498;-0.2728532;-0.2132964;74;17;-56;-1346;3486;586;32768;0.6337379;-0.5152354;-0.03047091;-0.5761772;31;463;-16;9999;1843;7488;256;0.2354571;-0.2174515;-0.7410412;-0.5900277;-45;-2;-24;1079;3722;165;128;-0.1481994;0.2382271;0.6565097;0.7001998;68;-10;5;-1333;3835;994;4;-0.4058172;0.3310249;-0.5567867;-0.6447662;2;-5;17;139;4182;-252;16;-0.04847645;-0.9509841;-0.199446;0.2313019;3;-6;-2;-1251;-792;3566;2;0.6040846;-0.5858725;-0.3088643;-0.4432133;-4;0;-13;-541;4010;-305;8;-0.09556787;-0.9560991;0.002770083;0.2770083;0;3;1;237;-695;4019;0.6068277;-0.1786268;0.7220227;0.6127467;0.360745;0.6403863;0.6179461;0.8345499;0.5666282;0.6514378;1.552993;0.421094;0.407557;1.876803;0.3190314;0.06080514;1.767918;0.4087315;-0.07806063;0.8519244;0.4073436;0;0;0;0.9273365;1.852576;0.3190298;1.210126;1.714345;0.4087292;1.284506;0.7572365;0.4904983;1.131537;0.1123075;-0.1865941;0.2945661;-0.221339;0.7212631;0.4099353;-1.66555;0.5168086;0.1382169;-1.416394;1.811574;0.2945661;-0.221339;0.7212631;0.4099353;-1.66555;0.5168086;0.1382169;-1.416394;1.811574
1469106.8062;NotLabelled;NONE;16384;-0.4819945;0.4404432;-0.5865451;-0.4792244;-21;24;9;-4416;4346;67;65536;0.7423642;-0.4265928;0.3365651;0.3919668;-50;-204;0;-598;4047;-1585;8192;0.6620498;-0.6667447;-0.2631579;-0.2188366;25;-28;-52;-1110;3644;3670;32768;0.6374548;-0.5263157;-0.02077562;-0.5623268;-41;83;-46;11917;2201;6692;256;0.2368421;-0.2160665;-0.7442946;-0.5858725;-44;4;-13;541;3902;183;128;-0.1495845;0.2382271;0.6606648;0.6959844;42;-5;6;-1411;4025;538;4;-0.4044321;0.3268698;-0.5540166;-0.6501203;10;-17;20;613;3864;-558;16;-0.04709141;-0.9539177;-0.1869806;0.2299169;12;-41;11;-1315;-680;3414;2;0.6051142;-0.5844875;-0.3074792;-0.4445983;-4;0;-15;-443;3948;-381;8;-0.09556787;-0.9560991;0.002770083;0.2770083;-1;4;2;435;-867;4277;0.5911772;-0.183511;0.780618;0.5970843;0.3547859;0.6921681;0.6022729;0.82762;0.6124246;0.6340879;1.544448;0.4587744;0.389418;1.866566;0.3533019;0.0429837;1.757957;0.4445519;-0.1002442;0.8429384;0.4209532;0;0;0;0.9092482;1.84345;0.35308;1.192417;1.706843;0.4440627;1.235526;0.7459836;0.5003446;1.085199;0.09390664;-0.1704644;0.2789155;-0.226229;0.7804418;0.392325;-1.669886;0.5710359;0.1183119;-1.421553;1.865476;0.2789155;-0.226229;0.7804418;0.392325;-1.669886;0.5710359;0.1183119;-1.421553;1.865476
1469128.9928;NotLabelled;NONE;16384;-0.4750692;0.432133;-0.5949072;-0.4833795;-8;-148;-1;-3938;2306;853;65536;0.7217449;-0.4113573;0.3559557;0.4279778;-11;-276;4;-1310;3273;-293;8192;0.6754844;-0.6634349;-0.2409972;-0.2132964;-23;-119;-29;-732;4118;934;32768;0.7069929;-0.5567867;0.06786703;-0.4307479;-119;-600;-100;2027;5869;-1238;256;0.2368421;-0.2146814;-0.7490207;-0.5803324;-44;9;0;597;4002;283;128;-0.1495845;0.2368421;0.666205;0.6911593;42;10;6;-1179;4097;428;4;-0.4044321;0.3240997;-0.5512465;-0.6538511;20;-8;22;861;3856;-612;16;-0.04570637;-0.9553866;-0.1814404;0.2285319;13;-38;17;-1705;-464;3344;2;0.6067621;-0.5817174;-0.3074792;-0.4459834;-8;2;-18;-411;4092;-449;8;-0.09695291;-0.9563599;0.002770083;0.2756233;-4;0;4;365;-867;4319;0.5856529;-0.1728415;0.7859101;0.5915481;0.3643672;0.6910751;0.5967261;0.8362219;0.6057233;0.6283033;1.551288;0.4440295;0.3835241;1.872124;0.3349643;0.03713085;1.764438;0.4274545;-0.1107124;0.8501647;0.4034339;0;0;0;0.9033616;1.849172;0.3349628;1.18658;1.713683;0.4274526;1.210449;0.7521479;0.4836172;1.040072;0.09418797;-0.176571;0.2733913;-0.2155581;0.7862817;0.3994802;-1.65641;0.5651308;0.1238787;-1.419713;1.861412;0.2733913;-0.2155581;0.7862817;0.3994802;-1.65641;0.5651308;0.1238787;-1.419713;1.861412
1469148.9615;NotLabelled;NONE;16384;-0.4598338;0.4155124;-0.6083093;-0.4958449;3;-204;-15;-1818;2074;689;65536;0.6964887;-0.3891967;0.3781163;0.4695291;-5;-364;-10;-1724;2939;-1077;8192;0.6831751;-0.666205;-0.2216066;-0.200831;-15;-165;-28;-962;4296;-940;32768;0.7476634;-0.5554016;0.1080332;-0.3476454;7;-642;-112;-2419;3095;-252;256;0.2354571;-0.2119114;-0.753441;-0.5761772;-51;14;6;591;3894;271;128;-0.1481994;0.232687;0.6717451;0.687497;43;24;8;-1131;4025;552;4;-0.4044321;0.3227147;-0.5457063;-0.659162;34;0;26;1015;3640;-598;16;-0.04293629;-0.9566948;-0.1786704;0.2257618;15;-13;22;-1931;-308;3374;2;0.6070687;-0.5803324;-0.3074792;-0.4473684;-13;4;-21;-211;4178;-673;8;-0.09833795;-0.9562215;0.001385042;0.2756233;-7;2;4;171;-719;4117;0.5888072;-0.1690257;0.82212;0.5946863;0.3667195;0.7193378;0.5998498;0.8372579;0.6270058;0.6330775;1.549817;0.4549062;0.3889958;1.86967;0.3414793;0.04243773;1.764239;0.4359296;-0.111586;0.8513513;0.4006817;0;0;0;0.908772;1.845368;0.3412023;1.191751;1.710503;0.4353184;1.223212;0.7475963;0.4451185;1.000838;0.05698442;-0.1643006;0.2765457;-0.2117321;0.8231751;0.4118806;-1.650053;0.5912812;0.137468;-1.420839;1.889159;0.2765457;-0.2117321;0.8231751;0.4118806;-1.650053;0.5912812;0.137468;-1.420839;1.889159
1469169.7924;NotLabelled;NONE;16384;-0.4418283;0.400277;-0.6214393;-0.5083103;14;-166;-28;256;2764;581;65536;0.6704546;-0.3642659;0.3975069;0.5096953;5;-381;-16;-1678;2899;-1289;8192;0.6855369;-0.6731302;-0.2036011;-0.1883656;2;-144;-18;4;4176;-1544;32768;0.7677067;-0.5554016;0.1440443;-0.2853186;-33;-568;-81;-5297;2903;-702;256;0.2354571;-0.2077562;-0.7639543;-0.5637119;-62;12;0;767;4256;467;128;-0.1537396;0.2299169;0.6858558;0.6731302;57;-1;8;-785;4327;44;4;-0.4044321;0.3213296;-0.5401662;-0.6643813;41;3;33;1003;3728;-296;16;-0.0401662;-0.957786;-0.1786704;0.2216066;16;0;25;-1783;-516;3878;2;0.6091066;-0.5720221;-0.3088643;-0.4542936;-22;20;-30;-225;4070;-557;8;-0.09972299;-0.9568723;-0.001385042;0.2728532;-7;10;8;191;-813;4107;0.5900705;-0.1655262;0.8333158;0.5959331;0.3687158;0.7229848;0.6010818;0.8379049;0.6240231;0.6352147;1.54824;0.4431337;0.3915371;1.866982;0.3257765;0.04484978;1.763172;0.4215386;-0.1113688;0.8501592;0.4032658;0;0;0;0.9112815;1.84201;0.3257746;1.194093;1.707953;0.4215354;1.226199;0.7450891;0.4332617;1.015289;0.0292964;-0.1506436;0.2778092;-0.2082129;0.8350216;0.4312074;-1.642776;0.5913871;0.1579854;-1.423572;1.891243;0.2778092;-0.2082129;0.8350216;0.4312074;-1.642776;0.5913871;0.1579854;-1.423572;1.891243
1469191.8056;NotLabelled;NONE;16384;-0.4279778;0.3919668;-0.6295239;-0.5166205;22;-87;-33;1450;3234;901;65536;0.6492138;-0.3476454;0.4127424;0.536011;6;-317;-12;-1834;2791;-705;8192;0.6906999;-0.6745152;-0.1911357;-0.1772853;-12;-86;1;862;4548;-546;32768;0.7733867;-0.5581717;0.1592798;-0.2548476;-57;-312;-45;-3091;3261;-2294;256;0.2368421;-0.2049861;-0.7703347;-0.5554016;-73;8;-1;787;4056;369;128;-0.1578947;0.2271468;0.6938934;0.66482;76;-3;10;-751;4275;-94;4;-0.4072022;0.3213296;-0.533241;-0.6682722;38;17;35;969;4328;-40;16;-0.03601108;-0.9585878;-0.1786704;0.2188366;12;1;24;-1349;-764;4148;2;0.6124485;-0.5650969;-0.3088643;-0.4584487;-23;24;-37;-455;4074;-423;8;-0.101108;-0.9575096;-0.002770083;0.2700831;-9;5;9;157;-863;4063;0.5857778;-0.1541674;0.9023591;0.5915845;0.37498;0.7697274;0.5966831;0.8396077;0.6511823;0.6333124;1.543422;0.4468122;0.3906952;1.859076;0.3193509;0.04376565;1.759884;0.4190501;-0.1127774;0.8467908;0.4099056;0;0;0;0.9103358;1.832036;0.3193489;1.19278;1.70009;0.4190471;1.215731;0.7369323;0.4277238;0.9983546;0.006753445;-0.135635;0.2735178;-0.1967423;0.9059966;0.4445153;-1.627229;0.6504089;0.168891;-1.417041;1.951247;0.2735178;-0.1967423;0.9059966;0.4445153;-1.627229;0.6504089;0.168891;-1.417041;1.951247
1469212.5606;NotLabelled;NONE;16384;-0.4265928;0.3891967;-0.6287585;-0.5207756;14;39;-4;1712;3076;1803;65536;0.6393974;-0.3407202;0.4210526;0.5457063;0;-32;9;-2230;2091;-321;8192;0.6927798;-0.6745152;-0.1911357;-0.1689751;-23;-23;24;1380;4036;108;32768;0.7673768;-0.5692521;0.1578947;-0.2493075;-67;-64;-40;261;4173;-2650;256;0.2396122;-0.200831;-0.7764946;-0.5470914;-80;8;-7;513;3798;495;128;-0.1634349;0.2243767;0.7013838;0.6565097;85;-3;15;-603;4163;-50;4;-0.4141274;0.3213296;-0.5235457;-0.6716738;23;11;25;309;3948;628;16;-0.03462604;-0.9598348;-0.1772853;0.2146814;7;-16;10;-427;-1482;4138;2;0.6126629;-0.5595568;-0.3102493;-0.4639889;-22;29;-41;-753;4066;-371;8;-0.101108;-0.9578992;-0.002770083;0.2686981;-9;3;8;277;-665;4049;0.5862796;-0.1423619;0.9580971;0.5920483;0.3833175;0.8123248;0.5971129;0.8448486;0.6822419;0.6338032;1.544005;0.4624773;0.3911355;1.85699;0.3286844;0.04435377;1.760266;0.4312804;-0.1099061;0.8469787;0.4102991;0;0;0;0.9107553;1.829554;0.328141;1.193322;1.699599;0.4300804;1.219294;0.7366972;0.409569;0.9972447;-0.004479885;-0.1373663;0.2740206;-0.1848321;0.9628792;0.463274;-1.610531;0.6937642;0.1850059;-1.412313;1.995918;0.2740206;-0.1848321;0.9628792;0.463274;-1.610531;0.6937642;0.1850059;-1.412313;1.995918
1469232.829;NotLabelled;NONE;16384;-0.4293629;0.3947368;-0.6257001;-0.5180055;12;58;2;964;2728;1749;65536;0.644095;-0.3462604;0.4182825;0.5387812;2;63;11;-1330;2397;-1247;8192;0.6896423;-0.6745152;-0.2077562;-0.1620499;-2;45;59;1054;3446;-374;32768;0.7444029;-0.5955678;0.1232687;-0.2756233;-68;180;-40;1469;3421;-514;256;0.2437673;-0.1966759;-0.783008;-0.5373961;-89;6;-11;527;3782;631;128;-0.16759;0.2202216;0.7106667;0.6468144;90;0;18;-725;4107;-398;4;-0.4155124;0.3213296;-0.5221606;-0.6718965;13;1;24;145;3954;680;16;-0.03462604;-0.960593;-0.1731302;0.2146814;6;-17;5;-959;-1152;4246;2;0.6147245;-0.5526316;-0.3102493;-0.4695291;-23;29;-44;-911;3920;-355;8;-0.1024931;-0.9581345;-0.004155125;0.267313;-9;1;9;233;-669;4075;0.5885707;-0.1251695;0.9823315;0.5942984;0.3967671;0.8236781;0.5993264;0.8549609;0.6822865;0.6338717;1.54904;0.4466541;0.3902417;1.85816;0.3058087;0.04376487;1.762744;0.4106361;-0.1049366;0.8482962;0.4088745;0;0;0;0.9099426;1.832296;0.3058066;1.192912;1.705554;0.410633;1.228287;0.7427897;0.4210672;0.9962987;-0.01046824;-0.1048336;0.2763132;-0.1675081;0.9882404;0.4866745;-1.585971;0.6974307;0.1979388;-1.394011;1.998242;0.2763132;-0.1675081;0.9882404;0.4866745;-1.585971;0.6974307;0.1979388;-1.394011;1.998242
1469252.8657;NotLabelled;NONE;16384;-0.433518;0.4016621;-0.6206949;-0.5152354;5;56;-4;250;2614;1629;65536;0.6518986;-0.3531856;0.4127424;0.5290859;-3;91;8;-1188;2335;-1425;8192;0.686855;-0.6745152;-0.2188366;-0.1592798;3;44;69;506;3382;-478;32768;0.729913;-0.6080332;0.09833795;-0.2963989;-65;239;-49;2007;3537;-522;256;0.2465374;-0.1911357;-0.7909982;-0.5263157;-101;9;-14;917;3578;605;128;-0.1703601;0.2132964;0.720806;0.6371191;92;15;22;-1017;3981;-552;4;-0.4168975;0.3199446;-0.5207756;-0.6727739;1;-5;22;109;4150;508;16;-0.033241;-0.9603913;-0.1745152;0.2146814;3;27;-1;-1727;-1086;4076;2;0.6173465;-0.5457063;-0.3088643;-0.4750692;-23;30;-45;-1187;3710;-299;8;-0.1038781;-0.9583637;-0.005540166;0.265928;-8;6;11;353;-757;4175;0.5913203;-0.1049788;1.028522;0.5969948;0.4121168;0.854734;0.6019756;0.8659978;0.7000575;0.6336523;1.553905;0.4465932;0.3887041;1.858392;0.2981496;0.0427103;1.764425;0.4058423;-0.1045182;0.8497376;0.4059781;0;0;0;0.9084975;1.834459;0.2981476;1.192062;1.711504;0.405839;1.243845;0.7501998;0.4443877;1.000008;-0.02560425;-0.04188216;0.279065;-0.147126;1.035761;0.4921791;-1.564509;0.7417096;0.2022276;-1.374881;2.042593;0.279065;-0.147126;1.035761;0.4921791;-1.564509;0.7417096;0.2022276;-1.374881;2.042593
1469273.7688;NotLabelled;NONE;16384;-0.4362881;0.4072022;-0.6185758;-0.5110803;1;46;-16;-40;2504;1451;65536;0.6578087;-0.3573407;0.4085872;0.5221606;-2;86;3;-846;2277;-1331;8192;0.6828128;-0.6759003;-0.2299169;-0.1551246;2;32;75;308;3276;-330;32768;0.7193194;-0.6177285;0.07479224;-0.3088643;-36;212;-60;2151;3263;-214;256;0.2520775;-0.1745152;-0.8099391;-0.5;-116;22;-15;1117;2928;1037;128;-0.1745152;0.1897507;0.7417799;0.6191136;101;64;36;-1129;3211;300;4;-0.4182825;0.3157895;-0.5221606;-0.6728038;-11;-19;23;389;3874;76;16;-0.03185596;-0.9585298;-0.1814404;0.2174515;0;63;-10;-1567;-1230;4208;2;0.6202111;-0.5387812;-0.3088643;-0.4792244;-25;25;-46;-1281;3754;-179;8;-0.1052632;-0.958977;-0.005540166;0.2631579;-11;2;13;519;-791;4031;0.5918877;-0.08271718;1.109314;0.5975003;0.4287248;0.9195323;0.6024259;0.8775783;0.7508177;0.6313345;1.557719;0.4768901;0.3850809;1.856881;0.3200173;0.0396336;1.765088;0.4312804;-0.1038381;0.850174;0.4052374;0;0;0;0.9049463;1.834579;0.3194997;1.189145;1.715774;0.430137;1.249598;0.7545457;0.4558372;0.9994382;-0.03129435;-0.01070666;0.2796352;-0.1246171;1.117967;0.4938829;-1.540227;0.816295;0.208626;-1.353398;2.11862;0.2796352;-0.1246171;1.117967;0.4938829;-1.540227;0.816295;0.208626;-1.353398;2.11862
1469293.7654;NotLabelled;NONE;16384;-0.4362881;0.4127424;-0.6171848;-0.5083103;0;40;-25;-72;2568;1195;65536;0.6608579;-0.3628809;0.4058172;0.5166205;-7;63;0;-720;2051;-1097;8192;0.6788442;-0.6772853;-0.2409972;-0.1495845;0;22;75;208;3094;-162;32768;0.7159594;-0.6218836;0.05955679;-0.3116343;-13;127;-71;1817;3277;-446;256;0.2534626;-0.1634349;-0.819363;-0.4875346;-117;38;-13;785;2752;815;128;-0.1745152;0.1759003;0.7531354;0.6094183;107;63;39;-941;3391;-1108;4;-0.4182825;0.3102493;-0.5235457;-0.6743034;-18;-28;24;629;3656;-66;16;-0.03047091;-0.956055;-0.1911357;0.2202216;-7;57;-22;-1425;-1500;4756;2;0.6258687;-0.5249307;-0.3060942;-0.4889196;-26;16;-47;-1065;3948;-309;8;-0.1080332;-0.9597518;-0.01108033;0.2590028;-14;17;13;163;-775;4123;0.6097715;-0.02693963;1.25858;0.6152376;0.4711573;1.036114;0.6200329;0.9081593;0.8387197;0.639813;1.567055;0.5163404;0.3894751;1.851082;0.3391203;0.04547049;1.763348;0.4578743;-0.09993619;0.8497825;0.4070381;0;0;0;0.9095749;1.835154;0.3384681;1.1955;1.728125;0.4564342;1.263434;0.7671447;0.4697358;1.010983;-0.03115988;0.02615356;0.2975261;-0.06818533;1.270146;0.5007789;-1.482778;0.9563405;0.2364925;-1.294334;2.262851;0.2975261;-0.06818533;1.270146;0.5007789;-1.482778;0.9563405;0.2364925;-1.294334;2.262851
1469334.7911;NotLabelled;NONE;16384;-0.4390582;0.4307479;-0.614161;-0.4944598;3;50;-17;186;2818;629;65536;0.6580537;-0.3739612;0.400277;0.5166205;-31;4;13;-1068;2427;-441;8192;0.6731302;-0.6800752;-0.2603878;-0.1288089;-19;-19;49;96;3094;-426;32768;0.7292333;-0.6274238;0.0401662;-0.2700831;24;-74;-103;643;2805;-520;256;0.2562327;-0.1385041;-0.8373524;-0.4626039;-121;52;-13;255;3298;1191;128;-0.1772853;0.1481994;0.7736111;0.5900277;100;65;38;-183;4263;-754;4;-0.4238227;0.299169;-0.5221606;-0.6769199;0;52;21;2615;3934;-492;16;-0.04155125;-0.9485482;-0.2091413;0.234072;-32;43;-19;-2059;494;3040;2;0.6299138;-0.5110803;-0.3033241;-0.5;-25;28;-54;-1041;3960;-333;8;-0.1108033;-0.9599876;-0.02216066;0.2562327;-17;31;12;151;-1083;4043;0.6203364;0.01153994;1.252079;0.625715;0.5016849;1.012599;0.6304332;0.9316337;0.8002787;0.6438187;1.578687;0.4544399;0.3907564;1.853657;0.2670934;0.04758188;1.766823;0.3888719;-0.09668984;0.8517835;0.4036247;0;0;0;0.9109892;1.842898;0.267091;1.197905;1.743031;0.388868;1.274505;0.7876198;0.48684;1.027373;-0.02099252;0.05922037;0.3080955;-0.0292809;1.265176;0.5027432;-1.442117;0.9382722;0.2564057;-1.250349;2.247803;0.3080955;-0.0292809;1.265176;0.5027432;-1.442117;0.9382722;0.2564057;-1.250349;2.247803
1469354.7798;NotLabelled;NONE;16384;-0.4418283;0.4362881;-0.6115896;-0.4903047;3;51;-19;44;2854;335;65536;0.6548743;-0.3795014;0.400277;0.5166205;-31;7;18;-1286;2635;-349;8192;0.6745152;-0.6791592;-0.2631579;-0.1204986;-17;-14;47;320;3070;-414;32768;0.7348751;-0.6288089;0.03185596;-0.2520775;26;-64;-109;513;3451;-862;256;0.2562327;-0.1260388;-0.8468054;-0.4487534;-125;53;-13;-93;3376;1707;128;-0.1786704;0.1357341;0.7838833;0.5789474;118;61;35;-157;4065;262;4;-0.432133;0.301939;-0.5152354;-0.6757413;11;52;29;1553;3258;-1050;16;-0.04293629;-0.945953;-0.2188366;0.2354571;-21;54;-3;-1409;614;2656;2;0.6310655;-0.5027701;-0.3033241;-0.5069252;-24;35;-58;-1315;4100;-179;8;-0.1121884;-0.9600516;-0.02770083;0.2548476;-17;35;11;159;-1197;3811;0.6450163;0.09505677;1.331282;0.65021;0.5683401;1.059993;0.6547642;0.9833498;0.8197755;0.6515905;1.603927;0.4281938;0.3915921;1.858075;0.2218991;0.05072556;1.771438;0.3501294;-0.1006925;0.8582468;0.388676;0;0;0;0.9119293;1.860738;0.2218964;1.20128;1.777325;0.3501251;1.306223;0.8306389;0.4951996;1.10408;-0.01588488;0.1206012;0.3327862;0.05519581;1.347269;0.5119209;-1.350193;0.9816836;0.3234594;-1.112267;2.293248;0.3327862;0.05519581;1.347269;0.5119209;-1.350193;0.9816836;0.3234594;-1.112267;2.293248
1469374.7739;NotLabelled;NONE;16384;-0.4418283;0.4432133;-0.6099249;-0.4861496;3;55;-25;-38;2972;77;65536;0.6535753;-0.3850415;0.398892;0.5152354;-28;15;20;-1490;2773;-213;8192;0.6731302;-0.6798707;-0.267313;-0.1149584;-5;-4;51;730;3062;-212;32768;0.7406762;-0.6274238;0.01800554;-0.2396122;38;-25;-112;659;3711;-940;256;0.2576177;-0.1135734;-0.8553324;-0.434903;-125;52;-13;-377;2898;1775;128;-0.1800554;0.1260388;0.7912443;0.5706371;108;49;32;-103;4013;-1368;4;-0.434903;0.300554;-0.5096953;-0.6787764;28;1;36;795;2962;-1198;16;-0.04293629;-0.9449821;-0.2229917;0.2354571;-7;17;0;-545;52;2808;2;0.6338151;-0.4944598;-0.301939;-0.5124654;-26;34;-55;-1553;4168;-233;8;-0.1149584;-0.9599617;-0.03185596;0.2534626;-15;25;8;9;-1449;3795;0.6569861;0.1428525;1.376834;0.6620745;0.6065621;1.089485;0.6665359;1.013097;0.8351871;0.6565451;1.618192;0.4201895;0.3938008;1.861297;0.2042881;0.05386165;1.775739;0.3356667;-0.09820062;0.8628688;0.3789599;0;0;0;0.9140738;1.869889;0.2042857;1.204274;1.794737;0.3356632;1.323647;0.850944;0.4882377;1.142487;-0.009554386;0.1353782;0.344762;0.103565;1.394294;0.528709;-1.297107;1.01332;0.3572929;-1.049018;2.32534;0.344762;0.103565;1.394294;0.528709;-1.297107;1.01332;0.3572929;-1.049018;2.32534
1469395.8041;NotLabelled;NONE;16384;-0.4445983;0.4501385;-0.6072251;-0.4806094;5;62;-25;-6;3094;-209;65536;0.653565;-0.3919668;0.3975069;0.5110803;-23;35;24;-1538;3061;-275;8192;0.6703601;-0.6807631;-0.2742382;-0.1094183;9;10;56;1064;2962;232;32768;0.7442662;-0.6260388;0;-0.232687;48;29;-112;823;3713;-844;256;0.2590028;-0.09141274;-0.8723508;-0.4044321;-126;36;-10;-903;2982;2383;128;-0.1855956;0.1052632;0.8075434;0.5498615;103;33;29;897;4085;-1326;4;-0.433518;0.2977839;-0.5055401;-0.6839708;35;-36;32;591;3728;-844;16;-0.04432133;-0.9449182;-0.2229917;0.2354571;3;-16;-3;-1041;-532;2800;2;0.638725;-0.4792244;-0.301939;-0.5207756;-27;23;-37;-1907;4032;-133;8;-0.1177285;-0.9596789;-0.0401662;0.2520775;-15;22;8;125;-1243;4023;0.6673;0.187412;1.409522;0.6723069;0.6436768;1.110492;0.6766958;1.043624;0.8459532;0.6591454;1.632492;0.4084724;0.3934419;1.863787;0.1834122;0.05452044;1.77872;0.3177064;-0.0976309;0.8663926;0.3709825;0;0;0;0.9135548;1.879291;0.1834096;1.204579;1.813;0.3177022;1.331946;0.8719983;0.4807021;1.179261;-0.0005097389;0.1442426;0.355081;0.1485815;1.428061;0.5482962;-1.246346;1.030944;0.387577;-0.9957356;2.343838;0.355081;0.1485815;1.428061;0.5482962;-1.246346;1.030944;0.387577;-0.9957356;2.343838
1469416.7608;NotLabelled;NONE;16384;-0.4501385;0.468144;-0.5970397;-0.4709141;8;79;-6;-634;3834;-609;65536;0.6586947;-0.4072022;0.3947368;0.4944598;-6;74;36;-1446;3965;-665;8192;0.666205;-0.6824545;-0.2811634;-0.1066482;17;28;58;1106;3224;538;32768;0.7466466;-0.6232687;-0.0235457;-0.2313019;52;78;-112;1019;3893;-886;256;0.2617728;-0.08033241;-0.8795156;-0.3891967;-128;38;-15;-971;3136;2439;128;-0.1897507;0.09556787;0.8161291;0.5373961;102;30;29;713;4413;-1246;4;-0.4279778;0.2936288;-0.5;-0.6932656;21;-12;14;1781;4368;-320;16;-0.04432133;-0.9445496;-0.2216066;0.2382271;-2;13;-8;-2475;-1474;4406;2;0.6377707;-0.4750692;-0.3033241;-0.5249307;-24;21;-30;-2113;4016;79;8;-0.1191136;-0.9596229;-0.04570637;0.2506925;-14;34;8;31;-1467;3909;0.6869694;0.2823687;1.50107;0.6917703;0.7198548;1.175179;0.6959769;1.103197;0.8871002;0.6683109;1.655722;0.4050091;0.3988959;1.863338;0.1619878;0.06122988;1.782119;0.3017165;-0.09213376;0.8704791;0.3627301;0;0;0;0.9185889;1.889362;0.1619851;1.21036;1.83966;0.3017123;1.348105;0.9025495;0.47813;1.221233;0.01955199;0.1587453;0.3747636;0.2447276;1.522113;0.5762007;-1.144899;1.11075;0.4354796;-0.8907712;2.425264;0.3747636;0.2447276;1.522113;0.5762007;-1.144899;1.11075;0.4354796;-0.8907712;2.425264
1469436.9371;NotLabelled;NONE;16384;-0.4529086;0.4778393;-0.5904908;-0.466759;9;67;0;-990;4056;-647;65536;0.6616151;-0.4127424;0.3961219;0.4847645;3;63;42;-1530;4397;-729;8192;0.6578947;-0.6826794;-0.300554;-0.1038781;13;44;55;614;4112;608;32768;0.7478583;-0.6163435;-0.0734072;-0.2354571;57;126;-107;1887;4473;-666;256;0.2645429;-0.06925207;-0.8862134;-0.3739612;-135;32;-17;-803;3316;2123;128;-0.1939058;0.08725762;0.8250373;0.5235457;114;17;31;423;4289;-1174;4;-0.4279778;0.2936288;-0.4958449;-0.6962435;18;4;17;1721;3908;-566;16;-0.04432133;-0.9435447;-0.2243767;0.2396122;-8;22;-10;-2155;-1094;4156;2;0.6395848;-0.4695291;-0.3033241;-0.5277008;-19;20;-25;-2385;4016;329;8;-0.1204986;-0.95917;-0.05124654;0.2506925;-12;30;8;93;-1695;4135;0.6974254;0.3440938;1.559674;0.7021024;0.7702761;1.219132;0.7061995;1.143627;0.9182161;0.6740871;1.676855;0.4151268;0.4033272;1.871607;0.1631172;0.06600755;1.791595;0.3043711;-0.08333029;0.8781917;0.3458786;0;0;0;0.9226537;1.904106;0.1644101;1.214327;1.863456;0.3072319;1.353719;0.923712;0.4676305;1.260377;0.03149104;0.1626447;0.3852277;0.3071897;1.582097;0.6114516;-1.074916;1.158465;0.4790456;-0.8200581;2.4737;0.3852277;0.3071897;1.582097;0.6114516;-1.074916;1.158465;0.4790456;-0.8200581;2.4737
1469457.0102;NotLabelled;NONE;16384;-0.4556787;0.4833795;-0.5849174;-0.4653739;13;47;-1;-1368;4374;-573;65536;0.6615469;-0.4168975;0.400277;0.4778393;12;39;45;-1672;4891;-997;8192;0.6537396;-0.6823337;-0.3102493;-0.1038781;12;34;55;576;4288;820;32768;0.7470165;-0.6135734;-0.09695291;-0.2368421;56;113;-104;2327;4359;-712;256;0.267313;-0.05955679;-0.892919;-0.3573407;-130;22;-18;-615;2986;2351;128;-0.1980609;0.07894737;0.8335166;0.5096953;121;11;31;425;4509;-1802;4;-0.4279778;0.2922437;-0.4930748;-0.6987888;16;-12;21;953;3880;-992;16;-0.04432133;-0.9418384;-0.2285319;0.2423823;-7;20;-14;-1319;-716;3380;2;0.6394559;-0.468144;-0.3033241;-0.5290859;-14;18;-17;-2655;3954;221;8;-0.1218837;-0.9586829;-0.0567867;0.2506925;-9;36;6;-347;-1999;4007;0.7127943;0.4012659;1.568717;0.7173332;0.8148868;1.213022;0.7213083;1.17714;0.8988332;0.682647;1.690403;0.3758336;0.4095409;1.871994;0.116631;0.07320713;1.793153;0.2608638;-0.07074457;0.8814113;0.3404491;0;0;0;0.9284146;1.911079;0.1166283;1.220526;1.879579;0.2608598;1.369974;0.954114;0.4832448;1.337673;0.04784513;0.2086157;0.4006056;0.3651969;1.592581;0.6377856;-1.012801;1.16162;0.5146421;-0.7554486;2.477269;0.4006056;0.3651969;1.592581;0.6377856;-1.012801;1.16162;0.5146421;-0.7554486;2.477269
1469477.8562;NotLabelled;NONE;16384;-0.4570637;0.4889196;-0.5803143;-0.4639889;21;33;0;-1412;4848;-363;65536;0.6602843;-0.4182825;0.4058172;0.4736842;18;12;44;-1710;4939;-851;8192;0.6509695;-0.6822142;-0.3171745;-0.101108;6;12;56;706;4210;1178;32768;0.7487351;-0.6094183;-0.1149584;-0.234072;55;82;-98;2635;4051;-826;256;0.2700831;-0.05124654;-0.8985505;-0.3421052;-132;15;-14;-1025;2758;2235;128;-0.2036011;0.07063711;0.8428726;0.4930748;137;16;32;543;3767;-1212;4;-0.4252077;0.2894737;-0.4916897;-0.7025985;10;-27;25;909;4050;-932;16;-0.04432133;-0.9401025;-0.232687;0.2451524;-2;35;-11;-1313;-728;3252;2;0.6416092;-0.466759;-0.3033241;-0.5277008;-8;1;-5;-2471;3252;51;8;-0.1232687;-0.9580704;-0.06371191;0.2506925;-17;40;5;-633;-2405;3815;0.7236753;0.4623346;1.613708;0.7280722;0.8630137;1.243493;0.731922;1.213836;0.9165892;0.6901376;1.705478;0.3734452;0.4161909;1.873959;0.1063965;0.08013815;1.797677;0.2526459;-0.05811736;0.8851309;0.3331093;0;0;0;0.9346654;1.918025;0.1063935;1.226574;1.895115;0.2526409;1.379132;0.9736226;0.4889759;1.374136;0.0614996;0.2324728;0.4114962;0.4271414;1.638964;0.6563369;-0.9471502;1.20052;0.5402203;-0.6856167;2.515983;0.4114962;0.4271414;1.638964;0.6563369;-0.9471502;1.20052;0.5402203;-0.6856167;2.515983
1469498.8289;NotLabelled;NONE;16384;-0.4570637;0.4916897;-0.5779691;-0.4639889;26;19;0;-1436;4790;119;65536;0.6578554;-0.4168975;0.4127424;0.4722992;25;-16;37;-1874;4295;-683;8192;0.6509695;-0.6804122;-0.3227147;-0.09556787;-2;-11;55;778;3982;1466;32768;0.7506759;-0.6066482;-0.1274238;-0.2285319;50;38;-87;2285;3711;-1000;256;0.2756233;-0.03185596;-0.9102052;-0.3074792;-129;17;-14;-865;2072;2943;128;-0.2119114;0.05401662;0.8554053;0.4695291;100;20;29;985;3455;-2030;4;-0.4238227;0.2853186;-0.4903047;-0.7060941;7;-26;25;1329;4150;-898;16;-0.04293629;-0.9384155;-0.2382271;0.2465374;5;47;-5;-1699;-904;3156;2;0.643572;-0.4709141;-0.3047091;-0.5207756;-4;-23;19;-919;4632;421;8;-0.1288089;-0.9565926;-0.06925207;0.2520775;-17;7;-7;-711;-2283;4159;0.7334552;0.524557;1.658882;0.7376792;0.9094819;1.272312;0.7413765;1.246396;0.9310891;0.6974852;1.717848;0.3704917;0.4230968;1.8744;0.09672099;0.08717649;1.800703;0.244591;-0.04605415;0.887688;0.3281549;0;0;0;0.9412001;1.922635;0.09671837;1.232792;1.90736;0.2445865;1.390266;0.9899772;0.493354;1.41315;0.07427406;0.250966;0.4212882;0.4904488;1.685724;0.6739228;-0.8806763;1.241821;0.5629618;-0.614903;2.55688;0.4212882;0.4904488;1.685724;0.6739228;-0.8806763;1.241821;0.5629618;-0.614903;2.55688
1469518.9796;NotLabelled;NONE;16384;-0.4529086;0.4972299;-0.575381;-0.4653739;18;-1;0;-1422;3842;673;65536;0.6537602;-0.4072022;0.4224377;0.4778393;22;-46;8;-2370;4061;-1603;8192;0.6495845;-0.6806898;-0.3268698;-0.08864266;-14;-21;57;1012;3824;1440;32768;0.7541777;-0.6038781;-0.134349;-0.2202216;41;-1;-78;1697;3579;-1056;256;0.2770083;-0.02216066;-0.9155198;-0.2908587;-131;18;-14;-875;2036;2583;128;-0.2146814;0.04432133;0.8619978;0.4570637;112;30;34;817;3357;-1618;4;-0.4196676;0.2783934;-0.4861496;-0.7141672;10;-20;7;1985;3682;-1266;16;-0.0401662;-0.9352897;-0.2479224;0.2493075;3;23;-6;-1771;-1040;3750;2;0.6445878;-0.4722992;-0.3074792;-0.5166205;-4;-20;26;-691;4400;533;8;-0.1315789;-0.9555392;-0.0734072;0.2534626;-21;16;-9;-1339;-2479;4041;0.7461781;0.6414429;1.744527;0.7501397;1.002435;1.335515;0.7536051;1.318231;0.974656;0.7060723;1.741852;0.3773727;0.4313254;1.870442;0.08975041;0.09550072;1.80251;0.2405685;-0.03456137;0.8891689;0.3255458;0;0;0;0.9484243;1.928465;0.08974701;1.238894;1.930806;0.2405631;1.406021;1.018038;0.4997896;1.451723;0.09984398;0.2704043;0.4340297;0.6090161;1.773576;0.6917934;-0.7579503;1.319904;0.5808729;-0.4913325;2.634795;0.4340297;0.6090161;1.773576;0.6917934;-0.7579503;1.319904;0.5808729;-0.4913325;2.634795
1469539.7737;NotLabelled;NONE;16384;-0.4515235;0.4986149;-0.5741478;-0.466759;16;15;6;-984;4082;593;65536;0.6553896;-0.4016621;0.4252077;0.4778393;30;-33;-5;-2004;4107;-1789;8192;0.6537396;-0.6767994;-0.3310249;-0.07063711;-31;-40;43;758;4420;918;32768;0.7601141;-0.6038781;-0.1412742;-0.1939058;26;-49;-70;2071;4167;-1504;256;0.2797784;-0.01385042;-0.9199596;-0.2742382;-120;19;-20;-795;1876;3079;128;-0.2188366;0.033241;0.8686585;0.4432133;109;26;37;551;3367;-1960;4;-0.4182825;0.2756233;-0.4847645;-0.7169902;13;-20;2;1847;3658;-1170;16;-0.03878116;-0.934239;-0.2506925;0.2506925;-4;18;-4;-2119;-1160;3858;2;0.6426817;-0.4736842;-0.3116343;-0.5152354;-6;5;28;-1251;4430;1055;8;-0.132964;-0.9544213;-0.08033241;0.2548476;-25;34;-4;-1631;-2579;4069;0.7501336;0.6988891;1.782167;0.753951;1.046748;1.361927;0.7572894;1.350957;0.9912469;0.7087322;1.750769;0.3778504;0.4341861;1.865634;0.0842897;0.0982852;1.800483;0.2361618;-0.02294338;0.8870353;0.3323228;0;0;0;0.9507344;1.928369;0.08428645;1.240462;1.9392;0.2361565;1.417222;1.031508;0.5065734;1.482542;0.1123636;0.2859042;0.4379953;0.6674002;1.812337;0.7104393;-0.6904919;1.34036;0.6069814;-0.4229264;2.655667;0.4379953;0.6674002;1.812337;0.7104393;-0.6904919;1.34036;0.6069814;-0.4229264;2.655667
1469559.7905;NotLabelled;NONE;16384;-0.4542936;0.501385;-0.570664;-0.4653739;10;29;7;-642;4376;457;65536;0.6569567;-0.3961219;0.4279778;0.4778393;34;-19;-12;-1658;3811;-1531;8192;0.6565097;-0.6758592;-0.3296399;-0.05955679;-34;-50;41;1218;4076;834;32768;0.7635135;-0.6038781;-0.1412742;-0.1800554;28;-69;-60;1739;4021;-1472;256;0.2811634;-0.005540166;-0.9240314;-0.2590028;-119;13;-19;-987;1954;2955;128;-0.2229917;0.0235457;0.8741719;0.4307479;116;29;36;379;3193;-1792;4;-0.4155124;0.2742382;-0.4833795;-0.7200605;16;-16;2;1577;3606;-978;16;-0.0401662;-0.9338077;-0.2520775;0.2506925;-6;8;-5;-2027;-990;3798;2;0.6411621;-0.4750692;-0.3171745;-0.5124654;-15;7;32;-1765;4178;1061;8;-0.1357341;-0.9531652;-0.0900277;0.2548476;-28;53;0;-1555;-2817;3975;0.7510896;0.7580775;1.830322;0.7547429;1.090983;1.398139;0.7579364;1.382005;1.017016;0.7094283;1.75795;0.388705;0.4354789;1.859552;0.08974567;0.09933046;1.797658;0.2424299;-0.01785645;0.883921;0.3408245;0;0;0;0.9515449;1.926141;0.0897426;1.24044;1.944896;0.2424244;1.44641;1.047397;0.525883;1.545909;0.1256166;0.3304152;0.4389632;0.7276677;1.861697;0.7175113;-0.6268151;1.383528;0.6135001;-0.3600519;2.698955;0.4389632;0.7276677;1.861697;0.7175113;-0.6268151;1.383528;0.6135001;-0.3600519;2.698955
1469581.0182;NotLabelled;NONE;16384;-0.4556787;0.5041551;-0.5671082;-0.4653739;9;29;11;-290;4502;227;65536;0.6593657;-0.3905817;0.4293629;0.4778393;34;-17;-12;-1610;3307;-1413;8192;0.6578947;-0.6753978;-0.3296399;-0.04847645;-33;-45;42;1714;3692;804;32768;0.7679903;-0.602493;-0.1398892;-0.166205;29;-74;-50;1107;3921;-1512;256;0.2839335;0;-0.9273399;-0.2437673;-112;13;-17;-951;1872;3033;128;-0.2257618;0.01385042;0.8803614;0.4168975;111;29;33;531;3163;-2408;4;-0.4127424;0.2742382;-0.4819945;-0.7225776;18;-21;2;1453;3580;-938;16;-0.0401662;-0.9326823;-0.2548476;0.2520775;-9;13;-9;-2243;-950;3516;2;0.6421024;-0.4750692;-0.3240997;-0.5069252;-25;4;43;-1863;4004;587;8;-0.1385041;-0.9512826;-0.101108;0.2562327;-33;60;3;-1561;-2789;3827;0.7547015;0.8131903;1.876263;0.7582048;1.132415;1.433877;0.7612661;1.411373;1.043837;0.7129524;1.764895;0.4026273;0.4396785;1.853976;0.09909156;0.1032777;1.794875;0.2523255;-0.01190214;0.8807253;0.3492531;0;0;0;0.9552301;1.924434;0.09908825;1.243251;1.950669;0.2523206;1.463595;1.057968;0.5400833;1.577483;0.1360054;0.3535287;0.4425858;0.7837785;1.908682;0.7291313;-0.5682228;1.428221;0.6231192;-0.2970884;2.742594;0.4425858;0.7837785;1.908682;0.7291313;-0.5682228;1.428221;0.6231192;-0.2970884;2.742594
1469601.776;NotLabelled;NONE;16384;-0.4584487;0.5041551;-0.5637273;-0.466759;7;16;19;-140;4306;179;65536;0.6637082;-0.3850415;0.4307479;0.4750692;28;-2;-5;-1934;3023;-1865;8192;0.6606648;-0.672637;-0.3310249;-0.03878116;-34;-32;39;1820;3886;716;32768;0.7724634;-0.599723;-0.1398892;-0.1551246;33;-64;-41;1073;3857;-2046;256;0.2867036;0.0166205;-0.9335077;-0.2146814;-107;15;-16;-799;1552;3369;128;-0.2299169;-0.004155125;0.8907766;0.3919668;104;30;29;1113;3069;-2242;4;-0.4099723;0.2728532;-0.4806094;-0.7255952;15;-15;-2;1853;3764;-878;16;-0.04155125;-0.9314845;-0.2576177;0.2534626;-6;20;-11;-1775;-636;3356;2;0.6422577;-0.4764543;-0.33241;-0.5;-35;-1;60;-1591;3968;453;8;-0.1412742;-0.9496316;-0.1121884;0.2562327;-36;64;6;-1599;-2621;3695;0.7511966;0.8672014;1.922132;0.754533;1.171222;1.469161;0.757447;1.436776;1.069873;0.7110761;1.768535;0.4169965;0.4389585;1.846574;0.1094096;0.1020233;1.791571;0.2629951;-0.009536132;0.876866;0.3589032;0;0;0;0.9542928;1.918604;0.1094061;1.241515;1.950842;0.2629895;1.472714;1.063963;0.5600874;1.602745;0.1430376;0.3790439;0.4390932;0.8389097;1.955647;0.736648;-0.5115008;1.477409;0.6268796;-0.237668;2.790913;0.4390932;0.8389097;1.955647;0.736648;-0.5115008;1.477409;0.6268796;-0.237668;2.790913
1469622.7648;NotLabelled;NONE;16384;-0.4653739;0.501385;-0.5570279;-0.4709141;4;-1;34;-32;3618;153;65536;0.6734023;-0.3767313;0.432133;0.466759;40;20;-2;-1858;3463;-1047;8192;0.6620498;-0.671018;-0.33241;-0.03047091;-41;-29;39;1446;3814;654;32768;0.7772725;-0.5955678;-0.1385041;-0.1481994;36;-41;-29;1439;3841;-2056;256;0.2880886;0.02493075;-0.9362717;-0.199446;-107;17;-20;-873;1422;3437;128;-0.234072;-0.01246537;0.8944163;0.3808864;99;23;33;913;2983;-2430;4;-0.4072022;0.2728532;-0.4792244;-0.728067;9;-9;-10;1835;3834;-834;16;-0.04155125;-0.9287816;-0.2645429;0.2562327;-3;22;-8;-1881;-1076;3380;2;0.6459671;-0.4792244;-0.3531856;-0.4778393;-52;-14;75;-1063;4160;921;8;-0.1481994;-0.9454935;-0.1357341;0.2562327;-36;64;4;-1125;-2231;3689;0.7395672;0.9846957;2.064836;0.742596;1.260701;1.594269;0.7452394;1.501564;1.179617;0.7072668;1.788688;0.5053911;0.4403488;1.841831;0.1880926;0.1012063;1.791647;0.3384355;-0.007211864;0.8721066;0.3703717;0;0;0;0.9544486;1.922031;0.1932891;1.237969;1.968984;0.3499283;1.478276;1.071205;0.6039332;1.626457;0.1521659;0.4273094;0.4274868;0.9584932;2.100212;0.7390012;-0.389348;1.623618;0.6139663;-0.1093302;2.934451;0.4274868;0.9584932;2.100212;0.7390012;-0.389348;1.623618;0.6139663;-0.1093302;2.934451
1469643.7976;NotLabelled;NONE;16384;-0.468144;0.5;-0.5524042;-0.4750692;9;5;31;-212;3906;117;65536;0.6759003;-0.3739612;0.432133;0.4653739;37;15;-6;-1798;3769;-607;8192;0.6702256;-0.6634349;-0.33241;-0.01246537;-46;-39;34;1536;3834;602;32768;0.7863085;-0.5872576;-0.1357341;-0.1357341;44;-39;-6;1687;3951;-1854;256;0.2908587;0.033241;-0.9377284;-0.1869806;-104;19;-20;-723;1394;3435;128;-0.2368421;-0.02077562;0.8987436;0.368421;95;21;35;839;2915;-2428;4;-0.4044321;0.2742382;-0.4792244;-0.7290899;12;-12;-13;1503;3706;-916;16;-0.04155125;-0.9276047;-0.267313;0.2576177;-2;20;-9;-2281;-1068;3394;2;0.6461304;-0.4792244;-0.365651;-0.468144;-57;-5;82;-1219;4200;819;8;-0.1523546;-0.9436017;-0.1440443;0.2562327;-36;43;0;-1201;-2229;3763;0.7514772;1.032544;2.063679;0.7543645;1.295632;1.585768;0.7568828;1.525113;1.164711;0.7137319;1.788626;0.4812186;0.4449984;1.828887;0.1635563;0.1069206;1.781419;0.3171439;0.00990963;0.863018;0.3910209;0;0;0;0.9585032;1.912974;0.1635528;1.242367;1.967351;0.3171386;1.50132;1.091899;0.6250361;1.66056;0.175739;0.4431558;0.4394077;1.007316;2.099848;0.7556737;-0.3388388;1.62162;0.6464174;-0.05242419;2.932482;0.4394077;1.007316;2.099848;0.7556737;-0.3388388;1.62162;0.6464174;-0.05242419;2.932482
1469684.8768;NotLabelled;NONE;16384;-0.4709141;0.4986149;-0.5489013;-0.4778393;11;7;32;-188;4270;217;65536;0.6772981;-0.3698061;0.433518;0.4653739;31;4;-6;-1738;4141;-209;8192;0.6730661;-0.6606648;-0.33241;-0.002770083;-49;-35;29;1828;3782;754;32768;0.7932928;-0.5803324;-0.1301939;-0.1301939;51;-48;3;1323;3605;-1996;256;0.2922437;0.0401662;-0.9396841;-0.1731302;-102;18;-18;-871;1372;3375;128;-0.2396122;-0.03047091;0.9022002;0.3573407;95;23;34;881;2799;-2520;4;-0.400277;0.2756233;-0.4792244;-0.7308585;13;-23;-15;1169;3844;-1148;16;-0.04293629;-0.9263526;-0.2700831;0.2590028;-3;18;-13;-2113;-924;3462;2;0.6450949;-0.4792244;-0.3795014;-0.4584487;-57;3;89;-1453;4204;437;8;-0.1551246;-0.9416887;-0.1509695;0.2576177;-33;40;-2;-1319;-2235;3899;0.7409851;1.089383;2.103135;0.7437141;1.338054;1.617567;0.746093;1.554836;1.18983;0.703867;1.797972;0.4987696;0.4363649;1.826385;0.1787958;0.09798694;1.780111;0.3320873;0.01030688;0.8601205;0.397346;0;0;0;0.9490346;1.915422;0.1787928;1.231587;1.976987;0.3320822;1.523665;1.112229;0.6405619;1.70688;0.2022371;0.4504722;0.4289274;1.06525;2.140146;0.7529694;-0.2817669;1.669612;0.6397526;0.007424116;2.979528;0.4289274;1.06525;2.140146;0.7529694;-0.2817669;1.669612;0.6397526;0.007424116;2.979528
1469704.7666;NotLabelled;NONE;16384;-0.4736842;0.4986149;-0.5440781;-0.4806094;14;20;33;-162;4478;-25;65536;0.6769638;-0.367036;0.434903;0.466759;22;-14;-7;-1256;4411;-27;8192;0.6771125;-0.6565097;-0.33241;0.004155125;-53;-32;25;1654;3572;700;32768;0.8010703;-0.5720221;-0.1246537;-0.1246537;57;-49;10;1177;3545;-1820;256;0.2922437;0.04847645;-0.9417397;-0.1592798;-98;22;-16;-955;1200;3495;128;-0.2423823;-0.03878116;0.905456;0.3462604;94;24;33;835;2849;-2742;4;-0.3947368;0.2756233;-0.4792244;-0.7338656;13;-26;-18;1311;3768;-1162;16;-0.04293629;-0.9247608;-0.2728532;0.2617728;-4;15;-17;-2395;-958;3440;2;0.6435453;-0.4806094;-0.3933518;-0.4473684;-58;2;98;-1613;4336;421;8;-0.1551246;-0.9397025;-0.1606648;0.2590028;-27;56;-3;-1183;-2223;3849;0.7333258;1.142666;2.139282;0.735908;1.377981;1.647102;0.7381578;1.582999;1.213603;0.6983917;1.804533;0.5151738;0.432505;1.821562;0.1930526;0.09354974;1.778082;0.3458849;0.01254117;0.8569999;0.4039691;0;0;0;0.9446633;1.913496;0.1930491;1.226019;1.981364;0.3458796;1.534491;1.122762;0.655592;1.729328;0.2181993;0.4516509;0.4212795;1.119554;2.177032;0.7542648;-0.2282305;1.715019;0.6389043;0.06720328;3.023353;0.4212795;1.119554;2.177032;0.7542648;-0.2282305;1.715019;0.6389043;0.06720328;3.023353
1469725.7829;NotLabelled;NONE;16384;-0.4764543;0.5;-0.5391406;-0.4819945;20;24;23;-272;4590;-407;65536;0.6743119;-0.3614958;0.4376731;0.4722992;15;-44;-9;-454;4487;485;8192;0.6816896;-0.6523545;-0.3310249;0.01246537;-53;-35;20;1382;3478;766;32768;0.8070206;-0.5650969;-0.1191136;-0.1232687;57;-37;18;1429;3609;-1770;256;0.2936288;0.06371191;-0.9442845;-0.134349;-95;16;-14;-1259;954;3481;128;-0.2465374;-0.0567867;0.912058;0.3227147;92;28;32;1197;2577;-2716;4;-0.3891967;0.2770083;-0.4806094;-0.7353958;11;-28;-19;1529;3768;-1180;16;-0.04293629;-0.9231497;-0.2756233;0.2645429;-2;8;-21;-2157;-878;3244;2;0.6432098;-0.4833795;-0.4058172;-0.433518;-59;-12;107;-1571;4466;663;8;-0.1565097;-0.9369937;-0.1703601;0.2617728;-21;59;-4;-999;-2099;3897;0.7228411;1.19957;2.169095;0.7252776;1.42159;1.670775;0.7273989;1.614899;1.23193;0.6899968;1.814248;0.526718;0.425873;1.819125;0.202739;0.08637778;1.777737;0.3549533;0.01396337;0.8555746;0.4069315;0;0;0;0.9372935;1.915076;0.2027355;1.217216;1.989903;0.3549473;1.540866;1.135973;0.6620788;1.748459;0.2381475;0.4416251;0.4108059;1.177481;2.207543;0.7525882;-0.1700523;1.751256;0.6432346;0.129164;3.059247;0.4108059;1.177481;2.207543;0.7525882;-0.1700523;1.751256;0.6432346;0.129164;3.059247
1469746.1312;NotLabelled;NONE;16384;-0.4750692;0.5083103;-0.5300314;-0.4847645;32;15;1;-782;4224;-913;65536;0.6627869;-0.3559557;0.4445983;0.4861496;-11;-68;7;808;4513;1361;8192;0.686148;-0.6481994;-0.3296399;0.01939058;-55;-36;20;1406;3556;870;32768;0.8143656;-0.5567867;-0.1108033;-0.1204986;58;-41;27;1357;3731;-1638;256;0.2936288;0.07202215;-0.9453778;-0.1218837;-96;11;-12;-1241;984;3563;128;-0.2493075;-0.06648199;0.9144998;0.3116343;91;30;34;1379;2455;-2948;4;-0.3795014;0.2783934;-0.4819945;-0.7390245;11;-25;-27;1875;3780;-936;16;-0.04432133;-0.9202379;-0.2783934;0.2714681;0;15;-22;-2233;-1074;3386;2;0.6388255;-0.4903047;-0.433518;-0.4044321;-55;-20;119;-1043;4644;581;8;-0.1523546;-0.9323768;-0.1897507;0.267313;1;65;-7;-1401;-1811;3665;0.6917893;1.312894;2.276342;0.6939119;1.506326;1.766243;0.695757;1.674462;1.317149;0.6721709;1.833192;0.6011111;0.4157091;1.815754;0.2714579;0.07333966;1.777778;0.4180191;0.007365733;0.8536961;0.4110298;0;0;0;0.9255852;1.919417;0.2776399;1.200762;2.006996;0.4316899;1.529233;1.141753;0.6995273;1.747036;0.249687;0.465929;0.3797783;1.293024;2.316174;0.73448;-0.05674529;1.876663;0.6095926;0.2462938;3.182381;0.3797783;1.293024;2.316174;0.73448;-0.05674529;1.876663;0.6095926;0.2462938;3.182381
1469765.8349;NotLabelled;NONE;16384;-0.4722992;0.5138504;-0.5245963;-0.4875346;39;23;7;-1030;4192;-857;65536;0.6535915;-0.3601108;0.4487534;0.4916897;-26;-52;30;2534;5923;5107;8192;0.695848;-0.6398892;-0.3240997;0.03601108;-56;-51;12;1410;3336;748;32768;0.8297694;-0.5387812;-0.09279778;-0.1121884;64;-58;34;1249;3589;-2066;256;0.2950138;0.07894737;-0.9460777;-0.1080332;-103;13;-11;-1453;830;3619;128;-0.2520775;-0.07756232;0.9170272;0.299169;94;30;35;1597;2349;-2740;4;-0.3753462;0.2797784;-0.4819945;-0.7406217;11;-12;-33;2053;3668;-1226;16;-0.04570637;-0.9189278;-0.2797784;0.2742382;0;13;-19;-1625;-1050;3474;2;0.636375;-0.4944598;-0.4473684;-0.3878116;-56;-17;122;-667;4606;685;8;-0.1468144;-0.9297405;-0.200831;0.2714681;10;76;-7;-1251;-1765;3927;0.6826351;1.372537;2.215268;0.6846045;1.552;1.700088;0.6863147;1.707838;1.246579;0.6569905;1.845907;0.5264825;0.3986815;1.816921;0.1990926;0.05755316;1.780244;0.3488436;0.009598285;0.85671;0.4046649;0;0;0;0.9076725;1.925025;0.1990894;1.183019;2.019277;0.3488387;1.534197;1.174495;0.6509835;1.755928;0.2899098;0.3938217;0.3706363;1.353761;2.25572;0.7323039;0.002214432;1.827495;0.6385206;0.3155122;3.133396;0.3706363;1.353761;2.25572;0.7323039;0.002214432;1.827495;0.6385206;0.3155122;3.133396
1469786.7553;NotLabelled;NONE;16384;0.4722992;-0.5219421;0.5152354;0.4889196;49;40;2;-1362;5122;-1121;65536;0.6501837;-0.3753462;0.4487534;0.4847645;-52;13;62;8750;4909;13731;8192;0.7016217;-0.6357341;-0.3185596;0.04570637;-50;-54;5;1380;3410;846;32768;0.8360318;-0.5304709;-0.08587258;-0.1108033;68;-52;36;973;3459;-1830;256;0.2950138;0.08587258;-0.9469543;-0.09418282;-97;7;-14;-1525;652;3533;128;-0.2548476;-0.08587258;0.9190667;0.2880886;90;22;36;1665;2071;-2776;4;-0.3711911;0.2839335;-0.4833795;-0.7402318;13;-7;-40;1775;3838;-1118;16;-0.04570637;-0.9180966;-0.2797784;0.2770083;0;3;-17;-1533;-858;3498;2;0.6323348;-0.4986149;-0.4612188;-0.3725762;-55;-23;128;-489;4640;773;8;-0.1398892;-0.9274381;-0.2105263;0.2756233;26;82;-12;-1331;-1419;3933;0.6609936;1.44092;2.206541;0.6627886;1.604502;1.6861;0.6643455;1.746361;1.228026;0.6390811;1.86218;0.503864;0.3831213;1.821753;0.1758425;0.04120484;1.787763;0.324425;0.0060471;0.8641908;0.388503;0;0;0;0.8915106;1.932649;0.1758393;1.16534;2.032975;0.3244197;1.548154;1.197332;0.6132601;1.78536;0.3303773;0.3134115;0.3490086;1.423395;2.247655;0.7200699;0.07145953;1.828797;0.6259556;0.3911262;3.133129;0.3490086;1.423395;2.247655;0.7200699;0.07145953;1.828797;0.6259556;0.3911262;3.133129
1469806.7658;NotLabelled;NONE;16384;0.4709141;-0.5299228;0.5083103;0.4889196;73;65;-17;-1266;4344;-2883;65536;0.6522869;-0.3905817;0.4459834;0.4722992;-27;191;71;-102;8629;-8537;8192;0.7055044;-0.632964;-0.3144044;0.05263158;-52;-51;9;1672;3486;944;32768;0.8421064;-0.5221606;-0.07894737;-0.1094183;62;-32;38;583;3421;-1194;256;0.2977839;0.09141274;-0.9467263;-0.08171745;-93;0;-20;-1845;440;3807;128;-0.2576177;-0.09418282;0.9213005;0.2756233;87;19;36;1947;1919;-3330;4;-0.367036;0.2880886;-0.4833795;-0.7406982;11;-9;-41;1559;3928;-894;16;-0.04709141;-0.9167625;-0.2811634;0.2797784;0;8;-15;-1619;-950;3476;2;0.6283526;-0.5027701;-0.4750692;-0.3559557;-52;-22;134;-631;4646;755;8;-0.1288089;-0.9246083;-0.2188366;0.2839335;42;77;-22;-1619;-1243;3773;0.6341302;1.510109;2.217113;0.6357709;1.659624;1.692457;0.6371919;1.789103;1.23073;0.6208304;1.882814;0.5031222;0.3693835;1.831119;0.173198;0.02572407;1.79983;0.3183131;0.004473716;0.8747468;0.3641364;0;0;0;0.8771788;1.94466;0.1763996;1.148546;2.050889;0.3253942;1.540365;1.211908;0.5915984;1.785413;0.353421;0.274204;0.3221574;1.493698;2.258776;0.7016401;0.1382;1.859428;0.6035159;0.4598517;3.162977;0.3221574;1.493698;2.258776;0.7016401;0.1382;1.859428;0.6035159;0.4598517;3.162977
1469826.7656;NotLabelled;NONE;16384;0.4653739;-0.5500621;0.4958449;0.4847645;114;105;-76;-3598;4590;-5205;65536;0.6488014;-0.3933518;0.4515235;0.4695291;-1;26;53;-1698;239;-2757;8192;0.710857;-0.6288089;-0.3088643;0.06232687;-57;-58;3;1492;3578;1272;32768;0.8469164;-0.5152354;-0.07479224;-0.1080332;56;-27;35;437;3247;-788;256;0.300554;0.09556787;-0.9465348;-0.06786703;-90;-4;-25;-2431;86;4353;128;-0.2603878;-0.101108;0.9234302;0.2631579;87;8;33;2365;2003;-3404;4;-0.3642659;0.2922437;-0.4847645;-0.7395318;8;-1;-44;1559;3912;-1034;16;-0.04709141;-0.9163387;-0.2811634;0.2811634;2;13;-10;-1601;-1076;3420;2;0.6224788;-0.5069252;-0.4903047;-0.3393352;-46;-18;139;-649;4498;851;8;-0.1191136;-0.9226571;-0.2216066;0.2922437;56;68;-34;-683;-1221;3423;0.6197696;1.574048;2.203905;0.6212375;1.707804;1.675011;0.6225061;1.823415;1.209618;0.6109723;1.897004;0.4796086;0.3620378;1.835356;0.1494889;0.01746866;1.806853;0.2930115;0.005758241;0.881995;0.3461922;0;0;0;0.869414;1.950743;0.1531012;1.139363;2.061996;0.3010008;1.537667;1.225149;0.5642827;1.790576;0.3754768;0.2297951;0.3078104;1.558892;2.246142;0.6995615;0.2017248;1.864715;0.5957893;0.5297613;3.166234;0.3078104;1.558892;2.246142;0.6995615;0.2017248;1.864715;0.5957893;0.5297613;3.166234
1469847.7937;NotLabelled;NONE;16384;0.4404432;-0.5630497;0.4958449;0.4930748;72;-136;-3;-374;5436;4119;65536;0.6457785;-0.3850415;0.4542936;0.4778393;-6;-25;4;-9224;14499;-6341;8192;0.7150343;-0.6260388;-0.3033241;0.06925207;-47;-54;-9;1506;3280;1086;32768;0.85119;-0.5096953;-0.06786703;-0.1052632;43;-36;29;599;3573;-1000;256;0.3060942;0.101108;-0.9458779;-0.03739612;-94;-21;-31;-1489;-528;3829;128;-0.265928;-0.1135734;0.927163;0.2382271;86;2;26;2057;1307;-2998;4;-0.3614958;0.2977839;-0.4875346;-0.7368551;3;9;-49;1733;4034;-1246;16;-0.04570637;-0.9151279;-0.2825485;0.2839335;3;17;-6;-1701;-1148;3394;2;0.6160851;-0.5124654;-0.5027701;-0.3240997;-41;-19;142;-455;4398;749;8;-0.1108033;-0.9218844;-0.2160665;0.301939;71;16;-42;423;-901;3515;0.6149035;1.628512;2.141582;0.6161993;1.746603;1.60897;0.6173167;1.848429;1.140368;0.6054665;1.90055;0.4085168;0.3563756;1.829273;0.08046062;0.01186647;1.80505;0.2249108;0.01572362;0.885409;0.3370477;0;0;0;0.8637695;1.944638;0.08045793;1.133801;2.060144;0.2249072;1.551116;1.235705;0.4977137;1.81045;0.3934442;0.1496753;0.302958;1.614611;2.184348;0.6976828;0.2540025;1.818569;0.5954328;0.583033;3.119957;0.302958;1.614611;2.184348;0.6976828;0.2540025;1.818569;0.5954328;0.583033;3.119957
1469868.7929;NotLabelled;NONE;16384;0.4279778;-0.5665447;0.4958449;0.5;90;3;-47;1080;9270;-219;65536;0.6440518;-0.3808864;0.4529086;0.4847645;26;-100;-72;3754;6903;-4671;8192;0.7238257;-0.6218836;-0.2867036;0.08448754;-48;-77;-18;2330;3824;628;32768;0.8558874;-0.5069252;-0.05124654;-0.08864266;23;-82;24;335;4483;-564;256;0.3102493;0.1038781;-0.9447029;-0.02216066;-88;-20;-37;-1827;-670;3587;128;-0.2686981;-0.1177285;0.9289634;0.2257618;79;-5;30;2199;1029;-3400;4;-0.3545706;0.3116343;-0.4903047;-0.7326425;6;7;-53;1069;3830;-1308;16;-0.04432133;-0.9134714;-0.2867036;0.2853186;2;15;0;-1517;-1048;3486;2;0.5999373;-0.5277008;-0.5263157;-0.2908587;-24;-35;153;317;3834;917;8;-0.09141274;-0.9274175;-0.1759003;0.3171745;101;-91;-47;-471;173;3795;0.5656627;1.737966;2.17821;0.5666136;1.824602;1.639587;0.5674273;1.898759;1.165817;0.5758875;1.905251;0.4320943;0.3351489;1.815483;0.102345;-0.01335265;1.802823;0.2384531;0.002274379;0.8826051;0.3446747;0;0;0;0.843374;1.926922;0.1091883;1.110419;2.049234;0.2535861;1.521516;1.21207;0.4953099;1.793855;0.3763456;0.1414951;0.2537453;1.726604;2.22192;0.6580235;0.360327;1.889195;0.5223361;0.688947;3.187626;0.2537453;1.726604;2.22192;0.6580235;0.360327;1.889195;0.5223361;0.688947;3.187626
1469889.7711;NotLabelled;NONE;16384;0.4196676;-0.5810592;0.4944598;0.4916897;-18;9;-108;-5630;17112;1783;65536;0.6459122;-0.3891967;0.4445983;0.4833795;-50;36;3;-3420;2207;-915;8192;0.7262189;-0.6218836;-0.2770083;0.09556787;-46;-104;-13;2518;3588;566;32768;0.8569211;-0.5083103;-0.03878116;-0.07617728;9;-109;29;79;4555;-74;256;0.3130194;0.1024931;-0.9441352;-0.01108033;-74;-22;-35;-3815;-746;5101;128;-0.2714681;-0.1121884;0.9311466;0.2160665;68;-43;22;3681;689;-3720;4;-0.3504155;0.3185596;-0.4930748;-0.7297987;5;-2;-53;915;3822;-1270;16;-0.04293629;-0.9135376;-0.2867036;0.2853186;4;5;6;-1119;-1062;3342;2;0.5892372;-0.536011;-0.5387812;-0.2742382;-14;-35;156;353;3508;1197;8;-0.07894737;-0.9293887;-0.1551246;0.3254848;108;-92;-46;-589;165;3973;0.5464413;1.780097;2.107303;0.5472226;1.851283;1.566421;0.5478871;1.911851;1.090722;0.551447;1.895278;0.3571179;0.3081108;1.796306;0.03194147;-0.03952031;1.789511;0.170669;-0.005810291;0.8809633;0.348808;0;0;0;0.8168501;1.905586;0.03193814;1.085389;2.03115;0.1706636;1.523166;1.2102;0.4209933;1.792531;0.3793614;0.0536536;0.2345375;1.769991;2.151418;0.6455069;0.3954492;1.86402;0.5148122;0.724705;3.162802;0.2345375;1.769991;2.151418;0.6455069;0.3954492;1.86402;0.5148122;0.724705;3.162802
1469909.7891;NotLabelled;NONE;16384;0.4155124;-0.5788546;0.5124654;0.4792244;-72;-47;-108;-1840;3126;989;65536;0.6444374;-0.3975069;0.4362881;0.4861496;-70;48;-8;-506;3499;-221;8192;0.7286096;-0.6218836;-0.265928;0.1080332;-43;-115;-9;2516;3242;254;32768;0.8575891;-0.5096953;-0.02631579;-0.06371191;-2;-118;34;-747;4553;336;256;0.3144044;0.09418282;-0.9446045;0.001385042;-63;-61;-19;-3283;-1490;4721;128;-0.2728532;-0.101108;0.9342052;0.2063712;41;-82;-2;3425;465;-3300;4;-0.3462604;0.3240997;-0.4958449;-0.727462;-5;1;-55;1345;4072;-1448;16;-0.04155125;-0.914033;-0.2867036;0.2839335;8;-7;14;-1025;-964;3292;2;0.5781732;-0.5443213;-0.5498615;-0.2590028;-7;-29;154;1;3016;1361;8;-0.06648199;-0.9304501;-0.1357341;0.333795;109;-82;-46;-325;139;4145;0.5360551;1.808892;2.070968;0.536724;1.869866;1.528839;0.5372902;1.921453;1.052083;0.5437832;1.889721;0.3189977;0.3008634;1.786432;-0.005145907;-0.04740018;1.785875;0.1321541;-0.02182867;0.8836763;0.3412288;0;0;0;0.8106441;1.890745;-0.005148709;1.079812;2.01653;0.132149;1.522266;1.197067;0.3791107;1.787431;0.3659971;0.009248614;0.2241606;1.799621;2.11533;0.6370977;0.4199321;1.856875;0.4971488;0.7457888;3.155551;0.2241606;1.799621;2.11533;0.6370977;0.4199321;1.856875;0.4971488;0.7457888;3.155551
1469930.2888;NotLabelled;NONE;16384;0.4099723;-0.5834347;0.5193906;0.4709141;1;13;-80;4084;70;-2315;65536;0.6445416;-0.4016621;0.4307479;0.4875346;-46;15;-16;-1928;4371;233;8192;0.7313426;-0.6218836;-0.2520775;0.1218837;-41;-119;-15;2802;3962;-148;32768;0.8563735;-0.5138504;-0.01523546;-0.04847645;-18;-123;21;-791;4881;502;256;0.3171745;0.08171745;-0.9447384;0.01385042;-45;-97;-16;-31;-1124;4085;128;-0.2728532;-0.08864266;0.9372649;0.1980609;32;-94;-14;1823;735;-3714;4;-0.3434903;0.3296399;-0.4986149;-0.724386;-13;13;-55;1349;4264;-1546;16;-0.0401662;-0.9153836;-0.2853186;0.2811634;12;-3;19;-1711;-978;3276;2;0.5659908;-0.5554016;-0.5595568;-0.2409972;0;-40;157;-827;2444;1461;8;-0.05401662;-0.9308654;-0.1163435;0.3421052;110;-79;-52;-149;603;4025;0.5559695;1.830026;2.052657;0.5565451;1.882477;1.509638;0.5570289;1.926569;1.03213;0.5651928;1.881191;0.2997795;0.3209525;1.777759;-0.02332452;-0.02767824;1.788022;0.1126545;-0.04072455;0.8874139;0.3295986;0;0;0;0.8330754;1.869889;-0.02332765;1.104712;1.991739;0.1126498;1.553641;1.173783;0.3528283;1.812739;0.3422412;-0.02025676;0.2440825;1.821453;2.097213;0.6569937;0.4374982;1.862626;0.5094864;0.7589344;3.161567;0.2440825;1.821453;2.097213;0.6569937;0.4374982;1.862626;0.5094864;0.7589344;3.161567
