SEP=;
index;label;segment;RightUpperArm_boneIndex;RightUpperArm_quat9x_w;RightUpperArm_quat9x_x;RightUpperArm_quat9x_y;RightUpperArm_quat9x_z;RightUpperArm_gyroscope_x;RightUpperArm_gyroscope_y;RightUpperArm_gyroscope_z;RightUpperArm_accelerometer_x;RightUpperArm_accelerometer_y;RightUpperArm_accelerometer_z;RightLowerArm_boneIndex;RightLowerArm_quat9x_w;RightLowerArm_quat9x_x;RightLowerArm_quat9x_y;RightLowerArm_quat9x_z;RightLowerArm_gyroscope_x;RightLowerArm_gyroscope_y;RightLowerArm_gyroscope_z;RightLowerArm_accelerometer_x;RightLowerArm_accelerometer_y;RightLowerArm_accelerometer_z;LeftUpperArm_boneIndex;LeftUpperArm_quat9x_w;LeftUpperArm_quat9x_x;LeftUpperArm_quat9x_y;LeftUpperArm_quat9x_z;LeftUpperArm_gyroscope_x;LeftUpperArm_gyroscope_y;LeftUpperArm_gyroscope_z;LeftUpperArm_accelerometer_x;LeftUpperArm_accelerometer_y;LeftUpperArm_accelerometer_z;LeftLowerArm_boneIndex;LeftLowerArm_quat9x_w;LeftLowerArm_quat9x_x;LeftLowerArm_quat9x_y;LeftLowerArm_quat9x_z;LeftLowerArm_gyroscope_x;LeftLowerArm_gyroscope_y;LeftLowerArm_gyroscope_z;LeftLowerArm_accelerometer_x;LeftLowerArm_accelerometer_y;LeftLowerArm_accelerometer_z;Chest_boneIndex;Chest_quat9x_w;Chest_quat9x_x;Chest_quat9x_y;Chest_quat9x_z;Chest_gyroscope_x;Chest_gyroscope_y;Chest_gyroscope_z;Chest_accelerometer_x;Chest_accelerometer_y;Chest_accelerometer_z;Spine_boneIndex;Spine_quat9x_w;Spine_quat9x_x;Spine_quat9x_y;Spine_quat9x_z;Spine_gyroscope_x;Spine_gyroscope_y;Spine_gyroscope_z;Spine_accelerometer_x;Spine_accelerometer_y;Spine_accelerometer_z;RightUpperLeg_boneIndex;RightUpperLeg_quat9x_w;RightUpperLeg_quat9x_x;RightUpperLeg_quat9x_y;RightUpperLeg_quat9x_z;RightUpperLeg_gyroscope_x;RightUpperLeg_gyroscope_y;RightUpperLeg_gyroscope_z;RightUpperLeg_accelerometer_x;RightUpperLeg_accelerometer_y;RightUpperLeg_accelerometer_z;RightLowerLeg_boneIndex;RightLowerLeg_quat9x_w;RightLowerLeg_quat9x_x;RightLowerLeg_quat9x_y;RightLowerLeg_quat9x_z;RightLowerLeg_gyroscope_x;RightLowerLeg_gyroscope_y;RightLowerLeg_gyroscope_z;RightLowerLeg_accelerometer_x;RightLowerLeg_accelerometer_y;RightLowerLeg_accelerometer_z;LeftUpperLeg_boneIndex;LeftUpperLeg_quat9x_w;LeftUpperLeg_quat9x_x;LeftUpperLeg_quat9x_y;LeftUpperLeg_quat9x_z;LeftUpperLeg_gyroscope_x;LeftUpperLeg_gyroscope_y;LeftUpperLeg_gyroscope_z;LeftUpperLeg_accelerometer_x;LeftUpperLeg_accelerometer_y;LeftUpperLeg_accelerometer_z;LeftLowerLeg_boneIndex;LeftLowerLeg_quat9x_w;LeftLowerLeg_quat9x_x;LeftLowerLeg_quat9x_y;LeftLowerLeg_quat9x_z;LeftLowerLeg_gyroscope_x;LeftLowerLeg_gyroscope_y;LeftLowerLeg_gyroscope_z;LeftLowerLeg_accelerometer_x;LeftLowerLeg_accelerometer_y;LeftLowerLeg_accelerometer_z;pelvis_x;pelvis_y;pelvis_z;lowerSpine_x;lowerSpine_y;lowerSpine_z;middleSpine_x;middleSpine_y;middleSpine_z;upperSpine_x;upperSpine_y;upperSpine_z;rightClavicle_x;rightClavicle_y;rightClavicle_z;rightShoulder_x;rightShoulder_y;rightShoulder_z;rightElbow_x;rightElbow_y;rightElbow_z;rightWrist_x;rightWrist_y;rightWrist_z;leftClavicle_x;leftClavicle_y;leftClavicle_z;leftShoulder_x;leftShoulder_y;leftShoulder_z;leftElbow_x;leftElbow_y;leftElbow_z;leftWrist_x;leftWrist_y;leftWrist_z;rightHip_x;rightHip_y;rightHip_z;rightKnee_x;rightKnee_y;rightKnee_z;rightAnkle_x;rightAnkle_y;rightAnkle_z;leftHip_x;leftHip_y;leftHip_z;leftKnee_x;leftKnee_y;leftKnee_z;leftAnkle_x;leftAnkle_y;leftAnkle_z;
765046.707;NotLabelled;NONE;16384;-0.6108033;-0.398892;-0.6831541;0.033241;14;-13;22;1760;-2534;2619;65536;0.733808;0.1565097;-0.4695291;-0.4653739;25;8;-17;3323;1254;-2040;8192;0.5775623;-0.7609956;-0.1855956;0.2299169;17;26;-7;2154;3487;-1373;32768;0.2313019;-0.8319467;0.5041551;-0.01385042;31;12;13;3795;1261;1534;256;0.33518;-0.3711911;-0.6949639;-0.5166205;8;24;10;1019;3944;551;128;-0.1232687;0.3254848;0.6799157;0.6454294;-11;18;-4;-1509;3931;322;4;-0.2257618;-0.008310249;-0.7222099;-0.6537396;8;-7;-2;1375;3448;210;16;0.567867;-0.5781814;0.4833795;0.3310249;-3;-18;-8;419;3876;-626;2;0.666205;-0.7176841;-0.09833795;-0.1772853;-7;10;0;-631;4138;-405;8;0.4598338;-0.5496016;0.4819945;0.5041551;-4;3;-4;203;4019;331;0.8996079;2.731776;0.4934076;0.9054595;3.265022;0.3783576;0.9105985;3.733318;0.2752514;1.029697;4.442929;0.1312759;0.8262658;4.793763;0.02988946;0.4689603;4.726872;0.1193185;-0.1199405;5.216934;-0.4016083;0.7043107;5.025666;0.02479988;1.339433;4.707638;0.02988815;1.60366;4.536435;0.1193168;1.691617;3.773387;0.7009486;0.8418264;3.418616;0.9240657;0.5873468;2.689106;0.4955211;0.2768416;1.313118;0.1068023;0;0;0;0.5873468;2.689106;0.4955211;0.2768416;1.313118;0.1068023;0;0;0
765067.8549;NotLabelled;NONE;16384;-0.6135734;-0.398892;-0.6806673;0.033241;13;-12;21;1710;-2428;2623;65536;0.7317307;0.1578947;-0.4722992;-0.4653739;24;7;-16;3327;1258;-1960;8192;0.5761772;-0.7621958;-0.1883656;0.2271468;20;27;-4;2058;3457;-1387;32768;0.234072;-0.8318994;0.5027701;-0.01939058;32;15;14;3669;1201;1466;256;0.3310249;-0.3698061;-0.6966608;-0.5180055;7;24;10;977;3896;463;128;-0.1204986;0.3240997;0.6797577;0.6468144;-11;16;-2;-1429;3779;404;4;-0.2243767;-0.008310249;-0.7226414;-0.6537396;5;5;-1;1119;3404;514;16;0.567867;-0.5773863;0.4833795;0.33241;-2;-3;-5;521;3782;-486;2;0.666205;-0.7171493;-0.09972299;-0.1786704;-8;13;-1;-601;4074;-529;8;0.4598338;-0.5496016;0.4819945;0.5041551;-6;1;-4;197;4049;337;0.8880386;2.73365;0.4908521;0.8938925;3.267112;0.3768082;0.8990336;3.735601;0.2745858;1.021141;4.44511;0.1326371;0.8192148;4.797065;0.03213108;0.4615923;4.731409;0.1212077;-0.1191848;5.224447;-0.4059924;0.6985072;5.028003;0.03057033;1.33202;4.708813;0.03212929;1.595493;4.536268;0.1212052;1.68024;3.773176;0.7032562;0.8281776;3.421714;0.9229184;0.5757774;2.690976;0.4928785;0.2711457;1.314835;0.1000762;0;0;0;0.5757774;2.690976;0.4928785;0.2711457;1.314835;0.1000762;0;0;0
765088.7258;NotLabelled;NONE;16384;-0.6177285;-0.398892;-0.6768986;0.033241;13;-10;22;1678;-2554;2653;65536;0.7287306;0.1592798;-0.4764543;-0.4653739;21;5;-17;3241;1310;-1884;8192;0.5734072;-0.764923;-0.1939058;0.2202216;21;31;-2;1958;3323;-1343;32768;0.2396122;-0.8316595;0.5;-0.03047091;31;14;13;3519;1103;1506;256;0.3282548;-0.3698061;-0.6969402;-0.5193906;7;26;9;999;3788;557;128;-0.1163435;0.3227147;0.6798213;0.6481994;-8;16;-2;-1363;3787;324;4;-0.2257618;-0.005540166;-0.7222365;-0.6537396;5;10;-5;1031;3538;798;16;0.567867;-0.5765867;0.4833795;0.333795;0;-2;-5;875;3772;-434;2;0.666205;-0.7166088;-0.101108;-0.1800554;-8;14;-3;-645;4012;-537;8;0.4598338;-0.5495422;0.4806094;0.5055401;-6;0;-4;283;4047;431;0.8899082;2.7351;0.4824262;0.8957646;3.268775;0.3693839;0.9009078;3.737455;0.2680411;1.024982;4.44673;0.1266311;0.8240357;4.799312;0.02635896;0.4662228;4.734573;0.115342;-0.1143682;5.229506;-0.4102854;0.7040353;5.031923;0.02442628;1.336597;4.709652;0.02635694;1.599583;4.536319;0.1153389;1.684466;3.774151;0.6985812;0.8313192;3.423586;0.9154456;0.5776469;2.692422;0.4843661;0.2691947;1.315422;0.09760195;0;0;0;0.5776469;2.692422;0.4843661;0.2691947;1.315422;0.09760195;0;0;0
765108.7731;NotLabelled;NONE;16384;-0.6204986;-0.398892;-0.6743603;0.033241;11;-7;20;1558;-2574;2639;65536;0.7265781;0.1606648;-0.4806094;-0.4639889;19;3;-16;3259;1346;-1928;8192;0.5720221;-0.7660795;-0.1980609;0.2160665;21;31;-2;1784;3341;-1265;32768;0.2423823;-0.8315257;0.4986149;-0.03462604;28;16;12;3521;1029;1532;256;0.3240997;-0.368421;-0.6985829;-0.5207756;6;26;9;945;3804;535;128;-0.1135734;0.3213296;0.6796237;0.6495845;-7;14;0;-1365;3829;272;4;-0.2257618;-0.002770083;-0.7222524;-0.6537396;8;11;-9;897;3628;788;16;0.567867;-0.5765867;0.4833795;0.333795;-1;-9;-6;999;3866;-552;2;0.66759;-0.7146156;-0.101108;-0.1828255;-7;12;-3;-537;3990;-529;8;0.4598338;-0.549476;0.4792244;0.5069252;-7;0;-5;201;4093;551;0.8863171;2.736706;0.4786261;0.8921758;3.270597;0.3666124;0.8973212;3.739472;0.2661729;1.023026;4.448873;0.1268493;0.8229073;4.802181;0.02748322;0.464908;4.737976;0.1161023;-0.1104614;5.235748;-0.4125769;0.7050397;5.035517;0.02635622;1.33527;4.711394;0.02748156;1.597829;4.537228;0.1161001;1.672967;3.775962;0.7018507;0.8148187;3.427168;0.9011283;0.5740559;2.694025;0.4804771;0.2667693;1.316002;0.09643415;0;0;0;0.5740559;2.694025;0.4804771;0.2667693;1.316002;0.09643415;0;0;0
765129.703;NotLabelled;NONE;16384;-0.6232687;-0.398892;-0.6718009;0.033241;10;-6;17;1588;-2544;2623;65536;0.7247381;0.1606648;-0.4833795;-0.4639889;16;2;-15;3319;1424;-1896;8192;0.5706371;-0.7675505;-0.200831;0.2119114;22;28;-1;1670;3341;-1189;32768;0.2437673;-0.831701;0.4972299;-0.0401662;25;16;12;3535;1065;1536;256;0.3171745;-0.365651;-0.7011417;-0.5235457;1;26;9;999;3886;563;128;-0.1094183;0.3185596;0.6789559;0.6523545;-5;11;1;-1319;3955;262;4;-0.2257618;0;-0.7210016;-0.6551247;13;13;-10;927;3660;810;16;0.567867;-0.574617;0.4847645;0.33518;0;-4;-6;861;3894;-566;2;0.66759;-0.7140625;-0.1024931;-0.1842105;-6;6;-1;-409;4094;-441;8;0.4598338;-0.5506808;0.4778393;0.5069252;-7;4;-4;171;3997;521;0.8879259;2.738569;0.4689184;0.8937869;3.272674;0.3579268;0.8989342;3.74174;0.2583848;1.026603;4.450899;0.1196167;0.8274663;4.804831;0.02049172;0.4692803;4.741539;0.1090137;-0.1058195;5.241203;-0.4181727;0.7089766;5.039827;0.02154464;1.339578;4.712639;0.02049029;1.601647;4.537686;0.1090117;1.675739;3.777367;0.6961222;0.8175531;3.428115;0.8944323;0.5756645;2.695884;0.4706813;0.267645;1.316002;0.09397638;0;0;0;0.5756645;2.695884;0.4706813;0.267645;1.316002;0.09397638;0;0;0
765150.7096;NotLabelled;NONE;16384;-0.6288089;-0.3975069;-0.6674449;0.033241;13;-6;11;1632;-2618;2621;65536;0.7200711;0.1606648;-0.4903047;-0.4639889;14;-3;-10;3385;1460;-2026;8192;0.5692521;-0.7686082;-0.2036011;0.2091413;22;23;-1;1712;3473;-1231;32768;0.2451524;-0.8319097;0.4958449;-0.04432133;22;15;13;3733;1097;1486;256;0.3144044;-0.3642659;-0.7031075;-0.5235457;0;26;9;951;4060;629;128;-0.1080332;0.3171745;0.6798255;0.6523545;-3;9;1;-1303;4141;44;4;-0.2257618;0.004155125;-0.7197286;-0.6565097;17;14;-7;1283;3906;728;16;0.5706371;-0.5750092;0.4819945;0.333795;-1;22;-5;763;4108;-678;2;0.6689751;-0.7123612;-0.1052632;-0.1842105;-9;7;2;-357;4164;-325;8;0.4612188;-0.5506424;0.4750692;0.5083103;-7;9;-6;211;4075;505;0.886129;2.740977;0.460756;0.8919947;3.275504;0.351821;0.8971463;3.744951;0.2540852;1.027438;4.453881;0.1165974;0.8296419;4.808671;0.01785958;0.4711505;4.746495;0.1059349;-0.1146529;5.246036;-0.4094514;0.7036642;5.041661;0.02227253;1.341426;4.714681;0.01819825;1.602793;4.538665;0.1066854;1.687605;3.780585;0.6952392;0.8292076;3.434198;0.8976198;0.5738676;2.698285;0.4623413;0.2678932;1.316043;0.09268638;0;0;0;0.5738676;2.698285;0.4623413;0.2678932;1.316043;0.09268638;0;0;0
765170.9112;NotLabelled;NONE;16384;-0.6301939;-0.3961219;-0.6670295;0.03185596;14;-4;7;1674;-2538;2639;65536;0.7190701;0.1606648;-0.4930748;-0.4626039;14;-4;-7;3463;1388;-2020;8192;0.566482;-0.7710316;-0.2049861;0.2063712;23;21;-2;1820;3419;-1205;32768;0.2465374;-0.8320931;0.4944598;-0.04847645;18;12;13;3849;1215;1578;256;0.3116343;-0.3628809;-0.7050542;-0.5235457;-4;25;10;897;4126;681;128;-0.1080332;0.3157895;0.68047;0.6523545;3;6;1;-1275;4193;50;4;-0.2271468;0.006925208;-0.7180048;-0.6578947;19;16;-4;1331;3914;856;16;0.5720221;-0.576748;0.4792244;0.33241;-3;23;-8;659;4182;-654;2;0.6689751;-0.7117955;-0.1066482;-0.1855956;-11;8;2;-441;4058;-359;8;0.4612188;-0.5530202;0.4722992;0.5083103;-8;7;-7;211;4033;477;0.8759783;2.744787;0.4560211;0.8818419;3.279114;0.3461055;0.8869914;3.748379;0.2475088;1.01886;4.456696;0.1083629;0.8218216;4.811752;0.009073853;0.463274;4.750638;0.09766173;-0.1086325;5.254404;-0.4290943;0.7050834;5.042521;0.007677257;1.333376;4.716518;0.009072781;1.594409;4.540058;0.0976603;1.669385;3.78065;0.6858392;0.8102434;3.435783;0.8876559;0.5637169;2.702098;0.457691;0.2641987;1.316634;0.09487399;0;0;0;0.5637169;2.702098;0.457691;0.2641987;1.316634;0.09487399;0;0;0
765191.8793;NotLabelled;NONE;16384;-0.6315789;-0.3961219;-0.6657182;0.03185596;14;-3;2;1832;-2454;2745;65536;0.7190087;0.1606648;-0.4944598;-0.4612188;12;-7;-4;3593;1246;-2022;8192;0.5637119;-0.7737637;-0.2091413;0.199446;25;16;-3;1912;3655;-1121;32768;0.2465374;-0.8323892;0.4930748;-0.0567867;10;14;14;3887;1461;1702;256;0.3088643;-0.3614958;-0.706982;-0.5235457;-8;24;11;709;4168;737;128;-0.1080332;0.3144044;0.681111;0.6523545;4;4;0;-1113;4255;82;4;-0.2285319;0.009695291;-0.7162607;-0.6592798;18;18;0;1381;4170;1006;16;0.5734072;-0.5788066;0.4750692;0.33241;-5;29;-10;527;4224;-590;2;0.6703601;-0.710282;-0.1080332;-0.1855956;-13;9;0;-501;3992;-409;8;0.4612188;-0.5529265;0.4709141;0.5096953;-9;4;-8;279;4017;477;0.8686872;2.746785;0.4523774;0.8745486;3.280907;0.3414683;0.8796961;3.749989;0.2419987;1.013212;4.457686;0.1012862;0.8169889;4.813004;0.001316667;0.4583313;4.752942;0.09017813;-0.1159569;5.254372;-0.4362148;0.697817;5.041042;-0.0002570152;1.328313;4.716538;0.001314878;1.588956;4.539639;0.09017563;1.659611;3.781171;0.6800979;0.799596;3.437812;0.8807614;0.556426;2.7041;0.4541332;0.2623337;1.31718;0.09244272;0;0;0;0.556426;2.7041;0.4541332;0.2623337;1.31718;0.09244272;0;0;0
765213.8632;NotLabelled;NONE;16384;-0.632964;-0.3947368;-0.6652901;0.03047091;14;-1;0;1998;-2434;2763;65536;0.7186311;0.1620499;-0.4958449;-0.4598338;10;-10;0;3685;1096;-2058;8192;0.5609418;-0.7761067;-0.2105263;0.1966759;27;11;-2;1972;3721;-999;32768;0.2465374;-0.8329145;0.4916897;-0.06094183;7;15;14;3795;1603;1804;256;0.3074792;-0.3587258;-0.7089939;-0.5235457;-11;28;11;661;4248;643;128;-0.1080332;0.3144044;0.6824349;0.6509695;10;4;0;-1127;4315;138;4;-0.2299169;0.01246537;-0.7157744;-0.6592798;14;14;5;1379;4278;1056;16;0.5761772;-0.5802432;0.4709141;0.3310249;-7;36;-12;557;4230;-466;2;0.6717451;-0.7083957;-0.1094183;-0.1869806;-14;8;-2;-321;4100;-407;8;0.4612188;-0.552826;0.4695291;0.5110803;-11;5;-8;225;4049;471;0.8566931;2.749818;0.4464151;0.8625521;3.283734;0.3345183;0.8676975;3.752631;0.2341813;1.002842;4.459707;0.09190607;0.8074254;4.815276;-0.008741975;0.4486618;4.756259;0.08039129;-0.1268605;5.25863;-0.4437536;0.6885633;5.045364;-0.01085728;1.318518;4.717593;-0.008743525;1.578775;4.540263;0.08038926;1.640944;3.781813;0.67129;0.7767556;3.445954;0.8666468;0.5444319;2.707136;0.4482562;0.2558166;1.31879;0.08762589;0;0;0;0.5444319;2.707136;0.4482562;0.2558166;1.31879;0.08762589;0;0;0
765234.8581;NotLabelled;NONE;16384;-0.634349;-0.3933518;-0.6648532;0.02908587;14;3;-2;2004;-2308;2839;65536;0.7195154;0.1620499;-0.4958449;-0.4584487;8;-12;2;3673;948;-1946;8192;0.5581717;-0.77845;-0.2105263;0.1952908;28;5;0;2102;3709;-951;32768;0.2465374;-0.8335235;0.4903047;-0.06371191;2;17;13;3721;1693;1782;256;0.3033241;-0.3545706;-0.7148895;-0.5207756;-18;26;11;581;4194;739;128;-0.1094183;0.3116343;0.6861116;0.6481994;15;5;0;-1131;4179;162;4;-0.232687;0.01246537;-0.713599;-0.6606648;13;8;8;1217;4084;852;16;0.5775623;-0.5830054;0.466759;0.3296399;-8;29;-13;949;4182;-504;2;0.6731302;-0.7064961;-0.1108033;-0.1883656;-13;8;-4;-139;4060;-387;8;0.4612188;-0.5538885;0.466759;0.5124654;-12;6;-10;209;4009;419;0.850485;2.751846;0.4430148;0.8563393;3.285338;0.3291125;0.8614807;3.753855;0.2270141;0.9957789;4.460491;0.08178675;0.7999139;4.815449;-0.02014267;0.4412805;4.756419;0.0695045;-0.1362236;5.256446;-0.4546999;0.6806142;5.045043;-0.02355969;1.311108;4.718298;-0.02014482;1.571618;4.5416;0.06950116;1.629118;3.784174;0.6621852;0.7636949;3.451792;0.8580229;0.5382239;2.709172;0.4450291;0.2502326;1.31986;0.08763048;0;0;0;0.5382239;2.709172;0.4450291;0.2502326;1.31986;0.08763048;0;0;0
765255.7968;NotLabelled;NONE;16384;-0.634349;-0.3891967;-0.667353;0.02770083;12;14;-1;2026;-2156;2819;65536;0.7203188;0.1620499;-0.4972299;-0.4556787;1;-19;4;3583;710;-1876;8192;0.5567867;-0.779755;-0.2119114;0.1925208;29;1;2;2160;3653;-807;32768;0.2451524;-0.8354476;0.4875346;-0.06509695;-1;18;11;3521;1893;1886;256;0.301939;-0.3518005;-0.7178459;-0.5193906;-21;22;9;623;4118;745;128;-0.1094183;0.3116343;0.6874175;0.6468144;18;5;0;-1169;4119;108;4;-0.2354571;0.01385042;-0.7100862;-0.6634349;15;6;8;905;3968;800;16;0.5789474;-0.5871204;0.4598338;0.3296399;-12;10;-17;999;4092;-428;2;0.6745152;-0.703762;-0.1149584;-0.1911357;-13;19;-7;-109;4160;-551;8;0.4626039;-0.5549352;0.4626039;0.5138504;-13;11;-11;173;4039;611;0.8473924;2.751632;0.440504;0.8532324;3.283817;0.3206443;0.858361;3.751163;0.2133147;0.9954131;4.455386;0.05920768;0.8008664;4.809942;-0.04657209;0.4421903;4.753587;0.04461259;-0.1407614;5.251268;-0.4757812;0.6823556;5.041438;-0.05596423;1.311628;4.710544;-0.046574;1.571572;4.533797;0.04460967;1.629597;3.777453;0.6386223;0.765395;3.447201;0.8432585;0.5351316;2.708983;0.4430335;0.2470768;1.320875;0.08103769;0;0;0;0.5351316;2.708983;0.4430335;0.2470768;1.320875;0.08103769;0;0;0
765276.7157;NotLabelled;NONE;16384;-0.6357341;-0.3864266;-0.6676446;0.02770083;9;20;0;2012;-2188;2799;65536;0.7220638;0.1620499;-0.4972299;-0.4529086;-1;-20;5;3415;772;-1968;8192;0.5540166;-0.7813488;-0.2132964;0.1925208;27;-1;6;2254;3713;-805;32768;0.2451524;-0.8369491;0.4847645;-0.06648199;-4;20;8;3405;1985;1722;256;0.300554;-0.3490305;-0.7207741;-0.5180055;-23;18;7;593;3894;725;128;-0.1094183;0.3102493;0.6906374;0.6440443;18;1;-1;-1191;3969;70;4;-0.2368421;0.01385042;-0.7096254;-0.6634349;13;4;7;1071;4004;852;16;0.5803324;-0.5871367;0.4570637;0.3310249;-14;15;-18;855;4088;-404;2;0.6745152;-0.7021615;-0.1177285;-0.1952908;-14;25;-8;-133;4142;-429;8;0.4639889;-0.555942;0.4584487;0.5152354;-12;22;-12;-75;4095;721;0.8281116;2.754085;0.4376263;0.8339467;3.285819;0.3157803;0.8390709;3.752761;0.206706;0.9761962;4.455836;0.04750717;0.7816482;4.809726;-0.06047833;0.4230737;4.754155;0.03158313;-0.1667606;5.245371;-0.487196;0.6582102;5.037193;-0.07020378;1.29237;4.710119;-0.06047952;1.552366;4.533907;0.03158176;1.60966;3.777637;0.6257589;0.7462301;3.449623;0.8371433;0.5158509;2.711446;0.4403277;0.2367494;1.323318;0.07146023;0;0;0;0.5158509;2.711446;0.4403277;0.2367494;1.323318;0.07146023;0;0;0
765296.7889;NotLabelled;NONE;16384;-0.6371191;-0.3822715;-0.6686567;0.02908587;11;23;0;1832;-2206;2755;65536;0.7232397;0.1606648;-0.4972299;-0.4515235;-2;-21;4;3297;912;-2112;8192;0.5484765;-0.7841488;-0.2160665;0.1939058;20;-2;13;2292;3605;-827;32768;0.2437673;-0.8404258;0.4792244;-0.06786703;-9;19;2;3195;1897;1624;256;0.300554;-0.3476454;-0.7234241;-0.5152354;-25;12;4;597;3808;777;128;-0.1108033;0.3102493;0.6917059;0.6426592;18;0;0;-1121;3891;54;4;-0.2368421;0.01385042;-0.7083279;-0.66482;12;-1;7;1317;3886;840;16;0.5803324;-0.5895691;0.4529086;0.33241;-15;22;-20;731;4036;-412;2;0.6759003;-0.699579;-0.1204986;-0.1980609;-15;29;-8;-167;4128;-273;8;0.4653739;-0.5581907;0.4542936;0.5152354;-12;26;-12;111;4069;717;0.8228154;2.75468;0.4368439;0.8286378;3.285263;0.3100775;0.8337506;3.751174;0.1966826;0.9708988;4.45308;0.03242147;0.7763249;4.806279;-0.07775444;0.4178567;4.751474;0.01517618;-0.1737206;5.240439;-0.5037449;0.6546207;5.035407;-0.09190851;1.287012;4.706497;-0.07775617;1.547073;4.530837;0.01517379;1.603667;3.777561;0.6132104;0.7413784;3.449781;0.8295578;0.5105549;2.712068;0.4399718;0.2289222;1.324779;0.06987655;0;0;0;0.5105549;2.712068;0.4399718;0.2289222;1.324779;0.06987655;0;0;0
765316.7184;NotLabelled;NONE;16384;-0.6371191;-0.3795014;-0.6701712;0.03047091;12;25;2;1682;-2182;2775;65536;0.7252674;0.1592798;-0.4972299;-0.4487534;-1;-23;5;3071;1004;-2170;8192;0.5470914;-0.7843897;-0.2174515;0.1952908;15;-3;16;2242;3603;-883;32768;0.2437673;-0.8419993;0.4764543;-0.06786703;-11;21;-1;3143;1917;1542;256;0.301939;-0.3448753;-0.7261357;-0.5124654;-24;7;1;645;3816;895;128;-0.1121884;0.3102493;0.6940468;0.6398892;19;0;-1;-1187;3881;40;4;-0.2382271;0.01246537;-0.7065857;-0.666205;13;-4;7;1473;3814;810;16;0.5817174;-0.5913787;0.4487534;0.33241;-14;33;-20;805;4020;-390;2;0.6759003;-0.6979057;-0.1232687;-0.2022161;-16;31;-5;-197;4122;-221;8;0.466759;-0.5591196;0.4501385;0.5166205;-11;18;-13;111;4073;765;0.8106724;2.756806;0.4303954;0.8164897;3.286912;0.3016522;0.8215978;3.752398;0.1865214;0.9595656;4.452766;0.01648617;0.7653617;4.805382;-0.0961858;0.4069555;4.751869;-0.002267897;-0.185021;5.238687;-0.5227509;0.6447978;5.033422;-0.1140157;1.275894;4.704813;-0.09618747;1.53583;4.529493;-0.00227046;1.588154;3.783246;0.6048967;0.7263884;3.456618;0.8250368;0.4984121;2.714206;0.4336951;0.2207139;1.326565;0.06194936;0;0;0;0.4984121;2.714206;0.4336951;0.2207139;1.326565;0.06194936;0;0;0
765337.7126;NotLabelled;NONE;16384;-0.6385041;-0.3753462;-0.671128;0.03185596;14;24;2;1468;-2128;2845;65536;0.7272761;0.1578947;-0.4972299;-0.4459834;0;-22;6;2977;1100;-2398;8192;0.5457063;-0.7850083;-0.2174515;0.1966759;9;-4;19;2176;3605;-981;32768;0.2423823;-0.8440701;0.4736842;-0.06648199;-13;20;-5;3263;1797;1408;256;0.3033241;-0.3434903;-0.7281618;-0.5096953;-24;2;0;715;3736;895;128;-0.1135734;0.3102493;0.6963661;0.6371191;22;-1;0;-1147;3831;-40;4;-0.2396122;0.01108033;-0.704831;-0.66759;13;-7;7;1625;3634;614;16;0.5831025;-0.5949588;0.4432133;0.3310249;-14;30;-20;731;3992;-326;2;0.6772853;-0.6950025;-0.1274238;-0.2049861;-17;31;-3;-367;4132;-107;8;0.468144;-0.5601839;0.4473684;0.5166205;-11;14;-13;31;3999;761;0.8010711;2.75666;0.4339842;0.8068779;3.285797;0.3013125;0.8119763;3.750416;0.1827324;0.9482645;4.449362;0.005636096;0.7531648;4.800492;-0.110085;0.3950416;4.747208;-0.01496565;-0.1983122;5.232553;-0.5352539;0.6331214;5.028612;-0.129146;1.263891;4.700908;-0.1100869;1.524343;4.527009;-0.01496851;1.578038;3.783709;0.5956848;0.7174528;3.455998;0.8188129;0.4888111;2.714085;0.4376249;0.2135655;1.32788;0.05877022;0;0;0;0.4888111;2.714085;0.4376249;0.2135655;1.32788;0.05877022;0;0;0
765357.7203;NotLabelled;NONE;16384;-0.6412742;-0.365651;-0.6736971;0.03462604;19;19;-2;1136;-2188;2891;65536;0.7311275;0.1551246;-0.4986149;-0.4390582;5;-19;9;2875;1300;-2646;8192;0.5443213;-0.7852368;-0.2188366;0.1980609;5;-5;22;2148;3599;-995;32768;0.2423823;-0.8449537;0.4722992;-0.06509695;-13;15;-7;3355;1739;1424;256;0.3074792;-0.3421052;-0.7299656;-0.5055401;-21;-4;-7;783;3770;981;128;-0.1163435;0.3102493;0.69969;0.632964;21;-3;2;-1163;3919;-46;4;-0.2423823;0.009695291;-0.7012661;-0.6703601;12;2;12;1537;3702;344;16;0.5858725;-0.5995983;0.432133;0.33241;-14;23;-22;617;4056;-280;2;0.6786703;-0.6920483;-0.1315789;-0.2077562;-19;28;-2;-459;4066;-59;8;0.4695291;-0.5610479;0.4432133;0.5180055;-11;16;-13;-139;3993;741;0.7915441;2.756362;0.4359685;0.7973397;3.284505;0.2993925;0.8024286;3.748235;0.177384;0.9381887;4.445829;-0.005358696;0.7427833;4.795977;-0.1235151;0.3848246;4.743307;-0.02743995;-0.2071386;5.226484;-0.5513181;0.6249957;5.023851;-0.1459921;1.253545;4.696579;-0.123517;1.514206;4.52352;-0.02744246;1.567578;3.782257;0.5857098;0.7083749;3.454206;0.8136137;0.4792843;2.713816;0.4399487;0.2073382;1.329094;0.05336145;0;0;0;0.4792843;2.713816;0.4399487;0.2073382;1.329094;0.05336145;0;0;0
765378.7163;NotLabelled;NONE;16384;-0.6426592;-0.3614958;-0.6746191;0.03462604;19;16;-6;1008;-2124;3005;65536;0.7330757;0.1537396;-0.4986149;-0.4362881;6;-16;13;2847;1326;-2684;8192;0.5443213;-0.7841452;-0.2202216;0.200831;0;-6;22;2110;3571;-995;32768;0.2409972;-0.8469968;0.4695291;-0.06371191;-14;13;-10;3351;1609;1386;256;0.3116343;-0.3421052;-0.7301167;-0.5027701;-20;-5;-10;849;3786;1015;128;-0.1191136;0.3102493;0.7017214;0.6301939;23;-5;4;-1115;3975;-84;4;-0.2437673;0.008310249;-0.6994762;-0.6717451;9;2;13;1445;3802;278;16;0.5872576;-0.6004534;0.4279778;0.333795;-15;16;-24;713;3994;-278;2;0.6814404;-0.6865435;-0.1371191;-0.2132964;-22;22;-2;-675;4104;-37;8;0.4722992;-0.5628673;0.4362881;0.5193906;-13;16;-13;-135;4055;741;0.7599712;2.757635;0.440865;0.7657501;3.284241;0.2984775;0.7708237;3.746599;0.1713666;0.9044545;4.44256;-0.01901066;0.7079281;4.790952;-0.1404558;0.3502989;4.738404;-0.04309404;-0.2375528;5.215592;-0.5769966;0.5927098;5.015645;-0.1665305;1.218938;4.692836;-0.1404579;1.480229;4.521453;-0.04309738;1.532052;3.783164;0.5737648;0.6731956;3.453292;0.8003454;0.4477119;2.715135;0.4453517;0.1859782;1.332586;0.04421303;0;0;0;0.4477119;2.715135;0.4453517;0.1859782;1.332586;0.04421303;0;0;0
765398.7277;NotLabelled;NONE;16384;-0.6440443;-0.3573407;-0.6755114;0.03462604;17;14;-10;982;-2150;3157;65536;0.7347172;0.1537396;-0.4986149;-0.433518;4;-12;17;2855;1290;-2748;8192;0.5443213;-0.7823389;-0.2202216;0.2077562;-7;-8;23;2154;3553;-1161;32768;0.2396122;-0.8493162;0.466759;-0.05817174;-17;10;-16;3399;1531;1594;256;0.3144044;-0.3407202;-0.7314777;-0.5;-20;-6;-13;871;3816;1019;128;-0.1204986;0.3102493;0.7039636;0.6274238;26;-6;5;-1119;3949;-112;4;-0.2451524;0.006925208;-0.6976734;-0.6731302;11;-1;14;1363;3782;164;16;0.5886427;-0.6012723;0.4238227;0.33518;-17;8;-26;657;3994;-434;2;0.6851169;-0.6814404;-0.1398892;-0.2160665;-22;16;-2;-667;4070;1;8;0.4736842;-0.5636286;0.432133;0.5207756;-13;18;-13;-133;3937;749;0.7431715;2.757441;0.4488408;0.7489387;3.282994;0.3026135;0.7540023;3.744412;0.1721312;0.885746;4.439604;-0.0223304;0.6882479;4.786825;-0.1455333;0.3308514;4.73397;-0.04748678;-0.2517754;5.207204;-0.5905557;0.5762718;5.008522;-0.1750317;1.199493;4.689943;-0.1455352;1.461302;4.519746;-0.04748976;1.512898;3.784306;0.572786;0.6538219;3.454147;0.7981061;0.4309127;2.714975;0.4536625;0.1754621;1.334051;0.04298942;0;0;0;0.4309127;2.714975;0.4536625;0.1754621;1.334051;0.04298942;0;0;0
765419.872;NotLabelled;NONE;16384;-0.6440443;-0.3545706;-0.6769695;0.03462604;14;12;-12;958;-2210;3193;65536;0.7363447;0.1537396;-0.4986149;-0.4307479;2;-8;21;2893;1398;-2706;8192;0.5443213;-0.781598;-0.2202216;0.2105263;-10;-8;25;2146;3571;-1223;32768;0.2396122;-0.850261;0.4653739;-0.05540166;-18;9;-20;3409;1551;1778;256;0.3171745;-0.3393352;-0.7318709;-0.4986149;-19;-4;-17;877;3752;1055;128;-0.1246537;0.3102493;0.7057015;0.6246537;29;-8;8;-1151;3969;-128;4;-0.2465374;0.005540166;-0.6958576;-0.6745152;10;-2;15;1387;3914;278;16;0.5886427;-0.6016678;0.4210526;0.3379501;-20;6;-25;455;4052;-524;2;0.6871412;-0.6786703;-0.1412742;-0.2174515;-20;11;-3;-683;4002;-31;8;0.4750692;-0.5632983;0.4293629;0.5221606;-13;18;-12;-139;4013;737;0.7283192;2.757112;0.454744;0.7340746;3.281588;0.3046982;0.7391275;3.742044;0.1708634;0.8690767;4.436019;-0.02907813;0.670646;4.781862;-0.1546372;0.3135058;4.728979;-0.05567542;-0.2669821;5.198237;-0.6044555;0.5605534;5.002651;-0.1864511;1.182101;4.686093;-0.1546389;1.44442;4.517216;-0.05567741;1.50473;3.786618;0.5695139;0.6495296;3.452394;0.8034259;0.4160606;2.714682;0.4598994;0.1651384;1.335435;0.04088679;0;0;0;0.4160606;2.714682;0.4598994;0.1651384;1.335435;0.04088679;0;0;0
765441.7445;NotLabelled;NONE;16384;-0.6440443;-0.3504155;-0.6791295;0.03462604;12;13;-15;922;-2202;3241;65536;0.7380881;0.1537396;-0.4972299;-0.4293629;0;-4;25;2851;1410;-2680;8192;0.5457063;-0.7794992;-0.2202216;0.2146814;-14;-10;28;2220;3677;-1297;32768;0.2382271;-0.8516666;0.4639889;-0.05124654;-20;9;-24;3449;1515;1818;256;0.3213296;-0.3379501;-0.7316416;-0.4972299;-19;-4;-21;947;3802;1065;128;-0.1274238;0.3088643;0.7082562;0.6218836;30;-10;10;-1205;3957;-184;4;-0.2479224;0.002770083;-0.6940357;-0.6759003;8;-11;19;1595;3944;324;16;0.5900277;-0.6025998;0.4155124;0.3407202;-19;19;-24;271;4066;-352;2;0.6891427;-0.6759003;-0.1426593;-0.2188366;-17;7;-3;-591;4010;-17;8;0.4750692;-0.5664414;0.4252077;0.5221606;-14;17;-12;-273;4113;735;0.7140894;2.756613;0.4585747;0.7198328;3.279993;0.3047511;0.724875;3.739474;0.1675996;0.852075;4.432989;-0.0356735;0.6522539;4.777507;-0.162664;0.2953972;4.72376;-0.06314731;-0.285529;5.189802;-0.614198;0.5413796;4.997308;-0.1935267;1.164061;4.683638;-0.1626655;1.427089;4.516196;-0.06314933;1.490705;3.787554;0.5639935;0.6373197;3.450306;0.8001789;0.4018313;2.714222;0.4640606;0.1556011;1.336702;0.03666568;0;0;0;0.4018313;2.714222;0.4640606;0.1556011;1.336702;0.03666568;0;0;0
765461.8266;NotLabelled;NONE;16384;-0.6426592;-0.3448753;-0.6831934;0.03601108;6;11;-23;840;-2240;3189;65536;0.7423022;0.1551246;-0.4916897;-0.4279778;-5;0;33;2903;1456;-2636;8192;0.5457063;-0.7779521;-0.2202216;0.2202216;-17;-13;29;2308;3727;-1453;32768;0.2368421;-0.8537947;0.4612188;-0.04709141;-21;10;-28;3555;1473;1900;256;0.3296399;-0.33518;-0.7320309;-0.4930748;-21;-6;-29;949;3860;999;128;-0.1371191;0.3074792;0.7130786;0.6149584;34;-7;19;-1241;3941;-52;4;-0.2493075;0;-0.6921924;-0.6772853;5;-23;22;1711;3814;276;16;0.5900277;-0.6046623;0.4113573;0.3421052;-20;21;-25;371;3978;-250;2;0.6897702;-0.6745152;-0.1440443;-0.2202216;-16;4;-5;-449;4164;105;8;0.4764543;-0.5671031;0.4210526;0.5235457;-15;19;-11;-371;4023;777;0.6946871;2.755574;0.4652722;0.7004151;3.277556;0.3067674;0.7054436;3.73579;0.1655064;0.8286451;4.429065;-0.04101861;0.6268208;4.771894;-0.169405;0.2703471;4.71663;-0.06934807;-0.3086383;5.17785;-0.6264657;0.5179136;4.988298;-0.2037613;1.139138;4.680853;-0.1694072;1.403169;4.515321;-0.06935132;1.471342;3.788557;0.5594895;0.6199045;3.449108;0.799519;0.3824295;2.713234;0.4711682;0.1404565;1.338483;0.03256901;0;0;0;0.3824295;2.713234;0.4711682;0.1404565;1.338483;0.03256901;0;0;0
765481.8518;NotLabelled;NONE;16384;-0.6398892;-0.3421052;-0.6871747;0.03601108;5;9;-28;830;-2264;3165;65536;0.7458317;0.1551246;-0.4875346;-0.4265928;-8;0;37;2803;1510;-2550;8192;0.5470914;-0.7749923;-0.2216066;0.2257618;-19;-12;31;2420;3683;-1547;32768;0.2368421;-0.8555723;0.4584487;-0.04155125;-20;12;-33;3611;1603;2006;256;0.33518;-0.33241;-0.7317097;-0.4916897;-22;-7;-32;959;3856;999;128;-0.1412742;0.3060942;0.7152436;0.6121883;34;-4;22;-1223;3931;-142;4;-0.2506925;-0.008310249;-0.6875486;-0.6814404;12;-4;23;1375;3194;-252;16;0.5914127;-0.6066641;0.4016621;0.3476454;-23;8;-23;-85;3974;-284;2;0.6947044;-0.6689751;-0.1440443;-0.2216066;-15;7;-9;-241;4104;365;8;0.4792244;-0.5695924;0.4127424;0.5249307;-16;19;-9;-417;4049;759;0.681033;2.753599;0.4695655;0.6867262;3.272393;0.3009198;0.6917235;3.727788;0.1507569;0.8072803;4.419665;-0.06468368;0.6015576;4.759007;-0.1961128;0.2461378;4.701584;-0.09355265;-0.3299968;5.168155;-0.6491693;0.4997608;4.987578;-0.2288232;1.114711;4.672813;-0.1976852;1.380807;4.510996;-0.09702837;1.449456;3.776022;0.522145;0.5998379;3.433952;0.7648895;0.3687769;2.711382;0.4763519;0.1320274;1.339482;0.02613148;0;0;0;0.3687769;2.711382;0.4763519;0.1320274;1.339482;0.02613148;0;0;0
765501.9402;NotLabelled;NONE;16384;-0.6371191;-0.3407202;-0.690429;0.03601108;2;7;-33;954;-2200;3111;65536;0.748243;0.1565097;-0.4833795;-0.4265928;-10;1;41;2961;1426;-2440;8192;0.5484765;-0.7702948;-0.2229917;0.2368421;-21;-9;38;2712;3461;-1521;32768;0.2368421;-0.8596613;0.4515235;-0.03185596;-16;18;-39;3437;1723;2080;256;0.3407202;-0.3310249;-0.7307075;-0.4903047;-23;-8;-35;873;3858;983;128;-0.1454294;0.3033241;0.7179514;0.6094183;33;0;25;-1287;3947;-152;4;-0.2534626;-0.009695291;-0.6851366;-0.6828254;14;8;19;1055;3342;280;16;0.5914127;-0.6087096;0.3961219;0.3504155;-23;24;-21;-479;4068;-364;2;0.6958962;-0.666205;-0.1468144;-0.2243767;-18;16;-12;-175;4128;341;8;0.4792244;-0.5703144;0.4099723;0.5263157;-18;12;-10;-335;4119;865;0.6444776;2.749101;0.4836547;0.6501541;3.2664;0.3104768;0.6551369;3.720464;0.1563355;0.7649589;4.411984;-0.06321204;0.5564875;4.748644;-0.197181;0.2013837;4.688691;-0.09497535;-0.3793417;5.139635;-0.6586565;0.4514924;4.964745;-0.2380326;1.070391;4.667033;-0.1971833;1.337713;4.508233;-0.09497893;1.415933;3.789442;0.5418074;0.5691509;3.441514;0.7861302;0.3322221;2.706945;0.4908403;0.1057193;1.341986;0.01498377;0;0;0;0.3322221;2.706945;0.4908403;0.1057193;1.341986;0.01498377;0;0;0
765543.8512;NotLabelled;NONE;16384;-0.6315789;-0.3393352;-0.6962476;0.03462604;-2;5;-36;1404;-2096;2873;65536;0.7533442;0.1578947;-0.4736842;-0.4279778;-15;3;43;2979;1026;-2294;8192;0.5498615;-0.7641351;-0.2271468;0.2493075;-21;1;46;2818;3221;-1535;32768;0.2396122;-0.8635809;0.4432133;-0.01939058;-9;26;-44;3297;1611;2062;256;0.3531856;-0.3254848;-0.7282013;-0.4889196;-24;-7;-41;861;3774;1053;128;-0.1523546;0.2963989;0.7229055;0.6052631;27;18;31;-1225;3893;-286;4;-0.2548476;-0.01108033;-0.6800554;-0.6873533;13;-13;7;1041;3820;-186;16;0.5969529;-0.6138;0.3808864;0.3490305;-13;44;-18;-29;3920;394;2;0.6997833;-0.6592798;-0.1509695;-0.2299169;-23;29;-14;-329;4388;451;8;0.4806094;-0.5724948;0.4016621;0.5290859;-11;26;-10;-591;4143;1471;0.6235575;2.746922;0.4867043;0.629214;3.262392;0.308153;0.634179;3.714827;0.1492952;0.738815;4.406149;-0.07338709;0.5278079;4.740685;-0.208698;0.1732187;4.678602;-0.1059785;-0.4095908;5.126371;-0.6700394;0.4222677;4.957513;-0.248976;1.042292;4.662818;-0.2087002;1.310832;4.506422;-0.1059821;1.404807;3.79589;0.5379027;0.5653697;3.437288;0.7919448;0.3113029;2.704844;0.4943636;0.09279301;1.343011;0.005972959;0;0;0;0.3113029;2.704844;0.4943636;0.09279301;1.343011;0.005972959;0;0;0
765564.8471;NotLabelled;NONE;16384;-0.6274238;-0.3393352;-0.7000614;0.033241;-3;4;-38;1532;-2034;2833;65536;0.7565091;0.1592798;-0.468144;-0.4279778;-14;5;44;2993;966;-2312;8192;0.5512465;-0.7595864;-0.2313019;0.2562327;-22;7;51;2856;3083;-1415;32768;0.2409972;-0.866124;0.4376731;-0.01385042;-6;30;-45;3299;1507;2100;256;0.3587258;-0.3227147;-0.7276545;-0.4875346;-24;-10;-43;727;3634;1119;128;-0.1551246;0.2894737;0.7251192;0.6052631;26;33;35;-1093;3953;-396;4;-0.2534626;-0.01108033;-0.6786703;-0.6892318;14;-12;3;1027;3884;72;16;0.5969529;-0.6172035;0.3753462;0.3490305;-11;18;-19;633;3912;476;2;0.7017023;-0.6551247;-0.1537396;-0.234072;-22;28;-12;-287;4356;335;8;0.4833795;-0.5752943;0.3961219;0.5277008;-5;37;-10;-555;4311;1853;0.5764793;2.746023;0.4932614;0.5820981;3.258053;0.3050733;0.5870295;3.70743;0.1377576;0.6767209;4.398652;-0.09165275;0.4585066;4.727339;-0.2298408;0.1054397;4.658747;-0.1260235;-0.4795733;5.099997;-0.6929334;0.3562028;4.941223;-0.2757211;0.9745249;4.660384;-0.2298428;1.246444;4.510697;-0.1260265;1.353327;3.811983;0.5286868;0.5231979;3.436118;0.7883006;0.2642264;2.704096;0.5017728;0.06854963;1.344478;-0.002220631;0;0;0;0.2642264;2.704096;0.5017728;0.06854963;1.344478;-0.002220631;0;0;0
765586.7122;NotLabelled;NONE;16384;-0.6191136;-0.3407202;-0.7068802;0.03047091;0;0;-49;1714;-1942;2753;65536;0.7615966;0.1634349;-0.4570637;-0.4293629;-10;6;47;3161;874;-2162;8192;0.5512465;-0.7564141;-0.2354571;0.2617728;-23;9;53;2750;2867;-1427;32768;0.2437673;-0.8681847;0.432133;-0.009695291;-5;32;-45;3251;1381;2064;256;0.3725762;-0.3171745;-0.7249764;-0.4847645;-25;-9;-42;471;3812;1433;128;-0.1565097;0.2686981;0.7327774;0.6052631;29;51;40;-823;4177;-788;4;-0.2479224;-0.01108033;-0.6759003;-0.6939528;11;-13;-5;893;4238;4;16;0.5969529;-0.6165583;0.3711911;0.3545706;-1;-4;-18;49;4160;656;2;0.7040236;-0.6509695;-0.1565097;-0.2368421;-22;19;-7;-277;4412;489;8;0.4875346;-0.5759026;0.3919668;0.5263157;3;38;-11;-487;4487;2037;0.5603728;2.747206;0.4840614;0.5659747;3.257697;0.291735;0.570891;3.705705;0.1207874;0.6542656;4.396244;-0.1130214;0.433036;4.722106;-0.2530886;0.080671;4.651036;-0.1485566;-0.510063;5.08812;-0.7127543;0.3287429;4.936772;-0.298876;0.9496285;4.659737;-0.2530905;1.222945;4.513124;-0.1485593;1.342002;3.822273;0.5123686;0.5167145;3.438183;0.7753561;0.2481206;2.705349;0.4929396;0.0620474;1.344743;-0.01201881;0;0;0;0.2481206;2.705349;0.4929396;0.0620474;1.344743;-0.01201881;0;0;0
765606.7103;NotLabelled;NONE;16384;-0.6135734;-0.3421052;-0.711143;0.02770083;3;-2;-55;1660;-1854;2753;65536;0.764297;0.166205;-0.4515235;-0.4293629;-6;3;51;3265;516;-2284;8192;0.5526316;-0.7512124;-0.2409972;0.2686981;-23;11;53;2664;2693;-1361;32768;0.2451524;-0.8712528;0.4252077;-0.004155125;-6;33;-43;3259;1579;2422;256;0.3795014;-0.3130194;-0.7250372;-0.4819945;-27;-4;-41;219;3860;1619;128;-0.1578947;0.2590028;0.7371011;0.6038781;25;48;41;-499;4281;-688;4;-0.2437673;-0.01108033;-0.6759003;-0.6954232;8;-23;-10;1199;4214;48;16;0.5983379;-0.6160789;0.368421;0.3559557;4;10;-17;-81;4232;652;2;0.7078606;-0.6454294;-0.1620499;-0.2368421;-24;1;13;-155;4580;627;8;0.4958449;-0.5763338;0.3864266;0.5221606;16;26;-14;-477;4345;1739;0.5188774;2.751514;0.4744701;0.524429;3.257406;0.2703544;0.5293003;3.701329;0.08906108;0.5976346;4.390535;-0.1534005;0.3693305;4.709845;-0.2971593;0.01869094;4.63258;-0.1912293;-0.5776148;5.062819;-0.7548268;0.2643523;4.926791;-0.3420497;0.8871356;4.658507;-0.297161;1.163646;4.519063;-0.191232;1.281026;3.836145;0.4781858;0.457061;3.443009;0.731786;0.2066277;2.709875;0.4843961;0.04530649;1.345338;-0.01846673;0;0;0;0.2066277;2.709875;0.4843961;0.04530649;1.345338;-0.01846673;0;0;0
765627.7244;NotLabelled;NONE;16384;-0.6080332;-0.3421052;-0.7160344;0.0235457;7;-3;-58;2024;-1414;2843;65536;0.7677417;0.1689751;-0.4445983;-0.4293629;-5;0;53;3301;64;-2154;8192;0.5540166;-0.7424055;-0.2506925;0.2811634;-16;7;50;2648;2411;-1045;32768;0.2451524;-0.8765792;0.4141274;0.002770083;-14;32;-37;2973;1559;2722;256;0.3864266;-0.3074792;-0.7246693;-0.4806094;-30;0;-39;-7;3926;1755;128;-0.1606648;0.2493075;0.7398404;0.6038781;24;40;41;-217;4421;-714;4;-0.2409972;-0.01246537;-0.6759003;-0.6963646;3;-20;-11;1467;4098;-68;16;0.599723;-0.6163824;0.365651;0.3559557;4;13;-14;233;4276;526;2;0.7094023;-0.6440443;-0.1648199;-0.234072;-27;-7;22;-315;4500;827;8;0.5;-0.5758476;0.3836565;0.5207756;18;32;-15;-613;4159;1531;0.503269;2.754674;0.4675164;0.5087895;3.25774;0.2565314;0.5136335;3.699154;0.06921047;0.5741266;4.386365;-0.1808766;0.3421414;4.701642;-0.3276116;-0.007439874;4.62181;-0.2200997;-0.609189;5.05428;-0.776154;0.2353269;4.927609;-0.3656127;0.8604636;4.655819;-0.32816;1.138659;4.520487;-0.2213112;1.265543;3.837937;0.4467458;0.4469305;3.436507;0.7046486;0.1910207;2.713175;0.4780549;0.03678267;1.345594;-0.01872664;0;0;0;0.1910207;2.713175;0.4780549;0.03678267;1.345594;-0.01872664;0;0;0
765647.8582;NotLabelled;NONE;16384;-0.601108;-0.3407202;-0.7226719;0.01800554;11;-1;-59;2176;-1092;3049;65536;0.7715589;0.1731302;-0.4376731;-0.4279778;-5;-5;56;3375;-372;-2140;8192;0.5526316;-0.7403757;-0.2534626;0.2867036;-13;-2;47;2732;2399;-849;32768;0.2451524;-0.8797827;0.4072022;0.008310249;-18;30;-36;2779;1853;2630;256;0.3933518;-0.301939;-0.7241901;-0.4792244;-35;0;-38;-289;3858;1813;128;-0.1634349;0.2396122;0.741304;0.6052631;20;27;39;-25;4303;-810;4;-0.2382271;-0.01246537;-0.6745152;-0.698657;3;-3;-8;1609;4122;-260;16;0.601108;-0.6158531;0.3642659;0.3559557;6;10;-13;203;4382;384;2;0.7130597;-0.6412742;-0.16759;-0.2285319;-28;-11;28;-395;4354;845;8;0.5041551;-0.5753143;0.3808864;0.5193906;12;22;-16;-213;4075;1313;0.4935027;2.755678;0.4653236;0.4990005;3.256678;0.2494764;0.5038242;3.696256;0.05788934;0.5548313;4.381774;-0.1988721;0.31853;4.692348;-0.3487175;-0.02994198;4.608709;-0.2404998;-0.6430119;5.02484;-0.7966555;0.2050571;4.908919;-0.3902832;0.8374396;4.653739;-0.3487196;1.117456;4.523339;-0.2405033;1.270393;3.868357;0.449339;0.4587376;3.458933;0.716497;0.1812556;2.714283;0.4762967;0.03132163;1.345727;-0.01911555;0;0;0;0.1812556;2.714283;0.4762967;0.03132163;1.345727;-0.01911555;0;0;0
765667.7187;NotLabelled;NONE;16384;-0.5955678;-0.3393352;-0.7280301;0.01108033;14;3;-59;2422;-718;3157;65536;0.7767985;0.1772853;-0.4293629;-0.4252077;-7;-10;58;3315;-826;-2072;8192;0.5526316;-0.7366989;-0.2562327;0.2936288;-8;-10;43;3016;2405;-779;32768;0.2451524;-0.8822769;0.4016621;0.01246537;-19;30;-35;2583;2253;2586;256;0.400277;-0.2963989;-0.7245118;-0.4764543;-37;0;-36;-579;3658;1855;128;-0.16759;0.2313019;0.74414;0.6038781;24;18;38;105;4077;-926;4;-0.2382271;-0.01108033;-0.6745152;-0.6986804;0;8;-3;1235;3982;-192;16;0.602493;-0.6161318;0.3614958;0.3559557;5;3;-14;89;4168;36;2;0.7162018;-0.6385041;-0.1703601;-0.2243767;-28;-9;28;-477;4242;985;8;0.5055401;-0.5737601;0.3795014;0.5207756;5;0;-17;-591;4171;1107;0.4791297;2.757531;0.4652365;0.4846137;3.257264;0.2464705;0.4894252;3.695717;0.05232233;0.5306584;4.379352;-0.2111291;0.2899249;4.685136;-0.3637419;-0.05725405;4.597713;-0.254366;-0.6793628;5.003995;-0.8077594;0.1722833;4.902156;-0.4051125;0.8093216;4.653753;-0.3638934;1.091221;4.52832;-0.2547001;1.244514;3.877645;0.4391283;0.4379874;3.462495;0.7129037;0.1668833;2.716201;0.4764709;0.02737446;1.345842;-0.01699745;0;0;0;0.1668833;2.716201;0.4764709;0.02737446;1.345842;-0.01699745;0;0;0
765687.8299;NotLabelled;NONE;16384;-0.5844875;-0.333795;-0.7395642;0;16;12;-53;2696;-522;3397;65536;0.7878866;0.1842105;-0.4155124;-0.4155124;-7;-21;51;3089;-1130;-2620;8192;0.5512465;-0.7340459;-0.2603878;0.299169;-7;-10;42;3402;2317;-601;32768;0.2451524;-0.8852724;0.3947368;0.01939058;-20;28;-36;2223;2405;2528;256;0.4141274;-0.2825485;-0.7258821;-0.4709141;-39;0;-36;-827;3248;1939;128;-0.1772853;0.2188366;0.7478969;0.601108;24;6;36;209;3827;-1124;4;-0.2368421;-0.01108033;-0.6731302;-0.7004847;6;-3;2;1349;3610;-502;16;0.6038781;-0.6123498;0.3614958;0.3601108;2;-13;-11;-543;4112;-228;2;0.71895;-0.6357341;-0.1745152;-0.2202216;-29;0;22;-851;4268;1087;8;0.5083103;-0.5709615;0.3781163;0.5221606;3;2;-18;-805;4201;527;0.4692844;2.758509;0.4626243;0.4747413;3.255791;0.2383418;0.4795289;3.69207;0.03935391;0.5122842;4.372799;-0.2326703;0.2677671;4.673668;-0.388993;-0.07827796;4.583371;-0.2783662;-0.7121453;4.972245;-0.8309218;0.1438307;4.887235;-0.4335873;0.7875098;4.648662;-0.3889949;1.070962;4.528076;-0.2783692;1.235578;3.89032;0.4247971;0.4324555;3.470936;0.7021046;0.1570393;2.717306;0.4743531;0.02187964;1.345935;-0.0175129;0;0;0;0.1570393;2.717306;0.4743531;0.02187964;1.345935;-0.0175129;0;0;0
765708.8487;NotLabelled;NONE;16384;-0.5803324;-0.3296399;-0.7446617;-0.005540166;20;15;-48;2570;-498;3397;65536;0.7919762;0.1883656;-0.4099723;-0.4113573;-2;-22;48;3217;-1088;-2844;8192;0.5498615;-0.7312364;-0.2631579;0.3060942;-8;-7;42;3608;2239;-507;32768;0.2465374;-0.8871999;0.3891967;0.02493075;-19;27;-37;2085;2513;2584;256;0.4210526;-0.2756233;-0.7263523;-0.468144;-36;-3;-36;-867;3280;2055;128;-0.1828255;0.2132964;0.7492742;0.599723;22;5;35;453;3811;-1124;4;-0.2368421;-0.01108033;-0.6717451;-0.701813;9;-7;1;1175;3712;-436;16;0.6052631;-0.6093397;0.3614958;0.3628809;6;-6;-6;-847;4108;82;2;0.7240496;-0.6301939;-0.1786704;-0.2160665;-26;-1;12;-1095;3788;537;8;0.5027701;-0.5642919;0.3781163;0.534626;-35;-86;-28;-473;3107;1827;0.4471052;2.759254;0.4672492;0.4525177;3.252491;0.2342036;0.4572658;3.685181;0.02752787;0.4708426;4.358573;-0.263712;0.2179293;4.647951;-0.4281603;-0.1253957;4.551207;-0.3145489;-0.7783601;4.912159;-0.8638021;0.08478639;4.860009;-0.4764333;0.7381675;4.637465;-0.4281624;1.02494;4.528018;-0.3145523;1.191971;3.900184;0.3969244;0.394409;3.474393;0.6804465;0.1348626;2.718266;0.4797658;0.01023431;1.346128;-0.01274156;0;0;0;0.1348626;2.718266;0.4797658;0.01023431;1.346128;-0.01274156;0;0;0
765728.6996;NotLabelled;NONE;16384;-0.5761772;-0.3254848;-0.7496377;-0.01108033;25;12;-44;2584;-494;3423;65536;0.7970033;0.1911357;-0.4044321;-0.4058172;4;-22;45;3127;-1022;-2984;8192;0.5498615;-0.7228258;-0.2714681;0.3185596;-14;0;42;3590;1927;-473;32768;0.2479224;-0.8917452;0.3767313;0.03739612;-16;21;-38;1893;2625;2390;256;0.4279778;-0.2700831;-0.7261661;-0.4653739;-32;-4;-36;-877;3300;2185;128;-0.1883656;0.2077562;0.7505648;0.5983379;21;2;32;459;3891;-1104;4;-0.234072;-0.01108033;-0.6703601;-0.7040631;10;-13;-2;843;3852;-398;16;0.6052631;-0.6085126;0.3614958;0.3642659;7;2;-3;-461;4108;168;2;0.7261093;-0.6274238;-0.1800554;-0.2160665;-20;-1;7;-1209;3444;275;8;0.4861496;-0.5632847;0.3795014;0.5498615;-72;-120;-12;107;2765;3359;0.4309908;2.758999;0.4740355;0.4363827;3.25035;0.2370405;0.4411126;3.681368;0.02690029;0.445245;4.350725;-0.2737767;0.1882951;4.634199;-0.4422034;-0.1536336;4.534269;-0.3271467;-0.8135292;4.880536;-0.87757;0.05121082;4.843639;-0.4920058;0.708629;4.630989;-0.4422054;0.9969137;4.527171;-0.3271496;1.170467;3.909392;0.3915319;0.3785561;3.476496;0.6800902;0.1187492;2.718112;0.4869078;0.001543235;1.346202;-0.008050663;0;0;0;0.1187492;2.718112;0.4869078;0.001543235;1.346202;-0.008050663;0;0;0
765770.7144;NotLabelled;NONE;16384;-0.5720221;-0.3213296;-0.7544625;-0.01800554;27;6;-43;2572;-468;3451;65536;0.8022667;0.1952908;-0.398892;-0.398892;9;-17;42;3087;-1084;-3080;8192;0.5498615;-0.7187792;-0.2756233;0.3240997;-16;0;42;3476;1775;-411;32768;0.2493075;-0.8927869;0.3725762;0.04432133;-16;14;-35;1979;2515;2364;256;0.434903;-0.2645429;-0.7258609;-0.4626039;-28;-6;-36;-821;3372;2235;128;-0.1939058;0.2022161;0.7517688;0.5969529;15;-3;29;519;3961;-1114;4;-0.2313019;-0.01246537;-0.6689751;-0.7062694;7;-19;-3;797;3958;-288;16;0.6085126;-0.6052631;0.3614958;0.3642659;9;-8;-2;55;4114;134;2;0.7280551;-0.6260388;-0.1786704;-0.2146814;-17;-28;-1;-1431;3664;655;8;0.4709141;-0.5609418;0.3795014;0.5652989;-94;-74;-11;-1431;3575;3739;0.4168826;2.760556;0.4716356;0.4222539;3.250015;0.2307581;0.4269653;3.679356;0.01721221;0.4229128;4.344954;-0.291697;0.1625192;4.623158;-0.4635873;-0.1781671;4.520471;-0.3472806;-0.8434415;4.852013;-0.900289;0.02237476;4.829659;-0.5160245;0.6828535;4.626328;-0.4635893;0.9723806;4.527479;-0.3472838;1.164626;3.930025;0.3837184;0.3859985;3.484357;0.6885241;0.1046422;2.719772;0.4848583;-0.001484267;1.346203;-0.007993326;0;0;0;0.1046422;2.719772;0.4848583;-0.001484267;1.346203;-0.007993326;0;0;0
765790.7285;NotLabelled;NONE;16384;-0.567867;-0.3185596;-0.7585679;-0.02493075;30;3;-41;2394;-392;3619;65536;0.8050107;0.1980609;-0.3961219;-0.3947368;15;-15;41;3209;-1090;-3180;8192;0.5512465;-0.7134752;-0.2783934;0.3310249;-19;-2;40;3460;1747;-339;32768;0.2506925;-0.8938305;0.368421;0.04986149;-14;10;-33;2107;2461;2346;256;0.4418283;-0.2603878;-0.7240602;-0.4612188;-24;-10;-35;-905;3318;2173;128;-0.199446;0.199446;0.7521579;0.5955678;14;-9;28;463;3955;-1062;4;-0.2271468;-0.01385042;-0.6689751;-0.7075909;3;-25;-2;947;4006;-214;16;0.6082336;-0.6038781;0.3628809;0.365651;9;-18;-3;157;4084;100;2;0.7329671;-0.6232687;-0.1731302;-0.2105263;-15;-50;-5;-1209;3834;1029;8;0.4584487;-0.5650969;0.3739612;0.5750158;-105;-24;-5;-1111;3657;3423;0.4010023;2.761068;0.4822304;0.4063526;3.248631;0.2375349;0.4110456;3.676291;0.02064008;0.3989141;4.337938;-0.2964361;0.1351726;4.610796;-0.471756;-0.2042572;4.505383;-0.3542202;-0.8749192;4.820232;-0.9104681;-0.008825809;4.815596;-0.5262061;0.6554291;4.620337;-0.4717582;0.9461187;4.526479;-0.3542238;1.144179;3.938799;0.3831223;0.3717284;3.485705;0.6926586;0.08876309;2.720389;0.4957983;-0.007675719;1.346202;0.002677954;0;0;0;0.08876309;2.720389;0.4957983;-0.007675719;1.346202;0.002677954;0;0;0
765811.7202;NotLabelled;NONE;16384;-0.5623268;-0.3088643;-0.7660144;-0.0401662;31;0;-36;2434;-30;3775;65536;0.810621;0.2077562;-0.3891967;-0.3850415;17;-12;39;2975;-1368;-3060;8192;0.5512465;-0.7097875;-0.2811634;0.3365651;-23;-1;37;3404;1851;-345;32768;0.2506925;-0.8945546;0.365651;0.0567867;-13;5;-32;2045;2417;2266;256;0.4556787;-0.2534626;-0.7205598;-0.4570637;-16;-16;-34;-1039;3238;2181;128;-0.2105263;0.1952908;0.7513235;0.5941828;7;-22;25;529;3881;-1160;4;-0.2229917;-0.0166205;-0.6689751;-0.7088518;-5;-33;-1;1289;3970;20;16;0.6084843;-0.601108;0.365651;0.367036;8;-25;-4;343;4076;-78;2;0.7355028;-0.6232687;-0.1689751;-0.2049861;-2;-47;6;-321;3818;745;8;0.4473684;-0.5706371;0.365651;0.5835531;-108;-21;-1;-271;3753;3053;0.393236;2.762799;0.4799241;0.3985715;3.249003;0.2325406;0.4032513;3.675459;0.0132879;0.3831536;4.334407;-0.3089637;0.1161567;4.602657;-0.4864535;-0.2219947;4.494049;-0.3681442;-0.8962154;4.793635;-0.9285042;-0.03240801;4.799454;-0.5391458;0.6362587;4.618522;-0.4864559;0.9280396;4.529129;-0.368148;1.134655;3.950597;0.3740693;0.3665312;3.491145;0.6849988;0.08099762;2.722196;0.4937353;-0.008767021;1.346191;0.004439522;0;0;0;0.08099762;2.722196;0.4937353;-0.008767021;1.346191;0.004439522;0;0;0
765832.7234;NotLabelled;NONE;16384;-0.5595568;-0.3074792;-0.7683674;-0.04432133;25;0;-36;2444;-50;3941;65536;0.8134876;0.2119114;-0.3850415;-0.3808864;13;-10;38;3071;-1304;-3032;8192;0.5526316;-0.7049426;-0.2839335;0.3421052;-26;0;34;3402;1859;-465;32768;0.2520775;-0.8949244;0.3628809;0.06232687;-13;3;-32;2019;2301;2206;256;0.4626039;-0.2506925;-0.7179888;-0.4556787;-12;-18;-33;-1019;3120;2055;128;-0.2160665;0.1952908;0.7508446;0.5927978;7;-25;24;521;3833;-962;4;-0.2160665;-0.02493075;-0.6703601;-0.7094442;-10;-29;5;1797;3722;-560;16;0.6063604;-0.5955678;0.3725762;0.3725762;4;-30;-4;-199;4094;-260;2;0.7368551;-0.6246537;-0.166205;-0.1980609;-3;-53;24;325;3940;1003;8;0.433518;-0.5761772;0.3601108;0.5919478;-111;-54;-3;-17;3723;2661;0.3819306;2.763498;0.4852501;0.3872482;3.248079;0.2347022;0.3919122;3.673097;0.012674;0.3583919;4.325943;-0.3206886;0.08602703;4.585539;-0.5028288;-0.2498946;4.471932;-0.3828737;-0.9255288;4.736171;-0.9590902;-0.06835811;4.771318;-0.5568223;0.6056862;4.612224;-0.5028307;0.8991606;4.530934;-0.3828768;1.101378;3.961086;0.367227;0.3345433;3.496754;0.6740608;0.06969318;2.722986;0.499348;-0.009606723;1.346151;0.01057687;0;0;0;0.06969318;2.722986;0.499348;-0.009606723;1.346151;0.01057687;0;0;0
765853.7099;NotLabelled;NONE;16384;-0.5567867;-0.3047091;-0.7711386;-0.04986149;22;0;-37;2368;-60;3889;65536;0.8162808;0.2160665;-0.3808864;-0.3767313;10;-9;37;2971;-1258;-2996;8192;0.5567867;-0.6951474;-0.2880886;0.3518005;-28;-1;28;3186;1891;-311;32768;0.2520775;-0.8952031;0.3601108;0.0734072;-16;-2;-32;1923;2109;2274;256;0.468144;-0.2479224;-0.7162353;-0.4542936;-10;-19;-31;-999;3184;2043;128;-0.2229917;0.1952908;0.7488171;0.5927978;7;-27;21;469;3859;-992;4;-0.2132964;-0.03047091;-0.6689751;-0.7113709;-6;-29;7;1763;3522;-612;16;0.6056545;-0.5927978;0.3739612;0.3767313;2;-23;-2;-513;4054;-366;2;0.7409778;-0.6260388;-0.16759;-0.1759003;-14;-45;45;377;3650;1447;8;0.400277;-0.5817174;0.3490305;0.6160851;-111;-60;-6;-633;3573;2065;0.3831442;2.762488;0.4941026;0.3884527;3.246235;0.2419487;0.3931086;3.670514;0.01851189;0.3530467;4.320871;-0.318968;0.07812583;4.576487;-0.5028902;-0.2566781;4.460165;-0.3824127;-0.9240437;4.71722;-0.9713736;-0.0701976;4.765965;-0.5634919;0.5974811;4.608546;-0.5027672;0.8917052;4.531054;-0.3821393;1.089625;3.966783;0.3733089;0.3261139;3.496414;0.6792375;0.07090731;2.722022;0.5083461;-0.0107833;1.34607;0.01748901;0;0;0;0.07090731;2.722022;0.5083461;-0.0107833;1.34607;0.01748901;0;0;0
765874.8789;NotLabelled;NONE;16384;-0.5526316;-0.3033241;-0.7743869;-0.05401662;15;0;-40;2336;-20;3901;65536;0.8190013;0.2202216;-0.3767313;-0.3725762;3;-6;37;2903;-1342;-2972;8192;0.5581717;-0.6911996;-0.2880886;0.3573407;-29;-6;26;2992;1873;-291;32768;0.2520775;-0.8951645;0.3587258;0.08033241;-20;-4;-30;1871;2079;2312;256;0.4750692;-0.2465374;-0.7130234;-0.4529086;-8;-23;-29;-1017;3142;2047;128;-0.2285319;0.1952908;0.7482417;0.5914127;5;-24;20;451;3821;-1056;4;-0.2119114;-0.03462604;-0.6689751;-0.7115947;-7;-20;9;1761;3634;-252;16;0.6057796;-0.5900277;0.3767313;0.3781163;1;-21;-2;-211;4116;-330;2;0.7440562;-0.6246537;-0.1703601;-0.1648199;-18;-31;45;443;3556;1331;8;0.3850415;-0.5844875;0.3421052;0.6269621;-104;-59;-5;-587;3557;1995;0.3709424;2.760053;0.5020789;0.376251;3.243817;0.2499571;0.3809071;3.66811;0.02654842;0.3353079;4.315975;-0.3149996;0.05823037;4.568055;-0.5005558;-0.2755822;4.449609;-0.3793996;-0.9450886;4.692114;-0.9720891;-0.0934677;4.754406;-0.5614098;0.57729;4.60459;-0.5005609;0.8721475;4.530392;-0.3794095;1.091734;3.981621;0.3814505;0.3372514;3.503887;0.6981717;0.05870548;2.719586;0.5163196;-0.01739374;1.345994;0.01801037;0;0;0;0.05870548;2.719586;0.5163196;-0.01739374;1.345994;0.01801037;0;0;0
765894.9081;NotLabelled;NONE;16384;-0.5484765;-0.300554;-0.7781111;-0.05817174;8;0;-41;2258;196;3795;65536;0.8226529;0.2229917;-0.3711911;-0.368421;-3;-3;38;2959;-1440;-2866;8192;0.5609418;-0.6867824;-0.2880886;0.3614958;-29;-11;23;2830;1715;-203;32768;0.2493075;-0.8959795;0.3573407;0.08587258;-24;-8;-29;1693;2029;2332;256;0.4806094;-0.2451524;-0.7106626;-0.4515235;-8;-26;-28;-1063;3042;1967;128;-0.232687;0.1939058;0.7484148;0.5900277;5;-21;20;413;3665;-1054;4;-0.2119114;-0.03878116;-0.6689751;-0.7113803;-11;-12;11;1861;3618;-128;16;0.6045274;-0.5886427;0.3781163;0.3808864;0;-27;-2;-95;4000;-342;2;0.746238;-0.6260388;-0.1745152;-0.1440443;-6;-49;45;977;3788;835;8;0.3711911;-0.5858725;0.3379501;0.6362077;-92;-57;-7;-607;3657;1857;0.3669796;2.757886;0.51381;0.372279;3.240808;0.2600784;0.3769269;3.664355;0.03525791;0.3259086;4.310183;-0.3093674;0.04675196;4.559;-0.4962083;-0.2860795;4.438272;-0.3746058;-0.9598724;4.670787;-0.9664406;-0.1126487;4.746575;-0.5489904;0.5654796;4.59998;-0.4962109;0.8609159;4.528885;-0.3746098;1.089146;3.985526;0.387589;0.3378345;3.503295;0.7050356;0.05474323;2.717468;0.5281966;-0.0182831;1.34589;0.02391393;0;0;0;0.05474323;2.717468;0.5281966;-0.0182831;1.34589;0.02391393;0;0;0
765916.713;NotLabelled;NONE;16384;-0.5373961;-0.2963989;-0.7868389;-0.06509695;-7;4;-43;2348;188;3659;65536;0.828873;0.2271468;-0.3587258;-0.3642659;-20;0;36;2783;-1478;-2584;8192;0.5609418;-0.6851603;-0.2867036;0.365651;-30;-18;20;2884;1641;-221;32768;0.2479224;-0.8951195;0.3587258;0.09279778;-29;-13;-28;1745;2063;2306;256;0.4875346;-0.2451524;-0.7068138;-0.4501385;-6;-29;-27;-1023;2996;2053;128;-0.2382271;0.1939058;0.7466697;0.5900277;4;-17;20;419;3631;-1202;4;-0.2132964;-0.04155125;-0.6689751;-0.7108098;-8;-6;13;1873;3626;-490;16;0.6037273;-0.5858725;0.3808864;0.3836565;-1;-30;-1;-161;4000;-360;2;0.7464783;-0.6274238;-0.1772853;-0.132964;-8;-30;46;1145;3828;527;8;0.3601108;-0.5872576;0.333795;0.6434513;-75;-39;-8;-535;3671;1617;0.3638726;2.754812;0.5204449;0.3691596;3.236603;0.2645712;0.3737966;3.659148;0.03787217;0.3184997;4.302989;-0.3097957;0.03772253;4.549012;-0.4979046;-0.2943241;4.42658;-0.375861;-0.9691146;4.64758;-0.9709622;-0.1235194;4.736044;-0.552705;0.5561577;4.59354;-0.4979066;0.8520246;4.525039;-0.375864;1.085082;3.985053;0.38727;0.3349039;3.503596;0.708546;0.05163696;2.714458;0.5350261;-0.02079222;1.345877;0.02258208;0;0;0;0.05163696;2.714458;0.5350261;-0.02079222;1.345877;0.02258208;0;0;0
765937.8585;NotLabelled;NONE;16384;-0.5318559;-0.2963989;-0.7904791;-0.06648199;-13;5;-42;2378;30;3623;65536;0.8312488;0.2271468;-0.3531856;-0.3642659;-26;0;34;2895;-1428;-2664;8192;0.5623268;-0.6821931;-0.2839335;0.3711911;-32;-22;15;3036;1517;-233;32768;0.2437673;-0.895669;0.3587258;0.09833795;-32;-18;-26;1701;2053;2468;256;0.4986149;-0.2437673;-0.7021819;-0.4459834;-6;-29;-24;-1005;2920;2081;128;-0.2465374;0.1911357;0.7468701;0.5872576;7;-15;16;495;3777;-1356;4;-0.2160665;-0.04570637;-0.6689751;-0.7097173;-6;4;17;1271;4038;-138;16;0.6006531;-0.5844875;0.3836565;0.3878116;-1;-6;1;-135;4120;-4;2;0.7457481;-0.6288089;-0.1814404;-0.1246537;-10;-20;47;931;3950;929;8;0.3531856;-0.5872576;0.3296399;0.6494043;-59;-15;-6;-447;3761;1461;0.3581628;2.75172;0.5317898;0.3634498;3.233516;0.2759261;0.3680866;3.656065;0.04923567;0.308504;4.29841;-0.3004848;0.02611144;4.541916;-0.489448;-0.3051286;4.417611;-0.3671073;-0.9882814;4.617262;-0.9602095;-0.1420487;4.726408;-0.5481734;0.5442309;4.589979;-0.4894502;0.8405221;4.523882;-0.367111;1.068655;3.986988;0.3996838;0.3196777;3.503354;0.7204921;0.04592705;2.711365;0.5463701;-0.02307243;1.345787;0.02551039;0;0;0;0.04592705;2.711365;0.5463701;-0.02307243;1.345787;0.02551039;0;0;0
765958.6995;NotLabelled;NONE;16384;-0.5263157;-0.2950138;-0.7945771;-0.06786703;-15;6;-42;2482;-8;3429;65536;0.8347608;0.2271468;-0.3462604;-0.3628809;-26;0;32;2929;-1392;-2712;8192;0.566482;-0.676798;-0.2756233;0.3808864;-34;-28;8;3264;1485;-535;32768;0.2354571;-0.8951505;0.3614958;0.1121884;-39;-25;-24;1789;1987;2812;256;0.5055401;-0.2437673;-0.6989769;-0.4432133;-5;-29;-23;-997;3056;2247;128;-0.2506925;0.1911357;0.7465747;0.5858725;7;-15;15;557;3863;-1400;4;-0.2188366;-0.04570637;-0.6703601;-0.7075584;-13;0;18;1127;4106;136;16;0.600217;-0.5831025;0.3850415;0.3891967;0;-8;1;171;4158;70;2;0.7472335;-0.6274238;-0.1855956;-0.1163435;-16;-22;46;539;3968;1211;8;0.3490305;-0.5886427;0.3268698;0.6517926;-45;-9;-1;-217;3475;1357;0.3522534;2.74655;0.5407066;0.3575153;3.226051;0.2805677;0.3621299;3.646568;0.05012792;0.2964498;4.284545;-0.3064308;0.01182039;4.523174;-0.4982379;-0.3182816;4.39683;-0.3749137;-0.9972013;4.590971;-0.9746689;-0.1560904;4.704965;-0.5535576;0.5294282;4.576465;-0.4982405;0.8262379;4.514663;-0.3749177;1.049413;3.980237;0.3950541;0.2965944;3.49963;0.7113929;0.04001918;2.706327;0.5556757;-0.02385333;1.345852;0.020992;0;0;0;0.04001918;2.706327;0.5556757;-0.02385333;1.345852;0.020992;0;0;0
765978.7095;NotLabelled;NONE;16384;-0.5193906;-0.2950138;-0.7990022;-0.06925207;-13;7;-42;2506;30;3249;65536;0.8376365;0.2271468;-0.3407202;-0.3614958;-24;-1;32;2961;-1406;-2622;8192;0.567867;-0.674171;-0.2714681;0.3864266;-34;-30;5;3342;1537;-601;32768;0.2313019;-0.8947787;0.3628809;0.1191136;-40;-25;-22;1957;2117;2896;256;0.5096953;-0.2437673;-0.6977091;-0.4404432;-5;-29;-22;-971;3176;2351;128;-0.2534626;0.1897507;0.7459925;0.5858725;7;-16;14;597;3913;-1376;4;-0.2188366;-0.04847645;-0.6717451;-0.7060588;-19;1;19;1215;4074;-144;16;0.5993263;-0.5831025;0.3864266;0.3891967;0;-15;2;111;4104;110;2;0.748858;-0.6260388;-0.1925208;-0.101108;-11;-19;42;373;3552;1133;8;0.3407202;-0.5927978;0.3199446;0.6558475;-31;2;4;-21;3273;1363;0.3502627;2.744728;0.5462009;0.3555149;3.223355;0.2844556;0.360121;3.643097;0.05260706;0.2915033;4.278612;-0.3077743;0.005815953;4.514681;-0.5011694;-0.3237338;4.387433;-0.3772989;-1.001713;4.574636;-0.9803155;-0.1618742;4.69583;-0.5586759;0.5231527;4.570541;-0.5011718;0.8201864;4.510948;-0.3773026;1.053616;3.976153;0.389366;0.3046447;3.499879;0.7210187;0.03802906;2.704555;0.5613164;-0.02514986;1.34581;0.02217192;0;0;0;0.03802906;2.704555;0.5613164;-0.02514986;1.34581;0.02217192;0;0;0
765998.7163;NotLabelled;NONE;16384;-0.5138504;-0.2936288;-0.8029634;-0.07063711;-12;5;-41;2496;72;3203;65536;0.8398687;0.2271468;-0.33518;-0.3614958;-23;0;32;2961;-1504;-2602;8192;0.567867;-0.6720791;-0.2686981;0.3919668;-32;-32;5;3530;1519;-713;32768;0.2257618;-0.8952448;0.3628809;0.1260388;-39;-24;-21;1965;2173;2954;256;0.5152354;-0.2451524;-0.6940178;-0.4390582;-5;-30;-21;-995;3200;2327;128;-0.2576177;0.1897507;0.7456555;0.5844875;6;-18;13;607;3887;-1334;4;-0.2216066;-0.05124654;-0.6731302;-0.7036762;-22;8;21;1435;3830;-324;16;0.5975279;-0.5831025;0.3878116;0.3905817;0;-16;1;43;4178;-128;2;0.7490437;-0.6260388;-0.1952908;-0.09418282;-7;-15;39;557;3340;1009;8;0.3393352;-0.5955678;0.3171745;0.6554013;-23;3;4;119;3191;1191;0.3564404;2.742911;0.5503626;0.3616894;3.221248;0.2880896;0.3662928;3.640735;0.05577844;0.2969574;4.274075;-0.3082753;0.0110411;4.508608;-0.5031945;-0.3183969;4.38158;-0.3788018;-1.001006;4.562389;-0.9785368;-0.1610344;4.689527;-0.5589162;0.5282943;4.565238;-0.5031968;0.8253385;4.506796;-0.3788051;1.062618;3.972924;0.3873242;0.3151344;3.498805;0.7253587;0.04420684;2.702755;0.5655259;-0.02219291;1.345862;0.02211741;0;0;0;0.04420684;2.702755;0.5655259;-0.02219291;1.345862;0.02211741;0;0;0
766020.7976;NotLabelled;NONE;16384;-0.5027701;-0.2936288;-0.8097011;-0.0734072;-11;9;-35;2670;124;3303;65536;0.8459169;0.2271468;-0.3227147;-0.3587258;-22;-4;28;2973;-1718;-2472;8192;0.5692521;-0.6692961;-0.2645429;0.3975069;-30;-34;6;3730;1563;-797;32768;0.2216066;-0.8947186;0.3642659;0.132964;-36;-20;-19;1839;2141;2964;256;0.5207756;-0.2451524;-0.6916255;-0.4362881;-6;-31;-19;-1051;3076;2371;128;-0.2617728;0.1897507;0.7452927;0.5831025;2;-22;11;659;3735;-1440;4;-0.2243767;-0.05401662;-0.6745152;-0.7012607;-17;8;25;1363;3742;-424;16;0.5970702;-0.5817174;0.3891967;0.3919668;1;-6;3;-231;4066;-130;2;0.7486249;-0.6260388;-0.199446;-0.08864266;-4;-8;36;773;3330;677;8;0.3365651;-0.5969529;0.3157895;0.6562379;-14;-2;5;-13;3253;1201;0.3608098;2.738913;0.5568157;0.3660492;3.216366;0.2929369;0.370644;3.635069;0.05921739;0.2992468;4.267642;-0.3057706;0.01257835;4.500933;-0.5010769;-0.3164526;4.372983;-0.3765517;-0.9992832;4.546875;-0.9780763;-0.1610215;4.678768;-0.5565114;0.5296389;4.559294;-0.5010796;0.8268567;4.502029;-0.3765555;1.062667;3.971264;0.3921816;0.3146917;3.501578;0.7352773;0.04857689;2.698808;0.5721256;-0.02042491;1.345937;0.01909969;0;0;0;0.04857689;2.698808;0.5721256;-0.02042491;1.345937;0.01909969;0;0;0
766041.7267;NotLabelled;NONE;16384;-0.4972299;-0.2922437;-0.8134876;-0.07479224;-11;11;-31;2598;162;3317;65536;0.8480753;0.2271468;-0.3185596;-0.3573407;-21;-5;26;2809;-1692;-2538;8192;0.5692521;-0.6676102;-0.2603878;0.4030471;-29;-32;6;3864;1393;-815;32768;0.2174515;-0.8948976;0.3642659;0.1385041;-32;-17;-19;1721;2071;2870;256;0.5304709;-0.2451524;-0.6877188;-0.4307479;-6;-29;-17;-1089;2806;2405;128;-0.2700831;0.1911357;0.7441348;0.5803324;0;-24;7;661;3531;-1464;4;-0.2271468;-0.05540166;-0.6745152;-0.7002602;-12;4;25;1273;3500;-414;16;0.5961651;-0.5817174;0.3905817;0.3919668;1;-3;4;-339;4056;-236;2;0.7483622;-0.6260388;-0.2022161;-0.08448754;0;-2;34;701;3338;587;8;0.33518;-0.5983379;0.3144044;0.6563504;-9;12;9;-249;3079;1091;0.3627394;2.734674;0.5675316;0.367969;3.211238;0.3020503;0.372555;3.629154;0.06692538;0.2993984;4.259367;-0.301778;0.01212323;4.490608;-0.4986247;-0.3165842;4.362338;-0.3735738;-1.008016;4.525164;-0.9683338;-0.1662211;4.669893;-0.5581726;0.5289961;4.55061;-0.4986268;0.8263101;4.495013;-0.3735771;1.063968;3.965199;0.3952471;0.3164729;3.497672;0.7423155;0.05050692;2.694621;0.5829876;-0.02166453;1.345899;0.02031456;0;0;0;0.05050692;2.694621;0.5829876;-0.02166453;1.345899;0.02031456;0;0;0
766063.3787;NotLabelled;NONE;16384;-0.4930748;-0.2908587;-0.8165076;-0.07479224;-11;12;-28;2488;164;3293;65536;0.8507166;0.2271468;-0.3130194;-0.3559557;-21;-3;22;2747;-1592;-2748;8192;0.5692521;-0.6624163;-0.2562327;0.4141274;-27;-24;8;3918;1249;-919;32768;0.2146814;-0.8944678;0.3642659;0.1454294;-27;-15;-18;1601;2051;2962;256;0.536011;-0.2451524;-0.6851478;-0.4279778;-4;-28;-16;-931;2764;2465;128;-0.2728532;0.1911357;0.7442031;0.5789474;0;-25;5;665;3527;-1502;4;-0.2313019;-0.06232687;-0.6759003;-0.6969746;-19;0;25;1025;3812;108;16;0.5961651;-0.5817174;0.3919668;0.3905817;5;-3;6;103;4076;206;2;0.7467545;-0.6274238;-0.2049861;-0.08171745;6;-4;31;415;3256;665;8;0.3365651;-0.599723;0.3130194;0.6550383;-7;26;12;-111;3027;985;0.356347;2.731297;0.5761015;0.3615602;3.206363;0.3079483;0.3661317;3.622952;0.07048056;0.2906362;4.24856;-0.305521;0.002590805;4.476224;-0.5053878;-0.3257058;4.347908;-0.3793119;-1.012351;4.503839;-0.9814186;-0.176708;4.653157;-0.5604656;0.5191866;4.538567;-0.5053905;0.8165758;4.485756;-0.3793163;1.046391;3.957404;0.3928909;0.2949456;3.493024;0.7356268;0.04411551;2.691331;0.5918012;-0.01893463;1.345943;0.02012324;0;0;0;0.04411551;2.691331;0.5918012;-0.01893463;1.345943;0.02012324;0;0;0
766082.8783;NotLabelled;NONE;16384;-0.4889196;-0.2894737;-0.8194929;-0.07479224;-10;10;-25;2410;238;3335;65536;0.8531789;0.2257618;-0.3088643;-0.3545706;-18;-3;19;2665;-1532;-2906;8192;0.5706371;-0.6566616;-0.2520775;0.4238227;-24;-16;7;3804;1163;-855;32768;0.2105263;-0.8943895;0.3628809;0.1551246;-21;-11;-17;1529;1931;2878;256;0.5401662;-0.2465374;-0.6831092;-0.4252077;-3;-28;-15;-1033;2796;2487;128;-0.2770083;0.1939058;0.7430267;0.5775623;0;-27;2;667;3549;-1470;4;-0.2313019;-0.06509695;-0.6786703;-0.6940233;-27;-6;25;1245;3900;234;16;0.5966026;-0.5803324;0.3933518;0.3905817;6;-15;6;395;4112;170;2;0.7415019;-0.634349;-0.2063712;-0.07202215;26;-32;19;103;3222;821;8;0.3379501;-0.6052631;0.3102493;0.6505318;-1;9;16;399;2955;1093;0.3675941;2.722223;0.5989531;0.3727974;3.19639;0.3292136;0.3773601;3.612184;0.09035474;0.300204;4.235374;-0.2893065;0.01160069;4.46099;-0.4906856;-0.3163887;4.332389;-0.3640995;-1.001448;4.484386;-0.9690112;-0.1672253;4.639415;-0.5473073;0.5280015;4.524927;-0.4906883;0.8254619;4.473763;-0.364104;1.06381;3.953373;0.410918;0.3137195;3.489085;0.756734;0.0553633;2.68231;0.6147979;-0.01505528;1.345943;0.02316878;0;0;0;0.0553633;2.68231;0.6147979;-0.01505528;1.345943;0.02316878;0;0;0
766104.7155;NotLabelled;NONE;16384;-0.4847645;-0.2880886;-0.8223171;-0.07617728;-9;7;-24;2358;216;3375;65536;0.8547502;0.2257618;-0.3060942;-0.3531856;-15;0;18;2635;-1538;-3000;8192;0.5706371;-0.6535856;-0.2506925;0.4293629;-22;-16;7;3668;1157;-793;32768;0.2077562;-0.89462;0.3614958;0.1606648;-18;-11;-16;1663;1937;2832;256;0.5443213;-0.2465374;-0.6815277;-0.4224377;-1;-27;-14;-1041;2838;2421;128;-0.2797784;0.1952908;0.7427014;0.5761772;0;-30;0;613;3521;-1520;4;-0.234072;-0.06925207;-0.6800554;-0.6913314;-27;0;29;1623;3786;118;16;0.593855;-0.5803324;0.3961219;0.3919668;6;-14;5;185;4232;32;2;0.7390894;-0.6385041;-0.2036011;-0.06786703;26;-35;16;297;3202;937;8;0.3365651;-0.6066482;0.3116343;0.6492965;10;-14;16;289;3001;1045;0.3743147;2.720036;0.6069248;0.3795147;3.193904;0.3366586;0.3840746;3.60943;0.09733802;0.3073087;4.231157;-0.2847954;0.01887764;4.456079;-0.4871952;-0.3092153;4.328083;-0.360266;-0.9934595;4.476171;-0.9670675;-0.1600909;4.633633;-0.5445766;0.5352997;4.519844;-0.4871981;0.832682;4.469078;-0.3602705;1.081235;3.954649;0.4155257;0.3353874;3.491151;0.7714303;0.06208405;2.68014;0.6228176;-0.01541758;1.34586;0.02737686;0;0;0;0.06208405;2.68014;0.6228176;-0.01541758;1.34586;0.02737686;0;0;0
766124.717;NotLabelled;NONE;16384;-0.4806094;-0.2867036;-0.8252349;-0.07617728;-9;3;-23;2290;332;3299;65536;0.8567969;0.2257618;-0.301939;-0.3518005;-13;2;17;2685;-1626;-2930;8192;0.5720221;-0.6510742;-0.2493075;0.432133;-21;-15;6;3644;1141;-747;32768;0.2063712;-0.8941846;0.3614958;0.1648199;-14;-12;-13;1745;2109;2674;256;0.5484765;-0.2479224;-0.6785445;-0.4210526;0;-26;-12;-1003;2766;2405;128;-0.2825485;0.1980609;0.7430629;0.5734072;-2;-34;-1;639;3447;-1358;4;-0.2368421;-0.0734072;-0.6814404;-0.68859;-24;7;34;1681;3578;6;16;0.5933526;-0.5789474;0.398892;0.3919668;4;-10;6;31;4096;-360;2;0.7374394;-0.6412742;-0.2022161;-0.06371191;19;-21;14;703;3072;537;8;0.3365651;-0.6066482;0.3157895;0.6472858;24;-12;13;21;2691;1079;0.3846612;2.71418;0.6167742;0.3898547;3.187452;0.345467;0.3944088;3.602452;0.1052334;0.317214;4.221925;-0.280458;0.02869214;4.445329;-0.4844023;-0.2993603;4.317617;-0.3570823;-0.9775643;4.461068;-0.9717288;-0.1464584;4.621867;-0.5460488;0.5450304;4.50977;-0.4842508;0.8423517;4.460106;-0.3567457;1.085317;3.948905;0.4229438;0.3405362;3.486623;0.7826457;0.07243089;2.674319;0.6327622;-0.01023014;1.345957;0.02491283;0;0;0;0.07243089;2.674319;0.6327622;-0.01023014;1.345957;0.02491283;0;0;0
766145.714;NotLabelled;NONE;16384;-0.4736842;-0.2867036;-0.8289703;-0.07894737;-12;1;-17;2234;590;3529;65536;0.859881;0.2271468;-0.2936288;-0.3504155;-14;7;14;2401;-1866;-2950;8192;0.5720221;-0.648828;-0.2479224;0.4362881;-22;-12;3;3618;1159;-713;32768;0.2049861;-0.893427;0.3628809;0.16759;-10;-15;-12;1625;1929;2590;256;0.5526316;-0.2479224;-0.6768845;-0.4182825;3;-28;-10;-1073;2728;2427;128;-0.2867036;0.200831;0.7417942;0.5720221;-4;-37;-5;679;3391;-1570;4;-0.2409972;-0.07894737;-0.6828254;-0.6851548;-24;-7;37;1767;3398;60;16;0.5933331;-0.5789474;0.400277;0.3905817;8;6;7;-291;4052;-196;2;0.7352563;-0.6440443;-0.2022161;-0.06094183;18;-10;13;1041;2856;393;8;0.3393352;-0.6066482;0.3199446;0.6437896;32;14;19;-523;2831;1113;0.3918976;2.70793;0.6337303;0.3970781;3.180026;0.3603805;0.4016207;3.593984;0.1183558;0.3233841;4.212845;-0.2681048;0.03447779;4.435533;-0.4722897;-0.2933528;4.307458;-0.3447623;-0.9774414;4.445708;-0.9540555;-0.1480136;4.610956;-0.5268096;0.5507126;4.500798;-0.4722925;0.8481303;4.451768;-0.344767;1.098391;3.943479;0.4345193;0.353431;3.48087;0.793427;0.07966811;2.668139;0.6499053;-0.007465558;1.345883;0.02949762;0;0;0;0.07966811;2.668139;0.6499053;-0.007465558;1.345883;0.02949762;0;0;0
766165.8356;NotLabelled;NONE;16384;-0.4709141;-0.2853186;-0.8310238;-0.07894737;-15;0;-14;2224;548;3595;65536;0.8612887;0.2271468;-0.2894737;-0.3504155;-15;6;9;2355;-1664;-3016;8192;0.5734072;-0.6462596;-0.2465374;0.4390582;-24;-9;0;3518;1161;-637;32768;0.2036011;-0.8918238;0.365651;0.1717452;-10;-18;-11;1477;1865;2590;256;0.5595568;-0.2520775;-0.6713438;-0.4155124;7;-26;-8;-1041;2424;2621;128;-0.2922437;0.2091413;0.7405272;0.567867;0;-39;-6;557;3443;-1682;4;-0.2451524;-0.09141274;-0.6862584;-0.6786703;-27;-16;38;1721;3670;-76;16;0.5942135;-0.5789474;0.4016621;0.3878116;9;-5;7;365;4042;196;2;0.7329344;-0.6468144;-0.2022161;-0.05955679;20;0;9;1091;3118;615;8;0.3434903;-0.6094183;0.3199446;0.6389517;19;37;25;-259;2639;2231;0.4027065;2.698979;0.6545739;0.4078841;3.170801;0.3807512;0.4124241;3.584517;0.1383119;0.333678;4.201112;-0.251651;0.04463515;4.422289;-0.457279;-0.2831236;4.294511;-0.3292707;-0.9704599;4.424299;-0.9367676;-0.140331;4.599435;-0.5148545;0.5607865;4.48821;-0.4572817;0.8581755;4.440271;-0.329275;1.107722;3.935297;0.4523917;0.3613179;3.472991;0.8086812;0.09047721;2.659204;0.670792;-0.003707919;1.345821;0.03281621;0;0;0;0.09047721;2.659204;0.670792;-0.003707919;1.345821;0.03281621;0;0;0
766186.7107;NotLabelled;NONE;16384;-0.468144;-0.2853186;-0.8325874;-0.07894737;-15;-1;-14;2270;248;3743;65536;0.861753;0.2271468;-0.2880886;-0.3504155;-15;4;4;2615;-1458;-3078;8192;0.5775623;-0.6417975;-0.2409972;0.4432133;-26;-14;-7;3254;1307;-733;32768;0.199446;-0.8902607;0.368421;0.1786704;-16;-25;-13;1533;1727;2946;256;0.5623268;-0.2534626;-0.6693607;-0.4141274;11;-26;-8;-965;2640;2629;128;-0.2963989;0.2146814;0.7394086;0.5650969;2;-42;-8;207;3627;-1576;4;-0.2465374;-0.09695291;-0.6877341;-0.6759003;-30;-10;43;1557;3682;-198;16;0.5936822;-0.5775623;0.4044321;0.3878116;6;-11;7;105;4262;-104;2;0.7304804;-0.6495845;-0.2022161;-0.05955679;26;-4;-1;571;3548;577;8;0.3421052;-0.6149584;0.3185596;0.6350669;-17;9;35;1337;2171;3027;0.4215517;2.682727;0.6906573;0.4267211;3.153807;0.4155603;0.4312539;3.566866;0.1720036;0.352621;4.183263;-0.2182958;0.06362329;4.40437;-0.4240628;-0.2641622;4.276707;-0.2960087;-0.9432156;4.403513;-0.9133699;-0.1189194;4.582014;-0.4815481;0.579784;4.470218;-0.4240649;0.8771573;4.422307;-0.2960114;1.118588;3.918586;0.4890051;0.3682061;3.455484;0.8357781;0.1093228;2.642996;0.7069922;0.0003804509;1.345655;0.03923754;0;0;0;0.1093228;2.642996;0.7069922;0.0003804509;1.345655;0.03923754;0;0;0
766206.8978;NotLabelled;NONE;16384;-0.4653739;-0.2867036;-0.8336639;-0.07894737;-16;-1;-14;2404;-20;3827;65536;0.8630376;0.2257618;-0.2853186;-0.3504155;-16;6;2;3023;-1352;-3004;8192;0.5789474;-0.6406862;-0.2354571;0.4459834;-28;-20;-11;3286;1457;-783;32768;0.1966759;-0.8888816;0.3711911;0.1828255;-19;-31;-9;1955;1797;2788;256;0.5650969;-0.2562327;-0.6668238;-0.4127424;12;-28;-6;-859;2966;2455;128;-0.2977839;0.2188366;0.7397458;0.5623268;1;-39;-9;119;3783;-1432;4;-0.2493075;-0.1038781;-0.6884409;-0.6731302;-25;-10;46;1463;3458;76;16;0.5940828;-0.5761772;0.4058172;0.3878116;7;-6;8;-375;4306;-142;2;0.7256468;-0.6578947;-0.1925208;-0.05955679;37;-36;-18;371;3764;491;8;0.3310249;-0.6218836;0.3227147;0.6320906;-1;-74;21;-329;3603;1063;0.4309863;2.675539;0.7076471;0.4361508;3.146174;0.4317894;0.4406792;3.55884;0.1875656;0.3621668;4.174834;-0.2033924;0.07322103;4.395757;-0.4094304;-0.2545957;4.268264;-0.2812857;-0.932621;4.393378;-0.9001207;-0.1107837;4.572998;-0.4640965;0.5893891;4.461547;-0.4094329;0.8867399;4.413738;-0.2812896;1.136976;3.907034;0.4990364;0.3883897;3.445809;0.8521342;0.1187577;2.635835;0.7240517;0.002996046;1.345505;0.04397281;0;0;0;0.1187577;2.635835;0.7240517;0.002996046;1.345505;0.04397281;0;0;0
766227.707;NotLabelled;NONE;16384;-0.4626039;-0.2867036;-0.8353339;-0.07756232;-19;0;-13;2424;-10;3747;65536;0.8632921;0.2243767;-0.2839335;-0.3518005;-19;9;3;3107;-1366;-2936;8192;0.5817174;-0.6387219;-0.2313019;0.4473684;-29;-22;-13;3402;1591;-919;32768;0.1925208;-0.8877652;0.3739612;0.1869806;-19;-36;-6;2321;1799;2784;256;0.567867;-0.2590028;-0.6642512;-0.4113573;13;-27;-5;-681;3178;2449;128;-0.300554;0.2243767;0.739066;0.5595568;-2;-43;-12;33;3889;-1410;4;-0.2534626;-0.1108033;-0.6885468;-0.6703601;-21;-10;44;1715;3268;-20;16;0.5931343;-0.5761772;0.4072022;0.3878116;6;-11;11;-369;3984;-140;2;0.7221555;-0.6634349;-0.1869806;-0.05817174;38;-28;-7;1091;3780;215;8;0.3185596;-0.6163435;0.3365651;0.6366824;3;-112;16;-541;2821;2263;0.4349535;2.665327;0.7297311;0.44011;3.13521;0.4525939;0.4446313;3.547209;0.2072483;0.3671245;4.163635;-0.1832317;0.07853353;4.385203;-0.389073;-0.2494862;4.258168;-0.2609939;-0.9256483;4.382855;-0.8819505;-0.1049907;4.562602;-0.4437626;0.5948121;4.450119;-0.3890749;0.8920938;4.40171;-0.2609969;1.141987;3.891062;0.5168636;0.3925644;3.431164;0.8699148;0.1227255;2.625668;0.7462528;0.002283794;1.345359;0.04828263;0;0;0;0.1227255;2.625668;0.7462528;0.002283794;1.345359;0.04828263;0;0;0
766248.732;NotLabelled;NONE;16384;-0.4570637;-0.2894737;-0.8378001;-0.0734072;-23;-1;-9;2418;-472;3773;65536;0.8640151;0.2202216;-0.2797784;-0.3559557;-21;8;-1;3123;-844;-3082;8192;0.5831025;-0.6374939;-0.2257618;0.4501385;-29;-23;-16;3578;1901;-1113;32768;0.1883656;-0.8863076;0.3781163;0.1897507;-18;-36;-3;2419;1721;2838;256;0.5692521;-0.2617728;-0.6628346;-0.4099723;15;-22;-4;-643;3298;2505;128;-0.301939;0.2299169;0.7388908;0.5567867;-5;-47;-14;107;3983;-1264;4;-0.2562327;-0.1177285;-0.6877188;-0.6689751;-19;-13;41;2163;3326;170;16;0.5934739;-0.5747922;0.4099723;0.3864266;11;-5;15;-685;4052;150;2;0.7191421;-0.66759;-0.1842105;-0.0567867;38;-23;-7;1145;4030;613;8;0.3130194;-0.6149584;0.3421052;0.6378158;3;-28;18;-1233;4203;3697;0.4404517;2.653507;0.7508737;0.445604;3.123018;0.4731065;0.4501216;3.534688;0.2272087;0.3735998;4.151555;-0.1627676;0.08535674;4.373768;-0.3684015;-0.2428607;4.247175;-0.2403915;-0.9172135;4.372289;-0.8632267;-0.09869402;4.550054;-0.4202571;0.6017424;4.437828;-0.3684033;0.8989561;4.388821;-0.2403942;1.148931;3.87399;0.534677;0.3979359;3.417593;0.8889302;0.128224;2.61387;0.7674533;0.005042733;1.345334;0.04877336;0;0;0;0.128224;2.61387;0.7674533;0.005042733;1.345334;0.04877336;0;0;0
766270.7098;NotLabelled;NONE;16384;-0.4542936;-0.2908587;-0.8390643;-0.07063711;-22;-4;-11;2572;-848;3783;65536;0.8645922;0.2174515;-0.2783934;-0.3573407;-20;6;-5;3495;-540;-3034;8192;0.5844875;-0.6371839;-0.2202216;0.4515235;-26;-22;-20;3828;2249;-1349;32768;0.1842105;-0.8847998;0.3822715;0.1925208;-17;-34;-4;2535;1689;2972;256;0.5720221;-0.267313;-0.6582227;-0.4099723;18;-19;-2;-323;3580;2225;128;-0.3060942;0.2423823;0.7352706;0.5540166;-7;-45;-12;-563;4487;-1004;4;-0.2603878;-0.1274238;-0.6897938;-0.6634349;-25;-5;31;2195;3806;596;16;0.5923851;-0.5747922;0.4141274;0.3836565;16;-14;18;477;4354;440;2;0.7151269;-0.6731302;-0.1800554;-0.05540166;34;-28;-7;1227;5330;1133;8;0.3116343;-0.6149584;0.3462604;0.63625;22;-20;14;-195;4301;3205;0.4443458;2.642662;0.7767775;0.4494945;3.11184;0.4984493;0.454009;3.523216;0.2520595;0.3795394;4.140721;-0.1373037;0.09202948;4.364114;-0.3426847;-0.2366016;4.238513;-0.2147588;-0.9155417;4.369127;-0.8314509;-0.09370208;4.540963;-0.3923056;0.6086301;4.426417;-0.3426869;0.9056905;4.376275;-0.2147621;1.157777;3.857551;0.557024;0.4047706;3.405207;0.9122059;0.1321182;2.603044;0.7934085;0.008308838;1.345011;0.05660355;0;0;0;0.1321182;2.603044;0.7934085;0.008308838;1.345011;0.05660355;0;0;0
766291.7036;NotLabelled;NONE;16384;-0.4515235;-0.2936288;-0.8397099;-0.06925207;-22;-4;-12;2772;-1220;3789;65536;0.8651556;0.2146814;-0.2770083;-0.3587258;-20;7;-6;3921;-380;-2916;8192;0.5872576;-0.637387;-0.2091413;0.4529086;-19;-13;-21;3950;2867;-1387;32768;0.1786704;-0.8807634;0.3905817;0.199446;-13;-34;-5;3395;1963;2998;256;0.5720221;-0.2728532;-0.6559455;-0.4099723;19;-19;0;-101;4068;2063;128;-0.3074792;0.2479224;0.7338865;0.5526316;-9;-37;-9;-827;4793;-802;4;-0.2631579;-0.132964;-0.6903554;-0.6606648;-23;-9;29;2245;3722;328;16;0.5894585;-0.5747922;0.4182825;0.3836565;17;-28;17;459;4206;436;2;0.712442;-0.6772853;-0.1759003;-0.05263158;27;-40;1;1485;6238;1057;8;0.3130194;-0.6149584;0.3504155;0.6332883;32;-3;15;43;4579;3365;0.4658113;2.626367;0.8094239;0.4709775;3.097152;0.5338217;0.4755074;3.50995;0.2898221;0.4023353;4.130395;-0.0950875;0.1152417;4.355993;-0.2986327;-0.2136112;4.23035;-0.1713194;-0.8889969;4.364779;-0.7910863;-0.06974651;4.53252;-0.3455665;0.6320039;4.41694;-0.2986354;0.9290385;4.365111;-0.1713237;1.17582;3.840819;0.5984112;0.4186339;3.392479;0.9497627;0.1535826;2.586654;0.8258051;0.01860201;1.34456;0.06433098;0;0;0;0.1535826;2.586654;0.8258051;0.01860201;1.34456;0.06433098;0;0;0
766311.9163;NotLabelled;NONE;16384;-0.4487534;-0.2950138;-0.8409324;-0.06648199;-24;-5;-11;2832;-1408;3657;65536;0.8646854;0.2119114;-0.2770083;-0.3614958;-22;10;-5;4241;-252;-2758;8192;0.5886427;-0.6374593;-0.2049861;0.4529086;-15;-11;-19;3824;3063;-1443;32768;0.1759003;-0.8788348;0.3947368;0.2022161;-9;-29;-3;3865;2009;2906;256;0.5720221;-0.2756233;-0.6547864;-0.4099723;19;-13;0;89;4480;1887;128;-0.3074792;0.2534626;0.7319916;0.5526316;-12;-28;-7;-985;4993;-718;4;-0.2631579;-0.1371191;-0.6921855;-0.6578947;-21;-9;22;2487;3530;628;16;0.587194;-0.5720221;0.4252077;0.3836565;19;-45;17;553;4164;176;2;0.7078674;-0.6828254;-0.1745152;-0.04709141;16;5;14;1185;4778;105;8;0.3199446;-0.6135734;0.3601108;0.6256863;46;12;15;521;3815;2093;0.4798675;2.616364;0.8260078;0.4850409;3.087814;0.5515453;0.4895772;3.5012;0.3085449;0.4198673;4.124927;-0.07167625;0.1339845;4.353776;-0.2732867;-0.1955219;4.229193;-0.1466229;-0.8708974;4.366519;-0.7657664;-0.05146544;4.530163;-0.3190576;0.6511086;4.411574;-0.2732888;0.9479276;4.356994;-0.1466267;1.196305;3.819988;0.6137737;0.4404648;3.374144;0.9711501;0.1676383;2.576611;0.8422847;0.02798433;1.344323;0.06586883;0;0;0;0.1676383;2.576611;0.8422847;0.02798433;1.344323;0.06586883;0;0;0
766333.7104;NotLabelled;NONE;16384;-0.4459834;-0.2977839;-0.8416439;-0.06371191;-25;-5;-6;2892;-1696;3509;65536;0.8646399;0.2091413;-0.2756233;-0.3642659;-21;14;-3;4393;50;-2680;8192;0.5900277;-0.6384832;-0.200831;0.4515235;-11;-6;-16;3798;3243;-1491;32768;0.1745152;-0.8775416;0.3975069;0.2036011;-4;-23;0;4045;2035;2674;256;0.5720221;-0.2783934;-0.6527426;-0.4113573;17;-7;1;309;4674;1765;128;-0.3074792;0.2562327;0.7310265;0.5526316;-14;-15;-6;-1019;5003;-442;4;-0.2645429;-0.1412742;-0.6934481;-0.6551247;-21;-1;13;2811;3392;714;16;0.5852616;-0.567867;0.432133;0.3850415;21;-56;23;15;4196;-116;2;0.7061852;-0.6842105;-0.1759003;-0.04709141;17;11;15;607;3948;-381;8;0.3227147;-0.6135734;0.365651;0.6210333;43;-4;13;703;3557;1475;0.4985218;2.610453;0.8425202;0.5037124;3.083462;0.5707526;0.5082639;3.498228;0.3301153;0.4402793;4.123583;-0.0477367;0.1550055;4.354047;-0.2483685;-0.1748233;4.229982;-0.1220344;-0.8523044;4.371113;-0.7380137;-0.03230084;4.528571;-0.2901324;0.6723013;4.410286;-0.2483706;0.9690062;4.354337;-0.122038;1.216968;3.811918;0.6346469;0.4611234;3.367699;0.9940289;0.1862917;2.570608;0.8585503;0.0370045;1.343593;0.07560417;0;0;0;0.1862917;2.570608;0.8585503;0.0370045;1.343593;0.07560417;0;0;0
766354.7163;NotLabelled;NONE;16384;-0.4432133;-0.3033241;-0.8416245;-0.0567867;-25;-4;4;2650;-1756;2845;65536;0.8634076;0.2049861;-0.2714681;-0.3725762;-17;25;0;3875;184;-2190;8192;0.5914127;-0.6380669;-0.1980609;0.4515235;-8;0;-15;3624;3281;-1589;32768;0.1731302;-0.8762334;0.400277;0.2049861;2;-14;1;3885;1745;2450;256;0.5720221;-0.2797784;-0.6512745;-0.4127424;15;-2;1;477;4520;1505;128;-0.3060942;0.2576177;0.730072;0.5540166;-14;-9;-4;-863;4697;-426;4;-0.265928;-0.1440443;-0.6962559;-0.6509695;-20;9;4;3183;3070;584;16;0.5832078;-0.5637119;0.4390582;0.3864266;20;-30;30;-519;4302;-582;2;0.7027922;-0.6869806;-0.1786704;-0.04709141;24;3;9;287;3504;-507;8;0.3254848;-0.6108033;0.3725762;0.6181958;34;-13;12;231;3701;1061;0.5114473;2.602778;0.8620946;0.5166467;3.076571;0.5916973;0.521206;3.492032;0.3522616;0.4535361;4.11981;-0.02160859;0.1683369;4.351788;-0.2205938;-0.1615192;4.227232;-0.09481646;-0.8416924;4.373371;-0.7066471;-0.02011149;4.525775;-0.2599096;0.6856837;4.407556;-0.2205961;0.9824227;4.350545;-0.09482026;1.228281;3.801093;0.657464;0.4718147;3.357503;1.016315;0.1992167;2.562887;0.8779995;0.0420229;1.342834;0.0857748;0;0;0;0.1992167;2.562887;0.8779995;0.0420229;1.342834;0.0857748;0;0;0
766374.9498;NotLabelled;NONE;16384;-0.4432133;-0.3074792;-0.8403859;-0.05263158;-25;-4;9;2536;-1944;2605;65536;0.8613244;0.2036011;-0.2714681;-0.3781163;-12;24;-3;3613;488;-1928;8192;0.5927978;-0.6381887;-0.1966759;0.4501385;-3;7;-10;3456;3261;-1689;32768;0.1731302;-0.8755993;0.4016621;0.2049861;8;-5;0;3489;1635;2378;256;0.5706371;-0.2811634;-0.6510137;-0.4141274;13;2;1;381;4264;1411;128;-0.3047091;0.2603878;0.7286148;0.5554016;-11;-5;-3;-805;4305;-388;4;-0.2728532;-0.1440443;-0.6987298;-0.6454294;-8;35;6;3491;2430;408;16;0.5847353;-0.5623268;0.4459834;0.3781163;16;33;35;-357;4046;-1062;2;0.6989645;-0.6911357;-0.1772853;-0.04847645;31;7;-4;103;4104;-561;8;0.3282548;-0.6094183;0.3781163;0.6147245;19;-12;12;-277;4301;1055;0.5307275;2.596192;0.8782078;0.5359405;3.07123;0.6100049;0.5405116;3.487794;0.3724934;0.4722862;4.117171;0.001425326;0.1868527;4.349853;-0.1964006;-0.1428685;4.224545;-0.07101622;-0.8263112;4.38451;-0.6757033;0.0006503724;4.528221;-0.2360682;0.7041658;4.405932;-0.1964031;1.000999;4.348546;-0.0710206;1.247801;3.795448;0.6782763;0.4912964;3.35247;1.037802;0.2184962;2.556227;0.8939122;0.04743992;1.341986;0.09565391;0;0;0;0.2184962;2.556227;0.8939122;0.04743992;1.341986;0.09565391;0;0;0
766395.0772;NotLabelled;NONE;16384;-0.4432133;-0.3116343;-0.8391832;-0.04709141;-20;-7;11;2402;-2462;2457;65536;0.8595229;0.200831;-0.2714681;-0.3836565;-7;18;-10;3535;928;-1802;8192;0.5941828;-0.6393884;-0.1980609;0.4459834;6;14;-8;3052;3109;-1533;32768;0.1731302;-0.8743234;0.4044321;0.2049861;14;1;-4;3537;1279;2388;256;0.566482;-0.2853186;-0.6501778;-0.4182825;14;13;1;557;3928;1391;128;-0.300554;0.265928;0.7262189;0.5581717;-6;-4;-1;-1545;4157;-202;4;-0.2797784;-0.1426593;-0.6988286;-0.6426592;0;39;10;3275;2394;686;16;0.5869096;-0.566482;0.4459834;0.368421;11;61;39;-71;4090;-846;2;0.6955585;-0.6939058;-0.1786704;-0.05263158;32;28;-15;-531;5420;-553;8;0.3254848;-0.6094183;0.3808864;0.6144872;-5;-26;7;-1273;5295;1353;0.5625984;2.584117;0.9133718;0.5678294;3.060784;0.6480735;0.5724165;3.478789;0.413109;0.504519;4.109922;0.04497588;0.219134;4.343847;-0.1514488;-0.1105899;4.218378;-0.02623402;-0.7974927;4.384695;-0.6252598;0.03156671;4.522486;-0.1876861;0.7365153;4.399292;-0.1518242;1.033429;4.340975;-0.0270623;1.284439;3.788856;0.7215592;0.5286448;3.345548;1.082171;0.2503659;2.544058;0.9288109;0.06488161;1.33935;0.1194067;0;0;0;0.2503659;2.544058;0.9288109;0.06488161;1.33935;0.1194067;0;0;0
766415.6985;NotLabelled;NONE;16384;-0.4445983;-0.3157895;-0.8371176;-0.04293629;-10;-11;8;2538;-2964;2359;65536;0.8578608;0.1980609;-0.2728532;-0.3878116;0;8;-13;3995;1398;-1682;8192;0.5955678;-0.6390643;-0.1980609;0.4445983;8;18;-12;2872;3415;-1507;32768;0.1759003;-0.8731278;0.4058172;0.2049861;14;0;-3;3961;1379;2188;256;0.5637119;-0.2880886;-0.6495757;-0.4210526;13;10;1;783;4262;1311;128;-0.299169;0.265928;0.7267905;0.5581717;-7;3;-1;-1553;4699;-190;4;-0.2853186;-0.1412742;-0.6994117;-0.6398892;9;31;12;2739;2676;922;16;0.5885906;-0.5720221;0.4445983;0.3587258;7;56;35;605;3974;-662;2;0.6911357;-0.6969953;-0.1786704;-0.06786703;6;27;-50;-2823;5236;-135;8;0.3102493;-0.6052631;0.3891967;0.621231;-23;-78;5;83;4601;817;0.582655;2.575255;0.9337264;0.587921;3.05514;0.674297;0.5925393;3.475997;0.4444792;0.5267226;4.112328;0.08501613;0.2420694;4.349954;-0.1079976;-0.08803003;4.22401;0.0157418;-0.7761821;4.406136;-0.5772215;0.05657218;4.535871;-0.1442256;0.7596518;4.403491;-0.1080002;1.056433;4.342387;0.01573789;1.304328;3.782227;0.7594066;0.5497301;3.338261;1.121709;0.2704205;2.53501;0.9486312;0.0803355;1.337566;0.1295734;0;0;0;0.2704205;2.53501;0.9486312;0.0803355;1.337566;0.1295734;0;0;0
766436.7043;NotLabelled;NONE;16384;-0.4445983;-0.3185596;-0.8360674;-0.04293629;0;-14;5;2520;-3070;2345;65536;0.8567913;0.1980609;-0.2742382;-0.3891967;7;3;-11;4441;1372;-1636;8192;0.5969529;-0.6402174;-0.199446;0.4404432;9;23;-14;2794;3503;-1417;32768;0.1772853;-0.8728477;0.4058172;0.2049861;15;0;0;4421;1509;1932;256;0.5623268;-0.2880886;-0.6498768;-0.4224377;11;9;2;799;4794;1169;128;-0.2977839;0.2631579;0.7262348;0.5609418;-8;20;2;-1401;5127;118;4;-0.2880886;-0.1412742;-0.6982753;-0.6398892;14;6;7;2531;2996;1452;16;0.5895432;-0.5761772;0.4445983;0.3504155;8;45;30;873;3918;-466;2;0.6925207;-0.6965024;-0.1717452;-0.07617728;10;-18;-64;-2013;3628;-781;8;0.301939;-0.602493;0.3947368;0.624514;-31;-51;10;853;3601;987;0.6036593;2.567889;0.9468859;0.6089253;3.047769;0.687445;0.6135436;3.46862;0.4576174;0.5489665;4.108354;0.1040172;0.2647232;4.348424;-0.08656022;-0.06557202;4.222171;0.0363393;-0.753695;4.415147;-0.553216;0.08124289;4.536591;-0.1220235;0.7824358;4.400686;-0.08656269;1.079179;4.337731;0.03633571;1.329875;3.775694;0.7776462;0.5775955;3.326999;1.138942;0.2914249;2.527645;0.9617915;0.09597216;1.33593;0.1356716;0;0;0;0.2914249;2.527645;0.9617915;0.09597216;1.33593;0.1356716;0;0;0
766458.8038;NotLabelled;NONE;16384;-0.4473684;-0.3213296;-0.8333014;-0.04709141;12;-18;9;2748;-2786;2449;65536;0.8552539;0.200831;-0.2770083;-0.3891967;19;7;-5;4493;812;-1948;8192;0.5983379;-0.6403912;-0.200831;0.4376731;11;24;-14;2606;3813;-1347;32768;0.1786704;-0.8722441;0.4072022;0.2036011;18;2;6;4663;1747;1612;256;0.5609418;-0.2880886;-0.6501719;-0.4238227;9;15;3;829;5054;1029;128;-0.2950138;0.2603878;0.7262189;0.5637119;-16;28;2;-1009;4981;382;4;-0.2894737;-0.1412742;-0.6977022;-0.6398892;8;-10;-1;2741;3232;1956;16;0.5895431;-0.5803324;0.4445983;0.3434903;8;33;26;1045;3778;-362;2;0.6911357;-0.7005203;-0.1592798;-0.07894737;22;-48;-54;-261;2818;-1231;8;0.2950138;-0.602493;0.3947368;0.6278151;-38;-20;13;941;3195;1283;0.6177518;2.562782;0.9588609;0.6230276;3.043545;0.7010632;0.6276544;3.465181;0.4726765;0.5628428;4.105836;0.1207919;0.278496;4.346349;-0.06907219;-0.05173866;4.219698;0.0535804;-0.7413896;4.415041;-0.5334045;0.0939685;4.534346;-0.102429;0.7961972;4.398725;-0.06907427;1.092987;4.335508;0.05357707;1.341521;3.770012;0.7929819;0.5910734;3.319118;1.155349;0.3055167;2.522486;0.9736171;0.1110153;1.334045;0.1425719;0;0;0;0.3055167;2.522486;0.9736171;0.1110153;1.334045;0.1425719;0;0;0
766480.7042;NotLabelled;NONE;16384;-0.4487534;-0.3254848;-0.8309407;-0.04709141;14;-18;14;2690;-2242;2463;65536;0.853516;0.2036011;-0.2783934;-0.3905817;24;15;-3;3923;370;-2008;8192;0.5983379;-0.6427772;-0.2022161;0.433518;11;22;-12;2582;3983;-1233;32768;0.1814404;-0.8719945;0.4072022;0.2022161;24;8;8;4289;1841;1384;256;0.5595568;-0.2867036;-0.650166;-0.4265928;6;20;4;807;4852;731;128;-0.2922437;0.2576177;0.7261714;0.566482;-18;19;1;-765;4521;476;4;-0.2867036;-0.1426593;-0.6972924;-0.6412742;2;-17;-10;2877;2968;1542;16;0.5889652;-0.5831025;0.4459834;0.3379501;3;22;24;1327;3790;-578;2;0.6911357;-0.7026544;-0.1495845;-0.07894737;25;-40;-36;595;2940;-697;8;0.2880886;-0.6052631;0.3933518;0.6292344;-38;-22;10;815;3589;1943;0.6331394;2.559492;0.9648968;0.6384249;3.041144;0.7087617;0.6430604;3.463566;0.481833;0.5780166;4.105139;0.1316698;0.2935671;4.346095;-0.05747792;-0.0366074;4.219048;0.06492646;-0.7239282;4.412128;-0.5255302;0.1091037;4.533302;-0.09059177;0.8112571;4.398581;-0.05747992;1.108094;4.335103;0.06492329;1.357273;3.767785;0.8027129;0.6070179;3.315335;1.163537;0.3209037;2.519146;0.9795019;0.1255525;1.332351;0.1463068;0;0;0;0.3209037;2.519146;0.9795019;0.1255525;1.332351;0.1463068;0;0;0
766501.6999;NotLabelled;NONE;16384;-0.4529086;-0.3282548;-0.8275099;-0.04847645;11;-18;20;2494;-1814;2551;65536;0.8503287;0.2077562;-0.2811634;-0.3933518;24;19;-7;3503;138;-1856;8192;0.599723;-0.6443511;-0.2077562;0.4265928;14;32;-4;2678;3637;-907;32768;0.1897507;-0.870505;0.4099723;0.1952908;38;16;1;3169;1987;1114;256;0.5526316;-0.2880886;-0.6518162;-0.432133;8;21;4;289;3766;499;128;-0.2867036;0.2603878;0.7208419;0.5747922;-17;0;5;-839;3647;296;4;-0.2853186;-0.1468144;-0.6982698;-0.6398892;1;-5;-3;3303;2248;1250;16;0.5872576;-0.5908042;0.4473684;0.3254848;-1;44;19;1063;3706;-956;2;0.6883656;-0.7062055;-0.1440443;-0.08171745;21;-3;-32;235;4032;-483;8;0.2811634;-0.6052631;0.3933518;0.6323591;-33;-30;9;329;3607;2843;0.6505765;2.559704;0.9656129;0.6558717;3.042252;0.7111713;0.6605161;3.465469;0.4857283;0.5928022;4.107959;0.1377581;0.3073082;4.348475;-0.05037156;-0.02229486;4.219783;0.0718542;-0.7139769;4.415286;-0.5126826;0.1186794;4.538528;-0.07760675;0.8247976;4.402903;-0.05058461;1.121963;4.34013;0.07138443;1.372136;3.772193;0.8083616;0.6236621;3.31632;1.168575;0.3383404;2.519306;0.9800642;0.1396689;1.330469;0.1505744;0;0;0;0.3383404;2.519306;0.9800642;0.1396689;1.330469;0.1505744;0;0;0
766522.7011;NotLabelled;NONE;16384;-0.4556787;-0.33241;-0.8243243;-0.04847645;6;-17;25;2420;-1808;2633;65536;0.8471304;0.2091413;-0.2839335;-0.3975069;20;18;-10;3361;350;-1648;8192;0.602493;-0.6445118;-0.2105263;0.4210526;17;41;-2;2428;3377;-711;32768;0.1966759;-0.8699285;0.4085872;0.1939058;42;22;-4;2809;1833;1172;256;0.5512465;-0.2867036;-0.6517574;-0.434903;10;20;2;209;3490;437;128;-0.2853186;0.2603878;0.7202856;0.5761772;-12;1;8;-831;3569;214;4;-0.2880886;-0.1481994;-0.6981077;-0.6385041;5;-3;5;3305;2214;1344;16;0.5886427;-0.5945314;0.4445983;0.3199446;-5;43;9;1239;3604;-842;2;0.6883656;-0.7069874;-0.1385041;-0.08448754;11;-26;-30;-159;4878;-323;8;0.2756233;-0.6066482;0.3933518;0.6334699;-29;-14;7;-23;3497;3255;0.7023953;2.551871;0.9716422;0.7077516;3.039986;0.7280517;0.71245;3.468136;0.512126;0.6460683;4.115169;0.1724135;0.361022;4.358784;-0.01237807;0.03120054;4.229388;0.1085081;-0.6579033;4.429963;-0.4773532;0.1762017;4.555146;-0.04561889;0.8786486;4.411892;-0.01238072;1.175761;4.346817;0.1085045;1.422038;3.774583;0.8434676;0.6748492;3.30983;1.194897;0.3901558;2.511162;0.9851103;0.1716043;1.326211;0.1550585;0;0;0;0.3901558;2.511162;0.9851103;0.1716043;1.326211;0.1550585;0;0;0
766543.8027;NotLabelled;NONE;16384;-0.4598338;-0.33518;-0.8209687;-0.04709141;3;-16;24;2280;-1982;2597;65536;0.8443575;0.2105263;-0.2853186;-0.4016621;16;17;-13;3379;608;-1510;8192;0.6038781;-0.6454398;-0.2146814;0.4155124;17;46;0;1982;3253;-533;32768;0.2022161;-0.8705678;0.4058172;0.1911357;41;26;-8;2797;1805;1248;256;0.5498615;-0.2853186;-0.6516808;-0.4376731;11;19;1;181;3486;437;128;-0.2853186;0.2603878;0.7180609;0.5789474;-2;3;7;-1069;3623;238;4;-0.2894737;-0.1509695;-0.6982065;-0.6371191;0;-1;11;3267;2426;1316;16;0.5886427;-0.5970445;0.4432133;0.3171745;-11;4;-9;1191;3344;-554;2;0.6883656;-0.7089817;-0.1288089;-0.08310249;1;-13;-10;935;4396;-435;8;0.2700831;-0.6094183;0.3878116;0.6366056;-19;7;1;717;3413;2713;0.7152143;2.545474;0.9786634;0.7205794;3.03438;0.7366626;0.7252854;3.46323;0.5221315;0.6563762;4.111169;0.1846573;0.3703594;4.354353;0.0008000433;0.04106494;4.22332;0.1213589;-0.6482722;4.429378;-0.4623223;0.1852253;4.551225;-0.02846427;0.8877851;4.409384;0.0007976294;1.185182;4.345001;0.1213547;1.433761;3.769136;0.8526974;0.6905547;3.29476;1.199684;0.4029742;2.504721;0.9919877;0.1781239;1.325262;0.1558198;0;0;0;0.4029742;2.504721;0.9919877;0.1781239;1.325262;0.1558198;0;0;0
766563.9811;NotLabelled;NONE;16384;-0.4653739;-0.3421052;-0.8151979;-0.04293629;0;-16;15;2230;-2362;2565;65536;0.8386469;0.2105263;-0.2922437;-0.4085872;9;12;-14;3791;1000;-1440;8192;0.6052631;-0.6462893;-0.2188366;0.4099723;16;46;2;1608;3195;-371;32768;0.2091413;-0.8698789;0.4044321;0.1897507;36;25;-8;3059;1811;1396;256;0.5470914;-0.2853186;-0.6521457;-0.4404432;12;15;0;177;3676;495;128;-0.2839335;0.2603878;0.7174916;0.5803324;0;6;4;-1235;3959;310;4;-0.2922437;-0.1537396;-0.6977105;-0.6357341;-1;2;11;3191;2500;1070;16;0.5872576;-0.5972131;0.4418283;0.3213296;-15;-26;-22;657;3344;-756;2;0.6883656;-0.7092319;-0.1274238;-0.08310249;-5;-1;0;1051;4482;-415;8;0.2686981;-0.6108033;0.3864266;0.6367065;-15;1;0;963;3353;2505;0.7291999;2.539453;0.9825592;0.7345824;3.029934;0.7437708;0.7393038;3.460183;0.5320574;0.6678621;4.109022;0.1968465;0.3808748;4.351775;0.01393449;0.05211492;4.219105;0.1341614;-0.6336605;4.432492;-0.4510788;0.2002247;4.552167;-0.01736288;0.8980926;4.408727;0.01393199;1.195772;4.345032;0.1341574;1.44158;3.76742;0.8650593;0.7004161;3.286815;1.207814;0.416959;2.498613;0.9955936;0.183525;1.324746;0.1539267;0;0;0;0.416959;2.498613;0.9955936;0.183525;1.324746;0.1539267;0;0;0
766583.9591;NotLabelled;NONE;16384;-0.468144;-0.3448753;-0.812512;-0.04155125;-1;-15;9;2300;-2556;2611;65536;0.8359848;0.2091413;-0.2950138;-0.4127424;5;8;-12;4127;1096;-1560;8192;0.6066482;-0.6457132;-0.2243767;0.4058172;13;38;2;1366;3383;-191;32768;0.2132964;-0.8694697;0.4044321;0.1869806;26;17;-6;3429;1715;1420;256;0.5443213;-0.2867036;-0.6510358;-0.4445983;12;12;1;285;3998;553;128;-0.2811634;0.2603878;0.7185817;0.5803324;-1;6;2;-1241;4445;104;4;-0.2963989;-0.1551246;-0.6981695;-0.632964;1;9;10;2857;2728;1262;16;0.5872576;-0.5934349;0.4418283;0.3282548;-11;-37;-29;439;3748;-1010;2;0.6897507;-0.7076343;-0.1288089;-0.08310249;-12;14;3;689;4486;-973;8;0.267313;-0.6108033;0.3850415;0.638127;-14;8;-1;503;3501;2455;0.7330056;2.53395;0.9797475;0.7383965;3.02521;0.742565;0.7431254;3.456149;0.5322602;0.671261;4.106778;0.2006282;0.3840812;4.350424;0.01921183;0.05543869;4.216988;0.1389117;-0.626035;4.446572;-0.4452229;0.2057734;4.554862;-0.004581556;0.9012794;4.407553;0.0192095;1.199053;4.343308;0.1389081;1.4441;3.763948;0.8686813;0.7076259;3.273754;1.207949;0.4207642;2.493068;0.9926371;0.1792532;1.326547;0.143073;0;0;0;0.4207642;2.493068;0.9926371;0.1792532;1.326547;0.143073;0;0;0
766604.714;NotLabelled;NONE;16384;-0.4695291;-0.3490305;-0.8100042;-0.0401662;-1;-12;4;2490;-2526;2589;65536;0.8349515;0.2105263;-0.2950138;-0.4141274;1;7;-6;4367;1000;-1524;8192;0.6108033;-0.6469642;-0.2243767;0.3975069;6;12;-3;1510;3799;-209;32768;0.2174515;-0.8683857;0.4058172;0.1842105;2;3;0;3929;1895;1692;256;0.5415512;-0.2894737;-0.6502221;-0.4473684;9;8;1;307;4404;651;128;-0.2811634;0.2590028;0.717962;0.5817174;0;6;1;-1111;4755;-134;4;-0.300554;-0.1537396;-0.6954371;-0.634349;14;3;1;2861;3488;1072;16;0.589927;-0.5844875;0.4418283;0.3393352;-5;-19;-27;325;4498;-792;2;0.6911357;-0.7056063;-0.1315789;-0.08448754;-14;21;3;397;4428;-713;8;0.267313;-0.6121883;0.3808864;0.6392924;-14;22;-1;447;3703;2491;0.7294954;2.528337;0.9823063;0.7348863;3.01959;0.7451071;0.7396152;3.450521;0.5347876;0.6667892;4.104349;0.2097223;0.379186;4.349522;0.03105363;0.05079845;4.214598;0.1497815;-0.6294746;4.450642;-0.4331771;0.2033071;4.551209;0.007455841;0.8963317;4.407126;0.03105116;1.194296;4.34197;0.149778;1.440145;3.764111;0.8804712;0.7046342;3.269355;1.215176;0.417254;2.487456;0.9951972;0.1662661;1.328811;0.1376394;0;0;0;0.417254;2.487456;0.9951972;0.1662661;1.328811;0.1376394;0;0;0
766625.7893;NotLabelled;NONE;16384;-0.4695291;-0.3518005;-0.8088726;-0.03878116;-2;-7;-1;2574;-2316;2571;65536;0.8349515;0.2105263;-0.2950138;-0.4141274;0;3;0;4355;734;-1444;8192;0.6121883;-0.6478294;-0.2229917;0.3947368;3;-2;-3;1606;3833;-333;32768;0.2160665;-0.8687314;0.4058172;0.1842105;-8;0;4;4063;1983;2036;256;0.5401662;-0.2894737;-0.6504197;-0.4487534;-1;3;2;155;4754;905;128;-0.2783934;0.2548476;0.7194034;0.5831025;0;33;4;-679;5027;-384;4;-0.300554;-0.1537396;-0.6941712;-0.6357341;17;-14;3;3419;3682;900;16;0.591763;-0.5831025;0.4390582;0.3421052;-10;1;-20;315;4044;-130;2;0.6925207;-0.7033857;-0.134349;-0.08725762;-20;30;1;283;4614;-307;8;0.2700831;-0.6149584;0.3767313;0.6379301;-13;31;-3;477;3905;2629;0.6922853;2.528686;0.9891316;0.697681;3.020374;0.7528385;0.7024141;3.451693;0.5433139;0.630976;4.108669;0.2243453;0.3438376;4.356224;0.0482316;0.01521655;4.221071;0.1660506;-0.6642931;4.463889;-0.4150132;0.1689389;4.565465;0.02453656;0.861132;4.412476;0.04822969;1.159043;4.345453;0.1660479;1.401893;3.757314;0.8895059;0.6665881;3.257798;1.217527;0.3800436;2.48778;1.001941;0.1375919;1.332045;0.1380241;0;0;0;0.3800436;2.48778;1.001941;0.1375919;1.332045;0.1380241;0;0;0
766646.8176;NotLabelled;NONE;16384;-0.4695291;-0.3531856;-0.8083341;-0.03739612;0;0;-2;2660;-2216;2651;65536;0.8346114;0.2091413;-0.2950138;-0.4155124;-3;-2;3;4229;480;-1474;8192;0.6121883;-0.6500849;-0.2188366;0.3933518;4;-17;0;2120;3767;-423;32768;0.2132964;-0.8691211;0.4058172;0.1855956;-19;0;6;3793;2069;2358;256;0.5387812;-0.2880886;-0.6521811;-0.4487534;-8;3;3;77;4694;1165;128;-0.2728532;0.2479224;0.7216917;0.5858725;1;68;9;-477;4763;-412;4;-0.300554;-0.1537396;-0.6916241;-0.6385041;22;6;0;3071;3904;514;16;0.5912927;-0.5858725;0.434903;0.3434903;-13;26;-11;755;3944;366;2;0.698289;-0.6952909;-0.1426593;-0.09279778;-28;40;5;827;5194;11;8;0.2756233;-0.6177285;0.368421;0.6377376;1;43;-6;725;4163;3671;0.6783938;2.530562;0.9863021;0.6837869;3.022004;0.7494972;0.6885176;3.453104;0.5395237;0.6168897;4.110944;0.2223831;0.3296629;4.358941;0.04703644;0.001096677;4.223418;0.1645821;-0.6801985;4.470809;-0.4124479;0.1543997;4.572384;0.02450207;0.8469492;4.415267;0.04703379;1.144905;4.347964;0.1645777;1.388365;3.754814;0.8837267;0.653281;3.257435;1.215471;0.3661523;2.48967;0.9991575;0.1261155;1.333472;0.135186;0;0;0;0.3661523;2.48967;0.9991575;0.1261155;1.333472;0.135186;0;0;0
766667.739;NotLabelled;NONE;16384;-0.4695291;-0.3545706;-0.8077904;-0.03601108;3;7;-3;2790;-2052;2667;65536;0.8342665;0.2077562;-0.2950138;-0.4168975;-3;-13;5;4161;266;-1466;8192;0.6108033;-0.651931;-0.2146814;0.3947368;5;-29;1;2504;3671;-525;32768;0.2105263;-0.870441;0.4044321;0.1855956;-28;2;5;3417;2139;2676;256;0.5387812;-0.2867036;-0.6537411;-0.4473684;-15;-1;3;-137;4466;1339;128;-0.2686981;0.2396122;0.7249247;0.5872576;6;58;8;-551;4587;-538;4;-0.3033241;-0.1495845;-0.6913258;-0.6385041;13;36;-13;2329;4036;1222;16;0.5886427;-0.5923851;0.4307479;0.3421052;-11;42;-8;949;4230;540;2;0.7005874;-0.6911357;-0.1495845;-0.09556787;-33;55;14;1185;5630;121;8;0.2825485;-0.6204986;0.3642659;0.634396;12;60;-6;501;4301;3915;0.6688424;2.53289;0.9749546;0.674234;3.024222;0.7379206;0.6789636;3.455224;0.5277461;0.6076978;4.11254;0.20944;0.3206185;4.360362;0.0336045;-0.008032281;4.225195;0.1513246;-0.6918893;4.475904;-0.4212248;0.1456573;4.574379;0.01076446;0.8379305;4.41645;0.03360164;1.135833;4.349216;0.1513203;1.379386;3.749668;0.8651123;0.6458074;3.255627;1.205075;0.3566008;2.492005;0.9878306;0.1226978;1.334938;0.1233395;0;0;0;0.3566008;2.492005;0.9878306;0.1226978;1.334938;0.1233395;0;0;0
766688.7166;NotLabelled;NONE;16384;-0.4695291;-0.3504155;-0.8096619;-0.03462604;9;24;-9;2776;-1532;3079;65536;0.8370133;0.2049861;-0.2950138;-0.4127424;-10;-35;6;3935;-148;-1936;8192;0.6080332;-0.6545812;-0.2119114;0.3961219;8;-36;3;2928;3333;-567;32768;0.2049861;-0.871168;0.4044321;0.1883656;-38;-3;4;3281;2329;2894;256;0.5401662;-0.2867036;-0.6544875;-0.4445983;-20;-1;3;-291;4394;1629;128;-0.2645429;0.232687;0.726458;0.5900277;5;47;8;-621;4821;-758;4;-0.3047091;-0.1426593;-0.69218;-0.6385041;4;30;-22;2095;3708;1256;16;0.5900277;-0.5965881;0.4252077;0.3393352;-8;45;-13;1047;4444;276;2;0.7033094;-0.6855956;-0.1592798;-0.09972299;-38;66;26;1101;5956;239;8;0.2922437;-0.6218836;0.3587258;0.6317992;24;68;-6;243;4181;3639;0.6716871;2.535403;0.9574114;0.6770661;3.025566;0.7179695;0.6817844;3.455532;0.5056828;0.6112449;4.111451;0.1843485;0.324499;4.358646;0.007093191;-0.004356667;4.224203;0.1250678;-0.6892111;4.481026;-0.4435669;0.1496605;4.576399;-0.01345545;0.8418437;4.414433;0.007392526;1.139581;4.347556;0.1257311;1.382862;3.741531;0.8341256;0.6482975;3.252013;1.178474;0.3594463;2.494581;0.9705046;0.1299822;1.33563;0.1073487;0;0;0;0.3594463;2.494581;0.9705046;0.1299822;1.33563;0.1073487;0;0;0
766708.8559;NotLabelled;NONE;16384;-0.4695291;-0.3462604;-0.8114476;-0.03462604;8;31;-9;2796;-1424;3487;65536;0.8397213;0.2022161;-0.2950138;-0.4085872;-14;-39;6;3933;-346;-2466;8192;0.601108;-0.6580915;-0.2049861;0.4044321;3;-44;5;3824;2857;-717;32768;0.1925208;-0.8724586;0.4058172;0.1925208;-42;-15;9;3199;2695;2996;256;0.5401662;-0.2853186;-0.6569639;-0.4418283;-25;-3;3;-433;4372;1867;128;-0.2617728;0.2271468;0.7280867;0.5914127;9;30;6;-551;4917;-936;4;-0.3047091;-0.1301939;-0.6946325;-0.6385041;12;18;-22;1875;3296;196;16;0.5941828;-0.5991102;0.4168975;0.3379501;0;10;-18;639;4030;-4;2;0.7062218;-0.6800554;-0.1689751;-0.101108;-42;48;36;581;5708;179;8;0.301939;-0.6246537;0.3545706;0.6268335;31;69;-7;279;4317;3495;0.6634022;2.54318;0.9433185;0.6687812;3.033346;0.7038837;0.6734995;3.463315;0.4916032;0.6043957;4.117647;0.1667389;0.3181909;4.364511;-0.01184511;-0.01095753;4.231428;0.1068527;-0.6940551;4.48379;-0.4658773;0.1452216;4.578174;-0.03633945;0.8356568;4.419164;-0.0118475;1.133248;4.352272;0.1068492;1.369583;3.748594;0.8195865;0.6341103;3.26581;1.17142;0.3511613;2.502357;0.9564111;0.1286917;1.336241;0.10111;0;0;0;0.3511613;2.502357;0.9564111;0.1286917;1.336241;0.10111;0;0;0
766729.7052;NotLabelled;NONE;16384;-0.4695291;-0.3407202;-0.8138472;-0.033241;8;31;-8;2702;-1094;3537;65536;0.8432014;0.1980609;-0.2936288;-0.4044321;-16;-35;9;3833;-526;-3032;8192;0.5983379;-0.6593292;-0.200831;0.4085872;2;-40;6;4270;2833;-873;32768;0.1855956;-0.8736517;0.4058172;0.1939058;-41;-12;11;2863;2649;3050;256;0.5429363;-0.2811634;-0.6610799;-0.434903;-32;-2;2;-499;4266;2145;128;-0.2590028;0.2188366;0.7327315;0.5900277;13;21;5;91;4643;-1158;4;-0.301939;-0.1274238;-0.6938035;-0.6412742;20;-1;-25;1477;3254;-80;16;0.5941828;-0.5994623;0.4141274;0.3407202;1;-11;-14;-149;4074;52;2;0.7085608;-0.6759003;-0.1772853;-0.09833795;-47;18;41;-145;5200;495;8;0.3102493;-0.6263115;0.3531856;0.6218836;33;25;-14;229;4189;2649;0.6469646;2.560416;0.9166849;0.6523388;3.050142;0.6763502;0.6570528;3.479719;0.4632804;0.5898951;4.131899;0.1337126;0.3044664;4.378229;-0.04684061;-0.02511508;4.246853;0.07255442;-0.7095639;4.495481;-0.500195;0.1318831;4.588832;-0.07469611;0.822073;4.431532;-0.04684287;1.119402;4.364713;0.07255113;1.354469;3.763782;0.7880237;0.6175491;3.297416;1.158482;0.3347241;2.519617;0.9298589;0.116288;1.337804;0.09531663;0;0;0;0.3347241;2.519617;0.9298589;0.116288;1.337804;0.09531663;0;0;0
766751.8436;NotLabelled;NONE;16384;-0.4695291;-0.3365651;-0.8155743;-0.033241;3;30;-9;2590;-766;3817;65536;0.8456493;0.1952908;-0.2922437;-0.4016621;-18;-24;12;3459;-792;-3396;8192;0.5955678;-0.6605342;-0.199446;0.4113573;1;-31;7;4442;2599;-1131;32768;0.1786704;-0.8741423;0.4072022;0.1952908;-35;-2;10;2449;2585;3184;256;0.5443213;-0.2783934;-0.6629273;-0.432133;-32;0;0;-467;4014;2273;128;-0.2576177;0.2160665;0.7340407;0.5900277;16;21;6;549;4323;-1358;4;-0.299169;-0.1232687;-0.6931881;-0.6440443;27;-7;-34;1117;3576;-366;16;0.598253;-0.5955678;0.4127424;0.3421052;5;5;-8;-793;4244;182;2;0.7131485;-0.6703601;-0.1828255;-0.09279778;-51;-8;36;-313;4520;1031;8;0.3171745;-0.6242129;0.3531856;0.6204986;36;34;-20;-305;3521;2229;0.6304871;2.568979;0.9002554;0.6358322;3.056059;0.6546012;0.6405205;3.48329;0.4368653;0.5752655;4.12927;0.09493494;0.2906633;4.3727;-0.09078196;-0.03940118;4.244229;0.03042806;-0.7240204;4.489971;-0.5433632;0.1200954;4.581399;-0.1227611;0.8083722;4.424999;-0.09078455;1.105342;4.359872;0.03042424;1.340364;3.759432;0.7463231;0.6011515;3.303031;1.124545;0.3182482;2.528326;0.91391;0.1089193;1.338935;0.08784191;0;0;0;0.3182482;2.528326;0.91391;0.1089193;1.338935;0.08784191;0;0;0
766771.7336;NotLabelled;NONE;16384;-0.468144;-0.333795;-0.8175618;-0.03185596;-1;27;-10;2292;-320;3959;65536;0.8477541;0.1939058;-0.2908587;-0.398892;-18;-9;15;3133;-1066;-3700;8192;0.5941828;-0.6600112;-0.1966759;0.4155124;2;-25;11;4572;2259;-1297;32768;0.1745152;-0.8753145;0.4058172;0.1966759;-28;8;6;2061;2549;3250;256;0.5457063;-0.2742382;-0.6662078;-0.4279778;-32;6;-2;-719;3678;2349;128;-0.2576177;0.2105263;0.7367575;0.5886427;15;26;9;749;4125;-1314;4;-0.2936288;-0.1177285;-0.691348;-0.6495845;25;-3;-41;1519;3880;-244;16;0.6001547;-0.5955678;0.4099723;0.3421052;11;27;-2;-305;4238;276;2;0.7195714;-0.6620498;-0.1911357;-0.08587258;-20;19;26;889;2992;-81;8;0.3310249;-0.621501;0.3476454;0.6191136;7;10;-17;1001;2851;87;0.6077615;2.578645;0.8964827;0.6130999;3.065119;0.6496317;0.6177824;3.491815;0.4308462;0.5523096;4.134636;0.08305746;0.2676775;4.376149;-0.1051015;-0.06239219;4.2485;0.01695928;-0.7468525;4.490518;-0.5586016;0.09977888;4.58102;-0.1428835;0.785343;4.428877;-0.1051036;1.082255;4.365089;0.01695669;1.315229;3.766789;0.7353116;0.5742842;3.320109;1.121661;0.295523;2.538026;0.9102457;0.0947546;1.3395;0.09533086;0;0;0;0.295523;2.538026;0.9102457;0.0947546;1.3395;0.09533086;0;0;0
766792.8999;NotLabelled;NONE;16384;-0.466759;-0.3268698;-0.8212467;-0.02908587;-14;18;-7;1690;410;3989;65536;0.8505362;0.1911357;-0.2825485;-0.400277;-25;10;20;2285;-1362;-3604;8192;0.5914127;-0.660749;-0.1966759;0.4182825;2;-18;17;4628;1769;-1347;32768;0.1717452;-0.877464;0.4016621;0.1980609;-18;17;2;1639;2379;3234;256;0.5470914;-0.2700831;-0.6676561;-0.4265928;-29;14;-5;-855;3128;2541;128;-0.2576177;0.2036011;0.7387012;0.5886427;8;28;13;913;3591;-1480;4;-0.2880886;-0.1108033;-0.6909068;-0.6537396;21;10;-43;1937;3910;4;16;0.6022335;-0.5969529;0.4072022;0.3393352;14;20;1;317;4268;328;2;0.7195621;-0.6606648;-0.1952908;-0.08725762;-10;29;12;263;2856;401;8;0.3296399;-0.6191136;0.3476454;0.6222368;-13;-20;-7;1239;2501;1063;0.5862851;2.593528;0.8771743;0.5916011;3.077971;0.6263574;0.5962639;3.502864;0.4040933;0.5310328;4.140942;0.0476318;0.2465707;4.379802;-0.1441353;-0.0836193;4.253675;-0.020825;-0.7710018;4.4944;-0.5934376;0.07798009;4.586037;-0.1827933;0.7642164;4.432724;-0.1441377;1.060984;4.370692;-0.02082896;1.298597;3.774152;0.6974707;0.5582285;3.333416;1.09167;0.2740477;2.553024;0.8912964;0.08837546;1.339998;0.09445695;0;0;0;0.2740477;2.553024;0.8912964;0.08837546;1.339998;0.09445695;0;0;0
766813.7096;NotLabelled;NONE;16384;-0.4653739;-0.3227147;-0.8237202;-0.02770083;-19;16;-8;1488;472;3939;65536;0.852864;0.1897507;-0.2783934;-0.398892;-26;13;20;1961;-1242;-3514;8192;0.5886427;-0.6584383;-0.200831;0.4238227;7;3;26;4360;887;-1201;32768;0.1745152;-0.8822084;0.3891967;0.199446;5;35;-2;1101;2003;3062;256;0.5498615;-0.2645429;-0.6693607;-0.4238227;-28;18;-8;-1007;2654;2689;128;-0.2590028;0.1980609;0.7397224;0.5886427;8;20;14;825;3187;-1598;4;-0.2853186;-0.1038781;-0.6905054;-0.6565097;14;16;-40;2013;3660;112;16;0.603786;-0.5969529;0.4072022;0.3365651;15;5;3;629;4176;202;2;0.7197341;-0.6592798;-0.1980609;-0.0900277;-1;28;-7;-891;2640;919;8;0.3240997;-0.6191136;0.3476454;0.6251403;-40;-14;4;723;2255;3151;0.5736245;2.608744;0.8570431;0.5789242;3.091704;0.6033832;0.5835723;3.515285;0.3786258;0.5160668;4.150136;0.01686627;0.2308472;4.386155;-0.1772787;-0.09897193;4.259568;-0.05344682;-0.7898158;4.500789;-0.6216687;0.06680455;4.594524;-0.2276997;0.7482522;4.44138;-0.1769231;1.045099;4.381677;-0.05265868;1.283066;3.784664;0.6651316;0.5440201;3.348318;1.066629;0.261388;2.568324;0.8714234;0.08712704;1.339989;0.09573894;0;0;0;0.261388;2.568324;0.8714234;0.08712704;1.339989;0.09573894;0;0;0
766834.7093;NotLabelled;NONE;16384;-0.4626039;-0.3199446;-0.8264022;-0.02631579;-20;12;-13;1458;504;3875;65536;0.854959;0.1883656;-0.2728532;-0.398892;-25;12;20;1863;-1142;-3412;8192;0.5872576;-0.6561692;-0.2063712;0.4265928;9;13;25;4266;755;-1097;32768;0.1772853;-0.8840808;0.3836565;0.199446;14;38;-3;1087;1947;2696;256;0.5512465;-0.2576177;-0.6717937;-0.4224377;-26;16;-10;-1133;2412;2787;128;-0.2590028;0.1952908;0.7404585;0.5886427;10;10;11;881;2887;-1590;4;-0.2797784;-0.09418282;-0.6915228;-0.6592798;7;3;-27;1817;3158;80;16;0.6054121;-0.5941828;0.4099723;0.33518;14;0;3;217;4030;-692;2;0.7200871;-0.6578947;-0.199446;-0.09418282;9;24;-16;-1177;2570;391;8;0.3157895;-0.6218836;0.3434903;0.6289294;-72;-18;17;1313;1545;4125;0.5653324;2.619646;0.8464142;0.5706193;3.101438;0.5905427;0.5752562;3.523983;0.3638455;0.5043091;4.153808;-0.005952656;0.217858;4.385684;-0.2032525;-0.1113067;4.258745;-0.07804681;-0.8045418;4.494175;-0.6457856;0.05578678;4.590396;-0.2605929;0.7349315;4.443932;-0.2032552;1.032031;4.387541;-0.07805157;1.275127;3.806422;0.650975;0.5406982;3.36756;1.058162;0.2530966;2.579292;0.8609952;0.08877596;1.339447;0.1016251;0;0;0;0.2530966;2.579292;0.8609952;0.08877596;1.339447;0.1016251;0;0;0
766856.7167;NotLabelled;NONE;16384;-0.4598338;-0.3171745;-0.8290119;-0.02631579;-17;8;-20;1430;348;3789;65536;0.857221;0.1869806;-0.2686981;-0.3975069;-22;9;17;1845;-1012;-3404;8192;0.5844875;-0.6550691;-0.2119114;0.4293629;8;21;23;4048;885;-965;32768;0.1800554;-0.8853136;0.3795014;0.199446;22;32;-3;1109;1963;2416;256;0.5554016;-0.2493075;-0.6732414;-0.4196676;-13;3;-8;-1197;2044;2529;128;-0.2617728;0.1952908;0.7416804;0.5858725;7;-13;-1;1093;2975;-1006;4;-0.2770083;-0.09141274;-0.6930082;-0.6592798;4;-1;-20;1679;2954;216;16;0.6073546;-0.5927978;0.4113573;0.33241;11;3;5;-9;3902;-1016;2;0.7184508;-0.6592798;-0.199446;-0.09695291;19;-8;-5;21;2958;435;8;0.3074792;-0.6260388;0.3393352;0.6311764;-60;-15;9;309;2663;3687;0.560649;2.635875;0.8296624;0.5659297;3.117089;0.5727068;0.5705609;3.539124;0.3450587;0.4952806;4.164031;-0.03215015;0.2073282;4.391373;-0.2325161;-0.1210238;4.263363;-0.1062723;-0.8205202;4.496744;-0.6671346;0.04578262;4.595663;-0.2962841;0.7239367;4.453609;-0.2325185;1.021286;4.400978;-0.1062756;1.270585;3.829814;0.6285018;0.5399567;3.387787;1.039088;0.2484137;2.595553;0.8443419;0.08943178;1.338527;0.1125857;0;0;0;0.2484137;2.595553;0.8443419;0.08943178;1.338527;0.1125857;0;0;0
766878.9655;NotLabelled;NONE;16384;-0.4556787;-0.3144044;-0.8323547;-0.02631579;-13;4;-27;1474;364;3731;65536;0.8594526;0.1855956;-0.2645429;-0.3961219;-18;9;16;1999;-1176;-3354;8192;0.5844875;-0.6523223;-0.2202216;0.4293629;6;33;19;3632;1001;-637;32768;0.1842105;-0.8859525;0.3767313;0.1980609;26;21;-5;1001;1877;2236;256;0.5554016;-0.2479224;-0.6737527;-0.4196676;-3;-1;-5;-1289;2166;2341;128;-0.2631579;0.1966759;0.7408238;0.5858725;0;-13;-1;1077;3105;-1002;4;-0.2756233;-0.0900277;-0.6924224;-0.6606648;3;-2;-12;1629;2970;-74;16;0.6094577;-0.5914127;0.4113573;0.3310249;7;8;5;-135;3970;-1236;2;0.7144855;-0.666205;-0.1980609;-0.08033241;15;-45;45;2175;3284;1141;8;0.2867036;-0.6218836;0.3448753;0.6419679;-10;-96;-15;-437;2229;2273;0.5634129;2.640674;0.8289773;0.5686746;3.120157;0.5688034;0.573289;3.540657;0.338333;0.491975;4.158521;-0.04908645;0.2019778;4.379421;-0.2536663;-0.125221;4.249871;-0.1260069;-0.829019;4.479121;-0.6831803;0.04033408;4.580443;-0.3201981;0.7178732;4.447318;-0.2536691;1.015512;4.400001;-0.1260118;1.26558;3.839279;0.6165061;0.5365511;3.393761;1.026163;0.2511788;2.600452;0.8439497;0.09069789;1.337551;0.1227109;0;0;0;0.2511788;2.600452;0.8439497;0.09069789;1.337551;0.1227109;0;0;0
766899.7104;NotLabelled;NONE;16384;-0.4473684;-0.3116343;-0.8377945;-0.02908587;-14;-5;-28;1724;544;3503;65536;0.8623027;0.1869806;-0.2562327;-0.3947368;-15;18;18;2233;-1502;-3116;8192;0.5858725;-0.6500923;-0.2257618;0.4279778;2;38;16;3102;1127;-303;32768;0.1897507;-0.8862654;0.3739612;0.1966759;25;15;-6;935;1919;2182;256;0.5567867;-0.2479224;-0.6726084;-0.4196676;3;-4;-4;-1309;2234;2203;128;-0.2645429;0.1980609;0.739961;0.5858725;-8;-11;1;903;3273;-1502;4;-0.2742382;-0.0900277;-0.6929722;-0.6606648;4;-10;-5;1881;3266;-444;16;0.6115472;-0.5900277;0.4113573;0.3296399;1;9;0;423;4004;-1242;2;0.7121444;-0.6689751;-0.200831;-0.07063711;10;-35;45;1781;3212;1067;8;0.2783934;-0.6149584;0.3518005;0.6485057;9;-79;-14;-1105;2517;2019;0.5574628;2.643405;0.8308036;0.5627276;3.123178;0.5711658;0.5673448;3.543935;0.3411657;0.4851177;4.160985;-0.04735667;0.19481;4.381054;-0.2523912;-0.1322078;4.251196;-0.1245806;-0.8421409;4.4755;-0.6759533;0.03086994;4.579181;-0.3225424;0.7105941;4.449789;-0.2523937;1.008279;4.40318;-0.1245844;1.26057;3.852412;0.6246009;0.5328388;3.401737;1.030909;0.2452284;2.603166;0.8457271;0.08813554;1.337101;0.1293058;0;0;0;0.2452284;2.603166;0.8457271;0.08813554;1.337101;0.1293058;0;0;0
766919.7087;NotLabelled;NONE;16384;-0.4432133;-0.3130194;-0.8394358;-0.03047091;-18;-8;-24;1856;302;3325;65536;0.8632954;0.1869806;-0.2506925;-0.3961219;-14;24;17;2501;-1436;-2740;8192;0.5900277;-0.6456953;-0.232687;0.4252077;-5;19;9;2118;1251;13;32768;0.1952908;-0.885645;0.3725762;0.1966759;9;6;-5;1151;1639;2472;256;0.5567867;-0.2493075;-0.6720963;-0.4196676;7;-3;-5;-1235;2244;2341;128;-0.265928;0.199446;0.7390921;0.5858725;-11;-7;3;623;3023;-1510;4;-0.2728532;-0.09141274;-0.6906874;-0.6634349;3;-5;4;2473;3662;-194;16;0.611359;-0.5900277;0.4127424;0.3282548;-5;0;0;1023;3916;-1210;2;0.7113453;-0.6703601;-0.2022161;-0.06094183;4;-35;33;1233;3502;1339;8;0.2770083;-0.6108033;0.3573407;0.6499949;26;-9;-6;-1429;2631;1423;0.5535663;2.644362;0.8354559;0.5588344;3.124427;0.5763587;0.5634545;3.545443;0.3468325;0.4801584;4.162294;-0.04178071;0.1894711;4.381825;-0.2468531;-0.1373221;4.251416;-0.1190301;-0.8567995;4.464015;-0.6626132;0.01905698;4.577872;-0.3195265;0.7051345;4.45146;-0.2468552;1.002898;4.405389;-0.1190332;1.25432;3.859355;0.6338998;0.5267595;3.401287;1.032167;0.2413318;2.604107;0.8503302;0.08496301;1.336614;0.1362788;0;0;0;0.2413318;2.604107;0.8503302;0.08496301;1.336614;0.1362788;0;0;0
766940.7203;NotLabelled;NONE;16384;-0.4390582;-0.3144044;-0.8410488;-0.03185596;-19;-8;-19;2064;214;3099;65536;0.8629153;0.1883656;-0.2465374;-0.398892;-14;24;17;2513;-1384;-2312;8192;0.5914127;-0.6430085;-0.234072;0.4265928;-11;2;4;1996;1113;-1;32768;0.1952908;-0.8853363;0.3725762;0.1980609;-2;-1;-3;1193;1451;2454;256;0.5581717;-0.2493075;-0.6700782;-0.4210526;8;-5;-5;-1037;2186;2303;128;-0.265928;0.199446;0.7379919;0.5872576;-7;0;2;397;2875;-1654;4;-0.2797784;-0.09418282;-0.6888713;-0.6620498;-4;18;31;2127;3838;148;16;0.6122119;-0.5927978;0.4085872;0.3268698;-14;19;-2;489;4116;-436;2;0.7120084;-0.6703601;-0.2022161;-0.05263158;0;-37;27;1213;3402;1143;8;0.2839335;-0.6108033;0.3573407;0.6469998;27;40;-3;289;1923;1239;0.5478238;2.644211;0.8402228;0.553095;3.124569;0.5816697;0.557718;3.545845;0.3526208;0.4753315;4.163511;-0.03488827;0.1849526;4.383874;-0.2395055;-0.1420217;4.25377;-0.1118341;-0.8660724;4.462865;-0.6506837;0.0123242;4.580561;-0.3154768;0.7007283;4.452672;-0.2395079;0.9984465;4.405894;-0.1118379;1.254068;3.86407;0.6427218;0.5288781;3.397445;1.035336;0.235589;2.603939;0.8550476;0.0888299;1.336005;0.1397398;0;0;0;0.235589;2.603939;0.8550476;0.0888299;1.336005;0.1397398;0;0;0
766961.7091;NotLabelled;NONE;16384;-0.434903;-0.3157895;-0.8427383;-0.03047091;-18;-1;-16;1992;248;2753;65536;0.8628076;0.1883656;-0.2423823;-0.4016621;-11;19;16;2303;-1326;-2030;8192;0.5927978;-0.6422353;-0.232687;0.4265928;-14;-12;-2;2200;913;-177;32768;0.1939058;-0.8853298;0.3725762;0.199446;-11;-12;-1;1303;1387;2332;256;0.5595568;-0.2534626;-0.6673587;-0.4210526;8;-16;-2;-1091;2156;2439;128;-0.2645429;0.199446;0.737386;0.5886427;-7;-2;-3;901;3145;-1500;4;-0.2853186;-0.09556787;-0.687737;-0.6606648;-3;26;33;1227;3444;186;16;0.6117919;-0.5941828;0.4072022;0.3268698;-15;12;0;33;3952;-162;2;0.7111807;-0.6717451;-0.2022161;-0.04570637;6;-31;33;1707;2700;795;8;0.2880886;-0.6108033;0.3587258;0.6443913;30;-4;-2;735;2127;1141;0.5420896;2.634547;0.8536637;0.5473703;3.115765;0.596715;0.5520015;3.537803;0.3690732;0.4671715;4.156095;-0.01690763;0.1759007;4.375864;-0.2208949;-0.1505411;4.244226;-0.09343441;-0.8783359;4.449787;-0.6285864;0.0005924329;4.571438;-0.2961969;0.6914148;4.446595;-0.220897;0.9893487;4.400623;-0.09343719;1.248441;3.861885;0.662147;0.5236062;3.394395;1.05439;0.2298543;2.594225;0.8683427;0.08647811;1.33673;0.1341713;0;0;0;0.2298543;2.594225;0.8683427;0.08647811;1.33673;0.1341713;0;0;0
766982.7203;NotLabelled;NONE;16384;-0.432133;-0.3171745;-0.8436916;-0.02908587;-13;0;-15;1920;232;2713;65536;0.8629354;0.1883656;-0.2396122;-0.4030471;-11;7;13;2069;-1284;-1898;8192;0.5927978;-0.6418813;-0.2285319;0.4293629;-17;-21;-10;2538;937;-397;32768;0.1911357;-0.8844485;0.3753462;0.200831;-19;-24;0;1219;1379;2506;256;0.5609418;-0.2548476;-0.6665404;-0.4196676;8;-19;-1;-1253;2282;2427;128;-0.2645429;0.199446;0.737386;0.5886427;-6;-5;-6;1009;3381;-1686;4;-0.2908587;-0.09556787;-0.6867446;-0.6592798;2;21;28;521;3252;110;16;0.6109321;-0.5969529;0.4044321;0.3268698;-13;19;2;-231;3998;352;2;0.7084932;-0.6745152;-0.2036011;-0.0401662;8;-13;30;1635;2182;427;8;0.2908587;-0.6094183;0.3628809;0.6421278;36;5;0;-815;2509;1261;0.5356085;2.62732;0.8643301;0.5408987;3.109396;0.6089951;0.5455383;3.532194;0.3827683;0.4621432;4.152725;8.094311E-05;0.171305;4.37443;-0.2024231;-0.1553872;4.243132;-0.07525289;-0.8806897;4.447667;-0.6141697;-0.001901612;4.571148;-0.2820836;0.6870326;4.443587;-0.2026761;0.9849747;4.396051;-0.07581067;1.235856;3.857866;0.6829319;0.5090523;3.391724;1.073133;0.2233727;2.586949;0.8788624;0.0858674;1.337122;0.1306086;0;0;0;0.2233727;2.586949;0.8788624;0.0858674;1.337122;0.1306086;0;0;0
767003.7076;NotLabelled;NONE;16384;-0.4265928;-0.3171745;-0.8465527;-0.02770083;-5;3;-18;2160;-114;3117;65536;0.8649437;0.1855956;-0.2368421;-0.4016621;-10;-15;1;2471;-1080;-2264;8192;0.5927978;-0.6433455;-0.2243767;0.4293629;-16;-25;-18;2890;997;-491;32768;0.1869806;-0.883523;0.3781163;0.2036011;-26;-30;0;1141;1487;2918;256;0.5623268;-0.2576177;-0.6643047;-0.4196676;7;-16;0;-1295;2440;2517;128;-0.265928;0.199446;0.7368877;0.5886427;-1;-9;-8;833;3763;-1840;4;-0.2936288;-0.09695291;-0.6866999;-0.6578947;-6;6;22;815;3690;392;16;0.609423;-0.601108;0.4016621;0.3254848;-8;22;3;607;3970;602;2;0.7047861;-0.6772853;-0.2077562;-0.03739612;17;13;12;1349;3242;43;8;0.3033241;-0.6149584;0.3573407;0.6341358;5;42;11;1131;2527;3443;0.5303516;2.621811;0.8676922;0.5356418;3.103888;0.6123571;0.5402814;3.526686;0.3861304;0.4582586;4.147011;0.002814412;0.1679514;4.36906;-0.2000737;-0.1590586;4.238481;-0.07298121;-0.8888234;4.446402;-0.6045268;-0.01030084;4.571409;-0.2723098;0.683805;4.437272;-0.2000759;0.9815819;4.389307;-0.07298434;1.238;3.84681;0.6808207;0.5089337;3.383603;1.070294;0.2181159;2.581441;0.8822246;0.08599913;1.337865;0.12267;0;0;0;0.2181159;2.581441;0.8822246;0.08599913;1.337865;0.12267;0;0;0
767024.8581;NotLabelled;NONE;16384;-0.4238227;-0.3157895;-0.8484134;-0.02908587;-1;3;-19;2310;-342;3241;65536;0.8662591;0.1842105;-0.2354571;-0.400277;-10;-20;-1;3115;-1158;-2504;8192;0.5927978;-0.645257;-0.2132964;0.432133;-14;-39;-21;3434;1443;-733;32768;0.1759003;-0.8823867;0.3822715;0.2105263;-32;-37;2;1967;2037;3188;256;0.5637119;-0.2576177;-0.6640043;-0.4182825;4;-14;0;-1155;2830;2535;128;-0.265928;0.199446;0.7390921;0.5858725;3;-14;-10;395;3761;-1734;4;-0.2963989;-0.09695291;-0.6868354;-0.6565097;-15;19;21;1539;4054;588;16;0.6089665;-0.602493;0.400277;0.3254848;-7;-11;1;1395;4216;602;2;0.7029669;-0.6786703;-0.2091413;-0.03878116;17;10;6;597;3862;581;8;0.3033241;-0.6177285;0.3559557;0.6322195;-2;9;6;355;2931;3071;0.5326667;2.617433;0.8673393;0.5379568;3.099507;0.612;0.5425965;3.522303;0.3857698;0.4612642;4.144056;0.004625201;0.1711749;4.367205;-0.1973666;-0.1559592;4.236643;-0.07057489;-0.8893996;4.443327;-0.5975242;-0.0101023;4.567247;-0.2669545;0.6871229;4.434699;-0.1973689;0.9848899;4.385884;-0.0705781;1.23579;3.838285;0.6813926;0.5049661;3.37933;1.072601;0.2204309;2.577063;0.8818718;0.09061395;1.338321;0.1140657;0;0;0;0.2204309;2.577063;0.8818718;0.09061395;1.338321;0.1140657;0;0;0
767046.6303;NotLabelled;NONE;16384;-0.4210526;-0.3157895;-0.8496922;-0.03185596;0;2;-19;2674;-250;3319;65536;0.8678266;0.1828255;-0.2354571;-0.3975069;-9;-15;1;3503;-1328;-2760;8192;0.5914127;-0.6455393;-0.2077562;0.4362881;-14;-40;-19;4006;1629;-943;32768;0.1703601;-0.8809975;0.3864266;0.2132964;-28;-35;4;2143;2337;3040;256;0.5650969;-0.2576177;-0.663698;-0.4168975;2;-17;0;-951;2956;2523;128;-0.267313;0.2022161;0.7400296;0.5831025;10;-22;-14;155;3909;-1688;4;-0.3060942;-0.09833795;-0.6902706;-0.6481994;-15;20;36;2105;3622;160;16;0.6056434;-0.602493;0.4030471;0.3282548;-2;2;4;-299;4038;-656;2;0.7024755;-0.6786703;-0.2105263;-0.0401662;0;13;0;277;4130;723;8;0.3047091;-0.6177285;0.3545706;0.6323318;5;13;2;-9;3061;1975;0.5320958;2.614345;0.8685552;0.5373672;3.094703;0.610002;0.5419903;3.515979;0.3809531;0.4609456;4.136721;-0.001897216;0.1709825;4.359395;-0.2045931;-0.1562284;4.229257;-0.07756464;-0.892053;4.430951;-0.603122;-0.01243654;4.554732;-0.27335;0.6869471;4.426762;-0.2045953;0.9846574;4.378216;-0.07756829;1.236566;3.820429;0.6665361;0.5064894;3.373785;1.073088;0.219861;2.574073;0.8833799;0.09076975;1.33864;0.1101398;0;0;0;0.219861;2.574073;0.8833799;0.09076975;1.33864;0.1101398;0;0;0
767067.713;NotLabelled;NONE;16384;-0.4182825;-0.3144044;-0.851519;-0.033241;-1;4;-13;2744;-242;3391;65536;0.8691244;0.1814404;-0.234072;-0.3961219;-5;-9;2;3217;-1372;-3114;8192;0.5914127;-0.6467922;-0.200831;0.4376731;-13;-34;-15;4372;1875;-1085;32768;0.166205;-0.880235;0.3891967;0.2146814;-21;-28;7;2369;2207;2928;256;0.566482;-0.2590028;-0.6628462;-0.4155124;1;-17;2;-793;3226;2487;128;-0.2686981;0.2063712;0.7405583;0.5803324;3;-29;-15;95;4081;-1364;4;-0.3116343;-0.1024931;-0.6884841;-0.6468144;-3;7;39;1769;3054;172;16;0.6073104;-0.602493;0.4016621;0.3268698;4;22;9;-463;4272;-576;2;0.7037306;-0.6772853;-0.2105263;-0.04155125;-5;3;2;545;3890;205;8;0.3047091;-0.6177285;0.3573407;0.6307705;14;-24;2;915;3669;1587;0.5537374;2.600144;0.8830775;0.5589965;3.079371;0.6224325;0.5636085;3.499644;0.3915489;0.4828545;4.119372;0.006999552;0.1930187;4.341572;-0.1963975;-0.1342696;4.211859;-0.06913438;-0.8713949;4.407502;-0.595156;0.007780202;4.530788;-0.2640246;0.7090002;4.408809;-0.1963995;1.006654;4.360531;-0.06913733;1.258827;3.801221;0.6737328;0.5276157;3.360602;1.084795;0.2415034;2.559937;0.8980925;0.09542142;1.338683;0.105592;0;0;0;0.2415034;2.559937;0.8980925;0.09542142;1.338683;0.105592;0;0;0
