SEP=;
index;label;segment;RightUpperArm_boneIndex;RightUpperArm_quat9x_w;RightUpperArm_quat9x_x;RightUpperArm_quat9x_y;RightUpperArm_quat9x_z;RightUpperArm_gyroscope_x;RightUpperArm_gyroscope_y;RightUpperArm_gyroscope_z;RightUpperArm_accelerometer_x;RightUpperArm_accelerometer_y;RightUpperArm_accelerometer_z;RightLowerArm_boneIndex;RightLowerArm_quat9x_w;RightLowerArm_quat9x_x;RightLowerArm_quat9x_y;RightLowerArm_quat9x_z;RightLowerArm_gyroscope_x;RightLowerArm_gyroscope_y;RightLowerArm_gyroscope_z;RightLowerArm_accelerometer_x;RightLowerArm_accelerometer_y;RightLowerArm_accelerometer_z;LeftUpperArm_boneIndex;LeftUpperArm_quat9x_w;LeftUpperArm_quat9x_x;LeftUpperArm_quat9x_y;LeftUpperArm_quat9x_z;LeftUpperArm_gyroscope_x;LeftUpperArm_gyroscope_y;LeftUpperArm_gyroscope_z;LeftUpperArm_accelerometer_x;LeftUpperArm_accelerometer_y;LeftUpperArm_accelerometer_z;LeftLowerArm_boneIndex;LeftLowerArm_quat9x_w;LeftLowerArm_quat9x_x;LeftLowerArm_quat9x_y;LeftLowerArm_quat9x_z;LeftLowerArm_gyroscope_x;LeftLowerArm_gyroscope_y;LeftLowerArm_gyroscope_z;LeftLowerArm_accelerometer_x;LeftLowerArm_accelerometer_y;LeftLowerArm_accelerometer_z;Chest_boneIndex;Chest_quat9x_w;Chest_quat9x_x;Chest_quat9x_y;Chest_quat9x_z;Chest_gyroscope_x;Chest_gyroscope_y;Chest_gyroscope_z;Chest_accelerometer_x;Chest_accelerometer_y;Chest_accelerometer_z;Spine_boneIndex;Spine_quat9x_w;Spine_quat9x_x;Spine_quat9x_y;Spine_quat9x_z;Spine_gyroscope_x;Spine_gyroscope_y;Spine_gyroscope_z;Spine_accelerometer_x;Spine_accelerometer_y;Spine_accelerometer_z;RightUpperLeg_boneIndex;RightUpperLeg_quat9x_w;RightUpperLeg_quat9x_x;RightUpperLeg_quat9x_y;RightUpperLeg_quat9x_z;RightUpperLeg_gyroscope_x;RightUpperLeg_gyroscope_y;RightUpperLeg_gyroscope_z;RightUpperLeg_accelerometer_x;RightUpperLeg_accelerometer_y;RightUpperLeg_accelerometer_z;RightLowerLeg_boneIndex;RightLowerLeg_quat9x_w;RightLowerLeg_quat9x_x;RightLowerLeg_quat9x_y;RightLowerLeg_quat9x_z;RightLowerLeg_gyroscope_x;RightLowerLeg_gyroscope_y;RightLowerLeg_gyroscope_z;RightLowerLeg_accelerometer_x;RightLowerLeg_accelerometer_y;RightLowerLeg_accelerometer_z;LeftUpperLeg_boneIndex;LeftUpperLeg_quat9x_w;LeftUpperLeg_quat9x_x;LeftUpperLeg_quat9x_y;LeftUpperLeg_quat9x_z;LeftUpperLeg_gyroscope_x;LeftUpperLeg_gyroscope_y;LeftUpperLeg_gyroscope_z;LeftUpperLeg_accelerometer_x;LeftUpperLeg_accelerometer_y;LeftUpperLeg_accelerometer_z;LeftLowerLeg_boneIndex;LeftLowerLeg_quat9x_w;LeftLowerLeg_quat9x_x;LeftLowerLeg_quat9x_y;LeftLowerLeg_quat9x_z;LeftLowerLeg_gyroscope_x;LeftLowerLeg_gyroscope_y;LeftLowerLeg_gyroscope_z;LeftLowerLeg_accelerometer_x;LeftLowerLeg_accelerometer_y;LeftLowerLeg_accelerometer_z;pelvis_x;pelvis_y;pelvis_z;lowerSpine_x;lowerSpine_y;lowerSpine_z;middleSpine_x;middleSpine_y;middleSpine_z;upperSpine_x;upperSpine_y;upperSpine_z;rightClavicle_x;rightClavicle_y;rightClavicle_z;rightShoulder_x;rightShoulder_y;rightShoulder_z;rightElbow_x;rightElbow_y;rightElbow_z;rightWrist_x;rightWrist_y;rightWrist_z;leftClavicle_x;leftClavicle_y;leftClavicle_z;leftShoulder_x;leftShoulder_y;leftShoulder_z;leftElbow_x;leftElbow_y;leftElbow_z;leftWrist_x;leftWrist_y;leftWrist_z;rightHip_x;rightHip_y;rightHip_z;rightKnee_x;rightKnee_y;rightKnee_z;rightAnkle_x;rightAnkle_y;rightAnkle_z;leftHip_x;leftHip_y;leftHip_z;leftKnee_x;leftKnee_y;leftKnee_z;leftAnkle_x;leftAnkle_y;leftAnkle_z;
541231.8993;NotLabelled;NONE;16384;-0.1800554;0.3448753;-0.6653723;-0.6371191;0;-21;8;-992;4380;335;65536;0.2963989;-0.3199446;0.6260388;0.6464198;-11;-17;-19;377;4196;-31;8192;0.6218836;-0.6760124;0.1855956;0.3490305;-11;-3;5;1332;4053;-283;32768;0.6094183;-0.6768292;0.2756233;0.3074792;6;1;-12;-141;4115;190;256;0.632964;0.03601108;-0.769303;0.07894737;7;6;-5;41;-928;4241;128;-0.602493;0.08725762;0.7886788;0.08587258;-5;3;0;-369;829;-4232;4;0.3074792;0.3310249;-0.601108;-0.6592027;20;25;-1;-3681;2330;-18;16;0.1731302;-0.7214232;0.01385042;0.6703601;-7;20;-22;-555;870;3954;2;0.5304709;-0.7362561;-0.2963989;0.2977839;-15;11;-7;3249;2060;-1209;8;-0.06509695;-0.6481994;0.2686981;0.7095077;-14;34;-2;2353;1111;3291;0.6800474;1.964273;1.683537;0.6799611;1.956387;1.138047;0.6798629;1.947433;0.6585912;0.6743984;1.824847;-0.06487638;0.4118568;1.744322;-0.3800518;0.07470696;1.84514;-0.2523617;-0.00752408;0.9465435;-0.04238255;0;0;0;0.9316845;1.721147;-0.3800544;1.224134;1.793898;-0.2523661;1.27966;0.8597276;-0.02319586;1.226237;-0.08232582;0.06322885;0.3682152;1.960698;1.729146;0.6762518;1.09813;2.870177;0.8647648;0.7333467;4.152255;0.3682152;1.960698;1.729146;0.6762518;1.09813;2.870177;0.8647648;0.7333467;4.152255
541252.811;NotLabelled;NONE;16384;-0.1786704;0.3421052;-0.6671732;-0.6371191;-3;-23;4;-1044;4108;135;65536;0.2950138;-0.3157895;0.6260388;0.6490911;-10;-13;-16;-193;4040;155;8192;0.6246537;-0.6738338;0.1842105;0.3490305;-15;6;4;1408;4023;-583;32768;0.6108033;-0.6761429;0.2742382;0.3074792;7;4;-8;-203;4173;430;256;0.634349;0.03601108;-0.7683024;0.07756232;7;5;0;-11;-766;4079;128;-0.602493;0.08725762;0.7885267;0.08725762;-6;16;-4;-397;941;-4064;4;0.3074792;0.33241;-0.5969529;-0.6622744;18;15;-6;-3743;2476;-140;16;0.1717452;-0.7205132;0.01108033;0.6717451;-7;4;-23;-343;942;4270;2;0.5318559;-0.7352563;-0.2977839;0.2963989;-14;19;-6;3497;2104;-1275;8;-0.06371191;-0.6495845;0.2645429;0.709928;-11;31;-1;2453;1247;3577;0.66205;1.966218;1.694018;0.6619636;1.958331;1.148528;0.6618654;1.949378;0.669072;0.6564009;1.826791;-0.0543955;0.3938594;1.746266;-0.3695709;0.05670948;1.847085;-0.2418808;-0.01854982;0.9465992;-0.03744925;0;0;0;0.913687;1.723091;-0.3695735;1.206137;1.795842;-0.2418851;1.266739;0.8617351;-0.01374686;1.2184;-0.08050847;0.07358873;0.3502179;1.962643;1.739627;0.6652328;1.100929;2.879396;0.8650883;0.7396419;4.160747;0.3502179;1.962643;1.739627;0.6652328;1.100929;2.879396;0.8650883;0.7396419;4.160747
541273.7329;NotLabelled;NONE;16384;-0.1772853;0.3379501;-0.6696558;-0.6371191;-5;-19;6;-558;3886;-147;65536;0.2963989;-0.3144044;0.6246537;0.6504655;-10;-9;-11;-353;4038;115;8192;0.6288089;-0.6707134;0.1814404;0.3490305;-10;12;2;1490;3987;-619;32768;0.6135734;-0.6741924;0.2728532;0.3074792;7;2;0;9;4099;278;256;0.634349;0.03601108;-0.768577;0.07479224;7;6;4;195;-674;4041;128;-0.601108;0.08587258;0.7894239;0.0900277;-5;19;-9;-317;1039;-4156;4;0.3088643;0.33518;-0.5914127;-0.6651978;16;7;-12;-3785;2702;-274;16;0.16759;-0.7162928;0.01108033;0.6772853;-3;-10;-21;-651;1040;4310;2;0.534626;-0.7332392;-0.299169;0.2950138;-10;19;-6;3561;2358;-1289;8;-0.06094183;-0.6509695;0.2603878;0.7104385;-8;34;-1;2345;1113;3647;0.6594033;1.963142;1.699259;0.6593299;1.956462;1.153753;0.6592431;1.948568;0.674278;0.654027;1.827586;-0.04946142;0.3916339;1.747378;-0.3648405;0.05432433;1.847416;-0.2369593;-0.0229713;0.9466059;-0.03473681;0;0;0;0.9114949;1.724966;-0.364844;1.203826;1.797861;-0.2369653;1.26999;0.8636835;-0.01067162;1.224572;-0.07873476;0.07634342;0.3475702;1.959466;1.744852;0.670513;1.101649;2.885341;0.8698701;0.7484314;4.169016;0.3475702;1.959466;1.744852;0.670513;1.101649;2.885341;0.8698701;0.7484314;4.169016
541293.9022;NotLabelled;NONE;16384;-0.1772853;0.33518;-0.6697288;-0.6385041;-3;-14;9;-264;4104;-337;65536;0.2963989;-0.3130194;0.6232687;0.652459;-12;-6;-7;-113;4266;307;8192;0.6301939;-0.6708764;0.1786704;0.3476454;-11;20;2;1296;4227;-505;32768;0.6149584;-0.6735604;0.2728532;0.3060942;7;10;2;-159;4317;424;256;0.632964;0.03601108;-0.7699822;0.07202215;6;8;9;125;-702;4387;128;-0.5969529;0.08310249;0.792383;0.09418282;-11;17;-9;65;1077;-4526;4;0.3102493;0.3365651;-0.5900277;-0.6650839;15;8;-12;-3395;2534;-420;16;0.166205;-0.7139872;0.01108033;0.6800554;-2;-4;-19;-775;1058;4068;2;0.5401662;-0.7291201;-0.3033241;0.2908587;-11;28;-3;3703;2720;-1345;8;-0.0567867;-0.6523545;0.2562327;0.711023;-3;43;0;2157;1193;3871;0.6560194;1.959295;1.706264;0.6559625;1.954071;1.160742;0.65589;1.947456;0.6812482;0.6512261;1.829567;-0.04300511;0.3891724;1.749788;-0.3587757;0.05148912;1.848082;-0.2305285;-0.02747715;0.9465795;-0.03206835;0;0;0;0.9091095;1.729215;-0.3587775;1.201159;1.802593;-0.2305329;1.277104;0.8686414;-0.006387353;1.237804;-0.07425165;0.07844019;0.344185;1.955498;1.751838;0.6817768;1.107208;2.895209;0.8977277;0.7637908;4.178858;0.344185;1.955498;1.751838;0.6817768;1.107208;2.895209;0.8977277;0.7637908;4.178858
541314.7708;NotLabelled;NONE;16384;-0.1786704;0.33241;-0.6707406;-0.6385041;0;-2;9;-320;4176;-129;65536;0.2950138;-0.3116343;0.6218836;0.6550661;-14;-2;-5;11;4072;141;8192;0.632964;-0.6700653;0.1772853;0.3448753;-9;28;-3;432;4233;-1077;32768;0.6163435;-0.6734821;0.2714681;0.3047091;12;21;-3;235;4477;758;256;0.6315789;0.03739612;-0.7711809;0.07063711;5;8;11;9;-754;4317;128;-0.5955678;0.08171745;0.7932347;0.09695291;-4;14;-10;177;1123;-4360;4;0.3102493;0.3379501;-0.5858725;-0.6680483;18;16;-9;-3173;2518;-526;16;0.166205;-0.7126856;0.009695291;0.6814404;-1;11;-16;-939;1138;3834;2;0.5415512;-0.7280341;-0.3060942;0.2880886;-9;30;-3;3811;2820;-1021;8;-0.05124654;-0.6537396;0.2506925;0.7121457;-1;59;0;1769;1289;3825;0.6470485;1.95528;1.710382;0.64701;1.951773;1.164847;0.6469539;1.946667;0.6853341;0.6428489;1.831829;-0.03941226;0.3811492;1.752387;-0.355561;0.04307383;1.848848;-0.2269552;-0.03246761;0.9464488;-0.03125247;0;0;0;0.901161;1.733799;-0.3555638;1.192909;1.807748;-0.2269608;1.271316;0.874146;-0.002207637;1.233341;-0.0690639;0.0796454;0.3352124;1.951339;1.755934;0.6796222;1.108558;2.901342;0.9090676;0.7687607;4.183614;0.3352124;1.951339;1.755934;0.6796222;1.108558;2.901342;0.9090676;0.7687607;4.183614
541335.958;NotLabelled;NONE;16384;-0.1800554;0.3310249;-0.6697346;-0.6398892;-1;-4;-1;-1096;4004;-337;65536;0.2950138;-0.3116343;0.6177285;0.6589859;-9;-2;-13;63;4136;333;8192;0.632964;-0.6725515;0.1759003;0.3407202;0;28;-16;-318;4165;-1541;32768;0.6204986;-0.6725757;0.267313;0.301939;15;41;-17;809;4497;896;256;0.6301939;0.03739612;-0.7725615;0.06786703;7;9;13;-285;-766;4399;128;-0.5955678;0.08171745;0.7930642;0.09833795;-1;-6;-12;335;1125;-3890;4;0.3088643;0.3393352;-0.5831025;-0.6704074;14;32;-7;-3243;2490;-600;16;0.1703601;-0.7104076;0.006925208;0.6828254;0;40;-12;-1077;1064;3858;2;0.5484765;-0.7226506;-0.3116343;0.2825485;-14;43;-7;4113;2848;-527;8;-0.03185596;-0.6606648;0.234072;0.712543;7;91;1;1345;1427;3757;0.6407363;1.955586;1.714491;0.6407143;1.953575;1.168947;0.6406729;1.949784;0.6894225;0.637056;1.835176;-0.03536332;0.3756939;1.754749;-0.3515424;0.03721721;1.849754;-0.2229087;-0.03782732;0.9462128;-0.03235704;0;0;0;0.8957788;1.738333;-0.3515447;1.187214;1.813455;-0.2229124;1.268668;0.8791132;-0.00235486;1.23238;-0.0642575;0.07840586;0.3288989;1.951521;1.760021;0.6888322;1.113002;2.903784;0.927711;0.7762868;4.185146;0.3288989;1.951521;1.760021;0.6888322;1.113002;2.903784;0.927711;0.7762868;4.185146
541356.7362;NotLabelled;NONE;16384;-0.1786704;0.3310249;-0.6701054;-0.6398892;-2;-3;-5;-918;4002;-647;65536;0.2963989;-0.3102493;0.6163435;0.6603134;-4;0;-13;-179;4238;403;8192;0.632964;-0.6749673;0.1772853;0.33518;9;16;-35;-810;4541;-1473;32768;0.6260388;-0.6713952;0.2603878;0.299169;16;57;-32;913;4773;984;256;0.6288089;0.0401662;-0.7737884;0.06509695;10;12;18;-585;-670;4287;128;-0.5927978;0.08448754;0.7946748;0.09972299;-27;-12;-17;345;1015;-3986;4;0.3060942;0.3434903;-0.5789474;-0.6731573;9;36;-7;-3335;2554;-794;16;0.1759003;-0.710421;0;0.6814404;4;59;-7;-693;1008;4172;2;0.5526316;-0.7192861;-0.3157895;0.2783934;-10;56;-8;3877;2854;-357;8;-0.02077562;-0.6634349;0.2257618;0.7130597;11;80;0;1603;1625;3929;0.625262;1.952053;1.715292;0.6252531;1.951258;1.169746;0.6252232;1.948537;0.6902136;0.6221263;1.837002;-0.03505391;0.3611084;1.756932;-0.3516074;0.0222588;1.850104;-0.2226158;-0.04844053;0.9456437;-0.03478324;0;0;0;0.8812518;1.742487;-0.3516099;1.172385;1.818165;-0.2226201;1.248797;0.8831191;-0.00324738;1.218948;-0.06068611;0.07503319;0.3134234;1.947886;1.760806;0.684037;1.11064;2.902087;0.9360524;0.7720532;4.180436;0.3134234;1.947886;1.760806;0.684037;1.11064;2.902087;0.9360524;0.7720532;4.180436
541379.4704;NotLabelled;NONE;16384;-0.1786704;0.33241;-0.6694194;-0.6398892;3;7;-2;-616;4142;-665;65536;0.2977839;-0.3088643;0.6149584;0.6616296;0;1;-8;-395;4312;337;8192;0.6288089;-0.6814179;0.1828255;0.3268698;-2;-11;-26;1370;5111;1021;32768;0.632964;-0.6708493;0.2479224;0.2963989;0;17;-16;-523;4763;-300;256;0.6274238;0.04155125;-0.7750666;0.06232687;11;16;20;-297;-758;4075;128;-0.5914127;0.08587258;0.7952057;0.1024931;-21;12;-14;247;933;-4228;4;0.301939;0.3518005;-0.5734072;-0.6754801;1;37;-17;-3507;2524;-1044;16;0.1814404;-0.7090209;-0.002770083;0.6814404;2;3;-3;85;1022;4216;2;0.5567867;-0.7156458;-0.3227147;0.2714681;-8;65;-8;3667;2908;73;8;-0.01246537;-0.666205;0.2216066;0.7119733;14;56;2;1593;1451;4007;0.6198574;1.949959;1.716324;0.6198819;1.95219;1.170781;0.6198812;1.952129;0.6912414;0.6176935;1.841138;-0.03411227;0.3573335;1.759214;-0.3507338;0.01774266;1.849555;-0.2216768;-0.05294563;0.945504;-0.03187564;0;0;0;0.8775764;1.748958;-0.3507366;1.168088;1.826879;-0.2216816;1.236592;0.8898544;-0.008215666;1.216951;-0.05428255;0.06929469;0.3080161;1.945539;1.761795;0.6883594;1.112756;2.903141;0.9445074;0.7762983;4.18123;0.3080161;1.945539;1.761795;0.6883594;1.112756;2.903141;0.9445074;0.7762983;4.18123
541399.7269;NotLabelled;NONE;16384;-0.1786704;0.33241;-0.6680927;-0.6412742;3;7;4;-612;4218;-309;65536;0.299169;-0.3088643;0.6149584;0.6610045;0;11;-2;-451;4280;251;8192;0.6288089;-0.6800018;0.1855956;0.3282548;-7;-14;3;1762;4515;445;32768;0.632964;-0.6708493;0.2479224;0.2963989;-2;-9;1;-819;4829;520;256;0.6246537;0.04293629;-0.7775476;0.05817174;13;19;17;-125;-754;3657;128;-0.5886427;0.08587258;0.7968974;0.1052632;-10;13;-11;469;893;-3526;4;0.299169;0.3573407;-0.5692521;-0.6773165;0;37;-20;-3425;2532;-1370;16;0.1800554;-0.7093779;-0.001385042;0.6814404;0;-4;4;-451;1158;3978;2;0.5609418;-0.7118278;-0.3296399;0.2645429;-7;72;-6;3175;2800;159;8;-0.005540166;-0.66759;0.2174515;0.7120447;15;44;4;1129;1277;3861;0.6136502;1.944387;1.71747;0.6137112;1.949961;1.171952;0.6137427;1.952837;0.6924208;0.6122362;1.843681;-0.03321344;0.3523758;1.761027;-0.3500554;0.01225273;1.849032;-0.2207858;-0.05742345;0.9453373;-0.02892542;0;0;0;0.8726702;1.753845;-0.3500584;1.162712;1.833151;-0.2207905;1.20914;0.8930621;-0.01499331;1.204465;-0.05086136;0.06731236;0.3018058;1.939689;1.762893;0.6890827;1.117088;2.90928;0.954412;0.7757993;4.184211;0.3018058;1.939689;1.762893;0.6890827;1.117088;2.90928;0.954412;0.7757993;4.184211
541419.7048;NotLabelled;NONE;16384;-0.1814404;0.33241;-0.6673458;-0.6412742;2;14;9;-124;4304;-89;65536;0.301939;-0.3102493;0.6135734;0.6603832;-1;13;0;37;4044;79;8192;0.6288089;-0.6782774;0.1869806;0.3310249;5;-15;15;1478;4253;-667;32768;0.6315789;-0.6716409;0.2493075;0.2963989;-6;-2;26;1627;4117;1694;256;0.6246537;0.04432133;-0.777957;0.05124654;12;17;2;-333;174;3281;128;-0.5858725;0.08310249;0.7984798;0.1108033;-4;9;-5;1009;1809;-3584;4;0.2963989;0.3614958;-0.566482;-0.6786506;0;33;-17;-3071;2666;-1266;16;0.1814404;-0.7103536;-0.001385042;0.6800554;-1;21;14;-1135;1296;3620;2;0.566482;-0.706215;-0.3365651;0.2590028;-6;63;-3;2587;2386;227;8;0;-0.6703601;0.2146814;0.7103022;15;43;5;779;929;3775;0.6081707;1.9405;1.719248;0.6082587;1.948495;1.173759;0.6083138;1.9535;0.6942454;0.6076899;1.847757;-0.03189558;0.3484994;1.764549;-0.3491404;0.00768815;1.849255;-0.2194805;-0.05719222;0.9454205;-0.0265989;0;0;0;0.8688343;1.761475;-0.349143;1.158237;1.842459;-0.219484;1.207269;0.9018364;-0.01675105;1.203157;-0.04208684;0.0655849;0.2963241;1.935601;1.764634;0.6947663;1.120153;2.912304;0.9674907;0.7787943;4.185656;0.2963241;1.935601;1.764634;0.6947663;1.120153;2.912304;0.9674907;0.7787943;4.185656
541440.7354;NotLabelled;NONE;16384;-0.1869806;0.33241;-0.6658147;-0.6412742;-4;-2;4;-458;3968;-637;65536;0.301939;-0.3116343;0.6135734;0.6597307;4;4;7;-383;4068;571;8192;0.6274238;-0.67896;0.1842105;0.333795;9;0;13;328;3207;-967;32768;0.6288089;-0.675446;0.2493075;0.2936288;-18;15;19;113;2793;1778;256;0.6232687;0.04570637;-0.7791644;0.04847645;4;15;1;-709;274;3325;128;-0.5858725;0.08171745;0.7982335;0.1135734;0;0;-4;1287;1799;-3832;4;0.2936288;0.365651;-0.5637119;-0.6799341;-3;30;-10;-2955;2762;-1022;16;0.1869806;-0.7128579;-0.005540166;0.6759003;-3;59;22;-1261;1488;3422;2;0.5706371;-0.7006668;-0.3462604;0.2520775;0;28;5;1655;1986;125;8;0.009695291;-0.6731302;0.2077562;0.7096754;9;28;4;621;1157;3447;0.6046016;1.933683;1.724991;0.6047232;1.94476;1.179556;0.6048079;1.952473;0.7000788;0.6052972;1.853333;-0.02699286;0.3470094;1.770206;-0.3449948;0.005305871;1.85003;-0.2145878;-0.05851724;0.9453762;-0.02522652;0;0;0;0.867347;1.772774;-0.3449974;1.155861;1.855708;-0.2145932;1.208471;0.9153004;-0.01176441;1.200976;-0.02858782;0.07073665;0.2927523;1.928528;1.770329;0.6919323;1.117066;2.920565;0.9605158;0.7725799;4.193955;0.2927523;1.928528;1.770329;0.6919323;1.117066;2.920565;0.9605158;0.7725799;4.193955
541460.7094;NotLabelled;NONE;16384;-0.1869806;0.33241;-0.6644779;-0.6426592;3;9;7;-308;3994;-563;65536;0.3033241;-0.3130194;0.6135734;0.6584383;7;12;10;-203;4444;225;8192;0.6260388;-0.679556;0.1842105;0.33518;14;-12;-8;-154;857;-209;32768;0.6274238;-0.6789402;0.2465374;0.2908587;-13;30;7;-1243;589;-2120;256;0.6232687;0.04847645;-0.7791644;0.04570637;4;11;3;-1527;-84;4413;128;-0.5844875;0.08448754;0.7989601;0.1135734;-7;-6;-5;1273;1583;-4170;4;0.2894737;0.368421;-0.5623268;-0.6813658;-10;24;-3;-3127;2506;-1014;16;0.1939058;-0.7148452;-0.01246537;0.6717451;-5;71;23;-945;1266;3406;2;0.5706371;-0.7004778;-0.3476454;0.2506925;5;5;7;1573;2358;467;8;0.01246537;-0.6745152;0.2063712;0.7087206;4;9;4;541;1573;3273;0.6022655;1.933513;1.730489;0.6024044;1.946147;1.185088;0.6025043;1.95523;0.7056351;0.6035541;1.857989;-0.02169257;0.345749;1.774178;-0.3399063;0.003587198;1.851658;-0.2092879;-0.05730258;0.94541;-0.02670623;0;0;0;0.8660625;1.779796;-0.3399093;1.154089;1.86408;-0.2092928;1.209295;0.925468;0.001026988;1.192573;-0.01812077;0.08558202;0.2904148;1.928228;1.775803;0.6942776;1.120789;2.927236;0.9573386;0.7719932;4.200605;0.2904148;1.928228;1.775803;0.6942776;1.120789;2.927236;0.9573386;0.7719932;4.200605
541501.7576;NotLabelled;NONE;16384;-0.1939058;0.3365651;-0.6603889;-0.6426592;0;28;2;-1514;4266;283;65536;0.3033241;-0.3157895;0.6163435;0.6545168;11;6;3;281;3988;17;8192;0.634349;-0.671491;0.1828255;0.3365651;-18;14;31;2656;3753;575;32768;0.6301939;-0.67654;0.2493075;0.2880886;7;-1;45;-1191;4029;1608;256;0.6218836;0.04847645;-0.7804276;0.04293629;-3;-23;8;-1241;-432;3471;128;-0.5844875;0.08033241;0.7989902;0.1163435;6;0;-6;755;1081;-3638;4;0.2783934;0.3753462;-0.5609418;-0.6833422;-6;22;7;-3279;2480;-1174;16;0.2091413;-0.722786;-0.03185596;0.6578947;-16;49;25;-2101;1436;3202;2;0.567867;-0.7025957;-0.3448753;0.2548476;0;-29;2;2247;2712;287;8;0.01246537;-0.6745152;0.2077562;0.7083158;-5;-11;1;197;1173;3245;0.5997537;1.934218;1.7302;0.5999123;1.948655;1.184844;0.6000296;1.959324;0.7054229;0.6018234;1.862717;-0.02198768;0.3446723;1.777178;-0.3402708;0.001920767;1.851885;-0.2095827;-0.05554796;0.9455221;-0.02646383;0;0;0;0.8649265;1.786839;-0.3402739;1.152292;1.873246;-0.2095878;1.206476;0.9352498;0.003722072;1.184008;-0.007884741;0.09193027;0.2879012;1.928783;1.775484;0.6896122;1.119645;2.926476;0.9440974;0.7689826;4.201075;0.2879012;1.928783;1.775484;0.6896122;1.119645;2.926476;0.9440974;0.7689826;4.201075
541523.7138;NotLabelled;NONE;16384;-0.1952908;0.3379501;-0.6606199;-0.6412742;-5;3;0;-1308;3604;119;65536;0.3047091;-0.3157895;0.6177285;0.6525648;12;9;0;109;3926;91;8192;0.6371191;-0.6682506;0.1772853;0.3407202;-9;-2;46;1130;4443;-1869;32768;0.6288089;-0.6786746;0.2548476;0.2811634;13;-8;60;357;5883;1036;256;0.6218836;0.04293629;-0.7802506;0.05124654;-11;-31;-8;-61;114;3757;128;-0.5844875;0.08310249;0.7994942;0.1108033;7;-37;-5;517;1407;-4002;4;0.2756233;0.3767313;-0.5609418;-0.6837029;-10;18;12;-3461;2716;-962;16;0.2146814;-0.7257631;-0.0401662;0.6523545;-15;72;22;-2225;1344;3278;2;0.566482;-0.7040563;-0.3421052;0.2576177;0;-27;2;2591;2170;-251;8;0.008310249;-0.6731302;0.2077562;0.709693;-11;-20;0;605;1067;3459;0.6040342;1.934227;1.732056;0.60419;1.948428;1.186694;0.6043048;1.958889;0.7072687;0.6063846;1.865468;-0.0205574;0.3495203;1.780371;-0.3391902;0.006507952;1.85324;-0.2081488;-0.04601967;0.9459896;-0.02796084;0;0;0;0.8697352;1.791954;-0.3391931;1.156792;1.878851;-0.2081544;1.232119;0.9401767;-0.004461884;1.211335;-0.003873825;0.07379556;0.292182;1.928812;1.777345;0.6869724;1.112887;2.925938;0.9135008;0.7623129;4.205825;0.292182;1.928812;1.777345;0.6869724;1.112887;2.925938;0.9135008;0.7623129;4.205825
541544.7019;NotLabelled;NONE;16384;-0.1952908;0.3379501;-0.6619615;-0.6398892;-8;-1;-2;-866;3646;-269;65536;0.3047091;-0.3157895;0.6191136;0.6512509;12;1;0;19;4086;283;8192;0.6385041;-0.6644361;0.1759003;0.3462604;-5;-6;30;-34;6533;-645;32768;0.6274238;-0.6784937;0.2631579;0.2770083;4;-15;43;1617;6069;438;256;0.6218836;0.0401662;-0.7801142;0.05540166;-8;-23;-8;243;-466;4779;128;-0.5844875;0.08725762;0.7994306;0.1080332;-4;-29;-1;-251;1071;-4524;4;0.2714681;0.3767313;-0.5637119;-0.6830868;-18;2;11;-3717;2438;-1234;16;0.2229917;-0.7276123;-0.04986149;0.6468144;-12;74;20;-1801;1084;3770;2;0.5650969;-0.7054894;-0.3393352;0.2603878;5;-25;3;2545;2112;-95;8;0.004155125;-0.6731302;0.2105263;0.7089127;-15;-37;-3;967;1335;3581;0.612179;1.934502;1.734823;0.6123004;1.945576;1.189389;0.612385;1.953288;0.709911;0.6127042;1.855419;-0.01733297;0.3542759;1.77328;-0.3354775;0.01270732;1.853448;-0.2049282;-0.0420908;0.9462523;-0.02514236;0;0;0;0.874617;1.774977;-0.3354804;1.16327;1.857201;-0.2049332;1.252729;0.9210999;0.004799128;1.218466;-0.02340007;0.07213271;0.3003296;1.929347;1.780161;0.6929699;1.110905;2.9277;0.9078053;0.7619481;4.210042;0.3003296;1.929347;1.780161;0.6929699;1.110905;2.9277;0.9078053;0.7619481;4.210042
541565.7833;NotLabelled;NONE;16384;-0.1952908;0.3379501;-0.6619615;-0.6398892;0;5;1;-52;4348;-201;65536;0.3074792;-0.3171745;0.6204986;0.6479493;9;2;13;-325;4230;131;8192;0.6398892;-0.6638309;0.1731302;0.3462604;-2;15;8;-1250;6491;-449;32768;0.6260388;-0.6803572;0.2645429;0.2742382;-6;6;14;1751;4909;276;256;0.6232687;0.03878116;-0.7789785;0.0567867;1;-10;-4;697;-1246;4903;128;-0.5844875;0.08864266;0.7992782;0.1080332;-8;0;6;-751;647;-4464;4;0.2714681;0.3753462;-0.5650969;-0.6827047;-14;-8;4;-3845;2080;-1682;16;0.2257618;-0.728707;-0.0567867;0.6440443;-11;40;18;-1537;648;4070;2;0.5609418;-0.709236;-0.33518;0.2645429;8;-36;3;2773;2966;51;8;-0.008310249;-0.6689751;0.2174515;0.7107166;-16;-53;1;1167;1465;3669;0.6200567;1.931195;1.735915;0.6201808;1.942516;1.190486;0.6202677;1.950446;0.7110115;0.6196429;1.850358;-0.01593029;0.3604396;1.769708;-0.3338246;0.01965064;1.853516;-0.2035244;-0.03858385;0.9464233;-0.02430092;0;0;0;0.8807734;1.766461;-0.333828;1.170197;1.846336;-0.2035298;1.271525;0.9121799;0.009447575;1.226526;-0.03268051;0.0642345;0.3082072;1.926019;1.78125;0.6913244;1.09847;2.925471;0.8972284;0.74845;4.208989;0.3082072;1.926019;1.78125;0.6913244;1.09847;2.925471;0.8972284;0.74845;4.208989
541587.7082;NotLabelled;NONE;16384;-0.1980609;0.3379501;-0.661138;-0.6398892;0;9;6;-302;4220;63;65536;0.3060942;-0.3185596;0.6218836;0.6465964;5;3;17;37;4162;-51;8192;0.6398892;-0.6638309;0.1731302;0.3462604;5;-2;-9;-1786;4795;-1075;32768;0.6246537;-0.6816291;0.2645429;0.2742382;-10;-2;-9;1091;4445;330;256;0.6232687;0.03739612;-0.7790462;0.0567867;10;-2;-1;483;-1240;4625;128;-0.5858725;0.08864266;0.7980748;0.1094183;-10;13;9;-643;969;-4312;4;0.2728532;0.3753462;-0.567867;-0.6798481;-10;-25;-3;-3667;2128;-1266;16;0.2257618;-0.7309254;-0.05955679;0.6412742;-11;-4;14;-1709;746;3838;2;0.5595568;-0.7112401;-0.3310249;0.267313;5;-42;2;3401;2998;-249;8;-0.01523546;-0.66759;0.2216066;0.7106208;-14;-45;2;1139;1295;3753;0.6268571;1.927696;1.739048;0.626991;1.939922;1.193638;0.6270866;1.948647;0.714178;0.6260464;1.848253;-0.01272088;0.3665112;1.768538;-0.3305808;0.02607155;1.853808;-0.2003157;-0.03275514;0.9467156;-0.02128522;0;0;0;0.8868271;1.763142;-0.3305838;1.176579;1.841878;-0.2003198;1.281073;0.9085417;0.01471651;1.229081;-0.03608727;0.06725705;0.3150064;1.922444;1.784368;0.692389;1.091659;2.928151;0.8881527;0.7471848;4.214751;0.3150064;1.922444;1.784368;0.692389;1.091659;2.928151;0.8881527;0.7471848;4.214751
541608.9545;NotLabelled;NONE;16384;-0.200831;0.3365651;-0.6610088;-0.6398892;-2;10;10;-960;4124;193;65536;0.3047091;-0.3199446;0.6232687;0.6452317;4;-4;15;309;4092;121;8192;0.634349;-0.6654761;0.1814404;0.3490305;10;-40;-6;1408;3953;-531;32768;0.6232687;-0.680611;0.2631579;0.2811634;-7;-14;-13;-387;4071;346;256;0.6232687;0.03601108;-0.7792112;0.05540166;11;-2;-3;209;-342;4189;128;-0.5858725;0.08864266;0.7978837;0.1108033;-3;10;8;-343;1383;-4194;4;0.2770083;0.3725762;-0.5706371;-0.6773674;-2;-19;0;-2879;2234;-856;16;0.2216066;-0.7335178;-0.05817174;0.6398892;-9;-14;5;-3001;1298;2802;2;0.5567867;-0.7137575;-0.3268698;0.2714681;6;-42;0;3857;2780;-689;8;-0.02077562;-0.666205;0.2229917;0.7113466;-12;-35;1;1235;1179;3953;0.6301152;1.92332;1.739876;0.6302631;1.936788;1.194495;0.6303711;1.946605;0.7150558;0.6291299;1.847473;-0.01201618;0.3694304;1.768868;-0.3300186;0.02917247;1.854645;-0.1996111;-0.02832809;0.9467932;-0.02403022;0;0;0;0.8897334;1.762352;-0.3300212;1.179651;1.840237;-0.1996161;1.284195;0.9069015;0.01539505;1.22931;-0.03744721;0.0699923;0.3182635;1.917966;1.785176;0.6872428;1.087914;2.932227;0.8739594;0.7464498;4.220973;0.3182635;1.917966;1.785176;0.6872428;1.087914;2.932227;0.8739594;0.7464498;4.220973
541630.7009;NotLabelled;NONE;16384;-0.200831;0.3365651;-0.6623468;-0.6385041;-1;-3;7;-1500;3782;45;65536;0.301939;-0.3199446;0.6246537;0.6451946;7;-13;8;417;3898;193;8192;0.6315789;-0.6655395;0.1828255;0.3531856;3;-19;-1;2216;3503;-253;32768;0.6218836;-0.6813039;0.2631579;0.2825485;-5;-9;-3;-387;3945;314;256;0.6246537;0.033241;-0.7783219;0.05401662;9;-2;-7;359;-128;3929;128;-0.5872576;0.08725762;0.7968239;0.1121884;2;4;7;-27;1389;-4024;4;0.2783934;0.3698061;-0.5720221;-0.6771494;0;-14;7;-3011;2398;-820;16;0.2229917;-0.7328728;-0.06094183;0.6398892;-6;6;-2;-2903;1236;2994;2;0.5540166;-0.7167386;-0.3227147;0.2742382;4;-35;0;4119;2634;-679;8;-0.02493075;-0.66482;0.2257618;0.7116351;-10;-33;0;1315;1243;3997;0.633592;1.918308;1.74276;0.6337533;1.933004;1.197411;0.6338731;1.943901;0.7179953;0.6326268;1.847606;-0.009457827;0.3729105;1.770351;-0.3277764;0.03268191;1.855761;-0.1970526;-0.02388608;0.9468418;-0.02677521;0;0;0;0.8932108;1.763616;-0.3277793;1.183155;1.840871;-0.1970576;1.277353;0.9061147;0.01656103;1.228761;-0.03797472;0.08075356;0.3217391;1.912851;1.78804;0.6880769;1.08375;2.936625;0.8655769;0.7463068;4.227731;0.3217391;1.912851;1.78804;0.6880769;1.08375;2.936625;0.8655769;0.7463068;4.227731
541651.7197;NotLabelled;NONE;16384;-0.199446;0.3365651;-0.6627652;-0.6385041;0;-12;4;-1486;3578;-93;65536;0.300554;-0.3199446;0.6274238;0.6431502;8;-11;4;299;4018;125;8192;0.632964;-0.6638642;0.1814404;0.3545706;0;9;0;1712;3687;-565;32768;0.6218836;-0.6807279;0.2631579;0.2839335;-3;-1;4;-203;3927;398;256;0.6260388;0.03047091;-0.7774168;0.05263158;5;-4;-7;-39;-528;3887;128;-0.5886427;0.08725762;0.7958013;0.1121884;-3;-5;6;117;1095;-3942;4;0.2783934;0.368421;-0.5734072;-0.6767328;1;-10;10;-3361;2368;-954;16;0.2243767;-0.7311209;-0.06232687;0.6412742;-4;-14;-14;-2231;1066;3466;2;0.5526316;-0.7179835;-0.3199446;0.2770083;3;-18;2;4099;2768;-841;8;-0.02908587;-0.6634349;0.2271468;0.7123289;-5;-29;-1;1339;1319;4133;0.6405271;1.910686;1.740882;0.6406922;1.925712;1.195542;0.6408152;1.936899;0.7161323;0.639364;1.844724;-0.01185387;0.3794605;1.769998;-0.330624;0.03946079;1.85562;-0.1994435;-0.02113925;0.9468119;-0.0299595;0;0;0;0.8997399;1.761807;-0.3306268;1.189887;1.837509;-0.1994491;1.283351;0.9038568;0.01925838;1.233433;-0.03995419;0.08646667;0.3286741;1.905202;1.786156;0.6922596;1.072974;2.933353;0.8674897;0.737956;4.2254;0.3286741;1.905202;1.786156;0.6922596;1.072974;2.933353;0.8674897;0.737956;4.2254
541672.7226;NotLabelled;NONE;16384;-0.1980609;0.333795;-0.664579;-0.6385041;-2;-7;1;-424;3986;9;65536;0.299169;-0.3171745;0.6301939;0.6424593;10;-6;6;71;4132;97;8192;0.632964;-0.6653522;0.1786704;0.3531856;0;9;0;660;3867;-709;32768;0.6218836;-0.6807279;0.2631579;0.2839335;-2;-1;5;199;4221;224;256;0.6274238;0.03047091;-0.7762994;0.05263158;4;-3;-6;33;-608;4115;128;-0.5886427;0.08864266;0.7956482;0.1121884;-9;0;7;-289;1083;-3984;4;0.2783934;0.365651;-0.5734072;-0.6782335;5;-11;5;-3731;2400;-966;16;0.2202216;-0.7301797;-0.05955679;0.6440443;-2;-51;-21;-2061;918;3836;2;0.5512465;-0.7185122;-0.3199446;0.2783934;0;0;7;3523;2992;-643;8;-0.033241;-0.6620498;0.2313019;0.7120987;1;-8;-3;1251;1209;3887;0.6486319;1.90356;1.739521;0.6487969;1.918593;1.194181;0.6489199;1.929784;0.7147722;0.647289;1.841739;-0.01372463;0.3872123;1.769544;-0.3329356;0.04743826;1.855368;-0.2013033;-0.01437183;0.9469285;-0.03028478;0;0;0;0.9074669;1.759906;-0.3329383;1.19781;1.834055;-0.201308;1.29611;0.901125;0.01835799;1.247747;-0.04269719;0.08653247;0.3367788;1.898075;1.784796;0.6946624;1.062673;2.931478;0.8722478;0.7285988;4.223448;0.3367788;1.898075;1.784796;0.6946624;1.062673;2.931478;0.8722478;0.7285988;4.223448
541692.7157;NotLabelled;NONE;16384;-0.1980609;0.33241;-0.6652728;-0.6385041;0;0;3;-370;4034;-21;65536;0.2977839;-0.3171745;0.632964;0.6403762;9;-8;9;15;4004;7;8192;0.632964;-0.6649786;0.1800554;0.3531856;4;-3;0;174;4303;-643;32768;0.6204986;-0.6814545;0.2645429;0.2839335;-2;-7;1;185;4257;280;256;0.6274238;0.02908587;-0.7763525;0.05263158;4;0;-5;221;-396;4081;128;-0.5900277;0.08864266;0.7944249;0.1135734;-9;9;7;-511;1165;-4044;4;0.2811634;0.3642659;-0.5734072;-0.6778361;9;-19;-3;-3775;2358;-790;16;0.2132964;-0.7277547;-0.05401662;0.6495845;1;-65;-23;-2187;892;4038;2;0.5512465;-0.7178939;-0.3213296;0.2783934;-2;3;6;3429;2686;-703;8;-0.033241;-0.6606648;0.2313019;0.7133839;0;-4;-4;1511;1217;3439;0.654776;1.9021;1.744571;0.6549509;1.918043;1.199257;0.6550823;1.930035;0.7198672;0.653433;1.842014;-0.00863272;0.3933412;1.769885;-0.3278462;0.05358541;1.855776;-0.196211;-0.01029675;0.9470696;-0.02739084;0;0;0;0.9135935;1.760135;-0.3278494;1.203952;1.834218;-0.1962157;1.300157;0.9018512;0.02674687;1.251553;-0.04197145;0.09474945;0.342922;1.89654;1.789831;0.701728;1.056363;2.93273;0.8795429;0.7266877;4.225798;0.342922;1.89654;1.789831;0.701728;1.056363;2.93273;0.8795429;0.7266877;4.225798
541733.7684;NotLabelled;NONE;16384;-0.200831;0.3310249;-0.6638006;-0.6398892;0;-3;9;-718;4138;109;65536;0.2950138;-0.3171745;0.6357341;0.6389126;3;-6;12;57;4214;-23;8192;0.6301939;-0.6668512;0.1828255;0.3531856;2;-1;-4;736;4021;-589;32768;0.6191136;-0.6815544;0.2645429;0.2867036;-3;2;-5;-55;4051;340;256;0.6288089;0.02770083;-0.7753747;0.05124654;3;4;-2;327;-394;4053;128;-0.5900277;0.08725762;0.7939732;0.1177285;-4;15;6;-159;1173;-4134;4;0.2922437;0.3601108;-0.5720221;-0.6765386;15;-18;-8;-3473;2530;-416;16;0.1952908;-0.7202575;-0.033241;0.66482;9;-73;-30;-1145;1020;3710;2;0.5512465;-0.7167333;-0.3227147;0.2797784;-3;6;0;3113;2434;-653;8;-0.03601108;-0.6592798;0.234072;0.7136272;-1;-17;-2;1503;1127;3289;0.6619675;1.897254;1.746231;0.6621559;1.914429;1.200954;0.6622993;1.927505;0.7215929;0.6604872;1.840755;-0.007059038;0.4002524;1.76974;-0.3264058;0.0606773;1.856132;-0.1946327;-0.003575498;0.9471111;-0.02765342;0;0;0;0.9204828;1.758872;-0.3264091;1.210995;1.832103;-0.1946379;1.306835;0.8992434;0.02641261;1.254939;-0.04439235;0.09457731;0.3501126;1.891592;1.79147;0.7123253;1.053906;2.935123;0.9018292;0.7304373;4.228097;0.3501126;1.891592;1.79147;0.7123253;1.053906;2.935123;0.9018292;0.7304373;4.228097
541754.7114;NotLabelled;NONE;16384;-0.2022161;0.3296399;-0.6640693;-0.6398892;-2;-3;8;-952;4118;45;65536;0.2936288;-0.3171745;0.6381705;0.6371191;1;0;10;99;4106;-111;8192;0.6301939;-0.6668512;0.1828255;0.3531856;2;-3;-2;886;3909;-531;32768;0.6191136;-0.6815544;0.2645429;0.2867036;-4;-3;-3;29;4107;280;256;0.6301939;0.02770083;-0.7743398;0.04986149;1;2;-2;17;-484;4151;128;-0.5914127;0.08448754;0.7928259;0.1204986;-4;3;4;247;1199;-4164;4;0.2963989;0.3573407;-0.5720221;-0.6761997;11;-25;-6;-3443;2582;-446;16;0.1883656;-0.7160465;-0.0235457;0.6717451;9;-83;-33;-1005;1066;3650;2;0.5526316;-0.7162058;-0.3227147;0.2783934;-5;0;-5;2895;2430;-633;8;-0.03878116;-0.6578947;0.2368421;0.7138462;-3;-20;-4;1521;1121;3441;0.6644053;1.889172;1.749016;0.6646241;1.90911;1.203833;0.6647941;1.924615;0.7245446;0.6629909;1.840736;-0.004443407;0.4027401;1.771138;-0.3240891;0.06320637;1.857217;-0.1920044;0.002847007;0.9470438;-0.029923;0;0;0;0.9229637;1.759954;-0.3240921;1.21351;1.832488;-0.1920093;1.301798;0.8990306;0.0296607;1.250317;-0.04432166;0.1019329;0.3525478;1.883281;1.794209;0.7256516;1.058771;2.943921;0.9447299;0.7395529;4.233274;0.3525478;1.883281;1.794209;0.7256516;1.058771;2.943921;0.9447299;0.7395529;4.233274
541774.8738;NotLabelled;NONE;16384;-0.2022161;0.3282548;-0.6660855;-0.6385041;-4;0;3;-1070;4058;-151;65536;0.2922437;-0.3185596;0.6394963;0.6357341;2;-1;1;269;4094;159;8192;0.6288089;-0.6677768;0.1842105;0.3531856;1;-6;-2;1132;4011;-541;32768;0.6177285;-0.6822268;0.2645429;0.2880886;-3;-5;-1;-75;4091;454;256;0.6301939;0.02908587;-0.774289;0.04986149;0;0;-3;31;-516;4077;128;-0.5914127;0.08448754;0.7928259;0.1204986;-2;-2;3;117;1111;-4140;4;0.300554;0.3545706;-0.5720221;-0.6758237;11;-26;-3;-3265;2442;-560;16;0.1800554;-0.7131848;-0.01523546;0.6772853;9;-81;-33;-1097;1176;3634;2;0.5526316;-0.7169085;-0.3199446;0.2797784;0;-12;0;3013;2474;-813;8;-0.04432133;-0.6537396;0.2409972;0.7159473;-2;-32;-10;1639;1157;3805;0.671107;1.887336;1.751692;0.6713326;1.907899;1.206532;0.6715086;1.923954;0.7272615;0.6698753;1.841671;-0.0019086;0.4097501;1.77237;-0.3217215;0.07007635;1.857635;-0.189468;0.008868285;0.9469928;-0.03036487;0;0;0;0.9299905;1.761991;-0.3217185;1.220417;1.834685;-0.1894603;1.307101;0.9014827;0.03391087;1.255362;-0.04187071;0.1059989;0.3592488;1.881393;1.796874;0.7341523;1.059426;2.947821;0.9660593;0.7388579;4.234593;0.3592488;1.881393;1.796874;0.7341523;1.059426;2.947821;0.9660593;0.7388579;4.234593
541815.7055;NotLabelled;NONE;16384;-0.200831;0.3282548;-0.6665044;-0.6385041;0;0;-3;-752;4068;-37;65536;0.2922437;-0.3185596;0.6408703;0.634349;1;6;0;141;4052;-51;8192;0.6288089;-0.6663043;0.1842105;0.3559557;1;2;-1;782;3979;-613;32768;0.6177285;-0.6822268;0.2645429;0.2880886;1;0;1;159;4133;326;256;0.6315789;0.02908587;-0.7731597;0.04986149;-1;0;-2;31;-516;3947;128;-0.5927978;0.08448754;0.7917909;0.1204986;0;-3;2;-51;1039;-3862;4;0.3088643;0.3462604;-0.5747922;-0.674033;7;-25;2;-3797;2264;-508;16;0.1620499;-0.7015601;0.006925208;0.6939058;10;-71;-31;7;812;4054;2;0.5512465;-0.7181184;-0.3171745;0.2825485;0;-20;4;3137;2460;-639;8;-0.05263158;-0.6481994;0.2493075;0.7175745;-4;-46;-13;1473;1219;3425;0.6787492;1.89043;1.752152;0.6789747;1.910994;1.206993;0.6791509;1.927048;0.7277222;0.6776627;1.843488;-0.001302838;0.4176729;1.773072;-0.320982;0.07782292;1.85784;-0.1888621;0.01328649;0.9468501;-0.033099;0;0;0;0.9379343;1.763807;-0.3209847;1.22821;1.837354;-0.1888676;1.312261;0.9036174;0.03327429;1.259392;-0.03942704;0.1084989;0.3668912;1.884487;1.797334;0.747484;1.065059;2.948224;0.9910032;0.7470968;4.233496;0.3668912;1.884487;1.797334;0.747484;1.065059;2.948224;0.9910032;0.7470968;4.233496
541856.7231;NotLabelled;NONE;16384;-0.2022161;0.3282548;-0.6674104;-0.6371191;-1;5;-1;-542;4116;159;65536;0.2936288;-0.3185596;0.6402369;0.634349;0;3;0;143;4058;-85;8192;0.6288089;-0.6670424;0.1842105;0.3545706;0;4;-2;520;4199;-605;32768;0.6177285;-0.6816881;0.265928;0.2880886;3;0;0;73;4203;400;256;0.6315789;0.02908587;-0.7731597;0.04986149;0;-1;-1;117;-474;3929;128;-0.5927978;0.08448754;0.7920004;0.1191136;-2;-3;2;-171;989;-3888;4;0.3130194;0.3434903;-0.5761772;-0.6723489;5;-32;-1;-3729;2340;-414;16;0.1537396;-0.6966759;0.01800554;0.7004874;11;-78;-27;17;846;4246;2;0.5498615;-0.7186952;-0.3157895;0.2853186;-1;-23;3;3033;2518;-541;8;-0.05817174;-0.6454294;0.2534626;0.7181877;-4;-48;-13;1501;1121;3339;0.6837236;1.88992;1.751602;0.6839492;1.910476;1.206442;0.6841252;1.926523;0.7271708;0.6826203;1.842986;-0.001856923;0.4226162;1.772633;-0.3215383;0.08278347;1.857466;-0.1894158;0.01699074;0.9468236;-0.03215525;0;0;0;0.9428757;1.763262;-0.3215415;1.233166;1.836746;-0.1894215;1.32066;0.9038148;0.0347662;1.267522;-0.03923059;0.1098019;0.3718655;1.883978;1.796784;0.7555704;1.063195;2.945673;1.038325;0.7441576;4.22262;0.3718655;1.883978;1.796784;0.7555704;1.063195;2.945673;1.038325;0.7441576;4.22262
541877.7476;NotLabelled;NONE;16384;-0.2022161;0.3282548;-0.6674104;-0.6371191;-2;2;0;-618;4030;191;65536;0.2936288;-0.3199446;0.6395459;0.634349;-2;8;1;141;4098;-71;8192;0.6288089;-0.6670424;0.1842105;0.3545706;0;1;-1;570;4025;-667;32768;0.6191136;-0.6804305;0.265928;0.2880886;3;0;-1;93;4069;324;256;0.6315789;0.02908587;-0.7730691;0.05124654;0;0;0;325;-568;3951;128;-0.5927978;0.08587258;0.7918515;0.1191136;-3;4;5;-141;1055;-4012;4;0.3171745;0.3407202;-0.5775623;-0.6706205;3;-37;-3;-3559;2554;-386;16;0.1454294;-0.6939058;0.02631579;0.7047358;12;-73;-23;-91;792;4206;2;0.5498615;-0.7193555;-0.3130194;0.2867036;-3;-22;0;3041;2476;-605;8;-0.06371191;-0.6412742;0.2576177;0.7199593;-5;-46;-12;1697;1067;3321;0.6852865;1.892496;1.755677;0.6854987;1.911828;1.210473;0.685663;1.9268;0.7311669;0.684158;1.843263;0.002139091;0.424154;1.772911;-0.3175422;0.0843212;1.857744;-0.1854199;0.01575117;0.9468973;-0.03054389;0;0;0;0.9444134;1.76354;-0.3175454;1.234704;1.837023;-0.1854256;1.320073;0.9036872;0.03789341;1.266552;-0.03948343;0.1110522;0.3734297;1.886655;1.80088;0.7582629;1.067652;2.950662;1.05806;0.7453139;4.222883;0.3734297;1.886655;1.80088;0.7582629;1.067652;2.950662;1.05806;0.7453139;4.222883
541898.9468;NotLabelled;NONE;16384;-0.2036011;0.3282548;-0.6683095;-0.6357341;-2;2;2;-954;3996;-39;65536;0.2936288;-0.3213296;0.6388511;0.634349;-1;4;-1;341;4178;93;8192;0.6274238;-0.6690783;0.1842105;0.3531856;0;-2;-2;652;3969;-561;32768;0.6191136;-0.6804305;0.265928;0.2880886;2;-1;-2;-61;4111;268;256;0.6315789;0.02770083;-0.77312;0.05124654;0;0;0;173;-458;4035;128;-0.5941828;0.08448754;0.7907521;0.1204986;-2;-5;4;145;1189;-4092;4;0.3213296;0.3365651;-0.5789474;-0.6695455;1;-32;-2;-3357;2522;-398;16;0.1385041;-0.6911357;0.03601108;0.7084146;12;-63;-18;45;1010;4074;2;0.5484765;-0.7210575;-0.3102493;0.2880886;-3;-23;-1;3083;2388;-727;8;-0.06925207;-0.6385041;0.2617728;0.7204107;-6;-49;-12;1985;1195;3425;0.68501;1.891638;1.753434;0.6852322;1.911883;1.208263;0.685405;1.927657;0.7289827;0.6837226;1.842555;0.0001360178;0.4235818;1.771972;-0.3193832;0.08390415;1.857685;-0.1874304;0.01534022;0.9468381;-0.03255162;0;0;0;0.9438242;1.761687;-0.3193862;1.234249;1.834945;-0.1874361;1.319626;0.9016094;0.03588057;1.269008;-0.04187512;0.1070318;0.3731522;1.885721;1.798622;0.75907;1.06852;2.949322;1.068038;0.7468805;4.219524;0.3731522;1.885721;1.798622;0.75907;1.06852;2.949322;1.068038;0.7468805;4.219524
541918.7906;NotLabelled;NONE;16384;-0.2036011;0.3282548;-0.6683095;-0.6357341;-1;-1;0;-1014;4016;-129;65536;0.2936288;-0.3213296;0.6388511;0.634349;0;0;-3;193;4112;83;8192;0.6274238;-0.6686954;0.1855956;0.3531856;-2;2;-3;908;4069;-549;32768;0.6191136;-0.6804305;0.265928;0.2880886;2;1;-2;-13;4139;388;256;0.6315789;0.02770083;-0.77312;0.05124654;0;-1;-1;15;-534;4147;128;-0.5941828;0.08587258;0.7906028;0.1204986;-3;-7;5;201;1219;-4120;4;0.3240997;0.33518;-0.5803324;-0.6677036;-1;-27;-1;-3331;2448;-320;16;0.132964;-0.6897507;0.04432133;0.7103522;11;-57;-13;125;1038;3972;2;0.5470914;-0.7228192;-0.3033241;0.2936288;0;-35;0;2963;2366;-919;8;-0.08310249;-0.6315789;0.2728532;0.7209391;-4;-62;-11;2439;1133;3363;0.6874355;1.888304;1.753921;0.6876611;1.908852;1.208761;0.687837;1.924891;0.7294896;0.6860012;1.84107;0.0004951954;0.4257227;1.771603;-0.3191566;0.08622392;1.85781;-0.1870659;0.01492255;0.9467731;-0.03456433;0;0;0;0.9459417;1.760205;-0.319159;1.236517;1.83261;-0.1870701;1.316808;0.8990943;0.03737569;1.266202;-0.04439044;0.1085356;0.3755776;1.882363;1.799103;0.7649869;1.064501;2.948156;1.082386;0.7380788;4.215055;0.3755776;1.882363;1.799103;0.7649869;1.064501;2.948156;1.082386;0.7380788;4.215055
541938.7389;NotLabelled;NONE;16384;-0.2022161;0.3282548;-0.6687298;-0.6357341;-1;-3;0;-886;4044;-71;65536;0.2936288;-0.3199446;0.6395459;0.634349;0;0;-3;191;4126;-21;8192;0.6288089;-0.6673931;0.1855956;0.3531856;0;-2;1;734;3983;-643;32768;0.6191136;-0.6804305;0.265928;0.2880886;3;-2;0;-43;4101;370;256;0.6315789;0.02770083;-0.77312;0.05124654;0;-2;-3;89;-502;4113;128;-0.5955678;0.08587258;0.78956;0.1204986;-1;-7;6;195;1195;-4134;4;0.3268698;0.33241;-0.5831025;-0.6653204;-3;-28;0;-3315;2506;-146;16;0.1274238;-0.6883656;0.05124654;0.7122427;9;-45;-8;75;1082;3910;2;0.5443213;-0.7255067;-0.299169;0.2963989;4;-40;1;3067;2404;-933;8;-0.0900277;-0.6274238;0.2797784;0.7210814;-3;-59;-9;2283;1161;3307;0.6874154;1.886585;1.753857;0.687651;1.908047;1.208732;0.6878358;1.924891;0.7294885;0.686;1.841069;0.0004941225;0.4257213;1.771602;-0.3191575;0.0862226;1.85781;-0.1870668;0.014923;0.9467732;-0.03456479;0;0;0;0.9459404;1.760205;-0.31916;1.236516;1.83261;-0.1870712;1.316429;0.8986088;0.03548098;1.265823;-0.04487514;0.1066411;0.3755565;1.880568;1.799024;0.7633284;1.064535;2.949929;1.083714;0.7328361;4.214704;0.3755565;1.880568;1.799024;0.7633284;1.064535;2.949929;1.083714;0.7328361;4.214704
541958.7763;NotLabelled;NONE;16384;-0.2022161;0.3282548;-0.6687298;-0.6357341;0;-2;0;-716;4028;5;65536;0.2950138;-0.3199446;0.6389082;0.634349;0;1;-4;119;4114;-23;8192;0.6288089;-0.6673931;0.1855956;0.3531856;-1;-5;2;890;3947;-465;32768;0.6204986;-0.6791677;0.265928;0.2880886;2;-3;1;33;4049;290;256;0.6315789;0.02770083;-0.77312;0.05124654;0;-3;-3;67;-372;4019;128;-0.5969529;0.08725762;0.7885717;0.1191136;0;-11;6;187;1239;-4066;4;0.3296399;0.3268698;-0.5872576;-0.6630401;-5;-18;8;-3301;2510;-78;16;0.1218837;-0.6855956;0.05955679;0.7152315;5;-18;-3;191;1158;3822;2;0.5415512;-0.7275688;-0.2950138;0.300554;5;-43;2;3125;2384;-1121;8;-0.09695291;-0.6232687;0.2839335;0.7221621;-4;-52;-8;2463;1111;3121;0.6885365;1.886316;1.754134;0.6887718;1.907771;1.209009;0.6889566;1.924608;0.7297658;0.6871208;1.840787;0.0007713437;0.4268422;1.77132;-0.3188802;0.08734345;1.857527;-0.1867896;0.0153346;0.9468381;-0.03255442;0;0;0;0.9470613;1.759923;-0.3188831;1.237637;1.832327;-0.1867939;1.320553;0.8981078;0.03373575;1.269947;-0.0453763;0.1048957;0.3766775;1.880299;1.799301;0.7604359;1.062988;2.950644;1.083938;0.7285473;4.213903;0.3766775;1.880299;1.799301;0.7604359;1.062988;2.950644;1.083938;0.7285473;4.213903
541979.9167;NotLabelled;NONE;16384;-0.2022161;0.3282548;-0.6687298;-0.6357341;0;0;0;-752;4096;-1;65536;0.2950138;-0.3199446;0.6389082;0.634349;-1;0;-4;193;4106;43;8192;0.6288089;-0.6666583;0.1855956;0.3545706;-2;-2;0;912;4019;-485;32768;0.6204986;-0.6780341;0.267313;0.2894737;2;-2;1;21;4107;372;256;0.632964;0.02770083;-0.7718933;0.05263158;-2;-4;-4;67;-388;4037;128;-0.5983379;0.08864266;0.7875749;0.1177285;0;-18;5;77;1267;-4000;4;0.3296399;0.3240997;-0.5900277;-0.6619398;-8;-22;9;-3393;2458;-152;16;0.1204986;-0.6855956;0.06232687;0.7152302;4;-5;1;193;1094;3868;2;0.5387812;-0.7295673;-0.2908587;0.3047091;9;-41;2;3277;2370;-1229;8;-0.1038781;-0.6204986;0.2894737;0.7213846;-3;-53;-7;2529;1165;3101;0.6872991;1.887375;1.754675;0.6875312;1.908524;1.209538;0.6877129;1.925092;0.730285;0.6858727;1.840861;0.001337767;0.4255921;1.771214;-0.3182732;0.08609422;1.857496;-0.1862288;0.0140863;0.9468937;-0.03148164;0;0;0;0.9458113;1.759817;-0.3182727;1.236387;1.832296;-0.1862264;1.319305;0.8982005;0.03482807;1.271608;-0.04554582;0.1045064;0.3754406;1.881384;1.799847;0.7548862;1.057896;2.948216;1.085653;0.718925;4.208382;0.3754406;1.881384;1.799847;0.7548862;1.057896;2.948216;1.085653;0.718925;4.208382
542000.7245;NotLabelled;NONE;16384;-0.2022161;0.3268698;-0.669408;-0.6357341;-1;-3;0;-774;4010;-71;65536;0.2963989;-0.3185596;0.6375811;0.6357341;0;-2;-4;177;4158;31;8192;0.6288089;-0.6666583;0.1855956;0.3545706;-3;1;0;752;4095;-533;32768;0.6204986;-0.6780341;0.267313;0.2894737;2;-1;0;79;4161;396;256;0.632964;0.02631579;-0.771846;0.05401662;-4;-5;-3;175;-542;3969;128;-0.599723;0.09279778;0.7864512;0.1149584;0;-10;5;-167;1071;-3982;4;0.3310249;0.3213296;-0.5927978;-0.6601217;-9;-22;7;-3423;2498;-130;16;0.1191136;-0.6855956;0.06371191;0.7153401;3;2;5;143;1044;4094;2;0.534626;-0.7325548;-0.2880886;0.3074792;8;-39;1;3441;2492;-1125;8;-0.1094183;-0.6177285;0.2950138;0.7206982;-1;-50;-3;2613;1157;3161;0.6881379;1.888275;1.755919;0.688367;1.909126;1.21077;0.6885461;1.925432;0.7315081;0.6865093;1.840077;0.002692461;0.4260786;1.770448;-0.3168002;0.08675653;1.8576;-0.1848761;0.01419673;0.9469113;-0.03089911;0;0;0;0.9462743;1.758029;-0.3168028;1.236998;1.830142;-0.1848804;1.321236;0.8963196;0.03682745;1.274687;-0.04759169;0.1050475;0.3762798;1.882308;1.801096;0.7467007;1.052029;2.947518;1.07194;0.7095726;4.20818;0.3762798;1.882308;1.801096;0.7467007;1.052029;2.947518;1.07194;0.7095726;4.20818
542021.7169;NotLabelled;NONE;16384;-0.2022161;0.3268698;-0.669408;-0.6357341;0;-3;0;-618;4028;-49;65536;0.2963989;-0.3185596;0.6375811;0.6357341;0;-1;-5;61;4164;1;8192;0.6288089;-0.6673931;0.1855956;0.3531856;-1;-2;0;580;3983;-665;32768;0.6204986;-0.6774864;0.2686981;0.2894737;3;0;0;-13;4109;370;256;0.634349;0.02631579;-0.7706098;0.05540166;-3;-5;-3;93;-484;3995;128;-0.601108;0.09279778;0.7855946;0.1135734;3;-9;4;-191;1175;-3896;4;0.33241;0.3185596;-0.5955678;-0.6582723;-7;-17;5;-3321;2526;-226;16;0.1204986;-0.6869806;0.06371191;0.7137777;3;10;9;93;1114;4144;2;0.5290859;-0.7369085;-0.2811634;0.3130194;8;-29;0;3657;2436;-1277;8;-0.1191136;-0.6135734;0.3033241;0.7192594;2;-22;1;2763;1155;3285;0.6842976;1.886053;1.760386;0.6845301;1.907255;1.215251;0.6847124;1.923871;0.7359988;0.6823342;1.838237;0.007216692;0.4216307;1.769496;-0.3122455;0.08265202;1.858022;-0.1803524;0.009749134;0.9470515;-0.02821099;0;0;0;0.9417739;1.755052;-0.3122485;1.232778;1.826083;-0.1803576;1.317057;0.8922606;0.04133558;1.270519;-0.05164957;0.1095632;0.3724388;1.880057;1.805557;0.7383938;1.046196;2.950813;1.063389;0.7036102;4.211504;0.3724388;1.880057;1.805557;0.7383938;1.046196;2.950813;1.063389;0.7036102;4.211504
542042.7224;NotLabelled;NONE;16384;-0.2022161;0.3268698;-0.669408;-0.6357341;-1;-1;0;-678;4094;-7;65536;0.2963989;-0.3171745;0.6357341;0.6382713;0;2;-5;49;4172;3;8192;0.6288089;-0.6662712;0.1869806;0.3545706;0;-5;0;954;4015;-401;32768;0.6204986;-0.6780765;0.2686981;0.2880886;2;-1;1;-43;4119;260;256;0.634349;0.02631579;-0.7706098;0.05540166;-2;-4;-3;37;-434;3973;128;-0.601108;0.09418282;0.7856287;0.1121884;1;-10;2;-103;1161;-3874;4;0.33241;0.3171745;-0.5969529;-0.6576862;-8;-11;3;-3265;2438;-40;16;0.1218837;-0.6883656;0.06371191;0.7122064;3;16;12;85;1120;4024;2;0.5277008;-0.7383622;-0.2783934;0.3144044;9;-21;2;3751;2408;-1335;8;-0.1204986;-0.6135734;0.3047091;0.7184429;5;-9;4;2739;1099;3323;0.6851562;1.889048;1.760591;0.6853759;1.909046;1.215411;0.6855468;1.924603;0.7361235;0.682955;1.837448;0.007522464;0.4220967;1.768552;-0.31178;0.08330145;1.858023;-0.1800533;0.009849608;0.9470518;-0.02817656;0;0;0;0.9422104;1.753081;-0.3117827;1.233362;1.823815;-0.1800575;1.314731;0.889595;0.04104745;1.267576;-0.05443168;0.107216;0.3732986;1.883151;1.805783;0.7304167;1.045771;2.951261;1.045798;0.7004468;4.213645;0.3732986;1.883151;1.805783;0.7304167;1.045771;2.951261;1.045798;0.7004468;4.213645
542062.8693;NotLabelled;NONE;16384;-0.2022161;0.3268698;-0.6707206;-0.634349;-3;0;-1;-672;4050;57;65536;0.2977839;-0.3171745;0.634349;0.6390043;-1;6;-5;19;4144;15;8192;0.6288089;-0.6662712;0.1869806;0.3545706;-1;1;0;962;4025;-477;32768;0.6204986;-0.6780765;0.2686981;0.2880886;2;0;1;17;4133;326;256;0.634349;0.02631579;-0.7705089;0.0567867;-2;-4;-2;103;-426;3959;128;-0.602493;0.09556787;0.7845964;0.1108033;0;-10;2;-125;1143;-3900;4;0.3310249;0.3171745;-0.601108;-0.654593;-9;0;3;-3065;2362;-114;16;0.1274238;-0.6925207;0.05955679;0.707553;2;38;18;-247;1110;3866;2;0.5249307;-0.7397445;-0.2783934;0.3157895;9;-10;2;3837;2450;-1381;8;-0.1204986;-0.6149584;0.3060942;0.7166677;8;12;8;2535;1175;3197;0.6789745;1.889626;1.760918;0.6791911;1.909344;1.215728;0.6793594;1.924656;0.7364327;0.6767675;1.8375;0.007831812;0.4159092;1.768605;-0.311471;0.07711402;1.858076;-0.1797442;0.003666896;0.9471047;-0.02786516;0;0;0;0.936023;1.753134;-0.3114735;1.227174;1.823867;-0.1797482;1.31029;0.8895619;0.04034269;1.261366;-0.0544529;0.1053767;0.3671172;1.883753;1.806115;0.7216597;1.04338;2.950201;1.031914;0.6953089;4.213101;0.3671172;1.883753;1.806115;0.7216597;1.04338;2.950201;1.031914;0.6953089;4.213101
542084.7125;NotLabelled;NONE;16384;-0.2022161;0.3268698;-0.6707206;-0.634349;-1;2;-2;-632;4056;-103;65536;0.299169;-0.3185596;0.632964;0.6390418;-5;14;-6;99;4114;137;8192;0.6288089;-0.6662712;0.1869806;0.3545706;-1;0;0;764;3963;-597;32768;0.6218836;-0.6768065;0.2686981;0.2880886;3;0;2;21;4061;318;256;0.6357341;0.02493075;-0.7694127;0.0567867;-3;-3;-2;87;-436;3913;128;-0.602493;0.09695291;0.7844265;0.1108033;1;-8;1;31;1153;-3916;4;0.3310249;0.3171745;-0.602493;-0.6533185;-8;3;4;-3019;2356;-184;16;0.1315789;-0.6952909;0.05540166;0.7044063;1;44;19;-239;1050;3814;2;0.5235457;-0.7407253;-0.2783934;0.3157895;8;1;3;3757;2500;-1369;8;-0.1177285;-0.6177285;0.3047091;0.7153347;10;36;12;2577;1091;3061;0.6794269;1.890887;1.762507;0.6796407;1.910343;1.217307;0.6798063;1.925423;0.7380052;0.6770118;1.83671;0.00959301;0.4160109;1.76759;-0.3095446;0.07738301;1.85794;-0.1779884;0.0004830128;0.9471426;-0.02678108;0;0;0;0.9360967;1.751202;-0.3095466;1.227381;1.821704;-0.1779923;1.310502;0.887399;0.04209661;1.261578;-0.05661631;0.1071316;0.36757;1.885036;1.807708;0.7075881;1.040822;2.953374;1.004008;0.6897709;4.21877;0.36757;1.885036;1.807708;0.7075881;1.040822;2.953374;1.004008;0.6897709;4.21877
542105.7107;NotLabelled;NONE;16384;-0.2022161;0.3282548;-0.6700439;-0.634349;0;3;-4;-892;4092;41;65536;0.3033241;-0.3213296;0.6301939;0.6384336;-9;20;-7;-21;4258;9;8192;0.6288089;-0.6651416;0.1883656;0.3559557;0;-3;0;784;3927;-615;32768;0.6218836;-0.676255;0.2700831;0.2880886;3;-1;2;53;4069;352;256;0.6357341;0.02631579;-0.7692631;0.05817174;-2;-3;0;-65;-480;3933;128;-0.602493;0.09695291;0.7846209;0.1094183;1;-5;0;-67;1129;-3978;4;0.3296399;0.3171745;-0.602493;-0.6540184;-5;5;3;-2989;2366;22;16;0.1371191;-0.6966759;0.05124654;0.7022926;0;55;21;-415;1148;3746;2;0.5235457;-0.7402033;-0.2797784;0.3157895;11;13;3;3537;2408;-1375;8;-0.1135734;-0.6204986;0.300554;0.715367;11;47;15;2613;1123;2985;0.6783365;1.886036;1.762378;0.6785598;1.906428;1.217213;0.678734;1.922331;0.7379369;0.6757753;1.834947;0.009364486;0.4146322;1.76702;-0.309913;0.07620928;1.857926;-0.1782118;-0.001208157;0.9471287;-0.02726866;0;0;0;0.9346781;1.749411;-0.3099155;1.22612;1.81899;-0.1782168;1.308485;0.8846847;0.04215586;1.262273;-0.05961335;0.1050282;0.3664786;1.880107;1.807564;0.6978105;1.035488;2.955473;0.9810314;0.6840931;4.223793;0.3664786;1.880107;1.807564;0.6978105;1.035488;2.955473;0.9810314;0.6840931;4.223793
542126.7959;NotLabelled;NONE;16384;-0.2022161;0.3282548;-0.6713524;-0.632964;-1;2;-2;-736;4146;79;65536;0.3060942;-0.3227147;0.6274238;0.6391408;-6;24;-7;-75;4242;81;8192;0.6288089;-0.6651416;0.1883656;0.3559557;0;-3;0;846;4041;-521;32768;0.6218836;-0.676255;0.2700831;0.2880886;3;-1;3;-13;4135;286;256;0.6357341;0.02493075;-0.7692032;0.05955679;-1;-3;-1;99;-544;4149;128;-0.6038781;0.09833795;0.7837647;0.1066482;1;-8;0;-179;1031;-4098;4;0.3282548;0.3171745;-0.6038781;-0.6534374;-6;10;2;-2871;2450;-60;16;0.1440443;-0.7013769;0.04432133;0.6966759;0;63;22;-547;1150;3780;2;0.5221606;-0.7407189;-0.2825485;0.3144044;10;16;1;3405;2368;-1355;8;-0.1080332;-0.6246537;0.2977839;0.7137656;13;50;16;2411;1193;3097;0.6749996;1.891841;1.76131;0.6752101;1.911025;1.2161;0.6753728;1.925865;0.7367899;0.6723509;1.835639;0.008564472;0.4111909;1.766371;-0.3104107;0.07275213;1.857668;-0.179021;-0.004337944;0.9471478;-0.02624572;0;0;0;0.931243;1.748951;-0.3104136;1.222676;1.819149;-0.1790255;1.306747;0.8847597;0.04034543;1.260158;-0.05964446;0.1013129;0.3631429;1.886013;1.806515;0.6939642;1.038873;2.952714;0.9729537;0.6847682;4.221218;0.3631429;1.886013;1.806515;0.6939642;1.038873;2.952714;0.9729537;0.6847682;4.221218
542146.7173;NotLabelled;NONE;16384;-0.2022161;0.3282548;-0.6713524;-0.632964;-3;4;0;-792;4182;-145;65536;0.3088643;-0.3240997;0.6260388;0.6384651;-2;21;-6;135;4138;137;8192;0.6288089;-0.6647478;0.1897507;0.3559557;-1;-1;-1;578;4105;-625;32768;0.6218836;-0.676289;0.2714681;0.2867036;3;-1;0;125;4135;368;256;0.6357341;0.02493075;-0.7692032;0.05955679;-2;-3;-1;147;-658;4125;128;-0.6038781;0.09833795;0.7837647;0.1066482;1;-6;0;-187;993;-4136;4;0.3254848;0.3185596;-0.6038781;-0.6541489;-7;18;2;-2807;2394;8;16;0.1495845;-0.7046528;0.03878116;0.6925207;0;65;21;-547;1090;3796;2;0.5221606;-0.7397549;-0.2880886;0.3116343;10;18;0;3169;2326;-1235;8;-0.09556787;-0.634349;0.2908587;0.7098376;13;57;16;1917;1125;3335;0.6738245;1.892373;1.762576;0.6740191;1.910102;1.217317;0.6741678;1.923663;0.7379696;0.6707837;1.83317;0.009778917;0.4093512;1.7648;-0.3091667;0.07127277;1.857465;-0.1778071;-0.009241;0.9471278;-0.02570871;0;0;0;0.9293316;1.745352;-0.309169;1.221038;1.814465;-0.177812;1.305142;0.880075;0.04154611;1.258563;-0.06432915;0.1025218;0.3619691;1.886665;1.807806;0.6878726;1.036617;2.953259;0.9514598;0.6814632;4.224761;0.3619691;1.886665;1.807806;0.6878726;1.036617;2.953259;0.9514598;0.6814632;4.224761
542167.9599;NotLabelled;NONE;16384;-0.2022161;0.3296399;-0.6706734;-0.632964;-3;5;0;-778;4002;-177;65536;0.3116343;-0.3254848;0.6246537;0.6377707;-1;18;-4;-19;4146;79;8192;0.6288089;-0.6643509;0.1911357;0.3559557;-1;-6;-3;588;4085;-709;32768;0.6218836;-0.676289;0.2714681;0.2867036;3;0;-2;81;4169;340;256;0.6357341;0.02493075;-0.7690948;0.06094183;-2;-3;-2;269;-658;4207;128;-0.6038781;0.09833795;0.7839519;0.1052632;1;-1;0;-273;1027;-4076;4;0.3185596;0.3227147;-0.6038781;-0.6555199;-5;29;3;-3137;2302;-42;16;0.1606648;-0.7095442;0.02631579;0.6855956;-5;52;20;-545;1122;3770;2;0.5207756;-0.7408082;-0.2908587;0.3088643;9;21;-1;3235;2362;-1083;8;-0.08725762;-0.6385041;0.2853186;0.7094307;13;60;16;1711;1229;3345;0.6724839;1.892399;1.764072;0.6726785;1.910127;1.218813;0.6728273;1.923689;0.7394652;0.6694431;1.833196;0.01127446;0.4080106;1.764825;-0.3076711;0.06993219;1.85749;-0.1763115;-0.01057069;0.9471533;-0.0242072;0;0;0;0.927991;1.745378;-0.3076733;1.219697;1.814491;-0.1763164;1.303454;0.8796222;0.04112744;1.254748;-0.06486654;0.09906447;0.3606285;1.886691;1.809302;0.6837006;1.034133;2.953692;0.9362988;0.6780243;4.227155;0.3606285;1.886691;1.809302;0.6837006;1.034133;2.953692;0.9362988;0.6780243;4.227155
542188.71;NotLabelled;NONE;16384;-0.2036011;0.3296399;-0.6715596;-0.6315789;-2;5;3;-632;4072;51;65536;0.3130194;-0.3268698;0.6232687;0.6377391;0;18;-2;55;4052;19;8192;0.6288089;-0.6643509;0.1911357;0.3559557;0;-5;-3;806;3985;-641;32768;0.6232687;-0.6750128;0.2714681;0.2867036;4;2;-2;15;4081;340;256;0.6357341;0.02493075;-0.7690948;0.06094183;-1;-1;-1;295;-610;4049;128;-0.6038781;0.09833795;0.7841367;0.1038781;2;0;0;-279;1045;-3886;4;0.3157895;0.3254848;-0.602493;-0.6567639;-6;30;2;-3209;2316;-236;16;0.166205;-0.7111214;0.02077562;0.6828254;-5;52;20;-633;1094;3864;2;0.5221606;-0.7393152;-0.2936288;0.3074792;8;25;-1;3225;2464;-1037;8;-0.08033241;-0.6426592;0.2797784;0.7087029;12;61;15;1527;1233;3393;0.6710358;1.895303;1.763605;0.671217;1.911825;1.218309;0.6713542;1.924327;0.7389322;0.6677496;1.832281;0.01093721;0.40617;1.763688;-0.3078402;0.06826681;1.857232;-0.1766528;-0.01188684;0.9471745;-0.02270762;0;0;0;0.9261151;1.743322;-0.3078427;1.217954;1.8122;-0.1766567;1.301336;0.8768573;0.03887951;1.252631;-0.06763148;0.09681654;0.3591814;1.889695;1.808856;0.6740436;1.032132;2.951794;0.9105428;0.6766183;4.22851;0.3591814;1.889695;1.808856;0.6740436;1.032132;2.951794;0.9105428;0.6766183;4.22851
542208.724;NotLabelled;NONE;16384;-0.2049861;0.3296399;-0.671138;-0.6315789;-2;4;3;-680;4038;227;65536;0.3157895;-0.3282548;0.6232687;0.6356587;0;19;-2;51;4038;81;8192;0.6274238;-0.6652598;0.1925208;0.3559557;-1;-1;-4;834;3935;-607;32768;0.6232687;-0.6750128;0.2714681;0.2867036;4;4;-2;5;4067;252;256;0.6357341;0.02493075;-0.7689838;0.06232687;-1;-1;0;289;-526;3893;128;-0.6038781;0.09833795;0.7841367;0.1038781;3;4;-1;-289;1067;-3780;4;0.3116343;0.3282548;-0.602493;-0.6573697;-5;30;0;-3267;2464;-240;16;0.1703601;-0.7142491;0.01523546;0.6786703;-5;50;21;-609;992;3870;2;0.5221606;-0.7387999;-0.2977839;0.3047091;3;30;-1;3289;2560;-969;8;-0.07202215;-0.6468144;0.2742382;0.7079812;11;59;14;1395;1177;3469;0.6720839;1.897697;1.76557;0.6722519;1.913015;1.220238;0.6723775;1.924457;0.7408354;0.6687729;1.83241;0.01284021;0.4071934;1.763818;-0.3059369;0.06929015;1.857362;-0.1747496;-0.01358092;0.9471395;-0.02323181;0;0;0;0.9271386;1.743451;-0.3059394;1.218978;1.812329;-0.1747539;1.302359;0.8769865;0.04078317;1.256594;-0.06777036;0.09671736;0.3602305;1.892189;1.810841;0.6747964;1.035033;2.954165;0.9060043;0.6786115;4.231598;0.3602305;1.892189;1.810841;0.6747964;1.035033;2.954165;0.9060043;0.6786115;4.231598
542229.714;NotLabelled;NONE;16384;-0.2077562;0.3296399;-0.6715881;-0.6301939;-4;7;0;-716;3870;111;65536;0.3185596;-0.3310249;0.6218836;0.6341948;5;19;-1;137;4160;199;8192;0.6288089;-0.6639509;0.1925208;0.3559557;-1;1;-4;784;3989;-527;32768;0.6246537;-0.6737313;0.2714681;0.2867036;4;2;-2;-27;4055;256;256;0.6371191;0.02493075;-0.7678366;0.06232687;0;1;1;279;-424;3891;128;-0.6038781;0.09833795;0.7841367;0.1038781;1;5;-1;-215;1133;-3766;4;0.3102493;0.3310249;-0.601108;-0.6579035;-5;24;-1;-3285;2478;-188;16;0.1745152;-0.7159473;0.01108033;0.6759003;-6;47;21;-801;1000;3822;2;0.5235457;-0.7378347;-0.301939;0.300554;1;35;-1;3197;2444;-1023;8;-0.06371191;-0.6523545;0.2686981;0.7058156;9;62;12;1247;1155;3581;0.6737803;1.899032;1.769611;0.6739483;1.91435;1.224279;0.6740738;1.925792;0.7448761;0.6702415;1.832192;0.01708037;0.4085127;1.76338;-0.3015271;0.07078707;1.857801;-0.1705113;-0.01134162;0.9472269;-0.02072006;0;0;0;0.928421;1.742094;-0.30153;1.220393;1.810737;-0.1705172;1.300406;0.8751231;0.0451225;1.254643;-0.06963313;0.1010576;0.3619269;1.893525;1.814881;0.6710371;1.033869;2.957818;0.8910215;0.6784133;4.237499;0.3619269;1.893525;1.814881;0.6710371;1.033869;2.957818;0.8910215;0.6784133;4.237499
542249.7177;NotLabelled;NONE;16384;-0.2091413;0.3310249;-0.6717752;-0.6288089;-1;10;0;-634;4012;-11;65536;0.3213296;-0.33241;0.6204986;0.6334291;8;18;-1;99;4072;155;8192;0.6288089;-0.6642888;0.1939058;0.3545706;-2;0;-2;760;4027;-461;32768;0.6260388;-0.6730019;0.2700831;0.2867036;3;1;0;-13;4087;264;256;0.6371191;0.02493075;-0.7679478;0.06094183;0;0;4;107;-414;3915;128;-0.602493;0.09833795;0.7852014;0.1038781;-1;3;-3;-141;1131;-3830;4;0.3074792;0.33241;-0.601108;-0.6585054;-6;23;-2;-3341;2482;-220;16;0.1786704;-0.7188913;0.005540166;0.6717451;-5;47;20;-991;1104;3722;2;0.5263157;-0.7352706;-0.3060942;0.2977839;-2;37;0;3057;2436;-799;8;-0.0567867;-0.6551247;0.2631579;0.7059284;9;61;9;1255;1187;3603;0.676536;1.899326;1.774028;0.676704;1.914644;1.228696;0.6768296;1.926086;0.7492929;0.6729777;1.83254;0.02149045;0.4112339;1.763811;-0.2971225;0.07352963;1.858301;-0.1661013;-0.01107361;0.947229;-0.0207798;0;0;0;0.9311373;1.742406;-0.2971261;1.223125;1.810972;-0.1661072;1.305392;0.8751577;0.04780662;1.262381;-0.06985343;0.1015803;0.3646829;1.893818;1.819298;0.6696298;1.037073;2.965533;0.8787975;0.6805035;4.246717;0.3646829;1.893818;1.819298;0.6696298;1.037073;2.965533;0.8787975;0.6805035;4.246717
542270.7175;NotLabelled;NONE;16384;-0.2105263;0.33241;-0.6706576;-0.6288089;-1;13;-1;-638;3966;-17;65536;0.3240997;-0.333795;0.6204986;0.6312858;9;19;0;99;4102;67;8192;0.6288089;-0.6650262;0.1939058;0.3531856;-3;0;-3;908;3999;-457;32768;0.6260388;-0.6730019;0.2700831;0.2867036;3;1;-1;33;4113;228;256;0.6357341;0.02493075;-0.7690948;0.06094183;2;1;3;105;-466;3997;128;-0.601108;0.09695291;0.7862499;0.1052632;-1;2;-4;-65;1203;-3886;4;0.3047091;0.33518;-0.599723;-0.6596507;-3;18;-2;-3239;2408;-312;16;0.1828255;-0.7204493;0;0.6689751;-5;48;19;-1271;1080;3672;2;0.5304709;-0.7315826;-0.3130194;0.2922437;-4;28;2;2787;2440;-1101;8;-0.04432133;-0.6606648;0.2548476;0.7047058;3;30;2;1599;1227;3421;0.6773965;1.89838;1.776333;0.6775644;1.913671;1.231;0.6776896;1.92509;0.7515964;0.6740655;1.833095;0.02359486;0.4124711;1.764585;-0.2951877;0.07458872;1.858195;-0.1639947;-0.01233399;0.9472444;-0.01927894;0;0;0;0.9324116;1.7441;-0.2951907;1.224266;1.812903;-0.1639993;1.304065;0.8762388;0.04710972;1.264379;-0.06892312;0.1007934;0.3655433;1.892874;1.821603;0.6675292;1.033633;2.966753;0.8657223;0.6777823;4.24988;0.3655433;1.892874;1.821603;0.6675292;1.033633;2.966753;0.8657223;0.6777823;4.24988
542291.7075;NotLabelled;NONE;16384;-0.2119114;0.33241;-0.6715181;-0.6274238;-2;13;0;-478;4088;131;65536;0.3254848;-0.33518;0.6204986;0.6298377;8;15;1;171;4056;-59;8192;0.6288089;-0.6646208;0.1952908;0.3531856;-3;5;-4;798;4073;-515;32768;0.6260388;-0.6735903;0.2700831;0.2853186;4;4;0;117;4179;310;256;0.6357341;0.02493075;-0.7690948;0.06094183;2;0;5;249;-430;4035;128;-0.601108;0.09833795;0.7860779;0.1052632;-2;0;-5;-193;1195;-4032;4;0.300554;0.3393352;-0.5983379;-0.6606895;-1;24;0;-3183;2508;-310;16;0.1925208;-0.7242457;-0.009695291;0.6620498;-5;39;15;-1201;1134;3876;2;0.5318559;-0.7305343;-0.3144044;0.2908587;-4;22;1;2605;2458;-967;8;-0.04155125;-0.6620498;0.2520775;0.7045711;2;17;0;1553;1351;3245;0.6779487;1.898282;1.778494;0.6781191;1.913819;1.233168;0.6782466;1.925453;0.7537692;0.6746421;1.833406;0.02577424;0.4130626;1.764815;-0.2930031;0.07515936;1.858358;-0.1618157;-0.01012405;0.9473207;-0.01667136;0;0;0;0.9330077;1.744448;-0.2930054;1.224847;1.813325;-0.1618195;1.303302;0.8762829;0.04811096;1.263809;-0.06887829;0.1019372;0.3660951;1.892756;1.82376;0.6717237;1.033949;2.968269;0.8686977;0.6793087;4.25192;0.3660951;1.892756;1.82376;0.6717237;1.033949;2.968269;0.8686977;0.6793087;4.25192
542311.7016;NotLabelled;NONE;16384;-0.2132964;0.333795;-0.6703916;-0.6274238;-2;13;1;-586;4032;177;65536;0.3268698;-0.3365651;0.6218836;0.6270095;8;0;1;247;4010;55;8192;0.6301939;-0.6640433;0.1952908;0.3518005;-1;5;-3;836;3959;-517;32768;0.6274238;-0.6723003;0.2700831;0.2853186;4;4;0;13;4099;290;256;0.6357341;0.02493075;-0.7692032;0.05955679;0;1;6;273;-442;4123;128;-0.601108;0.09833795;0.7860779;0.1052632;-3;2;-6;-245;1171;-4088;4;0.2977839;0.3421052;-0.5969529;-0.6617673;-3;24;0;-3369;2594;-276;16;0.1952908;-0.7247263;-0.01246537;0.6606648;-3;26;13;-899;1250;3784;2;0.533241;-0.7288755;-0.3171745;0.2894737;-3;14;0;2597;2466;-917;8;-0.0401662;-0.6620498;0.2506925;0.7051454;0;16;0;1517;1347;3295;0.6824497;1.89644;1.779908;0.6826302;1.912912;1.23461;0.6827669;1.925369;0.755232;0.6791971;1.833322;0.02723694;0.4176326;1.76473;-0.2915532;0.07972321;1.858274;-0.1603819;-0.008229558;0.9473484;-0.0161318;0;0;0;0.9375778;1.744364;-0.2915303;1.229411;1.813242;-0.160331;1.307483;0.8761001;0.04930079;1.266237;-0.06905067;0.1019894;0.3705954;1.890836;1.825159;0.6729884;1.032462;2.970852;0.8548436;0.6743293;4.255764;0.3705954;1.890836;1.825159;0.6729884;1.032462;2.970852;0.8548436;0.6743293;4.255764
542331.7197;NotLabelled;NONE;16384;-0.2160665;0.33518;-0.6701083;-0.6260388;0;2;3;-704;3880;-49;65536;0.3254848;-0.33518;0.6246537;0.625717;7;-14;2;219;4106;67;8192;0.6301939;-0.6640433;0.1952908;0.3518005;-1;4;-3;848;3947;-503;32768;0.6274238;-0.6723003;0.2700831;0.2853186;4;3;1;-61;4121;210;256;0.634349;0.02493075;-0.7703459;0.05955679;0;1;6;205;-366;3979;128;-0.599723;0.09833795;0.7871351;0.1052632;-2;4;-6;-185;1271;-3978;4;0.2950138;0.3448753;-0.5969529;-0.6615701;-1;22;-1;-3455;2522;-428;16;0.1966759;-0.7268156;-0.01523546;0.6578947;-3;17;12;-1147;1204;3616;2;0.534626;-0.7289557;-0.3171745;0.2867036;-3;8;-3;2849;2462;-755;8;-0.03878116;-0.6620498;0.2493075;0.7057137;-1;14;0;1613;1269;3415;0.6865956;1.895938;1.783142;0.6867764;1.91241;1.237844;0.686913;1.924867;0.7584657;0.683529;1.834374;0.03027511;0.4220964;1.766003;-0.2886705;0.08401792;1.858668;-0.1573113;-0.00279481;0.9474065;-0.01450054;0;0;0;0.9420766;1.746556;-0.2886735;1.233783;1.815668;-0.1573157;1.312798;0.8776035;0.04778421;1.274516;-0.06778157;0.0984664;0.3747413;1.890334;1.828393;0.6765797;1.032419;2.974576;0.8564173;0.6735229;4.259558;0.3747413;1.890334;1.828393;0.6765797;1.032419;2.974576;0.8564173;0.6735229;4.259558
542352.8362;NotLabelled;NONE;16384;-0.2160665;0.33518;-0.6701083;-0.6260388;2;3;2;-750;4012;115;65536;0.3240997;-0.333795;0.6271747;0.6246537;5;-19;-1;111;4164;-165;8192;0.6301939;-0.6640433;0.1952908;0.3518005;-1;6;-1;692;4069;-435;32768;0.6288089;-0.6715924;0.2700831;0.2839335;4;3;2;25;4077;190;256;0.632964;0.02493075;-0.77159;0.05817174;2;2;6;99;-300;3927;128;-0.5983379;0.09833795;0.7880023;0.1066482;2;3;-6;11;1247;-3800;4;0.2936288;0.3462604;-0.5955678;-0.6627102;0;13;0;-3435;2582;-536;16;0.199446;-0.7272826;-0.0166205;0.6565097;-3;23;11;-1449;1262;3544;2;0.534626;-0.7289557;-0.3171745;0.2867036;-4;4;-2;3233;2436;-853;8;-0.03739612;-0.6634349;0.2493075;0.7044867;0;9;0;1687;1265;3681;0.692697;1.896426;1.786733;0.6928774;1.912872;1.241434;0.6930137;1.925306;0.7620552;0.6896481;1.834764;0.03387022;0.4282299;1.766314;-0.28507;0.09013109;1.858912;-0.153716;0.002335912;0.9474306;-0.01292311;0;0;0;0.9482146;1.746982;-0.2850726;1.239907;1.816167;-0.1537207;1.319659;0.8781021;0.05109417;1.281558;-0.06728339;0.1019132;0.3808435;1.890824;1.831984;0.6813906;1.032872;2.978479;0.8575843;0.6749809;4.264246;0.3808435;1.890824;1.831984;0.6813906;1.032872;2.978479;0.8575843;0.6749809;4.264246
542374.7029;NotLabelled;NONE;16384;-0.2160665;0.33518;-0.6701083;-0.6260388;2;2;0;-918;4114;235;65536;0.3227147;-0.3310249;0.6293532;0.6246537;-2;-17;-3;101;4162;-113;8192;0.6315789;-0.6641892;0.1952908;0.3490305;-1;3;0;556;4007;-301;32768;0.6288089;-0.6721762;0.2700831;0.2825485;1;0;0;65;4097;192;256;0.632964;0.0235457;-0.7716335;0.05817174;3;0;6;7;-306;3979;128;-0.5969529;0.09695291;0.7892234;0.1066482;0;1;-6;33;1267;-3820;4;0.2922437;0.3476454;-0.5955678;-0.6625973;-1;9;0;-3539;2604;-622;16;0.2022161;-0.7289425;-0.01939058;0.6537396;-3;27;10;-1563;1194;3534;2;0.5373961;-0.7262467;-0.3199446;0.2853186;-3;16;0;3523;2642;-749;8;-0.03047091;-0.666205;0.2423823;0.7046228;2;49;5;1493;1349;3697;0.6965045;1.89348;1.787874;0.6966978;1.911111;1.242612;0.6968457;1.924588;0.7632619;0.6937124;1.835556;0.03488982;0.4324536;1.767252;-0.2842124;0.09416252;1.858907;-0.1526918;0.006869826;0.9474258;-0.01158645;0;0;0;0.9524755;1.748951;-0.2842154;1.24402;1.818441;-0.1526971;1.324502;0.8803763;0.05183113;1.287786;-0.06522179;0.09963179;0.3846491;1.88778;1.833106;0.6913229;1.030315;2.978341;0.869992;0.6691432;4.262849;0.3846491;1.88778;1.833106;0.6913229;1.030315;2.978341;0.869992;0.6691432;4.262849
542395.7053;NotLabelled;NONE;16384;-0.2160665;0.33518;-0.6701083;-0.6260388;-1;-1;-2;-790;4308;311;65536;0.3227147;-0.3296399;0.6260388;0.6287036;-7;-1;-2;-375;4338;69;8192;0.632964;-0.6628694;0.1952908;0.3490305;-2;6;0;650;4097;-411;32768;0.6288089;-0.6721762;0.2700831;0.2825485;1;2;0;27;4121;238;256;0.6315789;0.0235457;-0.7728706;0.0567867;3;-1;4;83;-404;4125;128;-0.5969529;0.09833795;0.789052;0.1066482;-3;-4;-6;65;1339;-3992;4;0.2908587;0.3476454;-0.5941828;-0.6644477;-3;1;0;-3333;2752;-654;16;0.2077562;-0.7296948;-0.02493075;0.6509695;-1;2;2;-1557;1302;3768;2;0.5387812;-0.7245356;-0.3227147;0.2839335;-6;22;3;3519;2652;-851;8;-0.02493075;-0.6689751;0.2382271;0.7036325;5;55;7;2049;1455;3591;0.6988392;1.892637;1.792184;0.6990225;1.909313;1.246892;0.6991614;1.92195;0.7675185;0.6958525;1.834201;0.03899157;0.4344549;1.767015;-0.2802339;0.09635768;1.859162;-0.1485587;0.00911795;0.9474351;-0.009016674;0;0;0;0.9544365;1.747603;-0.2802607;1.246126;1.816239;-0.1486158;1.325518;0.8769009;0.0504204;1.287068;-0.06868422;0.09710109;0.3869846;1.887016;1.837431;0.6911591;1.029528;2.983316;0.8632677;0.6667809;4.268276;0.3869846;1.887016;1.837431;0.6911591;1.029528;2.983316;0.8632677;0.6667809;4.268276
542416.723;NotLabelled;NONE;16384;-0.2160665;0.33518;-0.6701083;-0.6260388;0;-2;-2;-602;4248;135;65536;0.3213296;-0.3296399;0.6260388;0.6294127;-9;-6;0;-13;4156;53;8192;0.632964;-0.6640029;0.1939058;0.3476454;-2;6;1;610;3969;-411;32768;0.6288089;-0.6721762;0.2700831;0.2825485;1;2;0;115;4157;230;256;0.6315789;0.0235457;-0.7728706;0.0567867;3;-1;3;135;-270;4189;128;-0.5955678;0.09972299;0.7899243;0.1066482;-5;-8;-6;-57;1361;-4086;4;0.2894737;0.3476454;-0.5955678;-0.6638122;0;-3;0;-3333;2670;-684;16;0.2063712;-0.7288965;-0.0235457;0.6523545;1;-29;-6;-1621;1284;3758;2;0.5401662;-0.7228046;-0.3254848;0.2825485;-1;26;7;3439;2676;-1065;8;-0.02077562;-0.6717451;0.2354571;0.702059;7;40;7;2119;1491;3667;0.6880734;1.889954;1.789494;0.6882666;1.907561;1.244231;0.6884143;1.921015;0.7648808;0.6853649;1.83478;0.03617215;0.424138;1.767744;-0.2832251;0.08584432;1.858949;-0.1513996;-0.0009235319;0.9474685;-0.009970789;0;0;0;0.9441569;1.749357;-0.2832283;1.235695;1.818292;-0.1514051;1.318778;0.8791296;0.04695261;1.280492;-0.06645501;0.09376812;0.3762181;1.884256;1.834727;0.6888006;1.024828;2.976889;0.8617395;0.6603522;4.261247;0.3762181;1.884256;1.834727;0.6888006;1.024828;2.976889;0.8617395;0.6603522;4.261247
542437.7047;NotLabelled;NONE;16384;-0.2160665;0.33518;-0.6701083;-0.6260388;4;0;0;-622;4024;47;65536;0.3185596;-0.3282548;0.6246537;0.632911;-9;-13;-1;135;4224;47;8192;0.632964;-0.6640029;0.1939058;0.3476454;0;3;1;558;4089;-507;32768;0.6288089;-0.6721762;0.2700831;0.2825485;2;2;-1;133;4077;204;256;0.6315789;0.02216066;-0.773012;0.05540166;1;-2;3;239;-220;4213;128;-0.5955678;0.101108;0.7897483;0.1066482;-4;-8;-6;-205;1531;-4206;4;0.2908587;0.3476454;-0.5941828;-0.6644477;4;-3;-3;-3077;2470;-872;16;0.2022161;-0.7277336;-0.01800554;0.6551247;2;-57;-13;-1885;1334;3724;2;0.5401662;-0.7220917;-0.3282548;0.2811634;0;23;7;3205;2674;-875;8;-0.01523546;-0.6731302;0.232687;0.701798;11;39;10;1633;1485;3757;0.6876075;1.887998;1.785919;0.6878107;1.906507;1.240685;0.6879671;1.920755;0.7613577;0.684947;1.83452;0.03264868;0.4237328;1.767485;-0.2867591;0.08543374;1.85869;-0.1549469;-0.001342695;0.9474441;-0.012014;0;0;0;0.9437517;1.749097;-0.2867413;1.235284;1.818033;-0.1549064;1.316655;0.8792716;0.04604566;1.278368;-0.06631267;0.09285939;0.3757513;1.882225;1.831136;0.6831861;1.019802;2.972438;0.8594133;0.6561514;4.256583;0.3757513;1.882225;1.831136;0.6831861;1.019802;2.972438;0.8594133;0.6561514;4.256583
542459.272;NotLabelled;NONE;16384;-0.2160665;0.33518;-0.6701083;-0.6260388;5;-2;-2;-752;4114;131;65536;0.3171745;-0.3282548;0.6246537;0.6336063;-10;-10;0;-145;4136;21;8192;0.632964;-0.6640029;0.1939058;0.3476454;1;3;2;684;4159;-401;32768;0.6301939;-0.6708779;0.2700831;0.2825485;0;3;-2;79;4143;156;256;0.6301939;0.02077562;-0.77418;0.05540166;0;-3;5;83;-220;4075;128;-0.5941828;0.1038781;0.7904317;0.1066482;0;0;-6;-207;1385;-4062;4;0.2908587;0.3476454;-0.5927978;-0.6656836;12;0;-5;-3081;2430;-650;16;0.1980609;-0.7252356;-0.01246537;0.6592798;3;-62;-18;-2171;1302;3526;2;0.5415512;-0.7203255;-0.3310249;0.2797784;0;22;7;3229;2740;-815;8;-0.008310249;-0.6772853;0.2285319;0.6992773;14;63;12;1339;1391;3773;0.681601;1.882362;1.782572;0.6818141;1.9018;1.237371;0.6819792;1.916865;0.7580682;0.6790288;1.833473;0.0290283;0.4178341;1.767784;-0.290675;0.07955166;1.858605;-0.1585556;-0.007187806;0.9473664;-0.01555659;0;0;0;0.9378458;1.749196;-0.2906562;1.229386;1.817505;-0.1585127;1.31081;0.8787538;0.04246354;1.272528;-0.06683064;0.08928239;0.369744;1.876512;1.827773;0.6824293;1.017084;2.969907;0.8639193;0.6526235;4.25309;0.369744;1.876512;1.827773;0.6824293;1.017084;2.969907;0.8639193;0.6526235;4.25309
542479.8427;NotLabelled;NONE;16384;-0.2146814;0.33518;-0.6705533;-0.6260388;3;-2;-3;-606;4004;167;65536;0.3157895;-0.3282548;0.6232687;0.6356587;-11;-4;0;-9;4130;-11;8192;0.634349;-0.6638079;0.1925208;0.3462604;1;6;0;678;4027;-393;32768;0.6301939;-0.672015;0.2686981;0.2811634;-1;5;-3;5;4131;158;256;0.6288089;0.02077562;-0.7753054;0.05540166;1;-2;5;183;-390;3973;128;-0.5927978;0.1038781;0.791471;0.1066482;0;0;-7;-103;1221;-3838;4;0.2922437;0.3476454;-0.5914127;-0.6663087;14;-3;-2;-3013;2404;-654;16;0.1939058;-0.7226241;-0.008310249;0.6634349;4;-42;-20;-2047;1314;3498;2;0.5429363;-0.7185389;-0.333795;0.2783934;-1;24;9;3315;2554;-821;8;0;-0.6814404;0.2229917;0.6970751;15;85;12;1339;1463;3653;0.680644;1.87642;1.781787;0.6808774;1.897686;1.236655;0.6810603;1.914359;0.757405;0.6779637;1.832197;0.0282259;0.4166489;1.767553;-0.291592;0.07854049;1.858809;-0.1593261;-0.007670565;0.9473279;-0.01755731;0;0;0;0.9366236;1.747957;-0.2915947;1.228293;1.815478;-0.1593314;1.31046;0.876385;0.03973961;1.275301;-0.06941319;0.08465004;0.3687851;1.870419;1.826957;0.6904767;1.011539;2.967001;0.8869002;0.6469202;4.247937;0.3687851;1.870419;1.826957;0.6904767;1.011539;2.967001;0.8869002;0.6469202;4.247937
542500.7108;NotLabelled;NONE;16384;-0.2146814;0.33518;-0.6705533;-0.6260388;5;0;-3;-510;4114;141;65536;0.3157895;-0.3282548;0.6232687;0.6356587;-10;-4;0;41;4034;55;8192;0.634349;-0.6638079;0.1925208;0.3462604;1;6;0;786;3929;-451;32768;0.6315789;-0.6712667;0.267313;0.2811634;0;6;-3;-49;4123;224;256;0.6274238;0.01939058;-0.7764625;0.05540166;1;-3;6;201;-422;3895;128;-0.5927978;0.1038781;0.791471;0.1066482;0;0;-7;-149;1173;-3852;4;0.2922437;0.3476454;-0.5872576;-0.6699737;15;13;0;-2935;2374;-472;16;0.1925208;-0.7191861;-0.005540166;0.66759;1;-8;-18;-995;1118;3482;2;0.5429363;-0.715029;-0.3434903;0.2756233;8;31;11;3241;2454;-651;8;0.0166205;-0.6883656;0.2132964;0.6930953;13;44;12;1389;1517;3425;0.6768548;1.876222;1.776795;0.6770877;1.897454;1.231661;0.6772702;1.914096;0.7524105;0.6741885;1.831886;0.02323687;0.4128858;1.767168;-0.2965759;0.07475933;1.858364;-0.1643159;-0.0117176;0.947227;-0.02050996;0;0;0;0.9328644;1.747674;-0.2965792;1.224521;1.815263;-0.1643208;1.308707;0.8760703;0.03343058;1.272365;-0.06963933;0.07926285;0.3649963;1.870224;1.821966;0.6958306;1.014369;2.961668;0.9072418;0.6519446;4.240841;0.3649963;1.870224;1.821966;0.6958306;1.014369;2.961668;0.9072418;0.6519446;4.240841
542520.711;NotLabelled;NONE;16384;-0.2146814;0.3365651;-0.6698592;-0.6260388;4;2;-2;-628;3914;127;65536;0.3144044;-0.3282548;0.6218836;0.6376985;-9;-7;1;125;4150;-7;8192;0.634349;-0.664208;0.1911357;0.3462604;1;9;2;776;3969;-455;32768;0.6315789;-0.6718166;0.265928;0.2811634;0;4;-3;59;4097;202;256;0.6274238;0.01939058;-0.7764625;0.05540166;1;-1;5;217;-474;3997;128;-0.5927978;0.1038781;0.791471;0.1066482;-1;1;-5;-107;1177;-3912;4;0.2908587;0.3476454;-0.5858725;-0.6717866;13;14;-1;-3037;2598;-476;16;0.1925208;-0.7166048;-0.005540166;0.6703601;2;0;-16;-813;1224;3684;2;0.5429363;-0.7140827;-0.3476454;0.2728532;7;31;5;2969;2640;-425;8;0.02216066;-0.69241;0.2105263;0.6897507;11;38;12;623;1363;3505;0.6757619;1.873516;1.776333;0.6759947;1.894748;1.2312;0.6761773;1.91139;0.751949;0.672983;1.830402;0.02263886;0.4115756;1.766729;-0.297298;0.07361889;1.858364;-0.1649067;-0.01179324;0.947227;-0.0204668;0;0;0;0.9315151;1.746222;-0.2973012;1.223294;1.81302;-0.164912;1.308939;0.8738277;0.03221118;1.276119;-0.07201171;0.0780164;0.3639033;1.867517;1.821504;0.7129865;1.013467;2.957108;0.9423558;0.6506326;4.233067;0.3639033;1.867517;1.821504;0.7129865;1.013467;2.957108;0.9423558;0.6506326;4.233067
542541.8416;NotLabelled;NONE;16384;-0.2132964;0.3365651;-0.6690052;-0.6274238;2;-6;-2;-848;4074;-101;65536;0.3116343;-0.3268698;0.6218836;0.6397663;-6;-7;0;-69;4100;341;8192;0.634349;-0.6649282;0.1911357;0.3448753;2;7;2;634;4055;-381;32768;0.6315789;-0.6718166;0.265928;0.2811634;-1;4;-4;101;4111;222;256;0.6260388;0.01939058;-0.7775797;0.05540166;0;0;4;129;-438;4021;128;-0.5914127;0.1038781;0.7923189;0.1080332;-4;0;-4;-51;1209;-3944;4;0.2894737;0.3490305;-0.5831025;-0.6740729;10;18;-3;-3091;2478;-474;16;0.1925208;-0.7153066;-0.005540166;0.6717451;0;2;-14;-795;1074;3856;2;0.5443213;-0.7127261;-0.3504155;0.2700831;4;25;0;2871;2558;-367;8;0.02908587;-0.6947789;0.2063712;0.6883656;9;47;11;315;1421;3597;0.6719115;1.873134;1.771857;0.6721444;1.894365;1.226723;0.672327;1.911008;0.7474724;0.6691326;1.83002;0.01816231;0.4077252;1.766347;-0.3017745;0.06976853;1.857982;-0.1693832;-0.01577801;0.9471003;-0.02341814;0;0;0;0.9276648;1.745839;-0.3017777;1.219444;1.812637;-0.1693887;1.304768;0.873886;0.02996194;1.272362;-0.07187378;0.0776732;0.3600527;1.867135;1.817027;0.7134193;1.011283;2.949948;0.9526902;0.6498281;4.224478;0.3600527;1.867135;1.817027;0.7134193;1.011283;2.949948;0.9526902;0.6498281;4.224478
542562.6999;NotLabelled;NONE;16384;-0.2132964;0.3379501;-0.6683066;-0.6274238;4;-5;-3;-854;3904;-253;65536;0.3116343;-0.3268698;0.6204986;0.6411097;-5;-1;0;87;4116;239;8192;0.634349;-0.6653247;0.1897507;0.3448753;2;3;3;536;4123;-299;32768;0.6315789;-0.6723632;0.2645429;0.2811634;-2;1;-4;85;4115;178;256;0.6260388;0.01939058;-0.7775797;0.05540166;0;2;2;-69;-408;4023;128;-0.5914127;0.1052632;0.7919459;0.1094183;-5;3;-4;-9;1227;-3940;4;0.2894737;0.3504155;-0.5817174;-0.6745508;10;17;-6;-3097;2382;-454;16;0.1925208;-0.7140034;-0.005540166;0.6731302;0;5;-12;-727;1048;3924;2;0.5457063;-0.7108206;-0.3531856;0.2686981;1;20;-1;3213;2516;-207;8;0.03462604;-0.6971136;0.2022161;0.6869806;7;38;6;481;1347;3779;0.6662686;1.870848;1.766687;0.6665148;1.893264;1.221601;0.6667089;1.910947;0.7423873;0.6635284;1.829908;0.01308292;0.4021325;1.76616;-0.3068486;0.06415831;1.857738;-0.1744627;-0.01816016;0.9469965;-0.025796;0;0;0;0.9220761;1.745756;-0.3068519;1.213843;1.812621;-0.1744683;1.297799;0.8734968;0.02370429;1.265563;-0.07226312;0.07153058;0.3544088;1.864752;1.811837;0.7183699;1.010208;2.942388;0.9671277;0.6494465;4.215298;0.3544088;1.864752;1.811837;0.7183699;1.010208;2.942388;0.9671277;0.6494465;4.215298
542583.7083;NotLabelled;NONE;16384;-0.2119114;0.3379501;-0.6687471;-0.6274238;5;0;-4;-714;3940;-253;65536;0.3116343;-0.3268698;0.6204986;0.6411097;-6;3;0;97;4114;95;8192;0.634349;-0.6653247;0.1897507;0.3448753;2;1;3;760;4037;-455;32768;0.6315789;-0.6723261;0.2631579;0.2825485;-2;2;-6;31;4121;214;256;0.6260388;0.02077562;-0.7775438;0.05540166;0;3;1;13;-494;3925;128;-0.5900277;0.1038781;0.7929687;0.1108033;-4;9;-3;-49;1113;-3924;4;0.2880886;0.3531856;-0.5789474;-0.6760805;9;23;-6;-3035;2218;-558;16;0.1925208;-0.7126951;-0.005540166;0.6745152;0;9;-10;-721;902;3818;2;0.5470914;-0.7101077;-0.3545706;0.265928;1;17;0;3185;2388;-507;8;0.03739612;-0.6991292;0.199446;0.6855956;4;6;0;515;1279;3813;0.6622713;1.866451;1.763766;0.6625409;1.891012;1.218772;0.6627558;1.910581;0.739632;0.6595752;1.829542;0.0103277;0.3981793;1.765794;-0.3096039;0.0602052;1.857372;-0.177218;-0.02169997;0.9468964;-0.0267039;0;0;0;0.918123;1.74539;-0.3096074;1.209889;1.812255;-0.1772238;1.29427;0.873572;0.02285182;1.262454;-0.07210422;0.07258141;0.3504094;1.860177;1.808878;0.7166541;1.008725;2.941024;0.9703757;0.6486596;4.21315;0.3504094;1.860177;1.808878;0.7166541;1.008725;2.941024;0.9703757;0.6486596;4.21315
542603.8711;NotLabelled;NONE;16384;-0.2119114;0.3393352;-0.6680453;-0.6274238;3;4;-3;-742;4090;15;65536;0.3116343;-0.3282548;0.6191136;0.6417407;-6;0;0;157;4122;111;8192;0.634349;-0.6649989;0.1883656;0.3462604;3;0;2;792;3979;-435;32768;0.6315789;-0.6723261;0.2631579;0.2825485;-2;1;-5;-75;4139;274;256;0.6260388;0.02077562;-0.7776413;0.05401662;0;4;1;71;-600;4023;128;-0.5900277;0.1024931;0.7929541;0.1121884;-3;13;-2;-91;983;-3942;4;0.2867036;0.3545706;-0.5761772;-0.6783071;9;24;-5;-2959;2126;-526;16;0.1939058;-0.7123074;-0.006925208;0.6745152;-2;14;-6;-853;836;3678;2;0.5484765;-0.7081654;-0.3573407;0.2645429;0;2;0;2923;2320;-169;8;0.033241;-0.6950025;0.2049861;0.6883656;-2;-51;-11;179;1203;3629;0.6629798;1.868488;1.761888;0.6632522;1.893312;1.216905;0.6634694;1.913111;0.7377747;0.6604171;1.830802;0.008612037;0.3991387;1.765938;-0.3111913;0.06097645;1.857017;-0.1789414;-0.02169617;0.9468966;-0.0267066;0;0;0;0.9191251;1.746653;-0.3111943;1.210755;1.814376;-0.1789461;1.295089;0.8756931;0.0211488;1.265445;-0.06989121;0.07387793;0.351118;1.862192;1.806995;0.7213376;1.014531;2.940692;0.9798593;0.6551654;4.212049;0.351118;1.862192;1.806995;0.7213376;1.014531;2.940692;0.9798593;0.6551654;4.212049
542624.7208;NotLabelled;NONE;16384;-0.2119114;0.3393352;-0.6680453;-0.6274238;3;0;-2;-760;4064;-17;65536;0.3102493;-0.3282548;0.6191136;0.6424115;-5;0;0;117;4046;79;8192;0.634349;-0.6649989;0.1883656;0.3462604;2;1;3;944;4039;-429;32768;0.6315789;-0.6722833;0.2617728;0.2839335;-2;2;-4;-53;4093;230;256;0.6246537;0.02216066;-0.7787161;0.05401662;1;4;2;173;-670;3973;128;-0.5886427;0.101108;0.7939635;0.1135734;-5;15;-1;-155;975;-3958;4;0.2825485;0.3601108;-0.5720221;-0.6806448;6;28;0;-3167;2178;-782;16;0.1952908;-0.7118279;-0.01385042;0.6745152;-6;26;-3;-857;794;3602;2;0.5484765;-0.7081654;-0.3573407;0.2645429;-3;2;-3;2969;2368;-97;8;0.02770083;-0.6926302;0.2091413;0.6897507;-5;-47;-13;23;1305;3669;0.6602806;1.866593;1.757694;0.6605562;1.891715;1.212726;0.6607763;1.911776;0.7336059;0.6579232;1.831042;0.004266679;0.3967827;1.766415;-0.315697;0.0584523;1.856618;-0.1832778;-0.0238171;0.9467716;-0.02920184;0;0;0;0.9168019;1.748034;-0.3156995;1.208304;1.815977;-0.183282;1.295136;0.8781188;0.0195899;1.26549;-0.06746459;0.0723182;0.3484184;1.860273;1.802796;0.7250465;1.014069;2.93547;0.9849657;0.6547627;4.20656;0.3484184;1.860273;1.802796;0.7250465;1.014069;2.93547;0.9849657;0.6547627;4.20656
542644.796;NotLabelled;NONE;16384;-0.2105263;0.3407202;-0.6677782;-0.6274238;2;5;-3;-618;3984;-61;65536;0.3102493;-0.3296399;0.6177285;0.6430353;-5;2;1;83;4122;215;8192;0.634349;-0.6653897;0.1869806;0.3462604;1;5;2;1006;3973;-555;32768;0.6315789;-0.6722833;0.2617728;0.2839335;-1;2;-2;-67;4167;260;256;0.6246537;0.02216066;-0.7787161;0.05401662;1;4;4;213;-692;3951;128;-0.5886427;0.09972299;0.7939394;0.1149584;-3;16;-2;-95;1019;-3968;4;0.2797784;0.3614958;-0.5692521;-0.6833717;4;27;0;-3331;2218;-920;16;0.1966759;-0.7113871;-0.0166205;0.6745152;-8;27;-1;-839;826;3646;2;0.5498615;-0.7076072;-0.3573407;0.2631579;-8;3;-5;3053;2374;-77;8;0.02493075;-0.6883656;0.2105263;0.6936929;-8;-32;-13;271;1195;3739;0.6591257;1.869059;1.755342;0.6594042;1.894457;1.210386;0.6596267;1.914761;0.7312765;0.6569205;1.832713;0.002082944;0.395914;1.766899;-0.3177481;0.05738016;1.856544;-0.1854691;-0.02436355;0.9466972;-0.03111284;0;0;0;0.915975;1.749742;-0.3177507;1.207324;1.818608;-0.1854731;1.294847;0.8807499;0.01710165;1.267577;-0.06472778;0.07292271;0.3472633;1.862715;1.800439;0.7307304;1.021116;2.934248;0.9970122;0.6719825;4.206854;0.3472633;1.862715;1.800439;0.7307304;1.021116;2.934248;0.9970122;0.6719825;4.206854
542665.8409;NotLabelled;NONE;16384;-0.2119114;0.3421052;-0.666631;-0.6274238;2;5;-2;-772;4012;-63;65536;0.3102493;-0.3296399;0.6163435;0.644363;-5;0;0;83;4110;209;8192;0.6357341;-0.6644549;0.1855956;0.3462604;1;7;2;924;3931;-601;32768;0.6315789;-0.6728209;0.2603878;0.2839335;0;4;-2;37;4153;320;256;0.6246537;0.0235457;-0.7786756;0.05401662;2;4;4;89;-656;3973;128;-0.5872576;0.09695291;0.7951055;0.1163435;-2;16;-2;-29;1033;-4034;4;0.2783934;0.3642659;-0.566482;-0.6847668;4;21;-2;-3611;2334;-882;16;0.199446;-0.7118185;-0.02077562;0.6731302;-7;28;1;-1127;978;3932;2;0.5526316;-0.705961;-0.3573407;0.2617728;-10;3;-6;3163;2310;-119;8;0.02216066;-0.6855956;0.2119114;0.6961043;-9;-21;-12;729;1163;3695;0.6573119;1.8677;1.749245;0.6575938;1.893404;1.204304;0.6578193;1.913976;0.7252055;0.6551131;1.831928;-0.003988087;0.3941066;1.766114;-0.323819;0.0555728;1.855759;-0.19154;-0.02647834;0.9465548;-0.03360084;0;0;0;0.9141677;1.748957;-0.3238217;1.205516;1.817824;-0.1915444;1.293459;0.8804175;0.01293337;1.266189;-0.06506038;0.06875515;0.3454493;1.861332;1.794337;0.7348142;1.018922;2.925531;1.002679;0.672398;4.198519;0.3454493;1.861332;1.794337;0.7348142;1.018922;2.925531;1.002679;0.672398;4.198519
542686.7031;NotLabelled;NONE;16384;-0.2119114;0.3434903;-0.6659184;-0.6274238;2;0;-2;-942;3990;-107;65536;0.3102493;-0.3296399;0.6163435;0.644363;-4;-1;0;47;4134;189;8192;0.6357341;-0.6648402;0.1842105;0.3462604;1;4;1;746;4013;-495;32768;0.632964;-0.6720535;0.2590028;0.2839335;0;2;-2;-5;4133;224;256;0.6232687;0.0235457;-0.7798793;0.05263158;4;1;2;-19;-620;3983;128;-0.5872576;0.09418282;0.7950283;0.1191136;-3;9;-1;273;1053;-3910;4;0.2770083;0.365651;-0.5650969;-0.6857341;3;15;-4;-3763;2410;-862;16;0.200831;-0.7112954;-0.02493075;0.6731302;-7;24;1;-1137;824;4056;2;0.5554016;-0.7037838;-0.3573407;0.2617728;-12;8;-4;3173;2188;-177;8;0.01939058;-0.6842105;0.2119114;0.6975483;-11;-18;-11;1003;1119;3613;0.6526285;1.871704;1.748172;0.6529037;1.896783;1.203202;0.6531233;1.916807;0.7240803;0.6505551;1.833492;-0.004969716;0.3896741;1.766562;-0.3246716;0.05095478;1.855705;-0.1925288;-0.02999329;0.946418;-0.03450138;0;0;0;0.9097707;1.750526;-0.3246744;1.200977;1.82025;-0.192533;1.292308;0.8831313;0.01177859;1.265454;-0.06224418;0.06949627;0.3407664;1.865386;1.793275;0.7337483;1.026996;2.926203;0.9995135;0.6824036;4.200155;0.3407664;1.865386;1.793275;0.7337483;1.026996;2.926203;0.9995135;0.6824036;4.200155
542706.7198;NotLabelled;NONE;16384;-0.2105263;0.3434903;-0.6663576;-0.6274238;1;-2;0;-912;4014;-101;65536;0.3088643;-0.3296399;0.6163435;0.645028;-4;-1;0;9;4098;93;8192;0.6357341;-0.6648402;0.1842105;0.3462604;0;5;1;694;4049;-337;32768;0.632964;-0.6720535;0.2590028;0.2839335;-1;0;-2;-45;4073;122;256;0.6232687;0.0235457;-0.7799715;0.05124654;6;0;0;11;-604;3919;128;-0.5872576;0.09279778;0.7949824;0.1204986;-1;7;0;297;1107;-3918;4;0.2756233;0.368421;-0.5637119;-0.6859494;1;10;-4;-3751;2302;-1030;16;0.200831;-0.7125537;-0.02631579;0.6717451;-7;11;1;-1003;780;3906;2;0.5567867;-0.7026885;-0.3573407;0.2617728;-11;4;-3;2967;2066;-287;8;0.01523546;-0.6828254;0.2132964;0.6985857;-12;-22;-9;1325;1101;3455;0.6513336;1.869461;1.746261;0.6516156;1.895169;1.20132;0.6518413;1.915746;0.7222219;0.6494789;1.833969;-0.007003069;0.3887474;1.767211;-0.326863;0.0498482;1.85542;-0.1945536;-0.03011512;0.9464183;-0.03439458;0;0;0;0.9088742;1.752182;-0.3268656;1.199937;1.822188;-0.1945577;1.292424;0.8855276;0.01132691;1.269136;-0.05994868;0.0689528;0.339471;1.863091;1.791353;0.7381264;1.025522;2.922905;1.010151;0.6860888;4.19692;0.339471;1.863091;1.791353;0.7381264;1.025522;2.922905;1.010151;0.6860888;4.19692
542727.882;NotLabelled;NONE;16384;-0.2105263;0.3434903;-0.6663576;-0.6274238;0;-2;0;-886;4004;-91;65536;0.3088643;-0.3296399;0.6163435;0.645028;-4;-2;0;29;4118;189;8192;0.6357341;-0.6655596;0.1842105;0.3448753;0;2;1;790;4089;-363;32768;0.632964;-0.6720535;0.2590028;0.2839335;-2;-1;-2;29;4093;180;256;0.6232687;0.0235457;-0.7799715;0.05124654;5;-1;-2;-29;-594;4005;128;-0.5872576;0.09141274;0.7951429;0.1204986;-2;0;1;349;1105;-4038;4;0.2770083;0.3698061;-0.5637119;-0.684645;-1;-8;-4;-3639;2384;-1110;16;0.1980609;-0.7132763;-0.02770083;0.6717451;-5;-9;0;-1437;878;3818;2;0.5595568;-0.7006709;-0.3559557;0.2631579;-4;-6;-1;2807;2070;-387;8;0.005540166;-0.6786703;0.2174515;0.7014918;-12;-31;-5;1517;1215;3711;0.6514351;1.867457;1.74268;0.6517206;1.893483;1.197754;0.6519494;1.914339;0.7186684;0.6497712;1.83414;-0.01073229;0.3891743;1.767625;-0.3307524;0.05011521;1.854959;-0.1982731;-0.03056644;0.9463294;-0.0363767;0;0;0;0.9093263;1.753496;-0.3307552;1.20026;1.823719;-0.1982783;1.292742;0.8870587;0.007608891;1.269454;-0.0584178;0.06523407;0.339572;1.861062;1.787766;0.737404;1.026669;2.921952;1.004608;0.6889668;4.197447;0.339572;1.861062;1.787766;0.737404;1.026669;2.921952;1.004608;0.6889668;4.197447
542748.721;NotLabelled;NONE;16384;-0.2105263;0.3434903;-0.6663576;-0.6274238;0;-5;0;-914;4012;-203;65536;0.3088643;-0.3296399;0.6163435;0.645028;-1;-3;0;23;4174;307;8192;0.6371191;-0.6646165;0.1828255;0.3448753;-2;3;2;762;3971;-463;32768;0.632964;-0.6720535;0.2590028;0.2839335;-2;-1;-2;-57;4055;242;256;0.6246537;0.0235457;-0.7788627;0.05124654;5;-2;-3;-77;-502;4021;128;-0.5886427;0.09141274;0.7941181;0.1204986;-2;-3;2;273;1239;-4044;4;0.2783934;0.368421;-0.5650969;-0.6836874;-1;-13;-1;-3593;2424;-1006;16;0.1966759;-0.7123532;-0.02770083;0.6731302;-5;-10;-1;-1431;944;3752;2;0.5595568;-0.7008516;-0.3545706;0.2645429;0;-12;0;2919;2158;-349;8;0.001385042;-0.6772853;0.2188366;0.7024196;-10;-23;-3;1467;1219;3749;0.6514739;1.869434;1.744254;0.6517494;1.89455;1.199286;0.6519693;1.914608;0.7201658;0.649771;1.834408;-0.009235084;0.3891651;1.767894;-0.3292482;0.05010968;1.855228;-0.1967595;-0.03056755;0.9463291;-0.03637645;0;0;0;0.909317;1.753765;-0.3292651;1.200255;1.823988;-0.1967958;1.290649;0.8865941;0.006668925;1.267362;-0.05888176;0.06429493;0.3396116;1.863113;1.789357;0.735369;1.033489;2.927758;1.000118;0.7032204;4.205709;0.3396116;1.863113;1.789357;0.735369;1.033489;2.927758;1.000118;0.7032204;4.205709
542768.8684;NotLabelled;NONE;16384;-0.2091413;0.3421052;-0.6662007;-0.6288089;2;-5;0;-888;3956;-197;65536;0.3074792;-0.3296399;0.6163435;0.6456894;1;-3;-1;-21;4144;235;8192;0.6371191;-0.6646165;0.1828255;0.3448753;-1;1;2;806;3959;-609;32768;0.632964;-0.6719993;0.2576177;0.2853186;-2;-1;-1;-23;4121;262;256;0.6246537;0.02216066;-0.7789932;0.04986149;4;-2;-4;-73;-472;4153;128;-0.5886427;0.09141274;0.7941181;0.1204986;0;-4;2;263;1259;-4190;4;0.2797784;0.368421;-0.5650969;-0.6831218;-2;-10;0;-3367;2318;-1132;16;0.1952908;-0.7127341;-0.02770083;0.6731302;-5;-8;-1;-1555;980;3640;2;0.5581717;-0.702825;-0.3518005;0.265928;2;-24;1;2975;2374;-379;8;0;-0.6759003;0.2202216;0.7033216;-9;-19;-2;1445;1351;3793;0.6521668;1.868999;1.74294;0.6524427;1.894119;1.197972;0.6526631;1.914178;0.7188519;0.6504706;1.834015;-0.010553;0.3898612;1.767566;-0.3305764;0.0508189;1.85496;-0.1980936;-0.0304373;0.9463298;-0.03648494;0;0;0;0.9100105;1.753336;-0.330579;1.200958;1.823496;-0.1980981;1.29405;0.88674;0.007076144;1.270558;-0.05873585;0.06461906;0.3403047;1.862679;1.788042;0.7303619;1.032232;2.927811;0.9941951;0.7052164;4.206787;0.3403047;1.862679;1.788042;0.7303619;1.032232;2.927811;0.9941951;0.7052164;4.206787
542789.7449;NotLabelled;NONE;16384;-0.2077562;0.3407202;-0.6673428;-0.6288089;3;-3;0;-732;4078;-29;65536;0.3088643;-0.3296399;0.6163435;0.645028;0;-3;-2;57;4112;85;8192;0.6371191;-0.6646165;0.1828255;0.3448753;0;1;0;878;4001;-531;32768;0.6315789;-0.6733012;0.2576177;0.2853186;0;1;-1;-59;4079;326;256;0.6246537;0.02077562;-0.7790315;0.04986149;2;-2;-3;111;-424;4101;128;-0.5900277;0.09141274;0.7930896;0.1204986;0;-4;2;-13;1211;-4114;4;0.2811634;0.367036;-0.5650969;-0.6832987;-1;-10;2;-3355;2298;-1014;16;0.1939058;-0.7131122;-0.02770083;0.6731302;-4;-3;-1;-1543;1010;3676;2;0.5567867;-0.7042497;-0.3490305;0.2686981;3;-30;3;3313;2438;-265;8;-0.002770083;-0.6759003;0.2216066;0.7028809;-7;-19;-1;1277;1327;3799;0.6493001;1.865186;1.740696;0.6495754;1.890306;1.195728;0.6497952;1.910366;0.716608;0.647647;1.833046;-0.01310372;0.387044;1.767954;-0.3334115;0.0480243;1.854975;-0.2006246;-0.03088649;0.9462359;-0.0384629;0;0;0;0.9071872;1.753505;-0.3334148;1.19815;1.823025;-0.2006302;1.29127;0.8862691;0.004531503;1.269986;-0.05907273;0.06506431;0.3374379;1.858866;1.785799;0.7280149;1.030848;2.927156;0.9907208;0.7062886;4.20699;0.3374379;1.858866;1.785799;0.7280149;1.030848;2.927156;0.9907208;0.7062886;4.20699
542809.7717;NotLabelled;NONE;16384;-0.2077562;0.3407202;-0.6673428;-0.6288089;1;-3;0;-660;4080;43;65536;0.3074792;-0.3282548;0.6163435;0.6463946;0;-4;0;7;4108;57;8192;0.6371191;-0.6649959;0.1814404;0.3448753;0;2;0;908;3935;-501;32768;0.6315789;-0.6733012;0.2576177;0.2853186;-1;0;0;-89;4033;264;256;0.6246537;0.02077562;-0.7790315;0.04986149;1;-2;-4;119;-328;4107;128;-0.5900277;0.09279778;0.7929287;0.1204986;1;-6;2;-19;1331;-4058;4;0.2811634;0.365651;-0.566482;-0.6828943;-1;-8;1;-3387;2510;-872;16;0.1939058;-0.7118022;-0.02770083;0.6745152;-3;-4;-2;-1421;1012;3822;2;0.5554016;-0.7049658;-0.3476454;0.2714681;4;-31;4;3525;2510;-413;8;-0.005540166;-0.6745152;0.2229917;0.7037565;-6;-22;-1;1185;1277;3741;0.6508824;1.86231;1.742882;0.6511577;1.887432;1.197914;0.6513779;1.907494;0.7187943;0.6491013;1.831441;-0.01105028;0.3883753;1.767467;-0.3314828;0.0495372;1.854988;-0.1985622;-0.03044717;0.9463295;-0.03647749;0;0;0;0.9084861;1.751895;-0.3314855;1.199591;1.820558;-0.1985668;1.292767;0.8838028;0.006574392;1.268554;-0.06133354;0.06918299;0.3390201;1.855989;1.787985;0.7325968;1.028033;2.928355;0.9941872;0.7059339;4.209039;0.3390201;1.855989;1.787985;0.7325968;1.028033;2.928355;0.9941872;0.7059339;4.209039
542830.7223;NotLabelled;NONE;16384;-0.2077562;0.3407202;-0.6673428;-0.6288089;1;-6;0;-698;4066;45;65536;0.3074792;-0.3282548;0.6163435;0.6463946;-1;-2;0;23;4100;233;8192;0.6371191;-0.6649959;0.1814404;0.3448753;0;3;2;752;4033;-461;32768;0.6315789;-0.6733012;0.2576177;0.2853186;0;0;0;-69;4121;242;256;0.6260388;0.02077562;-0.7779188;0.04986149;0;-1;-4;99;-238;4091;128;-0.5900277;0.09279778;0.793138;0.1191136;1;-2;3;-7;1393;-4102;4;0.2825485;0.3642659;-0.567867;-0.6819118;0;-6;0;-3355;2330;-972;16;0.1911357;-0.7125511;-0.02770083;0.6745152;-1;-14;-1;-1319;938;3862;2;0.5512465;-0.708642;-0.3434903;0.2756233;3;-18;1;3651;2598;-461;8;-0.01108033;-0.6731302;0.2257618;0.704134;-6;-23;-1;1079;1227;3773;0.6490259;1.860519;1.74244;0.6493114;1.886554;1.197515;0.6495403;1.907419;0.7184294;0.6472636;1.831366;-0.01141506;0.3865377;1.767391;-0.3318472;0.04769948;1.854913;-0.198927;-0.03230179;0.9462533;-0.03685527;0;0;0;0.9066485;1.75182;-0.3318503;1.197753;1.820482;-0.1989318;1.291327;0.8841865;0.008116126;1.267114;-0.06094956;0.07072449;0.3371629;1.854123;1.787526;0.7287104;1.022927;2.926239;0.9952657;0.7016156;4.206096;0.3371629;1.854123;1.787526;0.7287104;1.022927;2.926239;0.9952657;0.7016156;4.206096
542851.8316;NotLabelled;NONE;16384;-0.2063712;0.3393352;-0.6671718;-0.6301939;0;-6;1;-666;3982;-147;65536;0.3074792;-0.3282548;0.6163435;0.6463946;0;-3;0;57;4128;269;8192;0.6371191;-0.6653723;0.1800554;0.3448753;0;0;3;722;4027;-415;32768;0.6315789;-0.6727126;0.2576177;0.2867036;-1;-2;-1;-5;4083;286;256;0.6260388;0.02077562;-0.7779188;0.04986149;-1;0;-4;79;-250;4035;128;-0.5900277;0.09279778;0.793138;0.1191136;1;0;4;3;1399;-4078;4;0.2839335;0.3642659;-0.567867;-0.6813363;0;-9;0;-3399;2384;-914;16;0.1897507;-0.7129737;-0.02631579;0.6745152;-1;-12;-1;-1291;1042;3826;2;0.5512465;-0.7094388;-0.3407202;0.2770083;1;-13;0;3695;2586;-495;8;-0.01385042;-0.6717451;0.2271468;0.7049617;-6;-25;-3;1209;1271;3775;0.6497775;1.862659;1.742722;0.6500494;1.88747;1.197739;0.6502663;1.907259;0.7186083;0.6479764;1.831245;-0.0112403;0.387239;1.767335;-0.3316762;0.04841681;1.854912;-0.1987516;-0.03217115;0.9462526;-0.0369702;0;0;0;0.907347;1.751667;-0.3316798;1.198464;1.82027;-0.1987569;1.291287;0.8839741;0.008629441;1.266852;-0.06116176;0.07115173;0.3379157;1.856364;1.78783;0.7237385;1.024372;2.927912;0.9831936;0.7079835;4.210453;0.3379157;1.856364;1.78783;0.7237385;1.024372;2.927912;0.9831936;0.7079835;4.210453
542873.7047;NotLabelled;NONE;16384;-0.2063712;0.3393352;-0.6671718;-0.6301939;2;-3;0;-758;4034;-173;65536;0.3074792;-0.3268698;0.6163435;0.6470961;0;-2;0;51;4172;199;8192;0.6371191;-0.6653723;0.1800554;0.3448753;1;-2;3;692;4067;-407;32768;0.6315789;-0.6727126;0.2576177;0.2867036;-3;-3;-2;15;4081;214;256;0.6260388;0.02077562;-0.7779188;0.04986149;-4;0;-4;-7;-334;4131;128;-0.5914127;0.09279778;0.7921057;0.1191136;0;-2;4;95;1359;-4064;4;0.2853186;0.3628809;-0.567867;-0.6814967;0;-7;0;-3395;2450;-876;16;0.1883656;-0.7120784;-0.02493075;0.6759003;-1;-5;0;-1407;972;3832;2;0.5498615;-0.7105128;-0.3407202;0.2770083;0;-11;0;3521;2530;-597;8;-0.01800554;-0.6703601;0.2299169;0.7052882;-6;-25;-4;1153;1269;3779;0.6474286;1.862768;1.742177;0.6477005;1.887579;1.197194;0.6479174;1.907368;0.7180632;0.6456275;1.831353;-0.01178533;0.3848901;1.767444;-0.3322211;0.04606789;1.85502;-0.1992965;-0.03217062;0.9462533;-0.03697008;0;0;0;0.9049981;1.751776;-0.3322247;1.196116;1.820378;-0.199302;1.289359;0.8845468;0.009981275;1.266703;-0.0605607;0.07359374;0.3355667;1.856473;1.787285;0.7217528;1.026913;2.929016;0.9798116;0.7104511;4.21182;0.3355667;1.856473;1.787285;0.7217528;1.026913;2.929016;0.9798116;0.7104511;4.21182
542893.7117;NotLabelled;NONE;16384;-0.2063712;0.3393352;-0.6658608;-0.6315789;2;-2;0;-818;4100;-107;65536;0.3074792;-0.3268698;0.6163435;0.6470961;1;-1;-1;160;4083;207;8192;0.6371191;-0.6642758;0.1814404;0.3462604;1;-3;1;868;4057;-443;32768;0.6301939;-0.6734194;0.2576177;0.2880886;-2;-1;-2;-75;4145;276;256;0.6274238;0.02077562;-0.7768021;0.04986149;-4;0;-5;3;-436;4067;128;-0.5914127;0.09279778;0.7921057;0.1191136;0;-3;4;67;1259;-4166;4;0.2853186;0.3614958;-0.567867;-0.6822324;0;-9;0;-3329;2456;-832;16;0.1883656;-0.7120784;-0.02493075;0.6759003;0;0;0;-1255;1026;3788;2;0.5498615;-0.7106343;-0.3393352;0.2783934;-1;-8;-1;3461;2564;-535;8;-0.02077562;-0.6689751;0.2313019;0.7060738;-4;-23;-5;1229;1291;3813;0.6460201;1.86277;1.74378;0.646292;1.887586;1.198798;0.6465091;1.90738;0.7196673;0.644219;1.831366;-0.01018149;0.3834817;1.767457;-0.3306176;0.04465943;1.855033;-0.197693;-0.03357872;0.9462657;-0.03536637;0;0;0;0.9035897;1.751789;-0.3306205;1.194707;1.820391;-0.1976985;1.287951;0.8845594;0.01158452;1.265294;-0.06054783;0.07519662;0.3341583;1.856474;1.788888;0.72316;1.026967;2.929702;0.9848089;0.711195;4.211948;0.3341583;1.856474;1.788888;0.72316;1.026967;2.929702;0.9848089;0.711195;4.211948
542914.8557;NotLabelled;NONE;16384;-0.2049861;0.3379501;-0.6669921;-0.6315789;0;-3;0;-746;3996;-123;65536;0.3060942;-0.3268698;0.6163435;0.6477524;0;-2;0;69;4084;223;8192;0.6371191;-0.6642758;0.1814404;0.3462604;1;-3;1;940;3927;-559;32768;0.6301939;-0.6728252;0.2576177;0.2894737;-2;-1;-1;-87;4051;336;256;0.6288089;0.02216066;-0.7755527;0.05124654;-5;0;-4;63;-464;4073;128;-0.5927978;0.09141274;0.791231;0.1191136;3;0;3;11;1207;-4072;4;0.2867036;0.3614958;-0.5692521;-0.6804953;-1;-2;0;-3321;2368;-746;16;0.1883656;-0.7120784;-0.02493075;0.6759003;0;-2;0;-1143;942;3754;2;0.5498615;-0.711294;-0.3379501;0.2783934;-2;-10;-2;3417;2496;-465;8;-0.02216066;-0.66759;0.232687;0.706887;-3;-18;-5;1331;1271;3765;0.643275;1.862785;1.74329;0.6435474;1.887601;1.198307;0.6437646;1.907395;0.7191766;0.6414621;1.831421;-0.01067615;0.3807135;1.767577;-0.3311162;0.04190731;1.855209;-0.1981875;-0.03345249;0.9462653;-0.03548546;0;0;0;0.9008185;1.751813;-0.3311195;1.191948;1.820354;-0.1981925;1.286126;0.8844606;0.01039362;1.262081;-0.06040156;0.07707047;0.3314132;1.856489;1.788397;0.7188058;1.024603;2.928025;0.9758949;0.708831;4.211194;0.3314132;1.856489;1.788397;0.7188058;1.024603;2.928025;0.9758949;0.708831;4.211194
542936.7173;NotLabelled;NONE;16384;-0.2049861;0.3379501;-0.6669921;-0.6315789;0;-4;0;-782;3992;-173;65536;0.3060942;-0.3268698;0.6177285;0.6464317;1;-4;0;103;4164;251;8192;0.6371191;-0.663552;0.1814404;0.3476454;1;-2;2;964;4009;-509;32768;0.6301939;-0.6728252;0.2576177;0.2894737;-2;-2;0;-183;4129;334;256;0.6288089;0.0235457;-0.7754192;0.05263158;-7;0;-3;-21;-442;3973;128;-0.5941828;0.09141274;0.7901914;0.1191136;3;0;3;41;1175;-3982;4;0.2867036;0.3614958;-0.5692521;-0.6804953;0;-3;0;-3395;2430;-722;16;0.1883656;-0.7120784;-0.02493075;0.6759003;0;-3;0;-1259;940;3770;2;0.5498615;-0.7107504;-0.3379501;0.2797784;-1;-10;0;3543;2466;-619;8;-0.02493075;-0.666205;0.234072;0.7076437;-2;-14;-5;1433;1191;3695;0.6448044;1.86799;1.741379;0.6450666;1.891896;1.196357;0.6452749;1.910887;0.7171931;0.6429043;1.832108;-0.01236188;0.3821325;1.766976;-0.3325235;0.04332273;1.855045;-0.199893;-0.03374305;0.9461737;-0.03758812;0;0;0;0.9022409;1.751325;-0.3325267;1.193371;1.82044;-0.1998985;1.286773;0.8845458;0.00903666;1.264265;-0.06028223;0.07671773;0.3329433;1.861771;1.786503;0.7119662;1.031478;2.930101;0.964326;0.7157061;4.214208;0.3329433;1.861771;1.786503;0.7119662;1.031478;2.930101;0.964326;0.7157061;4.214208
542957.7163;NotLabelled;NONE;16384;-0.2036011;0.3379501;-0.6674162;-0.6315789;2;-5;-1;-590;4054;-131;65536;0.3060942;-0.3254848;0.6177285;0.6471302;1;-4;0;109;4070;255;8192;0.6371191;-0.6639292;0.1800554;0.3476454;1;-1;2;996;4025;-465;32768;0.6301939;-0.6728252;0.2576177;0.2894737;-2;-2;1;-145;4047;216;256;0.6301939;0.0235457;-0.774294;0.05263158;-7;0;-3;93;-452;4013;128;-0.5941828;0.09141274;0.790399;0.1177285;3;-1;3;73;1209;-3960;4;0.2867036;0.3601108;-0.5706371;-0.6800695;0;-4;1;-3407;2412;-812;16;0.1869806;-0.7124904;-0.0235457;0.6759003;0;-7;-1;-1125;926;3802;2;0.5498615;-0.710861;-0.3365651;0.2811634;-1;-3;-1;3455;2388;-681;8;-0.02770083;-0.6634349;0.2368421;0.7092198;0;-17;-5;1587;1187;3573;0.6484139;1.871955;1.741999;0.6486765;1.895863;1.196976;0.6488851;1.914858;0.7178129;0.6464617;1.833234;-0.01142913;0.3856789;1.76675;-0.3313043;0.04684918;1.8552;-0.198978;-0.03023254;0.9463284;-0.03668104;0;0;0;0.9057935;1.751307;-0.3313072;1.196912;1.821055;-0.1989836;1.29238;0.8855677;0.0108366;1.269863;-0.05926085;0.07851493;0.3365528;1.865735;1.787123;0.7154244;1.035442;2.93077;0.9676149;0.7196701;4.214911;0.3365528;1.865735;1.787123;0.7154244;1.035442;2.93077;0.9676149;0.7196701;4.214911
542977.7374;NotLabelled;NONE;16384;-0.2036011;0.3365651;-0.6681157;-0.6315789;0;-1;0;-700;4080;-113;65536;0.3060942;-0.3254848;0.6177285;0.6471302;0;-4;0;91;4118;245;8192;0.6357341;-0.6652555;0.1800554;0.3476454;1;-3;2;882;3947;-473;32768;0.6288089;-0.6741198;0.2576177;0.2894737;-2;-3;1;-73;4107;258;256;0.6301939;0.02493075;-0.7741552;0.05401662;-7;0;-2;15;-482;4057;128;-0.5941828;0.09141274;0.790399;0.1177285;2;0;3;21;1147;-4038;4;0.2880886;0.3601108;-0.5706371;-0.679484;0;-6;1;-3415;2396;-724;16;0.1869806;-0.7112185;-0.02216066;0.6772853;1;-9;-1;-1121;934;3778;2;0.5498615;-0.7115151;-0.33518;0.2811634;-1;-8;-1;3395;2460;-651;8;-0.03047091;-0.6620498;0.2382271;0.7099361;0;-23;-5;1657;1149;3619;0.6484568;1.873723;1.742125;0.6487058;1.896411;1.19705;0.6489023;1.914333;0.7178455;0.6464637;1.832748;-0.01140094;0.3856681;1.766333;-0.3312794;0.04685589;1.854843;-0.1989494;-0.03151844;0.9463432;-0.03519889;0;0;0;0.9057798;1.750787;-0.3312826;1.196912;1.820469;-0.1989547;1.292014;0.8854527;0.01311624;1.269256;-0.05937457;0.08071387;0.3365969;1.867604;1.78727;0.7093116;1.034102;2.930607;0.9555453;0.7182574;4.215884;0.3365969;1.867604;1.78727;0.7093116;1.034102;2.930607;0.9555453;0.7182574;4.215884
542998.8406;NotLabelled;NONE;16384;-0.2036011;0.3365651;-0.6668037;-0.632964;0;-3;-1;-774;3986;-133;65536;0.3047091;-0.3254848;0.6177285;0.6477835;0;-5;0;85;4098;219;8192;0.6357341;-0.6645299;0.1800554;0.3490305;1;-3;2;910;3983;-497;32768;0.6288089;-0.6735889;0.2590028;0.2894737;-2;-2;1;-117;4083;314;256;0.6301939;0.02631579;-0.7741094;0.05401662;-8;0;-3;37;-518;4051;128;-0.5955678;0.0900277;0.789515;0.1177285;2;0;3;53;1153;-4016;4;0.2880886;0.3587258;-0.5706371;-0.6802162;-1;-4;0;-3357;2400;-750;16;0.1855956;-0.7115812;-0.02216066;0.6772853;2;-4;0;-1215;952;3810;2;0.5498615;-0.7109662;-0.33518;0.2825485;0;-7;0;3297;2420;-645;8;-0.033241;-0.6606648;0.2409972;0.7101672;0;-20;-4;1535;1253;3597;0.6489663;1.877831;1.743676;0.6492152;1.900519;1.198601;0.6494119;1.918441;0.7193967;0.6469216;1.834012;-0.009525955;0.3861156;1.766247;-0.3291129;0.04728379;1.85514;-0.1970895;-0.03151388;0.9463425;-0.03520322;0;0;0;0.9062333;1.750906;-0.3291159;1.197353;1.821218;-0.1970943;1.28936;0.8863599;0.0170325;1.263642;-0.0582453;0.08666015;0.3371063;1.871712;1.788822;0.7100077;1.040648;2.93387;0.9609265;0.7230051;4.217798;0.3371063;1.871712;1.788822;0.7100077;1.040648;2.93387;0.9609265;0.7230051;4.217798
543018.7197;NotLabelled;NONE;16384;-0.2022161;0.3365651;-0.667225;-0.632964;0;-5;0;-858;4036;-173;65536;0.3047091;-0.3254848;0.6177285;0.6477835;0;-3;0;97;4200;291;8192;0.6357341;-0.6645299;0.1800554;0.3490305;1;-3;2;912;3969;-523;32768;0.6288089;-0.6729919;0.2590028;0.2908587;-2;-3;1;-45;4105;290;256;0.6315789;0.02770083;-0.7727328;0.0567867;-8;0;-3;113;-514;3993;128;-0.5955678;0.0900277;0.7897203;0.1163435;4;-1;3;59;1173;-4102;4;0.2880886;0.3587258;-0.5720221;-0.6790519;-1;-5;1;-3351;2432;-696;16;0.1855956;-0.711623;-0.02077562;0.6772853;2;-3;0;-1089;958;3826;2;0.5498615;-0.7116176;-0.333795;0.2825485;0;-7;0;3247;2366;-673;8;-0.03462604;-0.6606648;0.2437673;0.7091548;0;-15;-3;1571;1241;3475;0.6450368;1.882528;1.740951;0.6452757;1.904299;1.195838;0.6454634;1.921415;0.7166044;0.6431197;1.835709;-0.01216978;0.3824442;1.766828;-0.3316245;0.04342882;1.855225;-0.1997396;-0.03192198;0.9462534;-0.03719015;0;0;0;0.9025936;1.752601;-0.3316272;1.193568;1.823767;-0.199744;1.287656;0.8893198;0.01526892;1.26153;-0.05541193;0.0829922;0.3331776;1.876485;1.786112;0.7083443;1.04303;2.928681;0.9578186;0.7278587;4.2135;0.3331776;1.876485;1.786112;0.7083443;1.04303;2.928681;0.9578186;0.7278587;4.2135
543039.8481;NotLabelled;NONE;16384;-0.2022161;0.3365651;-0.667225;-0.632964;0;-5;0;-706;4016;-145;65536;0.3033241;-0.3254848;0.6191136;0.6471109;1;-5;0;113;4058;313;8192;0.6357341;-0.6638006;0.1800554;0.3504155;1;-4;1;834;4055;-489;32768;0.6274238;-0.6742834;0.2590028;0.2908587;-2;-4;1;-69;4103;322;256;0.6315789;0.02908587;-0.7725789;0.05817174;-8;0;-3;23;-538;4025;128;-0.5969529;0.08864266;0.7888307;0.1163435;4;-3;3;111;1171;-3984;4;0.2894737;0.3573407;-0.5720221;-0.6791931;-1;-3;2;-3289;2456;-610;16;0.1855956;-0.7116621;-0.01939058;0.6772853;2;-4;0;-1027;1016;3820;2;0.5484765;-0.7127825;-0.33241;0.2839335;0;-9;0;3215;2406;-607;8;-0.03601108;-0.6592798;0.2451524;0.709897;0;-15;-3;1691;1207;3427;0.6467695;1.888994;1.738953;0.6469951;1.909547;1.193793;0.6471713;1.925592;0.7145216;0.6445649;1.835516;-0.01372415;0.3837251;1.765131;-0.3327166;0.04487291;1.854855;-0.2013085;-0.0317837;0.9462528;-0.03730817;0;0;0;0.9038512;1.750082;-0.3327198;1.194961;1.821578;-0.2013142;1.288256;0.8871307;0.01404417;1.26366;-0.05756998;0.08277321;0.3349114;1.883052;1.784135;0.7012849;1.04879;2.928965;0.9458628;0.7310722;4.214098;0.3349114;1.883052;1.784135;0.7012849;1.04879;2.928965;0.9458628;0.7310722;4.214098
543060.8518;NotLabelled;NONE;16384;-0.2022161;0.3365651;-0.667225;-0.632964;0;-4;-1;-762;3992;-123;65536;0.3033241;-0.3240997;0.6191136;0.6478058;1;-5;0;47;4098;223;8192;0.634349;-0.6651244;0.1800554;0.3504155;2;-6;2;802;4017;-569;32768;0.6274238;-0.6737497;0.2603878;0.2908587;-2;-3;1;5;4047;226;256;0.6315789;0.02908587;-0.7725789;0.05817174;-8;0;-4;95;-496;3949;128;-0.5969529;0.08864266;0.7890338;0.1149584;5;-4;3;49;1137;-3982;4;0.2880886;0.3573407;-0.5734072;-0.6786138;-4;-5;2;-3495;2422;-704;16;0.1842105;-0.7120582;-0.01800554;0.6772853;2;-3;1;-1001;966;3798;2;0.5470914;-0.7144895;-0.3310249;0.2839335;2;-11;-3;3295;2340;-649;8;-0.0401662;-0.6578947;0.2493075;0.7095118;0;-18;-1;1629;1159;3559;0.6500403;1.894855;1.73914;0.6502556;1.914489;1.193946;0.6504226;1.929726;0.714649;0.6477482;1.836809;-0.01323944;0.3868905;1.765081;-0.331918;0.04802265;1.855186;-0.2008127;-0.02868092;0.9463096;-0.03836532;0;0;0;0.9070224;1.750229;-0.3319366;1.198123;1.822349;-0.2008516;1.29345;0.8879545;0.01384151;1.265893;-0.05651486;0.0845921;0.3381831;1.888988;1.784338;0.7071894;1.05477;2.928355;0.9514709;0.7345071;4.212911;0.3381831;1.888988;1.784338;0.7071894;1.05477;2.928355;0.9514709;0.7345071;4.212911
543081.8866;NotLabelled;NONE;16384;-0.200831;0.3365651;-0.6676432;-0.632964;0;0;-2;-718;4068;-17;65536;0.3033241;-0.3240997;0.6191136;0.6478058;2;0;0;49;4100;275;8192;0.634349;-0.6643928;0.1800554;0.3518005;2;-6;1;868;3955;-479;32768;0.6260388;-0.6750369;0.2603878;0.2908587;-1;-3;1;-81;4129;296;256;0.632964;0.03047091;-0.7712854;0.05955679;-8;-1;-3;83;-580;3945;128;-0.5983379;0.08864266;0.7881848;0.1135734;5;-4;3;21;1095;-3960;4;0.2894737;0.3559557;-0.5747922;-0.6775799;-4;-7;1;-3403;2360;-692;16;0.1842105;-0.7120919;-0.0166205;0.6772853;2;-3;2;-951;874;3946;2;0.5470914;-0.7145781;-0.3296399;0.2853186;1;-9;-2;3339;2368;-715;8;-0.04155125;-0.6565097;0.2506925;0.7102265;0;-6;0;1499;1219;3633;0.6486292;1.897249;1.741282;0.6488313;1.915667;1.196046;0.6489866;1.929834;0.7167155;0.6463054;1.836917;-0.01117289;0.3854448;1.765189;-0.3298496;0.04657808;1.855294;-0.1987405;-0.0300966;0.9463285;-0.03677743;0;0;0;0.9055766;1.750338;-0.3298724;1.196679;1.822457;-0.1987907;1.288999;0.8881053;0.01740003;1.261054;-0.05649364;0.08624911;0.3367733;1.891484;1.7865;0.7008893;1.054036;2.929724;0.9438246;0.7337054;4.214519;0.3367733;1.891484;1.7865;0.7008893;1.054036;2.929724;0.9438246;0.7337054;4.214519
543102.8286;NotLabelled;NONE;16384;-0.200831;0.3365651;-0.6676432;-0.632964;0;1;-3;-828;4038;-45;65536;0.3033241;-0.3240997;0.6191136;0.6478058;2;2;0;159;4056;269;8192;0.632964;-0.6646021;0.1814404;0.3531856;2;-5;0;910;3935;-495;32768;0.6260388;-0.6739021;0.2617728;0.2922437;-2;-3;2;-79;4095;308;256;0.632964;0.03047091;-0.7711772;0.06094183;-8;-1;-2;103;-560;3957;128;-0.5983379;0.08864266;0.7883831;0.1121884;4;-2;2;-37;1075;-3862;4;0.2894737;0.3559557;-0.5747922;-0.6775799;-3;-6;1;-3279;2436;-638;16;0.1842105;-0.7121229;-0.01523546;0.6772853;2;-9;1;-953;944;3876;2;0.5470914;-0.7152154;-0.3282548;0.2853186;1;-7;-2;3325;2398;-741;8;-0.04155125;-0.6565097;0.2506925;0.7102265;1;-1;0;1579;1165;3521;0.650182;1.902405;1.737439;0.6503707;1.919609;1.192164;0.6505144;1.93271;0.712803;0.6477958;1.83699;-0.01472199;0.3869234;1.763996;-0.3331013;0.04805253;1.854556;-0.2023171;-0.02995729;0.9463285;-0.03689128;0;0;0;0.9070574;1.749222;-0.3331041;1.198158;1.821888;-0.2023215;1.291737;0.8884374;0.01719403;1.26058;-0.05591977;0.08795059;0.338327;1.896741;1.782678;0.6963212;1.058557;2.927295;0.9342692;0.7356831;4.212387;0.338327;1.896741;1.782678;0.6963212;1.058557;2.927295;0.9342692;0.7356831;4.212387
543124.7308;NotLabelled;NONE;16384;-0.200831;0.3365651;-0.6689536;-0.6315789;-1;2;-2;-792;3968;-111;65536;0.3033241;-0.3254848;0.6204986;0.645783;2;1;0;141;4046;255;8192;0.632964;-0.6646021;0.1814404;0.3531856;2;-5;0;924;4003;-555;32768;0.6246537;-0.6751862;0.2617728;0.2922437;-1;-3;3;-117;4107;320;256;0.632964;0.03185596;-0.7710105;0.06232687;-7;-1;-2;129;-554;3913;128;-0.599723;0.08864266;0.78733;0.1121884;4;-1;2;-1;1061;-3900;4;0.2894737;0.3545706;-0.5761772;-0.6771296;-4;-9;1;-3305;2404;-498;16;0.1828255;-0.712508;-0.01385042;0.6772853;2;-10;2;-1069;962;3804;2;0.5457063;-0.7162728;-0.3282548;0.2853186;2;-6;-1;3353;2408;-673;8;-0.04155125;-0.6565097;0.2506925;0.7102265;1;-4;0;1763;1133;3567;0.6504021;1.905595;1.737298;0.6505773;1.921583;1.191985;0.650709;1.933616;0.7125961;0.6477751;1.836338;-0.01472121;0.3867541;1.763119;-0.3329269;0.04805174;1.854557;-0.2023168;-0.02995751;0.9463291;-0.03689101;0;0;0;0.9068613;1.747429;-0.3329293;1.198098;1.819864;-0.2023209;1.290361;0.8865156;0.01818597;1.260608;-0.05794573;0.08815134;0.3385484;1.900031;1.782557;0.6965538;1.061847;2.927169;0.934391;0.7364321;4.211641;0.3385484;1.900031;1.782557;0.6965538;1.061847;2.927169;0.934391;0.7364321;4.211641
543144.8777;NotLabelled;NONE;16384;-0.200831;0.3365651;-0.6689536;-0.6315789;-1;2;-3;-730;4008;-49;65536;0.3033241;-0.3254848;0.6204986;0.645783;2;1;2;105;4052;211;8192;0.632964;-0.6638642;0.1814404;0.3545706;1;-3;0;934;3909;-533;32768;0.6246537;-0.6746475;0.2631579;0.2922437;-2;-3;5;-99;4075;260;256;0.632964;0.033241;-0.7708388;0.06371191;-6;0;-2;117;-566;3943;128;-0.599723;0.08725762;0.7876808;0.1108033;4;-3;1;-37;1129;-3944;4;0.2908587;0.3545706;-0.5775623;-0.6753537;-4;-7;1;-3141;2388;-658;16;0.1828255;-0.7125336;-0.01246537;0.6772853;2;-5;2;-1125;1018;3752;2;0.5457063;-0.7157195;-0.3282548;0.2867036;1;-3;0;3247;2368;-783;8;-0.04293629;-0.6565097;0.2520775;0.7096537;0;-9;0;1719;1163;3511;0.6588852;1.90932;1.736962;0.6590607;1.925314;1.19165;0.6591927;1.937351;0.7122611;0.6562092;1.837234;-0.01467103;0.395178;1.762677;-0.3325572;0.05645695;1.854498;-0.2022646;-0.02502173;0.9464475;-0.03753518;0;0;0;0.915291;1.747181;-0.3325605;1.206516;1.820233;-0.2022707;1.29875;0.8868846;0.01824844;1.266041;-0.05732775;0.09022617;0.3470313;1.903756;1.782221;0.702683;1.062413;2.925249;0.9389439;0.7369379;4.209995;0.3470313;1.903756;1.782221;0.702683;1.062413;2.925249;0.9389439;0.7369379;4.209995
543165.1286;NotLabelled;NONE;16384;-0.200831;0.3379501;-0.668255;-0.6315789;-2;1;-2;-766;4022;-57;65536;0.3033241;-0.3254848;0.6204986;0.645783;2;0;3;69;4154;245;8192;0.6315789;-0.665182;0.1814404;0.3545706;2;-4;0;842;3961;-535;32768;0.6246537;-0.6746475;0.2631579;0.2922437;-2;-4;3;-3;4151;316;256;0.632964;0.033241;-0.770723;0.06509695;-7;0;-1;85;-594;4009;128;-0.599723;0.08725762;0.7878744;0.1094183;2;-3;1;-29;1133;-3954;4;0.2908587;0.3518005;-0.5789474;-0.6756164;-4;-5;1;-3145;2360;-552;16;0.1814404;-0.7129104;-0.01108033;0.6772853;0;-5;2;-1027;1042;3744;2;0.5457063;-0.7163531;-0.3268698;0.2867036;2;-8;0;3111;2270;-845;8;-0.04432133;-0.6565097;0.2534626;0.709075;0;-13;0;1617;1287;3501;0.6590527;1.917132;1.736681;0.6592045;1.930987;1.19131;0.6593157;1.941143;0.7118782;0.656287;1.838188;-0.01465696;0.3952474;1.762294;-0.3322202;0.05650715;1.854497;-0.2022477;-0.02501466;0.946447;-0.03753988;0;0;0;0.9153662;1.74699;-0.3322226;1.206579;1.820659;-0.2022524;1.300864;0.8877288;0.01916647;1.267761;-0.05661333;0.08923745;0.3472009;1.911746;1.781975;0.6983814;1.072096;2.927628;0.9342762;0.7440835;4.211796;0.3472009;1.911746;1.781975;0.6983814;1.072096;2.927628;0.9342762;0.7440835;4.211796
543186.7113;NotLabelled;NONE;16384;-0.2022161;0.3379501;-0.6691443;-0.6301939;-1;1;-1;-668;3952;-121;65536;0.301939;-0.3254848;0.6218836;0.6450994;4;0;4;183;4062;161;8192;0.6315789;-0.665182;0.1814404;0.3545706;1;-4;0;800;4107;-507;32768;0.6232687;-0.6753864;0.2645429;0.2922437;-3;-4;3;-45;4141;300;256;0.632964;0.03462604;-0.7706621;0.06509695;-6;0;-1;105;-624;4045;128;-0.601108;0.08725762;0.7868182;0.1094183;2;-1;1;-95;1023;-3986;4;0.2908587;0.3518005;-0.5803324;-0.6744271;-3;-2;1;-3105;2382;-614;16;0.1814404;-0.7129104;-0.01108033;0.6772853;0;-7;1;-1007;996;3752;2;0.5443213;-0.717481;-0.3254848;0.2880886;2;-9;0;3213;2456;-775;8;-0.04570637;-0.6551247;0.2562327;0.7092724;0;-7;0;1537;1295;3489;0.6589348;1.920379;1.736641;0.6590736;1.93302;1.19124;0.6591733;1.94211;0.7117866;0.655881;1.837599;-0.01452535;0.3946722;1.761483;-0.3318959;0.0561095;1.854561;-0.2020852;-0.0250166;0.946447;-0.03753825;0;0;0;0.9147632;1.745263;-0.3319223;1.20612;1.818698;-0.2021426;1.297405;0.8854517;0.01920474;1.264306;-0.05889046;0.08927774;0.3470842;1.915093;1.781954;0.6985566;1.069903;2.923435;0.9331853;0.7418381;4.207822;0.3470842;1.915093;1.781954;0.6985566;1.069903;2.923435;0.9331853;0.7418381;4.207822
543207.7195;NotLabelled;NONE;16384;-0.2022161;0.3393352;-0.668443;-0.6301939;-1;4;-1;-824;3940;-77;65536;0.301939;-0.3268698;0.6232687;0.6430592;6;1;5;143;4074;271;8192;0.6315789;-0.6640621;0.1828255;0.3559557;1;-3;-1;892;4039;-567;32768;0.6232687;-0.6753864;0.2645429;0.2922437;-2;-1;3;-9;4133;342;256;0.634349;0.03462604;-0.769404;0.06648199;-6;0;-1;211;-566;4011;128;-0.601108;0.08725762;0.7870096;0.1080332;2;0;1;-79;1057;-3948;4;0.2908587;0.3518005;-0.5803324;-0.6744271;-2;-3;0;-3131;2344;-636;16;0.1800554;-0.7132816;-0.009695291;0.6772853;0;-7;1;-1123;968;3748;2;0.5429363;-0.7191554;-0.3240997;0.2880886;2;-5;-1;3235;2470;-681;8;-0.04570637;-0.6551247;0.2562327;0.7092724;0;-2;0;1509;1293;3471;0.664658;1.923118;1.735856;0.6647968;1.935765;1.190455;0.6648965;1.944859;0.7110018;0.6618235;1.839067;-0.01512545;0.4007761;1.761837;-0.3323596;0.06201631;1.854422;-0.2027099;-0.02189146;0.9464819;-0.0385912;0;0;0;0.9209003;1.746726;-0.3323622;1.2121;1.821009;-0.2027141;1.303323;0.8882582;0.02073467;1.266889;-0.05595326;0.09091687;0.3528072;1.917832;1.781169;0.6993772;1.071923;2.923617;0.9336838;0.7438576;4.208063;0.3528072;1.917832;1.781169;0.6993772;1.071923;2.923617;0.9336838;0.7438576;4.208063
543228.7192;NotLabelled;NONE;16384;-0.2036011;0.3393352;-0.6693262;-0.6288089;-2;5;-1;-790;4000;29;65536;0.301939;-0.3268698;0.6232687;0.6430592;7;0;6;123;4068;223;8192;0.6301939;-0.6653766;0.1828255;0.3559557;2;-3;-3;884;3945;-627;32768;0.6218836;-0.6766619;0.2645429;0.2922437;-1;0;3;33;4099;386;256;0.632964;0.03462604;-0.7704231;0.06786703;-5;0;0;151;-578;3965;128;-0.601108;0.08725762;0.7870096;0.1080332;3;0;0;-151;1065;-3908;4;0.2908587;0.3518005;-0.5817174;-0.6732328;-1;0;0;-3147;2376;-624;16;0.1800554;-0.7132816;-0.009695291;0.6772853;0;-2;1;-1193;1054;3766;2;0.5429363;-0.7191554;-0.3240997;0.2880886;0;-3;-1;3355;2502;-665;8;-0.04570637;-0.6551247;0.2562327;0.7092724;0;0;0;1585;1245;3507;0.6702423;1.925861;1.733447;0.6703678;1.937296;1.188019;0.6704559;1.945325;0.7085471;0.6671214;1.83802;-0.01735669;0.4058974;1.760655;-0.3344127;0.06733435;1.854197;-0.2049365;-0.01679683;0.9465582;-0.03927395;0;0;0;0.9259901;1.74449;-0.3344153;1.217348;1.818455;-0.2049404;1.309518;0.8856287;0.01780546;1.272834;-0.05858278;0.08785772;0.3583928;1.920675;1.778779;0.7008835;1.074767;2.922456;0.9292756;0.7466543;4.207955;0.3583928;1.920675;1.778779;0.7008835;1.074767;2.922456;0.9292756;0.7466543;4.207955
543248.8679;NotLabelled;NONE;16384;-0.2036011;0.3393352;-0.6693262;-0.6288089;-1;3;-1;-822;4030;-51;65536;0.300554;-0.3268698;0.6246537;0.6423637;8;-1;6;243;4138;179;8192;0.6301939;-0.6653766;0.1828255;0.3559557;2;-1;-3;980;3989;-513;32768;0.6218836;-0.6772584;0.2645429;0.2908587;-1;0;4;-61;4091;328;256;0.632964;0.03601108;-0.7703596;0.06786703;-3;0;1;141;-586;3959;128;-0.601108;0.08725762;0.7870096;0.1080332;1;2;0;-97;1149;-3972;4;0.2908587;0.3518005;-0.5817174;-0.6732328;0;0;0;-3191;2406;-544;16;0.1800554;-0.7132816;-0.009695291;0.6772853;0;-1;1;-1111;1032;3748;2;0.5429363;-0.7191554;-0.3240997;0.2880886;0;0;-2;3293;2432;-811;8;-0.04570637;-0.6551247;0.2562327;0.7092724;0;3;0;1635;1291;3483;0.6718415;1.927157;1.735084;0.6719671;1.938592;1.189656;0.6720551;1.946621;0.7101839;0.6685073;1.837721;-0.01548147;0.4071448;1.760049;-0.3323483;0.06873167;1.854383;-0.2030547;-0.01693791;0.9465585;-0.03921336;0;0;0;0.9272127;1.743104;-0.3323509;1.218691;1.816917;-0.2030594;1.309436;0.8842788;0.02105272;1.270075;-0.05966282;0.09325087;0.359992;1.921971;1.780416;0.701959;1.075362;2.923732;0.9349653;0.7472498;4.208402;0.359992;1.921971;1.780416;0.701959;1.075362;2.923732;0.9349653;0.7472498;4.208402
543269.7127;NotLabelled;NONE;16384;-0.2036011;0.3407202;-0.6686223;-0.6288089;-1;4;0;-670;3974;-17;65536;0.300554;-0.3268698;0.6260388;0.6410139;8;0;6;243;4064;167;8192;0.6301939;-0.6653766;0.1828255;0.3559557;2;1;-1;856;4077;-517;32768;0.6218836;-0.6767158;0.265928;0.2908587;-1;0;3;-71;4135;250;256;0.632964;0.03601108;-0.7702363;0.06925207;-3;0;1;175;-530;3909;128;-0.601108;0.08587258;0.7873508;0.1066482;1;0;0;-43;1135;-3982;4;0.2908587;0.3518005;-0.5817174;-0.6732328;-1;0;0;-3227;2442;-632;16;0.1800554;-0.7132991;-0.008310249;0.6772853;-1;-4;0;-1055;1012;3738;2;0.5443213;-0.7181077;-0.3240997;0.2880886;0;3;-1;3187;2472;-857;8;-0.04570637;-0.6551247;0.2562327;0.7092724;0;0;0;1815;1339;3485;0.6754542;1.930051;1.734158;0.6755794;1.941486;1.188731;0.6756674;1.949516;0.7092586;0.6723126;1.839334;-0.01621455;0.411099;1.76055;-0.3329296;0.07249264;1.854389;-0.2037824;-0.01379933;0.9465649;-0.04026774;0;0;0;0.9312018;1.744714;-0.3329325;1.222529;1.819373;-0.2037876;1.312422;0.8867357;0.02066779;1.27126;-0.05721474;0.09173906;0.3636044;1.924866;1.779491;0.7053284;1.078257;2.92288;0.9380614;0.7501447;4.2076;0.3636044;1.924866;1.779491;0.7053284;1.078257;2.92288;0.9380614;0.7501447;4.2076
543290.8634;NotLabelled;NONE;16384;-0.2049861;0.3407202;-0.6694996;-0.6274238;-1;4;0;-654;3986;129;65536;0.300554;-0.3268698;0.6274238;0.6396583;8;1;7;73;4158;113;8192;0.6301939;-0.6661157;0.1828255;0.3545706;1;1;-1;796;4033;-583;32768;0.6218836;-0.6767158;0.265928;0.2908587;-1;-1;3;11;4087;350;256;0.632964;0.03601108;-0.7702363;0.06925207;-4;0;1;103;-496;4011;128;-0.601108;0.08587258;0.7873508;0.1066482;0;1;0;-69;1139;-4004;4;0.2908587;0.3504155;-0.5817174;-0.6739547;0;-3;0;-3237;2382;-534;16;0.1786704;-0.7136472;-0.008310249;0.6772853;0;-4;-1;-1083;1034;3862;2;0.5443213;-0.7181077;-0.3240997;0.2880886;0;3;0;3095;2524;-849;8;-0.04570637;-0.6551247;0.2562327;0.7092724;0;-1;0;1893;1309;3491;0.6789093;1.934755;1.733093;0.6790113;1.944051;1.187625;0.6790786;1.950199;0.7081249;0.6754799;1.838465;-0.0171091;0.4141061;1.759461;-0.3336368;0.07567462;1.854175;-0.2046699;-0.01026188;0.9466493;-0.03931828;0;0;0;0.9341801;1.742707;-0.3336396;1.225647;1.817132;-0.2046744;1.315524;0.8844929;0.01978743;1.273984;-0.05958128;0.08896506;0.3670616;1.929748;1.778459;0.7087973;1.083139;2.921844;0.9414184;0.7524917;4.205934;0.3670616;1.929748;1.778459;0.7087973;1.083139;2.921844;0.9414184;0.7524917;4.205934
