SEP=;
index;label;segment;RightUpperArm_boneIndex;RightUpperArm_quat9x_w;RightUpperArm_quat9x_x;RightUpperArm_quat9x_y;RightUpperArm_quat9x_z;RightUpperArm_gyroscope_x;RightUpperArm_gyroscope_y;RightUpperArm_gyroscope_z;RightUpperArm_accelerometer_x;RightUpperArm_accelerometer_y;RightUpperArm_accelerometer_z;RightLowerArm_boneIndex;RightLowerArm_quat9x_w;RightLowerArm_quat9x_x;RightLowerArm_quat9x_y;RightLowerArm_quat9x_z;RightLowerArm_gyroscope_x;RightLowerArm_gyroscope_y;RightLowerArm_gyroscope_z;RightLowerArm_accelerometer_x;RightLowerArm_accelerometer_y;RightLowerArm_accelerometer_z;LeftUpperArm_boneIndex;LeftUpperArm_quat9x_w;LeftUpperArm_quat9x_x;LeftUpperArm_quat9x_y;LeftUpperArm_quat9x_z;LeftUpperArm_gyroscope_x;LeftUpperArm_gyroscope_y;LeftUpperArm_gyroscope_z;LeftUpperArm_accelerometer_x;LeftUpperArm_accelerometer_y;LeftUpperArm_accelerometer_z;LeftLowerArm_boneIndex;LeftLowerArm_quat9x_w;LeftLowerArm_quat9x_x;LeftLowerArm_quat9x_y;LeftLowerArm_quat9x_z;LeftLowerArm_gyroscope_x;LeftLowerArm_gyroscope_y;LeftLowerArm_gyroscope_z;LeftLowerArm_accelerometer_x;LeftLowerArm_accelerometer_y;LeftLowerArm_accelerometer_z;Chest_boneIndex;Chest_quat9x_w;Chest_quat9x_x;Chest_quat9x_y;Chest_quat9x_z;Chest_gyroscope_x;Chest_gyroscope_y;Chest_gyroscope_z;Chest_accelerometer_x;Chest_accelerometer_y;Chest_accelerometer_z;Spine_boneIndex;Spine_quat9x_w;Spine_quat9x_x;Spine_quat9x_y;Spine_quat9x_z;Spine_gyroscope_x;Spine_gyroscope_y;Spine_gyroscope_z;Spine_accelerometer_x;Spine_accelerometer_y;Spine_accelerometer_z;RightUpperLeg_boneIndex;RightUpperLeg_quat9x_w;RightUpperLeg_quat9x_x;RightUpperLeg_quat9x_y;RightUpperLeg_quat9x_z;RightUpperLeg_gyroscope_x;RightUpperLeg_gyroscope_y;RightUpperLeg_gyroscope_z;RightUpperLeg_accelerometer_x;RightUpperLeg_accelerometer_y;RightUpperLeg_accelerometer_z;RightLowerLeg_boneIndex;RightLowerLeg_quat9x_w;RightLowerLeg_quat9x_x;RightLowerLeg_quat9x_y;RightLowerLeg_quat9x_z;RightLowerLeg_gyroscope_x;RightLowerLeg_gyroscope_y;RightLowerLeg_gyroscope_z;RightLowerLeg_accelerometer_x;RightLowerLeg_accelerometer_y;RightLowerLeg_accelerometer_z;LeftUpperLeg_boneIndex;LeftUpperLeg_quat9x_w;LeftUpperLeg_quat9x_x;LeftUpperLeg_quat9x_y;LeftUpperLeg_quat9x_z;LeftUpperLeg_gyroscope_x;LeftUpperLeg_gyroscope_y;LeftUpperLeg_gyroscope_z;LeftUpperLeg_accelerometer_x;LeftUpperLeg_accelerometer_y;LeftUpperLeg_accelerometer_z;LeftLowerLeg_boneIndex;LeftLowerLeg_quat9x_w;LeftLowerLeg_quat9x_x;LeftLowerLeg_quat9x_y;LeftLowerLeg_quat9x_z;LeftLowerLeg_gyroscope_x;LeftLowerLeg_gyroscope_y;LeftLowerLeg_gyroscope_z;LeftLowerLeg_accelerometer_x;LeftLowerLeg_accelerometer_y;LeftLowerLeg_accelerometer_z;pelvis_x;pelvis_y;pelvis_z;lowerSpine_x;lowerSpine_y;lowerSpine_z;middleSpine_x;middleSpine_y;middleSpine_z;upperSpine_x;upperSpine_y;upperSpine_z;rightClavicle_x;rightClavicle_y;rightClavicle_z;rightShoulder_x;rightShoulder_y;rightShoulder_z;rightElbow_x;rightElbow_y;rightElbow_z;rightWrist_x;rightWrist_y;rightWrist_z;leftClavicle_x;leftClavicle_y;leftClavicle_z;leftShoulder_x;leftShoulder_y;leftShoulder_z;leftElbow_x;leftElbow_y;leftElbow_z;leftWrist_x;leftWrist_y;leftWrist_z;rightHip_x;rightHip_y;rightHip_z;rightKnee_x;rightKnee_y;rightKnee_z;rightAnkle_x;rightAnkle_y;rightAnkle_z;leftHip_x;leftHip_y;leftHip_z;leftKnee_x;leftKnee_y;leftKnee_z;leftAnkle_x;leftAnkle_y;leftAnkle_z;
398510.7117;NotLabelled;NONE;16384;-0.1925208;0.3240997;-0.6722904;-0.6371191;4;2;0;-1158;3920;-367;65536;0.2922437;-0.2963989;0.6315789;0.654102;-1;-2;-1;147;4090;195;8192;0.6385041;-0.6665807;0.16759;0.3462604;0;4;6;1082;4025;-571;32768;0.6218836;-0.6719179;0.2437673;0.3199446;1;2;0;-333;4105;524;256;0.6301939;0.033241;-0.7741218;0.04986149;-2;0;3;-15;-568;3959;128;-0.6038781;0.09556787;0.7810001;0.1274238;-1;3;-3;191;1151;-3982;4;0.2894737;0.3698061;-0.5623268;-0.6806151;1;10;-7;-3241;2180;-872;16;0.2146814;-0.7203255;-0.04709141;0.6578947;5;7;5;-1523;892;3546;2;0.5498615;-0.7111605;-0.33241;0.2853186;-6;10;0;2961;2306;-521;8;-0.02770083;-0.6703601;0.2285319;0.7054241;1;19;-1;1405;1165;3393;0.6521369;1.872526;1.770315;0.6525099;1.906495;1.225826;0.6528157;1.934334;0.7470954;0.6518216;1.846943;0.01851869;0.3922707;1.773183;-0.3007627;0.05189095;1.856457;-0.1690581;-0.02589625;0.9471178;-0.009745449;0;0;0;0.9125808;1.76726;-0.300765;1.202386;1.843362;-0.1690621;1.298257;0.9118087;0.05741704;1.30251;-0.0278275;0.1792902;0.3402669;1.865474;1.815253;0.7202452;1.057933;2.974714;0.9333212;0.728339;4.262462;0.3402669;1.865474;1.815253;0.7202452;1.057933;2.974714;0.9333212;0.728339;4.262462
398530.7098;NotLabelled;NONE;16384;-0.1911357;0.3254848;-0.6720164;-0.6371191;2;0;-2;-1140;3950;-231;65536;0.2922437;-0.2950138;0.6315789;0.6547278;0;0;-3;-5;4222;211;8192;0.6385041;-0.6669274;0.166205;0.3462604;0;3;5;974;3865;-611;32768;0.6218836;-0.6719179;0.2437673;0.3199446;1;3;0;-191;4077;376;256;0.6301939;0.03462604;-0.7739706;0.05124654;-2;0;1;-87;-620;4063;128;-0.6038781;0.09418282;0.7811684;0.1274238;-2;2;-3;293;1099;-3972;4;0.2880886;0.3739612;-0.5595568;-0.6812152;0;7;-5;-3241;2202;-946;16;0.2174515;-0.7207581;-0.04709141;0.6565097;3;1;3;-1437;950;3416;2;0.5512465;-0.7106424;-0.33241;0.2839335;-4;10;-1;2893;2262;-451;8;-0.02631579;-0.6703601;0.2271468;0.7059243;0;15;0;1341;1121;3449;0.6459783;1.872322;1.765415;0.6463512;1.906291;1.220926;0.6466569;1.93413;0.7421957;0.6456629;1.846739;0.01361895;0.386112;1.772979;-0.3056625;0.04573219;1.856252;-0.1739578;-0.02821307;0.9470229;-0.01220808;0;0;0;0.9064221;1.767056;-0.3056647;1.196227;1.843157;-0.1739619;1.295546;0.9119403;0.05241239;1.299798;-0.02769566;0.1742858;0.3341081;1.86527;1.810353;0.7156995;1.058541;2.969851;0.9253272;0.7255938;4.257301;0.3341081;1.86527;1.810353;0.7156995;1.058541;2.969851;0.9253272;0.7255938;4.257301
398551.7151;NotLabelled;NONE;16384;-0.1911357;0.3254848;-0.6720164;-0.6371191;4;1;-1;-786;4170;-111;65536;0.2922437;-0.2950138;0.6315789;0.6547278;0;1;-3;-21;4166;105;8192;0.6385041;-0.6662064;0.166205;0.3476454;0;2;3;912;4035;-615;32768;0.6218836;-0.6719179;0.2437673;0.3199446;2;3;-1;-299;4157;532;256;0.6301939;0.03462604;-0.7739706;0.05124654;0;-1;1;-133;-760;3969;128;-0.602493;0.09418282;0.7822371;0.1274238;-1;0;-3;259;1013;-3870;4;0.2880886;0.3753462;-0.5595568;-0.6804531;0;4;-3;-3221;2102;-906;16;0.2174515;-0.7207581;-0.04709141;0.6565097;0;-1;1;-1579;944;3324;2;0.5526316;-0.7089154;-0.333795;0.2839335;-4;8;-1;2969;2260;-465;8;-0.02493075;-0.6703601;0.2257618;0.7064188;-1;9;0;1337;1047;3611;0.6450599;1.877197;1.763257;0.6454227;1.910233;1.218711;0.6457194;1.937253;0.7399337;0.6447272;1.847018;0.01170367;0.3851909;1.771911;-0.3072755;0.04478471;1.855567;-0.1758811;-0.02945283;0.9470037;-0.0105599;0;0;0;0.9055034;1.766191;-0.3072782;1.195284;1.842918;-0.1758866;1.294945;0.9122044;0.05239844;1.299175;-0.02743185;0.174273;0.3331905;1.870222;1.808213;0.7154871;1.070032;2.972002;0.9229052;0.7312847;4.258297;0.3331905;1.870222;1.808213;0.7154871;1.070032;2.972002;0.9229052;0.7312847;4.258297
398572.7267;NotLabelled;NONE;16384;-0.1911357;0.3254848;-0.6720164;-0.6371191;2;3;-1;-608;4090;3;65536;0.2936288;-0.2950138;0.6315789;0.6541078;0;3;-2;-109;4070;-3;8192;0.6385041;-0.6665505;0.1648199;0.3476454;0;0;2;1160;4031;-493;32768;0.6232687;-0.6717938;0.2423823;0.3185596;2;1;0;-373;4103;434;256;0.6301939;0.03462604;-0.7739706;0.05124654;1;-1;2;-45;-774;3987;128;-0.602493;0.09418282;0.7822371;0.1274238;-1;-2;-4;151;1077;-3938;4;0.2880886;0.3753462;-0.5581717;-0.6815897;0;2;-1;-3251;2102;-962;16;0.2188366;-0.7203388;-0.04709141;0.6565097;-1;4;0;-1673;990;3320;2;0.5540166;-0.7083875;-0.333795;0.2825485;-4;6;-1;2905;2256;-499;8;-0.0235457;-0.6703601;0.2243767;0.7069073;-2;8;-1;1333;1119;3661;0.6450597;1.877186;1.763258;0.6454225;1.910228;1.218712;0.6457192;1.937253;0.7399349;0.6447271;1.847018;0.0117051;0.3851908;1.771912;-0.3072743;0.04478449;1.855567;-0.1758801;-0.029453;0.9470043;-0.01055938;0;0;0;0.9055032;1.766191;-0.3072773;1.195284;1.842919;-0.1758851;1.297029;0.9126506;0.0532949;1.301259;-0.02698565;0.1751686;0.3331903;1.870211;1.808214;0.7129045;1.072436;2.974503;0.9203224;0.7336881;4.260798;0.3331903;1.870211;1.808214;0.7129045;1.072436;2.974503;0.9203224;0.7336881;4.260798
398593.7097;NotLabelled;NONE;16384;-0.1911357;0.3254848;-0.6720164;-0.6371191;2;0;0;-628;4052;-75;65536;0.2936288;-0.2950138;0.6315789;0.6541078;-2;-2;1;-39;4062;163;8192;0.6385041;-0.6668914;0.1634349;0.3476454;0;3;3;1218;3955;-535;32768;0.6232687;-0.6717938;0.2423823;0.3185596;3;2;2;-329;4059;388;256;0.6288089;0.03462604;-0.7750963;0.05124654;3;-1;2;49;-636;3975;128;-0.602493;0.09418282;0.7822371;0.1274238;-3;-3;-5;75;1109;-3788;4;0.2880886;0.3753462;-0.5581717;-0.6815897;0;-3;-1;-3329;2098;-988;16;0.2188366;-0.7202469;-0.04847645;0.6565097;-1;6;0;-1611;912;3568;2;0.5554016;-0.7066469;-0.33518;0.2825485;-1;4;0;3075;2344;-407;8;-0.0235457;-0.6703601;0.2229917;0.7073455;-2;9;-1;1175;1169;3647;0.6454674;1.877219;1.76522;0.6458303;1.910261;1.220674;0.6461271;1.937285;0.7418969;0.6451349;1.847051;0.01366693;0.3855987;1.771945;-0.3053125;0.04519232;1.855599;-0.1739182;-0.02904516;0.9470367;-0.00859753;0;0;0;0.905911;1.766223;-0.3053155;1.195692;1.842952;-0.1739233;1.297822;0.913193;0.05714691;1.303439;-0.02658427;0.1778722;0.3335982;1.870244;1.810175;0.7177642;1.07337;2.975623;0.9266601;0.7321813;4.261034;0.3335982;1.870244;1.810175;0.7177642;1.07337;2.975623;0.9266601;0.7321813;4.261034
398614.8912;NotLabelled;NONE;16384;-0.1925208;0.3254848;-0.6703043;-0.6385041;2;0;1;-586;4018;-65;65536;0.2922437;-0.2950138;0.6315789;0.6547278;-3;0;2;-169;4118;9;8192;0.6398892;-0.6655626;0.1634349;0.3476454;-1;5;1;1042;3991;-605;32768;0.6246537;-0.6705061;0.2423823;0.3185596;4;3;2;-311;4041;402;256;0.6288089;0.033241;-0.7751569;0.05124654;6;0;4;17;-534;3923;128;-0.601108;0.09556787;0.7829075;0.1288089;-7;5;-3;-79;1267;-3820;4;0.2894737;0.3753462;-0.5581717;-0.6810026;0;-5;-2;-3143;2094;-836;16;0.2188366;-0.7201524;-0.04986149;0.6565097;-2;-1;-2;-1649;872;3634;2;0.5554016;-0.7066469;-0.33518;0.2825485;-2;4;3;3025;2370;-529;8;-0.02216066;-0.6703601;0.2202216;0.7082575;-3;4;0;1327;1213;3523;0.64424;1.877368;1.764797;0.6446024;1.91041;1.220251;0.6448989;1.937435;0.741474;0.6439268;1.847186;0.01324558;0.384407;1.772016;-0.3057321;0.04398237;1.8556;-0.1743397;-0.02907535;0.947037;-0.00849418;0;0;0;0.9047208;1.76641;-0.3057352;1.194485;1.843204;-0.1743445;1.298657;0.9139595;0.05787766;1.304705;-0.02581728;0.1785827;0.3323705;1.870393;1.809753;0.7206861;1.07352;2.973825;0.9342952;0.7348332;4.259122;0.3323705;1.870393;1.809753;0.7206861;1.07352;2.973825;0.9342952;0.7348332;4.259122
398635.9701;NotLabelled;NONE;16384;-0.1925208;0.3268698;-0.66963;-0.6385041;1;6;1;-768;4032;-11;65536;0.2922437;-0.2950138;0.6301939;0.6560611;-4;3;1;-33;4104;13;8192;0.6398892;-0.6659011;0.1620499;0.3476454;-1;7;0;942;3935;-611;32768;0.6246537;-0.6711624;0.2423823;0.3171745;4;4;1;-325;4051;452;256;0.6288089;0.033241;-0.7752473;0.04986149;7;0;5;41;-538;3919;128;-0.599723;0.09556787;0.783969;0.1288089;-6;6;-4;13;1221;-3826;4;0.2908587;0.3753462;-0.5581717;-0.6804122;3;0;-5;-3253;2288;-780;16;0.2174515;-0.7193074;-0.04986149;0.6578947;-1;-2;-4;-1769;1004;3638;2;0.5567867;-0.7048963;-0.3365651;0.2825485;0;3;3;3051;2406;-435;8;-0.02216066;-0.6703601;0.2188366;0.7086866;-4;0;0;1249;1161;3609;0.6403803;1.870949;1.76415;0.6407667;1.906137;1.219739;0.6410842;1.935049;0.7410717;0.6399349;1.846074;0.01268703;0.3802619;1.772017;-0.3064262;0.04001408;1.856101;-0.1748942;-0.02949213;0.9470041;-0.01044814;0;0;0;0.9005622;1.765296;-0.3064298;1.190487;1.841239;-0.1748997;1.296943;0.9118416;0.05566931;1.305926;-0.02817488;0.1743121;0.328509;1.863796;1.809064;0.7173893;1.069403;2.974642;0.9313871;0.7332208;4.260532;0.328509;1.863796;1.809064;0.7173893;1.069403;2.974642;0.9313871;0.7332208;4.260532
398657.7101;NotLabelled;NONE;16384;-0.1925208;0.3268698;-0.6709479;-0.6371191;0;5;0;-1044;3978;-149;65536;0.2922437;-0.2963989;0.6301939;0.6554365;-3;4;0;85;4016;117;8192;0.6398892;-0.6669576;0.1606648;0.3462604;0;7;0;886;3999;-549;32768;0.6246537;-0.6718152;0.2423823;0.3157895;3;4;1;-231;4075;394;256;0.6274238;0.033241;-0.7764563;0.04847645;8;0;5;-17;-488;3859;128;-0.599723;0.09556787;0.7837402;0.1301939;-6;4;-4;185;1291;-3854;4;0.2908587;0.3753462;-0.5567867;-0.681546;4;1;-7;-3195;2230;-1078;16;0.2174515;-0.7192101;-0.05124654;0.6578947;-1;0;-4;-1737;976;3590;2;0.5567867;-0.7048963;-0.3365651;0.2825485;-4;4;3;3175;2448;-277;8;-0.02216066;-0.6717451;0.2188366;0.707374;-4;7;0;1221;1119;3621;0.6362821;1.869584;1.761701;0.636668;1.904777;1.21729;0.6369849;1.933693;0.7386231;0.6360083;1.846287;0.01004803;0.3764724;1.772465;-0.3092313;0.03607523;1.855669;-0.1775273;-0.03304519;0.9468787;-0.01124321;0;0;0;0.8967839;1.766654;-0.3092344;1.186572;1.84282;-0.1775336;1.293418;0.9139373;0.05492508;1.300485;-0.02622008;0.1725775;0.3244108;1.862431;1.806615;0.713621;1.070524;2.973773;0.9310254;0.7377071;4.259968;0.3244108;1.862431;1.806615;0.713621;1.070524;2.973773;0.9310254;0.7377071;4.259968
398678.7189;NotLabelled;NONE;16384;-0.1925208;0.3282548;-0.6702714;-0.6371191;0;3;-2;-1068;3924;-275;65536;0.2922437;-0.2963989;0.6301939;0.6554365;-2;3;-2;63;4142;205;8192;0.6412742;-0.6663446;0.1606648;0.3448753;-1;4;1;862;4047;-369;32768;0.6260388;-0.6711752;0.2423823;0.3144044;2;2;0;-229;4127;314;256;0.6274238;0.03185596;-0.7765996;0.04709141;8;-1;4;-77;-468;4015;128;-0.5983379;0.09556787;0.7845671;0.1315789;-7;1;-2;281;1359;-3874;4;0.2922437;0.3753462;-0.5554016;-0.6820834;5;0;-6;-3221;2316;-940;16;0.2174515;-0.7179407;-0.05124654;0.6592798;-2;-1;-4;-1623;1068;3568;2;0.5567867;-0.7042333;-0.3379501;0.2825485;-2;1;2;3057;2360;-611;8;-0.02077562;-0.6717451;0.2174515;0.707843;-5;8;1;1363;1125;3697;0.6401579;1.866378;1.760532;0.6405577;1.902785;1.216201;0.6408869;1.932769;0.7375997;0.640096;1.84692;0.008839428;0.3807117;1.773273;-0.3106037;0.04014967;1.85553;-0.1787305;-0.03185581;0.9468997;-0.01279218;0;0;0;0.9010335;1.76848;-0.310607;1.19067;1.844931;-0.1787359;1.296648;0.916106;0.05434752;1.30222;-0.02418816;0.1709837;0.3282855;1.859125;1.805422;0.7260728;1.068127;2.970304;0.9481804;0.7378213;4.256342;0.3282855;1.859125;1.805422;0.7260728;1.068127;2.970304;0.9481804;0.7378213;4.256342
398699.8734;NotLabelled;NONE;16384;-0.1925208;0.3282548;-0.6702714;-0.6371191;1;-5;0;-732;4092;-79;65536;0.2936288;-0.2963989;0.6288089;0.6561472;-1;-1;-3;-35;4118;17;8192;0.6412742;-0.6663446;0.1606648;0.3448753;0;3;0;836;4007;-437;32768;0.6260388;-0.6711752;0.2423823;0.3144044;1;3;0;-225;4029;362;256;0.6274238;0.03047091;-0.7766552;0.04709141;9;-1;2;-45;-408;4049;128;-0.5983379;0.09556787;0.7843335;0.132964;-7;-2;-2;183;1329;-3946;4;0.2922437;0.3753462;-0.5554016;-0.6820834;3;0;-4;-3295;2314;-902;16;0.2174515;-0.7179407;-0.05124654;0.6592798;-3;-3;-6;-1563;1024;3496;2;0.5567867;-0.7042333;-0.3379501;0.2825485;0;0;2;3081;2320;-517;8;-0.02077562;-0.6717451;0.2160665;0.708267;-5;1;1;1323;1255;3649;0.6399502;1.858912;1.766875;0.6403632;1.896541;1.222627;0.6407042;1.927598;0.7440945;0.640059;1.84623;0.01482028;0.3807242;1.774653;-0.3051329;0.04016259;1.856234;-0.1728401;-0.03185555;0.9469256;-0.01066876;0;0;0;0.9010439;1.769648;-0.3050382;1.190679;1.845171;-0.1726286;1.297207;0.9142981;0.05187571;1.303783;-0.02661633;0.1633396;0.3280765;1.851559;1.811741;0.730592;1.061359;2.975538;0.9575598;0.7291033;4.260225;0.3280765;1.851559;1.811741;0.730592;1.061359;2.975538;0.9575598;0.7291033;4.260225
398720.7147;NotLabelled;NONE;16384;-0.1911357;0.3282548;-0.6693492;-0.6385041;1;-7;0;-678;4160;13;65536;0.2936288;-0.2963989;0.6288089;0.6561472;-2;-3;-1;-95;4048;109;8192;0.6426592;-0.6653421;0.1592798;0.3448753;0;3;0;878;3997;-493;32768;0.6260388;-0.6711752;0.2423823;0.3144044;0;2;-1;-347;4095;370;256;0.6260388;0.02908587;-0.7779878;0.04432133;10;-1;0;-69;-432;4029;128;-0.5983379;0.09695291;0.7839274;0.134349;-8;0;0;97;1395;-3992;4;0.2936288;0.3753462;-0.5540166;-0.6826148;3;-1;-3;-3377;2244;-912;16;0.2174515;-0.7166663;-0.05124654;0.6606648;-4;-4;-6;-1523;1076;3506;2;0.5581717;-0.7031361;-0.3379501;0.2825485;0;0;2;3225;2482;-381;8;-0.02216066;-0.6717451;0.2160665;0.708225;-4;2;0;1167;1209;3675;0.6366532;1.854691;1.759996;0.6370794;1.893536;1.215834;0.6374319;1.925663;0.7373722;0.6364707;1.84393;0.008139253;0.3769205;1.772749;-0.3117278;0.03656071;1.855128;-0.1794107;-0.03498835;0.9468042;-0.01161112;0;0;0;0.8972284;1.766628;-0.3117307;1.18705;1.841594;-0.1794155;1.294095;0.9121615;0.05073881;1.300715;-0.0285008;0.1643108;0.3247784;1.847237;1.804839;0.7277493;1.059651;2.970248;0.9552204;0.7302791;4.255589;0.3247784;1.847237;1.804839;0.7277493;1.059651;2.970248;0.9552204;0.7302791;4.255589
398740.7231;NotLabelled;NONE;16384;-0.1911357;0.3268698;-0.6700267;-0.6385041;1;-4;0;-624;4130;-117;65536;0.2922437;-0.2950138;0.6288089;0.6573886;-2;0;0;-145;4138;103;8192;0.6426592;-0.6653421;0.1592798;0.3448753;0;1;1;848;4025;-465;32768;0.6274238;-0.6703801;0.2409972;0.3144044;1;0;-1;-289;4097;334;256;0.6260388;0.02770083;-0.778116;0.04293629;9;-1;0;-5;-350;4015;128;-0.5983379;0.09833795;0.7835162;0.1357341;-6;2;0;91;1415;-4016;4;0.2936288;0.3753462;-0.5540166;-0.6826148;3;-3;-3;-3465;2294;-920;16;0.2160665;-0.7170852;-0.05124654;0.6606648;-3;-3;-6;-1575;978;3664;2;0.5581717;-0.7031361;-0.3379501;0.2825485;0;0;2;3207;2462;-533;8;-0.02216066;-0.6717451;0.2132964;0.7090642;-5;-1;0;1255;1183;3641;0.6329209;1.84583;1.757697;0.6333705;1.886815;1.213692;0.6337435;1.920824;0.7353596;0.6329521;1.843496;0.00564599;0.3735307;1.773853;-0.3146636;0.03303733;1.854913;-0.1818754;-0.03503153;0.9468036;-0.011481;0;0;0;0.8938472;1.768525;-0.3146666;1.183546;1.843132;-0.18188;1.294916;0.9140766;0.04774451;1.301959;-0.02658534;0.1612914;0.3210445;1.8382;1.802496;0.7330915;1.054038;2.967041;0.9702365;0.7256029;4.250873;0.3210445;1.8382;1.802496;0.7330915;1.054038;2.967041;0.9702365;0.7256029;4.250873
398760.7055;NotLabelled;NONE;16384;-0.1911357;0.3268698;-0.6700267;-0.6385041;2;3;0;-706;3990;-115;65536;0.2922437;-0.2963989;0.6288089;0.6567653;-3;2;0;-77;4108;197;8192;0.6426592;-0.6653421;0.1592798;0.3448753;0;0;1;986;3951;-543;32768;0.6274238;-0.6703801;0.2409972;0.3144044;1;1;-1;-391;4119;416;256;0.6260388;0.02631579;-0.7782393;0.04155125;9;0;0;39;-292;4029;128;-0.5983379;0.09833795;0.783275;0.1371191;-5;2;0;53;1495;-3938;4;0.2963989;0.3753462;-0.5540166;-0.6814166;3;-4;-3;-3521;2292;-926;16;0.2132964;-0.7153549;-0.05124654;0.6634349;-3;-7;-6;-1521;1000;3770;2;0.5581717;-0.7024687;-0.3393352;0.2825485;0;-1;2;3311;2510;-453;8;-0.02216066;-0.6717451;0.2132964;0.7090642;-6;-4;0;1247;1147;3637;0.6315885;1.838231;1.759223;0.6320617;1.881356;1.215383;0.6324555;1.917246;0.7371884;0.6316618;1.842763;0.007179022;0.3722245;1.774477;-0.3134099;0.03175929;1.855159;-0.1803199;-0.03668368;0.9467384;-0.01174952;0;0;0;0.8925388;1.768934;-0.3134131;1.182263;1.842903;-0.1803257;1.293671;0.9138473;0.04928029;1.304061;-0.02680552;0.1626444;0.3197099;1.830425;1.803978;0.7319468;1.046262;2.968457;0.9678407;0.7202567;4.253136;0.3197099;1.830425;1.803978;0.7319468;1.046262;2.968457;0.9678407;0.7202567;4.253136
398780.7083;NotLabelled;NONE;16384;-0.1911357;0.3282548;-0.6693492;-0.6385041;1;3;-1;-914;4036;-13;65536;0.2936288;-0.2963989;0.6274238;0.6574718;-3;2;-2;15;4108;127;8192;0.6426592;-0.6653421;0.1592798;0.3448753;0;2;0;1066;3905;-389;32768;0.6274238;-0.6703801;0.2409972;0.3144044;1;1;-1;-261;4073;346;256;0.6260388;0.02631579;-0.778312;0.0401662;8;0;1;-11;-242;4031;128;-0.5969529;0.09833795;0.7840877;0.1385041;-5;2;0;93;1467;-4090;4;0.2963989;0.3753462;-0.5526316;-0.6825403;4;-4;-3;-3519;2346;-902;16;0.2132964;-0.7153549;-0.05124654;0.6634349;-2;-6;-6;-1595;994;3790;2;0.5581717;-0.70191;-0.3393352;0.2839335;0;0;2;3327;2520;-539;8;-0.0235457;-0.6717451;0.2132964;0.7090195;-4;-5;0;1179;1215;3767;0.6327419;1.832144;1.757623;0.6332285;1.876484;1.213881;0.633634;1.913443;0.7357677;0.6328416;1.841807;0.005473435;0.3733903;1.774879;-0.3153903;0.0329527;1.855183;-0.1820014;-0.03546423;0.9467623;-0.01342063;0;0;0;0.8937023;1.76912;-0.315393;1.183451;1.84245;-0.1820058;1.294894;0.913394;0.04758275;1.305302;-0.02725935;0.1609452;0.3208623;1.824238;1.802353;0.7339593;1.04506;2.969868;0.9769707;0.7257791;4.25491;0.3208623;1.824238;1.802353;0.7339593;1.04506;2.969868;0.9769707;0.7257791;4.25491
398801.7361;NotLabelled;NONE;16384;-0.1911357;0.3282548;-0.6693492;-0.6385041;1;0;-1;-936;3988;-145;65536;0.2936288;-0.2963989;0.6274238;0.6574718;-2;0;-2;53;4148;191;8192;0.6426592;-0.6663879;0.1578947;0.3434903;0;2;1;966;4021;-461;32768;0.6274238;-0.6703801;0.2409972;0.3144044;0;1;0;-289;4045;362;256;0.6260388;0.02493075;-0.7784278;0.03878116;8;-1;1;-57;-336;4051;128;-0.5969529;0.09833795;0.7840877;0.1385041;-5;3;0;157;1387;-3934;4;0.2977839;0.3739612;-0.5526316;-0.6826977;4;-6;-3;-3585;2402;-864;16;0.2119114;-0.7144801;-0.05124654;0.66482;-2;-1;-5;-1497;1042;3730;2;0.5581717;-0.70191;-0.3393352;0.2839335;-1;0;1;3333;2516;-423;8;-0.0235457;-0.6717451;0.2132964;0.7090195;-4;-1;0;1169;1197;3879;0.629076;1.828093;1.754866;0.629576;1.87366;1.211226;0.6299934;1.911698;0.7331971;0.6293373;1.841639;0.002749681;0.3700079;1.774955;-0.3182626;0.02942924;1.854378;-0.1847072;-0.03858104;0.9466566;-0.01224076;0;0;0;0.8903291;1.7701;-0.3182675;1.179948;1.843644;-0.1847167;1.291397;0.9151093;0.046965;1.301805;-0.02554381;0.1603278;0.3171952;1.820086;1.799571;0.7346799;1.041853;2.966155;0.9776912;0.7225715;4.251197;0.3171952;1.820086;1.799571;0.7346799;1.041853;2.966155;0.9776912;0.7225715;4.251197
398823.7097;NotLabelled;NONE;16384;-0.1897507;0.3282548;-0.6697431;-0.6385041;2;-2;0;-748;3982;-227;65536;0.2936288;-0.2963989;0.6274238;0.6574718;0;0;-1;-95;4112;211;8192;0.6440443;-0.6650493;0.1578947;0.3434903;0;1;2;878;3987;-451;32768;0.6274238;-0.6703801;0.2409972;0.3144044;0;0;0;-361;4133;338;256;0.6260388;0.0235457;-0.778471;0.03878116;9;-1;0;-29;-370;4081;128;-0.5983379;0.09833795;0.782785;0.1398892;-3;0;0;157;1381;-3964;4;0.299169;0.3739612;-0.5526316;-0.6820919;1;-6;-3;-3519;2344;-840;16;0.2119114;-0.7144801;-0.05124654;0.66482;-1;1;-4;-1403;1012;3796;2;0.5581717;-0.70191;-0.3393352;0.2839335;-1;-3;3;3321;2510;-467;8;-0.0235457;-0.6717451;0.2119114;0.7094347;-3;-2;0;1263;1115;3895;0.6290405;1.824652;1.757154;0.6295406;1.870219;1.213513;0.6299578;1.908257;0.7354845;0.6293025;1.841046;0.004769504;0.3699584;1.775721;-0.3165112;0.0294072;1.854766;-0.1826604;-0.03858281;0.9466567;-0.01223474;0;0;0;0.8902776;1.770649;-0.3165144;1.179922;1.843553;-0.1826664;1.289724;0.9145467;0.047912;1.300148;-0.02610612;0.1612732;0.3171599;1.816645;1.801858;0.7377017;1.038472;2.967384;0.9843816;0.7225485;4.252557;0.3171599;1.816645;1.801858;0.7377017;1.038472;2.967384;0.9843816;0.7225485;4.252557
398844.7091;NotLabelled;NONE;16384;-0.1897507;0.3282548;-0.6697431;-0.6385041;1;0;0;-820;4024;-113;65536;0.2936288;-0.2963989;0.6274238;0.6574718;0;-2;-1;61;4116;141;8192;0.6440443;-0.6643322;0.1578947;0.3448753;0;0;2;906;3995;-511;32768;0.6274238;-0.6703801;0.2409972;0.3144044;1;0;0;-267;4057;328;256;0.6260388;0.02216066;-0.7786447;0.03601108;8;-3;-2;-19;-302;3993;128;-0.5983379;0.09833795;0.782785;0.1398892;-1;-4;1;207;1473;-4018;4;0.300554;0.3739612;-0.5526316;-0.6814827;0;-3;-1;-3523;2260;-928;16;0.2119114;-0.7144801;-0.05124654;0.66482;-2;-3;-3;-1393;954;3790;2;0.5581717;-0.7013482;-0.3393352;0.2853186;1;-4;3;3391;2392;-541;8;-0.02631579;-0.6717451;0.2132964;0.7089221;-2;-10;-1;1449;1081;3701;0.6296985;1.819122;1.75531;0.6302117;1.865894;1.211772;0.6306406;1.904992;0.7338288;0.6298554;1.839052;0.002998054;0.3703778;1.774843;-0.3183995;0.02999503;1.854388;-0.1844173;-0.03858429;0.9466563;-0.01222989;0;0;0;0.8906849;1.76865;-0.3184028;1.180483;1.840697;-0.1844234;1.293391;0.9115621;0.04412544;1.303831;-0.02909088;0.1574852;0.3178169;1.811015;1.799989;0.7388643;1.035338;2.966995;0.9857282;0.7194144;4.252132;0.3178169;1.811015;1.799989;0.7388643;1.035338;2.966995;0.9857282;0.7194144;4.252132
398865.724;NotLabelled;NONE;16384;-0.1897507;0.3282548;-0.6697431;-0.6385041;0;-4;-1;-854;4020;-121;65536;0.2936288;-0.2963989;0.6274238;0.6574718;0;0;-2;-77;4140;137;8192;0.6440443;-0.6643322;0.1578947;0.3448753;0;-1;3;910;3995;-451;32768;0.6274238;-0.6703801;0.2409972;0.3144044;0;-2;0;-237;4087;334;256;0.6274238;0.02077562;-0.7775673;0.03601108;6;-3;-3;-3;-326;4031;128;-0.599723;0.09972299;0.7815489;0.1398892;0;-3;2;107;1439;-4008;4;0.301939;0.3725762;-0.5540166;-0.6805038;0;-9;-1;-3511;2266;-918;16;0.2091413;-0.7141041;-0.04986149;0.666205;0;-6;-2;-1353;988;3798;2;0.5567867;-0.7024482;-0.3393352;0.2853186;1;-3;2;3341;2378;-509;8;-0.02770083;-0.6703601;0.2146814;0.7097619;-2;-16;0;1385;1065;3677;0.6295491;1.81435;1.75564;0.630062;1.861123;1.212102;0.6304908;1.90022;0.7341592;0.6298401;1.838708;0.002942383;0.3704685;1.776106;-0.3188575;0.02997223;1.854388;-0.1844209;-0.03858607;0.9466562;-0.01222463;0;0;0;0.8907833;1.7706;-0.3188606;1.180477;1.842216;-0.1844254;1.295494;0.9135518;0.04498458;1.305948;-0.02710164;0.158343;0.3176675;1.806244;1.80032;0.7391996;1.033068;2.968809;0.9862244;0.717144;4.253916;0.3176675;1.806244;1.80032;0.7391996;1.033068;2.968809;0.9862244;0.717144;4.253916
398886.8713;NotLabelled;NONE;16384;-0.1883656;0.3268698;-0.6694896;-0.6398892;0;-4;0;-794;4052;-145;65536;0.2936288;-0.2950138;0.6274238;0.6580945;0;0;-1;-33;4128;167;8192;0.6440443;-0.6643322;0.1578947;0.3448753;1;-5;2;956;4023;-399;32768;0.6274238;-0.6703801;0.2409972;0.3144044;0;-3;0;-381;4135;314;256;0.6274238;0.02077562;-0.7776302;0.03462604;6;-3;-3;-43;-318;4115;128;-0.599723;0.09972299;0.7815489;0.1398892;0;-1;3;69;1335;-3986;4;0.301939;0.3725762;-0.5540166;-0.6805038;0;-8;-1;-3565;2250;-752;16;0.2091413;-0.7141041;-0.04986149;0.666205;0;-7;-1;-1399;894;3820;2;0.5567867;-0.7018841;-0.3393352;0.2867036;1;-5;1;3335;2382;-525;8;-0.03047091;-0.6703601;0.2160665;0.7092279;-2;-14;0;1367;1047;3787;0.6302449;1.809637;1.755688;0.6307679;1.857322;1.212229;0.6312058;1.897223;0.7343525;0.6304295;1.836998;0.003028452;0.3709214;1.775559;-0.3188853;0.03060331;1.854388;-0.1843175;-0.03854375;0.9466565;-0.01235681;0;0;0;0.8912222;1.768855;-0.3188888;1.181077;1.839568;-0.1843233;1.295308;0.9109037;0.04547918;1.305374;-0.02974963;0.1588728;0.3183622;1.801456;1.800348;0.734385;1.027396;2.970226;0.9789628;0.7147195;4.256595;0.3183622;1.801456;1.800348;0.734385;1.027396;2.970226;0.9789628;0.7147195;4.256595
398906.9176;NotLabelled;NONE;16384;-0.1883656;0.3268698;-0.6694896;-0.6398892;1;-3;0;-694;4042;-205;65536;0.2936288;-0.2950138;0.6274238;0.6580945;0;0;-1;-63;4150;121;8192;0.6426592;-0.6649527;0.1578947;0.3462604;0;-1;1;1074;3975;-533;32768;0.6274238;-0.6698806;0.2423823;0.3144044;0;-1;0;-271;4079;374;256;0.6274238;0.01939058;-0.777666;0.03462604;5;-3;-3;97;-394;4041;128;-0.599723;0.09972299;0.7815489;0.1398892;1;-2;2;51;1305;-3970;4;0.3033241;0.3725762;-0.5554016;-0.6787566;0;-7;-1;-3503;2202;-854;16;0.2077562;-0.7146036;-0.04847645;0.666205;0;-7;-1;-1409;928;3764;2;0.5567867;-0.7018841;-0.3393352;0.2867036;0;-8;2;3475;2414;-445;8;-0.03185596;-0.6703601;0.2160665;0.709167;-2;-8;-1;1307;1003;3771;0.6264488;1.80876;1.756978;0.626972;1.856446;1.213519;0.6274098;1.896346;0.7356426;0.626757;1.837699;0.004190505;0.3673645;1.776502;-0.3178626;0.02690627;1.854449;-0.1831347;-0.03976938;0.9466257;-0.01068228;0;0;0;0.8876759;1.770705;-0.3178655;1.177404;1.841631;-0.1831391;1.291633;0.912967;0.04666412;1.301698;-0.02768576;0.1600569;0.3145662;1.800579;1.801638;0.7305819;1.026519;2.971518;0.9751526;0.7138426;4.257888;0.3145662;1.800579;1.801638;0.7305819;1.026519;2.971518;0.9751526;0.7138426;4.257888
398927.6999;NotLabelled;NONE;16384;-0.1883656;0.3268698;-0.6694896;-0.6398892;-1;3;0;-874;4034;-173;65536;0.2936288;-0.2950138;0.6260388;0.6594121;0;1;0;-85;4112;143;8192;0.6426592;-0.6642296;0.1578947;0.3476454;0;-2;0;1042;4009;-557;32768;0.6274238;-0.6703801;0.2409972;0.3144044;0;0;0;-351;4077;366;256;0.6274238;0.01939058;-0.777666;0.03462604;5;-2;-2;-35;-320;4065;128;-0.599723;0.09972299;0.7817956;0.1385041;0;-4;1;101;1317;-3992;4;0.3047091;0.3711911;-0.5554016;-0.6788951;0;-10;-1;-3519;2176;-752;16;0.2063712;-0.7137118;-0.04847645;0.66759;0;-9;-1;-1405;852;3714;2;0.5554016;-0.7030815;-0.3379501;0.2880886;1;-6;3;3413;2286;-565;8;-0.03185596;-0.6689751;0.2174515;0.710051;-1;-6;0;1375;1109;3749;0.626495;1.80587;1.757057;0.6270186;1.853556;1.213598;0.6274565;1.893456;0.7357215;0.6266933;1.836082;0.004168332;0.3671767;1.776005;-0.3179957;0.02688412;1.85445;-0.1831388;-0.03977042;0.9466261;-0.01067753;0;0;0;0.8874746;1.769087;-0.3179988;1.177351;1.839155;-0.1831442;1.290615;0.9110879;0.04953182;1.300282;-0.02979648;0.1610239;0.3146125;1.797689;1.801717;0.726708;1.025221;2.974035;0.9699009;0.7124435;4.260641;0.3146125;1.797689;1.801717;0.726708;1.025221;2.974035;0.9699009;0.7124435;4.260641
398948.9175;NotLabelled;NONE;16384;-0.1883656;0.3268698;-0.6694896;-0.6398892;-1;1;0;-752;4022;-151;65536;0.2936288;-0.2950138;0.6260388;0.6594121;1;3;0;-105;4128;209;8192;0.6426592;-0.6642296;0.1578947;0.3476454;0;-3;0;1100;3933;-449;32768;0.6274238;-0.6698806;0.2423823;0.3144044;1;-1;1;-287;4139;322;256;0.6288089;0.01800554;-0.7766404;0.033241;6;-2;-2;-53;-434;4019;128;-0.601108;0.09972299;0.7809756;0.1371191;1;-3;0;153;1261;-3982;4;0.3060942;0.3711911;-0.5567867;-0.6771352;0;-11;0;-3455;2134;-736;16;0.2063712;-0.7138045;-0.04709141;0.66759;0;-10;-3;-1453;920;3644;2;0.5554016;-0.7030815;-0.3379501;0.2880886;2;-6;2;3295;2322;-567;8;-0.033241;-0.6689751;0.2174515;0.7099875;-1;-8;0;1417;963;3707;0.6229929;1.80837;1.7585;0.6235028;1.854842;1.214936;0.6239289;1.893675;0.736972;0.6231628;1.836301;0.005418658;0.3636447;1.776223;-0.3167443;0.0233527;1.854669;-0.1818857;-0.04330496;0.9464622;-0.01145313;0;0;0;0.8839428;1.769306;-0.3167496;1.17382;1.839374;-0.1818961;1.289171;0.9112637;0.04958045;1.29925;-0.02938938;0.1629726;0.3111113;1.800288;1.803186;0.7260839;1.027871;2.974522;0.9728205;0.718435;4.261262;0.3111113;1.800288;1.803186;0.7260839;1.027871;2.974522;0.9728205;0.718435;4.261262
398969.7186;NotLabelled;NONE;16384;-0.1883656;0.3268698;-0.6694896;-0.6398892;-1;0;0;-742;3986;-257;65536;0.2950138;-0.2950138;0.6260388;0.6587937;1;1;0;-19;4108;211;8192;0.6426592;-0.6642296;0.1578947;0.3476454;0;-2;0;1232;3965;-487;32768;0.6274238;-0.6698806;0.2423823;0.3144044;0;0;2;-395;4039;382;256;0.6288089;0.0166205;-0.7766712;0.033241;6;-3;-1;-57;-448;3955;128;-0.601108;0.09972299;0.7809756;0.1371191;1;-4;0;95;1231;-3966;4;0.3074792;0.368421;-0.5581717;-0.6768802;0;-7;0;-3449;2236;-722;16;0.2036011;-0.7133932;-0.04570637;0.6689751;0;-16;-4;-1485;896;3816;2;0.5540166;-0.7030338;-0.3379501;0.2908587;0;-6;2;3385;2318;-611;8;-0.03601108;-0.6689751;0.2188366;0.7094266;0;-9;-1;1451;1075;3661;0.6236174;1.806353;1.756924;0.6241138;1.851602;1.213257;0.6245282;1.889361;0.7352067;0.6237745;1.834857;0.003434062;0.3642432;1.776185;-0.3189766;0.02398593;1.854285;-0.1838314;-0.04326521;0.9464619;-0.01160242;0;0;0;0.8845372;1.768983;-0.3189792;1.174445;1.838364;-0.1838356;1.28899;0.9107733;0.05010891;1.298271;-0.03011131;0.1616333;0.311737;1.798372;1.801636;0.7185771;1.027573;2.976885;0.9607369;0.7155964;4.26388;0.311737;1.798372;1.801636;0.7185771;1.027573;2.976885;0.9607369;0.7155964;4.26388
398989.7637;NotLabelled;NONE;16384;-0.1883656;0.3268698;-0.6694896;-0.6398892;-1;0;0;-770;3996;-171;65536;0.2950138;-0.2950138;0.6260388;0.6587937;2;1;0;-107;4086;179;8192;0.6426592;-0.6635029;0.1578947;0.3490305;-1;0;-1;1136;3929;-551;32768;0.6274238;-0.6698806;0.2423823;0.3144044;0;0;3;-295;4077;384;256;0.6288089;0.0166205;-0.7766712;0.033241;5;-2;0;-53;-414;4059;128;-0.601108;0.09972299;0.7812175;0.1357341;0;-4;0;95;1361;-3968;4;0.3088643;0.368421;-0.5581717;-0.6762493;0;-12;-1;-3445;2154;-662;16;0.200831;-0.7130503;-0.04293629;0.6703601;1;-19;-5;-1499;906;3798;2;0.5540166;-0.7030338;-0.3379501;0.2908587;0;-7;1;3405;2316;-661;8;-0.03739612;-0.66759;0.2202216;0.7102306;-1;-9;-1;1417;1035;3697;0.6240609;1.803501;1.75894;0.6245573;1.848751;1.215273;0.6249715;1.886509;0.7372218;0.6241205;1.833281;0.005355358;0.3644722;1.775729;-0.3171634;0.02438004;1.854326;-0.1818901;-0.04285158;0.9465032;-0.00965295;0;0;0;0.8847495;1.767409;-0.317166;1.174802;1.835931;-0.1818949;1.289374;0.9083395;0.05203593;1.298667;-0.03254485;0.1635597;0.3121803;1.79552;1.803651;0.7201173;1.021406;2.976338;0.9644668;0.7126594;4.263699;0.3121803;1.79552;1.803651;0.7201173;1.021406;2.976338;0.9644668;0.7126594;4.263699
399010.7885;NotLabelled;NONE;16384;-0.1883656;0.3268698;-0.6694896;-0.6398892;0;0;0;-688;4058;-223;65536;0.2950138;-0.2950138;0.6274238;0.6574747;2;0;1;-109;4158;137;8192;0.6426592;-0.6642296;0.1578947;0.3476454;0;1;-1;1086;3931;-487;32768;0.6274238;-0.6700267;0.2437673;0.3130194;1;0;5;-329;4059;390;256;0.6288089;0.01523546;-0.7767577;0.03185596;6;-3;0;-3;-330;4027;128;-0.601108;0.09972299;0.7812175;0.1357341;0;-1;0;41;1319;-3938;4;0.3102493;0.367036;-0.5595568;-0.6752231;2;-11;-2;-3425;2180;-740;16;0.199446;-0.7122172;-0.04155125;0.6717451;1;-14;-4;-1495;930;3730;2;0.5526316;-0.704213;-0.3365651;0.2922437;0;-7;1;3253;2302;-699;8;-0.03878116;-0.66759;0.2202216;0.7101564;-2;-10;-1;1501;1009;3657;0.6240881;1.805779;1.759123;0.6245712;1.849816;1.215357;0.6249738;1.886508;0.7372231;0.6241227;1.833281;0.00535661;0.3644746;1.775729;-0.3171617;0.02438234;1.854326;-0.1818884;-0.04285133;0.9465023;-0.009652637;0;0;0;0.8847519;1.767409;-0.317165;1.174804;1.83593;-0.1818939;1.291467;0.9088205;0.05290818;1.30076;-0.03206384;0.1644323;0.3122087;1.797897;1.80386;0.7204759;1.026307;2.978094;0.9668022;0.7182373;4.26524;0.3122087;1.797897;1.80386;0.7204759;1.026307;2.978094;0.9668022;0.7182373;4.26524
399030.7167;NotLabelled;NONE;16384;-0.1897507;0.3268698;-0.6690984;-0.6398892;-1;2;0;-712;3992;-53;65536;0.2950138;-0.2950138;0.6274238;0.6574747;2;3;1;-77;4082;63;8192;0.6426592;-0.6642296;0.1578947;0.3476454;0;0;-1;990;3951;-435;32768;0.6274238;-0.6700267;0.2437673;0.3130194;0;0;5;-341;4119;302;256;0.6288089;0.01385042;-0.7767836;0.03185596;7;-2;0;5;-286;4005;128;-0.601108;0.09972299;0.7812175;0.1357341;0;-2;0;77;1301;-3890;4;0.3116343;0.367036;-0.5595568;-0.6745849;2;-9;-2;-3351;2174;-702;16;0.1980609;-0.7113749;-0.0401662;0.6731302;2;-11;-4;-1417;954;3686;2;0.5526316;-0.704213;-0.3365651;0.2922437;1;-5;1;3233;2232;-615;8;-0.0401662;-0.66759;0.2216066;0.7096483;-1;-14;-1;1561;997;3619;0.6275569;1.802114;1.760067;0.6280401;1.846151;1.216301;0.6284426;1.882843;0.7381671;0.6276168;1.832469;0.006098807;0.3679658;1.77628;-0.3166578;0.02789691;1.854487;-0.1811005;-0.03931906;0.9466643;-0.008857533;0;0;0;0.8882396;1.767748;-0.3166608;1.178311;1.835623;-0.1811056;1.292905;0.9080327;0.0528152;1.299905;-0.03321159;0.1614366;0.3156778;1.794232;1.804804;0.7224694;1.021817;2.979008;0.9724002;0.7145092;4.26564;0.3156778;1.794232;1.804804;0.7224694;1.021817;2.979008;0.9724002;0.7145092;4.26564
399051.7078;NotLabelled;NONE;16384;-0.1897507;0.3268698;-0.6704202;-0.6385041;-1;3;0;-796;4120;-83;65536;0.2950138;-0.2963989;0.6274238;0.6568515;3;2;0;-97;4148;165;8192;0.6426592;-0.6642296;0.1578947;0.3476454;0;1;-3;990;4009;-369;32768;0.6274238;-0.6706719;0.2437673;0.3116343;0;0;5;-221;4091;344;256;0.6288089;0.01385042;-0.7767836;0.03185596;7;-2;1;-19;-342;4031;128;-0.601108;0.101108;0.7810394;0.1357341;-1;-3;-2;103;1307;-3898;4;0.3130194;0.365651;-0.5595568;-0.6746958;1;-8;-3;-3389;2128;-738;16;0.1980609;-0.7114518;-0.03878116;0.6731302;1;-12;-5;-1261;896;3708;2;0.5512465;-0.7047222;-0.3365651;0.2936288;2;-5;2;3319;2318;-535;8;-0.04155125;-0.666205;0.2229917;0.7104359;-1;-11;0;1457;1031;3657;0.6269373;1.799596;1.761871;0.6274203;1.843633;1.218105;0.6278229;1.880326;0.739971;0.6269121;1.831228;0.007815659;0.3671512;1.77616;-0.3150454;0.02724702;1.854863;-0.1793619;-0.03931969;0.9466645;-0.008854009;0;0;0;0.8874056;1.766509;-0.3150486;1.177618;1.833524;-0.1793667;1.292254;0.905933;0.05453336;1.299264;-0.03531075;0.1631542;0.3150579;1.791715;1.806608;0.7222866;1.021832;2.982323;0.9758382;0.715274;4.268426;0.3150579;1.791715;1.806608;0.7222866;1.021832;2.982323;0.9758382;0.715274;4.268426
399073.0121;NotLabelled;NONE;16384;-0.1897507;0.3268698;-0.6704202;-0.6385041;-3;1;0;-816;3948;-179;65536;0.2950138;-0.2963989;0.6288089;0.6555257;2;1;1;-31;4036;87;8192;0.6440443;-0.6628867;0.1578947;0.3476454;-1;2;-3;986;4005;-471;32768;0.6274238;-0.6701669;0.2451524;0.3116343;0;0;5;-295;4057;390;256;0.6288089;0.01246537;-0.7768626;0.03047091;6;-1;1;5;-324;3911;128;-0.601108;0.101108;0.7812788;0.134349;-1;-1;0;-29;1301;-3884;4;0.3144044;0.365651;-0.5595568;-0.6740515;1;-9;-2;-3373;2128;-550;16;0.1966759;-0.7105979;-0.03739612;0.6745152;1;-14;-6;-1223;790;3714;2;0.5498615;-0.7052256;-0.3365651;0.2950138;2;-6;3;3275;2316;-783;8;-0.04293629;-0.666205;0.2243767;0.7099172;-1;-6;1;1591;1055;3631;0.6316346;1.797438;1.759112;0.632128;1.842405;1.215421;0.6325395;1.879915;0.7373512;0.6316385;1.830817;0.005196214;0.371882;1.775749;-0.3176685;0.03197601;1.854452;-0.1819895;-0.03808848;0.946697;-0.01052473;0;0;0;0.8921363;1.766097;-0.3176648;1.182347;1.833112;-0.1819789;1.29696;0.9059236;0.05351853;1.302077;-0.0354476;0.1611348;0.3197544;1.78948;1.803829;0.7297989;1.019635;2.97859;0.9832082;0.7105262;4.26411;0.3197544;1.78948;1.803829;0.7297989;1.019635;2.97859;0.9832082;0.7105262;4.26411
399094.713;NotLabelled;NONE;16384;-0.1897507;0.3268698;-0.6704202;-0.6385041;-3;3;0;-810;3982;-123;65536;0.2963989;-0.2963989;0.6288089;0.6549006;2;3;1;-27;4154;73;8192;0.6440443;-0.6636113;0.1578947;0.3462604;0;0;-2;926;3911;-623;32768;0.6274238;-0.6701669;0.2451524;0.3116343;1;-2;6;-229;4079;442;256;0.6288089;0.01108033;-0.7769367;0.02908587;6;-1;0;97;-226;4089;128;-0.601108;0.1024931;0.7808589;0.1357341;-3;0;0;-77;1323;-3922;4;0.3157895;0.3642659;-0.5609418;-0.6730019;0;-8;-1;-3225;2228;-578;16;0.1925208;-0.70924;-0.03462604;0.6772853;-1;-17;-4;-1075;968;3718;2;0.5498615;-0.7058849;-0.33518;0.2950138;2;-5;3;3281;2396;-507;8;-0.04432133;-0.666205;0.2243767;0.7098321;-1;-7;1;1555;1091;3595;0.6351418;1.796324;1.761768;0.6356215;1.84008;1.217979;0.6360212;1.876525;0.7398265;0.635144;1.83028;0.007485807;0.3753844;1.776576;-0.3156065;0.03550234;1.854889;-0.1796417;-0.03454786;0.9468416;-0.009724073;0;0;0;0.8956348;1.766713;-0.3156099;1.185865;1.833081;-0.1796474;1.303579;0.905372;0.05224705;1.3083;-0.03621686;0.1579602;0.3232628;1.788466;1.806511;0.7337431;1.021158;2.982778;0.9907906;0.7127832;4.267752;0.3232628;1.788466;1.806511;0.7337431;1.021158;2.982778;0.9907906;0.7127832;4.267752
399115.7323;NotLabelled;NONE;16384;-0.1911357;0.3268698;-0.6700267;-0.6385041;-3;3;0;-814;4038;-179;65536;0.2963989;-0.2963989;0.6288089;0.6549006;3;3;1;-47;4078;177;8192;0.6426592;-0.6649527;0.1578947;0.3462604;0;0;-1;1004;3969;-489;32768;0.6260388;-0.6715952;0.2465374;0.3102493;1;0;6;-241;4149;388;256;0.6288089;0.009695291;-0.7769552;0.02908587;6;0;0;73;-244;4047;128;-0.601108;0.1024931;0.7808589;0.1357341;-3;-2;-1;17;1323;-3934;4;0.3171745;0.3628809;-0.5609418;-0.6730989;0;-5;-1;-3327;2264;-542;16;0.1911357;-0.7097443;-0.03185596;0.6772853;0;-12;-3;-1101;988;3770;2;0.5484765;-0.7057232;-0.3365651;0.2963989;1;-4;4;3247;2278;-639;8;-0.04570637;-0.666205;0.2257618;0.7093049;-1;-2;1;1411;1063;3623;0.635437;1.788504;1.763519;0.6359404;1.834401;1.219906;0.6363609;1.872729;0.7419012;0.6355203;1.829339;0.009385705;0.3757631;1.777001;-0.3139324;0.03590284;1.854922;-0.1776886;-0.03413005;0.9468747;-0.007764183;0;0;0;0.8960094;1.766925;-0.3139358;1.186256;1.832644;-0.177694;1.301907;0.9044551;0.0533154;1.306635;-0.03713429;0.1590284;0.3235559;1.780469;1.808217;0.7325048;1.012354;2.98449;0.9954441;0.7078604;4.269198;0.3235559;1.780469;1.808217;0.7325048;1.012354;2.98449;0.9954441;0.7078604;4.269198
399136.7122;NotLabelled;NONE;16384;-0.1911357;0.3268698;-0.6713438;-0.6371191;-4;0;0;-820;3998;-87;65536;0.2963989;-0.2963989;0.6288089;0.6549006;3;0;0;35;4138;99;8192;0.6440443;-0.6636113;0.1578947;0.3462604;0;0;-1;876;4053;-467;32768;0.6260388;-0.6717237;0.2479224;0.3088643;1;0;5;-127;4071;308;256;0.6288089;0.009695291;-0.7770059;0.02770083;7;-1;0;51;-254;4019;128;-0.601108;0.1038781;0.7806758;0.1357341;-3;-3;-1;53;1327;-3858;4;0.3171745;0.3628809;-0.5623268;-0.6719422;0;-7;-2;-3307;2232;-560;16;0.1897507;-0.7088531;-0.03047091;0.6786703;0;-8;-2;-997;952;3810;2;0.5484765;-0.706382;-0.33518;0.2963989;1;-4;3;3315;2342;-747;8;-0.04570637;-0.666205;0.2243767;0.7097443;-1;2;1;1467;1039;3591;0.6348081;1.785984;1.765317;0.6353117;1.831881;1.221705;0.6357322;1.87021;0.7436993;0.6348259;1.828097;0.01110941;0.3749691;1.77688;-0.3123085;0.03527206;1.855295;-0.1759408;-0.03413055;0.9468745;-0.007762607;0;0;0;0.8951925;1.765684;-0.3123114;1.185575;1.830541;-0.1759458;1.298151;0.9024745;0.05706429;1.297672;-0.03922141;0.1619306;0.322927;1.777949;1.810015;0.7347645;1.009867;2.985302;0.9962589;0.7027076;4.26967;0.322927;1.777949;1.810015;0.7347645;1.009867;2.985302;0.9962589;0.7027076;4.26967
399157.7151;NotLabelled;NONE;16384;-0.1911357;0.3268698;-0.6713438;-0.6371191;-3;0;0;-838;3998;-89;65536;0.2977839;-0.2963989;0.6288089;0.654272;4;0;0;-15;4174;219;8192;0.6440443;-0.6643322;0.1578947;0.3448753;0;-1;-2;800;3981;-377;32768;0.6260388;-0.6717237;0.2479224;0.3088643;0;-1;4;-191;4145;336;256;0.6288089;0.008310249;-0.7770219;0.02770083;7;-1;0;63;-220;4031;128;-0.601108;0.1038781;0.7806758;0.1357341;-3;-2;0;27;1417;-3878;4;0.3185596;0.3628809;-0.5623268;-0.6712866;-1;-5;-2;-3301;2308;-594;16;0.1883656;-0.7092224;-0.03047091;0.6786703;-2;-9;-1;-877;934;3832;2;0.5470914;-0.7068734;-0.33518;0.2977839;2;-4;3;3221;2272;-755;8;-0.04570637;-0.666205;0.2243767;0.7097443;-2;-1;2;1571;1145;3533;0.6381952;1.783136;1.765822;0.6387091;1.829965;1.222288;0.6391385;1.869112;0.7443491;0.6383369;1.828576;0.01167005;0.3785834;1.777604;-0.3118693;0.03874443;1.855133;-0.1753487;-0.03413099;0.9468746;-0.007762764;0;0;0;0.8988256;1.767315;-0.3118725;1.189089;1.832384;-0.1753539;1.304749;0.9041958;0.05565119;1.301984;-0.03781629;0.1575994;0.3263133;1.775025;1.8105;0.7337016;1.006117;2.986797;0.998782;0.6996477;4.270595;0.3263133;1.775025;1.8105;0.7337016;1.006117;2.986797;0.998782;0.6996477;4.270595
399177.7087;NotLabelled;NONE;16384;-0.1911357;0.3268698;-0.6713438;-0.6371191;-2;0;0;-714;3996;-123;65536;0.2977839;-0.2963989;0.6301939;0.6529381;4;0;0;-49;4088;77;8192;0.6440443;-0.6640015;0.1592798;0.3448753;-1;0;-2;872;3997;-479;32768;0.6260388;-0.6718466;0.2493075;0.3074792;0;0;3;-197;4075;458;256;0.6288089;0.006925208;-0.7771293;0.02493075;8;0;0;77;-116;3929;128;-0.601108;0.1052632;0.7802482;0.1371191;-4;0;0;-69;1477;-3902;4;0.3185596;0.3614958;-0.5637119;-0.6708722;-2;-6;-3;-3385;2230;-418;16;0.1855956;-0.708684;-0.02908587;0.6800554;-2;-9;-1;-923;996;3742;2;0.5470914;-0.7068734;-0.33518;0.2977839;3;-2;2;3325;2334;-653;8;-0.04570637;-0.666205;0.2243767;0.7097443;-2;-1;3;1555;1115;3603;0.6385899;1.780271;1.767818;0.6391038;1.8271;1.224285;0.6395333;1.866247;0.7463464;0.6386722;1.826989;0.01359797;0.378822;1.77714;-0.3100387;0.03914557;1.855162;-0.1733947;-0.0337119;0.9469036;-0.005800948;0;0;0;0.8990407;1.765731;-0.3100421;1.189438;1.829937;-0.1734003;1.303042;0.9012729;0.05671299;1.300283;-0.04073942;0.1586608;0.3267081;1.77216;1.812496;0.7344992;1.005802;2.990316;0.998396;0.7017878;4.274942;0.3267081;1.77216;1.812496;0.7344992;1.005802;2.990316;0.998396;0.7017878;4.274942
399198.8994;NotLabelled;NONE;16384;-0.1911357;0.3268698;-0.6726555;-0.6357341;-3;1;0;-684;4040;-25;65536;0.2977839;-0.2963989;0.6301939;0.6529381;3;3;0;-53;4136;37;8192;0.6440443;-0.6640015;0.1592798;0.3448753;0;0;-1;946;3911;-461;32768;0.6260388;-0.6718466;0.2493075;0.3074792;0;-2;4;-183;4083;316;256;0.6288089;0.005540166;-0.7771404;0.02493075;7;0;0;85;-134;4041;128;-0.602493;0.1066482;0.7789908;0.1371191;-6;-3;0;-113;1459;-3926;4;0.3199446;0.3614958;-0.5650969;-0.6690454;-2;-1;-2;-3271;2272;-580;16;0.1842105;-0.7091007;-0.02770083;0.6800554;-3;0;2;-1125;996;3768;2;0.5470914;-0.7056294;-0.3365651;0.299169;2;-1;2;3321;2328;-821;8;-0.04709141;-0.66759;0.2243767;0.7083509;-2;2;3;1555;1135;3601;0.641965;1.771604;1.768408;0.6425022;1.820575;1.225063;0.6429522;1.861606;0.7472824;0.6422352;1.826781;0.01430953;0.3824921;1.778545;-0.309657;0.04269489;1.855286;-0.172589;-0.03016067;0.947028;-0.004994031;0;0;0;0.9027256;1.76783;-0.30966;1.19302;1.831595;-0.1725937;1.306229;0.9024154;0.05562663;1.301194;-0.03989875;0.1546522;0.3300812;1.763317;1.81304;0.7359326;0.9936303;2.989359;1.002259;0.6927532;4.274221;0.3300812;1.763317;1.81304;0.7359326;0.9936303;2.989359;1.002259;0.6927532;4.274221
399219.712;NotLabelled;NONE;16384;-0.1911357;0.3268698;-0.6726555;-0.6357341;-2;3;-1;-772;4102;25;65536;0.299169;-0.2963989;0.6301939;0.6523046;3;2;0;-27;4056;111;8192;0.6426592;-0.6653421;0.1592798;0.3448753;0;-2;0;1072;4009;-387;32768;0.6260388;-0.671331;0.2506925;0.3074792;0;-3;5;-199;4117;376;256;0.6288089;0.004155125;-0.7771922;0.0235457;6;-1;0;161;-24;4077;128;-0.602493;0.1066482;0.7789908;0.1371191;-6;0;0;-17;1503;-3916;4;0.3199446;0.3614958;-0.5650969;-0.6690454;-3;0;-2;-3363;2254;-492;16;0.1842105;-0.7104264;-0.02770083;0.6786703;-4;3;2;-1105;990;3800;2;0.5457063;-0.7067011;-0.3365651;0.299169;3;1;2;3361;2438;-725;8;-0.04709141;-0.66759;0.2243767;0.7083509;-1;2;3;1589;1071;3657;0.6453832;1.766779;1.768873;0.6459309;1.816684;1.225614;0.64639;1.858537;0.7479041;0.6456269;1.82499;0.01487207;0.3857933;1.777876;-0.3091875;0.0461567;1.855111;-0.1719984;-0.03016095;0.947028;-0.004992519;0;0;0;0.9060025;1.766041;-0.3091908;1.196428;1.828942;-0.1720031;1.309644;0.899763;0.05621421;1.304613;-0.04255164;0.1552397;0.3334987;1.758415;1.813485;0.7352746;0.9904956;2.992355;1.000303;0.6895176;4.277462;0.3334987;1.758415;1.813485;0.7352746;0.9904956;2.992355;1.000303;0.6895176;4.277462
399239.7373;NotLabelled;NONE;16384;-0.1925208;0.3268698;-0.6735675;-0.634349;-3;0;-1;-712;4128;21;65536;0.299169;-0.2977839;0.6301939;0.6516735;2;3;0;-161;4102;61;8192;0.6426592;-0.6653421;0.1592798;0.3448753;0;-1;0;994;3963;-571;32768;0.6246537;-0.6721021;0.2520775;0.3074792;0;-1;5;-183;4087;352;256;0.6288089;0.004155125;-0.7772329;0.02216066;7;0;0;121;-40;4063;128;-0.601108;0.1066482;0.7798153;0.1385041;-5;0;0;-53;1501;-3942;4;0.3185596;0.3614958;-0.5650969;-0.6697059;-2;3;-1;-3367;2238;-488;16;0.1842105;-0.7103711;-0.02908587;0.6786703;-4;3;2;-1217;994;3750;2;0.5457063;-0.7067011;-0.3365651;0.299169;1;1;3;3385;2442;-741;8;-0.04709141;-0.6689751;0.2229917;0.7074811;-1;4;3;1529;1099;3613;0.6457207;1.76297;1.770899;0.646268;1.812875;1.227639;0.646727;1.854728;0.7499295;0.6460167;1.824037;0.01677239;0.3861932;1.778293;-0.3074915;0.04657578;1.855132;-0.1700326;-0.0297405;0.9470495;-0.003026396;0;0;0;0.9063975;1.766244;-0.3074942;1.196836;1.828492;-0.1700369;1.306972;0.8994356;0.06018186;1.301538;-0.04307413;0.1573074;0.3338361;1.754606;1.815511;0.7356462;0.9866866;2.994369;0.9957112;0.6849483;4.280311;0.3338361;1.754606;1.815511;0.7356462;0.9866866;2.994369;0.9957112;0.6849483;4.280311
399259.9397;NotLabelled;NONE;16384;-0.1925208;0.3268698;-0.6735675;-0.634349;-3;0;0;-702;4122;-87;65536;0.300554;-0.2977839;0.6301939;0.6510358;3;1;1;-91;4150;139;8192;0.6426592;-0.6653421;0.1592798;0.3448753;1;1;-1;886;3965;-539;32768;0.6246537;-0.672734;0.2520775;0.3060942;0;0;2;-127;4119;364;256;0.6288089;0.002770083;-0.7772391;0.02216066;6;0;0;109;-158;4175;128;-0.601108;0.1080332;0.7796246;0.1385041;-5;-2;0;-71;1479;-4050;4;0.3185596;0.3628809;-0.5650969;-0.6689565;-1;4;-1;-3409;2304;-672;16;0.1842105;-0.7103711;-0.02908587;0.6786703;-4;5;2;-1291;1096;3760;2;0.5457063;-0.7067011;-0.3365651;0.299169;2;0;2;3313;2364;-837;8;-0.04570637;-0.6689751;0.2229917;0.7075719;-1;8;3;1497;1169;3619;0.6497227;1.75998;1.771413;0.6502833;1.811094;1.228266;0.6507542;1.85401;0.7506509;0.6501308;1.824897;0.01742911;0.3904023;1.7794;-0.3069456;0.05064531;1.85535;-0.1693378;-0.02849873;0.9470811;-0.004678871;0;0;0;0.9106268;1.768257;-0.3069482;1.200951;1.830714;-0.1693429;1.311089;0.9016583;0.06087518;1.302334;-0.04080963;0.1581672;0.3378368;1.751517;1.815999;0.7393048;0.9810402;2.993304;0.9994824;0.6818602;4.279822;0.3378368;1.751517;1.815999;0.7393048;0.9810402;2.993304;0.9994824;0.6818602;4.279822
399280.7054;NotLabelled;NONE;16384;-0.1925208;0.3268698;-0.6735675;-0.634349;-2;0;-1;-670;4012;-159;65536;0.300554;-0.2977839;0.6315789;0.6496923;3;0;1;-29;4124;135;8192;0.6426592;-0.6653421;0.1592798;0.3448753;1;0;-2;924;4053;-439;32768;0.6246537;-0.672734;0.2520775;0.3060942;0;0;2;-181;4131;358;256;0.6288089;0.001385042;-0.777281;0.02077562;6;0;0;67;-192;4123;128;-0.601108;0.1094183;0.7794315;0.1385041;-5;-2;-1;-23;1455;-3976;4;0.3185596;0.3628809;-0.5650969;-0.6689565;0;5;-1;-3419;2318;-650;16;0.1855956;-0.7099524;-0.03047091;0.6786703;-3;9;2;-1309;1088;3820;2;0.5457063;-0.7060398;-0.3379501;0.299169;1;1;0;3421;2436;-737;8;-0.04432133;-0.6703601;0.2216066;0.7067839;-1;8;3;1443;1227;3605;0.6500767;1.755352;1.773237;0.6506482;1.8074;1.230179;0.6511284;1.851136;0.7526383;0.6504725;1.823302;0.01936662;0.39066;1.778928;-0.3050961;0.05106164;1.85537;-0.1673694;-0.02807759;0.9471011;-0.002708532;0;0;0;0.9108593;1.766666;-0.305099;1.201311;1.828257;-0.1673741;1.311457;0.8992019;0.06283975;1.300835;-0.04335213;0.159102;0.3381902;1.746813;1.817802;0.7372237;0.9788663;2.997586;0.9974397;0.6796863;4.284095;0.3381902;1.746813;1.817802;0.7372237;0.9788663;2.997586;0.9974397;0.6796863;4.284095
399301.7044;NotLabelled;NONE;16384;-0.1925208;0.3268698;-0.6735675;-0.634349;0;3;-1;-692;4004;45;65536;0.300554;-0.2977839;0.6315789;0.6496923;3;1;2;-105;4090;81;8192;0.6426592;-0.6653421;0.1592798;0.3448753;2;0;-2;932;4021;-499;32768;0.6246537;-0.672734;0.2520775;0.3060942;0;2;2;-145;4107;294;256;0.6288089;0;-0.7773181;0.01939058;7;0;1;171;2;4007;128;-0.601108;0.1094183;0.779184;0.1398892;-2;4;-1;-107;1551;-3836;4;0.3171745;0.3642659;-0.5650969;-0.6688618;-1;4;-2;-3427;2300;-604;16;0.1869806;-0.7107868;-0.033241;0.6772853;-2;5;1;-1185;1034;3844;2;0.5457063;-0.7066251;-0.3379501;0.2977839;0;5;0;3379;2462;-833;8;-0.04432133;-0.6703601;0.2216066;0.7067839;0;0;2;1515;1147;3767;0.6535302;1.749867;1.773923;0.6541116;1.802849;1.230955;0.6546006;1.847406;0.7534899;0.6540017;1.822429;0.02011561;0.3942012;1.779426;-0.3045418;0.05462142;1.855472;-0.1665496;-0.02451574;0.947202;-0.001888359;0;0;0;0.9143955;1.76695;-0.3045446;1.20486;1.827886;-0.1665543;1.315008;0.8988295;0.06365764;1.304389;-0.0437243;0.1599193;0.3416428;1.741251;1.818467;0.7406926;0.9733038;2.998245;1.002283;0.6742141;4.284497;0.3416428;1.741251;1.818467;0.7406926;0.9733038;2.998245;1.002283;0.6742141;4.284497
399321.7142;NotLabelled;NONE;16384;-0.1925208;0.3268698;-0.6735675;-0.634349;-1;3;-1;-636;4090;77;65536;0.300554;-0.2977839;0.6315789;0.6496923;2;2;2;-117;4088;23;8192;0.6426592;-0.6660582;0.1592798;0.3434903;2;3;-2;932;3987;-475;32768;0.6246537;-0.6733624;0.2520775;0.3047091;0;1;3;-169;4107;342;256;0.6288089;0;-0.7773514;0.01800554;6;0;2;145;42;3949;128;-0.601108;0.1094183;0.7789341;0.1412742;-2;5;-1;-95;1581;-3860;4;0.3171745;0.3642659;-0.5650969;-0.6688618;0;6;-3;-3417;2340;-552;16;0.1869806;-0.7107868;-0.033241;0.6772853;-2;7;1;-1247;996;3810;2;0.5457063;-0.7066251;-0.3379501;0.2977839;0;5;0;3401;2392;-767;8;-0.04432133;-0.6703601;0.2216066;0.7067839;0;0;0;1441;1103;3647;0.6534127;1.743763;1.773718;0.6540073;1.797955;1.23087;0.6545079;1.843576;0.7535053;0.6539681;1.821455;0.02003914;0.3941807;1.779824;-0.3048073;0.05461915;1.855471;-0.1665515;-0.02451546;0.9472022;-0.001888381;0;0;0;0.9143697;1.767134;-0.3048103;1.204846;1.827413;-0.1665567;1.314998;0.8983567;0.06365407;1.304379;-0.04419708;0.1599169;0.3415243;1.735048;1.818236;0.7377667;0.9670727;2.998941;0.9958593;0.6698537;4.286332;0.3415243;1.735048;1.818236;0.7377667;0.9670727;2.998941;0.9958593;0.6698537;4.286332
399341.9201;NotLabelled;NONE;16384;-0.1939058;0.3268698;-0.6744726;-0.632964;-2;4;-2;-774;4044;123;65536;0.300554;-0.2977839;0.6315789;0.6496923;0;3;3;-53;4190;41;8192;0.6426592;-0.6667706;0.1592798;0.3421052;2;2;-1;888;3919;-445;32768;0.6246537;-0.6733624;0.2520775;0.3047091;0;0;3;-141;4141;350;256;0.6288089;0;-0.7773823;0.0166205;7;0;2;105;-32;3975;128;-0.601108;0.1094183;0.7789341;0.1412742;-2;2;-1;-9;1489;-3816;4;0.3157895;0.365651;-0.5650969;-0.6687614;0;7;-3;-3551;2292;-550;16;0.1883656;-0.7116728;-0.03462604;0.6759003;-1;12;2;-1161;980;3810;2;0.5457063;-0.7065436;-0.3393352;0.2963989;0;5;0;3295;2446;-763;8;-0.04432133;-0.6703601;0.2216066;0.7067839;0;0;0;1431;1021;3639;0.6533517;1.740185;1.771495;0.6539593;1.795585;1.228769;0.6544715;1.84227;0.7515071;0.6540253;1.821729;0.01799482;0.394335;1.780345;-0.3069608;0.05463198;1.855103;-0.168569;-0.02451536;0.9472022;-0.001889374;0;0;0;0.9145455;1.768562;-0.3069505;1.204906;1.829047;-0.1685443;1.312964;0.9000404;0.06285465;1.300482;-0.0425961;0.1580808;0.3414619;1.73137;1.815985;0.737663;0.9633954;2.996705;0.9957103;0.6661768;4.284105;0.3414619;1.73137;1.815985;0.737663;0.9633954;2.996705;0.9957103;0.6661768;4.284105
399362.9139;NotLabelled;NONE;16384;-0.1939058;0.3282548;-0.6737996;-0.632964;0;0;-1;-746;3944;-131;65536;0.299169;-0.299169;0.632964;0.6483459;1;0;4;-99;4134;93;8192;0.6426592;-0.6667706;0.1592798;0.3421052;2;1;0;844;3993;-499;32768;0.6246537;-0.6734679;0.2534626;0.3033241;-1;0;3;-173;4093;360;256;0.6288089;0;-0.7773823;0.0166205;7;0;2;83;-2;3905;128;-0.599723;0.1094183;0.7797489;0.1426593;-1;1;-2;29;1451;-3744;4;0.3157895;0.367036;-0.5650969;-0.6680023;-1;3;-4;-3507;2214;-592;16;0.1883656;-0.7116041;-0.03601108;0.6759003;-2;7;2;-1031;872;3824;2;0.5457063;-0.7065436;-0.3393352;0.2963989;0;4;0;3223;2348;-643;8;-0.04432133;-0.6703601;0.2216066;0.7067839;0;0;1;1455;1083;3673;0.6561674;1.739791;1.775854;0.6567752;1.795192;1.233128;0.6572874;1.841876;0.7558667;0.6568906;1.822914;0.02231175;0.397279;1.781779;-0.3027383;0.05744349;1.855645;-0.1641935;-0.02451561;0.9472022;-0.00188864;0;0;0;0.9175091;1.770901;-0.3027415;1.207761;1.831594;-0.1641988;1.313756;0.9016154;0.0642283;1.301275;-0.04102159;0.1594545;0.3442779;1.730976;1.820345;0.737673;0.9629707;3.001982;0.9921335;0.6650486;4.289934;0.3442779;1.730976;1.820345;0.737673;0.9629707;3.001982;0.9921335;0.6650486;4.289934
399382.7201;NotLabelled;NONE;16384;-0.1939058;0.3282548;-0.6737996;-0.632964;2;2;0;-766;4014;-35;65536;0.299169;-0.299169;0.632964;0.6483459;1;1;3;9;4086;-1;8192;0.6426592;-0.6667706;0.1592798;0.3421052;2;0;0;846;3977;-551;32768;0.6246537;-0.6734679;0.2534626;0.3033241;-1;1;2;-173;4085;330;256;0.6288089;-0.001385042;-0.7774094;0.01523546;9;0;2;63;20;3885;128;-0.599723;0.1094183;0.7797489;0.1426593;-1;2;-1;97;1409;-3706;4;0.3157895;0.367036;-0.5637119;-0.6691715;-1;2;-4;-3403;2120;-580;16;0.1883656;-0.7116041;-0.03601108;0.6759003;-2;4;2;-1131;836;3810;2;0.5470914;-0.7048038;-0.3407202;0.2963989;0;5;1;3343;2304;-603;8;-0.04432133;-0.6703601;0.2216066;0.7067839;0;2;0;1481;1051;3729;0.6601474;1.737317;1.771;0.6607686;1.793928;1.228399;0.6612924;1.841677;0.7512426;0.6608957;1.822715;0.01768762;0.4012841;1.781579;-0.3073624;0.06144862;1.855446;-0.1688173;-0.02011748;0.9472963;-0.004684957;0;0;0;0.9215142;1.770702;-0.3073653;1.211766;1.831395;-0.1688229;1.317766;0.9014162;0.0596019;1.303024;-0.04147983;0.1518897;0.3482569;1.728404;1.815463;0.7391449;0.9629329;2.999575;0.9937263;0.6675662;4.288092;0.3482569;1.728404;1.815463;0.7391449;0.9629329;2.999575;0.9937263;0.6675662;4.288092
399403.2657;NotLabelled;NONE;16384;-0.1939058;0.3282548;-0.6737996;-0.632964;0;3;0;-836;3988;1;65536;0.299169;-0.299169;0.632964;0.6483459;0;0;2;47;4128;19;8192;0.6412742;-0.6681028;0.1592798;0.3421052;1;0;-1;924;4019;-469;32768;0.6246537;-0.6734679;0.2534626;0.3033241;-1;0;2;-181;4093;312;256;0.6274238;-0.004155125;-0.7785671;0.01246537;12;0;1;107;-152;4029;128;-0.599723;0.1094183;0.7794942;0.1440443;-5;2;-1;-29;1259;-3794;4;0.3157895;0.367036;-0.5637119;-0.6691715;0;-1;-5;-3289;2298;-574;16;0.1883656;-0.7129171;-0.03601108;0.6745152;-3;6;3;-1155;940;3762;2;0.5470914;-0.7053847;-0.3407202;0.2950138;-1;7;3;3241;2276;-679;8;-0.04293629;-0.6717451;0.2202216;0.7059869;0;1;0;1469;1021;3645;0.6600691;1.733486;1.77099;0.6606902;1.790097;1.228388;0.6612141;1.837846;0.7512322;0.6608706;1.821741;0.01760906;0.401269;1.781979;-0.3076199;0.0614525;1.855445;-0.1688158;-0.02011734;0.9472954;-0.004685508;0;0;0;0.9214947;1.770888;-0.3076228;1.21176;1.830921;-0.1688211;1.317755;0.9009418;0.05960596;1.303012;-0.04195428;0.1518942;0.3481785;1.724572;1.815453;0.7435328;0.9598804;2.998585;0.9981115;0.6645133;4.287101;0.3481785;1.724572;1.815453;0.7435328;0.9598804;2.998585;0.9981115;0.6645133;4.287101
399424.7033;NotLabelled;NONE;16384;-0.1939058;0.3282548;-0.6737996;-0.632964;0;0;-1;-936;4072;1;65536;0.299169;-0.300554;0.632964;0.6477051;0;0;2;-43;4102;53;8192;0.6412742;-0.6691386;0.1578947;0.3407202;1;5;-1;1124;3907;-611;32768;0.6246537;-0.67409;0.2534626;0.301939;-1;2;4;-199;4079;430;256;0.6274238;-0.004155125;-0.7785881;0.01108033;13;0;2;123;-180;3931;128;-0.5983379;0.1094183;0.7805579;0.1440443;-6;2;-2;-69;1361;-3764;4;0.3171745;0.368421;-0.5637119;-0.6677538;-2;1;-5;-3193;2082;-580;16;0.1883656;-0.7128458;-0.03739612;0.6745152;-4;0;1;-1181;806;3628;2;0.5470914;-0.7040399;-0.3434903;0.2950138;-1;2;5;3037;2312;-545;8;-0.04293629;-0.6717451;0.2188366;0.7064174;-2;8;1;1499;1001;3441;0.6592751;1.7236;1.770474;0.6599095;1.781422;1.228;0.6604452;1.830236;0.7509516;0.6602151;1.819819;0.01722568;0.4006379;1.782786;-0.3083447;0.06085621;1.855446;-0.1690317;-0.02013353;0.9472964;-0.004614592;0;0;0;0.9208546;1.77128;-0.3083474;1.211144;1.830003;-0.1690367;1.314875;0.9001696;0.06101501;1.300458;-0.04272652;0.1533543;0.3473833;1.714586;1.814909;0.7469145;0.9498949;2.996637;1.001065;0.6537278;4.285054;0.3473833;1.714586;1.814909;0.7469145;0.9498949;2.996637;1.001065;0.6537278;4.285054
399445.8068;NotLabelled;NONE;16384;-0.1939058;0.3296399;-0.6731231;-0.632964;1;0;-1;-838;3980;-47;65536;0.299169;-0.300554;0.632964;0.6477051;1;0;2;-27;4108;83;8192;0.6426592;-0.6688389;0.1565097;0.3393352;1;7;0;960;3965;-635;32768;0.6246537;-0.67409;0.2534626;0.301939;1;3;4;-165;4105;370;256;0.6274238;-0.005540166;-0.7785979;0.009695291;14;0;3;95;-34;3927;128;-0.5983379;0.1094183;0.780301;0.1454294;-4;3;-2;-75;1347;-3752;4;0.3171745;0.3698061;-0.5637119;-0.6669878;-1;1;-4;-3209;2020;-530;16;0.1883656;-0.7128458;-0.03739612;0.6745152;-4;0;1;-1333;892;3594;2;0.5470914;-0.703458;-0.3434903;0.2963989;0;2;6;3101;2206;-701;8;-0.04155125;-0.6717451;0.2188366;0.7065002;-3;5;1;1507;1009;3427;0.6605343;1.722671;1.768802;0.6611688;1.780495;1.226329;0.6617043;1.829311;0.7492806;0.6615243;1.820476;0.01553386;0.402026;1.783694;-0.3101277;0.06211241;1.855463;-0.1706751;-0.0188796;0.9473131;-0.006255426;0;0;0;0.9222619;1.773092;-0.3101311;1.212443;1.832019;-0.17068;1.314503;0.9022436;0.06035233;1.298233;-0.0407238;0.1516504;0.3486426;1.713657;1.813238;0.74599;0.9540775;2.998992;1.000252;0.6604614;4.287971;0.3486426;1.713657;1.813238;0.74599;0.9540775;2.998992;1.000252;0.6604614;4.287971
399466.705;NotLabelled;NONE;16384;-0.1925208;0.3296399;-0.6735205;-0.632964;0;0;0;-840;3982;-67;65536;0.299169;-0.300554;0.634349;0.6463487;1;-1;1;-43;4038;-11;8192;0.6426592;-0.6688389;0.1565097;0.3393352;2;5;0;872;4005;-533;32768;0.6246537;-0.6747087;0.2534626;0.300554;0;1;3;-73;4091;262;256;0.6274238;-0.006925208;-0.7786164;0.006925208;16;0;3;175;-56;3915;128;-0.5983379;0.1094183;0.780301;0.1454294;-4;4;-2;-5;1403;-3806;4;0.3171745;0.3698061;-0.5637119;-0.6669878;0;-1;-4;-3267;2100;-500;16;0.1883656;-0.7127718;-0.03878116;0.6745152;-6;3;0;-1385;850;3612;2;0.5470914;-0.703458;-0.3434903;0.2963989;0;4;4;3077;2174;-747;8;-0.04293629;-0.6731302;0.2174515;0.7055261;-4;1;2;1529;961;3527;0.660027;1.716261;1.766677;0.6606749;1.775297;1.224334;0.6612222;1.82518;0.7473965;0.6610981;1.819202;0.01362085;0.4016109;1.783799;-0.3122026;0.06171608;1.855166;-0.172498;-0.01887953;0.9473128;-0.006255651;0;0;0;0.9218423;1.772978;-0.3122054;1.212036;1.83124;-0.1725026;1.315511;0.9013674;0.05750692;1.299238;-0.04160047;0.1488047;0.3481343;1.707148;1.811085;0.7429265;0.9501176;2.99932;0.9971561;0.656502;4.288306;0.3481343;1.707148;1.811085;0.7429265;0.9501176;2.99932;0.9971561;0.656502;4.288306
399487.7339;NotLabelled;NONE;16384;-0.1925208;0.3296399;-0.6735205;-0.632964;0;0;0;-864;4016;63;65536;0.2977839;-0.300554;0.634349;0.6469879;0;0;1;-1;4062;-81;8192;0.6426592;-0.669862;0.1551246;0.3379501;0;3;-1;824;4063;-467;32768;0.6232687;-0.6759883;0.2534626;0.300554;-1;1;3;-189;4103;270;256;0.6274238;-0.009695291;-0.7785979;0.005540166;19;1;2;55;-6;3907;128;-0.5983379;0.1094183;0.7800416;0.1468144;-7;4;-1;-1;1413;-3808;4;0.3171745;0.3698061;-0.5637119;-0.6669878;0;3;-5;-3197;2220;-706;16;0.1883656;-0.7140034;-0.0401662;0.6731302;-6;2;0;-1291;912;3654;2;0.5470914;-0.70278;-0.3448753;0.2963989;0;4;2;3113;2208;-633;8;-0.04293629;-0.6731302;0.2174515;0.7055261;-6;2;2;1419;1055;3647;0.6641796;1.711174;1.765614;0.6648277;1.770211;1.223271;0.6653754;1.820093;0.7463335;0.6653458;1.818556;0.0125351;0.4059441;1.784783;-0.3135292;0.06593886;1.854855;-0.1734382;-0.0152979;0.947382;-0.005441939;0;0;0;0.9261893;1.774648;-0.3135321;1.21629;1.832447;-0.1734427;1.319749;0.9025741;0.05657363;1.301626;-0.04046059;0.1468219;0.3522868;1.702062;1.810022;0.7470297;0.9450312;2.998273;1.001326;0.6539683;4.287826;0.3522868;1.702062;1.810022;0.7470297;0.9450312;2.998273;1.001326;0.6539683;4.287826
399508.8673;NotLabelled;NONE;16384;-0.1925208;0.3296399;-0.6748195;-0.6315789;-3;-3;0;-870;4008;197;65536;0.2977839;-0.300554;0.634349;0.6469879;-1;2;1;5;4164;-17;8192;0.6426592;-0.669862;0.1551246;0.3379501;0;4;-2;858;3997;-425;32768;0.6232687;-0.6754674;0.2548476;0.300554;-1;0;3;-107;4163;390;256;0.6260388;-0.01108033;-0.7797083;0.002770083;19;-1;1;123;-24;4029;128;-0.5969529;0.1108033;0.7806451;0.1481994;-10;0;-1;31;1371;-3888;4;0.3171745;0.3711911;-0.5637119;-0.666218;0;2;-6;-3279;2200;-622;16;0.1869806;-0.7143673;-0.0401662;0.6731302;-7;-2;-2;-1279;934;3716;2;0.5470914;-0.70278;-0.3448753;0.2963989;-1;4;3;3111;2228;-559;8;-0.04293629;-0.6731302;0.2160665;0.7059515;-6;10;3;1377;1113;3585;0.6635284;1.701772;1.761239;0.6641896;1.762021;1.219029;0.6647486;1.81297;0.7422045;0.6648237;1.815567;0.008408964;0.4053842;1.784299;-0.317875;0.06553983;1.854457;-0.1774367;-0.01572877;0.9473624;-0.007426351;0;0;0;0.9256015;1.772825;-0.3178653;1.215829;1.829086;-0.1774138;1.31759;0.8997879;0.0556618;1.296553;-0.04298699;0.1479664;0.3516346;1.69256;1.805618;0.7462512;0.935529;2.993911;0.9955588;0.6462073;4.284828;0.3516346;1.69256;1.805618;0.7462512;0.935529;2.993911;0.9955588;0.6462073;4.284828
399528.7147;NotLabelled;NONE;16384;-0.1925208;0.3282548;-0.6754943;-0.6315789;-2;-6;0;-794;4150;-1;65536;0.2977839;-0.300554;0.634349;0.6469879;0;0;1;-3;4138;165;8192;0.6426592;-0.671571;0.1537396;0.33518;0;5;-1;802;4103;-593;32768;0.6232687;-0.6766024;0.2534626;0.299169;0;4;0;-63;4111;366;256;0.6260388;-0.01523546;-0.7796431;0;21;-3;0;157;106;3957;128;-0.5969529;0.1121884;0.780183;0.1495845;-6;1;-1;1;1541;-3686;4;0.3185596;0.3725762;-0.5623268;-0.6659544;0;-1;-6;-3533;2044;-656;16;0.1855956;-0.7133421;-0.04155125;0.6745152;-7;-2;-3;-1393;800;3670;2;0.5470914;-0.7014138;-0.3476454;0.2963989;1;6;5;3193;2366;-729;8;-0.04293629;-0.6745152;0.2132964;0.7054718;-7;5;4;1629;969;3621;0.666267;1.693162;1.762961;0.6669517;1.755557;1.220994;0.6675311;1.808391;0.7443741;0.6676762;1.815402;0.01060772;0.4083101;1.785759;-0.3158861;0.06836068;1.854628;-0.1750655;-0.01575467;0.9473616;-0.007370671;0;0;0;0.928542;1.774963;-0.3158899;1.218682;1.830755;-0.1750711;1.321274;0.9009379;0.05555797;1.300145;-0.0420109;0.146049;0.3543712;1.683775;1.80729;0.7506334;0.9292997;2.99666;1.003221;0.6424571;4.287493;0.3543712;1.683775;1.80729;0.7506334;0.9292997;2.99666;1.003221;0.6424571;4.287493
399569.7206;NotLabelled;NONE;16384;-0.1925208;0.3268698;-0.6761656;-0.6315789;0;-6;0;-672;3988;-223;65536;0.2977839;-0.300554;0.634349;0.6469879;0;-3;3;-45;4132;149;8192;0.6426592;-0.671571;0.1537396;0.33518;1;4;-4;714;3981;-625;32768;0.6232687;-0.6766024;0.2534626;0.299169;0;3;-2;-103;4097;296;256;0.6260388;-0.01800554;-0.7795791;-0.002770083;27;-1;1;89;202;3833;128;-0.5955678;0.1121884;0.7809743;0.1509695;-4;2;-2;69;1559;-3632;4;0.3185596;0.3725762;-0.5623268;-0.6659544;0;0;-6;-3535;2198;-662;16;0.1842105;-0.7136191;-0.04293629;0.6745152;-7;0;-4;-1263;946;3738;2;0.5470914;-0.7007256;-0.3490305;0.2963989;0;4;5;3305;2228;-629;8;-0.04432133;-0.6745152;0.2119114;0.7058034;-8;0;4;1537;1099;3635;0.6663092;1.678878;1.763967;0.6670173;1.743413;1.222251;0.6676177;1.79813;0.7458435;0.6679503;1.812129;0.01217729;0.4085704;1.786377;-0.3146359;0.06879777;1.854925;-0.1732329;-0.01575323;0.9473618;-0.007374441;0;0;0;0.9287674;1.774015;-0.3146388;1.219042;1.82759;-0.1732379;1.317892;0.8973798;0.0574404;1.295316;-0.04545534;0.1487615;0.3544114;1.669316;1.808245;0.7526716;0.92077;3.000691;1.008828;0.639769;4.292104;0.3544114;1.669316;1.808245;0.7526716;0.92077;3.000691;1.008828;0.639769;4.292104
399589.8931;NotLabelled;NONE;16384;-0.1911357;0.3268698;-0.6752628;-0.632964;-1;-2;3;-910;3978;169;65536;0.2963989;-0.301939;0.634349;0.646979;-2;0;3;53;4116;-79;8192;0.6426592;-0.6722605;0.1537396;0.333795;0;2;-5;824;3951;-579;32768;0.6246537;-0.6753239;0.2534626;0.299169;0;1;-1;-119;4035;414;256;0.6260388;-0.02077562;-0.7794843;-0.006925208;30;-2;0;161;170;3831;128;-0.5955678;0.1135734;0.7805051;0.1523546;-9;0;-3;45;1531;-3836;4;0.3199446;0.3725762;-0.5623268;-0.6652901;1;-4;-5;-3431;2304;-598;16;0.1842105;-0.7136191;-0.04293629;0.6745152;-6;-4;-4;-1213;998;3922;2;0.5470914;-0.7001382;-0.3490305;0.2977839;1;3;6;3221;2340;-725;8;-0.04432133;-0.6759003;0.2105263;0.7048922;-8;0;4;1497;1025;3753;0.6664875;1.669215;1.765164;0.6672089;1.734967;1.223594;0.6678209;1.790756;0.7473113;0.6683059;1.810468;0.0137766;0.408967;1.787484;-0.3132749;0.06922537;1.855218;-0.1714057;-0.01575181;0.9473617;-0.007377233;0;0;0;0.9291531;1.774681;-0.3132782;1.219446;1.826906;-0.1714108;1.31826;0.8966961;0.05928254;1.295667;-0.04613948;0.1505997;0.3545888;1.659553;1.809413;0.7526296;0.9110074;3.001931;1.007425;0.6350448;4.2947;0.3545888;1.659553;1.809413;0.7526296;0.9110074;3.001931;1.007425;0.6350448;4.2947
399610.7071;NotLabelled;NONE;16384;-0.1911357;0.3254848;-0.6759315;-0.632964;-1;-6;3;-892;4018;81;65536;0.2963989;-0.301939;0.634349;0.646979;-1;0;1;85;4100;159;8192;0.6426592;-0.6729464;0.1537396;0.33241;-2;2;-3;1108;3789;-407;32768;0.6246537;-0.6753239;0.2534626;0.299169;0;1;3;-351;4073;304;256;0.6260388;-0.02493075;-0.779333;-0.009695291;30;-6;0;95;122;3995;128;-0.5955678;0.1149584;0.7803022;0.1523546;-11;-5;-2;43;1573;-3898;4;0.3199446;0.3725762;-0.5623268;-0.6652901;2;-3;-6;-3499;2268;-702;16;0.1828255;-0.7126641;-0.04293629;0.6759003;-7;-9;-3;-1265;988;3868;2;0.5457063;-0.7005271;-0.3504155;0.2977839;2;-3;6;3143;2460;-617;8;-0.04570637;-0.6759003;0.2105263;0.7048038;-8;1;3;1427;1199;3679;0.6643156;1.6564;1.758196;0.6650605;1.724292;1.21689;0.6656933;1.781963;0.7408317;0.6663342;1.808974;0.007529318;0.407093;1.789014;-0.3197984;0.06725788;1.855032;-0.1773451;-0.01492894;0.9473404;-0.01100068;0;0;0;0.9272905;1.776673;-0.3198015;1.217504;1.827741;-0.1773499;1.314217;0.8970855;0.05243325;1.294503;-0.0460124;0.1416829;0.3524148;1.646563;1.802393;0.750522;0.9006206;2.99652;1.005027;0.6246578;4.289346;0.3524148;1.646563;1.802393;0.750522;0.9006206;2.99652;1.005027;0.6246578;4.289346
399632.091;NotLabelled;NONE;16384;-0.1911357;0.3240997;-0.6765967;-0.632964;1;-8;1;-902;4028;-239;65536;0.2950138;-0.301939;0.634349;0.6476117;0;-3;0;17;4124;111;8192;0.6440443;-0.671621;0.1537396;0.33241;0;4;1;1206;3889;-375;32768;0.6232687;-0.6766024;0.2534626;0.299169;0;-2;4;-97;4147;338;256;0.6260388;-0.02908587;-0.7791496;-0.01246537;28;-5;0;173;312;4035;128;-0.5955678;0.1163435;0.7798252;0.1537396;-7;0;0;-127;1587;-3772;4;0.3213296;0.3739612;-0.5623268;-0.6638439;1;-5;-6;-3631;2164;-576;16;0.1814404;-0.713018;-0.04293629;0.6759003;-7;-5;-3;-1279;852;3814;2;0.5457063;-0.6999368;-0.3504155;0.299169;1;-4;5;3303;2404;-587;8;-0.04570637;-0.6759003;0.2105263;0.7048038;-9;-3;2;1427;1161;3641;0.6643493;1.64413;1.757718;0.6651044;1.712948;1.21653;0.665746;1.771432;0.7405701;0.6666747;1.805427;0.007558525;0.4074669;1.789367;-0.3200101;0.06779134;1.855044;-0.1770202;-0.01492454;0.94734;-0.01100677;0;0;0;0.9276251;1.775463;-0.3199993;1.21795;1.8243;-0.1769937;1.312449;0.893595;0.05351245;1.292699;-0.04950285;0.1427534;0.3524477;1.634218;1.801892;0.7500781;0.8882749;2.996179;1.007813;0.6156037;4.289064;0.3524477;1.634218;1.801892;0.7500781;0.8882749;2.996179;1.007813;0.6156037;4.289064
399653.7113;NotLabelled;NONE;16384;-0.1897507;0.3240997;-0.6769865;-0.632964;0;0;0;-854;4036;119;65536;0.2963989;-0.301939;0.634349;0.646979;-1;2;0;73;4174;27;8192;0.6454294;-0.6719722;0.1523546;0.3296399;-1;0;-2;608;4027;-525;32768;0.6232687;-0.676082;0.2548476;0.299169;-2;0;-2;-43;4057;432;256;0.6260388;-0.03878116;-0.7785116;-0.02216066;25;-3;0;241;442;4271;128;-0.5941828;0.1163435;0.7800515;0.1578947;-8;0;0;43;1735;-4148;4;0.3227147;0.3739612;-0.5623268;-0.6631717;1;0;-4;-3537;2290;-708;16;0.1786704;-0.7123181;-0.04432133;0.6772853;-6;-3;-3;-1161;892;3814;2;0.5443213;-0.7004217;-0.3504155;0.300554;0;0;2;3577;2422;-643;8;-0.04986149;-0.6759003;0.2091413;0.7049344;-8;-4;1;1473;1029;3727;0.6637775;1.630114;1.757884;0.6645561;1.701072;1.216971;0.6652184;1.761438;0.7412466;0.666436;1.802415;0.008592665;0.407265;1.790256;-0.3191731;0.06775132;1.855586;-0.1756403;-0.015355;0.9473082;-0.0129925;0;0;0;0.9273791;1.774792;-0.3191768;1.217812;1.821393;-0.1756465;1.315405;0.8901328;0.05129969;1.292718;-0.05270255;0.1425933;0.3518741;1.620027;1.802004;0.7467836;0.8792769;3.000418;1.00276;0.6090907;4.294173;0.3518741;1.620027;1.802004;0.7467836;0.8792769;3.000418;1.00276;0.6090907;4.294173
399695.7129;NotLabelled;NONE;16384;-0.1883656;0.3213296;-0.6786916;-0.632964;0;-3;0;-724;4098;-9;65536;0.2963989;-0.301939;0.632964;0.6483341;-3;2;-1;-17;4146;123;8192;0.6454294;-0.6719722;0.1523546;0.3296399;2;0;0;992;4025;-309;32768;0.6218836;-0.6778756;0.2534626;0.299169;-6;-1;-3;-53;4217;258;256;0.6246537;-0.04709141;-0.7789884;-0.02770083;13;-1;-1;169;708;4277;128;-0.5941828;0.1177285;0.7795619;0.1592798;-3;-1;0;61;1769;-4136;4;0.3240997;0.3739612;-0.5623268;-0.662496;1;-1;-2;-3743;2282;-640;16;0.1772853;-0.7113453;-0.04432133;0.6786703;-5;2;-2;-1255;920;3928;2;0.5443213;-0.7005176;-0.3490305;0.301939;0;-3;1;3583;2348;-771;8;-0.05124654;-0.6759003;0.2077562;0.7052446;-7;0;0;1553;1039;3755;0.6638986;1.596179;1.754855;0.6647173;1.670784;1.214434;0.6654149;1.734358;0.7391278;0.667405;1.795309;0.007866323;0.4084921;1.792858;-0.3203194;0.06904202;1.855242;-0.1753331;-0.01490552;0.9473398;-0.01103197;0;0;0;0.9285588;1.775875;-0.3203227;1.218998;1.817691;-0.1753384;1.315723;0.88589;0.0497551;1.292502;-0.05711555;0.1391318;0.351992;1.585795;1.798884;0.7456382;0.8476663;2.999329;1.002571;0.5858202;4.294608;0.351992;1.585795;1.798884;0.7456382;0.8476663;2.999329;1.002571;0.5858202;4.294608
399717.9503;NotLabelled;NONE;16384;-0.1883656;0.3213296;-0.6786916;-0.632964;0;0;-1;-824;4046;-89;65536;0.2963989;-0.301939;0.632964;0.6483341;-2;2;-1;21;4182;203;8192;0.6454294;-0.6726498;0.1523546;0.3282548;0;2;-3;1106;4217;-175;32768;0.6218836;-0.6772627;0.2534626;0.300554;-5;5;-4;-177;4185;348;256;0.6246537;-0.04847645;-0.7788529;-0.02908587;9;-1;0;141;638;4175;128;-0.5941828;0.1191136;0.7793515;0.1592798;-6;1;1;-49;1783;-4022;4;0.3240997;0.3739612;-0.5609418;-0.6636691;1;1;-2;-3701;2188;-562;16;0.1772853;-0.7112576;-0.04570637;0.6786703;-4;0;-3;-1203;786;3836;2;0.5443213;-0.7005176;-0.3490305;0.301939;0;-1;1;3661;2398;-601;8;-0.05263158;-0.6759003;0.2077562;0.7051426;-5;-2;0;1583;979;3789;0.6594451;1.570608;1.749413;0.6602871;1.647352;1.209291;0.6610051;1.712806;0.7342402;0.6639884;1.787645;0.004272342;0.4053438;1.793028;-0.3240898;0.0661589;1.854723;-0.1781909;-0.01851021;0.9472672;-0.0118034;0;0;0;0.9252967;1.772858;-0.3240356;1.215864;1.810125;-0.1780694;1.313516;0.8792218;0.05031168;1.287999;-0.06333792;0.1436788;0.3475366;1.56005;1.793387;0.7439443;0.8245491;2.994536;1.007295;0.5659889;4.289187;0.3475366;1.56005;1.793387;0.7439443;0.8245491;2.994536;1.007295;0.5659889;4.289187
399738.8284;NotLabelled;NONE;16384;-0.1869806;0.3213296;-0.6790745;-0.632964;0;0;-1;-742;3992;-85;65536;0.2963989;-0.301939;0.632964;0.6483341;-2;1;0;-55;4112;57;8192;0.6468144;-0.6723061;0.1509695;0.3268698;-2;16;-4;898;4159;-551;32768;0.6218836;-0.6782929;0.2506925;0.300554;-3;7;-6;-51;4079;584;256;0.6246537;-0.04986149;-0.7787125;-0.03047091;8;0;0;199;508;4163;128;-0.5941828;0.1191136;0.7790671;0.1606648;-3;4;1;-25;1689;-4116;4;0.3240997;0.3739612;-0.5609418;-0.6636691;0;1;0;-3795;2160;-664;16;0.1759003;-0.7116014;-0.04570637;0.6786703;-4;2;-2;-1289;740;3984;2;0.5443213;-0.7005176;-0.3490305;0.301939;0;0;0;3711;2362;-687;8;-0.05401662;-0.6759003;0.2077562;0.7050378;-4;-5;0;1601;905;3849;0.6596912;1.565717;1.752406;0.6605433;1.643383;1.212416;0.6612704;1.70965;0.737478;0.6643161;1.787336;0.007808149;0.4056878;1.794107;-0.3205413;0.06652228;1.855373;-0.174417;-0.01850852;0.9472669;-0.01180615;0;0;0;0.9256324;1.773722;-0.3205445;1.216208;1.810298;-0.1744215;1.311348;0.8780597;0.04952824;1.287661;-0.06444311;0.1439494;0.3477817;1.555083;1.796356;0.7484397;0.8203422;2.996559;1.011694;0.5643545;4.291741;0.3477817;1.555083;1.796356;0.7484397;0.8203422;2.996559;1.011694;0.5643545;4.291741
399780.0555;NotLabelled;NONE;16384;-0.1869806;0.3213296;-0.6790745;-0.632964;2;0;0;-722;4010;-151;65536;0.2963989;-0.3033241;0.632964;0.6476873;-1;0;0;-27;4184;205;8192;0.6454294;-0.6752813;0.1495845;0.3240997;4;-5;1;752;3831;-761;32768;0.6218836;-0.6788032;0.2493075;0.300554;0;-1;-1;-197;4083;378;256;0.6246537;-0.04986149;-0.778657;-0.03185596;3;-2;0;133;444;4041;128;-0.5941828;0.1191136;0.7790671;0.1606648;0;-2;0;135;1679;-3962;4;0.3240997;0.3739612;-0.5609418;-0.6636691;1;0;-1;-3933;2144;-558;16;0.1759003;-0.7115111;-0.04709141;0.6786703;0;4;0;-1181;658;4038;2;0.5443213;-0.6998258;-0.3504155;0.301939;-1;0;0;3753;2206;-695;8;-0.05540166;-0.6759003;0.2077562;0.7049304;-1;0;-1;1595;875;3823;0.6601153;1.559254;1.749839;0.6609809;1.638135;1.210026;0.6617197;1.705469;0.7352376;0.6649097;1.786003;0.005877137;0.4063349;1.794162;-0.3224828;0.06717224;1.854997;-0.1761716;-0.01850531;0.9472669;-0.01181111;0;0;0;0.9262708;1.773562;-0.322486;1.216839;1.809447;-0.1761777;1.313403;0.8771116;0.0467571;1.290518;-0.06502688;0.1449336;0.3482048;1.548521;1.793757;0.7485331;0.8137802;2.99407;1.010243;0.5602823;4.290054;0.3482048;1.548521;1.793757;0.7485331;0.8137802;2.99407;1.010243;0.5602823;4.290054
399800.8897;NotLabelled;NONE;16384;-0.1869806;0.3213296;-0.6777809;-0.634349;3;-3;0;-864;3984;-13;65536;0.2963989;-0.301939;0.632964;0.6483341;0;-3;0;63;4070;41;8192;0.6454294;-0.6746148;0.1495845;0.3254848;3;-9;7;1166;3975;-365;32768;0.6218836;-0.6776775;0.2506925;0.301939;0;-2;0;-129;4135;336;256;0.6246537;-0.05124654;-0.7785671;-0.03185596;3;-3;-1;173;420;3949;128;-0.5941828;0.1191136;0.7790671;0.1606648;2;-2;1;77;1583;-3894;4;0.3240997;0.3739612;-0.5609418;-0.6636691;0;1;-2;-3851;2102;-614;16;0.1759003;-0.7115111;-0.04709141;0.6786703;1;0;0;-1157;614;4040;2;0.5443213;-0.6998258;-0.3504155;0.301939;0;2;0;3681;2250;-659;8;-0.05540166;-0.6759003;0.2077562;0.7049304;1;0;0;1643;833;3813;0.6615682;1.558322;1.747926;0.6624336;1.637202;1.208113;0.6631724;1.704537;0.7333248;0.6662824;1.786651;0.004140198;0.4077207;1.795071;-0.3242236;0.06844091;1.855;-0.1778107;-0.01723911;0.9472698;-0.01345163;0;0;0;0.9276918;1.775373;-0.3242269;1.218185;1.811448;-0.1778163;1.308048;0.878889;0.04698241;1.285574;-0.06306195;0.1470363;0.3496574;1.547589;1.791845;0.7499676;0.812848;2.992164;1.011764;0.5619243;4.288631;0.3496574;1.547589;1.791845;0.7499676;0.812848;2.992164;1.011764;0.5619243;4.288631
399820.7068;NotLabelled;NONE;16384;-0.1869806;0.3213296;-0.6777809;-0.634349;2;0;0;-858;3976;111;65536;0.2963989;-0.3033241;0.632964;0.6476873;-2;2;0;51;4130;-49;8192;0.6454294;-0.6735775;0.1481994;0.3282548;0;-2;5;1258;4053;-233;32768;0.6218836;-0.6776775;0.2506925;0.301939;-4;-1;-1;-107;4129;284;256;0.6246537;-0.05124654;-0.7785671;-0.03185596;0;-2;-1;179;326;4089;128;-0.5941828;0.1177285;0.7792776;0.1606648;0;2;1;79;1521;-3896;4;0.3254848;0.3753462;-0.5609418;-0.6622078;1;0;-3;-3767;2104;-588;16;0.1759003;-0.7115111;-0.04709141;0.6786703;3;0;0;-1181;730;4030;2;0.5443213;-0.6998258;-0.3504155;0.301939;-1;3;1;3593;2154;-655;8;-0.05540166;-0.6759003;0.2077562;0.7049304;2;-2;-1;1599;819;3791;0.6565107;1.555672;1.748815;0.6573765;1.634552;1.209001;0.6581156;1.701887;0.7342131;0.6614529;1.785267;0.005173266;0.4029327;1.794814;-0.3231922;0.06377221;1.855218;-0.1766976;-0.01850192;0.9472669;-0.01181588;0;0;0;0.9228601;1.774;-0.3231958;1.213421;1.809194;-0.1767037;1.30522;0.8770674;0.04910171;1.284158;-0.06500387;0.1483272;0.3446002;1.544939;1.792733;0.7445883;0.8101982;2.993159;1.006036;0.5592743;4.289697;0.3446002;1.544939;1.792733;0.7445883;0.8101982;2.993159;1.006036;0.5592743;4.289697
399840.7083;NotLabelled;NONE;16384;-0.1855956;0.3213296;-0.6781614;-0.634349;-1;0;0;-914;4100;-123;65536;0.2963989;-0.3033241;0.6315789;0.649038;-2;3;0;-1;4086;135;8192;0.6454294;-0.6735775;0.1481994;0.3282548;-3;5;1;888;4167;-373;32768;0.6218836;-0.6776775;0.2506925;0.301939;-4;0;-5;-29;4203;416;256;0.6246537;-0.05124654;-0.7786226;-0.03047091;-2;0;0;135;300;4157;128;-0.5941828;0.1177285;0.7792776;0.1606648;-3;2;0;55;1539;-4076;4;0.3254848;0.3753462;-0.5609418;-0.6622078;0;-1;-1;-3591;2142;-534;16;0.1759003;-0.7115111;-0.04709141;0.6786703;2;0;0;-1247;680;3820;2;0.5443213;-0.6991305;-0.3518005;0.301939;0;4;1;3417;2206;-663;8;-0.05540166;-0.6759003;0.2077562;0.7049304;2;2;0;1477;879;3679;0.6578283;1.557688;1.74894;0.6586838;1.635646;1.208992;0.6594138;1.702169;0.73409;0.6627152;1.785548;0.005049944;0.4041789;1.795096;-0.3233033;0.06502566;1.8555;-0.1767917;-0.01723591;0.9472691;-0.0134551;0;0;0;0.9241064;1.774282;-0.3233321;1.214674;1.809476;-0.1768541;1.310907;0.8783361;0.05116343;1.28985;-0.06373537;0.1503897;0.3459188;1.547031;1.792882;0.7437199;0.8175231;2.997221;1.005232;0.5665992;4.293746;0.3459188;1.547031;1.792882;0.7437199;0.8175231;2.997221;1.005232;0.5665992;4.293746
399860.704;NotLabelled;NONE;16384;-0.1855956;0.3213296;-0.6781614;-0.634349;0;0;-1;-908;3930;-283;65536;0.2963989;-0.3033241;0.6315789;0.649038;0;2;-1;9;4190;219;8192;0.6468144;-0.6729221;0.1481994;0.3268698;-3;4;-2;534;4077;-737;32768;0.6204986;-0.6788386;0.2493075;0.3033241;-2;1;-7;-35;4019;504;256;0.6246537;-0.05124654;-0.7786226;-0.03047091;-2;0;0;205;376;4203;128;-0.5941828;0.1177285;0.7792776;0.1606648;-2;-1;0;11;1471;-4184;4;0.3254848;0.3753462;-0.5609418;-0.6622078;0;-1;0;-3549;2048;-672;16;0.1759003;-0.7116014;-0.04570637;0.6786703;3;-1;0;-1217;778;3786;2;0.5443213;-0.6991305;-0.3518005;0.301939;0;0;0;3399;2198;-695;8;-0.05401662;-0.6759003;0.2077562;0.7050378;2;5;-1;1545;817;3669;0.6546217;1.55788;1.745119;0.6554768;1.635839;1.205171;0.6562067;1.702362;0.7302685;0.6596237;1.784161;0.001050293;0.4010912;1.793449;-0.3273132;0.06204933;1.854758;-0.18092;-0.02081054;0.9471852;-0.01426216;0;0;0;0.9209816;1.771732;-0.3273164;1.211616;1.806737;-0.1809253;1.307835;0.8759876;0.04868925;1.286773;-0.06608331;0.1479149;0.3427118;1.547223;1.789061;0.7404718;0.8177153;2.993413;1.001939;0.5667917;4.289947;0.3427118;1.547223;1.789061;0.7404718;0.8177153;2.993413;1.001939;0.5667917;4.289947
399880.8516;NotLabelled;NONE;16384;-0.1855956;0.3227147;-0.6775034;-0.634349;3;3;-1;-862;3956;-261;65536;0.2963989;-0.3033241;0.6315789;0.649038;1;2;-1;-17;4116;143;8192;0.6454294;-0.6746148;0.1495845;0.3254848;2;-6;-4;1264;3941;-605;32768;0.6218836;-0.6774567;0.2479224;0.3047091;0;2;-3;-355;4053;424;256;0.6232687;-0.04986149;-0.7798743;-0.02908587;-5;0;0;133;332;4101;128;-0.5941828;0.1177285;0.7795619;0.1592798;4;1;0;23;1501;-3952;4;0.3268698;0.3753462;-0.5609418;-0.6615252;0;0;2;-3591;1910;-528;16;0.1772853;-0.7112576;-0.04570637;0.6786703;2;1;0;-1237;634;3710;2;0.5429363;-0.7002067;-0.3518005;0.301939;0;-4;-1;3401;2128;-773;8;-0.05401662;-0.6759003;0.2077562;0.7050378;1;1;0;1529;801;3585;0.6546217;1.55788;1.745119;0.6554768;1.635839;1.205171;0.6562067;1.702362;0.7302685;0.6596237;1.784161;0.001050293;0.4010912;1.793449;-0.3273132;0.06204933;1.854758;-0.18092;-0.02081054;0.9471852;-0.01426216;0;0;0;0.9209816;1.771732;-0.3273164;1.211616;1.806737;-0.1809253;1.308928;0.875388;0.04577899;1.28725;-0.06613111;0.1499858;0.3427118;1.547223;1.789061;0.7404718;0.8177153;2.993413;1.001834;0.5642179;4.289467;0.3427118;1.547223;1.789061;0.7404718;0.8177153;2.993413;1.001834;0.5642179;4.289467
399901.8046;NotLabelled;NONE;16384;-0.1855956;0.3227147;-0.6762039;-0.6357341;1;2;0;-804;4074;5;65536;0.2963989;-0.3033241;0.6315789;0.649038;0;1;0;-35;4154;15;8192;0.6454294;-0.6742507;0.1481994;0.3268698;0;0;0;1362;3933;-369;32768;0.6218836;-0.6774567;0.2479224;0.3047091;1;1;0;-349;4055;416;256;0.6232687;-0.04986149;-0.7798743;-0.02908587;-5;0;0;175;236;4043;128;-0.5941828;0.1163435;0.7797698;0.1592798;2;2;0;17;1379;-3850;4;0.3268698;0.3753462;-0.5609418;-0.6615252;0;-1;2;-3625;2132;-496;16;0.1772853;-0.7112576;-0.04570637;0.6786703;3;0;-1;-1155;788;3850;2;0.5443213;-0.6985307;-0.3518005;0.3033241;-1;1;-3;3577;2102;-571;8;-0.05401662;-0.6759003;0.2091413;0.7046282;2;0;-1;1401;777;3803;0.6537446;1.563622;1.7439;0.6545867;1.640366;1.203779;0.655305;1.705821;0.7287275;0.6585834;1.784719;-0.0008111;0.3999948;1.792645;-0.3291657;0.06096337;1.85446;-0.1829616;-0.0208652;0.9471855;-0.01418258;0;0;0;0.91989;1.771042;-0.3291689;1.210541;1.806694;-0.1829662;1.303192;0.8745668;0.0424906;1.28708;-0.06695998;0.1476341;0.3418359;1.553064;1.787874;0.7445366;0.8261986;2.992182;1.012044;0.5702109;4.286492;0.3418359;1.553064;1.787874;0.7445366;0.8261986;2.992182;1.012044;0.5702109;4.286492
399923.0076;NotLabelled;NONE;16384;-0.1869806;0.3213296;-0.6764818;-0.6357341;0;-1;4;-798;4046;-73;65536;0.2977839;-0.3033241;0.6315789;0.6484036;0;1;1;-53;4088;93;8192;0.6454294;-0.6742507;0.1481994;0.3268698;-1;1;0;1202;3955;-499;32768;0.6218836;-0.6774567;0.2479224;0.3047091;0;-1;0;-117;4049;302;256;0.6246537;-0.04847645;-0.7789034;-0.02770083;-7;0;0;117;250;4075;128;-0.5941828;0.1163435;0.7800515;0.1578947;0;-3;0;79;1393;-3964;4;0.3254848;0.3739612;-0.5609418;-0.6629909;0;0;2;-3463;2096;-688;16;0.1772853;-0.7100213;-0.04432133;0.6800554;2;-4;-1;-1235;718;3906;2;0.5443213;-0.6991305;-0.3518005;0.301939;-1;4;-1;3509;2186;-715;8;-0.05401662;-0.6759003;0.2077562;0.7050378;3;8;-1;1407;831;3889;0.6503018;1.565562;1.743608;0.6511338;1.641383;1.203356;0.6518432;1.706027;0.7281937;0.6551217;1.784925;-0.001345038;0.3965329;1.792851;-0.3296999;0.0575016;1.854666;-0.1834955;-0.02086534;0.9471855;-0.01418254;0;0;0;0.9164282;1.771248;-0.3297026;1.207079;1.806899;-0.1835004;1.302151;0.875706;0.04478824;1.286038;-0.06582105;0.1499313;0.338394;1.555079;1.787605;0.7410947;0.8282137;2.991913;1.008602;0.572226;4.286222;0.338394;1.555079;1.787605;0.7410947;0.8282137;2.991913;1.008602;0.572226;4.286222
399944.718;NotLabelled;NONE;16384;-0.1869806;0.3213296;-0.6764818;-0.6357341;-1;2;2;-714;3930;-125;65536;0.2977839;-0.3047091;0.6315789;0.647754;0;5;0;47;4124;129;8192;0.6468144;-0.6735932;0.1481994;0.3254848;-4;2;-3;862;4021;-479;32768;0.6218836;-0.6780779;0.2479224;0.3033241;0;1;0;-105;4183;472;256;0.6246537;-0.04709141;-0.7790363;-0.02631579;-8;0;2;217;392;3999;128;-0.5955678;0.1163435;0.7789944;0.1578947;0;0;-2;-43;1513;-3876;4;0.3254848;0.3739612;-0.5609418;-0.6629909;2;1;0;-3499;2060;-688;16;0.1759003;-0.7103657;-0.04432133;0.6800554;4;-6;-1;-1337;720;3890;2;0.5443213;-0.6991305;-0.3518005;0.301939;-1;4;-1;3495;2280;-639;8;-0.05124654;-0.6759003;0.2077562;0.7052446;3;9;-1;1503;785;3695;0.6514075;1.572414;1.750142;0.6522264;1.647019;1.209721;0.6529242;1.710593;0.7344148;0.6560409;1.7867;0.004578888;0.397396;1.793211;-0.3237625;0.05835012;1.85538;-0.1777424;-0.02038343;0.9472222;-0.01227576;0;0;0;0.9173043;1.771922;-0.3237655;1.207956;1.80831;-0.1777465;1.302277;0.8771164;0.05085266;1.285822;-0.06441069;0.1559427;0.3395008;1.56203;1.79417;0.7405057;0.8299172;2.995863;1.008668;0.5721548;4.289685;0.3395008;1.56203;1.79417;0.7405057;0.8299172;2.995863;1.008668;0.5721548;4.289685
399965.8661;NotLabelled;NONE;16384;-0.1883656;0.3213296;-0.6760975;-0.6357341;-1;7;1;-796;4020;-41;65536;0.2977839;-0.3047091;0.6315789;0.647754;0;6;0;-29;4106;103;8192;0.6468144;-0.6735932;0.1481994;0.3254848;-2;4;-5;832;4067;-773;32768;0.6218836;-0.6780779;0.2479224;0.3033241;1;2;-1;-109;4139;538;256;0.6246537;-0.04709141;-0.7790363;-0.02631579;-7;2;2;187;420;3999;128;-0.5941828;0.1163435;0.7800515;0.1578947;3;3;-2;27;1527;-3850;4;0.3254848;0.3739612;-0.5609418;-0.6629909;2;2;0;-3595;1988;-706;16;0.1772853;-0.7101064;-0.04293629;0.6800554;4;-1;-1;-1347;732;3774;2;0.5443213;-0.6991305;-0.3518005;0.301939;-1;2;-2;3457;2144;-753;8;-0.05124654;-0.6759003;0.2077562;0.7052446;2;1;-1;1593;841;3573;0.6528269;1.576237;1.748946;0.6536455;1.650836;1.208524;0.6543431;1.714406;0.7332171;0.6573119;1.787664;0.00308919;0.398612;1.792786;-0.3252337;0.05956369;1.855384;-0.1794025;-0.01911403;0.9472263;-0.01390939;0;0;0;0.918529;1.771713;-0.3252371;1.209189;1.808791;-0.1794081;1.304685;0.8769989;0.04624534;1.286393;-0.06460977;0.1502957;0.3409202;1.565853;1.792975;0.7422481;0.8337412;2.99456;1.009572;0.5784628;4.289049;0.3409202;1.565853;1.792975;0.7422481;0.8337412;2.99456;1.009572;0.5784628;4.289049
399985.6997;NotLabelled;NONE;16384;-0.1883656;0.3227147;-0.6754375;-0.6357341;-1;6;1;-854;4140;63;65536;0.299169;-0.3047091;0.6301939;0.6484643;-1;6;0;-135;4102;43;8192;0.6454294;-0.6752813;0.1495845;0.3240997;-2;-2;-4;910;3923;-315;32768;0.6232687;-0.6773108;0.2465374;0.3033241;0;0;-1;-201;4135;302;256;0.6232687;-0.04570637;-0.7802727;-0.02493075;-6;1;2;189;412;4001;128;-0.5941828;0.1149584;0.7805358;0.1565097;3;1;-2;23;1539;-3758;4;0.3254848;0.3739612;-0.5595568;-0.6641603;3;0;1;-3509;2092;-540;16;0.1772853;-0.7087774;-0.04293629;0.6814404;4;1;-2;-1229;818;3760;2;0.5457063;-0.69805;-0.3518005;0.301939;0;2;-3;3481;2152;-659;8;-0.05124654;-0.6759003;0.2077562;0.7052446;2;0;-1;1475;937;3667;0.6522329;1.576598;1.750715;0.6530514;1.651203;1.210294;0.653749;1.714777;0.734988;0.6567178;1.788035;0.004860401;0.3980179;1.793157;-0.3234631;0.05896959;1.855757;-0.1776316;-0.01911363;0.947226;-0.01390935;0;0;0;0.9179349;1.772085;-0.3234664;1.208595;1.809163;-0.1776375;1.304091;0.8773708;0.04801595;1.285799;-0.06423783;0.1520662;0.3403261;1.566214;1.794744;0.7416538;0.8341017;2.996329;1.010055;0.5737617;4.289585;0.3403261;1.566214;1.794744;0.7416538;0.8341017;2.996329;1.010055;0.5737617;4.289585
400005.7142;NotLabelled;NONE;16384;-0.1897507;0.3227147;-0.6763514;-0.634349;-1;2;2;-724;4054;77;65536;0.299169;-0.3060942;0.6301939;0.6478117;-2;6;1;-71;4152;67;8192;0.6468144;-0.674619;0.1495845;0.3227147;-3;0;-4;1020;4103;-315;32768;0.6232687;-0.6773108;0.2465374;0.3033241;0;-2;0;-179;4073;444;256;0.6232687;-0.04432133;-0.7803956;-0.0235457;-8;1;2;237;408;4035;128;-0.5941828;0.1149584;0.7805358;0.1565097;0;1;-1;-11;1631;-4046;4;0.3254848;0.3739612;-0.5595568;-0.6641603;2;1;0;-3419;2156;-660;16;0.1786704;-0.7085121;-0.04155125;0.6814404;4;-4;-3;-1217;894;3868;2;0.5457063;-0.6986474;-0.3518005;0.300554;-2;6;-2;3421;2292;-649;8;-0.04847645;-0.6759003;0.2077562;0.7054404;3;7;-1;1535;977;3803;0.6476994;1.584692;1.754068;0.6484946;1.657159;1.213356;0.6491715;1.718852;0.7378016;0.6519208;1.78921;0.007387519;0.3931291;1.792963;-0.3208819;0.0541057;1.856058;-0.1752063;-0.02229819;0.9471744;-0.01265753;0;0;0;0.9130512;1.772019;-0.3209451;1.203742;1.809747;-0.1753452;1.295469;0.8763081;0.04500306;1.280893;-0.06537795;0.1489396;0.3357945;1.574482;1.79815;0.7462534;0.8431419;2.997118;1.024724;0.5835968;4.288404;0.3357945;1.574482;1.79815;0.7462534;0.8431419;2.997118;1.024724;0.5835968;4.288404
400026.8601;NotLabelled;NONE;16384;-0.1911357;0.3213296;-0.6766208;-0.634349;0;4;4;-842;3964;-199;65536;0.299169;-0.3074792;0.6288089;0.6485013;-2;4;1;11;4172;229;8192;0.6468144;-0.674619;0.1495845;0.3227147;-3;1;-3;972;4039;-557;32768;0.6232687;-0.6773108;0.2465374;0.3033241;2;-1;0;-231;4105;504;256;0.6232687;-0.04293629;-0.7805136;-0.02216066;-10;1;2;191;472;4075;128;-0.5941828;0.1149584;0.7805358;0.1565097;3;0;-1;77;1711;-4054;4;0.3254848;0.3725762;-0.5595568;-0.6649383;3;1;1;-3493;2184;-640;16;0.1786704;-0.7085121;-0.04155125;0.6814404;5;-7;-3;-1323;880;3762;2;0.5470914;-0.6968631;-0.3531856;0.300554;-1;4;-1;3353;2340;-673;8;-0.04847645;-0.6772853;0.2077562;0.7041107;2;4;-1;1517;1013;3651;0.6525386;1.588035;1.751936;0.653334;1.660502;1.211224;0.6540111;1.722196;0.7356696;0.6567024;1.789705;0.004986405;0.3978965;1.792068;-0.3232841;0.05885176;1.855586;-0.1778432;-0.02102585;0.9471803;-0.01429728;0;0;0;0.9178275;1.771344;-0.3232871;1.208508;1.809763;-0.1778471;1.30051;0.8766129;0.04360557;1.285948;-0.06507337;0.147544;0.3406336;1.577826;1.796018;0.7512546;0.8464856;2.994932;1.030977;0.5818844;4.284919;0.3406336;1.577826;1.796018;0.7512546;0.8464856;2.994932;1.030977;0.5818844;4.284919
400047.7474;NotLabelled;NONE;16384;-0.1925208;0.3227147;-0.6755682;-0.634349;0;5;2;-860;3994;-69;65536;0.299169;-0.3088643;0.6288089;0.6478427;-2;5;0;75;4104;97;8192;0.6468144;-0.674619;0.1495845;0.3227147;-1;-1;0;1018;3899;-749;32768;0.6232687;-0.6773108;0.2465374;0.3033241;5;0;3;-375;4025;538;256;0.6232687;-0.04155125;-0.7805886;-0.02216066;-11;0;2;23;430;3969;128;-0.5941828;0.1149584;0.7805358;0.1565097;7;0;-1;27;1621;-3894;4;0.3254848;0.3725762;-0.5581717;-0.6661013;4;2;2;-3563;2112;-666;16;0.1786704;-0.7072573;-0.0401662;0.6828254;4;-8;-5;-1435;866;3718;2;0.5470914;-0.6974589;-0.3531856;0.299169;0;3;-3;3379;2262;-683;8;-0.04709141;-0.6772853;0.2077562;0.7042048;4;3;0;1421;1007;3563;0.6502117;1.592415;1.753486;0.6510072;1.664882;1.212774;0.6516844;1.726576;0.7372197;0.6542338;1.791234;0.006278217;0.3953763;1.792208;-0.3219586;0.05632707;1.856149;-0.1767127;-0.02331636;0.947087;-0.01673703;0;0;0;0.915316;1.771705;-0.3219619;1.206003;1.810815;-0.1767184;1.298059;0.8776643;0.04471159;1.283522;-0.06402183;0.1486531;0.3383069;1.582205;1.797569;0.7517685;0.8482718;2.993917;1.031807;0.5836706;4.283837;0.3383069;1.582205;1.797569;0.7517685;0.8482718;2.993917;1.031807;0.5836706;4.283837
400068.4196;NotLabelled;NONE;16384;-0.1925208;0.3227147;-0.6755682;-0.634349;-1;6;0;-754;4042;117;65536;0.300554;-0.3102493;0.6288089;0.6465386;-3;9;-1;133;4114;-9;8192;0.6468144;-0.674619;0.1495845;0.3227147;0;-2;1;926;3813;-583;32768;0.6232687;-0.6768051;0.2479224;0.3033241;5;2;4;-91;4035;380;256;0.6232687;-0.04155125;-0.7806267;-0.02077562;-12;0;2;119;414;3925;128;-0.5941828;0.1135734;0.7810149;0.1551246;8;1;-2;-11;1569;-3782;4;0.3254848;0.3725762;-0.5581717;-0.6661013;5;0;2;-3599;2012;-588;16;0.1786704;-0.7073347;-0.03878116;0.6828254;4;-2;-6;-1423;794;3686;2;0.5484765;-0.6963702;-0.3531856;0.299169;-2;6;-3;3449;2330;-563;8;-0.04570637;-0.6772853;0.2077562;0.704296;2;8;0;1429;943;3679;0.6507826;1.595369;1.75197;0.6515778;1.667836;1.211258;0.6522548;1.72953;0.7357038;0.6546173;1.792924;0.00465107;0.3957368;1.792769;-0.3235694;0.05655983;1.85623;-0.1784119;-0.02203073;0.9470875;-0.01837236;0;0;0;0.9157197;1.773388;-0.3235726;1.206331;1.813376;-0.1784173;1.298436;0.8802261;0.04299223;1.283922;-0.06146026;0.1469373;0.3388779;1.585159;1.796053;0.7570132;0.8520212;2.991265;1.042228;0.5856323;4.279682;0.3388779;1.585159;1.796053;0.7570132;0.8520212;2.991265;1.042228;0.5856323;4.279682
400088.8463;NotLabelled;NONE;16384;-0.1939058;0.3240997;-0.6745082;-0.634349;-2;6;0;-768;4116;87;65536;0.300554;-0.3102493;0.6274238;0.6478827;-2;7;-2;81;4100;127;8192;0.6481994;-0.6732883;0.1495845;0.3227147;-2;4;-3;692;4217;-231;32768;0.6246537;-0.6761472;0.2479224;0.301939;-1;-1;-1;-105;4067;326;256;0.6218836;-0.0401662;-0.7818385;-0.01939058;-11;0;2;119;394;3955;128;-0.5927978;0.1135734;0.7820666;0.1551246;7;2;-1;21;1595;-3706;4;0.3254848;0.3725762;-0.5581717;-0.6661013;4;0;3;-3611;2060;-676;16;0.1786704;-0.705995;-0.03878116;0.6842105;4;-1;-7;-1285;776;3844;2;0.5484765;-0.6969636;-0.3531856;0.2977839;-1;6;-3;3339;2298;-601;8;-0.04432133;-0.6772853;0.2063712;0.7047915;2;8;0;1481;875;3773;0.6524411;1.600379;1.753065;0.653213;1.670707;1.212071;0.6538696;1.730521;0.7362764;0.65628;1.792329;0.005088449;0.3973722;1.791912;-0.3231104;0.05831775;1.856275;-0.1780628;-0.02028812;0.9471321;-0.01803004;0;0;0;0.9173205;1.771631;-0.3231134;1.208013;1.811431;-0.1780683;1.300097;0.8782806;0.04335105;1.285162;-0.06360483;0.1454173;0.3405381;1.590344;1.797201;0.7586911;0.8572063;2.992407;1.04381;0.5882337;4.280308;0.3405381;1.590344;1.797201;0.7586911;0.8572063;2.992407;1.04381;0.5882337;4.280308
400109.0394;NotLabelled;NONE;16384;-0.1952908;0.3240997;-0.6754091;-0.632964;-2;4;-1;-788;3974;-123;65536;0.301939;-0.3116343;0.6274238;0.6465726;-3;9;-2;-41;4088;113;8192;0.6481994;-0.6739505;0.1495845;0.3213296;-5;0;-2;542;4059;-357;32768;0.6232687;-0.6774241;0.2479224;0.301939;0;-2;0;-197;4057;554;256;0.6218836;-0.03739612;-0.7820396;-0.0166205;-12;1;2;195;304;3991;128;-0.5927978;0.1108033;0.7827373;0.1537396;5;3;-1;51;1485;-3900;4;0.3268698;0.3711911;-0.5567867;-0.6673543;4;-3;0;-3529;2186;-626;16;0.1786704;-0.7047249;-0.03739612;0.6855956;6;-11;-7;-1075;806;3960;2;0.5484765;-0.6975538;-0.3531856;0.2963989;0;4;-3;3357;2164;-575;8;-0.04432133;-0.6772853;0.2063712;0.7047915;3;4;0;1561;853;3759;0.6473347;1.604146;1.752387;0.6481068;1.674481;1.211393;0.6487632;1.7343;0.7355998;0.6510443;1.793208;0.004171789;0.3920862;1.791415;-0.3239825;0.05303569;1.856256;-0.1791396;-0.0239224;0.947034;-0.01875545;0;0;0;0.9120404;1.771282;-0.3239855;1.202744;1.81174;-0.1791443;1.29878;0.8784386;0.03994894;1.285246;-0.06379402;0.1389605;0.3354318;1.59411;1.796523;0.7580864;0.8609723;2.990144;1.053064;0.5927879;4.275987;0.3354318;1.59411;1.796523;0.7580864;0.8609723;2.990144;1.053064;0.5927879;4.275987
400129.7244;NotLabelled;NONE;16384;-0.1966759;0.3254848;-0.6743404;-0.632964;0;8;1;-820;4078;-117;65536;0.3033241;-0.3130194;0.6246537;0.647936;-3;6;-1;-17;4108;85;8192;0.6481994;-0.6743005;0.1509695;0.3199446;-1;-5;0;882;3911;-771;32768;0.6232687;-0.6774241;0.2479224;0.301939;2;-2;1;-205;4001;452;256;0.6218836;-0.03601108;-0.7821329;-0.01523546;-10;1;0;81;332;3895;128;-0.5927978;0.1094183;0.7832028;0.1523546;9;1;0;123;1473;-3774;4;0.3268698;0.3698061;-0.5567867;-0.6681229;3;0;0;-3603;2074;-646;16;0.1772853;-0.7038669;-0.03462604;0.6869806;6;-14;-7;-1075;776;3892;2;0.5498615;-0.6957584;-0.3545706;0.2963989;-1;3;-2;3361;2214;-551;8;-0.04293629;-0.6786703;0.2049861;0.7039487;2;10;0;1391;895;3581;0.6523176;1.617754;1.756484;0.6530557;1.685032;1.215102;0.6536825;1.742162;0.7389781;0.6556962;1.795368;0.007112384;0.3966429;1.790792;-0.3209402;0.05757859;1.856464;-0.1765047;-0.02217837;0.9470832;-0.01840941;0;0;0;0.9166147;1.771112;-0.3209429;1.207325;1.81295;-0.1765091;1.30143;0.8792198;0.04158747;1.285057;-0.06274617;0.1426847;0.3404173;1.607968;1.800696;0.7708419;0.8756731;2.992056;1.071271;0.6056883;4.27626;0.3404173;1.607968;1.800696;0.7708419;0.8756731;2.992056;1.071271;0.6056883;4.27626
400149.8195;NotLabelled;NONE;16384;-0.1966759;0.3268698;-0.6749687;-0.6315789;-3;5;1;-1000;4018;-89;65536;0.3047091;-0.3130194;0.6246537;0.6472858;-1;4;-3;135;4152;189;8192;0.6481994;-0.6736416;0.1509695;0.3213296;0;-8;2;1172;3907;-637;32768;0.6246537;-0.6756378;0.2493075;0.301939;2;-2;1;-247;4153;278;256;0.6218836;-0.03601108;-0.7821329;-0.01523546;-8;0;0;-11;216;3981;128;-0.5927978;0.1080332;0.783395;0.1523546;8;0;-1;215;1365;-3780;4;0.3268698;0.3698061;-0.5567867;-0.6681229;0;-7;1;-3673;2044;-510;16;0.1759003;-0.7029915;-0.03185596;0.6883656;5;-22;-9;-931;672;3818;2;0.5498615;-0.6963468;-0.3545706;0.2950138;-1;5;-2;3489;2194;-455;8;-0.0401662;-0.6786703;0.2049861;0.7041122;3;14;2;1377;899;3707;0.6461033;1.625516;1.755969;0.6468179;1.690656;1.214325;0.6474242;1.745906;0.737979;0.6493074;1.796261;0.005911231;0.390208;1.790292;-0.3220823;0.05113627;1.85638;-0.1778533;-0.02753907;0.9469163;-0.01968801;0;0;0;0.9101882;1.77084;-0.3220854;1.200901;1.813369;-0.1778592;1.292653;0.8787384;0.03736997;1.2763;-0.06322718;0.1384703;0.3342049;1.615904;1.800232;0.7673821;0.8810327;2.989005;1.071676;0.6091013;4.271887;0.3342049;1.615904;1.800232;0.7673821;0.8810327;2.989005;1.071676;0.6091013;4.271887
400171.9237;NotLabelled;NONE;16384;-0.1966759;0.3268698;-0.6749687;-0.6315789;-1;0;0;-938;4000;-105;65536;0.3047091;-0.3130194;0.6246537;0.6472858;0;4;-4;-9;4012;195;8192;0.6468144;-0.6743104;0.1509695;0.3227147;-1;-6;0;1120;4037;-341;32768;0.6246537;-0.6756378;0.2493075;0.301939;2;-1;2;-215;4047;350;256;0.6218836;-0.03462604;-0.7822211;-0.01385042;-6;0;0;123;98;3949;128;-0.5927978;0.1080332;0.7836631;0.1509695;5;0;0;151;1359;-3924;4;0.3282548;0.368421;-0.5581717;-0.6670524;0;-12;1;-3683;1972;-790;16;0.1731302;-0.7024415;-0.02908587;0.6897507;5;-32;-10;-923;722;3806;2;0.5512465;-0.6945428;-0.3559557;0.2950138;-1;10;-1;3449;2234;-499;8;-0.03878116;-0.6800554;0.2036011;0.7032548;4;21;4;1411;849;3697;0.6496058;1.626803;1.75687;0.6503105;1.691026;1.215116;0.6509078;1.745469;0.7386774;0.6527911;1.795823;0.006609976;0.3936917;1.789855;-0.3213836;0.05461995;1.855942;-0.177155;-0.02708503;0.9469688;-0.01771431;0;0;0;0.9136719;1.770403;-0.3213869;1.204385;1.812931;-0.1771609;1.298136;0.8787234;0.03903818;1.284233;-0.06369805;0.1361768;0.3377083;1.617266;1.801155;0.7708855;0.882395;2.989928;1.078796;0.6084974;4.271529;0.3377083;1.617266;1.801155;0.7708855;0.882395;2.989928;1.078796;0.6084974;4.271529
400192.7346;NotLabelled;NONE;16384;-0.1966759;0.3268698;-0.6749687;-0.6315789;-1;4;0;-726;3852;-139;65536;0.3060942;-0.3130194;0.6232687;0.6479671;1;6;-5;-19;4094;93;8192;0.6481994;-0.6729792;0.1509695;0.3227147;-4;1;-1;736;3961;-567;32768;0.6246537;-0.6751251;0.2506925;0.301939;2;-3;1;-133;4151;454;256;0.6218836;-0.033241;-0.7823045;-0.01246537;-8;0;0;147;100;4093;128;-0.5927978;0.1066482;0.7841183;0.1495845;3;1;-1;63;1403;-4050;4;0.3296399;0.367036;-0.5581717;-0.667133;0;-13;0;-3485;1996;-748;16;0.1703601;-0.7019169;-0.02493075;0.6911357;4;-30;-8;-1241;770;3840;2;0.5512465;-0.6944185;-0.3573407;0.2936288;0;12;0;3387;2200;-471;8;-0.03601108;-0.6814404;0.200831;0.7028578;4;19;5;1459;943;3607;0.649779;1.632925;1.757461;0.6504703;1.695928;1.215564;0.6510558;1.749298;0.739004;0.6528113;1.796801;0.006745517;0.3936673;1.789441;-0.3211847;0.05458746;1.855941;-0.1771645;-0.0270882;0.9469681;-0.01770891;0;0;0;0.9136559;1.770216;-0.3211879;1.204371;1.813434;-0.1771708;1.297063;0.8798015;0.04195094;1.28318;-0.06261992;0.1390921;0.3378827;1.623488;1.801775;0.7697448;0.8878257;2.990537;1.080396;0.6144023;4.271577;0.3378827;1.623488;1.801775;0.7697448;0.8878257;2.990537;1.080396;0.6144023;4.271577
400213.8739;NotLabelled;NONE;16384;-0.1980609;0.3282548;-0.6738907;-0.6315789;-2;9;0;-772;4048;-69;65536;0.3074792;-0.3130194;0.6232687;0.647311;2;6;-4;-37;4228;181;8192;0.6481994;-0.672667;0.1523546;0.3227147;-2;-5;0;824;4007;-669;32768;0.6246537;-0.6751251;0.2506925;0.301939;3;0;1;-171;4139;406;256;0.6218836;-0.03185596;-0.7824014;-0.009695291;-8;1;1;85;274;4035;128;-0.5927978;0.1052632;0.7845683;0.1481994;8;1;0;71;1347;-3876;4;0.3310249;0.365651;-0.5595568;-0.6660466;0;-5;1;-3311;2054;-472;16;0.166205;-0.7003533;-0.01939058;0.6939058;5;-17;-7;-903;742;3880;2;0.5526316;-0.6939017;-0.3573407;0.2922437;0;5;-2;3215;2234;-513;8;-0.03462604;-0.6814404;0.200831;0.7029274;4;13;4;1407;873;3645;0.6468988;1.641326;1.762877;0.6475663;1.70219;1.220736;0.648131;1.75368;0.7439693;0.649688;1.79833;0.01153076;0.3904678;1.789579;-0.3163047;0.05139367;1.856491;-0.1724624;-0.0301882;0.9468957;-0.01654478;0;0;0;0.9104647;1.770583;-0.31636;1.201196;1.814488;-0.1725836;1.297107;0.8798579;0.04082417;1.282818;-0.06274998;0.1360854;0.3350044;1.632063;1.807242;0.7700356;0.8964266;2.994864;1.083471;0.6208595;4.274765;0.3350044;1.632063;1.807242;0.7700356;0.8964266;2.994864;1.083471;0.6208595;4.274765
400235.7471;NotLabelled;NONE;16384;-0.199446;0.3282548;-0.6734821;-0.6315789;-1;7;2;-800;3886;-83;65536;0.3088643;-0.3116343;0.6232687;0.6473199;1;2;-3;-29;3992;-107;8192;0.6481994;-0.672667;0.1523546;0.3227147;-2;-6;0;1132;3963;-527;32768;0.6246537;-0.6751251;0.2506925;0.301939;4;-1;4;-193;4015;352;256;0.6218836;-0.03047091;-0.7824566;-0.009695291;-7;1;0;121;162;3979;128;-0.5941828;0.1038781;0.7839653;0.1468144;8;2;0;59;1321;-3794;4;0.33241;0.3642659;-0.5609418;-0.6649498;-1;-9;2;-3603;2026;-392;16;0.1634349;-0.6983234;-0.0166205;0.6966759;5;-35;-10;-635;766;3842;2;0.5526316;-0.6944834;-0.3573407;0.2908587;1;3;-2;3449;2218;-503;8;-0.03185596;-0.6842105;0.1980609;0.7011513;4;10;3;1153;773;3895;0.6463702;1.649643;1.762206;0.6470148;1.70837;1.219829;0.6475594;1.75798;0.7428632;0.6490805;1.798187;0.01016724;0.3898075;1.787782;-0.3175781;0.05083799;1.856;-0.1741033;-0.02973494;0.9469428;-0.01456903;0;0;0;0.9097797;1.768118;-0.3175807;1.200585;1.81252;-0.1741074;1.296018;0.878262;0.04113853;1.281737;-0.0643456;0.1364018;0.3344775;1.640556;1.80662;0.7680414;0.9041402;2.994296;1.087894;0.6269608;4.272261;0.3344775;1.640556;1.80662;0.7680414;0.9041402;2.994296;1.087894;0.6269608;4.272261
400256.7189;NotLabelled;NONE;16384;-0.200831;0.3296399;-0.6736914;-0.6301939;-5;10;4;-812;4036;237;65536;0.3102493;-0.3130194;0.6232687;0.6459879;0;7;-4;-19;4198;31;8192;0.6481994;-0.6716852;0.1537396;0.3240997;-2;-5;0;1058;3861;-353;32768;0.6246537;-0.6752273;0.2520775;0.300554;2;-1;4;-155;4131;254;256;0.6218836;-0.02908587;-0.7825252;-0.008310249;-8;0;0;187;44;4033;128;-0.5941828;0.1024931;0.7841476;0.1468144;4;4;0;113;1259;-3848;4;0.333795;0.3642659;-0.5609418;-0.6642556;-1;-10;0;-3683;1996;-596;16;0.1592798;-0.6966759;-0.01108033;0.6993925;3;-46;-11;-959;776;3790;2;0.5526316;-0.693769;-0.3587258;0.2908587;0;4;-2;3499;2240;-427;8;-0.03047091;-0.6842105;0.1980609;0.7012128;3;10;2;1095;849;3825;0.6451673;1.656944;1.768127;0.6457882;1.713523;1.225521;0.6463118;1.761245;0.7483624;0.6477;1.800188;0.01559776;0.3884296;1.788654;-0.3121118;0.0493219;1.856387;-0.168733;-0.03058587;0.9469647;-0.01095127;0;0;0;0.9084432;1.770116;-0.3121148;1.199161;1.815396;-0.1687382;1.294629;0.8811388;0.04649222;1.280364;-0.0614686;0.1417577;0.3332767;1.648032;1.81259;0.7654307;0.910852;3.000306;1.093211;0.6347384;4.276492;0.3332767;1.648032;1.81259;0.7654307;0.910852;3.000306;1.093211;0.6347384;4.276492
400277.7189;NotLabelled;NONE;16384;-0.2022161;0.3296399;-0.673277;-0.6301939;-4;2;3;-896;4172;-111;65536;0.3102493;-0.3116343;0.6232687;0.6466572;3;0;-5;-81;4140;339;8192;0.6481994;-0.6716852;0.1537396;0.3240997;-3;0;-2;1030;4119;-221;32768;0.6246537;-0.6752273;0.2520775;0.300554;1;0;3;-73;4119;366;256;0.6218836;-0.02770083;-0.782589;-0.006925208;-5;1;0;59;20;3969;128;-0.5941828;0.101108;0.7843274;0.1468144;3;2;0;125;1319;-3864;4;0.333795;0.3628809;-0.5623268;-0.6638425;-1;-10;0;-3459;1988;-762;16;0.1551246;-0.6952909;-0.006925208;0.7017542;4;-31;-10;-1323;774;3858;2;0.5526316;-0.693769;-0.3587258;0.2908587;0;5;0;3505;2252;-423;8;-0.02770083;-0.6855956;0.1966759;0.7003642;4;6;1;1091;895;3781;0.6494662;1.662438;1.769414;0.650077;1.718099;1.226714;0.650592;1.765013;0.7494754;0.651862;1.801103;0.01656461;0.3925516;1.788179;-0.3110614;0.05343398;1.85632;-0.1678999;-0.02882629;0.9470229;-0.01060631;0;0;0;0.9125732;1.76987;-0.3110646;1.20329;1.815836;-0.1679058;1.300381;0.881531;0.04638696;1.283837;-0.06132865;0.1387428;0.3375766;1.653602;1.813899;0.7702731;0.9190376;3.003036;1.104572;0.6411314;4.277139;0.3375766;1.653602;1.813899;0.7702731;0.9190376;3.003036;1.104572;0.6411314;4.277139
400298.8657;NotLabelled;NONE;16384;-0.2022161;0.3296399;-0.673277;-0.6301939;-3;-1;3;-874;3830;-419;65536;0.3116343;-0.3116343;0.6232687;0.6459909;5;-1;-4;-95;4148;117;8192;0.6495845;-0.6710137;0.1537396;0.3227147;-4;-3;-2;546;3939;-613;32768;0.6246537;-0.6747087;0.2534626;0.300554;2;-5;1;-111;4063;358;256;0.6218836;-0.02770083;-0.782589;-0.006925208;-6;1;0;13;136;3989;128;-0.5941828;0.101108;0.7845854;0.1454294;6;0;0;73;1327;-3918;4;0.33518;0.3628809;-0.5623268;-0.6631443;0;-7;0;-3479;1950;-542;16;0.1537396;-0.6939058;-0.005540166;0.7034402;6;-19;-9;-1061;602;3962;2;0.5540166;-0.692525;-0.3601108;0.2894737;-1;5;-1;3305;2262;-451;8;-0.02770083;-0.6855956;0.1966759;0.7003642;4;4;0;1021;967;3851;0.6476657;1.668337;1.773244;0.6482664;1.723081;1.230451;0.6487723;1.769189;0.7531332;0.6499274;1.802425;0.02008724;0.3905785;1.788111;-0.3074505;0.05145006;1.856659;-0.1645091;-0.03013282;0.9469995;-0.008966412;0;0;0;0.9106082;1.770031;-0.3074536;1.201325;1.816683;-0.1645148;1.298449;0.8823774;0.0497638;1.281919;-0.06048214;0.1421227;0.3357769;1.659576;1.817749;0.7666966;0.9216471;3.005447;1.10644;0.6443329;4.278239;0.3357769;1.659576;1.817749;0.7666966;0.9216471;3.005447;1.10644;0.6443329;4.278239
400319.7105;NotLabelled;NONE;16384;-0.2022161;0.3282548;-0.6739533;-0.6301939;-1;4;5;-714;3944;-131;65536;0.3116343;-0.3102493;0.6232687;0.6466572;4;0;-5;-107;4136;11;8192;0.6495845;-0.670373;0.1565097;0.3227147;-5;-11;-4;810;3995;-551;32768;0.6246537;-0.6741867;0.2548476;0.300554;4;-2;1;-231;4111;382;256;0.6218836;-0.02631579;-0.7826477;-0.005540166;-7;2;-1;145;80;4099;128;-0.5941828;0.09972299;0.7847626;0.1454294;5;1;1;107;1305;-3972;4;0.3379501;0.3614958;-0.5623268;-0.6624945;1;-3;-1;-3445;1944;-586;16;0.1495845;-0.6911357;0;0.7070756;4;-22;-7;-899;744;3840;2;0.5540166;-0.692525;-0.3601108;0.2894737;-2;3;-1;3215;2314;-375;8;-0.02631579;-0.6855956;0.1952908;0.700805;3;7;0;855;965;3859;0.6481768;1.67101;1.777453;0.6487646;1.724534;1.234538;0.6492589;1.769568;0.757118;0.6503752;1.802804;0.02407199;0.391009;1.78849;-0.3034519;0.05188821;1.857038;-0.1604926;-0.02967613;0.9470305;-0.006987199;0;0;0;0.9110386;1.77041;-0.3034828;1.201763;1.817061;-0.1605592;1.300008;0.881727;0.04865837;1.283048;-0.06130815;0.1391329;0.3362891;1.662349;1.821985;0.7676179;0.9270389;3.011159;1.112506;0.6502986;4.282691;0.3362891;1.662349;1.821985;0.7676179;0.9270389;3.011159;1.112506;0.6502986;4.282691
400340.823;NotLabelled;NONE;16384;-0.2049861;0.3282548;-0.673116;-0.6301939;-4;0;6;-794;4064;-19;65536;0.3130194;-0.3088643;0.6246537;0.6453135;5;0;-5;-37;4074;147;8192;0.6495845;-0.670373;0.1565097;0.3227147;-4;-5;-3;1170;4125;-477;32768;0.6260388;-0.6729007;0.2548476;0.300554;7;0;4;-259;4075;362;256;0.6232687;-0.02493075;-0.7815906;-0.005540166;-2;2;0;111;122;3927;128;-0.5955678;0.09833795;0.7841427;0.1440443;3;2;1;101;1333;-3844;4;0.3379501;0.3614958;-0.5623268;-0.6624945;0;-2;0;-3361;2066;-424;16;0.1481994;-0.6897507;0.001385042;0.7087165;3;-9;-6;-915;768;3868;2;0.5554016;-0.6919929;-0.3601108;0.2880886;-4;3;-3;3369;2282;-223;8;-0.0235457;-0.6855956;0.1939058;0.701288;2;12;-2;771;865;3807;0.6474279;1.676465;1.779319;0.6480049;1.729072;1.236315;0.6484898;1.7733;0.7588192;0.6495323;1.803681;0.02564901;0.390146;1.787977;-0.3017953;0.05100642;1.856932;-0.1590759;-0.03097377;0.9470001;-0.005345881;0;0;0;0.9101835;1.770128;-0.3017986;1.200898;1.817464;-0.1590815;1.298295;0.8816715;0.04847801;1.280907;-0.06153452;0.1370666;0.3355408;1.667879;1.823872;0.7701125;0.9352101;3.013495;1.125096;0.6568562;4.281893;0.3355408;1.667879;1.823872;0.7701125;0.9352101;3.013495;1.125096;0.6568562;4.281893
400360.7101;NotLabelled;NONE;16384;-0.2063712;0.3282548;-0.6739874;-0.6288089;-4;2;6;-772;3932;-89;65536;0.3144044;-0.3088643;0.6246537;0.6446398;6;1;-6;-71;4146;29;8192;0.6495845;-0.6693793;0.1578947;0.3240997;-4;-1;-1;1248;3873;-499;32768;0.6260388;-0.6729919;0.2562327;0.299169;7;-3;5;-89;4127;232;256;0.6232687;-0.0235457;-0.7816336;-0.005540166;-2;2;0;53;126;4009;128;-0.5955678;0.09695291;0.7843152;0.1440443;4;2;0;65;1305;-3772;4;0.3379501;0.3601108;-0.5623268;-0.6632484;2;3;0;-3065;2054;-340;16;0.1481994;-0.6897507;0.001385042;0.7087165;4;2;-5;-511;816;3930;2;0.5554016;-0.6927119;-0.3587258;0.2880886;-1;-7;-3;3157;2120;-273;8;-0.02631579;-0.6828254;0.1952908;0.7035044;-2;-49;-13;801;989;3917;0.6496216;1.684187;1.787954;0.6501755;1.734641;1.244745;0.65064;1.776977;0.7670781;0.6515754;1.806136;0.03385824;0.3922074;1.789305;-0.2935447;0.05292198;1.857738;-0.1509213;-0.02824956;0.9470989;-0.0009999387;0;0;0;0.9122835;1.772619;-0.2935479;1.202899;1.820844;-0.1509269;1.299578;0.8850511;0.05696833;1.284778;-0.0583986;0.1434021;0.3377364;1.675779;1.832554;0.7682463;0.9431094;3.023653;1.123883;0.6652426;4.291975;0.3377364;1.675779;1.832554;0.7682463;0.9431094;3.023653;1.123883;0.6652426;4.291975
400381.7331;NotLabelled;NONE;16384;-0.2063712;0.3268698;-0.6746603;-0.6288089;-3;2;5;-690;4066;-131;65536;0.3157895;-0.3074792;0.6246537;0.6446249;8;-1;-6;-71;4110;149;8192;0.6509695;-0.6680324;0.1578947;0.3240997;-4;-4;-3;894;3975;-435;32768;0.6260388;-0.672463;0.2576177;0.299169;8;-1;5;-189;4125;418;256;0.6232687;-0.0235457;-0.7816336;-0.005540166;0;2;0;165;50;3977;128;-0.5955678;0.09695291;0.7843152;0.1440443;3;3;0;27;1337;-3940;4;0.3365651;0.3614958;-0.5609418;-0.6643711;3;19;1;-2959;2018;-344;16;0.1495845;-0.6897507;0.001385042;0.7084254;1;19;0;-209;858;3994;2;0.5567867;-0.6923158;-0.3573407;0.2880886;-3;-13;-3;2943;2308;-219;8;-0.033241;-0.6786703;0.2022161;0.7052732;-4;-86;-24;549;1079;4141;0.6530545;1.688939;1.792534;0.653598;1.738476;1.249241;0.6540536;1.780005;0.7715028;0.6548879;1.807898;0.03823358;0.3955398;1.789939;-0.2891255;0.05611451;1.857885;-0.146602;-0.02779785;0.9471126;0.0009867735;0;0;0;0.915651;1.774379;-0.2891286;1.206169;1.823479;-0.1466073;1.304456;0.8876441;0.06034267;1.287387;-0.05603099;0.1438543;0.3411702;1.680606;1.837154;0.7742578;0.9453263;3.025707;1.130051;0.6674588;4.293985;0.3411702;1.680606;1.837154;0.7742578;0.9453263;3.025707;1.130051;0.6674588;4.293985
400402.7215;NotLabelled;NONE;16384;-0.2077562;0.3268698;-0.674235;-0.6288089;-3;1;4;-674;3954;-73;65536;0.3171745;-0.3060942;0.6246537;0.6446041;8;0;-5;-107;4104;19;8192;0.6509695;-0.6683741;0.1592798;0.3227147;-6;-1;-3;896;4035;-403;32768;0.6274238;-0.6712538;0.2590028;0.2977839;8;-1;6;-109;4011;300;256;0.6232687;-0.0235457;-0.7816336;-0.005540166;-3;1;0;123;200;4017;128;-0.5955678;0.09556787;0.7847382;0.1426593;1;0;0;111;1409;-3998;4;0.333795;0.3628809;-0.5595568;-0.6661791;1;38;-2;-2523;2116;-426;16;0.1537396;-0.6897507;-0.001385042;0.7075353;0;66;12;-135;748;4130;2;0.5554016;-0.6936929;-0.3545706;0.2908587;-5;-31;-1;2445;2510;-181;8;-0.04293629;-0.6717451;0.2119114;0.7085256;-9;-129;-36;267;1373;4089;0.6526285;1.689159;1.797971;0.653172;1.738696;1.254678;0.6536276;1.780225;0.7769402;0.6544617;1.808118;0.04367107;0.3951138;1.790159;-0.2836881;0.05568847;1.858105;-0.1411646;-0.02863339;0.9470775;0.004602114;0;0;0;0.9152249;1.774599;-0.2836912;1.205743;1.823699;-0.1411699;1.307141;0.8877559;0.06377721;1.28964;-0.05607677;0.1453943;0.3407442;1.680826;1.842591;0.7754707;0.9462962;3.031009;1.131142;0.665858;4.298755;0.3407442;1.680826;1.842591;0.7754707;0.9462962;3.031009;1.131142;0.665858;4.298755
400423.7203;NotLabelled;NONE;16384;-0.2091413;0.3254848;-0.6744769;-0.6288089;-3;5;6;-642;4070;3;65536;0.3171745;-0.3060942;0.6260388;0.643259;7;1;-5;-183;4186;55;8192;0.6509695;-0.6680425;0.1606648;0.3227147;-4;-4;-3;804;4093;-501;32768;0.6274238;-0.6713309;0.2603878;0.2963989;8;0;4;-83;4141;290;256;0.6232687;-0.02216066;-0.7816827;-0.004155125;-4;1;0;195;228;4033;128;-0.5955678;0.09556787;0.7847382;0.1426593;3;3;0;-29;1403;-3936;4;0.3268698;0.368421;-0.5554016;-0.6700382;0;76;-1;-2469;1956;-674;16;0.1634349;-0.6925207;-0.01108033;0.7025534;-4;132;32;173;788;4132;2;0.5540166;-0.6957418;-0.3504155;0.2936288;-3;-47;-6;2353;2700;97;8;-0.0567867;-0.6620498;0.2243767;0.7128257;-11;-142;-42;-53;1199;4009;0.651158;1.69347;1.803703;0.651678;1.74087;1.260219;0.652113;1.780519;0.7823211;0.6529472;1.808412;0.04905206;0.3935992;1.790453;-0.2783071;0.05417391;1.858399;-0.1357838;-0.02946092;0.9470279;0.008219782;0;0;0;0.9137104;1.774892;-0.2783099;1.204229;1.823993;-0.1357892;1.303209;0.8871737;0.06631839;1.286329;-0.05709219;0.1429008;0.3392757;1.685313;1.848368;0.775282;0.9489379;3.035175;1.130838;0.6660635;4.302413;0.3392757;1.685313;1.848368;0.775282;0.9489379;3.035175;1.130838;0.6660635;4.302413
400445.7008;NotLabelled;NONE;16384;-0.2105263;0.3254848;-0.6740458;-0.6288089;-3;7;6;-676;4076;101;65536;0.3185596;-0.3047091;0.6260388;0.6432321;6;1;-5;-35;4098;7;8192;0.6509695;-0.6680425;0.1606648;0.3227147;-5;-1;-4;764;4053;-453;32768;0.6288089;-0.6701054;0.2617728;0.2950138;10;2;3;-119;4119;318;256;0.6232687;-0.02216066;-0.7816827;-0.004155125;-2;1;0;225;236;3963;128;-0.5955678;0.09418282;0.7849057;0.1426593;4;9;3;129;1501;-3754;4;0.3074792;0.3836565;-0.5470914;-0.6774623;-15;89;2;-3579;2676;-116;16;0.1980609;-0.7056634;-0.04709141;0.6786703;-14;192;61;1177;964;4138;2;0.5554016;-0.6970063;-0.3421052;0.2977839;-15;-61;-10;2581;2816;229;8;-0.06786703;-0.6523545;0.2354571;0.7172082;-16;-117;-43;159;1091;3723;0.6545419;1.697989;1.808345;0.6550619;1.745389;1.264861;0.655497;1.785038;0.7869636;0.656235;1.810075;0.05359167;0.3968574;1.790728;-0.2736649;0.05741885;1.85908;-0.1313676;-0.02590087;0.9471239;0.009066606;0;0;0;0.9169753;1.775395;-0.2736681;1.207488;1.825177;-0.1313727;1.306096;0.8879069;0.06881785;1.286957;-0.05654883;0.1424683;0.3426595;1.689831;1.853011;0.7803959;0.9532295;3.039039;1.125808;0.6694518;4.308877;0.3426595;1.689831;1.853011;0.7803959;0.9532295;3.039039;1.125808;0.6694518;4.308877
400466.7052;NotLabelled;NONE;16384;-0.2132964;0.3254848;-0.6744655;-0.6274238;-3;4;4;-868;3994;177;65536;0.3199446;-0.3033241;0.6274238;0.6418483;7;0;-9;-109;4118;-5;8192;0.6523545;-0.6670238;0.1620499;0.3213296;-4;-1;-4;770;3917;-419;32768;0.6301939;-0.668803;0.2617728;0.2950138;9;0;4;-115;4045;234;256;0.6232687;-0.02216066;-0.7816827;-0.004155125;-1;1;-1;81;294;3941;128;-0.5969529;0.09279778;0.7837647;0.1440443;2;2;5;305;1429;-3748;4;0.2977839;0.3905817;-0.5457063;-0.6789516;-28;68;1;-4169;2830;-510;16;0.2105263;-0.7115394;-0.06094183;0.66759;-22;137;62;657;1142;3632;2;0.5554016;-0.7013879;-0.3240997;0.3074792;-23;-60;-10;3981;2358;-279;8;-0.08587258;-0.6357341;0.2479224;0.7259494;-24;-55;-42;1833;1095;2983;0.6530617;1.699978;1.813885;0.6535718;1.746462;1.270322;0.653998;1.785306;0.7923588;0.654736;1.810343;0.0589866;0.3953584;1.790997;-0.2682698;0.0559198;1.859349;-0.1259725;-0.02672014;0.9470589;0.01268652;0;0;0;0.9154763;1.775664;-0.268273;1.205989;1.825446;-0.1259776;1.304565;0.888175;0.07422829;1.286065;-0.05667424;0.1428295;0.3411802;1.691896;1.85857;0.7721906;0.9525063;3.045327;1.063802;0.6622469;4.327138;0.3411802;1.691896;1.85857;0.7721906;0.9525063;3.045327;1.063802;0.6622469;4.327138
400486.7106;NotLabelled;NONE;16384;-0.2132964;0.3254848;-0.6744655;-0.6274238;-3;-3;4;-828;4028;25;65536;0.3213296;-0.301939;0.6274238;0.6418095;5;-2;-10;-63;4062;-3;8192;0.6523545;-0.6666858;0.1634349;0.3213296;-3;-1;-2;734;4031;-191;32768;0.6301939;-0.668869;0.2631579;0.2936288;6;-3;3;-25;4029;126;256;0.6232687;-0.02216066;-0.7816827;-0.004155125;-2;0;-3;-37;266;3871;128;-0.5969529;0.09279778;0.7837647;0.1440443;0;-1;6;435;1439;-3760;4;0.2908587;0.3961219;-0.5457063;-0.6787439;-34;27;0;-4133;2274;-1034;16;0.2188366;-0.7181343;-0.0734072;0.6565097;-35;108;61;-1237;966;3578;2;0.5567867;-0.7016217;-0.3171745;0.3116343;-28;-28;-5;3893;2312;-979;8;-0.09556787;-0.6274238;0.2534626;0.7300431;-25;-99;-48;2861;1053;2569;0.6578206;1.699884;1.822417;0.6583338;1.74665;1.278879;0.6587628;1.785741;0.8009354;0.6595008;1.810779;0.06756306;0.4001231;1.791432;-0.2596932;0.06068458;1.859784;-0.1173959;-0.02396523;0.9470631;0.01715254;0;0;0;0.9202411;1.776099;-0.2596964;1.210754;1.825881;-0.1174009;1.310035;0.8876597;0.07794487;1.294443;-0.05739224;0.1444325;0.345939;1.691778;1.867097;0.7656813;0.9479059;3.055091;1.031268;0.6541227;4.341748;0.345939;1.691778;1.867097;0.7656813;0.9479059;3.055091;1.031268;0.6541227;4.341748
400507.7114;NotLabelled;NONE;16384;-0.2132964;0.3240997;-0.6751321;-0.6274238;-5;-4;6;-694;4012;-85;65536;0.3227147;-0.300554;0.6274238;0.6417646;6;0;-8;-185;4178;-29;8192;0.6523545;-0.6666858;0.1634349;0.3213296;-6;-4;0;506;4033;-121;32768;0.6301939;-0.6683224;0.2645429;0.2936288;4;-6;1;-7;4083;158;256;0.6246537;-0.02216066;-0.7805763;-0.004155125;-3;-1;-6;-71;126;4043;128;-0.5983379;0.09279778;0.7827078;0.1440443;0;-5;6;377;1355;-3866;4;0.2867036;0.398892;-0.5484765;-0.6766534;-33;17;2;-3325;2022;-1464;16;0.2313019;-0.7236031;-0.0900277;0.6440443;-30;147;63;-2607;1422;2452;2;0.5567867;-0.7016298;-0.3130194;0.3157895;-21;-26;0;3117;2000;-1419;8;-0.1108033;-0.6177285;0.2645429;0.7322234;-17;-120;-40;3181;1039;2493;0.6570178;1.699791;1.826042;0.657531;1.746557;1.282503;0.6579601;1.785649;0.8045594;0.6586981;1.810687;0.07118696;0.3993204;1.79134;-0.2560694;0.05988184;1.859692;-0.113772;-0.0247691;0.9469705;0.02077542;0;0;0;0.9194383;1.776007;-0.2560725;1.209951;1.825788;-0.113777;1.308805;0.8871293;0.07967174;1.290957;-0.05808568;0.1432142;0.3451362;1.691685;1.870721;0.752378;0.9449451;3.061264;0.9886253;0.6515718;4.353721;0.3451362;1.691685;1.870721;0.752378;0.9449451;3.061264;0.9886253;0.6515718;4.353721
400527.7375;NotLabelled;NONE;16384;-0.2132964;0.3227147;-0.6757953;-0.6274238;-4;-5;7;-662;4148;-181;65536;0.3227147;-0.299169;0.6274238;0.6424115;7;-3;-8;-151;4144;125;8192;0.6537396;-0.6642932;0.16759;0.3213296;-6;-10;-2;816;4051;-463;32768;0.6315789;-0.6658508;0.265928;0.2950138;6;-3;0;-105;4149;338;256;0.6246537;-0.02077562;-0.7806144;-0.004155125;-1;-1;-7;-15;42;4129;128;-0.599723;0.09279778;0.7816471;0.1440443;-1;-8;5;267;1203;-3882;4;0.2825485;0.4016621;-0.5498615;-0.6756377;-28;22;8;-2819;1790;-1568;16;0.2465374;-0.7268803;-0.1094183;0.6315789;-25;155;54;-3813;996;2392;2;0.5567867;-0.7022188;-0.3088643;0.3185596;-16;-34;-1;2483;2098;-1143;8;-0.1246537;-0.6080332;0.2756233;0.7340224;-18;-107;-29;3675;1303;2271;0.6570257;1.699946;1.831706;0.6575387;1.746687;1.288165;0.6579673;1.785758;0.8102198;0.6587042;1.810833;0.07684892;0.399328;1.791488;-0.2504087;0.05988505;1.859812;-0.1081082;-0.02565106;0.946862;0.02430957;0;0;0;0.9194469;1.776186;-0.2504124;1.209957;1.825979;-0.1081142;1.308124;0.8873198;0.08568406;1.289622;-0.05801344;0.1472515;0.345144;1.691842;1.876386;0.7329464;0.9404626;3.070495;0.9363645;0.6459389;4.368264;0.345144;1.691842;1.876386;0.7329464;0.9404626;3.070495;0.9363645;0.6459389;4.368264
400548.7108;NotLabelled;NONE;16384;-0.2146814;0.3213296;-0.6747285;-0.6288089;-2;-4;6;-616;3948;-115;65536;0.3240997;-0.2963989;0.6288089;0.6416436;8;-6;-9;-201;4078;5;8192;0.6537396;-0.6642932;0.16759;0.3213296;-3;-8;-2;1024;3971;-561;32768;0.6315789;-0.6658508;0.265928;0.2950138;7;0;2;-187;4081;234;256;0.6260388;-0.02077562;-0.7795041;-0.004155125;0;0;-7;115;-20;4049;128;-0.599723;0.09279778;0.7816471;0.1440443;-2;-1;5;25;1221;-3822;4;0.2728532;0.4044321;-0.5512465;-0.6768405;-6;22;16;-3749;1882;-1482;16;0.2631579;-0.7299445;-0.134349;0.6163435;-15;37;9;-4433;1392;2170;2;0.5567867;-0.7027363;-0.3033241;0.3227147;-10;-37;-8;2791;2230;-1385;8;-0.134349;-0.602493;0.2825485;0.7342471;-11;-41;-11;3781;1281;2193;0.6563773;1.703024;1.835258;0.6568897;1.749741;1.291716;0.6573179;1.78879;0.8137684;0.6579666;1.812596;0.08035517;0.3986175;1.792123;-0.2468555;0.05903441;1.85996;-0.1046563;-0.0268965;0.9467845;0.02594232;0;0;0;0.9187683;1.777946;-0.2468582;1.209176;1.828612;-0.1046616;1.309224;0.8885868;0.08139777;1.295035;-0.05701125;0.1399729;0.3444956;1.694922;1.879939;0.7214806;0.9398744;3.075198;0.901919;0.6434443;4.375928;0.3444956;1.694922;1.879939;0.7214806;0.9398744;3.075198;0.901919;0.6434443;4.375928
