SEP=;
index;label;segment;RightUpperArm_boneIndex;RightUpperArm_quat9x_w;RightUpperArm_quat9x_x;RightUpperArm_quat9x_y;RightUpperArm_quat9x_z;RightUpperArm_gyroscope_x;RightUpperArm_gyroscope_y;RightUpperArm_gyroscope_z;RightUpperArm_accelerometer_x;RightUpperArm_accelerometer_y;RightUpperArm_accelerometer_z;RightLowerArm_boneIndex;RightLowerArm_quat9x_w;RightLowerArm_quat9x_x;RightLowerArm_quat9x_y;RightLowerArm_quat9x_z;RightLowerArm_gyroscope_x;RightLowerArm_gyroscope_y;RightLowerArm_gyroscope_z;RightLowerArm_accelerometer_x;RightLowerArm_accelerometer_y;RightLowerArm_accelerometer_z;LeftUpperArm_boneIndex;LeftUpperArm_quat9x_w;LeftUpperArm_quat9x_x;LeftUpperArm_quat9x_y;LeftUpperArm_quat9x_z;LeftUpperArm_gyroscope_x;LeftUpperArm_gyroscope_y;LeftUpperArm_gyroscope_z;LeftUpperArm_accelerometer_x;LeftUpperArm_accelerometer_y;LeftUpperArm_accelerometer_z;LeftLowerArm_boneIndex;LeftLowerArm_quat9x_w;LeftLowerArm_quat9x_x;LeftLowerArm_quat9x_y;LeftLowerArm_quat9x_z;LeftLowerArm_gyroscope_x;LeftLowerArm_gyroscope_y;LeftLowerArm_gyroscope_z;LeftLowerArm_accelerometer_x;LeftLowerArm_accelerometer_y;LeftLowerArm_accelerometer_z;Chest_boneIndex;Chest_quat9x_w;Chest_quat9x_x;Chest_quat9x_y;Chest_quat9x_z;Chest_gyroscope_x;Chest_gyroscope_y;Chest_gyroscope_z;Chest_accelerometer_x;Chest_accelerometer_y;Chest_accelerometer_z;Spine_boneIndex;Spine_quat9x_w;Spine_quat9x_x;Spine_quat9x_y;Spine_quat9x_z;Spine_gyroscope_x;Spine_gyroscope_y;Spine_gyroscope_z;Spine_accelerometer_x;Spine_accelerometer_y;Spine_accelerometer_z;RightUpperLeg_boneIndex;RightUpperLeg_quat9x_w;RightUpperLeg_quat9x_x;RightUpperLeg_quat9x_y;RightUpperLeg_quat9x_z;RightUpperLeg_gyroscope_x;RightUpperLeg_gyroscope_y;RightUpperLeg_gyroscope_z;RightUpperLeg_accelerometer_x;RightUpperLeg_accelerometer_y;RightUpperLeg_accelerometer_z;RightLowerLeg_boneIndex;RightLowerLeg_quat9x_w;RightLowerLeg_quat9x_x;RightLowerLeg_quat9x_y;RightLowerLeg_quat9x_z;RightLowerLeg_gyroscope_x;RightLowerLeg_gyroscope_y;RightLowerLeg_gyroscope_z;RightLowerLeg_accelerometer_x;RightLowerLeg_accelerometer_y;RightLowerLeg_accelerometer_z;LeftUpperLeg_boneIndex;LeftUpperLeg_quat9x_w;LeftUpperLeg_quat9x_x;LeftUpperLeg_quat9x_y;LeftUpperLeg_quat9x_z;LeftUpperLeg_gyroscope_x;LeftUpperLeg_gyroscope_y;LeftUpperLeg_gyroscope_z;LeftUpperLeg_accelerometer_x;LeftUpperLeg_accelerometer_y;LeftUpperLeg_accelerometer_z;LeftLowerLeg_boneIndex;LeftLowerLeg_quat9x_w;LeftLowerLeg_quat9x_x;LeftLowerLeg_quat9x_y;LeftLowerLeg_quat9x_z;LeftLowerLeg_gyroscope_x;LeftLowerLeg_gyroscope_y;LeftLowerLeg_gyroscope_z;LeftLowerLeg_accelerometer_x;LeftLowerLeg_accelerometer_y;LeftLowerLeg_accelerometer_z;pelvis_x;pelvis_y;pelvis_z;lowerSpine_x;lowerSpine_y;lowerSpine_z;middleSpine_x;middleSpine_y;middleSpine_z;upperSpine_x;upperSpine_y;upperSpine_z;rightClavicle_x;rightClavicle_y;rightClavicle_z;rightShoulder_x;rightShoulder_y;rightShoulder_z;rightElbow_x;rightElbow_y;rightElbow_z;rightWrist_x;rightWrist_y;rightWrist_z;leftClavicle_x;leftClavicle_y;leftClavicle_z;leftShoulder_x;leftShoulder_y;leftShoulder_z;leftElbow_x;leftElbow_y;leftElbow_z;leftWrist_x;leftWrist_y;leftWrist_z;rightHip_x;rightHip_y;rightHip_z;rightKnee_x;rightKnee_y;rightKnee_z;rightAnkle_x;rightAnkle_y;rightAnkle_z;leftHip_x;leftHip_y;leftHip_z;leftKnee_x;leftKnee_y;leftKnee_z;leftAnkle_x;leftAnkle_y;leftAnkle_z;
1072251.7453;NotLabelled;NONE;16384;0.2271468;0.07894737;-0.7801239;-0.5775623;0;0;-18;1252;3112;2337;65536;0.03047091;0.02077562;0.8115611;0.5831025;-19;42;-41;-2334;2198;-1719;8192;0.6385041;-0.683192;0.2797784;0.2174515;-38;55;-43;-584;3485;-745;32768;0.6052631;-0.6781232;0.3753462;0.1814404;50;19;-9;2201;3409;68;256;0.6575754;-0.4958449;-0.5304709;-0.200831;13;52;26;1807;3484;1211;128;0.5415512;-0.5641763;-0.5263157;-0.333795;7;92;23;-1161;4015;-1032;4;-0.1495845;-0.2049861;-0.7314108;-0.632964;89;6;-80;4303;5682;1792;16;0.005540166;-0.6606648;-0.1911357;0.7259191;-158;67;51;-503;1068;9600;2;0.6606648;-0.7358509;0.1191136;-0.08864266;-2;-8;14;-705;4162;-1043;8;-0.3185596;-0.6274238;0.01800554;0.7103062;-2;-29;-4;2483;-1341;3079;0.9753241;-0.2053183;0.6488142;0.9808444;0.2977266;0.4377769;0.9856881;0.7391205;0.25041;1.153774;1.373457;-0.07795876;0.974046;1.705161;-0.2580102;0.6192443;1.69868;-0.1387925;0.2683609;0.8946738;0.1591761;0;0;0;1.477032;1.571882;-0.2580123;1.731431;1.403976;-0.1387958;1.663292;0.4454069;-0.2078998;1.549765;-0.4621667;-0.4553063;0.6630759;-0.246816;0.6593575;0.6639689;-1.451592;-0.1709276;0.3051366;-1.18659;1.099246;0.6630759;-0.246816;0.6593575;0.6639689;-1.451592;-0.1709276;0.3051366;-1.18659;1.099246
1072271.7434;NotLabelled;NONE;16384;0.2243767;0.07894737;-0.7809252;-0.5775623;-4;27;-11;1920;3448;2251;65536;0.04293629;0.02077562;0.8099995;0.5844875;-28;68;-36;-2736;2202;-1733;8192;0.6412742;-0.6850147;0.2783934;0.2049861;-38;61;-40;-846;3975;-715;32768;0.6108033;-0.6746063;0.3753462;0.1759003;49;8;1;2373;3945;234;256;0.6527353;-0.4930748;-0.5373961;-0.2049861;-2;61;23;1841;4130;1115;128;0.5401662;-0.5552601;-0.5318559;-0.3421052;12;82;26;-1149;4609;-1656;4;-0.1454294;-0.1952908;-0.7252026;-0.6440443;78;16;-51;4679;6546;1718;16;-0.002770083;-0.66482;-0.2119114;0.7163102;-134;24;37;-75;2618;6978;2;0.6606648;-0.736402;0.1177285;-0.08587258;-6;-1;2;-235;4062;-905;8;-0.3213296;-0.6274238;0.02216066;0.7089397;0;-21;1;2425;-1417;3071;0.9537889;-0.2084764;0.6594859;0.9592965;0.2934184;0.445726;0.964129;0.7337899;0.2559703;1.136443;1.368659;-0.06916159;0.9589413;1.702289;-0.2478578;0.6039536;1.697373;-0.1291202;0.2542692;0.8956013;0.1761865;0;0;0;1.461118;1.565992;-0.2478603;1.714351;1.395997;-0.1291238;1.651992;0.4381871;-0.2127149;1.547488;-0.468691;-0.4665601;0.6415412;-0.2499167;0.6702725;0.6907538;-1.514953;-0.06329343;0.2801874;-1.151232;1.166125;0.6415412;-0.2499167;0.6702725;0.6907538;-1.514953;-0.06329343;0.2801874;-1.151232;1.166125
1072293.7541;NotLabelled;NONE;16384;0.2216066;0.08587258;-0.7809854;-0.5775623;-9;63;-2;2418;4040;2167;65536;0.05817174;0.01523546;0.8071632;0.5872576;-39;100;-29;-3242;2324;-1651;8192;0.6481994;-0.685145;0.2756233;0.1855956;-29;41;-17;-884;4633;-155;32768;0.6191136;-0.667123;0.3795014;0.166205;40;7;23;1907;4209;454;256;0.6495742;-0.4778393;-0.5526316;-0.2105263;-43;68;16;1891;5044;1321;128;-0.5373961;0.5318559;0.5474034;0.3587258;26;101;24;-967;4697;-650;4;-0.1468144;-0.1855956;-0.7212756;-0.6509695;54;47;-35;3679;5702;1582;16;-0.01108033;-0.666205;-0.2243767;0.7111281;-91;18;19;-97;2200;5420;2;0.6606648;-0.7366221;0.1163435;-0.08587258;-6;9;-7;47;4254;-775;8;-0.3227147;-0.6274238;0.0235457;0.7082656;2;-3;5;2159;-1545;2995;0.9413377;-0.202999;0.6788086;0.9468247;0.2970262;0.4607118;0.951639;0.7357397;0.2671511;1.12401;1.369752;-0.0596202;0.9465327;1.703025;-0.2390028;0.5916206;1.698547;-0.1200218;0.2465737;0.8955112;0.1872353;0;0;0;1.448651;1.566516;-0.2390053;1.70189;1.396698;-0.1200254;1.640353;0.4402204;-0.2182023;1.543492;-0.4657668;-0.4781872;0.6290911;-0.2443439;0.6899832;0.6908247;-1.528015;-0.009472311;0.2748242;-1.114357;1.202204;0.6290911;-0.2443439;0.6899832;0.6908247;-1.528015;-0.009472311;0.2748242;-1.114357;1.202204
1072315.7977;NotLabelled;NONE;16384;0.2119114;0.09695291;-0.7813538;-0.5789474;-13;104;9;2206;4022;1917;65536;0.07479224;0.005540166;0.8038923;0.5900277;-45;129;-26;-3602;2284;-1573;8192;0.6523545;-0.6832328;0.2742382;0.1800554;-23;28;-7;-764;4405;259;32768;0.6191136;-0.6668986;0.3822715;0.1606648;31;5;28;1725;3859;342;256;0.6507043;-0.468144;-0.5595568;-0.2105263;-57;70;14;1439;4168;1095;128;-0.536011;0.5180055;0.5564593;0.367036;30;110;29;-1159;4249;-792;4;-0.1509695;-0.1759003;-0.7190821;-0.6551247;37;62;-26;1931;4356;1592;16;-0.01523546;-0.66759;-0.2354571;0.7061526;-58;26;9;-499;362;4898;2;0.6620498;-0.7356475;0.1135734;-0.08725762;-10;23;-18;193;4194;-691;8;-0.3227147;-0.6288089;0.02216066;0.707081;1;20;8;2209;-1513;2941;0.9372573;-0.1788005;0.7153873;0.9426759;0.3149891;0.4835158;0.9474294;0.7481699;0.27787;1.112336;1.374447;-0.067159;0.9308972;1.701334;-0.254168;0.5768898;1.697276;-0.1325068;0.2403514;0.8966179;0.1900106;0;0;0;1.43409;1.568839;-0.2541705;1.689534;1.404306;-0.132511;1.634946;0.4498405;-0.2520577;1.547566;-0.4524051;-0.5279277;0.6250142;-0.2198187;0.7277983;0.6791078;-1.514079;0.04748756;0.299653;-1.064594;1.258398;0.6250142;-0.2198187;0.7277983;0.6791078;-1.514079;0.04748756;0.299653;-1.064594;1.258398
1072337.0199;NotLabelled;NONE;16384;0.1980609;0.1080332;-0.7814765;-0.5817174;-16;138;17;1750;3434;1497;65536;0.09141274;-0.008310249;0.7990754;0.5941828;-51;144;-31;-3730;2196;-1507;8192;0.6551247;-0.6822184;0.2728532;0.1759003;-25;13;-4;-796;4009;417;32768;0.6204986;-0.6653277;0.3850415;0.1551246;25;-6;31;1723;3559;78;256;0.6509327;-0.4570637;-0.567867;-0.2119114;-64;82;13;1473;3752;1051;128;-0.536011;0.5041551;0.5635912;0.3753462;45;121;35;-1373;3903;-694;4;-0.1537396;-0.166205;-0.7182719;-0.6578947;31;39;-20;1175;3972;1356;16;-0.0166205;-0.66759;-0.2396122;0.7047222;-33;20;2;75;-732;4940;2;0.6620498;-0.7354962;0.1038781;-0.09972299;-15;66;-28;-39;4002;-793;8;-0.3157895;-0.6315789;0.0166205;0.7078904;3;35;16;2257;-1635;3051;0.9308805;-0.1598138;0.7512135;0.9362549;0.3299303;0.5109153;0.940969;0.7595243;0.2978774;1.100989;1.379476;-0.06061572;0.9169698;1.701633;-0.2532267;0.5636271;1.698336;-0.1296257;0.2294784;0.8980918;0.1963857;0;0;0;1.420801;1.571588;-0.253229;1.677684;1.410782;-0.1296297;1.629443;0.4566202;-0.2542192;1.537117;-0.4422227;-0.5394301;0.6186401;-0.2006127;0.7643841;0.6772147;-1.501464;0.09714165;0.3033903;-1.026408;1.300015;0.6186401;-0.2006127;0.7643841;0.6772147;-1.501464;0.09714165;0.3033903;-1.026408;1.300015
1072356.7517;NotLabelled;NONE;16384;0.1620499;0.1412742;-0.7813673;-0.5858725;-26;166;26;1066;2584;649;65536;0.1357341;-0.033241;0.7868548;0.601108;-50;162;-61;-3670;1880;-1125;8192;0.6578947;-0.6797013;0.2742382;0.1731302;-27;2;-4;-700;3633;173;32768;0.6204986;-0.6627334;0.3905817;0.1523546;25;-19;32;1377;3237;-428;256;0.6501276;-0.4445983;-0.5775623;-0.2146814;-72;93;13;1559;3398;971;128;-0.534626;0.4861496;0.5750142;0.3836565;64;142;40;-1473;3609;-928;4;-0.1523546;-0.1551246;-0.7172269;-0.6620498;14;2;-22;1159;3452;390;16;-0.01939058;-0.66482;-0.2534626;0.7024209;-42;16;-12;617;-2392;3896;2;0.6620498;-0.7348791;0.09833795;-0.1094183;-17;63;-28;-621;4076;-675;8;-0.3116343;-0.634349;0.01246537;0.7073401;5;34;20;2059;-1601;3297;0.9225125;-0.1348441;0.7842706;0.927844;0.3510104;0.5362;0.9325205;0.7771555;0.3163449;1.086293;1.390401;-0.05614352;0.8990044;1.707106;-0.2545572;0.5463595;1.704023;-0.1289735;0.2172879;0.9012219;0.195912;0;0;0;1.403723;1.580548;-0.2545598;1.662378;1.424182;-0.1289775;1.616843;0.4702946;-0.2566536;1.521427;-0.4252522;-0.551064;0.6102744;-0.1754277;0.7981441;0.6635861;-1.483485;0.144689;0.3121306;-0.9989617;1.350527;0.6102744;-0.1754277;0.7981441;0.6635861;-1.483485;0.144689;0.3121306;-0.9989617;1.350527
1072376.7486;NotLabelled;NONE;16384;0.1426593;0.1592798;-0.7806451;-0.5872576;-29;168;31;948;2460;309;65536;0.1648199;-0.04432133;0.7785893;0.6038781;-48;178;-76;-3442;1870;-669;8192;0.6606648;-0.6773618;0.2742382;0.1717452;-30;1;-5;-556;3089;-185;32768;0.6204986;-0.6600708;0.3961219;0.1495845;28;-25;31;1097;2915;-656;256;0.6499712;-0.4293629;-0.5886427;-0.2160665;-80;106;15;1521;3018;967;128;-0.534626;0.4653739;0.5864846;0.3919668;71;155;42;-1395;3451;-1138;4;-0.1495845;-0.1537396;-0.7155439;-0.66482;22;-10;-16;1313;4822;1480;16;-0.0235457;-0.6634349;-0.2576177;0.7020918;-27;-2;-11;603;-2362;4748;2;0.6620498;-0.7341387;0.09418282;-0.1177285;-24;50;-32;-1231;4080;-767;8;-0.3088643;-0.6371191;0.009695291;0.7061077;7;31;21;1969;-1607;3247;0.8985718;-0.1032665;0.8538481;0.9038385;0.3766729;0.5945173;0.9084572;0.797577;0.3647862;1.054633;1.403751;-0.02205747;0.8634037;1.714272;-0.2263999;0.5114798;1.710807;-0.09881994;0.1800051;0.9048983;0.2157646;0;0;0;1.369248;1.592291;-0.226403;1.629988;1.441087;-0.09882462;1.588159;0.4877077;-0.2314618;1.485983;-0.4043691;-0.5340289;0.5863373;-0.1435146;0.8687439;0.630808;-1.463895;0.2398732;0.306564;-0.9498279;1.441093;0.5863373;-0.1435146;0.8687439;0.630808;-1.463895;0.2398732;0.306564;-0.9498279;1.441093
1072397.7428;NotLabelled;NONE;16384;0.1218837;0.1772853;-0.7792394;-0.5886427;-32;172;40;870;2520;-37;65536;0.1952908;-0.05540166;0.7697069;0.6052631;-42;190;-86;-3248;2044;-359;8192;0.66759;-0.6726113;0.2742382;0.1634349;-26;35;-12;-174;2535;-319;32768;0.6232687;-0.6515926;0.4072022;0.1454294;31;-21;19;453;2487;-422;256;0.6505598;-0.4113573;-0.599723;-0.2188366;-89;114;18;1381;2908;1395;128;-0.533241;0.4404432;0.6030357;0.3975069;95;159;34;-867;3589;-1314;4;-0.1495845;-0.1551246;-0.713955;-0.666205;17;-24;23;3017;7088;2288;16;-0.02631579;-0.6634349;-0.2562327;0.7025002;2;-34;-1;-1119;-996;5960;2;0.6634349;-0.731441;0.09279778;-0.1274238;-30;44;-35;-1459;4294;-1183;8;-0.3047091;-0.6398892;0.005540166;0.7054527;6;30;20;1905;-1737;3511;0.8855677;-0.07053256;0.9186353;0.8907557;0.4022361;0.6464505;0.8953047;0.8167902;0.4054474;1.032734;1.413016;0.0003676414;0.837002;1.715606;-0.2114727;0.485985;1.712299;-0.08141389;0.1577594;0.904863;0.2326624;0;0;0;1.344051;1.598734;-0.2114757;1.607157;1.453874;-0.08141851;1.568421;0.500549;-0.2153859;1.458283;-0.3879173;-0.5256822;0.5733379;-0.110363;0.9347038;0.6058218;-1.435146;0.3144193;0.3173509;-0.9060996;1.518255;0.5733379;-0.110363;0.9347038;0.6058218;-1.435146;0.3144193;0.3173509;-0.9060996;1.518255
1072417.902;NotLabelled;NONE;16384;0.09833795;0.1952908;-0.7782615;-0.5886427;-34;181;55;760;3230;-367;65536;0.2271468;-0.06786703;0.7599046;0.6052631;-34;197;-93;-3028;2496;-265;8192;0.672627;-0.6703601;0.2714681;0.1565097;-23;50;-6;-360;2311;143;32768;0.6246537;-0.6482602;0.4113573;0.1426593;28;-12;18;523;2269;-584;256;0.6511081;-0.3698061;-0.6246537;-0.2216066;-102;116;14;-307;2840;1171;128;-0.536011;0.3961219;0.6271625;0.4030471;113;120;17;581;3937;-1368;4;-0.1551246;-0.1592798;-0.710556;-0.66759;9;35;43;2589;6364;554;16;-0.033241;-0.666205;-0.2506925;0.7015834;-3;-60;-8;-2039;-954;4516;2;0.66482;-0.7288583;0.09141274;-0.1357341;-29;37;-41;-1815;4522;-1167;8;-0.300554;-0.6426592;0.002770083;0.7047331;7;31;18;1431;-1883;3131;0.8775243;-0.0271256;0.9972647;0.8825965;0.4350997;0.707534;0.8870432;0.8403207;0.4511472;1.011939;1.425679;0.02662438;0.8098457;1.718252;-0.1931652;0.4598099;1.71334;-0.06053784;0.135872;0.9033791;0.251481;0;0;0;1.318735;1.609674;-0.193168;1.585052;1.473255;-0.06054187;1.557654;0.5213181;-0.2066272;1.446425;-0.3605363;-0.5348773;0.5653012;-0.0663228;1.014944;0.5844411;-1.390303;0.3923926;0.3353097;-0.8586445;1.603838;0.5653012;-0.0663228;1.014944;0.5844411;-1.390303;0.3923926;0.3353097;-0.8586445;1.603838
1072438.7595;NotLabelled;NONE;16384;0.07063711;0.2105263;-0.7762451;-0.5900277;-38;187;72;182;3924;-585;65536;0.2590028;-0.08033241;0.7495302;0.6038781;-28;202;-97;-2844;3098;-65;8192;0.6755511;-0.6703601;0.267313;0.1509695;-22;42;1;-832;2043;775;32768;0.6260388;-0.6457592;0.4141274;0.1398892;27;-9;16;355;1871;-820;256;0.6518515;-0.3490305;-0.6357341;-0.2216066;-113;104;12;-919;2906;2029;128;-0.5387812;0.3739612;0.6382954;0.4030471;117;89;24;839;4267;-1298;4;-0.166205;-0.1523546;-0.7121646;-0.66482;3;93;18;213;2278;-650;16;-0.03601108;-0.66482;-0.2493075;0.703252;-5;26;-15;-2419;-2228;3590;2;0.6703601;-0.72114;0.09279778;-0.1481994;-33;15;-23;-1551;3452;-1013;8;-0.2922437;-0.6468144;-0.004155125;0.7044199;7;39;16;1927;-1379;3189;0.8909829;0.06864476;1.121696;0.8958268;0.5100647;0.8011549;0.9000716;0.8968841;0.5177629;0.9980711;1.453415;0.04964739;0.7826338;1.721674;-0.18778;0.4347588;1.714187;-0.04969963;0.1235612;0.9008466;0.2664687;0;0;0;1.295093;1.631437;-0.1877828;1.567894;1.514655;-0.04970431;1.541128;0.5635601;-0.2012885;1.411316;-0.3150468;-0.53142;0.5787743;0.03075051;1.142237;0.5690135;-1.285081;0.5024329;0.3988209;-0.7519023;1.726803;0.5787743;0.03075051;1.142237;0.5690135;-1.285081;0.5024329;0.3988209;-0.7519023;1.726803
1072459.7247;NotLabelled;NONE;16384;0.009695291;0.2382271;-0.7703148;-0.5914127;-49;178;104;-1394;4296;-1003;65536;0.3227147;-0.1080332;0.7287872;0.5941828;-15;204;-106;-2406;4216;725;8192;0.6789219;-0.6689751;0.2645429;0.1468144;-17;19;9;-1066;2025;1039;32768;0.6274238;-0.6432217;0.4168975;0.1371191;25;-13;11;549;1991;-764;256;0.654949;-0.3282548;-0.6440443;-0.2202216;-118;89;13;-695;3076;2193;128;-0.5429363;0.3545706;0.647517;0.400277;111;74;32;837;4153;-1678;4;-0.1717452;-0.1468144;-0.7094172;-0.66759;36;-21;2;1117;4890;1200;16;-0.01939058;-0.6578947;-0.2645429;0.7048514;16;106;-10;-2213;-3386;2138;2;0.6717451;-0.7186871;0.09279778;-0.1537396;-34;19;-25;-1447;3254;-887;8;-0.2867036;-0.6495845;-0.008310249;0.7041108;4;50;20;1929;-1501;3479;0.8811347;0.1256433;1.211388;0.8858472;0.555087;0.8749688;0.8899756;0.9313205;0.5776647;0.9747316;1.471982;0.08882618;0.7528939;1.727251;-0.1568845;0.4060252;1.718351;-0.0163784;0.1026128;0.8971952;0.2868935;0;0;0;1.26696;1.646665;-0.1568875;1.542712;1.540162;-0.01638353;1.515299;0.5893835;-0.1698223;1.378614;-0.2865331;-0.5042986;0.5689346;0.08852506;1.233422;0.5412115;-1.22288;0.5851112;0.4133104;-0.686363;1.813166;0.5689346;0.08852506;1.233422;0.5412115;-1.22288;0.5851112;0.4133104;-0.686363;1.813166
1072479.744;NotLabelled;NONE;16384;-0.01939058;0.2479224;-0.7681314;-0.5900277;-49;178;118;-2088;4694;-1307;65536;0.3531856;-0.1218837;0.7180061;0.5872576;-6;194;-109;-1880;5176;905;8192;0.6805207;-0.66759;0.2631579;0.1481994;-19;-9;11;-1186;2717;887;32768;0.6288089;-0.6400601;0.4196676;0.1371191;22;-27;5;727;2575;-718;256;0.6563505;-0.3074792;-0.6537396;-0.2174515;-125;63;11;-719;3072;2349;128;-0.5470914;0.33518;0.6551569;0.398892;105;55;26;455;3861;-1116;4;-0.1717452;-0.1468144;-0.705484;-0.6717451;35;1;9;1779;5268;-352;16;-0.001385042;-0.6509695;-0.2783934;0.706211;43;157;3;-1339;-2180;2712;2;0.6745152;-0.7148761;0.09279778;-0.1592798;-36;13;-30;-1609;3732;-561;8;-0.2811634;-0.6523545;-0.01385042;0.7036965;0;60;24;1979;-1789;3583;0.8499399;0.1898711;1.358607;0.8545179;0.6070575;1.007101;0.8585278;0.9724606;0.6965815;0.9295291;1.496134;0.1874766;0.7011819;1.737423;-0.06626439;0.3552893;1.726621;0.07649633;0.05685218;0.8867091;0.3291068;0;0;0;1.216808;1.667515;-0.06626749;1.495427;1.57204;0.07649171;1.471398;0.6216196;-0.07970989;1.330311;-0.2515213;-0.4195716;0.5377486;0.1535635;1.382071;0.5129617;-1.158561;0.7350994;0.4139397;-0.6221695;1.965874;0.5377486;0.1535635;1.382071;0.5129617;-1.158561;0.7350994;0.4139397;-0.6221695;1.965874
1072499.9206;NotLabelled;NONE;16384;-0.05401662;0.2576177;-0.7643396;-0.5886427;-47;177;135;-3206;5484;-1713;65536;0.3822715;-0.132964;0.7078199;0.5789474;7;179;-106;-1358;6188;1037;8192;0.6865155;-0.6592798;0.2645429;0.1551246;-22;-32;27;-1064;3039;725;32768;0.6343702;-0.6274238;0.4279778;0.1440443;10;-50;-20;159;2761;-670;256;0.6578947;-0.2894737;-0.662173;-0.2119114;-129;47;7;-737;2914;2233;128;-0.5526316;0.3185596;0.6637501;0.3905817;145;71;13;137;3963;-612;4;-0.1745152;-0.1454294;-0.7024415;-0.6745152;21;9;2;1731;4118;-134;16;0.0166205;-0.6454294;-0.2880886;0.7072126;41;136;14;-207;-1802;3754;2;0.6786703;-0.7098064;0.09418282;-0.1634349;-39;4;-25;-1505;4066;-539;8;-0.2742382;-0.6537396;-0.02077562;0.7049726;0;57;29;2077;-1763;3551;0.840571;0.2548814;1.467956;0.8450229;0.66055;1.103216;0.848921;1.01578;0.7811065;0.9063691;1.520592;0.2516471;0.6716765;1.747799;-0.009205341;0.3271804;1.736353;0.1368448;0.04107102;0.8806556;0.3472089;0;0;0;1.18847;1.687142;-0.01096928;1.469898;1.602229;0.132946;1.441114;0.6566519;-0.04961991;1.294607;-0.2151306;-0.3906755;0.5283884;0.2193489;1.492685;0.5027139;-1.09367;0.8475654;0.4404172;-0.5618939;2.082742;0.5283884;0.2193489;1.492685;0.5027139;-1.09367;0.8475654;0.4404172;-0.5618939;2.082742
1072520.7358;NotLabelled;NONE;16384;-0.08725762;0.2631579;-0.7615034;-0.5858725;-47;144;140;-3596;5576;-2051;65536;0.4085872;-0.1412742;0.6993212;0.5692521;17;151;-100;-486;6828;1383;8192;0.6886805;-0.6551247;0.265928;0.1606648;-15;-37;24;-804;3023;849;32768;0.6359181;-0.6232687;0.4293629;0.1509695;6;-56;-33;183;2789;-694;256;0.66482;-0.2576177;-0.6750128;-0.1897507;-128;12;15;-519;2172;2737;128;-0.5581717;0.2853186;0.6827539;0.3753462;118;52;4;485;3383;-1226;4;-0.1745152;-0.1468144;-0.6994817;-0.6772853;28;-15;-1;2269;2986;128;16;0.02770083;-0.6440443;-0.2922437;0.7064228;23;64;15;-865;-1470;3836;2;0.6814404;-0.7061743;0.09418282;-0.16759;-39;12;-16;-1657;4336;-543;8;-0.2700831;-0.6578947;-0.02770083;0.7024687;0;51;33;1831;-1969;3331;0.8318503;0.309612;1.559938;0.83614;0.7005163;1.179416;0.8398952;1.042711;0.8434885;0.8909184;1.528142;0.295569;0.6533419;1.742618;0.02667391;0.309085;1.732425;0.1733786;0.02311145;0.8729187;0.3677956;0;0;0;1.170835;1.688227;0.02667081;1.453351;1.612155;0.1733742;1.447563;0.6604787;0.02319264;1.313537;-0.2106354;-0.3246358;0.5196787;0.2750895;1.586191;0.4986393;-1.03716;0.9393399;0.4582773;-0.5174823;2.180563;0.5196787;0.2750895;1.586191;0.4986393;-1.03716;0.9393399;0.4582773;-0.5174823;2.180563
1072540.9678;NotLabelled;NONE;16384;-0.1149584;0.2645429;-0.7584035;-0.5844875;-37;99;127;-2782;4936;-1957;65536;0.432133;-0.1454294;0.6909817;0.5609418;17;114;-96;120;7012;2013;8192;0.6894587;-0.6523545;0.267313;0.166205;-15;-32;25;-292;3009;627;32768;0.6383554;-0.6177285;0.4307479;0.1592798;2;-50;-41;1;2885;-800;256;0.666205;-0.2437673;-0.6821424;-0.1772853;-126;1;15;-715;1984;2783;128;-0.5609418;0.2700831;0.6904095;0.368421;123;40;9;837;3457;-2040;4;-0.1745152;-0.1481994;-0.6951405;-0.6814404;38;-14;-4;2909;2544;288;16;0.03462604;-0.6440443;-0.2936288;0.7055424;16;41;17;-2109;-984;4002;2;0.6855956;-0.7016585;0.09279778;-0.1703601;-37;21;-7;-1669;4360;-151;8;-0.265928;-0.6606648;-0.033241;0.7012128;3;43;35;1539;-2061;3197;0.8252101;0.4277685;1.721637;0.8291757;0.7891351;1.312956;0.8326449;1.105261;0.9523864;0.8747898;1.544592;0.3661489;0.6330995;1.734233;0.08265322;0.2901174;1.733087;0.2326568;0.01052041;0.863814;0.3892449;0;0;0;1.151066;1.684545;0.0826503;1.435429;1.62322;0.2326525;1.436604;0.6710368;0.08561134;1.304335;-0.2029228;-0.2556905;0.513061;0.3953147;1.750654;0.4922534;-0.9160557;1.102014;0.4707938;-0.4082394;2.348605;0.513061;0.3953147;1.750654;0.4922534;-0.9160557;1.102014;0.4707938;-0.4082394;2.348605
1072561.7357;NotLabelled;NONE;16384;-0.1551246;0.2617728;-0.751109;-0.5858725;-1;61;97;-2648;4434;-1113;65536;0.4653739;-0.1440443;0.6762224;0.5526316;9;34;-91;1320;5988;2117;8192;0.6920151;-0.6481994;0.267313;0.1717452;-17;-34;28;-138;3129;533;32768;0.6398683;-0.6135734;0.4307479;0.1689751;2;-42;-49;-127;3107;-760;256;0.6689751;-0.2313019;-0.6872123;-0.1634349;-122;-5;20;-623;2048;3003;128;-0.5650969;0.2534626;0.6976693;0.3601108;128;37;11;513;3463;-2246;4;-0.1772853;-0.1481994;-0.6903373;-0.6855956;34;7;-3;3251;2928;-154;16;0.04293629;-0.6440443;-0.2977839;0.7033407;15;62;8;-3117;-934;3348;2;0.6925207;-0.6943356;0.08864266;-0.1745152;-35;6;4;-1969;4136;277;8;-0.2590028;-0.6689751;-0.04155125;0.6954592;7;17;33;1101;-2245;3339;0.8016478;0.4805422;1.820846;0.8054612;0.8280574;1.400322;0.8087962;1.131964;1.029393;0.8490483;1.547783;0.4261217;0.6064266;1.726317;0.1362808;0.2640193;1.731413;0.2875102;-0.005346629;0.8536431;0.4111695;0;0;0;1.12435;1.676182;0.1362774;1.409235;1.620556;0.2875051;1.41354;0.6677824;0.1443939;1.288523;-0.209533;-0.1909791;0.4895097;0.4490778;1.851044;0.4785913;-0.8614337;1.20043;0.4676975;-0.363688;2.451213;0.4895097;0.4490778;1.851044;0.4785913;-0.8614337;1.20043;0.4676975;-0.363688;2.451213
1072581.7476;NotLabelled;NONE;16384;-0.1717452;0.2617728;-0.7453042;-0.5886427;19;75;78;-2236;4140;-317;65536;0.4764543;-0.1385041;0.6696314;0.5526316;0;8;-79;1438;5432;1865;8192;0.6939584;-0.6440443;0.2686981;0.1772853;-21;-45;30;-60;3319;493;32768;0.6415883;-0.6094183;0.4307479;0.1772853;1;-47;-56;-199;3491;-780;256;0.6717451;-0.2188366;-0.6914313;-0.1509695;-123;-10;26;-355;2104;3325;128;-0.567867;0.2368421;0.7061458;0.3504155;127;35;7;577;3609;-2064;4;-0.1828255;-0.1454294;-0.6814404;-0.6935878;31;8;-10;2523;3102;-832;16;0.06094183;-0.6371191;-0.3074792;0.7041462;2;57;-4;-1421;-1174;3836;2;0.6974341;-0.6897507;0.08587258;-0.1745152;-36;7;8;-1807;3912;307;8;-0.2576177;-0.6731302;-0.04432133;0.6917836;7;4;34;1049;-2193;3389;0.7423954;0.5327466;1.955714;0.7460344;0.864329;1.522515;0.7492154;1.154184;1.140503;0.7883028;1.546106;0.5213658;0.5450645;1.713954;0.2257146;0.203262;1.725946;0.3779197;-0.04257729;0.8352467;0.4453606;0;0;0;1.06284;1.662315;0.2257115;1.348151;1.611765;0.3779145;1.362709;0.6584513;0.2391466;1.245873;-0.2235103;-0.08686113;0.4302701;0.5024328;1.987193;0.43593;-0.8056929;1.33173;0.424;-0.3162301;2.585767;0.4302701;0.5024328;1.987193;0.43593;-0.8056929;1.33173;0.424;-0.3162301;2.585767
1072601.7332;NotLabelled;NONE;16384;-0.1855956;0.265928;-0.7382869;-0.5914127;17;79;56;-1708;4090;431;65536;0.4847645;-0.134349;0.6633395;0.5540166;-11;6;-69;1176;4884;1513;8192;0.6958246;-0.6385041;0.2714681;0.1855956;-16;-51;30;392;3473;305;32768;0.6460221;-0.6038781;0.4265928;0.1897507;0;-43;-67;-399;3813;-484;256;0.6717451;-0.2077562;-0.6977063;-0.1371191;-123;-14;31;-231;2124;3379;128;-0.5706371;0.2229917;0.7124689;0.3421052;119;29;2;741;3643;-2258;4;-0.1842105;-0.1426593;-0.6772853;-0.6978534;32;11;-12;2277;3522;-694;16;0.06371191;-0.6357341;-0.3116343;0.7033257;-7;28;-2;-1585;-1262;3716;2;0.7015068;-0.6855956;0.08310249;-0.1759003;-35;15;16;-1643;3358;301;8;-0.2548476;-0.6772853;-0.04847645;0.6884674;-5;24;44;489;-3921;3663;0.7108543;0.5898879;2.031157;0.7143039;0.9042331;1.58529;0.7173178;1.178889;1.192209;0.7543206;1.547826;0.5589794;0.5100793;1.704874;0.2582648;0.1688446;1.722653;0.4111767;-0.06062957;0.826368;0.4596048;0;0;0;1.027826;1.652948;0.2582616;1.31367;1.607832;0.4111714;1.336671;0.6543052;0.2750381;1.228236;-0.2313871;-0.04367507;0.3987428;0.5608342;2.063935;0.4399901;-0.7444589;1.404112;0.4409387;-0.2660551;2.662466;0.3987428;0.5608342;2.063935;0.4399901;-0.7444589;1.404112;0.4409387;-0.2660551;2.662466
1072622.761;NotLabelled;NONE;16384;-0.1966759;0.2742382;-0.7312338;-0.5927978;12;81;34;-1384;3692;81;65536;0.4930748;-0.132964;0.6562979;0.5554016;-22;26;-62;832;4530;899;8192;0.6983082;-0.6315789;0.2714681;0.199446;-4;-15;24;1210;4275;777;32768;0.6527309;-0.5969529;0.4141274;0.2146814;-12;-17;-73;-181;4361;80;256;0.6717451;-0.1966759;-0.7037197;-0.1218837;-120;-19;34;-287;1874;3429;128;-0.5734072;0.2091413;0.7190047;0.33241;119;32;2;911;3557;-2438;4;-0.1855956;-0.1398892;-0.6731302;-0.7020549;31;16;-13;2077;3870;-648;16;0.06509695;-0.6357341;-0.3130194;0.7025834;-9;13;1;-1945;-1400;3236;2;0.7051793;-0.6828254;0.07756232;-0.1745152;-33;17;35;-1173;3150;565;8;-0.2534626;-0.6814404;-0.05401662;0.6844544;2;20;42;981;-2531;3247;0.6818231;0.6412187;2.085596;0.6851104;0.9407977;1.629676;0.6879815;1.202437;1.227811;0.7246727;1.547657;0.5813292;0.4801835;1.695026;0.2759513;0.1396578;1.720447;0.429363;-0.07419882;0.8198837;0.4691277;0;0;0;0.9976132;1.640032;0.2759484;1.283783;1.598847;0.4293581;1.31633;0.6451211;0.2966046;1.224515;-0.2475884;-0.007412553;0.3697234;0.6132557;2.119419;0.4235877;-0.6929624;1.462341;0.4343095;-0.2118838;2.71963;0.3697234;0.6132557;2.119419;0.4235877;-0.6929624;1.462341;0.4343095;-0.2118838;2.71963
1072665.9511;NotLabelled;NONE;16384;-0.2229917;0.3033241;-0.7165177;-0.5872576;3;87;-4;-1092;3276;37;65536;0.5152354;-0.1648199;0.6340073;0.5526316;-34;101;-14;1010;3696;191;8192;0.7006257;-0.6288089;0.2645429;0.2091413;12;-2;34;442;4117;153;32768;0.6572253;-0.5969529;0.3961219;0.234072;-21;15;-70;-661;4401;658;256;0.6717451;-0.16759;-0.7173954;-0.07756232;-116;-18;27;95;1448;3603;128;-0.5803324;0.16759;0.7358221;0.3060942;117;13;12;1131;3001;-2486;4;-0.1855956;-0.1315789;-0.6689751;-0.7076112;26;2;-20;1723;4306;-506;16;0.06648199;-0.6357341;-0.3199446;0.6993266;-9;22;7;-2017;-1862;3066;2;0.715698;-0.6772853;0.04847645;-0.1634349;-26;25;79;-1523;3878;423;8;-0.2506925;-0.6949638;-0.06925207;0.6703601;-14;26;32;393;-3081;3441;0.6565569;0.6962974;2.128153;0.6596677;0.9797994;1.662065;0.6623832;1.227269;1.251322;0.6987699;1.547042;0.591864;0.4540313;1.684363;0.2820359;0.114377;1.718228;0.4357473;-0.08816519;0.8150356;0.4751204;0;0;0;0.9710388;1.625533;0.2820325;1.257569;1.588145;0.4357423;1.305783;0.6334386;0.3153851;1.247564;-0.2734623;0.04718912;0.3444704;0.6695325;2.163051;0.4111755;-0.6374025;1.508581;0.4309252;-0.1566966;2.765904;0.3444704;0.6695325;2.163051;0.4111755;-0.6374025;1.508581;0.4309252;-0.1566966;2.765904
1072687.3136;NotLabelled;NONE;16384;-0.2299169;0.3144044;-0.7118022;-0.5844875;7;87;-12;-1142;3504;-239;65536;0.5207756;-0.1814404;0.6285266;0.5484765;-37;92;-1;974;3818;493;8192;0.6993486;-0.6301939;0.2590028;0.2160665;19;-6;40;848;4071;185;32768;0.6590834;-0.599723;0.3836565;0.2423823;-32;16;-75;-135;4213;912;256;0.6703601;-0.1565097;-0.7225392;-0.06371191;-114;-16;22;11;1440;3419;128;-0.5831025;0.1551246;0.7408743;0.2950138;119;2;14;1099;2827;-2622;4;-0.1800554;-0.1246537;-0.6634349;-0.7154688;28;-19;-31;1889;3970;-710;16;0.06925207;-0.634349;-0.3282548;0.6964583;-7;20;6;-2533;-1638;2674;2;0.7192114;-0.6759003;0.03739612;-0.1565097;-21;17;88;-1455;3818;317;8;-0.2493075;-0.6959183;-0.07756232;0.6689751;-26;25;23;449;-2937;3361;0.6384683;0.8729538;2.264796;0.6410637;1.109471;1.773192;0.6433252;1.315547;1.340196;0.6688035;1.562427;0.6496433;0.4188187;1.671869;0.3329766;0.08420795;1.730033;0.4904305;-0.1100088;0.8249335;0.4529681;0;0;0;0.934271;1.600971;0.3266442;1.223961;1.573265;0.4764305;1.276468;0.6319826;0.27767;1.239047;-0.2872283;0.05087233;0.326421;0.8497496;2.302481;0.3948273;-0.4640396;1.662062;0.4450207;0.02458978;2.915477;0.326421;0.8497496;2.302481;0.3948273;-0.4640396;1.662062;0.4450207;0.02458978;2.915477
1072707.7263;NotLabelled;NONE;16384;-0.234072;0.3254848;-0.7065844;-0.5831025;12;81;-19;-1190;3520;-533;65536;0.5235457;-0.1966759;0.6228238;0.5470914;-41;69;8;1134;3946;783;8192;0.698701;-0.6301939;0.2548476;0.2229917;27;-5;38;300;4037;-77;32768;0.6576133;-0.601108;0.3739612;0.2576177;-78;-39;-107;-4627;3015;4676;256;0.6703601;-0.1357341;-0.7286267;-0.03601108;-114;-10;16;253;902;3489;128;-0.5858725;0.1426593;0.7455088;0.2839335;114;4;16;983;2719;-2814;4;-0.1745152;-0.1232687;-0.6592798;-0.7209018;26;-20;-36;2055;3814;-730;16;0.07202215;-0.634349;-0.3310249;0.6948645;-3;19;4;-2509;-1564;2710;2;0.7214591;-0.6759003;0.02631579;-0.1481994;-17;10;98;-1273;3864;405;8;-0.2534626;-0.6962683;-0.08448754;0.666205;-31;3;17;811;-3001;3021;0.6263113;0.9411972;2.1987;0.6287187;1.160572;1.69921;0.6308144;1.351551;1.259346;0.662309;1.573089;0.5604954;0.4150755;1.672006;0.2382555;0.07961351;1.737249;0.3910554;-0.1135441;0.8323767;0.4382389;0;0;0;0.9302394;1.598768;0.2382522;1.218729;1.575307;0.39105;1.281402;0.6177814;0.3045021;1.257691;-0.3075032;0.101831;0.3142785;0.9193125;2.237284;0.4115606;-0.4040415;1.620738;0.4502714;0.09321642;2.871163;0.3142785;0.9193125;2.237284;0.4115606;-0.4040415;1.620738;0.4502714;0.09321642;2.871163
1072728.8531;NotLabelled;NONE;16384;-0.2368421;0.3379501;-0.7020754;-0.5803324;19;75;-27;-1248;3292;-675;65536;0.5221606;-0.2119114;0.6177503;0.5484765;-46;52;25;1092;3746;1065;8192;0.6917198;-0.632964;0.2451524;0.2465374;62;-67;98;3668;6213;-1027;32768;0.6430666;-0.6052631;0.367036;0.2922437;-64;-17;-3;1849;7839;-1446;256;0.6703601;-0.1260388;-0.7309176;-0.02216066;-110;-5;13;613;596;3509;128;-0.5900277;0.1301939;0.7491475;0.2714681;110;0;17;837;2315;-2588;4;-0.1689751;-0.1204986;-0.6565097;-0.7252052;20;-14;-40;2119;3560;-442;16;0.07479224;-0.634349;-0.333795;0.6932448;2;22;0;-2453;-1394;2928;2;0.7237541;-0.6759003;0.01246537;-0.1385041;-20;20;109;-1029;3818;537;8;-0.2576177;-0.6968714;-0.08864266;0.6634349;-31;-11;16;489;-3461;2917;0.6325358;1.038344;2.205195;0.6347532;1.240405;1.698453;0.6366815;1.416139;1.252278;0.6626981;1.588184;0.5394061;0.412935;1.666699;0.2135204;0.07966678;1.745508;0.3647176;-0.1118639;0.8408816;0.4221379;0;0;0;0.9274297;1.588898;0.2135174;1.217302;1.573476;0.3647127;1.283908;0.6151049;0.2914792;1.270467;-0.3165755;0.1194932;0.3205177;1.017801;2.244627;0.4281169;-0.3100636;1.6396;0.4774042;0.1862378;2.890034;0.3205177;1.017801;2.244627;0.4281169;-0.3100636;1.6396;0.4774042;0.1862378;2.890034
1072748.9335;NotLabelled;NONE;16384;-0.2396122;0.3490305;-0.6968384;-0.5789474;28;69;-29;-1148;3084;-663;65536;0.5166205;-0.2271468;0.6157597;0.5498615;-53;41;41;1034;3580;1307;8192;0.6864024;-0.632964;0.2382271;0.267313;59;-62;116;4070;4937;-341;32768;0.6385372;-0.6121883;0.365651;0.2894737;-37;42;39;-1035;8009;-2458;256;0.6689751;-0.1149584;-0.7342942;-0.008310249;-104;11;7;1893;306;3797;128;-0.5927978;0.1191136;0.752729;0.2603878;103;0;20;313;1781;-3026;4;-0.1648199;-0.1177285;-0.6551247;-0.727864;20;-17;-42;2171;3226;-486;16;0.07756232;-0.632964;-0.3365651;0.692867;2;24;-5;-2503;-1192;3106;2;0.7253969;-0.6759003;-0.002770083;-0.1301939;-18;34;123;-669;3688;241;8;-0.2617728;-0.6960988;-0.09279778;0.6620498;-36;1;13;415;-3999;2839;0.6390327;1.110486;2.192647;0.6410437;1.293765;1.678812;0.6427903;1.452962;1.226472;0.6659033;1.600733;0.5080763;0.4148192;1.669502;0.1810055;0.08275059;1.755085;0.3311559;-0.1114136;0.8518012;0.3997727;0;0;0;0.9289122;1.58909;0.181002;1.219498;1.577279;0.3311498;1.291425;0.6168914;0.3036498;1.28157;-0.3239801;0.192062;0.3270307;1.09141;2.232933;0.4452439;-0.2422464;1.64281;0.4961069;0.2530506;2.893579;0.3270307;1.09141;2.232933;0.4452439;-0.2422464;1.64281;0.4961069;0.2530506;2.893579
1072769.7529;NotLabelled;NONE;16384;-0.2409972;0.3601108;-0.6906956;-0.5789474;38;67;-24;-952;2814;-669;65536;0.5096953;-0.2451524;0.6133826;0.5512465;-62;38;60;1272;3368;1451;8192;0.6820834;-0.632964;0.2313019;0.2839335;70;-11;74;3476;8287;-895;32768;0.6358548;-0.6163435;0.3698061;0.2811634;24;25;81;1683;15509;-2604;256;0.66759;-0.0900277;-0.7390453;0.005540166;-73;50;23;2107;-1046;5027;128;-0.599723;0.09833795;0.7575684;0.2382271;86;11;25;15;891;-3806;4;-0.1592798;-0.1149584;-0.6523545;-0.7320164;21;-20;-43;2159;3296;-728;16;0.08033241;-0.6315789;-0.3379501;0.693141;2;15;-11;-2429;-1130;3288;2;0.7259811;-0.6772853;-0.01939058;-0.1177285;-20;5;142;-321;3522;831;8;-0.2645429;-0.6956067;-0.09833795;0.6606648;-39;9;9;691;-4059;3155;0.6447358;1.21709;2.098511;0.6465627;1.383596;1.578997;0.6481473;1.528029;1.121728;0.6740174;1.626316;0.3950009;0.4241965;1.673389;0.06315532;0.09195343;1.770089;0.2059947;-0.105029;0.8757341;0.3462018;0;0;0;0.9380089;1.591521;0.07037073;1.228081;1.589063;0.2219504;1.305654;0.6316092;0.2963842;1.28213;-0.3126773;0.2218349;0.3327482;1.199334;2.139506;0.4589502;-0.1573057;1.606156;0.5099711;0.3787041;2.840019;0.3327482;1.199334;2.139506;0.4589502;-0.1573057;1.606156;0.5099711;0.3787041;2.840019
1072811.7542;NotLabelled;NONE;16384;-0.2465374;0.3891967;-0.6703358;-0.5817174;40;56;15;-340;2864;-897;65536;0.4709141;-0.2963989;0.6116993;0.5623268;-120;-2;147;868;1618;3287;8192;0.6842666;-0.634349;0.2077562;0.2936288;-27;114;43;-2534;9789;2851;32768;0.6303173;-0.6246537;0.3725762;0.2714681;-41;7;1;2003;2149;-674;256;0.6620498;-0.0567867;-0.7472938;-0.004155125;-30;128;16;1845;-1680;4731;128;-0.602493;0.0734072;0.7603374;0.2313019;54;63;34;-1101;319;-4622;4;-0.1426593;-0.1052632;-0.6481994;-0.7405441;11;-36;-37;1937;3192;-406;16;0.08033241;-0.6288089;-0.33518;0.6969939;-2;-5;-14;-2345;-606;3408;2;0.728853;-0.6786703;-0.06925207;-0.05817174;-8;-21;170;179;5518;167;8;-0.2728532;-0.6898314;-0.1066482;0.6620498;-9;0;-23;493;-3103;4213;0.6738435;1.318778;2.155;0.6753071;1.452154;1.62601;0.676572;1.567429;1.160534;0.6882334;1.649625;0.4314454;0.431964;1.684981;0.1030804;0.1006268;1.779332;0.2495473;-0.08871603;0.8775797;0.3460951;0;0;0;0.9471489;1.611889;0.1030773;1.239789;1.617715;0.2495424;1.330066;0.6592133;0.2869533;1.287762;-0.2805074;0.1732754;0.3618846;1.303653;2.197251;0.4888666;-0.04018974;1.632607;0.5706137;0.4539053;2.882214;0.3618846;1.303653;2.197251;0.4888666;-0.04018974;1.632607;0.5706137;0.4539053;2.882214
1072852.7382;NotLabelled;NONE;16384;-0.2548476;0.3961219;-0.6481758;-0.5983379;113;35;28;-4322;4688;-5373;65536;0.4376731;-0.33241;0.6101796;0.5706371;-34;-109;21;5982;13332;-5651;8192;0.6826078;-0.6412742;0.1869806;0.2963989;58;-29;39;894;4227;-1369;32768;0.6218836;-0.6378459;0.3601108;0.2770083;-16;41;-33;519;4139;26;256;0.6565097;-0.02077562;-0.7538164;-0.01800554;-44;104;10;-547;-688;4221;128;-0.6038781;0.04432133;0.7610675;0.232687;51;72;25;1203;965;-4102;4;-0.134349;-0.09833795;-0.6468144;-0.744252;4;28;-39;1941;4160;-502;16;0.07479224;-0.6274238;-0.3365651;0.6981901;-18;-5;-18;-2455;-1610;3272;2;0.7271125;-0.6786703;-0.101108;-0.02216066;-16;0;144;1211;6724;371;8;-0.2728532;-0.6841629;-0.09972299;0.6689751;32;-19;-34;703;-1747;4247;0.7153649;1.462429;2.020431;0.7165846;1.573601;1.486333;0.717635;1.669341;1.016448;0.7223914;1.729073;0.2850993;0.4636098;1.738266;-0.04307044;0.1274675;1.816676;0.1018411;-0.0444836;0.9163727;0.236812;0;0;0;0.9823119;1.696965;-0.04307353;1.274407;1.725352;0.1018363;1.386911;0.7714676;0.1774751;1.317844;-0.1663442;0.06116509;0.4034258;1.449083;2.063419;0.5447428;0.08832777;1.544544;0.6709536;0.5813285;2.790877;0.4034258;1.449083;2.063419;0.5447428;0.08832777;1.544544;0.6709536;0.5813285;2.790877
1072894.9408;NotLabelled;NONE;16384;-0.2160665;0.4141274;-0.6634668;-0.5844875;-16;-201;-15;4420;454;-567;65536;0.4376731;-0.301939;0.6129025;0.5844875;-56;-29;1;-1984;2434;-161;8192;0.66878;-0.6495845;0.1786704;0.3144044;44;-14;29;1878;3403;531;32768;0.6260388;-0.64009;0.3476454;0.2783934;-16;16;-18;265;3527;-204;256;0.6481994;0;-0.7611065;-0.0235457;-13;-11;31;-3997;-1842;6005;128;-0.599723;0.008310249;0.7660043;0.2313019;37;33;-1;4301;627;-4542;4;-0.1357341;-0.07894737;-0.6495845;-0.7438976;10;42;-45;987;4462;-252;16;0.06786703;-0.6246537;-0.3407202;0.6993651;-13;-1;-15;-1967;-2408;2984;2;0.7291399;-0.666205;-0.1565097;0.005540166;-38;74;126;1373;4306;543;8;-0.2548476;-0.6847374;-0.07479224;0.6786703;72;27;-18;617;-933;3725;0.7082042;1.587149;1.92481;0.7092343;1.681017;1.3874;0.7101177;1.761535;0.9146691;0.7104239;1.801472;0.1819569;0.4515802;1.783131;-0.1457795;0.1107108;1.841169;-0.002327129;-0.01215721;0.9355528;0.1496355;0;0;0;0.9719086;1.779133;-0.1457837;1.261246;1.832331;-0.002332926;1.378775;0.8822296;0.1061571;1.297957;-0.05851078;0.02701271;0.3962803;1.5752;1.968317;0.5406296;0.2051449;1.475397;0.6931651;0.7114878;2.71341;0.3962803;1.5752;1.968317;0.5406296;0.2051449;1.475397;0.6931651;0.7114878;2.71341
1072915.7928;NotLabelled;NONE;16384;-0.2105263;0.4058172;-0.6617688;-0.5941828;68;-17;55;3576;946;-3289;65536;0.432133;-0.3047091;0.6114845;0.5886427;-39;-7;25;-742;4250;-1053;8192;0.6682305;-0.6481994;0.1759003;0.3199446;17;-4;22;1906;3559;709;32768;0.6260388;-0.6417273;0.3434903;0.2797784;-19;7;-16;819;4547;20;256;0.6454294;0;-0.7635738;-0.01939058;-10;-25;8;59;-2278;5531;128;-0.5969529;0.004155125;0.7686144;0.2299169;24;10;-15;3875;99;-5158;4;-0.1385041;-0.05817174;-0.6495845;-0.7453004;6;60;-42;501;4436;-676;16;0.06371191;-0.6232687;-0.3434903;0.6996366;-5;-1;0;-1401;-2212;2500;2;0.7302769;-0.6592798;-0.1786704;0.01108033;-48;65;129;265;3974;1067;8;-0.2409972;-0.6863409;-0.06786703;0.6828254;79;40;-14;889;-665;3793;0.740123;1.643247;1.902159;0.740898;1.713877;1.361204;0.7415569;1.773955;0.8854426;0.7407533;1.800256;0.1521145;0.482985;1.765956;-0.1751879;0.1400661;1.813585;-0.03279004;-0.0343056;0.9293127;0.1816523;0;0;0;1.003086;1.781838;-0.1751912;1.290099;1.848704;-0.03279579;1.402637;0.9037175;0.1175704;1.333534;-0.03907478;0.05311382;0.4282197;1.633187;1.946288;0.5669799;0.250469;1.488363;0.7481307;0.7779062;2.713647;0.4282197;1.633187;1.946288;0.5669799;0.250469;1.488363;0.7481307;0.7779062;2.713647
1072936.7373;NotLabelled;NONE;16384;-0.2105263;0.4030471;-0.6597146;-0.5983379;-1;-33;-7;-1024;5516;89;65536;0.4279778;-0.3088643;0.6096465;0.5914127;-29;-4;29;-1080;4286;987;8192;0.66734;-0.6495845;0.1689751;0.3227147;20;22;7;1482;5055;-1247;32768;0.6260388;-0.6441783;0.3365651;0.2825485;-10;25;-22;387;4683;14;256;0.6454294;-0.004155125;-0.7635625;-0.01939058;14;-20;-9;1621;-1626;5497;128;-0.5941828;0.002770083;0.7711759;0.2285319;13;-7;-2;1813;-79;-5068;4;-0.1398892;-0.04709141;-0.6509695;-0.7446154;6;53;-34;-43;4060;-592;16;0.06371191;-0.6232687;-0.3434903;0.6996366;3;0;9;-1513;-1846;2678;2;0.7325535;-0.6509695;-0.1980609;0.01939058;-52;50;125;-331;3520;835;8;-0.2271468;-0.6855956;-0.06232687;0.6888239;86;42;-13;1217;-303;3775;0.7201028;1.656911;1.88683;0.7208406;1.724165;1.345444;0.7214672;1.781273;0.8693176;0.7209235;1.803003;0.1358398;0.4630222;1.768078;-0.1912917;0.1203479;1.818479;-0.04925928;-0.03527404;0.9316542;0.1690336;0;0;0;0.983203;1.781102;-0.1912946;1.270557;1.847278;-0.0492636;1.390881;0.9045875;0.1092697;1.324005;-0.03885627;0.05244374;0.4082024;1.647127;1.931042;0.558492;0.253962;1.509898;0.7471509;0.7940924;2.728502;0.4082024;1.647127;1.931042;0.558492;0.253962;1.509898;0.7471509;0.7940924;2.728502
1072957.7424;NotLabelled;NONE;16384;-0.2049861;0.4044321;-0.6631096;-0.5955678;5;-3;-42;-794;3430;-1055;65536;0.4224377;-0.3130194;0.6086971;0.5941828;-21;-24;36;-552;4422;387;8192;0.6663447;-0.6523545;0.1648199;0.3213296;23;21;5;682;4987;-1005;32768;0.6274238;-0.6456998;0.3310249;0.2825485;-10;35;-28;479;4373;-270;256;0.6440443;-0.005540166;-0.7647223;-0.01939058;2;5;-3;635;-754;4409;128;-0.5941828;0.002770083;0.7719914;0.2257618;8;-16;6;749;13;-4810;4;-0.1398892;-0.03739612;-0.6509695;-0.7451652;7;24;-27;-291;3848;-352;16;0.06371191;-0.6246537;-0.3434903;0.6984003;4;5;16;-1975;-1948;2972;2;0.7348843;-0.6426592;-0.2146814;0.02908587;-51;26;114;-419;3138;279;8;-0.2132964;-0.6869806;-0.05263158;0.6926703;87;27;-11;1597;105;3513;0.7092901;1.655109;1.875144;0.7100099;1.720723;1.333558;0.7106208;1.776389;0.8572603;0.7101406;1.802055;0.1239097;0.4519895;1.770522;-0.2033691;0.1096564;1.822334;-0.06102224;-0.03680961;0.9337745;0.1565489;0;0;0;0.9722425;1.780244;-0.2033726;1.260025;1.843832;-0.061028;1.383676;0.9038811;0.1106616;1.321864;-0.04056466;0.06605506;0.3973913;1.645459;1.919396;0.5493865;0.2462771;1.519336;0.737976;0.7864077;2.737951;0.3973913;1.645459;1.919396;0.5493865;0.2462771;1.519336;0.737976;0.7864077;2.737951
1072999.0034;NotLabelled;NONE;16384;-0.2049861;0.4127424;-0.6554511;-0.5983379;53;68;-3;-368;3394;-1749;65536;0.4141274;-0.3144044;0.6123294;0.5955678;-19;-24;41;-746;4066;-3;8192;0.6639639;-0.6551247;0.1634349;0.3213296;17;7;0;518;3981;-497;32768;0.6288089;-0.6465608;0.3254848;0.2839335;-12;20;-29;401;4017;-252;256;0.6398892;0;-0.7682562;-0.01800554;-1;3;13;-61;-502;4027;128;-0.5914127;0.001385042;0.7761054;0.2188366;8;13;-9;307;855;-3960;4;-0.1371191;-0.033241;-0.6509695;-0.7458767;7;-1;-22;-103;3748;-392;16;0.06648199;-0.6260388;-0.3448753;0.6962159;1;16;16;-2245;-1836;3286;2;0.7355132;-0.6371191;-0.2271468;0.03878116;-42;2;101;161;2790;-41;8;-0.2022161;-0.6897507;-0.04155125;0.6939929;88;0;-7;1703;575;3671;0.7188351;1.655903;1.854857;0.7195271;1.718957;1.312966;0.7201132;1.772372;0.8364115;0.7196679;1.799371;0.1031084;0.4614392;1.768997;-0.2242185;0.1192241;1.821297;-0.08176656;-0.03587575;0.9359878;0.142955;0;0;0;0.9817122;1.777583;-0.2242215;1.269637;1.840285;-0.08177125;1.390604;0.901069;0.09575605;1.332985;-0.04390955;0.05723476;0.4069387;1.646462;1.89917;0.5634481;0.2422644;1.518916;0.751915;0.7810138;2.738161;0.4069387;1.646462;1.89917;0.5634481;0.2422644;1.518916;0.751915;0.7810138;2.738161
1073020.7334;NotLabelled;NONE;16384;-0.2105263;0.4252077;-0.6417781;-0.602493;9;17;-5;-2434;4416;371;65536;0.4016621;-0.3227147;0.6136078;0.5983379;-16;-14;37;-200;4322;-3;8192;0.6625944;-0.6565097;0.1634349;0.3213296;12;-7;-2;1022;3705;-223;32768;0.6301939;-0.6460681;0.3213296;0.2867036;-13;7;-26;-123;4115;-280;256;0.6371191;0;-0.7705861;-0.0166205;0;1;13;-75;-690;3741;128;-0.5886427;0;0.7785979;0.2174515;2;17;-15;699;615;-3598;4;-0.132964;-0.03047091;-0.6509695;-0.7467468;4;-5;-17;371;3648;-582;16;0.06925207;-0.6274238;-0.3462604;0.6940081;-2;25;15;-2459;-1720;3458;2;0.7352797;-0.632964;-0.2368421;0.05124654;-27;-8;92;1051;2842;45;8;-0.1911357;-0.6925207;-0.02631579;0.6951184;90;-18;-2;1389;949;3571;0.7177274;1.680855;1.831727;0.7183451;1.737137;1.289091;0.7188658;1.784598;0.8119062;0.7183981;1.804899;0.07838732;0.4604422;1.76985;-0.2486882;0.1178625;1.821209;-0.1067708;-0.0260793;0.937842;0.1325487;0;0;0;0.9806479;1.781839;-0.2486907;1.268126;1.84772;-0.1067756;1.385862;0.908837;0.07464123;1.333959;-0.03674924;0.04364634;0.4058372;1.671968;1.876197;0.5616117;0.2644447;1.508133;0.7565914;0.7988638;2.72826;0.4058372;1.671968;1.876197;0.5616117;0.2644447;1.508133;0.7565914;0.7988638;2.72826
1073040.7858;NotLabelled;NONE;16384;-0.2105263;0.4265928;-0.6408584;-0.602493;4;-4;-2;-2804;3832;-429;65536;0.3961219;-0.3268698;0.6150084;0.5983379;-17;-1;33;-224;4198;-3;8192;0.6612439;-0.6565097;0.1634349;0.3240997;6;-5;1;1594;3877;-203;32768;0.6301939;-0.6468856;0.3171745;0.2894737;-12;4;-21;-75;3989;-98;256;0.6357341;0;-0.7717578;-0.01523546;-2;-3;13;-225;-868;3855;128;-0.5844875;-0.004155125;0.780935;0.2202216;-6;30;-15;1317;559;-3708;4;-0.1301939;-0.02493075;-0.6509695;-0.7474401;0;5;-16;1115;3652;-568;16;0.07617728;-0.6260388;-0.3531856;0.6910372;-4;31;2;-2637;-1312;2924;2;0.7338407;-0.6260388;-0.2548476;0.06786703;-22;19;68;1775;3122;513;8;-0.1731302;-0.700293;-0.005540166;0.6925207;73;21;7;517;1095;3379;0.7088977;1.687165;1.791888;0.7094971;1.741787;1.249082;0.7100018;1.787788;0.7717544;0.7096032;1.806583;0.03819573;0.4515964;1.771344;-0.2888193;0.1091071;1.823632;-0.1470233;-0.01697747;0.9414024;0.1061594;0;0;0;0.9718236;1.782363;-0.2888225;1.259418;1.847998;-0.1470295;1.375201;0.9090881;0.03549814;1.330626;-0.03705692;0.01079643;0.397009;1.678414;1.836396;0.5532516;0.2677519;1.480759;0.7502003;0.7977808;2.702482;0.397009;1.678414;1.836396;0.5532516;0.2677519;1.480759;0.7502003;0.7977808;2.702482
1073060.7472;NotLabelled;NONE;16384;-0.2091413;0.4265928;-0.6413116;-0.602493;6;-3;9;-2162;3592;-995;65536;0.3933518;-0.3310249;0.6145638;0.5983379;-17;9;28;-46;4210;-105;8192;0.6612468;-0.6551247;0.1606648;0.3282548;0;-1;10;1448;3487;-663;32768;0.6301939;-0.6463649;0.3144044;0.2936288;-5;-5;-8;171;4069;-24;256;0.632964;0;-0.7740573;-0.01385042;4;-12;9;-375;-888;4135;128;-0.5803324;-0.006925208;0.7832248;0.2229917;-9;23;-13;1839;421;-3702;4;-0.1301939;-0.02216066;-0.6509695;-0.7475274;4;13;-15;1287;3792;-638;16;0.08033241;-0.6260388;-0.3559557;0.6891428;-2;21;-1;-2477;-1372;2880;2;0.7336813;-0.6218836;-0.2645429;0.07063711;-23;32;54;1691;3156;719;8;-0.1592798;-0.7035889;-0.002770083;0.6925207;63;61;10;521;753;3427;0.7142068;1.687447;1.778087;0.7148142;1.742809;1.235357;0.7153261;1.789461;0.7580919;0.7149919;1.806717;0.02449501;0.4569354;1.771257;-0.3024568;0.1145352;1.824462;-0.1607866;-0.01031321;0.9427205;0.09469877;0;0;0;0.9771817;1.781335;-0.3024597;1.264889;1.846749;-0.1607915;1.382067;0.9086915;0.02519596;1.34206;-0.03783643;0.008713722;0.4023172;1.678635;1.822579;0.5614896;0.264294;1.483223;0.7546574;0.7930235;2.706113;0.4023172;1.678635;1.822579;0.5614896;0.264294;1.483223;0.7546574;0.7930235;2.706113
1073080.9459;NotLabelled;NONE;16384;-0.2105263;0.4265928;-0.6395534;-0.6038781;-4;1;13;-1994;4006;-883;65536;0.3919668;-0.3365651;0.6124359;0.5983379;-12;13;22;-420;4318;141;8192;0.6605414;-0.6537396;0.1606648;0.33241;3;-10;10;1596;3715;-551;32768;0.6301939;-0.6450994;0.3144044;0.2963989;-5;-10;-4;-249;4189;-206;256;0.6315789;0;-0.7752324;-0.01108033;6;-17;3;-177;-1024;4219;128;-0.5775623;-0.01108033;0.7844301;0.2257618;-14;16;-7;1905;383;-3654;4;-0.1315789;-0.01800554;-0.6509695;-0.7473965;7;28;-13;955;3966;-540;16;0.08033241;-0.6246537;-0.3587258;0.6889632;-3;6;-3;-2455;-1572;2722;2;0.7351766;-0.6163435;-0.2728532;0.07202215;-22;45;45;1205;3114;829;8;-0.1454294;-0.7052147;-0.004155125;0.6939058;54;77;12;861;631;3569;0.7142518;1.684666;1.762842;0.7148773;1.741671;1.220281;0.7154049;1.789767;0.74316;0.7150655;1.8055;0.009528816;0.4569279;1.769836;-0.3173363;0.1146332;1.823965;-0.175761;-0.007210027;0.943597;0.08584054;0;0;0;0.9771917;1.778959;-0.3173841;1.265025;1.844137;-0.175866;1.391676;0.9088863;0.01788855;1.357663;-0.03797543;0.008733869;0.4023609;1.67572;1.807296;0.5606467;0.2601578;1.472653;0.7577595;0.7852224;2.696492;0.4023609;1.67572;1.807296;0.5606467;0.2601578;1.472653;0.7577595;0.7852224;2.696492
1073101.7453;NotLabelled;NONE;16384;-0.2132964;0.4265928;-0.6399417;-0.602493;-14;10;12;-2174;4214;-867;65536;0.3905817;-0.3407202;0.6123748;0.5969529;-3;24;15;-400;4912;207;8192;0.6608463;-0.6523545;0.1592798;0.33518;1;0;8;1738;3995;-493;32768;0.6288089;-0.6458127;0.3144044;0.2977839;-6;-8;-2;107;4167;-34;256;0.6288089;-0.001385042;-0.7775143;-0.008310249;5;-11;-3;-53;-686;4493;128;-0.5747922;-0.01246537;0.7852368;0.2299169;-15;2;-4;1315;759;-4244;4;-0.134349;-0.01385042;-0.6495845;-0.7481968;6;20;-11;471;4008;-362;16;0.08033241;-0.6246537;-0.3587258;0.6889632;0;-3;-4;-2323;-1604;2906;2;0.7351205;-0.6121883;-0.2825485;0.07063711;-20;39;38;649;3092;803;8;-0.1315789;-0.7079297;-0.004155125;0.6939058;47;52;12;1187;229;3871;0.7112792;1.687739;1.757135;0.7119114;1.745335;1.214637;0.7124448;1.79395;0.7375686;0.7122685;1.806557;0.003876925;0.4540543;1.770413;-0.3228748;0.1119324;1.826355;-0.1815873;-0.006808177;0.9444304;0.0761691;0;0;0;0.9743472;1.777695;-0.3228778;1.262389;1.842458;-0.181592;1.392655;0.9080021;0.01359653;1.362186;-0.03899848;0.006559849;0.3993877;1.678744;1.801575;0.5582932;0.2619205;1.472609;0.7585487;0.7922506;2.693664;0.3993877;1.678744;1.801575;0.5582932;0.2619205;1.472609;0.7585487;0.7922506;2.693664
1073121.7507;NotLabelled;NONE;16384;-0.2174515;0.4279778;-0.6389202;-0.601108;1;3;-8;-2916;3554;-1317;65536;0.398892;-0.3448753;0.6114029;0.5900277;23;44;-22;-248;5166;1;8192;0.6608042;-0.6523545;0.1565097;0.3365651;-1;16;10;1280;4179;-551;32768;0.6288089;-0.6451722;0.3144044;0.299169;-4;-7;-4;243;4335;-138;256;0.6288089;-0.004155125;-0.7775044;-0.008310249;8;-16;-1;-63;-280;4445;128;-0.5720221;-0.01246537;0.7868512;0.2313019;-12;-7;-7;1175;1063;-4214;4;-0.134349;-0.01108033;-0.6495845;-0.748243;7;8;-9;457;4042;-398;16;0.08033241;-0.6246537;-0.3573407;0.6896826;3;-7;-4;-2357;-1716;2984;2;0.7362835;-0.6080332;-0.2880886;0.07202215;-16;23;29;761;3042;625;8;-0.1232687;-0.7107869;-0.001385042;0.6925207;43;18;10;1203;3;3999;0.7155049;1.68135;1.753527;0.7161763;1.742553;1.211424;0.7167443;1.794342;0.7346892;0.7166551;1.805102;0.0009683967;0.4582457;1.769608;-0.3257006;0.1164454;1.827855;-0.1845659;-0.002333537;0.9449458;0.0697807;0;0;0;0.9785718;1.773925;-0.3257036;1.266975;1.8374;-0.184571;1.40375;0.9043684;0.01296258;1.372136;-0.04261374;0.009364605;0.4036102;1.67206;1.797884;0.5666074;0.2552571;1.470837;0.7755499;0.7855868;2.690436;0.4036102;1.67206;1.797884;0.5666074;0.2552571;1.470837;0.7755499;0.7855868;2.690436
1073142.7391;NotLabelled;NONE;16384;-0.2146814;0.4307479;-0.6392968;-0.599723;11;-5;-27;-2934;3524;-921;65536;0.4099723;-0.3434903;0.6088436;0.5858725;43;62;-55;-1180;5066;-587;8192;0.661834;-0.6523545;0.1551246;0.33518;-5;13;10;576;4207;-599;32768;0.6288089;-0.6445282;0.3144044;0.300554;-2;-5;-7;449;4257;14;256;0.6274238;-0.005540166;-0.7786274;-0.006925208;4;-11;1;-51;-22;4295;128;-0.5706371;-0.009695291;0.7878951;0.2313019;-13;-11;-11;1085;1393;-3968;4;-0.1315789;-0.006925208;-0.6481994;-0.7499843;6;-4;-10;817;4118;-490;16;0.08033241;-0.6232687;-0.3573407;0.6909345;1;15;-4;-2131;-1690;3172;2;0.7354049;-0.6052631;-0.2950138;0.07617728;-2;-9;25;1695;3398;669;8;-0.1163435;-0.7159071;0.009695291;0.6883656;31;-16;11;639;-171;4083;0.7208396;1.672556;1.764892;0.7215315;1.735597;1.223;0.7221175;1.789001;0.7464436;0.7220648;1.802318;0.01276475;0.4635006;1.769075;-0.3140187;0.1219563;1.828302;-0.1726724;0.002567575;0.9443293;0.07766375;0;0;0;0.9838403;1.77115;-0.3140213;1.272516;1.832891;-0.1726767;1.412053;0.9012973;0.02965117;1.382251;-0.0457468;0.02702725;0.4089434;1.663116;1.809205;0.5734189;0.2451353;1.488053;0.7851175;0.7735891;2.707991;0.4089434;1.663116;1.809205;0.5734189;0.2451353;1.488053;0.7851175;0.7735891;2.707991
1073162.7433;NotLabelled;NONE;16384;-0.2091413;0.433518;-0.6392608;-0.599723;17;-13;-44;-2606;3506;-633;65536;0.4265928;-0.3407202;0.6029371;0.5817174;50;61;-92;-2102;5256;-1825;8192;0.6608042;-0.6523545;0.1565097;0.3365651;0;-5;0;826;4253;-601;32768;0.6288089;-0.644555;0.3130194;0.301939;-2;4;-16;269;4207;-48;256;0.6260388;-0.006925208;-0.7797304;-0.006925208;2;-11;2;1;210;4115;128;-0.567867;-0.006925208;0.7899231;0.2313019;-11;-11;-12;1113;1597;-3936;4;-0.1301939;-0.005540166;-0.6481994;-0.7502375;6;-4;-10;753;3970;-632;16;0.08171745;-0.6218836;-0.3601108;0.6905818;0;22;0;-1851;-1568;3100;2;0.7332615;-0.6066482;-0.2963989;0.08033241;0;-22;20;2019;3420;1049;8;-0.1121884;-0.7178552;0.01246537;0.6869806;24;1;9;143;-121;3997;0.7197982;1.663186;1.774349;0.7205108;1.728134;1.232682;0.7211151;1.783216;0.7563168;0.721114;1.79623;0.02263254;0.4624209;1.763869;-0.3041372;0.1211119;1.824495;-0.1628153;-0.001494134;0.9428406;0.09405418;0;0;0;0.9827648;1.763901;-0.3041403;1.271681;1.824565;-0.1628211;1.412661;0.892983;0.03855765;1.38467;-0.05411935;0.03700054;0.4079002;1.65359;1.818617;0.5797539;0.2336501;1.510243;0.8002071;0.7636065;2.727976;0.4079002;1.65359;1.818617;0.5797539;0.2336501;1.510243;0.8002071;0.7636065;2.727976
1073182.8204;NotLabelled;NONE;16384;-0.200831;0.4362881;-0.6426249;-0.5969529;4;-32;-35;-958;3472;-211;65536;0.4418283;-0.33241;0.600594;0.5775623;54;15;-85;1058;3272;-1399;8192;0.6604747;-0.6523545;0.1578947;0.3365651;0;2;-5;930;4153;-381;32768;0.6301939;-0.6432217;0.3116343;0.3033241;-4;5;-19;35;4161;-146;256;0.6260388;-0.008310249;-0.7797279;-0.005540166;-1;-8;0;233;218;3947;128;-0.566482;-0.004155125;0.7909363;0.2313019;-9;-14;-10;1117;1529;-3728;4;-0.1288089;-0.004155125;-0.6468144;-0.7516795;6;-3;-9;919;3916;-744;16;0.08310249;-0.6218836;-0.3614958;0.6896923;-1;19;5;-1907;-1528;2976;2;0.7323911;-0.6066482;-0.2977839;0.08310249;0;-15;14;2103;3382;1193;8;-0.1066482;-0.7186991;0.01246537;0.6869806;17;28;9;5;-39;3763;0.7078905;1.649057;1.78244;0.7086269;1.716153;1.241035;0.7092522;1.773122;0.7648917;0.7092568;1.787409;0.03123105;0.4504833;1.756182;-0.2955855;0.1093123;1.81731;-0.154147;-0.01355217;0.9401162;0.1174502;0;0;0;0.9708259;1.755073;-0.2956071;1.259879;1.814859;-0.1541927;1.401583;0.8840704;0.0503242;1.375856;-0.06309569;0.05180264;0.3959905;1.639286;1.826656;0.56802;0.2183096;1.52319;0.7918447;0.7510583;2.739089;0.3959905;1.639286;1.826656;0.56802;0.2183096;1.52319;0.7918447;0.7510583;2.739089
1073204.7302;NotLabelled;NONE;16384;-0.1952908;0.433518;-0.644915;-0.5983379;0;-64;-1;316;3594;51;65536;0.4501385;-0.3240997;0.6002954;0.5761772;39;14;-49;242;1980;13;8192;0.6611786;-0.6523545;0.1578947;0.33518;-1;6;-6;836;3977;-289;32768;0.6301939;-0.6432456;0.3088643;0.3060942;-5;3;-19;51;4127;-6;256;0.6246537;-0.009695291;-0.7808307;-0.004155125;-3;-5;-5;527;80;3765;128;-0.5650969;-0.002770083;0.7919326;0.2313019;-8;-9;-3;1081;1341;-3620;4;-0.1288089;-0.004155125;-0.6454294;-0.7528691;7;2;-8;943;3942;-760;16;0.08448754;-0.6218836;-0.3628809;0.6887961;-1;12;9;-2155;-1512;2918;2;0.7316678;-0.6066482;-0.299169;0.08448754;-2;5;8;2093;3480;1099;8;-0.101108;-0.7208619;0.009695291;0.6855956;13;35;6;429;-15;3703;0.7090715;1.635012;1.804108;0.7098283;1.703987;1.26294;0.7104715;1.762609;0.7869972;0.7105554;1.776584;0.05333048;0.4516731;1.746225;-0.2734815;0.1107381;1.808741;-0.1320808;-0.02324717;0.9356859;0.1474757;0;0;0;0.9720075;1.74309;-0.2734845;1.261286;1.80181;-0.132086;1.401065;0.86973;0.06782126;1.380494;-0.07756126;0.06995654;0.3971697;1.625087;1.848278;0.5757188;0.2038782;1.549711;0.7968602;0.7360172;2.766367;0.3971697;1.625087;1.848278;0.5757188;0.2038782;1.549711;0.7968602;0.7360172;2.766367
1073225.375;NotLabelled;NONE;16384;-0.199446;0.4127424;-0.6520708;-0.6038781;-5;-25;44;1236;3580;883;65536;0.4529086;-0.3240997;0.6008639;0.5734072;-25;-20;32;1334;1608;1997;8192;0.6611786;-0.6523545;0.1578947;0.33518;-4;0;0;854;3947;-253;32768;0.6315789;-0.6425503;0.3060942;0.3074792;-7;-1;-19;-301;4039;-158;256;0.6260388;-0.01108033;-0.7797083;-0.002770083;0;2;-15;733;-126;3467;128;-0.5637119;0;0.7929239;0.2313019;-5;-6;6;651;1037;-3398;4;-0.1288089;-0.001385042;-0.6454294;-0.7528793;7;9;-7;919;3928;-696;16;0.08587258;-0.6232687;-0.3628809;0.6873715;-1;7;11;-2279;-1614;2924;2;0.7324055;-0.6052631;-0.300554;0.08310249;-2;25;3;1959;3268;1109;8;-0.09695291;-0.7214325;0.009695291;0.6855956;8;12;3;737;-13;3527;0.7009735;1.625476;1.818478;0.7017423;1.695506;1.277445;0.702396;1.755057;0.8016177;0.7025303;1.768706;0.067945;0.4435286;1.739219;-0.2588524;0.1028427;1.803137;-0.1174778;-0.02927725;0.9319305;0.1686566;0;0;0;0.9638466;1.734041;-0.2588561;1.253355;1.791688;-0.1174853;1.394103;0.8595226;0.08134305;1.378132;-0.08782518;0.08938468;0.389071;1.615465;1.862622;0.571793;0.1950552;1.562776;0.794601;0.7265713;2.779399;0.389071;1.615465;1.862622;0.571793;0.1950552;1.562776;0.794601;0.7265713;2.779399
1073245.0038;NotLabelled;NONE;16384;-0.2063712;0.4072022;-0.6508266;-0.6066482;3;14;50;1050;3428;-43;65536;0.4432133;-0.3296399;0.6024278;0.5761772;-49;-17;61;64;2902;1467;8192;0.6615078;-0.6509695;0.1592798;0.3365651;-3;-6;7;790;3877;-527;32768;0.6315789;-0.6418768;0.3047091;0.3102493;-6;-6;-18;-17;4109;-48;256;0.6260388;-0.009695291;-0.7797205;-0.004155125;0;12;-11;527;24;3399;128;-0.5637119;0;0.7929239;0.2313019;-3;-1;6;543;1217;-3298;4;-0.1301939;0;-0.6440443;-0.7538279;9;15;-6;757;3822;-668;16;0.08725762;-0.6246537;-0.3642659;0.6852038;-1;3;13;-2417;-1648;2912;2;0.7322916;-0.6038781;-0.3047091;0.07894737;0;32;0;1599;3080;953;8;-0.09695291;-0.7227463;0.009695291;0.6842105;5;-14;1;659;-49;3547;0.6952581;1.63007;1.854634;0.696047;1.70196;1.313845;0.6967185;1.763146;0.838225;0.6969033;1.776497;0.1045466;0.4377885;1.747876;-0.2222384;0.09735245;1.813166;-0.08088914;-0.02746732;0.9310989;0.1734859;0;0;0;0.9580829;1.740689;-0.222241;1.247812;1.797275;-0.0808934;1.387147;0.8647225;0.1171132;1.376771;-0.08267784;0.1277324;0.3833538;1.619907;1.898731;0.568516;0.1984339;1.605494;0.7827377;0.7259195;2.82541;0.3833538;1.619907;1.898731;0.568516;0.1984339;1.605494;0.7827377;0.7259195;2.82541
1073265.8769;NotLabelled;NONE;16384;-0.2132964;0.4072022;-0.6459879;-0.6094183;16;51;40;-272;2598;-1081;65536;0.4362881;-0.3379501;0.6002186;0.5789474;-47;1;51;-1592;3820;-729;8192;0.6604064;-0.6495845;0.1606648;0.3407202;-1;-2;5;1270;3891;-405;32768;0.6315789;-0.6404825;0.301939;0.3157895;-4;-4;-16;-45;4067;-32;256;0.6260388;-0.006925208;-0.7797415;-0.005540166;-1;17;-5;361;176;3367;128;-0.5623268;0;0.7939067;0.2313019;-1;3;4;523;1323;-3292;4;-0.1315789;0.004155125;-0.6412742;-0.7559346;9;7;-2;509;3808;-398;16;0.08725762;-0.6274238;-0.3642659;0.6826681;-6;-1;12;-2543;-1432;2978;2;0.7327106;-0.602493;-0.3074792;0.07479224;1;3;-6;1283;2876;1041;8;-0.09833795;-0.7237727;0.01523546;0.6828254;5;-5;0;149;-251;3651;0.6932925;1.640704;1.849476;0.6940814;1.712593;1.308687;0.6947528;1.773779;0.8330675;0.6948888;1.787442;0.09939462;0.435889;1.757952;-0.2274039;0.09520058;1.821855;-0.0860287;-0.02105052;0.9346578;0.1541691;0;0;0;0.9562073;1.75279;-0.2274062;1.245713;1.810444;-0.08603311;1.38742;0.877918;0.1104076;1.381212;-0.06946802;0.124853;0.381388;1.630541;1.893574;0.5718527;0.2098093;1.600139;0.779071;0.7350824;2.822217;0.381388;1.630541;1.893574;0.5718527;0.2098093;1.600139;0.779071;0.7350824;2.822217
1073286.0423;NotLabelled;NONE;16384;-0.2202216;0.4099723;-0.6405814;-0.6108033;10;34;34;-1840;2796;-993;65536;0.4293629;-0.3421052;0.6001803;0.5817174;-44;-30;44;132;3058;537;8192;0.6621006;-0.6481994;0.1592798;0.3407202;-5;6;5;1222;3859;-437;32768;0.6315789;-0.6397618;0.300554;0.3185596;-4;-5;-15;-199;4123;-52;256;0.6260388;-0.004155125;-0.7797501;-0.006925208;-3;22;-3;425;256;3541;128;-0.5623268;0;0.7939067;0.2313019;-2;6;4;559;1485;-3544;4;-0.1315789;0.004155125;-0.6412742;-0.7559346;10;-5;0;615;3740;-358;16;0.08864266;-0.6288089;-0.365651;0.6804714;-7;0;10;-2599;-1372;3038;2;0.7334302;-0.602493;-0.3060942;0.0734072;5;1;-7;1441;3206;727;8;-0.09695291;-0.7239596;0.01523546;0.6828254;8;4;-1;309;-227;3763;0.6840626;1.651477;1.834941;0.684854;1.723601;1.294184;0.6855276;1.784995;0.8185906;0.6855765;1.797698;0.08490068;0.4267579;1.766213;-0.2418554;0.08568975;1.828238;-0.1005598;-0.02013446;0.9379399;0.1328935;0;0;0;0.9470979;1.764201;-0.2418585;1.23625;1.823792;-0.1005647;1.381181;0.8922362;0.09811723;1.383384;-0.05502188;0.120145;0.3721582;1.641294;1.879033;0.5743732;0.2211204;1.590808;0.7727575;0.7432561;2.815694;0.3721582;1.641294;1.879033;0.5743732;0.2211204;1.590808;0.7727575;0.7432561;2.815694
1073307.746;NotLabelled;NONE;16384;-0.2243767;0.4099723;-0.6378113;-0.6121883;3;4;46;-2298;3134;-693;65536;0.4182825;-0.3462604;0.6015787;0.5858725;-43;-41;43;-200;4074;105;8192;0.661386;-0.6481994;0.1592798;0.3421052;-4;1;4;1104;3899;-409;32768;0.6315789;-0.6390703;0.300554;0.3199446;-3;-8;-13;-163;4247;-42;256;0.6260388;-0.001385042;-0.7797464;-0.008310249;-5;25;-4;347;184;3735;128;-0.5609418;-0.001385042;0.7944804;0.232687;-2;10;7;799;1455;-3678;4;-0.1301939;0.004155125;-0.6398892;-0.7573467;9;-12;-1;821;3800;-478;16;0.08864266;-0.6301939;-0.365651;0.6791888;-6;4;6;-2649;-1320;3154;2;0.7325627;-0.6038781;-0.3060942;0.07063711;10;-1;-5;1701;3546;747;8;-0.09556787;-0.7241132;0.0166205;0.6828254;11;2;-4;401;-199;3777;0.6782938;1.660255;1.823657;0.6790854;1.73238;1.282899;0.6797594;1.793773;0.807306;0.6797339;1.805516;0.07360023;0.4211117;1.772037;-0.2531132;0.07967381;1.832182;-0.1118973;-0.01806598;0.9399925;0.1178312;0;0;0;0.9414544;1.773176;-0.2531163;1.23024;1.834701;-0.1119019;1.379463;0.9036919;0.08616269;1.38591;-0.04345179;0.1119462;0.3663892;1.650073;1.867748;0.5685867;0.2298989;1.579511;0.7599261;0.7497467;2.806489;0.3663892;1.650073;1.867748;0.5685867;0.2298989;1.579511;0.7599261;0.7497467;2.806489
1073327.7501;NotLabelled;NONE;16384;-0.2243767;0.4016621;-0.6337061;-0.6218836;18;-34;27;-2732;4174;-681;65536;0.400277;-0.3448753;0.6023546;0.5983379;-28;-63;3;68;5392;55;8192;0.6620238;-0.6468144;0.1592798;0.3434903;-6;-3;7;1248;4015;-347;32768;0.6315789;-0.6376759;0.300554;0.3227147;-1;-9;-12;-171;4281;38;256;0.6246537;0.005540166;-0.7808036;-0.01108033;-7;27;-6;-187;-194;4149;128;-0.5609418;-0.005540166;0.7936457;0.2354571;0;13;12;1297;1295;-3882;4;-0.1288089;0.002770083;-0.6385041;-0.7587576;8;-14;-2;1053;3978;-544;16;0.08864266;-0.6315789;-0.367036;0.6771522;-3;4;2;-2627;-1356;3104;2;0.7319968;-0.6052631;-0.3047091;0.07063711;10;-10;-5;1891;3700;1069;8;-0.09418282;-0.7229533;0.01800554;0.6842105;11;-4;-7;421;-307;3837;0.6770158;1.667731;1.807385;0.6778153;1.740604;1.266727;0.678496;1.802655;0.7912195;0.678407;1.813437;0.05749905;0.4199957;1.777966;-0.2691706;0.07819846;1.836226;-0.1280343;-0.01372482;0.9423798;0.09761462;0;0;0;0.9403218;1.782255;-0.2691743;1.228728;1.845711;-0.1280397;1.378383;0.9151784;0.07192683;1.386739;-0.03192627;0.09857786;0.3651107;1.657488;1.851457;0.5730466;0.2377502;1.56516;0.7599275;0.7560045;2.793498;0.3651107;1.657488;1.851457;0.5730466;0.2377502;1.56516;0.7599275;0.7560045;2.793498
1073347.754;NotLabelled;NONE;16384;-0.2229917;0.3975069;-0.632723;-0.6260388;7;-27;16;-2254;5160;-737;65536;0.3947368;-0.3421052;0.601108;0.6048272;-18;-38;-8;-242;5604;-245;8192;0.6626552;-0.6454294;0.1592798;0.3448753;-5;0;11;1172;4001;-419;32768;0.6315789;-0.6369189;0.299169;0.3254848;0;-8;-11;15;4351;226;256;0.6246537;0.009695291;-0.7807422;-0.01246537;-3;20;-6;-529;-304;4321;128;-0.5609418;-0.008310249;0.7936215;0.2354571;-3;1;11;1593;1145;-3564;4;-0.1274238;0.001385042;-0.6371191;-0.7601582;9;-11;-4;1169;4062;-676;16;0.0900277;-0.6315789;-0.367036;0.6769695;0;7;0;-2603;-1564;3092;2;0.7302743;-0.6080332;-0.3033241;0.07063711;8;-9;-8;2105;3688;1103;8;-0.09279778;-0.723058;0.02077562;0.6842105;14;-10;-9;501;-441;3969;0.64948;1.685312;1.786682;0.6502826;1.758414;1.246056;0.6509658;1.820667;0.7705749;0.6507943;1.828285;0.03681445;0.3929464;1.787727;-0.2897085;0.05033994;1.841719;-0.1488371;-0.01925394;0.9446026;0.07177393;0;0;0;0.9131587;1.799431;-0.2897119;1.200618;1.867598;-0.1488421;1.3545;0.9376072;0.05043614;1.366791;-0.009406686;0.07875776;0.3375747;1.67505;1.830749;0.5495908;0.2562847;1.542629;0.7334315;0.7747294;2.771347;0.3375747;1.67505;1.830749;0.5495908;0.2562847;1.542629;0.7334315;0.7747294;2.771347
1073368.8786;NotLabelled;NONE;16384;-0.2216066;0.3933518;-0.6344322;-0.6274238;0;-30;14;-1358;5314;-553;65536;0.3919668;-0.3393352;0.599723;0.6095458;-15;-22;-8;-346;4860;7;8192;0.6628867;-0.6440443;0.1578947;0.3476454;-1;2;4;818;4587;-479;32768;0.6315789;-0.6347783;0.299169;0.3296399;-1;-8;-15;273;4889;-120;256;0.6246537;0.01246537;-0.7806537;-0.01523546;5;16;-7;-753;-498;4345;128;-0.5623268;-0.009695291;0.7926251;0.2354571;-7;-4;9;1689;1067;-3910;4;-0.1274238;0.004155125;-0.6357341;-0.7613068;5;4;-7;1123;4110;-906;16;0.0900277;-0.6301939;-0.368421;0.6775076;0;-5;-2;-2243;-1578;2784;2;0.7295094;-0.6094183;-0.3033241;0.06648199;7;15;-7;2257;3424;1081;8;-0.09279778;-0.7215641;0.02631579;0.6855956;12;-18;-15;741;-807;4183;0.6331212;1.697326;1.782037;0.6339058;1.768822;1.241195;0.6345733;1.829663;0.7655311;0.6344075;1.835057;0.03175116;0.376932;1.791394;-0.2946654;0.03388023;1.842993;-0.1539811;-0.0273797;0.944888;0.0650686;0;0;0;0.8970305;1.807374;-0.2946683;1.183907;1.878328;-0.1539865;1.341304;0.9488906;0.04512823;1.357909;0.002059579;0.07713068;0.3212174;1.687195;1.826144;0.5383242;0.2694218;1.536935;0.7222981;0.7853302;2.7667;0.3212174;1.687195;1.826144;0.5383242;0.2694218;1.536935;0.7222981;0.7853302;2.7667
1073389.7453;NotLabelled;NONE;16384;-0.2188366;0.3891967;-0.6365815;-0.6288089;-3;-46;8;-364;4292;-461;65536;0.3905817;-0.3365651;0.5983379;0.6133201;-15;-24;-4;-744;4056;449;8192;0.6642296;-0.6426592;0.1578947;0.3476454;-3;-3;5;980;4861;-467;32768;0.6315789;-0.6333321;0.299169;0.33241;-4;-12;-6;285;5433;90;256;0.6246537;0.01385042;-0.7805714;-0.01800554;11;28;-7;-479;-610;4593;128;-0.5623268;-0.009695291;0.7926251;0.2354571;-9;-15;8;1657;1045;-3642;4;-0.1274238;0.005540166;-0.634349;-0.7624525;3;10;-9;823;4100;-1046;16;0.08864266;-0.6315789;-0.367036;0.6771522;1;-11;-1;-2319;-1710;2786;2;0.7297552;-0.6080332;-0.3060942;0.06371191;9;21;-2;1929;3336;1207;8;-0.09418282;-0.7199592;0.02908587;0.6869806;10;-18;-18;883;-1091;4259;0.6244264;1.704008;1.783078;0.6251996;1.774447;1.242098;0.6258573;1.834356;0.7663156;0.625625;1.840384;0.03254008;0.3684865;1.794998;-0.2939067;0.02504792;1.843802;-0.1531691;-0.03483673;0.9448094;0.06259809;0;0;0;0.8884448;1.815028;-0.2939099;1.174764;1.888093;-0.1531739;1.337258;0.9602215;0.04912651;1.359702;0.0135982;0.08358634;0.3125234;1.693964;1.827211;0.5361077;0.276101;1.543424;0.7216361;0.795404;2.771526;0.3125234;1.693964;1.827211;0.5361077;0.276101;1.543424;0.7216361;0.795404;2.771526
1073410.7459;NotLabelled;NONE;16384;-0.2174515;0.3822715;-0.6371342;-0.632964;10;-44;14;312;3672;-1005;65536;0.3864266;-0.33518;0.5983379;0.6167014;-13;-36;0;-700;4198;617;8192;0.6641126;-0.6412742;0.1578947;0.3504155;-4;-8;17;1760;4953;-449;32768;0.6301939;-0.6340556;0.300554;0.33241;0;-11;15;139;5671;-396;256;0.6260388;0.01800554;-0.779269;-0.02216066;11;35;-9;-79;-472;3885;128;-0.5637119;-0.006925208;0.7916697;0.2354571;-9;-21;7;1443;1109;-3734;4;-0.1274238;0.008310249;-0.634349;-0.7624274;1;8;-8;441;4158;-902;16;0.08725762;-0.6315789;-0.365651;0.6780808;1;-9;0;-2427;-1690;2752;2;0.7282527;-0.6094183;-0.3074792;0.06094183;12;8;3;1555;3216;1321;8;-0.09695291;-0.7180863;0.033241;0.6883656;7;-26;-22;1133;-1121;4343;0.6170456;1.705172;1.78433;0.6178185;1.775611;1.24335;0.6184759;1.835521;0.7675675;0.6181256;1.84345;0.03381026;0.3612092;1.797465;-0.2927276;0.01751755;1.843971;-0.1518296;-0.04176495;0.944548;0.06230384;0;0;0;0.8810465;1.82042;-0.2927307;1.166967;1.894729;-0.1518341;1.332494;0.9669522;0.0484308;1.358859;0.02048886;0.08449054;0.3051427;1.695128;1.828463;0.5345118;0.2777077;1.547093;0.7181455;0.796152;2.775841;0.3051427;1.695128;1.828463;0.5345118;0.2777077;1.547093;0.7181455;0.796152;2.775841
1073431.742;NotLabelled;NONE;16384;-0.2146814;0.3739612;-0.6315789;-0.6443391;17;-13;14;-316;4218;-631;65536;0.3781163;-0.3310249;0.5983379;0.6240531;-11;-32;9;-256;4180;175;8192;0.6645761;-0.6385041;0.1578947;0.3545706;-7;-10;33;2438;5007;-235;32768;0.6274238;-0.6355425;0.3047091;0.3310249;2;-18;48;1081;5213;376;256;0.6260388;0.02077562;-0.7790708;-0.02631579;20;28;-13;171;-22;3705;128;-0.5637119;-0.005540166;0.7920913;0.234072;-11;-15;10;1231;1211;-3512;4;-0.1274238;0.009695291;-0.634349;-0.762411;-1;0;-8;431;4170;-886;16;0.08725762;-0.632964;-0.365651;0.6767881;0;0;1;-2441;-1654;2966;2;0.7265041;-0.6108033;-0.3088643;0.06094183;17;-9;9;1369;3028;1211;8;-0.09972299;-0.7160973;0.03878116;0.6897507;6;-42;-22;1099;-1005;4279;0.6072813;1.710485;1.784772;0.6080689;1.782283;1.243971;0.6087391;1.843389;0.7683408;0.6082469;1.85219;0.034594;0.3518645;1.803591;-0.2919853;0.00766151;1.845901;-0.1510129;-0.04485002;0.9447168;0.05740425;0;0;0;0.8713976;1.832629;-0.2919884;1.156438;1.910112;-0.1510184;1.325097;0.983416;0.05162096;1.348006;0.03687859;0.08808911;0.2953769;1.70033;1.828872;0.5270088;0.2819237;1.554409;0.7087443;0.8011121;2.783125;0.2953769;1.70033;1.828872;0.5270088;0.2819237;1.554409;0.7087443;0.8011121;2.783125
1073451.7412;NotLabelled;NONE;16384;-0.2146814;0.3725762;-0.6301939;-0.646494;10;-11;10;-804;4054;-481;65536;0.3739612;-0.3296399;0.599723;0.6259576;-12;-24;8;-192;4012;195;8192;0.6649051;-0.6357341;0.1551246;0.3601108;-4;-8;40;2790;4271;-333;32768;0.6246537;-0.6377978;0.3130194;0.3240997;18;-6;79;1069;4781;356;256;0.6274238;0.02216066;-0.7774637;-0.03739612;15;28;-8;-735;398;3703;128;-0.566482;-0.002770083;0.7893012;0.2368421;-14;-1;9;1245;1689;-3320;4;-0.1246537;0.01108033;-0.634349;-0.7628499;-3;-4;-7;469;4092;-816;16;0.08725762;-0.632964;-0.365651;0.6767881;0;2;3;-2349;-1702;2896;2;0.7240483;-0.6135734;-0.3088643;0.06232687;24;-18;13;1717;2912;1033;8;-0.1038781;-0.7138462;0.04432133;0.6911357;5;-51;-22;883;-919;4279;0.5754138;1.716207;1.779652;0.5761962;1.787494;1.238783;0.5768617;1.84815;0.7630959;0.5761949;1.859151;0.02937865;0.3202469;1.809091;-0.2973207;-0.02432624;1.847697;-0.1561893;-0.05196324;0.9447966;0.049566;0;0;0;0.8394795;1.84308;-0.2972865;1.123786;1.922852;-0.156111;1.299771;0.9976761;0.04724681;1.313644;0.05088151;0.08152032;0.2635102;1.706093;1.823765;0.4957823;0.2872012;1.552373;0.6727797;0.8047915;2.782455;0.2635102;1.706093;1.823765;0.4957823;0.2872012;1.552373;0.6727797;0.8047915;2.782455
1073472.7423;NotLabelled;NONE;16384;-0.2132964;0.3711911;-0.6301939;-0.647748;6;-14;3;-1038;3870;-723;65536;0.3698061;-0.3296399;0.599723;0.6284213;-9;-14;5;-78;4144;323;8192;0.6657931;-0.632964;0.1495845;0.365651;9;11;43;2388;3389;-745;32768;0.6246537;-0.6391978;0.3213296;0.3130194;43;29;83;-1115;4197;-1272;256;0.6274238;0.02493075;-0.7770935;-0.04293629;14;21;-6;-1203;432;3697;128;-0.566482;-0.002770083;0.7884646;0.2396122;-12;-3;7;1409;1729;-3476;4;-0.1218837;0.01108033;-0.634349;-0.7632974;0;-9;-6;815;3780;-746;16;0.08864266;-0.634349;-0.367036;0.6745579;0;0;3;-2537;-1380;2712;2;0.7196661;-0.6177285;-0.3102493;0.06509695;25;-24;18;1969;3296;1157;8;-0.1094183;-0.7112077;0.05124654;0.6925207;6;-53;-21;819;-579;4157;0.5726557;1.705036;1.77425;0.5734794;1.780079;1.233889;0.5741814;1.844039;0.7586346;0.5723639;1.866303;0.02517486;0.3168214;1.817153;-0.3019798;-0.02814086;1.848027;-0.159899;-0.05144822;0.9450102;0.04588504;0;0;0;0.8354392;1.859499;-0.3019829;1.118612;1.941664;-0.1599035;1.303876;1.020078;0.05136085;1.299583;0.07284355;0.0740571;0.2607486;1.694616;1.818267;0.4955989;0.2744827;1.555732;0.668469;0.792073;2.7864;0.2607486;1.694616;1.818267;0.4955989;0.2744827;1.555732;0.668469;0.792073;2.7864
1073492.7409;NotLabelled;NONE;16384;-0.2105263;0.3711911;-0.6301939;-0.6486536;6;-15;-5;-1220;3804;-1197;65536;0.368421;-0.3296399;0.599723;0.6292343;-1;-13;1;-92;4174;613;8192;0.6681976;-0.634349;0.1357341;0.3642659;16;66;1;-592;2543;205;32768;0.6315789;-0.6394199;0.3268698;0.2922437;5;-3;12;185;-453;118;256;0.6260388;0.02631579;-0.7779237;-0.04709141;9;18;-1;-1649;334;3873;128;-0.5650969;-0.001385042;0.7890399;0.2409972;-8;-2;4;1665;1797;-3536;4;-0.1204986;0.01108033;-0.634349;-0.7635173;0;-10;-7;911;3864;-810;16;0.08864266;-0.634349;-0.367036;0.6745579;1;0;2;-2583;-1346;2732;2;0.7128566;-0.6246537;-0.3102493;0.0734072;21;-26;21;2189;3938;999;8;-0.1191136;-0.7071556;0.06509695;0.6939058;10;-53;-17;543;-181;4201;0.5696567;1.70233;1.766756;0.5705092;1.780005;1.226767;0.5712364;1.84628;0.75183;0.5688171;1.872291;0.01849538;0.3136891;1.821941;-0.3088003;-0.03153159;1.84819;-0.1664177;-0.05278053;0.9452143;0.03976377;0;0;0;0.8317961;1.870138;-0.3088029;1.114091;1.954761;-0.1664226;1.311642;1.037911;0.05411053;1.289518;0.09065974;0.05775917;0.2577473;1.691696;1.810705;0.4937069;0.2708218;1.553222;0.6593095;0.7860405;2.785882;0.2577473;1.691696;1.810705;0.4937069;0.2708218;1.553222;0.6593095;0.7860405;2.785882
1073512.7729;NotLabelled;NONE;16384;-0.2077562;0.3725762;-0.6288089;-0.6500952;10;-9;-10;-1126;3920;-1163;65536;0.365651;-0.3282548;0.599723;0.6315699;5;-14;-2;-162;4234;557;8192;0.6698563;-0.6371191;0.132964;0.3573407;-4;32;-40;-2132;1869;1503;32768;0.6301939;-0.6388046;0.3282548;0.2950138;-17;-11;-19;5;773;356;256;0.6260388;0.02908587;-0.7776524;-0.04986149;6;6;4;-1977;182;4037;128;-0.5650969;-0.002770083;0.7886118;0.2423823;-7;5;0;1901;1657;-3798;4;-0.1204986;0.01108033;-0.634349;-0.7635173;0;-3;-7;927;3940;-666;16;0.08864266;-0.6357341;-0.367036;0.6732527;1;-2;2;-2605;-1502;2850;2;0.710128;-0.6274238;-0.3102493;0.07617728;18;-16;16;2219;3874;1001;8;-0.1204986;-0.7050256;0.07063711;0.6952909;11;-30;-10;355;-237;4111;0.5681764;1.696988;1.760133;0.5690547;1.777037;1.220491;0.5698048;1.8454;0.7458501;0.566834;1.874985;0.01265299;0.3119198;1.824376;-0.3147689;-0.03341343;1.8474;-0.1721018;-0.05308737;0.9452729;0.03792014;0;0;0;0.8296603;1.876359;-0.3147721;1.111399;1.962347;-0.1721075;1.317324;1.050927;0.06280458;1.280295;0.1046005;0.03307366;0.2562647;1.68616;1.80402;0.4918573;0.2649229;1.548211;0.6618729;0.7801423;2.78027;0.2562647;1.68616;1.80402;0.4918573;0.2649229;1.548211;0.6618729;0.7801423;2.78027
1073533.7567;NotLabelled;NONE;16384;-0.2049861;0.3739612;-0.6274238;-0.651516;12;-8;-13;-898;4192;-981;65536;0.365651;-0.3282548;0.599723;0.6315699;8;-11;-2;-192;4212;371;8192;0.6682951;-0.6398892;0.1385041;0.3531856;6;-19;-47;-1030;1533;629;32768;0.6301939;-0.6424175;0.3185596;0.2977839;-30;62;-35;-1179;2255;1154;256;0.6246537;0.02908587;-0.7786756;-0.05124654;0;-12;5;-1891;340;3493;128;-0.5637119;-0.002770083;0.789176;0.2437673;5;-6;-2;2091;1659;-3576;4;-0.1191136;0.01246537;-0.6357341;-0.7625607;-2;4;-7;823;4040;-592;16;0.08864266;-0.6357341;-0.367036;0.6732527;-1;0;1;-2557;-1568;2978;2;0.7081437;-0.6288089;-0.3116343;0.07756232;13;-5;11;2283;3714;1131;8;-0.1191136;-0.7051209;0.07202215;0.6952909;10;1;-3;321;-241;3983;0.5631905;1.698557;1.751429;0.5640746;1.779119;1.211863;0.5648297;1.847932;0.7372873;0.5615609;1.878114;0.004115582;0.3070194;1.825794;-0.3233274;-0.03846995;1.846002;-0.1806115;-0.05541568;0.9452367;0.03540479;0;0;0;0.8243386;1.881818;-0.3233312;1.105411;1.96988;-0.1806169;1.305376;1.056559;0.05204725;1.268606;0.1101561;0.0245254;0.2512783;1.687688;1.795302;0.4869061;0.2664509;1.539526;0.6521894;0.78005;2.772905;0.2512783;1.687688;1.795302;0.4869061;0.2664509;1.539526;0.6521894;0.78005;2.772905
1073553.7509;NotLabelled;NONE;16384;-0.200831;0.3753462;-0.6274238;-0.6520134;1;-9;-8;-522;4226;-787;65536;0.3628809;-0.3254848;0.602493;0.6319646;5;-11;8;-326;4188;277;8192;0.6651892;-0.6426592;0.1440443;0.3518005;27;-17;-37;564;1731;-911;32768;0.6315789;-0.6471006;0.3060942;0.2977839;-43;63;-47;-783;1811;3158;256;0.6232687;0.02631579;-0.7801449;-0.04709141;-20;-42;-7;-1297;708;3425;128;-0.5623268;-0.005540166;0.7914189;0.2396122;20;-13;-1;1989;1801;-3084;4;-0.1204986;0.01385042;-0.6357341;-0.7623191;-3;8;-7;673;4030;-576;16;0.08864266;-0.6357341;-0.367036;0.6732527;-4;1;0;-2543;-1530;3022;2;0.7062992;-0.6301939;-0.3130194;0.07756232;8;0;7;2219;3362;1219;8;-0.1163435;-0.7057232;0.07063711;0.6952909;7;15;0;529;-189;3857;0.5601117;1.693042;1.745018;0.561013;1.775176;1.205689;0.5617833;1.845371;0.7313161;0.5582746;1.877271;-0.001781642;0.3037356;1.825297;-0.3292816;-0.04174986;1.844596;-0.1864309;-0.05528729;0.9452369;0.03560503;0;0;0;0.8209609;1.88218;-0.3292855;1.101924;1.970375;-0.1864363;1.291026;1.052684;0.03797519;1.260913;0.1057165;0.02646148;0.2481983;1.682046;1.788849;0.4789133;0.2590551;1.538396;0.6486501;0.7726536;2.771171;0.2481983;1.682046;1.788849;0.4789133;0.2590551;1.538396;0.6486501;0.7726536;2.771171
1073573.9808;NotLabelled;NONE;16384;-0.199446;0.3753462;-0.6274238;-0.6524384;0;-7;-7;-686;4104;-667;65536;0.3614958;-0.3254848;0.6038781;0.6314362;4;-5;10;-274;4208;389;8192;0.6602248;-0.6481994;0.1454294;0.3504155;41;3;-28;1554;2097;-483;32768;0.6288089;-0.65301;0.2977839;0.299169;-49;33;-28;2315;2911;1090;256;0.6246537;0.0235457;-0.7795127;-0.0401662;-25;-48;-7;-1025;328;3385;128;-0.5623268;-0.006925208;0.7922414;0.2368421;21;-12;0;1521;1557;-3198;4;-0.1204986;0.01523546;-0.6357341;-0.7622927;-3;4;-6;509;4038;-632;16;0.08864266;-0.6357341;-0.368421;0.6724958;-3;4;-2;-2473;-1546;2942;2;0.7063006;-0.6288089;-0.3157895;0.07756232;4;6;4;2145;3136;1083;8;-0.1135734;-0.7061743;0.07063711;0.6952909;5;5;0;819;-239;3785;0.5624899;1.698195;1.740826;0.5633327;1.775012;1.200715;0.5640517;1.840531;0.7256727;0.5610589;1.870377;-0.007513821;0.3061256;1.819921;-0.3349447;-0.03919918;1.842945;-0.1922571;-0.05194355;0.9453748;0.03694798;0;0;0;0.8238738;1.87183;-0.334948;1.10563;1.957726;-0.1922628;1.28492;1.036935;0.02744985;1.261719;0.08971131;0.03161466;0.250581;1.687632;1.784798;0.4803885;0.264551;1.534018;0.6546258;0.7781504;2.766165;0.250581;1.687632;1.784798;0.4803885;0.264551;1.534018;0.6546258;0.7781504;2.766165
1073594.8605;NotLabelled;NONE;16384;-0.1980609;0.3753462;-0.6288089;-0.6515263;1;-5;-11;-768;3806;-723;65536;0.3601108;-0.3268698;0.6052631;0.6301848;5;-4;10;-14;4070;353;8192;0.6468144;-0.6625278;0.1509695;0.3462604;43;-2;-47;1410;2823;-517;32768;0.6288089;-0.6621339;0.2783934;0.2977839;-1;35;-18;-2467;9061;-4022;256;0.6246537;0.02077562;-0.7799752;-0.03185596;-28;-51;-1;-813;106;3475;128;-0.5609418;-0.008310249;0.7940312;0.234072;23;-8;0;1231;1333;-3318;4;-0.1177285;0.0166205;-0.6371191;-0.7615399;-3;-2;-6;419;3984;-752;16;0.08864266;-0.6357341;-0.3698061;0.6717352;-1;3;-1;-2455;-1610;2866;2;0.7052065;-0.6288089;-0.3185596;0.07617728;2;4;3;1603;3104;899;8;-0.1163435;-0.7068029;0.0734072;0.6939058;1;-24;0;1265;-463;3979;0.5652679;1.70351;1.739178;0.5660731;1.776881;1.198588;0.5667588;1.839369;0.7231371;0.5646341;1.863734;-0.01025504;0.3092849;1.814115;-0.3374896;-0.035807;1.842674;-0.1952397;-0.04905272;0.9455743;0.03576995;0;0;0;0.8276609;1.859326;-0.3374926;1.110411;1.942644;-0.1952441;1.27498;1.020438;0.02998388;1.250469;0.07347822;0.0513289;0.2533623;1.693227;1.783238;0.4846212;0.2697074;1.536315;0.6515939;0.7850664;2.768733;0.2533623;1.693227;1.783238;0.4846212;0.2697074;1.536315;0.6515939;0.7850664;2.768733
1073616.7415;NotLabelled;NONE;16384;-0.1966759;0.3767313;-0.6288089;-0.6511464;2;-7;-18;-802;3796;-833;65536;0.3587258;-0.3268698;0.6052631;0.6309743;6;-4;10;-188;4006;473;8192;0.6398892;-0.6703315;0.1523546;0.3434903;60;4;-35;3854;5905;-1615;32768;0.6288089;-0.6627898;0.2797784;0.2950138;0;-1;23;-1383;10065;-654;256;0.6232687;0.0166205;-0.7814765;-0.0235457;-21;-46;5;45;-412;4241;128;-0.5609418;-0.009695291;0.7952286;0.2299169;17;-12;-4;981;793;-3742;4;-0.1163435;0.01800554;-0.6371191;-0.7617212;-2;-7;-6;429;3948;-758;16;0.08864266;-0.634349;-0.3698061;0.6730433;-3;3;-1;-2519;-1550;2834;2;0.7033407;-0.6301939;-0.3199446;0.07617728;7;3;8;1475;3196;703;8;-0.1191136;-0.706048;0.07617728;0.6939058;-1;-22;-2;957;-619;4087;0.5722097;1.70934;1.73674;0.5729798;1.779514;1.195726;0.573635;1.839192;0.7199146;0.5723736;1.856611;-0.01367766;0.3165462;1.807648;-0.3406374;-0.02818532;1.842637;-0.1989505;-0.04461969;0.9458872;0.03321286;0;0;0;0.8355319;1.845219;-0.3406406;1.119381;1.925714;-0.1989561;1.245692;0.999956;0.03618908;1.22547;0.0538516;0.08377254;0.2603068;1.699317;1.78088;0.4881043;0.2737583;1.542662;0.6521644;0.7908672;2.774737;0.2603068;1.699317;1.78088;0.4881043;0.2737583;1.542662;0.6521644;0.7908672;2.774737
1073636.9062;NotLabelled;NONE;16384;-0.1939058;0.3795014;-0.6288089;-0.6503681;4;-1;-21;-784;3574;-799;65536;0.3573407;-0.3282548;0.6066482;0.6297097;10;2;9;-336;4238;503;8192;0.6357341;-0.6721405;0.1523546;0.3476454;-8;-39;33;6562;11533;3081;32768;0.6260388;-0.6648228;0.2811634;0.2950138;-15;-11;13;233;2895;-134;256;0.6232687;0.01523546;-0.7816189;-0.01939058;-3;-12;1;2239;-1014;4943;128;-0.5595568;-0.01108033;0.7969804;0.2271468;3;7;-2;281;471;-4564;4;-0.1149584;0.01800554;-0.6371191;-0.7619315;-3;-16;-5;449;3886;-710;16;0.08864266;-0.634349;-0.3711911;0.6722804;-4;7;-2;-2701;-1554;2820;2;0.7033407;-0.6301939;-0.3199446;0.07617728;7;-8;12;1477;3060;641;8;-0.1218837;-0.705575;0.07617728;0.6939058;-4;-11;-4;1099;-481;4283;0.5716588;1.714332;1.732872;0.5723766;1.779736;1.19126;0.5729854;1.835219;0.7149418;0.5723312;1.847021;-0.01876301;0.3158515;1.799881;-0.3454793;-0.0282991;1.841781;-0.2042567;-0.0449622;0.9459344;0.03134891;0;0;0;0.8353983;1.828669;-0.3454825;1.120508;1.905438;-0.2042624;1.227912;0.9788374;0.03688276;1.203769;0.03263748;0.08059311;0.2597603;1.704698;1.777129;0.4878212;0.278397;1.543653;0.6609054;0.797139;2.773805;0.2597603;1.704698;1.777129;0.4878212;0.278397;1.543653;0.6609054;0.797139;2.773805
1073657.9435;NotLabelled;NONE;16384;-0.1925208;0.3850415;-0.6260388;-0.6501955;6;15;-9;-838;4372;-819;65536;0.3587258;-0.3310249;0.6080332;0.6261261;11;12;16;-618;4268;131;8192;0.6398892;-0.6674636;0.1523546;0.3490305;-36;33;13;1826;5485;661;32768;0.6232687;-0.6662468;0.2839335;0.2950138;-19;-22;6;987;4111;556;256;0.6232687;0.01523546;-0.7815833;-0.02077562;2;18;-9;1673;-876;4619;128;-0.5595568;-0.01246537;0.7965639;0.2285319;-1;5;6;-39;685;-4626;4;-0.1108033;0.01523546;-0.6385041;-0.7614479;-3;-25;-6;673;3842;-772;16;0.0900277;-0.632964;-0.3739612;0.6718665;-3;10;-5;-2807;-1592;2824;2;0.7017912;-0.6315789;-0.3199446;0.07894737;10;-28;16;1627;3172;749;8;-0.1232687;-0.7051834;0.07756232;0.6939058;-6;-14;-7;1335;-175;4213;0.578383;1.718746;1.724441;0.5790656;1.780951;1.182452;0.5796434;1.83362;0.7058136;0.5792437;1.841927;-0.02793926;0.3224992;1.795115;-0.3544948;-0.02136655;1.840216;-0.2135645;-0.0405237;0.9462171;0.02877418;0;0;0;0.8422437;1.820084;-0.3544986;1.127877;1.895428;-0.2135705;1.232429;0.9708004;0.03624582;1.202079;0.0248934;0.08236301;0.2664872;1.709375;1.768774;0.4951251;0.2827537;1.537825;0.6653037;0.8032436;2.767646;0.2664872;1.709375;1.768774;0.4951251;0.2827537;1.537825;0.6653037;0.8032436;2.767646
1073678.7373;NotLabelled;NONE;16384;-0.1925208;0.3878116;-0.6246537;-0.6498812;5;13;-5;-1090;5542;-291;65536;0.3587258;-0.33241;0.6094183;0.6240423;7;6;18;-350;4574;349;8192;0.6440443;-0.6672768;0.1481994;0.3434903;3;54;-8;-1126;1123;-2919;32768;0.6204986;-0.6676245;0.2853186;0.2963989;-9;-5;3;545;3969;660;256;0.6218836;0.01800554;-0.7825485;-0.0235457;3;-3;11;-1409;-210;4763;128;-0.5567867;-0.01385042;0.7984797;0.2285319;-2;16;-12;1569;1459;-4436;4;-0.1080332;0.01385042;-0.6385041;-0.7618724;-6;-24;-7;1009;4058;-746;16;0.09141274;-0.6315789;-0.3753462;0.6722105;-1;13;-11;-2811;-1476;2860;2;0.6981804;-0.6357341;-0.3185596;0.08310249;11;-37;13;2267;3630;677;8;-0.1260388;-0.703016;0.08033241;0.6952909;-7;-32;-9;1333;-53;4141;0.5847226;1.714548;1.714978;0.5854112;1.77727;1.173048;0.5859942;1.830394;0.6964608;0.5855012;1.840288;-0.03727245;0.3288028;1.79374;-0.3639019;-0.01512511;1.837942;-0.2228384;-0.03371179;0.946485;0.02873252;0;0;0;0.8485032;1.819607;-0.3639052;1.134022;1.89514;-0.2228444;1.249677;0.9704573;0.02182364;1.212712;0.02481043;0.06842792;0.2728266;1.705134;1.759298;0.4969276;0.2774463;1.530509;0.6660614;0.8005035;2.759384;0.2728266;1.705134;1.759298;0.4969276;0.2774463;1.530509;0.6660614;0.8005035;2.759384
1073699.7588;NotLabelled;NONE;16384;-0.1925208;0.3891967;-0.6246537;-0.6490527;-5;8;-12;-1392;5200;11;65536;0.3573407;-0.33518;0.6108033;0.6219978;2;11;19;-276;4798;121;8192;0.6385041;-0.6726698;0.1509695;0.3421052;21;-30;-13;1144;4107;-993;32768;0.6191136;-0.6694982;0.2839335;0.2963989;-3;0;-6;-143;4407;-120;256;0.6191136;0.0166205;-0.7848127;-0.02216066;0;-12;10;-179;12;4449;128;-0.5540166;-0.01523546;0.7999823;0.2299169;-6;6;-17;1581;1633;-4052;4;-0.1052632;0.01246537;-0.6412742;-0.759955;-9;6;-9;839;4106;-672;16;0.09141274;-0.6274238;-0.3767313;0.6753196;3;0;-16;-2303;-1784;2774;2;0.6957722;-0.6385041;-0.3171745;0.08725762;16;-29;8;3117;4138;547;8;-0.1301939;-0.7017707;0.08448754;0.6952909;-4;-40;-9;1141;-49;4057;0.5889078;1.71801;1.710851;0.5895931;1.780433;1.168887;0.5901732;1.833294;0.6922706;0.5895627;1.843902;-0.04145241;0.3332151;1.795682;-0.3681156;-0.01103766;1.837074;-0.226992;-0.02866551;0.9466643;0.02832698;0;0;0;0.8526993;1.825583;-0.3681182;1.13763;1.903191;-0.226997;1.256152;0.9777453;0.01337135;1.21504;0.03245246;0.06355119;0.2770121;1.708621;1.755179;0.5009139;0.2807007;1.527644;0.6761168;0.8045917;2.755312;0.2770121;1.708621;1.755179;0.5009139;0.2807007;1.527644;0.6761168;0.8045917;2.755312
1073720.8971;NotLabelled;NONE;16384;-0.1939058;0.3919668;-0.6260388;-0.6456299;-12;6;-10;-1404;4356;-191;65536;0.3573407;-0.3379501;0.6108033;0.6204971;-4;22;18;66;4452;-43;8192;0.6357341;-0.673959;0.1537396;0.3434903;17;-10;-12;1778;4357;-389;32768;0.6191136;-0.6688833;0.2839335;0.2977839;-11;-7;-3;-219;4089;-96;256;0.6177285;0.01385042;-0.7859949;-0.02077562;1;-13;8;111;216;4307;128;-0.5512465;-0.01385042;0.8015203;0.2313019;-7;0;-11;1293;1565;-3972;4;-0.1066482;0.01523546;-0.6426592;-0.7585402;-8;10;-10;653;4164;-620;16;0.0900277;-0.6274238;-0.3767313;0.6755056;5;-5;-13;-2205;-1754;2780;2;0.69176;-0.6426592;-0.3171745;0.08864266;11;-1;4;2939;3906;835;8;-0.1357341;-0.7002066;0.08864266;0.6952909;4;-13;-3;907;-579;3783;0.5948362;1.713734;1.705086;0.5955325;1.777194;1.163243;0.5961225;1.830966;0.6867275;0.5955635;1.84139;-0.04699802;0.3390322;1.794097;-0.373652;-0.005056541;1.836883;-0.2325443;-0.0225558;0.946938;0.02440031;0;0;0;0.8586301;1.821949;-0.3736551;1.143863;1.89847;-0.23255;1.248999;0.9721153;0.01053393;1.205881;0.02715433;0.06509614;0.2829393;1.70426;1.749389;0.4955021;0.2743011;1.523791;0.6899645;0.8048747;2.745677;0.2829393;1.70426;1.749389;0.4955021;0.2743011;1.523791;0.6899645;0.8048747;2.745677
1073741.7263;NotLabelled;NONE;16384;-0.1939058;0.3919668;-0.6274238;-0.644284;-17;3;2;-1250;4326;-219;65536;0.3587258;-0.3434903;0.6094183;0.6180126;-10;32;22;-146;3936;-417;8192;0.634349;-0.674946;0.1551246;0.3434903;0;0;-8;1218;4269;271;32768;0.6177285;-0.6683353;0.2853186;0.300554;-14;-13;-1;-45;4175;274;256;0.6163435;0.01108033;-0.7871607;-0.01939058;2;-15;2;89;-140;3917;128;-0.5498615;-0.01246537;0.8024938;0.2313019;-6;-7;-4;1159;1137;-3602;4;-0.1066482;0.01800554;-0.6426592;-0.7584794;-5;9;-11;511;4078;-488;16;0.08864266;-0.6260388;-0.3753462;0.6777412;4;-9;-8;-2065;-1762;2814;2;0.6911233;-0.6426592;-0.3185596;0.08864266;5;4;5;2367;3492;967;8;-0.134349;-0.7004737;0.08864266;0.6952909;10;6;-1;987;-775;3825;0.6042247;1.703729;1.700912;0.6049501;1.769817;1.159383;0.6055657;1.825901;0.6831348;0.6050234;1.837311;-0.05057645;0.3481877;1.792021;-0.3772749;0.004375044;1.836714;-0.2360849;-0.01957883;0.9470773;0.0214065;0;0;0;0.8679457;1.816705;-0.3772783;1.153649;1.891296;-0.2360911;1.254806;0.9647312;0.007879257;1.213735;0.01974654;0.06359863;0.2923256;1.69404;1.745152;0.4995199;0.2627466;1.523048;0.6981573;0.7958491;2.74316;0.2923256;1.69404;1.745152;0.4995199;0.2627466;1.523048;0.6981573;0.7958491;2.74316
1073761.7454;NotLabelled;NONE;16384;-0.199446;0.3878116;-0.632964;-0.6396718;-30;-9;10;-1270;3488;-511;65536;0.3573407;-0.3545706;0.6066482;0.6152765;-10;16;18;492;4140;241;8192;0.634349;-0.6746262;0.1565097;0.3434903;-2;-1;-2;746;3899;-665;32768;0.6149584;-0.6702629;0.2853186;0.301939;-12;-14;-2;193;4069;366;256;0.6163435;0.009695291;-0.7872118;-0.01800554;2;-16;-1;63;-208;3845;128;-0.5498615;-0.01246537;0.8028918;0.2299169;-1;-8;-3;899;1075;-3590;4;-0.1052632;0.01939058;-0.6440443;-0.7574633;-3;4;-10;485;3984;-454;16;0.08587258;-0.6260388;-0.3739612;0.6788626;2;-4;-1;-1823;-1758;3008;2;0.6904832;-0.6426592;-0.3199446;0.08864266;0;8;6;2067;3282;963;8;-0.1315789;-0.7009994;0.08864266;0.6952909;16;15;-1;1189;-691;3811;0.6095754;1.697152;1.696203;0.6103119;1.764278;1.154802;0.6109371;1.821274;0.6786622;0.6104247;1.833652;-0.05503315;0.3532998;1.790359;-0.3817751;0.009773925;1.836963;-0.2405053;-0.0166824;0.9472331;0.01641632;0;0;0;0.8731987;1.811873;-0.3817782;1.159359;1.884534;-0.2405106;1.258005;0.9576517;0.003280044;1.217591;0.01278484;0.0614264;0.2976754;1.687378;1.740419;0.5052835;0.2553349;1.523601;0.7154539;0.7908479;2.740721;0.2976754;1.687378;1.740419;0.5052835;0.2553349;1.523601;0.7154539;0.7908479;2.740721
1073781.9084;NotLabelled;NONE;16384;-0.199446;0.3864266;-0.6357341;-0.6377601;-17;-19;0;-1884;3056;-965;65536;0.3545706;-0.3573407;0.6066482;0.6152765;-6;-13;8;-20;3732;1181;8192;0.632964;-0.6759259;0.1565097;0.3434903;7;-12;-2;514;3593;-1091;32768;0.6135734;-0.6696873;0.2867036;0.3047091;-11;-13;-2;179;4031;364;256;0.6149584;0.004155125;-0.7884269;-0.01385042;3;-14;0;331;-66;3767;128;-0.5470914;-0.009695291;0.8056062;0.2271468;0;-8;-4;741;1177;-3644;4;-0.1052632;0.02077562;-0.6454294;-0.7562466;-2;0;-9;447;3926;-428;16;0.08587258;-0.6274238;-0.3725762;0.6783452;1;-3;6;-2101;-1708;3114;2;0.6906582;-0.6412742;-0.3227147;0.08725762;-3;10;8;2047;3258;703;8;-0.1301939;-0.7026285;0.08864266;0.6939058;19;5;-4;1389;-533;3629;0.6247419;1.70167;1.694947;0.625464;1.767463;1.153383;0.6260765;1.823286;0.6771036;0.6256257;1.835319;-0.05659735;0.3683405;1.792872;-0.3833239;0.02499586;1.840878;-0.2420833;-0.01215962;0.9474429;0.0002424428;0;0;0;0.888319;1.812363;-0.383327;1.174757;1.883977;-0.2420881;1.273012;0.9565638;-0.0001661777;1.228899;0.01221025;0.0633831;0.3128431;1.692006;1.739195;0.5164848;0.2584491;1.528705;0.7290975;0.7972335;2.743956;0.3128431;1.692006;1.739195;0.5164848;0.2584491;1.528705;0.7290975;0.7972335;2.743956
1073801.7307;NotLabelled;NONE;16384;-0.1966759;0.3850415;-0.6394559;-0.6357341;-6;-13;3;-1312;3056;-937;65536;0.3518005;-0.3573407;0.6052631;0.6182237;-6;-13;5;-430;3316;1003;8192;0.6288089;-0.6770318;0.1592798;0.3476454;9;-2;-3;1172;4049;-849;32768;0.6108033;-0.6715424;0.2853186;0.3074792;-9;3;-2;29;4145;422;256;0.6149584;0.002770083;-0.7884561;-0.01246537;3;-10;0;481;-60;3759;128;-0.5470914;-0.008310249;0.8056217;0.2271468;-2;-7;-2;657;1243;-3670;4;-0.1024931;0.02216066;-0.6468144;-0.755404;-5;-4;-9;465;4018;-498;16;0.08725762;-0.6288089;-0.3725762;0.6768844;-4;12;10;-2201;-1594;3270;2;0.6906429;-0.6398892;-0.3254848;0.08725762;-3;3;13;2081;3272;567;8;-0.1288089;-0.7025288;0.09141274;0.6939058;21;-11;-7;1487;-427;3833;0.6301894;1.694971;1.691553;0.6309046;1.760152;1.149914;0.6315112;1.815439;0.6735726;0.6312505;1.827715;-0.06012452;0.3734111;1.788949;-0.3868718;0.03076141;1.841671;-0.2456246;-0.01009735;0.9474427;-0.00684608;0;0;0;0.8936102;1.801222;-0.3868545;1.181011;1.868808;-0.2455845;1.277975;0.941348;-0.003322959;1.234614;-0.002874613;0.06264579;0.3182909;1.685355;1.735815;0.5165877;0.2506002;1.528412;0.7319816;0.7860135;2.744663;0.3182909;1.685355;1.735815;0.5165877;0.2506002;1.528412;0.7319816;0.7860135;2.744663
1073821.7505;NotLabelled;NONE;16384;-0.1980609;0.3822715;-0.6406891;-0.6357341;-7;-8;16;-620;2902;-663;65536;0.3504155;-0.3559557;0.6066482;0.6184517;-11;-13;6;-126;2594;549;8192;0.6274238;-0.6783155;0.1592798;0.3476454;5;7;-4;1034;3997;-735;32768;0.6108033;-0.6721292;0.2839335;0.3074792;-8;3;-5;73;4087;306;256;0.6149584;0;-0.788461;-0.01246537;2;-6;-3;531;-18;3837;128;-0.5470914;-0.006925208;0.806024;0.2257618;-2;-3;1;789;1253;-3704;4;-0.101108;0.02216066;-0.6481994;-0.7544028;-5;-13;-9;475;3982;-408;16;0.08864266;-0.6288089;-0.3739612;0.67594;-7;16;13;-2429;-1534;3098;2;0.6879768;-0.6412742;-0.3268698;0.09279778;0;-12;18;2147;3306;673;8;-0.1274238;-0.7012511;0.1024931;0.6939058;24;-25;-11;1397;-69;3821;0.6332538;1.690737;1.684848;0.6339778;1.756702;1.143304;0.6345921;1.812678;0.667043;0.6343572;1.824602;-0.06666005;0.3763593;1.786682;-0.3933816;0.03392137;1.840803;-0.2521501;-0.01467046;0.9473318;-0.0119902;0;0;0;0.8966022;1.796932;-0.3933846;1.184267;1.863468;-0.2521548;1.276973;0.937276;-0.003460526;1.232376;-0.006275654;0.07076585;0.3213549;1.681058;1.729091;0.5163025;0.2445854;1.530591;0.7275518;0.7758685;2.749377;0.3213549;1.681058;1.729091;0.5163025;0.2445854;1.530591;0.7275518;0.7758685;2.749377
1073842.9934;NotLabelled;NONE;16384;-0.199446;0.3808864;-0.6397078;-0.6371191;-4;-7;17;-630;2512;-421;65536;0.3476454;-0.3559557;0.6066482;0.6200131;-10;-16;9;660;2996;167;8192;0.6274238;-0.679347;0.1578947;0.3462604;7;8;-4;796;3985;-741;32768;0.6094183;-0.6727511;0.2839335;0.3088643;-9;-3;-7;-11;4179;238;256;0.6149584;0;-0.7884817;-0.01108033;1;-2;-5;343;-46;3845;128;-0.5470914;-0.006925208;0.806024;0.2257618;0;-2;5;933;1233;-3810;4;-0.09695291;0.02216066;-0.6481994;-0.754948;-1;-17;-10;481;3998;-614;16;0.0900277;-0.6301939;-0.3767313;0.6729221;-6;21;11;-2629;-1472;2804;2;0.6869373;-0.6412742;-0.3282548;0.09556787;2;-13;19;2183;3358;627;8;-0.1274238;-0.700419;0.1080332;0.6939058;21;-18;-10;1257;-123;3893;0.6349606;1.687465;1.690727;0.6356785;1.752883;1.149117;0.6362875;1.808378;0.6727991;0.6360666;1.822802;-0.0608592;0.3778884;1.787123;-0.3876906;0.03569759;1.842258;-0.2462529;-0.01320626;0.9473588;-0.01153362;0;0;0;0.8981712;1.7951;-0.3876934;1.186131;1.859897;-0.2462575;1.275909;0.9339707;0.004493952;1.231786;-0.009452462;0.08060658;0.3230622;1.677831;1.734983;0.5134431;0.2402856;1.539845;0.7220173;0.7707977;2.759428;0.3230622;1.677831;1.734983;0.5134431;0.2402856;1.539845;0.7220173;0.7707977;2.759428
1073862.8889;NotLabelled;NONE;16384;-0.2022161;0.3795014;-0.6357341;-0.6410379;7;3;8;-1742;3404;-385;65536;0.3379501;-0.3573407;0.6108033;0.6204971;-1;-24;11;744;3958;-295;8192;0.6260388;-0.6803008;0.1592798;0.3462604;4;-2;-3;596;4101;-819;32768;0.6094183;-0.6726969;0.2825485;0.3102493;-9;-3;-8;-7;4147;346;256;0.6149584;0;-0.7885;-0.009695291;-4;3;-7;413;52;3801;128;-0.5470914;-0.006925208;0.8064106;0.2243767;0;-1;8;837;1287;-3822;4;-0.09556787;0.02216066;-0.6481994;-0.7551246;-2;-4;-7;563;4056;-846;16;0.09418282;-0.6301939;-0.3795014;0.6707935;-3;23;9;-2721;-1474;2674;2;0.68525;-0.6426592;-0.3282548;0.09833795;6;-12;18;2343;3266;401;8;-0.1260388;-0.6988615;0.1108033;0.6952909;15;-5;-12;1253;-187;4079;0.6301568;1.689331;1.689633;0.6308746;1.75475;1.148023;0.6314836;1.810244;0.6717052;0.6313096;1.823066;-0.06198245;0.3730809;1.787113;-0.3887444;0.03098027;1.84314;-0.2474388;-0.01423941;0.9472859;-0.01564298;0;0;0;0.8933765;1.794203;-0.3887469;1.181443;1.858819;-0.2474427;1.269542;0.9329977;0.004289746;1.224582;-0.01012516;0.08357441;0.3182581;1.679696;1.733889;0.5105696;0.2413871;1.54643;0.7090217;0.7711976;2.768005;0.3182581;1.679696;1.733889;0.5105696;0.2413871;1.54643;0.7090217;0.7711976;2.768005
1073883.7649;NotLabelled;NONE;16384;-0.200831;0.3795014;-0.6371191;-0.6400975;1;-6;-1;-2120;3938;143;65536;0.33518;-0.3573407;0.6121883;0.6206347;-4;-17;1;520;4134;93;8192;0.6246537;-0.6805419;0.1606648;0.3476454;3;-10;0;786;3945;-709;32768;0.6080332;-0.6733097;0.2825485;0.3116343;-8;-4;-7;-63;4085;278;256;0.6149584;0;-0.7885;-0.009695291;-6;9;-8;351;106;3789;128;-0.5470914;-0.006925208;0.8064106;0.2243767;2;0;10;755;1277;-3712;4;-0.09556787;0.0235457;-0.6481994;-0.7550827;-6;6;-6;505;4002;-836;16;0.09556787;-0.6288089;-0.3822715;0.6703243;-1;18;6;-2817;-1544;2606;2;0.6828775;-0.6440443;-0.3296399;0.101108;7;-15;19;2407;3262;421;8;-0.1246537;-0.698889;0.1121884;0.6952909;8;-7;-14;1617;-295;4271;0.6278265;1.693962;1.680511;0.6285295;1.75805;1.138742;0.6291257;1.812375;0.6622893;0.6289913;1.823594;-0.0714249;0.3707097;1.787368;-0.3981147;0.02870155;1.844286;-0.2569412;-0.005670674;0.9470739;-0.02855995;0;0;0;0.8910166;1.793571;-0.3981179;1.179189;1.858004;-0.2569474;1.263917;0.9319284;-0.004997253;1.221345;-0.0110625;0.07712412;0.315929;1.684437;1.724799;0.5088844;0.245882;1.5399;0.7021798;0.7714863;2.764116;0.315929;1.684437;1.724799;0.5088844;0.245882;1.5399;0.7021798;0.7714863;2.764116
1073904.7411;NotLabelled;NONE;16384;-0.199446;0.3795014;-0.6371191;-0.6405305;-1;-11;-2;-1746;4198;-367;65536;0.33241;-0.3559557;0.6121883;0.6229162;-3;-12;-4;336;4474;223;8192;0.6232687;-0.6807744;0.1620499;0.3490305;3;0;2;1094;3847;-899;32768;0.6080332;-0.6731786;0.2797784;0.3144044;-4;-1;-5;-181;4101;420;256;0.6163435;0.004155125;-0.7874067;-0.009695291;-9;11;-7;-51;-222;4047;128;-0.5484765;-0.008310249;0.8062227;0.2216066;3;3;10;941;1119;-3772;4;-0.09556787;0.02493075;-0.6495845;-0.7538469;-5;-1;-5;351;3850;-360;16;0.09833795;-0.6288089;-0.3836565;0.6691313;0;9;1;-2831;-1546;2720;2;0.6809392;-0.6454294;-0.3296399;0.1052632;9;-21;18;2505;3110;491;8;-0.1260388;-0.6952909;0.1163435;0.6979606;6;-28;-14;1505;-161;3777;0.6334189;1.693437;1.676147;0.6341223;1.757525;1.134378;0.6347183;1.811849;0.6579258;0.6345839;1.823069;-0.07578832;0.3763023;1.786842;-0.4024781;0.03429416;1.84376;-0.2613046;-0.003147324;0.946986;-0.03168932;0;0;0;0.8966092;1.793045;-0.4024812;1.184782;1.857478;-0.2613108;1.26825;0.9315832;-0.008277178;1.22486;-0.01108932;0.07700765;0.3215217;1.683911;1.720436;0.5150424;0.2450488;1.538548;0.7070965;0.7731788;2.761872;0.3215217;1.683911;1.720436;0.5150424;0.2450488;1.538548;0.7070965;0.7731788;2.761872
1073925.7337;NotLabelled;NONE;16384;-0.1980609;0.3781163;-0.6385041;-0.6404002;0;-9;-3;-1510;4410;-635;65536;0.33241;-0.3545706;0.6121883;0.6237056;-3;-3;-9;212;4792;293;8192;0.6232687;-0.680391;0.1606648;0.3504155;2;-2;3;1036;3851;-863;32768;0.6080332;-0.6731786;0.2797784;0.3144044;-4;-2;-5;-169;4073;330;256;0.6163435;0.006925208;-0.7874032;-0.008310249;-6;8;-7;-59;-340;4079;128;-0.5498615;-0.009695291;0.8052632;0.2216066;3;0;8;1087;999;-3856;4;-0.09279778;0.02493075;-0.6495845;-0.7541929;1;-10;-3;445;3948;-464;16;0.09833795;-0.6288089;-0.3822715;0.6699235;5;-15;-6;-2677;-1496;2758;2;0.6778671;-0.6481994;-0.3296399;0.1080332;10;-22;16;2439;3158;583;8;-0.1288089;-0.6925207;0.1204986;0.6995022;11;-31;-18;1189;-265;3805;0.6322148;1.710002;1.679131;0.6328778;1.770414;1.13694;0.6334384;1.821506;0.66013;0.6334471;1.828951;-0.07363236;0.3755058;1.789348;-0.4001988;0.03308932;1.844743;-0.2594098;-0.005597306;0.9468842;-0.03428351;0;0;0;0.8957606;1.798971;-0.4000977;1.183462;1.866022;-0.259185;1.263807;0.9386067;-0.01074648;1.224887;-0.003747225;0.08004105;0.3203208;1.700777;1.723507;0.5098411;0.2608159;1.546158;0.6948494;0.7855237;2.772038;0.3203208;1.700777;1.723507;0.5098411;0.2608159;1.546158;0.6948494;0.7855237;2.772038
1073946.7334;NotLabelled;NONE;16384;-0.1980609;0.3795014;-0.6395804;-0.6385041;-2;-7;-7;-1356;4602;-525;65536;0.333795;-0.3531856;0.6121883;0.6237518;-1;-5;-12;58;4584;299;8192;0.6218836;-0.6798974;0.1620499;0.3531856;3;-3;3;1172;3853;-791;32768;0.6080332;-0.6725301;0.2797784;0.3157895;-2;1;-5;-133;4169;352;256;0.6163435;0.008310249;-0.7873898;-0.008310249;-4;5;-6;-219;-428;4169;128;-0.5498615;-0.01108033;0.8056252;0.2202216;3;-3;7;1181;1019;-3904;4;-0.09141274;0.0235457;-0.6495845;-0.7544066;0;-9;-3;593;4010;-500;16;0.09556787;-0.6288089;-0.3795014;0.6718965;5;-24;-9;-2637;-1594;2844;2;0.6722219;-0.6509695;-0.33241;0.1177285;0;-4;23;2583;3242;413;8;-0.1301939;-0.6883656;0.1315789;0.7013482;28;-32;-22;1331;-329;3815;0.6313497;1.717167;1.674954;0.6320015;1.776556;1.132649;0.6325525;1.82675;0.6557438;0.632482;1.830088;-0.07804835;0.3746201;1.787974;-0.4043634;0.03206921;1.843247;-0.2638539;-0.007147183;0.9469278;-0.03276252;0;0;0;0.8948478;1.798979;-0.4043663;1.182381;1.867579;-0.2638584;1.266309;0.9428401;-0.006784081;1.227402;0.0004862547;0.08400905;0.3194565;1.708026;1.719353;0.5102211;0.2676085;1.547112;0.6984192;0.7906368;2.773224;0.3194565;1.708026;1.719353;0.5102211;0.2676085;1.547112;0.6984192;0.7906368;2.773224
1073967.7453;NotLabelled;NONE;16384;-0.1952908;0.3767313;-0.6434394;-0.6371191;-4;-13;0;-490;4154;-689;65536;0.333795;-0.3504155;0.6108033;0.6266651;0;-5;-3;-388;4268;501;8192;0.6218836;-0.6802261;0.1606648;0.3531856;1;3;1;1104;4015;-839;32768;0.6080332;-0.6731046;0.2783934;0.3157895;-2;3;-7;39;4155;388;256;0.6163435;0.009695291;-0.7873739;-0.008310249;-1;2;-5;-241;-396;4313;128;-0.5512465;-0.01108033;0.8050559;0.2188366;2;-8;4;1241;1091;-3986;4;-0.0900277;0.0235457;-0.6495845;-0.7545732;-1;-10;-3;595;4050;-442;16;0.09279778;-0.6301939;-0.3767313;0.6725457;5;-24;-11;-2497;-1592;2850;2;0.6714453;-0.6495845;-0.33518;0.1218837;-2;0;26;2539;3088;541;8;-0.1301939;-0.6869806;0.1371191;0.7016448;30;-19;-21;1187;-307;4177;0.6347244;1.724579;1.681591;0.6353528;1.781849;1.139059;0.6358831;1.830178;0.6619609;0.6359329;1.832264;-0.07183617;0.3782202;1.789029;-0.3981225;0.03552523;1.843795;-0.2577657;-0.008174107;0.9470359;-0.02919813;0;0;0;0.8984225;1.801169;-0.3980556;1.185781;1.870637;-0.2576164;1.270537;0.9455096;-0.00221312;1.233552;0.003169179;0.08951497;0.3228331;1.715611;1.726039;0.5137186;0.2752601;1.553385;0.7071756;0.7999979;2.777947;0.3228331;1.715611;1.726039;0.5137186;0.2752601;1.553385;0.7071756;0.7999979;2.777947
1073988.8743;NotLabelled;NONE;16384;-0.1966759;0.3753462;-0.6424533;-0.6385041;0;-4;7;-170;4362;-801;65536;0.33241;-0.3490305;0.6094183;0.6295162;-1;-6;3;-402;4406;491;8192;0.6218836;-0.6802261;0.1606648;0.3531856;1;6;-3;950;4023;-893;32768;0.6080332;-0.6736757;0.2770083;0.3157895;0;5;-9;-57;4187;348;256;0.6163435;0.009695291;-0.7873873;-0.006925208;0;-1;-6;-111;-418;4339;128;-0.5512465;-0.01108033;0.8054311;0.2174515;0;-9;4;1181;1027;-4084;4;-0.0900277;0.02216066;-0.6509695;-0.7534206;-1;-4;-2;511;4052;-496;16;0.09141274;-0.6301939;-0.3739612;0.6742792;6;-18;-11;-2489;-1536;2866;2;0.6695455;-0.6495845;-0.3379501;0.1246537;-3;-5;29;2381;3068;611;8;-0.1274238;-0.6855956;0.1412742;0.702683;23;-4;-20;1727;-207;4343;0.6339046;1.729445;1.681469;0.6345159;1.785153;1.138774;0.6350312;1.832108;0.6615388;0.6350097;1.832942;-0.07226032;0.3773623;1.788589;-0.3984483;0.0345614;1.842846;-0.2581528;-0.01476743;0.9470192;-0.02708984;0;0;0;0.8975369;1.801863;-0.3984513;1.184756;1.872197;-0.2581586;1.270034;0.9486295;0.002657175;1.233524;0.006455898;0.09627175;0.3220147;1.720604;1.725952;0.5135188;0.2800318;1.555847;0.7080315;0.8047606;2.780245;0.3220147;1.720604;1.725952;0.5135188;0.2800318;1.555847;0.7080315;0.8047606;2.780245
1074010.8806;NotLabelled;NONE;16384;-0.1980609;0.3753462;-0.6420277;-0.6385041;2;8;9;-294;4520;-549;65536;0.3310249;-0.3490305;0.6094183;0.6302456;-3;-6;9;-166;4288;319;8192;0.6218836;-0.6798974;0.1620499;0.3531856;0;-2;-2;990;3899;-745;32768;0.6094183;-0.6729065;0.2742382;0.3171745;1;2;-7;89;4099;400;256;0.6177285;0.009695291;-0.7863122;-0.005540166;3;-5;-5;-175;-276;4149;128;-0.5526316;-0.009695291;0.805611;0.2132964;0;-13;2;1107;1081;-3968;4;-0.08864266;0.02216066;-0.6509695;-0.7535848;-1;-1;-1;335;4018;-586;16;0.0900277;-0.6301939;-0.3725762;0.6752316;8;-12;-10;-2347;-1484;2988;2;0.6694008;-0.6481994;-0.3393352;0.1288089;0;-15;28;2261;2818;541;8;-0.1274238;-0.6828254;0.1454294;0.7045302;16;-28;-13;2251;3;3915;0.6246222;1.733719;1.683273;0.6252187;1.788101;1.140444;0.625721;1.833892;0.6630958;0.6257389;1.833124;-0.07070374;0.368033;1.7885;-0.3968081;0.02531794;1.843648;-0.2566503;-0.02031085;0.9468744;-0.02851786;0;0;0;0.8882294;1.800885;-0.3968112;1.175561;1.871035;-0.2566558;1.260859;0.9474669;0.004152656;1.224812;0.005464196;0.09964824;0.3127334;1.724987;1.727787;0.4984618;0.2839168;1.555509;0.6986025;0.8077245;2.779395;0.3127334;1.724987;1.727787;0.4984618;0.2839168;1.555509;0.6986025;0.8077245;2.779395
1074051.7399;NotLabelled;NONE;16384;-0.2036011;0.3753462;-0.6371191;-0.6416705;-3;13;9;-1086;4048;-289;65536;0.3282548;-0.3518005;0.6094183;0.6301543;-6;6;11;188;4166;347;8192;0.6204986;-0.6801105;0.1634349;0.3545706;1;-2;-4;986;3953;-685;32768;0.6121883;-0.6702957;0.2728532;0.3185596;1;3;-8;-127;4093;340;256;0.6177285;0.008310249;-0.786328;-0.005540166;5;-7;-3;-147;-200;3959;128;-0.5526316;-0.005540166;0.8063785;0.2105263;-2;-15;0;1115;1179;-3656;4;-0.08864266;0.02216066;-0.6509695;-0.7535848;-4;0;3;327;4058;-602;16;0.08864266;-0.6274238;-0.3698061;0.6795037;4;3;-4;-2295;-1656;2948;2;0.6630488;-0.6509695;-0.3421052;0.1398892;4;-23;28;2773;2860;427;8;-0.1301939;-0.6800554;0.1551246;0.7046351;14;3;-17;487;157;3289;0.624431;1.741512;1.683693;0.6249906;1.792493;1.140534;0.6254601;1.835291;0.662908;0.6255131;1.832894;-0.07088792;0.3677472;1.787988;-0.3969063;0.02512019;1.844034;-0.2568899;-0.02070323;0.9468002;-0.030612;0;0;0;0.8879641;1.799482;-0.3969095;1.175408;1.86945;-0.2568951;1.259325;0.9453282;0.002395153;1.228554;0.003384233;0.1002831;0.3125456;1.733061;1.728282;0.4995083;0.2917674;1.559235;0.6980038;0.8163662;2.78305;0.3125456;1.733061;1.728282;0.4995083;0.2917674;1.559235;0.6980038;0.8163662;2.78305
1074073.7937;NotLabelled;NONE;16384;-0.2063712;0.3753462;-0.6371191;-0.640785;-6;10;7;-1228;3948;-343;65536;0.3268698;-0.3545706;0.6094183;0.6293212;-4;18;9;76;4064;403;8192;0.6204986;-0.6801105;0.1634349;0.3545706;0;0;-6;988;3953;-593;32768;0.6121883;-0.6708579;0.2714681;0.3185596;0;1;-8;-151;4031;356;256;0.6177285;0.006925208;-0.7863414;-0.005540166;6;-4;-2;-185;-186;3909;128;-0.5526316;-0.004155125;0.8067472;0.2091413;0;-9;0;1037;1181;-3798;4;-0.08864266;0.02216066;-0.6523545;-0.7523862;-4;1;4;337;4024;-546;16;0.08864266;-0.6274238;-0.3698061;0.6795037;4;0;-3;-2355;-1684;2766;2;0.6585258;-0.6523545;-0.3434903;0.1509695;-1;-17;27;3133;3148;465;8;-0.1260388;-0.6772853;0.1648199;0.7058564;42;-37;-19;1583;343;3111;0.6157844;1.740645;1.681776;0.616341;1.791386;1.138594;0.6168082;1.833974;0.6609496;0.6168313;1.832833;-0.07284927;0.3589574;1.789047;-0.3989344;0.01645797;1.845599;-0.2588095;-0.01865578;0.9465852;-0.03774543;0;0;0;0.8791982;1.799408;-0.3989371;1.166799;1.86851;-0.2588135;1.249533;0.944577;0.001528502;1.226703;0.002245665;0.09785259;0.303899;1.732213;1.72637;0.490855;0.2909189;1.557316;0.7039223;0.8177471;2.777718;0.303899;1.732213;1.72637;0.490855;0.2909189;1.557316;0.7039223;0.8177471;2.777718
1074094.738;NotLabelled;NONE;16384;-0.2105263;0.3781163;-0.6391783;-0.6357341;-10;31;2;-650;4112;-685;65536;0.33518;-0.365651;0.602493;0.6252646;-2;81;5;-410;4444;423;8192;0.6204986;-0.6797761;0.1648199;0.3545706;-1;-3;-7;1006;3829;-627;32768;0.6121883;-0.6701984;0.2714681;0.3199446;0;-3;-5;-277;4067;306;256;0.6177285;0.006925208;-0.7863414;-0.005540166;4;-3;-2;-145;-192;4063;128;-0.5526316;-0.004155125;0.8067472;0.2091413;-3;2;0;1097;1209;-4070;4;-0.0900277;0.02216066;-0.6523545;-0.7522217;-6;4;3;347;4108;-730;16;0.08864266;-0.6274238;-0.3698061;0.6795037;4;-1;-4;-2373;-1682;2698;2;0.6578044;-0.6509695;-0.3462604;0.1537396;-5;2;24;2891;3296;265;8;-0.1232687;-0.6745152;0.1731302;0.7070078;41;-22;-19;1295;525;3631;0.6192802;1.739448;1.680493;0.619831;1.789672;1.137263;0.6202931;1.831806;0.6595778;0.620291;1.831921;-0.07422185;0.362312;1.789254;-0.4003728;0.01994094;1.846313;-0.260139;-0.01608371;0.9464152;-0.04284658;0;0;0;0.882574;1.798482;-0.4003757;1.170329;1.866717;-0.2601446;1.253076;0.942785;0.0001935959;1.230709;0.0006377697;0.09840918;0.3073953;1.731058;1.725098;0.4891097;0.2889986;1.556863;0.7022191;0.8158269;2.777259;0.3073953;1.731058;1.725098;0.4891097;0.2889986;1.556863;0.7022191;0.8158269;2.777259
1074114.7463;NotLabelled;NONE;16384;-0.2160665;0.3822715;-0.6362273;-0.634349;-11;62;0;-610;4608;-575;65536;0.3448753;-0.3753462;0.5969529;0.6195349;-5;138;4;-794;4988;179;8192;0.6191136;-0.6796378;0.16759;0.3559557;-3;-11;-2;1292;3817;-801;32768;0.6121883;-0.6695355;0.2714681;0.3213296;3;-6;2;-313;4137;438;256;0.6177285;0.005540166;-0.7863524;-0.005540166;1;-2;-2;-141;-216;4297;128;-0.5512465;-0.004155125;0.8069718;0.2119114;-25;6;-2;1115;1075;-3860;4;-0.09141274;0.0235457;-0.6523545;-0.7520126;-6;8;4;193;4094;-782;16;0.08864266;-0.6260388;-0.3698061;0.68078;3;0;-4;-2547;-1734;2796;2;0.6573843;-0.6495845;-0.3490305;0.1551246;-9;21;19;2721;3242;259;8;-0.1204986;-0.6731302;0.1786704;0.7074269;30;1;-11;2037;261;4673;0.6272007;1.739617;1.679336;0.6277515;1.789841;1.136106;0.6282137;1.831975;0.6584215;0.6282114;1.83209;-0.07537818;0.3702325;1.789424;-0.4015291;0.02786145;1.846482;-0.2612953;-0.01807341;0.9461465;-0.04771907;0;0;0;0.8904945;1.798651;-0.4015321;1.17825;1.866886;-0.2613008;1.260551;0.9424021;-0.00278759;1.240135;0.0003074408;0.09635353;0.3153158;1.731228;1.723941;0.4964017;0.2893922;1.553127;0.709511;0.81622;2.773523;0.3153158;1.731228;1.723941;0.4964017;0.2893922;1.553127;0.709511;0.81622;2.773523
1074135.7534;NotLabelled;NONE;16384;-0.2257618;0.3905817;-0.6319281;-0.6301939;-13;95;1;-806;5298;-83;65536;0.3601108;-0.3919668;0.5858725;0.6110938;-12;181;5;190;5472;-325;8192;0.6191136;-0.677836;0.1689751;0.3587258;-2;-12;0;1188;3833;-999;32768;0.6121883;-0.6689722;0.2728532;0.3213296;4;-6;4;-65;4063;384;256;0.6163435;0.004155125;-0.7874555;-0.004155125;5;-17;0;-261;-368;4223;128;-0.5498615;-0.001385042;0.8068244;0.2160665;-18;-8;-7;1171;1105;-3774;4;-0.09279778;0.0235457;-0.6537396;-0.7506389;-3;3;2;311;4048;-284;16;0.08725762;-0.6260388;-0.3698061;0.6809589;1;-3;-10;-2729;-1900;2800;2;0.6578962;-0.6468144;-0.3531856;0.1551246;-11;21;18;2601;3050;499;8;-0.1177285;-0.6731302;0.1800554;0.7075421;14;7;0;2337;-99;4921;0.6273963;1.731817;1.680269;0.6279789;1.784894;1.13731;0.6284686;1.829536;0.6598535;0.6284473;1.830907;-0.07394493;0.3703674;1.78936;-0.4001608;0.02812527;1.846925;-0.2598191;-0.01707111;0.9461544;-0.04792587;0;0;0;0.8906484;1.797455;-0.4001635;1.178555;1.864823;-0.259824;1.259245;0.9399807;-0.002084613;1.240788;-0.002057433;0.0979749;0.315509;1.723193;1.724811;0.4965028;0.2812968;1.554416;0.7140952;0.8097258;2.773327;0.315509;1.723193;1.724811;0.4965028;0.2812968;1.554416;0.7140952;0.8097258;2.773327
1074157.2895;NotLabelled;NONE;16384;-0.2368421;0.398892;-0.628171;-0.6246537;-12;90;0;-1656;5340;-515;65536;0.3725762;-0.4058172;0.5761772;0.6037543;-2;122;3;838;4632;47;8192;0.6177285;-0.6780185;0.1703601;0.3601108;0;-13;0;1052;3879;-769;32768;0.6135734;-0.6671345;0.2742382;0.3213296;3;-4;2;-65;4203;232;256;0.6163435;0.001385042;-0.7874714;-0.002770083;9;-22;-1;-347;-314;4309;128;-0.5484765;0;0.8077678;0.2160665;-15;-17;-8;1155;1261;-3910;4;-0.09279778;0.0235457;-0.6551247;-0.7494304;-3;-6;1;495;4022;-20;16;0.08725762;-0.6232687;-0.3698061;0.6834952;3;0;-13;-2485;-1796;2772;2;0.6591198;-0.6440443;-0.3559557;0.1551246;-8;6;22;2387;2808;545;8;-0.1149584;-0.6745152;0.1786704;0.7070295;5;26;7;1623;149;4003;0.6272784;1.719272;1.678135;0.6279242;1.778118;1.135772;0.6284697;1.827833;0.6588165;0.6284573;1.828876;-0.07498258;0.3702193;1.788188;-0.4011812;0.02820314;1.847147;-0.2608677;-0.01874351;0.9459523;-0.05117017;0;0;0;0.8905278;1.794258;-0.4011843;1.178694;1.860568;-0.2608733;1.264134;0.9360222;-0.003600717;1.245562;-0.006205916;0.09463131;0.3153857;1.710175;1.722547;0.4898895;0.2677633;1.549761;0.711531;0.7987052;2.766849;0.3153857;1.710175;1.722547;0.4898895;0.2677633;1.549761;0.711531;0.7987052;2.766849
1074178.7813;NotLabelled;NONE;16384;-0.2423823;0.4044321;-0.6266314;-0.6204986;-24;38;-13;-2620;3870;-711;65536;0.3836565;-0.4155124;0.5692521;0.5967488;10;115;-10;192;4768;-141;8192;0.6177285;-0.6765783;0.1731302;0.3614958;-2;-6;-6;1088;4011;-557;32768;0.6135734;-0.6671345;0.2742382;0.3213296;2;-2;0;-91;4185;278;256;0.6163435;-0.001385042;-0.7874714;-0.002770083;12;-24;1;-271;-36;4073;128;-0.5470914;0.004155125;0.8086959;0.2160665;-12;-22;-10;1223;1435;-3780;4;-0.0900277;0.02216066;-0.6551247;-0.7498104;-1;-21;1;647;3972;-390;16;0.08725762;-0.6218836;-0.3698061;0.6847557;8;-2;-13;-2281;-1454;2874;2;0.6563563;-0.6440443;-0.3573407;0.1634349;-1;-27;23;2861;3014;381;8;-0.1052632;-0.6800554;0.1731302;0.7046065;17;28;10;1483;833;2795;0.6305404;1.713232;1.67941;0.6311972;1.773084;1.137157;0.6317524;1.823683;0.6602944;0.6317422;1.825631;-0.07350308;0.3732603;1.786915;-0.3997481;0.03160909;1.847776;-0.2593573;-0.01995722;0.945749;-0.05437322;0;0;0;0.8935962;1.789826;-0.3997505;1.18216;1.854213;-0.2593613;1.266518;0.9298539;-0.001059532;1.250243;-0.01283669;0.09305441;0.3186469;1.704053;1.723799;0.4878874;0.2609153;1.551838;0.7183967;0.7950332;2.765886;0.3186469;1.704053;1.723799;0.4878874;0.2609153;1.551838;0.7183967;0.7950332;2.765886
1074199.2458;NotLabelled;NONE;16384;-0.2382271;0.4168975;-0.6295742;-0.6108033;-15;18;-35;-1740;3306;-69;65536;0.4113573;-0.4279778;0.5554016;0.5823652;26;95;-33;984;3374;729;8192;0.6177285;-0.6762223;0.1745152;0.3614958;-3;0;-9;760;4243;-537;32768;0.6135734;-0.6671345;0.2742382;0.3213296;1;0;-2;-67;4119;308;256;0.6149584;-0.004155125;-0.7885474;-0.001385042;9;-20;2;-169;196;3939;128;-0.5457063;0.008310249;0.8095992;0.2160665;-7;-21;-9;1025;1525;-3606;4;-0.08864266;0.01939058;-0.6551247;-0.7500522;0;-15;3;609;4114;-782;16;0.08587258;-0.6218836;-0.367036;0.6864191;10;-12;-11;-1937;-1274;2844;2;0.6539435;-0.6454294;-0.3573407;0.16759;-2;-16;15;3373;3250;475;8;-0.09972299;-0.6814404;0.1731302;0.704074;26;21;1;1183;927;2957;0.6359454;1.701715;1.67713;0.6366301;1.764146;1.135168;0.6372099;1.817013;0.6585514;0.6371616;1.821468;-0.07523483;0.3784923;1.784992;-0.4015901;0.03711869;1.846864;-0.2609661;-0.01954373;0.945839;-0.0529427;0;0;0;0.8988358;1.785633;-0.4016234;1.187687;1.848281;-0.2610381;1.273382;0.9244689;-0.001225471;1.257112;-0.01822186;0.09288919;0.3240494;1.692325;1.721459;0.4940122;0.249015;1.551674;0.7289919;0.7847131;2.764167;0.3240494;1.692325;1.721459;0.4940122;0.249015;1.551674;0.7289919;0.7847131;2.764167
1074219.8205;NotLabelled;NONE;16384;-0.2368421;0.4182825;-0.6318553;-0.6080332;-15;-8;-21;-972;2990;-815;65536;0.4210526;-0.4293629;0.5526316;0.5770274;32;51;-26;200;3310;59;8192;0.6177285;-0.6766024;0.1759003;0.3601108;-1;-3;-10;622;3759;-575;32768;0.6135734;-0.6671345;0.2742382;0.3213296;0;-4;0;-265;3985;270;256;0.6149584;-0.008310249;-0.7885146;-0.001385042;8;-19;0;165;268;3697;128;-0.5457063;0.009695291;0.8099521;0.2146814;-2;-11;-5;717;1505;-3818;4;-0.08864266;0.01800554;-0.6551247;-0.7500867;-2;-6;4;691;3966;-726;16;0.08448754;-0.6218836;-0.3642659;0.6880646;9;-19;-7;-2119;-1408;3194;2;0.6541944;-0.6440443;-0.3587258;0.1689751;-6;13;8;3471;3234;323;8;-0.09556787;-0.6814404;0.1745152;0.7043083;26;9;-3;1437;763;3587;0.6520624;1.688288;1.682878;0.6527755;1.753283;1.141217;0.6533805;1.808405;0.6648562;0.6534065;1.813758;-0.06892425;0.3945413;1.779257;-0.3953383;0.0535413;1.843031;-0.254658;-0.02496755;0.9465679;-0.03438618;0;0;0;0.914879;1.776733;-0.3953412;1.204097;1.837449;-0.254663;1.290185;0.9118654;-0.001369476;1.274238;-0.03082502;0.09280074;0.3401644;1.678688;1.727145;0.5090404;0.2357227;1.553391;0.7536913;0.7702769;2.764475;0.3401644;1.678688;1.727145;0.5090404;0.2357227;1.553391;0.7536913;0.7702769;2.764475
1074260.8866;NotLabelled;NONE;16384;-0.2354571;0.4168975;-0.6346136;-0.6066482;-11;-21;-11;-626;2542;-759;65536;0.4279778;-0.4265928;0.5512465;0.5753093;34;18;-23;-126;2494;1065;8192;0.6177285;-0.6747683;0.1800554;0.3614958;-2;-8;0;1264;4017;-555;32768;0.6135734;-0.6665634;0.2756233;0.3213296;1;-2;7;-361;4111;352;256;0.6149584;-0.01108033;-0.7884817;0;-1;-8;-7;829;6;3535;128;-0.5457063;0.01385042;0.8102576;0.2132964;3;-5;3;223;1265;-3600;4;-0.08864266;0.0166205;-0.6551247;-0.7501186;-1;1;4;879;3874;-490;16;0.08310249;-0.6218836;-0.3614958;0.6896923;6;-14;-7;-2265;-1596;3264;2;0.6553326;-0.6412742;-0.3628809;0.166205;-6;42;4;2829;3048;155;8;-0.09279778;-0.6814404;0.1759003;0.7043342;13;4;-2;1469;263;4265;0.6582198;1.67986;1.692323;0.6589272;1.744323;1.150598;0.6595269;1.798976;0.6741837;0.659631;1.808079;-0.0595594;0.4005642;1.776944;-0.3861526;0.05998119;1.842231;-0.2451562;-0.02578952;0.9468898;-0.02303734;0;0;0;0.9208742;1.77101;-0.3861554;1.210475;1.829111;-0.2451611;1.293896;0.9025711;0.005517721;1.27794;-0.04011905;0.09968638;0.346322;1.670304;1.736603;0.5146214;0.2276312;1.55988;0.7646334;0.7609993;2.770393;0.346322;1.670304;1.736603;0.5146214;0.2276312;1.55988;0.7646334;0.7609993;2.770393
1074281.8217;NotLabelled;NONE;16384;-0.2313019;0.4099723;-0.6393104;-0.6080332;10;-34;22;644;2462;-1037;65536;0.4238227;-0.4182825;0.5609418;0.5751159;8;-90;19;614;2496;2153;8192;0.6177285;-0.6721534;0.1814404;0.365651;-3;-5;8;1154;3821;-787;32768;0.6135734;-0.6660783;0.2783934;0.3199446;2;-2;12;-249;4007;206;256;0.6163435;-0.009695291;-0.7874178;0;-3;9;-6;695;76;3547;128;-0.5457063;0.01385042;0.81134;0.2091413;8;2;5;231;1343;-3474;4;-0.09972299;0.02077562;-0.6551247;-0.7486224;0;28;7;299;3930;-450;16;0.08310249;-0.6218836;-0.3601108;0.6904165;-2;6;3;-2027;-1440;3062;2;0.6575345;-0.6385041;-0.365651;0.1620499;1;-12;-2;2753;2690;473;8;-0.08725762;-0.6828254;0.1717452;0.7047263;4;10;-3;1471;621;3015;0.6580601;1.673012;1.705171;0.6587788;1.738521;1.163572;0.6593886;1.794096;0.6872641;0.6595627;1.804096;-0.0464676;0.4003183;1.774934;-0.3731018;0.06013504;1.842116;-0.23203;-0.03038768;0.9469702;-0.01101029;0;0;0;0.9205828;1.765841;-0.373105;1.210528;1.82201;-0.2320364;1.294755;0.8942747;0.01390696;1.278314;-0.04859555;0.1061752;0.3461614;1.663371;1.749426;0.5138727;0.2209966;1.569737;0.7692108;0.7531357;2.779678;0.3461614;1.663371;1.749426;0.5138727;0.2209966;1.569737;0.7692108;0.7531357;2.779678
1074302.7615;NotLabelled;NONE;16384;-0.2271468;0.4030471;-0.6345516;-0.6191136;38;-28;21;-1314;3598;-321;65536;0.3975069;-0.3947368;0.5789474;0.592445;-2;-168;4;-130;3948;819;8192;0.6177285;-0.6717709;0.1800554;0.367036;-5;3;10;1178;3839;-745;32768;0.6135734;-0.6661618;0.2797784;0.3185596;3;-3;15;-327;4051;388;256;0.6163435;-0.008310249;-0.7874336;0;-1;13;-3;615;70;3587;128;-0.5457063;0.01246537;0.8113625;0.2091413;10;9;5;339;1375;-3640;4;-0.1024931;0.02216066;-0.6551247;-0.7482083;0;15;8;51;3988;-294;16;0.08310249;-0.6218836;-0.3601108;0.6904165;-1;0;5;-2149;-1526;3024;2;0.6566135;-0.6398892;-0.3642659;0.1634349;-1;-13;-2;3213;2926;333;8;-0.08587258;-0.6828254;0.1717452;0.7048964;7;0;-6;1579;727;3285;0.6711738;1.685936;1.727357;0.6718497;1.747495;1.185295;0.6724216;1.799596;0.7085941;0.6725325;1.808366;-0.0251534;0.4133347;1.778085;-0.3517227;0.07301217;1.844753;-0.2107434;-0.02039137;0.9473016;-0.0005370732;0;0;0;0.9336179;1.770139;-0.3517423;1.223447;1.827184;-0.2107847;1.312122;0.898371;0.0294621;1.292467;-0.04489172;0.1169671;0.3592788;1.676617;1.771705;0.5242323;0.2353597;1.580847;0.7782423;0.7656286;2.791889;0.3592788;1.676617;1.771705;0.5242323;0.2353597;1.580847;0.7782423;0.7656286;2.791889
1074323.7713;NotLabelled;NONE;16384;-0.2229917;0.398892;-0.6332201;-0.6246537;41;-39;23;-1398;4074;-247;65536;0.3795014;-0.3795014;0.5900277;0.6031789;-6;-183;1;204;4472;-353;8192;0.6191136;-0.6701054;0.1786704;0.368421;-6;4;12;1158;3823;-625;32768;0.6121883;-0.6675125;0.2811634;0.3171745;3;-6;18;-191;3955;290;256;0.6163435;-0.006925208;-0.787447;0;-5;18;-1;323;178;3703;128;-0.5457063;0.009695291;0.8117561;0.2077562;14;14;6;543;1427;-3920;4;-0.1038781;0.02216066;-0.6551247;-0.7480174;0;3;7;285;4024;-210;16;0.08448754;-0.6232687;-0.3601108;0.688998;-1;0;3;-2447;-1608;2988;2;0.6566135;-0.6398892;-0.3642659;0.1634349;-4;14;-1;2957;3166;191;8;-0.08587258;-0.6814404;0.1745152;0.705556;3;-13;-4;1643;785;3987;0.6498454;1.690368;1.716474;0.6505123;1.751137;1.174322;0.6510762;1.802543;0.6975462;0.6511742;1.81006;-0.03621536;0.3920458;1.778655;-0.3627335;0.05157736;1.844821;-0.2218701;-0.01826775;0.947341;-0.002826294;0;0;0;0.9123451;1.771845;-0.3627371;1.202048;1.829762;-0.2218758;1.294229;0.903681;0.02742934;1.272155;-0.03978431;0.1121258;0.337951;1.681114;1.760841;0.5021801;0.2400663;1.567788;0.7562056;0.7703364;2.778826;0.337951;1.681114;1.760841;0.5021801;0.2400663;1.567788;0.7562056;0.7703364;2.778826
