SEP=;
index;label;segment;RightUpperArm_boneIndex;RightUpperArm_quat9x_w;RightUpperArm_quat9x_x;RightUpperArm_quat9x_y;RightUpperArm_quat9x_z;RightUpperArm_gyroscope_x;RightUpperArm_gyroscope_y;RightUpperArm_gyroscope_z;RightUpperArm_accelerometer_x;RightUpperArm_accelerometer_y;RightUpperArm_accelerometer_z;RightLowerArm_boneIndex;RightLowerArm_quat9x_w;RightLowerArm_quat9x_x;RightLowerArm_quat9x_y;RightLowerArm_quat9x_z;RightLowerArm_gyroscope_x;RightLowerArm_gyroscope_y;RightLowerArm_gyroscope_z;RightLowerArm_accelerometer_x;RightLowerArm_accelerometer_y;RightLowerArm_accelerometer_z;LeftUpperArm_boneIndex;LeftUpperArm_quat9x_w;LeftUpperArm_quat9x_x;LeftUpperArm_quat9x_y;LeftUpperArm_quat9x_z;LeftUpperArm_gyroscope_x;LeftUpperArm_gyroscope_y;LeftUpperArm_gyroscope_z;LeftUpperArm_accelerometer_x;LeftUpperArm_accelerometer_y;LeftUpperArm_accelerometer_z;LeftLowerArm_boneIndex;LeftLowerArm_quat9x_w;LeftLowerArm_quat9x_x;LeftLowerArm_quat9x_y;LeftLowerArm_quat9x_z;LeftLowerArm_gyroscope_x;LeftLowerArm_gyroscope_y;LeftLowerArm_gyroscope_z;LeftLowerArm_accelerometer_x;LeftLowerArm_accelerometer_y;LeftLowerArm_accelerometer_z;Chest_boneIndex;Chest_quat9x_w;Chest_quat9x_x;Chest_quat9x_y;Chest_quat9x_z;Chest_gyroscope_x;Chest_gyroscope_y;Chest_gyroscope_z;Chest_accelerometer_x;Chest_accelerometer_y;Chest_accelerometer_z;Spine_boneIndex;Spine_quat9x_w;Spine_quat9x_x;Spine_quat9x_y;Spine_quat9x_z;Spine_gyroscope_x;Spine_gyroscope_y;Spine_gyroscope_z;Spine_accelerometer_x;Spine_accelerometer_y;Spine_accelerometer_z;RightUpperLeg_boneIndex;RightUpperLeg_quat9x_w;RightUpperLeg_quat9x_x;RightUpperLeg_quat9x_y;RightUpperLeg_quat9x_z;RightUpperLeg_gyroscope_x;RightUpperLeg_gyroscope_y;RightUpperLeg_gyroscope_z;RightUpperLeg_accelerometer_x;RightUpperLeg_accelerometer_y;RightUpperLeg_accelerometer_z;RightLowerLeg_boneIndex;RightLowerLeg_quat9x_w;RightLowerLeg_quat9x_x;RightLowerLeg_quat9x_y;RightLowerLeg_quat9x_z;RightLowerLeg_gyroscope_x;RightLowerLeg_gyroscope_y;RightLowerLeg_gyroscope_z;RightLowerLeg_accelerometer_x;RightLowerLeg_accelerometer_y;RightLowerLeg_accelerometer_z;LeftUpperLeg_boneIndex;LeftUpperLeg_quat9x_w;LeftUpperLeg_quat9x_x;LeftUpperLeg_quat9x_y;LeftUpperLeg_quat9x_z;LeftUpperLeg_gyroscope_x;LeftUpperLeg_gyroscope_y;LeftUpperLeg_gyroscope_z;LeftUpperLeg_accelerometer_x;LeftUpperLeg_accelerometer_y;LeftUpperLeg_accelerometer_z;LeftLowerLeg_boneIndex;LeftLowerLeg_quat9x_w;LeftLowerLeg_quat9x_x;LeftLowerLeg_quat9x_y;LeftLowerLeg_quat9x_z;LeftLowerLeg_gyroscope_x;LeftLowerLeg_gyroscope_y;LeftLowerLeg_gyroscope_z;LeftLowerLeg_accelerometer_x;LeftLowerLeg_accelerometer_y;LeftLowerLeg_accelerometer_z;pelvis_x;pelvis_y;pelvis_z;lowerSpine_x;lowerSpine_y;lowerSpine_z;middleSpine_x;middleSpine_y;middleSpine_z;upperSpine_x;upperSpine_y;upperSpine_z;rightClavicle_x;rightClavicle_y;rightClavicle_z;rightShoulder_x;rightShoulder_y;rightShoulder_z;rightElbow_x;rightElbow_y;rightElbow_z;rightWrist_x;rightWrist_y;rightWrist_z;leftClavicle_x;leftClavicle_y;leftClavicle_z;leftShoulder_x;leftShoulder_y;leftShoulder_z;leftElbow_x;leftElbow_y;leftElbow_z;leftWrist_x;leftWrist_y;leftWrist_z;rightHip_x;rightHip_y;rightHip_z;rightKnee_x;rightKnee_y;rightKnee_z;rightAnkle_x;rightAnkle_y;rightAnkle_z;leftHip_x;leftHip_y;leftHip_z;leftKnee_x;leftKnee_y;leftKnee_z;leftAnkle_x;leftAnkle_y;leftAnkle_z;
894487.7632;NotLabelled;NONE;16384;-0.1523546;0.5069252;-0.6365212;-0.5609418;3;-8;33;-2296;3918;-843;65536;0.434903;-0.501385;0.4875346;0.5672587;-15;-20;43;-156;4322;765;8192;0.6121883;-0.6221705;0.1980609;0.4459834;-5;-10;2;2368;4069;-735;32768;0.5096953;-0.6139391;0.4099723;0.4418283;-2;-28;8;107;4559;1380;256;0.6094183;0.0401662;-0.791826;-0.002770083;32;0;5;-169;-304;3503;128;-0.5609418;-0.001385042;0.7984065;0.2188366;-23;-24;-3;1353;1369;-3452;4;-0.1426593;0.01939058;-0.632964;-0.7606766;-14;17;0;647;4110;-880;16;0.07063711;-0.6679147;-0.3850415;0.632964;7;-7;-2;-2497;-1574;2964;2;0.7040808;-0.6094183;-0.3573407;0.07202215;13;-21;-1;1459;2754;1013;8;-0.09695291;-0.7241622;0.06094183;0.6800554;11;-31;-12;1057;-741;3797;0.737722;1.708427;1.407403;0.7383006;1.761155;0.86441;0.7387871;1.805492;0.3869246;0.7418387;1.761217;-0.3455319;0.4877303;1.685773;-0.6687734;0.1423155;1.733642;-0.5326253;-0.07314762;0.9383862;-0.1089825;0;0;0;1.006842;1.721556;-0.6687766;1.290161;1.812763;-0.5326307;1.513691;0.912873;-0.2708908;1.45599;-0.02352715;-0.1381783;0.4258349;1.699831;1.451953;0.6628372;0.2844088;1.166876;0.7102414;0.8194168;2.401318;0.4258349;1.699831;1.451953;0.6628372;0.2844088;1.166876;0.7102414;0.8194168;2.401318
894528.7523;NotLabelled;NONE;16384;-0.1565097;0.4986149;-0.6346967;-0.5692521;5;-10;40;-1878;2914;-831;65536;0.4238227;-0.5069252;0.4930748;0.5659315;-11;-8;35;286;4050;703;8192;0.6121883;-0.6197314;0.199446;0.4487534;-9;-12;20;2788;3563;-637;32768;0.5069252;-0.613378;0.4127424;0.4432133;1;-22;8;-579;3911;824;256;0.6094183;0.03739612;-0.7919362;-0.006925208;26;0;-1;-181;266;3151;128;-0.5609418;0;0.7980267;0.2202216;-18;-18;1;1451;1479;-3248;4;-0.1440443;0.02216066;-0.634349;-0.7591847;-14;11;1;181;3856;-728;16;0.06925207;-0.6667447;-0.3850415;0.634349;1;-5;-2;-2641;-1712;2880;2;0.7020877;-0.6121883;-0.3559557;0.07479224;15;-34;3;1531;2900;905;8;-0.09972299;-0.7221196;0.06509695;0.6814404;10;-32;-15;939;-601;3877;0.7432263;1.687876;1.398879;0.7438816;1.747599;0.8566108;0.7444355;1.798086;0.3797363;0.7466307;1.765381;-0.3533314;0.4920444;1.695503;-0.6774468;0.1468607;1.74183;-0.5401837;-0.0549302;0.937302;-0.1274556;0;0;0;1.01122;1.730358;-0.6774499;1.294846;1.8189;-0.5401893;1.508436;0.9157368;-0.2814399;1.456084;-0.02051795;-0.1455193;0.4313329;1.678708;1.44327;0.6551616;0.2616388;1.15574;0.7178608;0.7908078;2.392015;0.4313329;1.678708;1.44327;0.6551616;0.2616388;1.15574;0.7178608;0.7908078;2.392015
894548.8153;NotLabelled;NONE;16384;-0.1592798;0.4958449;-0.6349339;-0.5706371;-2;0;31;-1820;3038;-733;65536;0.4196676;-0.5110803;0.4944598;0.5640793;-8;0;28;364;3848;757;8192;0.6172299;-0.6135734;0.1966759;0.4515235;-16;9;19;1868;3465;-231;32768;0.5069252;-0.6103541;0.4127424;0.4473684;-5;-17;-14;-1005;2899;1044;256;0.6094183;0.03185596;-0.7921106;-0.01246537;22;1;-8;-789;208;3299;128;-0.5609418;0.004155125;0.7968577;0.2243767;-12;-10;7;1537;1601;-3444;4;-0.1398892;0.01939058;-0.6357341;-0.7588789;-5;-34;2;641;3766;-704;16;0.06786703;-0.6668871;-0.3850415;0.634349;-4;-10;-5;-2753;-1498;2744;2;0.6993911;-0.6163435;-0.3531856;0.07894737;16;-42;6;1929;3108;831;8;-0.101108;-0.7200951;0.07063711;0.6828254;12;-33;-18;989;-235;3995;0.7433915;1.683139;1.393299;0.7440701;1.744984;0.8512689;0.7446446;1.797336;0.374596;0.7463675;1.771939;-0.358762;0.4916105;1.705118;-0.6833878;0.1464879;1.749837;-0.5454392;-0.0374677;0.935937;-0.1428768;0;0;0;1.010761;1.74033;-0.6833904;1.29442;1.827696;-0.5454437;1.512584;0.9251541;-0.2883487;1.45754;-0.010741;-0.151026;0.4314963;1.673796;1.437641;0.6506456;0.2551674;1.154227;0.717734;0.7884811;2.388489;0.4314963;1.673796;1.437641;0.6506456;0.2551674;1.154227;0.717734;0.7884811;2.388489
894570.0139;NotLabelled;NONE;16384;-0.1620499;0.4944598;-0.6340662;-0.5720221;-4;9;21;-2004;3124;-813;65536;0.4168975;-0.5138504;0.4958449;0.5623986;-4;0;21;282;3868;785;8192;0.6209159;-0.6121883;0.1925208;0.4501385;5;-2;2;-94;2263;-871;32768;0.5069252;-0.6091602;0.4099723;0.4515235;-8;7;-15;787;1329;368;256;0.6108033;0.03047091;-0.7910491;-0.01523546;16;0;-7;-1115;158;3517;128;-0.5623268;0.005540166;0.7954806;0.2257618;-6;-8;5;1405;1701;-3610;4;-0.1357341;0.01523546;-0.6371191;-0.7585667;-6;-33;2;1087;3962;-716;16;0.06648199;-0.6678242;-0.3836565;0.634349;-2;-17;-10;-2835;-1492;2636;2;0.6966236;-0.6204986;-0.3504155;0.08310249;18;-42;7;2383;3388;823;8;-0.1038781;-0.7191354;0.07617728;0.6828254;11;-34;-16;817;-23;4005;0.7498559;1.658363;1.389876;0.7506044;1.72657;0.8486099;0.7512403;1.784518;0.3725846;0.7521617;1.770517;-0.3610809;0.496938;1.709262;-0.6864368;0.1520479;1.752523;-0.5474466;-0.02871313;0.9349997;-0.1508239;0;0;0;1.016159;1.743426;-0.6864397;1.300134;1.828068;-0.5474511;1.534358;0.9281535;-0.2953255;1.486778;-0.008086681;-0.1575638;0.4379549;1.648501;1.434064;0.6524872;0.2287667;1.152657;0.7197139;0.7645411;2.385845;0.4379549;1.648501;1.434064;0.6524872;0.2287667;1.152657;0.7197139;0.7645411;2.385845
894591.1218;NotLabelled;NONE;16384;-0.1634349;0.4944598;-0.6324577;-0.5734072;-1;9;13;-2232;3288;-723;65536;0.4155124;-0.5152354;0.4958449;0.5621563;0;0;13;406;4162;787;8192;0.6181058;-0.6135734;0.1939058;0.4515235;7;-19;-11;156;1675;-235;32768;0.5069252;-0.6099894;0.4072022;0.4529086;-7;10;-13;957;1111;-474;256;0.6121883;0.03047091;-0.7899195;-0.01800554;8;-5;-8;-1253;382;3607;128;-0.5623268;0.006925208;0.7954698;0.2257618;-1;-9;2;1335;1855;-3710;4;-0.134349;0.01246537;-0.6371191;-0.7588637;-7;-16;2;1181;4010;-794;16;0.06509695;-0.6666425;-0.3836565;0.6357341;0;-13;-15;-2925;-1480;2512;2;0.693957;-0.6246537;-0.3476454;0.08587258;15;-31;4;2559;3480;997;8;-0.1038781;-0.7173647;0.08033241;0.6842105;9;-23;-13;705;21;4031;0.7550857;1.652254;1.389252;0.755855;1.72236;0.8482292;0.7565091;1.781978;0.3724105;0.7571533;1.772351;-0.3613263;0.5018708;1.712738;-0.6869413;0.1569864;1.75477;-0.5475597;-0.02120761;0.934406;-0.1556669;0;0;0;1.021052;1.747507;-0.6869446;1.304984;1.831649;-0.5475653;1.544864;0.9331481;-0.2957141;1.505306;-0.002824068;-0.1536614;0.4431829;1.642237;1.433394;0.6535383;0.221895;1.151899;0.7161863;0.7576232;2.385348;0.4431829;1.642237;1.433394;0.6535383;0.221895;1.151899;0.7161863;0.7576232;2.385348
894611.742;NotLabelled;NONE;16384;-0.1634349;0.4944598;-0.6324577;-0.5734072;0;0;3;-2404;3492;-565;65536;0.4155124;-0.5152354;0.4972299;0.5609316;7;-7;0;516;4514;861;8192;0.6135734;-0.6186797;0.1952908;0.4501385;15;-3;-27;552;951;-385;32768;0.5083103;-0.6105662;0.4030471;0.4542936;-11;13;-31;-327;1679;374;256;0.6121883;0.02908587;-0.7899389;-0.01939058;0;-15;-6;-1419;642;3645;128;-0.5623268;0.006925208;0.7954698;0.2257618;1;-8;-2;1433;1965;-3598;4;-0.134349;0.01108033;-0.6385041;-0.7577203;-9;-6;0;803;4068;-700;16;0.06371191;-0.6662496;-0.3822715;0.6371191;3;-5;-18;-2773;-1564;2466;2;0.6910539;-0.6288089;-0.3448753;0.0900277;7;-18;-1;2091;3204;917;8;-0.1052632;-0.7153602;0.08448754;0.6855956;0;-8;-6;1097;-123;3963;0.7553251;1.64954;1.387171;0.7561033;1.720456;0.8462534;0.7567652;1.780785;0.3705243;0.7572228;1.774282;-0.3632466;0.5020456;1.715195;-0.6890395;0.157063;1.755469;-0.5493824;-0.0186882;0.93392;-0.1588736;0;0;0;1.021106;1.751714;-0.6890426;1.304795;1.83622;-0.5493877;1.54028;0.9376851;-0.293545;1.50377;0.002218008;-0.147406;0.4434217;1.639457;1.431293;0.6540779;0.2197124;1.147025;0.7163438;0.759569;2.378692;0.4434217;1.639457;1.431293;0.6540779;0.2197124;1.147025;0.7163438;0.759569;2.378692
894632.8489;NotLabelled;NONE;16384;-0.1634349;0.4944598;-0.6324577;-0.5734072;1;-5;-12;-2744;3802;-399;65536;0.4155124;-0.5138504;0.4986149;0.5609726;14;-12;-15;676;4780;689;8192;0.6108033;-0.6225373;0.1980609;0.4473684;21;0;-47;110;1475;-917;32768;0.5096953;-0.6090326;0.398892;0.4584487;-11;8;-33;321;2749;856;256;0.6121883;0.02908587;-0.7899389;-0.01939058;-12;-28;-1;-1529;550;3533;128;-0.5609418;0.006925208;0.7968384;0.2243767;7;-9;-9;1483;1867;-3460;4;-0.132964;0.009695291;-0.6385041;-0.7579835;-11;-11;-1;571;4040;-680;16;0.06371191;-0.6649224;-0.3822715;0.6385041;7;0;-20;-2507;-1650;2678;2;0.6904818;-0.6301939;-0.3434903;0.0900277;8;-18;-5;2259;3110;777;8;-0.1066482;-0.7136594;0.08587258;0.6869806;-4;-13;-5;1243;-203;4097;0.7585927;1.645993;1.388638;0.759371;1.716909;0.8477207;0.760033;1.777239;0.3719918;0.7602886;1.773586;-0.361799;0.5049942;1.71589;-0.6877496;0.1600693;1.755791;-0.5478427;-0.01561926;0.9342419;-0.1573057;0;0;0;1.024073;1.752154;-0.687752;1.307841;1.835977;-0.5478469;1.531331;0.9361056;-0.2860093;1.500986;0.0009917021;-0.1362504;0.4466893;1.635909;1.43276;0.6514732;0.2157705;1.146182;0.7181051;0.7572352;2.376915;0.4466893;1.635909;1.43276;0.6514732;0.2157705;1.146182;0.7181051;0.7572352;2.376915
894652.7405;NotLabelled;NONE;16384;-0.1495845;0.4972299;-0.6386814;-0.567867;4;-41;-64;-3516;3530;-219;65536;0.4224377;-0.5;0.501385;0.5658264;36;-15;-58;490;5236;565;8192;0.6066482;-0.6282107;0.2022161;0.4432133;23;-20;-55;728;2367;-781;32768;0.5096953;-0.6078455;0.3975069;0.4612188;0;-15;0;397;8235;1160;256;0.6121883;0.02770083;-0.7900797;-0.01523546;-23;-37;3;-1297;464;3451;128;-0.5595568;0.008310249;0.7977984;0.2243767;8;-11;-12;1337;1785;-3642;4;-0.1260388;0.006925208;-0.6412742;-0.7568578;-5;-29;-3;599;4056;-722;16;0.06232687;-0.65969;-0.3822715;0.6440443;8;1;-20;-2339;-1980;2810;2;0.6891372;-0.632964;-0.3407202;0.09141274;9;-16;-5;2389;3224;603;8;-0.1094183;-0.7130718;0.08725762;0.6869806;-6;-19;-6;1373;-197;4059;0.7591702;1.649255;1.393183;0.7599364;1.719078;0.8521227;0.7605879;1.778446;0.3762727;0.7609624;1.774794;-0.3575181;0.5057208;1.717098;-0.6835101;0.1607734;1.756999;-0.5436592;-0.01504996;0.9346625;-0.1548433;0;0;0;1.024799;1.753362;-0.6834284;1.308545;1.837185;-0.5434775;1.520432;0.9342064;-0.2826922;1.501213;-0.0005922318;-0.1291671;0.4472677;1.639261;1.437332;0.6520612;0.2192136;1.150305;0.7231514;0.7623316;2.38006;0.4472677;1.639261;1.437332;0.6520612;0.2192136;1.150305;0.7231514;0.7623316;2.38006
894672.8599;NotLabelled;NONE;16384;-0.1371191;0.5;-0.6429831;-0.5637119;7;-56;-92;-3204;3174;-107;65536;0.432133;-0.4903047;0.5;0.5682098;50;5;-79;220;5176;543;8192;0.5927978;-0.6338106;0.2132964;0.4487534;16;-55;-1;4544;9607;-213;32768;0.5096953;-0.6072093;0.4016621;0.4584487;-1;-1;4;619;3719;156;256;0.6094183;0.02631579;-0.7923818;-0.006925208;-11;-3;4;1603;-252;5117;128;-0.5567867;0.008310249;0.8001214;0.2229917;-5;2;-2;-317;1095;-4466;4;-0.1218837;0.002770083;-0.6412742;-0.7575646;-3;-38;-3;875;3776;-616;16;0.06232687;-0.6583349;-0.3822715;0.6454294;4;5;-14;-2147;-1550;2634;2;0.6885468;-0.634349;-0.3393352;0.09141274;9;-15;-3;2425;3336;669;8;-0.1121884;-0.7124703;0.08864266;0.6869806;-6;-25;-7;1537;-287;4135;0.7590944;1.637998;1.397972;0.7598716;1.708842;0.8570449;0.7605329;1.769109;0.3813078;0.7609848;1.761887;-0.3524565;0.5053759;1.704468;-0.678209;0.1607082;1.74756;-0.5386152;-0.03105804;0.9378763;-0.1312241;0;0;0;1.024705;1.736949;-0.6782124;1.309033;1.819384;-0.5386199;1.503794;0.91333;-0.2751602;1.490153;-0.02120483;-0.1194488;0.4471909;1.627921;1.442096;0.6434451;0.2050602;1.16315;0.7327093;0.757238;2.387675;0.4471909;1.627921;1.442096;0.6434451;0.2050602;1.16315;0.7327093;0.757238;2.387675
894693.7398;NotLabelled;NONE;16384;-0.1204986;0.5041551;-0.6490734;-0.5567867;1;-42;-111;-2300;2540;-385;65536;0.4445983;-0.4819945;0.4972299;0.5681339;57;41;-90;-1024;4640;97;8192;0.5927978;-0.6328716;0.2160665;0.4487534;-26;13;-6;1490;5729;919;32768;0.5096953;-0.6072093;0.4016621;0.4584487;-3;8;2;125;3915;606;256;0.6094183;0.02770083;-0.7923346;-0.006925208;-10;21;-1;2335;-728;4561;128;-0.5567867;0.01108033;0.8004725;0.2216066;-8;-7;7;-793;915;-4096;4;-0.1177285;0;-0.6412742;-0.7582265;3;-45;-1;1215;3684;-684;16;0.06232687;-0.6569741;-0.3822715;0.6468144;6;0;-8;-2107;-1242;2646;2;0.686482;-0.6371191;-0.3379501;0.09279778;11;-20;0;2145;3550;615;8;-0.1163435;-0.7114531;0.09141274;0.6869806;-8;-32;-10;1561;-297;4445;0.7505411;1.633458;1.401981;0.7513087;1.703413;0.8609384;0.7519614;1.762897;0.3851029;0.7527382;1.747414;-0.3485334;0.4966259;1.68948;-0.6737994;0.152436;1.738375;-0.5349405;-0.04793712;0.939898;-0.1099533;0;0;0;1.016315;1.715572;-0.673803;1.301558;1.796069;-0.5349467;1.477685;0.88871;-0.2630025;1.458478;-0.04673445;-0.113461;0.4386384;1.623453;1.446127;0.632696;0.2008324;1.164435;0.7351813;0.7546632;2.387177;0.4386384;1.623453;1.446127;0.632696;0.2008324;1.164435;0.7351813;0.7546632;2.387177
894713.7709;NotLabelled;NONE;16384;-0.1080332;0.5110803;-0.652916;-0.5484765;-4;-2;-106;-1892;2930;-719;65536;0.4626039;-0.4750692;0.4903047;0.5656043;51;76;-86;-1140;4192;105;8192;0.5969529;-0.63287;0.2160665;0.4432133;-3;35;-19;-312;2089;-1869;32768;0.5083103;-0.6083692;0.4016621;0.4584487;-3;1;0;261;4043;622;256;0.6094183;0.03185596;-0.7921784;-0.006925208;-10;24;3;-195;-776;4209;128;-0.5567867;0.01246537;0.8008343;0.2202216;-3;0;2;583;1039;-4130;4;-0.1135734;-0.004155125;-0.6398892;-0.7600169;5;-31;0;1255;3890;-652;16;0.06232687;-0.6550426;-0.3808864;0.6495845;10;-14;-14;-2261;-1702;3342;2;0.6827666;-0.6426592;-0.333795;0.09695291;13;-24;-1;2861;3782;511;8;-0.1246537;-0.7081532;0.09556787;0.6883656;-17;-27;-10;1505;-503;4531;0.7527791;1.620871;1.403632;0.7535499;1.691118;0.8626269;0.7542053;1.750859;0.3868234;0.7550817;1.734136;-0.3467854;0.4991261;1.67509;-0.6719747;0.1548172;1.723464;-0.5332288;-0.06304905;0.9414268;-0.08682071;0;0;0;1.018757;1.702323;-0.6719782;1.30381;1.783681;-0.5332339;1.478866;0.8749866;-0.2650821;1.45964;-0.06045794;-0.1155432;0.4408762;1.610843;1.44777;0.6354151;0.1879677;1.167698;0.7424272;0.7434525;2.389301;0.4408762;1.610843;1.44777;0.6354151;0.1879677;1.167698;0.7424272;0.7434525;2.389301
894734.7252;NotLabelled;NONE;16384;-0.09972299;0.5193906;-0.6534608;-0.5415512;-4;9;-82;-1974;4256;-761;65536;0.4806094;-0.4695291;0.4833795;0.5611607;54;65;-78;-542;3908;-467;8192;0.5955678;-0.6361006;0.2160665;0.4404432;10;10;-15;122;3831;-1231;32768;0.5083103;-0.6083692;0.4016621;0.4584487;-4;-1;-3;207;4137;516;256;0.6080332;0.03601108;-0.7930642;-0.006925208;-6;5;3;-895;-618;4233;128;-0.5554016;0.01246537;0.8017955;0.2202216;-3;-3;-6;1191;1131;-3810;4;-0.1121884;-0.006925208;-0.6398892;-0.7602024;-1;-14;-2;1099;3974;-508;16;0.05955679;-0.6555301;-0.3781163;0.6509695;4;-20;-16;-1953;-1930;3612;2;0.681501;-0.6454294;-0.3310249;0.09695291;13;-22;-4;3181;3732;507;8;-0.1301939;-0.7056158;0.09695291;0.6897507;-16;-26;-8;1235;-351;4223;0.7512003;1.614664;1.411525;0.7519655;1.684403;0.870454;0.7526162;1.743698;0.3945949;0.7538218;1.723257;-0.3389195;0.498358;1.660877;-0.6638727;0.1536966;1.707686;-0.525465;-0.08241049;0.9419978;-0.06037984;0;0;0;1.017798;1.69153;-0.6638761;1.302267;1.775467;-0.5254713;1.47504;0.8639734;-0.2654619;1.453696;-0.07099438;-0.1132549;0.4392978;1.604677;1.455676;0.6386726;0.1829033;1.173419;0.7548548;0.7391407;2.393841;0.4392978;1.604677;1.455676;0.6386726;0.1829033;1.173419;0.7548548;0.7391407;2.393841
894754.9454;NotLabelled;NONE;16384;-0.08725762;0.5263157;-0.6587704;-0.5304709;-7;-24;-52;-1948;3152;-647;65536;0.5069252;-0.4529086;0.4819945;0.5527948;70;18;-49;-200;2994;-695;8192;0.5941828;-0.6364489;0.2188366;0.4404432;4;-16;-10;422;4195;-399;32768;0.5083103;-0.607323;0.4016621;0.4598338;-5;-8;-5;-1;4275;534;256;0.6080332;0.03739612;-0.793011;-0.005540166;-3;0;-1;-357;-654;4107;128;-0.5554016;0.01108033;0.802195;0.2188366;-1;-3;-5;1317;1141;-3926;4;-0.1121884;-0.006925208;-0.6398892;-0.7602024;-1;-1;-1;1179;4048;-356;16;0.05540166;-0.6555213;-0.3739612;0.6537396;0;-29;-6;-1681;-1704;3524;2;0.6806602;-0.6468144;-0.3296399;0.09833795;8;-20;-5;3057;3678;677;8;-0.132964;-0.7049072;0.09833795;0.6897507;-10;-18;-9;1171;-83;3659;0.7459979;1.608337;1.42074;0.7467655;1.678275;0.8796948;0.7474179;1.737745;0.4038575;0.7489997;1.713671;-0.3295459;0.4940621;1.647983;-0.65426;0.1490521;1.693189;-0.516189;-0.09926206;0.9416707;-0.03463908;0;0;0;1.013287;1.682085;-0.6542628;1.297148;1.768595;-0.5161932;1.463018;0.8562424;-0.2547077;1.442134;-0.07872558;-0.1024369;0.4340954;1.598333;1.464886;0.6316066;0.1771049;1.178602;0.7552847;0.734715;2.39766;0.4340954;1.598333;1.464886;0.6316066;0.1771049;1.178602;0.7552847;0.734715;2.39766
894776.7342;NotLabelled;NONE;16384;-0.08033241;0.5263157;-0.6618688;-0.5277008;0;-29;-33;-1690;2812;-353;65536;0.5152354;-0.4445983;0.4833795;0.5506442;52;3;-36;64;2308;717;8192;0.5900277;-0.6379105;0.2229917;0.4418283;2;-10;-7;1064;4011;-735;32768;0.5069252;-0.6072914;0.400277;0.4626039;-6;-2;-6;71;4119;692;256;0.6094183;0.03601108;-0.7920198;-0.004155125;2;-1;-9;203;-314;3947;128;-0.5554016;0.01108033;0.802195;0.2188366;1;0;7;571;1349;-3820;4;-0.1135734;-0.005540166;-0.6412742;-0.7588398;-2;13;-1;1081;4092;-336;16;0.04709141;-0.6608376;-0.365651;0.6537396;-6;-22;-2;-2009;-1468;3384;2;0.6806785;-0.6481994;-0.3268698;0.09833795;5;-10;-7;2843;3446;793;8;-0.1371191;-0.7025561;0.09972299;0.6911357;-5;-20;-6;1499;-569;3797;0.7502633;1.595451;1.458498;0.7510076;1.663278;0.9171848;0.7516397;1.72089;0.441119;0.7534219;1.693967;-0.2921848;0.498601;1.626888;-0.6167064;0.1535328;1.672453;-0.4788995;-0.1174631;0.9400101;0.01951481;0;0;0;1.017809;1.661254;-0.6167095;1.30159;1.748445;-0.4789045;1.463851;0.8350382;-0.2188377;1.445441;-0.09997594;-0.06653202;0.4383626;1.58562;1.502697;0.6359316;0.1643913;1.216453;0.7675283;0.724843;2.433377;0.4383626;1.58562;1.502697;0.6359316;0.1643913;1.216453;0.7675283;0.724843;2.433377
894796.8793;NotLabelled;NONE;16384;-0.07617728;0.5249307;-0.6645574;-0.5263157;-4;-28;-6;-1342;3546;319;65536;0.5180055;-0.4390582;0.4847645;0.5512727;32;-29;-12;524;1978;695;8192;0.5900277;-0.6374246;0.2243767;0.4418283;1;7;-7;1138;3847;-859;32768;0.5069252;-0.6062338;0.400277;0.4639889;-5;1;-6;-69;4107;768;256;0.6108033;0.03601108;-0.7909582;-0.002770083;2;-1;-10;151;-238;3909;128;-0.5554016;0.01108033;0.8025715;0.2174515;2;0;8;285;1385;-3758;4;-0.1163435;-0.004155125;-0.6426592;-0.7572556;-3;15;-1;717;3966;-166;16;0.04570637;-0.6609349;-0.365651;0.6537396;-2;0;0;-2063;-1576;3152;2;0.6793569;-0.6495845;-0.3268698;0.09833795;3;3;-6;2637;3436;609;8;-0.1385041;-0.7022844;0.09972299;0.6911357;2;-2;-5;1049;-327;3705;0.7518937;1.585048;1.473824;0.7526381;1.652875;0.9325101;0.7532702;1.710487;0.4564442;0.7549739;1.683109;-0.2768427;0.4999025;1.616839;-0.6013342;0.1550116;1.66385;-0.4635691;-0.1237797;0.9385104;0.04089732;0;0;0;1.019242;1.649154;-0.6013368;1.30336;1.735308;-0.4635736;1.457808;0.8212271;-0.2011281;1.442409;-0.1130562;-0.04407895;0.4399931;1.575217;1.518022;0.6335613;0.1530323;1.233802;0.7588434;0.7128499;2.451684;0.4399931;1.575217;1.518022;0.6335613;0.1530323;1.233802;0.7588434;0.7128499;2.451684
894817.7595;NotLabelled;NONE;16384;-0.07894737;0.5193906;-0.668575;-0.5263157;-13;-22;15;-1016;3874;329;65536;0.5166205;-0.4362881;0.4889196;0.5511022;1;-31;25;1350;1426;1583;8192;0.5900277;-0.6383825;0.2243767;0.4404432;2;1;-2;830;3925;-1089;32768;0.5069252;-0.6060851;0.398892;0.4653739;-4;-2;-7;-31;4047;668;256;0.6121883;0.03462604;-0.7899486;-0.002770083;2;0;-10;199;-128;3927;128;-0.5554016;0.01108033;0.8029456;0.2160665;1;0;5;173;1385;-3754;4;-0.1177285;-0.002770083;-0.6440443;-0.7558699;-3;5;-1;515;3814;-168;16;0.04570637;-0.6609349;-0.365651;0.6537396;0;14;1;-2095;-1610;3116;2;0.678888;-0.6495845;-0.3282548;0.09695291;-1;6;-3;2289;3488;575;8;-0.1357341;-0.7014604;0.09972299;0.6925207;5;18;-6;1317;-585;3733;0.7524794;1.584172;1.482227;0.7532092;1.650687;0.9407504;0.7538286;1.707146;0.4645464;0.7555862;1.67808;-0.2686757;0.5004437;1.611513;-0.5930502;0.1556168;1.659449;-0.4554429;-0.1281389;0.9374301;0.05101643;0;0;0;1.019839;1.642915;-0.5930532;1.304089;1.728884;-0.4554473;1.457164;0.8141708;-0.194407;1.443731;-0.1201476;-0.03738308;0.4405797;1.574448;1.526457;0.6295036;0.1517403;1.24173;0.7498516;0.7140102;2.45898;0.4405797;1.574448;1.526457;0.6295036;0.1517403;1.24173;0.7498516;0.7140102;2.45898
894837.9414;NotLabelled;NONE;16384;-0.08310249;0.5124654;-0.6712238;-0.5290859;-15;-23;36;-252;3902;215;65536;0.5096953;-0.4418283;0.4916897;0.5506721;-43;4;57;-282;1982;2341;8192;0.5886427;-0.6387039;0.2243767;0.4418283;5;-5;0;580;3857;-1095;32768;0.5069252;-0.6050191;0.398892;0.466759;-3;1;-6;-123;4063;612;256;0.6135734;0.033241;-0.7889329;-0.002770083;4;-1;-7;155;-54;3915;128;-0.5554016;0.01246537;0.8029252;0.2160665;2;0;1;433;1465;-3734;4;-0.1163435;-0.002770083;-0.6440443;-0.7560843;-1;-1;0;601;3984;-362;16;0.04709141;-0.6600693;-0.367036;0.6537396;-1;14;3;-1953;-1716;3250;2;0.6804065;-0.6481994;-0.3282548;0.09556787;-5;1;-1;2331;3188;501;8;-0.1357341;-0.7000903;0.09972299;0.6939058;2;-19;-4;2101;-479;4305;0.7619542;1.591142;1.500205;0.7626697;1.656346;0.9585685;0.7632765;1.711653;0.4822292;0.7650232;1.683755;-0.251038;0.5097553;1.618282;-0.5755366;0.1650273;1.666775;-0.4378773;-0.1238943;0.9377488;0.05545162;0;0;0;1.02922;1.648511;-0.5754524;1.313653;1.733618;-0.4376893;1.462342;0.8177828;-0.1780524;1.451415;-0.1162213;-0.01897883;0.4500558;1.581525;1.544466;0.6349512;0.1578993;1.26169;0.7510318;0.7201689;2.479354;0.4500558;1.581525;1.544466;0.6349512;0.1578993;1.26169;0.7510318;0.7201689;2.479354
894858.7466;NotLabelled;NONE;16384;-0.09833795;0.5041551;-0.6699623;-0.536011;-1;39;60;-844;2844;-703;65536;0.4958449;-0.4556787;0.4903047;0.5532596;-48;-22;48;-1528;3292;-199;8192;0.5872576;-0.6399776;0.2243767;0.4418283;5;-6;1;940;3861;-873;32768;0.5069252;-0.60593;0.3975069;0.466759;-3;3;-6;-111;4079;652;256;0.6149584;0.03185596;-0.787911;-0.002770083;3;-1;-4;83;-58;3901;128;-0.5554016;0.01246537;0.8032967;0.2146814;3;-2;1;653;1461;-3768;4;-0.1163435;-0.004155125;-0.6440443;-0.7560779;-2;-4;0;803;4042;-546;16;0.04847645;-0.6591969;-0.368421;0.6537396;-2;12;3;-2025;-1646;3212;2;0.6817233;-0.6468144;-0.3282548;0.09556787;-2;0;-1;2463;3304;385;8;-0.1385041;-0.699147;0.1024931;0.6939058;-2;-16;-3;1501;-321;4273;0.7695694;1.596696;1.496315;0.7702937;1.662703;0.9547765;0.7709083;1.718716;0.4785199;0.7724037;1.69199;-0.2547917;0.5169057;1.627612;-0.579328;0.1723231;1.676661;-0.4415018;-0.1123892;0.9398659;0.04264679;0;0;0;1.036437;1.656672;-0.579331;1.321097;1.740918;-0.441506;1.469716;0.8264648;-0.1770011;1.460814;-0.1075623;-0.01793456;0.4576704;1.587013;1.540558;0.6441042;0.1629719;1.2609;0.7566507;0.7253255;2.478857;0.4576704;1.587013;1.540558;0.6441042;0.1629719;1.2609;0.7566507;0.7253255;2.478857
894878.7619;NotLabelled;NONE;16384;-0.1080332;0.5041551;-0.6651142;-0.5401662;5;50;66;-1820;2944;-921;65536;0.4847645;-0.4612188;0.4930748;0.5560197;-52;-31;63;640;3398;205;8192;0.5872576;-0.6390192;0.2243767;0.4432133;3;1;2;1156;3973;-853;32768;0.5083103;-0.6056767;0.3961219;0.466759;-2;8;-6;-195;4031;642;256;0.6149584;0.03185596;-0.787911;-0.002770083;1;0;-3;227;-88;3833;128;-0.5554016;0.01246537;0.8036656;0.2132964;4;-2;4;645;1359;-3754;4;-0.1177285;-0.004155125;-0.6454294;-0.7546812;-1;1;1;885;3858;-594;16;0.04986149;-0.65969;-0.3698061;0.6523545;0;8;2;-2259;-1538;3016;2;0.6797366;-0.6481994;-0.3296399;0.09556787;0;-1;0;2493;3504;517;8;-0.1385041;-0.699147;0.1024931;0.6939058;-4;4;-2;1231;-229;3991;0.772336;1.62013;1.489374;0.773046;1.684828;0.9476773;0.7736479;1.739689;0.4712863;0.7751339;1.714142;-0.2620673;0.5195142;1.650862;-0.586724;0.1750331;1.700462;-0.448841;-0.099653;0.942239;0.007201195;0;0;0;1.03911;1.678754;-0.5866456;1.323948;1.762138;-0.4486665;1.468087;0.8473141;-0.1829668;1.459142;-0.08636236;-0.02185965;0.4604381;1.610555;1.533648;0.6470854;0.1869977;1.25168;0.7557005;0.7494407;2.469953;0.4604381;1.610555;1.533648;0.6470854;0.1869977;1.25168;0.7557005;0.7494407;2.469953
894900.7422;NotLabelled;NONE;16384;-0.1191136;0.5027701;-0.6597263;-0.5457063;-2;44;78;-2420;3408;-473;65536;0.4722992;-0.4695291;0.4986149;0.5548505;-44;-29;77;746;4610;-751;8192;0.5858725;-0.637879;0.2229917;0.4473684;3;-3;11;1106;3697;-939;32768;0.5096953;-0.6063177;0.3933518;0.466759;-2;10;-1;-215;3991;696;256;0.6163435;0.03185596;-0.786828;-0.002770083;-3;5;-5;-35;-188;3875;128;-0.5567867;0.009695291;0.8034757;0.2105263;6;4;9;759;1221;-3824;4;-0.1177285;-0.004155125;-0.6454294;-0.7546812;0;4;1;899;3864;-624;16;0.05124654;-0.6595838;-0.3698061;0.6523545;0;8;1;-2317;-1608;2990;2;0.6804065;-0.6481994;-0.3282548;0.09556787;1;-2;0;2557;3600;569;8;-0.1385041;-0.6995475;0.09972299;0.6939058;-3;10;0;1349;-287;3837;0.7713424;1.631846;1.477486;0.772038;1.695234;0.9356352;0.7726274;1.748943;0.4591131;0.7739987;1.723396;-0.2742406;0.5183284;1.660116;-0.5988572;0.173869;1.709716;-0.4609206;-0.08916794;0.9432416;-0.01185856;0;0;0;1.037924;1.688008;-0.5988603;1.322784;1.771393;-0.4609256;1.470461;0.8577015;-0.1932802;1.464143;-0.07609677;-0.03275204;0.4594458;1.622378;1.521792;0.6402346;0.1984109;1.23808;0.7446616;0.7593873;2.457394;0.4594458;1.622378;1.521792;0.6402346;0.1984109;1.23808;0.7446616;0.7593873;2.457394
894921.9802;NotLabelled;NONE;16384;-0.1288089;0.5;-0.6553896;-0.5512465;6;28;81;-2994;2736;-899;65536;0.4626039;-0.4750692;0.501385;0.5558057;-33;-18;48;-926;6188;1039;8192;0.5858725;-0.6373886;0.2216066;0.4487534;2;0;14;1402;3785;-827;32768;0.5110803;-0.6060486;0.3919668;0.466759;-1;12;2;-271;4053;720;256;0.6163435;0.03185596;-0.786828;-0.002770083;-4;5;-7;-107;-382;3913;128;-0.5581717;0.008310249;0.8025297;0.2105263;7;5;9;773;1167;-3834;4;-0.1191136;-0.004155125;-0.6454294;-0.7544638;0;6;2;917;3822;-624;16;0.05263158;-0.6600649;-0.3711911;0.6509695;0;8;0;-2457;-1614;2940;2;0.6804065;-0.6481994;-0.3282548;0.09556787;-1;-2;-2;2547;3552;665;8;-0.1371191;-0.6998203;0.09972299;0.6939058;0;8;0;1467;-343;3859;0.7822933;1.656433;1.479119;0.7829406;1.715399;0.9367678;0.7834875;1.765219;0.4598236;0.7852477;1.739603;-0.2735268;0.5297462;1.676307;-0.5982737;0.1852164;1.725942;-0.4605249;-0.06820025;0.9445155;-0.03217813;0;0;0;1.049343;1.704168;-0.5980029;1.334135;1.787548;-0.4599242;1.484982;0.8740697;-0.1933209;1.481134;-0.05948663;-0.03131628;0.4704004;1.647327;1.523527;0.6523361;0.2233596;1.240549;0.7524782;0.7818913;2.461345;0.4704004;1.647327;1.523527;0.6523361;0.2233596;1.240549;0.7524782;0.7818913;2.461345
894942.0159;NotLabelled;NONE;16384;-0.1371191;0.4972299;-0.6511139;-0.5567867;9;27;57;-3932;3472;-37;65536;0.4584487;-0.4778393;0.5027701;0.5556227;-11;-12;18;290;7280;273;8192;0.5872576;-0.6351106;0.2188366;0.4515235;0;10;16;1340;3875;-743;32768;0.5110803;-0.6080049;0.3905817;0.4653739;-1;13;4;-195;4065;548;256;0.6177285;0.033241;-0.7856873;-0.001385042;-5;6;-7;-195;-354;3939;128;-0.5581717;0.006925208;0.8029049;0.2091413;7;5;7;831;1155;-3796;4;-0.1204986;-0.002770083;-0.6440443;-0.7554332;1;8;1;917;3872;-662;16;0.05401662;-0.6591721;-0.3725762;0.6509695;-1;7;2;-2443;-1646;2948;2;0.6810547;-0.6468144;-0.3296399;0.09556787;-4;7;-2;2453;3354;697;8;-0.1357341;-0.7002861;0.09833795;0.6939058;5;3;-1;1421;-539;3753;0.7790235;1.665558;1.466808;0.7796596;1.723518;0.9243493;0.7801966;1.772453;0.4473134;0.7815696;1.746836;-0.2860383;0.5258968;1.683541;-0.6106498;0.1814397;1.733176;-0.4727195;-0.05669007;0.9445646;-0.04879063;0;0;0;1.045494;1.711402;-0.6106533;1.330359;1.794781;-0.4727252;1.485485;0.8846684;-0.1972172;1.484341;-0.04899311;-0.03578031;0.4671316;1.656533;1.51124;0.6482944;0.2329937;1.225629;0.7447273;0.7900462;2.447399;0.4671316;1.656533;1.51124;0.6482944;0.2329937;1.225629;0.7447273;0.7900462;2.447399
894962.7562;NotLabelled;NONE;16384;-0.1426593;0.4958449;-0.6486003;-0.5595568;-8;1;1;-3536;4708;251;65536;0.4556787;-0.4806094;0.5027701;0.5555122;-11;7;6;-88;3800;-51;8192;0.5886427;-0.6343036;0.2174515;0.4515235;-1;10;13;954;3733;-875;32768;0.5110803;-0.6080049;0.3905817;0.4653739;-4;6;3;-145;4019;526;256;0.6177285;0.03601108;-0.7855653;-0.001385042;-4;6;-3;-599;-306;4089;128;-0.5581717;0.005540166;0.8029156;0.2091413;6;0;3;1091;1273;-3830;4;-0.1218837;-0.002770083;-0.6440443;-0.755211;3;10;2;917;3926;-614;16;0.05401662;-0.6605371;-0.3725762;0.6495845;-1;5;2;-2361;-1660;2932;2;0.68256;-0.6454294;-0.3296399;0.09418282;-8;9;-1;2331;3184;759;8;-0.1357341;-0.7002861;0.09833795;0.6939058;7;5;-1;1309;-485;3743;0.7732309;1.682704;1.470866;0.773844;1.738547;0.9281845;0.7743607;1.78562;0.4509612;0.7759027;1.757082;-0.2822817;0.5203255;1.692391;-0.6066936;0.1758188;1.742437;-0.4690364;-0.05037609;0.9445148;-0.0561377;0;0;0;1.039912;1.72046;-0.606697;1.324713;1.804503;-0.4690405;1.487497;0.8965008;-0.1909972;1.483723;-0.03680539;-0.02755558;0.461341;1.673854;1.515346;0.6488849;0.2510736;1.230069;0.7411818;0.8082223;2.452114;0.461341;1.673854;1.515346;0.6488849;0.2510736;1.230069;0.7411818;0.8082223;2.452114
894984.126;NotLabelled;NONE;16384;-0.1454294;0.4958449;-0.6479849;-0.5595568;-12;1;15;-1878;3480;-355;65536;0.4556787;-0.4819945;0.501385;0.555564;-12;8;5;-238;3774;251;8192;0.5886427;-0.6337893;0.2160665;0.4529086;0;8;12;960;3643;-1091;32768;0.5124654;-0.6087853;0.3891967;0.4639889;-1;7;4;-217;3883;604;256;0.6177285;0.03739612;-0.7855005;-0.001385042;-2;0;0;-811;-342;4185;128;-0.5581717;0.005540166;0.8032751;0.2077562;3;-5;0;1187;1291;-3924;4;-0.1260388;0;-0.6426592;-0.7557138;4;11;2;807;3988;-606;16;0.05401662;-0.6597539;-0.3739612;0.6495845;-1;0;3;-2237;-1704;2954;2;0.6831977;-0.6440443;-0.3310249;0.09418282;-10;14;0;2157;3088;663;8;-0.134349;-0.7005532;0.09833795;0.6939058;5;10;-2;1371;-375;3765;0.7694927;1.695243;1.47137;0.7700968;1.750275;0.9286058;0.7706057;1.796636;0.4513128;0.7724193;1.765586;-0.2818275;0.5171912;1.69867;-0.606063;0.1724423;1.747688;-0.4686422;-0.04674657;0.9442922;-0.06263768;0;0;0;1.03665;1.728999;-0.6060656;1.321055;1.814753;-0.468646;1.486811;0.9071723;-0.1909826;1.482982;-0.02613401;-0.02754295;0.4576035;1.686459;1.515868;0.6446314;0.2641083;1.228119;0.7317857;0.8196687;2.451264;0.4576035;1.686459;1.515868;0.6446314;0.2641083;1.228119;0.7317857;0.8196687;2.451264
895004.7497;NotLabelled;NONE;16384;-0.1481994;0.4930748;-0.6494693;-0.5595568;-3;1;24;-1298;3044;-969;65536;0.4556787;-0.4847645;0.5;0.5544009;-8;12;3;-178;4094;567;8192;0.5900277;-0.6329125;0.2119114;0.4542936;1;8;13;968;4141;-1149;32768;0.5138504;-0.609722;0.3891967;0.4612188;6;11;0;39;4275;672;256;0.6177285;0.03739612;-0.7855017;0;-3;-6;-5;-71;-528;4199;128;-0.5595568;0.005540166;0.8026683;0.2063712;-1;-8;5;1009;1093;-4038;4;-0.1274238;0;-0.6426592;-0.7554815;4;12;2;687;4070;-674;16;0.05401662;-0.6611148;-0.3739612;0.6481994;0;-1;4;-2203;-1682;2884;2;0.6840185;-0.6426592;-0.33241;0.09279778;-8;14;2;2035;3086;541;8;-0.132964;-0.7008174;0.09833795;0.6939058;3;3;-1;1663;-135;3729;0.7679402;1.702277;1.47242;0.7685298;1.756001;0.929525;0.7690258;1.801213;0.4521217;0.7709827;1.768907;-0.280964;0.5159343;1.700878;-0.6051093;0.1710655;1.749383;-0.4678075;-0.04747476;0.9440794;-0.06524703;0;0;0;1.035326;1.732337;-0.6051123;1.31953;1.818945;-0.4678122;1.488261;0.9125857;-0.1879625;1.484505;-0.02083147;-0.02515388;0.4560522;1.693599;1.516948;0.6479419;0.2723768;1.226839;0.7346045;0.8304734;2.448864;0.4560522;1.693599;1.516948;0.6479419;0.2723768;1.226839;0.7346045;0.8304734;2.448864
895024.8472;NotLabelled;NONE;16384;-0.1495845;0.4916897;-0.6490069;-0.5609418;0;4;16;-1612;3298;-567;65536;0.4556787;-0.4861496;0.4986149;0.5544354;-2;3;0;176;4016;713;8192;0.5900277;-0.6323788;0.2105263;0.4556787;2;4;12;920;4137;-957;32768;0.5152354;-0.6104814;0.3878116;0.4598338;6;14;-2;53;4171;578;256;0.6191136;0.03739612;-0.7844106;0;-2;-3;-7;-43;-470;4153;128;-0.5609418;0.005540166;0.8020563;0.2049861;0;-8;5;785;1061;-3932;4;-0.1301939;0.001385042;-0.6412742;-0.7561845;2;9;3;589;4044;-612;16;0.05401662;-0.6611148;-0.3739612;0.6481994;0;0;4;-2293;-1672;2998;2;0.6848299;-0.6412742;-0.333795;0.09141274;-5;5;2;1949;3136;551;8;-0.132964;-0.6992471;0.09972299;0.6952909;0;-6;0;1445;-61;3675;0.7696946;1.709242;1.475895;0.7702674;1.76146;0.9328528;0.7707489;1.805347;0.455326;0.7727442;1.771445;-0.2776877;0.517621;1.703148;-0.6017178;0.1728183;1.752542;-0.4645669;-0.04580778;0.9439111;-0.06878095;0;0;0;1.037066;1.733717;-0.6017209;1.3214;1.820136;-0.4645718;1.496712;0.9161532;-0.1811028;1.490052;-0.01773071;-0.02109039;0.457808;1.700689;1.520456;0.6490943;0.2799029;1.22782;0.7310017;0.8364072;2.450899;0.457808;1.700689;1.520456;0.6490943;0.2799029;1.22782;0.7310017;0.8364072;2.450899
895046.7443;NotLabelled;NONE;16384;-0.1509695;0.4916897;-0.6474859;-0.5623268;3;3;8;-2288;3394;-423;65536;0.4542936;-0.4861496;0.4986149;0.5555709;2;0;-1;72;4152;575;8192;0.5914127;-0.6300813;0.2105263;0.4570637;-1;3;8;1100;3929;-671;32768;0.5166205;-0.6103525;0.3878116;0.4584487;4;7;-5;119;4051;578;256;0.6191136;0.03739612;-0.7844093;0.001385042;0;0;-6;-129;-416;4087;128;-0.5609418;0.006925208;0.8023983;0.2036011;0;-3;6;779;1187;-3938;4;-0.1301939;0.001385042;-0.6412742;-0.7561845;1;0;4;555;4036;-618;16;0.05540166;-0.6617818;-0.3725762;0.6481994;1;1;3;-2341;-1684;2954;2;0.6848299;-0.6412742;-0.333795;0.09141274;-1;-4;0;2017;3078;645;8;-0.132964;-0.6992471;0.09972299;0.6952909;-3;0;0;1203;-43;3639;0.7675267;1.713956;1.476683;0.7680835;1.76467;0.9334981;0.7685508;1.807234;0.4558515;0.7705479;1.773255;-0.2771587;0.5154212;1.704947;-0.6011832;0.1706216;1.754383;-0.46404;-0.04625526;0.943684;-0.07153565;0;0;0;1.034869;1.735472;-0.6011862;1.319209;1.821883;-0.4640446;1.496527;0.9191655;-0.1778028;1.489437;-0.01483142;-0.01847184;0.4556413;1.705526;1.521277;0.6526439;0.2859555;1.226544;0.7302333;0.8424598;2.449904;0.4556413;1.705526;1.521277;0.6526439;0.2859555;1.226544;0.7302333;0.8424598;2.449904
895066.8293;NotLabelled;NONE;16384;-0.1509695;0.4916897;-0.6462803;-0.5637119;6;-3;10;-2154;3720;-693;65536;0.4556787;-0.4875346;0.4972299;0.5544631;1;5;1;-154;4098;587;8192;0.5914127;-0.6300813;0.2105263;0.4570637;-3;0;6;1094;4093;-725;32768;0.5166205;-0.6101891;0.3864266;0.4598338;-3;0;-6;-181;4111;492;256;0.6191136;0.03739612;-0.7844093;0.001385042;0;1;-3;-307;-416;4241;128;-0.5609418;0.005540166;0.802409;0.2036011;-1;2;3;871;1171;-4006;4;-0.1301939;0.001385042;-0.6412742;-0.7561845;1;-3;5;607;3908;-606;16;0.05540166;-0.6623555;-0.3739612;0.6468144;0;1;2;-2403;-1720;2964;2;0.6855032;-0.6412742;-0.33241;0.09141274;1;2;-5;2375;3248;471;8;-0.132964;-0.6996366;0.09695291;0.6952909;-7;5;1;1269;-193;3677;0.7634739;1.716977;1.475289;0.764025;1.767205;0.9320593;0.7644873;1.809341;0.4543747;0.7665165;1.773769;-0.2785596;0.5113128;1.705195;-0.6024679;0.1665817;1.755522;-0.4654757;-0.0467972;0.9434811;-0.073828;0;0;0;1.030812;1.734829;-0.602471;1.315284;1.821048;-0.4654807;1.497794;0.9186918;-0.181373;1.49036;-0.01576424;-0.02476966;0.451589;1.708587;1.519894;0.6485982;0.2890166;1.225165;0.7270993;0.8405386;2.450721;0.451589;1.708587;1.519894;0.6485982;0.2890166;1.225165;0.7270993;0.8405386;2.450721
895087.7403;NotLabelled;NONE;16384;-0.1509695;0.4903047;-0.644909;-0.566482;7;-12;13;-1980;3812;-623;65536;0.4556787;-0.4875346;0.4972299;0.5544631;0;5;4;-196;4256;547;8192;0.5927978;-0.6277693;0.2105263;0.4584487;-6;-1;6;1406;3981;-691;32768;0.5180055;-0.6090137;0.3864266;0.4598338;-2;-2;-5;173;4049;594;256;0.6204986;0.03739612;-0.7833142;0.001385042;1;0;-4;-365;-458;4269;128;-0.5609418;0.005540166;0.802409;0.2036011;-3;0;3;1055;1141;-4010;4;-0.1301939;0.001385042;-0.6398892;-0.7573569;0;-3;5;773;3896;-586;16;0.05540166;-0.6623555;-0.3739612;0.6468144;3;4;0;-2473;-1680;2856;2;0.6856865;-0.6412742;-0.33241;0.0900277;0;0;-5;2313;3254;605;8;-0.132964;-0.6998271;0.09556787;0.6952909;-8;2;0;1309;-223;3667;0.7601628;1.718884;1.474231;0.7607049;1.768295;0.9309259;0.7611592;1.809713;0.4531782;0.7631885;1.77414;-0.2797561;0.5079848;1.705566;-0.6036641;0.1632537;1.755893;-0.4666721;-0.04692809;0.9434512;-0.07412785;0;0;0;1.027484;1.7352;-0.6036673;1.311955;1.82142;-0.4666775;1.494478;0.9190624;-0.182577;1.490039;-0.01504362;-0.02379072;0.4482786;1.710561;1.518853;0.6452878;0.2909901;1.224125;0.7187989;0.8434496;2.449569;0.4482786;1.710561;1.518853;0.6452878;0.2909901;1.224125;0.7187989;0.8434496;2.449569
895107.7589;NotLabelled;NONE;16384;-0.1495845;0.4875346;-0.6448927;-0.5692521;9;-24;13;-1910;3914;-821;65536;0.4542936;-0.4889196;0.4972299;0.5543801;-4;1;8;-120;4204;635;8192;0.5941828;-0.6255208;0.2132964;0.4584487;-12;-16;-3;690;4575;-253;32768;0.5152354;-0.6062686;0.3878116;0.4653739;-15;-32;-17;355;4419;12;256;0.6204986;0.03739612;-0.7833142;0.001385042;4;-1;-5;-449;-558;4435;128;-0.5623268;0.005540166;0.8017896;0.2022161;-4;-5;1;1121;1173;-4136;4;-0.1315789;0;-0.6398892;-0.7571188;0;-3;3;1019;3940;-630;16;0.05817174;-0.662118;-0.3739612;0.6468144;5;3;0;-2241;-1680;3030;2;0.6856865;-0.6412742;-0.33241;0.0900277;0;-3;-7;2109;3180;735;8;-0.134349;-0.6995625;0.09556787;0.6952909;-8;-3;-1;1407;-281;3827;0.7558695;1.720414;1.474735;0.7564117;1.769825;0.9314306;0.7568662;1.811242;0.4536831;0.7588964;1.775596;-0.2792474;0.5036886;1.707012;-0.6031502;0.1589611;1.757382;-0.466165;-0.04666587;0.9434512;-0.07429335;0;0;0;1.02319;1.736601;-0.6031535;1.307668;1.822809;-0.4661704;1.49441;0.9208424;-0.1835787;1.491591;-0.01371181;-0.02741218;0.4439853;1.712091;1.519358;0.6472127;0.2933897;1.224664;0.716392;0.8458493;2.450361;0.4439853;1.712091;1.519358;0.6472127;0.2933897;1.224664;0.716392;0.8458493;2.450361
895128.755;NotLabelled;NONE;16384;-0.1495845;0.4847645;-0.6457562;-0.5706371;7;-17;16;-1926;4328;-623;65536;0.4542936;-0.4903047;0.4972299;0.5531555;-6;7;11;-280;4572;-77;8192;0.5927978;-0.6243865;0.2174515;0.4598338;-17;-31;-12;120;4919;-317;32768;0.5110803;-0.6035365;0.3891967;0.4722992;-25;-50;-27;423;4595;36;256;0.6218836;0.03601108;-0.7822812;0;12;-6;-4;-585;-626;4795;128;-0.5609418;0.006925208;0.8020455;0.2049861;-14;3;2;1239;1177;-4242;4;-0.1315789;0;-0.6398892;-0.7571188;0;-1;2;1043;3990;-634;16;0.05817174;-0.6615441;-0.3725762;0.6481994;4;-8;1;-2119;-1704;3066;2;0.6865365;-0.6412742;-0.3310249;0.08864266;0;-1;-8;2285;3336;719;8;-0.1357341;-0.6992951;0.09556787;0.6952909;-6;-7;-4;1355;-215;3789;0.752498;1.724334;1.47168;0.7530239;1.772245;0.9282413;0.7534637;1.812343;0.4503813;0.755494;1.776696;-0.2825494;0.5002862;1.708112;-0.606452;0.1555587;1.758482;-0.469467;-0.04478046;0.943285;-0.07748947;0;0;0;1.019788;1.737702;-0.6064552;1.304266;1.82391;-0.4694722;1.492861;0.9203725;-0.1931989;1.495276;-0.01358283;-0.03348207;0.4406153;1.716135;1.516335;0.6425594;0.2984068;1.216126;0.713104;0.8459632;2.443942;0.4406153;1.716135;1.516335;0.6425594;0.2984068;1.216126;0.713104;0.8459632;2.443942
895149.9259;NotLabelled;NONE;16384;-0.1495845;0.4819945;-0.6453759;-0.5734072;2;-8;25;-1820;4378;-429;65536;0.4542936;-0.4916897;0.4972299;0.5519248;-10;9;15;-6;4392;-219;8192;0.5914127;-0.6222245;0.2243767;0.4612188;-19;-36;-17;176;4693;-793;32768;0.5069252;-0.6004727;0.3891967;0.4806094;-29;-48;-34;171;4611;580;256;0.6232687;0.033241;-0.781301;0;16;-9;-7;-401;-626;4509;128;-0.5609418;0.008310249;0.8013192;0.2077562;-15;3;3;1117;1171;-4182;4;-0.1315789;0;-0.6398892;-0.7571188;0;2;1;985;4018;-766;16;0.0567867;-0.6624424;-0.3711911;0.6481994;0;-8;2;-2147;-1704;2974;2;0.6865365;-0.6412742;-0.3310249;0.08864266;0;5;-9;2599;3560;741;8;-0.1371191;-0.6976445;0.09556787;0.6966759;-2;-8;-5;1301;-187;3777;0.7544739;1.715567;1.47343;0.755039;1.767097;0.9303219;0.7555138;1.810379;0.4527396;0.7573681;1.777512;-0.2803217;0.5020549;1.710292;-0.6044271;0.1573832;1.760323;-0.4671771;-0.04208812;0.9433237;-0.07852343;0;0;0;1.021572;1.739608;-0.6044302;1.306125;1.825146;-0.4671825;1.49217;0.9203168;-0.1934208;1.49979;-0.01254702;-0.02760577;0.4425879;1.70707;1.518006;0.6455325;0.2893423;1.218472;0.7169667;0.8359667;2.446653;0.4425879;1.70707;1.518006;0.6455325;0.2893423;1.218472;0.7169667;0.8359667;2.446653
895170.7422;NotLabelled;NONE;16384;-0.1565097;0.4736842;-0.6461809;-0.5775623;-7;-8;41;-1588;4196;-233;65536;0.4487534;-0.5;0.4958449;0.5502347;-25;5;24;240;4264;1209;8192;0.5900277;-0.6199713;0.2313019;0.4626039;-12;-37;-17;758;4267;-1413;32768;0.5027701;-0.5981488;0.3878116;0.4889196;-28;-42;-38;-187;4401;984;256;0.6232687;0.03047091;-0.7814127;-0.001385042;18;-9;-11;-251;-436;4455;128;-0.5609418;0.008310249;0.8009589;0.2091413;-21;3;2;1051;1265;-4008;4;-0.132964;0;-0.6398892;-0.7568768;0;7;0;1009;4016;-654;16;0.0567867;-0.6637948;-0.3711911;0.6468144;-3;0;6;-2263;-1554;2994;2;0.6878513;-0.6398892;-0.33241;0.08310249;0;16;-4;2281;3664;881;8;-0.1385041;-0.6952909;0.09833795;0.6983673;3;-9;-6;1461;-391;3989;0.7530489;1.705577;1.474129;0.7536516;1.76053;0.9313567;0.7541593;1.806821;0.4540568;0.7557411;1.776415;-0.2791116;0.5000777;1.711412;-0.6033931;0.1556539;1.762498;-0.4659101;-0.03938967;0.943356;-0.07952575;0;0;0;1.019719;1.738438;-0.6033956;1.30467;1.82226;-0.4659145;1.487549;0.9148068;-0.1987842;1.503619;-0.01648998;-0.02495551;0.4411598;1.696799;1.518629;0.6450629;0.2790718;1.219747;0.7121361;0.8256083;2.448212;0.4411598;1.696799;1.518629;0.6450629;0.2790718;1.219747;0.7121361;0.8256083;2.448212
895191.7556;NotLabelled;NONE;16384;-0.1606648;0.468144;-0.6467165;-0.5803324;-5;-11;44;-1542;3814;-743;65536;0.4459834;-0.5041551;0.4944598;0.5499418;-20;5;21;-248;4372;1001;8192;0.5831025;-0.6192081;0.2396122;0.468144;0;-29;-12;2182;3713;-1399;32768;0.4986149;-0.5916236;0.3836565;0.5041551;-13;-16;-28;-533;4311;1088;256;0.6260388;0.02770083;-0.7792985;-0.001385042;16;-8;-13;-315;-338;4435;128;-0.5609418;0.009695291;0.7998468;0.2132964;-28;3;1;955;1463;-3838;4;-0.134349;0;-0.6398892;-0.7566321;-1;8;0;931;4006;-690;16;0.0567867;-0.6651416;-0.3711911;0.6454294;-3;1;9;-2021;-1628;3010;2;0.6873463;-0.6398892;-0.333795;0.08171745;-1;10;-2;1919;3470;885;8;-0.1398892;-0.6939058;0.09972299;0.6992719;3;-2;-4;1515;-443;4121;0.7532206;1.703982;1.471772;0.7538379;1.760238;0.929134;0.7543585;1.807675;0.4519467;0.7555506;1.781392;-0.2813815;0.4995816;1.718879;-0.6059111;0.15535;1.770086;-0.4679927;-0.02972982;0.9422226;-0.09554356;0;0;0;1.019291;1.744555;-0.6059899;1.304517;1.826861;-0.4681642;1.485457;0.9174652;-0.206373;1.511338;-0.01173306;-0.02277815;0.4413304;1.695097;1.516243;0.6445161;0.2778223;1.214735;0.7074422;0.8227673;2.444126;0.4413304;1.695097;1.516243;0.6445161;0.2778223;1.214735;0.7074422;0.8227673;2.444126
895211.9629;NotLabelled;NONE;16384;-0.1634349;0.4653739;-0.6442752;-0.5844875;5;-8;36;-1868;3460;-995;65536;0.4418283;-0.5069252;0.4944598;0.5507487;-17;-10;17;4;4176;1141;8192;0.5817174;-0.6194327;0.2423823;0.468144;-6;-13;-14;2274;4071;-791;32768;0.4972299;-0.5901285;0.3822715;0.5083103;-9;-16;-20;-547;4453;932;256;0.6274238;0.02631579;-0.7782282;-0.002770083;14;-6;-12;-375;-118;4239;128;-0.5609418;0.01246537;0.7986888;0.2174515;-26;5;0;897;1571;-3640;4;-0.1357341;0.001385042;-0.6398892;-0.7563837;-1;9;0;793;4092;-614;16;0.0567867;-0.6678185;-0.3711911;0.6426592;-4;-1;12;-2299;-1690;2936;2;0.6887961;-0.6385041;-0.333795;0.08033241;0;5;-1;1813;3186;891;8;-0.1398892;-0.6939058;0.09972299;0.6992719;0;0;-2;1627;-535;4129;0.7540632;1.695352;1.47568;0.7547324;1.756335;0.9335526;0.7552986;1.807929;0.4567969;0.7563716;1.784063;-0.2766136;0.5001263;1.72376;-0.6013438;0.1561262;1.77604;-0.4632507;-0.02556122;0.9413906;-0.1045324;0;0;0;1.019945;1.747127;-0.6013466;1.305534;1.827709;-0.4632555;1.478838;0.9168714;-0.2013088;1.527612;-0.008677125;-0.00441134;0.4421687;1.686081;1.520042;0.6468914;0.2692645;1.217423;0.6965216;0.8126193;2.448125;0.4421687;1.686081;1.520042;0.6468914;0.2692645;1.217423;0.6965216;0.8126193;2.448125
895231.7444;NotLabelled;NONE;16384;-0.1648199;0.4626039;-0.6433976;-0.5872576;7;-3;28;-1776;3558;-757;65536;0.4376731;-0.5083103;0.4944598;0.5527861;-17;-14;15;54;4104;777;8192;0.5817174;-0.6193877;0.2451524;0.466759;-7;8;-11;1866;4197;-719;32768;0.4972299;-0.5889326;0.3822715;0.5096953;-13;-8;-6;341;4039;2122;256;0.6288089;0.02216066;-0.7772243;-0.005540166;11;0;-5;-189;48;3619;128;-0.5609418;0.01523546;0.7971116;0.2229917;-22;0;0;881;1405;-3372;4;-0.1371191;0.002770083;-0.6398892;-0.75613;-1;6;0;717;4032;-522;16;0.0567867;-0.6691486;-0.3711911;0.6412742;-3;0;11;-2421;-1612;2916;2;0.6889562;-0.6385041;-0.333795;0.07894737;1;0;1;1951;3182;719;8;-0.1398892;-0.6939058;0.09972299;0.6992719;-1;-3;-1;1437;-347;4009;0.7491392;1.684149;1.470607;0.7498694;1.750672;0.9291314;0.7504892;1.807138;0.4529281;0.7514265;1.78607;-0.2805688;0.4950975;1.727128;-0.605483;0.1511457;1.779043;-0.4671316;-0.02161562;0.9404957;-0.1131255;0;0;0;1.014928;1.750249;-0.605486;1.300578;1.830167;-0.4671367;1.469618;0.9182293;-0.2062376;1.524128;-0.006043792;-0.00490284;0.4372396;1.674425;1.514837;0.643087;0.2575235;1.213379;0.6790626;0.7977009;2.445955;0.4372396;1.674425;1.514837;0.643087;0.2575235;1.213379;0.6790626;0.7977009;2.445955
895253.114;NotLabelled;NONE;16384;-0.16759;0.4598338;-0.6421322;-0.5900277;11;8;30;-1416;3570;-503;65536;0.433518;-0.5096953;0.4958449;0.5535438;-15;-20;12;56;3736;503;8192;0.5831025;-0.6196742;0.2437673;0.4653739;0;17;-7;1198;3923;-1077;32768;0.4986149;-0.588659;0.3808864;0.5096953;0;19;-1;-1197;4055;738;256;0.6301939;0.02216066;-0.7760906;-0.006925208;10;0;-5;-223;-76;3565;128;-0.5595568;0.0166205;0.7972776;0.2257618;-17;0;1;945;1345;-3362;4;-0.1371191;0.002770083;-0.6398892;-0.75613;0;1;0;693;3922;-574;16;0.0567867;-0.6697045;-0.3725762;0.6398892;-3;1;8;-2549;-1526;2774;2;0.6887961;-0.6385041;-0.333795;0.08033241;1;-7;3;2103;3218;735;8;-0.1412742;-0.6939058;0.09972299;0.6989933;-3;-1;0;1247;-235;3787;0.7459526;1.662542;1.465236;0.746758;1.735906;0.9246452;0.7474439;1.798388;0.449194;0.7480297;1.784257;-0.2844694;0.4913962;1.729166;-0.6098185;0.1476571;1.78081;-0.4708382;-0.02017191;0.9395611;-0.1208901;0;0;0;1.011294;1.750715;-0.6098216;1.297239;1.828458;-0.4708428;1.461848;0.91471;-0.2134676;1.518414;-0.009439945;-0.01213264;0.434047;1.65226;1.509296;0.6409327;0.2352722;1.208958;0.668268;0.7738621;2.44245;0.434047;1.65226;1.509296;0.6409327;0.2352722;1.208958;0.668268;0.7738621;2.44245
895273.9812;NotLabelled;NONE;16384;-0.1703601;0.4584487;-0.6385522;-0.5941828;11;7;32;-1444;3334;-439;65536;0.4307479;-0.5096953;0.4972299;0.5544631;-10;-16;12;180;3628;-225;8192;0.5844875;-0.620443;0.2437673;0.4626039;-2;8;-8;746;3647;-543;32768;0.5;-0.5883787;0.3795014;0.5096953;0;3;0;-191;3853;308;256;0.6301939;0.02077562;-0.7761153;-0.008310249;10;6;-6;-283;-130;3441;128;-0.5595568;0.01800554;0.796854;0.2271468;-13;0;2;859;1303;-3382;4;-0.1371191;0.002770083;-0.6398892;-0.75613;0;-3;0;751;3830;-522;16;0.05817174;-0.6709065;-0.3725762;0.6385041;-1;0;4;-2567;-1450;2794;2;0.6875096;-0.6398892;-0.333795;0.08033241;1;-12;2;2245;3334;749;8;-0.1412742;-0.6939058;0.09833795;0.6991895;-2;2;0;1177;-115;3721;0.7446636;1.657587;1.463861;0.7455083;1.734572;0.9237741;0.7462289;1.800238;0.4487524;0.7467727;1.78763;-0.2849389;0.4902046;1.732775;-0.6103791;0.1463901;1.783541;-0.4712625;-0.01559514;0.938859;-0.1268752;0;0;0;1.010064;1.755214;-0.610383;1.295889;1.833159;-0.4712681;1.460243;0.9193256;-0.214027;1.518659;-0.004772902;-0.01298773;0.4327547;1.647009;1.507829;0.6407059;0.2300217;1.208227;0.658712;0.7695284;2.44149;0.4327547;1.647009;1.507829;0.6407059;0.2300217;1.208227;0.658712;0.7695284;2.44149
895294.7421;NotLabelled;NONE;16384;-0.1759003;0.4529086;-0.6358185;-0.599723;1;-9;25;-1128;3234;-69;65536;0.4279778;-0.5110803;0.501385;0.551584;-2;2;15;814;3434;-7;8192;0.5844875;-0.619897;0.2451524;0.4626039;-5;-1;-6;886;3409;23;32768;0.5;-0.5895756;0.3795014;0.5083103;-2;5;1;-781;3147;862;256;0.6315789;0.02077562;-0.774954;-0.01108033;9;8;-6;-281;-64;3449;128;-0.5595568;0.01800554;0.7964579;0.2285319;-9;1;1;901;1543;-3450;4;-0.1371191;0.001385042;-0.6398892;-0.7561337;0;-6;0;867;3812;-608;16;0.05817174;-0.6709065;-0.3725762;0.6385041;0;0;0;-2647;-1376;2824;2;0.6873463;-0.6398892;-0.333795;0.08171745;1;4;-1;2389;3328;753;8;-0.1412742;-0.6925207;0.09833795;0.7005614;-4;-1;-1;1159;-247;3665;0.7364551;1.651842;1.473218;0.737323;1.730938;0.9334354;0.7380639;1.798462;0.4586742;0.7385983;1.791583;-0.2750934;0.4820063;1.739373;-0.6009498;0.1382132;1.78919;-0.4614375;-0.01352233;0.9390023;-0.1260487;0;0;0;1.001875;1.761602;-0.6007824;1.287732;1.838343;-0.461066;1.449233;0.9212537;-0.2138027;1.510214;-0.003563643;-0.01687264;0.4245444;1.641092;1.51713;0.6325085;0.225287;1.211998;0.6464113;0.7558842;2.449172;0.4245444;1.641092;1.51713;0.6325085;0.225287;1.211998;0.6464113;0.7558842;2.449172
895315.967;NotLabelled;NONE;16384;-0.1772853;0.4501385;-0.6360931;-0.601108;-6;-2;18;-712;3546;315;65536;0.4265928;-0.5124654;0.501385;0.5513718;-5;8;12;184;3678;563;8192;0.5858725;-0.6227592;0.2423823;0.4584487;4;26;-4;1680;2141;-983;32768;0.5041551;-0.591077;0.3753462;0.5055401;3;33;-1;-849;2377;1136;256;0.632964;0.02077562;-0.773802;-0.01246537;8;8;-6;-349;114;3581;128;-0.5595568;0.01800554;0.7960592;0.2299169;-5;2;1;827;1767;-3448;4;-0.1357341;0;-0.6398892;-0.7563849;0;-1;2;1007;3934;-690;16;0.05955679;-0.670785;-0.3725762;0.6385041;4;0;-5;-2523;-1532;2994;2;0.6873463;-0.6398892;-0.333795;0.08171745;1;4;-2;2169;3308;853;8;-0.1412742;-0.6925207;0.09695291;0.7007544;-6;5;-4;1219;-387;3665;0.7347167;1.654606;1.472935;0.7355989;1.735009;0.9333463;0.7363526;1.803682;0.45875;0.7366612;1.797028;-0.2750196;0.4801413;1.744025;-0.6008049;0.1362246;1.792604;-0.4611607;-0.002335936;0.9385803;-0.1298398;0;0;0;0.9999296;1.768062;-0.6008074;1.285565;1.845755;-0.4611645;1.446122;0.9300621;-0.2081757;1.503729;0.005883694;-0.007269502;0.4228047;1.643749;1.516813;0.6311795;0.2273104;1.21492;0.6409052;0.7627423;2.450051;0.4228047;1.643749;1.516813;0.6311795;0.2273104;1.21492;0.6409052;0.7627423;2.450051
895337.1349;NotLabelled;NONE;16384;-0.1800554;0.4487534;-0.6362936;-0.601108;-6;9;12;-908;3578;-107;65536;0.4252077;-0.5152354;0.501385;0.5498581;-6;4;6;234;4042;823;8192;0.5872576;-0.6240239;0.2409972;0.4556787;7;35;-5;1324;1949;-825;32768;0.5069252;-0.5928205;0.3725762;0.5027701;6;38;0;-579;2221;1220;256;0.632964;0.02216066;-0.7737401;-0.01385042;-4;5;-2;-489;488;3407;128;-0.5581717;0.01939058;0.7965975;0.2313019;4;-4;-2;1007;1835;-3358;4;-0.1371191;0;-0.6398892;-0.756135;-1;2;3;873;3990;-596;16;0.05955679;-0.670785;-0.3725762;0.6385041;1;0;-6;-2481;-1562;3034;2;0.6875096;-0.6398892;-0.333795;0.08033241;0;-1;-4;2019;3186;851;8;-0.1426593;-0.6911357;0.09695291;0.7018404;-4;-7;-6;1399;-345;3525;0.7353417;1.653065;1.474346;0.7362384;1.734775;0.9349537;0.7370045;1.804599;0.4605253;0.7372519;1.799456;-0.2732567;0.4807922;1.746679;-0.5991255;0.1368054;1.794372;-0.4593492;0.0002531074;0.9381566;-0.1328863;0;0;0;1.000538;1.771619;-0.5991283;1.286052;1.84952;-0.4593533;1.441504;0.9333487;-0.2049142;1.500793;0.009066343;-0.004977226;0.4234286;1.642102;1.518189;0.6327897;0.225749;1.216577;0.6387802;0.758698;2.452804;0.4234286;1.642102;1.518189;0.6327897;0.225749;1.216577;0.6387802;0.758698;2.452804
895357.9463;NotLabelled;NONE;16384;-0.1814404;0.4487534;-0.6359001;-0.601108;-1;11;1;-1626;3572;-563;65536;0.4252077;-0.5166205;0.5;0.5498197;-6;6;2;300;4212;819;8192;0.5872576;-0.6270966;0.2382271;0.4529086;9;28;-6;886;2063;-649;32768;0.5096953;-0.5956822;0.3698061;0.4986149;4;32;4;117;2229;814;256;0.632964;0.0235457;-0.7736992;-0.01385042;-10;-2;3;-781;462;3367;128;-0.5581717;0.01939058;0.7969984;0.2299169;10;-6;-5;1205;1721;-3188;4;-0.1371191;0;-0.6398892;-0.756135;0;0;3;777;4020;-550;16;0.05955679;-0.6694639;-0.3725762;0.6398892;2;0;-7;-2283;-1612;3012;2;0.6875096;-0.6398892;-0.333795;0.08033241;1;-5;-4;2175;3180;687;8;-0.1440443;-0.6897507;0.09833795;0.7027268;0;-18;-10;1267;-377;3341;0.7392617;1.652227;1.475101;0.7401837;1.736249;0.9360639;0.7409721;1.808106;0.4619391;0.7412239;1.803248;-0.2718447;0.484965;1.749597;-0.5977295;0.1407978;1.795895;-0.4579275;0.005011067;0.9376049;-0.1366326;0;0;0;1.00461;1.776564;-0.5977327;1.289821;1.855523;-0.4579328;1.443225;0.9387598;-0.204384;1.502363;0.01430964;-0.005180359;0.4273465;1.641077;1.518882;0.6362184;0.2251914;1.214745;0.6421091;0.7581406;2.450973;0.4273465;1.641077;1.518882;0.6362184;0.2251914;1.214745;0.6421091;0.7581406;2.450973
895378.7882;NotLabelled;NONE;16384;-0.1814404;0.4501385;-0.6362288;-0.599723;-3;7;-5;-1722;3824;-553;65536;0.4238227;-0.5166205;0.5;0.5508881;-3;-2;0;676;4228;661;8192;0.5886427;-0.6278425;0.2354571;0.4515235;9;16;-5;608;2571;-411;32768;0.5124654;-0.5964755;0.368421;0.4958449;1;28;6;-775;2473;650;256;0.632964;0.0235457;-0.7737437;-0.01108033;-16;-11;5;-1089;302;3289;128;-0.5581717;0.01939058;0.7973967;0.2285319;15;-15;-6;1377;1605;-3096;4;-0.1371191;0;-0.6398892;-0.756135;1;-1;2;841;4042;-544;16;0.05817174;-0.6703544;-0.3711911;0.6398892;1;-2;-5;-2173;-1710;2944;2;0.6881803;-0.6398892;-0.33241;0.08033241;1;-8;0;2389;3342;645;8;-0.1454294;-0.6883656;0.101108;0.7034062;8;-26;-16;1319;-447;3501;0.7381046;1.657939;1.474653;0.7390124;1.740652;0.9354128;0.7397882;1.811358;0.4611152;0.7401199;1.805212;-0.2726589;0.4840075;1.750441;-0.5984721;0.1397286;1.796245;-0.4587829;0.004605398;0.9372416;-0.13912;0;0;0;1.003593;1.778522;-0.5984755;1.288621;1.858338;-0.4587886;1.43777;0.9418092;-0.2018729;1.494143;0.01703405;-0.003377795;0.4261906;1.646895;1.518469;0.6350949;0.2310095;1.214354;0.6455718;0.7655597;2.449859;0.4261906;1.646895;1.518469;0.6350949;0.2310095;1.214354;0.6455718;0.7655597;2.449859
895398.7496;NotLabelled;NONE;16384;-0.1828255;0.4529086;-0.6364715;-0.5969529;-11;10;-3;-1654;3946;-313;65536;0.4252077;-0.5180055;0.4986149;0.5497743;-2;1;-2;244;4048;645;8192;0.5872576;-0.6286594;0.234072;0.4529086;10;-3;15;2122;4555;-441;32768;0.5124654;-0.5990525;0.3698061;0.4916897;8;-2;30;-917;5689;988;256;0.6315789;0.0235457;-0.774923;-0.006925208;-20;-21;5;-1069;176;3329;128;-0.5581717;0.01939058;0.7981854;0.2257618;19;-22;-6;1367;1547;-3262;4;-0.1371191;0;-0.6385041;-0.757305;1;-1;3;875;4052;-578;16;0.05817174;-0.6690296;-0.3711911;0.6412742;1;-1;-2;-2181;-1594;2964;2;0.6858879;-0.6412742;-0.333795;0.08310249;2;1;10;2435;3444;841;8;-0.1481994;-0.6828254;0.1121884;0.7065409;27;-21;-28;1343;-483;3535;0.740451;1.661088;1.471879;0.7413442;1.742492;0.9324408;0.7421075;1.812048;0.4579729;0.742577;1.802757;-0.2757682;0.4863448;1.747489;-0.6014032;0.1421983;1.795099;-0.4619913;0.004143946;0.9368972;-0.1414314;0;0;0;1.006026;1.773746;-0.6014061;1.291302;1.85316;-0.4619962;1.441456;0.9371587;-0.2037909;1.497374;0.01172876;-0.008240342;0.4285381;1.65015;1.515731;0.6374539;0.2342647;1.211623;0.6474393;0.7687856;2.447146;0.4285381;1.65015;1.515731;0.6374539;0.2342647;1.211623;0.6474393;0.7687856;2.447146
895419.7944;NotLabelled;NONE;16384;-0.1842105;0.4542936;-0.6376759;-0.5941828;-11;2;-9;-1312;3826;-69;65536;0.4252077;-0.5180055;0.4986149;0.5497743;-3;0;-3;224;3868;575;8192;0.5872576;-0.6266743;0.2313019;0.4570637;4;-8;36;3138;7351;-171;32768;0.5110803;-0.601049;0.3739612;0.4875346;13;-14;45;-809;7593;334;256;0.6315789;0.02077562;-0.7750319;0.001385042;-15;-27;1;163;-320;3901;128;-0.5581717;0.02077562;0.7996969;0.2202216;21;-30;-6;1081;1399;-3366;4;-0.1371191;-0.001385042;-0.6385041;-0.7573037;2;-7;3;1041;3868;-576;16;0.05817174;-0.6697962;-0.3698061;0.6412742;1;3;-1;-2363;-1558;2984;2;0.6850427;-0.6412742;-0.33518;0.08448754;1;-3;19;2311;3376;829;8;-0.1454294;-0.6800554;0.1177285;0.7088829;29;-13;-33;1661;-1093;4091;0.7440097;1.667773;1.471867;0.7448742;1.746564;0.93204;0.7456123;1.813819;0.4572408;0.7462444;1.79987;-0.2764263;0.4898201;1.743877;-0.6017867;0.1458875;1.79417;-0.4627896;0.003706541;0.9368707;-0.141617;0;0;0;1.009631;1.767416;-0.6017891;1.295279;1.84622;-0.4627944;1.446589;0.9315692;-0.200507;1.494847;0.005246401;-0.007155418;0.4320992;1.657049;1.515787;0.645128;0.2420417;1.210446;0.6641942;0.778155;2.445172;0.4320992;1.657049;1.515787;0.645128;0.2420417;1.210446;0.6641942;0.778155;2.445172
895445.5234;NotLabelled;NONE;16384;-0.1842105;0.4542936;-0.6389638;-0.5927978;-8;-1;-12;-960;3620;-165;65536;0.4252077;-0.5180055;0.4972299;0.5510273;-6;9;-3;68;3884;427;8192;0.5900277;-0.6230517;0.2285319;0.4598338;-16;21;34;1104;6873;-63;32768;0.5083103;-0.602165;0.3795014;0.4847645;4;-8;34;419;4443;590;256;0.6315789;0.01939058;-0.7750493;0.005540166;-4;-12;-2;1303;-460;4553;128;-0.5581717;0.0235457;0.8011253;0.2146814;15;-27;-2;281;1211;-3948;4;-0.1371191;-0.002770083;-0.6385041;-0.7572999;2;-8;3;999;3892;-602;16;0.05817174;-0.6690296;-0.3711911;0.6412742;1;6;-2;-2409;-1640;3054;2;0.6838376;-0.6412742;-0.3365651;0.08864266;2;-13;26;2105;3174;729;8;-0.1440443;-0.6772853;0.1218837;0.711112;22;-11;-32;2295;-983;4629;0.7625071;1.673841;1.452117;0.7633232;1.748212;0.9116638;0.7640185;1.811581;0.43633;0.7646873;1.784747;-0.2969787;0.5075704;1.726851;-0.6214579;0.1643735;1.784657;-0.483568;0.003693443;0.9356809;-0.1492772;0;0;0;1.027673;1.742696;-0.6215661;1.314409;1.819694;-0.483807;1.460484;0.9104438;-0.20061;1.497382;-0.01558542;-0.003390908;0.4506006;1.663476;1.496152;0.6629786;0.246552;1.199368;0.6823785;0.7902455;2.430769;0.4506006;1.663476;1.496152;0.6629786;0.246552;1.199368;0.6823785;0.7902455;2.430769
895465.9192;NotLabelled;NONE;16384;-0.1842105;0.4556787;-0.6392609;-0.5914127;-9;14;-11;-948;3404;-229;65536;0.4265928;-0.5193906;0.4944598;0.5511456;-9;20;-4;136;4236;521;8192;0.5941828;-0.6211306;0.2257618;0.4584487;-13;31;18;-604;3049;-1973;32768;0.5069252;-0.6049049;0.3822715;0.4806094;3;6;22;489;3819;1040;256;0.632964;0.02077562;-0.7738913;0.004155125;-1;8;0;-575;-252;4805;128;-0.5595568;0.02631579;0.8018984;0.2077562;2;-13;3;363;1459;-4366;4;-0.1357341;-0.004155125;-0.6385041;-0.757543;0;-9;3;1065;3896;-658;16;0.05955679;-0.6689077;-0.3711911;0.6412742;0;4;-3;-2473;-1538;2980;2;0.6826021;-0.6412742;-0.3379501;0.09279778;4;-25;30;2061;3144;721;8;-0.1440443;-0.6731302;0.1274238;0.71408;16;-32;-24;2727;-387;4971;0.7499996;1.681679;1.474839;0.7507761;1.752452;0.9339029;0.7514367;1.812656;0.458158;0.7519965;1.788382;-0.2752402;0.4944981;1.733523;-0.5999444;0.1517214;1.793384;-0.4618869;0.0006438028;0.9366081;-0.1433891;0;0;0;1.014704;1.74552;-0.5999475;1.301985;1.819913;-0.4618918;1.473133;0.9100854;-0.1950635;1.498704;-0.01857388;-0.008714795;0.4380963;1.671607;1.518965;0.6498022;0.2577214;1.207571;0.6691266;0.7938344;2.442292;0.4380963;1.671607;1.518965;0.6498022;0.2577214;1.207571;0.6691266;0.7938344;2.442292
895486.743;NotLabelled;NONE;16384;-0.1855956;0.4584487;-0.6394364;-0.5886427;-7;22;-12;-1296;3940;-223;65536;0.4279778;-0.5221606;0.4916897;0.5499313;-9;22;-1;-74;4584;581;8192;0.5927978;-0.6234503;0.2229917;0.4584487;8;16;3;-184;3315;-2399;32768;0.5055401;-0.6062845;0.3836565;0.4792244;5;3;7;529;4149;942;256;0.6315789;0.02077562;-0.775022;0.004155125;0;2;7;-741;-338;4895;128;-0.5595568;0.02770083;0.8022093;0.2063712;2;-7;-6;793;1599;-4608;4;-0.1371191;-0.005540166;-0.6371191;-0.7584503;-1;-4;2;1087;3908;-758;16;0.05955679;-0.6689077;-0.3711911;0.6412742;0;5;-6;-2421;-1528;3056;2;0.6790081;-0.6440443;-0.3379501;0.09972299;5;-39;31;2401;3504;683;8;-0.1468144;-0.6717451;0.132964;0.7138099;17;-40;-14;2003;9;4505;0.7516897;1.692002;1.473754;0.7524112;1.757729;0.9321815;0.7530233;1.813496;0.4558958;0.7536698;1.789478;-0.2775105;0.4963808;1.733743;-0.602232;0.153378;1.79224;-0.464151;-0.001757635;0.9363064;-0.1453418;0;0;0;1.016536;1.747737;-0.6022345;1.303531;1.823184;-0.4641558;1.480196;0.9136053;-0.2000914;1.494245;-0.0156405;-0.01545203;0.4397909;1.682341;1.518003;0.6525149;0.2685405;1.206919;0.6679697;0.8021778;2.442767;0.4397909;1.682341;1.518003;0.6525149;0.2685405;1.206919;0.6679697;0.8021778;2.442767
895507.7338;NotLabelled;NONE;16384;-0.1869806;0.4626039;-0.6385838;-0.5858725;-5;5;-11;-2040;4598;-675;65536;0.4293629;-0.5249307;0.4875346;0.5499139;-9;13;-2;210;4498;571;8192;0.5900277;-0.6260725;0.2229917;0.4584487;13;-8;0;794;4371;-1095;32768;0.5055401;-0.6064996;0.3850415;0.4778393;4;0;2;-141;4421;696;256;0.6315789;0.02077562;-0.775022;0.004155125;0;0;9;-157;-422;4809;128;-0.5581717;0.02770083;0.8031737;0.2063712;0;7;-9;979;1565;-4604;4;-0.1371191;-0.005540166;-0.6371191;-0.7584503;-3;-1;1;1135;3824;-680;16;0.05955679;-0.6668051;-0.3725762;0.6426592;1;2;-8;-2511;-1586;2892;2;0.6773264;-0.6454294;-0.3365651;0.1066482;3;-32;28;2989;4000;693;8;-0.1454294;-0.6703601;0.1385041;0.7143418;22;-6;-8;1143;383;3819;0.7551174;1.691513;1.470692;0.7558334;1.75676;0.9290613;0.7564406;1.812104;0.4527262;0.7570873;1.788121;-0.2806815;0.4998012;1.732387;-0.605405;0.1567952;1.790857;-0.4673205;-0.002523543;0.9358904;-0.1479793;0;0;0;1.019956;1.746411;-0.6054077;1.306946;1.821869;-0.4673258;1.482512;0.9137671;-0.1975051;1.492019;-0.01546776;-0.01251876;0.443219;1.681893;1.514953;0.6588242;0.270043;1.197064;0.6786994;0.8036807;2.432849;0.443219;1.681893;1.514953;0.6588242;0.270043;1.197064;0.6786994;0.8036807;2.432849
895527.7418;NotLabelled;NONE;16384;-0.1869806;0.4639889;-0.6401125;-0.5831025;-3;2;-13;-2020;3840;-533;65536;0.4293629;-0.5263157;0.4847645;0.5510378;-8;20;-9;368;4482;611;8192;0.5886427;-0.623821;0.2243767;0.4626039;-4;-5;9;1808;4287;-157;32768;0.5055401;-0.6067083;0.3864266;0.4764543;1;-11;9;-179;4147;486;256;0.6301939;0.02077562;-0.7761487;0.004155125;0;-1;6;67;-360;4481;128;-0.5567867;0.02770083;0.8037777;0.2077562;-5;9;-6;891;1373;-4302;4;-0.1371191;-0.006925208;-0.6371191;-0.7584389;-1;2;0;1229;4000;-688;16;0.05955679;-0.6668051;-0.3725762;0.6426592;2;2;-9;-2515;-1612;2808;2;0.6756704;-0.6440443;-0.3407202;0.1121884;-11;15;23;2981;4140;807;8;-0.1315789;-0.6717451;0.1385041;0.7157248;29;45;6;1835;245;3965;0.7567599;1.688891;1.464426;0.7574777;1.754302;0.9228147;0.7580865;1.809791;0.4464966;0.7587333;1.785808;-0.286911;0.501447;1.730073;-0.6116345;0.1584411;1.788543;-0.4735499;-0.005691186;0.9351695;-0.1523918;0;0;0;1.021602;1.744097;-0.6116374;1.308592;1.819555;-0.4735553;1.478679;0.9118204;-0.1990316;1.485176;-0.01786816;-0.0162071;0.4448615;1.679257;1.508682;0.6604664;0.2674065;1.190794;0.6848459;0.8051622;2.424712;0.4448615;1.679257;1.508682;0.6604664;0.2674065;1.190794;0.6848459;0.8051622;2.424712
895548.7663;NotLabelled;NONE;16384;-0.1842105;0.466759;-0.640162;-0.5817174;0;3;-18;-2192;3762;-337;65536;0.433518;-0.5277008;0.4819945;0.5488855;-3;28;-21;860;4574;799;8192;0.5900277;-0.6219777;0.2229917;0.4639889;-9;6;9;1362;4045;-363;32768;0.5041551;-0.6060898;0.3891967;0.4764543;-4;-14;13;-249;4009;660;256;0.6288089;0.02077562;-0.7772626;0.005540166;0;-3;3;-81;-344;4095;128;-0.5567867;0.02770083;0.8034184;0.2091413;-7;-2;-4;889;1329;-3894;4;-0.1398892;-0.004155125;-0.6385041;-0.7567868;0;12;-1;899;3978;-526;16;0.06094183;-0.6639985;-0.3725762;0.6454294;3;2;-9;-2279;-1654;2894;2;0.6759656;-0.6412742;-0.3448753;0.1135734;-16;24;22;2419;3612;813;8;-0.1246537;-0.6745152;0.1371191;0.7146251;27;39;14;1943;89;4051;0.7579472;1.68426;1.45946;0.758681;1.751134;0.9180276;0.7593039;1.807908;0.4418611;0.759951;1.78396;-0.2915478;0.5026675;1.728227;-0.6162734;0.1596584;1.786671;-0.4781862;-0.009517126;0.9344417;-0.1566053;0;0;0;1.022822;1.742282;-0.6162767;1.309808;1.817749;-0.4781913;1.485437;0.9112302;-0.203141;1.489577;-0.01889813;-0.02249968;0.4460474;1.674507;1.503682;0.6598362;0.263234;1.182027;0.6886226;0.8009893;2.415849;0.4460474;1.674507;1.503682;0.6598362;0.263234;1.182027;0.6886226;0.8009893;2.415849
895568.8539;NotLabelled;NONE;16384;-0.1828255;0.4695291;-0.6410439;-0.5789474;-5;11;-33;-2836;3852;355;65536;0.4390582;-0.5290859;0.4764543;0.5479848;0;41;-25;772;4306;395;8192;0.5927978;-0.6193382;0.2229917;0.4639889;-9;0;10;850;3727;-793;32768;0.501385;-0.6064063;0.3905817;0.4778393;-6;-20;13;51;4123;630;256;0.6274238;0.01939058;-0.7784168;0.005540166;1;-5;5;19;-42;3723;128;-0.5554016;0.02908587;0.8043277;0.2091413;-2;-4;-5;525;1365;-3554;4;-0.1412742;-0.002770083;-0.6385041;-0.7565358;0;9;0;667;3842;-420;16;0.06094183;-0.6626494;-0.3725762;0.6468144;4;0;-10;-2283;-1656;2932;2;0.6777596;-0.6371191;-0.3490305;0.1135734;-20;26;20;2157;3092;811;8;-0.1177285;-0.6786703;0.1371191;0.7118602;26;38;18;1705;117;3823;0.7569398;1.67935;1.452542;0.7576879;1.747523;0.9112712;0.7583234;1.80544;0.4352424;0.7589049;1.779948;-0.2981142;0.5015169;1.723965;-0.6227143;0.1586114;1.783277;-0.4847395;-0.01187603;0.9348652;-0.1538904;0;0;0;1.021694;1.737143;-0.6227626;1.308811;1.812418;-0.4848455;1.492183;0.9076278;-0.2091547;1.493933;-0.0228188;-0.03012025;0.4450388;1.669491;1.496731;0.6527765;0.2571533;1.175786;0.6962038;0.7956617;2.408851;0.4450388;1.669491;1.496731;0.6527765;0.2571533;1.175786;0.6962038;0.7956617;2.408851
895589.7467;NotLabelled;NONE;16384;-0.1814404;0.4722992;-0.6431382;-0.5747922;-23;-2;-31;-1818;4008;377;65536;0.4432133;-0.5290859;0.4722992;0.5482368;0;35;-21;-422;3902;471;8192;0.5927978;-0.6182982;0.2229917;0.4653739;-8;-9;11;1166;3673;-1011;32768;0.4986149;-0.6068996;0.3933518;0.4778393;-5;-23;15;-301;4135;692;256;0.6274238;0.01800554;-0.77845;0.005540166;2;-5;3;279;-126;3711;128;-0.5540166;0.03047091;0.8052311;0.2091413;-5;-1;-4;531;1277;-3440;4;-0.1412742;-0.002770083;-0.6385041;-0.7565358;1;-1;0;689;3828;-492;16;0.05955679;-0.6614208;-0.3725762;0.6481994;5;-1;-10;-2295;-1590;3078;2;0.6794981;-0.632964;-0.3531856;0.1135734;-20;17;19;2061;2812;713;8;-0.1108033;-0.6814404;0.134349;0.7108529;26;44;17;1425;299;3581;0.7543824;1.672332;1.450366;0.7551414;1.741478;0.9092191;0.7557865;1.80025;0.4332952;0.7563037;1.776066;-0.3001058;0.4987941;1.721202;-0.6248003;0.1560156;1.780985;-0.4867136;-0.0195763;0.9349818;-0.1523851;0;0;0;1.018998;1.733291;-0.6248356;1.306274;1.807718;-0.4867891;1.496056;0.9024274;-0.2171469;1.496298;-0.02741432;-0.03498709;0.4424804;1.662393;1.494532;0.649179;0.2499684;1.173297;0.7018268;0.7900877;2.405299;0.4424804;1.662393;1.494532;0.649179;0.2499684;1.173297;0.7018268;0.7900877;2.405299
895610.7383;NotLabelled;NONE;16384;-0.1800554;0.4736842;-0.6486373;-0.567867;-16;9;-16;-1250;3174;-919;65536;0.4515235;-0.5318559;0.4639889;0.5458663;-2;35;-6;-254;3448;865;8192;0.5927978;-0.6172532;0.2229917;0.466759;-10;-9;16;1138;3807;-669;32768;0.4958449;-0.606275;0.3961219;0.4792244;-4;-18;14;-65;3787;810;256;0.6274238;0.0166205;-0.7784697;0.006925208;4;-4;1;223;-222;3749;128;-0.5540166;0.03047091;0.8052311;0.2091413;-4;0;-1;471;1309;-3598;4;-0.1398892;-0.002770083;-0.6385041;-0.7567931;0;-9;0;809;3960;-554;16;0.05955679;-0.6608405;-0.3711911;0.6495845;6;3;-10;-2239;-1646;3186;2;0.6803938;-0.6301939;-0.3559557;0.1149584;-14;12;20;2257;2784;409;8;-0.1038781;-0.6842105;0.132964;0.709497;23;50;14;1417;393;3481;0.7578192;1.664715;1.450011;0.7585889;1.73483;0.9089884;0.7592433;1.794455;0.4331704;0.7596843;1.771546;-0.3002717;0.5020466;1.717801;-0.6250515;0.1594022;1.778083;-0.4868488;-0.02688812;0.935059;-0.15079;0;0;0;1.022275;1.728769;-0.6250844;1.309716;1.802336;-0.4869193;1.501143;0.8976394;-0.21645;1.496246;-0.0319941;-0.03329408;0.4459164;1.654697;1.494152;0.6525855;0.2422727;1.172898;0.7094009;0.7864491;2.402928;0.4459164;1.654697;1.494152;0.6525855;0.2422727;1.172898;0.7094009;0.7864491;2.402928
895631.7532;NotLabelled;NONE;16384;-0.1814404;0.4764543;-0.6486418;-0.5650969;-10;15;-4;-930;3566;-419;65536;0.4529086;-0.534626;0.4612188;0.5443584;-4;21;-2;-210;3386;1097;8192;0.5941828;-0.6133061;0.2243767;0.4695291;-8;-3;7;998;4051;-1031;32768;0.4916897;-0.6069296;0.400277;0.4792244;-2;-15;7;127;4151;756;256;0.6274238;0.01523546;-0.7784981;0.006925208;6;-3;2;141;-338;3825;128;-0.5540166;0.03047091;0.8052311;0.2091413;-3;-2;1;619;1227;-3594;4;-0.1385041;-0.004155125;-0.6385041;-0.7570415;0;-9;0;1017;3952;-566;16;0.06094183;-0.6593496;-0.3711911;0.6509695;6;5;-8;-2169;-1650;3194;2;0.6788201;-0.6274238;-0.3628809;0.1177285;-4;12;18;2421;3054;511;8;-0.09279778;-0.6883656;0.1315789;0.7072682;15;13;8;1589;445;3807;0.7651173;1.660138;1.45474;0.7658866;1.730252;0.9137174;0.7665408;1.789877;0.4378995;0.7669399;1.766661;-0.2955329;0.5091159;1.713785;-0.6203076;0.1667;1.775458;-0.4821523;-0.03589131;0.9350445;-0.1490002;0;0;0;1.029383;1.722727;-0.6203103;1.317099;1.795231;-0.4821572;1.511075;0.8906527;-0.2131134;1.503641;-0.03875613;-0.02890718;0.4532146;1.65012;1.498881;0.6604246;0.2372029;1.18015;0.7222605;0.7804394;2.410353;0.4532146;1.65012;1.498881;0.6604246;0.2372029;1.18015;0.7222605;0.7804394;2.410353
895652.743;NotLabelled;NONE;16384;-0.1828255;0.4764543;-0.6482527;-0.5650969;-5;11;5;-1342;3342;-573;65536;0.4542936;-0.534626;0.4612188;0.5432031;-2;7;0;-198;3454;1055;8192;0.5941828;-0.6122432;0.2243767;0.4709141;-9;-6;10;1180;3989;-853;32768;0.4903047;-0.6051189;0.4030471;0.4806094;-3;-18;8;-45;4203;708;256;0.6274238;0.01385042;-0.778524;0.006925208;8;-2;1;115;-316;4007;128;-0.5540166;0.03185596;0.8051775;0.2091413;-4;-2;2;561;1343;-3792;4;-0.1385041;-0.005540166;-0.6385041;-0.7570326;0;0;0;1189;3942;-680;16;0.06094183;-0.6587588;-0.3698061;0.6523545;0;7;-3;-2071;-1596;3138;2;0.6786124;-0.6260388;-0.365651;0.1177285;-2;8;17;2195;3090;579;8;-0.09141274;-0.6897507;0.132964;0.7058387;9;-2;6;1345;429;3861;0.7703602;1.655656;1.452263;0.7711294;1.72577;0.9112415;0.7717835;1.785395;0.4354234;0.7721139;1.763453;-0.2980481;0.5141681;1.711698;-0.6229065;0.1718896;1.77387;-0.4846344;-0.03570824;0.9346336;-0.1515954;0;0;0;1.034453;1.719519;-0.6229094;1.322329;1.791162;-0.4846383;1.523809;0.8870007;-0.2197396;1.508759;-0.04201758;-0.03403628;0.4584574;1.645638;1.496405;0.6655111;0.2328073;1.177192;0.7328886;0.7752091;2.407472;0.4584574;1.645638;1.496405;0.6655111;0.2328073;1.177192;0.7328886;0.7752091;2.407472
895672.7595;NotLabelled;NONE;16384;-0.1855956;0.4778393;-0.6464436;-0.5650969;0;14;10;-1646;3092;-893;65536;0.4542936;-0.536011;0.4598338;0.5430123;1;2;-1;354;3644;923;8192;0.5955678;-0.6098258;0.2243767;0.4722992;-8;-15;22;1736;3769;-723;32768;0.4875346;-0.6044037;0.4058172;0.4819945;-3;-31;17;-313;4321;760;256;0.6260388;0.01385042;-0.7796382;0.006925208;7;0;1;125;-196;3987;128;-0.5540166;0.03185596;0.8051775;0.2091413;-4;4;4;577;1397;-3876;4;-0.1385041;-0.005540166;-0.6371191;-0.7581986;0;4;0;1027;3898;-706;16;0.06094183;-0.6579794;-0.3711911;0.6523545;0;4;0;-2075;-1612;3080;2;0.6776223;-0.6260388;-0.367036;0.1191136;0;-3;14;2097;3056;747;8;-0.09141274;-0.6897507;0.132964;0.7058387;4;-3;3;1103;529;3849;0.7702692;1.652456;1.456082;0.7710475;1.723377;0.9151651;0.7717097;1.783712;0.4394366;0.771976;1.763045;-0.2940719;0.5139117;1.712412;-0.6190133;0.1717711;1.77508;-0.4806238;-0.03521427;0.9350278;-0.1492651;0;0;0;1.034212;1.71911;-0.6190159;1.322245;1.789893;-0.4806288;1.526349;0.8863506;-0.2156219;1.51092;-0.04296625;-0.03144956;0.4583656;1.642373;1.500204;0.6647052;0.2301199;1.177984;0.7371797;0.7715693;2.408394;0.4583656;1.642373;1.500204;0.6647052;0.2301199;1.177984;0.7371797;0.7715693;2.408394
895693.7399;NotLabelled;NONE;16384;-0.1869806;0.4778393;-0.6460444;-0.5650969;3;7;9;-1962;3126;-431;65536;0.4542936;-0.536011;0.4598338;0.5430123;3;3;-3;202;3822;543;8192;0.5983379;-0.6032711;0.2229917;0.4778393;-21;-25;33;1888;3757;-41;32768;0.4833795;-0.6028878;0.4113573;0.4833795;-3;-49;18;-113;4079;552;256;0.6274238;0.01246537;-0.7785584;0.005540166;0;1;0;-195;-48;3959;128;-0.5540166;0.03047091;0.8052311;0.2091413;0;-3;3;789;1525;-3624;4;-0.1398892;-0.005540166;-0.6371191;-0.7579443;1;4;0;853;3904;-608;16;0.06094183;-0.6579794;-0.3711911;0.6523545;-1;0;3;-2087;-1648;2992;2;0.6760947;-0.6274238;-0.367036;0.1204986;4;-10;12;2171;3080;663;8;-0.09141274;-0.6897507;0.134349;0.7055764;1;-3;1;1003;525;3853;0.7656721;1.653092;1.45393;0.7664503;1.724013;0.9130127;0.7671122;1.784347;0.4372842;0.7673787;1.763698;-0.296225;0.5093165;1.713058;-0.6211674;0.1671731;1.775707;-0.4827757;-0.03588433;0.9346278;-0.1515911;0;0;0;1.029617;1.719783;-0.6211703;1.317646;1.790577;-0.4827815;1.528936;0.887569;-0.2216154;1.511723;-0.04149914;-0.03634763;0.4537687;1.643008;1.498051;0.6641265;0.2316501;1.174514;0.7407294;0.7756598;2.403543;0.4537687;1.643008;1.498051;0.6641265;0.2316501;1.174514;0.7407294;0.7756598;2.403543
895714.7498;NotLabelled;NONE;16384;-0.1883656;0.4778393;-0.6456419;-0.5650969;-5;0;1;-1942;3866;-31;65536;0.4570637;-0.534626;0.4584487;0.5432243;4;14;-16;128;4752;629;8192;0.6032981;-0.5955678;0.2243767;0.4806094;-27;-18;25;1260;4331;-325;32768;0.4792244;-0.6000028;0.4155124;0.4875346;-5;-55;9;-17;4223;478;256;0.6274238;0.01385042;-0.7785437;0.004155125;2;2;0;-311;-216;4123;128;-0.5540166;0.03047091;0.8052311;0.2091413;-4;0;2;897;1419;-3948;4;-0.1398892;-0.004155125;-0.6371191;-0.7579532;1;0;0;835;3998;-434;16;0.06094183;-0.6593496;-0.3711911;0.6509695;-3;1;4;-2151;-1740;2986;2;0.6745579;-0.6288089;-0.367036;0.1218837;4;-9;10;2431;3132;583;8;-0.09141274;-0.6897507;0.134349;0.7055764;-2;-6;0;1055;301;3847;0.7691174;1.65206;1.459129;0.7698869;1.722175;0.918107;0.7705411;1.7818;0.4422889;0.7707888;1.763991;-0.2912949;0.512699;1.714731;-0.6164268;0.1705865;1.777003;-0.4777889;-0.035351;0.9346274;-0.1517167;0;0;0;1.033002;1.721212;-0.6164116;1.321066;1.791335;-0.4777536;1.545936;0.8911179;-0.2182951;1.522721;-0.03794277;-0.0336473;0.4572147;1.642042;1.503271;0.668162;0.2311805;1.177957;0.7404418;0.7751912;2.407248;0.4572147;1.642042;1.503271;0.668162;0.2311805;1.177957;0.7404418;0.7751912;2.407248
895735.7508;NotLabelled;NONE;16384;-0.1883656;0.4778393;-0.6468515;-0.5637119;-10;3;-8;-1766;4564;-5;65536;0.4612188;-0.534626;0.4556787;0.5420417;4;17;-13;-90;4534;437;8192;0.6049668;-0.5900277;0.2285319;0.4833795;-17;-8;6;544;3835;-1555;32768;0.4709141;-0.596231;0.4238227;0.4930748;-5;-26;-2;993;3863;942;256;0.6260388;0.01385042;-0.779664;0.002770083;5;1;3;-311;-322;4181;128;-0.5540166;0.03047091;0.8048701;0.2105263;-2;2;0;909;1421;-3900;4;-0.1398892;-0.004155125;-0.6371191;-0.7579532;1;-3;-1;897;3914;-500;16;0.06094183;-0.6593496;-0.3711911;0.6509695;-2;0;5;-2347;-1718;2916;2;0.6735504;-0.6288089;-0.368421;0.1232687;0;1;8;2601;2946;835;8;-0.09279778;-0.6897507;0.134349;0.7053956;-6;-4;0;1039;243;3895;0.7627888;1.654703;1.462297;0.763558;1.724818;0.9212746;0.7642122;1.784443;0.4454567;0.7644988;1.766942;-0.2881342;0.5065892;1.716812;-0.6132767;0.1642426;1.777693;-0.4745992;-0.03993304;0.9350011;-0.1482394;0;0;0;1.026864;1.72532;-0.6132792;1.314658;1.796506;-0.4746035;1.555057;0.8973541;-0.2255892;1.53223;-0.03141761;-0.03944492;0.450886;1.644685;1.506438;0.6625328;0.2332401;1.184123;0.7300181;0.775641;2.414397;0.450886;1.644685;1.506438;0.6625328;0.2332401;1.184123;0.7300181;0.775641;2.414397
895756.7481;NotLabelled;NONE;16384;-0.1883656;0.4792244;-0.6482335;-0.5609418;-15;0;-6;-1324;4436;-413;65536;0.4639889;-0.533241;0.4542936;0.5422045;0;22;-7;-602;4314;521;8192;0.6041545;-0.5886427;0.2313019;0.4847645;-12;-17;0;810;3797;-983;32768;0.468144;-0.5962793;0.4252077;0.4944598;-5;-22;-6;397;4023;930;256;0.6260388;0.01385042;-0.779664;0.002770083;7;0;5;-175;-338;4265;128;-0.5540166;0.03047091;0.8048701;0.2105263;-5;2;0;823;1359;-4012;4;-0.1385041;-0.004155125;-0.6371191;-0.7582075;2;-2;-2;979;3970;-622;16;0.06094183;-0.6599342;-0.3725762;0.6495845;0;6;2;-2523;-1698;2860;2;0.6740828;-0.6274238;-0.3698061;0.1232687;-1;2;8;2207;2970;849;8;-0.09418282;-0.6883656;0.132964;0.706826;-12;-6;0;1275;211;3989;0.7601319;1.651256;1.465756;0.7609155;1.722672;0.9249037;0.7615823;1.783441;0.4492306;0.7618707;1.767545;-0.2843974;0.5040377;1.71767;-0.609639;0.1615889;1.777639;-0.4708169;-0.04463051;0.9353385;-0.1447296;0;0;0;1.024296;1.727103;-0.6096418;1.311969;1.798496;-0.4708211;1.56047;0.898793;-0.2319565;1.534161;-0.02929211;-0.04286838;0.4482279;1.641132;1.509865;0.6587253;0.2296872;1.186797;0.7305923;0.7720883;2.416823;0.4482279;1.641132;1.509865;0.6587253;0.2296872;1.186797;0.7305923;0.7720883;2.416823
895776.7442;NotLabelled;NONE;16384;-0.1911357;0.4792244;-0.6486196;-0.5595568;-12;7;0;-1104;4218;-719;65536;0.466759;-0.534626;0.4515235;0.5407749;0;25;-2;-240;4508;623;8192;0.6033219;-0.5872576;0.234072;0.4861496;-10;-26;1;1142;4077;-765;32768;0.466759;-0.5940682;0.4265928;0.4972299;-3;-19;-8;-39;4247;724;256;0.6260388;0.01385042;-0.7796677;0.001385042;8;-1;3;-115;-266;4255;128;-0.5540166;0.03047091;0.8048701;0.2105263;-8;1;0;807;1363;-3942;4;-0.1385041;-0.004155125;-0.6371191;-0.7582075;1;-3;-3;801;4016;-754;16;0.06232687;-0.6603831;-0.3739612;0.6481994;0;9;0;-2515;-1640;2830;2;0.6730661;-0.6274238;-0.3711911;0.1246537;-1;-3;6;2291;3026;783;8;-0.09695291;-0.6883656;0.132964;0.7064513;-14;-17;-2;1221;277;3893;0.7615251;1.650164;1.46945;0.7623088;1.72158;0.9285977;0.7629756;1.782348;0.4529245;0.7632639;1.766453;-0.2807033;0.5054309;1.716578;-0.6059449;0.1629821;1.776547;-0.4671229;-0.04917466;0.9356447;-0.1412342;0;0;0;1.025689;1.72601;-0.6059478;1.313362;1.797404;-0.4671271;1.562024;0.897035;-0.2309531;1.533995;-0.03037322;-0.03881633;0.4496212;1.64004;1.513559;0.6606753;0.2281038;1.19301;0.7275454;0.7714468;2.422902;0.4496212;1.64004;1.513559;0.6606753;0.2281038;1.19301;0.7275454;0.7714468;2.422902
895796.7569;NotLabelled;NONE;16384;-0.1939058;0.4792244;-0.6477969;-0.5595568;-7;23;3;-1302;4174;-723;65536;0.468144;-0.5393595;0.4501385;0.536011;3;21;-1;214;4342;727;8192;0.6024693;-0.5858725;0.2368421;0.4875346;-10;-19;1;1584;4071;-473;32768;0.4653739;-0.5928285;0.4265928;0.5;-1;-14;-9;203;3997;748;256;0.6246537;0.01246537;-0.7808024;0;11;-1;2;-285;38;4111;128;-0.5540166;0.03047091;0.8045065;0.2119114;-4;-1;0;845;1587;-3866;4;-0.1371191;-0.004155125;-0.6371191;-0.7584592;1;-4;-2;727;3988;-726;16;0.06371191;-0.660251;-0.3739612;0.6481994;0;5;0;-2403;-1688;2734;2;0.6728081;-0.6274238;-0.3711911;0.1260388;0;-11;5;2663;3074;723;8;-0.101108;-0.6869806;0.134349;0.7069548;-8;-22;-8;1083;157;3565;0.7615578;1.650372;1.474198;0.7623414;1.721787;0.9333462;0.7630082;1.782556;0.4576731;0.7632924;1.768246;-0.2759871;0.5055323;1.718626;-0.6013256;0.162986;1.7777;-0.4623607;-0.05108963;0.9356;-0.1408521;0;0;0;1.025774;1.728961;-0.6013291;1.313328;1.800552;-0.4623657;1.562102;0.8995221;-0.2288486;1.536963;-0.02790213;-0.0363909;0.449654;1.640248;1.518308;0.6607057;0.2283114;1.197757;0.7232968;0.7701466;2.428539;0.449654;1.640248;1.518308;0.6607057;0.2283114;1.197757;0.7232968;0.7701466;2.428539
895817.9023;NotLabelled;NONE;16384;-0.1966759;0.4833795;-0.6462595;-0.5567867;-4;-1;0;-2144;3630;-219;65536;0.4695291;-0.5422611;0.4501385;0.5318559;9;4;8;242;3684;387;8192;0.6029387;-0.5831025;0.2396122;0.4889196;-10;-11;-2;1572;3643;-305;32768;0.4653739;-0.5906565;0.4279778;0.501385;-1;-18;-9;-131;3887;754;256;0.6246537;0.01108033;-0.7808233;0;8;-4;3;-329;146;4077;128;-0.5540166;0.03185596;0.8040867;0.2132964;-2;-5;-2;809;1719;-3886;4;-0.1357341;-0.004155125;-0.6357341;-0.7598692;1;-5;-3;793;3926;-640;16;0.06371191;-0.6594645;-0.3753462;0.6481994;2;4;0;-2407;-1682;2744;2;0.6720164;-0.6288089;-0.3698061;0.1274238;0;-10;7;3001;3148;783;8;-0.1024931;-0.6855956;0.1357341;0.7078348;1;-19;-12;991;255;3253;0.7657746;1.645799;1.475044;0.7665726;1.718516;0.9343653;0.767252;1.780429;0.4588398;0.7674747;1.769002;-0.2748712;0.5096701;1.720762;-0.6003824;0.167158;1.779427;-0.4611596;-0.0445145;0.9357196;-0.1422846;0;0;0;1.029915;1.730891;-0.6003854;1.317509;1.801822;-0.461164;1.567177;0.9001337;-0.231168;1.546129;-0.02687705;-0.03624356;0.4538695;1.63557;1.51912;0.664324;0.223147;1.200324;0.7320875;0.7625417;2.431904;0.4538695;1.63557;1.51912;0.664324;0.223147;1.200324;0.7320875;0.7625417;2.431904
895837.9547;NotLabelled;NONE;16384;-0.1966759;0.4819945;-0.6472932;-0.5567867;-3;-10;0;-1582;3440;-35;65536;0.4709141;-0.5437678;0.4501385;0.5290859;5;14;7;-142;3384;559;8192;0.6053931;-0.5817174;0.2396122;0.4875346;-5;2;-3;1362;3535;-385;32768;0.4653739;-0.5871041;0.4279778;0.5055401;0;-15;-8;959;3875;888;256;0.6246537;0.009695291;-0.7808405;-0.001385042;7;-5;2;-161;158;3931;128;-0.5540166;0.033241;0.8043968;0.2119114;0;-6;-2;757;1787;-3706;4;-0.134349;-0.004155125;-0.6357341;-0.7601153;2;-6;-3;867;3932;-582;16;0.06509695;-0.6593293;-0.3753462;0.6481994;3;5;-1;-2395;-1602;2854;2;0.670988;-0.6288089;-0.3711911;0.1288089;0;-6;11;2907;3206;857;8;-0.1024931;-0.6828254;0.1398892;0.7097011;15;-17;-18;955;371;3089;0.775944;1.638467;1.475724;0.7767649;1.713288;0.9353324;0.7774643;1.777053;0.4600515;0.7776405;1.766896;-0.2736781;0.5197225;1.719779;-0.5992635;0.1773421;1.778942;-0.4599278;-0.03816987;0.9361726;-0.1411436;0;0;0;1.039989;1.728781;-0.5992662;1.327739;1.798849;-0.4599321;1.580063;0.8965932;-0.2351186;1.561211;-0.03093755;-0.0424571;0.4640372;1.628065;1.519747;0.68019;0.2160772;1.202845;0.7477757;0.7580239;2.433314;0.4640372;1.628065;1.519747;0.68019;0.2160772;1.202845;0.7477757;0.7580239;2.433314
895858.7524;NotLabelled;NONE;16384;-0.1966759;0.4806094;-0.6483222;-0.5567867;-9;-3;3;-1104;3338;-95;65536;0.4722992;-0.5439124;0.4501385;0.5277008;0;18;5;-158;3420;641;8192;0.6059569;-0.5817174;0.2409972;0.4861496;-6;-4;-4;1314;3895;-315;32768;0.4639889;-0.5859938;0.4293629;0.5069252;2;-4;-3;-295;4057;842;256;0.6232687;0.008310249;-0.7819624;-0.001385042;3;-3;1;7;224;3693;128;-0.5540166;0.033241;0.8043968;0.2119114;0;-3;0;657;1607;-3632;4;-0.134349;-0.004155125;-0.6357341;-0.7601153;2;-6;-2;871;4016;-688;16;0.06509695;-0.6593293;-0.3753462;0.6481994;3;4;-2;-2273;-1596;2928;2;0.6699007;-0.6288089;-0.3711911;0.134349;2;-19;11;2913;3082;903;8;-0.09556787;-0.6786703;0.1468144;0.7132453;40;13;-30;1123;447;3377;0.7799245;1.636525;1.479299;0.7807402;1.710851;0.9388396;0.7814353;1.774181;0.4635004;0.7815589;1.76688;-0.2702633;0.523599;1.721141;-0.5960129;0.1812534;1.77991;-0.4564245;-0.03460005;0.9365771;-0.1393653;0;0;0;1.043869;1.729919;-0.596015;1.331659;1.79932;-0.456429;1.58617;0.8965409;-0.2362278;1.575339;-0.03122699;-0.04408813;0.4680178;1.626164;1.523335;0.6847174;0.213701;1.208932;0.7530975;0.7532127;2.440427;0.4680178;1.626164;1.523335;0.6847174;0.213701;1.208932;0.7530975;0.7532127;2.440427
895879.7334;NotLabelled;NONE;16384;-0.1980609;0.4806094;-0.6490882;-0.5554016;-9;11;1;-956;3222;-265;65536;0.4736842;-0.545193;0.4487534;0.5263157;0;14;1;-100;3532;1007;8192;0.6059569;-0.5817174;0.2409972;0.4861496;0;7;0;1348;3693;-871;32768;0.4653739;-0.5836911;0.4293629;0.5083103;6;1;-6;3;3817;812;256;0.6232687;0.006925208;-0.7819759;-0.001385042;2;0;0;215;154;3581;128;-0.5540166;0.03462604;0.8043384;0.2119114;3;0;2;531;1495;-3544;4;-0.1315789;-0.005540166;-0.6357341;-0.7605909;2;-5;-2;873;3932;-680;16;0.06648199;-0.6578262;-0.3753462;0.6495845;2;3;0;-2325;-1712;2980;2;0.6680353;-0.6301939;-0.3711911;0.1371191;1;-5;12;3201;3014;799;8;-0.0900277;-0.6759003;0.1509695;0.7157248;40;5;-32;2213;119;4227;0.7795373;1.634553;1.482716;0.7803528;1.708879;0.942256;0.7810478;1.772208;0.466917;0.7811363;1.766196;-0.2668581;0.5230702;1.721585;-0.5926796;0.1808554;1.780843;-0.4529781;-0.03425993;0.9369522;-0.1369053;0;0;0;1.043358;1.729245;-0.5926825;1.3313;1.797782;-0.4529829;1.584586;0.8936993;-0.2367514;1.574741;-0.03400469;-0.04425335;0.4676307;1.624192;1.526751;0.6832005;0.2117287;1.211573;0.7559999;0.7512406;2.442814;0.4676307;1.624192;1.526751;0.6832005;0.2117287;1.211573;0.7559999;0.7512406;2.442814
895900.7467;NotLabelled;NONE;16384;-0.200831;0.4819945;-0.6483933;-0.5540166;-9;22;0;-1354;3188;-285;65536;0.4736842;-0.545193;0.4487534;0.5263157;-2;2;0;-252;3418;1287;8192;0.6046242;-0.5831025;0.2409972;0.4861496;3;6;-3;1038;3287;-757;32768;0.4653739;-0.5847074;0.4279778;0.5083103;6;4;-7;269;3267;1226;256;0.6232687;0.008310249;-0.7819587;-0.002770083;-2;5;0;-117;116;3611;128;-0.5554016;0.03185596;0.8038613;0.2105263;9;4;3;617;1487;-3548;4;-0.1315789;-0.005540166;-0.634349;-0.7617465;2;-1;-2;1007;3938;-670;16;0.06648199;-0.6578262;-0.3753462;0.6495845;1;2;1;-2365;-1628;3026;2;0.6662021;-0.6301939;-0.3739612;0.1385041;0;3;14;3277;3010;827;8;-0.08725762;-0.6731302;0.1565097;0.7174863;22;-38;-24;3055;-315;5355;0.7823167;1.630525;1.485188;0.783141;1.705657;0.9448398;0.7838436;1.769694;0.4695957;0.7839027;1.764949;-0.2641888;0.5257332;1.72146;-0.5900801;0.1836507;1.781218;-0.4502674;-0.03396848;0.9369671;-0.1368807;0;0;0;1.046036;1.727993;-0.5900832;1.334129;1.795664;-0.4502732;1.587415;0.891582;-0.2340425;1.582151;-0.03675616;-0.04444373;0.4704094;1.620098;1.529203;0.6863898;0.2072506;1.216038;0.7647056;0.7459719;2.447287;0.4704094;1.620098;1.529203;0.6863898;0.2072506;1.216038;0.7647056;0.7459719;2.447287
895921.8994;NotLabelled;NONE;16384;-0.2022161;0.4847645;-0.6470784;-0.5526316;8;-1;-2;-1790;3032;-989;65536;0.468144;-0.5450099;0.4515235;0.5290859;5;-48;0;196;3868;1025;8192;0.6049494;-0.5844875;0.2396122;0.4847645;8;15;-7;860;3061;-751;32768;0.468144;-0.5824919;0.4279778;0.5083103;10;9;-15;5;3047;1138;256;0.6232687;0.009695291;-0.7819428;-0.002770083;-5;5;1;-163;160;3593;128;-0.5554016;0.03047091;0.8042763;0.2091413;12;1;4;745;1531;-3572;4;-0.1315789;-0.005540166;-0.634349;-0.7617465;4;3;-1;1113;3796;-588;16;0.06648199;-0.6578262;-0.3753462;0.6495845;0;1;2;-2337;-1518;3000;2;0.6656606;-0.6288089;-0.3767313;0.1398892;-2;12;15;2773;2918;635;8;-0.09279778;-0.6703601;0.1648199;0.7175238;5;-58;-10;2157;43;4959;0.7838548;1.638832;1.488583;0.7846458;1.710893;0.9478164;0.7853191;1.77223;0.472216;0.7853919;1.767807;-0.2615704;0.5273916;1.723456;-0.5874795;0.18508;1.781821;-0.4476389;-0.03396408;0.9369669;-0.1368823;0;0;0;1.047665;1.732015;-0.5874823;1.335493;1.800746;-0.4476441;1.586177;0.8965538;-0.2288554;1.581397;-0.03134608;-0.0371114;0.4719503;1.628655;1.532676;0.6930734;0.2167451;1.218871;0.7713508;0.7554667;2.450123;0.4719503;1.628655;1.532676;0.6930734;0.2167451;1.218871;0.7713508;0.7554667;2.450123
895942.912;NotLabelled;NONE;16384;-0.199446;0.4861496;-0.6457132;-0.5540166;19;-15;-2;-2060;3098;-971;65536;0.4639889;-0.5386958;0.4584487;0.533241;12;-69;-1;-210;3764;857;8192;0.6047654;-0.5886427;0.2354571;0.4819945;22;7;-5;1584;3421;-921;32768;0.4764543;-0.5812012;0.4238227;0.5055401;20;28;-8;-371;4329;960;256;0.6232687;0.01108033;-0.7819244;-0.002770083;-8;2;1;-329;198;3715;128;-0.5554016;0.02908587;0.8046865;0.2077562;14;-2;4;819;1547;-3496;4;-0.132964;-0.005540166;-0.634349;-0.7615059;5;5;0;1143;3728;-568;16;0.06648199;-0.6599778;-0.3739612;0.6481994;0;-1;2;-2419;-1410;3062;2;0.6653939;-0.6274238;-0.3795014;0.1398892;-3;8;13;2423;2904;951;8;-0.09556787;-0.6689751;0.1689751;0.7174863;12;-21;-2;967;425;3773;0.7887152;1.64419;1.482537;0.7894827;1.714143;0.9414938;0.7901354;1.773627;0.4656582;0.7902413;1.767938;-0.2681197;0.5323481;1.722465;-0.5939589;0.1899064;1.78033;-0.4542291;-0.03081989;0.936213;-0.1426608;0;0;0;1.052602;1.732151;-0.5939617;1.340276;1.801747;-0.4542339;1.589413;0.8975132;-0.2338558;1.588426;-0.03149092;-0.04747474;0.4768125;1.634185;1.526682;0.6979488;0.2222748;1.212888;0.776174;0.7609963;2.444142;0.4768125;1.634185;1.526682;0.6979488;0.2222748;1.212888;0.776174;0.7609963;2.444142
895962.9733;NotLabelled;NONE;16384;-0.1952908;0.4847645;-0.6456419;-0.5567867;25;-28;1;-1990;3638;-469;65536;0.4612188;-0.5318559;0.4639889;0.5376995;15;-45;-2;-160;4770;409;8192;0.6025966;-0.5914127;0.234072;0.4819945;21;10;0;2114;4413;-189;32768;0.4806094;-0.5811912;0.4224377;0.5027701;20;31;-1;-395;4713;550;256;0.6246537;0.01246537;-0.7808012;-0.001385042;-7;1;-1;-139;4;3909;128;-0.5567867;0.02908587;0.8040855;0.2063712;15;-3;4;909;1443;-3650;4;-0.134349;-0.004155125;-0.632964;-0.7624236;5;5;1;1237;3762;-658;16;0.06648199;-0.6599778;-0.3739612;0.6481994;0;-4;0;-2415;-1346;3048;2;0.6658118;-0.6260388;-0.3795014;0.1440443;-9;-12;16;2959;3306;963;8;-0.08448754;-0.6717451;0.1689751;0.7162875;27;49;1;1437;629;3537;0.7865433;1.650029;1.481627;0.7872878;1.717875;0.940316;0.7879201;1.775506;0.4642522;0.7880656;1.768549;-0.2695148;0.5302837;1.721955;-0.5952833;0.1877122;1.779319;-0.4556651;-0.0307836;0.9369231;-0.1379277;0;0;0;1.050515;1.732768;-0.5952858;1.338033;1.803228;-0.4556689;1.582957;0.8995131;-0.2285419;1.589649;-0.03127134;-0.0513885;0.4746426;1.640196;1.525825;0.6952225;0.2287546;1.209538;0.7689026;0.7632736;2.442903;0.4746426;1.640196;1.525825;0.6952225;0.2287546;1.209538;0.7689026;0.7632736;2.442903
895984.7571;NotLabelled;NONE;16384;-0.1911357;0.4819945;-0.6453625;-0.5609418;19;-18;7;-1984;4286;53;65536;0.4598338;-0.5277008;0.466759;0.5405745;12;-25;-6;84;4956;297;8192;0.6023052;-0.5927978;0.2313019;0.4819945;12;15;4;2098;4505;-55;32768;0.4847645;-0.582324;0.4210526;0.4986149;16;32;8;-251;4635;208;256;0.6246537;0.01246537;-0.7808012;-0.001385042;-4;1;-4;-27;-244;4121;128;-0.5567867;0.02631579;0.8048867;0.2036011;13;-2;7;883;1307;-3836;4;-0.1371191;-0.004155125;-0.6315789;-0.7630787;4;8;1;1089;3842;-634;16;0.06648199;-0.6607606;-0.3725762;0.6481994;0;-2;-2;-2497;-1480;3092;2;0.6657168;-0.6246537;-0.3808864;0.1468144;-10;-1;19;3023;3054;655;8;-0.07756232;-0.6731302;0.16759;0.716096;20;36;0;2135;757;3907;0.7811955;1.656346;1.483032;0.781924;1.722732;0.9415403;0.7825422;1.779078;0.4653229;0.7827505;1.769238;-0.268411;0.5250145;1.721257;-0.5940151;0.1824078;1.779027;-0.4546507;-0.03331119;0.9376363;-0.132383;0;0;0;1.045242;1.732285;-0.5940177;1.332719;1.803413;-0.4546561;1.573014;0.9002508;-0.2204971;1.580129;-0.03155696;-0.04882312;0.4692961;1.646633;1.527266;0.6962958;0.2360559;1.211666;0.7655245;0.7705749;2.445288;0.4692961;1.646633;1.527266;0.6962958;0.2360559;1.211666;0.7655245;0.7705749;2.445288
896004.7387;NotLabelled;NONE;16384;-0.1897507;0.4806094;-0.6455988;-0.5623268;9;-4;3;-1802;4818;325;65536;0.4598338;-0.5249307;0.468144;0.5420718;6;-15;-7;-78;4332;341;8192;0.6044655;-0.5927978;0.2285319;0.4806094;2;18;6;1388;4539;-29;32768;0.4875346;-0.583553;0.4210526;0.4944598;10;18;10;1;4315;490;256;0.6260388;0.01385042;-0.7796689;0;0;2;-4;-167;-408;4349;128;-0.5581717;0.02493075;0.8043205;0.2022161;14;-1;9;719;1229;-4018;4;-0.1385041;-0.002770083;-0.6315789;-0.7628348;4;11;1;947;3816;-600;16;0.06648199;-0.6607606;-0.3725762;0.6481994;0;0;-3;-2457;-1492;3006;2;0.6656044;-0.6232687;-0.3822715;0.1495845;-6;3;19;2739;2844;435;8;-0.07479224;-0.6731302;0.1689751;0.7160652;13;6;0;2011;755;3645;0.7716165;1.66459;1.482635;0.7722986;1.726757;0.9406424;0.7728761;1.779392;0.4640004;0.7730844;1.769552;-0.2697335;0.5153484;1.72157;-0.5953372;0.1727418;1.779341;-0.4559729;-0.03612483;0.9379852;-0.1291328;0;0;0;1.035576;1.732599;-0.5953404;1.323053;1.803727;-0.4559785;1.563725;0.9018767;-0.2171952;1.569343;-0.03091288;-0.05088341;0.4597208;1.655221;1.526969;0.6907159;0.2465574;1.205773;0.76019;0.7785192;2.440487;0.4597208;1.655221;1.526969;0.6907159;0.2465574;1.205773;0.76019;0.7785192;2.440487
896024.7551;NotLabelled;NONE;16384;-0.1897507;0.4806094;-0.6443897;-0.5637119;0;-1;1;-1498;4334;5;65536;0.4598338;-0.5235457;0.4695291;0.5422133;4;-15;-5;12;3974;435;8192;0.6060851;-0.5927978;0.2271468;0.4792244;-2;17;7;986;4001;-403;32768;0.4875346;-0.5847238;0.4210526;0.4930748;5;12;7;249;4115;516;256;0.6260388;0.01385042;-0.7796689;0;2;0;-1;-175;-216;4497;128;-0.5595568;0.02216066;0.8048128;0.1966759;11;0;2;769;1197;-4230;4;-0.1398892;-0.002770083;-0.6301939;-0.7637271;4;10;2;877;3850;-546;16;0.06648199;-0.6593991;-0.3725762;0.6495845;0;2;-4;-2351;-1494;2970;2;0.6649902;-0.6218836;-0.3850415;0.1509695;0;4;17;2307;2620;361;8;-0.0734072;-0.6731302;0.1703601;0.7158803;13;-5;-3;1447;643;3285;0.7698774;1.674598;1.490501;0.7705344;1.734491;0.9482522;0.77109;1.785126;0.4713936;0.7714651;1.772401;-0.262296;0.5138206;1.723037;-0.5877651;0.1711598;1.781217;-0.448705;-0.03808823;0.9383187;-0.1261102;0;0;0;1.034043;1.734274;-0.5876971;1.321461;1.806064;-0.4485528;1.56279;0.9039249;-0.2115309;1.563913;-0.02974176;-0.05012333;0.4579837;1.665416;1.534889;0.6903275;0.2566583;1.21508;0.7551582;0.7886205;2.450046;0.4579837;1.665416;1.534889;0.6903275;0.2566583;1.21508;0.7551582;0.7886205;2.450046
896045.8267;NotLabelled;NONE;16384;-0.1897507;0.4792244;-0.6442082;-0.5650969;6;-5;9;-1584;3844;-621;65536;0.4584487;-0.5193906;0.4722992;0.5449694;4;-8;1;-232;4314;535;8192;0.6041465;-0.5941828;0.2257618;0.4806094;2;-5;6;1202;4021;-981;32768;0.4889196;-0.5848977;0.4224377;0.4903047;3;3;1;181;4275;616;256;0.6274238;0.01385042;-0.7785535;-0.001385042;2;0;-1;-205;-170;4393;128;-0.5609418;0.02077562;0.8042227;0.1952908;8;-2;0;877;1287;-4084;4;-0.1412742;-0.001385042;-0.6301939;-0.7634758;3;5;3;907;3816;-476;16;0.06648199;-0.6593991;-0.3725762;0.6495845;0;2;-4;-2379;-1498;2966;2;0.66387;-0.6218836;-0.3864266;0.1523546;2;-8;15;2231;2614;407;8;-0.07202215;-0.6731302;0.1731302;0.7153562;12;-1;-4;1203;633;3291;0.7657915;1.687092;1.488818;0.7663721;1.740002;0.945843;0.7668604;1.784497;0.4683723;0.7671354;1.771771;-0.2653173;0.5094467;1.722407;-0.5907515;0.1668049;1.780587;-0.4516442;-0.03785214;0.9386611;-0.1236118;0;0;0;1.029669;1.733644;-0.590754;1.317106;1.805435;-0.451649;1.560491;0.9043248;-0.2128215;1.559011;-0.02931869;-0.05128169;0.4539043;1.678481;1.533364;0.6907666;0.2711817;1.210467;0.760509;0.8047776;2.44446;0.4539043;1.678481;1.533364;0.6907666;0.2711817;1.210467;0.760509;0.8047776;2.44446
896066.8915;NotLabelled;NONE;16384;-0.1911357;0.4778393;-0.6436108;-0.566482;3;-6;9;-1588;4210;-219;65536;0.4584487;-0.5193906;0.4736842;0.543766;2;-1;1;-78;4304;369;8192;0.6044037;-0.5927978;0.2257618;0.4819945;-3;-15;6;1500;4157;-477;32768;0.4889196;-0.5838948;0.4238227;0.4903047;-2;-8;3;-15;4157;364;256;0.6274238;0.01385042;-0.7785535;-0.001385042;2;0;0;-299;-286;4355;128;-0.5595568;0.02077562;0.8055216;0.1939058;3;-5;-1;887;1209;-4060;4;-0.1426593;-0.002770083;-0.6301939;-0.7632145;4;1;4;963;3826;-544;16;0.06648199;-0.6593991;-0.3725762;0.6495845;1;1;-4;-2353;-1626;2950;2;0.6619267;-0.6232687;-0.3864266;0.1551246;6;-17;14;2459;2606;539;8;-0.07063711;-0.6717451;0.1745152;0.7164589;9;0;-3;1273;597;3483;0.7633373;1.693119;1.498416;0.7638931;1.74375;0.9552239;0.7643595;1.786241;0.4775707;0.7647251;1.77507;-0.256144;0.5071515;1.725955;-0.5817069;0.1643978;1.783255;-0.4425105;-0.04001069;0.9389898;-0.1203888;0;0;0;1.027354;1.73808;-0.5816358;1.314654;1.810067;-0.4423509;1.555367;0.9092366;-0.1997883;1.549626;-0.02518058;-0.04287875;0.451452;1.684695;1.543012;0.6896358;0.2772974;1.221518;0.7548242;0.8108925;2.45576;0.451452;1.684695;1.543012;0.6896358;0.2772974;1.221518;0.7548242;0.8108925;2.45576
896087.7445;NotLabelled;NONE;16384;-0.1911357;0.4764543;-0.643417;-0.567867;-4;-2;3;-1550;4158;-163;65536;0.4584487;-0.5193906;0.4722992;0.5449694;0;10;1;76;4232;463;8192;0.6068348;-0.5886427;0.2271468;0.4833795;-16;-16;14;1502;3979;-217;32768;0.4875346;-0.5828804;0.4252077;0.4916897;-6;-23;7;-357;4115;384;256;0.6274238;0.01523546;-0.7785277;-0.001385042;1;0;1;-355;-354;4215;128;-0.5595568;0.02077562;0.8058538;0.1925208;0;-7;-4;885;1077;-4108;4;-0.1426593;-0.002770083;-0.6288089;-0.764356;5;0;3;939;3936;-540;16;0.06648199;-0.6580318;-0.3725762;0.6509695;0;0;-3;-2219;-1634;2982;2;0.6584514;-0.6260388;-0.3850415;0.1620499;5;-24;8;2393;2592;593;8;-0.07063711;-0.6717451;0.1745152;0.7164589;0;2;0;907;629;3483;0.7617172;1.695996;1.498456;0.7622603;1.745498;0.9551594;0.7627156;1.786995;0.4774187;0.7629765;1.775824;-0.2562961;0.5053564;1.72671;-0.5818225;0.1626226;1.784009;-0.4425767;-0.0370947;0.9393406;-0.1185766;0;0;0;1.025559;1.738835;-0.5818253;1.312879;1.810821;-0.4425812;1.557675;0.9117296;-0.1976657;1.551487;-0.02304482;-0.04292071;0.4498328;1.687665;1.543076;0.6867552;0.2813332;1.216033;0.7521198;0.8149281;2.450267;0.4498328;1.687665;1.543076;0.6867552;0.2813332;1.216033;0.7521198;0.8149281;2.450267
896107.9545;NotLabelled;NONE;16384;-0.1939058;0.4764543;-0.643809;-0.566482;-8;12;2;-1446;4048;-225;65536;0.4598338;-0.5207756;0.4709141;0.5436778;-3;17;0;-70;4120;459;8192;0.6064838;-0.5844875;0.2299169;0.4875346;-23;-32;17;1424;3761;-465;32768;0.4847645;-0.5831634;0.4279778;0.4916897;-6;-27;13;25;4223;596;256;0.6260388;0.01523546;-0.7796419;-0.001385042;1;0;2;-255;-432;4013;128;-0.5595568;0.02216066;0.8058169;0.1925208;-1;-7;-5;811;1005;-3924;4;-0.1440443;-0.002770083;-0.6274238;-0.7652339;7;0;3;829;4010;-584;16;0.06648199;-0.6588141;-0.3711911;0.6509695;0;0;-1;-2171;-1698;3004;2;0.6567361;-0.6288089;-0.3822715;0.1648199;3;-29;0;2429;2500;559;8;-0.06925207;-0.6717451;0.1731302;0.71693;-6;12;2;803;729;3221;0.7559537;1.701929;1.497652;0.7564828;1.750137;0.9542395;0.7569258;1.790496;0.4764017;0.7572426;1.77805;-0.2572926;0.4997431;1.727814;-0.5827432;0.1568806;1.784616;-0.443611;-0.04001971;0.93899;-0.1203851;0;0;0;1.019918;1.741061;-0.5827464;1.307077;1.813909;-0.4436164;1.558902;0.9149843;-0.2053033;1.552807;-0.01972318;-0.05015194;0.4440706;1.693705;1.542301;0.6861231;0.2883657;1.214747;0.7561538;0.8235952;2.448016;0.4440706;1.693705;1.542301;0.6861231;0.2883657;1.214747;0.7561538;0.8235952;2.448016
896128.7594;NotLabelled;NONE;16384;-0.1952908;0.4764543;-0.6446071;-0.5650969;-11;13;1;-1454;3982;-281;65536;0.4612188;-0.5221606;0.4695291;0.5423725;-4;16;1;-208;4132;503;8192;0.6060629;-0.5803324;0.232687;0.4916897;-20;-30;14;1844;3837;-729;32768;0.4806094;-0.5833936;0.4307479;0.4930748;-2;-22;12;3;4007;786;256;0.6260388;0.01523546;-0.7796419;-0.001385042;6;1;2;-105;-362;3859;128;-0.5581717;0.0235457;0.8073937;0.1897507;2;-8;-6;569;947;-3738;4;-0.1440443;-0.002770083;-0.6274238;-0.7652339;8;2;3;659;3968;-644;16;0.06509695;-0.6589524;-0.3711911;0.6509695;0;1;0;-2273;-1708;2950;2;0.6563139;-0.6301939;-0.3795014;0.16759;2;-29;-6;2483;2510;605;8;-0.06925207;-0.6731302;0.1717452;0.7159634;-11;15;2;895;799;3175;0.7565503;1.701559;1.501168;0.7570881;1.750587;0.9578284;0.7575387;1.791668;0.4800519;0.7578551;1.779255;-0.253643;0.5003569;1.729025;-0.5790954;0.1574927;1.785812;-0.4399604;-0.04022516;0.938977;-0.1204171;0;0;0;1.020532;1.742288;-0.5790985;1.307688;1.815139;-0.4399657;1.566668;0.9170444;-0.2062325;1.55613;-0.01744413;-0.05000722;0.4446665;1.693268;1.545799;0.6900988;0.289426;1.214362;0.7647567;0.8220873;2.448472;0.4446665;1.693268;1.545799;0.6900988;0.289426;1.214362;0.7647567;0.8220873;2.448472
896148.9897;NotLabelled;NONE;16384;-0.200831;0.4778393;-0.644302;-0.5623268;-10;14;4;-1732;3566;-281;65536;0.4626039;-0.5249307;0.466759;0.540908;0;11;-2;88;3990;617;8192;0.6070639;-0.5734072;0.2354571;0.4972299;-15;-13;8;1672;3673;-785;32768;0.4764543;-0.5825463;0.434903;0.4944598;2;-18;14;-97;4093;708;256;0.6260388;0.01523546;-0.7796419;-0.001385042;8;0;4;-133;-370;3863;128;-0.5581717;0.0235457;0.807718;0.1883656;0;-8;-8;567;995;-3686;4;-0.1440443;-0.002770083;-0.6260388;-0.7663674;8;2;4;651;3956;-620;16;0.06648199;-0.6580318;-0.3725762;0.6509695;0;5;1;-2343;-1696;2948;2;0.6556823;-0.632964;-0.3753462;0.1689751;0;-28;-13;2593;2558;539;8;-0.06925207;-0.6731302;0.16759;0.7169474;-16;10;1;957;711;3259;0.759315;1.704981;1.503909;0.7598352;1.7524;0.960427;0.7602702;1.792065;0.4825307;0.7605866;1.779652;-0.251164;0.5030884;1.729421;-0.5766164;0.1602242;1.786208;-0.4374815;-0.03998578;0.9389657;-0.1205823;0;0;0;1.023263;1.742685;-0.5766199;1.310419;1.815535;-0.437487;1.575679;0.9183003;-0.2075267;1.560802;-0.01551855;-0.04768777;0.4474326;1.696822;1.548575;0.692865;0.2929802;1.217138;0.7667972;0.8280741;2.450238;0.4474326;1.696822;1.548575;0.692865;0.2929802;1.217138;0.7667972;0.8280741;2.450238
896189.7491;NotLabelled;NONE;16384;-0.2049861;0.4792244;-0.6443764;-0.5595568;-10;7;-2;-1478;3624;-143;65536;0.4653739;-0.5263157;0.4653739;0.5383734;0;11;-6;10;3932;431;8192;0.6100475;-0.567867;0.2382271;0.4986149;-18;0;5;1362;3769;-885;32768;0.4736842;-0.5818164;0.4404432;0.4930748;7;-10;10;135;3923;866;256;0.6246537;0.01385042;-0.780768;-0.004155125;10;1;9;-75;-76;3597;128;-0.5554016;0.02631579;0.8101795;0.1855956;3;-8;-10;509;1181;-3714;4;-0.1440443;-0.004155125;-0.6246537;-0.7674905;9;-8;6;869;3856;-800;16;0.06786703;-0.6584733;-0.3739612;0.6495845;1;12;0;-2413;-1538;2992;2;0.6577037;-0.6357341;-0.367036;0.1689751;0;-16;-21;2567;2646;357;8;-0.07202215;-0.6731302;0.1634349;0.7176334;-20;-6;-4;1223;433;3875;0.7626917;1.708851;1.508438;0.7631977;1.754975;0.9648446;0.7636204;1.793504;0.4868556;0.7639368;1.781091;-0.2468392;0.5064386;1.730862;-0.5722916;0.1635744;1.787648;-0.4331569;-0.03997548;0.9386225;-0.1232336;0;0;0;1.026613;1.744125;-0.5722946;1.31377;1.816975;-0.4331622;1.590759;0.9215732;-0.2099863;1.571136;-0.0119108;-0.04871249;0.4508105;1.700797;1.553131;0.7013276;0.2979803;1.221159;0.7757429;0.8332098;2.454172;0.4508105;1.700797;1.553131;0.7013276;0.2979803;1.221159;0.7757429;0.8332098;2.454172
896210.7457;NotLabelled;NONE;16384;-0.2063712;0.4806094;-0.6453015;-0.5567867;-11;9;0;-1466;3764;-197;65536;0.466759;-0.5263157;0.4626039;0.5395604;-1;13;-7;54;4024;499;8192;0.6113339;-0.566482;0.2382271;0.4986149;-12;9;0;1330;3581;-1155;32768;0.4736842;-0.5807654;0.4418283;0.4930748;12;0;6;275;3991;848;256;0.6232687;0.01246537;-0.7818888;-0.005540166;9;0;10;-107;2;3911;128;-0.5540166;0.02770083;0.81171;0.1828255;5;-7;-10;613;1299;-3782;4;-0.1440443;-0.006925208;-0.6218836;-0.7697169;8;-7;9;971;3876;-826;16;0.07063711;-0.657393;-0.3753462;0.6495845;2;11;-1;-2383;-1526;2964;2;0.6575025;-0.6398892;-0.3601108;0.1689751;1;-26;-18;2837;2828;649;8;-0.08033241;-0.6689751;0.1620499;0.7209431;-17;-28;-15;1509;103;4555;0.7659793;1.706558;1.515361;0.7664783;1.752032;0.9717125;0.7668948;1.789988;0.4936776;0.7671077;1.782052;-0.2400795;0.5096231;1.733467;-0.5657926;0.1667066;1.788947;-0.4262601;-0.03960541;0.9389448;-0.1208753;0;0;0;1.02978;1.747421;-0.5657954;1.316862;1.819803;-0.426265;1.602268;0.9242949;-0.2144065;1.574763;-0.009511828;-0.05618203;0.4540987;1.698559;1.560067;0.7077677;0.2973787;1.223606;0.7824205;0.8311062;2.457255;0.4540987;1.698559;1.560067;0.7077677;0.2973787;1.223606;0.7824205;0.8311062;2.457255
896231.7533;NotLabelled;NONE;16384;-0.2077562;0.4806094;-0.6460503;-0.5554016;-13;12;-1;-1542;3760;-111;65536;0.468144;-0.5263157;0.4612188;0.5395462;-2;15;-7;-50;4018;559;8192;0.6124609;-0.566482;0.2382271;0.4972299;-6;12;-4;1376;3799;-947;32768;0.4750692;-0.5809239;0.4432133;0.4903047;14;3;2;401;4035;724;256;0.6218836;0.01246537;-0.7829908;-0.005540166;9;0;11;-105;-12;4049;128;-0.5526316;0.02770083;0.812964;0.1814404;6;-6;-11;673;1301;-3938;4;-0.1440443;-0.009695291;-0.6204986;-0.7708039;7;-11;10;971;3906;-810;16;0.07202215;-0.6572427;-0.3753462;0.6495845;1;8;-1;-2397;-1584;2894;2;0.6578394;-0.6426592;-0.3531856;0.1717452;-1;-32;-6;3255;3192;553;8;-0.08448754;-0.666205;0.1634349;0.7227184;-13;-33;-18;1535;103;4567;0.7644812;1.704746;1.515568;0.7649623;1.748591;0.9717857;0.7653632;1.785116;0.4936392;0.765497;1.780071;-0.2401435;0.5079585;1.732877;-0.5660182;0.1650796;1.787952;-0.4262328;-0.04532867;0.9385408;-0.121998;0;0;0;1.028121;1.746613;-0.566021;1.315248;1.818324;-0.4262367;1.603965;0.9230305;-0.2179886;1.576537;-0.01112759;-0.06183505;0.4526021;1.69688;1.560308;0.7136794;0.2990377;1.21573;0.7940602;0.8304828;2.450004;0.4526021;1.69688;1.560308;0.7136794;0.2990377;1.21573;0.7940602;0.8304828;2.450004
896272.9174;NotLabelled;NONE;16384;-0.2132964;0.4833795;-0.6457369;-0.5512465;-12;16;0;-1586;3788;-439;65536;0.4709141;-0.5277008;0.4584487;0.5381417;0;14;-6;-130;4106;571;8192;0.6124609;-0.566482;0.2382271;0.4972299;-7;5;-5;1302;3825;-631;32768;0.4764543;-0.5798976;0.4445983;0.4889196;16;0;1;49;4117;628;256;0.6204986;0.009695291;-0.7841036;-0.008310249;5;0;11;-87;2;4317;128;-0.5498615;0.03047091;0.8153532;0.1786704;2;-11;-10;609;1353;-4260;4;-0.1440443;-0.01108033;-0.6191136;-0.7718982;9;-11;10;895;3994;-834;16;0.0734072;-0.6562964;-0.3767313;0.6495845;2;7;-1;-2377;-1606;2836;2;0.6572369;-0.6440443;-0.3504155;0.1745152;0;-21;0;3439;3398;525;8;-0.08864266;-0.6620498;0.166205;0.7254022;-8;-30;-20;1623;169;4377;0.7631338;1.707185;1.518415;0.7636021;1.749874;0.9745411;0.7639915;1.785383;0.4963182;0.7641242;1.780372;-0.2374647;0.5065858;1.73319;-0.5633415;0.1637066;1.788255;-0.4235525;-0.04812246;0.9384935;-0.1212876;0;0;0;1.026748;1.746933;-0.5633442;1.313874;1.818641;-0.4235573;1.602837;0.9227419;-0.2182758;1.572158;-0.0120517;-0.0665915;0.4512557;1.699414;1.56318;0.7145978;0.3038852;1.21103;0.8001244;0.8329074;2.445999;0.4512557;1.699414;1.56318;0.7145978;0.3038852;1.21103;0.8001244;0.8329074;2.445999
896294.9779;NotLabelled;NONE;16384;-0.2146814;0.4847645;-0.6454205;-0.5498615;-13;17;0;-1758;3774;-369;65536;0.4736842;-0.5290859;0.4570637;0.5355223;0;16;-5;-206;4166;629;8192;0.6150505;-0.5637119;0.2409972;0.4958449;-11;3;-1;1450;3821;-283;32768;0.4778393;-0.5777898;0.4473684;0.4875346;15;-2;2;35;4071;538;256;0.6191136;0.009695291;-0.7851976;-0.008310249;0;-1;9;-169;38;4319;128;-0.5484765;0.03047091;0.8165874;0.1772853;3;-7;-9;673;1369;-4396;4;-0.1440443;-0.01246537;-0.6177285;-0.7729859;9;-10;10;915;4062;-936;16;0.07479224;-0.65614;-0.3767313;0.6495845;4;6;-1;-2351;-1622;2858;2;0.6558723;-0.6454294;-0.3490305;0.1772853;-2;-15;4;3621;3460;597;8;-0.09141274;-0.6592798;0.1689751;0.7269397;-4;-24;-20;1763;359;4359;0.7655491;1.701439;1.524368;0.7660098;1.743433;0.98044;0.7663925;1.778328;0.5021718;0.7663736;1.779062;-0.2316277;0.5087276;1.734665;-0.5578103;0.1659259;1.788938;-0.4175237;-0.05058517;0.9384401;-0.1206978;0;0;0;1.028902;1.747941;-0.5578136;1.31612;1.818296;-0.417529;1.605832;0.9223974;-0.2133057;1.574514;-0.01311481;-0.06625283;0.4536716;1.693726;1.569147;0.7199398;0.2999229;1.212395;0.8105143;0.8291037;2.446936;0.4536716;1.693726;1.569147;0.7199398;0.2999229;1.212395;0.8105143;0.8291037;2.446936
896316.7453;NotLabelled;NONE;16384;-0.2202216;0.4861496;-0.6448659;-0.5470914;-12;8;5;-1624;3884;-611;65536;0.4750692;-0.5290859;0.4542936;0.5366514;3;7;-1;-154;4166;657;8192;0.6183773;-0.5637119;0.2409972;0.4916897;-5;21;-5;1182;3877;-793;32768;0.4819945;-0.575591;0.4487534;0.4847645;16;7;-3;353;4091;472;256;0.6177285;0.009695291;-0.7862877;-0.008310249;-5;0;5;-89;20;4381;128;-0.5470914;0.03047091;0.8181118;0.1745152;10;0;-7;707;1425;-4392;4;-0.1440443;-0.01800554;-0.6135734;-0.7761796;3;-6;8;983;4112;-1056;16;0.07617728;-0.6546062;-0.3767313;0.6509695;7;5;-1;-2433;-1756;2842;2;0.6564791;-0.6440443;-0.3490305;0.1800554;-7;3;2;3371;3312;695;8;-0.09418282;-0.6551247;0.1745152;0.7290307;10;7;-6;1771;667;3785;0.7669907;1.703735;1.527072;0.7674387;1.744562;0.9830551;0.7678103;1.778431;0.5047133;0.7677902;1.779198;-0.2290861;0.5101436;1.734814;-0.5552704;0.1673423;1.789083;-0.4149803;-0.05009555;0.9387727;-0.1182937;0;0;0;1.030318;1.74809;-0.5552739;1.317537;1.818438;-0.4149867;1.609361;0.9209502;-0.2210058;1.576839;-0.01556802;-0.08077681;0.4551142;1.696118;1.571875;0.7243;0.3040605;1.210524;0.8200344;0.8308251;2.445709;0.4551142;1.696118;1.571875;0.7243;0.3040605;1.210524;0.8200344;0.8308251;2.445709
896337.7437;NotLabelled;NONE;16384;-0.2216066;0.4861496;-0.6455646;-0.5457063;-10;7;8;-1778;3738;-543;65536;0.4764543;-0.5290859;0.4542936;0.535422;5;2;0;-32;4024;547;8192;0.6193088;-0.5650969;0.2409972;0.4889196;-3;15;-9;1192;4013;-733;32768;0.4833795;-0.5755944;0.4487534;0.4833795;15;5;-6;269;4199;422;256;0.6163435;0.01108033;-0.787369;-0.006925208;-8;0;4;-41;-48;4441;128;-0.5470914;0.03047091;0.8181118;0.1745152;9;2;-5;651;1323;-4468;4;-0.1440443;-0.01800554;-0.6135734;-0.7761796;0;-3;6;1007;4096;-1084;16;0.07756232;-0.6544435;-0.3767313;0.6509695;6;6;-1;-2445;-1808;2880;2;0.6582125;-0.6426592;-0.3490305;0.1786704;-5;10;0;3233;3250;699;8;-0.0900277;-0.6551247;0.1745152;0.7295554;14;24;0;1727;657;3985;0.7622561;1.710855;1.535864;0.7626768;1.749214;0.9916667;0.7630247;1.780914;0.5131761;0.7631255;1.781714;-0.2206234;0.5055326;1.737346;-0.5468521;0.1627081;1.791608;-0.4066165;-0.05571506;0.9383214;-0.1193507;0;0;0;1.025707;1.75062;-0.5467691;1.312903;1.820963;-0.4064312;1.604509;0.9209177;-0.2243307;1.572514;-0.017066;-0.09413505;0.4503818;1.703441;1.580716;0.7298291;0.3173835;1.2044;0.835248;0.8434207;2.439106;0.4503818;1.703441;1.580716;0.7298291;0.3173835;1.2044;0.835248;0.8434207;2.439106
896378.7442;NotLabelled;NONE;16384;-0.2271468;0.4833795;-0.6457191;-0.5457063;-10;3;13;-1502;3924;-175;65536;0.4778393;-0.5290859;0.4542936;0.5341863;5;10;0;-62;4064;543;8192;0.6218466;-0.566482;0.2423823;0.4833795;-4;21;-8;1402;4005;-561;32768;0.4916897;-0.5696867;0.4487534;0.4819945;16;11;-12;247;4223;368;256;0.6163435;0.01523546;-0.7873288;-0.001385042;-19;0;0;-253;-4;4199;128;-0.5457063;0.02493075;0.8195176;0.1731302;11;12;4;879;1373;-4160;4;-0.1426593;-0.02077562;-0.6135734;-0.7763662;-5;-3;3;1189;4258;-1102;16;0.07756232;-0.6509695;-0.3767313;0.6544435;3;1;1;-2203;-1802;3016;2;0.6592012;-0.6412742;-0.3504155;0.1772853;-3;11;0;3251;3078;535;8;-0.07894737;-0.6578947;0.1717452;0.7290031;21;46;7;2023;509;3889;0.764754;1.713996;1.537172;0.765175;1.752355;0.9929758;0.7655228;1.784056;0.5144853;0.7655752;1.782036;-0.2193117;0.5079818;1.736293;-0.54535;0.1651409;1.790932;-0.4053008;-0.05556487;0.9386523;-0.1167932;0;0;0;1.02815;1.749813;-0.5453534;1.315322;1.820828;-0.4053062;1.603547;0.920233;-0.2205676;1.571373;-0.01808655;-0.09286177;0.45288;1.706583;1.582025;0.7309588;0.3205254;1.204697;0.8416852;0.8441548;2.439962;0.45288;1.706583;1.582025;0.7309588;0.3205254;1.204697;0.8416852;0.8441548;2.439962
896419.7529;NotLabelled;NONE;16384;-0.2299169;0.4819945;-0.646942;-0.5443213;-16;7;13;-1686;4018;-83;65536;0.4806094;-0.5316954;0.4542936;0.5290859;5;16;-4;56;4016;495;8192;0.6230702;-0.5692521;0.2409972;0.4792244;-5;28;-12;958;4089;-773;32768;0.4958449;-0.5683432;0.4473684;0.4806094;15;15;-16;95;4047;326;256;0.6163435;0.01800554;-0.7872716;0;-22;0;-1;-213;-12;4095;128;-0.5457063;0.02077562;0.8196334;0.1731302;16;21;8;865;1385;-4242;4;-0.1426593;-0.02216066;-0.6149584;-0.7752312;-10;1;2;1187;4370;-1256;16;0.07894737;-0.6509695;-0.3767313;0.6542779;3;1;2;-2223;-1636;2848;2;0.6601798;-0.6398892;-0.3518005;0.1759003;7;11;-1;3041;2850;431;8;-0.07202215;-0.6606648;0.1703601;0.7275385;22;43;8;2113;765;3611;0.7629963;1.739145;1.550646;0.7633691;1.773102;1.006157;0.7636747;1.800933;0.5274257;0.7639886;1.788752;-0.2062727;0.5064985;1.738572;-0.5317392;0.1636234;1.795243;-0.3925841;-0.05495522;0.9389775;-0.1144449;0;0;0;1.02667;1.751942;-0.531742;1.313812;1.824809;-0.392588;1.59597;0.9210367;-0.2141007;1.572863;-0.01966488;-0.1030434;0.4511261;1.732094;1.595584;0.7280709;0.3467855;1.21469;0.8503686;0.8746653;2.447052;0.4511261;1.732094;1.595584;0.7280709;0.3467855;1.21469;0.8503686;0.8746653;2.447052
896439.7501;NotLabelled;NONE;16384;-0.234072;0.4819945;-0.6466157;-0.5429363;-20;13;10;-1672;3548;-247;65536;0.4833795;-0.5329189;0.4515235;0.5277008;7;28;-10;-64;3958;567;8192;0.6239271;-0.5706371;0.2409972;0.4764543;-6;19;-15;818;3853;-1231;32768;0.4986149;-0.5681778;0.4459834;0.4792244;18;16;-17;309;4149;458;256;0.6163435;0.02077562;-0.7871985;0.002770083;-29;9;-2;-111;-98;4265;128;-0.5457063;0.01523546;0.8197551;0.1731302;16;26;11;997;1475;-4486;4;-0.1426593;-0.02216066;-0.6177285;-0.7730257;-19;0;-4;1189;4554;-1216;16;0.07894737;-0.6523545;-0.3753462;0.6536942;5;4;4;-2401;-1930;2944;2;0.6584616;-0.6412742;-0.3531856;0.1745152;14;8;-2;2887;3022;693;8;-0.06648199;-0.6634349;0.1703601;0.7255424;25;29;9;2017;1047;3437;0.7711595;1.752664;1.560597;0.7715056;1.784205;1.015962;0.7717876;1.809909;0.5371122;0.7722496;1.793622;-0.1965072;0.5149449;1.740938;-0.5217243;0.1718988;1.797477;-0.3829371;-0.04867158;0.9397403;-0.1109719;0;0;0;1.035079;1.755689;-0.5217273;1.322006;1.830095;-0.3829424;1.599284;0.9248701;-0.2041681;1.580066;-0.01661551;-0.09917963;0.4592916;1.745814;1.605581;0.7304229;0.3599783;1.222425;0.8527771;0.8852621;2.455889;0.4592916;1.745814;1.605581;0.7304229;0.3599783;1.222425;0.8527771;0.8852621;2.455889
896460.7357;NotLabelled;NONE;16384;-0.2382271;0.4819945;-0.6485708;-0.5387812;-26;20;4;-1714;3448;-95;65536;0.4875346;-0.5342079;0.4487534;0.5249307;8;40;-13;-148;4122;419;8192;0.6236918;-0.5720221;0.2437673;0.4736842;-10;-3;-14;1186;3921;-891;32768;0.5027701;-0.5655958;0.4445983;0.4792244;20;12;-20;247;4325;622;256;0.6177285;0.02493075;-0.7859766;0.005540166;-38;16;-3;-81;-40;4261;128;-0.5470914;0.01108033;0.8188981;0.1731302;10;17;14;949;1381;-4282;4;-0.1426593;-0.02077562;-0.6204986;-0.7708426;-23;2;-6;781;4892;-1030;16;0.08033241;-0.6523545;-0.3753462;0.6535254;6;5;6;-2479;-2132;2928;2;0.6562277;-0.6454294;-0.3518005;0.1703601;20;-22;-14;2573;3556;991;8;-0.0567867;-0.66759;0.1745152;0.7215561;34;25;17;1177;1029;4017;0.7695553;1.768115;1.567598;0.7698658;1.796434;1.022787;0.7701166;1.819307;0.543793;0.7707609;1.797314;-0.189677;0.51358;1.741859;-0.5145317;0.1704492;1.799152;-0.3762643;-0.0508631;0.93969;-0.1104162;0;0;0;1.033701;1.7571;-0.5145345;1.320525;1.832855;-0.3762695;1.594287;0.9263004;-0.1988233;1.577028;-0.01558042;-0.09708905;0.4576902;1.76153;1.612643;0.7189595;0.3733975;1.230954;0.8393219;0.895357;2.466024;0.4576902;1.76153;1.612643;0.7189595;0.3733975;1.230954;0.8393219;0.895357;2.466024
896481.8934;NotLabelled;NONE;16384;-0.2465374;0.4847645;-0.6502486;-0.5304709;-33;29;-7;-1116;3976;-247;65536;0.4944598;-0.535182;0.4432133;0.5221606;8;16;-7;-228;4196;513;8192;0.622602;-0.5720221;0.2465374;0.4736842;-10;-12;-13;1478;4031;-499;32768;0.5069252;-0.564144;0.4432133;0.4778393;21;21;-20;-115;4097;348;256;0.6177285;0.03185596;-0.785702;0.008310249;-42;26;-3;-45;64;4009;128;-0.5484765;0.004155125;0.8180356;0.1731302;27;45;23;957;1427;-4234;4;-0.1426593;-0.02077562;-0.6232687;-0.7686045;-20;6;-8;275;5474;-800;16;0.08171745;-0.6539377;-0.3767313;0.6509695;8;14;7;-2637;-2494;3012;2;0.6557115;-0.6481994;-0.3476454;0.1703601;9;-28;-17;3351;3314;1047;8;-0.04847645;-0.6703601;0.1745152;0.7195914;35;39;17;499;539;4465;0.7760805;1.784501;1.579548;0.776363;1.810256;1.034609;0.7765893;1.830873;0.555513;0.7775276;1.801882;-0.1777133;0.5206175;1.742542;-0.5020956;0.1772708;1.800104;-0.3644776;-0.05190004;0.9399519;-0.1076726;0;0;0;1.040689;1.759371;-0.5020987;1.327238;1.837317;-0.3644825;1.593646;0.9280982;-0.1894917;1.582584;-0.01453865;-0.09409201;0.4642178;1.778129;1.624639;0.7178813;0.3871164;1.248343;0.8336991;0.9064724;2.484945;0.4642178;1.778129;1.624639;0.7178813;0.3871164;1.248343;0.8336991;0.9064724;2.484945
896501.7502;NotLabelled;NONE;16384;-0.2506925;0.4875346;-0.6499654;-0.5263157;-19;23;0;-1354;4000;57;65536;0.4972299;-0.5339636;0.4432133;0.5207756;4;8;0;-366;4204;353;8192;0.6241853;-0.567867;0.2520775;0.4736842;-7;-13;-8;1346;3917;1539;32768;0.5138504;-0.5601222;0.4418283;0.4764543;3;0;-9;-329;3955;-186;256;0.6191136;0.04432133;-0.7839714;0.01108033;-31;15;-6;-947;114;3889;128;-0.5526316;-0.01523546;0.8148072;0.1745152;40;42;21;1277;1507;-3438;4;-0.1426593;-0.01939058;-0.6260388;-0.7663862;-19;4;-11;59;5702;-590;16;0.08587258;-0.653405;-0.3767313;0.6509695;20;18;4;-2953;-3276;3144;2;0.6544288;-0.6509695;-0.3448753;0.1703601;5;-17;-9;3803;3080;427;8;-0.0401662;-0.6731302;0.1745152;0.7175144;35;47;8;257;429;4721;0.7816402;1.811035;1.604162;0.7818767;1.832595;1.059042;0.7820625;1.849524;0.5798008;0.7838808;1.811062;-0.1529883;0.5277135;1.74562;-0.4767837;0.1838233;1.802396;-0.3401999;-0.05836558;0.9400383;-0.1035298;0;0;0;1.047645;1.766325;-0.4765831;1.333481;1.848177;-0.3397552;1.596266;0.9363197;-0.1732169;1.589217;-0.006955743;-0.08393562;0.4697812;1.805009;1.649327;0.7138319;0.4118299;1.274694;0.8201036;0.92825;2.513381;0.4697812;1.805009;1.649327;0.7138319;0.4118299;1.274694;0.8201036;0.92825;2.513381
896522.7453;NotLabelled;NONE;16384;-0.2534626;0.4875346;-0.6500111;-0.5249307;-13;5;4;-1128;4504;317;65536;0.4972299;-0.5339636;0.4432133;0.5207756;0;7;4;-256;4208;259;8192;0.6243189;-0.566482;0.2548476;0.4736842;-14;-13;-4;1280;4165;1709;32768;0.5138504;-0.5589411;0.4418283;0.4778393;-7;-18;-2;-247;3973;-72;256;0.6191136;0.04847645;-0.7837047;0.01246537;-31;4;-9;-1105;192;4005;128;-0.5526316;-0.02077562;0.8146847;0.1745152;26;11;12;1523;1771;-3186;4;-0.1412742;-0.01800554;-0.6288089;-0.7644061;-18;3;-19;665;5426;-382;16;0.08725762;-0.6495845;-0.3711911;0.6577562;54;-58;-32;1577;-3076;4790;2;0.6537778;-0.6523545;-0.3434903;0.1703601;4;-5;2;3085;3228;247;8;-0.03185596;-0.6745152;0.1731302;0.7169661;35;33;-3;781;845;4499;0.7857579;1.857215;1.607616;0.785878;1.868181;1.062179;0.7859614;1.875797;0.5827;0.7889228;1.822778;-0.1491759;0.534068;1.746807;-0.4717056;0.1892156;1.800784;-0.3364191;-0.05912496;0.9405371;-0.09844585;0;0;0;1.053602;1.775827;-0.4717089;1.337994;1.864953;-0.3364249;1.601504;0.9525591;-0.174024;1.602415;0.00821054;-0.0966053;0.4739085;1.852069;1.652956;0.7105762;0.4561445;1.283844;0.8133471;0.9653713;2.5258;0.4739085;1.852069;1.652956;0.7105762;0.4561445;1.283844;0.8133471;0.9653713;2.5258
896543.7516;NotLabelled;NONE;16384;-0.2562327;0.4875346;-0.6500421;-0.5235457;-16;9;7;-970;4268;263;65536;0.4972299;-0.5364547;0.4418283;0.5193906;-1;7;6;-316;4288;467;8192;0.6240639;-0.5637119;0.2590028;0.4750692;-19;-22;-1;1488;3865;845;32768;0.5124654;-0.5567368;0.4432133;0.4806094;-10;-22;1;-295;4115;304;256;0.6204986;0.05263158;-0.7822911;0.01523546;-32;-6;-12;-1025;342;4063;128;-0.5554016;-0.02216066;0.813352;0.1717452;22;-18;10;1561;2047;-3856;4;-0.1385041;-0.01385042;-0.632964;-0.7615651;-27;1;-35;139;4700;-242;16;0.07756232;-0.6537396;-0.3573407;0.6625075;26;-117;-14;-3199;-4660;3594;2;0.6509695;-0.6547952;-0.3434903;0.1717452;5;-13;3;2581;3598;317;8;-0.02770083;-0.6745152;0.1772853;0.7161227;38;-17;-13;1479;1377;4377;0.786669;1.873829;1.612191;0.7867531;1.881535;1.066698;0.7868049;1.886286;0.587182;0.7903464;1.827903;-0.1442832;0.5360018;1.748345;-0.4663505;0.1908349;1.801665;-0.3316061;-0.05905315;0.9405365;-0.09848891;0;0;0;1.055391;1.779849;-0.4663531;1.339293;1.871326;-0.3316107;1.601806;0.9579096;-0.1733984;1.605191;0.01355267;-0.09616351;0.4748226;1.868954;1.657581;0.7030598;0.4698095;1.295418;0.8300412;0.9745703;2.536958;0.4748226;1.868954;1.657581;0.7030598;0.4698095;1.295418;0.8300412;0.9745703;2.536958
