SEP=;
index;label;segment;RightUpperArm_boneIndex;RightUpperArm_quat9x_w;RightUpperArm_quat9x_x;RightUpperArm_quat9x_y;RightUpperArm_quat9x_z;RightUpperArm_gyroscope_x;RightUpperArm_gyroscope_y;RightUpperArm_gyroscope_z;RightUpperArm_accelerometer_x;RightUpperArm_accelerometer_y;RightUpperArm_accelerometer_z;RightLowerArm_boneIndex;RightLowerArm_quat9x_w;RightLowerArm_quat9x_x;RightLowerArm_quat9x_y;RightLowerArm_quat9x_z;RightLowerArm_gyroscope_x;RightLowerArm_gyroscope_y;RightLowerArm_gyroscope_z;RightLowerArm_accelerometer_x;RightLowerArm_accelerometer_y;RightLowerArm_accelerometer_z;LeftUpperArm_boneIndex;LeftUpperArm_quat9x_w;LeftUpperArm_quat9x_x;LeftUpperArm_quat9x_y;LeftUpperArm_quat9x_z;LeftUpperArm_gyroscope_x;LeftUpperArm_gyroscope_y;LeftUpperArm_gyroscope_z;LeftUpperArm_accelerometer_x;LeftUpperArm_accelerometer_y;LeftUpperArm_accelerometer_z;LeftLowerArm_boneIndex;LeftLowerArm_quat9x_w;LeftLowerArm_quat9x_x;LeftLowerArm_quat9x_y;LeftLowerArm_quat9x_z;LeftLowerArm_gyroscope_x;LeftLowerArm_gyroscope_y;LeftLowerArm_gyroscope_z;LeftLowerArm_accelerometer_x;LeftLowerArm_accelerometer_y;LeftLowerArm_accelerometer_z;Chest_boneIndex;Chest_quat9x_w;Chest_quat9x_x;Chest_quat9x_y;Chest_quat9x_z;Chest_gyroscope_x;Chest_gyroscope_y;Chest_gyroscope_z;Chest_accelerometer_x;Chest_accelerometer_y;Chest_accelerometer_z;Spine_boneIndex;Spine_quat9x_w;Spine_quat9x_x;Spine_quat9x_y;Spine_quat9x_z;Spine_gyroscope_x;Spine_gyroscope_y;Spine_gyroscope_z;Spine_accelerometer_x;Spine_accelerometer_y;Spine_accelerometer_z;RightUpperLeg_boneIndex;RightUpperLeg_quat9x_w;RightUpperLeg_quat9x_x;RightUpperLeg_quat9x_y;RightUpperLeg_quat9x_z;RightUpperLeg_gyroscope_x;RightUpperLeg_gyroscope_y;RightUpperLeg_gyroscope_z;RightUpperLeg_accelerometer_x;RightUpperLeg_accelerometer_y;RightUpperLeg_accelerometer_z;RightLowerLeg_boneIndex;RightLowerLeg_quat9x_w;RightLowerLeg_quat9x_x;RightLowerLeg_quat9x_y;RightLowerLeg_quat9x_z;RightLowerLeg_gyroscope_x;RightLowerLeg_gyroscope_y;RightLowerLeg_gyroscope_z;RightLowerLeg_accelerometer_x;RightLowerLeg_accelerometer_y;RightLowerLeg_accelerometer_z;LeftUpperLeg_boneIndex;LeftUpperLeg_quat9x_w;LeftUpperLeg_quat9x_x;LeftUpperLeg_quat9x_y;LeftUpperLeg_quat9x_z;LeftUpperLeg_gyroscope_x;LeftUpperLeg_gyroscope_y;LeftUpperLeg_gyroscope_z;LeftUpperLeg_accelerometer_x;LeftUpperLeg_accelerometer_y;LeftUpperLeg_accelerometer_z;LeftLowerLeg_boneIndex;LeftLowerLeg_quat9x_w;LeftLowerLeg_quat9x_x;LeftLowerLeg_quat9x_y;LeftLowerLeg_quat9x_z;LeftLowerLeg_gyroscope_x;LeftLowerLeg_gyroscope_y;LeftLowerLeg_gyroscope_z;LeftLowerLeg_accelerometer_x;LeftLowerLeg_accelerometer_y;LeftLowerLeg_accelerometer_z;pelvis_x;pelvis_y;pelvis_z;lowerSpine_x;lowerSpine_y;lowerSpine_z;middleSpine_x;middleSpine_y;middleSpine_z;upperSpine_x;upperSpine_y;upperSpine_z;rightClavicle_x;rightClavicle_y;rightClavicle_z;rightShoulder_x;rightShoulder_y;rightShoulder_z;rightElbow_x;rightElbow_y;rightElbow_z;rightWrist_x;rightWrist_y;rightWrist_z;leftClavicle_x;leftClavicle_y;leftClavicle_z;leftShoulder_x;leftShoulder_y;leftShoulder_z;leftElbow_x;leftElbow_y;leftElbow_z;leftWrist_x;leftWrist_y;leftWrist_z;rightHip_x;rightHip_y;rightHip_z;rightKnee_x;rightKnee_y;rightKnee_z;rightAnkle_x;rightAnkle_y;rightAnkle_z;leftHip_x;leftHip_y;leftHip_z;leftKnee_x;leftKnee_y;leftKnee_z;leftAnkle_x;leftAnkle_y;leftAnkle_z;
505874.7099;NotLabelled;NONE;16384;-0.1080332;0.0401662;-0.823556;-0.5554016;0;0;-4;194;3730;1489;65536;0.301939;-0.1204986;0.8168869;0.4764543;-1;-1;2;-385;3512;-2165;8192;0.8184682;-0.5734072;0.03601108;0.004155125;0;-2;1;-122;3771;1387;32768;0.8044433;-0.4986149;0.2839335;0.1537396;0;-2;0;193;3603;-1872;256;0.4764543;-0.5152354;-0.4736842;-0.5321156;-3;-2;0;-141;4064;-369;128;0.3961219;-0.5760491;-0.4570637;-0.5498615;1;-2;0;-345;3973;1060;4;-0.04570637;0.01246537;-0.7171654;-0.6952909;0;-3;0;249;4030;176;16;0.4972299;-0.6451544;0.3961219;0.4238227;1;0;0;407;3994;756;2;0.7099888;-0.700831;0.06371191;-0.02631579;0;0;0;-569;4024;9;8;0.4238227;-0.4404432;0.5138504;0.6019484;0;0;0;-213;4069;519;0.549485;2.818544;-0.1305628;0.5554703;3.363994;-0.1222329;0.5607318;3.843475;-0.1169333;0.5469;4.573667;-0.04557347;0.2820336;4.897017;-0.05181243;-0.05645094;4.744879;-0.002604268;-0.3905259;3.889363;-0.1243311;-0.7388607;3.082959;-0.4795347;0.8022841;4.906874;-0.05181277;1.093912;4.766675;-0.002604365;1.417041;3.860818;-0.05992496;1.736284;3.017959;-0.3522615;0.2372317;2.776587;-0.1389116;0.1937965;1.315736;-0.2088255;0;0;0;0.2372317;2.776587;-0.1389116;0.1937965;1.315736;-0.2088255;0;0;0
505894.7189;NotLabelled;NONE;16384;-0.1080332;0.0401662;-0.823556;-0.5554016;0;0;-3;232;3736;1485;65536;0.301939;-0.1204986;0.8168869;0.4764543;-1;-1;2;-331;3548;-2171;8192;0.8184682;-0.5734072;0.03601108;0.004155125;0;0;1;-100;3851;1373;32768;0.8044433;-0.4986149;0.2839335;0.1537396;0;-1;0;227;3653;-1866;256;0.4778393;-0.5152354;-0.4736842;-0.5308722;-2;-2;0;-99;3994;-381;128;0.3961219;-0.5760491;-0.4570637;-0.5498615;2;-2;0;-375;3957;1046;4;-0.04570637;0.01246537;-0.7171654;-0.6952909;-1;-4;0;261;4082;196;16;0.4972299;-0.6460621;0.3961219;0.4224377;1;0;0;441;4030;728;2;0.7099888;-0.700831;0.06371191;-0.02631579;0;-1;0;-553;4100;29;8;0.4238227;-0.4404432;0.5138504;0.6019484;0;0;0;-203;4067;473;0.549485;2.818544;-0.1305628;0.5554703;3.363995;-0.1222329;0.5607318;3.843476;-0.1169333;0.5469;4.573667;-0.04557347;0.2820336;4.897016;-0.05181243;-0.05645094;4.744879;-0.002604268;-0.3910226;3.889067;-0.1208299;-0.740918;3.082514;-0.4741611;0.8022841;4.906874;-0.05181277;1.093912;4.766674;-0.002604365;1.417071;3.86073;-0.05836415;1.736313;3.017873;-0.3507007;0.2372317;2.776587;-0.1389116;0.1937965;1.315736;-0.2088255;0;0;0;0.2372317;2.776587;-0.1389116;0.1937965;1.315736;-0.2088255;0;0;0
505915.7377;NotLabelled;NONE;16384;-0.1066482;0.0401662;-0.8237365;-0.5554016;0;-1;-4;164;3722;1553;65536;0.301939;-0.1204986;0.8168869;0.4764543;0;-1;2;-409;3542;-2159;8192;0.8184682;-0.5734072;0.03601108;0.004155125;0;0;1;-160;3813;1377;32768;0.8044433;-0.4986149;0.2839335;0.1537396;0;-1;1;197;3651;-1868;256;0.4778393;-0.5152354;-0.4736842;-0.5308722;-1;-2;0;-63;4046;-373;128;0.3975069;-0.5764153;-0.4570637;-0.5484765;2;-2;0;-337;3975;1052;4;-0.04570637;0.01246537;-0.7185056;-0.6939058;0;-3;0;263;4022;182;16;0.4972299;-0.6460621;0.3961219;0.4224377;1;-1;0;369;3972;796;2;0.7099888;-0.700831;0.06371191;-0.02631579;0;-1;0;-537;4050;43;8;0.4238227;-0.4404432;0.5138504;0.6019484;0;0;0;-205;4111;451;0.553024;2.818282;-0.1286012;0.5590093;3.363733;-0.1202711;0.5642709;3.843214;-0.1149715;0.5502268;4.573588;-0.04555142;0.2852684;4.896843;-0.05266206;-0.05317521;4.744741;-0.003066991;-0.3874332;3.888928;-0.1221766;-0.7363933;3.082376;-0.4764315;0.8055161;4.90685;-0.05266273;1.097181;4.766865;-0.003067613;1.420486;3.860921;-0.05797303;1.740501;3.018063;-0.3494644;0.2407708;2.776325;-0.1369499;0.1975205;1.315474;-0.2069784;0;0;0;0.2407708;2.776325;-0.1369499;0.1975205;1.315474;-0.2069784;0;0;0
505935.9589;NotLabelled;NONE;16384;-0.1066482;0.0401662;-0.8237365;-0.5554016;0;-1;-3;178;3724;1515;65536;0.300554;-0.1204986;0.8173975;0.4764543;0;0;2;-355;3534;-2093;8192;0.8184599;-0.5734072;0.03601108;0.005540166;0;-3;0;-194;3829;1375;32768;0.8039531;-0.4986149;0.2853186;0.1537396;0;-2;0;177;3683;-1908;256;0.4778393;-0.5152354;-0.4736842;-0.5308722;-1;-2;0;-113;4030;-401;128;0.3975069;-0.5764153;-0.4570637;-0.5484765;2;-2;0;-359;3943;1052;4;-0.04570637;0.01108033;-0.7185283;-0.6939058;-1;-2;0;305;4060;196;16;0.4972299;-0.6460621;0.3961219;0.4224377;0;0;0;365;3976;732;2;0.7099132;-0.700831;0.06509695;-0.02493075;0;-2;0;-545;4098;49;8;0.4238227;-0.4404432;0.5138504;0.6019484;0;0;0;-255;4127;445;0.5586574;2.818115;-0.1285467;0.564643;3.363584;-0.1214681;0.5699045;3.843076;-0.1172685;0.5558606;4.57345;-0.04784876;0.2909021;4.896706;-0.05495963;-0.0475415;4.744603;-0.00536447;-0.3823321;3.888709;-0.1223665;-0.7312926;3.082156;-0.4766211;0.8111498;4.906713;-0.05496025;1.102815;4.766728;-0.005365133;1.426116;3.860783;-0.06029201;1.74613;3.017925;-0.3517832;0.246404;2.776139;-0.1367913;0.1975204;1.315474;-0.2069791;0;0;0;0.246404;2.776139;-0.1367913;0.1975204;1.315474;-0.2069791;0;0;0
505957.8345;NotLabelled;NONE;16384;-0.1052632;0.0401662;-0.8239146;-0.5554016;0;-2;-4;134;3740;1545;65536;0.300554;-0.1204986;0.8173975;0.4764543;0;-1;3;-361;3568;-2159;8192;0.8183979;-0.5734072;0.03739612;0.005540166;0;-3;0;-198;3821;1387;32768;0.803687;-0.4986149;0.2853186;0.1551246;0;-2;0;147;3673;-1878;256;0.4792244;-0.5152354;-0.4736842;-0.5296223;-1;-2;0;-123;4058;-375;128;0.3975069;-0.5764153;-0.4570637;-0.5484765;1;-2;0;-347;3999;1040;4;-0.04432133;0.01108033;-0.7186151;-0.6939058;-1;-2;0;249;4036;130;16;0.4972299;-0.6460621;0.3961219;0.4224377;0;0;0;401;3934;770;2;0.7099132;-0.700831;0.06509695;-0.02493075;0;-2;0;-551;4078;47;8;0.4238227;-0.4404432;0.5138504;0.6019484;0;0;0;-243;4119;399;0.5586921;2.817976;-0.1257301;0.5646777;3.363445;-0.1186515;0.5699393;3.842937;-0.1144519;0.5558953;4.573311;-0.04503185;0.2909368;4.896566;-0.05214256;-0.04750678;4.744464;-0.002547476;-0.3822893;3.88857;-0.1195732;-0.7328076;3.081872;-0.4719554;0.8111845;4.906573;-0.05214322;1.10285;4.766589;-0.002548218;1.426176;3.86056;-0.05591416;1.744674;3.017761;-0.3492335;0.2464387;2.776;-0.1339747;0.1975204;1.315474;-0.2069784;0;0;0;0.2464387;2.776;-0.1339747;0.1975204;1.315474;-0.2069784;0;0;0
505978.7082;NotLabelled;NONE;16384;-0.1038781;0.0401662;-0.8240904;-0.5554016;0;-2;-4;222;3760;1555;65536;0.299169;-0.1204986;0.8179054;0.4764543;0;-1;3;-339;3548;-2131;8192;0.8183979;-0.5734072;0.03739612;0.005540166;1;-3;0;-170;3851;1413;32768;0.803687;-0.4986149;0.2853186;0.1551246;0;-3;0;185;3681;-1922;256;0.4792244;-0.5152354;-0.4736842;-0.5296223;-2;-3;1;-79;4038;-351;128;0.398892;-0.5754577;-0.4570637;-0.5484765;1;-1;0;-347;4009;1044;4;-0.04432133;0.009695291;-0.7186351;-0.6939058;0;-2;0;289;4058;148;16;0.4972299;-0.6452109;0.3975069;0.4224377;1;-1;0;417;3972;716;2;0.7099132;-0.700831;0.06509695;-0.02493075;0;0;0;-505;4072;35;8;0.4238227;-0.4404432;0.5138504;0.6019484;0;0;0;-245;4117;441;0.5593833;2.818108;-0.1279821;0.5653689;3.363576;-0.1209034;0.5706305;3.843069;-0.1167038;0.5563839;4.57362;-0.04922944;0.2913377;4.896783;-0.05721429;-0.04706705;4.744722;-0.007231567;-0.3820608;3.888747;-0.1230605;-0.7316439;3.08205;-0.4763704;0.8115826;4.906932;-0.05721515;1.103283;4.767159;-0.007232785;1.426536;3.861184;-0.06191289;1.745824;3.017887;-0.3529339;0.2471299;2.776131;-0.1362267;0.1980686;1.315474;-0.2064546;0;0;0;0.2471299;2.776131;-0.1362267;0.1980686;1.315474;-0.2064546;0;0;0
505998.7326;NotLabelled;NONE;16384;-0.1038781;0.0401662;-0.8240904;-0.5554016;0;-1;-4;184;3766;1525;65536;0.299169;-0.1204986;0.8179054;0.4764543;0;-1;2;-351;3596;-2133;8192;0.8183979;-0.5734072;0.03739612;0.005540166;1;-2;0;-152;3873;1413;32768;0.803687;-0.4986149;0.2853186;0.1551246;0;-2;0;141;3645;-1910;256;0.4792244;-0.5152354;-0.4736842;-0.5296223;-1;-2;0;-79;4038;-427;128;0.398892;-0.5756744;-0.4584487;-0.5470914;1;-2;0;-385;4025;1074;4;-0.04432133;0.009695291;-0.7186351;-0.6939058;0;-1;0;301;4106;142;16;0.4972299;-0.6452109;0.3975069;0.4224377;0;0;0;365;3954;736;2;0.7099132;-0.700831;0.06509695;-0.02493075;0;0;0;-551;4076;35;8;0.4238227;-0.4404432;0.5138504;0.6019484;0;0;0;-229;4167;427;0.5594385;2.818424;-0.1224504;0.5654241;3.363907;-0.1166578;0.5706859;3.843408;-0.1135887;0.5564393;4.57396;-0.04611391;0.291393;4.897124;-0.05409852;-0.04701168;4.745061;-0.004115921;-0.3825297;3.889009;-0.1178367;-0.7336683;3.08217;-0.4692743;0.811638;4.907272;-0.05409938;1.103339;4.7675;-0.004117012;1.426587;3.861524;-0.05882132;1.745875;3.018227;-0.3498425;0.2471848;2.776428;-0.130588;0.198096;1.31591;-0.2036316;0;0;0;0.2471848;2.776428;-0.130588;0.198096;1.31591;-0.2036316;0;0;0
506019.7153;NotLabelled;NONE;16384;-0.1024931;0.0401662;-0.8242638;-0.5554016;0;-2;-4;170;3796;1555;65536;0.2977839;-0.1204986;0.8184107;0.4764543;0;-1;3;-393;3602;-2113;8192;0.8183873;-0.5734072;0.03739612;0.006925208;1;-2;0;-56;3833;1429;32768;0.803194;-0.4986149;0.2867036;0.1551246;0;-3;1;165;3709;-1944;256;0.4806094;-0.5152354;-0.4736842;-0.5283657;-1;-3;0;-75;4052;-399;128;0.398892;-0.5756744;-0.4584487;-0.5470914;2;-2;0;-365;4003;1020;4;-0.04432133;0.009695291;-0.7186351;-0.6939058;0;-1;0;251;4030;166;16;0.4972299;-0.6452109;0.3975069;0.4224377;0;0;0;435;3994;726;2;0.7099132;-0.700831;0.06509695;-0.02493075;0;0;0;-555;4064;15;8;0.4238227;-0.4404432;0.5138504;0.6019484;0;0;0;-199;4103;417;0.5594488;2.818445;-0.1225477;0.5654348;3.363941;-0.1181564;0.5706965;3.843449;-0.1163191;0.5564446;4.574001;-0.04884547;0.2913991;4.897164;-0.05685084;-0.0470096;4.745102;-0.006894641;-0.3824983;3.889344;-0.1228999;-0.7336095;3.082506;-0.4743649;0.811644;4.907313;-0.05681103;1.103341;4.76754;-0.006805897;1.426604;3.861707;-0.06375456;1.745915;3.01841;-0.3547509;0.247195;2.776428;-0.1305686;0.198112;1.31591;-0.203616;0;0;0;0.247195;2.776428;-0.1305686;0.198112;1.31591;-0.203616;0;0;0
506040.7105;NotLabelled;NONE;16384;-0.101108;0.0401662;-0.8244349;-0.5554016;0;-3;-4;214;3792;1581;65536;0.2977839;-0.1204986;0.8184107;0.4764543;0;-2;3;-399;3518;-2139;8192;0.8183228;-0.5734072;0.03878116;0.006925208;0;-2;0;-112;3865;1407;32768;0.803194;-0.4986149;0.2867036;0.1551246;-1;-3;1;195;3675;-1954;256;0.4806094;-0.5152354;-0.4736842;-0.5283657;-2;-3;0;-95;4070;-393;128;0.400277;-0.5747122;-0.4584487;-0.5470914;1;-2;0;-387;4025;1032;4;-0.04432133;0.009695291;-0.7186351;-0.6939058;0;-1;0;241;4080;116;16;0.4972299;-0.6452109;0.3975069;0.4224377;0;0;0;393;3954;724;2;0.7099132;-0.700831;0.06509695;-0.02493075;0;0;0;-615;4100;69;8;0.4238227;-0.4404432;0.5138504;0.6019484;0;0;0;-187;4101;411;0.5597852;2.818444;-0.1219093;0.5657712;3.363941;-0.117518;0.5710329;3.843448;-0.1156807;0.5565932;4.574174;-0.05015707;0.2914637;4.897246;-0.05901834;-0.04690421;4.74523;-0.008647896;-0.382324;3.889103;-0.1220925;-0.7340797;3.082124;-0.4725904;0.8117059;4.90753;-0.05901873;1.10344;4.767966;-0.008648038;1.426988;3.861905;-0.06006849;1.745536;3.018667;-0.3520701;0.2475314;2.776428;-0.12993;0.1986372;1.31591;-0.203104;0;0;0;0.2475314;2.776428;-0.12993;0.1986372;1.31591;-0.203104;0;0;0
506060.7139;NotLabelled;NONE;16384;-0.101108;0.0401662;-0.8244349;-0.5554016;0;-2;-4;142;3748;1579;65536;0.2977839;-0.1204986;0.8184107;0.4764543;0;-2;3;-387;3520;-2117;8192;0.81831;-0.5734072;0.03878116;0.008310249;0;-3;0;-108;3853;1401;32768;0.8032883;-0.4972299;0.2880886;0.1565097;0;-4;2;203;3701;-1920;256;0.4806094;-0.5152354;-0.4736842;-0.5283657;-1;-3;0;-63;4056;-325;128;0.400277;-0.5760275;-0.4584487;-0.5457063;2;-3;-1;-385;3979;1032;4;-0.04432133;0.009695291;-0.7186351;-0.6939058;0;-1;0;239;4068;160;16;0.4972299;-0.6452109;0.3975069;0.4224377;0;0;0;393;3942;720;2;0.7099132;-0.700831;0.06509695;-0.02493075;0;0;1;-561;4048;77;8;0.4238227;-0.4404432;0.5138504;0.6019484;0;0;0;-247;4109;441;0.5597854;2.818463;-0.1220165;0.5657713;3.363969;-0.1189133;0.5710332;3.843479;-0.1182084;0.5565935;4.574205;-0.05268472;0.291464;4.897277;-0.06154606;-0.04690397;4.745261;-0.01117559;-0.3831317;3.889061;-0.1216412;-0.7348874;3.082082;-0.4721389;0.8117062;4.90756;-0.06154644;1.103441;4.767998;-0.01117575;1.426635;3.861987;-0.06562901;1.745182;3.018749;-0.3576311;0.2475313;2.776429;-0.1299299;0.1986371;1.31591;-0.2031038;0;0;0;0.2475313;2.776429;-0.1299299;0.1986371;1.31591;-0.2031038;0;0;0
506082.2643;NotLabelled;NONE;16384;-0.09833795;0.0401662;-0.8247699;-0.5554016;0;-2;-4;218;3758;1525;65536;0.2963989;-0.1204986;0.8189134;0.4764543;0;-3;2;-375;3526;-2135;8192;0.81831;-0.5734072;0.03878116;0.008310249;0;-4;0;-94;3813;1405;32768;0.8032883;-0.4972299;0.2880886;0.1565097;0;-3;2;221;3697;-1872;256;0.4819945;-0.5152354;-0.4736842;-0.5271025;-1;-4;0;-99;4032;-377;128;0.400277;-0.5760275;-0.4584487;-0.5457063;2;-3;0;-371;4035;1014;4;-0.04293629;0.008310249;-0.7187365;-0.6939058;0;-2;0;225;4074;162;16;0.4972299;-0.6452109;0.3975069;0.4224377;0;0;0;377;3988;760;2;0.7099132;-0.700831;0.06509695;-0.02493075;0;-2;1;-613;4068;87;8;0.4238227;-0.4404432;0.5138504;0.6019484;0;0;0;-219;4075;441;0.5597851;2.818463;-0.1220143;0.565771;3.363968;-0.1188803;0.5710329;3.843478;-0.1181482;0.5565934;4.574204;-0.05262446;0.2914639;4.897276;-0.06148525;-0.04690403;4.74526;-0.01111406;-0.3831322;3.889054;-0.1215293;-0.7348887;3.082075;-0.4720263;0.811706;4.90756;-0.06148672;1.10344;4.767997;-0.01111662;1.426648;3.861897;-0.06398094;1.746291;3.019514;-0.3572527;0.247531;2.776428;-0.1299305;0.1986366;1.31591;-0.2031043;0;0;0;0.247531;2.776428;-0.1299305;0.1986366;1.31591;-0.2031043;0;0;0
506103.0161;NotLabelled;NONE;16384;-0.09833795;0.0401662;-0.8247699;-0.5554016;0;-2;-4;270;3762;1499;65536;0.2963989;-0.1204986;0.8189134;0.4764543;0;-4;2;-375;3492;-2107;8192;0.8182279;-0.5734072;0.0401662;0.009695291;0;-3;0;-116;3851;1343;32768;0.8032883;-0.4972299;0.2880886;0.1565097;0;-3;2;215;3695;-1886;256;0.4819945;-0.5166205;-0.4722992;-0.5269897;-1;-4;0;-67;4070;-323;128;0.4016621;-0.5750626;-0.4584487;-0.5457063;1;-2;-1;-369;3985;1086;4;-0.04293629;0.008310249;-0.7187365;-0.6939058;0;-3;0;191;4112;196;16;0.4972299;-0.6452109;0.3975069;0.4224377;0;-1;0;363;4004;778;2;0.7099132;-0.700831;0.06509695;-0.02493075;0;-2;1;-591;4118;43;8;0.4238227;-0.4404432;0.5138504;0.6019484;0;0;0;-221;4089;413;0.5604845;2.818456;-0.1214423;0.5664704;3.363961;-0.1183081;0.5717323;3.843471;-0.1175759;0.5571094;4.574367;-0.05400908;0.2919009;4.897349;-0.06374915;-0.04643234;4.745384;-0.01299004;-0.383368;3.889046;-0.1201787;-0.735739;3.08193;-0.4697408;0.8121406;4.90776;-0.06374931;1.103906;4.768404;-0.01298964;1.427254;3.862307;-0.06504118;1.747678;3.019925;-0.3574586;0.2482304;2.776421;-0.1293583;0.1991782;1.31591;-0.2025733;0;0;0;0.2482304;2.776421;-0.1293583;0.1991782;1.31591;-0.2025733;0;0;0
506123.7145;NotLabelled;NONE;16384;-0.09695291;0.0401662;-0.8249338;-0.5554016;0;-3;-4;196;3680;1525;65536;0.2950138;-0.1204986;0.8186064;0.4778393;0;-4;3;-357;3516;-2117;8192;0.8182279;-0.5734072;0.0401662;0.009695291;0;-3;0;-142;3849;1405;32768;0.8027902;-0.4972299;0.2894737;0.1565097;0;-4;2;151;3669;-1862;256;0.4819945;-0.5166205;-0.4722992;-0.5269897;-1;-4;0;-57;4092;-373;128;0.4016621;-0.5763737;-0.4584487;-0.5443213;1;-2;0;-335;4025;1018;4;-0.04293629;0.008310249;-0.7187365;-0.6939058;0;-4;0;263;4092;170;16;0.4972299;-0.6452109;0.3975069;0.4224377;0;0;0;367;3998;718;2;0.7098321;-0.700831;0.06648199;-0.0235457;0;-3;1;-563;4096;95;8;0.4238227;-0.4404432;0.5138504;0.6019484;0;0;0;-233;4031;413;0.5608533;2.818474;-0.1208398;0.5668393;3.363985;-0.1189975;0.5721011;3.843495;-0.1194009;0.5574743;4.574221;-0.05391079;0.292262;4.897224;-0.06278719;-0.04606704;4.745123;-0.01241004;-0.3827029;3.888786;-0.1205369;-0.7340733;3.081669;-0.4711048;0.8125015;4.907641;-0.06278765;1.104271;4.768155;-0.01241016;1.427556;3.86202;-0.06419396;1.748816;3.019638;-0.3556945;0.248599;2.776421;-0.1286482;0.1997563;1.31591;-0.2020031;0;0;0;0.248599;2.776421;-0.1286482;0.1997563;1.31591;-0.2020031;0;0;0
506144.7022;NotLabelled;NONE;16384;-0.09695291;0.0401662;-0.8249338;-0.5554016;1;-4;-3;194;3776;1551;65536;0.2950138;-0.1191136;0.8188091;0.4778393;0;-5;3;-373;3570;-2167;8192;0.8182103;-0.5734072;0.0401662;0.01108033;0;-3;0;-122;3871;1351;32768;0.8027902;-0.4972299;0.2894737;0.1565097;0;-3;2;187;3633;-1884;256;0.4833795;-0.5166205;-0.4722992;-0.5257196;-1;-4;0;-69;4044;-371;128;0.4016621;-0.5763737;-0.4584487;-0.5443213;1;-3;0;-339;4025;1040;4;-0.04293629;0.006925208;-0.7187512;-0.6939058;0;-4;0;255;4114;158;16;0.4972299;-0.6452109;0.3975069;0.4224377;0;-1;0;321;3972;746;2;0.7098321;-0.700831;0.06648199;-0.0235457;0;-4;1;-539;4088;75;8;0.4238227;-0.4404432;0.5138504;0.6019484;0;-1;0;-235;4063;409;0.5608533;2.818474;-0.1208373;0.5668393;3.363984;-0.1189646;0.5721011;3.843495;-0.1193413;0.5574743;4.57422;-0.05385119;0.292262;4.897224;-0.06272757;-0.046067;4.745123;-0.01235043;-0.3831921;3.888721;-0.1184157;-0.7336054;3.080049;-0.4663481;0.8125016;4.90764;-0.06272799;1.104271;4.768154;-0.01235056;1.42756;3.86202;-0.06410933;1.747301;3.019696;-0.3574427;0.2485991;2.776421;-0.1286482;0.1997563;1.31591;-0.2020031;0;0;0;0.2485991;2.776421;-0.1286482;0.1997563;1.31591;-0.2020031;0;0;0
506164.8741;NotLabelled;NONE;16384;-0.09556787;0.0401662;-0.8241614;-0.5567867;1;-4;-3;224;3786;1531;65536;0.2936288;-0.1191136;0.8193068;0.4778393;0;-4;3;-395;3502;-2133;8192;0.8181412;-0.5734072;0.04155125;0.01108033;0;-4;0;-120;3865;1435;32768;0.802018;-0.4972299;0.2908587;0.1578947;0;-4;0;209;3701;-1906;256;0.4833795;-0.5166205;-0.4722992;-0.5257196;0;-4;0;-49;4036;-403;128;0.4016621;-0.5763737;-0.4584487;-0.5443213;0;-3;-1;-355;4023;1026;4;-0.04155125;0.006925208;-0.7188326;-0.6939058;0;-4;0;215;4124;136;16;0.4972299;-0.6452109;0.3975069;0.4224377;0;-1;0;401;3966;734;2;0.7097456;-0.700831;0.06786703;-0.02216066;0;-4;1;-563;4056;103;8;0.4238227;-0.4404432;0.5138504;0.6019484;0;0;0;-249;4069;407;0.5611933;2.818329;-0.1173577;0.5671794;3.363841;-0.115485;0.5724412;3.843351;-0.1158617;0.5576413;4.574247;-0.05233383;0.2923547;4.897163;-0.06209126;-0.04594186;4.74512;-0.01132404;-0.3827823;3.888717;-0.1182894;-0.7322625;3.080636;-0.4685251;0.8125919;4.907701;-0.06209195;1.104391;4.768418;-0.01132488;1.427818;3.862198;-0.06067991;1.748341;3.019874;-0.353157;0.2489391;2.776277;-0.1251687;0.2002959;1.31591;-0.2014683;0;0;0;0.2489391;2.776277;-0.1251687;0.2002959;1.31591;-0.2014683;0;0;0
506185.7015;NotLabelled;NONE;16384;-0.09418282;0.03878116;-0.8243871;-0.5567867;1;-4;-3;218;3762;1547;65536;0.2922437;-0.1177285;0.8200019;0.4778393;0;-5;3;-417;3576;-2169;8192;0.8181212;-0.5734072;0.04155125;0.01246537;0;-5;0;-122;3865;1417;32768;0.8017441;-0.4972299;0.2908587;0.1592798;0;-5;0;251;3657;-1890;256;0.4833795;-0.5166205;-0.4722992;-0.5257196;-1;-5;0;-83;4046;-337;128;0.4030471;-0.5765069;-0.4570637;-0.5443213;0;-4;0;-349;4011;990;4;-0.04155125;0.005540166;-0.7188446;-0.6939058;0;-4;0;265;4080;144;16;0.4972299;-0.6452109;0.3975069;0.4224377;0;-1;0;379;4012;726;2;0.7111524;-0.699446;0.06786703;-0.02077562;0;-4;1;-515;4036;117;8;0.4238227;-0.4404432;0.5138504;0.6019484;0;-1;0;-223;4073;375;0.5615391;2.818467;-0.1202604;0.5675251;3.363978;-0.1183878;0.5727869;3.843488;-0.1187645;0.557987;4.574384;-0.05523664;0.2927004;4.8973;-0.06499404;-0.04559616;4.745257;-0.01422684;-0.3800775;3.887639;-0.1188334;-0.7311049;3.07942;-0.4671987;0.8129376;4.907838;-0.06499475;1.104737;4.768555;-0.01422763;1.427951;3.862381;-0.06575525;1.746952;3.019611;-0.3586103;0.2492848;2.776414;-0.1280715;0.2002959;1.31591;-0.2014683;0;0;0;0.2492848;2.776414;-0.1280715;0.2002959;1.31591;-0.2014683;0;0;0
506205.712;NotLabelled;NONE;16384;-0.09279778;0.03878116;-0.8245442;-0.5567867;0;-4;-2;114;3750;1565;65536;0.2908587;-0.1177285;0.8204942;0.4778393;0;-5;2;-407;3510;-2159;8192;0.8180497;-0.5734072;0.04293629;0.01246537;0;-5;0;-80;3813;1387;32768;0.8012403;-0.4972299;0.2922437;0.1592798;0;-4;0;185;3705;-1886;256;0.4847645;-0.5180055;-0.4709141;-0.524322;-1;-4;0;-27;4034;-329;128;0.4030471;-0.5778114;-0.4570637;-0.5429363;0;-4;0;-351;4035;1022;4;-0.0401662;0.005540166;-0.7189233;-0.6939058;-1;-4;0;237;4110;152;16;0.4972299;-0.6443555;0.398892;0.4224377;0;-1;0;381;3988;728;2;0.7111524;-0.699446;0.06786703;-0.02077562;0;-4;1;-551;4110;75;8;0.4238227;-0.4404432;0.5152354;0.6007633;0;-1;0;-223;4029;451;0.561536;2.818321;-0.1174363;0.567522;3.363831;-0.1154285;0.5727838;3.843342;-0.1156865;0.557984;4.574237;-0.05215895;0.2926973;4.897154;-0.06191647;-0.04559915;4.745111;-0.0111492;-0.3805665;3.887604;-0.1151136;-0.7331319;3.079835;-0.4629689;0.8129345;4.907692;-0.06191719;1.104734;4.768409;-0.01115;1.427949;3.862148;-0.06113446;1.746949;3.018872;-0.3525331;0.2492817;2.77627;-0.1252586;0.200296;1.31591;-0.2014688;0;0;0;0.2492817;2.77627;-0.1252586;0.200296;1.31591;-0.2014688;0;0;0
506225.8909;NotLabelled;NONE;16384;-0.09279778;0.03878116;-0.8245442;-0.5567867;0;-5;-3;102;3762;1509;65536;0.2908587;-0.1163435;0.8206918;0.4778393;0;-5;2;-355;3584;-2151;8192;0.8180497;-0.5734072;0.04293629;0.01246537;0;-4;0;-66;3893;1431;32768;0.8012403;-0.4972299;0.2922437;0.1592798;0;-6;0;153;3689;-1930;256;0.4847645;-0.5180055;-0.4709141;-0.524322;-1;-5;0;-89;4000;-341;128;0.4044321;-0.5768428;-0.4570637;-0.5429363;0;-4;-1;-375;3999;1066;4;-0.0401662;0.004155125;-0.7189327;-0.6939058;0;-3;0;285;4032;114;16;0.4972299;-0.6443555;0.398892;0.4224377;0;-1;0;425;3982;720;2;0.7111916;-0.699446;0.06786703;-0.01939058;0;-3;1;-549;4106;95;8;0.4238227;-0.4404432;0.5152354;0.6007633;0;-1;0;-257;4041;363;0.5625587;2.818888;-0.1161231;0.5685446;3.364398;-0.1140852;0.5738063;3.843909;-0.1143166;0.5588402;4.574805;-0.05083919;0.2934799;4.897661;-0.0606187;-0.04478194;4.745544;-0.009840801;-0.3790814;3.887969;-0.1153839;-0.7312547;3.080064;-0.4633192;0.8137146;4.908317;-0.06062043;1.105546;4.769104;-0.009843946;1.429099;3.862885;-0.05836737;1.748192;3.019666;-0.349828;0.2503043;2.776838;-0.1239479;0.2013915;1.31634;-0.1975271;0;0;0;0.2503043;2.776838;-0.1239479;0.2013915;1.31634;-0.1975271;0;0;0
506246.708;NotLabelled;NONE;16384;-0.09141274;0.03739612;-0.8247629;-0.5567867;0;-5;-3;174;3786;1565;65536;0.2894737;-0.1163435;0.8203738;0.4792244;0;-5;2;-395;3568;-2185;8192;0.8180274;-0.5734072;0.04293629;0.01385042;0;-5;0;-80;3839;1401;32768;0.8013157;-0.4958449;0.2936288;0.1606648;0;-5;1;127;3733;-1888;256;0.4861496;-0.5180055;-0.4709141;-0.523038;0;-5;0;-41;4094;-365;128;0.4044321;-0.5768428;-0.4570637;-0.5429363;0;-4;0;-387;4013;978;4;-0.0401662;0.004155125;-0.7189327;-0.6939058;0;-2;0;279;4080;172;16;0.4972299;-0.6443555;0.398892;0.4224377;0;0;0;429;3982;702;2;0.7111916;-0.699446;0.06786703;-0.01939058;0;-4;1;-533;4058;79;8;0.4224377;-0.4390582;0.5152354;0.6027494;0;-1;0;-263;4031;401;0.5625404;2.818763;-0.1134185;0.5685265;3.364276;-0.1126795;0.5737882;3.843786;-0.1140526;0.5588217;4.57468;-0.05057555;0.2934616;4.897537;-0.06035584;-0.04480041;4.74542;-0.00957866;-0.3796875;3.887851;-0.1132882;-0.7318505;3.080529;-0.4625872;0.8136963;4.908193;-0.06035638;1.105527;4.76898;-0.009579182;1.428802;3.862764;-0.05996907;1.747896;3.019545;-0.3514287;0.250286;2.776694;-0.1211351;0.201392;1.31634;-0.1975272;0;0;0;0.250286;2.776694;-0.1211351;0.201392;1.31634;-0.1975272;0;0;0
506266.8616;NotLabelled;NONE;16384;-0.09141274;0.03739612;-0.8247629;-0.5567867;0;-4;-2;152;3756;1573;65536;0.2894737;-0.1163435;0.8203738;0.4792244;0;-5;1;-429;3534;-2165;8192;0.8179535;-0.5734072;0.04432133;0.01385042;-1;-4;-1;-76;3877;1407;32768;0.8008068;-0.4958449;0.2950138;0.1606648;0;-6;1;179;3705;-1880;256;0.4861496;-0.5180055;-0.4709141;-0.523038;0;-5;0;-77;4058;-309;128;0.4044321;-0.5781433;-0.4570637;-0.5415512;0;-4;0;-371;4023;974;4;-0.0401662;0.004155125;-0.7189327;-0.6939058;0;-2;0;289;4072;124;16;0.4972299;-0.6443555;0.398892;0.4224377;0;0;0;439;3998;728;2;0.7097294;-0.700831;0.06925207;-0.01800554;0;-4;0;-537;4092;53;8;0.4224377;-0.4390582;0.5152354;0.6027494;0;-1;0;-253;4093;365;0.5628653;2.818763;-0.1127436;0.5688514;3.364276;-0.1120046;0.5741131;3.843786;-0.1133777;0.5589941;4.574847;-0.05187404;0.2935686;4.897622;-0.06254008;-0.04466516;4.745573;-0.01137119;-0.379742;3.888112;-0.1153636;-0.7299997;3.079231;-0.462966;0.8138011;4.908384;-0.06254077;1.105658;4.769368;-0.01137209;1.429059;3.863063;-0.05932844;1.750017;3.020688;-0.3511803;0.2506109;2.776694;-0.1204602;0.2019226;1.31634;-0.1969842;0;0;0;0.2506109;2.776694;-0.1204602;0.2019226;1.31634;-0.1969842;0;0;0
506288.7151;NotLabelled;NONE;16384;-0.0900277;0.03739612;-0.8249152;-0.5567867;0;-5;-2;210;3794;1557;65536;0.2894737;-0.1149584;0.820569;0.4792244;0;-5;1;-385;3530;-2129;8192;0.8179289;-0.5734072;0.04432133;0.01523546;-1;-5;0;-92;3879;1359;32768;0.8005276;-0.4958449;0.2950138;0.1620499;0;-4;1;147;3705;-1908;256;0.4861496;-0.5180055;-0.4695291;-0.5242817;-1;-5;0;-53;4074;-293;128;0.4044321;-0.5792356;-0.4556787;-0.5415512;0;-3;0;-359;4015;1038;4;-0.03878116;0.002770083;-0.7190154;-0.6939058;0;-2;0;275;4064;208;16;0.4972299;-0.6443555;0.398892;0.4224377;0;0;0;405;4010;766;2;0.7097294;-0.700831;0.06925207;-0.01800554;1;-3;0;-577;4102;63;8;0.4224377;-0.4390582;0.5152354;0.6027494;0;-2;1;-221;4101;405;0.5628653;2.818762;-0.1127411;0.5688514;3.364276;-0.1119722;0.5741131;3.843785;-0.1133191;0.5589941;4.574846;-0.05181539;0.2935685;4.89762;-0.06248139;-0.04466523;4.745572;-0.01131249;-0.3797422;3.888111;-0.1153044;-0.7300001;3.079231;-0.4629066;0.813801;4.908383;-0.06248212;1.105658;4.769367;-0.01131332;1.428849;3.863106;-0.06144261;1.748279;3.020787;-0.3551275;0.2506109;2.776694;-0.1204602;0.2019226;1.316341;-0.1969842;0;0;0;0.2506109;2.776694;-0.1204602;0.2019226;1.316341;-0.1969842;0;0;0
506308.8716;NotLabelled;NONE;16384;-0.08864266;0.03601108;-0.8251268;-0.5567867;0;-5;-2;236;3762;1539;65536;0.2880886;-0.1135734;0.8212491;0.4792244;0;-4;1;-413;3536;-2145;8192;0.8179289;-0.5734072;0.04432133;0.01523546;0;-4;-1;-116;3891;1383;32768;0.8005276;-0.4958449;0.2950138;0.1620499;0;-4;2;159;3689;-1856;256;0.4875346;-0.5193906;-0.4695291;-0.5216185;0;-5;0;-37;4010;-309;128;0.4058172;-0.5782661;-0.4556787;-0.5415512;0;-3;0;-341;3977;1004;4;-0.03878116;0.002770083;-0.7203495;-0.6925207;0;-3;0;227;4046;154;16;0.4972299;-0.6443555;0.398892;0.4224377;0;0;0;377;4014;726;2;0.7097632;-0.700831;0.06925207;-0.0166205;0;-3;0;-531;4088;17;8;0.4224377;-0.4390582;0.5152354;0.6027494;0;-2;1;-191;4089;391;0.5631751;2.818736;-0.1127352;0.5691611;3.364245;-0.110541;0.5744229;3.843756;-0.110635;0.5573798;4.574612;-0.04721445;0.2911001;4.89671;-0.05699673;-0.04672261;4.743634;-0.006177574;-0.3823051;3.885849;-0.1057727;-0.7325813;3.077549;-0.4547086;0.8113024;4.908847;-0.05704421;1.103534;4.770471;-0.006281853;1.426703;3.863998;-0.05256808;1.746093;3.021167;-0.3448238;0.2509209;2.776687;-0.120573;0.201905;1.31634;-0.1970029;0;0;0;0.2509209;2.776687;-0.120573;0.201905;1.31634;-0.1970029;0;0;0
506328.7125;NotLabelled;NONE;16384;-0.08725762;0.03601108;-0.8243383;-0.5581717;0;-4;-2;212;3792;1515;65536;0.2867036;-0.1135734;0.8217337;0.4792244;0;-6;1;-405;3582;-2109;8192;0.8178527;-0.5734072;0.04570637;0.01523546;0;-4;-1;-24;3809;1403;32768;0.8000159;-0.4958449;0.2963989;0.1620499;0;-5;1;157;3683;-1880;256;0.4875346;-0.5216185;-0.4695291;-0.5193906;0;-4;0;-61;4038;-277;128;0.4058172;-0.5782661;-0.4556787;-0.5415512;0;-2;0;-343;4015;1020;4;-0.03739612;0.001385042;-0.7204267;-0.6925207;0;-3;0;265;4104;188;16;0.4972299;-0.6443555;0.398892;0.4224377;0;0;0;437;3994;744;2;0.7096267;-0.700831;0.07063711;-0.0166205;0;-3;0;-485;4046;77;8;0.4224377;-0.4390582;0.5152354;0.6027494;0;-1;1;-211;4107;405;0.5694702;2.818544;-0.1111736;0.5754563;3.364057;-0.1102827;0.580718;3.843567;-0.1115223;0.5654533;4.574631;-0.0500859;0.2999634;4.897351;-0.06078207;-0.03824008;4.745239;-0.009599693;-0.3737037;3.887824;-0.1127043;-0.7235222;3.079965;-0.4631162;0.8201939;4.908217;-0.06078297;1.112078;4.769264;-0.009600878;1.43552;3.862915;-0.05641234;1.75656;3.020084;-0.3468559;0.2572157;2.776477;-0.1189026;0.2030171;1.31634;-0.1958561;0;0;0;0.2572157;2.776477;-0.1189026;0.2030171;1.31634;-0.1958561;0;0;0
506348.843;NotLabelled;NONE;16384;-0.08725762;0.03601108;-0.8243383;-0.5581717;0;-4;-3;226;3784;1575;65536;0.2867036;-0.1121884;0.8211147;0.4806094;0;-5;1;-397;3512;-2119;8192;0.8178257;-0.5734072;0.04570637;0.0166205;0;-4;-2;-70;3821;1375;32768;0.8000159;-0.4958449;0.2963989;0.1620499;0;-5;2;185;3675;-1828;256;0.4889196;-0.5203205;-0.4695291;-0.5193906;0;-5;0;-15;4082;-329;128;0.4058172;-0.5782661;-0.4556787;-0.5415512;0;-3;0;-355;3993;972;4;-0.03739612;0.001385042;-0.7204267;-0.6925207;0;-2;0;263;4032;170;16;0.4972299;-0.6443555;0.398892;0.4224377;-1;0;0;367;3980;744;2;0.7096578;-0.700831;0.07063711;-0.01523546;0;-3;1;-483;4088;69;8;0.4224377;-0.4390582;0.5152354;0.6027494;0;0;0;-225;4071;415;0.5703298;2.818537;-0.1100772;0.5763158;3.364051;-0.1091863;0.5815777;3.84356;-0.1104259;0.5694312;4.574683;-0.04899448;0.3053204;4.898533;-0.05969296;-0.03352891;4.747866;-0.008509796;-0.3661376;3.889242;-0.1108114;-0.7158719;3.081242;-0.4609797;0.8255924;4.90718;-0.05969363;1.116881;4.766983;-0.008510351;1.440345;3.860676;-0.05597091;1.761213;3.0179;-0.3467655;0.2580754;2.77647;-0.1178064;0.2039236;1.31634;-0.1949121;0;0;0;0.2580754;2.77647;-0.1178064;0.2039236;1.31634;-0.1949121;0;0;0
506368.7141;NotLabelled;NONE;16384;-0.08587258;0.03601108;-0.8244837;-0.5581717;0;-4;-2;128;3812;1557;65536;0.2867036;-0.1121884;0.8211147;0.4806094;0;-6;1;-377;3516;-2079;8192;0.8187166;-0.5720221;0.04709141;0.0166205;-1;-5;-2;-26;3789;1417;32768;0.800077;-0.4944598;0.2977839;0.1634349;1;-4;2;223;3731;-1918;256;0.4889196;-0.5229427;-0.468144;-0.5180055;0;-4;0;-15;4086;-347;128;0.4058172;-0.5806464;-0.4542936;-0.5401662;0;-3;0;-389;4059;1010;4;-0.03739612;0.001385042;-0.7204267;-0.6925207;0;-2;0;281;4106;134;16;0.4972299;-0.6443555;0.398892;0.4224377;-1;0;0;367;3982;748;2;0.7096578;-0.700831;0.07063711;-0.01523546;1;-3;2;-481;4106;65;8;0.4224377;-0.4390582;0.5152354;0.6027494;0;0;0;-207;4073;433;0.57033;2.818537;-0.110077;0.576316;3.364051;-0.1091861;0.5815778;3.84356;-0.1104257;0.5674849;4.574812;-0.05097651;0.3025147;4.897928;-0.06256455;-0.03593553;4.746501;-0.01098846;-0.3685439;3.887877;-0.1132904;-0.7157466;3.079036;-0.4640368;0.8227619;4.907958;-0.06256521;1.11442;4.768676;-0.01098919;1.437856;3.862279;-0.05690873;1.758724;3.019503;-0.3477031;0.2580755;2.77647;-0.1178062;0.2039238;1.31634;-0.1949119;0;0;0;0.2580755;2.77647;-0.1178062;0.2039238;1.31634;-0.1949119;0;0;0
506389.6924;NotLabelled;NONE;16384;-0.08587258;0.03462604;-0.824543;-0.5581717;1;-4;-2;184;3812;1563;65536;0.2853186;-0.1121884;0.821597;0.4806094;0;-5;2;-389;3552;-2119;8192;0.8186064;-0.5720221;0.04847645;0.01800554;0;-3;-2;-34;3863;1403;32768;0.800077;-0.4944598;0.2977839;0.1634349;1;-4;2;137;3661;-1874;256;0.4889196;-0.5229427;-0.468144;-0.5180055;0;-4;0;-125;3958;-265;128;0.4072022;-0.5796759;-0.4542936;-0.5401662;-1;-2;0;-305;3943;1012;4;-0.03739612;0;-0.720428;-0.6925207;0;-2;0;215;4076;188;16;0.4972299;-0.6443555;0.398892;0.4224377;0;0;0;383;3986;706;2;0.7096862;-0.700831;0.07063711;-0.01385042;0;-2;2;-467;4126;59;8;0.4224377;-0.4390582;0.5166205;0.6015627;-1;-1;0;-199;4093;447;0.5709705;2.818517;-0.1085421;0.5769566;3.364026;-0.1062003;0.5822183;3.843537;-0.1061646;0.5698601;4.574663;-0.04481161;0.3056554;4.898435;-0.05554527;-0.03315033;4.747675;-0.004346441;-0.36569;3.888994;-0.106387;-0.710968;3.080153;-0.4590283;0.8259249;4.907232;-0.05554599;1.117254;4.767127;-0.004347324;1.443811;3.861872;-0.05072773;1.767336;3.019933;-0.3409972;0.2587163;2.776471;-0.1163921;0.2049873;1.31634;-0.193793;0;0;0;0.2587163;2.776471;-0.1163921;0.2049873;1.31634;-0.193793;0;0;0
506409.717;NotLabelled;NONE;16384;-0.08448754;0.03462604;-0.8246861;-0.5581717;1;-3;-2;184;3816;1597;65536;0.2839335;-0.1108033;0.8222646;0.4806094;0;-4;2;-421;3504;-2103;8192;0.8186064;-0.5720221;0.04847645;0.01800554;0;-3;-2;-82;3825;1451;32768;0.7995602;-0.4944598;0.299169;0.1634349;1;-3;2;87;3617;-1910;256;0.4903047;-0.5216442;-0.468144;-0.5180055;0;-4;0;-31;4050;-283;128;0.4072022;-0.5807587;-0.4529086;-0.5401662;-1;-5;0;-385;4007;1016;4;-0.03601108;0;-0.7204986;-0.6925207;0;-2;0;281;4088;132;16;0.4972299;-0.6443555;0.398892;0.4224377;0;0;0;439;4032;746;2;0.7096862;-0.700831;0.07063711;-0.01385042;0;-2;1;-469;4068;59;8;0.4210526;-0.4390582;0.5166205;0.6025329;0;-2;0;-217;4091;407;0.5709003;2.818386;-0.1058465;0.5768864;3.3639;-0.1048121;0.5821482;3.843409;-0.1059258;0.5697899;4.574535;-0.04457319;0.3055853;4.898307;-0.055307;-0.0332204;4.747548;-0.004108105;-0.3657304;3.889024;-0.1075688;-0.7125568;3.080039;-0.4583535;0.8258548;4.907105;-0.05530775;1.117184;4.766998;-0.004109144;1.443504;3.861693;-0.0511508;1.76703;3.019753;-0.3414198;0.258646;2.776322;-0.1135876;0.2049873;1.31634;-0.1937938;0;0;0;0.258646;2.776322;-0.1135876;0.2049873;1.31634;-0.1937938;0;0;0
506429.7076;NotLabelled;NONE;16384;-0.08448754;0.03462604;-0.8246861;-0.5581717;0;-4;-2;136;3780;1569;65536;0.2839335;-0.1108033;0.8222646;0.4806094;-1;-5;2;-465;3518;-2139;8192;0.8186064;-0.5720221;0.04847645;0.01800554;0;-2;-2;-86;3813;1411;32768;0.800415;-0.4930748;0.299169;0.1634349;2;-3;2;79;3653;-1914;256;0.4903047;-0.5242525;-0.466759;-0.5166205;0;-4;0;-33;4012;-343;128;0.4072022;-0.5807587;-0.4529086;-0.5401662;-1;-3;0;-357;3999;1024;4;-0.03601108;0;-0.7204986;-0.6925207;0;-2;-1;261;4026;172;16;0.4972299;-0.6443555;0.398892;0.4224377;0;0;0;385;3948;718;2;0.7096862;-0.700831;0.07063711;-0.01385042;0;-2;1;-503;4044;41;8;0.4210526;-0.4390582;0.5166205;0.6025329;0;0;0;-193;4129;419;0.5712708;2.818509;-0.1086307;0.5772569;3.364018;-0.1061799;0.5825186;3.843528;-0.1060484;0.5682189;4.574784;-0.04668349;0.3031575;4.897824;-0.05830929;-0.03525012;4.746306;-0.006716579;-0.3682339;3.887723;-0.1081457;-0.7165667;3.07917;-0.4584331;0.8234017;4.908;-0.05830991;1.115099;4.768806;-0.006717205;1.441425;3.863501;-0.05371118;1.76343;3.021617;-0.3458257;0.2590167;2.776465;-0.1164899;0.2049876;1.31634;-0.1937927;0;0;0;0.2590167;2.776465;-0.1164899;0.2049876;1.31634;-0.1937927;0;0;0
506450.7123;NotLabelled;NONE;16384;-0.08448754;0.03462604;-0.8246861;-0.5581717;0;-4;-1;158;3800;1577;65536;0.2825485;-0.1108033;0.8219308;0.4819945;0;-3;2;-411;3570;-2179;8192;0.8185232;-0.5720221;0.04986149;0.01800554;-1;-3;-2;-136;3795;1397;32768;0.800415;-0.4930748;0.299169;0.1634349;1;-3;3;121;3703;-1874;256;0.4903047;-0.5242525;-0.466759;-0.5166205;1;-3;0;-101;4052;-359;128;0.4072022;-0.5807587;-0.4529086;-0.5401662;-1;-2;0;-393;3969;958;4;-0.03462604;0;-0.7205665;-0.6925207;0;-1;-1;265;4074;180;16;0.4972299;-0.6443555;0.398892;0.4224377;-1;0;0;437;3956;762;2;0.7097118;-0.700831;0.07063711;-0.01246537;0;-2;2;-519;4104;89;8;0.4210526;-0.4390582;0.5166205;0.6025329;0;0;0;-263;4089;409;0.5719026;2.818509;-0.1072156;0.5778886;3.364017;-0.1047648;0.5831504;3.843529;-0.1046333;0.5705708;4.574658;-0.04337019;0.3062682;4.89835;-0.05414414;-0.03249199;4.747494;-0.002927471;-0.3643572;3.888912;-0.1079586;-0.710773;3.080358;-0.4601418;0.826535;4.907304;-0.05414498;1.117907;4.767292;-0.002928615;1.444723;3.861987;-0.04638398;1.770936;3.021402;-0.337571;0.2596484;2.776465;-0.1150747;0.2060421;1.31634;-0.1926712;0;0;0;0.2596484;2.776465;-0.1150747;0.2060421;1.31634;-0.1926712;0;0;0
506470.8802;NotLabelled;NONE;16384;-0.08310249;0.033241;-0.8248838;-0.5581717;1;-3;0;150;3840;1563;65536;0.2825485;-0.1094183;0.8221164;0.4819945;0;-4;2;-399;3556;-2153;8192;0.8185232;-0.5720221;0.04986149;0.01800554;-1;-2;-2;-38;3813;1401;32768;0.799896;-0.4930748;0.300554;0.1634349;1;-4;3;145;3671;-1812;256;0.4903047;-0.5242525;-0.466759;-0.5166205;1;-4;0;-115;4064;-291;128;0.4072022;-0.5807587;-0.4529086;-0.5401662;-2;-3;0;-297;4013;1024;4;-0.03462604;0;-0.7205665;-0.6925207;0;-1;-1;259;4106;176;16;0.4958449;-0.6454219;0.398892;0.4224377;0;0;0;417;3974;790;2;0.7097118;-0.700831;0.07063711;-0.01246537;0;-2;1;-489;4076;29;8;0.4210526;-0.4390582;0.5166205;0.6025329;0;0;0;-189;4073;443;0.5722775;2.818646;-0.1101187;0.5782635;3.364155;-0.1076679;0.5835253;3.843666;-0.1075364;0.5709457;4.574796;-0.04627335;0.3066431;4.898487;-0.05704729;-0.0321171;4.747631;-0.005830612;-0.3645506;3.889049;-0.1090491;-0.7100072;3.078932;-0.4585741;0.82691;4.907442;-0.05704808;1.118282;4.767429;-0.005831599;1.444663;3.862166;-0.05324829;1.770876;3.021582;-0.3444355;0.2600233;2.776602;-0.1179779;0.2060421;1.31634;-0.1926712;0;0;0;0.2600233;2.776602;-0.1179779;0.2060421;1.31634;-0.1926712;0;0;0
506491.7057;NotLabelled;NONE;16384;-0.08310249;0.033241;-0.8248838;-0.5581717;0;-4;0;184;3816;1495;65536;0.2811634;-0.1094183;0.8225911;0.4819945;0;-4;2;-427;3592;-2199;8192;0.8185232;-0.5720221;0.04986149;0.01800554;0;-1;-3;-118;3803;1325;32768;0.7990898;-0.4930748;0.301939;0.1648199;1;-2;3;133;3655;-1892;256;0.4903047;-0.5242525;-0.466759;-0.5166205;1;-3;0;-47;4084;-301;128;0.4072022;-0.5831189;-0.4515235;-0.5387812;-2;-3;-1;-341;3991;1006;4;-0.03462604;0;-0.7205665;-0.6925207;0;-1;-1;269;4068;130;16;0.4958449;-0.6445639;0.400277;0.4224377;0;0;0;393;3988;788;2;0.7097349;-0.700831;0.07063711;-0.01108033;0;-3;1;-471;4016;69;8;0.4210526;-0.4390582;0.5166205;0.6025329;-1;-1;0;-213;4101;399;0.5760614;2.817667;-0.1127048;0.5820474;3.363176;-0.110254;0.5873092;3.842687;-0.1101225;0.5747296;4.573817;-0.04885948;0.310427;4.897508;-0.0596334;-0.02833321;4.746652;-0.008416735;-0.3612155;3.888167;-0.1109971;-0.7066305;3.078623;-0.461886;0.8306938;4.906463;-0.05963421;1.122066;4.76645;-0.008417726;1.448447;3.861187;-0.05583441;1.773142;3.020659;-0.348874;0.2638072;2.775623;-0.120564;0.2098259;1.315361;-0.1952574;0;0;0;0.2638072;2.775623;-0.120564;0.2098259;1.315361;-0.1952574;0;0;0
506511.7014;NotLabelled;NONE;16384;-0.08171745;0.03185596;-0.8241382;-0.5595568;0;-4;0;182;3726;1511;65536;0.2797784;-0.1080332;0.8232461;0.4819945;0;-4;1;-435;3548;-2179;8192;0.8184377;-0.5720221;0.05124654;0.01800554;0;-2;-3;-48;3815;1405;32768;0.7990898;-0.4930748;0.301939;0.1648199;1;-2;2;161;3681;-1822;256;0.4903047;-0.5254824;-0.4653739;-0.5166205;1;-3;0;-1;4066;-317;128;0.4072022;-0.5831189;-0.4515235;-0.5387812;-1;-2;0;-315;4001;976;4;-0.033241;-0.001385042;-0.7206304;-0.6925207;0;-1;-1;263;4094;178;16;0.4958449;-0.6445639;0.400277;0.4224377;0;0;0;437;3954;756;2;0.7097349;-0.700831;0.07063711;-0.01108033;0;-4;1;-455;4088;43;8;0.4210526;-0.4390582;0.5166205;0.6025329;0;-1;0;-221;4057;445;0.5759751;2.818076;-0.1097622;0.581961;3.363577;-0.1058693;0.5872228;3.843085;-0.1044701;0.5746432;4.574215;-0.04320735;0.3103406;4.897906;-0.05398145;-0.02841959;4.74705;-0.002764704;-0.3612942;3.888565;-0.1053694;-0.7082459;3.078875;-0.454399;0.8306074;4.906861;-0.05398226;1.121979;4.76685;-0.002765775;1.448364;3.861586;-0.05015719;1.771489;3.020589;-0.3435886;0.2637212;2.776053;-0.1177415;0.2097399;1.315791;-0.1924343;0;0;0;0.2637212;2.776053;-0.1177415;0.2097399;1.315791;-0.1924343;0;0;0
506531.8604;NotLabelled;NONE;16384;-0.08171745;0.03185596;-0.8241382;-0.5595568;0;-4;0;192;3788;1511;65536;0.2797784;-0.1080332;0.8232461;0.4819945;0;-3;0;-437;3536;-2151;8192;0.819404;-0.5706371;0.05124654;0.01800554;0;-1;-3;-102;3789;1361;32768;0.7990898;-0.4930748;0.301939;0.1648199;1;-3;2;151;3683;-1862;256;0.4903047;-0.5254824;-0.4653739;-0.5166205;1;-3;0;-101;4082;-327;128;0.4085872;-0.5821493;-0.4515235;-0.5387812;-2;-2;0;-317;4011;996;4;-0.033241;-0.001385042;-0.7206304;-0.6925207;0;-2;0;277;4126;138;16;0.4958449;-0.6445639;0.400277;0.4224377;0;0;0;407;3978;746;2;0.7095956;-0.700831;0.07202215;-0.01108033;0;-2;1;-481;4132;21;8;0.4210526;-0.4390582;0.5166205;0.6025329;-1;0;0;-197;4093;463;0.576557;2.818071;-0.1091787;0.582543;3.363572;-0.1052857;0.5878047;3.84308;-0.1038865;0.5750029;4.574046;-0.04072839;0.3106004;4.897682;-0.05065162;-0.02811109;4.746589;0.0001890045;-0.3583102;3.887057;-0.102293;-0.7058481;3.077789;-0.4517205;0.8308644;4.906796;-0.05065238;1.122282;4.766741;0.000187993;1.44859;3.861522;-0.04856229;1.772472;3.020526;-0.3411576;0.264303;2.776048;-0.1171581;0.2102365;1.315791;-0.1918916;0;0;0;0.264303;2.776048;-0.1171581;0.2102365;1.315791;-0.1918916;0;0;0
506553.8332;NotLabelled;NONE;16384;-0.08171745;0.03047091;-0.8241905;-0.5595568;0;-4;0;178;3744;1475;65536;0.2797784;-0.1066482;0.8234267;0.4819945;0;-3;0;-435;3522;-2173;8192;0.819404;-0.5706371;0.05124654;0.01800554;0;-1;-2;-48;3809;1401;32768;0.7999427;-0.4916897;0.301939;0.1648199;0;-2;2;49;3645;-1860;256;0.4903047;-0.5254824;-0.4653739;-0.5166205;1;-2;0;-51;4100;-283;128;0.4085872;-0.5821493;-0.4515235;-0.5387812;-2;-2;0;-349;4003;1036;4;-0.03185596;-0.001385042;-0.7206929;-0.6925207;0;-2;-1;229;4078;168;16;0.4958449;-0.6445639;0.400277;0.4224377;0;0;0;417;3930;716;2;0.7096159;-0.700831;0.07202215;-0.009695291;0;-2;1;-485;4138;93;8;0.4210526;-0.4390582;0.5166205;0.6025329;-1;0;0;-221;4061;427;0.5765572;2.81809;-0.109287;0.5825431;3.363599;-0.1067061;0.5878049;3.843109;-0.1064603;0.5750033;4.574074;-0.04330188;0.3106007;4.897711;-0.05322504;-0.02811081;4.746618;-0.002384452;-0.358317;3.887086;-0.1048445;-0.7058548;3.077819;-0.4542725;0.8308647;4.906825;-0.05322582;1.122282;4.76677;-0.002385378;1.451644;3.862661;-0.05120182;1.775526;3.021665;-0.3437977;0.264303;2.776048;-0.1171569;0.2102364;1.315791;-0.1918911;0;0;0;0.264303;2.776048;-0.1171569;0.2102364;1.315791;-0.1918911;0;0;0
506575.7213;NotLabelled;NONE;16384;-0.08033241;0.03047091;-0.8243266;-0.5595568;0;-4;0;178;3798;1545;65536;0.2783934;-0.1066482;0.823896;0.4819945;1;-3;0;-457;3538;-2153;8192;0.8193162;-0.5706371;0.05263158;0.01800554;0;0;-3;-80;3891;1419;32768;0.7999427;-0.4916897;0.301939;0.1648199;0;-1;2;93;3699;-1858;256;0.4903047;-0.5254824;-0.4653739;-0.5166205;1;-3;0;-83;4026;-345;128;0.4085872;-0.583221;-0.4501385;-0.5387812;-1;-2;0;-369;3995;1032;4;-0.03185596;-0.001385042;-0.7206929;-0.6925207;0;-1;-1;265;4066;246;16;0.4958449;-0.6445639;0.400277;0.4224377;0;0;0;445;3988;798;2;0.7096159;-0.700831;0.07202215;-0.009695291;0;-3;1;-477;4072;83;8;0.4210526;-0.4390582;0.5166205;0.6025329;0;0;0;-179;4091;447;0.5769172;2.818223;-0.1121914;0.5829031;3.363731;-0.1096107;0.5881649;3.843241;-0.1093649;0.5753633;4.574206;-0.04620636;0.3109607;4.897843;-0.05612954;-0.02775082;4.746751;-0.005288985;-0.3579018;3.887374;-0.1092163;-0.7053946;3.078675;-0.4600044;0.8312247;4.906958;-0.05613035;1.122642;4.766903;-0.005289912;1.452007;3.862794;-0.05408382;1.778503;3.0231;-0.3475144;0.264663;2.77618;-0.1200614;0.2102364;1.315791;-0.191891;0;0;0;0.264663;2.77618;-0.1200614;0.2102364;1.315791;-0.191891;0;0;0
506595.8961;NotLabelled;NONE;16384;-0.08033241;0.03047091;-0.8243266;-0.5595568;0;-2;0;200;3786;1593;65536;0.2783934;-0.1052632;0.8240741;0.4819945;0;-3;0;-403;3588;-2163;8192;0.8183498;-0.5720221;0.05263158;0.01800554;0;-1;-2;-4;3813;1447;32768;0.7994186;-0.4916897;0.3033241;0.1648199;0;-1;1;67;3641;-1868;256;0.4903047;-0.5280607;-0.4639889;-0.5152354;1;-3;0;-89;4034;-301;128;0.4085872;-0.583221;-0.4501385;-0.5387812;-2;-2;-1;-321;3989;1042;4;-0.03185596;-0.001385042;-0.7206929;-0.6925207;0;-1;0;269;4078;154;16;0.4958449;-0.6445639;0.400277;0.4224377;0;0;0;381;3968;774;2;0.7096335;-0.700831;0.07202215;-0.008310249;0;-2;1;-443;4078;79;8;0.4210526;-0.4390582;0.5166205;0.6025329;-1;0;0;-201;4053;421;0.5769169;2.818202;-0.1120752;0.5829028;3.363702;-0.1080858;0.5881646;3.84321;-0.1066018;0.575363;4.574175;-0.04344356;0.3109604;4.897811;-0.05336687;-0.02775116;4.74672;-0.002526224;-0.3583789;3.887279;-0.1043983;-0.7073994;3.078432;-0.453322;0.8312243;4.906927;-0.05336761;1.122641;4.766872;-0.002527237;1.451808;3.86281;-0.05347669;1.778304;3.023116;-0.3469069;0.264663;2.77618;-0.1200626;0.2102364;1.315791;-0.1918915;0;0;0;0.264663;2.77618;-0.1200626;0.2102364;1.315791;-0.1918915;0;0;0
506616.7107;NotLabelled;NONE;16384;-0.07894737;0.02908587;-0.8245105;-0.5595568;0;-3;0;192;3830;1529;65536;0.2770083;-0.1038781;0.8247163;0.4819945;0;-3;0;-433;3562;-2103;8192;0.8182279;-0.5720221;0.05401662;0.01939058;0;-1;-1;4;3815;1427;32768;0.7994186;-0.4916897;0.3033241;0.1648199;0;-1;1;111;3693;-1912;256;0.4903047;-0.5280607;-0.4639889;-0.5152354;1;-3;0;-53;4052;-311;128;0.4085872;-0.583221;-0.4501385;-0.5387812;-2;-2;0;-351;3985;1014;4;-0.03185596;-0.002770083;-0.7206889;-0.6925207;0;-1;-1;279;4024;152;16;0.4958449;-0.6445639;0.400277;0.4224377;0;0;0;405;3996;748;2;0.7096335;-0.700831;0.07202215;-0.008310249;0;-2;0;-403;4062;29;8;0.4210526;-0.4390582;0.5166205;0.6025329;-1;0;0;-219;4073;439;0.5775656;2.818202;-0.110635;0.5835515;3.363702;-0.1066456;0.5888133;3.84321;-0.1051616;0.5776921;4.574038;-0.04011661;0.3140328;4.898305;-0.04919264;-0.02502266;4.747859;0.00127326;-0.3550996;3.888419;-0.10237;-0.7021659;3.08014;-0.4545438;0.8343163;4.906224;-0.0491935;1.125413;4.76537;0.001272082;1.451791;3.860199;-0.04788303;1.778359;3.020561;-0.3413925;0.2653117;2.77618;-0.1186223;0.2112763;1.315791;-0.190746;0;0;0;0.2653117;2.77618;-0.1186223;0.2112763;1.315791;-0.190746;0;0;0
506636.707;NotLabelled;NONE;16384;-0.07894737;0.02908587;-0.8245105;-0.5595568;0;-4;0;200;3804;1511;65536;0.2770083;-0.1038781;0.8247163;0.4819945;1;-3;0;-469;3554;-2131;8192;0.8182279;-0.5720221;0.05401662;0.01939058;0;-1;-1;-16;3817;1437;32768;0.7994186;-0.4916897;0.3033241;0.1648199;0;-2;1;65;3629;-1920;256;0.4903047;-0.5280607;-0.4639889;-0.5152354;1;-2;0;-79;4028;-313;128;0.4085872;-0.5855615;-0.4487534;-0.5373961;-1;-2;0;-357;3999;1050;4;-0.03047091;-0.002770083;-0.7207488;-0.6925207;0;-1;0;195;4034;184;16;0.4958449;-0.6445639;0.400277;0.4224377;0;0;0;413;3966;764;2;0.7096484;-0.700831;0.07202215;-0.006925208;0;-1;1;-489;4054;29;8;0.4210526;-0.4390582;0.5166205;0.6025329;0;0;0;-261;4131;435;0.5774577;2.818065;-0.1078306;0.5834436;3.363564;-0.1038412;0.5887054;3.843073;-0.1023572;0.5775841;4.5739;-0.03731221;0.3139248;4.898168;-0.04638821;-0.02513059;4.747722;0.004077682;-0.3556402;3.888372;-0.0989314;-0.7041844;3.080509;-0.4506009;0.8342084;4.906087;-0.0463891;1.125305;4.765233;0.0040766;1.451429;3.860004;-0.04571962;1.777997;3.020366;-0.3392289;0.2652038;2.776043;-0.1158179;0.2112764;1.315791;-0.1907461;0;0;0;0.2652038;2.776043;-0.1158179;0.2112764;1.315791;-0.1907461;0;0;0
506657.7023;NotLabelled;NONE;16384;-0.07894737;0.02770083;-0.8245582;-0.5595568;0;-3;0;210;3818;1543;65536;0.2770083;-0.1024931;0.8248897;0.4819945;1;-3;0;-443;3538;-2143;8192;0.8182279;-0.5720221;0.05401662;0.01939058;0;-1;-1;-68;3841;1401;32768;0.7994186;-0.4916897;0.3033241;0.1648199;0;-1;1;127;3665;-1896;256;0.4916897;-0.527988;-0.4626039;-0.5152354;1;-2;1;-7;4072;-311;128;0.4085872;-0.5855615;-0.4487534;-0.5373961;-2;-1;0;-379;3985;1014;4;-0.03047091;-0.002770083;-0.7207488;-0.6925207;0;0;0;205;4116;190;16;0.4958449;-0.6445639;0.400277;0.4224377;0;0;-1;365;3970;780;2;0.7096484;-0.700831;0.07202215;-0.006925208;0;-2;1;-453;4080;69;8;0.4210526;-0.4390582;0.5166205;0.6025329;0;0;0;-183;4067;421;0.5778139;2.818176;-0.1106319;0.5837997;3.363664;-0.1052089;0.5890613;3.843166;-0.1024649;0.5779446;4.573994;-0.03741878;0.3142847;4.898261;-0.0464766;-0.02476728;4.747815;0.004012501;-0.3552938;3.888198;-0.09668383;-0.7038621;3.080336;-0.4483299;0.8345683;4.906181;-0.0465132;1.125669;4.765327;0.003932357;1.451784;3.85997;-0.04354;1.778332;3.020332;-0.3370721;0.2655602;2.776175;-0.1187387;0.2112633;1.315791;-0.19076;0;0;0;0.2655602;2.776175;-0.1187387;0.2112633;1.315791;-0.19076;0;0;0
506678.7037;NotLabelled;NONE;16384;-0.07894737;0.02770083;-0.8245582;-0.5595568;0;-2;0;214;3778;1539;65536;0.2770083;-0.1024931;0.8248897;0.4819945;1;-2;0;-443;3576;-2135;8192;0.8191944;-0.5706371;0.05401662;0.01939058;0;0;-1;-102;3839;1467;32768;0.7988917;-0.4916897;0.3047091;0.1648199;0;-1;1;115;3679;-1850;256;0.4916897;-0.527988;-0.4626039;-0.5152354;2;-2;1;-81;4048;-309;128;0.4085872;-0.5855615;-0.4487534;-0.5373961;-2;-1;-1;-329;3973;1072;4;-0.03047091;-0.004155125;-0.7207422;-0.6925207;0;0;0;257;4040;158;16;0.4958449;-0.6445639;0.400277;0.4224377;0;0;-1;411;3968;762;2;0.7096484;-0.700831;0.07202215;-0.006925208;0;-1;1;-457;4076;1;8;0.4210526;-0.4390582;0.5166205;0.6025329;0;0;0;-181;4093;473;0.5781264;2.818176;-0.1099305;0.5841122;3.363664;-0.1045075;0.5893739;3.843166;-0.1017634;0.576091;4.573967;-0.03682745;0.3114737;4.897451;-0.04595244;-0.02713535;4.746012;0.004535122;-0.3573192;3.886815;-0.100767;-0.7049022;3.079521;-0.4546869;0.8317316;4.906911;-0.04595333;1.123244;4.766927;0.004534006;1.449494;3.861697;-0.04442382;1.776815;3.022059;-0.337093;0.2658727;2.776175;-0.1180372;0.2117661;1.315791;-0.1902017;0;0;0;0.2658727;2.776175;-0.1180372;0.2117661;1.315791;-0.1902017;0;0;0
506699.9912;NotLabelled;NONE;16384;-0.07894737;0.02631579;-0.8246036;-0.5595568;0;-3;0;226;3764;1545;65536;0.2770083;-0.1024931;0.8248897;0.4819945;1;-2;0;-461;3498;-2175;8192;0.8182279;-0.5720221;0.05401662;0.01939058;0;0;-1;-54;3829;1401;32768;0.7988917;-0.4916897;0.3047091;0.1648199;0;0;1;173;3669;-1902;256;0.4916897;-0.527988;-0.4626039;-0.5152354;2;-2;1;-95;4034;-351;128;0.4085872;-0.5855615;-0.4487534;-0.5373961;-2;-1;-1;-351;3987;1038;4;-0.03047091;-0.002770083;-0.7207488;-0.6925207;0;0;-1;237;4038;134;16;0.4958449;-0.6445639;0.400277;0.4224377;0;0;0;409;4006;804;2;0.7096484;-0.700831;0.07202215;-0.006925208;0;-1;1;-531;4104;109;8;0.4210526;-0.4390582;0.5166205;0.6025329;0;0;0;-177;4073;431;0.5780113;2.81804;-0.1071266;0.583997;3.363527;-0.1017036;0.5892587;3.84303;-0.09895948;0.5759758;4.57383;-0.03402346;0.3113586;4.897315;-0.04314852;-0.02725048;4.745875;0.007339021;-0.3574344;3.886678;-0.09796312;-0.7050173;3.079384;-0.451883;0.8316165;4.906774;-0.04314941;1.123129;4.76679;0.007337928;1.452436;3.86267;-0.0416472;1.778237;3.023089;-0.3361742;0.2657576;2.776039;-0.1152333;0.2117661;1.315791;-0.1902016;0;0;0;0.2657576;2.776039;-0.1152333;0.2117661;1.315791;-0.1902016;0;0;0
506721.7174;NotLabelled;NONE;16384;-0.07756232;0.02631579;-0.824735;-0.5595568;0;-2;0;206;3814;1591;65536;0.2770083;-0.101108;0.8250605;0.4819945;1;0;0;-465;3498;-2145;8192;0.8182279;-0.5720221;0.05401662;0.01939058;0;0;-1;-72;3813;1401;32768;0.7988917;-0.4916897;0.3047091;0.1648199;0;0;1;169;3641;-1900;256;0.4916897;-0.529336;-0.4626039;-0.5138504;1;-2;0;-45;4030;-339;128;0.4085872;-0.5855615;-0.4487534;-0.5373961;-1;-1;-1;-371;3995;1022;4;-0.03047091;-0.002770083;-0.7207488;-0.6925207;0;0;-1;217;4052;190;16;0.4958449;-0.6454219;0.398892;0.4224377;0;0;0;411;4022;760;2;0.7096605;-0.700831;0.07202215;-0.005540166;0;-2;1;-451;4088;57;8;0.4196676;-0.4390582;0.5166205;0.6034985;0;0;0;-223;4075;445;0.5781264;2.818176;-0.1099305;0.5841122;3.363664;-0.1045075;0.5893739;3.843166;-0.1017634;0.576091;4.573967;-0.03682745;0.3114737;4.897451;-0.04595244;-0.02713535;4.746012;0.004535122;-0.3572595;3.88697;-0.1022098;-0.7048426;3.079677;-0.4561297;0.8317316;4.906911;-0.04595333;1.123244;4.766927;0.004534006;1.449494;3.861697;-0.04442382;1.775295;3.022117;-0.338951;0.2658727;2.776175;-0.1180372;0.2117661;1.315791;-0.1902017;0;0;0;0.2658727;2.776175;-0.1180372;0.2117661;1.315791;-0.1902017;0;0;0
506741.8531;NotLabelled;NONE;16384;-0.07756232;0.02631579;-0.824735;-0.5595568;-1;-1;0;226;3868;1579;65536;0.2770083;-0.101108;0.8250605;0.4819945;0;7;-1;-581;3552;-2113;8192;0.8182279;-0.5720221;0.05401662;0.01939058;1;0;-2;-54;3805;1437;32768;0.7988917;-0.4916897;0.3047091;0.1648199;0;0;1;145;3729;-1876;256;0.4903047;-0.5306192;-0.4626039;-0.5138504;2;-1;0;-41;4052;-355;128;0.4085872;-0.5866203;-0.4473684;-0.5373961;-2;0;0;-365;3917;1028;4;-0.03047091;-0.002770083;-0.7207488;-0.6925207;0;0;0;259;4052;124;16;0.4958449;-0.6454219;0.398892;0.4224377;0;0;0;411;3996;744;2;0.7096605;-0.700831;0.07202215;-0.005540166;0;-2;0;-487;4102;73;8;0.4210526;-0.4390582;0.5166205;0.6025329;0;0;0;-181;4053;443;0.578586;2.817747;-0.1119939;0.5845717;3.363234;-0.106571;0.5898334;3.842736;-0.1038268;0.5784577;4.57357;-0.0388937;0.3146855;4.897743;-0.04802012;-0.02431768;4.747189;0.002467932;-0.3546289;3.888078;-0.1031412;-0.7011416;3.081355;-0.4594046;0.8349662;4.905846;-0.04802084;1.126112;4.7651;0.002467155;1.4525;3.859872;-0.04556;1.77914;3.020291;-0.3391566;0.2663322;2.775745;-0.1201008;0.2124316;1.315361;-0.1924192;0;0;0;0.2663322;2.775745;-0.1201008;0.2124316;1.315361;-0.1924192;0;0;0
506763.711;NotLabelled;NONE;16384;-0.07756232;0.02493075;-0.825716;-0.5581717;-2;0;0;212;3854;1693;65536;0.2783934;-0.1024931;0.8252314;0.4806094;-2;13;-1;-469;3494;-2095;8192;0.8181353;-0.5720221;0.05540166;0.01939058;0;0;-2;-56;3815;1387;32768;0.7988917;-0.4916897;0.3047091;0.1648199;0;0;1;97;3645;-1910;256;0.4903047;-0.5318235;-0.4612188;-0.5138504;2;0;0;-83;4064;-349;128;0.4072022;-0.5875825;-0.4473684;-0.5373961;-2;0;0;-377;4023;1034;4;-0.03047091;-0.004155125;-0.7207422;-0.6925207;0;0;-1;283;4066;122;16;0.4958449;-0.6454219;0.398892;0.4224377;0;0;0;393;3976;724;2;0.7095186;-0.700831;0.0734072;-0.005540166;0;-2;1;-449;4086;65;8;0.4196676;-0.4390582;0.5166205;0.6034985;0;0;0;-189;4059;405;0.5785856;2.817726;-0.1118779;0.5845711;3.363197;-0.105054;0.5898327;3.842691;-0.1010783;0.5803675;4.573372;-0.03415143;0.3174423;4.898257;-0.04238215;-0.02195104;4.748449;0.007709509;-0.352256;3.889339;-0.09791914;-0.6987693;3.082617;-0.4541818;0.8377424;4.905;-0.04238307;1.128521;4.763358;0.007708311;1.454913;3.85813;-0.04029965;1.781552;3.018549;-0.3338971;0.266332;2.775746;-0.1201013;0.2124313;1.315361;-0.1924197;0;0;0;0.266332;2.775746;-0.1201013;0.2124313;1.315361;-0.1924197;0;0;0
506783.8093;NotLabelled;NONE;16384;-0.07894737;0.02493075;-0.8255847;-0.5581717;-4;3;0;220;3852;1729;65536;0.2797784;-0.1052632;0.8244139;0.4806094;-6;26;-1;-565;3532;-2045;8192;0.8181353;-0.5720221;0.05540166;0.01939058;0;0;-2;-82;3839;1385;32768;0.7988917;-0.4916897;0.3047091;0.1648199;0;0;1;103;3703;-1930;256;0.4903047;-0.5318235;-0.4612188;-0.5138504;2;0;1;-81;4062;-383;128;0.4072022;-0.5875825;-0.4473684;-0.5373961;-2;0;0;-377;4005;1042;4;-0.03047091;-0.004155125;-0.7207422;-0.6925207;0;1;-1;277;4068;190;16;0.4972299;-0.6443555;0.398892;0.4224377;0;0;0;403;3986;720;2;0.7095186;-0.700831;0.0734072;-0.005540166;0;-1;0;-395;4142;7;8;0.4196676;-0.4390582;0.5166205;0.6034985;0;0;0;-191;4115;451;0.5787619;2.817569;-0.1082824;0.5847473;3.363023;-0.1001427;0.5900088;3.842505;-0.09501055;0.5802835;4.573008;-0.02620524;0.3172414;4.897819;-0.03359219;-0.02209638;4.747762;0.01612542;-0.3549191;3.88995;-0.0921225;-0.7015278;3.08424;-0.4505801;0.8375391;4.904749;-0.03359288;1.128371;4.763083;0.01612461;1.454696;3.857902;-0.03322697;1.782087;3.018322;-0.3259861;0.2665086;2.775609;-0.1166153;0.2129237;1.315361;-0.1918747;0;0;0;0.2665086;2.775609;-0.1166153;0.2129237;1.315361;-0.1918747;0;0;0
506803.7131;NotLabelled;NONE;16384;-0.07894737;0.02631579;-0.8264765;-0.5567867;-7;6;1;296;3904;1867;65536;0.2825485;-0.1108033;0.8227415;0.4806094;-13;47;-3;-585;3524;-2083;8192;0.8181669;-0.5720221;0.05540166;0.01800554;0;1;-2;-66;3825;1487;32768;0.7988917;-0.4916897;0.3047091;0.1648199;1;0;0;55;3677;-1978;256;0.4903047;-0.5318235;-0.4612188;-0.5138504;3;0;1;-111;4036;-355;128;0.4072022;-0.5875825;-0.4473684;-0.5373961;-2;1;-1;-359;3981;1036;4;-0.03047091;-0.002770083;-0.7207488;-0.6925207;1;1;0;287;4104;146;16;0.4972299;-0.6443555;0.398892;0.4224377;0;0;0;417;4050;784;2;0.7095186;-0.700831;0.0734072;-0.005540166;0;-1;0;-413;4144;145;8;0.4196676;-0.4390582;0.5166205;0.6034985;0;0;0;-229;4065;415;0.5749371;2.818548;-0.105757;0.5809225;3.364002;-0.09761736;0.586184;3.843484;-0.09248516;0.5764587;4.573987;-0.02367991;0.3134166;4.898798;-0.03106683;-0.02592117;4.748741;0.01865078;-0.358252;3.891;-0.09165594;-0.7034343;3.084299;-0.4492556;0.8337144;4.905728;-0.03106755;1.124546;4.764062;0.01864994;1.450869;3.858881;-0.03072071;1.778259;3.019302;-0.3234801;0.2626838;2.776588;-0.1140899;0.2090989;1.31634;-0.1893493;0;0;0;0.2626838;2.776588;-0.1140899;0.2090989;1.31634;-0.1893493;0;0;0
506844.882;NotLabelled;NONE;16384;-0.08448754;0.03047091;-0.8313285;-0.5484765;-27;33;-2;634;3972;2007;65536;0.3033241;-0.1495845;0.8107333;0.4778393;-33;123;0;397;3780;-2487;8192;0.8181669;-0.5720221;0.05540166;0.01800554;-1;0;-1;-50;3827;1499;32768;0.7997425;-0.4903047;0.3047091;0.1648199;3;1;-2;-51;3771;-2136;256;0.4903047;-0.5318235;-0.4612188;-0.5138504;4;-2;2;-121;4076;-393;128;0.4058172;-0.58854;-0.4473684;-0.5373961;-2;1;-1;-373;4001;1060;4;-0.03185596;-0.002770083;-0.7206889;-0.6925207;0;1;0;243;4088;140;16;0.4972299;-0.6443555;0.398892;0.4224377;0;1;0;405;3972;724;2;0.7095186;-0.700831;0.0734072;-0.005540166;0;0;0;-441;4076;97;8;0.4196676;-0.4404432;0.5166205;0.6024883;-1;0;0;-225;4073;427;0.5750674;2.818685;-0.1085602;0.5810528;3.364139;-0.1004206;0.5863143;3.843621;-0.0952884;0.576589;4.574123;-0.02648312;0.3135469;4.898934;-0.03387007;-0.02579087;4.748878;0.01584755;-0.3610384;3.892132;-0.09335777;-0.7033479;3.083435;-0.4492076;0.8338447;4.905865;-0.03387076;1.124676;4.764199;0.01584673;1.451068;3.859129;-0.03506076;1.778458;3.019549;-0.3278202;0.2628141;2.776725;-0.1168931;0.2090989;1.31634;-0.1893494;0;0;0;0.2628141;2.776725;-0.1168931;0.2090989;1.31634;-0.1893494;0;0;0
506887.7154;NotLabelled;NONE;16384;-0.09418282;0.04570637;-0.8359159;-0.5387812;-31;75;-3;-36;3746;1599;65536;0.3185596;-0.1786704;0.8013863;0.4736842;-19;102;0;1;3968;-2387;8192;0.8191628;-0.5706371;0.05540166;0.0166205;-4;4;-2;28;4013;1593;32768;0.7997425;-0.4903047;0.3047091;0.1648199;0;1;0;343;3697;-1854;256;0.4889196;-0.5342923;-0.4598338;-0.5138504;2;1;1;81;4112;-385;128;0.4058172;-0.58854;-0.4473684;-0.5373961;-3;2;0;-371;4053;1076;4;-0.03185596;-0.002770083;-0.7193555;-0.6939058;0;1;0;165;4134;132;16;0.4972299;-0.6443555;0.398892;0.4224377;0;1;0;407;3958;776;2;0.7096605;-0.700831;0.07202215;-0.005540166;0;0;0;-459;4074;69;8;0.4196676;-0.4404432;0.5166205;0.6024883;0;0;0;-207;4051;457;0.5746795;2.818532;-0.1055502;0.5806646;3.363964;-0.09609705;0.585926;3.843433;-0.08981016;0.5762007;4.573936;-0.02100492;0.3131585;4.898747;-0.02839184;-0.02617922;4.74869;0.02132577;-0.3765079;3.898808;-0.0940063;-0.7012274;3.078652;-0.4399781;0.8334563;4.905677;-0.02839255;1.124288;4.764011;0.02132499;1.450679;3.858941;-0.0295825;1.780687;3.020668;-0.3231448;0.2624264;2.776592;-0.1139924;0.2090989;1.31634;-0.1893494;0;0;0;0.2624264;2.776592;-0.1139924;0.2090989;1.31634;-0.1893494;0;0;0
506908.7062;NotLabelled;NONE;16384;-0.09972299;0.05540166;-0.8373536;-0.534626;-28;61;-3;-376;3716;1561;65536;0.3254848;-0.1925208;0.7978333;0.4695291;-11;101;-2;-217;3866;-2401;8192;0.8201259;-0.5692521;0.05540166;0.0166205;-3;4;-2;-12;3813;1273;32768;0.7997797;-0.4903047;0.3060942;0.1620499;1;0;8;435;3775;-1836;256;0.4889196;-0.5342923;-0.4598338;-0.5138504;2;1;0;29;4110;-407;128;0.4044321;-0.588227;-0.4473684;-0.5387812;-2;3;0;-379;3967;1104;4;-0.03047091;-0.002770083;-0.7194155;-0.6939058;0;0;0;143;4072;122;16;0.4972299;-0.6443555;0.398892;0.4224377;0;1;0;387;3980;740;2;0.7096605;-0.700831;0.07202215;-0.005540166;0;0;1;-475;4096;49;8;0.4196676;-0.4404432;0.5166205;0.6024883;0;0;0;-225;4063;477;0.5693627;2.818745;-0.1052684;0.5753478;3.364177;-0.0958153;0.5806092;3.843647;-0.08952847;0.5725104;4.573796;-0.01686203;0.31019;4.899224;-0.02251339;-0.02947728;4.74966;0.02643428;-0.3957759;3.906919;-0.09164432;-0.7095164;3.079661;-0.4307711;0.8305018;4.905;-0.0225141;1.121021;4.762427;0.02643347;1.450672;3.858578;-0.02517533;1.781428;3.020305;-0.317894;0.2571096;2.776806;-0.1137106;0.2095817;1.31634;-0.1888149;0;0;0;0.2571096;2.776806;-0.1137106;0.2095817;1.31634;-0.1888149;0;0;0
506929.7113;NotLabelled;NONE;16384;-0.1024931;0.06232687;-0.8391729;-0.5304709;-29;42;-5;-416;3600;1489;65536;0.33241;-0.2036011;0.7938427;0.466759;-4;86;-7;71;3784;-2447;8192;0.8201528;-0.5692521;0.05540166;0.01523546;0;0;-2;-128;3741;1163;32768;0.7992482;-0.4903047;0.3074792;0.1620499;3;0;10;357;3703;-1850;256;0.4875346;-0.5342241;-0.4598338;-0.5152354;3;1;1;-119;4046;-433;128;0.4044321;-0.588227;-0.4473684;-0.5387812;-2;4;0;-343;4029;1048;4;-0.03047091;-0.002770083;-0.7194155;-0.6939058;0;-1;0;221;4044;122;16;0.4972299;-0.6443555;0.398892;0.4224377;0;0;0;399;3990;740;2;0.7096605;-0.700831;0.07202215;-0.005540166;0;-1;0;-453;4106;77;8;0.4210526;-0.4404432;0.5166205;0.6015213;0;1;0;-217;4081;497;0.5697575;2.818859;-0.1080564;0.5757424;3.364267;-0.09732437;0.5810035;3.84372;-0.08991325;0.5729048;4.57387;-0.01724678;0.3105843;4.899298;-0.02289814;-0.02908303;4.749734;0.02604952;-0.40167;3.909741;-0.09193891;-0.7145159;3.081068;-0.4284263;0.8308961;4.905072;-0.02289885;1.121415;4.7625;0.02604866;1.45412;3.85977;-0.02554095;1.783505;3.022635;-0.3230274;0.2575046;2.776939;-0.1166049;0.2095817;1.31634;-0.1888149;0;0;0;0.2575046;2.776939;-0.1166049;0.2095817;1.31634;-0.1888149;0;0;0
506949.8724;NotLabelled;NONE;16384;-0.1038781;0.06786703;-0.8437723;-0.5221606;-25;-2;-4;-290;3632;1681;65536;0.3434903;-0.2174515;0.7894822;0.4598338;6;52;-9;-39;3656;-1941;8192;0.8191897;-0.5706371;0.05540166;0.01523546;0;-1;-2;-116;3779;1251;32768;0.7981421;-0.4916897;0.3088643;0.1606648;3;1;12;301;3619;-1734;256;0.4875346;-0.5342241;-0.4598338;-0.5152354;3;1;0;-147;4110;-343;128;0.4030471;-0.5891769;-0.4473684;-0.5387812;-2;4;0;-275;3955;1062;4;-0.03047091;-0.002770083;-0.7194155;-0.6939058;0;-1;-1;283;4072;160;16;0.4972299;-0.6443555;0.398892;0.4224377;0;0;0;403;4004;726;2;0.709528;-0.700831;0.0734072;-0.004155125;0;-1;0;-387;4070;113;8;0.4210526;-0.4404432;0.5152354;0.602708;0;0;0;-203;4069;477;0.5694236;2.818859;-0.1087911;0.5754085;3.364267;-0.098059;0.5806696;3.84372;-0.09064794;0.5725806;4.573669;-0.01599658;0.3102632;4.899115;-0.0207552;-0.02940408;4.749421;0.02779598;-0.4099019;3.912486;-0.08661157;-0.7200323;3.082024;-0.4211997;0.8305752;4.904883;-0.02075613;1.121094;4.762177;0.02779472;1.45356;3.859561;-0.02723932;1.780568;3.022495;-0.3275269;0.2571708;2.776939;-0.1173395;0.2090418;1.31634;-0.1894124;0;0;0;0.2571708;2.776939;-0.1173395;0.2090418;1.31634;-0.1894124;0;0;0
506990.7044;NotLabelled;NONE;16384;-0.1024931;0.06648199;-0.8457593;-0.5193906;-23;-11;0;-12;3556;1653;65536;0.3490305;-0.2216066;0.7883052;0.4556787;7;51;-8;21;3556;-1899;8192;0.8191897;-0.5706371;0.05540166;0.01523546;0;2;-3;-210;3771;1369;32768;0.7978826;-0.4916897;0.3102493;0.1592798;1;3;10;89;3517;-1698;256;0.4875346;-0.5342241;-0.4598338;-0.5152354;2;2;0;-103;4108;-365;128;0.4030471;-0.5891769;-0.4473684;-0.5387812;-1;3;0;-309;3987;1036;4;-0.03185596;-0.001385042;-0.7193595;-0.6939058;0;1;0;227;4088;120;16;0.4972299;-0.6443555;0.398892;0.4224377;0;0;0;397;3960;762;2;0.709528;-0.700831;0.0734072;-0.004155125;1;-1;0;-399;4070;67;8;0.4210526;-0.4404432;0.5152354;0.602708;0;0;0;-215;4091;455;0.5694233;2.818838;-0.1086823;0.575408;3.364219;-0.0966424;0.5806689;3.843653;-0.08808154;0.5725798;4.573603;-0.01343024;0.3102625;4.899048;-0.01818889;-0.02940486;4.749355;0.03036234;-0.4253076;3.919656;-0.08448949;-0.733206;3.090122;-0.4234114;0.8305743;4.904817;-0.01818979;1.121094;4.76211;0.03036106;1.450664;3.858376;-0.02372098;1.773589;3.020627;-0.3265154;0.2571707;2.776938;-0.1173394;0.2090418;1.31634;-0.1894123;0;0;0;0.2571707;2.776938;-0.1173394;0.2090418;1.31634;-0.1894123;0;0;0
507011.7271;NotLabelled;NONE;16384;-0.1024931;0.06371191;-0.8476669;-0.5166205;-21;-8;2;206;3564;1727;65536;0.3531856;-0.2271468;0.7864719;0.4529086;8;46;-4;295;3636;-1973;8192;0.8191195;-0.5706371;0.0567867;0.01385042;1;3;-4;-246;3767;1401;32768;0.7981578;-0.4916897;0.3102493;0.1578947;-1;6;7;-7;3521;-1692;256;0.4875346;-0.5342241;-0.4598338;-0.5152354;1;1;0;-61;4072;-359;128;0.4030471;-0.5879074;-0.4473684;-0.5401662;-3;2;0;-437;3991;1026;4;-0.03185596;-0.001385042;-0.7193595;-0.6939058;0;2;0;267;4118;124;16;0.4972299;-0.6443555;0.398892;0.4224377;0;0;0;411;3960;746;2;0.709528;-0.700831;0.0734072;-0.004155125;0;0;0;-421;4096;107;8;0.4210526;-0.4404432;0.5152354;0.602708;0;1;0;-241;4109;483;0.5691662;2.818842;-0.1085959;0.5751508;3.364223;-0.09655604;0.5804117;3.843657;-0.08799517;0.5723226;4.573606;-0.01334387;0.3100053;4.899052;-0.01810253;-0.02966202;4.749359;0.03044871;-0.4314395;3.922512;-0.08457017;-0.7390171;3.095179;-0.4291175;0.8303172;4.90482;-0.01810342;1.120836;4.762114;0.03044736;1.450407;3.85838;-0.02363455;1.771858;3.021265;-0.3297333;0.2569135;2.776942;-0.117253;0.2090418;1.31634;-0.1894124;0;0;0;0.2569135;2.776942;-0.117253;0.2090418;1.31634;-0.1894124;0;0;0
507031.725;NotLabelled;NONE;16384;-0.1038781;0.06232687;-0.848444;-0.5152354;-17;0;3;280;3616;1773;65536;0.3573407;-0.2313019;0.7857655;0.4487534;10;39;0;269;3476;-1779;8192;0.8190445;-0.5706371;0.05817174;0.01246537;2;0;-6;-296;3791;1595;32768;0.7969828;-0.4944598;0.3088643;0.1578947;-11;2;1;53;3451;-1624;256;0.4861496;-0.5354848;-0.4598338;-0.5152354;1;1;0;-25;4072;-363;128;0.4030471;-0.5879074;-0.4473684;-0.5401662;-3;0;0;-413;3991;1040;4;-0.03185596;-0.001385042;-0.7193595;-0.6939058;0;2;0;253;3994;98;16;0.4958449;-0.6454219;0.398892;0.4224377;0;0;0;383;4014;738;2;0.709528;-0.700831;0.0734072;-0.004155125;0;0;0;-395;4106;93;8;0.4210526;-0.4404432;0.5152354;0.602708;0;1;0;-217;4071;475;0.5691663;2.818842;-0.1085985;0.575151;3.364225;-0.096591;0.5804119;3.843659;-0.08805859;0.5723227;4.573608;-0.01340735;0.3100055;4.899053;-0.01816592;-0.0296619;4.74936;0.03038529;-0.4365975;3.92555;-0.08823276;-0.7433529;3.098476;-0.4341317;0.8303174;4.904822;-0.01816684;1.120836;4.762115;0.03038406;1.45028;3.858565;-0.02741265;1.771798;3.022009;-0.3349624;0.2569137;2.776943;-0.1172529;0.2090419;1.31634;-0.1894123;0;0;0;0.2569137;2.776943;-0.1172529;0.2090419;1.31634;-0.1894123;0;0;0
507052.0295;NotLabelled;NONE;16384;-0.1038781;0.06232687;-0.8501199;-0.5124654;-15;8;3;134;3662;1829;65536;0.3601108;-0.2354571;0.7848433;0.4459834;10;41;-1;-307;3604;-1741;8192;0.8190445;-0.5706371;0.05817174;0.01246537;1;-3;-5;-202;3777;1491;32768;0.7961218;-0.4958449;0.3088643;0.1578947;-13;0;2;133;3703;-1976;256;0.4861496;-0.5341487;-0.4598338;-0.5166205;1;1;0;-21;4084;-409;128;0.4016621;-0.5888545;-0.4473684;-0.5401662;-3;1;0;-429;3983;1024;4;-0.033241;-0.001385042;-0.7192968;-0.6939058;0;2;0;217;4084;140;16;0.4972299;-0.6443555;0.398892;0.4224377;0;0;0;357;3968;726;2;0.709528;-0.700831;0.0734072;-0.004155125;0;0;0;-371;4048;109;8;0.4210526;-0.4404432;0.5152354;0.602708;0;1;0;-193;4059;431;0.5729901;2.817863;-0.1111266;0.5789747;3.363246;-0.0991191;0.5842357;3.84268;-0.09058672;0.5780366;4.572442;-0.01395845;0.3165618;4.898577;-0.01782778;-0.02349053;4.749632;0.03032802;-0.4323671;3.927357;-0.09219489;-0.7404445;3.102473;-0.4421279;0.8368869;4.903;-0.01782858;1.127037;4.759411;0.03032696;1.456346;3.856057;-0.03118265;1.774148;3.016826;-0.3352885;0.2607375;2.775964;-0.119781;0.2128656;1.315361;-0.1919397;0;0;0;0.2607375;2.775964;-0.119781;0.2128656;1.315361;-0.1919397;0;0;0
507072.6993;NotLabelled;NONE;16384;-0.1066482;0.06371191;-0.8513387;-0.5096953;-12;7;2;-172;3546;1809;65536;0.367036;-0.2437673;0.7822224;0.4404432;11;31;-2;127;3586;-1847;8192;0.818945;-0.5706371;0.05955679;0.01246537;1;0;-4;-108;3793;1315;32768;0.7952575;-0.4972299;0.3088643;0.1578947;-10;6;3;317;3745;-1922;256;0.4861496;-0.5354848;-0.4598338;-0.5152354;0;1;1;-31;4138;-357;128;0.4016621;-0.587581;-0.4473684;-0.5415512;-4;3;0;-383;3987;1062;4;-0.033241;0;-0.7192981;-0.6939058;0;2;0;235;4080;126;16;0.4972299;-0.6443555;0.398892;0.4224377;0;0;0;453;4022;754;2;0.7096699;-0.700831;0.07202215;-0.004155125;0;0;0;-467;4118;129;8;0.4210526;-0.4404432;0.5152354;0.602708;0;1;0;-243;4073;403;0.56844;2.818689;-0.1063297;0.5744243;3.364041;-0.09301779;0.579685;3.843454;-0.0833388;0.5716065;4.573196;-0.006708205;0.3092926;4.898657;-0.01057643;-0.03037494;4.748837;0.03757899;-0.4448443;3.929322;-0.08464518;-0.7548;3.105293;-0.4349329;0.8296046;4.90442;-0.01057738;1.120124;4.761579;0.03757751;1.449255;3.858225;-0.02487469;1.763549;3.017712;-0.3290839;0.2561876;2.77681;-0.1150924;0.208499;1.316341;-0.1900097;0;0;0;0.2561876;2.77681;-0.1150924;0.208499;1.316341;-0.1900097;0;0;0
507094.7104;NotLabelled;NONE;16384;-0.1066482;0.06371191;-0.8529911;-0.5069252;-11;1;2;-120;3542;1843;65536;0.3698061;-0.2479224;0.7819403;0.4362881;10;29;0;737;3556;-2063;8192;0.8179782;-0.5720221;0.05955679;0.01246537;3;3;-3;32;3733;1271;32768;0.7946639;-0.4986149;0.3088643;0.1565097;0;9;3;11;3951;-2438;256;0.4861496;-0.5354848;-0.4598338;-0.5152354;0;1;1;-91;4138;-415;128;0.4016621;-0.587581;-0.4473684;-0.5415512;-4;2;0;-359;4075;1114;4;-0.033241;0;-0.7192981;-0.6939058;0;3;0;215;4062;184;16;0.4972299;-0.6443555;0.398892;0.4224377;0;0;0;399;3984;778;2;0.7096605;-0.700831;0.07202215;-0.005540166;0;0;0;-421;4092;-9;8;0.4210526;-0.4404432;0.5152354;0.602708;0;0;0;-147;4055;427;0.5688978;2.818827;-0.1084083;0.5748821;3.364179;-0.09512901;0.5801429;3.843593;-0.08547872;0.5739438;4.573354;-0.008850038;0.312469;4.899489;-0.01271924;-0.02758325;4.750544;0.03543646;-0.4456998;3.933645;-0.09177473;-0.7542324;3.111173;-0.446945;0.8327942;4.903912;-0.01272005;1.122944;4.760323;0.03543532;1.452042;3.857044;-0.0282563;1.76456;3.015255;-0.3307662;0.2566454;2.776947;-0.1171683;0.2090416;1.31634;-0.1894125;0;0;0;0.2566454;2.776947;-0.1171683;0.2090416;1.31634;-0.1894125;0;0;0
507115.7271;NotLabelled;NONE;16384;-0.1080332;0.06371191;-0.8528168;-0.5069252;-10;-3;2;-100;3526;1839;65536;0.3698061;-0.2506925;0.7825975;0.433518;12;12;2;815;3516;-1829;8192;0.8179981;-0.5720221;0.05955679;0.01108033;3;9;-2;140;3769;1245;32768;0.795741;-0.4986149;0.3074792;0.1537396;8;29;4;-43;3847;-2432;256;0.4861496;-0.5329531;-0.4612188;-0.5166205;-1;3;0;-59;4016;-423;128;0.400277;-0.5872479;-0.4473684;-0.5429363;-3;3;0;-349;3985;1008;4;-0.03462604;0;-0.7192328;-0.6939058;0;4;0;253;4070;210;16;0.4972299;-0.6443555;0.398892;0.4224377;0;0;0;421;4012;804;2;0.7096605;-0.700831;0.07202215;-0.005540166;0;0;-1;-451;4124;57;8;0.4210526;-0.4404432;0.5152354;0.602708;0;0;0;-209;4017;447;0.5688978;2.818827;-0.1084083;0.5748821;3.36418;-0.09512901;0.5801429;3.843593;-0.08547872;0.5739438;4.573355;-0.008850038;0.312469;4.899489;-0.01271924;-0.02758325;4.750545;0.03543646;-0.4508837;3.93646;-0.09266937;-0.7623392;3.116189;-0.4503697;0.8327942;4.903913;-0.01272005;1.122944;4.760324;0.03543532;1.448985;3.855935;-0.02825236;1.758916;3.013431;-0.3314294;0.2566454;2.776947;-0.1171683;0.2090416;1.31634;-0.1894125;0;0;0;0.2566454;2.776947;-0.1171683;0.2090416;1.31634;-0.1894125;0;0;0
507136.7135;NotLabelled;NONE;16384;-0.1066482;0.06232687;-0.8539149;-0.5055401;-9;-6;1;-190;3474;1851;65536;0.3711911;-0.2506925;0.7827078;0.432133;17;-2;3;335;3712;-2055;8192;0.8173658;-0.5734072;0.05540166;0.006925208;0;33;-1;168;3883;1529;32768;0.7990153;-0.5;0.3033241;0.1398892;16;53;13;491;3885;-2088;256;0.4861496;-0.5342923;-0.4612188;-0.5152354;-1;1;1;1;4056;-445;128;0.400277;-0.5872479;-0.4473684;-0.5429363;-4;2;0;-339;3957;1028;4;-0.03462604;0;-0.7192328;-0.6939058;0;4;0;161;4104;138;16;0.4972299;-0.6443555;0.398892;0.4224377;0;1;0;395;4034;800;2;0.7096605;-0.700831;0.07202215;-0.005540166;0;0;-2;-443;4100;35;8;0.4210526;-0.4404432;0.5152354;0.602708;-1;1;0;-199;4095;401;0.5678604;2.818674;-0.1068084;0.5738443;3.363994;-0.09226063;0.5791048;3.843383;-0.08149517;0.5713028;4.573324;-0.006736875;0.3091116;4.898872;-0.01143444;-0.03061137;4.749304;0.03711251;-0.4546535;3.934923;-0.08658749;-0.7726426;3.116277;-0.4422528;0.8294257;4.904439;-0.01146132;1.119892;4.761612;0.03705359;1.445278;3.857205;-0.02963495;1.755212;3.015708;-0.3355936;0.2556082;2.776814;-0.1156738;0.2080035;1.31634;-0.190552;0;0;0;0.2556082;2.776814;-0.1156738;0.2080035;1.31634;-0.190552;0;0;0
507156.8818;NotLabelled;NONE;16384;-0.1066482;0.06232687;-0.8547334;-0.5041551;-6;-13;-2;-264;3480;1769;65536;0.3698061;-0.2479224;0.7857642;0.4293629;23;-19;2;419;3732;-2339;8192;0.8176615;-0.5734072;0.05124654;0.002770083;0;37;0;60;3863;1483;32768;0.8009493;-0.5;0.301939;0.1315789;23;51;20;1005;3845;-2304;256;0.4847645;-0.5342133;-0.4612188;-0.5166205;0;3;0;1;4016;-411;128;0.398892;-0.5881895;-0.4473684;-0.5429363;-4;3;0;-385;3979;1124;4;-0.03462604;0;-0.7192328;-0.6939058;0;2;0;159;4050;184;16;0.4972299;-0.6452614;0.398892;0.4210526;0;0;0;429;4004;762;2;0.7096605;-0.700831;0.07202215;-0.005540166;0;1;-2;-447;4106;-51;8;0.4210526;-0.4404432;0.5152354;0.602708;-1;1;0;-127;4091;437;0.5681959;2.818674;-0.1060638;0.5741798;3.363994;-0.09151608;0.5794403;3.843383;-0.08075064;0.5735193;4.573342;-0.005994618;0.3121698;4.899566;-0.01070625;-0.02794064;4.750876;0.03782384;-0.4540915;3.938385;-0.09095716;-0.7712491;3.121045;-0.4503481;0.8324965;4.90379;-0.0107069;1.122591;4.760212;0.0378232;1.446288;3.855016;-0.02631521;1.759659;3.017498;-0.3396038;0.2559438;2.776815;-0.1149294;0.2085572;1.31634;-0.1899458;0;0;0;0.2559438;2.776815;-0.1149294;0.2085572;1.31634;-0.1899458;0;0;0
507177.6982;NotLabelled;NONE;16384;-0.1024931;0.0567867;-0.8556273;-0.5041551;-5;-27;0;50;3614;2027;65536;0.3698061;-0.2382271;0.7902594;0.4265928;26;-21;-4;-347;3550;-2327;8192;0.8178351;-0.5734072;0.04847645;0;0;34;-1;-198;3889;1421;32768;0.8024819;-0.5;0.301939;0.1218837;27;42;27;1239;3879;-2472;256;0.4847645;-0.5342133;-0.4612188;-0.5166205;1;3;1;-97;4040;-365;128;0.398892;-0.5881895;-0.4473684;-0.5429363;-2;3;0;-355;3955;1084;4;-0.03462604;0;-0.7192328;-0.6939058;0;0;1;123;4046;250;16;0.4972299;-0.6452614;0.398892;0.4210526;0;0;0;413;3976;808;2;0.7096484;-0.700831;0.07202215;-0.006925208;0;1;-2;-415;4114;23;8;0.4210526;-0.4404432;0.5152354;0.602708;-1;0;0;-165;4093;485;0.5709527;2.818377;-0.1051848;0.5769362;3.363661;-0.0893389;0.5821963;3.843025;-0.07743233;0.5762855;4.572778;-0.0007025599;0.3149396;4.899016;-0.004526347;-0.02517142;4.750199;0.043609;-0.4542659;3.939134;-0.08437935;-0.7787631;3.126015;-0.4467796;0.8352664;4.903234;-0.004526973;1.12536;4.759524;0.04360831;1.449633;3.854463;-0.01954114;1.763973;3.020234;-0.3405384;0.2587007;2.77654;-0.1141581;0.2110997;1.316065;-0.1890386;0;0;0;0.2587007;2.77654;-0.1141581;0.2110997;1.316065;-0.1890386;0;0;0
507198.7215;NotLabelled;NONE;16384;-0.101108;0.05263158;-0.8560577;-0.5041551;-8;-25;3;216;3662;2069;65536;0.3725762;-0.232687;0.7920973;0.4238227;25;-16;-10;-387;3508;-2645;8192;0.8179054;-0.5734072;0.04709141;-0.004155125;0;26;-2;-338;3905;1525;32768;0.804039;-0.4986149;0.3033241;0.1135734;32;32;34;1209;3731;-2554;256;0.4847645;-0.5342133;-0.4612188;-0.5166205;2;2;0;-121;3974;-355;128;0.3975069;-0.587847;-0.4473684;-0.5443213;-1;3;0;-381;3965;1128;4;-0.03601108;0;-0.7191648;-0.6939058;0;1;0;223;4058;170;16;0.4972299;-0.6452614;0.398892;0.4210526;0;0;0;405;3966;780;2;0.7096335;-0.700831;0.07202215;-0.008310249;0;2;-3;-453;4106;37;8;0.4210526;-0.4418283;0.5152354;0.6016934;0;2;0;-179;4095;513;0.5709527;2.818377;-0.1051848;0.5769362;3.363661;-0.0893389;0.5821963;3.843025;-0.07743233;0.5762855;4.572778;-0.0007025599;0.3149396;4.899016;-0.004526347;-0.02517142;4.750199;0.043609;-0.4559211;3.939829;-0.08321762;-0.7844068;3.133994;-0.4580812;0.8352664;4.903234;-0.004526973;1.12536;4.759524;0.04360831;1.450103;3.854543;-0.01826167;1.764852;3.024408;-0.3493145;0.2587007;2.77654;-0.1141581;0.2110997;1.316065;-0.1890386;0;0;0;0.2587007;2.77654;-0.1141581;0.2110997;1.316065;-0.1890386;0;0;0
507218.7143;NotLabelled;NONE;16384;-0.09972299;0.04986149;-0.8571998;-0.5027701;-9;-18;6;272;3600;2047;65536;0.3739612;-0.2271468;0.7937908;0.4224377;26;-16;-12;-197;3454;-2543;8192;0.8179524;-0.5734072;0.04570637;-0.008310249;-3;19;-4;-458;3939;1605;32768;0.8058312;-0.4958449;0.3060942;0.1052632;35;19;38;1243;3643;-2690;256;0.4833795;-0.5354668;-0.4612188;-0.5166205;4;1;0;-133;4070;-331;128;0.3975069;-0.587847;-0.4473684;-0.5443213;-3;0;0;-377;4033;1102;4;-0.03601108;0;-0.7204986;-0.6925207;0;1;0;229;4110;138;16;0.4972299;-0.6452614;0.398892;0.4210526;0;0;0;423;4002;770;2;0.7096335;-0.700831;0.07202215;-0.008310249;0;3;-2;-421;4122;35;8;0.4210526;-0.4418283;0.5152354;0.6016934;0;2;0;-177;4107;533;0.5705477;2.818218;-0.1021863;0.5765308;3.363464;-0.08507878;0.5817906;3.842798;-0.07206306;0.5758799;4.572552;0.004666686;0.314534;4.89879;0.0008428693;-0.02557707;4.749973;0.04897824;-0.4567691;3.940124;-0.07965845;-0.7853667;3.139621;-0.4656826;0.8348608;4.903008;0.0008422136;1.124954;4.759297;0.04897749;1.450045;3.854611;-0.01531196;1.766281;3.029567;-0.3574874;0.258296;2.776402;-0.1112643;0.2110997;1.316065;-0.1890386;0;0;0;0.258296;2.776402;-0.1112643;0.2110997;1.316065;-0.1890386;0;0;0
507239.712;NotLabelled;NONE;16384;-0.101108;0.04570637;-0.8580799;-0.501385;-9;-14;12;380;3584;2037;65536;0.3767313;-0.2229917;0.7951273;0.4196676;27;-20;-12;-183;3516;-2595;8192;0.8198346;-0.5706371;0.04570637;-0.01246537;-11;8;-10;-716;3927;1859;32768;0.8068197;-0.4889196;0.3171745;0.09695291;33;-24;43;1273;3487;-2772;256;0.4833795;-0.5341271;-0.4612188;-0.5180055;5;2;0;-21;4030;-303;128;0.3975069;-0.587847;-0.4473684;-0.5443213;-3;1;0;-395;3997;1070;4;-0.03601108;0;-0.7204986;-0.6925207;0;1;1;259;4042;178;16;0.4972299;-0.6461155;0.3975069;0.4210526;0;1;0;397;3972;802;2;0.7097551;-0.700831;0.07063711;-0.009695291;0;3;-2;-425;4110;-29;8;0.4210526;-0.4418283;0.5152354;0.6016934;0;2;0;-139;4067;443;0.5761567;2.818007;-0.1018171;0.5821398;3.363253;-0.08470958;0.5873997;3.842587;-0.07169393;0.5833782;4.572144;0.007002473;0.3228773;4.899066;0.004063755;-0.01761702;4.751;0.05180527;-0.4518812;3.94293;-0.07767096;-0.780401;3.146463;-0.472024;0.8432133;4.901937;0.00406307;1.132935;4.757347;0.05180442;1.45836;3.852959;-0.0149312;1.777172;3.034674;-0.3706788;0.263905;2.77619;-0.1108951;0.2110996;1.316065;-0.1890388;0;0;0;0.263905;2.77619;-0.1108951;0.2110996;1.316065;-0.1890388;0;0;0
507260.7191;NotLabelled;NONE;16384;-0.1024931;0.04293629;-0.8580587;-0.501385;-8;-8;16;456;3600;2023;65536;0.3781163;-0.2174515;0.7967325;0.4182825;29;-22;-11;-267;3538;-2625;8192;0.8216309;-0.567867;0.04709141;-0.01523546;-17;4;-14;-716;3995;1923;32768;0.8070135;-0.4833795;0.3254848;0.09556787;30;-42;44;1163;3459;-2650;256;0.4819945;-0.5353772;-0.4612188;-0.5180055;5;3;1;7;4028;-291;128;0.3961219;-0.5874977;-0.4473684;-0.5457063;-3;2;0;-439;3951;1076;4;-0.03739612;0.001385042;-0.7204267;-0.6925207;0;1;1;187;4076;156;16;0.4972299;-0.6452614;0.398892;0.4210526;0;0;0;431;4006;782;2;0.7097551;-0.700831;0.07063711;-0.009695291;0;1;-1;-411;4074;27;8;0.4210526;-0.4418283;0.5152354;0.6016934;0;1;0;-213;4117;457;0.5759445;2.81758;-0.1053939;0.5819276;3.362826;-0.08828649;0.5871875;3.84216;-0.07527077;0.5812874;4.571705;0.003426909;0.3199455;4.897955;0.0004888177;-0.0201663;4.749013;0.04823016;-0.4566194;3.942971;-0.08643004;-0.7863841;3.151382;-0.4894691;0.8402723;4.902166;0.0004880428;1.130365;4.758323;0.04822922;1.461881;3.856565;-0.02392185;1.780517;3.050722;-0.4071658;0.2636928;2.775764;-0.1144719;0.2106635;1.315639;-0.1924639;0;0;0;0.2636928;2.775764;-0.1144719;0.2106635;1.315639;-0.1924639;0;0;0
507281.7251;NotLabelled;NONE;16384;-0.1066482;0.03739612;-0.8594247;-0.4986149;-9;-10;19;294;3648;2211;65536;0.3850415;-0.2049861;0.7988881;0.4141274;29;-13;-20;-455;3508;-2583;8192;0.8233196;-0.5650969;0.04986149;-0.01800554;-21;-1;-16;-608;3897;1773;32768;0.8061787;-0.4778393;0.33518;0.09695291;29;-56;44;1231;3479;-2530;256;0.4819945;-0.5341809;-0.4626039;-0.5180055;5;4;2;29;4090;-371;128;0.3961219;-0.5874977;-0.4473684;-0.5457063;-3;2;0;-423;3993;1070;4;-0.03739612;0.001385042;-0.7204267;-0.6925207;0;2;1;247;4038;132;16;0.4972299;-0.6461155;0.3975069;0.4210526;1;0;0;355;3968;776;2;0.7097349;-0.700831;0.07063711;-0.01108033;0;1;-1;-449;4106;35;8;0.4210526;-0.4418283;0.5152354;0.6016934;0;0;0;-225;4115;483;0.5755317;2.817992;-0.1023847;0.5815144;3.363197;-0.08401942;0.5867739;3.842499;-0.06989801;0.5827662;4.571843;0.01076078;0.3222695;4.898776;0.008715063;-0.01822424;4.750586;0.05607593;-0.4539882;3.944651;-0.08143172;-0.7836748;3.157261;-0.492675;0.8426054;4.901639;0.008694828;1.132327;4.756917;0.05603194;1.46987;3.85765;-0.01918256;1.789152;3.059427;-0.4175372;0.2632803;2.776196;-0.1115672;0.2105493;1.316066;-0.1896515;0;0;0;0.2632803;2.776196;-0.1115672;0.2105493;1.316066;-0.1896515;0;0;0
507302.8218;NotLabelled;NONE;16384;-0.1094183;0.033241;-0.8592472;-0.4986149;-9;-13;24;336;3612;2119;65536;0.3891967;-0.200831;0.7986467;0.4127424;30;-12;-25;-789;3460;-2459;8192;0.8250105;-0.5623268;0.05263158;-0.01939058;-23;-5;-19;-652;3959;1717;32768;0.8054026;-0.4709141;0.3462604;0.09833795;32;-72;53;2197;3627;-2374;256;0.4806094;-0.534084;-0.4626039;-0.5193906;5;4;2;-51;4078;-373;128;0.3961219;-0.5874977;-0.4473684;-0.5457063;-2;1;0;-391;4023;1072;4;-0.03878116;0.001385042;-0.7203535;-0.6925207;0;1;2;125;4080;178;16;0.4972299;-0.6452614;0.398892;0.4210526;0;0;0;415;3994;784;2;0.7097349;-0.700831;0.07063711;-0.01108033;0;1;-2;-455;4098;23;8;0.4210526;-0.4418283;0.5152354;0.6016934;1;1;0;-201;4097;453;0.5753491;2.817565;-0.1058697;0.5813318;3.36277;-0.08750433;0.5865912;3.842073;-0.07338285;0.582854;4.571622;0.005397797;0.3224804;4.898647;0.002496988;-0.01807147;4.750709;0.05022172;-0.4572673;3.948993;-0.1004081;-0.7837007;3.172425;-0.5342059;0.8428174;4.901316;0.002496183;1.132483;4.756608;0.05022073;1.475636;3.860379;-0.03518784;1.792364;3.068747;-0.4484572;0.2630976;2.77577;-0.1150519;0.2101698;1.315639;-0.1930029;0;0;0;0.2630976;2.77577;-0.1150519;0.2101698;1.315639;-0.1930029;0;0;0
507323.7083;NotLabelled;NONE;16384;-0.1121884;0.03047091;-0.8597952;-0.4972299;-9;-10;26;324;3544;2027;65536;0.3933518;-0.1952908;0.8001202;0.4085872;34;-9;-26;-245;3502;-3133;8192;0.8275191;-0.5581717;0.0567867;-0.02077562;-25;-10;-21;-594;3843;1627;32768;0.8034459;-0.4639889;0.3587258;0.1024931;34;-77;53;807;3657;-3282;256;0.4792244;-0.5353271;-0.4626039;-0.5193906;6;4;3;-53;4160;-445;128;0.3961219;-0.5874977;-0.4473684;-0.5457063;-1;1;-1;-343;4057;1202;4;-0.03878116;0.001385042;-0.7203535;-0.6925207;0;0;3;123;4152;168;16;0.4972299;-0.6452614;0.398892;0.4210526;1;1;0;413;4006;724;2;0.7097118;-0.700831;0.07063711;-0.01246537;0;1;-3;-395;4092;9;8;0.4224377;-0.4418283;0.5152354;0.6007218;2;1;0;-169;4073;495;0.5745224;2.817849;-0.1009047;0.580505;3.363054;-0.08253932;0.5857645;3.842356;-0.06841788;0.5820384;4.571692;0.01231951;0.3216693;4.898726;0.0102995;-0.01888395;4.750666;0.05763191;-0.457136;3.949763;-0.09991091;-0.7805699;3.176931;-0.5425367;0.8420064;4.901389;0.01029873;1.13167;4.756549;0.0576309;1.480251;3.863089;-0.03455245;1.794469;3.079785;-0.4652379;0.2622709;2.776053;-0.1100869;0.2095224;1.316066;-0.1907854;0;0;0;0.2622709;2.776053;-0.1100869;0.2095224;1.316066;-0.1907854;0;0;0
507343.7125;NotLabelled;NONE;16384;-0.1149584;0.02631579;-0.8603662;-0.4958449;-8;-10;27;466;3478;1999;65536;0.3975069;-0.1897507;0.8008092;0.4058172;39;-19;-26;-81;3466;-3115;8192;0.8315038;-0.5512465;0.06509695;-0.02216066;-28;-9;-24;-646;3901;1809;32768;0.8024938;-0.4473684;0.3808864;0.1038781;44;-55;55;1103;3359;-2970;256;0.4778393;-0.5352196;-0.4626039;-0.5207756;1;3;2;-135;4136;-541;128;0.3947368;-0.5884292;-0.4473684;-0.5457063;-1;-2;-2;-261;4075;1146;4;-0.0401662;0.001385042;-0.7202775;-0.6925207;-2;-1;4;129;4078;132;16;0.4972299;-0.6452614;0.398892;0.4210526;1;0;0;391;3980;792;2;0.7098227;-0.700831;0.06925207;-0.01385042;0;1;-3;-455;4082;59;8;0.4224377;-0.4418283;0.5152354;0.6007218;1;2;0;-215;4075;485;0.5745224;2.817849;-0.1009047;0.5805051;3.363054;-0.08253932;0.5857645;3.842357;-0.06841785;0.5839272;4.571482;0.01426977;0.3244056;4.899193;0.01312783;-0.01652953;4.751887;0.06006863;-0.4559675;3.953088;-0.1046796;-0.7792765;3.18795;-0.5605671;0.8447479;4.900507;0.01312727;1.134036;4.754792;0.06006801;1.490995;3.865505;-0.04005635;1.80133;3.089343;-0.4862088;0.2622709;2.776053;-0.110087;0.2095224;1.316066;-0.1907855;0;0;0;0.2622709;2.776053;-0.110087;0.2095224;1.316066;-0.1907855;0;0;0
507364.7043;NotLabelled;NONE;16384;-0.1177285;0.02216066;-0.8601086;-0.4958449;-8;-13;29;526;3628;2213;65536;0.4016621;-0.1828255;0.8017453;0.4030471;44;-21;-29;-563;3416;-3337;8192;0.8339446;-0.5470914;0.06786703;-0.02493075;-32;-1;-29;-792;3931;2029;32768;0.8008068;-0.4404432;0.3919668;0.1052632;43;-68;55;1581;3427;-2958;256;0.4778393;-0.5352196;-0.4626039;-0.5207756;0;2;2;-79;4132;-521;128;0.3961219;-0.5887812;-0.4473684;-0.5443213;0;-5;-2;-403;4023;1086;4;-0.0401662;0;-0.7202789;-0.6925207;-1;-2;5;163;4122;164;16;0.4972299;-0.6452614;0.398892;0.4210526;0;0;0;349;3972;774;2;0.7097943;-0.700831;0.06925207;-0.01523546;-1;1;-3;-463;4060;99;8;0.4224377;-0.4418283;0.5152354;0.6007218;2;2;-1;-135;4087;453;0.5737977;2.817679;-0.09865433;0.5797799;3.362839;-0.07899919;0.585039;3.842107;-0.06374389;0.5832136;4.571008;0.02088881;0.3236971;4.898726;0.020623;-0.01723991;4.7513;0.06717303;-0.4582788;3.954909;-0.1047921;-0.7805914;3.196075;-0.5717878;0.8440394;4.900033;0.02062231;1.133326;4.754187;0.06717217;1.503326;3.872148;-0.04850638;1.811062;3.116793;-0.5307143;0.2615465;2.775905;-0.1079436;0.2089715;1.316066;-0.1913891;0;0;0;0.2615465;2.775905;-0.1079436;0.2089715;1.316066;-0.1913891;0;0;0
507384.7086;NotLabelled;NONE;16384;-0.1246537;0.01108033;-0.860939;-0.4930748;-15;-16;35;828;3612;2467;65536;0.4113573;-0.1703601;0.8037073;0.3947368;48;-10;-31;-389;3320;-3479;8192;0.8371187;-0.5415512;0.07202215;-0.02770083;-35;-2;-32;-934;3903;2029;32768;0.7996981;-0.4307479;0.4044321;0.1066482;44;-75;57;1267;3357;-3570;256;0.4778393;-0.5352196;-0.4626039;-0.5207756;0;1;2;-109;4042;-481;128;0.3961219;-0.5887812;-0.4473684;-0.5443213;0;-5;-2;-353;4001;1126;4;-0.0401662;0;-0.7202789;-0.6925207;-2;-3;6;117;4116;96;16;0.4972299;-0.6452614;0.398892;0.4210526;1;-1;1;361;4014;786;2;0.7097943;-0.700831;0.06925207;-0.01523546;-1;0;-3;-441;4028;61;8;0.4238227;-0.4418283;0.5152354;0.5997454;3;1;0;-149;4063;473;0.5737151;2.81754;-0.09595144;0.5796977;3.362744;-0.07755122;0.5849572;3.842046;-0.06339908;0.5831318;4.570947;0.02123398;0.3236154;4.898664;0.02096832;-0.01732174;4.75124;0.06751822;-0.4569358;3.955853;-0.1125608;-0.7768091;3.204285;-0.5927947;0.8439577;4.899971;0.02096766;1.133244;4.754127;0.06751752;1.511556;3.876611;-0.05545199;1.815186;3.129985;-0.5535945;0.2614636;2.775745;-0.1051367;0.2089715;1.316066;-0.1913886;0;0;0;0.2614636;2.775745;-0.1051367;0.2089715;1.316066;-0.1913886;0;0;0
507404.7182;NotLabelled;NONE;16384;-0.1301939;0.005540166;-0.8617541;-0.4903047;-18;-15;42;994;3646;2441;65536;0.4155124;-0.1648199;0.8047544;0.3905817;49;-13;-31;-309;3316;-3719;8192;0.8393294;-0.5373961;0.07617728;-0.03047091;-38;-7;-33;-920;3887;2149;32768;0.7988064;-0.4210526;0.4155124;0.1094183;50;-71;59;1075;3279;-3322;256;0.4764543;-0.5364529;-0.4626039;-0.5207756;0;2;1;-95;4104;-471;128;0.3961219;-0.5900586;-0.4473684;-0.5429363;1;-5;-3;-333;3975;1204;4;-0.04155125;0;-0.7202004;-0.6925207;-2;-4;6;151;4096;160;16;0.4972299;-0.6452614;0.398892;0.4210526;2;-1;1;419;3946;770;2;0.7097632;-0.700831;0.06925207;-0.0166205;0;0;-3;-467;4152;19;8;0.4238227;-0.4404432;0.5152354;0.6007633;3;1;-1;-205;4087;437;0.5737151;2.81754;-0.09595144;0.5796977;3.362744;-0.07755122;0.5849572;3.842046;-0.06339908;0.5831318;4.570947;0.02123398;0.3236154;4.898664;0.02096832;-0.01732174;4.75124;0.06751822;-0.4582609;3.961776;-0.134097;-0.7749199;3.227723;-0.6427133;0.8439577;4.899971;0.02096766;1.133244;4.754127;0.06751752;1.52237;3.882731;-0.06487226;1.823755;3.148174;-0.5819604;0.2614636;2.775745;-0.1051367;0.2089715;1.316066;-0.1913886;0;0;0;0.2614636;2.775745;-0.1051367;0.2089715;1.316066;-0.1913886;0;0;0
507425.7434;NotLabelled;NONE;16384;-0.1357341;0;-0.8624884;-0.4875346;-22;-13;47;986;3654;2431;65536;0.4210526;-0.1578947;0.8059323;0.3850415;52;-19;-30;-423;3298;-3615;8192;0.8422271;-0.5318559;0.08171745;-0.033241;-46;-5;-38;-1096;4009;2335;32768;0.7970839;-0.4113573;0.4279778;0.1108033;46;-71;57;873;3079;-3212;256;0.4764543;-0.5364529;-0.4626039;-0.5207756;3;2;1;-95;4110;-489;128;0.3975069;-0.5901757;-0.4459834;-0.5429363;0;-9;-3;-375;4039;1194;4;-0.04155125;0;-0.7215296;-0.6911357;-1;-3;4;255;4080;192;16;0.4972299;-0.6444032;0.400277;0.4210526;2;-3;1;381;4014;780;2;0.7097632;-0.700831;0.06925207;-0.0166205;-1;-1;-3;-481;4106;69;8;0.4252077;-0.4404432;0.5152354;0.5997838;3;0;-2;-213;4087;443;0.5732979;2.81738;-0.09304988;0.5792806;3.362582;-0.07461387;0.5845401;3.841884;-0.06043017;0.5845979;4.57056;0.02614224;0.325929;4.898946;0.02675045;-0.01538791;4.752279;0.07291013;-0.4583414;3.96771;-0.1428994;-0.7743009;3.24223;-0.6640965;0.8462729;4.898908;0.02674979;1.135181;4.752192;0.07290947;1.532063;3.885798;-0.06893349;1.832352;3.162223;-0.6019009;0.2610464;2.775585;-0.1022381;0.2089715;1.316065;-0.1913888;0;0;0;0.2610464;2.775585;-0.1022381;0.2089715;1.316065;-0.1913888;0;0;0
507445.7091;NotLabelled;NONE;16384;-0.1426593;-0.005540166;-0.8629143;-0.4847645;-22;-13;53;1082;3534;2429;65536;0.4252077;-0.1495845;0.8073094;0.3808864;54;-34;-28;-459;3278;-3761;8192;0.849227;-0.5180055;0.09418282;-0.0401662;-50;-17;-49;-1426;3841;2125;32768;0.7933689;-0.3933518;0.4501385;0.1149584;47;-70;53;1045;3213;-3824;256;0.4764543;-0.5364529;-0.4626039;-0.5207756;3;1;2;-85;4138;-539;128;0.3975069;-0.5914468;-0.4459834;-0.5415512;-1;-10;-3;-415;3999;1076;4;-0.04293629;-0.001385042;-0.7214472;-0.6911357;-2;-4;5;305;4026;170;16;0.4972299;-0.6444032;0.400277;0.4210526;2;-2;1;363;4030;740;2;0.7097294;-0.700831;0.06925207;-0.01800554;-1;-1;-3;-469;4120;55;8;0.4252077;-0.4390582;0.5166205;0.5996079;4;1;-2;-239;4103;403;0.578815;2.817569;-0.08988714;0.5847976;3.362768;-0.0713411;0.5900571;3.842065;-0.05706072;0.5901149;4.570741;0.02951175;0.3314461;4.899127;0.03011996;-0.009870887;4.752461;0.07627963;-0.4546984;3.972984;-0.1536599;-0.7695405;3.258888;-0.6910043;0.85179;4.899089;0.0301193;1.140698;4.752375;0.07627892;1.547686;3.892677;-0.0772016;1.843893;3.181414;-0.6287023;0.2665636;2.775776;-0.0990845;0.2088878;1.316486;-0.1885626;0;0;0;0.2665636;2.775776;-0.0990845;0.2088878;1.316486;-0.1885626;0;0;0
507468.8496;NotLabelled;NONE;16384;-0.1495845;-0.01246537;-0.863221;-0.4819945;-23;-12;58;1036;3592;2237;65536;0.4279778;-0.1385041;0.8097686;0.3767313;56;-47;-28;-705;3214;-3579;8192;0.8532171;-0.5096953;0.1024931;-0.04155125;-53;-27;-52;-1340;3883;2059;32768;0.7925561;-0.3836565;0.4598338;0.1149584;53;-58;52;1073;3323;-3748;256;0.4750692;-0.5351372;-0.4639889;-0.5221606;2;1;2;-71;3978;-495;128;0.398892;-0.5928221;-0.4445983;-0.5401662;1;-8;-4;-433;3935;1082;4;-0.04293629;-0.002770083;-0.7214432;-0.6911357;-2;-4;4;297;4040;146;16;0.4972299;-0.6435407;0.4016621;0.4210526;3;-2;1;451;3958;778;2;0.711058;-0.699446;0.06925207;-0.01939058;-2;-1;-3;-479;4140;127;8;0.4252077;-0.4390582;0.5166205;0.5996079;4;1;-2;-243;4105;385;0.5783038;2.817228;-0.08418155;0.5842864;3.362426;-0.0656004;0.5895458;3.841722;-0.05128914;0.5896037;4.570398;0.03528333;0.3309348;4.898785;0.03589147;-0.01038212;4.752118;0.08205115;-0.4561525;3.978143;-0.1640814;-0.7699275;3.274851;-0.7160988;0.8512787;4.898746;0.03589088;1.140187;4.752031;0.08205044;1.571844;3.909749;-0.09825015;1.859557;3.220253;-0.6810062;0.2660524;2.775435;-0.09338179;0.208888;1.316487;-0.1885627;0;0;0;0.2660524;2.775435;-0.09338179;0.208888;1.316487;-0.1885627;0;0;0
507489.7097;NotLabelled;NONE;16384;-0.1648199;-0.02631579;-0.863211;-0.4764543;-24;-12;67;980;3602;2385;65536;0.434903;-0.1135734;0.8131444;0.3698061;63;-48;-41;-1869;3240;-3699;8192;0.856033;-0.5027701;0.1121884;-0.04293629;-53;-30;-56;-1066;3909;1929;32768;0.7917048;-0.3739612;0.4695291;0.1135734;58;-43;51;1201;3269;-3774;256;0.4736842;-0.5375586;-0.4626039;-0.5221606;4;-1;2;-29;3994;-457;128;0.398892;-0.5940812;-0.4445983;-0.5387812;0;-9;-4;-391;3933;1140;4;-0.04293629;-0.002770083;-0.7214432;-0.6911357;-2;-3;4;373;4042;210;16;0.4972299;-0.6435407;0.4016621;0.4210526;3;-4;1;409;3982;748;2;0.711058;-0.699446;0.06925207;-0.01939058;-1;0;-2;-561;4078;73;8;0.4265928;-0.4390582;0.5166205;0.5986233;4;1;-2;-193;4135;379;0.5781374;2.817481;-0.07784471;0.5841199;3.362674;-0.05912715;0.5893793;3.841967;-0.04469591;0.5892496;4.570615;0.04211026;0.3307098;4.899103;0.04141185;-0.01091153;4.752556;0.08565989;-0.4562383;3.984981;-0.1805009;-0.7710444;3.294632;-0.7480511;0.8510459;4.89886;0.04425246;1.13964;4.752017;0.0919416;1.585828;3.920145;-0.1008825;1.871575;3.243854;-0.6998535;0.265886;2.775691;-0.08705629;0.2088046;1.316949;-0.1854018;0;0;0;0.265886;2.775691;-0.08705629;0.2088046;1.316949;-0.1854018;0;0;0
507510.7067;NotLabelled;NONE;16384;-0.1745152;-0.03462604;-0.8632954;-0.4722992;-28;-17;75;1158;3506;2469;65536;0.4404432;-0.1024931;0.8135136;0.365651;66;-27;-50;-2199;3246;-3901;8192;0.8595932;-0.4944598;0.1204986;-0.04570637;-52;-23;-61;-970;3819;1899;32768;0.7911994;-0.365651;0.4778393;0.1094183;65;-28;53;1407;3265;-3850;256;0.4736842;-0.5375586;-0.4626039;-0.5221606;6;-2;2;-45;4050;-515;128;0.400277;-0.5954374;-0.4432133;-0.5373961;1;-8;-4;-381;3933;1140;4;-0.04432133;-0.004155125;-0.7213528;-0.6911357;-1;-3;4;331;4026;150;16;0.4958449;-0.6437434;0.4030471;0.4210526;3;-3;1;445;3986;730;2;0.711058;-0.699446;0.06925207;-0.01939058;0;0;-2;-595;4040;59;8;0.4265928;-0.4376731;0.5166205;0.5996367;4;1;-2;-261;4057;337;0.5778823;2.817458;-0.07930532;0.5838649;3.36265;-0.06055206;0.5891243;3.841942;-0.04608959;0.5910726;4.570146;0.04434592;0.333257;4.899195;0.04669556;-0.008440138;4.753172;0.09207672;-0.4556662;3.998777;-0.2065979;-0.7697119;3.335274;-0.8057112;0.8535991;4.897807;0.04669487;1.142125;4.7501;0.09207594;1.597021;3.928009;-0.1212608;1.878333;3.265852;-0.7378638;0.265631;2.775669;-0.08851974;0.2082664;1.316902;-0.1863346;0;0;0;0.265631;2.775669;-0.08851974;0.2082664;1.316902;-0.1863346;0;0;0
507531.4817;NotLabelled;NONE;16384;-0.1842105;-0.04293629;-0.863171;-0.468144;-32;-14;82;1320;3448;2437;65536;0.4487534;-0.09279778;0.8132188;0.3587258;73;-18;-58;-1689;3232;-4363;8192;0.86198;-0.4875346;0.1301939;-0.04847645;-51;-15;-68;-950;3707;1901;32768;0.7913049;-0.3559557;0.4861496;0.1038781;73;-23;58;1799;3325;-4258;256;0.4736842;-0.5387474;-0.4612188;-0.5221606;10;-5;1;-1;4000;-483;128;0.400277;-0.5966846;-0.4432133;-0.536011;0;-10;-4;-379;3855;1174;4;-0.04432133;-0.004155125;-0.7213528;-0.6911357;0;-3;3;333;4056;214;16;0.4972299;-0.6418035;0.4044321;0.4210526;3;-1;0;421;3990;680;2;0.7110189;-0.699446;0.06925207;-0.02077562;-1;0;-1;-611;4124;79;8;0.4279778;-0.4376731;0.5166205;0.5986489;3;1;-1;-259;4047;359;0.5810749;2.816523;-0.07337415;0.5870574;3.361711;-0.05449349;0.5923167;3.841;-0.03991902;0.5942651;4.569203;0.05051619;0.3364496;4.898253;0.05286613;-0.005247441;4.752229;0.09824792;-0.4530838;4.007484;-0.2228831;-0.7632678;3.358182;-0.8393169;0.8567916;4.896863;0.05286449;1.145318;4.749156;0.09824502;1.61294;3.938586;-0.1310563;1.891427;3.291219;-0.7644205;0.2688235;2.774736;-0.08259918;0.2119648;1.316343;-0.1861154;0;0;0;0.2688235;2.774736;-0.08259918;0.2119648;1.316343;-0.1861154;0;0;0
507551.7124;NotLabelled;NONE;16384;-0.1952908;-0.05124654;-0.8625251;-0.4639889;-34;-7;87;1390;3440;2575;65536;0.4584487;-0.08310249;0.8124824;0.3504155;79;-7;-65;-1993;3212;-3869;8192;0.8640184;-0.4806094;0.1398892;-0.05401662;-51;-3;-73;-918;3571;1995;32768;0.7921094;-0.3448753;0.4944598;0.09556787;85;-13;58;1255;3313;-4826;256;0.4722992;-0.539962;-0.4612188;-0.5221606;12;-5;1;-3;3856;-431;128;0.4016621;-0.5980221;-0.4418283;-0.534626;0;-11;-4;-359;3907;1140;4;-0.04570637;-0.005540166;-0.721257;-0.6911357;-1;-4;3;353;4032;194;16;0.4972299;-0.6418035;0.4044321;0.4210526;2;-3;0;509;3966;716;2;0.7109771;-0.699446;0.06925207;-0.02216066;0;-3;-2;-739;4030;121;8;0.4279778;-0.4362881;0.5180055;0.598463;2;0;-1;-299;4107;287;0.5774213;2.817896;-0.06723511;0.5834037;3.363082;-0.04831862;0.588663;3.842371;-0.03371251;0.5903251;4.57034;0.05860072;0.3323804;4.899281;0.06179729;-0.009259685;4.753006;0.1067994;-0.4555302;4.018519;-0.2391769;-0.7590403;3.386724;-0.8767613;0.8527229;4.898096;0.06179649;1.141306;4.750385;0.1067983;1.619155;3.950566;-0.1386088;1.897877;3.321045;-0.7896125;0.26517;2.77611;-0.07646316;0.2085766;1.317717;-0.1801254;0;0;0;0.26517;2.77611;-0.07646316;0.2085766;1.317717;-0.1801254;0;0;0
507572.7173;NotLabelled;NONE;16384;-0.2063712;-0.05955679;-0.8623739;-0.4584487;-39;-3;96;1604;3488;2695;65536;0.468144;-0.07479224;0.8113022;0.3421052;80;-1;-64;-1141;3264;-4447;8192;0.8679339;-0.4653739;0.1578947;-0.07202215;-57;19;-91;-1424;3887;2501;32768;0.7929578;-0.3199446;0.5124654;0.07894737;106;-22;61;1513;3515;-4892;256;0.4722992;-0.5434837;-0.4570637;-0.5221606;15;-7;0;59;3902;-495;128;0.4030471;-0.5993471;-0.4404432;-0.533241;-5;-12;-3;-437;3885;1142;4;-0.04570637;-0.005540166;-0.7225816;-0.6897507;-2;-6;3;397;4078;232;16;0.4972299;-0.6409287;0.4058172;0.4210526;2;-3;0;405;3958;650;2;0.7109771;-0.699446;0.06925207;-0.02216066;0;-3;-2;-703;4022;97;8;0.4279778;-0.4362881;0.5180055;0.598463;1;0;-1;-271;4063;343;0.5768894;2.817498;-0.06152815;0.5828719;3.36268;-0.04249364;0.5881311;3.841965;-0.02778393;0.5916605;4.569681;0.06645256;0.334561;4.899272;0.07051671;-0.007454034;4.753758;0.11513;-0.4532863;4.030375;-0.2540303;-0.7506489;3.418592;-0.9136469;0.8548988;4.896753;0.07051593;1.143102;4.748184;0.1151291;1.628853;3.960329;-0.1524625;1.907459;3.353046;-0.8243076;0.2646381;2.775714;-0.07076585;0.2085768;1.317717;-0.1801261;0;0;0;0.2646381;2.775714;-0.07076585;0.2085768;1.317717;-0.1801261;0;0;0
507593.6976;NotLabelled;NONE;16384;-0.2202216;-0.06786703;-0.8619878;-0.4515235;-40;0;103;1712;3506;2687;65536;0.4778393;-0.06509695;0.8105156;0.33241;85;-3;-63;-1295;3532;-4713;8192;0.8695403;-0.4570637;0.16759;-0.08310249;-62;21;-95;-1518;3863;2531;32768;0.794036;-0.3060942;0.5207756;0.06786703;115;-9;59;1115;3339;-4718;256;0.4709141;-0.5445151;-0.4556787;-0.5235457;16;-7;-1;31;3920;-531;128;0.4030471;-0.6003624;-0.4390582;-0.533241;-5;-10;-2;-389;3971;1208;4;-0.04570637;-0.006925208;-0.7225697;-0.6897507;-3;-7;3;429;4040;150;16;0.4972299;-0.6409287;0.4058172;0.4210526;2;-2;0;399;3980;660;2;0.7109326;-0.699446;0.06925207;-0.0235457;0;-4;-2;-717;4062;89;8;0.4293629;-0.4362881;0.5180055;0.59747;1;0;-1;-329;4073;273;0.5829044;2.817646;-0.05628937;0.5888868;3.362824;-0.03714615;0.5941461;3.842107;-0.02234083;0.59675;4.569078;0.07749557;0.3392326;4.898304;0.08408728;-0.002598833;4.752017;0.1275661;-0.4459338;4.041838;-0.2692067;-0.7313793;3.449459;-0.9514136;0.8595731;4.896443;0.08408684;1.147963;4.747901;0.1275656;1.654937;3.989112;-0.1814506;1.937287;3.431616;-0.8936762;0.2706531;2.775863;-0.06553628;0.2098411;1.318115;-0.1756834;0;0;0;0.2706531;2.775863;-0.06553628;0.2098411;1.318115;-0.1756834;0;0;0
507614.71;NotLabelled;NONE;16384;-0.2493075;-0.08448754;-0.8597382;-0.4376731;-48;10;107;1488;3574;2927;65536;0.4986149;-0.04432133;0.8081857;0.3102493;99;-4;-70;-1461;3614;-4767;8192;0.8712451;-0.4473684;0.1786704;-0.09418282;-62;19;-99;-1578;3747;2641;32768;0.7956482;-0.2922437;0.5277008;0.05540166;122;-4;60;1389;3443;-4850;256;0.4695291;-0.5468635;-0.4542936;-0.5235457;13;-6;0;77;4050;-547;128;0.4030471;-0.6025982;-0.4376731;-0.5318559;-7;-9;-2;-371;3891;1178;4;-0.04570637;-0.008310249;-0.7225551;-0.6897507;-2;-8;3;431;4082;122;16;0.4972299;-0.6409287;0.4058172;0.4210526;1;-3;0;423;3996;654;2;0.7107963;-0.699446;0.07063711;-0.0235457;0;-5;-2;-723;4088;109;8;0.4293629;-0.4362881;0.5180055;0.59747;1;0;0;-273;4099;331;0.5827778;2.817413;-0.05348229;0.5887596;3.362541;-0.0329572;0.5940185;3.841784;-0.0169369;0.5963128;4.568229;0.08667183;0.3386559;4.897307;0.09496757;-0.00311416;4.750651;0.1376801;-0.4462942;4.05677;-0.2871132;-0.726216;3.487197;-0.9906953;0.8589972;4.895667;0.09496719;1.147449;4.747022;0.1376797;1.663967;4.005567;-0.1965777;1.947019;3.477949;-0.9309403;0.2705268;2.775654;-0.06284377;0.2097763;1.318116;-0.1757607;0;0;0;0.2705268;2.775654;-0.06284377;0.2097763;1.318116;-0.1757607;0;0;0
507635.9704;NotLabelled;NONE;16384;-0.2631579;-0.09141274;-0.8590921;-0.4293629;-52;7;109;1362;3550;2997;65536;0.5096953;-0.03185596;0.8065486;0.2977839;105;-12;-77;-1409;3556;-4797;8192;0.8718614;-0.4390582;0.1897507;-0.1052632;-65;17;-101;-1636;3721;2687;32768;0.7963134;-0.2770083;0.536011;0.04293629;131;-2;59;1151;3469;-4972;256;0.4695291;-0.5478291;-0.4515235;-0.5249307;16;-6;-1;-23;4000;-649;128;0.4030471;-0.6036017;-0.4362881;-0.5318559;-6;-9;-1;-393;3943;1334;4;-0.04570637;-0.01108033;-0.7225179;-0.6897507;-3;-9;2;543;4080;148;16;0.4958449;-0.6411231;0.4072022;0.4210526;0;-3;0;425;4004;614;2;0.7107963;-0.699446;0.07063711;-0.0235457;0;-5;-2;-649;4094;155;8;0.4293629;-0.4362881;0.5180055;0.59747;0;0;0;-313;4101;325;0.5828263;2.817174;-0.04989111;0.5888076;3.362247;-0.02795166;0.594066;3.841446;-0.01068807;0.5978652;4.567338;0.09668303;0.3408917;4.896903;0.1066795;-0.001183216;4.750738;0.1486262;-0.4385916;4.092119;-0.3343061;-0.7035499;3.575017;-1.082772;0.8612285;4.894183;0.1066788;1.14937;4.744721;0.1486254;1.677336;4.02355;-0.2111503;1.964993;3.527452;-0.9654247;0.2705756;2.775439;-0.05936956;0.210219;1.318115;-0.1752309;0;0;0;0.2705756;2.775439;-0.05936956;0.210219;1.318115;-0.1752309;0;0;0
507657.7;NotLabelled;NONE;16384;-0.2770083;-0.101108;-0.858442;-0.4196676;-58;1;111;1242;3476;3023;65536;0.5193906;-0.01800554;0.8048045;0.2867036;112;-22;-82;-1275;3580;-4937;8192;0.8734792;-0.4279778;0.200831;-0.1163435;-67;12;-103;-1552;3519;2663;32768;0.7988449;-0.2603878;0.5415512;0.02770083;141;9;60;1073;3277;-5272;256;0.468144;-0.5488244;-0.4501385;-0.5263157;18;-6;0;-45;4012;-659;128;0.4030471;-0.6046004;-0.434903;-0.5318559;-7;-8;-2;-403;3911;1312;4;-0.04570637;-0.01246537;-0.7238151;-0.6883656;-2;-7;3;605;3990;196;16;0.4958449;-0.6402414;0.4085872;0.4210526;0;-3;0;447;3942;616;2;0.7106573;-0.699446;0.07202215;-0.0235457;0;-6;-2;-579;4042;111;8;0.4293629;-0.434903;0.5180055;0.598479;0;-1;0;-295;4101;327;0.5864165;2.816144;-0.04335535;0.5923972;3.36116;-0.02004141;0.597655;3.840314;-0.001569331;0.5989428;4.565662;0.109483;0.340831;4.89428;0.1211443;-0.0007367856;4.746722;0.1623397;-0.4362687;4.10739;-0.3474595;-0.6918747;3.621412;-1.119657;0.861174;4.89336;0.1211439;1.14983;4.744684;0.1623394;1.686016;4.042937;-0.2227967;1.975832;3.58125;-0.9978068;0.274166;2.774433;-0.05294786;0.2142847;1.317555;-0.1745182;0;0;0;0.274166;2.774433;-0.05294786;0.2142847;1.317555;-0.1745182;0;0;0
507677.7102;NotLabelled;NONE;16384;-0.2908587;-0.1108033;-0.8573486;-0.4099723;-64;-3;111;1384;3210;3037;65536;0.5304709;-0.001385042;0.8021172;0.2742382;120;-30;-86;-1217;3584;-4889;8192;0.8754449;-0.4058172;0.2229917;-0.1385041;-77;14;-106;-1524;3345;3037;32768;0.8012989;-0.2257618;0.5540166;-0.004155125;155;7;66;1383;3257;-5140;256;0.4653739;-0.5543386;-0.4445983;-0.5277008;19;-7;0;-27;3942;-795;128;0.4016621;-0.6075014;-0.432133;-0.5318559;-5;-5;-2;-407;3833;1298;4;-0.04570637;-0.01246537;-0.7238151;-0.6883656;-1;-6;3;575;4020;174;16;0.4958449;-0.6402414;0.4085872;0.4210526;0;-1;0;419;3976;618;2;0.7104683;-0.699446;0.0734072;-0.02493075;1;-5;-1;-593;4090;111;8;0.4293629;-0.434903;0.5180055;0.598479;0;-1;0;-273;4101;339;0.5917403;2.816012;-0.03736699;0.5977203;3.360967;-0.01268244;0.6029776;3.840074;0.006994665;0.603928;4.56484;0.1217854;0.3456636;4.893274;0.1351387;0.004164083;4.745346;0.1755695;-0.4318383;4.129263;-0.3617129;-0.6802684;3.674215;-1.154815;0.866007;4.892594;0.1351382;1.154732;4.743843;0.1755692;1.702056;4.065829;-0.2355379;1.997966;3.643157;-1.030254;0.2794901;2.774326;-0.04707286;0.2140962;1.317948;-0.1717614;0;0;0;0.2794901;2.774326;-0.04707286;0.2140962;1.317948;-0.1717614;0;0;0
507698.4042;NotLabelled;NONE;16384;-0.3047091;-0.1204986;-0.8564565;-0.398892;-69;-1;111;1548;3134;3153;65536;0.5415512;0.01385042;0.7987524;0.2617728;127;-37;-90;-1159;3514;-5069;8192;0.8768013;-0.3919668;0.234072;-0.1509695;-85;20;-107;-1702;3339;3193;32768;0.801451;-0.2063712;0.5609418;-0.02077562;159;3;66;1119;3299;-4932;256;0.4653739;-0.5552324;-0.4418283;-0.5290859;21;-7;-1;43;3882;-889;128;0.4016621;-0.6084843;-0.4307479;-0.5318559;-5;-5;-1;-423;3839;1304;4;-0.04570637;-0.01385042;-0.7237899;-0.6883656;-1;-4;2;511;3980;160;16;0.4958449;-0.6402414;0.4085872;0.4210526;0;0;0;447;3990;666;2;0.7104683;-0.699446;0.0734072;-0.02493075;0;-3;-1;-575;4082;99;8;0.4293629;-0.434903;0.5180055;0.598479;0;-2;0;-231;4089;413;0.5920622;2.815939;-0.03507304;0.59804;3.360696;-0.006339133;0.6032955;3.839643;0.0168981;0.6045679;4.562568;0.1427591;0.3464505;4.890875;0.1611283;0.004883579;4.7425;0.1992855;-0.4263707;4.150479;-0.3680411;-0.6593487;3.732167;-1.18568;0.8667935;4.889963;0.1611279;1.155451;4.74048;0.199285;1.725677;4.112569;-0.257708;2.034921;3.774052;-1.086903;0.2798127;2.774326;-0.04511392;0.2152934;1.317948;-0.1702579;0;0;0;0.2798127;2.774326;-0.04511392;0.2152934;1.317948;-0.1702579;0;0;0
507718.7064;NotLabelled;NONE;16384;-0.3310249;-0.1398892;-0.8549892;-0.3739612;-83;4;108;1842;2942;3209;65536;0.5637119;0.05263158;0.7903602;0.234072;142;-35;-97;-1147;3410;-5301;8192;0.8776203;-0.3781163;0.2451524;-0.1634349;-91;16;-104;-1860;3159;3227;32768;0.8017094;-0.1869806;0.566482;-0.03739612;162;4;68;923;3163;-4866;256;0.4639889;-0.5572637;-0.4390582;-0.5304709;25;-8;0;-45;3960;-865;128;0.4016621;-0.6084843;-0.4307479;-0.5318559;-4;-7;0;-417;3879;1378;4;-0.04709141;-0.01523546;-0.7236733;-0.6883656;0;-2;1;573;3992;220;16;0.4958449;-0.6402414;0.4085872;0.4210526;0;0;0;463;4018;706;2;0.71061;-0.699446;0.07202215;-0.02493075;0;-4;-1;-571;4056;81;8;0.4279778;-0.434903;0.5180055;0.5994703;0;-1;0;-215;4137;407;0.5920125;2.815677;-0.03162163;0.5979895;3.360361;-0.001527607;0.6032444;3.839248;0.02290529;0.6019369;4.561536;0.15237;0.3426491;4.888825;0.1723739;0.00161439;4.739043;0.2097877;-0.4285503;4.173589;-0.3848125;-0.6490253;3.791499;-1.22338;0.862992;4.88977;0.1723735;1.152182;4.74113;0.2097872;1.736135;4.144055;-0.2706008;2.049117;3.852645;-1.116125;0.2797633;2.774089;-0.04177491;0.2156312;1.317948;-0.1698299;0;0;0;0.2797633;2.774089;-0.04177491;0.2156312;1.317948;-0.1698299;0;0;0
507738.7237;NotLabelled;NONE;16384;-0.3434903;-0.1509695;-0.8541328;-0.3601108;-88;-5;104;1896;2776;3325;65536;0.5734072;0.07202215;0.7865951;0.2174515;147;-28;-98;-1009;3280;-5481;8192;0.8790268;-0.3628809;0.2562327;-0.1731302;-100;0;-99;-1822;3173;3257;32768;0.8013097;-0.166205;0.5720221;-0.05540166;165;1;67;957;2975;-4758;256;0.4626039;-0.560581;-0.4362881;-0.5304709;22;-9;0;-55;4070;-937;128;0.4016621;-0.6094624;-0.4293629;-0.5318559;-2;-6;0;-385;3977;1408;4;-0.04709141;-0.01523546;-0.7236733;-0.6883656;0;-1;0;595;4032;252;16;0.4958449;-0.6402414;0.4085872;0.4210526;0;0;0;467;4014;670;2;0.71061;-0.699446;0.07202215;-0.02493075;0;-3;0;-597;4052;117;8;0.4279778;-0.434903;0.5193906;0.5982706;0;0;0;-207;4131;365;0.5914228;2.815195;-0.02539629;0.5973997;3.359879;0.00469768;0.6026547;3.838767;0.02913058;0.6005469;4.560051;0.1640659;0.3408958;4.886889;0.1865536;2.867077E-05;4.736449;0.2228359;-0.4299385;4.229321;-0.4223607;-0.6263;3.934891;-1.301309;0.8612374;4.888413;0.1865529;1.150593;4.739817;0.2228351;1.748074;4.174579;-0.2789588;2.066031;3.930586;-1.137539;0.2791736;2.773607;-0.03554948;0.2159614;1.317948;-0.1694097;0;0;0;0.2791736;2.773607;-0.03554948;0.2159614;1.317948;-0.1694097;0;0;0
507759.7126;NotLabelled;NONE;16384;-0.3545706;-0.1620499;-0.8533014;-0.3462604;-96;-10;101;1940;2628;3497;65536;0.5844875;0.09141274;0.7808233;0.200831;152;-25;-94;-833;3054;-5399;8192;0.8811728;-0.3462604;0.265928;-0.1814404;-107;-11;-95;-1996;2889;3173;32768;0.8000531;-0.1454294;0.5775623;-0.07202215;168;-1;64;781;2813;-4966;256;0.4612188;-0.5625554;-0.433518;-0.5318559;22;-9;-1;41;4144;-1029;128;0.4016621;-0.6116397;-0.4279778;-0.5304709;-2;-5;0;-361;4025;1426;4;-0.04709141;-0.01523546;-0.7236733;-0.6883656;0;0;0;555;4004;186;16;0.4958449;-0.6402414;0.4085872;0.4210526;0;0;0;417;4000;660;2;0.7119707;-0.6980609;0.07202215;-0.02493075;0;-2;0;-585;4092;117;8;0.4279778;-0.434903;0.5193906;0.5982706;0;1;0;-241;4099;341;0.5915918;2.81517;-0.02392799;0.597568;3.359777;0.007522285;0.6028222;3.838603;0.03314769;0.601637;4.55885;0.1735247;0.3424037;4.88584;0.198485;0.001345268;4.735566;0.2336381;-0.4287077;4.261223;-0.4359764;-0.6131906;4.015275;-1.332231;0.8627468;4.886699;0.1984844;1.151913;4.737464;0.2336371;1.763181;4.205204;-0.2872504;2.087943;4.01281;-1.156332;0.279343;2.773608;-0.03419322;0.2167817;1.317948;-0.1683588;0;0;0;0.279343;2.773608;-0.03419322;0.2167817;1.317948;-0.1683588;0;0;0
507780.7042;NotLabelled;NONE;16384;-0.3642659;-0.1745152;-0.8528056;-0.3310249;-104;-9;96;2166;2454;3637;65536;0.5927978;0.1108033;0.7764588;0.1828255;156;-17;-91;-1031;2932;-5187;8192;0.8855508;-0.3102493;0.2853186;-0.1952908;-112;-17;-84;-1900;2629;3457;32768;0.7975122;-0.101108;0.5858725;-0.1024931;168;-11;61;863;2463;-4642;256;0.4598338;-0.5645027;-0.4307479;-0.533241;21;-8;-3;49;4172;-1135;128;0.4016621;-0.6116397;-0.4279778;-0.5304709;-1;-3;-1;-435;4013;1438;4;-0.04847645;-0.01523546;-0.7235819;-0.6883656;0;1;0;519;4020;190;16;0.4958449;-0.6402414;0.4085872;0.4210526;0;1;0;391;3984;688;2;0.7119208;-0.6980609;0.07202215;-0.02631579;0;0;0;-575;4026;77;8;0.4279778;-0.434903;0.5193906;0.5982706;0;0;0;-311;4077;337;0.5916554;2.815144;-0.02328801;0.5976305;3.359668;0.009551942;0.6028841;3.838427;0.03639907;0.6008362;4.557596;0.1821904;0.3412105;4.884078;0.209613;0.0003337646;4.733133;0.2436386;-0.4310538;4.291613;-0.4472262;-0.6018432;4.095625;-1.358388;0.8615522;4.885562;0.2096125;1.150898;4.736414;0.2436383;1.777221;4.238285;-0.2928894;2.104367;4.096558;-1.170771;0.2794067;2.773608;-0.03366807;0.2170977;1.317948;-0.167951;0;0;0;0.2794067;2.773608;-0.03366807;0.2170977;1.317948;-0.167951;0;0;0
507801.7129;NotLabelled;NONE;16384;-0.3739612;-0.1855956;-0.8525592;-0.3144044;-111;1;91;2354;2378;3579;65536;0.602493;0.1288089;0.7702239;0.1648199;160;-11;-89;-1107;2702;-4969;8192;0.8878581;-0.2908587;0.2936288;-0.2022161;-121;-20;-77;-1612;2479;3409;32768;0.7949789;-0.07756232;0.5900277;-0.1177285;172;-9;60;745;2307;-4452;256;0.4570637;-0.5683162;-0.4252077;-0.536011;17;-4;-4;59;4130;-1279;128;0.4016621;-0.6116397;-0.4279778;-0.5304709;4;0;0;-389;4131;1512;4;-0.04847645;-0.01523546;-0.7235819;-0.6883656;0;1;0;413;4110;158;16;0.4972299;-0.6400766;0.4085872;0.4196676;0;2;0;465;4014;686;2;0.7120596;-0.6980609;0.07063711;-0.02631579;0;0;1;-567;4110;129;8;0.4279778;-0.434903;0.5193906;0.5982706;0;0;0;-291;4107;373;0.5911545;2.814898;-0.01988196;0.5971298;3.359423;0.01295787;0.6023833;3.838181;0.039805;0.5994484;4.556233;0.1909829;0.3394191;4.882179;0.2208573;-0.001269355;4.73056;0.2537578;-0.4365246;4.324748;-0.4563117;-0.5995343;4.180138;-1.378435;0.8597586;4.884309;0.220857;1.14929;4.735268;0.2537576;1.80359;4.309902;-0.3112466;2.135311;4.270823;-1.197938;0.2789059;2.773362;-0.03026208;0.2174066;1.317948;-0.1675511;0;0;0;0.2789059;2.773362;-0.03026208;0.2174066;1.317948;-0.1675511;0;0;0
507821.8249;NotLabelled;NONE;16384;-0.3905817;-0.2022161;-0.8547435;-0.2756233;-132;30;75;2242;2124;3479;65536;0.6177285;0.1648199;0.7587538;0.1246537;162;-1;-82;-1071;2410;-4641;8192;0.8911868;-0.2714681;0.299169;-0.2063712;-127;-18;-66;-1472;2149;3259;32768;0.7924605;-0.05401662;0.5927978;-0.132964;172;-7;60;631;2059;-4312;256;0.4556787;-0.5701831;-0.4224377;-0.5373961;16;-1;-5;53;4250;-1257;128;0.4016621;-0.6106683;-0.4293629;-0.5304709;8;3;0;-485;4193;1518;4;-0.04847645;-0.01523546;-0.7235819;-0.6883656;1;1;-1;421;4064;164;16;0.4958449;-0.6411501;0.4085872;0.4196676;-1;1;0;493;4006;718;2;0.7121431;-0.6980609;0.06925207;-0.02770083;0;2;0;-549;4106;103;8;0.4279778;-0.434903;0.5193906;0.5982706;0;0;1;-273;4121;389;0.5904325;2.815541;-0.01483327;0.5964077;3.360066;0.01800674;0.6016613;3.838825;0.04485399;0.5968822;4.554533;0.2067211;0.3360129;4.879323;0.2414679;-0.004278604;4.726348;0.2721247;-0.4425751;4.357746;-0.4561317;-0.5916415;4.264168;-1.387163;0.8563452;4.8828;0.2414678;1.146265;4.734036;0.2721249;1.816633;4.347435;-0.3018278;2.150305;4.362155;-1.188526;0.2781838;2.774005;-0.02521342;0.2171749;1.318592;-0.162721;0;0;0;0.2781838;2.774005;-0.02521342;0.2171749;1.318592;-0.162721;0;0;0
507843.9313;NotLabelled;NONE;16384;-0.3975069;-0.2077562;-0.8570778;-0.2534626;-139;37;66;2096;1830;3389;65536;0.6232687;0.1814404;0.7537312;0.1024931;164;5;-78;-1085;2144;-4299;8192;0.8941728;-0.2520775;0.3033241;-0.2119114;-132;-13;-59;-1530;1923;3099;32768;0.7899171;-0.03185596;0.5941828;-0.1481994;173;-8;57;657;1799;-4100;256;0.4542936;-0.5710051;-0.4210526;-0.5387812;13;1;-4;-11;4252;-1177;128;0.4030471;-0.6087774;-0.4307479;-0.5304709;10;8;0;-433;4237;1548;4;-0.04847645;-0.01385042;-0.7236097;-0.6883656;1;2;-2;395;3952;190;16;0.4958449;-0.6411501;0.4085872;0.4196676;0;1;0;415;4006;700;2;0.7121431;-0.6980609;0.06925207;-0.02770083;0;3;0;-565;4084;79;8;0.4279778;-0.434903;0.5193906;0.5982706;0;0;1;-221;4095;385;0.5943506;2.814613;-0.01695293;0.6003267;3.359217;0.01453477;0.6055809;3.838042;0.04019302;0.5998465;4.552523;0.2073632;0.3385414;4.876693;0.2445303;-0.001541585;4.723037;0.2740689;-0.4559178;4.432307;-0.4791553;-0.5897173;4.44594;-1.417083;0.8588685;4.880872;0.2445302;1.148991;4.732276;0.274069;1.835522;4.381594;-0.303833;2.170235;4.449777;-1.187635;0.2821018;2.773051;-0.02722144;0.2213303;1.317638;-0.1648341;0;0;0;0.2821018;2.773051;-0.02722144;0.2213303;1.317638;-0.1648341;0;0;0
507864.8773;NotLabelled;NONE;16384;-0.4030471;-0.2132964;-0.8593935;-0.2313019;-146;40;57;1956;1522;3279;65536;0.6288089;0.1952908;0.7481866;0.08171745;164;13;-73;-977;1918;-3955;8192;0.8966762;-0.232687;0.3074792;-0.2174515;-132;-8;-56;-1616;1627;3155;32768;0.7869962;-0.01108033;0.5955678;-0.1606648;169;-7;53;625;1421;-3784;256;0.4529086;-0.5718159;-0.4196676;-0.5401662;11;3;-4;-19;4224;-1181;128;0.4030471;-0.6077951;-0.432133;-0.5304709;10;8;0;-453;4071;1404;4;-0.04986149;-0.01246537;-0.7235408;-0.6883656;0;4;-2;515;4030;226;16;0.4972299;-0.6409586;0.4072022;0.4196676;0;2;0;445;4000;662;2;0.7122212;-0.6980609;0.06786703;-0.02908587;-1;5;1;-511;4054;49;8;0.4279778;-0.434903;0.5193906;0.5982706;0;1;0;-243;4095;395;0.594514;2.814915;-0.02013636;0.6004918;3.359668;0.008673906;0.6057472;3.838612;0.03197825;0.5995507;4.552247;0.2027138;0.3380343;4.876055;0.2415093;-0.001946316;4.72203;0.270294;-0.4680372;4.471964;-0.4903344;-0.5990679;4.539799;-1.426297;0.8583585;4.880577;0.2415092;1.148579;4.732026;0.2702942;1.849765;4.41802;-0.3110952;2.184045;4.537141;-1.189648;0.2822646;2.773304;-0.03018364;0.2212237;1.317638;-0.1649769;0;0;0;0.2822646;2.773304;-0.03018364;0.2212237;1.317638;-0.1649769;0;0;0
507885.713;NotLabelled;NONE;16384;-0.4058172;-0.2174515;-0.8630554;-0.2077562;-153;40;49;1802;1224;3153;65536;0.632964;0.2063712;0.7436758;0.06094183;165;16;-67;-803;1626;-3441;8192;0.9019939;-0.1925208;0.3116343;-0.2285319;-141;-10;-39;-1520;1257;3169;32768;0.7799715;0.02908587;0.5969529;-0.1855956;165;-6;46;271;877;-3232;256;0.4515235;-0.5716012;-0.4196676;-0.5415512;7;5;-3;-35;4072;-1145;128;0.4030471;-0.6080159;-0.433518;-0.5290859;12;10;0;-485;3993;1422;4;-0.04986149;-0.01108033;-0.7235633;-0.6883656;0;4;-4;543;4030;228;16;0.4958449;-0.6420307;0.4072022;0.4196676;-1;2;0;425;3952;648;2;0.7122939;-0.6980609;0.06648199;-0.03047091;-1;6;1;-525;4058;87;8;0.4293629;-0.434903;0.5193906;0.5972774;0;1;0;-235;4145;383;0.5903999;2.815517;-0.02068055;0.5963784;3.36034;0.006770611;0.6016346;3.839341;0.02887982;0.5949727;4.552111;0.2031695;0.3332435;4.875549;0.2435896;-0.006633726;4.721157;0.2716213;-0.4845954;4.511552;-0.4938507;-0.6106025;4.62833;-1.425667;0.8535646;4.880415;0.2435891;1.143885;4.731915;0.2716209;1.858242;4.455122;-0.3126352;2.190077;4.619863;-1.184721;0.2781502;2.77388;-0.03061529;0.2174263;1.318208;-0.165475;0;0;0;0.2781502;2.77388;-0.03061529;0.2174263;1.318208;-0.165475;0;0;0
507906.7034;NotLabelled;NONE;16384;-0.4085872;-0.2229917;-0.8656775;-0.1842105;-152;37;42;1698;1016;2999;65536;0.6357341;0.2202216;0.7387363;0.0401662;162;13;-61;-723;1314;-3055;8192;0.9046665;-0.1703601;0.3116343;-0.2354571;-143;-10;-32;-1650;1007;3061;32768;0.7764626;0.05124654;0.5955678;-0.199446;159;-11;38;319;477;-3056;256;0.4501385;-0.5710774;-0.4182825;-0.5443213;3;6;-2;-35;4030;-1169;128;0.4030471;-0.6040274;-0.4390582;-0.5290859;16;11;-1;-475;4019;1248;4;-0.04986149;-0.01108033;-0.7235633;-0.6883656;1;6;-4;495;4084;196;16;0.4958449;-0.6420307;0.4072022;0.4196676;0;3;0;483;4004;724;2;0.7124864;-0.6980609;0.06371191;-0.03185596;-2;8;2;-589;4084;11;8;0.4293629;-0.434903;0.5193906;0.5972774;0;3;0;-177;4095;361;0.5943409;2.814829;-0.02690446;0.6003201;3.359717;-0.0007786751;0.6055769;3.838771;0.02016532;0.5989658;4.551089;0.1962934;0.3372586;4.874439;0.237554;-0.002627942;4.719997;0.2651954;-0.4978778;4.550688;-0.4992591;-0.6227353;4.712273;-1.424515;0.8575799;4.879271;0.2375538;1.147892;4.73068;0.2651953;1.888545;4.52962;-0.3172835;2.212077;4.782503;-1.171195;0.282091;2.773169;-0.0367296;0.2207919;1.317248;-0.168625;0;0;0;0.282091;2.773169;-0.0367296;0.2207919;1.317248;-0.168625;0;0;0
507927.7282;NotLabelled;NONE;16384;-0.4085872;-0.2368421;-0.8707242;-0.1371191;-151;23;27;1444;476;2723;65536;0.6371191;0.2520775;0.7283791;0;159;-2;-52;-573;858;-2397;8192;0.9073534;-0.1495845;0.3102493;-0.2409972;-144;-12;-26;-1666;843;3051;32768;0.7729413;0.07202215;0.5941828;-0.2105263;153;-15;31;257;223;-2840;256;0.4501385;-0.5700603;-0.4196676;-0.5443213;0;5;-3;-59;4090;-1065;128;0.4030471;-0.6030182;-0.4404432;-0.5290859;13;6;-1;-445;3989;1214;4;-0.05124654;-0.008310249;-0.7235036;-0.6883656;1;8;-5;473;4062;252;16;0.4972299;-0.6409586;0.4072022;0.4196676;0;4;0;465;4000;718;2;0.7125456;-0.6980609;0.06232687;-0.033241;-1;9;2;-567;4050;19;8;0.4293629;-0.434903;0.5193906;0.5972774;0;4;0;-255;4143;307;0.594213;2.814926;-0.02833635;0.6001948;3.36005;-0.007700145;0.6054536;3.839289;0.008417666;0.5966633;4.5507;0.1880859;0.3339749;4.87305;0.2309052;-0.005449093;4.717448;0.257714;-0.5188922;4.597885;-0.5041322;-0.6448069;4.806895;-1.419696;0.8542794;4.879451;0.2310271;1.145033;4.731601;0.2579837;1.896992;4.578135;-0.3244952;2.216447;4.878578;-1.164418;0.281962;2.77317;-0.03770679;0.2202063;1.317249;-0.169389;0;0;0;0.281962;2.77317;-0.03770679;0.2202063;1.317249;-0.169389;0;0;0
