SEP=;
index;label;segment;RightUpperArm_boneIndex;RightUpperArm_quat9x_w;RightUpperArm_quat9x_x;RightUpperArm_quat9x_y;RightUpperArm_quat9x_z;RightUpperArm_gyroscope_x;RightUpperArm_gyroscope_y;RightUpperArm_gyroscope_z;RightUpperArm_accelerometer_x;RightUpperArm_accelerometer_y;RightUpperArm_accelerometer_z;RightLowerArm_boneIndex;RightLowerArm_quat9x_w;RightLowerArm_quat9x_x;RightLowerArm_quat9x_y;RightLowerArm_quat9x_z;RightLowerArm_gyroscope_x;RightLowerArm_gyroscope_y;RightLowerArm_gyroscope_z;RightLowerArm_accelerometer_x;RightLowerArm_accelerometer_y;RightLowerArm_accelerometer_z;LeftUpperArm_boneIndex;LeftUpperArm_quat9x_w;LeftUpperArm_quat9x_x;LeftUpperArm_quat9x_y;LeftUpperArm_quat9x_z;LeftUpperArm_gyroscope_x;LeftUpperArm_gyroscope_y;LeftUpperArm_gyroscope_z;LeftUpperArm_accelerometer_x;LeftUpperArm_accelerometer_y;LeftUpperArm_accelerometer_z;LeftLowerArm_boneIndex;LeftLowerArm_quat9x_w;LeftLowerArm_quat9x_x;LeftLowerArm_quat9x_y;LeftLowerArm_quat9x_z;LeftLowerArm_gyroscope_x;LeftLowerArm_gyroscope_y;LeftLowerArm_gyroscope_z;LeftLowerArm_accelerometer_x;LeftLowerArm_accelerometer_y;LeftLowerArm_accelerometer_z;Chest_boneIndex;Chest_quat9x_w;Chest_quat9x_x;Chest_quat9x_y;Chest_quat9x_z;Chest_gyroscope_x;Chest_gyroscope_y;Chest_gyroscope_z;Chest_accelerometer_x;Chest_accelerometer_y;Chest_accelerometer_z;Spine_boneIndex;Spine_quat9x_w;Spine_quat9x_x;Spine_quat9x_y;Spine_quat9x_z;Spine_gyroscope_x;Spine_gyroscope_y;Spine_gyroscope_z;Spine_accelerometer_x;Spine_accelerometer_y;Spine_accelerometer_z;RightUpperLeg_boneIndex;RightUpperLeg_quat9x_w;RightUpperLeg_quat9x_x;RightUpperLeg_quat9x_y;RightUpperLeg_quat9x_z;RightUpperLeg_gyroscope_x;RightUpperLeg_gyroscope_y;RightUpperLeg_gyroscope_z;RightUpperLeg_accelerometer_x;RightUpperLeg_accelerometer_y;RightUpperLeg_accelerometer_z;RightLowerLeg_boneIndex;RightLowerLeg_quat9x_w;RightLowerLeg_quat9x_x;RightLowerLeg_quat9x_y;RightLowerLeg_quat9x_z;RightLowerLeg_gyroscope_x;RightLowerLeg_gyroscope_y;RightLowerLeg_gyroscope_z;RightLowerLeg_accelerometer_x;RightLowerLeg_accelerometer_y;RightLowerLeg_accelerometer_z;LeftUpperLeg_boneIndex;LeftUpperLeg_quat9x_w;LeftUpperLeg_quat9x_x;LeftUpperLeg_quat9x_y;LeftUpperLeg_quat9x_z;LeftUpperLeg_gyroscope_x;LeftUpperLeg_gyroscope_y;LeftUpperLeg_gyroscope_z;LeftUpperLeg_accelerometer_x;LeftUpperLeg_accelerometer_y;LeftUpperLeg_accelerometer_z;LeftLowerLeg_boneIndex;LeftLowerLeg_quat9x_w;LeftLowerLeg_quat9x_x;LeftLowerLeg_quat9x_y;LeftLowerLeg_quat9x_z;LeftLowerLeg_gyroscope_x;LeftLowerLeg_gyroscope_y;LeftLowerLeg_gyroscope_z;LeftLowerLeg_accelerometer_x;LeftLowerLeg_accelerometer_y;LeftLowerLeg_accelerometer_z;pelvis_x;pelvis_y;pelvis_z;lowerSpine_x;lowerSpine_y;lowerSpine_z;middleSpine_x;middleSpine_y;middleSpine_z;upperSpine_x;upperSpine_y;upperSpine_z;rightClavicle_x;rightClavicle_y;rightClavicle_z;rightShoulder_x;rightShoulder_y;rightShoulder_z;rightElbow_x;rightElbow_y;rightElbow_z;rightWrist_x;rightWrist_y;rightWrist_z;leftClavicle_x;leftClavicle_y;leftClavicle_z;leftShoulder_x;leftShoulder_y;leftShoulder_z;leftElbow_x;leftElbow_y;leftElbow_z;leftWrist_x;leftWrist_y;leftWrist_z;rightHip_x;rightHip_y;rightHip_z;rightKnee_x;rightKnee_y;rightKnee_z;rightAnkle_x;rightAnkle_y;rightAnkle_z;leftHip_x;leftHip_y;leftHip_z;leftKnee_x;leftKnee_y;leftKnee_z;leftAnkle_x;leftAnkle_y;leftAnkle_z;
840238.7398;NotLabelled;NONE;16384;-0.2576177;-0.4210526;-0.8344148;0.2451524;-7;-4;2;2506;-2612;2213;65536;0.4930748;0.4556787;0.589792;-0.4487534;2;42;3;-356;-3980;-891;8192;0.8325033;0.3047091;0.2063712;-0.4141274;0;-8;2;-2406;-2883;1843;32768;0.6222553;0.4764543;0.4501385;-0.4279778;-2;12;-2;413;-4193;-814;256;0.4501385;-0.5415512;-0.4390582;-0.5579655;0;0;-1;-17;3928;-833;128;0.4252077;-0.5917727;-0.4542936;-0.5124654;-7;0;1;-429;4129;902;4;-0.04155125;0.01800554;-0.7239489;-0.6883656;1;4;0;219;4068;240;16;0.5055401;-0.6261997;0.4141274;0.4252077;0;0;0;377;3988;604;2;0.7125174;-0.699446;0.01800554;-0.05263158;0;1;0;-429;4056;57;8;0.4030471;-0.4238227;0.5373961;0.607563;1;0;0;-69;4091;413;0.5545411;2.82925;-0.09735483;0.5605245;3.374498;-0.11441;0.5657833;3.853707;-0.1314232;0.5465688;4.571;0.02214795;0.2792128;4.890859;0.05311263;-0.05794444;4.73144;0.0855121;-0.7519796;5.310701;-0.1172203;-0.8580199;6.238313;-0.2787343;0.7993699;4.904796;0.05311221;1.092212;4.762255;0.08551168;1.794744;5.414244;-0.01263726;1.92685;6.341591;-0.1553323;0.2422842;2.786954;-0.1035836;0.1700524;1.326462;-0.1546189;0;0;0;0.2422842;2.786954;-0.1035836;0.1700524;1.326462;-0.1546189;0;0;0
840259.7469;NotLabelled;NONE;16384;-0.2576177;-0.4224377;-0.833306;0.2465374;-5;-8;3;2464;-2770;1925;65536;0.4903047;0.4529086;0.5921162;-0.4515235;7;19;4;-80;-4160;-631;8192;0.8325033;0.3047091;0.2063712;-0.4141274;0;5;-3;-2298;-2811;1915;32768;0.6204925;0.4736842;0.4515235;-0.432133;0;25;0;649;-4129;-576;256;0.4501385;-0.5415512;-0.4390582;-0.5579655;2;0;-2;-151;4046;-853;128;0.4252077;-0.5916333;-0.4529086;-0.5138504;-7;1;1;-403;4135;782;4;-0.04293629;0.01800554;-0.7238681;-0.6883656;1;4;0;177;4138;246;16;0.5055401;-0.6261997;0.4141274;0.4252077;0;0;0;403;4056;514;2;0.7125174;-0.699446;0.01800554;-0.05263158;0;1;1;-429;4074;15;8;0.4030471;-0.4238227;0.5373961;0.607563;1;0;0;-145;4121;329;0.5542107;2.829247;-0.0971072;0.5601946;3.374535;-0.1128051;0.5654537;3.853784;-0.1286254;0.5462392;4.571077;0.0249458;0.2788832;4.890936;0.05591044;-0.05827402;4.731517;0.08830991;-0.7522818;5.311123;-0.1135266;-0.8588277;6.238458;-0.2763072;0.7990405;4.904873;0.05591005;1.091882;4.762333;0.08830953;1.795549;5.413418;-0.007695436;1.927777;6.340311;-0.1532004;0.2419539;2.786966;-0.1034497;0.1700523;1.326462;-0.1546189;0;0;0;0.2419539;2.786966;-0.1034497;0.1700523;1.326462;-0.1546189;0;0;0
840280.7394;NotLabelled;NONE;16384;-0.2590028;-0.4224377;-0.8324653;0.2479224;-3;-6;5;2484;-2712;1963;65536;0.4875346;0.4529086;0.5933444;-0.4529086;10;7;5;-310;-4054;-945;8192;0.8316503;0.3060942;0.2077562;-0.4141274;-1;6;-6;-2452;-2755;1943;32768;0.6175842;0.4722992;0.4542936;-0.434903;3;33;2;763;-3935;-810;256;0.4501385;-0.5415512;-0.4376731;-0.5590526;2;-1;-1;-187;4116;-911;128;0.4252077;-0.592691;-0.4515235;-0.5138504;-5;1;0;-347;4029;912;4;-0.04293629;0.01939058;-0.7238323;-0.6883656;0;6;0;227;4060;186;16;0.5055401;-0.6261997;0.4141274;0.4252077;0;1;0;409;4032;514;2;0.7124138;-0.699446;0.01800554;-0.05401662;0;1;1;-515;4058;21;8;0.4030471;-0.4238227;0.5373961;0.607563;1;0;1;-147;4155;301;0.553892;2.829141;-0.09406644;0.5598763;3.374467;-0.1083874;0.5651359;3.853755;-0.1229976;0.5459213;4.571048;0.03057319;0.2785654;4.890907;0.06153774;-0.05859189;4.731488;0.09393725;-0.7513206;5.313392;-0.1056697;-0.8582954;6.240845;-0.2674884;0.7987226;4.904844;0.06153733;1.091565;4.762303;0.0939368;1.795231;5.413387;-0.002068162;1.930091;6.34011;-0.1462374;0.2416354;2.786876;-0.1005243;0.1700524;1.326462;-0.1546195;0;0;0;0.2416354;2.786876;-0.1005243;0.1700524;1.326462;-0.1546195;0;0;0
840301.8847;NotLabelled;NONE;16384;-0.2590028;-0.4238227;-0.831761;0.2479224;-2;-7;7;2608;-2616;1993;65536;0.4861496;0.4542936;0.5923624;-0.4542936;11;5;7;-194;-4008;-833;8192;0.8316503;0.3060942;0.2077562;-0.4141274;0;5;-7;-2538;-2783;1897;32768;0.6147057;0.4695291;0.4570637;-0.4390582;6;36;2;771;-4159;-934;256;0.4501385;-0.5415512;-0.4362881;-0.5601342;3;-2;0;-159;3956;-903;128;0.4238227;-0.5936822;-0.4515235;-0.5138504;-6;0;0;-379;4053;962;4;-0.04432133;0.01939058;-0.7237489;-0.6883656;0;7;0;137;4090;236;16;0.5055401;-0.6261997;0.4141274;0.4252077;-1;0;0;303;3994;556;2;0.7124138;-0.699446;0.01800554;-0.05401662;1;1;0;-515;4028;3;8;0.4030471;-0.4238227;0.5373961;0.607563;0;0;0;-79;4087;313;0.5538691;2.829226;-0.09674203;0.5598537;3.374587;-0.1096613;0.5651137;3.853911;-0.1230395;0.5441317;4.570768;0.03232509;0.2759856;4.889884;0.06410682;-0.06077287;4.72955;0.09613013;-0.750911;5.314292;-0.1041557;-0.8606194;6.241974;-0.262789;0.7961066;4.905111;0.0641067;1.089303;4.763216;0.09613037;1.790235;5.417134;-0.0006245375;1.922828;6.344279;-0.144184;0.2416127;2.786978;-0.1033173;0.1700523;1.326462;-0.1546189;0;0;0;0.2416127;2.786978;-0.1033173;0.1700523;1.326462;-0.1546189;0;0;0
840321.7442;NotLabelled;NONE;16384;-0.2603878;-0.4252077;-0.8306209;0.2479224;-1;-8;7;2424;-2586;2169;65536;0.4847645;0.4542936;0.5924337;-0.4556787;8;2;8;-332;-4120;-665;8192;0.8306116;0.3060942;0.2091413;-0.4155124;-2;4;-8;-2446;-2753;2067;32768;0.6127992;0.466759;0.4584487;-0.4432133;7;34;-1;235;-4285;-846;256;0.4501385;-0.5415512;-0.4362881;-0.5601342;0;-1;0;-75;3972;-903;128;0.4238227;-0.5924806;-0.4515235;-0.5152354;-3;1;1;-397;4023;904;4;-0.04432133;0.02077562;-0.7237104;-0.6883656;0;6;2;91;4032;252;16;0.5055401;-0.6261997;0.4141274;0.4252077;-1;0;0;413;4060;546;2;0.7124138;-0.699446;0.01800554;-0.05401662;1;0;0;-525;4076;49;8;0.4030471;-0.4224377;0.5373961;0.6085268;0;0;1;-113;4049;347;0.5535286;2.82912;-0.09372795;0.5595136;3.374511;-0.1052914;0.5647739;3.853867;-0.1174778;0.5420468;4.570281;0.03967875;0.2731178;4.888652;0.0723047;-0.06323703;4.727405;0.1039882;-0.7534354;5.311992;-0.09654081;-0.8632953;6.240475;-0.2503176;0.7931995;4.905166;0.07224923;1.086753;4.763918;0.1038662;1.787651;5.417593;0.005245566;1.920393;6.344816;-0.1376646;0.2412723;2.786888;-0.1004164;0.1700359;1.326463;-0.1546366;0;0;0;0.2412723;2.786888;-0.1004164;0.1700359;1.326463;-0.1546366;0;0;0
840341.9699;NotLabelled;NONE;16384;-0.2617728;-0.4265928;-0.8290593;0.2493075;-6;-3;4;2260;-2614;2281;65536;0.4819945;0.4556787;0.5936289;-0.4556787;0;0;10;-148;-4026;-537;8192;0.8297497;0.3074792;0.2105263;-0.4155124;-5;3;-9;-2406;-2703;2103;32768;0.6097881;0.4653739;0.4598338;-0.4473684;3;21;-5;567;-4401;-318;256;0.4501385;-0.5429363;-0.4362881;-0.5587918;0;0;0;-135;4002;-1011;128;0.4238227;-0.5924806;-0.4515235;-0.5152354;-3;1;1;-373;4053;954;4;-0.04570637;0.02077562;-0.7236242;-0.6883656;0;0;2;83;4134;136;16;0.5041551;-0.6273153;0.4141274;0.4252077;-1;0;0;463;4028;540;2;0.7124138;-0.699446;0.01800554;-0.05401662;1;-4;-1;-475;4076;11;8;0.4030471;-0.4224377;0.5373961;0.6085268;0;-2;0;-111;4139;341;0.5535161;2.829222;-0.09649986;0.5595012;3.374613;-0.1080928;0.5647614;3.853968;-0.1203054;0.5420177;4.570382;0.03684872;0.2730852;4.888753;0.06944609;-0.06327298;4.727506;0.101094;-0.7520981;5.313824;-0.09910476;-0.8620795;6.242731;-0.25021;0.7931669;4.905267;0.06944585;1.086717;4.764019;0.1010939;1.786511;5.418996;0.00327611;1.921791;6.346068;-0.1382281;0.2412599;2.786991;-0.1031861;0.1700522;1.326462;-0.1546187;0;0;0;0.2412599;2.786991;-0.1031861;0.1700522;1.326462;-0.1546187;0;0;0
840362.7375;NotLabelled;NONE;16384;-0.2631579;-0.4265928;-0.8282027;0.2506925;-8;-2;3;2282;-2636;2071;65536;0.4806094;0.4570637;0.5936871;-0.4556787;0;0;13;-152;-4016;-549;8192;0.8283648;0.3102493;0.2119114;-0.4155124;-9;-1;-12;-2262;-2735;1929;32768;0.6108677;0.4639889;0.4584487;-0.4487534;-6;-5;-6;595;-4329;-78;256;0.4501385;-0.5429363;-0.4362881;-0.5587918;0;-1;-1;-189;4032;-955;128;0.4238227;-0.5935336;-0.4501385;-0.5152354;-3;1;1;-373;4033;984;4;-0.04709141;0.02077562;-0.7235354;-0.6883656;0;-2;2;97;4126;228;16;0.5041551;-0.6273153;0.4141274;0.4252077;-1;0;0;419;4090;556;2;0.7124138;-0.699446;0.01800554;-0.05401662;2;-4;-1;-473;4144;23;8;0.4016621;-0.4224377;0.5387812;0.6082178;0;-1;0;-143;4059;415;0.5572262;2.828312;-0.0956918;0.5632112;3.373703;-0.1072848;0.5684716;3.853058;-0.1194973;0.5474603;4.569527;0.03764516;0.2792985;4.888548;0.07023752;-0.05744867;4.728116;0.1018881;-0.7430508;5.317609;-0.1000414;-0.8576359;6.246428;-0.2482362;0.7994187;4.903805;0.0702368;1.092626;4.761848;0.1018871;1.789957;5.419648;0.005427361;1.925715;6.34724;-0.1321541;0.2449699;2.78608;-0.1023779;0.1742668;1.325641;-0.156948;0;0;0;0.2449699;2.78608;-0.1023779;0.1742668;1.325641;-0.156948;0;0;0
840382.8241;NotLabelled;NONE;16384;-0.2631579;-0.4265928;-0.8277823;0.2520775;-8;-4;4;2340;-2748;2059;65536;0.4792244;0.4570637;0.5958642;-0.4542936;0;-5;13;-354;-3996;-489;8192;0.8280163;0.3130194;0.2119114;-0.4141274;-12;-3;-14;-2396;-2691;1929;32768;0.6119173;0.4626039;0.4584487;-0.4487534;-14;-5;-10;895;-4413;-214;256;0.4501385;-0.5429363;-0.4362881;-0.5587918;0;-1;0;-111;3890;-875;128;0.4224377;-0.5945202;-0.4501385;-0.5152354;-5;1;0;-421;3917;920;4;-0.04709141;0.01939058;-0.7235739;-0.6883656;0;-4;2;157;4112;196;16;0.5041551;-0.6273153;0.4141274;0.4252077;-1;-1;0;357;4016;598;2;0.7123774;-0.699446;0.01939058;-0.05401662;1;-4;-1;-419;4082;71;8;0.4016621;-0.4224377;0.5387812;0.6082178;0;0;0;-159;4135;377;0.5568651;2.8282;-0.09265289;0.5628504;3.373619;-0.1028464;0.5681111;3.853004;-0.1138288;0.5470998;4.569473;0.04331344;0.278938;4.888494;0.07590571;-0.05780923;4.728061;0.1075564;-0.7407643;5.320381;-0.09507316;-0.8578618;6.249316;-0.240554;0.7990582;4.903751;0.07590497;1.092265;4.761794;0.1075553;1.785198;5.42432;0.01175392;1.92581;6.35129;-0.1251466;0.244609;2.785986;-0.09945613;0.1742668;1.325642;-0.1569484;0;0;0;0.244609;2.785986;-0.09945613;0.1742668;1.325642;-0.1569484;0;0;0
840403.9403;NotLabelled;NONE;16384;-0.2631579;-0.4279778;-0.8266436;0.2534626;-5;-4;4;2400;-2666;2005;65536;0.4792244;0.4598338;0.5947863;-0.4529086;0;-11;14;-418;-4064;-635;8192;0.8271354;0.3144044;0.2132964;-0.4141274;-15;-2;-20;-2520;-2665;1985;32768;0.6139954;0.4612188;0.4570637;-0.4487534;-16;-12;-14;859;-4385;-518;256;0.4515235;-0.5429363;-0.434903;-0.558754;1;0;0;-93;3884;-915;128;0.4224377;-0.5943652;-0.4487534;-0.5166205;-4;2;0;-343;3895;994;4;-0.04709141;0.01939058;-0.7235739;-0.6883656;0;-3;2;159;4028;164;16;0.5041551;-0.6273153;0.4141274;0.4252077;-1;-1;0;377;4000;642;2;0.7110149;-0.700831;0.01939058;-0.05401662;1;-4;0;-373;4078;37;8;0.4016621;-0.4224377;0.5387812;0.6082178;0;-2;1;-99;4149;387;0.5568794;2.828069;-0.08974433;0.562865;3.373512;-0.09858418;0.5681258;3.852922;-0.1083769;0.5471147;4.569392;0.04876536;0.2789528;4.888413;0.08135766;-0.05779433;4.72798;0.1130083;-0.7394543;5.32223;-0.08832633;-0.8614684;6.250281;-0.2354002;0.7990731;4.903669;0.08135688;1.092281;4.761713;0.1130073;1.781914;5.427894;0.01875353;1.924947;6.35418;-0.1202493;0.2446235;2.785872;-0.09666079;0.1742667;1.325642;-0.1569483;0;0;0;0.2446235;2.785872;-0.09666079;0.1742667;1.325642;-0.1569483;0;0;0
840424.7291;NotLabelled;NONE;16384;-0.2631579;-0.4279778;-0.8266436;0.2534626;-5;-4;5;2416;-2606;1957;65536;0.4778393;0.4612188;0.5969272;-0.4501385;0;-14;18;-500;-4120;-427;8192;0.8258786;0.3185596;0.2146814;-0.4127424;-17;0;-28;-2622;-2727;2029;32768;0.6180965;0.4584487;0.4556787;-0.4473684;-18;-16;-25;643;-4497;-328;256;0.4515235;-0.5429363;-0.434903;-0.558754;3;0;1;-213;3828;-855;128;0.4224377;-0.5943652;-0.4487534;-0.5166205;-4;1;0;-395;4003;900;4;-0.04570637;0.01939058;-0.7236627;-0.6883656;-1;-3;1;195;4062;186;16;0.5027701;-0.6265703;0.4155124;0.4265928;-1;-2;0;385;4026;646;2;0.7110149;-0.700831;0.01939058;-0.05401662;1;-4;0;-421;4052;85;8;0.4016621;-0.4224377;0.5387812;0.6082178;0;-2;1;-187;4047;361;0.55712;2.828052;-0.08901998;0.5631058;3.373515;-0.09649304;0.5683669;3.852949;-0.1050844;0.5451922;4.569362;0.05201006;0.2760684;4.887574;0.08458039;-0.06019286;4.726127;0.1162411;-0.7400437;5.322643;-0.08450681;-0.8640645;6.250721;-0.2297224;0.7961401;4.904401;0.08457971;1.089775;4.763332;0.1162403;1.776837;5.432302;0.02297592;1.92504;6.357621;-0.1170539;0.2448643;2.785872;-0.0960508;0.1746583;1.325641;-0.1565132;0;0;0;0.2448643;2.785872;-0.0960508;0.1746583;1.325641;-0.1565132;0;0;0
840445.7425;NotLabelled;NONE;16384;-0.265928;-0.4307479;-0.8238879;0.2548476;-5;-9;11;2408;-2592;2063;65536;0.4764543;0.468144;0.5957611;-0.4459834;-5;-23;20;-432;-4156;-357;8192;0.824771;0.3213296;0.2174515;-0.4113573;-18;-1;-34;-2710;-2759;2091;32768;0.623161;0.4556787;0.4529086;-0.4459834;-22;-22;-34;585;-4369;-332;256;0.4501385;-0.5443213;-0.434903;-0.558524;4;0;0;-227;3962;-791;128;0.4224377;-0.5943652;-0.4487534;-0.5166205;-5;1;1;-361;4047;950;4;-0.04709141;0.01800554;-0.7236097;-0.6883656;0;0;0;237;4136;218;16;0.5027701;-0.6265703;0.4155124;0.4265928;-1;-1;0;377;4082;548;2;0.7110149;-0.700831;0.01939058;-0.05401662;1;-3;0;-431;4080;25;8;0.400277;-0.4224377;0.5387812;0.6091302;-1;-2;0;-123;4127;363;0.5580636;2.827939;-0.09309524;0.5640494;3.373402;-0.1005682;0.5693105;3.852836;-0.1091596;0.5461359;4.569249;0.04793519;0.2770121;4.887461;0.08050573;-0.05924921;4.726015;0.1121663;-0.7391218;5.322531;-0.08850729;-0.8703992;6.24936;-0.2353129;0.7970837;4.904288;0.08050513;1.090718;4.763219;0.1121655;1.771588;5.438592;0.01962578;1.927;6.361876;-0.1259116;0.2458079;2.785759;-0.100126;0.1752338;1.325428;-0.1576672;0;0;0;0.2458079;2.785759;-0.100126;0.1752338;1.325428;-0.1576672;0;0;0
840466.7642;NotLabelled;NONE;16384;-0.267313;-0.4307479;-0.8230096;0.2562327;-7;-10;15;2278;-2742;2019;65536;0.4764543;0.4709141;0.5966733;-0.4418283;-10;-15;22;-684;-4196;-111;8192;0.8218538;0.3268698;0.2202216;-0.4113573;-21;0;-39;-2614;-2913;1989;32768;0.6281664;0.4529086;0.4487534;-0.4459834;-26;-26;-43;471;-4299;-214;256;0.4501385;-0.5443213;-0.433518;-0.5595997;5;0;0;-101;3996;-889;128;0.4210526;-0.5953472;-0.4487534;-0.5166205;-7;2;1;-323;4065;970;4;-0.04709141;0.01800554;-0.7236097;-0.6883656;0;0;0;247;4124;316;16;0.5027701;-0.6265703;0.4155124;0.4265928;-1;0;0;377;4050;538;2;0.7110149;-0.700831;0.01939058;-0.05401662;0;-3;0;-491;4086;-51;8;0.400277;-0.4224377;0.5387812;0.6091302;-1;-2;0;-77;4031;323;0.5577515;2.82772;-0.08725184;0.5637372;3.373183;-0.09472489;0.5689985;3.852618;-0.1033162;0.5479569;4.568695;0.05559784;0.2797789;4.887619;0.08899778;-0.0569566;4.727088;0.1202761;-0.7327055;5.327991;-0.0812391;-0.8734571;6.254175;-0.223251;0.7998983;4.902905;0.08899736;1.093116;4.760888;0.1202757;1.768319;5.441618;0.02550077;1.933365;6.362491;-0.1246233;0.2454958;2.785541;-0.09428264;0.1753148;1.325429;-0.1575768;0;0;0;0.2454958;2.785541;-0.09428264;0.1753148;1.325429;-0.1575768;0;0;0
840487.754;NotLabelled;NONE;16384;-0.2700831;-0.432133;-0.8209442;0.2576177;-6;-9;15;2344;-2674;1963;65536;0.4750692;0.4722992;0.5987242;-0.4390582;-15;-6;24;-596;-4150;-257;8192;0.8170395;0.3365651;0.2285319;-0.4085872;-14;5;-49;-2316;-3169;1437;32768;0.6417856;0.4459834;0.4390582;-0.4432133;-22;-23;-43;793;-3397;-1044;256;0.4487534;-0.5457063;-0.432133;-0.5604338;6;0;-2;-159;4050;-849;128;0.4210526;-0.5951861;-0.4473684;-0.5180055;-7;1;1;-333;4107;894;4;-0.04709141;0.01800554;-0.7236097;-0.6883656;0;0;1;277;4090;182;16;0.5027701;-0.6265703;0.4155124;0.4265928;-1;0;0;395;4020;510;2;0.7109757;-0.700831;0.02077562;-0.05401662;0;-3;0;-463;4084;-17;8;0.398892;-0.4224377;0.5401662;0.608812;-2;-2;0;-119;4083;337;0.5577513;2.827703;-0.08713889;0.5637373;3.373183;-0.09326062;0.5689987;3.852636;-0.1006642;0.5461959;4.568263;0.06002808;0.2772312;4.886437;0.09423891;-0.05910302;4.724997;0.1251432;-0.7321532;5.328703;-0.07702345;-0.8798997;6.253461;-0.2212107;0.7973111;4.903012;0.09423864;1.090882;4.761645;0.1251431;1.75687;5.451571;0.03167617;1.933781;6.369958;-0.1201643;0.2454958;2.785541;-0.09428264;0.1753149;1.325429;-0.1575768;0;0;0;0.2454958;2.785541;-0.09428264;0.1753149;1.325429;-0.1575768;0;0;0
840508.7439;NotLabelled;NONE;16384;-0.2714681;-0.432133;-0.8196123;0.2603878;-8;-5;18;2406;-2734;1983;65536;0.4736842;0.4750692;0.5996543;-0.4362881;-14;-9;28;-470;-4050;-619;8192;0.8138554;0.3421052;0.234072;-0.4072022;-8;9;-53;-1924;-3109;1177;32768;0.6465311;0.4418283;0.4362881;-0.4432133;-13;-12;-40;577;-3589;-1200;256;0.4487534;-0.5457063;-0.4307479;-0.5614991;4;-2;-2;-173;3982;-943;128;0.4210526;-0.5962246;-0.4459834;-0.5180055;-5;2;2;-387;3987;842;4;-0.04709141;0.01800554;-0.7236097;-0.6883656;0;0;2;245;4028;178;16;0.5027701;-0.6265703;0.4155124;0.4265928;-2;0;0;353;4070;558;2;0.7109757;-0.700831;0.02077562;-0.05401662;1;-4;-1;-479;4088;-17;8;0.398892;-0.4224377;0.5401662;0.608812;-2;-3;1;-115;4075;335;0.5578009;2.827685;-0.08689508;0.563787;3.373178;-0.0916537;0.5690486;3.852649;-0.0978592;0.5466226;4.567472;0.06641912;0.2778199;4.885604;0.1022662;-0.0585888;4.724175;0.1324153;-0.7274567;5.331915;-0.07154006;-0.8822511;6.255257;-0.2173937;0.7979078;4.901924;0.1022657;1.091414;4.760259;0.1324147;1.737909;5.467838;0.0341692;1.942996;6.378989;-0.1256064;0.2455456;2.785541;-0.0941527;0.1753982;1.325429;-0.157484;0;0;0;0.2455456;2.785541;-0.0941527;0.1753982;1.325429;-0.157484;0;0;0
840530.9556;NotLabelled;NONE;16384;-0.2728532;-0.433518;-0.8179781;0.2617728;-7;-8;22;2368;-2884;1909;65536;0.4722992;0.4764543;0.6026491;-0.432133;-14;-8;32;-714;-3986;-403;8192;0.8100682;0.3462604;0.2409972;-0.4072022;-5;17;-50;-1538;-2989;1509;32768;0.6493246;0.4390582;0.433518;-0.4445983;-11;2;-34;765;-3469;-1080;256;0.4487534;-0.5457063;-0.4293629;-0.5625589;8;-6;-1;-183;3940;-1139;128;0.4210526;-0.5962246;-0.4459834;-0.5180055;1;1;0;-379;3957;976;4;-0.04847645;0.01800554;-0.7235182;-0.6883656;0;0;3;223;4054;160;16;0.5027701;-0.6265703;0.4155124;0.4265928;-2;0;0;385;4012;482;2;0.7110796;-0.700831;0.02077562;-0.05263158;1;-3;-1;-467;4078;41;8;0.398892;-0.4224377;0.5401662;0.608812;-2;-3;1;-133;4085;359;0.5578008;2.827666;-0.08678025;0.563787;3.37317;-0.09014875;0.5690487;3.852655;-0.09513235;0.5448717;4.567013;0.07091385;0.2752873;4.88439;0.1075679;-0.06071929;4.722057;0.137344;-0.7255378;5.334478;-0.0658434;-0.8874163;6.256693;-0.2111383;0.7953334;4.901994;0.1075674;1.089191;4.760981;0.1373434;1.723522;5.478951;0.03527594;1.940187;6.386695;-0.1285635;0.2455457;2.785541;-0.09415397;0.1753983;1.325429;-0.1574846;0;0;0;0.2455457;2.785541;-0.09415397;0.1753983;1.325429;-0.1574846;0;0;0
840551.7347;NotLabelled;NONE;16384;-0.2797784;-0.433518;-0.8142902;0.265928;-4;-9;25;2170;-2842;1867;65536;0.4695291;0.4806094;0.6073972;-0.4238227;-12;-8;30;-752;-4008;-717;8192;0.8067828;0.3490305;0.2479224;-0.4072022;-8;27;-47;-1486;-3133;1605;32768;0.6520884;0.434903;0.432133;-0.4459834;-10;6;-23;911;-3649;-1010;256;0.4487534;-0.5470914;-0.4279778;-0.5622689;6;-7;0;-131;4008;-1007;128;0.4210526;-0.5962246;-0.4459834;-0.5180055;3;0;0;-385;3983;1018;4;-0.04847645;0.01800554;-0.7235182;-0.6883656;0;0;5;145;4054;188;16;0.5027701;-0.6265703;0.4155124;0.4265928;-3;0;0;413;3996;528;2;0.7109339;-0.700831;0.02216066;-0.05401662;2;-3;-3;-463;4062;3;8;0.3975069;-0.4224377;0.5401662;0.6097172;-3;-3;1;-137;4093;331;0.5574182;2.827555;-0.08385983;0.5634044;3.373059;-0.08722833;0.5686661;3.852544;-0.09221193;0.5427438;4.566428;0.07559812;0.2723812;4.883049;0.1130574;-0.06322162;4.719815;0.142461;-0.7253253;5.335359;-0.06015372;-0.8965307;6.255297;-0.2091464;0.7923824;4.901934;0.1130571;1.08659;4.761572;0.1424606;1.709056;5.488998;0.03447843;1.934912;6.394483;-0.1294513;0.2451631;2.785429;-0.09123355;0.1753983;1.325428;-0.1574847;0;0;0;0.2451631;2.785429;-0.09123355;0.1753983;1.325428;-0.1574847;0;0;0
840572.9862;NotLabelled;NONE;16384;-0.2825485;-0.434903;-0.8116816;0.2686981;-2;-11;26;2262;-2798;1733;65536;0.468144;0.4819945;0.6092924;-0.4210526;-9;-5;33;-240;-3820;-751;8192;0.8025417;0.3531856;0.2534626;-0.4085872;-7;30;-42;-1450;-3347;1461;32768;0.6538951;0.432133;0.4307479;-0.4473684;-6;3;-16;683;-3567;-1058;256;0.4487534;-0.5484765;-0.4279778;-0.5609179;1;-8;0;-19;4014;-1027;128;0.4224377;-0.5952441;-0.4459834;-0.5180055;1;-3;0;-469;4011;950;4;-0.04986149;0.0166205;-0.7234572;-0.6883656;0;-2;6;69;4066;190;16;0.501385;-0.6285937;0.4141274;0.4265928;-4;0;0;469;3998;616;2;0.7096254;-0.702216;0.0235457;-0.05263158;2;-3;-3;-479;4104;99;8;0.3961219;-0.4210526;0.5401662;0.6115739;-2;-6;1;-131;4061;391;0.5576934;2.827555;-0.08311677;0.5636796;3.373059;-0.08648533;0.5689414;3.852544;-0.09146905;0.5429869;4.566014;0.0780853;0.2726069;4.882524;0.1163413;-0.06298263;4.719197;0.145376;-0.7126714;5.344789;-0.06644666;-0.9018408;6.260245;-0.2212101;0.7926068;4.901444;0.116341;1.086826;4.76103;0.1453758;1.699732;5.49603;0.03403449;1.93524;6.398646;-0.1321162;0.2454382;2.785429;-0.09049046;0.1758745;1.325428;-0.1569526;0;0;0;0.2454382;2.785429;-0.09049046;0.1758745;1.325428;-0.1569526;0;0;0
840593.8804;NotLabelled;NONE;16384;-0.2867036;-0.434903;-0.8097627;0.2700831;0;-11;28;2084;-2956;1747;65536;0.466759;0.4833795;0.6121085;-0.4168975;-10;-13;31;-820;-3764;-807;8192;0.7969443;0.3587258;0.2631579;-0.4085872;0;14;-26;-1490;-3309;1399;32768;0.6547703;0.4293629;0.4307479;-0.4487534;-2;11;3;613;-3435;-974;256;0.4487534;-0.5484765;-0.4265928;-0.561972;1;-8;0;101;4006;-1093;128;0.4224377;-0.5964466;-0.4459834;-0.5166205;1;-6;0;-531;3981;1046;4;-0.04986149;0.01523546;-0.7234877;-0.6883656;-1;-4;6;23;4042;168;16;0.501385;-0.6285937;0.4141274;0.4265928;-3;0;0;427;4016;666;2;0.7095213;-0.702216;0.0235457;-0.05401662;2;-4;-2;-481;4134;97;8;0.3961219;-0.4210526;0.5401662;0.6115739;-3;-8;1;-89;4065;393;0.5613132;2.826125;-0.08249727;0.5672993;3.371619;-0.08721793;0.5725609;3.85109;-0.09339005;0.5483184;4.564625;0.0761503;0.2786987;4.881784;0.1143998;-0.05728185;4.719264;0.1434374;-0.7013634;5.350689;-0.06819528;-0.8969512;6.264437;-0.2250671;0.7987423;4.899456;0.1143996;1.092624;4.758337;0.1434374;1.694561;5.501971;0.02962017;1.937393;6.402604;-0.1367542;0.2490579;2.783982;-0.08975813;0.1801202;1.324233;-0.1621438;0;0;0;0.2490579;2.783982;-0.08975813;0.1801202;1.324233;-0.1621438;0;0;0
840615.759;NotLabelled;NONE;16384;-0.2908587;-0.434903;-0.8078153;0.2714681;0;-13;25;2108;-2908;1825;65536;0.4639889;0.4861496;0.6148306;-0.4127424;-14;-2;27;-922;-3844;-431;8192;0.7949343;0.3601108;0.267313;-0.4085872;2;10;-16;-1350;-3295;1321;32768;0.6529396;0.4293629;0.433518;-0.4487534;2;11;16;701;-3417;-1140;256;0.4501385;-0.5498615;-0.4265928;-0.5595054;-2;-7;0;11;3890;-1037;128;0.4238227;-0.5976949;-0.4445983;-0.5152354;2;-5;0;-501;3931;960;4;-0.04986149;0.01385042;-0.7235156;-0.6883656;-2;-8;5;59;4054;210;16;0.5;-0.629696;0.4141274;0.4265928;-2;0;0;367;3984;716;2;0.709474;-0.702216;0.02493075;-0.05401662;1;-5;-3;-519;4072;43;8;0.3947368;-0.4210526;0.5401662;0.6124688;-3;-7;1;-101;4107;419;0.5613011;2.825984;-0.07970053;0.5672871;3.371478;-0.08439171;0.5725487;3.85095;-0.09053802;0.5465614;4.564003;0.08075517;0.2761635;4.880402;0.1198056;-0.05941252;4.716982;0.1484722;-0.6976859;5.352881;-0.06732422;-0.9023098;6.264015;-0.2278284;0.7961619;4.899357;0.1198054;1.090393;4.758892;0.1484723;1.675134;5.514904;0.026824;1.922497;6.413947;-0.141466;0.2490457;2.783841;-0.08696379;0.1801202;1.324233;-0.1621438;0;0;0;0.2490457;2.783841;-0.08696379;0.1801202;1.324233;-0.1621438;0;0;0
840636.7453;NotLabelled;NONE;16384;-0.2936288;-0.4362881;-0.8055966;0.2728532;-2;-8;19;2098;-2938;1897;65536;0.4626039;0.4861496;0.6177208;-0.4099723;-15;-1;22;-598;-3568;-683;8192;0.7944672;0.3601108;0.2686981;-0.4085872;6;7;-7;-1084;-3311;1271;32768;0.6501763;0.4307479;0.4362881;-0.4487534;6;8;31;787;-3403;-1108;256;0.4501385;-0.5498615;-0.4252077;-0.5605587;0;-7;1;-95;3834;-1015;128;0.4252077;-0.5979034;-0.4445983;-0.5138504;3;-5;0;-429;3867;954;4;-0.04986149;0.01246537;-0.7235408;-0.6883656;-2;-10;4;67;4046;220;16;0.5;-0.6287555;0.4141274;0.4279778;-1;-2;0;357;4046;706;2;0.709474;-0.702216;0.02493075;-0.05401662;1;-5;-2;-459;4112;59;8;0.3933518;-0.4210526;0.5415512;0.6121367;-3;-9;1;-91;4111;395;0.5655125;2.824977;-0.07829589;0.5714986;3.370472;-0.08292803;0.5767603;3.849944;-0.08902234;0.5520754;4.563484;0.08043164;0.282259;4.88048;0.1186429;-0.05362057;4.717755;0.1477005;-0.6835694;5.358078;-0.07918918;-0.8987114;6.266419;-0.2417561;0.8022916;4.898475;0.1186402;1.09626;4.757541;0.1476948;1.67621;5.517557;0.02807474;1.919982;6.417466;-0.1408234;0.2532573;2.782835;-0.08556411;0.1847764;1.323373;-0.1639183;0;0;0;0.2532573;2.782835;-0.08556411;0.1847764;1.323373;-0.1639183;0;0;0
840656.7594;NotLabelled;NONE;16384;-0.2977839;-0.4362881;-0.8031247;0.2756233;4;4;8;2006;-3246;1415;65536;0.4639889;0.4875346;0.6192406;-0.4044321;-6;-15;21;126;-3636;-979;8192;0.7939973;0.3601108;0.2700831;-0.4085872;12;2;5;-1052;-3373;1255;32768;0.6455468;0.434903;0.4404432;-0.4473684;9;7;53;719;-3161;-1014;256;0.4515235;-0.5512465;-0.4252077;-0.558079;2;-6;1;15;3854;-1013;128;0.4252077;-0.5979034;-0.4445983;-0.5138504;3;-5;-1;-481;3911;984;4;-0.04847645;0.01108033;-0.7249723;-0.6869806;-3;-12;3;133;4106;220;16;0.5;-0.6287555;0.4141274;0.4279778;-1;-2;0;413;3972;770;2;0.7094239;-0.702216;0.02631579;-0.05401662;1;-7;-2;-455;4072;1;8;0.3919668;-0.4196676;0.5415512;0.6139735;-3;-11;1;-79;4109;413;0.5623116;2.825122;-0.07690853;0.5682975;3.370603;-0.08287099;0.5735589;3.850059;-0.09013465;0.5471243;4.563119;0.08106679;0.2765281;4.879353;0.1200754;-0.05894563;4.715726;0.1487617;-0.6857563;5.360014;-0.07558304;-0.9076135;6.266096;-0.24169;0.7965147;4.898633;0.120075;1.090834;4.758356;0.1487612;1.668684;5.519154;0.0240556;1.905634;6.420877;-0.1448746;0.250056;2.782962;-0.08406545;0.1816032;1.323651;-0.1652135;0;0;0;0.250056;2.782962;-0.08406545;0.1816032;1.323651;-0.1652135;0;0;0
840677.9922;NotLabelled;NONE;16384;-0.2977839;-0.434903;-0.8038756;0.2756233;8;4;3;1766;-3054;1547;65536;0.4639889;0.4889196;0.6199512;-0.4016621;-6;-19;24;124;-3596;-935;8192;0.7953348;0.3587258;0.2700831;-0.4072022;14;-8;21;-942;-3353;1335;32768;0.6417856;0.4390582;0.4459834;-0.4432133;5;3;61;47;-3565;-694;256;0.4515235;-0.5526316;-0.4238227;-0.5577626;0;-4;1;-75;3960;-1035;128;0.4265928;-0.5981055;-0.4445983;-0.5124654;3;-6;-2;-441;3865;930;4;-0.04570637;0.008310249;-0.7251893;-0.6869806;-2;-9;0;249;4050;204;16;0.4986149;-0.6298544;0.4141274;0.4279778;0;-3;0;359;4006;720;2;0.7094753;-0.702216;0.02770083;-0.05263158;1;-7;-3;-429;4080;59;8;0.3891967;-0.4182825;0.5429363;0.6154559;-2;-7;1;-107;4075;439;0.5687447;2.82482;-0.07532096;0.5747306;3.370302;-0.08128345;0.5799921;3.849758;-0.08854711;0.5548722;4.563305;0.08080882;0.2848629;4.880143;0.1189742;-0.05091813;4.717217;0.1480509;-0.6690398;5.36774;-0.08232987;-0.8959799;6.270996;-0.2567602;0.8048846;4.898453;0.118974;1.098938;4.757703;0.1480508;1.676075;5.519266;0.02472091;1.900223;6.424671;-0.1419677;0.2564892;2.78266;-0.08247799;0.1825176;1.323651;-0.1642027;0;0;0;0.2564892;2.78266;-0.08247799;0.1825176;1.323651;-0.1642027;0;0;0
840697.7496;NotLabelled;NONE;16384;-0.299169;-0.433518;-0.8041094;0.2756233;8;-1;-4;1800;-2910;1713;65536;0.4626039;0.4903047;0.6216785;-0.398892;-5;-4;23;-636;-3496;-891;8192;0.7990513;0.3545706;0.2645429;-0.4072022;8;2;16;-1968;-2913;1647;32768;0.6339058;0.4487534;0.4556787;-0.434903;5;-8;38;79;-3747;-1200;256;0.4515235;-0.5526316;-0.4238227;-0.5577626;-5;-2;3;-325;3824;-1061;128;0.4265928;-0.6003145;-0.4432133;-0.5110803;3;-5;-2;-403;3903;1040;4;-0.04570637;0.006925208;-0.7252039;-0.6869806;-1;-7;0;279;4052;226;16;0.4986149;-0.6279969;0.4155124;0.4293629;1;-3;1;319;4014;684;2;0.7094199;-0.702216;0.02908587;-0.05263158;2;-7;-2;-423;4088;-25;8;0.3878116;-0.4182825;0.5429363;0.6163295;-1;-7;0;-17;4067;501;0.5735402;2.823944;-0.07765287;0.5795259;3.36941;-0.0849492;0.5847872;3.848846;-0.09338528;0.5596337;4.561981;0.07769793;0.2896065;4.878707;0.1166524;-0.04616111;4.715689;0.1453635;-0.6635547;5.365829;-0.08802789;-0.8941508;6.267591;-0.2653601;0.8096268;4.897052;0.1166521;1.103693;4.756251;0.1453636;1.683169;5.515883;0.02110219;1.891707;6.424429;-0.1487328;0.2612846;2.781767;-0.08469841;0.1867947;1.322782;-0.1663844;0;0;0;0.2612846;2.781767;-0.08469841;0.1867947;1.322782;-0.1663844;0;0;0
840718.7424;NotLabelled;NONE;16384;-0.299169;-0.433518;-0.8045828;0.2742382;7;0;-10;1790;-2930;1693;65536;0.4612188;0.4916897;0.6225003;-0.3975069;-4;7;15;-1040;-3434;-985;8192;0.8007314;0.3518005;0.2631579;-0.4072022;7;-3;15;-2236;-3127;1785;32768;0.6308253;0.4515235;0.4598338;-0.432133;9;3;35;381;-3911;-1312;256;0.4515235;-0.5526316;-0.4238227;-0.5577626;-6;0;4;-253;3894;-1065;128;0.4265928;-0.6014909;-0.4432133;-0.5096953;5;-1;-3;-329;3903;1052;4;-0.04432133;0.006925208;-0.7252898;-0.6869806;0;-5;-1;277;4040;228;16;0.4986149;-0.6279969;0.4155124;0.4293629;2;-2;0;315;4030;658;2;0.7094632;-0.702216;0.03047091;-0.05124654;2;-7;-2;-401;4108;-53;8;0.3864266;-0.4182825;0.5429363;0.6171989;0;-7;0;1;4137;511;0.5702513;2.824421;-0.07318127;0.5762373;3.369904;-0.07906848;0.5814987;3.84936;-0.08626592;0.5563656;4.562495;0.08482021;0.286343;4.879221;0.1238069;-0.04942118;4.716203;0.152558;-0.6652924;5.366198;-0.08521855;-0.9025171;6.265942;-0.264052;0.8063633;4.897566;0.1237446;1.100433;4.756765;0.1524209;1.691221;5.507874;0.02962673;1.86694;6.42248;-0.1447501;0.2579959;2.782262;-0.08034475;0.1835477;1.323433;-0.1648079;0;0;0;0.2579959;2.782262;-0.08034475;0.1835477;1.323433;-0.1648079;0;0;0
840739.7416;NotLabelled;NONE;16384;-0.2977839;-0.433518;-0.8055669;0.2728532;9;4;-16;1674;-2880;1699;65536;0.4598338;0.4903047;0.6254932;-0.3961219;-3;8;7;-1378;-3564;-891;8192;0.8022428;0.3504155;0.2603878;-0.4072022;8;-4;16;-1954;-3327;1721;32768;0.6277509;0.4542936;0.4626039;-0.4307479;10;7;31;95;-4199;-1118;256;0.4529086;-0.5526316;-0.4252077;-0.5555813;-2;-3;0;-191;3934;-1027;128;0.4279778;-0.6006563;-0.4445983;-0.5083103;5;-1;0;-261;3969;1014;4;-0.04432133;0.006925208;-0.7252898;-0.6869806;0;-3;-2;377;4032;220;16;0.4986149;-0.6279969;0.4155124;0.4293629;3;-2;1;375;4032;620;2;0.7080896;-0.7036011;0.03047091;-0.05124654;1;-7;-1;-303;4096;11;8;0.3850415;-0.4168975;0.5443213;0.6177813;0;-7;0;-77;4101;489;0.5706798;2.824566;-0.07606995;0.5766658;3.370049;-0.08192742;0.5819272;3.849506;-0.08909878;0.5567742;4.56264;0.08198446;0.286747;4.879366;0.1209397;-0.04902055;4.716349;0.1496518;-0.6662142;5.365118;-0.08804232;-0.9079446;6.263774;-0.2663176;0.8067674;4.897712;0.120938;1.100833;4.756911;0.1496485;1.696836;5.504096;0.02811682;1.860687;6.420404;-0.1488552;0.2584243;2.782407;-0.0832358;0.1835668;1.323433;-0.1647865;0;0;0;0.2584243;2.782407;-0.0832358;0.1835668;1.323433;-0.1647865;0;0;0
840760.7571;NotLabelled;NONE;16384;-0.2936288;-0.432133;-0.8087634;0.2700831;6;-1;-17;2110;-2688;1885;65536;0.4570637;0.4889196;0.6285999;-0.3961219;-1;7;5;-1406;-3772;-925;8192;0.8032942;0.3490305;0.2590028;-0.4072022;7;-3;17;-1886;-3227;1811;32768;0.6236795;0.4570637;0.4653739;-0.4307479;9;8;26;175;-4223;-810;256;0.4529086;-0.5526316;-0.4252077;-0.5555813;-4;-4;-1;-155;4016;-1077;128;0.4293629;-0.599667;-0.4445983;-0.5083103;5;0;1;-245;4063;1004;4;-0.04293629;0.005540166;-0.725385;-0.6869806;1;-2;-2;433;4144;238;16;0.4986149;-0.6280243;0.4168975;0.4279778;2;-2;1;447;4038;582;2;0.7080896;-0.7036011;0.03047091;-0.05124654;0;-4;-1;-295;4072;-11;8;0.3850415;-0.4168975;0.5443213;0.6177813;0;-5;0;-43;4055;525;0.5708882;2.824601;-0.0756489;0.5768737;3.370048;-0.08422378;0.5821347;3.849463;-0.09378356;0.5583529;4.563493;0.073722;0.2889415;4.88094;0.1110424;-0.04715027;4.718727;0.1405103;-0.666741;5.364829;-0.09821284;-0.9124539;6.261599;-0.2804919;0.8089969;4.898264;0.1110418;1.102781;4.757033;0.1405096;1.703676;5.500923;0.02291906;1.858365;6.418951;-0.1533842;0.2586323;2.782407;-0.08258742;0.1839796;1.323433;-0.1643257;0;0;0;0.2586323;2.782407;-0.08258742;0.1839796;1.323433;-0.1643257;0;0;0
840780.7551;NotLabelled;NONE;16384;-0.2922437;-0.433518;-0.809444;0.267313;6;-5;-14;2394;-2738;1969;65536;0.4556787;0.4889196;0.6304739;-0.3947368;0;6;4;-1492;-3846;-887;8192;0.8047819;0.3476454;0.2562327;-0.4072022;3;2;14;-2072;-3217;1771;32768;0.6205821;0.4584487;0.468144;-0.4307479;7;5;27;765;-4021;-702;256;0.4542936;-0.5526316;-0.4252077;-0.5544494;-6;-3;-2;-133;4012;-979;128;0.4293629;-0.599667;-0.4445983;-0.5083103;4;0;1;-281;4089;1002;4;-0.04432133;0.005540166;-0.7253017;-0.6869806;0;2;-1;451;4108;272;16;0.5;-0.6269222;0.4168975;0.4279778;3;0;0;455;4026;556;2;0.7081885;-0.7036011;0.03047091;-0.04986149;0;-1;-1;-323;4168;-33;8;0.3850415;-0.4155124;0.5443213;0.6187137;1;0;0;-139;4127;503;0.5743535;2.824691;-0.07166323;0.5803388;3.370115;-0.08160853;0.5855995;3.849504;-0.09237283;0.5618178;4.563534;0.07513267;0.2924063;4.880981;0.112453;-0.04368544;4.718768;0.141921;-0.6706207;5.358239;-0.09547591;-0.9211365;6.253567;-0.2783031;0.8124617;4.898305;0.1124524;1.106246;4.757073;0.1419202;1.71039;5.498433;0.02499759;1.855372;6.418492;-0.1489534;0.2620975;2.78248;-0.07848707;0.1870882;1.323517;-0.1600896;0;0;0;0.2620975;2.78248;-0.07848707;0.1870882;1.323517;-0.1600896;0;0;0
840801.8412;NotLabelled;NONE;16384;-0.2908587;-0.434903;-0.809656;0.265928;7;-2;-13;2534;-2810;2085;65536;0.4542936;0.4889196;0.6314727;-0.3947368;0;2;4;-1154;-4036;-897;8192;0.8061478;0.3448753;0.2534626;-0.4085872;5;-3;17;-2016;-3219;1649;32768;0.6131512;0.4626039;0.4750692;-0.4293629;9;19;32;99;-4401;-880;256;0.4542936;-0.5526316;-0.4252077;-0.5544494;-5;-4;-2;-39;3956;-859;128;0.4307479;-0.5986729;-0.4445983;-0.5083103;2;0;2;-403;4057;1014;4;-0.04432133;0.006925208;-0.7252898;-0.6869806;0;4;-1;383;4052;196;16;0.5;-0.6269222;0.4168975;0.4279778;2;1;0;429;4044;542;2;0.7081478;-0.7036011;0.02908587;-0.05124654;0;4;0;-305;4092;-31;8;0.3850415;-0.4155124;0.5443213;0.6187137;3;0;0;-47;4061;497;0.5703377;2.825404;-0.06534737;0.576323;3.370828;-0.07529262;0.5815837;3.850218;-0.08605692;0.5574226;4.564665;0.07960635;0.2878458;4.88207;0.1160856;-0.04816566;4.719761;0.1459424;-0.678737;5.355058;-0.09302646;-0.9332329;6.248854;-0.27784;0.8078923;4.899659;0.1160852;1.101746;4.758654;0.1459421;1.710744;5.496681;0.03319013;1.848847;6.417947;-0.139964;0.2580816;2.783193;-0.07217139;0.1837008;1.324375;-0.1568823;0;0;0;0.2580816;2.783193;-0.07217139;0.1837008;1.324375;-0.1568823;0;0;0
840821.7334;NotLabelled;NONE;16384;-0.2894737;-0.434903;-0.8110563;0.2631579;5;0;-12;2620;-2836;2063;65536;0.4542936;0.4889196;0.6314727;-0.3947368;0;0;8;-1336;-4106;-767;8192;0.8069017;0.3434903;0.2506925;-0.4099723;3;0;11;-2220;-2899;1793;32768;0.6089665;0.4639889;0.4778393;-0.4307479;11;17;21;503;-4179;-796;256;0.4556787;-0.5543732;-0.4238227;-0.5526316;-2;-2;-1;-181;3994;-883;128;0.4307479;-0.5986729;-0.4445983;-0.5083103;1;2;1;-529;4031;990;4;-0.04570637;0.006925208;-0.7252039;-0.6869806;-1;4;-1;319;4040;226;16;0.5;-0.6269436;0.4182825;0.4265928;1;2;0;455;3988;544;2;0.7081478;-0.7036011;0.02908587;-0.05124654;-1;5;0;-361;4064;47;8;0.3850415;-0.4155124;0.5443213;0.6187137;3;2;0;-137;4121;507;0.5704038;2.825577;-0.06824732;0.5763888;3.370974;-0.07956532;0.5816492;3.850335;-0.09153616;0.5574881;4.564782;0.07412714;0.2879114;4.882186;0.1106064;-0.04810009;4.719878;0.1404632;-0.6815974;5.352836;-0.0969699;-0.9384997;6.246096;-0.281045;0.8079578;4.899776;0.110606;1.101811;4.758771;0.1404629;1.717143;5.491899;0.03016794;1.835605;6.415946;-0.1427269;0.2581476;2.783349;-0.07495642;0.1837008;1.324375;-0.1568822;0;0;0;0.2581476;2.783349;-0.07495642;0.1837008;1.324375;-0.1568822;0;0;0
840841.9011;NotLabelled;NONE;16384;-0.2880886;-0.4362881;-0.8112537;0.2617728;6;-2;-9;2572;-2858;2061;65536;0.4515235;0.4889196;0.6334563;-0.3947368;0;4;5;-1680;-3954;-847;8192;0.8067852;0.3421052;0.2506925;-0.4113573;3;6;2;-2444;-2915;1955;32768;0.605797;0.4639889;0.4806094;-0.432133;6;16;15;477;-4397;-788;256;0.4556787;-0.5546914;-0.4252077;-0.5512465;-2;1;2;-83;4050;-863;128;0.4307479;-0.5976418;-0.4459834;-0.5083103;2;5;0;-443;4083;928;4;-0.04570637;0.006925208;-0.7252039;-0.6869806;-1;5;0;381;4002;232;16;0.5;-0.6278655;0.4168975;0.4265928;1;3;0;435;4008;550;2;0.7095767;-0.702216;0.02770083;-0.05124654;-1;6;0;-431;4074;73;8;0.3864266;-0.4155124;0.5443213;0.6178497;4;7;-1;-95;4127;487;0.5734847;2.825497;-0.05941057;0.5794697;3.370894;-0.0707286;0.5847301;3.850255;-0.08269945;0.5606154;4.564733;0.08283955;0.2910595;4.882162;0.119262;-0.04496286;4.719881;0.1491452;-0.6810784;5.348247;-0.09342772;-0.9368008;6.241507;-0.2791386;0.8111071;4.899717;0.1192616;1.104951;4.758698;0.1491445;1.725394;5.488656;0.04674697;1.837439;6.414141;-0.1226972;0.2612285;2.783269;-0.06611963;0.1877585;1.32444;-0.151435;0;0;0;0.2612285;2.783269;-0.06611963;0.1877585;1.32444;-0.151435;0;0;0
840862.8885;NotLabelled;NONE;16384;-0.2880886;-0.4362881;-0.8121424;0.2590028;6;-3;-9;2534;-2740;2135;65536;0.4501385;0.4889196;0.6344413;-0.3947368;0;7;6;-1616;-3998;-877;8192;0.8073711;0.3407202;0.2506925;-0.4113573;1;6;0;-2582;-2981;2129;32768;0.6037034;0.4639889;0.4819945;-0.433518;4;10;11;547;-4379;-720;256;0.4556787;-0.5546914;-0.4252077;-0.5512465;-1;3;0;-41;4090;-873;128;0.4307479;-0.5988171;-0.4459834;-0.5069252;1;2;0;-453;4125;886;4;-0.04709141;0.008310249;-0.7251006;-0.6869806;-1;5;-1;333;3976;202;16;0.501385;-0.62676;0.4168975;0.4265928;0;2;0;499;4018;528;2;0.7094753;-0.702216;0.02770083;-0.05263158;-1;6;0;-429;4060;95;8;0.3878116;-0.4155124;0.5443213;0.6169812;4;8;-1;-91;4129;437;0.5736212;2.825164;-0.0622642;0.5796058;3.370531;-0.07496294;0.5848659;3.84986;-0.08814734;0.5629324;4.564809;0.07564855;0.2943496;4.883152;0.1112753;-0.04217165;4.721976;0.141526;-0.6810153;5.34798;-0.09998357;-0.9414095;6.240158;-0.2844033;0.8144487;4.89911;0.1112752;1.107856;4.757262;0.1415261;1.730182;5.485659;0.03942275;1.837288;6.411879;-0.1291903;0.2613647;2.782919;-0.06885788;0.1879548;1.32409;-0.154225;0;0;0;0.2613647;2.782919;-0.06885788;0.1879548;1.32409;-0.154225;0;0;0
840903.8178;NotLabelled;NONE;16384;-0.2853186;-0.4376731;-0.8132529;0.2562327;2;-2;-1;2442;-2752;2127;65536;0.4473684;0.4916897;0.6359754;-0.3919668;0;-3;3;-1398;-4018;-725;8192;0.8089295;0.3407202;0.2479224;-0.4099723;-4;-6;-4;-2208;-3055;1933;32768;0.6046194;0.4653739;0.4819945;-0.4307479;-5;-13;-4;257;-4011;-634;256;0.4542936;-0.5512465;-0.4252077;-0.5558264;0;5;-2;-101;4014;-867;128;0.4307479;-0.5976418;-0.4459834;-0.5083103;0;5;2;-307;4111;864;4;-0.04847645;0.009695291;-0.7249922;-0.6869806;1;6;-2;319;4106;210;16;0.501385;-0.6277005;0.4168975;0.4252077;1;2;0;453;4012;584;2;0.7094145;-0.702216;0.0235457;-0.05540166;-3;7;1;-471;4114;37;8;0.3919668;-0.4168975;0.5443213;0.6134108;3;13;0;-129;4111;287;0.5694215;2.826024;-0.05942428;0.5754063;3.371392;-0.07209465;0.5806663;3.850722;-0.08525413;0.5587328;4.565671;0.07854176;0.29015;4.884013;0.1141685;-0.04637131;4.722838;0.1444191;-0.6877752;5.345102;-0.09995198;-0.9505603;6.236733;-0.2836219;0.8102491;4.899972;0.1141683;1.103657;4.758124;0.1444192;1.727849;5.484743;0.04105783;1.832382;6.411522;-0.1260935;0.2571651;2.78378;-0.06602032;0.1841356;1.324939;-0.1515163;0;0;0;0.2571651;2.78378;-0.06602032;0.1841356;1.324939;-0.1515163;0;0;0
840945.8473;NotLabelled;NONE;16384;-0.2867036;-0.4390582;-0.8124541;0.2548476;2;-5;1;2420;-2804;1939;65536;0.4473684;0.4930748;0.6357552;-0.3905817;1;-14;-1;-1358;-3798;-847;8192;0.8090457;0.3421052;0.2479224;-0.4085872;-1;-6;-4;-1840;-3229;1639;32768;0.6056386;0.466759;0.4806094;-0.4293629;-6;-9;-3;155;-4067;-474;256;0.4542936;-0.5498615;-0.4265928;-0.5561369;0;6;-1;-161;3994;-923;128;0.4307479;-0.5966058;-0.4473684;-0.5083103;0;5;2;-383;4065;862;4;-0.05124654;0.01246537;-0.7247593;-0.6869806;1;10;-2;397;4108;172;16;0.5027701;-0.6265917;0.4168975;0.4252077;1;3;0;387;4034;572;2;0.7107599;-0.700831;0.02077562;-0.0567867;-1;9;0;-573;4064;39;8;0.3947368;-0.4182825;0.5429363;0.6119173;2;10;-1;-129;4097;261;0.5714983;2.825752;-0.06057572;0.577483;3.371118;-0.07327449;0.582743;3.850447;-0.08645892;0.5568456;4.564831;0.07921839;0.2864982;4.881579;0.1157039;-0.04911771;4.718453;0.1455578;-0.698593;5.335568;-0.09040892;-0.9720982;6.22479;-0.2700647;0.8065003;4.900432;0.1157036;1.100696;4.760141;0.1455575;1.726424;5.484915;0.03859544;1.826861;6.411558;-0.1317992;0.2592418;2.783507;-0.06716928;0.185739;1.324654;-0.1520511;0;0;0;0.2592418;2.783507;-0.06716928;0.185739;1.324654;-0.1520511;0;0;0
840986.7433;NotLabelled;NONE;16384;-0.2880886;-0.4390582;-0.8123974;0.2534626;5;-4;0;2298;-2758;1915;65536;0.4501385;0.4972299;0.6313983;-0.3891967;1;-19;-4;-1080;-3726;-923;8192;0.8091571;0.3434903;0.2479224;-0.4072022;-1;-5;-2;-1948;-3139;1655;32768;0.6077129;0.466759;0.4792244;-0.4279778;-7;-13;-4;197;-3899;-498;256;0.4542936;-0.5498615;-0.4265928;-0.5561369;0;6;-2;-121;4012;-889;128;0.4307479;-0.5955647;-0.4487534;-0.5083103;1;5;1;-385;4011;810;4;-0.05263158;0.01385042;-0.7246349;-0.6869806;0;10;-1;291;4112;234;16;0.5027701;-0.6265917;0.4168975;0.4252077;0;2;0;435;4010;540;2;0.7105722;-0.700831;0.01939058;-0.05955679;-1;10;-1;-579;4096;25;8;0.3947368;-0.4182825;0.5429363;0.6119173;2;9;0;-123;4049;295;0.566686;2.826634;-0.05846384;0.5726704;3.371966;-0.07254687;0.57793;3.851261;-0.08694792;0.5520633;4.566045;0.0769968;0.2817327;4.882897;0.1126914;-0.05389623;4.719865;0.1429105;-0.7038922;5.336375;-0.09320295;-0.9799964;6.224939;-0.2721375;0.8017361;4.901718;0.1126914;1.09592;4.76148;0.142911;1.719505;5.487831;0.03414178;1.819492;6.414569;-0.1359921;0.2544294;2.784372;-0.0649416;0.1814806;1.325494;-0.1498584;0;0;0;0.2544294;2.784372;-0.0649416;0.1814806;1.325494;-0.1498584;0;0;0
841007.7383;NotLabelled;NONE;16384;-0.2880886;-0.4404432;-0.8120786;0.2520775;6;-3;0;2330;-2722;1963;65536;0.4515235;0.4986149;0.6293136;-0.3891967;1;-15;-4;-1084;-3828;-855;8192;0.8091571;0.3434903;0.2479224;-0.4072022;0;-8;-1;-2020;-3133;1643;32768;0.6097739;0.466759;0.4778393;-0.4265928;-8;-14;-2;117;-3721;-712;256;0.4542936;-0.5484765;-0.4279778;-0.5564404;0;6;-1;-147;4038;-913;128;0.4307479;-0.5955647;-0.4487534;-0.5083103;0;2;1;-383;3999;838;4;-0.05401662;0.01800554;-0.7244416;-0.6869806;1;9;-2;277;4036;210;16;0.5027701;-0.6275293;0.4168975;0.4238227;0;3;0;383;3982;504;2;0.7104912;-0.700831;0.01800554;-0.06094183;0;10;-1;-619;4076;57;8;0.3961219;-0.4196676;0.5429363;0.6100712;1;9;0;-115;4091;301;0.5662628;2.826664;-0.05845481;0.5722468;3.371959;-0.07392597;0.5775059;3.851215;-0.08954707;0.5516393;4.566;0.07439739;0.2813087;4.882851;0.1100919;-0.0543202;4.71982;0.140311;-0.7041169;5.335343;-0.09890306;-0.977594;6.225158;-0.2756423;0.801312;4.901672;0.1100919;1.095496;4.761435;0.1403114;1.717248;5.489359;0.03156435;1.819781;6.415547;-0.1400448;0.2540061;2.784387;-0.06481624;0.1814807;1.325494;-0.149859;0;0;0;0.2540061;2.784387;-0.06481624;0.1814807;1.325494;-0.149859;0;0;0
841028.9044;NotLabelled;NONE;16384;-0.2894737;-0.4390582;-0.812336;0.2520775;6;0;-1;2108;-2742;2051;65536;0.4529086;0.4986149;0.6291733;-0.3878116;0;-7;-3;-936;-3832;-787;8192;0.8110693;0.3448753;0.2465374;-0.4030471;5;-15;4;-1564;-3233;1557;32768;0.6116021;0.468144;0.4778393;-0.4224377;-9;-18;4;129;-3867;-666;256;0.4529086;-0.5484765;-0.4279778;-0.5575683;0;7;-1;-155;3960;-899;128;0.4307479;-0.5955647;-0.4487534;-0.5083103;1;4;1;-379;3919;970;4;-0.05540166;0.01800554;-0.724337;-0.6869806;1;9;-1;231;4064;176;16;0.5027701;-0.6284473;0.4155124;0.4238227;0;4;0;361;4036;606;2;0.7101564;-0.700831;0.0166205;-0.06509695;-1;8;0;-551;4070;23;8;0.3975069;-0.4196676;0.5415512;0.6104012;1;4;0;-61;4113;371;0.5688581;2.826703;-0.06336826;0.574842;3.371998;-0.07883939;0.5801013;3.851254;-0.0944604;0.5542646;4.566436;0.06774545;0.2839505;4.883389;0.1026467;-0.05169117;4.720453;0.1332323;-0.7034757;5.334483;-0.1044094;-0.9751394;6.225251;-0.2791333;0.8039551;4.902179;0.1026464;1.098128;4.761997;0.1332324;1.719559;5.489922;0.02266681;1.824102;6.415554;-0.1507127;0.2566014;2.784425;-0.06972966;0.1841709;1.325209;-0.1490988;0;0;0;0.2566014;2.784425;-0.06972966;0.1841709;1.325209;-0.1490988;0;0;0
841049.7511;NotLabelled;NONE;16384;-0.2894737;-0.4390582;-0.8127645;0.2506925;5;-1;-3;2138;-2862;2007;65536;0.4529086;0.4986149;0.6283175;-0.3891967;0;-2;-3;-914;-3794;-719;8192;0.8117561;0.3448753;0.2465374;-0.4016621;4;-14;6;-1578;-3111;1607;32768;0.6124468;0.4695291;0.4778393;-0.4196676;-10;-19;8;237;-3711;-572;256;0.4529086;-0.5484765;-0.4279778;-0.5575683;0;5;-1;-209;3928;-955;128;0.4307479;-0.5955647;-0.4487534;-0.5083103;1;5;0;-339;3977;892;4;-0.0567867;0.01939058;-0.724194;-0.6869806;1;8;0;233;4054;182;16;0.5027701;-0.6284473;0.4155124;0.4238227;0;3;0;431;4022;538;2;0.7101874;-0.700831;0.01523546;-0.06509695;-1;6;0;-495;4118;-15;8;0.398892;-0.4196676;0.5415512;0.609497;1;5;0;-141;4149;389;0.5682387;2.826228;-0.06402209;0.5742226;3.371523;-0.07949322;0.5794819;3.850779;-0.09511429;0.5540321;4.565555;0.06893367;0.2838861;4.882559;0.1046754;-0.05183741;4.719718;0.134873;-0.7027013;5.334254;-0.1039789;-0.9744349;6.224576;-0.280855;0.8039004;4.901076;0.1046752;1.098003;4.760664;0.1348728;1.718663;5.488945;0.02234495;1.820367;6.414038;-0.1555477;0.255982;2.783951;-0.07038343;0.1838303;1.324871;-0.1524838;0;0;0;0.255982;2.783951;-0.07038343;0.1838303;1.324871;-0.1524838;0;0;0
841070.8587;NotLabelled;NONE;16384;-0.2894737;-0.4390582;-0.8127645;0.2506925;5;0;-6;2140;-2708;2017;65536;0.4542936;0.4986149;0.6273168;-0.3891967;-2;-1;-5;-1000;-3666;-695;8192;0.8128589;0.3448753;0.2451524;-0.400277;7;-12;8;-1744;-3095;1571;32768;0.6142141;0.4709141;0.4778393;-0.4155124;-11;-19;14;247;-3643;-558;256;0.4529086;-0.5470914;-0.4293629;-0.5578641;-2;4;0;-159;3910;-921;128;0.4307479;-0.5933315;-0.4501385;-0.5096953;1;5;-1;-303;3953;882;4;-0.0567867;0.02077562;-0.7241556;-0.6869806;1;6;0;205;4142;202;16;0.5027701;-0.6284473;0.4155124;0.4238227;0;2;-1;413;4014;592;2;0.7100875;-0.700831;0.01385042;-0.06648199;-1;5;0;-509;4088;51;8;0.398892;-0.4210526;0.5415512;0.608541;1;6;0;-83;4119;417;0.5677824;2.826243;-0.06389984;0.5737663;3.371538;-0.07937101;0.5790255;3.850795;-0.09499204;0.5535757;4.565569;0.06905586;0.2834299;4.882574;0.1047977;-0.05229374;4.719733;0.1349953;-0.7044303;5.332383;-0.1052281;-0.9741491;6.223724;-0.280037;0.803444;4.901092;0.1047974;1.097547;4.760679;0.1349951;1.718225;5.488752;0.02122927;1.817494;6.413694;-0.1588131;0.2555256;2.783966;-0.07026121;0.1838302;1.324871;-0.1524839;0;0;0;0.2555256;2.783966;-0.07026121;0.1838302;1.324871;-0.1524839;0;0;0
841092.0063;NotLabelled;NONE;16384;-0.2880886;-0.4376731;-0.8148507;0.2479224;8;5;-10;2024;-2776;1905;65536;0.4556787;0.4972299;0.6274116;-0.3891967;-5;-7;-13;-1022;-3494;-845;8192;0.8152179;0.3434903;0.2437673;-0.3975069;11;-15;11;-1642;-3183;1469;32768;0.6139391;0.4722992;0.4792244;-0.4127424;-11;-15;23;469;-3503;-546;256;0.4515235;-0.5470914;-0.4293629;-0.5589857;0;3;1;-181;3816;-851;128;0.4307479;-0.5933315;-0.4501385;-0.5096953;2;6;0;-299;3897;890;4;-0.0567867;0.02077562;-0.7241556;-0.6869806;0;4;0;213;4066;184;16;0.5041551;-0.6273367;0.4155124;0.4238227;-1;1;0;395;4018;640;2;0.7100875;-0.700831;0.01385042;-0.06648199;-1;3;1;-521;4060;-1;8;0.400277;-0.4210526;0.5415512;0.6076308;1;5;0;-85;4099;425;0.5675929;2.826413;-0.06758505;0.5735763;3.371665;-0.0844757;0.578835;3.85088;-0.1013443;0.5534154;4.566054;0.06095952;0.2832862;4.883161;0.09590554;-0.05245015;4.720415;0.1264706;-0.7053421;5.333065;-0.1116922;-0.9732027;6.224977;-0.2864475;0.8033016;4.901647;0.09590524;1.097393;4.76129;0.1264704;1.719021;5.488361;0.01149416;1.815311;6.412725;-0.1730769;0.2553359;2.784119;-0.07382749;0.1833663;1.324871;-0.1530414;0;0;0;0.2553359;2.784119;-0.07382749;0.1833663;1.324871;-0.1530414;0;0;0
841113.7392;NotLabelled;NONE;16384;-0.2880886;-0.4376731;-0.8152708;0.2465374;10;7;-15;2000;-2730;1875;65536;0.4584487;0.4972299;0.6245263;-0.3905817;-3;-14;-23;-860;-3294;-1049;8192;0.8164735;0.3421052;0.2437673;-0.3961219;19;-16;14;-1414;-3219;1331;32768;0.6134828;0.4736842;0.4819945;-0.4085872;-8;-8;38;439;-3419;-534;256;0.4515235;-0.5470914;-0.4293629;-0.5589857;2;4;1;-137;3916;-921;128;0.4293629;-0.593283;-0.4515235;-0.5096953;2;8;0;-405;3919;854;4;-0.05817174;0.02216066;-0.7240046;-0.6869806;0;3;-1;163;4104;168;16;0.5027701;-0.6284473;0.4155124;0.4238227;-1;1;0;385;4024;550;2;0.7099821;-0.700831;0.01246537;-0.06786703;0;3;1;-547;4076;17;8;0.400277;-0.4210526;0.5415512;0.6076308;2;2;0;-101;4089;329;0.5636342;2.827249;-0.06543231;0.5696176;3.372501;-0.08232284;0.5748764;3.851716;-0.09919131;0.5498524;4.566484;0.06494904;0.2798953;4.883644;0.1007331;-0.05592486;4.721;0.1309111;-0.7134107;5.328567;-0.1076339;-0.9793028;6.220662;-0.2844518;0.7999205;4.901854;0.1007327;1.09394;4.761262;0.1309109;1.718448;5.485333;0.0126543;1.809306;6.409639;-0.1749401;0.2513772;2.784955;-0.07167464;0.1792092;1.325706;-0.1507078;0;0;0;0.2513772;2.784955;-0.07167464;0.1792092;1.325706;-0.1507078;0;0;0
841135.7448;NotLabelled;NONE;16384;-0.2853186;-0.4362881;-0.8174022;0.2451524;13;9;-22;1812;-2834;1715;65536;0.4639889;0.4972299;0.6204214;-0.3905817;-1;-29;-34;-634;-3304;-1063;8192;0.8215877;0.3365651;0.2409972;-0.3919668;26;-10;22;-1352;-3015;1597;32768;0.6089302;0.4778393;0.4916897;-0.398892;-22;-13;46;-47;-3917;-232;256;0.4501385;-0.5470914;-0.4293629;-0.5601016;2;7;1;-137;3900;-869;128;0.4293629;-0.5922264;-0.4529086;-0.5096953;1;9;0;-369;3955;872;4;-0.05817174;0.0235457;-0.7239608;-0.6869806;0;4;-1;259;4078;140;16;0.5027701;-0.6293609;0.4141274;0.4238227;-1;1;0;361;4002;582;2;0.7099821;-0.700831;0.01246537;-0.06786703;0;2;1;-501;4106;51;8;0.400277;-0.4210526;0.5415512;0.6076308;2;1;0;-175;4103;347;0.5669402;2.826429;-0.06810534;0.5729237;3.371682;-0.08502376;0.5781825;3.850894;-0.1019168;0.5531585;4.565663;0.06222361;0.2832014;4.882823;0.09800768;-0.05261881;4.720179;0.1281857;-0.7113639;5.325845;-0.1117146;-0.9704136;6.220062;-0.287971;0.8032265;4.901032;0.09800732;1.097246;4.760441;0.1281854;1.723595;5.4825;0.007386446;1.80696;6.406378;-0.1857084;0.2546833;2.784135;-0.07434537;0.182982;1.324871;-0.1535006;0;0;0;0.2546833;2.784135;-0.07434537;0.182982;1.324871;-0.1535006;0;0;0
841155.7449;NotLabelled;NONE;16384;-0.2839335;-0.434903;-0.8194461;0.2423823;17;10;-33;1788;-2866;1699;65536;0.4709141;0.4986149;0.6140594;-0.3905817;3;-59;-45;-470;-3220;-1535;8192;0.8243394;0.33241;0.2396122;-0.3905817;24;-4;22;-1898;-2821;1917;32768;0.6090042;0.4806094;0.4944598;-0.3919668;-27;-23;42;-73;-3897;-510;256;0.4501385;-0.5470914;-0.4307479;-0.5590372;1;8;2;-235;3874;-907;128;0.4293629;-0.5922264;-0.4529086;-0.5096953;4;10;-1;-411;3911;830;4;-0.05955679;0.0235457;-0.7238482;-0.6869806;0;4;-1;245;4022;204;16;0.5027701;-0.6293609;0.4141274;0.4238227;-1;1;0;391;3970;610;2;0.7112361;-0.699446;0.01108033;-0.06925207;0;3;1;-487;4074;77;8;0.4016621;-0.4210526;0.5415512;0.6067162;2;3;0;-111;4043;405;0.5667851;2.826249;-0.07453865;0.572768;3.371456;-0.09285688;0.5780263;3.850624;-0.1109802;0.5533866;4.564984;0.05498791;0.283601;4.882198;0.09157616;-0.05230853;4.71966;0.1213288;-0.7163863;5.321827;-0.1126022;-0.966159;6.218226;-0.2911496;0.803636;4.900124;0.09163648;1.097578;4.759296;0.1214626;1.733177;5.47218;-0.005358696;1.790749;6.395243;-0.2113442;0.254528;2.783939;-0.08066127;0.1826273;1.324527;-0.1568536;0;0;0;0.254528;2.783939;-0.08066127;0.1826273;1.324527;-0.1568536;0;0;0
841175.7561;NotLabelled;NONE;16384;-0.2797784;-0.433518;-0.8228208;0.2382271;18;13;-41;1872;-2650;1887;65536;0.4778393;0.5027701;0.6052585;-0.3905817;7;-59;-47;-594;-3528;-1055;8192;0.8257473;0.3282548;0.2382271;-0.3919668;24;-3;22;-2358;-2855;1873;32768;0.6078408;0.4833795;0.4986149;-0.3850415;-30;-21;41;-255;-4043;-832;256;0.4487534;-0.5470914;-0.4307479;-0.5601496;2;7;4;-239;3882;-1033;128;0.4279778;-0.592168;-0.4542936;-0.5096953;4;7;-2;-377;3943;886;4;-0.05955679;0.02493075;-0.7238018;-0.6869806;1;4;-1;213;4000;246;16;0.5027701;-0.6293609;0.4141274;0.4238227;0;1;0;353;4016;606;2;0.7112563;-0.699446;0.009695291;-0.06925207;-1;4;1;-379;4108;15;8;0.4030471;-0.4210526;0.5415512;0.605797;2;2;0;-117;4119;369;0.5662875;2.826118;-0.0716556;0.5722704;3.371325;-0.08997396;0.5775287;3.850493;-0.1080973;0.5546634;4.565319;0.05611098;0.2856652;4.883288;0.09192604;-0.05064443;4.721657;0.1220897;-0.7181519;5.318089;-0.1167237;-0.9556695;6.21754;-0.2966346;0.805743;4.899928;0.09192574;1.099336;4.758447;0.1220896;1.74185;5.464474;-0.008201241;1.78922;6.386405;-0.2217115;0.2540303;2.783808;-0.07777828;0.1826091;1.324527;-0.1568749;0;0;0;0.2540303;2.783808;-0.07777828;0.1826091;1.324527;-0.1568749;0;0;0
841196.7457;NotLabelled;NONE;16384;-0.2756233;-0.433518;-0.8254116;0.234072;17;9;-47;1966;-2404;2001;65536;0.4847645;0.5041551;0.5985624;-0.3905817;0;-39;-44;-1072;-3988;-39;8192;0.829374;0.3227147;0.2354571;-0.3905817;25;-9;24;-2350;-3139;1955;32768;0.608478;0.4833795;0.5041551;-0.3767313;-31;-13;39;-279;-4067;-1098;256;0.4459834;-0.5470914;-0.432133;-0.561294;0;3;0;-35;4046;-1049;128;0.4279778;-0.5900326;-0.4570637;-0.5096953;4;8;0;-325;4067;878;4;-0.05955679;0.02493075;-0.7238018;-0.6869806;1;6;-1;203;4102;258;16;0.5027701;-0.6293609;0.4141274;0.4238227;0;1;0;417;4032;612;2;0.7112563;-0.699446;0.009695291;-0.06925207;-1;5;1;-421;4108;39;8;0.4030471;-0.4210526;0.5415512;0.605797;3;3;0;-135;4127;383;0.5660967;2.826267;-0.07508385;0.5720796;3.371472;-0.09344196;0.5773379;3.850639;-0.1116003;0.5548794;4.565056;0.05443323;0.2860591;4.883081;0.09108138;-0.05033707;4.721557;0.12086;-0.7264773;5.309099;-0.1156958;-0.9519948;6.212343;-0.2920117;0.806146;4.899435;0.09108114;1.099664;4.757714;0.12086;1.748392;5.457606;-0.01172411;1.782361;6.378212;-0.2333513;0.2538396;2.783956;-0.08120322;0.1822177;1.324527;-0.1573293;0;0;0;0.2538396;2.783956;-0.08120322;0.1822177;1.324527;-0.1573293;0;0;0
841218.01;NotLabelled;NONE;16384;-0.265928;-0.433518;-0.8312638;0.2243767;6;-1;-45;2564;-2204;2305;65536;0.4958449;0.5055401;0.5873066;-0.3919668;-11;-29;-25;-390;-4332;-817;8192;0.8317587;0.3185596;0.232687;-0.3905817;26;-16;27;-2254;-3055;1959;32768;0.6084259;0.4833795;0.5083103;-0.3711911;-30;-4;35;-545;-4141;-1164;256;0.4459834;-0.5470914;-0.432133;-0.561294;-2;1;-2;-107;4142;-1065;128;0.4293629;-0.5890255;-0.4570637;-0.5096953;3;3;1;-317;4147;930;4;-0.05955679;0.02631579;-0.7237528;-0.6869806;1;7;-2;181;4114;190;16;0.5027701;-0.6293609;0.4141274;0.4238227;0;1;0;425;4068;640;2;0.7111376;-0.699446;0.008310249;-0.07063711;-1;7;1;-391;4070;9;8;0.4030471;-0.4210526;0.5415512;0.605797;3;4;-1;-111;4089;341;0.5656911;2.826298;-0.0765785;0.571673;3.371401;-0.09775612;0.57693;3.850467;-0.1183924;0.5570555;4.564525;0.04950756;0.2893846;4.883419;0.08700797;-0.04758866;4.72303;0.1163926;-0.7328432;5.302018;-0.1149668;-0.9466015;6.208179;-0.2909746;0.8095269;4.8979;0.08700752;1.102535;4.755047;0.1163921;1.760015;5.445617;-0.02183545;1.782305;6.362909;-0.258193;0.2534336;2.783956;-0.08246116;0.1814352;1.324527;-0.1582311;0;0;0;0.2534336;2.783956;-0.08246116;0.1814352;1.324527;-0.1582311;0;0;0
841238.7776;NotLabelled;NONE;16384;-0.2603878;-0.434903;-0.8334026;0.2202216;0;2;-34;3220;-2070;2367;65536;0.4986149;0.5055401;0.5858825;-0.3905817;-4;-23;-12;-1400;-4410;-1021;8192;0.8383461;0.3102493;0.2271468;-0.3864266;9;-20;21;-2664;-2615;2465;32768;0.6075377;0.4819945;0.5166205;-0.3628809;-22;-9;16;129;-4349;-1688;256;0.4473684;-0.5457063;-0.432133;-0.56154;-5;-3;-3;-285;4000;-995;128;0.4293629;-0.5890255;-0.4570637;-0.5096953;4;2;2;-259;4117;908;4;-0.06094183;0.02770083;-0.7235858;-0.6869806;0;4;-1;91;4100;146;16;0.5027701;-0.6293609;0.4141274;0.4238227;0;1;0;391;4040;598;2;0.7110135;-0.699446;0.006925208;-0.07202215;-2;8;2;-427;4072;5;8;0.4044321;-0.4210526;0.5415512;0.6048732;3;3;0;-101;4125;313;0.5656897;2.826455;-0.07946098;0.5716709;3.371504;-0.1020003;0.5769275;3.850518;-0.1238334;0.5570366;4.564574;0.04406464;0.289362;4.883469;0.08153895;-0.04761418;4.72308;0.1108906;-0.750715;5.282443;-0.1151412;-0.9418092;6.193702;-0.2908895;0.8095043;4.897949;0.08158934;1.102509;4.755096;0.1110024;1.767663;5.438721;-0.02502453;1.78197;6.353596;-0.2711679;0.253432;2.784099;-0.08522944;0.1814507;1.324527;-0.1582133;0;0;0;0.253432;2.784099;-0.08522944;0.1814507;1.324527;-0.1582133;0;0;0
841258.9402;NotLabelled;NONE;16384;-0.2576177;-0.434903;-0.8346274;0.2188366;4;5;-20;3468;-2236;2197;65536;0.501385;0.5069252;0.5823108;-0.3905817;1;-11;-4;-1434;-4524;-1117;8192;0.8396025;0.3088643;0.2243767;-0.3864266;9;-7;11;-2790;-2719;2107;32768;0.6080064;0.4819945;0.5180055;-0.3601108;-15;-2;8;-33;-4669;-1760;256;0.4487534;-0.5457063;-0.432133;-0.5604338;-8;-4;-3;-267;3920;-957;128;0.4293629;-0.5890255;-0.4570637;-0.5096953;0;-1;1;-299;4107;904;4;-0.06094183;0.02908587;-0.7235314;-0.6869806;-1;3;-1;71;4080;200;16;0.5027701;-0.6293609;0.4141274;0.4238227;0;0;0;409;4010;600;2;0.7108935;-0.699446;0.004155125;-0.0734072;-1;5;3;-611;4030;7;8;0.4044321;-0.4210526;0.5415512;0.6048732;1;2;0;-149;4061;323;0.5651464;2.826473;-0.07950443;0.5711276;3.371522;-0.1020438;0.5763842;3.850535;-0.1238769;0.5543735;4.564951;0.04222083;0.2857526;4.883142;0.07889819;-0.05074466;4.721826;0.1086631;-0.7628243;5.271313;-0.1134542;-0.9508785;6.18263;-0.2921556;0.8058496;4.899169;0.07889819;1.099279;4.757263;0.1086637;1.779262;5.425106;-0.03234267;1.77973;6.335283;-0.2957158;0.2528888;2.784117;-0.08527273;0.1813479;1.324527;-0.1583313;0;0;0;0.2528888;2.784117;-0.08527273;0.1813479;1.324527;-0.1583313;0;0;0
841279.7435;NotLabelled;NONE;16384;-0.2548476;-0.434903;-0.8361982;0.2160665;4;7;-14;3174;-2358;2459;65536;0.501385;0.5069252;0.5832375;-0.3891967;1;-7;0;-1678;-4802;-663;8192;0.8411149;0.3074792;0.2229917;-0.3850415;3;-7;1;-2804;-2583;2483;32768;0.6087396;0.4806094;0.5193906;-0.3587258;-8;8;-1;-229;-4707;-1946;256;0.4501385;-0.5457063;-0.432133;-0.5593219;-4;-4;-1;-237;4004;-973;128;0.4307479;-0.5880134;-0.4570637;-0.5096953;0;-5;0;-365;4133;948;4;-0.06094183;0.02908587;-0.7235314;-0.6869806;0;0;-1;39;4106;194;16;0.5027701;-0.6293609;0.4141274;0.4238227;1;0;0;381;4058;556;2;0.7108935;-0.699446;0.004155125;-0.0734072;0;3;2;-667;4108;43;8;0.4044321;-0.4210526;0.5415512;0.6048732;2;0;0;-117;4109;277;0.5653527;2.826611;-0.08167046;0.5713339;3.37166;-0.1042098;0.5765904;3.850673;-0.1260429;0.5541645;4.565496;0.03823543;0.2853618;4.883628;0.07408249;-0.05104693;4.722198;0.1042316;-0.7663537;5.267809;-0.1170687;-0.9487119;6.180453;-0.2949025;0.8054496;4.899948;0.07408196;1.098956;4.758283;0.1042309;1.783351;5.422565;-0.03218544;1.78175;6.331402;-0.3001372;0.253095;2.784255;-0.08743875;0.1817403;1.324527;-0.1578806;0;0;0;0.253095;2.784255;-0.08743875;0.1817403;1.324527;-0.1578806;0;0;0
841299.7504;NotLabelled;NONE;16384;-0.2534626;-0.434903;-0.836619;0.2160665;0;7;-9;2926;-2244;2699;65536;0.501385;0.5083103;0.5820307;-0.3891967;-1;0;2;-1488;-4590;-869;8192;0.8407465;0.3074792;0.2243767;-0.3850415;-1;-2;-8;-2914;-2543;2433;32768;0.6090137;0.4792244;0.5193906;-0.3601108;-1;17;-14;-199;-4721;-2022;256;0.4501385;-0.5457063;-0.4307479;-0.5603893;1;-5;0;-117;4152;-961;128;0.4307479;-0.5902829;-0.4556787;-0.5083103;-3;-4;-1;-419;4215;882;4;-0.05955679;0.02908587;-0.7236468;-0.6869806;0;-1;-2;67;4158;182;16;0.5027701;-0.6293609;0.4141274;0.4238227;1;0;0;425;4006;662;2;0.7109002;-0.699446;0.002770083;-0.0734072;0;1;2;-683;4114;3;8;0.4058172;-0.4210526;0.5415512;0.6039448;1;0;0;-87;4093;315;0.5655699;2.826625;-0.08115417;0.5715505;3.371616;-0.1050574;0.5768064;3.850573;-0.1280891;0.5539729;4.565801;0.03436399;0.2849917;4.883874;0.06937814;-0.05133047;4.722337;0.09991185;-0.7709695;5.262059;-0.1217851;-0.9549289;6.173856;-0.3022851;0.8050705;4.900481;0.06937772;1.098653;4.759056;0.09991145;1.786207;5.420351;-0.03511751;1.785081;6.327842;-0.3075962;0.2533121;2.784255;-0.08680791;0.1821331;1.324527;-0.1574273;0;0;0;0.2533121;2.784255;-0.08680791;0.1821331;1.324527;-0.1574273;0;0;0
841320.7552;NotLabelled;NONE;16384;-0.2520775;-0.433518;-0.8373971;0.2174515;-8;7;3;3134;-2350;2453;65536;0.5;0.5069252;0.5844252;-0.3891967;1;8;1;-1790;-4320;-897;8192;0.8405011;0.3088643;0.2257618;-0.3836565;-1;-1;-19;-2918;-2725;2369;32768;0.609895;0.4764543;0.5180055;-0.3642659;3;21;-24;-217;-4599;-1932;256;0.4501385;-0.5457063;-0.4293629;-0.5614512;0;-7;0;-137;4180;-1021;128;0.4307479;-0.5913495;-0.4542936;-0.5083103;-2;-4;0;-373;4281;856;4;-0.05955679;0.02908587;-0.7236468;-0.6869806;0;-3;-3;83;4068;198;16;0.5027701;-0.6293609;0.4141274;0.4238227;0;-2;1;363;4038;670;2;0.7108935;-0.699446;0.004155125;-0.0734072;0;-1;3;-711;4010;37;8;0.4044321;-0.4196676;0.5415512;0.605835;1;-1;0;-127;4073;259;0.5660499;2.826724;-0.08397591;0.5720311;3.371776;-0.1064421;0.5772877;3.850792;-0.1282108;0.5527182;4.565557;0.03601354;0.2829582;4.882877;0.07186693;-0.05295694;4.720433;0.1020682;-0.7739378;5.258625;-0.1189849;-0.9579202;6.170849;-0.2972951;0.8029944;4.900771;0.07180434;1.096932;4.759997;0.1019303;1.783269;5.421739;-0.03704453;1.78463;6.329245;-0.3094754;0.2537922;2.784369;-0.08975038;0.1821142;1.324527;-0.1574491;0;0;0;0.2537922;2.784369;-0.08975038;0.1821142;1.324527;-0.1574491;0;0;0
841341.7431;NotLabelled;NONE;16384;-0.2520775;-0.432133;-0.8377521;0.2188366;-9;11;8;2830;-2388;2369;65536;0.5;0.5069252;0.5835005;-0.3905817;4;11;0;-1386;-4282;-797;8192;0.838218;0.3116343;0.232687;-0.3822715;-9;5;-29;-2346;-2855;2427;32768;0.611842;0.4709141;0.5138504;-0.3739612;11;20;-42;-549;-4095;-1582;256;0.4515235;-0.5470914;-0.4293629;-0.5589857;-3;-8;-1;-145;4228;-909;128;0.432133;-0.5903381;-0.4542936;-0.5083103;-2;-3;0;-349;4227;848;4;-0.0567867;0.02908587;-0.7238694;-0.6869806;-1;-5;-4;203;4074;192;16;0.5027701;-0.6284473;0.4155124;0.4238227;1;-5;0;429;4064;560;2;0.7122535;-0.6980609;0.004155125;-0.0734072;0;-5;3;-675;4052;57;8;0.4044321;-0.4196676;0.5429363;0.6045941;0;-3;0;-187;4087;219;0.5660605;2.826709;-0.0838272;0.5720423;3.371817;-0.1048869;0.5772995;3.850888;-0.1254195;0.5509605;4.565183;0.04056591;0.2804169;4.881746;0.07719213;-0.0550971;4.7184;0.1069808;-0.7762082;5.257871;-0.110503;-0.9627963;6.169213;-0.2906;0.8004072;4.900923;0.07719177;1.09469;4.760802;0.1069808;1.778229;5.425434;-0.03199542;1.78736;6.333672;-0.3018248;0.253803;2.784369;-0.08971983;0.1821331;1.324527;-0.1574272;0;0;0;0.253803;2.784369;-0.08971983;0.1821331;1.324527;-0.1574272;0;0;0
841361.9004;NotLabelled;NONE;16384;-0.2520775;-0.4307479;-0.8377373;0.2216066;-10;9;12;2694;-2406;2369;65536;0.4986149;0.5069252;0.5846845;-0.3905817;5;7;-1;-1156;-4116;-973;8192;0.836408;0.3144044;0.2354571;-0.3822715;-12;5;-30;-2074;-2771;2349;32768;0.6139313;0.466759;0.5110803;-0.3795014;11;22;-47;-257;-3747;-1452;256;0.4529086;-0.5470914;-0.4293629;-0.5578641;-4;-8;-1;-55;4080;-879;128;0.432133;-0.5903381;-0.4542936;-0.5083103;-1;0;1;-389;4115;832;4;-0.0567867;0.02908587;-0.7238694;-0.6869806;0;-6;-3;253;4058;230;16;0.5027701;-0.6275293;0.4168975;0.4238227;1;-5;0;443;3988;526;2;0.7123949;-0.6980609;0.004155125;-0.07202215;0;-8;3;-751;4038;-11;8;0.4044321;-0.4196676;0.5429363;0.6045941;0;-6;0;-211;4133;159;0.5675249;2.827279;-0.08541393;0.5735062;3.372333;-0.1078426;0.5787628;3.851351;-0.1295783;0.5537199;4.566119;0.03455919;0.2837586;4.883279;0.07031202;-0.05206515;4.720635;0.1004512;-0.7695639;5.262304;-0.1234192;-0.9531007;6.174498;-0.3023466;0.8037838;4.901488;0.07037187;1.097799;4.760896;0.100584;1.773546;5.433518;-0.03806138;1.802219;6.343662;-0.2999847;0.2552673;2.784924;-0.09119156;0.1829998;1.324871;-0.1534796;0;0;0;0.2552673;2.784924;-0.09119156;0.1829998;1.324871;-0.1534796;0;0;0
841383.7627;NotLabelled;NONE;16384;-0.2534626;-0.4307479;-0.8365812;0.2243767;-11;4;16;2596;-2454;2167;65536;0.4986149;0.5069252;0.5837569;-0.3919668;5;9;-2;-1162;-4024;-917;8192;0.8341792;0.3171745;0.2396122;-0.3822715;-14;12;-32;-1910;-2797;2133;32768;0.6160229;0.4639889;0.5069252;-0.3850415;12;20;-49;-169;-3543;-1344;256;0.4542936;-0.5470914;-0.4279778;-0.5578022;-5;-9;-1;-117;4006;-861;128;0.432133;-0.5891427;-0.4542936;-0.5096953;0;1;2;-409;4049;796;4;-0.05540166;0.02908587;-0.7239767;-0.6869806;0;-7;-3;249;4042;200;16;0.501385;-0.6267784;0.4182825;0.4252077;0;-5;0;425;4026;450;2;0.7111646;-0.699446;0.005540166;-0.07063711;0;-11;1;-611;4082;3;8;0.4030471;-0.4182825;0.5443213;0.6052331;-2;-8;1;-155;4101;253;0.5677164;2.827617;-0.08188081;0.5736976;3.372671;-0.1043095;0.5789542;3.851688;-0.1260453;0.5535346;4.566863;0.0362587;0.2834053;4.883969;0.07120463;-0.05233091;4.721224;0.1017697;-0.7683145;5.265988;-0.1194284;-0.9540475;6.177726;-0.2984043;0.8034207;4.902456;0.07120436;1.097512;4.762098;0.1017694;1.76699;5.439795;-0.04245305;1.809025;6.350371;-0.3010499;0.2554587;2.785262;-0.08765849;0.1833404;1.325209;-0.1501191;0;0;0;0.2554587;2.785262;-0.08765849;0.1833404;1.325209;-0.1501191;0;0;0
841404.8929;NotLabelled;NONE;16384;-0.2548476;-0.4307479;-0.8357874;0.2257618;-11;0;20;2528;-2466;2153;65536;0.4972299;0.5055401;0.5852059;-0.3933518;8;9;-2;-988;-3948;-913;8192;0.8319144;0.3199446;0.2437673;-0.3822715;-11;14;-28;-1706;-2845;2131;32768;0.6180173;0.4612188;0.5027701;-0.3905817;12;17;-46;-115;-3511;-1246;256;0.4556787;-0.5470914;-0.4279778;-0.5566713;-5;-9;-2;-19;3942;-919;128;0.432133;-0.5891427;-0.4542936;-0.5096953;1;1;2;-431;3889;850;4;-0.05540166;0.02770083;-0.724031;-0.6869806;0;-7;-2;281;4052;156;16;0.501385;-0.6267784;0.4182825;0.4252077;0;-4;0;417;3968;424;2;0.7112886;-0.699446;0.006925208;-0.06925207;1;-11;2;-567;4018;27;8;0.4016621;-0.4182825;0.5443213;0.6061531;-2;-7;1;-141;4129;269;0.5690157;2.827502;-0.08530959;0.574997;3.372554;-0.1077646;0.5802537;3.85157;-0.1295235;0.5526831;4.566684;0.03269702;0.2816015;4.882981;0.0676049;-0.05364407;4.719231;0.09818736;-0.7654924;5.268921;-0.124166;-0.9487456;6.181506;-0.3013782;0.8015589;4.903031;0.06760484;1.096071;4.763562;0.09818757;1.758785;5.447443;-0.04807317;1.814306;6.358968;-0.3007128;0.2567582;2.785146;-0.09108511;0.1843093;1.324995;-0.1508159;0;0;0;0.2567582;2.785146;-0.09108511;0.1843093;1.324995;-0.1508159;0;0;0
841425.788;NotLabelled;NONE;16384;-0.2603878;-0.4293629;-0.8332737;0.2313019;-13;-1;20;2388;-2418;2361;65536;0.4958449;0.5041551;0.5857072;-0.3961219;1;14;-3;-816;-3900;-807;8192;0.8293867;0.3227147;0.2465374;-0.3836565;-12;12;-23;-1606;-2791;2163;32768;0.6199156;0.4584487;0.4986149;-0.3961219;12;13;-44;-1;-3463;-1182;256;0.4570637;-0.5470914;-0.4279778;-0.5555346;1;-7;-2;-1;3890;-847;128;0.432133;-0.5891427;-0.4542936;-0.5096953;1;0;1;-497;3923;936;4;-0.05401662;0.02770083;-0.7241357;-0.6869806;-1;-6;-1;285;4086;196;16;0.501385;-0.6267784;0.4182825;0.4252077;0;-1;0;355;4014;482;2;0.7114073;-0.699446;0.008310249;-0.06786703;2;-9;2;-425;4074;29;8;0.4016621;-0.4168975;0.5443213;0.6071066;-2;-6;1;-113;4101;285;0.5692058;2.827386;-0.08186883;0.575187;3.372438;-0.1043237;0.5804436;3.851455;-0.1260827;0.5524887;4.566971;0.03429002;0.2812407;4.883217;0.06835499;-0.0539236;4.719373;0.09932653;-0.7627404;5.271985;-0.1254569;-0.946105;6.184546;-0.3026739;0.8011878;4.903534;0.06835473;1.095768;4.764297;0.09932637;1.751638;5.454314;-0.04894876;1.820522;6.366594;-0.2954983;0.2569482;2.785031;-0.08764425;0.1846893;1.324995;-0.1503505;0;0;0;0.2569482;2.785031;-0.08764425;0.1846893;1.324995;-0.1503505;0;0;0
841446.738;NotLabelled;NONE;16384;-0.2617728;-0.4293629;-0.8320654;0.234072;-15;-3;19;2454;-2480;2225;65536;0.4944598;0.5027701;0.5871286;-0.3975069;2;16;0;-646;-3932;-959;8192;0.8248931;0.3282548;0.2520775;-0.3850415;-11;11;-15;-1400;-2945;1965;32768;0.6215088;0.4556787;0.4958449;-0.400277;10;6;-40;23;-3521;-1120;256;0.4570637;-0.5470914;-0.4265928;-0.5565989;3;-6;0;-83;3916;-901;128;0.432133;-0.5891427;-0.4542936;-0.5096953;0;-1;0;-469;3941;896;4;-0.05401662;0.02631579;-0.7241874;-0.6869806;-1;-7;0;315;4066;208;16;0.501385;-0.6267784;0.4182825;0.4252077;-1;0;0;409;3980;532;2;0.7115381;-0.699446;0.008310249;-0.06648199;1;-9;2;-439;4078;79;8;0.400277;-0.4168975;0.5443213;0.6080207;-2;-4;2;-63;4099;327;0.5699182;2.827484;-0.08412847;0.5758994;3.372536;-0.1065834;0.5811561;3.851553;-0.1283423;0.5528246;4.567466;0.03017676;0.2814141;4.883664;0.06339645;-0.05367094;4.719731;0.09475767;-0.7512987;5.283603;-0.1369605;-0.9327214;6.196985;-0.3119369;0.8013509;4.904242;0.06339622;1.095998;4.765234;0.09475768;1.746579;5.460842;-0.05066681;1.828701;6.373686;-0.2909975;0.2576606;2.785129;-0.08990392;0.1850692;1.324995;-0.1498825;0;0;0;0.2576606;2.785129;-0.08990392;0.1850692;1.324995;-0.1498825;0;0;0
841467.7339;NotLabelled;NONE;16384;-0.2631579;-0.4293629;-0.8308437;0.2368421;-15;-2;19;2354;-2532;2095;65536;0.4930748;0.5;0.5897139;-0.398892;7;23;3;-490;-3802;-1103;8192;0.8222833;0.3310249;0.2548476;-0.3864266;-9;9;-5;-1504;-3029;1837;32768;0.6255959;0.4529086;0.4875346;-0.4072022;10;1;-29;121;-3563;-1158;256;0.4570637;-0.5484765;-0.4252077;-0.5562955;4;-6;0;-103;3942;-865;128;0.432133;-0.5891427;-0.4542936;-0.5096953;-1;-1;0;-461;4047;896;4;-0.05263158;0.02493075;-0.7243384;-0.6869806;0;-7;-2;257;4042;204;16;0.501385;-0.6258519;0.4196676;0.4252077;-1;-2;0;389;4000;492;2;0.7116486;-0.699446;0.009695291;-0.06509695;1;-9;3;-385;4094;109;8;0.398892;-0.4168975;0.5457063;0.6076893;-2;-4;1;-63;4127;339;0.5698724;2.827369;-0.08133602;0.5758536;3.372422;-0.103791;0.5811102;3.851438;-0.1255499;0.5510125;4.566889;0.03472388;0.2788188;4.882327;0.06874391;-0.05585374;4.717484;0.09973641;-0.7503504;5.286213;-0.1295046;-0.9322977;6.199581;-0.3040042;0.7987027;4.904201;0.06874341;1.093698;4.76585;0.09973574;1.731685;5.472282;-0.04926324;1.823772;6.385071;-0.2861642;0.2576148;2.785014;-0.0871114;0.1850693;1.324995;-0.1498823;0;0;0;0.2576148;2.785014;-0.0871114;0.1850693;1.324995;-0.1498823;0;0;0
841488.0926;NotLabelled;NONE;16384;-0.265928;-0.4293629;-0.8287643;0.2409972;-14;-3;21;2324;-2514;2081;65536;0.4903047;0.4986149;0.5913138;-0.4016621;10;28;6;-644;-3774;-787;8192;0.8212935;0.33241;0.2562327;-0.3864266;-6;9;0;-1388;-3011;1939;32768;0.6268442;0.4529086;0.4847645;-0.4085872;8;-3;-25;129;-3695;-1074;256;0.4570637;-0.5484765;-0.4252077;-0.5562955;4;-5;0;-113;3950;-885;128;0.432133;-0.5903381;-0.4542936;-0.5083103;-2;0;0;-429;3969;832;4;-0.05124654;0.0235457;-0.724484;-0.6869806;0;-5;-2;315;4026;276;16;0.501385;-0.6249086;0.4196676;0.4265928;-2;0;-1;437;3998;564;2;0.7118965;-0.699446;0.009695291;-0.06232687;0;-7;3;-351;4110;19;8;0.3975069;-0.4168975;0.5457063;0.6085962;-2;-4;1;-79;4087;395;0.5705134;2.827688;-0.07774207;0.5764946;3.37274;-0.100197;0.5817512;3.851757;-0.1219558;0.5516266;4.566815;0.04005134;0.2794174;4.882154;0.07486194;-0.05524197;4.717216;0.1054895;-0.7452907;5.290783;-0.1251241;-0.9271765;6.203739;-0.3018338;0.7993;4.904059;0.07486159;1.094307;4.765651;0.1054893;1.726532;5.477582;-0.04189324;1.839397;6.390711;-0.268266;0.2582558;2.785332;-0.08351748;0.1854667;1.32533;-0.1463894;0;0;0;0.2582558;2.785332;-0.08351748;0.1854667;1.32533;-0.1463894;0;0;0
841508.7422;NotLabelled;NONE;16384;-0.267313;-0.4307479;-0.8267875;0.2437673;-15;-5;21;2186;-2532;2001;65536;0.4875346;0.4972299;0.5928803;-0.4044321;8;30;7;-618;-3782;-709;8192;0.8206403;0.33241;0.2562327;-0.3878116;-6;8;1;-1524;-2979;1987;32768;0.6290712;0.4515235;0.4819945;-0.4099723;7;-5;-21;243;-3599;-1052;256;0.4570637;-0.5498615;-0.4238227;-0.5559851;2;-4;0;-63;3926;-845;128;0.432133;-0.5914014;-0.4529086;-0.5083103;-4;-1;-1;-481;3963;872;4;-0.05124654;0.0235457;-0.724484;-0.6869806;0;-2;-3;309;4060;250;16;0.501385;-0.6258366;0.4182825;0.4265928;-2;2;0;361;4030;564;2;0.7118965;-0.699446;0.009695291;-0.06232687;0;-5;3;-331;4104;17;8;0.3975069;-0.4168975;0.5457063;0.6085962;-2;-1;0;-103;4055;345;0.5677851;2.827964;-0.07917339;0.5737664;3.373017;-0.101602;0.579023;3.852035;-0.1233378;0.5488985;4.567093;0.03866935;0.2766892;4.882432;0.07348001;-0.05797025;4.717494;0.1041076;-0.7416294;5.298736;-0.1263191;-0.9245373;6.212095;-0.2998683;0.7965717;4.904336;0.07347971;1.091579;4.765929;0.1041073;1.720688;5.480462;-0.04401386;1.838592;6.393796;-0.2669616;0.2555275;2.785609;-0.08495098;0.1823151;1.325622;-0.1477015;0;0;0;0.2555275;2.785609;-0.08495098;0.1823151;1.325622;-0.1477015;0;0;0
841529.7489;NotLabelled;NONE;16384;-0.2714681;-0.432133;-0.8230504;0.2493075;-14;-8;16;2232;-2606;1967;65536;0.4792244;0.4916897;0.5994751;-0.4113573;10;53;9;-654;-3776;-687;8192;0.8194215;0.333795;0.2562327;-0.3891967;-5;7;3;-1572;-3029;1811;32768;0.6302822;0.4515235;0.4792244;-0.4113573;7;-6;-17;251;-3649;-1036;256;0.4570637;-0.5512465;-0.4238227;-0.5546119;4;0;2;-121;3880;-827;128;0.4307479;-0.5912197;-0.4529086;-0.5096953;-5;0;-2;-385;3935;860;4;-0.05124654;0.0235457;-0.724484;-0.6869806;0;0;-2;323;4050;284;16;0.501385;-0.6258366;0.4182825;0.4265928;-2;4;-1;481;3984;572;2;0.7106532;-0.700831;0.009695291;-0.06094183;0;-4;3;-285;4096;-43;8;0.3975069;-0.4168975;0.5457063;0.6085962;-2;0;1;-85;4107;355;0.5680969;2.82761;-0.08124661;0.5740787;3.372719;-0.1022736;0.579336;3.851791;-0.1227775;0.5492063;4.566455;0.04096162;0.2769861;4.881692;0.07659778;-0.05765595;4.71666;0.1069071;-0.7361546;5.30246;-0.1272031;-0.9195307;6.216225;-0.2980917;0.7968673;4.903629;0.0765264;1.09189;4.765166;0.1067497;1.721818;5.479595;-0.03836513;1.847786;6.39231;-0.2594332;0.2558394;2.78527;-0.08714199;0.1828099;1.325283;-0.1501053;0;0;0;0.2558394;2.78527;-0.08714199;0.1828099;1.325283;-0.1501053;0;0;0
841549.9743;NotLabelled;NONE;16384;-0.2728532;-0.433518;-0.8210177;0.2520775;-15;-11;16;2088;-2704;1889;65536;0.4736842;0.4861496;0.604548;-0.4168975;11;61;11;-622;-3724;-585;8192;0.8198534;0.333795;0.2548476;-0.3891967;-3;6;5;-1564;-2947;1951;32768;0.6313876;0.4529086;0.4764543;-0.4113573;6;-6;-15;183;-3863;-898;256;0.4570637;-0.5512465;-0.4238227;-0.5546119;5;0;2;-133;3916;-857;128;0.4293629;-0.5922264;-0.4529086;-0.5096953;-5;0;-2;-407;3941;918;4;-0.05124654;0.02493075;-0.7244377;-0.6869806;1;2;-2;217;4032;260;16;0.501385;-0.62676;0.4168975;0.4265928;-2;2;-1;483;3988;546;2;0.7107707;-0.700831;0.009695291;-0.05955679;0;-2;3;-313;4120;-17;8;0.3975069;-0.4168975;0.5457063;0.6085962;-2;0;0;-53;4081;353;0.5683731;2.827595;-0.08031937;0.5743556;3.372755;-0.1000041;0.5796133;3.851876;-0.1193284;0.5511987;4.566615;0.04438984;0.2797408;4.882513;0.07998121;-0.05530558;4.718297;0.1102482;-0.7245194;5.315471;-0.1218397;-0.912011;6.229295;-0.2878746;0.7996739;4.903186;0.07998097;1.094355;4.764007;0.1102481;1.722501;5.480916;-0.03028631;1.854131;6.393772;-0.2474365;0.2561158;2.78527;-0.08632745;0.1832874;1.325283;-0.1495225;0;0;0;0.2561158;2.78527;-0.08632745;0.1832874;1.325283;-0.1495225;0;0;0
841570.7504;NotLabelled;NONE;16384;-0.2756233;-0.434903;-0.818501;0.2548476;-12;-14;17;2138;-2684;1879;65536;0.468144;0.4833795;0.6081941;-0.4210526;10;55;10;-702;-3786;-591;8192;0.8185326;0.333795;0.2548476;-0.3919668;-2;7;4;-1828;-3097;1829;32768;0.6346318;0.4529086;0.4709141;-0.4127424;4;-17;-17;313;-3975;-944;256;0.4556787;-0.5512465;-0.4238227;-0.5557504;4;0;2;-133;3894;-855;128;0.4293629;-0.5922264;-0.4529086;-0.5096953;-7;-1;-2;-365;4011;826;4;-0.05263158;0.02631579;-0.7242893;-0.6869806;2;6;-2;211;4052;242;16;0.501385;-0.62676;0.4168975;0.4265928;-2;4;-2;475;4046;608;2;0.7107707;-0.700831;0.009695291;-0.05955679;0;0;2;-309;4100;-13;8;0.3961219;-0.4182825;0.5443213;0.6097881;-2;0;1;-31;4095;295;0.5685195;2.827351;-0.08592308;0.5745025;3.372557;-0.1042413;0.5797607;3.851726;-0.1223646;0.5513461;4.566464;0.041354;0.2798882;4.882363;0.07694551;-0.0551582;4.718146;0.1072124;-0.7204499;5.320408;-0.1229972;-0.9093153;6.234399;-0.28654;0.7998213;4.903036;0.0769453;1.094502;4.763857;0.1072124;1.723964;5.480002;-0.0313071;1.858149;6.393303;-0.2449994;0.2562624;2.78504;-0.09204578;0.1833624;1.324939;-0.1524512;0;0;0;0.2562624;2.78504;-0.09204578;0.1833624;1.324939;-0.1524512;0;0;0
841592.0219;NotLabelled;NONE;16384;-0.2770083;-0.4362881;-0.8168622;0.2562327;-11;-16;14;2260;-2674;1781;65536;0.4626039;0.4792244;0.6128132;-0.4252077;12;45;5;-760;-3772;-415;8192;0.8189626;0.333795;0.2534626;-0.3919668;-2;6;5;-1782;-3067;1851;32768;0.6356903;0.4542936;0.468144;-0.4127424;3;-13;-15;449;-3867;-926;256;0.4556787;-0.5526316;-0.4224377;-0.5554293;4;1;2;-221;3944;-857;128;0.4279778;-0.5942829;-0.4515235;-0.5096953;-9;0;-2;-331;4055;806;4;-0.05263158;0.02770083;-0.7242377;-0.6869806;2;6;-3;163;4078;274;16;0.501385;-0.6276791;0.4155124;0.4265928;-2;5;-2;459;4028;566;2;0.7107882;-0.700831;0.008310249;-0.05955679;-1;1;2;-307;4068;-13;8;0.3961219;-0.4182825;0.5443213;0.6097881;-3;1;0;-97;4099;361;0.5678616;2.827367;-0.08645239;0.5738446;3.372573;-0.1047706;0.5791029;3.851742;-0.122894;0.5510617;4.566068;0.04267818;0.2797652;4.882009;0.07911581;-0.05536003;4.717882;0.1089919;-0.7158455;5.326105;-0.1193751;-0.9085236;6.240205;-0.2777859;0.7997085;4.902422;0.07911545;1.094324;4.763019;0.1089915;1.723352;5.479687;-0.02878952;1.866826;6.392689;-0.2376704;0.2556045;2.785057;-0.09257497;0.1829758;1.324939;-0.1529149;0;0;0;0.2556045;2.785057;-0.09257497;0.1829758;1.324939;-0.1529149;0;0;0
841612.7449;NotLabelled;NONE;16384;-0.2783934;-0.4390582;-0.814468;0.2576177;-8;-12;11;2370;-2764;1821;65536;0.4598338;0.4778393;0.61405;-0.4279778;8;20;3;-252;-4040;-687;8192;0.8182982;0.333795;0.2534626;-0.3933518;0;5;7;-1936;-3055;1895;32768;0.6377211;0.4542936;0.4653739;-0.4127424;3;-4;-13;545;-3915;-950;256;0.4556787;-0.5526316;-0.4224377;-0.5554293;5;2;2;-185;4012;-837;128;0.4279778;-0.5942829;-0.4515235;-0.5096953;-8;0;-3;-377;4103;746;4;-0.05401662;0.02770083;-0.7241357;-0.6869806;1;5;-3;141;4082;270;16;0.501385;-0.6285937;0.4141274;0.4265928;-3;7;-3;405;4050;558;2;0.7107882;-0.700831;0.008310249;-0.05955679;-1;2;1;-401;4102;7;8;0.3961219;-0.4182825;0.5443213;0.6097881;-3;4;0;-141;4107;363;0.5682928;2.827095;-0.0911538;0.5742767;3.372387;-0.1067069;0.5795358;3.851641;-0.1223999;0.5514646;4.565566;0.04489422;0.2801514;4.8814;0.08211794;-0.05496053;4.71718;0.1116304;-0.7119702;5.328555;-0.1183418;-0.9073437;6.242449;-0.2746291;0.8000934;4.901847;0.08211762;1.09472;4.76239;0.1116302;1.725509;5.478288;-0.0220505;1.872079;6.391699;-0.2269497;0.256036;2.784816;-0.09750822;0.1835194;1.324589;-0.1552787;0;0;0;0.256036;2.784816;-0.09750822;0.1835194;1.324589;-0.1552787;0;0;0
841633.8179;NotLabelled;NONE;16384;-0.2797784;-0.4404432;-0.812362;0.2603878;-4;-5;8;2242;-2734;1901;65536;0.4570637;0.4764543;0.6142843;-0.432133;1;15;4;-762;-3944;-457;8192;0.818195;0.33241;0.2534626;-0.3947368;1;4;7;-1898;-3015;1813;32768;0.6378323;0.4542936;0.4639889;-0.4141274;2;-5;-8;679;-3871;-932;256;0.4542936;-0.5526316;-0.4224377;-0.5565628;7;2;2;-157;4002;-861;128;0.4265928;-0.5952779;-0.4515235;-0.5096953;-8;-2;-3;-389;4085;818;4;-0.05401662;0.02908587;-0.7240814;-0.6869806;1;6;-3;163;4080;240;16;0.501385;-0.6285937;0.4141274;0.4265928;-4;7;-2;413;4002;592;2;0.710803;-0.700831;0.006925208;-0.05955679;0;2;1;-343;4068;1;8;0.3961219;-0.4196676;0.5429363;0.6100712;-3;3;0;-65;4083;357;0.5678607;2.826646;-0.09116602;0.5738446;3.371938;-0.106719;0.5791037;3.851192;-0.1224121;0.5510325;4.565117;0.044882;0.2797192;4.880951;0.08210576;-0.05539267;4.716731;0.1116183;-0.7097585;5.331612;-0.1165379;-0.9055883;6.246001;-0.2693041;0.7996612;4.901398;0.08210546;1.094288;4.761941;0.1116179;1.725007;5.478094;-0.02101791;1.876435;6.391087;-0.2242432;0.2556038;2.784367;-0.0975204;0.1835956;1.324233;-0.1581978;0;0;0;0.2556038;2.784367;-0.0975204;0.1835956;1.324233;-0.1581978;0;0;0
841655.7399;NotLabelled;NONE;16384;-0.2811634;-0.4404432;-0.8118837;0.2603878;-4;-6;8;2360;-2668;1987;65536;0.4542936;0.4750692;0.6164322;-0.433518;-1;18;5;-700;-3984;-577;8192;0.8186228;0.33241;0.2520775;-0.3947368;-1;1;7;-1950;-3003;2055;32768;0.6388376;0.4542936;0.4626039;-0.4141274;2;-3;-8;225;-4059;-1068;256;0.4529086;-0.5563145;-0.4224377;-0.5540166;5;1;2;-189;3968;-935;128;0.4265928;-0.5963259;-0.4501385;-0.5096953;-5;-2;-3;-335;4073;830;4;-0.05401662;0.03047091;-0.7240244;-0.6869806;1;6;-1;147;4098;178;16;0.501385;-0.6295041;0.4127424;0.4265928;-4;7;-3;411;4024;642;2;0.710803;-0.700831;0.006925208;-0.05955679;0;1;1;-367;4046;-15;8;0.3961219;-0.4196676;0.5429363;0.6100712;-3;1;0;-131;4121;409;0.5676795;2.826739;-0.09448856;0.5736638;3.372069;-0.1086786;0.5789233;3.851361;-0.1231737;0.5512326;4.564864;0.04596823;0.2800838;4.880739;0.0840359;-0.05510869;4.716614;0.1131579;-0.7059769;5.336508;-0.11141;-0.9003667;6.252219;-0.2579875;0.8000361;4.900922;0.08403552;1.094595;4.76124;0.1131576;1.726763;5.475817;-0.02106977;1.880051;6.38904;-0.2218515;0.2554228;2.784477;-0.1009573;0.1831957;1.324233;-0.1586607;0;0;0;0.2554228;2.784477;-0.1009573;0.1831957;1.324233;-0.1586607;0;0;0
841675.7392;NotLabelled;NONE;16384;-0.2825485;-0.4418283;-0.8102032;0.2617728;-6;-4;7;2394;-2622;1939;65536;0.4529086;0.4736842;0.6185138;-0.433518;-1;22;5;-636;-3964;-611;8192;0.8189403;0.3310249;0.2506925;-0.3961219;0;0;6;-2030;-3021;1911;32768;0.6409182;0.4529086;0.4598338;-0.4155124;4;3;-10;573;-3839;-1254;256;0.4515235;-0.5574393;-0.4224377;-0.5540166;4;2;3;-219;3990;-953;128;0.4265928;-0.5963259;-0.4501385;-0.5096953;-4;-1;-3;-375;4093;826;4;-0.05540166;0.03185596;-0.7238601;-0.6869806;0;5;0;59;4032;190;16;0.5027701;-0.6302091;0.4099723;0.4265928;-4;6;-2;389;4062;558;2;0.7108152;-0.700831;0.005540166;-0.05955679;0;0;1;-325;4092;31;8;0.3961219;-0.4196676;0.5429363;0.6100712;-3;1;0;-151;4123;389;0.5684015;2.826465;-0.09866005;0.5743862;3.37183;-0.1114522;0.5796462;3.851157;-0.1247186;0.5569573;4.564407;0.04622906;0.2880223;4.882064;0.08514997;-0.0482996;4.720205;0.1139271;-0.695161;5.340408;-0.1211216;-0.8912902;6.255801;-0.26736;0.8081025;4.898626;0.08509272;1.101687;4.756823;0.1138012;1.736578;5.470287;-0.01330793;1.893385;6.383288;-0.212373;0.2561451;2.784219;-0.1052459;0.1841578;1.323871;-0.1605566;0;0;0;0.2561451;2.784219;-0.1052459;0.1841578;1.323871;-0.1605566;0;0;0
841696.7328;NotLabelled;NONE;16384;-0.2825485;-0.4418283;-0.8097544;0.2631579;-5;0;5;2420;-2778;1883;65536;0.4515235;0.4722992;0.6196123;-0.434903;0;22;7;-606;-3986;-673;8192;0.818692;0.3310249;0.2493075;-0.3975069;-2;2;8;-1920;-2961;2025;32768;0.640996;0.4515235;0.4598338;-0.4168975;6;6;-10;521;-3967;-1264;256;0.4515235;-0.5584861;-0.4210526;-0.5540166;6;0;3;-205;4044;-977;128;0.4252077;-0.5984935;-0.4501385;-0.5083103;-2;-3;-3;-371;4127;854;4;-0.0567867;0.033241;-0.7236905;-0.6869806;0;4;0;5;4062;126;16;0.5027701;-0.631108;0.4085872;0.4265928;-4;5;-2;367;4044;648;2;0.7108152;-0.700831;0.005540166;-0.05955679;0;0;0;-351;4088;67;8;0.3961219;-0.4196676;0.5415512;0.6113009;-2;2;0;-121;4075;451;0.5643111;2.826603;-0.1016507;0.5702958;3.371968;-0.1144427;0.5755558;3.851295;-0.1277091;0.5546343;4.564159;0.04506236;0.2864885;4.882385;0.08478832;-0.05023587;4.721289;0.1131419;-0.6955917;5.345208;-0.1161361;-0.894047;6.259876;-0.2637709;0.8066084;4.897652;0.08478808;1.099838;4.755047;0.1131418;1.73708;5.466474;-0.01362371;1.901081;6.378617;-0.2108189;0.2520547;2.784357;-0.1082365;0.1805202;1.323991;-0.1636655;0;0;0;0.2520547;2.784357;-0.1082365;0.1805202;1.323991;-0.1636655;0;0;0
841717.7427;NotLabelled;NONE;16384;-0.2825485;-0.4418283;-0.8097544;0.2631579;-4;1;4;2396;-2888;1839;65536;0.4487534;0.4695291;0.6227484;-0.4362881;-2;24;7;-702;-4038;-619;8192;0.8191125;0.3310249;0.2479224;-0.3975069;-3;3;7;-2098;-3001;1911;32768;0.6410857;0.4515235;0.4584487;-0.4182825;6;5;-12;411;-3965;-1162;256;0.4501385;-0.5596031;-0.4210526;-0.5540166;6;0;3;-183;4026;-995;128;0.4252077;-0.5984935;-0.4501385;-0.5083103;0;-2;-4;-355;4055;884;4;-0.0567867;0.033241;-0.7236905;-0.6869806;0;2;0;-27;4084;106;16;0.5027701;-0.6320025;0.4072022;0.4265928;-4;4;-2;307;4016;716;2;0.7108152;-0.700831;0.005540166;-0.05955679;0;-1;1;-387;4066;109;8;0.3961219;-0.4196676;0.5415512;0.6113009;-2;-1;0;-123;4129;405;0.5641969;2.826231;-0.1037434;0.5701819;3.371626;-0.115142;0.5754424;3.850985;-0.1271836;0.5540609;4.563417;0.04730642;0.2857071;4.881368;0.087818;-0.05090838;4.719981;0.1158071;-0.6944003;5.345762;-0.1136373;-0.8926294;6.26053;-0.2609537;0.8058167;4.896981;0.08781779;1.099143;4.754502;0.1158071;1.737925;5.465383;-0.006177068;1.904759;6.377117;-0.2028866;0.2519407;2.784002;-0.1104458;0.1809943;1.323617;-0.1661488;0;0;0;0.2519407;2.784002;-0.1104458;0.1809943;1.323617;-0.1661488;0;0;0
841738.7397;NotLabelled;NONE;16384;-0.2825485;-0.4418283;-0.8093029;0.2645429;-4;1;4;2334;-2838;1889;65536;0.4473684;0.468144;0.6238148;-0.4376731;-4;28;7;-1154;-3930;-875;8192;0.8184389;0.3310249;0.2479224;-0.398892;-4;1;6;-2090;-2985;1891;32768;0.6421427;0.4501385;0.4570637;-0.4196676;7;2;-14;507;-3997;-1092;256;0.4501385;-0.5582285;-0.4210526;-0.5554016;6;0;4;-149;4034;-1111;128;0.4265928;-0.5986826;-0.4501385;-0.5069252;0;-2;-3;-415;4089;942;4;-0.0567867;0.03462604;-0.7223082;-0.6883656;0;1;0;-59;4092;108;16;0.5027701;-0.6320025;0.4072022;0.4265928;-3;2;-2;351;4000;698;2;0.7108152;-0.700831;0.005540166;-0.05955679;0;-2;1;-333;4130;55;8;0.3961219;-0.4196676;0.5415512;0.6113009;-2;0;0;-135;4083;431;0.5642884;2.82585;-0.1066459;0.5702735;3.371246;-0.1180446;0.5755337;3.850605;-0.1300862;0.5559289;4.56264;0.04622465;0.2883663;4.881149;0.08756879;-0.04864572;4.720526;0.1151713;-0.6921619;5.346308;-0.1142043;-0.8928152;6.260459;-0.2620621;0.8085129;4.895474;0.08756858;1.101487;4.752198;0.1151713;1.741522;5.462286;-0.004852295;1.910676;6.374205;-0.1986985;0.2520322;2.783622;-0.1133484;0.1810857;1.323238;-0.1690505;0;0;0;0.2520322;2.783622;-0.1133484;0.1810857;1.323238;-0.1690505;0;0;0
841758.7504;NotLabelled;NONE;16384;-0.2825485;-0.4418283;-0.8083922;0.267313;-4;0;3;2428;-2710;1835;65536;0.4432133;0.4653739;0.6288333;-0.4376731;4;0;-2;-950;-3878;-1143;8192;0.818181;0.3310249;0.2465374;-0.400277;-5;4;5;-2140;-2925;1901;32768;0.6422204;0.4501385;0.4556787;-0.4210526;9;-1;-16;569;-3897;-1180;256;0.4487534;-0.5607144;-0.4210526;-0.5540166;1;1;3;-107;3950;-991;128;0.4265928;-0.5997214;-0.4487534;-0.5069252;0;-2;-2;-451;3965;932;4;-0.0567867;0.03462604;-0.7223082;-0.6883656;0;0;0;-43;4126;126;16;0.5027701;-0.6320025;0.4072022;0.4265928;-2;0;-2;335;3994;652;2;0.7109299;-0.700831;0.005540166;-0.05817174;0;-2;1;-351;4108;83;8;0.3961219;-0.4210526;0.5415512;0.6103478;-1;0;0;-135;4081;439;0.5584686;2.826246;-0.1108174;0.5644533;3.371611;-0.1235479;0.5697134;3.85094;-0.1367603;0.5483782;4.562923;0.03956103;0.280046;4.880787;0.08088407;-0.05658149;4.719353;0.1084502;-0.7001226;5.347542;-0.1141731;-0.9012963;6.261807;-0.2606209;0.8001567;4.896363;0.0809359;1.093472;4.753791;0.1085653;1.732756;5.464409;-0.01231444;1.906076;6.37565;-0.2056756;0.2462122;2.784001;-0.1174085;0.1805822;1.323237;-0.1695876;0;0;0;0.2462122;2.784001;-0.1174085;0.1805822;1.323237;-0.1695876;0;0;0
841779.7342;NotLabelled;NONE;16384;-0.2825485;-0.4418283;-0.8083922;0.267313;-3;0;3;2432;-2840;1947;65536;0.4445983;0.4653739;0.6278548;-0.4376731;4;-11;-1;-742;-4186;-881;8192;0.8183322;0.3310249;0.2437673;-0.4016621;-7;-1;6;-2190;-2959;2019;32768;0.6452674;0.4501385;0.4487534;-0.4238227;11;-12;-20;689;-3995;-1198;256;0.4473684;-0.5618201;-0.4210526;-0.5540166;1;1;3;-81;3942;-963;128;0.4265928;-0.5998526;-0.4501385;-0.5055401;1;0;-2;-415;4017;884;4;-0.0567867;0.03462604;-0.7223082;-0.6883656;0;-1;0;-53;4064;144;16;0.501385;-0.6330565;0.4058172;0.4279778;-2;0;-1;319;3982;772;2;0.7109299;-0.700831;0.005540166;-0.05817174;0;-2;1;-321;4114;31;8;0.3947368;-0.4210526;0.5415512;0.6112444;-1;0;0;-97;4079;391;0.5588163;2.826228;-0.1099688;0.5648013;3.371625;-0.1213048;0.5700617;3.850986;-0.1332913;0.5522279;4.562615;0.04483616;0.2854558;4.881679;0.08701125;-0.05195048;4.721818;0.1142278;-0.6914985;5.353162;-0.1109642;-0.8991954;6.265575;-0.2598299;0.8056363;4.894718;0.08701104;1.098258;4.750648;0.1142278;1.73948;5.460407;-0.001317501;1.915679;6.371808;-0.1912888;0.24656;2.784;-0.1166765;0.1810853;1.323237;-0.1690504;0;0;0;0.24656;2.784;-0.1166765;0.1810853;1.323237;-0.1690504;0;0;0
841799.7557;NotLabelled;NONE;16384;-0.2839335;-0.4418283;-0.8074471;0.2686981;-6;2;4;2416;-2710;2119;65536;0.4445983;0.466759;0.6268258;-0.4376731;5;-15;2;-966;-3990;-903;8192;0.8187435;0.3310249;0.2423823;-0.4016621;-8;-1;6;-2060;-2935;1905;32768;0.6462759;0.4501385;0.4459834;-0.4252077;9;-12;-18;883;-3919;-886;256;0.4473684;-0.5618201;-0.4210526;-0.5540166;4;2;2;-29;3994;-1079;128;0.4265928;-0.5998526;-0.4501385;-0.5055401;2;0;-1;-445;4041;934;4;-0.05540166;0.03462604;-0.7224157;-0.6883656;0;-2;-1;1;4082;128;16;0.501385;-0.6330565;0.4058172;0.4279778;-1;0;0;271;4050;770;2;0.7109299;-0.700831;0.005540166;-0.05817174;0;-3;1;-337;4122;63;8;0.3947368;-0.4210526;0.5415512;0.6112444;-1;0;0;-125;4039;393;0.5595933;2.825233;-0.1170217;0.5655781;3.3706;-0.1297204;0.5708381;3.849929;-0.1429047;0.5547699;4.561144;0.03703427;0.2887881;4.880757;0.08003804;-0.04900986;4.72166;0.1068692;-0.6885974;5.353004;-0.118209;-0.8939397;6.265828;-0.2678264;0.8089991;4.892513;0.08003789;1.101266;4.747653;0.1068693;1.744922;5.456027;-0.003531456;1.932726;6.366856;-0.1849319;0.247337;2.782989;-0.1236154;0.1818622;1.322226;-0.1759891;0;0;0;0.247337;2.782989;-0.1236154;0.1818622;1.322226;-0.1759891;0;0;0
841820.9558;NotLabelled;NONE;16384;-0.2825485;-0.4418283;-0.8079329;0.2686981;-10;4;5;2566;-2744;2113;65536;0.4459834;0.4695291;0.6247351;-0.4362881;9;-20;0;-992;-3866;-1119;8192;0.8189977;0.33241;0.2396122;-0.4016621;-9;0;7;-2010;-2991;1877;32768;0.6463026;0.4515235;0.4432133;-0.4265928;8;-7;-16;787;-3977;-808;256;0.4459834;-0.5615537;-0.4210526;-0.5554016;4;3;2;-25;3978;-1057;128;0.4265928;-0.5998526;-0.4501385;-0.5055401;1;1;-1;-455;4075;970;4;-0.05540166;0.03462604;-0.7224157;-0.6883656;0;-1;-2;117;4100;170;16;0.501385;-0.6330565;0.4058172;0.4279778;0;0;0;351;4028;702;2;0.7110418;-0.700831;0.005540166;-0.0567867;0;-2;0;-285;4132;97;8;0.3947368;-0.4210526;0.5415512;0.6112444;0;0;0;-143;4137;435;0.5601398;2.82531;-0.119916;0.5661244;3.370677;-0.1326147;0.5713844;3.850006;-0.145799;0.5553162;4.561221;0.03413993;0.2893344;4.880834;0.07714376;-0.0484635;4.721736;0.1039749;-0.6851913;5.355821;-0.1215118;-0.8905967;6.268957;-0.2691147;0.8095455;4.89259;0.07714361;1.101812;4.74773;0.1039751;1.746714;5.455292;-0.004335999;1.939096;6.365927;-0.1818734;0.2478833;2.783065;-0.1265096;0.1818622;1.322226;-0.1759891;0;0;0;0.2478833;2.783065;-0.1265096;0.1818622;1.322226;-0.1759891;0;0;0
841841.7385;NotLabelled;NONE;16384;-0.2825485;-0.4418283;-0.8070064;0.2714681;-11;0;8;2410;-2920;1795;65536;0.4473684;0.4722992;0.622619;-0.434903;11;-25;0;-906;-3996;-1035;8192;0.8181576;0.333795;0.2382271;-0.4030471;-9;0;6;-2198;-2989;1813;32768;0.6472799;0.4515235;0.4404432;-0.4279778;9;0;-15;785;-3907;-872;256;0.4445983;-0.5616118;-0.4224377;-0.5554016;2;4;2;-79;3992;-991;128;0.4265928;-0.5998526;-0.4501385;-0.5055401;0;1;-1;-449;4019;836;4;-0.05540166;0.03462604;-0.7224157;-0.6883656;0;0;-1;141;4140;140;16;0.501385;-0.6330565;0.4058172;0.4279778;0;0;0;341;4032;758;2;0.7110418;-0.700831;0.005540166;-0.0567867;0;0;0;-265;4120;81;8;0.3947368;-0.4210526;0.5415512;0.6112444;0;0;0;-117;4105;451;0.5597494;2.82531;-0.1206776;0.5657341;3.370677;-0.1333764;0.5709941;3.850006;-0.1465608;0.5549896;4.56076;0.03519422;0.2890342;4.880282;0.07902917;-0.04877413;4.721143;0.1054735;-0.6876978;5.354334;-0.1162779;-0.8935459;6.267664;-0.2620612;0.8092461;4.891999;0.07902914;1.101503;4.74705;0.1054738;1.746733;5.454821;0.0005326271;1.940706;6.366107;-0.1718606;0.247493;2.783066;-0.1272714;0.18132;1.322226;-0.1765476;0;0;0;0.247493;2.783066;-0.1272714;0.18132;1.322226;-0.1765476;0;0;0
841862.7348;NotLabelled;NONE;16384;-0.2839335;-0.4418283;-0.8055824;0.2742382;-9;-4;9;2344;-2788;1885;65536;0.4487534;0.4806094;0.6171678;-0.432133;12;-36;0;-968;-3920;-633;8192;0.8185596;0.333795;0.2368421;-0.4030471;-8;0;4;-2204;-2983;1741;32768;0.6492034;0.4501385;0.4376731;-0.4293629;9;2;-15;949;-3987;-860;256;0.4445983;-0.5616118;-0.4224377;-0.5554016;1;4;2;-15;4052;-969;128;0.4265928;-0.6010171;-0.4501385;-0.5041551;0;0;-2;-451;4095;864;4;-0.05540166;0.03601108;-0.722348;-0.6883656;0;0;-2;115;4122;148;16;0.501385;-0.6330565;0.4058172;0.4279778;0;0;0;317;4008;658;2;0.7110513;-0.700831;0.004155125;-0.0567867;0;0;0;-251;4104;75;8;0.3947368;-0.4210526;0.5415512;0.6112444;0;0;0;-87;4079;441;0.559451;2.82531;-0.1212564;0.5654358;3.370677;-0.1339551;0.5706957;3.850006;-0.1471395;0.5569262;4.560786;0.03469938;0.2919767;4.881137;0.07857275;-0.0463302;4.723057;0.1049992;-0.6830742;5.359932;-0.1124326;-0.8892357;6.273459;-0.2565282;0.812223;4.891219;0.07857269;1.104023;4.745348;0.1049994;1.748392;5.454341;0.003062725;1.946499;6.365381;-0.1659019;0.2471946;2.783066;-0.1278501;0.1809065;1.322226;-0.1769713;0;0;0;0.2471946;2.783066;-0.1278501;0.1809065;1.322226;-0.1769713;0;0;0
841883.9083;NotLabelled;NONE;16384;-0.2839335;-0.4432133;-0.803872;0.2770083;-10;-5;11;2190;-2850;1809;65536;0.4501385;0.4847645;0.6138689;-0.4307479;11;-40;-1;-804;-3964;-605;8192;0.8177096;0.33518;0.2354571;-0.4044321;-7;1;2;-1944;-3121;1799;32768;0.6473747;0.4501385;0.434903;-0.434903;10;6;-10;933;-4067;-732;256;0.4432133;-0.561663;-0.4238227;-0.5554016;1;4;2;-89;4026;-997;128;0.4265928;-0.5999773;-0.4515235;-0.5041551;0;0;-1;-391;4071;858;4;-0.05540166;0.03601108;-0.722348;-0.6883656;0;1;-2;151;4022;178;16;0.501385;-0.6330565;0.4058172;0.4279778;1;0;0;321;4026;638;2;0.7110513;-0.700831;0.004155125;-0.0567867;0;0;0;-281;4072;39;8;0.3947368;-0.4210526;0.5401662;0.6124688;0;0;0;-141;4099;421;0.5595243;2.825398;-0.1240538;0.5655091;3.370765;-0.1367202;0.570769;3.850095;-0.1498763;0.5569995;4.560875;0.03196251;0.2920501;4.881226;0.07583591;-0.04625687;4.723145;0.1022623;-0.6787738;5.364575;-0.1141148;-0.8873247;6.278677;-0.2509435;0.8122963;4.891307;0.07583582;1.104096;4.745437;0.1022627;1.749683;5.453611;0.002363563;1.954716;6.363494;-0.1645582;0.2472679;2.783153;-0.1306502;0.1809067;1.322226;-0.1769713;0;0;0;0.2472679;2.783153;-0.1306502;0.1809067;1.322226;-0.1769713;0;0;0
841903.9723;NotLabelled;NONE;16384;-0.2853186;-0.4432133;-0.8029025;0.2783934;-11;-7;10;2212;-2850;1811;65536;0.4515235;0.4889196;0.6105175;-0.4293629;10;-45;-3;-818;-3882;-501;8192;0.8168517;0.3365651;0.234072;-0.4058172;-7;4;0;-2054;-3011;1865;32768;0.6464362;0.4501385;0.433518;-0.4376731;7;6;-11;841;-4131;-596;256;0.4418283;-0.5627532;-0.4238227;-0.5554016;-1;4;1;-115;3982;-1003;128;0.4252077;-0.6009597;-0.4515235;-0.5041551;0;1;-1;-421;4045;910;4;-0.05540166;0.03601108;-0.722348;-0.6883656;0;2;0;191;4082;160;16;0.501385;-0.6330565;0.4058172;0.4279778;1;0;0;371;4020;598;2;0.7110513;-0.700831;0.004155125;-0.0567867;0;0;0;-251;4170;55;8;0.3947368;-0.4210526;0.5401662;0.6124688;0;0;0;-115;4093;437;0.5592172;2.825414;-0.124751;0.5652015;3.370747;-0.1388156;0.5704612;3.850043;-0.1532003;0.5589225;4.560843;0.02871293;0.2949798;4.88202;0.07262042;-0.04382145;4.724999;0.09903114;-0.6741255;5.370417;-0.1118726;-0.8829807;6.285012;-0.2448863;0.8152551;4.890468;0.07262015;1.106596;4.743679;0.09903085;1.751314;5.453056;0.002091289;1.960304;6.363691;-0.1555645;0.2469606;2.783153;-0.1312301;0.1804907;1.322226;-0.1773954;0;0;0;0.2469606;2.783153;-0.1312301;0.1804907;1.322226;-0.1773954;0;0;0
841925.8485;NotLabelled;NONE;16384;-0.2867036;-0.4445983;-0.80116;0.2797784;-9;-6;10;2136;-2920;1743;65536;0.4542936;0.4944598;0.6049477;-0.4279778;10;-47;-6;-768;-3900;-377;8192;0.8162796;0.3379501;0.234072;-0.4058172;-8;3;-2;-2194;-2939;1775;32768;0.648309;0.4487534;0.4307479;-0.4390582;4;1;-13;823;-4025;-554;256;0.4418283;-0.5627532;-0.4238227;-0.5554016;-1;4;1;-181;3976;-923;128;0.4252077;-0.6009597;-0.4515235;-0.5041551;-2;0;-1;-387;3975;842;4;-0.05540166;0.03601108;-0.722348;-0.6883656;0;2;0;177;4102;186;16;0.501385;-0.6330565;0.4058172;0.4279778;0;0;1;399;4002;640;2;0.7124138;-0.699446;0.004155125;-0.0567867;0;1;0;-251;4150;49;8;0.3961219;-0.4210526;0.5401662;0.6115739;0;1;0;-131;4113;457;0.5592169;2.825398;-0.1246367;0.5652016;3.370765;-0.1373363;0.5704616;3.850094;-0.1505215;0.56068;4.56046;0.03318423;0.2975305;4.882173;0.07791224;-0.04165554;4.725922;0.1039406;-0.6690505;5.374042;-0.1073518;-0.8778764;6.289126;-0.2369992;0.8178251;4.889341;0.07791209;1.108804;4.741769;0.1039408;1.75289;5.45233;0.01157331;1.964043;6.363298;-0.141197;0.2469605;2.783154;-0.1312303;0.1804906;1.322226;-0.1773955;0;0;0;0.2469605;2.783154;-0.1312303;0.1804906;1.322226;-0.1773955;0;0;0
841947.7334;NotLabelled;NONE;16384;-0.2880886;-0.4445983;-0.7996897;0.2825485;-5;-3;11;2046;-2966;1757;65536;0.4570637;0.4986149;0.600412;-0.4265928;7;-39;-8;-826;-3820;-55;8192;0.8162796;0.3379501;0.234072;-0.4058172;-6;2;-3;-2046;-3029;1717;32768;0.6482882;0.4487534;0.4293629;-0.4404432;2;0;-11;847;-3961;-508;256;0.4418283;-0.5617074;-0.4252077;-0.5554016;-1;2;2;-129;3924;-915;128;0.4252077;-0.6009597;-0.4515235;-0.5041551;-3;0;-2;-333;3999;816;4;-0.05540166;0.03739612;-0.7222776;-0.6883656;0;2;0;113;4122;208;16;0.501385;-0.6321664;0.4072022;0.4279778;0;0;0;363;3990;642;2;0.7123087;-0.699446;0.002770083;-0.05817174;0;3;0;-327;3992;19;8;0.3961219;-0.4210526;0.5401662;0.6115739;0;1;0;-113;4069;343;0.5592169;2.825398;-0.1246367;0.5652016;3.370765;-0.1373363;0.5704616;3.850094;-0.1505215;0.56068;4.56046;0.03318423;0.2975305;4.882173;0.07791224;-0.04165554;4.725922;0.1039406;-0.666168;5.377075;-0.1065644;-0.8726033;6.293377;-0.2313541;0.8178251;4.889341;0.07791209;1.108804;4.741769;0.1039408;1.751066;5.454146;0.01287031;1.969068;6.363842;-0.1378422;0.2469605;2.783154;-0.1312303;0.1804906;1.322226;-0.1773955;0;0;0;0.2469605;2.783154;-0.1312303;0.1804906;1.322226;-0.1773955;0;0;0
841968.9544;NotLabelled;NONE;16384;-0.2894737;-0.4445983;-0.7986984;0.2839335;-3;-2;7;2176;-2848;1861;65536;0.4598338;0.5027701;0.5948057;-0.4265928;0;-10;-1;-606;-3760;-193;8192;0.8150143;0.3393352;0.234072;-0.4072022;-5;5;-2;-1948;-3055;1639;32768;0.6482616;0.4487534;0.4279778;-0.4418283;0;0;-11;769;-3951;-532;256;0.4418283;-0.5617074;-0.4252077;-0.5554016;-1;2;2;-115;3888;-933;128;0.4252077;-0.6009597;-0.4515235;-0.5041551;-4;0;-2;-423;3991;808;4;-0.05540166;0.03739612;-0.7222776;-0.6883656;0;1;0;131;4096;190;16;0.501385;-0.6321664;0.4072022;0.4279778;0;0;0;367;3996;582;2;0.7123087;-0.699446;0.002770083;-0.05817174;0;3;0;-379;4100;75;8;0.3961219;-0.4210526;0.5401662;0.6115739;1;0;0;-49;4081;361;0.5589055;2.825875;-0.1251237;0.5648902;3.371242;-0.1378233;0.5701503;3.850571;-0.1510083;0.5608384;4.561388;0.03096974;0.2979031;4.883385;0.07490686;-0.04138833;4.727425;0.1013037;-0.6620577;5.383064;-0.106628;-0.8663055;6.300306;-0.2280639;0.8182023;4.890204;0.07490665;1.109082;4.742501;0.1013037;1.751127;5.454879;0.008722305;1.970969;6.364532;-0.1395589;0.246649;2.783631;-0.1317172;0.1800106;1.32262;-0.1749251;0;0;0;0.246649;2.783631;-0.1317172;0.1800106;1.32262;-0.1749251;0;0;0
841989.983;NotLabelled;NONE;16384;-0.2894737;-0.4445983;-0.7982047;0.2853186;-2;-1;6;2166;-2748;1793;65536;0.4612188;0.5027701;0.5937323;-0.4265928;-4;0;0;-602;-4018;-207;8192;0.8133426;0.3407202;0.2354571;-0.4085872;-1;4;-3;-2052;-3133;1607;32768;0.6500937;0.4473684;0.4252077;-0.4432133;-3;-2;-6;965;-3849;-644;256;0.4418283;-0.5606562;-0.4265928;-0.5554016;4;1;1;-109;3934;-893;128;0.4252077;-0.6019978;-0.4501385;-0.5041551;-3;0;0;-395;3997;840;4;-0.0567867;0.03739612;-0.7221701;-0.6883656;0;1;0;123;4084;142;16;0.501385;-0.6321664;0.4072022;0.4279778;0;0;0;337;3940;660;2;0.7123087;-0.699446;0.002770083;-0.05817174;0;2;0;-401;4050;57;8;0.3961219;-0.4210526;0.5401662;0.6115739;1;0;0;-129;4123;403;0.5589055;2.825875;-0.1251237;0.5648902;3.371242;-0.1378233;0.5701503;3.850571;-0.1510083;0.5608384;4.561388;0.03096974;0.2979031;4.883385;0.07490686;-0.04138833;4.727425;0.1013037;-0.6591148;5.385737;-0.106945;-0.8586587;6.304687;-0.2231869;0.8182023;4.890204;0.07490665;1.109082;4.742501;0.1013037;1.74927;5.456869;0.01123285;1.971299;6.366467;-0.1340998;0.246649;2.783631;-0.1317172;0.1800106;1.32262;-0.1749251;0;0;0;0.246649;2.783631;-0.1317172;0.1800106;1.32262;-0.1749251;0;0;0
842010.7407;NotLabelled;NONE;16384;-0.2908587;-0.4445983;-0.797701;0.2853186;-1;0;3;2090;-2946;1829;65536;0.4598338;0.501385;0.5959736;-0.4265928;-5;6;0;-858;-3928;-275;8192;0.8133426;0.3407202;0.2354571;-0.4085872;1;2;0;-1828;-3203;1481;32768;0.6500937;0.4473684;0.4252077;-0.4432133;-3;-4;0;1221;-3805;-706;256;0.4418283;-0.5617074;-0.4252077;-0.5554016;5;0;1;-73;3934;-913;128;0.4238227;-0.6029737;-0.4501385;-0.5041551;-2;-1;0;-437;4037;892;4;-0.0567867;0.03739612;-0.7221701;-0.6883656;0;1;0;157;4072;178;16;0.501385;-0.6312265;0.4072022;0.4293629;0;0;0;367;3996;660;2;0.7121943;-0.699446;0.002770083;-0.05955679;0;1;0;-431;4070;59;8;0.3961219;-0.4210526;0.5401662;0.6115739;0;0;0;-123;4061;395;0.5580836;2.825793;-0.1226882;0.5640687;3.371191;-0.1339888;0.569329;3.850552;-0.1459444;0.5604804;4.561816;0.03430051;0.2977561;4.884093;0.07744446;-0.04163893;4.728421;0.1042107;-0.6584229;5.388523;-0.101146;-0.8558117;6.307924;-0.2174933;0.8180596;4.890569;0.07744408;1.108841;4.742739;0.1042101;1.745738;5.459917;0.01313543;1.974216;6.368163;-0.1306493;0.2458274;2.783566;-0.1293987;0.1795972;1.32262;-0.1753496;0;0;0;0.2458274;2.783566;-0.1293987;0.1795972;1.32262;-0.1753496;0;0;0
842031.7574;NotLabelled;NONE;16384;-0.2908587;-0.4445983;-0.7972043;0.2867036;0;1;1;2094;-2992;1763;65536;0.4598338;0.5;0.5971361;-0.4265928;-5;11;4;-492;-3960;-427;8192;0.8133426;0.3407202;0.2354571;-0.4085872;3;1;1;-1780;-3141;1581;32768;0.6500937;0.4473684;0.4252077;-0.4432133;-2;0;10;1025;-3869;-672;256;0.4404432;-0.5614238;-0.4252077;-0.5567867;4;0;0;-113;4004;-973;128;0.4238227;-0.6029737;-0.4501385;-0.5041551;-3;0;-1;-461;4031;832;4;-0.0567867;0.03739612;-0.7221701;-0.6883656;0;3;0;163;4068;196;16;0.501385;-0.6312265;0.4072022;0.4293629;0;0;1;297;3974;634;2;0.7121943;-0.699446;0.002770083;-0.05955679;0;0;-1;-393;4104;29;8;0.3961219;-0.4210526;0.5401662;0.6115739;0;0;0;-69;4065;399;0.5552191;2.826026;-0.1233306;0.5612044;3.37145;-0.1332675;0.5664651;3.85084;-0.1440245;0.5571533;4.561656;0.03795403;0.2942179;4.883654;0.08189139;-0.04507354;4.727693;0.1082881;-0.6598307;5.38867;-0.100306;-0.8593287;6.307357;-0.2186841;0.8145171;4.890473;0.08189118;1.105397;4.74277;0.108288;1.742512;5.459946;0.01875627;1.971329;6.368193;-0.1244882;0.242963;2.783815;-0.1301554;0.1768415;1.32287;-0.1762634;0;0;0;0.242963;2.783815;-0.1301554;0.1768415;1.32287;-0.1762634;0;0;0
842052.7429;NotLabelled;NONE;16384;-0.2908587;-0.4445983;-0.7972043;0.2867036;0;1;1;2206;-2894;1765;65536;0.4584487;0.4986149;0.5983669;-0.4279778;-5;16;9;-468;-3882;-479;8192;0.8129404;0.3407202;0.2368421;-0.4085872;4;4;0;-2036;-3111;1609;32768;0.6491857;0.4473684;0.4265928;-0.4432133;-3;1;13;989;-3907;-640;256;0.4404432;-0.5614238;-0.4252077;-0.5567867;1;0;0;-133;3986;-1009;128;0.4238227;-0.6029737;-0.4501385;-0.5041551;-1;2;0;-441;4061;824;4;-0.05817174;0.03878116;-0.7219867;-0.6883656;0;2;0;137;4098;198;16;0.501385;-0.6312265;0.4072022;0.4293629;0;0;0;351;4002;614;2;0.7121943;-0.699446;0.002770083;-0.05955679;1;-1;-2;-367;4080;41;8;0.3961219;-0.4210526;0.5401662;0.6115739;0;0;0;-123;4081;371;0.5548168;2.826026;-0.1240803;0.5608021;3.37145;-0.1340172;0.5660628;3.85084;-0.1447742;0.5568119;4.561196;0.03899711;0.2939029;4.883101;0.08375531;-0.04539967;4.727101;0.1097697;-0.6593684;5.389863;-0.09545672;-0.8591917;6.308281;-0.2153522;0.8142026;4.88988;0.0837552;1.105072;4.742089;0.1097698;1.741903;5.459266;0.01823604;1.970277;6.367513;-0.1257135;0.2425607;2.783815;-0.1309051;0.1762974;1.32287;-0.1768083;0;0;0;0.2425607;2.783815;-0.1309051;0.1762974;1.32287;-0.1768083;0;0;0
842073.9028;NotLabelled;NONE;16384;-0.2908587;-0.4432133;-0.7979751;0.2867036;2;1;2;2072;-3008;1697;65536;0.4570637;0.4972299;0.6015595;-0.4265928;0;6;9;-686;-3828;-747;8192;0.8128223;0.3393352;0.2368421;-0.4099723;6;1;-1;-2262;-3013;1777;32768;0.6482616;0.4487534;0.4279778;-0.4418283;-3;1;15;1015;-4025;-768;256;0.4404432;-0.5614238;-0.4252077;-0.5567867;-1;0;2;-151;4024;-1035;128;0.4238227;-0.6019372;-0.4515235;-0.5041551;0;2;-2;-363;3993;878;4;-0.05817174;0.03878116;-0.7219867;-0.6883656;0;1;0;81;4136;196;16;0.501385;-0.6303309;0.4085872;0.4293629;0;-1;0;401;4016;640;2;0.7108313;-0.700831;0.002770083;-0.05955679;0;0;-1;-305;4062;41;8;0.3961219;-0.4210526;0.5415512;0.6103478;0;0;0;-141;4077;395;0.5543488;2.826044;-0.1239832;0.5603342;3.371468;-0.1339202;0.5655949;3.850858;-0.1446771;0.556344;4.561214;0.03909427;0.293435;4.88312;0.08385238;-0.04586758;4.727119;0.1098668;-0.6598364;5.389881;-0.09535968;-0.8598397;6.308349;-0.2145709;0.8137347;4.889898;0.08385223;1.104604;4.742107;0.1098669;1.740208;5.460112;0.01631939;1.966365;6.368751;-0.1286434;0.2420928;2.783834;-0.130808;0.1762974;1.32287;-0.1768083;0;0;0;0.2420928;2.783834;-0.130808;0.1762974;1.32287;-0.1768083;0;0;0
842093.74;NotLabelled;NONE;16384;-0.2908587;-0.4432133;-0.7974761;0.2880886;3;0;0;1970;-3032;1661;65536;0.4556787;0.4972299;0.6026093;-0.4265928;0;2;6;-780;-3730;-711;8192;0.8140958;0.3379501;0.2368421;-0.4085872;3;0;-4;-2262;-3107;1845;32768;0.648309;0.4487534;0.4307479;-0.4390582;-5;-3;9;683;-4139;-866;256;0.4404432;-0.5614238;-0.4252077;-0.5567867;-1;0;2;-89;3956;-1039;128;0.4238227;-0.6019372;-0.4515235;-0.5041551;0;0;-2;-379;4045;940;4;-0.05817174;0.03878116;-0.7219867;-0.6883656;0;0;2;55;4080;144;16;0.501385;-0.6303309;0.4085872;0.4293629;0;-2;1;367;4038;636;2;0.7107139;-0.700831;0.002770083;-0.06094183;0;0;-2;-319;4144;63;8;0.3961219;-0.4210526;0.5415512;0.6103478;0;0;0;-107;4079;429;0.5542956;2.826453;-0.1211959;0.5602807;3.37185;-0.1325331;0.565541;3.851211;-0.1445209;0.5562901;4.561566;0.03925055;0.2933811;4.883472;0.08400869;-0.04592148;4.727472;0.1100231;-0.6598698;5.389895;-0.09635347;-0.8644517;6.306865;-0.2192724;0.8136809;4.890251;0.08400851;1.10455;4.74246;0.1100233;1.74196;5.458848;0.01636946;1.96354;6.368445;-0.1296462;0.2420394;2.784225;-0.1279035;0.1762439;1.323262;-0.1739038;0;0;0;0.2420394;2.784225;-0.1279035;0.1762439;1.323262;-0.1739038;0;0;0
842113.7394;NotLabelled;NONE;16384;-0.2908587;-0.4432133;-0.7979751;0.2867036;4;-2;0;1946;-2978;1687;65536;0.4556787;0.4972299;0.6026093;-0.4265928;-4;5;4;-902;-3864;-321;8192;0.8136916;0.3379501;0.2382271;-0.4085872;4;3;-7;-2118;-3087;1741;32768;0.6473629;0.4501385;0.432133;-0.4376731;-5;-2;8;695;-3953;-848;256;0.4404432;-0.5627941;-0.4252077;-0.5554016;-2;-1;0;-63;4044;-1077;128;0.4238227;-0.6041291;-0.4501385;-0.5027701;0;-1;0;-387;4061;964;4;-0.05955679;0.03878116;-0.7218738;-0.6883656;0;0;2;77;4092;172;16;0.5;-0.6314301;0.4085872;0.4293629;0;-1;1;403;4030;632;2;0.7107139;-0.700831;0.002770083;-0.06094183;0;0;-1;-417;4054;59;8;0.3961219;-0.4210526;0.5415512;0.6103478;0;0;0;-177;4103;323;0.5542956;2.826453;-0.1211959;0.5602807;3.37185;-0.1325331;0.565541;3.851211;-0.1445209;0.5562901;4.561566;0.03925055;0.2933811;4.883472;0.08400869;-0.04592148;4.727472;0.1100231;-0.6584224;5.391678;-0.0949204;-0.8654118;6.308192;-0.2172109;0.8136809;4.890251;0.08400851;1.10455;4.74246;0.1100233;1.74381;5.456861;0.01383543;1.96099;6.366557;-0.1380599;0.2420394;2.784225;-0.1279035;0.1762439;1.323262;-0.1739038;0;0;0;0.2420394;2.784225;-0.1279035;0.1762439;1.323262;-0.1739038;0;0;0
842133.8788;NotLabelled;NONE;16384;-0.2922437;-0.4432133;-0.7974689;0.2867036;4;-2;-3;2122;-2970;1759;65536;0.4542936;0.4958449;0.6047924;-0.4265928;-6;6;2;-728;-3906;-419;8192;0.8132848;0.3379501;0.2396122;-0.4085872;7;2;-3;-2140;-3065;1755;32768;0.6473718;0.4501385;0.433518;-0.4362881;-5;0;9;563;-3975;-790;256;0.4418283;-0.5617074;-0.4252077;-0.5554016;-4;0;-1;-97;3966;-959;128;0.4238227;-0.6041291;-0.4501385;-0.5027701;-2;-2;0;-407;3993;942;4;-0.05955679;0.03878116;-0.7218738;-0.6883656;0;0;2;85;4134;206;16;0.5;-0.6314301;0.4085872;0.4293629;0;-2;1;361;4014;656;2;0.7107072;-0.700831;0.004155125;-0.06094183;0;0;-1;-387;4168;31;8;0.3961219;-0.4210526;0.5415512;0.6103478;0;0;0;-55;4039;341;0.5579352;2.825494;-0.1201614;0.5639206;3.370919;-0.1300636;0.5691813;3.85031;-0.14079;0.5616355;4.560687;0.04297662;0.2994978;4.883219;0.08774748;-0.04017458;4.728029;0.1137824;-0.6528645;5.389903;-0.09802794;-0.8594832;6.306416;-0.2209438;0.8198121;4.888757;0.08771759;1.110329;4.740272;0.1137167;1.74894;5.455246;0.01747632;1.961976;6.365857;-0.1348162;0.2456792;2.783284;-0.1269889;0.1805624;1.322391;-0.1760838;0;0;0;0.2456792;2.783284;-0.1269889;0.1805624;1.322391;-0.1760838;0;0;0
842155.7362;NotLabelled;NONE;16384;-0.2922437;-0.4432133;-0.7979655;0.2853186;6;3;-4;2266;-3058;1759;65536;0.4542936;0.4958449;0.6047924;-0.4265928;-7;6;2;-600;-3910;-575;8192;0.8145528;0.3365651;0.2396122;-0.4072022;5;-3;-2;-2118;-2955;1789;32768;0.6473718;0.4501385;0.433518;-0.4362881;-5;-2;7;585;-3945;-830;256;0.4418283;-0.5630735;-0.4252077;-0.5540166;-2;-2;-1;25;3960;-989;128;0.4238227;-0.6029737;-0.4501385;-0.5041551;-3;-2;0;-453;3987;906;4;-0.05955679;0.03878116;-0.7218738;-0.6883656;-1;-1;1;95;4072;172;16;0.5;-0.6305317;0.4099723;0.4293629;1;-2;1;343;3994;682;2;0.7107072;-0.700831;0.004155125;-0.06094183;1;0;-3;-419;4076;69;8;0.3961219;-0.4210526;0.5415512;0.6103478;-1;-1;0;-69;4083;271;0.5579425;2.825495;-0.1201471;0.5639278;3.370919;-0.1300492;0.5691886;3.85031;-0.1407756;0.5598767;4.561127;0.04120255;0.2969414;4.883124;0.08513972;-0.04235002;4.727163;0.1115365;-0.6541248;5.390456;-0.0984726;-0.8630943;6.306236;-0.2228689;0.8172406;4.889943;0.08513945;1.10812;4.74224;0.1115366;1.745211;5.458297;0.01328695;1.956046;6.368925;-0.1419293;0.2456865;2.783284;-0.1269748;0.1805725;1.322391;-0.1760733;0;0;0;0.2456865;2.783284;-0.1269748;0.1805725;1.322391;-0.1760733;0;0;0
842176.7465;NotLabelled;NONE;16384;-0.2922437;-0.4418283;-0.7992266;0.2839335;6;4;-4;2198;-3008;1829;65536;0.4556787;0.4944598;0.6058587;-0.4252077;-8;4;4;-604;-3876;-631;8192;0.8145528;0.3365651;0.2396122;-0.4072022;6;-3;-3;-2064;-2979;1765;32768;0.648303;0.4501385;0.434903;-0.433518;-7;-7;5;617;-3835;-908;256;0.4418283;-0.5630735;-0.4252077;-0.5540166;0;-1;-1;-29;3960;-965;128;0.4238227;-0.6041291;-0.4501385;-0.5027701;-2;-1;0;-535;4029;870;4;-0.05955679;0.03739612;-0.7219468;-0.6883656;-1;-2;1;61;4094;108;16;0.5;-0.6305317;0.4099723;0.4293629;1;-2;1;377;4042;674;2;0.7105777;-0.700831;0.005540166;-0.06232687;2;-2;-4;-535;4070;43;8;0.3947368;-0.4196676;0.5415512;0.6121962;-2;-6;1;-117;4151;425;0.5582604;2.825887;-0.1164924;0.5642457;3.371311;-0.1264292;0.5695064;3.850701;-0.1371862;0.5618905;4.561539;0.04478663;0.2997242;4.884163;0.08872145;-0.0399384;4.729012;0.1151195;-0.6524967;5.390519;-0.09821022;-0.8610832;6.3063;-0.2232478;0.8200381;4.88974;0.08872104;1.110565;4.741344;0.1151191;1.749812;5.455398;0.01630819;1.961123;6.366027;-0.1382591;0.2460043;2.783676;-0.123317;0.1810415;1.322783;-0.1726154;0;0;0;0.2460043;2.783676;-0.123317;0.1810415;1.322783;-0.1726154;0;0;0
842197.7471;NotLabelled;NONE;16384;-0.2908587;-0.4418283;-0.800222;0.2825485;6;1;-4;2050;-2918;1787;65536;0.4556787;0.4930748;0.6079544;-0.4238227;-6;0;6;-866;-3860;-657;8192;0.8154061;0.33518;0.2409972;-0.4058172;5;-1;0;-1828;-3003;1735;32768;0.6492182;0.4501385;0.4362881;-0.4307479;-5;-5;8;665;-3745;-1066;256;0.4418283;-0.5630735;-0.4252077;-0.5540166;0;-3;0;11;3952;-1035;128;0.4238227;-0.6041291;-0.4501385;-0.5027701;1;0;0;-541;3975;902;4;-0.05955679;0.03739612;-0.7219468;-0.6883656;-1;-3;1;71;4100;164;16;0.5;-0.6305317;0.4099723;0.4293629;1;-2;1;353;4018;636;2;0.7105777;-0.700831;0.005540166;-0.06232687;2;-4;-3;-501;4150;25;8;0.3933518;-0.4196676;0.5415512;0.6130871;-1;-6;0;-159;4121;423;0.5581916;2.825792;-0.1136876;0.5641769;3.371217;-0.1235897;0.5694376;3.850608;-0.1343161;0.5618218;4.561446;0.04765666;0.2996554;4.884069;0.09159151;-0.04000721;4.72892;0.1179896;-0.6539627;5.388289;-0.0979237;-0.8622757;6.303448;-0.2278821;0.8199694;4.889647;0.091591;1.110496;4.741251;0.1179892;1.749744;5.455306;0.01917899;1.958895;6.36559;-0.1402721;0.2459355;2.783582;-0.1205151;0.1810416;1.322783;-0.1726154;0;0;0;0.2459355;2.783582;-0.1205151;0.1810416;1.322783;-0.1726154;0;0;0
842217.9012;NotLabelled;NONE;16384;-0.2908587;-0.4404432;-0.8009852;0.2825485;5;0;-4;2142;-2960;1727;65536;0.4556787;0.4930748;0.6089176;-0.4224377;-6;-6;4;-866;-3926;-707;8192;0.8160939;0.33518;0.2409972;-0.4044321;6;-1;2;-1912;-2983;1785;32768;0.6482409;0.4515235;0.4376731;-0.4293629;-5;-3;11;593;-3771;-1138;256;0.4432133;-0.561984;-0.4252077;-0.5540166;-3;-1;-1;-3;3898;-983;128;0.4238227;-0.6041291;-0.4501385;-0.5027701;0;0;0;-533;4037;956;4;-0.05817174;0.03739612;-0.7220598;-0.6883656;0;-6;1;89;4076;184;16;0.5;-0.629629;0.4113573;0.4293629;1;-3;1;427;3984;628;2;0.7105655;-0.700831;0.006925208;-0.06232687;1;-5;-3;-505;4102;69;8;0.3933518;-0.4196676;0.5429363;0.6118609;0;-5;0;-85;4087;427;0.5581916;2.825792;-0.1136876;0.5641769;3.371217;-0.1235897;0.5694376;3.850608;-0.1343161;0.5618218;4.561446;0.04765666;0.2996554;4.884069;0.09159151;-0.04000721;4.72892;0.1179896;-0.656921;5.385624;-0.09761387;-0.8673582;6.299678;-0.2318453;0.8199694;4.889647;0.091591;1.110496;4.741251;0.1179892;1.750358;5.454113;0.01464629;1.957341;6.364027;-0.1496805;0.2459355;2.783582;-0.1205151;0.1810416;1.322783;-0.1726154;0;0;0;0.2459355;2.783582;-0.1205151;0.1810416;1.322783;-0.1726154;0;0;0
842238.7437;NotLabelled;NONE;16384;-0.2908587;-0.4404432;-0.8014725;0.2811634;6;2;-6;2284;-2948;1795;65536;0.4556787;0.4930748;0.6098762;-0.4210526;-6;-9;3;-834;-3940;-805;8192;0.8166614;0.333795;0.2409972;-0.4044321;5;-2;2;-1930;-2995;1771;32768;0.6491325;0.4515235;0.4390582;-0.4265928;-2;-6;11;563;-3807;-1090;256;0.4432133;-0.561984;-0.4252077;-0.5540166;-2;-2;0;-23;3910;-1031;128;0.4238227;-0.6041291;-0.4501385;-0.5027701;0;0;0;-447;4035;966;4;-0.05817174;0.03462604;-0.7221979;-0.6883656;0;-7;1;225;4032;258;16;0.4986149;-0.6298209;0.4127424;0.4293629;1;-3;1;405;4056;642;2;0.7105507;-0.700831;0.008310249;-0.06232687;1;-7;-2;-397;4120;63;8;0.3919668;-0.4196676;0.5429363;0.612749;0;-7;0;-105;4039;441;0.5586686;2.826254;-0.1136741;0.564654;3.371678;-0.1235762;0.5699147;3.851069;-0.1343026;0.5605431;4.562343;0.0458765;0.297582;4.88443;0.08899039;-0.04169857;4.728512;0.1157704;-0.6585848;5.384869;-0.1009685;-0.8711901;6.298099;-0.23738;0.8178807;4.891289;0.08899003;1.108771;4.743676;0.1157702;1.748666;5.456332;0.01122332;1.951014;6.367094;-0.1541651;0.2464126;2.784044;-0.1205018;0.1809704;1.323169;-0.1697078;0;0;0;0.2464126;2.784044;-0.1205018;0.1809704;1.323169;-0.1697078;0;0;0
842258.9289;NotLabelled;NONE;16384;-0.2894737;-0.4404432;-0.802458;0.2797784;4;5;-7;2346;-2878;1923;65536;0.4570637;0.4930748;0.6097944;-0.4196676;-6;-12;5;-748;-3924;-981;8192;0.8166614;0.333795;0.2409972;-0.4044321;4;-1;2;-2076;-2873;1873;32768;0.6490764;0.4529086;0.4390582;-0.4252077;-3;-8;8;521;-3865;-1024;256;0.4445983;-0.5608889;-0.4252077;-0.5540166;-1;-3;0;-111;4036;-1041;128;0.4238227;-0.6041291;-0.4501385;-0.5027701;3;0;-1;-497;4039;954;4;-0.0567867;0.033241;-0.7223732;-0.6883656;0;-4;1;267;4082;264;16;0.4986149;-0.6298209;0.4127424;0.4293629;0;-2;0;431;4028;670;2;0.7106532;-0.700831;0.009695291;-0.06094183;0;-6;-2;-399;4048;61;8;0.3919668;-0.4182825;0.5429363;0.6136954;0;-11;1;-69;4109;387;0.5622516;2.825572;-0.1078776;0.5682369;3.370996;-0.1177797;0.5734977;3.850387;-0.1285061;0.5641261;4.56166;0.05167305;0.301165;4.883748;0.09478694;-0.03811558;4.727829;0.121567;-0.6564127;5.382384;-0.09659964;-0.8711791;6.294779;-0.2351864;0.8214636;4.890606;0.09478664;1.112354;4.742993;0.1215667;1.754058;5.453828;0.01572192;1.954224;6.364176;-0.1545351;0.2499956;2.783361;-0.1147052;0.1846907;1.32268;-0.1695132;0;0;0;0.2499956;2.783361;-0.1147052;0.1846907;1.32268;-0.1695132;0;0;0
842279.7439;NotLabelled;NONE;16384;-0.2880886;-0.4404432;-0.8029563;0.2797784;4;7;-7;2246;-2890;1901;65536;0.4584487;0.4944598;0.6095332;-0.4168975;-5;-10;5;-1018;-3930;-889;8192;0.8172262;0.33241;0.2409972;-0.4044321;2;0;2;-2144;-2917;1921;32768;0.6490439;0.4529086;0.4404432;-0.4238227;-6;-9;7;699;-3963;-976;256;0.4445983;-0.5632983;-0.4238227;-0.5526316;0;-3;0;-55;3952;-1073;128;0.4238227;-0.6030946;-0.4515235;-0.5027701;3;0;0;-501;4065;944;4;-0.0567867;0.033241;-0.7223732;-0.6883656;0;-3;1;251;4076;222;16;0.4986149;-0.6289111;0.4141274;0.4293629;1;-2;0;437;3978;632;2;0.7106532;-0.700831;0.009695291;-0.06094183;0;-6;-2;-407;4094;99;8;0.3905817;-0.4182825;0.5443213;0.6133514;-1;-12;1;-121;4087;353;0.5627201;2.825554;-0.1079736;0.5687054;3.370978;-0.1178758;0.5739661;3.850369;-0.1286022;0.5628332;4.562071;0.0497784;0.2990769;4.883616;0.09206915;-0.03981917;4.72693;0.1192316;-0.6610528;5.378807;-0.09860927;-0.8755607;6.29083;-0.240015;0.819357;4.891758;0.09206915;1.110609;4.744931;0.1192323;1.752314;5.455766;0.01338828;1.950107;6.366617;-0.1569488;0.2504641;2.783344;-0.1148015;0.1846911;1.32268;-0.1695128;0;0;0;0.2504641;2.783344;-0.1148015;0.1846911;1.32268;-0.1695128;0;0;0
842300.7481;NotLabelled;NONE;16384;-0.2867036;-0.4390582;-0.8046901;0.2783934;0;5;-8;2256;-2786;1903;65536;0.4598338;0.4972299;0.609064;-0.4127424;-3;-22;0;-1348;-3924;-717;8192;0.8172262;0.33241;0.2409972;-0.4044321;1;-4;0;-2138;-3029;1815;32768;0.6508;0.4529086;0.4418283;-0.4196676;-7;-3;5;729;-3989;-1044;256;0.4445983;-0.5632983;-0.4238227;-0.5526316;-1;-2;0;-55;3998;-1077;128;0.4252077;-0.6021189;-0.4515235;-0.5027701;3;0;0;-499;4019;958;4;-0.0567867;0.03185596;-0.7237528;-0.6869806;-1;-3;1;267;4084;274;16;0.4986149;-0.6289111;0.4141274;0.4293629;1;-2;0;449;4042;670;2;0.710633;-0.700831;0.01108033;-0.06094183;0;-5;-3;-407;4140;-53;8;0.3878116;-0.4168975;0.5443213;0.6160462;-1;-6;0;-71;4147;385;0.5632515;2.825951;-0.1038234;0.5692365;3.371348;-0.1151256;0.5744969;3.85071;-0.1270825;0.5645946;4.561996;0.05301923;0.3013933;4.883893;0.09609762;-0.03777091;4.727724;0.1228941;-0.6593652;5.378727;-0.09652168;-0.8750051;6.289841;-0.2420145;0.8216867;4.89114;0.09609735;1.112687;4.743745;0.122894;1.756758;5.452754;0.01920021;1.95325;6.363537;-0.1529962;0.2509952;2.783723;-0.1105339;0.1855197;1.32306;-0.1656001;0;0;0;0.2509952;2.783723;-0.1105339;0.1855197;1.32306;-0.1656001;0;0;0
