SEP=;
index;label;segment;RightUpperArm_boneIndex;RightUpperArm_quat9x_w;RightUpperArm_quat9x_x;RightUpperArm_quat9x_y;RightUpperArm_quat9x_z;RightUpperArm_gyroscope_x;RightUpperArm_gyroscope_y;RightUpperArm_gyroscope_z;RightUpperArm_accelerometer_x;RightUpperArm_accelerometer_y;RightUpperArm_accelerometer_z;RightLowerArm_boneIndex;RightLowerArm_quat9x_w;RightLowerArm_quat9x_x;RightLowerArm_quat9x_y;RightLowerArm_quat9x_z;RightLowerArm_gyroscope_x;RightLowerArm_gyroscope_y;RightLowerArm_gyroscope_z;RightLowerArm_accelerometer_x;RightLowerArm_accelerometer_y;RightLowerArm_accelerometer_z;LeftUpperArm_boneIndex;LeftUpperArm_quat9x_w;LeftUpperArm_quat9x_x;LeftUpperArm_quat9x_y;LeftUpperArm_quat9x_z;LeftUpperArm_gyroscope_x;LeftUpperArm_gyroscope_y;LeftUpperArm_gyroscope_z;LeftUpperArm_accelerometer_x;LeftUpperArm_accelerometer_y;LeftUpperArm_accelerometer_z;LeftLowerArm_boneIndex;LeftLowerArm_quat9x_w;LeftLowerArm_quat9x_x;LeftLowerArm_quat9x_y;LeftLowerArm_quat9x_z;LeftLowerArm_gyroscope_x;LeftLowerArm_gyroscope_y;LeftLowerArm_gyroscope_z;LeftLowerArm_accelerometer_x;LeftLowerArm_accelerometer_y;LeftLowerArm_accelerometer_z;Chest_boneIndex;Chest_quat9x_w;Chest_quat9x_x;Chest_quat9x_y;Chest_quat9x_z;Chest_gyroscope_x;Chest_gyroscope_y;Chest_gyroscope_z;Chest_accelerometer_x;Chest_accelerometer_y;Chest_accelerometer_z;Spine_boneIndex;Spine_quat9x_w;Spine_quat9x_x;Spine_quat9x_y;Spine_quat9x_z;Spine_gyroscope_x;Spine_gyroscope_y;Spine_gyroscope_z;Spine_accelerometer_x;Spine_accelerometer_y;Spine_accelerometer_z;RightUpperLeg_boneIndex;RightUpperLeg_quat9x_w;RightUpperLeg_quat9x_x;RightUpperLeg_quat9x_y;RightUpperLeg_quat9x_z;RightUpperLeg_gyroscope_x;RightUpperLeg_gyroscope_y;RightUpperLeg_gyroscope_z;RightUpperLeg_accelerometer_x;RightUpperLeg_accelerometer_y;RightUpperLeg_accelerometer_z;RightLowerLeg_boneIndex;RightLowerLeg_quat9x_w;RightLowerLeg_quat9x_x;RightLowerLeg_quat9x_y;RightLowerLeg_quat9x_z;RightLowerLeg_gyroscope_x;RightLowerLeg_gyroscope_y;RightLowerLeg_gyroscope_z;RightLowerLeg_accelerometer_x;RightLowerLeg_accelerometer_y;RightLowerLeg_accelerometer_z;LeftUpperLeg_boneIndex;LeftUpperLeg_quat9x_w;LeftUpperLeg_quat9x_x;LeftUpperLeg_quat9x_y;LeftUpperLeg_quat9x_z;LeftUpperLeg_gyroscope_x;LeftUpperLeg_gyroscope_y;LeftUpperLeg_gyroscope_z;LeftUpperLeg_accelerometer_x;LeftUpperLeg_accelerometer_y;LeftUpperLeg_accelerometer_z;LeftLowerLeg_boneIndex;LeftLowerLeg_quat9x_w;LeftLowerLeg_quat9x_x;LeftLowerLeg_quat9x_y;LeftLowerLeg_quat9x_z;LeftLowerLeg_gyroscope_x;LeftLowerLeg_gyroscope_y;LeftLowerLeg_gyroscope_z;LeftLowerLeg_accelerometer_x;LeftLowerLeg_accelerometer_y;LeftLowerLeg_accelerometer_z;pelvis_x;pelvis_y;pelvis_z;lowerSpine_x;lowerSpine_y;lowerSpine_z;middleSpine_x;middleSpine_y;middleSpine_z;upperSpine_x;upperSpine_y;upperSpine_z;rightClavicle_x;rightClavicle_y;rightClavicle_z;rightShoulder_x;rightShoulder_y;rightShoulder_z;rightElbow_x;rightElbow_y;rightElbow_z;rightWrist_x;rightWrist_y;rightWrist_z;leftClavicle_x;leftClavicle_y;leftClavicle_z;leftShoulder_x;leftShoulder_y;leftShoulder_z;leftElbow_x;leftElbow_y;leftElbow_z;leftWrist_x;leftWrist_y;leftWrist_z;rightHip_x;rightHip_y;rightHip_z;rightKnee_x;rightKnee_y;rightKnee_z;rightAnkle_x;rightAnkle_y;rightAnkle_z;leftHip_x;leftHip_y;leftHip_z;leftKnee_x;leftKnee_y;leftKnee_z;leftAnkle_x;leftAnkle_y;leftAnkle_z;
1030694.7515;NotLabelled;NONE;16384;-0.0401662;0.0734072;-0.8159587;-0.5720221;-17;1;19;-44;3864;955;65536;0.2908587;-0.199446;0.7856482;0.5083103;12;5;-10;-468;3758;-925;8192;0.802348;-0.5734072;0.1121884;0.1218837;1;0;-6;486;3877;1639;32768;0.7331477;-0.4861496;0.4058172;0.2479224;-11;-6;0;-459;3793;-1912;256;0.5542417;-0.5027701;-0.4542936;-0.4833795;9;2;3;-501;4042;111;128;0.4542936;-0.5843037;-0.432133;-0.5152354;-10;4;-2;-7;4071;876;4;0.004155125;-0.04847645;-0.7089276;-0.7036011;2;19;-4;283;4220;92;16;0.5290859;-0.6055198;0.4182825;0.4224377;-2;8;3;411;4070;218;2;0.7051753;-0.7036011;0.07202215;-0.04986149;-13;-5;0;-895;4274;307;8;0.4224377;-0.4279778;0.5096953;0.6152984;1;-5;1;-63;4285;345;0.4376307;2.840771;0.02207911;0.4436117;3.385805;-0.0008236766;0.4488682;3.864803;-0.02297616;0.3909095;4.596039;-0.04293498;0.107336;4.89957;-0.0898673;-0.2219479;4.734584;-0.02285273;-0.5363415;3.863183;-0.03485641;-0.8037247;2.995299;-0.3051922;0.6260531;4.940684;-0.08999026;0.9250243;4.825492;-0.02312374;1.230232;3.911649;-0.01938903;1.456913;3.046174;-0.3314068;0.125373;2.798411;0.01634134;0.1223834;1.338339;-0.07873049;0;0;0;0.125373;2.798411;0.01634134;0.1223834;1.338339;-0.07873049;0;0;0
1030714.7459;NotLabelled;NONE;16384;-0.04432133;0.07202215;-0.8168364;-0.5706371;-12;1;21;-54;3886;1017;65536;0.2936288;-0.1980609;0.784968;0.5083103;11;-4;-12;-468;3732;-1205;8192;0.803545;-0.5720221;0.1121884;0.1204986;-2;1;-5;416;3945;1529;32768;0.7315747;-0.4875346;0.4044321;0.2520775;-13;-4;-2;-263;3905;-1786;256;0.5517684;-0.5041551;-0.4542936;-0.4847645;7;3;4;-405;4074;115;128;0.4515235;-0.586447;-0.432133;-0.5152354;-13;3;-2;9;4153;772;4;0.002770083;-0.04709141;-0.7090277;-0.7036011;-2;11;-1;293;4242;88;16;0.5277008;-0.6067272;0.4182825;0.4224377;-5;0;3;447;4094;226;2;0.7079284;-0.700831;0.07202215;-0.04986149;-17;0;-2;-855;4176;225;8;0.4224377;-0.4279778;0.5110803;0.6141484;4;-3;2;43;4197;195;0.4380067;2.84095;0.01929939;0.4439877;3.385983;-0.00361383;0.4492441;3.864982;-0.02577552;0.3912901;4.596217;-0.04574794;0.1077277;4.899748;-0.09274679;-0.221572;4.734763;-0.0258095;-0.5380035;3.864266;-0.04668599;-0.8044082;2.997517;-0.3215875;0.6264447;4.940863;-0.09274802;0.9254001;4.825671;-0.02581131;1.230261;3.911705;-0.02562892;1.456818;3.045594;-0.3359703;0.125749;2.79859;0.01356257;0.1224019;1.338339;-0.07870167;0;0;0;0.125749;2.79859;0.01356257;0.1224019;1.338339;-0.07870167;0;0;0
1030735.7424;NotLabelled;NONE;16384;-0.04709141;0.06925207;-0.8178867;-0.5692521;-8;-1;21;-164;3854;1037;65536;0.2963989;-0.1952908;0.7846209;0.5083103;10;-7;-14;-566;3778;-1273;8192;0.8033504;-0.5720221;0.1135734;0.1204986;-2;0;-3;442;3843;1445;32768;0.7313793;-0.4875346;0.4030471;0.2548476;-11;-4;-3;-247;4003;-1872;256;0.5529058;-0.5041551;-0.4529086;-0.4847645;9;4;4;-423;4054;133;128;0.4515235;-0.5862474;-0.4307479;-0.5166205;-12;0;-2;-17;4149;794;4;0.002770083;-0.04570637;-0.7091183;-0.7036011;-4;-1;0;299;4136;-98;16;0.5263157;-0.6079292;0.4182825;0.4224377;-6;-5;2;289;4090;220;2;0.7105614;-0.6980609;0.07202215;-0.05124654;-19;5;-3;-915;3896;181;8;0.4224377;-0.4279778;0.5124654;0.6129932;5;12;5;467;3967;207;0.4423269;2.840376;0.01676813;0.4483092;3.385521;-0.003318518;0.4535667;3.864628;-0.02299601;0.3971611;4.596083;-0.03893843;0.1142256;4.900469;-0.08415118;-0.2153961;4.73582;-0.01797548;-0.5331972;3.866035;-0.04635251;-0.796707;2.999664;-0.32521;0.6330289;4.94048;-0.08415249;0.9317666;4.824288;-0.01797742;1.239913;3.911426;-0.02023089;1.464301;3.042312;-0.3236731;0.1300695;2.798047;0.01079393;0.1264452;1.337797;-0.08148481;0;0;0;0.1300695;2.798047;0.01079393;0.1264452;1.337797;-0.08148481;0;0;0
1030755.7408;NotLabelled;NONE;16384;-0.04986149;0.06786703;-0.8178386;-0.5692521;-3;-2;22;-150;3842;1041;65536;0.299169;-0.1925208;0.784254;0.5083103;9;-7;-16;-582;3762;-1259;8192;0.8043348;-0.5706371;0.1135734;0.1204986;-2;0;-1;488;3861;1371;32768;0.7308953;-0.4875346;0.4030471;0.2562327;-8;0;-4;-77;3893;-1784;256;0.5504194;-0.5055401;-0.4529086;-0.4861496;9;3;3;-483;4004;71;128;0.4487534;-0.588165;-0.4293629;-0.5180055;-7;-1;-4;39;3947;890;4;0.002770083;-0.04570637;-0.7091183;-0.7036011;-4;-7;0;285;4076;-164;16;0.5263157;-0.6079292;0.4182825;0.4224377;-8;-3;3;123;4062;198;2;0.7118534;-0.6966759;0.07063711;-0.05401662;-14;11;-1;-687;3646;-293;8;0.4224377;-0.4307479;0.5138504;0.6098856;2;1;7;735;3917;347;0.4468966;2.839978;0.01191732;0.4528794;3.38517;-0.006847531;0.4581375;3.864323;-0.02536345;0.3998947;4.595634;-0.04129621;0.1161871;4.89931;-0.08644819;-0.2130063;4.733835;-0.0201997;-0.5322257;3.86482;-0.05544239;-0.791216;2.9993;-0.3410914;0.6348885;4.94062;-0.08656323;0.9339312;4.825178;-0.0204531;1.241742;3.912201;-0.02135253;1.468389;3.041813;-0.319419;0.1346394;2.797662;0.00583224;0.1308891;1.337237;-0.0836228;0;0;0;0.1346394;2.797662;0.00583224;0.1308891;1.337237;-0.0836228;0;0;0
1030776.7506;NotLabelled;NONE;16384;-0.0567867;0.06371191;-0.8167554;-0.5706371;0;2;25;-64;3746;1175;65536;0.3074792;-0.1883656;0.7820458;0.5083103;6;16;-20;-462;3598;-1639;8192;0.8043348;-0.5706371;0.1135734;0.1204986;-1;1;-2;466;3833;1215;32768;0.7307325;-0.4889196;0.4016621;0.2562327;-4;5;-8;-335;3875;-1876;256;0.5479149;-0.5069252;-0.4529086;-0.4875346;11;2;2;-415;3980;77;128;0.4487534;-0.588165;-0.4293629;-0.5180055;-8;-6;-5;-79;3963;970;4;0.001385042;-0.04570637;-0.7104939;-0.702216;-2;1;0;285;4022;24;16;0.5249307;-0.6091256;0.4182825;0.4224377;-8;1;3;279;4090;398;2;0.7120165;-0.6966759;0.06786703;-0.05540166;-3;14;3;-511;3888;-529;8;0.4196676;-0.432133;0.5138504;0.6108175;1;-2;7;-209;4109;703;0.4469103;2.83993;0.01192519;0.4528944;3.385248;-0.002703428;0.4581539;3.864528;-0.017584;0.4014791;4.59604;-0.0294888;0.1184152;4.900568;-0.07291116;-0.2111193;4.735438;-0.007500529;-0.5293253;3.866332;-0.04907548;-0.7851568;3.00171;-0.3402385;0.6372041;4.940764;-0.07291222;0.9360117;4.824318;-0.007502019;1.246908;3.912399;-0.01206875;1.47261;3.0414;-0.3090668;0.1346536;2.797662;0.005493291;0.1306781;1.337237;-0.08395199;0;0;0;0.1346536;2.797662;0.005493291;0.1306781;1.337237;-0.08395199;0;0;0
1030797.7552;NotLabelled;NONE;16384;-0.06094183;0.06232687;-0.8165628;-0.5706371;0;4;29;-10;3820;1395;65536;0.3130194;-0.1911357;0.7800723;0.5069252;-1;39;-22;-598;3636;-1495;8192;0.8043348;-0.5706371;0.1135734;0.1204986;0;6;-5;432;3837;1091;32768;0.7339231;-0.4875346;0.3975069;0.2562327;0;20;-16;-763;3845;-1900;256;0.5477747;-0.5083103;-0.4515235;-0.4875346;12;0;1;-391;3970;59;128;0.4473684;-0.590226;-0.4279778;-0.5180055;-9;-9;-6;-165;4041;962;4;0.001385042;-0.04570637;-0.7104939;-0.702216;0;5;0;143;4048;98;16;0.5235457;-0.6093553;0.4182825;0.4238227;-8;-4;3;363;4028;482;2;0.7111659;-0.6980609;0.06232687;-0.05540166;1;3;11;-483;4250;91;8;0.4238227;-0.434903;0.5124654;0.6071351;1;17;8;-503;4073;775;0.4565234;2.839121;0.01242498;0.4625076;3.384439;-0.002203673;0.4677671;3.863719;-0.01708427;0.4126818;4.595407;-0.02493849;0.1302643;4.900784;-0.0665632;-0.1996021;4.736015;-0.001921818;-0.5121572;3.865521;-0.05556333;-0.7575679;3.002414;-0.3598947;0.6491395;4.939851;-0.0665645;0.9477197;4.822397;-0.00192368;1.258582;3.910477;-0.008404613;1.482709;3.038384;-0.3033754;0.1442668;2.796853;0.005993158;0.1346767;1.336661;-0.08676198;0;0;0;0.1442668;2.796853;0.005993158;0.1346767;1.336661;-0.08676198;0;0;0
1030818.7455;NotLabelled;NONE;16384;-0.06648199;0.05955679;-0.8163372;-0.5706371;-6;6;35;86;3876;1547;65536;0.3213296;-0.1952908;0.7765552;0.5055401;-3;64;-23;-420;3894;-1753;8192;0.8041618;-0.5720221;0.1135734;0.1149584;1;20;-13;174;3889;1343;32768;0.7398573;-0.4889196;0.3864266;0.2534626;0;47;-27;-391;3871;-1982;256;0.5452474;-0.5096953;-0.4515235;-0.4889196;15;-2;2;-381;3946;87;128;0.4473684;-0.5924385;-0.4265928;-0.5166205;-11;-9;-8;-221;4017;938;4;0;-0.04432133;-0.7105831;-0.702216;0;6;0;199;4102;194;16;0.5221606;-0.6105427;0.4182825;0.4238227;-9;-6;3;317;3984;440;2;0.7113925;-0.6980609;0.06094183;-0.05401662;0;-6;11;-709;4078;203;8;0.4224377;-0.434903;0.5124654;0.6080995;3;-11;5;-189;4165;617;0.4577361;2.838701;0.009042114;0.463721;3.384086;-0.002853006;0.4689812;3.863434;-0.01533109;0.4138822;4.59514;-0.02111572;0.1314508;4.900628;-0.06182171;-0.1983992;4.735673;0.002425686;-0.5088624;3.865046;-0.0604336;-0.749109;3.002267;-0.3697733;0.6503255;4.939703;-0.06182271;0.9489212;4.822073;0.002424419;1.259813;3.910154;-0.002416968;1.493167;3.039048;-0.2931223;0.1454798;2.796466;0.002381191;0.1361244;1.336273;-0.09039786;0;0;0;0.1454798;2.796466;0.002381191;0.1361244;1.336273;-0.09039786;0;0;0
1030838.7378;NotLabelled;NONE;16384;-0.07202215;0.0567867;-0.8170313;-0.5692521;-10;15;37;148;3894;1473;65536;0.3310249;-0.2022161;0.7724982;0.5027701;-1;69;-23;38;3916;-1825;8192;0.8039531;-0.5734072;0.1121884;0.1108033;-2;29;-14;204;3931;1507;32768;0.7427517;-0.4903047;0.3808864;0.2506925;3;51;-29;11;3919;-1970;256;0.5450962;-0.5110803;-0.4501385;-0.4889196;16;-3;3;-263;3946;21;128;0.4459834;-0.594475;-0.4252077;-0.5166205;-11;-11;-8;-301;4009;958;4;0;-0.04293629;-0.7106681;-0.702216;0;2;0;245;4016;146;16;0.5193906;-0.6119408;0.4182825;0.4252077;-9;-6;2;357;3986;424;2;0.7113762;-0.6980609;0.06232687;-0.05263158;5;-16;11;-941;4008;247;8;0.4210526;-0.434903;0.5138504;0.6078913;4;-17;5;-343;4037;531;0.4619513;2.838079;0.006337285;0.4679365;3.383492;-0.004219979;0.4731971;3.862869;-0.01552218;0.4197142;4.594715;-0.01724139;0.1379429;4.901048;-0.05614149;-0.1922453;4.736469;0.007330939;-0.5002756;3.86578;-0.06579632;-0.733326;3.002877;-0.3802546;0.6569027;4.938976;-0.05614263;0.9552634;4.820333;0.007329345;1.263756;3.907661;-0.004392743;1.509064;3.036541;-0.285036;0.1496952;2.79586;-0.0004355013;0.140083;1.33567;-0.09322175;0;0;0;0.1496952;2.79586;-0.0004355013;0.140083;1.33567;-0.09322175;0;0;0
1030858.7353;NotLabelled;NONE;16384;-0.07894737;0.0567867;-0.8163912;-0.5692521;-10;29;34;84;3972;1403;65536;0.3379501;-0.2091413;0.7694476;0.5;2;57;-23;184;3988;-1883;8192;0.8046972;-0.5734072;0.1121884;0.1052632;-6;34;-13;188;3937;1545;32768;0.7467353;-0.4916897;0.3739612;0.2465374;0;47;-26;337;3877;-1774;256;0.5449378;-0.5124654;-0.4487534;-0.4889196;16;-1;3;-187;4074;-33;128;0.4459834;-0.5956758;-0.4252077;-0.5152354;-10;-10;-8;-275;4029;856;4;0;-0.04293629;-0.7106681;-0.702216;0;0;0;287;4116;150;16;0.5180055;-0.6121665;0.4196676;0.4252077;-9;-4;2;313;4042;412;2;0.7115758;-0.6980609;0.06232687;-0.04986149;3;-23;11;-879;4026;309;8;0.4196676;-0.433518;0.5166205;0.6074904;4;-6;6;-293;4093;495;0.4676733;2.837181;-0.002294004;0.473659;3.382639;-0.01012436;0.4789202;3.862067;-0.0190298;0.4254247;4.593914;-0.01866847;0.1436401;4.90035;-0.05664402;-0.1865321;4.735587;0.006430924;-0.4945006;3.866015;-0.07918209;-0.7193933;3.003123;-0.399551;0.6625991;4.938287;-0.05664504;0.9609751;4.819471;0.006429613;1.26729;3.906087;-0.006844401;1.518311;3.034996;-0.2824825;0.1554176;2.794996;-0.009295002;0.1457065;1.334631;-0.09927876;0;0;0;0.1554176;2.794996;-0.009295002;0.1457065;1.334631;-0.09927876;0;0;0
1030879.973;NotLabelled;NONE;16384;-0.09279778;0.06094183;-0.8165616;-0.566482;-5;35;29;-352;3898;1667;65536;0.3545706;-0.2160665;0.7636127;0.4944598;14;51;-32;-272;3988;-2221;8192;0.8065783;-0.5720221;0.1108033;0.09972299;-9;29;-12;96;3857;1587;32768;0.7499294;-0.4930748;0.368421;0.2423823;-1;40;-17;809;3987;-1844;256;0.5408938;-0.5166205;-0.4473684;-0.4903047;15;0;4;-159;4160;-117;128;0.4432133;-0.6008878;-0.4224377;-0.5138504;-10;-7;-7;-273;4019;912;4;0;-0.04293629;-0.7106681;-0.702216;-3;-1;0;323;4094;134;16;0.5166205;-0.6123733;0.4196676;0.4265928;-10;-2;2;405;4106;412;2;0.7116418;-0.6980609;0.06371191;-0.04709141;0;-15;10;-617;4176;127;8;0.4196676;-0.433518;0.5166205;0.6074904;5;0;6;-123;4185;523;0.4715235;2.836799;-0.001326501;0.4775092;3.382257;-0.009143114;0.4827703;3.861686;-0.01803648;0.429262;4.593528;-0.0155887;0.1474641;4.900066;-0.0526362;-0.182692;4.735118;0.0100404;-0.4870765;3.865489;-0.08704108;-0.7073535;3.002453;-0.4102187;0.6664226;4.938012;-0.05263823;0.9648137;4.819023;0.01003677;1.271942;3.905995;-0.008071661;1.530486;3.035477;-0.2785181;0.1592677;2.794615;-0.008328646;0.1497827;1.33425;-0.09833706;0;0;0;0.1592677;2.794615;-0.008328646;0.1497827;1.33425;-0.09833706;0;0;0
1030900.7674;NotLabelled;NONE;16384;-0.09972299;0.06371191;-0.8164935;-0.5650969;-5;25;27;-494;4004;1659;65536;0.3642659;-0.2188366;0.7609351;0.4903047;17;48;-33;204;3816;-2345;8192;0.8070812;-0.5720221;0.1108033;0.09556787;-11;18;-8;20;3943;1475;32768;0.7517025;-0.4944598;0.365651;0.2382271;2;33;-5;981;4119;-2018;256;0.5394537;-0.5180055;-0.4459834;-0.4916897;14;0;5;-279;4178;-143;128;0.4432133;-0.6020695;-0.4224377;-0.5124654;-7;-6;-7;-261;4121;868;4;-0.001385042;-0.04155125;-0.7121148;-0.700831;-5;0;1;327;4068;166;16;0.5138504;-0.6146808;0.4182825;0.4279778;-9;-4;1;351;4028;530;2;0.7106667;-0.699446;0.06232687;-0.04293629;0;-5;9;-263;4126;-95;8;0.4182825;-0.434903;0.5180055;0.606275;5;-2;4;-197;4111;459;0.4726845;2.836296;-0.004888892;0.4786708;3.381806;-0.007248133;0.4839326;3.861299;-0.01134461;0.433918;4.593314;-0.0006125569;0.1535573;4.901588;-0.03397456;-0.1773337;4.737519;0.02711199;-0.4813931;3.869727;-0.0860922;-0.688561;3.008996;-0.4237614;0.6726906;4.93706;-0.03397572;0.9705589;4.815953;0.02711028;1.281804;3.904435;0.003914118;1.545163;3.034463;-0.2636243;0.1604295;2.794185;-0.01234683;0.1509201;1.333819;-0.1023527;0;0;0;0.1604295;2.794185;-0.01234683;0.1509201;1.333819;-0.1023527;0;0;0
1030920.9021;NotLabelled;NONE;16384;-0.1038781;0.06371191;-0.8169327;-0.5637119;-11;9;30;-258;3854;1699;65536;0.3725762;-0.2229917;0.759253;0.4847645;18;55;-30;394;3766;-2087;8192;0.8084124;-0.5706371;0.1094183;0.09418282;-10;6;0;266;3997;1379;32768;0.7534359;-0.4958449;0.3628809;0.234072;11;30;4;883;3961;-2580;256;0.5381203;-0.5193906;-0.4459834;-0.4916897;12;-2;5;-331;4112;-165;128;0.4432133;-0.6030389;-0.4210526;-0.5124654;-6;-6;-7;-345;4039;908;4;-0.002770083;-0.04155125;-0.7134712;-0.699446;-6;0;1;169;4054;126;16;0.5124654;-0.615836;0.4182825;0.4279778;-9;-3;1;305;4004;564;2;0.7109487;-0.699446;0.06094183;-0.0401662;3;-7;10;-129;4148;-21;8;0.4182825;-0.433518;0.5193906;0.6060819;5;-3;4;-299;4085;451;0.4839925;2.834808;-0.01376116;0.4899787;3.380318;-0.01610342;0.4952406;3.859811;-0.02018499;0.4450271;4.591741;-0.005343974;0.1645681;4.900117;-0.03687595;-0.1662541;4.735617;0.02341926;-0.4698583;3.868697;-0.09742337;-0.6703508;3.010584;-0.445622;0.6836916;4.935735;-0.0368771;0.9816168;4.814371;0.02341759;1.293406;3.903173;-0.004532814;1.558016;3.033722;-0.2725307;0.1717375;2.792697;-0.02122045;0.15655;1.332414;-0.1117724;0;0;0;0.1717375;2.792697;-0.02122045;0.15655;1.332414;-0.1117724;0;0;0
1030941.7418;NotLabelled;NONE;16384;-0.1094183;0.06094183;-0.8183264;-0.5609418;-15;1;34;176;3742;1735;65536;0.3808864;-0.2285319;0.7569959;0.4792244;18;58;-24;780;3742;-2071;8192;0.8110184;-0.567867;0.1080332;0.0900277;-12;18;-3;-44;3749;1349;32768;0.7557138;-0.4958449;0.3642659;0.2243767;18;12;10;763;3775;-1872;256;0.53678;-0.5207756;-0.4459834;-0.4916897;12;-1;5;-203;4124;-73;128;0.4418283;-0.6052267;-0.4210526;-0.5110803;-6;-8;-8;-353;4035;898;4;-0.002770083;-0.04155125;-0.7134712;-0.699446;-4;-3;1;163;4042;18;16;0.5124654;-0.6148711;0.4182825;0.4293629;-8;-1;2;329;4010;564;2;0.711143;-0.699446;0.05955679;-0.03878116;5;-10;11;-317;4120;-11;8;0.4182825;-0.433518;0.5207756;0.6048923;3;1;4;-349;4033;417;0.4934297;2.833814;-0.01268753;0.499416;3.379328;-0.01371738;0.5046779;3.858829;-0.0166454;0.4563358;4.590838;0.0003063679;0.1766589;4.90002;-0.03028531;-0.1545706;4.736192;0.02960238;-0.4586995;3.870414;-0.09793338;-0.6567398;3.015456;-0.455176;0.6958716;4.934312;-0.03028613;0.9934974;4.812016;0.02960151;1.308889;3.902041;0.002216816;1.574772;3.033096;-0.2661624;0.1811749;2.791721;-0.02025656;0.1606917;1.331715;-0.1141907;0;0;0;0.1811749;2.791721;-0.02025656;0.1606917;1.331715;-0.1141907;0;0;0
1030961.7346;NotLabelled;NONE;16384;-0.1135734;0.0567867;-0.819007;-0.5595568;-18;2;34;390;3772;1743;65536;0.3891967;-0.232687;0.7549874;0.4736842;21;57;-23;458;3866;-2263;8192;0.8124718;-0.566482;0.1066482;0.08725762;-9;19;-6;-30;3779;1323;32768;0.7575747;-0.4944598;0.365651;0.2188366;25;15;15;837;3743;-2300;256;0.5365834;-0.5221606;-0.4445983;-0.4916897;10;-1;6;-117;4032;-67;128;0.4418283;-0.6063936;-0.4210526;-0.5096953;-7;-9;-7;-385;3971;922;4;-0.002770083;-0.04155125;-0.7134712;-0.699446;-3;-4;0;119;4038;24;16;0.5110803;-0.6160228;0.4182825;0.4293629;-8;-1;2;321;4014;554;2;0.709924;-0.700831;0.05955679;-0.03601108;5;-10;10;-419;4124;1;8;0.4182825;-0.434903;0.5207756;0.6038972;3;3;4;-171;4081;397;0.4903949;2.834023;-0.014126;0.4963812;3.379537;-0.01373455;0.5016432;3.859045;-0.01541322;0.4551775;4.591124;0.003654391;0.1762872;4.901106;-0.02599397;-0.1553495;4.737955;0.03348514;-0.4616258;3.874824;-0.1062643;-0.6570343;3.022375;-0.4708785;0.6955858;4.93407;-0.02599514;0.9929087;4.81084;0.03348345;1.315316;3.903412;0.003448367;1.580803;3.038403;-0.2777336;0.1781403;2.791949;-0.02181339;0.1576552;1.331944;-0.1157471;0;0;0;0.1781403;2.791949;-0.02181339;0.1576552;1.331944;-0.1157471;0;0;0
1030981.9143;NotLabelled;NONE;16384;-0.1191136;0.05540166;-0.8202019;-0.5567867;-20;14;30;356;3834;1789;65536;0.3975069;-0.2368421;0.7536777;0.466759;26;60;-27;-124;3968;-2543;8192;0.8127645;-0.566482;0.1066482;0.08448754;-7;20;-13;72;3917;1167;32768;0.7602831;-0.4916897;0.367036;0.2132964;35;23;19;1057;3697;-2366;256;0.5327173;-0.5249307;-0.4459834;-0.4916897;9;2;6;-39;4166;-101;128;0.4404432;-0.6106683;-0.4196676;-0.5069252;-5;-6;-6;-383;4111;954;4;-0.002770083;-0.04155125;-0.7148263;-0.6980609;-3;-1;0;245;4056;36;16;0.5096953;-0.6162034;0.4182825;0.4307479;-7;-1;1;257;4024;508;2;0.7099929;-0.700831;0.05955679;-0.03462604;4;-7;7;-547;4142;63;8;0.4182825;-0.434903;0.5207756;0.6038972;3;3;4;-177;4091;365;0.4945883;2.833314;-0.01608765;0.5005746;3.378829;-0.01567763;0.5058366;3.858336;-0.01733994;0.4593617;4.590357;0.00385192;0.1804605;4.900418;-0.02484871;-0.1511623;4.73709;0.03422018;-0.4565665;3.875749;-0.1179323;-0.6478556;3.026387;-0.4918163;0.6997586;4.933391;-0.0248509;0.9970947;4.809996;0.03421617;1.323383;3.903935;0.004790068;1.591346;3.042415;-0.2846338;0.1823338;2.791242;-0.02377665;0.1620825;1.331236;-0.1177611;0;0;0;0.1823338;2.791242;-0.02377665;0.1620825;1.331236;-0.1177611;0;0;0
1031002.7405;NotLabelled;NONE;16384;-0.1288089;0.05540166;-0.8234022;-0.5498615;-25;21;21;-172;3936;1933;65536;0.4182825;-0.2409972;0.7487172;0.4542936;43;52;-41;-542;3998;-2705;8192;0.8133214;-0.566482;0.1066482;0.07894737;-10;28;-21;-18;3883;947;32768;0.7626349;-0.4889196;0.3698061;0.2063712;46;28;24;1389;3819;-2494;256;0.531349;-0.5263157;-0.4459834;-0.4916897;8;3;6;35;4126;-143;128;0.4404432;-0.6106683;-0.4196676;-0.5069252;-4;-1;-6;-413;4079;928;4;-0.004155125;-0.0401662;-0.7148988;-0.6980609;-2;4;0;351;4096;110;16;0.5069252;-0.6184843;0.4182825;0.4307479;-7;1;2;383;3986;524;2;0.7101739;-0.700831;0.05817174;-0.033241;3;-1;4;-605;4118;149;8;0.4182825;-0.434903;0.5221606;0.6027001;3;1;4;-167;4127;407;0.5012479;2.832662;-0.01977122;0.507234;3.378167;-0.0166074;0.5124961;3.857677;-0.01584908;0.4716905;4.5899;0.009596318;0.1951864;4.902269;-0.01720737;-0.1376707;4.74117;0.04103629;-0.4458682;3.882523;-0.1204243;-0.63684;3.037433;-0.5040239;0.7147239;4.931225;-0.0172084;1.011116;4.805195;0.04103488;1.337625;3.899377;0.006969094;1.609292;3.042588;-0.2928597;0.1889937;2.790628;-0.02768978;0.1628608;1.330746;-0.1221393;0;0;0;0.1889937;2.790628;-0.02768978;0.1628608;1.330746;-0.1221393;0;0;0
1031022.7429;NotLabelled;NONE;16384;-0.132964;0.0567867;-0.8254093;-0.5457063;-30;15;21;-80;3846;1901;65536;0.4293629;-0.2409972;0.746612;0.4473684;52;42;-46;-258;3932;-2885;8192;0.8137811;-0.566482;0.1080332;0.07202215;-13;34;-25;-348;3779;869;32768;0.7659293;-0.4861496;0.3711911;0.1980609;54;35;32;1681;3825;-2746;256;0.5263157;-0.530064;-0.4459834;-0.4930748;9;7;7;11;4106;-163;128;0.4390582;-0.6128101;-0.4196676;-0.5055401;-3;1;-6;-435;4069;876;4;-0.005540166;-0.03878116;-0.7149659;-0.6980609;-2;7;2;335;4148;172;16;0.5069252;-0.6184843;0.4182825;0.4307479;-8;0;2;491;4070;500;2;0.7089167;-0.702216;0.0567867;-0.033241;3;3;2;-449;4092;45;8;0.4196676;-0.4362881;0.5221606;0.6007329;2;6;4;-285;4069;369;0.5094253;2.831175;-0.02453211;0.5154116;3.376681;-0.02136829;0.5206736;3.856191;-0.02061003;0.4817649;4.588439;0.006971717;0.206065;4.901599;-0.01887864;-0.1271983;4.741192;0.0389499;-0.4432153;3.888803;-0.139646;-0.6206101;3.053168;-0.5495734;0.7256756;4.929212;-0.01887923;1.021749;4.802248;0.03894937;1.348969;3.896944;-0.001387954;1.623467;3.045699;-0.3141513;0.1971712;2.789142;-0.03245085;0.1710727;1.329263;-0.126965;0;0;0;0.1971712;2.789142;-0.03245085;0.1710727;1.329263;-0.126965;0;0;0
1031042.8972;NotLabelled;NONE;16384;-0.1371191;0.05540166;-0.8275574;-0.5415512;-32;11;20;58;3822;1805;65536;0.4404432;-0.2382271;0.7459796;0.4390582;61;33;-50;-172;3822;-2991;8192;0.8147094;-0.566482;0.1108033;0.05540166;-15;39;-39;-718;4015;1485;32768;0.7717864;-0.4778393;0.3808864;0.1759003;64;26;51;1987;3617;-2788;256;0.5249307;-0.5302702;-0.4473684;-0.4930748;10;9;7;-91;4122;-89;128;0.4390582;-0.6118593;-0.4210526;-0.5055401;-4;6;-6;-413;4005;902;4;-0.006925208;-0.03878116;-0.7163035;-0.6966759;-3;7;3;255;4094;228;16;0.5055401;-0.6186517;0.4182825;0.432133;-8;-6;1;423;4012;466;2;0.7090263;-0.702216;0.05540166;-0.033241;3;4;1;-303;4128;35;8;0.4196676;-0.4362881;0.5235457;0.5995263;2;6;4;-155;4097;353;0.5092865;2.831151;-0.02489939;0.5152726;3.376647;-0.02031043;0.5205346;3.856153;-0.01829937;0.4866534;4.588315;0.01709411;0.2130912;4.903611;-0.005266637;-0.121234;4.744881;0.05104043;-0.4434462;3.89603;-0.1332408;-0.6140677;3.066942;-0.5590346;0.7328787;4.927668;-0.005267501;1.028105;4.798072;0.05103934;1.355774;3.893475;-6.711483E-05;1.634066;3.048501;-0.3261973;0.1970326;2.789139;-0.03293677;0.1707177;1.329263;-0.127442;0;0;0;0.1970326;2.789139;-0.03293677;0.1707177;1.329263;-0.127442;0;0;0
1031063.7551;NotLabelled;NONE;16384;-0.1412742;0.05401662;-0.8305516;-0.536011;-33;6;22;198;3860;1911;65536;0.4515235;-0.2354571;0.745079;0.4307479;68;28;-49;-208;3848;-3225;8192;0.8158906;-0.5650969;0.1135734;0.04570637;-18;36;-46;-786;3991;1527;32768;0.7737401;-0.4736842;0.3864266;0.166205;65;18;56;1823;3565;-2788;256;0.5221606;-0.5329982;-0.4473684;-0.4930748;8;11;8;-39;4104;-57;128;0.4376731;-0.6118969;-0.4224377;-0.5055401;-6;8;-5;-281;4007;948;4;-0.008310249;-0.03739612;-0.7163624;-0.6966759;-4;4;4;277;4046;204;16;0.5041551;-0.618813;0.4182825;0.433518;-9;-7;1;263;4018;490;2;0.7090669;-0.702216;0.05401662;-0.03462604;2;5;1;-295;4144;117;8;0.4196676;-0.4376731;0.5235457;0.5985159;2;4;4;-217;4129;291;0.5154752;2.830324;-0.02606156;0.5214614;3.375828;-0.0227831;0.5267234;3.855339;-0.02192405;0.4950508;4.587584;0.01378173;0.222445;4.903715;-0.008473143;-0.1123646;4.745971;0.04772847;-0.4407337;3.901693;-0.146429;-0.6056762;3.082141;-0.592439;0.7423028;4.9262;-0.008406162;1.03713;4.79569;0.04787731;1.365891;3.893375;-0.02970862;1.649477;3.067513;-0.3975635;0.2032211;2.788291;-0.03398979;0.17143;1.328745;-0.131819;0;0;0;0.2032211;2.788291;-0.03398979;0.17143;1.328745;-0.131819;0;0;0
1031083.8198;NotLabelled;NONE;16384;-0.1454294;0.05124654;-0.8326784;-0.5318559;-35;-1;27;546;3818;1935;65536;0.4626039;-0.2299169;0.74477;0.4224377;76;21;-47;-18;3804;-3531;8192;0.8167448;-0.5637119;0.1177285;0.03601108;-19;33;-57;-1048;4051;1539;32768;0.77592;-0.468144;0.3933518;0.1551246;63;9;58;1703;3521;-3102;256;0.5207756;-0.5319047;-0.4487534;-0.4944598;8;13;7;-99;4046;-33;128;0.4362881;-0.6128852;-0.4224377;-0.5055401;-5;7;-3;-355;4037;928;4;-0.01108033;-0.03739612;-0.7176694;-0.6952909;-4;2;4;311;4040;166;16;0.5027701;-0.6199388;0.4182825;0.433518;-9;-1;1;307;4008;474;2;0.7091711;-0.702216;0.05263158;-0.03462604;0;7;0;-353;4118;91;8;0.4196676;-0.4376731;0.5235457;0.5985159;1;3;4;-203;4073;291;0.5163935;2.829791;-0.02998039;0.5223798;3.375295;-0.02661577;0.5276418;3.854805;-0.02568099;0.4997732;4.586986;0.01428139;0.2288;4.904647;-0.006036401;-0.106802;4.748315;0.04937746;-0.4425739;3.90902;-0.1535288;-0.6002134;3.099318;-0.6197137;0.7487673;4.924441;-0.006037354;1.042935;4.792082;0.04937607;1.37541;3.89226;-0.0403713;1.660608;3.075972;-0.4278291;0.2041394;2.78776;-0.03791566;0.1724038;1.328216;-0.1358134;0;0;0;0.2041394;2.78776;-0.03791566;0.1724038;1.328216;-0.1358134;0;0;0
1031103.8765;NotLabelled;NONE;16384;-0.1551246;0.04293629;-0.8366557;-0.5235457;-38;-7;40;776;3780;2075;65536;0.4833795;-0.2188366;0.7456594;0.4030471;80;19;-37;174;3578;-3597;8192;0.8172954;-0.5623268;0.1232687;0.02493075;-21;25;-69;-1300;4141;1623;32768;0.7774255;-0.4612188;0.4016621;0.1468144;65;-4;59;1709;3587;-3260;256;0.5166205;-0.5323229;-0.4515235;-0.4958449;12;14;7;-31;3994;-21;128;0.433518;-0.6117904;-0.4252077;-0.5069252;-5;6;-3;-373;3987;874;4;-0.01385042;-0.03601108;-0.7176921;-0.6952909;-3;4;4;447;4030;80;16;0.501385;-0.6219901;0.4168975;0.433518;-9;1;1;411;4062;610;2;0.7078294;-0.7036011;0.05124654;-0.03601108;1;8;0;-371;4104;-29;8;0.4196676;-0.4376731;0.5235457;0.5985159;1;0;4;-53;4131;365;0.5250704;2.828439;-0.02712935;0.5310566;3.373933;-0.02236706;0.5363185;3.853438;-0.02020371;0.5087571;4.585615;0.02005628;0.2379166;4.903398;-0.0001283735;-0.09774996;4.747184;0.05522729;-0.439445;3.912511;-0.1566575;-0.5912615;3.1147;-0.6447627;0.757892;4.922974;-0.0001294017;1.052005;4.790469;0.05522573;1.387052;3.893689;-0.05342305;1.672396;3.089667;-0.4656292;0.2128166;2.786429;-0.03518094;0.1757317;1.327433;-0.1391683;0;0;0;0.2128166;2.786429;-0.03518094;0.1757317;1.327433;-0.1391683;0;0;0
1031124.8861;NotLabelled;NONE;16384;-0.1606648;0.03601108;-0.8393809;-0.5180055;-41;-9;46;814;3770;2227;65536;0.4916897;-0.2132964;0.7470075;0.3933518;83;17;-34;-6;3718;-3681;8192;0.8183334;-0.5595568;0.1301939;0.0166205;-27;11;-74;-1348;4001;1799;32768;0.7779583;-0.4542936;0.4113573;0.1385041;69;-5;64;1623;3619;-3346;256;0.5138504;-0.5337103;-0.4515235;-0.4972299;12;15;7;1;3952;-121;128;0.432133;-0.6127694;-0.4252077;-0.5069252;-7;5;-3;-419;3879;924;4;-0.01523546;-0.03601108;-0.7176641;-0.6952909;-4;6;5;421;4006;158;16;0.5;-0.6240285;0.4155124;0.433518;-9;3;1;321;3992;642;2;0.7078782;-0.7036011;0.04847645;-0.03878116;1;9;-3;-579;4040;-93;8;0.4182825;-0.4390582;0.5249307;0.5972565;1;0;2;-87;4095;359;0.5285982;2.827077;-0.03122997;0.5345843;3.37257;-0.02635041;0.5398462;3.852075;-0.02408394;0.5166876;4.584253;0.01883537;0.2477584;4.903728;-0.0001594722;-0.08883417;4.749332;0.05467492;-0.4404882;3.925076;-0.1804218;-0.5845013;3.155049;-0.7134458;0.7678421;4.920181;-0.0001603961;1.06116;4.785712;0.05467373;1.397873;3.892719;-0.07747436;1.681952;3.101444;-0.5144767;0.2163443;2.785069;-0.0392914;0.1789523;1.326274;-0.1459519;0;0;0;0.2163443;2.785069;-0.0392914;0.1789523;1.326274;-0.1459519;0;0;0
1031146.7444;NotLabelled;NONE;16384;-0.16759;0.03047091;-0.8416439;-0.5124654;-45;-6;54;668;3800;2397;65536;0.501385;-0.2077562;0.7478763;0.3822715;92;10;-32;-246;3762;-3741;8192;0.8205702;-0.5512465;0.1509695;0;-34;-5;-78;-918;3989;1657;32768;0.7799863;-0.4376731;0.4307479;0.1204986;86;-9;78;1855;3989;-3562;256;0.5110803;-0.5339044;-0.4529086;-0.4986149;13;15;8;-39;3940;-169;128;0.4307479;-0.6137438;-0.4252077;-0.5069252;-9;5;-3;-407;3923;950;4;-0.01800554;-0.03462604;-0.7190074;-0.6939058;-4;7;4;359;3976;194;16;0.4986149;-0.624173;0.4155124;0.434903;-9;5;1;317;4020;692;2;0.7078145;-0.7036011;0.04709141;-0.04155125;3;10;-3;-481;4012;-47;8;0.4182825;-0.4390582;0.5249307;0.5972565;1;-2;3;-117;4067;389;0.53237;2.825662;-0.03423759;0.5383559;3.37114;-0.02796945;0.5436178;3.850638;-0.02448243;0.5223541;4.582616;0.02262455;0.2542463;4.902886;0.005504325;-0.08273405;4.749048;0.05951636;-0.4408199;3.932375;-0.1917799;-0.5835228;3.176757;-0.7453806;0.7743707;4.917998;0.005503476;1.06735;4.782463;0.05951518;1.408296;3.894416;-0.0934689;1.69058;3.116663;-0.5552105;0.2201164;2.783674;-0.04241471;0.1828304;1.325081;-0.1518533;0;0;0;0.2201164;2.783674;-0.04241471;0.1828304;1.325081;-0.1518533;0;0;0
1031166.8959;NotLabelled;NONE;16384;-0.1759003;0.0235457;-0.8435233;-0.5069252;-51;-1;58;468;3780;2347;65536;0.5096953;-0.199446;0.7500995;0.3711911;98;4;-32;-348;3876;-3871;8192;0.8214908;-0.5470914;0.1606648;-0.005540166;-37;-4;-79;-764;4135;1757;32768;0.7808012;-0.4279778;0.4418283;0.1094183;93;-5;88;1709;4053;-3826;256;0.5083103;-0.5340768;-0.4542936;-0.5;13;13;9;-75;3948;-219;128;0.4293629;-0.6135687;-0.4252077;-0.5083103;-9;1;-4;-403;3971;1030;4;-0.01939058;-0.03462604;-0.7189714;-0.6939058;-2;7;4;291;4064;198;16;0.4986149;-0.6250928;0.4141274;0.434903;-9;6;1;365;4016;674;2;0.7064431;-0.7049862;0.04570637;-0.04293629;4;8;-2;-465;4022;-57;8;0.4182825;-0.4390582;0.5263157;0.5960364;1;-2;3;-231;4061;455;0.5380669;2.824657;-0.03585786;0.5440527;3.370118;-0.02820301;0.5493145;3.849606;-0.02349696;0.5302466;4.581491;0.0259352;0.2630976;4.902615;0.009856373;-0.07433739;4.749615;0.06341082;-0.4385099;3.940659;-0.2036057;-0.5800611;3.201441;-0.7792057;0.7832649;4.91617;0.009855509;1.075841;4.779586;0.06340975;1.427276;3.906312;-0.1419196;1.708858;3.160985;-0.6547421;0.2258136;2.78269;-0.04415046;0.1828813;1.324498;-0.1568033;0;0;0;0.2258136;2.78269;-0.04415046;0.1828813;1.324498;-0.1568033;0;0;0
1031187.7401;NotLabelled;NONE;16384;-0.1842105;0.01800554;-0.8460155;-0.5;-54;0;62;504;3796;2331;65536;0.5180055;-0.1897507;0.7523198;0.3601108;103;-3;-34;-236;3758;-3879;8192;0.8231087;-0.5415512;0.1703601;-0.01385042;-41;4;-82;-644;4243;1887;32768;0.7812899;-0.4168975;0.4542936;0.09695291;99;-12;93;1605;4223;-3630;256;0.5055401;-0.5354059;-0.4542936;-0.501385;13;10;9;-185;4040;-361;128;0.4279778;-0.6145356;-0.4252077;-0.5083103;-10;2;-4;-335;3973;1056;4;-0.02077562;-0.033241;-0.718998;-0.6939058;-2;8;4;265;4072;216;16;0.4986149;-0.6269681;0.4127424;0.433518;-8;7;1;361;4050;706;2;0.7049862;-0.7063576;0.04570637;-0.04432133;2;7;0;-479;4070;13;8;0.4182825;-0.4390582;0.5263157;0.5960364;2;0;2;-125;4139;487;0.5376803;2.824036;-0.03697917;0.5436657;3.369476;-0.02796924;0.5489274;3.848951;-0.02207202;0.5320522;4.58073;0.02965769;0.2658637;4.9027;0.01460813;-0.07202356;4.750545;0.06770976;-0.441014;3.950241;-0.2181037;-0.5834123;3.229915;-0.8169789;0.7860692;4.9147;0.01460749;1.07824;4.777076;0.06770921;1.43342;3.911061;-0.1606345;1.712334;3.186149;-0.7033101;0.2254271;2.782089;-0.04538453;0.1823025;1.324111;-0.1606964;0;0;0;0.2254271;2.782089;-0.04538453;0.1823025;1.324111;-0.1606964;0;0;0
1031209.5564;NotLabelled;NONE;16384;-0.2022161;0.004155125;-0.8509375;-0.4847645;-60;-4;69;718;3704;2409;65536;0.534626;-0.16759;0.7562264;0.3379501;115;-5;-36;-548;3810;-4101;8192;0.8247513;-0.536011;0.1786704;-0.0235457;-46;13;-83;-852;4157;1969;32768;0.7803944;-0.4058172;0.468144;0.08448754;106;-7;98;1433;4205;-3828;256;0.5;-0.5392955;-0.4542936;-0.5027701;14;5;7;-83;4088;-383;128;0.4252077;-0.6174086;-0.4238227;-0.5083103;-10;1;-4;-323;3995;1214;4;-0.0235457;-0.03185596;-0.7203096;-0.6925207;-4;7;5;167;4100;266;16;0.4972299;-0.6289752;0.4113573;0.433518;-8;8;1;389;4006;704;2;0.7049862;-0.7063576;0.04432133;-0.04570637;2;5;0;-655;4122;1;8;0.4182825;-0.4390582;0.5263157;0.5960364;2;1;2;-133;4121;459;0.5407497;2.823369;-0.03886086;0.5467349;3.368785;-0.02846959;0.5519964;3.848243;-0.02135807;0.5370184;4.579761;0.03449219;0.2716581;4.902496;0.02131045;-0.06660995;4.750915;0.07362587;-0.4430226;3.959875;-0.2278664;-0.5842206;3.260159;-0.8509703;0.7918928;4.913154;0.02126825;1.083718;4.77448;0.07353336;1.445024;3.91767;-0.1786753;1.721583;3.216911;-0.7533402;0.2284968;2.781444;-0.04738107;0.1852124;1.323467;-0.1626572;0;0;0;0.2284968;2.781444;-0.04738107;0.1852124;1.323467;-0.1626572;0;0;0
1031229.7403;NotLabelled;NONE;16384;-0.2105263;-0.001385042;-0.852846;-0.4778393;-63;-4;73;676;3752;2631;65536;0.5443213;-0.1565097;0.7577456;0.3240997;120;-1;-39;-480;3824;-4213;8192;0.8261561;-0.5304709;0.1869806;-0.033241;-49;17;-82;-1084;4095;2077;32768;0.7805763;-0.3933518;0.4806094;0.07063711;111;-9;102;1477;4213;-3876;256;0.4986149;-0.5392848;-0.4542936;-0.5041551;17;3;6;-29;4022;-471;128;0.4238227;-0.617219;-0.4238227;-0.5096953;-11;-2;-5;-333;3981;1258;4;-0.02631579;-0.03047091;-0.7216027;-0.6911357;-3;3;4;189;4068;268;16;0.4972299;-0.6307781;0.4085872;0.433518;-6;6;1;429;3974;786;2;0.7049862;-0.7063522;0.04293629;-0.04709141;1;4;2;-697;4102;-27;8;0.4182825;-0.4390582;0.5263157;0.5960364;2;3;2;-113;4083;321;0.5497884;2.821606;-0.04116049;0.5557726;3.366928;-0.0266853;0.5610332;3.846319;-0.01598373;0.5516966;4.577262;0.04803455;0.2888304;4.90216;0.03849742;-0.05059242;4.752614;0.08916722;-0.4382516;3.986369;-0.2585653;-0.5732515;3.332217;-0.9306201;0.8091319;4.908809;0.03849667;1.099883;4.767315;0.08916628;1.469122;3.921725;-0.1881726;1.739763;3.246572;-0.7953867;0.2375362;2.779746;-0.05001996;0.1889388;1.322199;-0.1685747;0;0;0;0.2375362;2.779746;-0.05001996;0.1889388;1.322199;-0.1685747;0;0;0
1031250.7483;NotLabelled;NONE;16384;-0.2216066;-0.009695291;-0.8553582;-0.468144;-68;-6;76;834;3766;2825;65536;0.5526316;-0.1454294;0.7591658;0.3116343;123;-1;-41;-456;3652;-4337;8192;0.8295578;-0.5166205;0.2049861;-0.05401662;-59;12;-84;-1432;3989;2383;32768;0.7799826;-0.3642659;0.5069252;0.04432133;122;-30;103;1749;3895;-4362;256;0.4958449;-0.5429911;-0.4529086;-0.5041551;19;0;5;-87;4000;-445;128;0.4224377;-0.6191151;-0.4224377;-0.5096953;-12;-4;-6;-367;3907;1198;4;-0.02631579;-0.03047091;-0.7216027;-0.6911357;-4;0;3;205;4072;278;16;0.4958449;-0.6318675;0.4085872;0.433518;-5;3;1;383;4076;778;2;0.7036011;-0.7077211;0.04155125;-0.04847645;0;-1;3;-925;4020;-113;8;0.4182825;-0.4390582;0.5277008;0.5948104;1;-3;3;-31;4109;229;0.5550561;2.820309;-0.04410011;0.5610399;3.365594;-0.02828187;0.5663003;3.844957;-0.01639944;0.5569672;4.57572;0.04964858;0.2941014;4.900642;0.04102299;-0.04532001;4.750957;0.09128943;-0.4384911;3.996028;-0.2745351;-0.5708294;3.36914;-0.9726004;0.8144028;4.90729;0.04102224;1.105155;4.765656;0.09128845;1.480963;3.93124;-0.2100297;1.748821;3.285001;-0.8491036;0.2428041;2.778471;-0.05307108;0.1889248;1.32138;-0.1748982;0;0;0;0.2428041;2.778471;-0.05307108;0.1889248;1.32138;-0.1748982;0;0;0
1031271.7446;NotLabelled;NONE;16384;-0.2313019;-0.01800554;-0.8571628;-0.4598338;-76;-7;80;930;3692;2945;65536;0.5623268;-0.132964;0.7604319;0.2963989;128;0;-43;-594;3584;-4327;8192;0.8326427;-0.5069252;0.2132964;-0.06509695;-66;7;-87;-1582;3971;2541;32768;0.7786829;-0.3462604;0.5221606;0.033241;128;-44;104;2017;3891;-4662;256;0.4944598;-0.5441187;-0.4515235;-0.5055401;20;-1;5;-1;4026;-469;128;0.4210526;-0.6209992;-0.4210526;-0.5096953;-12;-4;-5;-333;3929;1232;4;-0.02770083;-0.03047091;-0.7228749;-0.6897507;-4;-3;2;211;4032;222;16;0.4958449;-0.6318675;0.4085872;0.433518;-4;1;1;367;3962;754;2;0.7036011;-0.7076383;0.04293629;-0.04847645;2;-6;2;-871;4048;-159;8;0.4168975;-0.4390582;0.5290859;0.5945524;0;-8;3;-83;4117;161;0.559107;2.819366;-0.04574955;0.5650899;3.364566;-0.02723318;0.5703496;3.843865;-0.01297885;0.564424;4.574107;0.05895293;0.3030736;4.900309;0.05297139;-0.03703788;4.751807;0.1020657;-0.4352801;4.013446;-0.2910696;-0.5616848;3.412756;-1.012866;0.8234003;4.904535;0.05297059;1.113493;4.761148;0.1020646;1.508483;3.954604;-0.246855;1.775406;3.373552;-0.9460826;0.2468555;2.777573;-0.0549444;0.1932831;1.320482;-0.1769066;0;0;0;0.2468555;2.777573;-0.0549444;0.1932831;1.320482;-0.1769066;0;0;0
1031291.8883;NotLabelled;NONE;16384;-0.2409972;-0.02770083;-0.8601007;-0.4487534;-81;-10;83;964;3550;2981;65536;0.5720221;-0.1191136;0.7607687;0.2825485;131;-9;-48;-550;3614;-4467;8192;0.8351307;-0.4972299;0.2229917;-0.07479224;-75;1;-88;-1786;3963;2687;32768;0.7774637;-0.3282548;0.536011;0.02216066;131;-50;100;1657;3651;-4842;256;0.4930748;-0.5452334;-0.4501385;-0.5069252;23;-1;3;11;3974;-501;128;0.4196676;-0.6228715;-0.4196676;-0.5096953;-13;-5;-4;-429;3929;1192;4;-0.02770083;-0.03047091;-0.7228749;-0.6897507;-4;-7;1;307;4022;198;16;0.4944598;-0.6329519;0.4085872;0.433518;-4;-1;1;397;3952;774;2;0.7036011;-0.7077319;0.04293629;-0.04709141;4;-9;2;-771;4042;-169;8;0.4155124;-0.4376731;0.5304709;0.5953085;-1;-10;2;-133;4049;189;0.5642152;2.81884;-0.04226592;0.570197;3.363942;-0.021056;0.5754558;3.843164;-0.004433751;0.5691984;4.573014;0.07135022;0.3076981;4.899123;0.06710091;-0.03234304;4.750207;0.1154255;-0.4349642;4.027204;-0.301097;-0.5565102;3.458332;-1.049033;0.8280229;4.903587;0.06710041;1.118184;4.760077;0.1154249;1.527472;3.971345;-0.2569481;1.791178;3.427444;-0.9866178;0.2519642;2.777093;-0.0516841;0.1932316;1.320482;-0.1769623;0;0;0;0.2519642;2.777093;-0.0516841;0.1932316;1.320482;-0.1769623;0;0;0
1031312.7412;NotLabelled;NONE;16384;-0.2631579;-0.04847645;-0.863954;-0.4265928;-88;-9;87;1072;3368;2809;65536;0.5914127;-0.08864266;0.7603487;0.2534626;146;-16;-50;-1404;3478;-4493;8192;0.8376937;-0.4861496;0.234072;-0.08448754;-82;-4;-94;-1906;4139;2727;32768;0.7769306;-0.3088643;0.5484765;0.01246537;130;-50;94;1655;3237;-4596;256;0.4903047;-0.5487108;-0.4473684;-0.5083103;25;-2;4;-7;3938;-589;128;0.4182825;-0.6247321;-0.4182825;-0.5096953;-12;-6;-4;-383;3879;1304;4;-0.02631579;-0.03047091;-0.7229267;-0.6897507;-3;-9;0;317;4078;236;16;0.4944598;-0.6329519;0.4085872;0.433518;-3;-3;2;387;4062;798;2;0.702216;-0.7091061;0.04293629;-0.04709141;4;-11;1;-781;4032;-147;8;0.4155124;-0.4376731;0.5304709;0.5953085;-2;-9;3;-121;4087;251;0.5681049;2.81788;-0.04460281;0.5740855;3.362871;-0.02070415;0.5793435;3.842006;-0.001718044;0.5727473;4.571443;0.07790661;0.3110939;4.897448;0.07538569;-0.02887501;4.74812;0.1229412;-0.4397933;4.04491;-0.3186138;-0.553903;3.508385;-1.091218;0.8314164;4.902155;0.07538491;1.121647;4.758529;0.1229403;1.543439;3.988264;-0.2733665;1.804379;3.48207;-1.030642;0.2558545;2.77618;-0.05424353;0.1970833;1.31957;-0.1795036;0;0;0;0.2558545;2.77618;-0.05424353;0.1970833;1.31957;-0.1795036;0;0;0
1031332.9579;NotLabelled;NONE;16384;-0.2742382;-0.05955679;-0.8658781;-0.4141274;-87;-11;91;1198;3298;2907;65536;0.601108;-0.07202215;0.7598604;0.2368421;149;-11;-52;-796;3380;-4865;8192;0.8414056;-0.4722992;0.2451524;-0.09418282;-93;-7;-103;-2112;4139;2841;32768;0.7761005;-0.2880886;0.5609418;0.004155125;127;-71;87;1827;3153;-5106;256;0.4847645;-0.5545687;-0.4445983;-0.5096953;28;-1;3;103;3940;-615;128;0.4168975;-0.6275003;-0.4155124;-0.5096953;-16;-7;-2;-519;3873;1350;4;-0.02493075;-0.03185596;-0.7242351;-0.6883656;-3;-9;-3;559;4024;318;16;0.4930748;-0.6330822;0.4085872;0.434903;-2;-5;1;417;3964;716;2;0.702216;-0.709021;0.04432133;-0.04709141;5;-13;2;-749;4046;-93;8;0.4141274;-0.4376731;0.5318559;0.5950378;-4;-8;3;-59;4123;329;0.5686822;2.81806;-0.04672378;0.5746614;3.362926;-0.02014112;0.5799182;3.841962;0.001204729;0.5744527;4.570534;0.08847511;0.3133018;4.896949;0.08939788;-0.02689304;4.747654;0.1354171;-0.4477032;4.087955;-0.3606117;-0.5429384;3.623335;-1.18089;0.833631;4.900856;0.08939713;1.123644;4.756291;0.1354162;1.559741;4.007331;-0.2854781;1.82214;3.53957;-1.06659;0.2564324;2.776408;-0.05658676;0.1974718;1.31957;-0.1790762;0;0;0;0.2564324;2.776408;-0.05658676;0.1974718;1.31957;-0.1790762;0;0;0
1031353.7389;NotLabelled;NONE;16384;-0.2853186;-0.07063711;-0.8673357;-0.4016621;-88;-15;94;1298;3198;2977;65536;0.6108033;-0.05540166;0.7581164;0.2216066;151;-21;-50;-326;3110;-4827;8192;0.8470874;-0.4418283;0.2714681;-0.1163435;-107;-12;-119;-2476;3819;2507;32768;0.776418;-0.2423823;0.5817174;-0.005540166;139;-69;58;1169;3103;-5032;256;0.4819945;-0.5566403;-0.4418283;-0.5124654;34;-3;3;19;3910;-627;128;0.4141274;-0.631152;-0.4127424;-0.5096953;-18;-8;-2;-489;3805;1364;4;-0.02493075;-0.033241;-0.7241728;-0.6883656;-2;-8;-4;641;3988;320;16;0.4916897;-0.6341585;0.4085872;0.434903;-2;-3;1;331;4032;762;2;0.700831;-0.7103927;0.04570637;-0.04570637;4;-12;3;-677;4082;-45;8;0.4113573;-0.4376731;0.5318559;0.5969561;-4;-5;2;-155;4141;301;0.5753686;2.817051;-0.0495306;0.5813456;3.361708;-0.01895916;0.5866005;3.840575;0.005893469;0.5858507;4.56769;0.1047158;0.326814;4.895729;0.1108724;-0.01433342;4.747923;0.1545871;-0.4393049;4.109497;-0.3651634;-0.524413;3.686346;-1.208667;0.8471576;4.896275;0.1108259;1.136235;4.749128;0.1544849;1.591601;4.022182;-0.2842253;1.854812;3.594001;-1.08745;0.2631195;2.775472;-0.05972326;0.198622;1.318906;-0.1826577;0;0;0;0.2631195;2.775472;-0.05972326;0.198622;1.318906;-0.1826577;0;0;0
1031374.9826;NotLabelled;NONE;16384;-0.2963989;-0.08171745;-0.8677073;-0.3905817;-92;-17;96;1380;2982;3023;65536;0.6177285;-0.03462604;0.7576607;0.2077562;150;-54;-50;-192;3016;-4549;8192;0.8503422;-0.4238227;0.2853186;-0.1260388;-112;-28;-118;-2286;3713;2547;32768;0.7776956;-0.2202216;0.5886427;-0.01385042;143;-51;47;1203;3015;-4706;256;0.4792244;-0.5599372;-0.4390582;-0.5138504;37;-3;3;-35;3928;-669;128;0.4127424;-0.632961;-0.4113573;-0.5096953;-19;-10;-3;-473;3783;1552;4;-0.02493075;-0.033241;-0.7241728;-0.6883656;-1;-5;-4;681;3992;350;16;0.4916897;-0.633264;0.4099723;0.434903;-2;-3;0;455;3958;656;2;0.700831;-0.7104805;0.04570637;-0.04432133;3;-10;4;-661;4064;-139;8;0.4113573;-0.4376731;0.5318559;0.5969561;-5;-5;2;-61;4035;303;0.5789868;2.815786;-0.04895374;0.58496;3.360117;-0.01304412;0.5902121;3.838717;0.01650208;0.5886644;4.564768;0.1228583;0.3292705;4.892443;0.132396;-0.01171877;4.743821;0.1745492;-0.4432487;4.135192;-0.3747064;-0.5181496;3.752626;-1.238321;0.8496131;4.893556;0.1323956;1.138848;4.746279;0.174549;1.625569;4.083279;-0.3272548;1.892219;3.732697;-1.16617;0.2667388;2.77431;-0.05958728;0.2023943;1.31797;-0.1852543;0;0;0;0.2667388;2.77431;-0.05958728;0.2023943;1.31797;-0.1852543;0;0;0
1031395.9051;NotLabelled;NONE;16384;-0.3074792;-0.09418282;-0.8687115;-0.3767313;-95;-19;100;1538;2988;3093;65536;0.6246537;-0.01385042;0.7559612;0.1952908;157;-38;-55;-1656;3144;-4855;8192;0.8532598;-0.4044321;0.300554;-0.134349;-119;-45;-119;-2274;3779;2807;32768;0.7792075;-0.1980609;0.5941828;-0.0235457;148;-42;42;1991;3005;-4856;256;0.4750692;-0.5641559;-0.434903;-0.5166205;39;-7;3;-5;3916;-831;128;0.4113573;-0.634538;-0.4085872;-0.5110803;-19;-9;-3;-405;3845;1538;4;-0.02493075;-0.033241;-0.7241728;-0.6883656;0;-2;-4;643;3958;266;16;0.4903047;-0.6343369;0.4099723;0.434903;-3;-3;0;427;3912;682;2;0.700831;-0.7105655;0.04570637;-0.04293629;4;-8;5;-553;4038;-111;8;0.4099723;-0.4376731;0.5318559;0.5979082;-5;-9;3;-43;4107;295;0.5788555;2.816171;-0.04533428;0.5848268;3.360321;-0.006762862;0.5900772;3.83877;0.02512366;0.5894976;4.563685;0.1389686;0.3305382;4.891588;0.1519088;-0.01064474;4.74299;0.1925531;-0.4421679;4.156618;-0.3804083;-0.5088731;3.817722;-1.262733;0.8508818;4.892012;0.1518781;1.139924;4.743925;0.1924858;1.646315;4.113398;-0.3312297;1.919967;3.804231;-1.184059;0.2666081;2.774747;-0.05618711;0.2025133;1.318408;-0.1819816;0;0;0;0.2666081;2.774747;-0.05618711;0.2025133;1.318408;-0.1819816;0;0;0
1031416.7595;NotLabelled;NONE;16384;-0.3310249;-0.1204986;-0.868378;-0.3490305;-106;-20;103;1478;2860;3249;65536;0.6426592;0.02216066;0.7487889;0.1606648;160;-2;-71;-2118;2738;-4261;8192;0.8553761;-0.3850415;0.3157895;-0.1426593;-122;-29;-121;-2216;3377;2491;32768;0.7809903;-0.1759003;0.5983379;-0.033241;153;-53;47;2923;3087;-4744;256;0.4722992;-0.5683837;-0.4307479;-0.5180055;41;-7;1;-5;3950;-927;128;0.4099723;-0.6372064;-0.4058172;-0.5110803;-19;-9;-2;-375;3823;1516;4;-0.02493075;-0.03185596;-0.7242351;-0.6883656;2;1;-5;635;3954;224;16;0.4903047;-0.6343369;0.4099723;0.434903;-3;0;0;411;4016;618;2;0.700831;-0.7106478;0.04570637;-0.04155125;4;-7;7;-541;4086;-117;8;0.4085872;-0.4376731;0.533241;0.5976226;-5;-8;3;-75;4061;373;0.582838;2.815147;-0.04703307;0.5888062;3.359005;-0.004551172;0.5940538;3.837213;0.0307737;0.5939423;4.560289;0.1557674;0.3351969;4.888124;0.1737433;-0.006085544;4.739141;0.2120791;-0.4428139;4.185907;-0.3891947;-0.4998881;3.889675;-1.287408;0.8555407;4.888207;0.1737428;1.144484;4.739324;0.2120788;1.667069;4.149259;-0.3419998;1.948367;3.883246;-1.20681;0.2705914;2.773803;-0.058208;0.2067003;1.317462;-0.1841061;0;0;0;0.2705914;2.773803;-0.058208;0.2067003;1.317462;-0.1841061;0;0;0
1031437.7485;NotLabelled;NONE;16384;-0.3421052;-0.132964;-0.8682542;-0.333795;-112;-17;102;1686;2566;3441;65536;0.6523545;0.03878116;0.7436203;0.1412742;156;12;-75;-978;2714;-4477;8192;0.8572702;-0.365651;0.3282548;-0.1537396;-121;-9;-117;-1950;3071;2517;32768;0.7815452;-0.1509695;0.6038781;-0.04155125;161;-66;54;2243;3345;-5172;256;0.4653739;-0.5764736;-0.4224377;-0.5221606;45;-11;0;-69;3990;-1161;128;0.4072022;-0.6424652;-0.400277;-0.5110803;-15;-10;-2;-441;3831;1652;4;-0.02631579;-0.03047091;-0.7242457;-0.6883656;3;4;-6;485;4050;262;16;0.4903047;-0.63523;0.4085872;0.434903;-3;5;0;433;3956;694;2;0.699446;-0.7120906;0.04570637;-0.0401662;3;-8;7;-575;4094;-139;8;0.4058172;-0.4376731;0.533241;0.5995071;-5;-8;2;-67;4125;473;0.5833397;2.815291;-0.04832941;0.5893043;3.358828;-0.001913905;0.5945491;3.836768;0.03686982;0.5948145;4.558206;0.1709934;0.3362371;4.885919;0.1931324;-0.005118109;4.736636;0.2296092;-0.4413719;4.243716;-0.4223428;-0.472145;4.042654;-1.347775;0.856581;4.885738;0.1930916;1.145451;4.736235;0.2295195;1.686761;4.181198;-0.342489;1.978994;3.958493;-1.215867;0.271094;2.774029;-0.0598278;0.2074841;1.317462;-0.1832231;0;0;0;0.271094;2.774029;-0.0598278;0.2074841;1.317462;-0.1832231;0;0;0
1031457.7449;NotLabelled;NONE;16384;-0.3531856;-0.1454294;-0.8685547;-0.3157895;-118;-5;102;1866;2502;3491;65536;0.6606648;0.05540166;0.7384155;0.1232687;162;-4;-72;-332;2608;-4851;8192;0.8583872;-0.3476454;0.3393352;-0.1648199;-119;-9;-111;-1708;2849;2631;32768;0.7811229;-0.1246537;0.6094183;-0.05401662;175;-38;55;967;3239;-5150;256;0.4626039;-0.5802085;-0.4168975;-0.5249307;46;-13;0;111;4062;-1271;128;0.4058172;-0.6430994;-0.398892;-0.5124654;-14;-10;-1;-495;3981;1564;4;-0.02631579;-0.02908587;-0.7243026;-0.6883656;3;3;-6;415;4080;270;16;0.4903047;-0.63523;0.4085872;0.434903;-3;4;0;429;3964;786;2;0.699446;-0.7121781;0.04432133;-0.0401662;4;-10;8;-527;4004;-153;8;0.4044321;-0.4376731;0.533241;0.6004423;-5;-7;2;-69;4151;421;0.5837222;2.814677;-0.04893017;0.5896788;3.357489;0.005305827;0.5949169;3.834821;0.0509665;0.5956916;4.552267;0.2050259;0.3373441;4.87942;0.23625;-0.004114063;4.729423;0.268596;-0.4392412;4.266453;-0.4056833;-0.4512159;4.115243;-1.340984;0.8576878;4.878878;0.2361751;1.146454;4.728221;0.2684309;1.706629;4.209752;-0.319506;2.00741;4.033645;-1.200588;0.2714784;2.773585;-0.06107086;0.2087687;1.317019;-0.1849398;0;0;0;0.2714784;2.773585;-0.06107086;0.2087687;1.317019;-0.1849398;0;0;0
1031477.7367;NotLabelled;NONE;16384;-0.3628809;-0.1565097;-0.8689919;-0.2977839;-121;1;98;1846;2284;3167;65536;0.6689751;0.07479224;0.7319824;0.1052632;165;-22;-65;114;2362;-4629;8192;0.8603873;-0.3116343;0.3587258;-0.1842105;-123;-1;-100;-1608;2367;3013;32768;0.7786361;-0.07894737;0.6163435;-0.08725762;181;1;52;663;2563;-4064;256;0.4584487;-0.5861754;-0.4113573;-0.5263157;44;-13;0;125;4074;-1385;128;0.4058172;-0.6448094;-0.3961219;-0.5124654;-12;-9;-1;-423;3923;1670;4;-0.02631579;-0.02770083;-0.7230381;-0.6897507;3;1;-6;279;3986;204;16;0.4903047;-0.6361187;0.4072022;0.434903;-3;4;0;419;3926;802;2;0.6980609;-0.7137575;0.04432133;-0.03601108;4;-9;8;-479;4068;-65;8;0.4030471;-0.4376731;0.533241;0.6013729;-4;-4;2;-15;4117;421;0.5842215;2.81484;-0.05051285;0.5901753;3.357388;0.006304801;0.5954109;3.834497;0.05423564;0.5940663;4.549584;0.2188925;0.3347557;4.875479;0.2549281;-0.006261384;4.724016;0.2850183;-0.4453579;4.3071;-0.4161983;-0.4415907;4.203898;-1.358075;0.8550986;4.876468;0.2548959;1.144306;4.726201;0.2849473;1.718297;4.252801;-0.3271816;2.02412;4.1306;-1.215623;0.2719783;2.773806;-0.062865;0.2094326;1.317019;-0.1841874;0;0;0;0.2719783;2.773806;-0.062865;0.2094326;1.317019;-0.1841874;0;0;0
1031498.8388;NotLabelled;NONE;16384;-0.3739612;-0.166205;-0.86803;-0.2811634;-121;4;94;1856;2010;3187;65536;0.6745152;0.09556787;0.7266626;0.08864266;169;-29;-57;-148;2102;-4537;8192;0.8612431;-0.2922437;0.367036;-0.1952908;-130;-3;-96;-1850;2197;3029;32768;0.777054;-0.0567867;0.6177285;-0.1066482;183;11;53;843;2459;-3956;256;0.4542936;-0.5898066;-0.4072022;-0.5290859;43;-10;0;113;4120;-1317;128;0.4044321;-0.6476221;-0.3947368;-0.5110803;-8;-8;-2;-499;3985;1712;4;-0.02631579;-0.02493075;-0.723139;-0.6897507;3;0;-7;209;4026;172;16;0.4903047;-0.6361187;0.4072022;0.434903;-2;2;0;471;3964;788;2;0.6980609;-0.713826;0.04432133;-0.03462604;4;-9;9;-387;4062;-69;8;0.4016621;-0.4376731;0.533241;0.6022989;-5;-7;1;27;4117;451;0.5796655;2.814824;-0.05480072;0.5856163;3.357101;0.004541755;0.5908495;3.833983;0.05469286;0.5906296;4.546114;0.2317004;0.3318319;4.871744;0.2733768;-0.009423142;4.720319;0.3008493;-0.4477256;4.342167;-0.4224908;-0.4243647;4.290899;-1.368336;0.8521758;4.871914;0.273349;1.141146;4.720695;0.3007888;1.744279;4.325001;-0.3379067;2.058064;4.310363;-1.231838;0.267423;2.773848;-0.06735973;0.210899;1.316571;-0.1857148;0;0;0;0.267423;2.773848;-0.06735973;0.210899;1.316571;-0.1857148;0;0;0
1031519.7526;NotLabelled;NONE;16384;-0.3905817;-0.1869806;-0.8677913;-0.2437673;-124;-8;85;1636;1538;3493;65536;0.6828254;0.134349;0.7159821;0.05540166;166;-12;-47;-292;1558;-3965;8192;0.8623716;-0.2728532;0.3739612;-0.2049861;-131;-1;-87;-1722;1905;2941;32768;0.7745714;-0.03462604;0.6191136;-0.1246537;183;5;56;953;2135;-3924;256;0.4515235;-0.5922911;-0.4030471;-0.5318559;40;-12;-1;31;4118;-1425;128;0.4044321;-0.6484643;-0.3933518;-0.5110803;-5;-7;-2;-485;3933;1698;4;-0.02493075;-0.0235457;-0.7232345;-0.6897507;2;-1;-9;81;4042;206;16;0.4903047;-0.6361187;0.4072022;0.434903;-2;0;-1;393;3922;822;2;0.6980609;-0.7139765;0.04293629;-0.033241;4;-8;8;-475;4132;-61;8;0.400277;-0.4376731;0.533241;0.6032202;-3;-6;1;-123;4049;511;0.5803388;2.815179;-0.05986327;0.5862863;3.357159;0.002130091;0.5915168;3.83379;0.05461246;0.5912479;4.543214;0.2421775;0.3324298;4.868174;0.2886734;-0.008818002;4.716339;0.3138776;-0.4516295;4.378729;-0.4265726;-0.4191403;4.37875;-1.373537;0.8527736;4.868374;0.288673;1.141751;4.71678;0.3138773;1.754084;4.366465;-0.3423254;2.071072;4.407624;-1.234296;0.268097;2.774265;-0.0726392;0.2110869;1.316571;-0.1855011;0;0;0;0.268097;2.774265;-0.0726392;0.2110869;1.316571;-0.1855011;0;0;0
1031540.7423;NotLabelled;NONE;16384;-0.3975069;-0.1980609;-0.8670592;-0.2257618;-129;-19;78;1534;1432;3647;65536;0.6842105;0.1495845;0.712648;0.0401662;163;-10;-44;-174;1318;-3789;8192;0.8635087;-0.2534626;0.3795014;-0.2146814;-135;-5;-79;-1720;1649;3181;32768;0.7714794;-0.01523546;0.6204986;-0.1398892;182;-3;55;811;1747;-3966;256;0.4459834;-0.5992206;-0.3933518;-0.536011;38;-6;-2;67;4106;-1561;128;0.4044321;-0.6484643;-0.3933518;-0.5110803;2;0;-1;-447;3981;1678;4;-0.02493075;-0.02216066;-0.7232782;-0.6897507;2;-2;-10;79;4072;160;16;0.4903047;-0.6370032;0.4058172;0.434903;0;2;-1;345;3942;784;2;0.6980609;-0.7140396;0.04293629;-0.03185596;3;-9;9;-369;4080;-53;8;0.398892;-0.4362881;0.534626;0.6039147;-3;-7;2;-37;4089;497;0.5812331;2.815544;-0.06519216;0.587179;3.35738;-0.001946032;0.592408;3.833888;0.05163813;0.5903941;4.540973;0.2478273;0.3307762;4.864702;0.2982776;-0.01009486;4.71173;0.3216325;-0.4623911;4.454512;-0.4449156;-0.4173294;4.553117;-1.386214;0.8511178;4.866188;0.2982775;1.14047;4.715012;0.321633;1.765732;4.405815;-0.3429857;2.083623;4.501174;-1.230476;0.2689916;2.77466;-0.07807073;0.2112469;1.316571;-0.1853191;0;0;0;0.2689916;2.77466;-0.07807073;0.2112469;1.316571;-0.1853191;0;0;0
1031581.7504;NotLabelled;NONE;16384;-0.4058172;-0.2216066;-0.8667417;-0.1869806;-142;-14;63;1820;798;3473;65536;0.6869806;0.1828255;0.7032793;0.005540166;155;-4;-39;-376;776;-3121;8192;0.8673391;-0.1897507;0.3919668;-0.2409972;-149;-7;-56;-2054;1081;3271;32768;0.7600119;0.04709141;0.6218836;-0.1828255;163;-12;38;455;361;-2804;256;0.4404432;-0.6053091;-0.3864266;-0.5387812;26;-4;-2;29;4136;-1653;128;0.4044321;-0.6487128;-0.3947368;-0.5096953;8;2;-3;-385;4151;1612;4;-0.02077562;-0.0166205;-0.7222351;-0.6911357;1;2;-14;113;4004;178;16;0.4903047;-0.6378835;0.4044321;0.434903;2;2;0;327;4036;960;2;0.6980609;-0.7143472;0.04155125;-0.02631579;0;-8;8;-175;4062;-29;8;0.3961219;-0.4362881;0.534626;0.6057353;-3;-8;1;-49;4071;395;0.5823989;2.815279;-0.06903082;0.5883449;3.357115;-0.00578469;0.593574;3.833623;0.04779941;0.5888768;4.535258;0.2626218;0.3280253;4.856539;0.3216367;-0.01225093;4.701692;0.3409634;-0.4639777;4.484286;-0.4381428;-0.4124685;4.623924;-1.373902;0.8483575;4.860026;0.3216361;1.138292;4.709399;0.3409629;1.780399;4.441095;-0.3253599;2.102074;4.583249;-1.205193;0.2701574;2.774395;-0.08190909;0.2127994;1.316116;-0.1867632;0;0;0;0.2701574;2.774395;-0.08190909;0.2127994;1.316116;-0.1867632;0;0;0
1031601.7393;NotLabelled;NONE;16384;-0.4085872;-0.232687;-0.8667694;-0.166205;-144;-2;54;1836;494;3265;65536;0.6883656;0.199446;0.6973378;-0.009695291;152;-1;-42;-654;570;-2987;8192;0.8689268;-0.16759;0.3933518;-0.2493075;-159;-14;-51;-2224;983;3397;32768;0.7564635;0.06786703;0.6204986;-0.1952908;148;-25;27;699;-137;-2536;256;0.4376731;-0.6078408;-0.3836565;-0.5401662;20;0;-2;23;4196;-1673;128;0.4058172;-0.6480899;-0.3961219;-0.5083103;14;4;-5;-423;4203;1578;4;-0.01939058;-0.01385042;-0.7223321;-0.6911357;2;2;-14;69;4068;214;16;0.4903047;-0.6378835;0.4044321;0.434903;4;3;0;257;4026;866;2;0.6980609;-0.714476;0.0401662;-0.02493075;0;-7;7;-249;4004;-83;8;0.3933518;-0.434903;0.536011;0.6073104;-4;-20;1;91;4093;337;0.5805495;2.816276;-0.09108421;0.5864969;3.358253;-0.02904892;0.5917274;3.834878;0.02347034;0.5869961;4.531701;0.2534258;0.3261232;4.851604;0.3194165;-0.01413576;4.696342;0.3354371;-0.4784231;4.562098;-0.4549709;-0.4203428;4.792657;-1.372176;0.8464551;4.85514;0.3194166;1.136407;4.704159;0.3354377;1.818585;4.565372;-0.3306295;2.133736;4.848592;-1.178128;0.2683077;2.775362;-0.1038636;0.2140539;1.315657;-0.1885607;0;0;0;0.2683077;2.775362;-0.1038636;0.2140539;1.315657;-0.1885607;0;0;0
1031622.8911;NotLabelled;NONE;16384;-0.4099723;-0.2423823;-0.8671931;-0.1454294;-147;9;41;1776;210;3085;65536;0.6883656;0.2146814;0.692313;-0.02770083;151;0;-47;-786;242;-2777;8192;0.8707231;-0.1440443;0.3933518;-0.2576177;-171;-17;-48;-2428;689;3405;32768;0.7543875;0.08864266;0.6177285;-0.2036011;134;-44;12;495;-661;-2624;256;0.4362881;-0.6084763;-0.3822715;-0.5415512;15;4;-2;-57;4236;-1689;128;0.4058172;-0.6483268;-0.3975069;-0.5069252;16;6;-6;-529;4153;1610;4;-0.01800554;-0.01246537;-0.7210655;-0.6925207;3;0;-13;-7;4130;174;16;0.4916897;-0.6377601;0.4044321;0.433518;4;0;0;351;4002;822;2;0.6980609;-0.7145231;0.0401662;-0.0235457;1;-14;7;-325;3926;-105;8;0.3905817;-0.433518;0.5373961;0.6088625;-4;-32;0;123;4051;411;0.5818857;2.816757;-0.09938982;0.5878364;3.359021;-0.03992432;0.5930694;3.835891;0.01033509;0.5886047;4.530468;0.2469907;0.3278517;4.849815;0.3160763;-0.01246245;4.694529;0.3306233;-0.4852057;4.603164;-0.4608914;-0.4236452;4.876082;-1.366167;0.8481849;4.853163;0.3160762;1.138083;4.70193;0.3306234;1.833798;4.606583;-0.3290461;2.146957;4.933447;-1.161439;0.2696432;2.775783;-0.1119589;0.2142963;1.315657;-0.1882851;0;0;0;0.2696432;2.775783;-0.1119589;0.2142963;1.315657;-0.1882851;0;0;0
1031644.7615;NotLabelled;NONE;16384;-0.4072022;-0.2576177;-0.870074;-0.1038781;-141;11;16;1492;-576;2809;65536;0.6930829;0.2465374;0.6745152;-0.06232687;147;-1;-61;-1150;-388;-1969;8192;0.8715676;-0.1191136;0.3933518;-0.267313;-167;-17;-50;-2526;431;2935;32768;0.7544753;0.1080332;0.6121883;-0.2105263;124;-57;-5;663;-1009;-2532;256;0.434903;-0.6082336;-0.3822715;-0.5429363;4;9;-3;-113;4186;-1615;128;0.4072022;-0.6468337;-0.400277;-0.5055401;22;8;-5;-569;4185;1538;4;-0.0166205;-0.009695291;-0.7211413;-0.6925207;3;-1;-14;-17;4112;146;16;0.4916897;-0.6377601;0.4044321;0.433518;5;-1;0;371;4014;734;2;0.6980609;-0.7145298;0.04155125;-0.02077562;2;-29;4;-325;4064;-67;8;0.3878116;-0.4307479;0.5401662;0.6101466;-4;-32;0;63;4093;481;0.576158;2.817982;-0.1021418;0.5821101;3.360378;-0.04389298;0.5873444;3.837359;0.005296409;0.5822558;4.530787;0.2452868;0.3212148;4.849561;0.3159139;-0.01895743;4.693898;0.329725;-0.5026621;4.643745;-0.4588454;-0.4423481;4.960068;-1.349968;0.8415446;4.853383;0.3159141;1.131581;4.702345;0.3297255;1.840006;4.652201;-0.3213459;2.150893;5.017204;-1.138603;0.2639153;2.776981;-0.1146113;0.2132214;1.316364;-0.1845241;0;0;0;0.2639153;2.776981;-0.1146113;0.2132214;1.316364;-0.1845241;0;0;0
1031665.7455;NotLabelled;NONE;16384;-0.4030471;-0.265928;-0.8716061;-0.08448754;-133;-1;7;1596;-800;2621;65536;0.6943604;0.2603878;0.666205;-0.07894737;143;3;-66;-896;-654;-1557;8192;0.8720297;-0.09418282;0.3933518;-0.2756233;-163;-21;-51;-2636;93;2841;32768;0.7558648;0.1274238;0.6052631;-0.2146814;116;-62;-22;883;-1241;-2456;256;0.433518;-0.6071113;-0.3836565;-0.5443213;-9;16;-2;-21;4146;-1541;128;0.4085872;-0.641826;-0.4085872;-0.5041551;30;21;-3;-599;4069;1244;4;-0.01385042;-0.005540166;-0.7212437;-0.6925207;1;0;-13;171;4222;228;16;0.4930748;-0.6358081;0.4058172;0.433518;4;1;0;563;4004;708;2;0.6980609;-0.7144385;0.04432133;-0.01800554;0;-34;0;-55;4308;-93;8;0.3850415;-0.4293629;0.5401662;0.6128711;-3;-19;0;-9;4125;579;0.5769588;2.818408;-0.1117103;0.5829154;3.361204;-0.05730712;0.5881533;3.838522;-0.01149946;0.5831455;4.531334;0.2302618;0.3221408;4.849956;0.3017081;-0.01804823;4.694294;0.3151281;-0.5295917;4.720603;-0.4568564;-0.4579858;5.124014;-1.311215;0.8424711;4.85372;0.3017081;1.132491;4.702616;0.315128;1.850478;4.701448;-0.3273418;2.162562;5.100088;-1.128265;0.2647151;2.77732;-0.1238646;0.212662;1.316364;-0.1851681;0;0;0;0.2647151;2.77732;-0.1238646;0.212662;1.316364;-0.1851681;0;0;0
1031686.7561;NotLabelled;NONE;16384;-0.3975069;-0.2756233;-0.8725905;-0.06786703;-126;-10;2;1786;-558;2599;65536;0.6956246;0.2756233;0.6565097;-0.09556787;136;-5;-58;-300;-1330;-1513;8192;0.8707297;-0.04709141;0.3947368;-0.2894737;-147;-24;-49;-2258;-627;2323;32768;0.761487;0.1648199;0.5858725;-0.2229917;119;-54;-33;1001;-601;-2608;256;0.433518;-0.6041037;-0.3864266;-0.5457063;-12;19;-1;-13;4118;-1379;128;0.4099723;-0.6384696;-0.4141274;-0.5027701;26;23;-3;-469;4081;1110;4;-0.01385042;-0.004155125;-0.721253;-0.6925207;1;5;-12;261;4214;256;16;0.4930748;-0.6367502;0.4058172;0.432133;3;3;-1;497;4020;692;2;0.6980609;-0.7143257;0.04709141;-0.01523546;-1;-19;-3;175;4406;-303;8;0.3836565;-0.4293629;0.5415512;0.6125173;-2;-4;-1;-25;4159;657;0.5739285;2.820462;-0.1227096;0.5798941;3.364083;-0.07730013;0.5851395;3.842094;-0.03940102;0.5808443;4.53484;0.2025656;0.3201786;4.853733;0.2740335;-0.02018945;4.698451;0.2873111;-0.5534199;4.772539;-0.4666816;-0.480399;5.214775;-1.301482;0.8405128;4.856912;0.274181;1.130358;4.705477;0.2876377;1.851398;4.762879;-0.3488222;2.164913;5.191584;-1.133494;0.2616826;2.779177;-0.1341254;0.2074689;1.317768;-0.1810317;0;0;0;0.2616826;2.779177;-0.1341254;0.2074689;1.317768;-0.1810317;0;0;0
1031707.7386;NotLabelled;NONE;16384;-0.3919668;-0.2853186;-0.8731146;-0.05124654;-127;-15;4;2110;-212;2553;65536;0.6955323;0.2894737;0.6481994;-0.1108033;130;-5;-44;-344;-1522;-1631;8192;0.8698248;-0.0235457;0.3947368;-0.2950138;-139;-27;-42;-1728;-913;2127;32768;0.7634608;0.1814404;0.5761772;-0.2285319;125;-39;-28;973;-701;-2454;256;0.433518;-0.6023228;-0.3891967;-0.5457063;-12;15;-1;-45;3922;-1259;128;0.4113573;-0.6359543;-0.4182825;-0.501385;27;17;-2;-363;3889;1098;4;-0.01385042;-0.001385042;-0.7212637;-0.6925207;0;12;-11;293;4170;330;16;0.4944598;-0.6356753;0.4058172;0.432133;3;6;-1;417;3994;658;2;0.6980609;-0.7145029;0.04432133;-0.01523546;-3;16;-1;405;4196;-387;8;0.3836565;-0.4293629;0.5401662;0.6137391;0;3;-2;-3;4019;587;0.576273;2.820407;-0.126416;0.5822441;3.364533;-0.08751649;0.5874943;3.842963;-0.05534139;0.5831487;4.536794;0.1834958;0.3224497;4.855966;0.25359;-0.01788975;4.700691;0.2676557;-0.5677772;4.793377;-0.4721836;-0.4946783;5.27555;-1.284564;0.8427832;4.859227;0.2535899;1.132657;4.707902;0.2676558;1.860439;4.84536;-0.3485532;2.186741;5.330727;-1.094028;0.2640257;2.77899;-0.1372959;0.2091597;1.317505;-0.1809971;0;0;0;0.2640257;2.77899;-0.1372959;0.2091597;1.317505;-0.1809971;0;0;0
1031727.7636;NotLabelled;NONE;16384;-0.3878116;-0.2950138;-0.8725091;-0.03601108;-120;-19;8;2460;-386;2455;65536;0.6945539;0.301939;0.6412742;-0.1232687;122;-5;-29;-350;-1860;-1551;8192;0.8688639;-0.004155125;0.3933518;-0.300554;-128;-21;-34;-1278;-1261;2239;32768;0.7626625;0.199446;0.567867;-0.2368421;127;-31;-19;925;-953;-2136;256;0.433518;-0.6005238;-0.3919668;-0.5457063;-10;12;-1;-109;3868;-1221;128;0.4127424;-0.6323;-0.4224377;-0.501385;23;14;-2;-409;3825;1062;4;-0.01523546;0;-0.7212371;-0.6925207;0;16;-9;277;4058;258;16;0.4958449;-0.6364187;0.4044321;0.4307479;3;8;-1;405;3940;652;2;0.6980609;-0.7147177;0.0401662;-0.0166205;-4;20;1;239;4086;-67;8;0.3836565;-0.4293629;0.5401662;0.6137391;1;7;-2;-29;4043;627;0.5723248;2.821588;-0.1311585;0.5782996;3.366063;-0.09751064;0.583553;3.844781;-0.06995302;0.5805284;4.539698;0.1657282;0.3204441;4.859695;0.2343253;-0.02020156;4.705153;0.2490367;-0.5894665;4.835844;-0.47012;-0.5163026;5.353436;-1.2604;0.8407831;4.861937;0.2344019;1.130357;4.710109;0.2492065;1.85507;4.897183;-0.35748;2.186541;5.409165;-1.082593;0.2600763;2.780067;-0.1416052;0.2044579;1.318449;-0.1794929;0;0;0;0.2600763;2.780067;-0.1416052;0.2044579;1.318449;-0.1794929;0;0;0
1031748.7566;NotLabelled;NONE;16384;-0.3808864;-0.3130194;-0.869998;-0.006925208;-105;-11;15;2482;-912;2593;65536;0.6858977;0.3282548;0.632964;-0.1454294;109;-10;-5;-148;-2098;-1875;8192;0.8679416;0.01385042;0.3919668;-0.3047091;-127;-17;-27;-1112;-1213;2499;32768;0.7606313;0.2160665;0.5609418;-0.2451524;129;-24;-11;511;-1069;-1992;256;0.433518;-0.5996175;-0.3933518;-0.5457063;-11;8;-1;-39;3678;-1291;128;0.4141274;-0.629696;-0.4265928;-0.5;23;9;-3;-415;3775;912;4;-0.0166205;0.002770083;-0.7212012;-0.6925207;-1;20;-7;181;3966;208;16;0.4958449;-0.6364187;0.4044321;0.4307479;3;9;-1;329;4054;680;2;0.6980609;-0.7148693;0.03601108;-0.01939058;-5;24;3;21;4086;89;8;0.3864266;-0.4293629;0.5387812;0.6132185;2;13;-3;-25;4073;609;0.5709709;2.821933;-0.1315427;0.5769491;3.366712;-0.1032249;0.5822052;3.845677;-0.08035368;0.5805516;4.541667;0.1521506;0.3210938;4.862474;0.2193183;-0.01984697;4.708659;0.2347791;-0.5993718;4.861847;-0.4716299;-0.5287734;5.409005;-1.241975;0.8414361;4.863714;0.2193183;1.130719;4.711397;0.2347794;1.856977;4.928587;-0.3599073;2.187867;5.471663;-1.062309;0.2587214;2.780313;-0.1415491;0.2030617;1.318691;-0.1792896;0;0;0;0.2587214;2.780313;-0.1415491;0.2030617;1.318691;-0.1792896;0;0;0
1031791.7532;NotLabelled;NONE;16384;-0.3739612;-0.3254848;-0.8682057;0.02077562;-95;0;14;2128;-1182;2691;65536;0.6747882;0.3531856;0.6274238;-0.1620499;101;-12;10;-422;-2292;-1601;8192;0.8640129;0.06648199;0.3795014;-0.3240997;-121;-10;-1;-1272;-1541;2559;32768;0.7503475;0.2631579;0.5415512;-0.2728532;121;-12;-1;-55;-1471;-2004;256;0.4362881;-0.5970381;-0.3961219;-0.5443213;-8;1;1;-87;3804;-1265;128;0.4210526;-0.6258227;-0.433518;-0.4930748;25;13;-4;-735;4255;1416;4;-0.02216066;0.01246537;-0.7209498;-0.6925207;1;18;-5;-63;4096;80;16;0.5;-0.6367908;0.4016621;0.4279778;2;8;-1;361;4000;632;2;0.699446;-0.7137132;0.02770083;-0.02493075;-6;31;3;-371;4158;13;8;0.3891967;-0.432133;0.5373961;0.6107311;3;16;-4;-9;4031;473;0.5707892;2.822091;-0.1352418;0.5767702;3.36712;-0.1122439;0.5820284;3.846285;-0.09404969;0.5810357;4.542808;0.1368576;0.3218827;4.864016;0.2032879;-0.01920426;4.710559;0.2190997;-0.6150435;4.919734;-0.4588017;-0.561355;5.520788;-1.189315;0.842226;4.864761;0.2032878;1.131364;4.712205;0.2190998;1.856987;4.96188;-0.3634877;2.185874;5.533871;-1.043522;0.2585385;2.780375;-0.144808;0.2026694;1.318692;-0.1797337;0;0;0;0.2585385;2.780375;-0.144808;0.2026694;1.318692;-0.1797337;0;0;0
1031812.7402;NotLabelled;NONE;16384;-0.3711911;-0.33241;-0.8663809;0.033241;-92;-1;11;2208;-1348;2661;65536;0.6693994;0.3642659;0.6246537;-0.1703601;100;-12;13;-270;-2238;-1997;8192;0.863421;0.08310249;0.3739612;-0.3282548;-115;-11;6;-1382;-1721;2623;32768;0.7457455;0.2783934;0.536011;-0.2811634;121;-14;1;-199;-1521;-1984;256;0.4362881;-0.5973786;-0.3975069;-0.5429363;-10;0;2;51;3908;-1165;128;0.4238227;-0.6221396;-0.4376731;-0.4916897;28;0;-4;-575;4075;902;4;-0.0235457;0.01523546;-0.7208526;-0.6925207;1;12;-4;-169;4144;68;16;0.5;-0.6367908;0.4016621;0.4279778;2;7;-1;287;4040;656;2;0.700831;-0.7123128;0.02077562;-0.03185596;-6;23;2;-629;4110;-7;8;0.3933518;-0.432133;0.536011;0.6092845;3;11;-3;-105;4147;383;0.5655203;2.823888;-0.1400499;0.5715057;3.369318;-0.1304222;0.5767672;3.848785;-0.1239819;0.5753967;4.547507;0.1001803;0.3160702;4.869203;0.1634984;-0.02493461;4.715724;0.1807884;-0.6335719;4.974116;-0.4681517;-0.60335;5.618377;-1.162278;0.8364131;4.870227;0.1634981;1.125632;4.717986;0.1807883;1.855636;5.062175;-0.3454276;2.17441;5.716342;-0.9522525;0.2532672;2.781951;-0.1485065;0.1972304;1.320104;-0.1753612;0;0;0;0.2532672;2.781951;-0.1485065;0.1972304;1.320104;-0.1753612;0;0;0
1031833.7696;NotLabelled;NONE;16384;-0.367036;-0.3365651;-0.8659789;0.04570637;-89;3;8;2144;-1476;2653;65536;0.6619514;0.3767313;0.6232687;-0.1772853;102;-15;13;-382;-2264;-2115;8192;0.8632554;0.09833795;0.365651;-0.333795;-110;-10;16;-1176;-1821;2501;32768;0.7412069;0.2936288;0.5304709;-0.2880886;120;-16;0;-203;-1865;-1638;256;0.4376731;-0.596699;-0.398892;-0.5415512;-14;0;1;165;4044;-1193;128;0.4265928;-0.6214532;-0.4390582;-0.4889196;30;-3;-4;-541;4041;808;4;-0.02493075;0.01800554;-0.7207422;-0.6925207;1;8;-3;-155;4168;50;16;0.501385;-0.6375029;0.400277;0.4265928;2;6;-1;291;3974;664;2;0.702216;-0.710857;0.01939058;-0.03462604;-6;16;0;-713;4128;-7;8;0.3947368;-0.432133;0.534626;0.6096056;2;9;-2;-153;4049;367;0.5657315;2.824035;-0.143081;0.5717177;3.369542;-0.140246;0.5769798;3.849052;-0.1397769;0.5777717;4.54829;0.08277202;0.3194469;4.870943;0.1453146;-0.02203918;4.718573;0.1629153;-0.6330456;5.007907;-0.4705561;-0.6124274;5.671604;-1.146483;0.8397905;4.870337;0.1453781;1.128529;4.71723;0.1630563;1.861129;5.094827;-0.335936;2.173826;5.773807;-0.9181676;0.2534773;2.781996;-0.1509722;0.1973951;1.320104;-0.1751759;0;0;0;0.2534773;2.781996;-0.1509722;0.1973951;1.320104;-0.1751759;0;0;0
1031875.7389;NotLabelled;NONE;16384;-0.3531856;-0.3462604;-0.8651345;0.08310249;-84;16;-10;1780;-2032;2301;65536;0.641198;0.4141274;0.6135734;-0.2022161;118;-26;4;-358;-1976;-1797;8192;0.8625796;0.1232687;0.3490305;-0.3448753;-102;-3;29;-1492;-1847;2491;32768;0.7346324;0.3254848;0.5138504;-0.300554;123;-57;-10;-221;-1975;-1964;256;0.4404432;-0.5943717;-0.4030471;-0.5387812;-23;6;1;195;3962;-1205;128;0.4307479;-0.6178932;-0.4445983;-0.4847645;26;-1;-2;-409;4087;772;4;-0.02493075;0.02077562;-0.7206677;-0.6925207;-1;2;-2;-231;4084;90;16;0.5027701;-0.6364112;0.400277;0.4265928;3;3;0;299;4026;700;2;0.7036011;-0.7093077;0.01800554;-0.03878116;-3;1;0;-749;4072;-55;8;0.3961219;-0.432133;0.534626;0.6087065;0;0;-1;-165;4059;309;0.5652384;2.824379;-0.1448257;0.5712247;3.369893;-0.1460398;0.5764866;3.849393;-0.1491297;0.5778819;4.549702;0.07002395;0.3198304;4.872866;0.1310334;-0.02177828;4.720865;0.149417;-0.6383135;5.022544;-0.4728388;-0.6332583;5.704471;-1.130674;0.8401733;4.871833;0.1310332;1.128788;4.718577;0.1494172;1.865441;5.113933;-0.3294464;2.17092;5.815931;-0.8877205;0.2529836;2.782284;-0.1523792;0.1968562;1.320352;-0.1739144;0;0;0;0.2529836;2.782284;-0.1523792;0.1968562;1.320352;-0.1739144;0;0;0
1031918.7544;NotLabelled;NONE;16384;-0.3407202;-0.3531856;-0.8652542;0.1024931;-66;-5;-10;1522;-1842;2339;65536;0.6278105;0.4459834;0.599723;-0.2174515;113;-57;-11;-816;-2548;-457;8192;0.8629354;0.1551246;0.3171745;-0.3614958;-87;-3;47;-1566;-2085;2333;32768;0.7257922;0.3739612;0.4833795;-0.3157895;109;-30;-24;87;-2743;-720;256;0.4445983;-0.5870845;-0.4127424;-0.536011;-20;8;0;59;3742;-967;128;0.4376731;-0.6123012;-0.4515235;-0.4792244;25;5;0;-539;3795;954;4;-0.0235457;0.02077562;-0.7207143;-0.6925207;-1;-12;-3;-149;4078;24;16;0.5041551;-0.6362424;0.400277;0.4252077;4;-2;0;339;4052;728;2;0.7036011;-0.7092712;0.01939058;-0.03878116;-1;-8;-2;-571;4052;29;8;0.3961219;-0.4307479;0.536011;0.6084701;0;-6;0;-105;4129;483;0.5616795;2.825455;-0.1490087;0.5676647;3.370863;-0.1597613;0.5729252;3.850237;-0.1712353;0.5760989;4.553131;0.03946012;0.3188666;4.877657;0.09657544;-0.02312354;4.72675;0.1167983;-0.6541355;5.086027;-0.4585907;-0.6891686;5.824313;-1.051468;0.8392051;4.875311;0.09657538;1.127434;4.72156;0.1167984;1.871699;5.155081;-0.3149472;2.167153;5.900837;-0.8192718;0.2494234;2.783234;-0.1557652;0.1927502;1.321251;-0.1716681;0;0;0;0.2494234;2.783234;-0.1557652;0.1927502;1.321251;-0.1716681;0;0;0
1031938.7496;NotLabelled;NONE;16384;-0.33518;-0.3587258;-0.8641139;0.1108033;-62;-18;-12;1446;-1816;2295;65536;0.6245279;0.4612188;0.5900277;-0.2216066;104;-71;-19;-982;-2754;-521;8192;0.8628008;0.1648199;0.3060942;-0.367036;-89;3;48;-1632;-1963;2365;32768;0.7226016;0.3864266;0.4736842;-0.3227147;102;-19;-27;465;-2947;-988;256;0.4459834;-0.5850551;-0.4141274;-0.536011;-16;6;-1;13;3706;-907;128;0.4390582;-0.6103399;-0.4542936;-0.4778393;22;2;0;-587;3847;816;4;-0.02077562;0.02077562;-0.7207994;-0.6925207;-2;-14;-4;-7;4154;64;16;0.5041551;-0.6353689;0.4016621;0.4252077;4;-3;0;323;4052;694;2;0.7036011;-0.7092319;0.02077562;-0.03878116;-1;-8;-2;-127;4112;5;8;0.3961219;-0.4307479;0.536011;0.6084701;1;3;-1;-49;4137;551;0.5596496;2.826272;-0.15152;0.5656298;3.371236;-0.176038;0.5708854;3.850167;-0.19961;0.5765552;4.557919;-0.005915403;0.3204692;4.884624;0.04339042;-0.02204213;4.735446;0.06728129;-0.6709582;5.122214;-0.4690458;-0.7367023;5.899905;-1.006327;0.8407964;4.880459;0.04339033;1.12849;4.726234;0.0672816;1.885685;5.201933;-0.2913837;2.161957;6.005517;-0.7105675;0.2473917;2.783895;-0.1571221;0.1901209;1.321902;-0.1695726;0;0;0;0.2473917;2.783895;-0.1571221;0.1901209;1.321902;-0.1695726;0;0;0
1031959.7377;NotLabelled;NONE;16384;-0.3268698;-0.3725762;-0.8599346;0.1218837;-57;-39;-10;2106;-1904;2507;65536;0.6181042;0.4903047;0.5692521;-0.2313019;94;-50;-27;-1628;-3340;-665;8192;0.862059;0.1731302;0.2950138;-0.3739612;-86;18;45;-2116;-2127;2155;32768;0.719878;0.3961219;0.4639889;-0.3310249;98;0;-31;497;-3085;-1004;256;0.4473684;-0.583295;-0.4168975;-0.534626;-15;5;0;-19;3610;-903;128;0.4404432;-0.6093916;-0.4556787;-0.4764543;16;0;-1;-493;3797;650;4;-0.01939058;0.01939058;-0.7208766;-0.6925207;-1;-16;-4;33;4068;78;16;0.5041551;-0.6353689;0.4016621;0.4252077;4;-6;0;419;3932;658;2;0.7049862;-0.7079297;0.02077562;-0.03739612;-1;-2;0;-39;4096;-1;8;0.3961219;-0.4307479;0.536011;0.6084701;1;7;-1;-95;4097;503;0.5598897;2.826718;-0.1553556;0.5658677;3.371479;-0.1840358;0.5711213;3.850215;-0.2112656;0.5757075;4.558922;-0.0210644;0.3191204;4.885472;0.02663961;-0.02316009;4.735887;0.05127951;-0.6782649;5.135565;-0.4677804;-0.7516305;5.929165;-0.9802381;0.8394534;4.882108;0.02663964;1.127385;4.728446;0.0512799;1.88892;5.215818;-0.2815963;2.161485;6.034626;-0.6728132;0.2476314;2.7843;-0.1606078;0.1894932;1.322303;-0.1671389;0;0;0;0.2476314;2.7843;-0.1606078;0.1894932;1.322303;-0.1671389;0;0;0
1031979.741;NotLabelled;NONE;16384;-0.3227147;-0.3808864;-0.8572602;0.1260388;-55;-32;-6;2318;-1814;2693;65536;0.6141703;0.501385;0.5609418;-0.2382271;85;-29;-24;-1528;-3824;-385;8192;0.8602569;0.1800554;0.2853186;-0.3822715;-80;22;40;-2630;-1969;2055;32768;0.7160317;0.4044321;0.4556787;-0.3407202;92;18;-36;987;-3457;-830;256;0.4487534;-0.5812358;-0.4182825;-0.534626;-10;6;0;-67;3618;-795;128;0.4418283;-0.6084322;-0.4570637;-0.4750692;15;-1;-2;-391;3837;636;4;-0.01800554;0.01800554;-0.7209484;-0.6925207;-1;-14;-5;175;4018;192;16;0.5041551;-0.6344912;0.4030471;0.4252077;4;-6;0;341;3988;682;2;0.7049862;-0.707969;0.01939058;-0.03739612;-2;3;3;-95;4076;-21;8;0.3975069;-0.4307479;0.534626;0.6087853;2;5;-1;-91;4061;511;0.5597968;2.826738;-0.1560924;0.5657732;3.371345;-0.1875435;0.5710251;3.849937;-0.2172084;0.5767055;4.560009;-0.0321995;0.3206204;4.887292;0.01312545;-0.02188675;4.738413;0.03887578;-0.6853657;5.157767;-0.4533305;-0.7706123;5.98156;-0.9136505;0.8409477;4.883132;0.01312524;1.128645;4.729215;0.03887582;1.894914;5.226305;-0.2677341;2.167428;6.057722;-0.6314206;0.2475382;2.784293;-0.1611113;0.1892183;1.322302;-0.16745;0;0;0;0.2475382;2.784293;-0.1611113;0.1892183;1.322302;-0.16745;0;0;0
1032000.7483;NotLabelled;NONE;16384;-0.3199446;-0.3878116;-0.8543562;0.1315789;-51;-34;-1;2486;-1682;2823;65536;0.6080002;0.5124654;0.5540166;-0.2465374;74;-20;-17;-1314;-4134;-203;8192;0.8545998;0.1939058;0.2700831;-0.398892;-69;27;23;-2816;-2279;2163;32768;0.7047004;0.4155124;0.4404432;-0.3698061;85;47;-33;1551;-3711;-526;256;0.4487534;-0.5815097;-0.4196676;-0.533241;1;2;0;-49;3838;-739;128;0.4459834;-0.6054628;-0.4598338;-0.4722992;15;-1;-2;-459;3991;516;4;-0.0166205;0.01800554;-0.7223095;-0.6911357;-1;-1;-6;411;4058;266;16;0.5041551;-0.6336093;0.4044321;0.4252077;4;0;0;367;4024;640;2;0.7049862;-0.707931;0.01800554;-0.03878116;-2;6;4;-255;4068;13;8;0.3975069;-0.4307479;0.534626;0.6087853;2;3;-1;-127;4063;377;0.559356;2.827151;-0.1541236;0.5653305;3.371591;-0.1883512;0.5705807;3.850026;-0.220456;0.5751393;4.561014;-0.03896847;0.3185363;4.88811;0.004744112;-0.02373316;4.738817;0.03124544;-0.6924624;5.166275;-0.4466771;-0.7837803;6.003031;-0.8817615;0.8388696;4.884777;0.004743993;1.126812;4.731445;0.03124559;1.896562;5.237047;-0.2518243;2.16796;6.080014;-0.5887781;0.2470971;2.784682;-0.1589085;0.1886028;1.322697;-0.165013;0;0;0;0.2470971;2.784682;-0.1589085;0.1886028;1.322697;-0.165013;0;0;0
1032041.7565;NotLabelled;NONE;16384;-0.3171745;-0.3947368;-0.851341;0.1371191;-56;-33;5;2828;-1714;3079;65536;0.6036748;0.5207756;0.5484765;-0.2520775;67;-17;-11;-1318;-4010;-419;8192;0.8522216;0.199446;0.2631579;-0.4058172;-67;22;19;-3020;-2341;2083;32768;0.6991059;0.4196676;0.433518;-0.3836565;83;49;-30;1599;-3937;-554;256;0.4487534;-0.5815097;-0.4196676;-0.533241;7;1;0;-39;4022;-779;128;0.4473684;-0.603384;-0.4612188;-0.4722992;14;1;-1;-501;4133;446;4;-0.0166205;0.01800554;-0.7223095;-0.6911357;-1;5;-6;425;4058;260;16;0.5055401;-0.6325047;0.4044321;0.4252077;4;0;0;367;4026;662;2;0.7049862;-0.7079649;0.0166205;-0.03878116;-2;6;5;-365;4092;25;8;0.398892;-0.4307479;0.534626;0.6078787;2;0;-1;-93;4125;381;0.5651804;2.827355;-0.153993;0.5711496;3.371311;-0.1951996;0.5763949;3.849295;-0.2334372;0.5831497;4.560698;-0.05364841;0.3275573;4.888687;-0.01071337;-0.01517033;4.740514;0.01614974;-0.6851637;5.178221;-0.4505941;-0.7850212;6.027481;-0.8587399;0.8478779;4.883749;-0.01071352;1.135347;4.729595;0.01614988;1.908147;5.25358;-0.2215383;2.18363;6.117099;-0.4976372;0.2529209;2.784828;-0.1581891;0.18848;1.323086;-0.1620114;0;0;0;0.2529209;2.784828;-0.1581891;0.18848;1.323086;-0.1620114;0;0;0
1032062.5156;NotLabelled;NONE;16384;-0.3157895;-0.4016621;-0.8476986;0.1426593;-56;-31;12;2920;-1984;2721;65536;0.5991005;0.5290859;0.5429363;-0.2576177;61;-16;-8;-1004;-4068;-439;8192;0.8489333;0.2063712;0.2576177;-0.4127424;-63;19;9;-2862;-2601;2027;32768;0.6914438;0.4238227;0.4279778;-0.398892;80;43;-30;1507;-4057;-246;256;0.4487534;-0.5812358;-0.4182825;-0.534626;9;1;0;-79;4220;-803;128;0.4473684;-0.6034062;-0.4626039;-0.4709141;10;4;-1;-563;4177;478;4;-0.01800554;0.01939058;-0.7222404;-0.6911357;-1;10;-5;327;4054;154;16;0.5055401;-0.6334336;0.4044321;0.4238227;3;3;0;343;4034;568;2;0.7079473;-0.7049862;0.01385042;-0.0401662;-1;0;1;-399;4120;73;8;0.398892;-0.4307479;0.536011;0.6066577;1;0;0;-133;4065;379;0.5612079;2.828236;-0.1517654;0.5671747;3.37197;-0.1957967;0.5724177;3.849749;-0.2365162;0.5791724;4.561152;-0.05672762;0.3235801;4.889141;-0.01379254;-0.01914757;4.740968;0.01307053;-0.6905987;5.188766;-0.4418567;-0.7967382;6.046504;-0.8302093;0.8439005;4.884203;-0.01379275;1.13137;4.730049;0.0130707;1.905566;5.260479;-0.2049636;2.183732;6.131624;-0.4529924;0.2489481;2.785687;-0.1557228;0.1845071;1.323944;-0.159545;0;0;0;0.2489481;2.785687;-0.1557228;0.1845071;1.323944;-0.159545;0;0;0
1032082.9194;NotLabelled;NONE;16384;-0.3144044;-0.4127424;-0.8404155;0.1565097;-47;-24;20;2552;-2558;2227;65536;0.5879743;0.5429363;0.536011;-0.2686981;58;-15;4;-462;-3960;-497;8192;0.8457547;0.2132964;0.2534626;-0.4182825;-58;23;4;-2744;-2503;1949;32768;0.6858096;0.4279778;0.4210526;-0.4113573;76;37;-26;1629;-3847;-52;256;0.4473684;-0.5823026;-0.4182825;-0.534626;7;2;0;-19;4268;-797;128;0.4487534;-0.6013107;-0.4639889;-0.4709141;9;6;-2;-591;4375;424;4;-0.01939058;0.02077562;-0.7221661;-0.6911357;-1;13;-4;331;4096;130;16;0.5055401;-0.6334336;0.4044321;0.4238227;2;4;0;379;3968;452;2;0.7079473;-0.7049862;0.01385042;-0.0401662;-1;0;0;-385;4064;-13;8;0.398892;-0.4293629;0.536011;0.6076388;1;0;0;-145;4051;379;0.5640131;2.828008;-0.1503878;0.5699787;3.371628;-0.1958061;0.5752206;3.849302;-0.2377446;0.5797791;4.56029;-0.05625698;0.3231762;4.887386;-0.01254442;-0.01909334;4.738093;0.01395685;-0.6903963;5.196715;-0.4302813;-0.8034566;6.062428;-0.7984586;0.8435093;4.884053;-0.01254451;1.131452;4.730721;0.01395702;1.904212;5.270377;-0.1857657;2.182354;6.1492;-0.4050635;0.2517533;2.78545;-0.1542278;0.1874595;1.323701;-0.1581201;0;0;0;0.2517533;2.78545;-0.1542278;0.1874595;1.323701;-0.1581201;0;0;0
1032103.7399;NotLabelled;NONE;16384;-0.3144044;-0.4182825;-0.8363484;0.1634349;-42;-28;23;2408;-2434;2171;65536;0.5833805;0.5498615;0.5318559;-0.2728532;56;-16;10;-400;-3858;-335;8192;0.8420392;0.2202216;0.2506925;-0.4238227;-53;20;0;-2724;-2529;1977;32768;0.6789587;0.432133;0.4155124;-0.4238227;70;40;-19;1509;-3851;74;256;0.4473684;-0.5810279;-0.4182825;-0.536011;5;2;1;3;4236;-921;128;0.4487534;-0.599163;-0.466759;-0.4709141;6;7;-2;-507;4205;444;4;-0.02077562;0.0235457;-0.7220426;-0.6911357;-1;14;-2;289;4054;130;16;0.5069252;-0.6332519;0.4044321;0.4224377;1;5;0;347;4026;416;2;0.7079473;-0.7049862;0.01385042;-0.0401662;-1;1;-2;-307;4156;-53;8;0.398892;-0.4293629;0.536011;0.6076388;0;4;0;-131;4127;383;0.5638527;2.828034;-0.1505177;0.5698156;3.371411;-0.1987683;0.5750549;3.848859;-0.2431954;0.581297;4.559366;-0.05988285;0.3254701;4.886957;-0.01533476;-0.01715342;4.738409;0.01077768;-0.6839821;5.222114;-0.4131314;-0.8139048;6.099981;-0.7451949;0.845794;4.882389;-0.01533514;1.133371;4.728308;0.01077735;1.903408;5.277435;-0.1730039;2.183868;6.161847;-0.3652167;0.2515927;2.785456;-0.154118;0.1874597;1.323701;-0.15812;0;0;0;0.2515927;2.785456;-0.154118;0.1874597;1.323701;-0.15812;0;0;0
1032123.8959;NotLabelled;NONE;16384;-0.3157895;-0.4238227;-0.8319247;0.1689751;-38;-32;28;2268;-2430;2241;65536;0.5773414;0.5567867;0.5290859;-0.2770083;54;-14;15;-444;-3772;-253;8192;0.8360731;0.232687;0.2451524;-0.432133;-46;9;-1;-2530;-2675;1911;32768;0.6652945;0.4390582;0.4085872;-0.4445983;51;32;-12;1279;-4093;486;256;0.4459834;-0.5810939;-0.4196676;-0.536011;1;6;2;61;4172;-773;128;0.4487534;-0.5980815;-0.468144;-0.4709141;5;7;-1;-573;4159;432;4;-0.02493075;0.02493075;-0.7218645;-0.6911357;0;10;3;91;4064;76;16;0.5083103;-0.6330246;0.4030471;0.4224377;-1;5;0;359;3984;522;2;0.7078673;-0.7049862;0.01385042;-0.04155125;-1;6;-3;-245;4126;-39;8;0.398892;-0.4307479;0.536011;0.6066577;0;5;0;-75;4085;371;0.5625076;2.828661;-0.1501762;0.5684676;3.371777;-0.2012772;0.5737045;3.848986;-0.2482088;0.5783082;4.559506;-0.06489959;0.3217266;4.886507;-0.02035302;-0.02055337;4.737169;0.005760146;-0.6852661;5.233662;-0.4065284;-0.823384;6.116532;-0.7215851;0.8420596;4.883138;-0.02035338;1.129992;4.72972;0.005759835;1.895355;5.289054;-0.1663989;2.175281;6.178753;-0.3333275;0.2502474;2.786065;-0.1535351;0.1860625;1.324307;-0.1546586;0;0;0;0.2502474;2.786065;-0.1535351;0.1860625;1.324307;-0.1546586;0;0;0
1032144.7499;NotLabelled;NONE;16384;-0.3171745;-0.4293629;-0.8274009;0.1745152;-37;-35;28;2330;-2394;2183;65536;0.571878;0.5623268;0.5277008;-0.2797784;51;0;20;-640;-3694;-253;8192;0.8331575;0.2382271;0.2423823;-0.4362881;-45;9;-3;-2602;-2505;1817;32768;0.6594471;0.4432133;0.4044321;-0.4529086;41;23;-13;1059;-3883;328;256;0.4459834;-0.5790833;-0.4224377;-0.536011;-7;8;0;203;3872;-933;128;0.4473684;-0.5969433;-0.4709141;-0.4709141;3;9;0;-601;3901;516;4;-0.02631579;0.02631579;-0.7217662;-0.6911357;0;7;3;17;4092;126;16;0.5083103;-0.6339467;0.4030471;0.4210526;-2;3;0;321;4014;614;2;0.7078104;-0.7049862;0.01246537;-0.04293629;-1;9;-2;-283;4080;-63;8;0.400277;-0.4307479;0.534626;0.6069676;0;4;0;-73;4067;463;0.5573929;2.829172;-0.1453773;0.5633513;3.372151;-0.1979088;0.5685868;3.849235;-0.2460974;0.5754282;4.559707;-0.06267124;0.319878;4.887507;-0.01807109;-0.0228708;4.739244;0.00801713;-0.6839918;5.247259;-0.3959242;-0.8330213;6.134148;-0.6942781;0.8401977;4.8825;-0.01807147;1.127645;4.72817;0.008016706;1.885235;5.304546;-0.1407213;2.161058;6.202312;-0.2661238;0.2451325;2.786568;-0.1486149;0.1819358;1.324782;-0.155497;0;0;0;0.2451325;2.786568;-0.1486149;0.1819358;1.324782;-0.155497;0;0;0
1032165.8809;NotLabelled;NONE;16384;-0.3185596;-0.434903;-0.8227753;0.1800554;-36;-34;25;2202;-2542;2135;65536;-0.5609418;-0.569215;-0.5290859;0.2853186;44;23;26;-830;-3722;-191;8192;0.830898;0.2437673;0.2396122;-0.4390582;-40;4;-6;-2680;-2665;1673;32768;0.6554028;0.4445983;0.4016621;-0.4598338;32;22;-14;907;-3971;272;256;0.4459834;-0.5780703;-0.4238227;-0.536011;-7;14;-1;17;3948;-823;128;0.4473684;-0.595848;-0.4722992;-0.4709141;3;10;0;-529;3963;524;4;-0.02770083;0.02770083;-0.7216625;-0.6911357;0;6;2;-13;3954;156;16;0.5083103;-0.6339467;0.4030471;0.4210526;-1;1;0;325;4052;654;2;0.7077481;-0.7049862;0.01108033;-0.04432133;-1;8;-1;-335;4078;87;8;0.400277;-0.4307479;0.534626;0.6069676;1;7;0;-93;4135;479;0.5595281;2.828948;-0.1450147;0.565485;3.371784;-0.1990131;0.5707189;3.848736;-0.2484905;0.5786505;4.560071;-0.06848475;0.3236014;4.88847;-0.02545038;-0.01937103;4.740856;0.001366576;-0.6776922;5.260299;-0.3924863;-0.8379493;6.149471;-0.6779456;0.8439128;4.882671;-0.02545059;1.131127;4.728033;0.001366496;1.884782;5.311672;-0.1387836;2.158088;6.212634;-0.2453589;0.2472677;2.786335;-0.148128;0.1842547;1.324541;-0.1548178;0;0;0;0.2472677;2.786335;-0.148128;0.1842547;1.324541;-0.1548178;0;0;0
1032186.0098;NotLabelled;NONE;16384;-0.3199446;-0.4390582;-0.8187904;0.1855956;-33;-32;24;2028;-2418;2203;65536;-0.5526316;-0.5706607;-0.533241;0.2908587;35;48;29;-854;-3742;-153;8192;0.828917;0.2493075;0.2382271;-0.4404432;-35;-1;-5;-2514;-2795;1693;32768;0.6522355;0.4459834;0.398892;-0.4653739;23;14;-18;855;-3925;474;256;0.4459834;-0.5770524;-0.4252077;-0.536011;-4;10;-1;63;3860;-859;128;0.4473684;-0.5947476;-0.4736842;-0.4709141;2;10;0;-589;4021;510;4;-0.02908587;0.02770083;-0.721608;-0.6911357;1;6;0;9;3930;128;16;0.5083103;-0.6348252;0.4016621;0.4210526;-1;0;0;347;4068;712;2;0.7076072;-0.7049862;0.008310249;-0.04709141;0;9;0;-307;4108;107;8;0.4030471;-0.432133;0.533241;0.6053662;1;10;0;-137;4087;399;0.5589535;2.828966;-0.1456166;0.5649087;3.371656;-0.2010579;0.5701413;3.848474;-0.251803;0.5786083;4.560236;-0.07351601;0.3238052;4.888928;-0.03126794;-0.01927633;4.741635;-0.004085224;-0.6737165;5.272409;-0.3892027;-0.8534128;6.16354;-0.6563952;0.8441123;4.882742;-0.0312683;1.131212;4.727955;-0.00408566;1.881248;5.318415;-0.1347651;2.155302;6.220594;-0.2283235;0.2466929;2.786345;-0.1486075;0.1838905;1.324541;-0.1552503;0;0;0;0.2466929;2.786345;-0.1486075;0.1838905;1.324541;-0.1552503;0;0;0
1032206.7347;NotLabelled;NONE;16384;-0.3227147;-0.4473684;-0.810912;0.1952908;-33;-27;18;1858;-2512;2119;65536;-0.5318559;-0.5645468;-0.5512465;0.3074792;31;120;38;-816;-3610;-693;8192;0.8268895;0.2548476;0.2368421;-0.4418283;-31;-6;-5;-2540;-2687;1557;32768;0.6499934;0.4473684;0.3961219;-0.4695291;17;1;-22;711;-4097;526;256;0.4459834;-0.5747371;-0.4265928;-0.5373961;0;11;-2;89;3862;-873;128;0.4459834;-0.5935836;-0.4750692;-0.4722992;-1;11;0;-557;3913;516;4;-0.02908587;0.02908587;-0.7215535;-0.6911357;1;7;-3;1;4034;192;16;0.5083103;-0.6339043;0.4016621;0.4224377;0;-1;0;307;4060;748;2;0.7089059;-0.7036011;0.006925208;-0.04847645;0;10;0;-347;4112;89;8;0.4044321;-0.433518;0.533241;0.6034492;1;8;0;-127;4087;371;0.5583711;2.828608;-0.1463061;0.5643248;3.371149;-0.2031937;0.5695558;3.84783;-0.2552095;0.5785519;4.560015;-0.07864684;0.323992;4.888996;-0.03718752;-0.01919702;4.742022;-0.009638222;-0.6695555;5.283458;-0.3867441;-0.8620324;6.174984;-0.6435133;0.8442944;4.882427;-0.03718793;1.13128;4.727494;-0.009638667;1.876522;5.325367;-0.1338849;2.151469;6.228364;-0.2162699;0.2461105;2.785979;-0.1491743;0.1837086;1.324173;-0.1585687;0;0;0;0.2461105;2.785979;-0.1491743;0.1837086;1.324173;-0.1585687;0;0;0
1032228.0088;NotLabelled;NONE;16384;-0.3227147;-0.4515235;-0.8072476;0.200831;-34;-28;15;1978;-2616;1993;65536;0.5193906;0.5540166;0.5672908;-0.3185596;27;151;38;-1134;-3736;-389;8192;0.8250734;0.2631579;0.234072;-0.4418283;-19;-4;-6;-2354;-2789;1535;32768;0.6510344;0.4487534;0.3878116;-0.4736842;2;-25;-28;1017;-3651;374;256;0.4445983;-0.5758093;-0.4265928;-0.5373961;2;10;-2;75;3832;-773;128;0.4459834;-0.5913658;-0.4764543;-0.4736842;-2;8;1;-569;3905;514;4;-0.03047091;0.03047091;-0.7214392;-0.6911357;1;8;-4;-15;4106;152;16;0.5069252;-0.6350125;0.4016621;0.4224377;0;0;0;327;3976;694;2;0.7088099;-0.7036011;0.006925208;-0.04986149;-1;10;0;-329;4134;45;8;0.4044321;-0.433518;0.533241;0.6034492;1;4;0;-169;4077;389;0.5546714;2.828854;-0.1519286;0.560625;3.371386;-0.208894;0.5658559;3.84806;-0.2609783;0.5737085;4.560686;-0.08615062;0.3186195;4.889356;-0.04548472;-0.02433143;4.741896;-0.01756723;-0.667245;5.302427;-0.3792245;-0.885915;6.192611;-0.619127;0.8389317;4.883626;-0.04548502;1.126168;4.729224;-0.01756752;1.866165;5.334439;-0.1375418;2.141917;6.237924;-0.2114549;0.2424108;2.786225;-0.1547902;0.1797956;1.324411;-0.1610498;0;0;0;0.2424108;2.786225;-0.1547902;0.1797956;1.324411;-0.1610498;0;0;0
1032248.8003;NotLabelled;NONE;16384;-0.3227147;-0.4556787;-0.8038612;0.2049861;-31;-26;11;1964;-2744;1891;65536;0.5055401;0.5443213;0.58265;-0.3296399;20;149;32;-1080;-3724;-69;8192;0.8241288;0.267313;0.232687;-0.4418283;-16;-9;-2;-2272;-2847;1467;32768;0.6534916;0.4487534;0.3836565;-0.4736842;-2;-28;-22;1087;-3791;-112;256;0.4432133;-0.5732517;-0.4279778;-0.5401662;4;10;-3;61;3946;-903;128;0.4432133;-0.5923365;-0.4764543;-0.4750692;-4;5;1;-519;4009;446;4;-0.03185596;0.03462604;-0.7211919;-0.6911357;0;10;-3;29;4112;144;16;0.5083103;-0.6339043;0.4016621;0.4224377;0;3;0;341;4060;630;2;0.7087327;-0.7036011;0.004155125;-0.05124654;-1;10;0;-395;4074;17;8;0.4058172;-0.433518;0.533241;0.6025186;1;5;0;-203;4131;405;0.5583649;2.82802;-0.1544877;0.5643168;3.370394;-0.2129348;0.5695461;3.846925;-0.2663209;0.5791055;4.559082;-0.08967775;0.3248059;4.888259;-0.0481815;-0.01849939;4.741553;-0.02064933;-0.6578407;5.311537;-0.3737644;-0.8883408;6.19928;-0.6116268;0.8451029;4.881278;-0.04818195;1.131966;4.726116;-0.02064991;1.865532;5.34133;-0.1286659;2.150428;6.243065;-0.1877812;0.2461042;2.785383;-0.1572234;0.1837367;1.323559;-0.1635819;0;0;0;0.2461042;2.785383;-0.1572234;0.1837367;1.323559;-0.1635819;0;0;0
1032269.9746;NotLabelled;NONE;16384;-0.3213296;-0.4584487;-0.801768;0.2091413;-30;-16;4;2004;-2684;1949;65536;0.4930748;0.536011;0.5945411;-0.3407202;11;126;23;-1220;-3808;391;8192;0.8243569;0.2700831;0.2313019;-0.4404432;-13;-18;3;-2116;-2881;1399;32768;0.6577096;0.4487534;0.3781163;-0.4722992;-4;-39;-19;1129;-3601;-166;256;0.4418283;-0.573014;-0.4279778;-0.5415512;7;9;-4;71;3910;-881;128;0.4432133;-0.591223;-0.4764543;-0.4764543;-5;1;1;-505;3975;518;4;-0.033241;0.03601108;-0.7210615;-0.6911357;0;10;-2;-35;4128;180;16;0.5083103;-0.6348252;0.4016621;0.4210526;-1;3;0;369;4040;618;2;0.708638;-0.7036011;0.002770083;-0.05263158;-1;11;0;-481;4142;-21;8;0.4058172;-0.433518;0.533241;0.6025186;0;5;0;-157;4061;349;0.5531472;2.828868;-0.159246;0.5591022;3.371533;-0.2149326;0.5643345;3.848328;-0.2658933;0.5727819;4.560484;-0.08918598;0.3179686;4.88926;-0.04766056;-0.02510722;4.742016;-0.02014205;-0.6646153;5.319419;-0.3606757;-0.9106595;6.204838;-0.5915255;0.8382759;4.883091;-0.04766089;1.125381;4.728374;-0.02014232;1.854741;5.348547;-0.1282821;2.145033;6.248642;-0.1861336;0.2408867;2.786245;-0.1622162;0.1784446;1.324411;-0.1625453;0;0;0;0.2408867;2.786245;-0.1622162;0.1784446;1.324411;-0.1625453;0;0;0
1032289.9847;NotLabelled;NONE;16384;-0.3199446;-0.4612188;-0.7996357;0.2132964;-26;-11;2;2130;-2914;1725;65536;0.4847645;0.5290859;0.6027016;-0.3490305;2;85;14;-930;-3776;335;8192;0.8256916;0.2728532;0.2285319;-0.4376731;-9;-22;4;-2164;-2765;1341;32768;0.6611133;0.4501385;0.3739612;-0.4695291;-6;-44;-11;1463;-3563;168;256;0.4404432;-0.5727696;-0.4279778;-0.5429363;8;7;-5;5;3864;-915;128;0.4432133;-0.591223;-0.4764543;-0.4764543;-8;-1;0;-513;3983;456;4;-0.033241;0.03739612;-0.720991;-0.6911357;0;8;0;-13;4088;110;16;0.5083103;-0.6348252;0.4016621;0.4210526;-1;3;0;351;4020;594;2;0.7084308;-0.7036011;0.001385042;-0.05540166;-2;6;0;-547;4072;47;8;0.4072022;-0.433518;0.533241;0.6015834;0;2;0;-127;4147;357;0.5554706;2.828641;-0.1584071;0.5614257;3.371304;-0.2141222;0.5666579;3.848096;-0.2651078;0.5751489;4.559803;-0.08660123;0.3203571;4.88849;-0.04425284;-0.02272978;4.741201;-0.01711698;-0.662096;5.324466;-0.347783;-0.9187481;6.209174;-0.5696344;0.840664;4.882286;-0.04425299;1.127758;4.72748;-0.01711679;1.855009;5.350379;-0.1237752;2.152991;6.248094;-0.1794622;0.2432101;2.786019;-0.1613749;0.181036;1.324173;-0.1616133;0;0;0;0.2432101;2.786019;-0.1613749;0.181036;1.324173;-0.1616133;0;0;0
1032311.4791;NotLabelled;NONE;16384;-0.3171745;-0.4653739;-0.7964483;0.2202216;-11;-4;6;2584;-2950;1243;65536;0.4764543;0.5235457;0.6100711;-0.3559557;6;-5;13;-230;-3762;-487;8192;0.8258867;0.2756233;0.2271468;-0.4362881;-5;-18;5;-2056;-2773;1401;32768;0.6636865;0.4515235;0.3711911;-0.466759;-8;-35;-4;1027;-3749;-32;256;0.4404432;-0.5714535;-0.4279778;-0.5443213;6;4;-3;-43;3792;-879;128;0.4418283;-0.5922555;-0.4750692;-0.4778393;-8;-1;0;-461;3975;398;4;-0.03462604;0.03878116;-0.7208526;-0.6911357;0;8;0;-131;4034;70;16;0.5083103;-0.6356994;0.400277;0.4210526;-1;5;0;325;3984;624;2;0.7083226;-0.7036011;0;-0.0567867;-1;6;0;-483;4096;71;8;0.4072022;-0.433518;0.533241;0.6015834;0;2;0;-89;4125;357;0.5551081;2.828634;-0.1619434;0.5610631;3.371296;-0.2176586;0.5662953;3.848089;-0.2686443;0.5748315;4.559343;-0.08834404;0.3200616;4.88794;-0.04517478;-0.02303643;4.740607;-0.01842045;-0.6621433;5.329674;-0.3391562;-0.9242489;6.214339;-0.5547125;0.840368;4.881698;-0.04517508;1.12745;4.726805;-0.01842082;1.853756;5.351232;-0.1225601;2.155055;6.247895;-0.1773431;0.2428475;2.786011;-0.1649111;0.180549;1.324173;-0.162157;0;0;0;0.2428475;2.786011;-0.1649111;0.180549;1.324173;-0.162157;0;0;0
1032331.9755;NotLabelled;NONE;16384;-0.3171745;-0.466759;-0.7948654;0.2229917;-5;-11;10;2344;-3018;1229;65536;0.4764543;0.5263157;0.607683;-0.3559557;5;-41;12;-246;-3744;-471;8192;0.8269104;0.2770083;0.2243767;-0.434903;2;-5;6;-2504;-2915;1337;32768;0.6671862;0.4529086;0.368421;-0.4626039;-7;-17;-3;947;-3963;-392;256;0.4404432;-0.5724882;-0.4265928;-0.5443213;6;2;-1;-49;3806;-973;128;0.4418283;-0.5922555;-0.4750692;-0.4778393;-6;-1;0;-581;4077;514;4;-0.03601108;0.0401662;-0.7207089;-0.6911357;-1;5;0;-103;4042;102;16;0.5083103;-0.6356994;0.400277;0.4210526;-1;3;0;299;3952;714;2;0.7095835;-0.702216;0;-0.05817174;0;6;0;-483;4058;-9;8;0.4072022;-0.433518;0.533241;0.6015834;0;-1;1;-115;4095;333;0.5544488;2.828256;-0.1652244;0.5604069;3.3712;-0.2181217;0.565642;3.848251;-0.2666316;0.572509;4.559524;-0.0863359;0.3169687;4.887523;-0.04316884;-0.02578261;4.739385;-0.0164136;-0.6641253;5.337496;-0.3215559;-0.9330105;6.221706;-0.5305231;0.8372884;4.882503;-0.04316896;1.124733;4.728283;-0.01641357;1.848883;5.355452;-0.119081;2.151539;6.251638;-0.174186;0.2421885;2.78565;-0.1684312;0.1801779;1.323799;-0.1655848;0;0;0;0.2421885;2.78565;-0.1684312;0.1801779;1.323799;-0.1655848;0;0;0
1032352.7496;NotLabelled;NONE;16384;-0.3185596;-0.468144;-0.7931053;0.2243767;0;-16;9;2242;-2916;1523;65536;0.4792244;0.533241;0.6018592;-0.3518005;0;-78;10;-594;-3674;-93;8192;0.8280116;0.2770083;0.2229917;-0.433518;4;-8;2;-2558;-2837;1687;32768;0.6681444;0.4529086;0.368421;-0.4612188;-7;-15;-8;995;-3921;-366;256;0.4390582;-0.5722334;-0.4265928;-0.5457063;5;2;0;-29;4078;-979;128;0.4404432;-0.5921681;-0.4750692;-0.4792244;-6;-1;0;-567;4153;472;4;-0.03739612;0.04155125;-0.7205598;-0.6911357;0;-1;0;-323;4042;200;16;0.5083103;-0.6356994;0.400277;0.4210526;0;-1;0;353;4034;686;2;0.7094686;-0.702216;0;-0.05955679;1;2;0;-487;4024;-39;8;0.4072022;-0.433518;0.533241;0.6015834;0;-2;0;-77;4115;309;0.5545565;2.828269;-0.1645575;0.5605147;3.371213;-0.2174548;0.5657496;3.848264;-0.2659647;0.5721147;4.559099;-0.08393306;0.3163439;4.886813;-0.03997135;-0.02630421;4.738371;-0.01358589;-0.6611037;5.340733;-0.3177555;-0.9296677;6.225835;-0.5233387;0.8366669;4.882157;-0.03997159;1.124219;4.728073;-0.01358604;1.849597;5.355063;-0.108382;2.153945;6.250644;-0.1640031;0.2422962;2.785662;-0.1677642;0.1805697;1.3238;-0.1651575;0;0;0;0.2422962;2.785662;-0.1677642;0.1805697;1.3238;-0.1651575;0;0;0
1032373.7563;NotLabelled;NONE;16384;-0.3199446;-0.4709141;-0.7909048;0.2243767;1;-17;7;2252;-2682;1601;65536;0.4847645;0.5429363;0.5934964;-0.3434903;-9;-127;-1;-946;-3650;21;8192;0.8280116;0.2770083;0.2229917;-0.433518;4;-8;1;-2426;-2927;1657;32768;0.6706162;0.4529086;0.365651;-0.4598338;-10;-14;-11;901;-3969;-248;256;0.4376731;-0.5730023;-0.4252077;-0.5470914;3;2;-1;-37;3926;-989;128;0.4404432;-0.5921681;-0.4750692;-0.4792244;-1;2;1;-501;3957;594;4;-0.03601108;0.04155125;-0.7206304;-0.6911357;1;-4;0;-195;4164;222;16;0.5083103;-0.6356994;0.400277;0.4210526;0;-3;0;389;4036;678;2;0.7094686;-0.702216;0;-0.05955679;1;-1;0;-513;4040;-9;8;0.4058172;-0.433518;0.533241;0.6025186;0;-3;0;-123;4089;339;0.5537469;2.828273;-0.1650824;0.5597064;3.371348;-0.2166213;0.5649428;3.848519;-0.2639377;0.5713565;4.558894;-0.08011806;0.315609;4.886515;-0.03533787;-0.02705077;4.738032;-0.00933364;-0.6607335;5.343719;-0.3091969;-0.9305764;6.229206;-0.511421;0.8359317;4.88182;-0.0353381;1.123471;4.727649;-0.00933373;1.849487;5.353463;-0.1069818;2.153742;6.248898;-0.1653781;0.2414866;2.785675;-0.1684042;0.1800697;1.3238;-0.1657026;0;0;0;0.2414866;2.785675;-0.1684042;0.1800697;1.3238;-0.1657026;0;0;0
1032393.7548;NotLabelled;NONE;16384;-0.3199446;-0.4709141;-0.7909048;0.2243767;1;-3;2;2416;-2788;1603;65536;0.4930748;0.5554016;0.5813002;-0.33241;-7;-152;-15;-1800;-3618;-45;8192;0.8287353;0.2770083;0.2229917;-0.432133;4;-10;2;-2398;-2849;1671;32768;0.6724958;0.4515235;0.365651;-0.4584487;-13;-14;-8;1353;-3843;-416;256;0.4376731;-0.5730023;-0.4252077;-0.5470914;2;0;-2;-101;3848;-1081;128;0.4404432;-0.5921681;-0.4750692;-0.4792244;-2;0;1;-465;4005;648;4;-0.03601108;0.04155125;-0.7206304;-0.6911357;1;-7;-1;-107;4186;252;16;0.5069252;-0.6359317;0.4016621;0.4210526;0;-4;0;411;3990;688;2;0.708095;-0.7036011;0;-0.05955679;0;-5;0;-493;4080;-21;8;0.4058172;-0.433518;0.533241;0.6025186;0;0;0;-79;4097;419;0.5540475;2.828248;-0.1681427;0.560007;3.371322;-0.2196817;0.5652434;3.848493;-0.266998;0.5712004;4.557953;-0.07966569;0.3152439;4.885188;-0.03327638;-0.02732305;4.736361;-0.008022455;-0.6595843;5.343979;-0.3069763;-0.9303596;6.229051;-0.5097762;0.8355694;4.880822;-0.03327674;1.123206;4.726706;-0.008022666;1.849154;5.352519;-0.1061594;2.157196;6.246695;-0.1639998;0.2417872;2.785649;-0.1714646;0.1799589;1.3238;-0.1658228;0;0;0;0.2417872;2.785649;-0.1714646;0.1799589;1.3238;-0.1658228;0;0;0
1032414.85;NotLabelled;NONE;16384;-0.3199446;-0.4709141;-0.7905106;0.2257618;10;0;-2;2098;-2974;1327;65536;-0.5124654;-0.5852075;-0.5457063;0.3116343;12;-176;-30;-1108;-3828;-1277;8192;0.8298272;0.2770083;0.2216066;-0.4307479;7;-11;6;-2396;-2891;1559;32768;0.6751137;0.4501385;0.3642659;-0.4570637;-11;-13;-2;1187;-3717;-684;256;0.4376731;-0.5730023;-0.4252077;-0.5470914;0;-2;-1;-169;3916;-1103;128;0.4404432;-0.5921551;-0.4736842;-0.4806094;-2;-3;1;-431;4013;666;4;-0.03462604;0.04155125;-0.7206982;-0.6911357;0;-8;-1;-95;4044;246;16;0.5069252;-0.6350125;0.4016621;0.4224377;0;-3;0;375;4008;674;2;0.708095;-0.7036011;0;-0.05955679;1;-5;0;-353;4090;-37;8;0.4058172;-0.433518;0.533241;0.6025186;0;-1;0;-25;4065;417;0.5578253;2.827764;-0.167858;0.5637848;3.370839;-0.2193969;0.5690211;3.84801;-0.2667133;0.5749781;4.55747;-0.07938096;0.3190217;4.884704;-0.03299168;-0.02354524;4.735878;-0.007737717;-0.6558065;5.343496;-0.3066915;-0.9253129;6.22862;-0.5109418;0.8393472;4.880338;-0.03299201;1.126983;4.726223;-0.007737994;1.852977;5.35182;-0.106915;2.163538;6.244884;-0.1683525;0.245565;2.785165;-0.1711798;0.1837367;1.323316;-0.1655381;0;0;0;0.245565;2.785165;-0.1711798;0.1837367;1.323316;-0.1655381;0;0;0
1032434.7481;NotLabelled;NONE;16384;-0.3199446;-0.4709141;-0.7909048;0.2243767;17;-7;0;2454;-2752;1423;65536;-0.5207756;-0.5968469;-0.5304709;0.301939;21;-130;-23;-1616;-3692;-1301;8192;0.8324526;0.2756233;0.2188366;-0.4279778;11;-8;9;-2274;-2745;1757;32768;0.6769808;0.4501385;0.3642659;-0.4542936;-9;-11;4;1417;-3697;-960;256;0.4390582;-0.5729688;-0.4238227;-0.5470914;-2;-3;-1;13;4020;-1141;128;0.4404432;-0.5921551;-0.4736842;-0.4806094;0;-6;1;-529;4101;622;4;-0.03462604;0.0401662;-0.7207768;-0.6911357;-1;-7;0;-7;4064;236;16;0.5069252;-0.6350125;0.4016621;0.4224377;0;-3;0;401;4016;652;2;0.7082101;-0.7036011;0;-0.05817174;1;-7;0;-267;4092;-49;8;0.4058172;-0.433518;0.533241;0.6025186;0;0;0;-109;4085;383;0.5551368;2.827967;-0.1720864;0.5610978;3.371175;-0.2222009;0.5663354;3.848468;-0.2682656;0.5722924;4.557929;-0.08093303;0.316336;4.885162;-0.0345436;-0.0262309;4.736336;-0.009289676;-0.6573949;5.345821;-0.3067606;-0.9156662;6.236396;-0.5016167;0.8366615;4.880797;-0.03454399;1.124298;4.726681;-0.00928998;1.851444;5.351108;-0.1073964;2.16638;6.24248;-0.1710876;0.2428766;2.785378;-0.1755289;0.1806464;1.323559;-0.1669877;0;0;0;0.2428766;2.785378;-0.1755289;0.1806464;1.323559;-0.1669877;0;0;0
1032454.744;NotLabelled;NONE;16384;-0.3199446;-0.4709141;-0.7912964;0.2229917;13;-3;-1;2386;-2522;2081;65536;-0.5235457;-0.6049937;-0.5207756;0.2977839;15;-71;-16;-1884;-3878;-529;8192;0.8329099;0.2742382;0.2188366;-0.4279778;12;0;7;-2516;-2681;1703;32768;0.6797479;0.4487534;0.3642659;-0.4515235;-6;-8;5;1429;-3935;-952;256;0.4390582;-0.5729688;-0.4238227;-0.5470914;-1;-5;-3;27;4000;-1189;128;0.4418283;-0.5922296;-0.4722992;-0.4806094;0;-5;1;-587;4049;684;4;-0.033241;0.03878116;-0.7222431;-0.6897507;-2;-6;1;1;4052;194;16;0.5055401;-0.635239;0.4030471;0.4224377;0;-2;0;327;4036;712;2;0.7082101;-0.7036011;0;-0.05817174;1;-6;0;-289;4074;-11;8;0.4058172;-0.433518;0.533241;0.6025186;0;0;0;-79;4085;407;0.5554309;2.827986;-0.1687077;0.5613919;3.371194;-0.2188222;0.5666296;3.848487;-0.264887;0.5703651;4.557979;-0.07761469;0.3133853;4.884414;-0.03125286;-0.02871391;4.734517;-0.005986156;-0.6602703;5.342135;-0.3064263;-0.913184;6.234672;-0.4993321;0.833722;4.881677;-0.03125316;1.121839;4.728464;-0.005986333;1.853008;5.348581;-0.1014992;2.168247;6.239634;-0.1680974;0.2431707;2.785396;-0.1721503;0.1810388;1.32356;-0.1665621;0;0;0;0.2431707;2.785396;-0.1721503;0.1810388;1.32356;-0.1665621;0;0;0
1032474.7522;NotLabelled;NONE;16384;-0.3199446;-0.4695291;-0.7925077;0.2216066;4;-3;-3;2258;-2524;2547;65536;-0.5249307;-0.6073515;-0.5166205;0.2977839;6;-16;-15;-2028;-4078;-123;8192;0.8337272;0.2728532;0.2174515;-0.4279778;9;-6;5;-2610;-2727;1959;32768;0.6799228;0.4487534;0.365651;-0.4501385;-10;-8;4;1335;-4103;-830;256;0.4390582;-0.5739907;-0.4224377;-0.5470914;3;-4;-1;-95;3886;-1293;128;0.4418283;-0.5933509;-0.4722992;-0.4792244;2;-4;0;-557;4069;830;4;-0.033241;0.03878116;-0.7222431;-0.6897507;-1;-6;0;-23;4126;136;16;0.5055401;-0.635239;0.4030471;0.4224377;1;-1;0;381;4000;690;2;0.7082101;-0.7036011;0;-0.05817174;1;-4;0;-319;4112;7;8;0.4058172;-0.433518;0.533241;0.6025186;0;-3;0;-79;4107;407;0.5650565;2.827242;-0.1679882;0.5710176;3.370456;-0.2180412;0.5762554;3.847754;-0.264052;0.5799909;4.557245;-0.07678005;0.3230111;4.88368;-0.03041834;-0.01908803;4.733784;-0.005151484;-0.6517291;5.339535;-0.3070801;-0.9041655;6.233638;-0.4932283;0.8433478;4.880944;-0.03041869;1.131465;4.727732;-0.005151629;1.864148;5.34586;-0.1019362;2.181975;6.235578;-0.1738882;0.2527964;2.784653;-0.1714359;0.1848056;1.323075;-0.1662739;0;0;0;0.2527964;2.784653;-0.1714359;0.1848056;1.323075;-0.1662739;0;0;0
1032495.7423;NotLabelled;NONE;16384;-0.3157895;-0.468144;-0.7949897;0.2216066;-10;11;-16;2650;-2538;2017;65536;-0.5263157;-0.6078219;-0.5138504;0.299169;0;-8;-15;-1214;-3922;-191;8192;0.8347964;0.2728532;0.2160665;-0.4265928;3;-7;2;-2646;-2655;2061;32768;0.6808378;0.4487534;0.365651;-0.4487534;-7;-9;0;1127;-3923;-952;256;0.4404432;-0.5726238;-0.4210526;-0.5484765;-3;-4;0;-257;3956;-1131;128;0.4432133;-0.5934188;-0.4709141;-0.4792244;-1;-8;-1;-477;4057;784;4;-0.03185596;0.03739612;-0.7223786;-0.6897507;-1;-5;0;27;4138;142;16;0.5055401;-0.635239;0.4030471;0.4224377;1;0;0;389;4032;662;2;0.7083226;-0.7036011;0;-0.0567867;1;-5;0;-287;4100;-25;8;0.4058172;-0.433518;0.534626;0.60129;0;-4;0;-109;4131;417;0.5654581;2.827241;-0.1673934;0.5714192;3.370458;-0.2174174;0.5766569;3.847759;-0.2634027;0.5798768;4.556797;-0.07441154;0.3226603;4.882932;-0.02726227;-0.01933053;4.732728;-0.002363309;-0.65229;5.336121;-0.3083177;-0.9017217;6.231812;-0.490843;0.8429989;4.880572;-0.02726239;1.131227;4.727508;-0.002363086;1.866717;5.342693;-0.09657097;2.182935;6.232785;-0.1709427;0.2531979;2.784652;-0.1708437;0.1851953;1.323075;-0.1658405;0;0;0;0.2531979;2.784652;-0.1708437;0.1851953;1.323075;-0.1658405;0;0;0
1032516.0516;NotLabelled;NONE;16384;-0.3130194;-0.466759;-0.7965109;0.2229917;-7;20;-13;2676;-2708;1877;65536;-0.5277008;-0.6071065;-0.5124654;0.300554;0;-8;-12;-1234;-3898;-355;8192;0.8347964;0.2728532;0.2160665;-0.4265928;3;-2;-1;-2742;-2659;1915;32768;0.6826583;0.4473684;0.365651;-0.4473684;-5;-5;-1;1309;-3929;-988;256;0.4418283;-0.5728817;-0.4210526;-0.5470914;-7;-6;1;-235;3962;-1111;128;0.4432133;-0.5945346;-0.4709141;-0.4778393;-2;-12;-1;-403;4103;644;4;-0.03185596;0.03739612;-0.7223786;-0.6897507;-1;-4;0;-17;4088;176;16;0.5055401;-0.635239;0.4030471;0.4224377;1;0;0;381;4026;658;2;0.7083226;-0.7036011;0;-0.0567867;0;-4;0;-285;4116;-27;8;0.4044321;-0.433518;0.534626;0.6022224;0;-3;0;-119;4129;411;0.5656074;2.827228;-0.1676719;0.5715686;3.370449;-0.217643;0.5768064;3.847754;-0.2635818;0.5761431;4.556819;-0.07466543;0.3171444;4.881546;-0.02755031;-0.02401881;4.729474;-0.002635244;-0.662263;5.329459;-0.3042827;-0.9076431;6.227001;-0.483179;0.8374879;4.882037;-0.02755052;1.12655;4.730555;-0.002635241;1.863089;5.344576;-0.09624267;2.179334;6.234486;-0.1726449;0.2533472;2.784639;-0.1711265;0.1850792;1.323074;-0.1659693;0;0;0;0.2533472;2.784639;-0.1711265;0.1850792;1.323074;-0.1659693;0;0;0
1032535.9625;NotLabelled;NONE;16384;-0.3074792;-0.4653739;-0.798696;0.2257618;-4;7;-3;2596;-2802;1881;65536;-0.5263157;-0.6069312;-0.5124654;0.3033241;1;5;-1;-1280;-4032;-413;8192;0.8347964;0.2728532;0.2160665;-0.4265928;3;2;-3;-2502;-2765;1895;32768;0.6826583;0.4473684;0.365651;-0.4473684;-3;0;0;1517;-4045;-926;256;0.4432133;-0.5731329;-0.4210526;-0.5457063;-7;-11;1;-147;4032;-1029;128;0.4432133;-0.5956291;-0.4695291;-0.4778393;-2;-15;0;-521;4119;554;4;-0.03185596;0.03601108;-0.7224489;-0.6897507;-1;-4;0;23;4016;204;16;0.5055401;-0.6343582;0.4044321;0.4224377;0;0;0;323;3960;682;2;0.7083226;-0.7036011;0;-0.0567867;0;-1;2;-477;4098;1;8;0.4044321;-0.433518;0.534626;0.6022224;0;-1;0;-131;4071;385;0.5661261;2.827228;-0.1669005;0.5720873;3.370452;-0.2168428;0.5773252;3.847759;-0.2627564;0.5766059;4.5573;-0.0756337;0.3175816;4.882125;-0.02934042;-0.02356972;4.730089;-0.004041729;-0.6631615;5.329536;-0.3038996;-0.9037183;6.228518;-0.4821154;0.8379253;4.882655;-0.02934068;1.126999;4.731261;-0.004041791;1.86382;5.345281;-0.09541202;2.182815;6.233987;-0.1743529;0.253866;2.784639;-0.1703575;0.1855825;1.323075;-0.1654069;0;0;0;0.253866;2.784639;-0.1703575;0.1855825;1.323075;-0.1654069;0;0;0
1032557.7468;NotLabelled;NONE;16384;-0.3060942;-0.4653739;-0.7992278;0.2257618;-6;7;0;2750;-2684;1961;65536;-0.5263157;-0.605759;-0.5138504;0.3033241;3;4;1;-1106;-4094;-419;8192;0.8333647;0.2728532;0.2188366;-0.4279778;4;11;-9;-2678;-2793;1811;32768;0.6826555;0.4459834;0.365651;-0.4487534;2;13;-1;1409;-3939;-962;256;0.4445983;-0.5733771;-0.4210526;-0.5443213;-5;-13;0;-63;4014;-1081;128;0.4445983;-0.5967954;-0.468144;-0.4764543;-1;-14;-1;-553;4177;570;4;-0.03047091;0.03601108;-0.7225086;-0.6897507;-1;-4;0;57;3982;152;16;0.5055401;-0.6343582;0.4044321;0.4224377;1;0;0;311;4010;632;2;0.7083226;-0.7036011;0;-0.0567867;0;-5;3;-579;4076;49;8;0.4044321;-0.432133;0.534626;0.6032171;0;-3;0;-95;4109;329;0.5663577;2.827608;-0.1603247;0.5723203;3.370962;-0.2088264;0.5775595;3.84839;-0.253474;0.5767857;4.558403;-0.06814992;0.3177365;4.883324;-0.0226807;-0.02340331;4.731327;0.003002331;-0.6665777;5.330194;-0.2902759;-0.906412;6.230099;-0.4647734;0.83808;4.883894;-0.02268094;1.127165;4.732585;0.003002167;1.864262;5.346606;-0.08611107;2.183495;6.235312;-0.1640844;0.2540976;2.785029;-0.1639038;0.1859392;1.323451;-0.1619596;0;0;0;0.2540976;2.785029;-0.1639038;0.1859392;1.323451;-0.1619596;0;0;0
1032577.7488;NotLabelled;NONE;16384;-0.3047091;-0.4639889;-0.8001693;0.2271468;-6;12;0;2620;-2766;2067;65536;-0.5249307;-0.6050889;-0.5152354;0.3047091;4;11;4;-1234;-4158;-193;8192;0.8329997;0.2728532;0.2202216;-0.4279778;7;11;-12;-2438;-2727;1937;32768;0.6826471;0.4445983;0.365651;-0.4501385;2;12;0;1475;-3897;-900;256;0.4459834;-0.5746287;-0.4196676;-0.5429363;-1;-13;0;1;4028;-1067;128;0.4459834;-0.5968469;-0.466759;-0.4764543;0;-14;-1;-599;4139;612;4;-0.03047091;0.03601108;-0.7225086;-0.6897507;0;-4;0;55;4112;160;16;0.5055401;-0.6343582;0.4044321;0.4224377;1;-3;1;341;4054;602;2;0.7083212;-0.7036011;0.001385042;-0.0567867;1;-8;2;-665;4032;59;8;0.4044321;-0.432133;0.534626;0.6032171;-1;-6;0;-87;4095;317;0.5672588;2.827582;-0.1624554;0.5732214;3.370943;-0.2108884;0.5784606;3.848376;-0.2554758;0.5776335;4.558857;-0.0719564;0.31856;4.883873;-0.02731347;-0.02256859;4.731916;-0.001245201;-0.666528;5.329813;-0.2947831;-0.9057253;6.229344;-0.4720572;0.8389035;4.884482;-0.02731383;1.128;4.733262;-0.001245618;1.863199;5.3494;-0.09141171;2.185007;6.23727;-0.1682975;0.2549987;2.785004;-0.1660402;0.1864279;1.323452;-0.1613967;0;0;0;0.2549987;2.785004;-0.1660402;0.1864279;1.323452;-0.1613967;0;0;0
1032598.7468;NotLabelled;NONE;16384;-0.3033241;-0.4626039;-0.8011026;0.2285319;-10;13;0;2532;-2748;2045;65536;-0.5221606;-0.6049034;-0.5166205;0.3074792;-1;22;8;-1262;-4176;207;8192;0.832002;0.2714681;0.2229917;-0.4293629;5;12;-13;-2474;-2659;2025;32768;0.6818893;0.4432133;0.367036;-0.4515235;0;9;0;1429;-3871;-856;256;0.4473684;-0.5768711;-0.4168975;-0.5415512;1;-11;1;-7;4040;-1033;128;0.4473684;-0.5990925;-0.4653739;-0.4736842;0;-11;-2;-563;4073;572;4;-0.03047091;0.03462604;-0.7225763;-0.6897507;0;-8;1;113;4112;184;16;0.5055401;-0.633473;0.4058172;0.4224377;1;-4;0;401;4062;562;2;0.7084308;-0.7036011;0.001385042;-0.05540166;1;-10;0;-627;3988;-13;8;0.4030471;-0.432133;0.536011;0.6029149;-2;-7;0;-135;4061;291;0.5681432;2.827582;-0.1610864;0.5741059;3.370945;-0.2094879;0.5793451;3.848381;-0.2540475;0.5779423;4.558887;-0.07062924;0.3186056;4.8837;-0.0260326;-0.02239978;4.731471;5.740114E-05;-0.6653116;5.329837;-0.2948161;-0.9047869;6.22926;-0.4722629;0.8389484;4.884731;-0.0260331;1.128167;4.733747;5.674362E-05;1.862787;5.350838;-0.08831239;2.187335;6.237869;-0.163345;0.2558831;2.785003;-0.1646739;0.1872885;1.323451;-0.1603972;0;0;0;0.2558831;2.785003;-0.1646739;0.1872885;1.323451;-0.1603972;0;0;0
1032619.7374;NotLabelled;NONE;16384;-0.301939;-0.4612188;-0.8016292;0.2313019;-11;8;1;2372;-2782;1793;65536;-0.5207756;-0.6030166;-0.5193906;0.3088643;-4;20;6;-1124;-3854;-67;8192;0.8312546;0.2714681;0.2257618;-0.4293629;3;9;-14;-2368;-2657;1981;32768;0.6809702;0.4432133;0.367036;-0.4529086;-1;10;4;1391;-3749;-734;256;0.4487534;-0.5770938;-0.4168975;-0.5401662;-2;-11;2;23;3992;-1015;128;0.4473684;-0.6012564;-0.4639889;-0.4722992;-1;-12;-2;-591;4007;524;4;-0.03047091;0.033241;-0.7226414;-0.6897507;0;-9;1;19;4114;172;16;0.5055401;-0.633473;0.4058172;0.4224377;0;-4;0;427;4062;568;2;0.7070484;-0.7049862;0.002770083;-0.05540166;2;-12;0;-455;4026;-29;8;0.4030471;-0.4307479;0.536011;0.6039052;-2;-8;0;-97;4069;353;0.5690213;2.827965;-0.1534351;0.5749841;3.371336;-0.201757;0.5802233;3.848778;-0.2462467;0.5777004;4.558869;-0.06124246;0.3178516;4.883172;-0.01591966;-0.0229128;4.730347;0.009831768;-0.6640822;5.329194;-0.2878495;-0.9047606;6.228768;-0.4628812;0.8381921;4.885024;-0.01592004;1.127649;4.73444;0.009831429;1.862288;5.351667;-0.07741416;2.187891;6.238416;-0.1512142;0.2567612;2.785388;-0.1570293;0.1883203;1.323821;-0.1560732;0;0;0;0.2567612;2.785388;-0.1570293;0.1883203;1.323821;-0.1560732;0;0;0
1032640.7478;NotLabelled;NONE;16384;-0.299169;-0.4612188;-0.8014581;0.2354571;-4;2;0;2228;-2752;1733;65536;-0.5166205;-0.6003625;-0.5249307;0.3116343;2;25;6;-1128;-3842;-3;8192;0.8304234;0.2728532;0.2271468;-0.4293629;4;9;-11;-2218;-2701;1873;32768;0.6801993;0.4418283;0.368421;-0.4542936;-7;21;12;1641;-3723;-446;256;0.4501385;-0.5783076;-0.4155124;-0.5387812;-8;-10;2;49;3982;-937;128;0.4487534;-0.6023769;-0.4626039;-0.4709141;0;-12;-2;-461;4043;630;4;-0.03047091;0.033241;-0.7226414;-0.6897507;-1;-9;0;95;4156;200;16;0.5055401;-0.6325836;0.4072022;0.4224377;0;-3;0;415;3990;572;2;0.7072437;-0.7049862;0.005540166;-0.05263158;3;-13;0;-365;4118;29;8;0.400277;-0.4293629;0.5373961;0.6055008;-2;-6;1;-197;4083;407;0.569293;2.827963;-0.149754;0.5752571;3.371461;-0.1966228;0.5804977;3.849021;-0.2398358;0.5779296;4.559584;-0.05665275;0.3180589;4.883983;-0.01215383;-0.02269389;4.7312;0.01399944;-0.6615447;5.331629;-0.2854733;-0.9027592;6.230731;-0.4621866;0.8383994;4.885872;-0.01217437;1.127868;4.735375;0.01395452;1.860914;5.354265;-0.07489312;2.18661;6.241205;-0.1459291;0.257033;2.785395;-0.1534712;0.1887822;1.323822;-0.1555136;0;0;0;0.257033;2.785395;-0.1534712;0.1887822;1.323822;-0.1555136;0;0;0
1032661.7607;NotLabelled;NONE;16384;-0.299169;-0.4612188;-0.8010499;0.2368421;-7;-7;-1;2134;-2690;1889;65536;-0.5138504;-0.5988651;-0.5277008;0.3144044;-2;26;4;-906;-3906;113;8192;0.8279027;0.2714681;0.232687;-0.432133;8;28;-11;-2096;-2899;1777;32768;0.6722932;0.4390582;0.3808864;-0.4584487;-19;53;37;913;-3803;-1056;256;0.4515235;-0.5785164;-0.4155124;-0.5373961;-7;-10;2;-41;3888;-1017;128;0.4487534;-0.6023769;-0.4626039;-0.4709141;0;-12;-2;-495;4067;634;4;-0.02908587;0.03185596;-0.7227609;-0.6897507;-1;-9;1;13;4040;190;16;0.5055401;-0.6325836;0.4072022;0.4224377;0;-2;0;383;4000;628;2;0.7073333;-0.7049862;0.006925208;-0.05124654;3;-13;0;-357;4092;-31;8;0.400277;-0.4293629;0.5373961;0.6055008;-2;-5;0;-107;4115;395;0.5698953;2.828328;-0.1454864;0.5758595;3.371829;-0.1923172;0.5811002;3.849391;-0.2354966;0.5779282;4.559987;-0.05244842;0.3177836;4.884177;-0.008021474;-0.02284181;4.731112;0.01814727;-0.6610503;5.336067;-0.2734849;-0.9062347;6.23382;-0.451587;0.8381223;4.886502;-0.008021593;1.127716;4.736253;0.01814735;1.858371;5.358319;-0.06818402;2.184929;6.244981;-0.1387237;0.2576354;2.78576;-0.149207;0.1893964;1.324186;-0.1516136;0;0;0;0.2576354;2.78576;-0.149207;0.1893964;1.324186;-0.1516136;0;0;0
1032681.8647;NotLabelled;NONE;16384;-0.2977839;-0.4626039;-0.8007672;0.2368421;-7;-8;-2;2304;-2810;1701;65536;-0.5124654;-0.5961378;-0.5304709;0.3171745;-4;23;7;-598;-3866;-181;8192;0.8245384;0.2714681;0.2368421;-0.4362881;3;57;-11;-1586;-2843;1989;32768;0.6684257;0.4376731;0.3891967;-0.4584487;-10;41;41;1193;-3595;-1354;256;0.4529086;-0.5787188;-0.4155124;-0.536011;-3;-10;0;-93;3910;-917;128;0.4501385;-0.6034857;-0.4612188;-0.4695291;-2;-10;-1;-465;4009;732;4;-0.02770083;0.02908587;-0.722932;-0.6897507;-1;-11;1;131;4052;192;16;0.5041551;-0.631869;0.4085872;0.4238227;0;-4;0;363;3998;628;2;0.7074173;-0.7049862;0.008310249;-0.04986149;1;-12;1;-305;4134;19;8;0.398892;-0.4293629;0.5373961;0.6064141;-2;-6;0;-105;4075;429;0.5705903;2.828316;-0.1448197;0.5765545;3.371817;-0.1916504;0.5817952;3.84938;-0.2348298;0.5785726;4.560445;-0.05361444;0.3184054;4.88473;-0.01002643;-0.02220983;4.731711;0.01653302;-0.6584455;5.338543;-0.2755059;-0.9053928;6.236093;-0.4521932;0.8387439;4.887092;-0.01002681;1.128347;4.73693;0.01653266;1.856359;5.361299;-0.07532215;2.170805;6.251544;-0.155157;0.2583303;2.785748;-0.1485402;0.1898488;1.324186;-0.1510467;0;0;0;0.2583303;2.785748;-0.1485402;0.1898488;1.324186;-0.1510467;0;0;0
1032702.7909;NotLabelled;NONE;16384;-0.2977839;-0.4639889;-0.7995542;0.2382271;-2;-5;-2;2544;-2766;1661;65536;-0.5110803;-0.5941135;-0.533241;0.3185596;-5;21;13;-644;-3872;-157;8192;0.8200838;0.2700831;0.2409972;-0.4432133;3;50;-2;-2254;-2785;1749;32768;0.6652988;0.4376731;0.3961219;-0.4570637;-7;5;37;1277;-3705;-1248;256;0.4556787;-0.5788182;-0.4141274;-0.534626;-1;-11;1;-115;3994;-973;128;0.4501385;-0.6055927;-0.4584487;-0.4695291;-5;-9;-2;-533;4079;680;4;-0.02770083;0.02770083;-0.7229864;-0.6897507;0;-10;0;153;4112;216;16;0.5041551;-0.631869;0.4085872;0.4238227;0;-4;0;401;4070;598;2;0.7049862;-0.7075136;0.008310249;-0.04847645;1;-11;1;-323;4088;75;8;0.3975069;-0.4293629;0.5373961;0.6073229;-3;-5;1;-27;4113;415;0.5717494;2.828078;-0.1424898;0.5777137;3.371581;-0.1892913;0.5829543;3.849146;-0.2324449;0.5796828;4.560677;-0.05306798;0.3194937;4.885056;-0.01032126;-0.02111184;4.732084;0.01662948;-0.6582258;5.338375;-0.2746199;-0.904042;6.236139;-0.4517944;0.8398321;4.887452;-0.01032144;1.129445;4.73738;0.01662946;1.854198;5.365369;-0.07630134;2.159802;6.257863;-0.1648948;0.2594894;2.78551;-0.1462128;0.1910007;1.323956;-0.1516092;0;0;0;0.2594894;2.78551;-0.1462128;0.1910007;1.323956;-0.1516092;0;0;0
1032723.7492;NotLabelled;NONE;16384;-0.2963989;-0.4639889;-0.8000686;0.2382271;-2;1;-6;2334;-2870;1743;65536;-0.5096953;-0.5920628;-0.536011;0.3199446;-7;20;15;-778;-3768;-383;8192;0.8186275;0.2686981;0.2423823;-0.4459834;10;18;-3;-2880;-2817;1509;32768;0.6646281;0.4390582;0.398892;-0.4542936;-5;-20;31;1055;-3851;-1136;256;0.4556787;-0.5810807;-0.4127424;-0.533241;-1;-11;2;-127;3968;-991;128;0.4501385;-0.6066641;-0.4584487;-0.468144;-3;-7;-2;-533;3995;700;4;-0.02631579;0.02631579;-0.7230899;-0.6897507;0;-7;0;231;4092;192;16;0.5041551;-0.6309378;0.4085872;0.4252077;0;-5;0;411;3948;540;2;0.7049862;-0.707496;0.009695291;-0.04847645;2;-10;2;-309;4084;-7;8;0.3975069;-0.4293629;0.5373961;0.6073229;-2;-3;0;-141;4045;441;0.5722792;2.828055;-0.1380884;0.5782461;3.371794;-0.1820701;0.5834892;3.849577;-0.2227462;0.5779169;4.561595;-0.04537305;0.316681;4.885252;-0.003542989;-0.02342944;4.731257;0.02383385;-0.657964;5.339834;-0.2682774;-0.9037745;6.237137;-0.4477797;0.837009;4.889328;-0.003543258;1.127104;4.740267;0.02383375;1.850123;5.370481;-0.06754065;2.146569;6.265358;-0.1629446;0.2600196;2.785508;-0.1420499;0.1917992;1.323956;-0.1505979;0;0;0;0.2600196;2.785508;-0.1420499;0.1917992;1.323956;-0.1505979;0;0;0
1032743.8019;NotLabelled;NONE;16384;-0.2922437;-0.4639889;-0.8011828;0.2396122;-2;4;-10;2318;-2614;1573;65536;-0.5069252;-0.5868362;-0.5443213;0.3199446;-8;18;8;-1710;-3678;-571;8192;0.8183252;0.267313;0.2423823;-0.4473684;10;8;-7;-2346;-2501;2089;32768;0.6657225;0.4418283;0.400277;-0.4487534;-6;-26;24;901;-4029;-980;256;0.4570637;-0.5822432;-0.4113573;-0.5318559;0;-10;2;-101;3928;-1123;128;0.4501385;-0.6077082;-0.4570637;-0.468144;-2;-6;-3;-517;3979;708;4;-0.02631579;0.02631579;-0.7230899;-0.6897507;0;-5;0;127;4028;154;16;0.5027701;-0.6311445;0.4099723;0.4252077;-1;-2;0;379;3974;560;2;0.7049862;-0.7076803;0.009695291;-0.04570637;1;-7;2;-285;4076;-75;8;0.3961219;-0.4293629;0.5373961;0.6082273;-2;-3;0;-115;4095;381;0.5702171;2.828305;-0.1383938;0.5761839;3.372046;-0.182346;0.581427;3.849831;-0.2229961;0.5769444;4.561437;-0.04394436;0.3162037;4.885393;-0.00134629;-0.02414113;4.731853;0.025674;-0.6572806;5.339449;-0.271462;-0.9030547;6.236291;-0.4533033;0.8365372;4.888673;-0.001346946;1.126405;4.739106;0.02567291;1.850589;5.368858;-0.05944443;2.141456;6.265229;-0.1579463;0.2579573;2.785757;-0.1423579;0.1895534;1.324216;-0.1511579;0;0;0;0.2579573;2.785757;-0.1423579;0.1895534;1.324216;-0.1511579;0;0;0
1032763.7335;NotLabelled;NONE;16384;-0.2894737;-0.4639889;-0.8021878;0.2396122;-4;4;-12;2262;-2688;1515;65536;-0.5041551;-0.5866465;-0.5470914;0.3199446;-3;26;-5;-2378;-3564;-671;8192;0.8186697;0.267313;0.2437673;-0.4459834;-4;0;-11;-3036;-2595;2195;32768;0.6678285;0.4445983;0.4044321;-0.4390582;-10;-19;15;353;-4179;-1448;256;0.4570637;-0.5835054;-0.4113573;-0.5304709;0;-9;2;-63;3832;-1073;128;0.4501385;-0.6077082;-0.4570637;-0.468144;-3;-6;-1;-529;3965;792;4;-0.02493075;0.02493075;-0.723188;-0.6897507;-1;-3;0;171;3978;172;16;0.5027701;-0.6311445;0.4099723;0.4252077;0;0;0;365;3988;622;2;0.7049862;-0.7076803;0.009695291;-0.04570637;1;-8;2;-319;4040;-23;8;0.3947368;-0.4293629;0.5373961;0.609127;-2;-4;1;-85;4079;395;0.5746886;2.827807;-0.1364418;0.5806566;3.37166;-0.1789899;0.585901;3.849548;-0.2184061;0.5808029;4.561195;-0.03953317;0.3197821;4.884936;0.002982944;-0.0204299;4.731109;0.03004097;-0.657499;5.337698;-0.2606853;-0.9068278;6.231448;-0.4526272;0.8401127;4.888667;0.002982676;1.13011;4.739357;0.03004086;1.855741;5.36742;-0.05522037;2.140894;6.265187;-0.1576408;0.2624289;2.78527;-0.1405245;0.1940723;1.323729;-0.1496848;0;0;0;0.2624289;2.78527;-0.1405245;0.1940723;1.323729;-0.1496848;0;0;0
