SEP=;
index;label;RightUpperArm_boneIndex;RightUpperArm_quat9x_w;RightUpperArm_quat9x_x;RightUpperArm_quat9x_y;RightUpperArm_quat9x_z;RightUpperArm_gyroscope_x;RightUpperArm_gyroscope_y;RightUpperArm_gyroscope_z;RightUpperArm_accelerometer_x;RightUpperArm_accelerometer_y;RightUpperArm_accelerometer_z;RightLowerArm_boneIndex;RightLowerArm_quat9x_w;RightLowerArm_quat9x_x;RightLowerArm_quat9x_y;RightLowerArm_quat9x_z;RightLowerArm_gyroscope_x;RightLowerArm_gyroscope_y;RightLowerArm_gyroscope_z;RightLowerArm_accelerometer_x;RightLowerArm_accelerometer_y;RightLowerArm_accelerometer_z;LeftUpperArm_boneIndex;LeftUpperArm_quat9x_w;LeftUpperArm_quat9x_x;LeftUpperArm_quat9x_y;LeftUpperArm_quat9x_z;LeftUpperArm_gyroscope_x;LeftUpperArm_gyroscope_y;LeftUpperArm_gyroscope_z;LeftUpperArm_accelerometer_x;LeftUpperArm_accelerometer_y;LeftUpperArm_accelerometer_z;LeftLowerArm_boneIndex;LeftLowerArm_quat9x_w;LeftLowerArm_quat9x_x;LeftLowerArm_quat9x_y;LeftLowerArm_quat9x_z;LeftLowerArm_gyroscope_x;LeftLowerArm_gyroscope_y;LeftLowerArm_gyroscope_z;LeftLowerArm_accelerometer_x;LeftLowerArm_accelerometer_y;LeftLowerArm_accelerometer_z;Chest_boneIndex;Chest_quat9x_w;Chest_quat9x_x;Chest_quat9x_y;Chest_quat9x_z;Chest_gyroscope_x;Chest_gyroscope_y;Chest_gyroscope_z;Chest_accelerometer_x;Chest_accelerometer_y;Chest_accelerometer_z;Spine_boneIndex;Spine_quat9x_w;Spine_quat9x_x;Spine_quat9x_y;Spine_quat9x_z;Spine_gyroscope_x;Spine_gyroscope_y;Spine_gyroscope_z;Spine_accelerometer_x;Spine_accelerometer_y;Spine_accelerometer_z;RightUpperLeg_boneIndex;RightUpperLeg_quat9x_w;RightUpperLeg_quat9x_x;RightUpperLeg_quat9x_y;RightUpperLeg_quat9x_z;RightUpperLeg_gyroscope_x;RightUpperLeg_gyroscope_y;RightUpperLeg_gyroscope_z;RightUpperLeg_accelerometer_x;RightUpperLeg_accelerometer_y;RightUpperLeg_accelerometer_z;RightLowerLeg_boneIndex;RightLowerLeg_quat9x_w;RightLowerLeg_quat9x_x;RightLowerLeg_quat9x_y;RightLowerLeg_quat9x_z;RightLowerLeg_gyroscope_x;RightLowerLeg_gyroscope_y;RightLowerLeg_gyroscope_z;RightLowerLeg_accelerometer_x;RightLowerLeg_accelerometer_y;RightLowerLeg_accelerometer_z;LeftUpperLeg_boneIndex;LeftUpperLeg_quat9x_w;LeftUpperLeg_quat9x_x;LeftUpperLeg_quat9x_y;LeftUpperLeg_quat9x_z;LeftUpperLeg_gyroscope_x;LeftUpperLeg_gyroscope_y;LeftUpperLeg_gyroscope_z;LeftUpperLeg_accelerometer_x;LeftUpperLeg_accelerometer_y;LeftUpperLeg_accelerometer_z;LeftLowerLeg_boneIndex;LeftLowerLeg_quat9x_w;LeftLowerLeg_quat9x_x;LeftLowerLeg_quat9x_y;LeftLowerLeg_quat9x_z;LeftLowerLeg_gyroscope_x;LeftLowerLeg_gyroscope_y;LeftLowerLeg_gyroscope_z;LeftLowerLeg_accelerometer_x;LeftLowerLeg_accelerometer_y;LeftLowerLeg_accelerometer_z;pelvis_x;pelvis_y;pelvis_z;lowerSpine_x;lowerSpine_y;lowerSpine_z;middleSpine_x;middleSpine_y;middleSpine_z;upperSpine_x;upperSpine_y;upperSpine_z;rightClavicle_x;rightClavicle_y;rightClavicle_z;rightShoulder_x;rightShoulder_y;rightShoulder_z;rightElbow_x;rightElbow_y;rightElbow_z;rightWrist_x;rightWrist_y;rightWrist_z;leftClavicle_x;leftClavicle_y;leftClavicle_z;leftShoulder_x;leftShoulder_y;leftShoulder_z;leftElbow_x;leftElbow_y;leftElbow_z;leftWrist_x;leftWrist_y;leftWrist_z;rightHip_x;rightHip_y;rightHip_z;rightKnee_x;rightKnee_y;rightKnee_z;rightAnkle_x;rightAnkle_y;rightAnkle_z;leftHip_x;leftHip_y;leftHip_z;leftKnee_x;leftKnee_y;leftKnee_z;leftAnkle_x;leftAnkle_y;leftAnkle_z;
774572.2914;NotLabelled;16384;0.7363421;0.3628809;0.5263157;0.2216066;-3;5;7;3118;-1154;2657;65536;-0.5373961;-0.6325259;0.5069252;0.232687;-5;-9;-10;3743;-2078;-261;8192;0.5124654;-0.7537923;-0.3698061;-0.1800554;3;-3;-2;1846;3905;-653;32768;0.5775623;-0.7412936;0.2479224;-0.2354571;-4;6;1;2719;3407;918;256;0.07617728;-0.16759;-0.6814404;-0.7083429;1;-6;6;319;4244;-259;128;-0.06232687;0.2562327;0.5844875;0.7673556;-2;-8;-6;-927;4037;1228;4;-0.6052631;0.2243767;-0.4307479;-0.6306884;9;-18;0;2203;3580;618;16;0.7146479;-0.6759003;-0.06232687;-0.1689751;6;6;8;749;4148;204;2;0.4515235;-0.6060186;-0.4833795;-0.4418283;0;-8;-1;1085;4240;-351;8;0.4612188;-0.8564721;0.1509695;0.1759003;-5;7;1;185;3531;2441;0.5208778;2.561892;1.01607;0.5268521;3.10631;1.050634;0.5321049;3.584981;1.078997;0.6217771;4.311925;1.123426;0.4051663;4.668985;1.105106;0.04882476;4.568063;1.159644;-0.7103818;4.843683;0.7058064;-0.06755051;5.267916;1.257705;0.9215966;4.605285;1.105105;1.19074;4.427207;1.159643;1.151604;3.555908;1.56901;0.5147782;2.854398;1.557892;0.2086294;2.520389;1.005548;0.1402078;1.329529;0.1581823;0;0;0;0.2086294;2.520389;1.005548;0.1402078;1.329529;0.1581823;0;0;0
774594.1678;NotLabelled;16384;0.7371701;0.3628809;0.5263157;0.2188366;-6;10;8;2990;-1114;2783;65536;-0.5387812;-0.6285983;0.5096953;0.234072;-8;-6;-7;3795;-1842;-657;8192;0.5124654;-0.7537923;-0.3698061;-0.1800554;3;-2;-1;1770;3899;-653;32768;0.5775623;-0.7412936;0.2479224;-0.2354571;-3;3;2;2729;3341;818;256;0.07617728;-0.1689751;-0.6814404;-0.7080137;0;-8;6;373;4228;-249;128;-0.06232687;0.2576177;0.5844875;0.7668917;0;-7;-6;-837;3989;1248;4;-0.6038781;0.2243767;-0.4307479;-0.6320148;4;-14;-1;2517;3650;726;16;0.7144385;-0.6759003;-0.06094183;-0.1703601;5;-2;8;1145;4022;372;2;0.4515235;-0.607026;-0.4833795;-0.4404432;-1;-6;0;1155;4194;-359;8;0.4598338;-0.8574593;0.1495845;0.1759003;-4;5;1;227;3485;2305;0.5139472;2.562803;1.019997;0.5199214;3.107217;1.054625;0.5251743;3.585885;1.083044;0.6134278;4.313022;1.127153;0.3961186;4.669651;1.10869;0.03997785;4.568055;1.163291;-0.7160954;4.846546;0.7059883;-0.07166791;5.267196;1.258766;0.9126724;4.606959;1.108689;1.182166;4.429432;1.163291;1.140764;3.557947;1.572038;0.5030756;2.857195;1.562629;0.2016989;2.521302;1.009469;0.1397997;1.328894;0.1637791;0;0;0;0.2016989;2.521302;1.009469;0.1397997;1.328894;0.1637791;0;0;0
774614.1802;NotLabelled;16384;0.7383909;0.3628809;0.5263157;0.2146814;-9;8;4;2764;-1264;2717;65536;-0.5401662;-0.6257614;0.5110803;0.2354571;-8;0;-6;3529;-1798;-757;8192;0.5124654;-0.7544702;-0.368421;-0.1800554;3;-4;0;1554;3703;-733;32768;0.5761772;-0.74193;0.2479224;-0.2368421;-3;2;3;2547;3025;798;256;0.07756232;-0.1731302;-0.6814404;-0.7068585;-1;-9;7;411;4204;-233;128;-0.06232687;0.2603878;0.5831025;0.7670105;-6;-3;-5;-749;3923;1308;4;-0.6052631;0.2243767;-0.4307479;-0.6306884;-7;10;1;2729;3636;902;16;0.7152181;-0.6759003;-0.05540166;-0.1689751;1;-23;0;1373;4118;142;2;0.4529086;-0.6090956;-0.4819945;-0.4376731;0;-8;1;841;3982;-575;8;0.4584487;-0.8576729;0.1509695;0.1772853;-4;-2;0;357;3491;2195;0.5141234;2.56278;1.021753;0.5200976;3.10719;1.056446;0.5253503;3.585855;1.084923;0.6150224;4.312818;1.129043;0.3984102;4.669869;1.110582;0.04207098;4.568968;1.165177;-0.7110947;4.850662;0.7050474;-0.06259683;5.266403;1.256778;0.9148405;4.60617;1.110589;1.183986;4.428115;1.165191;1.140874;3.556678;1.573864;0.5032063;2.855927;1.563123;0.2018751;2.52128;1.01122;0.1441965;1.32811;0.1663073;0;0;0;0.2018751;2.52128;1.01122;0.1441965;1.32811;0.1663073;0;0;0
774655.4674;NotLabelled;16384;0.7381102;0.3642659;0.5263157;0.2132964;-11;5;4;2714;-1212;2713;65536;-0.5401662;-0.6252385;0.5110803;0.2368421;-8;2;-7;3481;-1762;-727;8192;0.5124654;-0.7544702;-0.368421;-0.1800554;2;-4;-1;1518;3675;-801;32768;0.5761772;-0.74193;0.2479224;-0.2368421;-2;1;4;2621;2971;664;256;0.07756232;-0.1745152;-0.6814404;-0.7065179;-1;-7;7;361;4078;-249;128;-0.06232687;0.2617728;0.5817174;0.7675905;-6;-3;-5;-729;3817;1298;4;-0.6080332;0.2229917;-0.432133;-0.6275598;-7;0;1;2063;3110;538;16;0.7156029;-0.6772853;-0.04986149;-0.1634349;2;-17;-4;387;4024;20;2;0.4529086;-0.610189;-0.4806094;-0.4376731;0;-8;1;777;3918;-681;8;0.4584487;-0.8576729;0.1509695;0.1772853;-5;2;0;431;3435;2051;0.5152651;2.560649;1.028901;0.5212379;3.104929;1.06559;0.5264894;3.583485;1.095821;0.6190069;4.31011;1.139647;0.4037915;4.667998;1.121058;0.0470641;4.568514;1.175715;-0.7018273;4.855134;0.7116677;-0.05344504;5.267664;1.265938;0.9199687;4.60228;1.121057;1.18842;4.423197;1.175713;1.141359;3.551527;1.583457;0.5016887;2.852678;1.568667;0.2030173;2.519189;1.018203;0.1497347;1.326781;0.1719264;0;0;0;0.2030173;2.519189;1.018203;0.1497347;1.326781;0.1719264;0;0;0
774675.6475;NotLabelled;16384;0.7385091;0.3642659;0.5263157;0.2119114;-12;4;1;2784;-1162;2583;65536;-0.5401662;-0.6247121;0.5110803;0.2382271;-8;3;-8;3523;-1800;-631;8192;0.5124654;-0.755145;-0.367036;-0.1800554;2;-4;-3;1592;3691;-777;32768;0.5761772;-0.74193;0.2479224;-0.2368421;-2;0;4;2677;2999;550;256;0.07756232;-0.1772853;-0.6800554;-0.7071624;2;-1;6;475;4004;-247;128;-0.06232687;0.2631579;0.5817174;0.7671168;0;-5;-6;-923;3807;1298;4;-0.6066482;0.2216066;-0.433518;-0.628435;-4;-6;-1;2061;2954;418;16;0.71582;-0.6772853;-0.05124654;-0.1620499;2;3;-4;445;4042;-120;2;0.4542936;-0.6112397;-0.4792244;-0.4362881;0;-10;0;645;3904;-689;8;0.4570637;-0.8584118;0.1509695;0.1772853;-4;4;0;537;3521;1933;0.5259165;2.55867;1.028812;0.5318879;3.102816;1.06743;0.5371382;3.581263;1.099357;0.6310773;4.307704;1.143194;0.4165626;4.666014;1.12461;0.05964094;4.567226;1.179264;-0.6885284;4.856903;0.715951;-0.03954378;5.267558;1.270909;0.9326102;4.599285;1.124609;1.20071;4.419676;1.179263;1.152973;3.548007;1.586928;0.513334;2.849158;1.570809;0.2136691;2.517248;1.017955;0.1516818;1.326885;0.1693945;0;0;0;0.2136691;2.517248;1.017955;0.1516818;1.326885;0.1693945;0;0;0
774696.1683;NotLabelled;16384;0.7369371;0.367036;0.5277008;0.2091413;-13;2;0;2890;-1284;2539;65536;-0.5415512;-0.6224464;0.5110803;0.2409972;-8;4;-7;3641;-1734;-489;8192;0.5124654;-0.755145;-0.367036;-0.1800554;1;-3;-5;1610;3687;-801;32768;0.5761772;-0.7410219;0.2493075;-0.2382271;0;-4;5;2705;2971;626;256;0.07756232;-0.1786704;-0.6800554;-0.7068138;3;-3;6;457;4022;-285;128;-0.06232687;0.2645429;0.5803324;0.7676892;-1;-5;-7;-921;3799;1344;4;-0.6066482;0.2202216;-0.433518;-0.6289217;0;-9;-1;2347;3068;360;16;0.7170276;-0.6759003;-0.05263158;-0.1620499;2;10;-2;499;3898;-98;2;0.4542936;-0.6112397;-0.4792244;-0.4362881;0;-4;0;573;3916;-755;8;0.4570637;-0.8586543;0.1495845;0.1772853;-5;3;0;527;3471;2065;0.5198112;2.559774;1.026892;0.5257824;3.103915;1.065578;0.5310328;3.582358;1.097565;0.6272814;4.308321;1.144213;0.4139278;4.667387;1.126887;0.05666324;4.569539;1.180989;-0.6887631;4.860836;0.7142826;-0.04047036;5.26961;1.271434;0.9297584;4.599;1.126886;1.197253;4.418325;1.180988;1.146068;3.546475;1.587848;0.5065069;2.847626;1.568913;0.2075637;2.518353;1.01603;0.146195;1.3277;0.1678322;0;0;0;0.2075637;2.518353;1.01603;0.146195;1.3277;0.1678322;0;0;0
774717.1955;NotLabelled;16384;0.736333;0.3698061;0.5277008;0.2063712;-11;2;1;2970;-1294;2565;65536;-0.5415512;-0.6208216;0.5110803;0.2451524;-7;3;-8;3621;-1782;-415;8192;0.5124654;-0.7558204;-0.3642659;-0.1828255;3;-1;-8;1424;3733;-863;32768;0.5761772;-0.7396368;0.2520775;-0.2396122;0;0;4;2619;2917;926;256;0.07617728;-0.1814404;-0.6786703;-0.7075895;4;-4;8;571;4024;-223;128;-0.06094183;0.267313;0.5803324;0.7668404;0;-4;-8;-801;3869;1220;4;-0.6052631;0.2202216;-0.433518;-0.6302548;0;-6;0;2467;3430;560;16;0.7170276;-0.6759003;-0.05263158;-0.1620499;0;-25;-4;1129;4092;-184;2;0.4556787;-0.6123732;-0.4764543;-0.4362881;0;-6;-1;817;4032;-457;8;0.4556787;-0.8601521;0.1468144;0.1759003;-5;3;0;473;3467;2237;0.5142319;2.558028;1.033055;0.5202017;3.102028;1.073668;0.5254506;3.580354;1.10735;0.6231182;4.306128;1.154009;0.410467;4.665609;1.136688;0.05301166;4.56846;1.190788;-0.6935651;4.864644;0.7290221;-0.04115692;5.270048;1.283826;0.9261629;4.596215;1.136687;1.193303;4.415016;1.190787;1.141443;3.543167;1.597563;0.4995292;2.846586;1.575031;0.2019849;2.516644;1.022034;0.1409491;1.327833;0.1712346;0;0;0;0.2019849;2.516644;1.022034;0.1409491;1.327833;0.1712346;0;0;0
774759.3791;NotLabelled;16384;0.7356357;0.3711911;0.5277008;0.2063712;-9;3;3;2978;-1342;2485;65536;-0.5401662;-0.6214795;0.5110803;0.2465374;-6;0;-9;3613;-1740;-399;8192;0.5138504;-0.7555462;-0.3628809;-0.1828255;3;-3;-7;1530;3693;-831;32768;0.5747922;-0.7407137;0.2520775;-0.2396122;-1;1;4;2607;2967;990;256;0.07617728;-0.1828255;-0.6786703;-0.707233;4;-4;8;509;4098;-217;128;-0.06094183;0.2686981;0.5803324;0.7663561;1;-6;-7;-857;3927;1238;4;-0.6052631;0.2188366;-0.434903;-0.6297829;-3;-4;1;2417;3266;472;16;0.7196234;-0.6759003;-0.04570637;-0.1523546;0;-27;-6;295;3970;-190;2;0.4570637;-0.6113402;-0.4764543;-0.4362881;0;-3;0;891;4144;-483;8;0.4542936;-0.8608844;0.1468144;0.1759003;-4;4;0;257;3461;2333;0.5091853;2.558817;1.032652;0.5151548;3.102784;1.073696;0.5204034;3.581084;1.107757;0.6217808;4.30614;1.157553;0.4109943;4.666783;1.141638;0.05301118;4.571249;1.19512;-0.6922426;4.87351;0.7351595;-0.03599802;5.273225;1.289569;0.9263259;4.594734;1.141637;1.192497;4.411932;1.19512;1.133605;3.53844;1.597389;0.4881637;2.845282;1.570471;0.1969385;2.517442;1.021596;0.1405117;1.327832;0.1715943;0;0;0;0.1969385;2.517442;1.021596;0.1405117;1.327832;0.1715943;0;0;0
774780.1596;NotLabelled;16384;0.7353227;0.3725762;0.5277008;0.2049861;-9;3;4;2932;-1324;2479;65536;-0.5401662;-0.6197856;0.5124654;0.2479224;-6;0;-10;3605;-1768;-455;8192;0.5138504;-0.7552097;-0.3628809;-0.1842105;4;-4;-6;1514;3751;-849;32768;0.5747922;-0.7402642;0.2520775;-0.2409972;-3;1;4;2701;3021;1088;256;0.07479224;-0.1842105;-0.6772853;-0.7083482;5;0;7;579;4044;-207;128;-0.06232687;0.2700831;0.5817174;0.764706;5;-5;-6;-903;3799;1264;4;-0.6052631;0.2188366;-0.433518;-0.6307371;-3;-5;2;2449;3118;382;16;0.7186124;-0.6772853;-0.04570637;-0.1509695;-1;-1;-4;329;4006;-146;2;0.4570637;-0.6123263;-0.4764543;-0.434903;0;-3;1;943;4030;-411;8;0.4542936;-0.8611194;0.1454294;0.1759003;-4;2;0;351;3395;2333;0.5076813;2.558825;1.033417;0.5136505;3.102788;1.074532;0.5188993;3.581083;1.108656;0.6216927;4.305938;1.158466;0.4116111;4.666992;1.142556;0.05344209;4.572157;1.196037;-0.6914105;4.87583;0.736356;-0.03633875;5.273246;1.293795;0.926801;4.593936;1.142555;1.192614;4.410613;1.196035;1.133614;3.535858;1.595532;0.4872861;2.843469;1.57014;0.1954344;2.517452;1.022354;0.1352066;1.328342;0.1719152;0;0;0;0.1954344;2.517452;1.022354;0.1352066;1.328342;0.1719152;0;0;0
774800.502;NotLabelled;16384;0.7357661;0.3739612;0.5277008;0.200831;-9;4;5;2854;-1388;2477;65536;-0.5401662;-0.6175205;0.5138504;0.2506925;-5;-1;-10;3679;-1642;-599;8192;0.5138504;-0.7558737;-0.3614958;-0.1842105;4;-5;-5;1522;3691;-879;32768;0.5734072;-0.7413376;0.2520775;-0.2409972;-4;2;4;2631;2929;1080;256;0.07479224;-0.1855956;-0.6772853;-0.7079866;5;0;7;603;3984;-283;128;-0.06232687;0.2714681;0.5817174;0.7642155;4;-1;-6;-927;3799;1294;4;-0.6052631;0.2174515;-0.433518;-0.6312159;-1;-1;2;2295;3214;496;16;0.7185229;-0.6772853;-0.04709141;-0.1509695;-3;10;-4;567;4006;-136;2;0.4570637;-0.6134015;-0.4750692;-0.434903;0;-5;1;915;4002;-421;8;0.4542936;-0.8611194;0.1454294;0.1759003;-3;0;0;343;3361;2245;0.5031849;2.558195;1.030127;0.5091559;3.102311;1.069162;0.5144059;3.580733;1.101457;0.6194827;4.305039;1.154385;0.4105649;4.666827;1.139873;0.05206221;4.572911;1.192738;-0.6923428;4.879612;0.7343438;-0.03497082;5.273302;1.291719;0.9255188;4.592126;1.139871;1.190713;4.40773;1.192737;1.129896;3.532338;1.590562;0.4824241;2.8411;1.563044;0.1909375;2.51678;1.019236;0.1352642;1.329011;0.166614;0;0;0;0.1909375;2.51678;1.019236;0.1352642;1.329011;0.166614;0;0;0
774822.1819;NotLabelled;16384;0.7351035;0.3767313;0.5277008;0.1980609;-7;3;5;2792;-1396;2367;65536;-0.5401662;-0.6152314;0.5152354;0.2534626;-3;0;-9;3669;-1500;-505;8192;0.5124654;-0.7581303;-0.3587258;-0.1842105;5;-2;-3;1630;3665;-907;32768;0.5720221;-0.7414838;0.2534626;-0.2423823;-1;-1;5;2787;2969;842;256;0.07617728;-0.1897507;-0.6759003;-0.7080611;0;-46;4;5;4282;779;128;-0.06094183;0.2728532;0.5831025;0.762777;0;1;-6;-899;3873;1326;4;-0.6052631;0.2174515;-0.433518;-0.6312159;0;-1;0;2293;3276;278;16;0.7174128;-0.6786703;-0.04847645;-0.1495845;-2;-5;-4;429;3920;-244;2;0.4556787;-0.6153124;-0.4764543;-0.432133;-1;2;2;1069;3960;-541;8;0.4529086;-0.8623627;0.1440443;0.1745152;0;0;0;533;3391;2241;0.5001352;2.556747;1.0317;0.5061061;3.100858;1.070807;0.5113561;3.579276;1.103165;0.6178454;4.303375;1.156108;0.4096337;4.66557;1.141603;0.05094841;4.572353;1.194465;-0.6916629;4.88531;0.7373923;-0.03115547;5.273333;1.295035;0.924441;4.589864;1.141601;1.189275;4.404951;1.194463;1.126347;3.529399;1.591607;0.477984;2.838937;1.565596;0.1878878;2.515334;1.020803;0.1325606;1.329411;0.1655934;0;0;0;0.1878878;2.515334;1.020803;0.1325606;1.329411;0.1655934;0;0;0
774864.209;NotLabelled;16384;0.7351035;0.3767313;0.5277008;0.1980609;-8;0;3;2808;-1470;2483;65536;-0.5387812;-0.614712;0.5166205;0.2548476;-3;1;-8;3775;-1488;-523;8192;0.5110803;-0.7597177;-0.3573407;-0.1842105;4;-2;-6;1492;3751;-893;32768;0.5720221;-0.7410296;0.2534626;-0.2437673;-1;-2;5;2647;2991;858;256;0.07479224;-0.1939058;-0.6745152;-0.7084038;3;-1;8;557;4072;-323;128;-0.06094183;0.2742382;0.5831025;0.7622801;0;1;-6;-923;3905;1120;4;-0.6052631;0.2174515;-0.433518;-0.6312159;3;2;0;2431;3282;298;16;0.7177001;-0.6786703;-0.04847645;-0.1481994;-3;0;-1;343;4000;-180;2;0.4556787;-0.6142374;-0.4778393;-0.432133;0;3;2;935;3962;-535;8;0.4529086;-0.8623627;0.1440443;0.1745152;0;1;0;387;3367;2219;0.4893735;2.55781;1.026418;0.4953456;3.102027;1.064026;0.5005965;3.580532;1.095065;0.6093494;4.304108;1.150504;0.4022921;4.667007;1.137118;0.0432868;4.574748;1.189487;-0.6954463;4.893729;0.7302995;-0.03537661;5.276046;1.292383;0.9168569;4.589672;1.137117;1.181077;4.403744;1.189487;1.109605;3.528987;1.586938;0.458189;2.84161;1.555992;0.1771258;2.516367;1.015645;0.1290202;1.330444;0.1599981;0;0;0;0.1771258;2.516367;1.015645;0.1290202;1.330444;0.1599981;0;0;0
774884.2267;NotLabelled;16384;0.735757;0.3781163;0.5263157;0.1966759;-7;0;3;2826;-1448;2449;65536;-0.5387812;-0.614136;0.5166205;0.2562327;-3;3;-6;3853;-1518;-443;8192;0.5110803;-0.7600307;-0.3559557;-0.1855956;4;-3;-6;1538;3811;-901;32768;0.5720221;-0.7405544;0.2548476;-0.2437673;-1;-3;6;2721;3093;760;256;0.0734072;-0.1939058;-0.6745152;-0.7085486;3;0;8;555;4024;-385;128;-0.05955679;0.2742382;0.5831025;0.7623896;0;0;-6;-875;3935;1264;4;-0.6052631;0.2188366;-0.432133;-0.6316868;4;7;1;2433;3380;448;16;0.7176052;-0.6786703;-0.04986149;-0.1481994;-3;9;0;407;4130;-144;2;0.4542936;-0.6142874;-0.4778393;-0.433518;0;4;0;875;3980;-397;8;0.4529086;-0.8623627;0.1440443;0.1745152;0;1;0;295;3333;2223;0.4821748;2.558153;1.026277;0.488147;3.102364;1.063959;0.4933979;3.580865;1.095063;0.6072271;4.303411;1.153652;0.40275;4.66782;1.141678;0.04306626;4.57788;1.193425;-0.6934879;4.896862;0.73075;-0.03534484;5.275013;1.297889;0.9167552;4.586847;1.141678;1.179619;4.398835;1.193424;1.10257;3.525047;1.591963;0.4501872;2.838828;1.556085;0.1699273;2.516711;1.015498;0.1258839;1.330789;0.1596323;0;0;0;0.1699273;2.516711;1.015498;0.1258839;1.330789;0.1596323;0;0;0
774904.3892;NotLabelled;16384;0.7354128;0.3795014;0.5263157;0.1952908;-5;3;3;2896;-1538;2411;65536;-0.5387812;-0.6129729;0.5166205;0.2590028;-2;0;-5;3659;-1504;-441;8192;0.5110803;-0.7600307;-0.3559557;-0.1855956;4;-2;-5;1618;3795;-835;32768;0.5720221;-0.7400764;0.2562327;-0.2437673;0;-4;6;2735;3083;852;256;0.0734072;-0.1966759;-0.6745152;-0.7077847;1;0;6;599;4066;-333;128;-0.05955679;0.2756233;0.5844875;0.760828;2;1;-4;-935;3849;1228;4;-0.6066482;0.2202216;-0.432133;-0.6298742;0;9;2;2325;3406;492;16;0.7159071;-0.6800554;-0.05124654;-0.1495845;-4;14;0;739;4060;-14;2;0.4542936;-0.6132075;-0.4792244;-0.433518;0;5;0;959;4002;-331;8;0.4529086;-0.8623627;0.1440443;0.1745152;0;0;0;353;3419;2321;0.4761555;2.559017;1.024235;0.4821273;3.103208;1.062207;0.487378;3.581692;1.093566;0.6026228;4.303988;1.152479;0.398863;4.668803;1.14065;0.0389998;4.579548;1.192333;-0.6965657;4.902733;0.7310047;-0.03562945;5.27894;1.296185;0.912708;4.586821;1.140649;1.175199;4.398268;1.192331;1.096046;3.523717;1.588779;0.4424108;2.838653;1.553627;0.1639079;2.517581;1.013432;0.123853;1.331168;0.1580506;0;0;0;0.1639079;2.517581;1.013432;0.123853;1.331168;0.1580506;0;0;0
774925.172;NotLabelled;16384;0.7350631;0.3808864;0.5263157;0.1939058;-2;3;4;2796;-1516;2377;65536;-0.5373961;-0.6130198;0.5180055;0.2590028;0;-2;-4;3703;-1486;-465;8192;0.5110803;-0.7609829;-0.3531856;-0.1869806;2;-1;-5;1564;3679;-907;32768;0.5706371;-0.7397237;0.2590028;-0.2451524;1;-4;6;2533;2945;910;256;0.07202215;-0.1980609;-0.6731302;-0.7088586;1;0;5;631;3918;-301;128;-0.05817174;0.2756233;0.5844875;0.7609351;2;3;-2;-909;3805;1274;4;-0.6080332;0.2202216;-0.4307479;-0.6294873;0;7;2;2167;3310;496;16;0.7140034;-0.6814404;-0.05124654;-0.1523546;-6;0;-2;755;4038;-126;2;0.4542936;-0.6110326;-0.4819945;-0.433518;0;4;0;609;3996;-353;8;0.4529086;-0.8625929;0.1426593;0.1745152;-3;0;0;315;3415;2169;0.4755597;2.560416;1.018482;0.4815328;3.10473;1.05466;0.4867847;3.583315;1.084441;0.6048445;4.305153;1.143391;0.4025088;4.67076;1.131579;0.04229972;4.582906;1.183254;-0.6910403;4.909089;0.7204943;-0.02901495;5.281397;1.286981;0.9160301;4.586775;1.131578;1.177783;4.397198;1.183253;1.096723;3.522647;1.579315;0.4420598;2.838741;1.540908;0.1633117;2.518945;1.007827;0.1258631;1.331478;0.1537904;0;0;0;0.1633117;2.518945;1.007827;0.1258631;1.331478;0.1537904;0;0;0
774967.2398;NotLabelled;16384;0.7356983;0.3822715;0.5249307;0.1925208;0;1;5;2810;-1540;2381;65536;-0.5373961;-0.6124327;0.5180055;0.2603878;1;-2;-5;3687;-1378;-535;8192;0.5110803;-0.7606413;-0.3531856;-0.1883656;2;-1;-5;1532;3733;-919;32768;0.5720221;-0.7386532;0.2590028;-0.2451524;1;-3;5;2647;2975;848;256;0.07202215;-0.1980609;-0.6731302;-0.7088586;1;0;5;603;3894;-335;128;-0.05817174;0.2756233;0.5858725;0.7598693;0;4;-2;-919;3811;1262;4;-0.6094183;0.2216066;-0.4307479;-0.6276593;0;4;1;2091;3320;446;16;0.7142975;-0.6814404;-0.05124654;-0.1509695;-4;-10;-3;565;4022;-68;2;0.4542936;-0.6110326;-0.4819945;-0.433518;-1;0;0;531;4030;-451;8;0.4515235;-0.8633187;0.1426593;0.1745152;-4;0;0;307;3465;2119;0.4806189;2.557822;1.019222;0.4865918;3.102116;1.055686;0.4918435;3.580686;1.08572;0.612147;4.301892;1.147777;0.4109783;4.668185;1.13736;0.05045691;4.581257;1.188419;-0.6828487;4.910432;0.7277282;-0.02215368;5.280499;1.297228;0.9242311;4.582573;1.137359;1.185346;4.391953;1.188418;1.099941;3.516521;1.581611;0.4408534;2.836899;1.542848;0.1683708;2.516356;1.008543;0.1331731;1.331038;0.1514322;0;0;0;0.1683708;2.516356;1.008543;0.1331731;1.331038;0.1514322;0;0;0
774988.1554;NotLabelled;16384;0.7356983;0.3822715;0.5249307;0.1925208;0;1;4;2782;-1532;2415;65536;-0.5373961;-0.6112586;0.5193906;0.2603878;2;-3;-4;3673;-1464;-515;8192;0.5110803;-0.7606413;-0.3531856;-0.1883656;2;0;-6;1552;3783;-947;32768;0.5720221;-0.7381661;0.2603878;-0.2451524;3;-3;3;2663;3047;814;256;0.07063711;-0.199446;-0.6731302;-0.7086096;1;-2;4;621;3960;-379;128;-0.05817174;0.2756233;0.5858725;0.7598693;-1;3;-2;-909;3845;1242;4;-0.6080332;0.2216066;-0.4307479;-0.6290011;-1;-5;0;2061;3334;444;16;0.7139389;-0.6828254;-0.04986149;-0.1468144;0;-13;-2;639;4056;-126;2;0.4542936;-0.6121226;-0.4806094;-0.433518;0;-4;-1;637;3998;-509;8;0.4515235;-0.8633187;0.1426593;0.1745152;-5;1;0;361;3401;2167;0.4792711;2.559265;1.01657;0.4852455;3.103682;1.05116;0.4904983;3.582351;1.079546;0.6108019;4.303558;1.141603;0.4096333;4.66985;1.131186;0.04911178;4.582923;1.182245;-0.6820469;4.916281;0.7211493;-0.01961127;5.284389;1.289895;0.9228863;4.584239;1.131185;1.184001;4.393619;1.182244;1.097004;3.51758;1.573731;0.4388961;2.837175;1.532127;0.1670228;2.517763;1.006046;0.1307884;1.331386;0.1504436;0;0;0;0.1670228;2.517763;1.006046;0.1307884;1.331386;0.1504436;0;0;0
775008.6159;NotLabelled;16384;0.7366846;0.3822715;0.5235457;0.1925208;1;0;4;2720;-1494;2447;65536;-0.536011;-0.6118844;0.5207756;0.2590028;4;-3;-3;3677;-1502;-561;8192;0.5110803;-0.7606413;-0.3531856;-0.1883656;2;2;-5;1632;3879;-963;32768;0.5720221;-0.7381661;0.2603878;-0.2451524;4;-2;3;2611;3045;840;256;0.07063711;-0.200831;-0.6731302;-0.7082183;2;0;3;587;4036;-283;128;-0.0567867;0.2756233;0.5844875;0.7610397;0;-3;-3;-905;3861;1264;4;-0.6080332;0.2202216;-0.432133;-0.6285373;-1;-9;0;2229;3274;480;16;0.715261;-0.6814404;-0.04986149;-0.1468144;1;0;-2;245;3992;-130;2;0.4556787;-0.6110922;-0.4806094;-0.433518;0;-6;0;739;3980;-513;8;0.4515235;-0.8638252;0.1412742;0.1731302;-4;4;0;273;3415;2237;0.4743536;2.560942;1.00959;0.4803279;3.105359;1.04418;0.4855806;3.584028;1.072566;0.6087042;4.304729;1.134959;0.4089731;4.671813;1.124692;0.04810995;4.586275;1.175684;-0.6830434;4.919632;0.7145802;-0.01999554;5.285862;1.283826;0.9218866;4.58419;1.124691;1.182249;4.392526;1.175684;1.095247;3.516486;1.567169;0.435973;2.837253;1.524896;0.1621052;2.51944;0.9990658;0.1285215;1.332269;0.144456;0;0;0;0.1621052;2.51944;0.9990658;0.1285215;1.332269;0.144456;0;0;0
775030.1614;NotLabelled;16384;0.737667;0.3822715;0.5221606;0.1925208;3;0;4;2750;-1498;2517;65536;-0.536011;-0.6107029;0.5221606;0.2590028;4;-3;-2;3707;-1508;-595;8192;0.5110803;-0.75995;-0.3531856;-0.1911357;2;5;-3;1526;3883;-791;32768;0.5734072;-0.7371168;0.2590028;-0.2465374;4;0;2;2699;3095;874;256;0.07063711;-0.200831;-0.6731302;-0.7082183;1;0;2;593;4006;-375;128;-0.05817174;0.2770083;0.5844875;0.760432;0;-5;-3;-903;3857;1254;4;-0.6066482;0.2188366;-0.432133;-0.6303567;-2;-11;2;2329;3310;436;16;0.7151631;-0.6814404;-0.05124654;-0.1468144;1;8;-2;573;4164;-98;2;0.4556787;-0.612179;-0.4792244;-0.433518;0;-7;0;791;4026;-421;8;0.4515235;-0.8638252;0.1412742;0.1731302;-4;5;1;253;3403;2255;0.4745179;2.560162;1.015101;0.4804907;3.104437;1.051849;0.4857422;3.582991;1.082132;0.6102293;4.303449;1.144625;0.4112203;4.670921;1.13424;0.05015823;4.586085;1.184997;-0.6766739;4.918789;0.7166463;-0.01797214;5.284733;1.291097;0.9239619;4.5823;1.134568;1.183918;4.390127;1.185723;1.094866;3.515645;1.580219;0.4357113;2.836412;1.536123;0.1622701;2.518702;1.004399;0.1254898;1.332033;0.1492249;0;0;0;0.1622701;2.518702;1.004399;0.1254898;1.332033;0.1492249;0;0;0
775051.4108;NotLabelled;16384;0.737667;0.3822715;0.5221606;0.1925208;2;0;2;2758;-1450;2531;65536;-0.534626;-0.6119158;0.5221606;0.2590028;4;-4;-3;3709;-1604;-547;8192;0.5110803;-0.75995;-0.3531856;-0.1911357;1;3;-2;1480;3829;-867;32768;0.5734072;-0.7371168;0.2590028;-0.2465374;4;0;3;2565;3013;978;256;0.07063711;-0.2022161;-0.6731302;-0.7078241;0;0;3;617;4026;-339;128;-0.05817174;0.2770083;0.5844875;0.760432;0;-4;-3;-1027;3883;1282;4;-0.6066482;0.2188366;-0.432133;-0.6303567;-5;-2;2;2319;3342;482;16;0.7151631;-0.6814404;-0.05124654;-0.1468144;0;0;-4;905;4086;-44;2;0.4556787;-0.612179;-0.4792244;-0.433518;0;-7;0;985;4092;-471;8;0.4501385;-0.864773;0.1398892;0.1731302;-3;6;1;271;3395;2317;0.4718324;2.559483;1.01511;0.4778051;3.103772;1.05165;0.4830568;3.582337;1.08175;0.607584;4.302795;1.144164;0.4085683;4.670268;1.133907;0.04753894;4.585432;1.184895;-0.6789617;4.921171;0.7181998;-0.01912829;5.285236;1.292547;0.9213101;4.581646;1.133906;1.181298;4.389473;1.184894;1.090832;3.512226;1.572873;0.4327271;2.832232;1.524994;0.1595844;2.518019;1.004424;0.1232815;1.3324;0.1477741;0;0;0;0.1595844;2.518019;1.004424;0.1232815;1.3324;0.1477741;0;0;0
775072.1667;NotLabelled;16384;0.7386454;0.3822715;0.5207756;0.1925208;1;0;3;2770;-1426;2665;65536;-0.534626;-0.6107311;0.5235457;0.2590028;2;-3;-2;3827;-1608;-537;8192;0.5110803;-0.7593048;-0.3545706;-0.1911357;0;3;-1;1386;3789;-821;32768;0.5734072;-0.7366287;0.2603878;-0.2465374;2;-1;2;2647;2919;890;256;0.07202215;-0.2022161;-0.6717451;-0.7089993;0;-4;3;681;3996;-419;128;-0.05817174;0.2783934;0.5844875;0.759926;-2;-2;-2;-1053;3821;1258;4;-0.6066482;0.2174515;-0.433518;-0.6298848;-5;-2;2;2415;3304;734;16;0.7151631;-0.6814404;-0.05124654;-0.1468144;0;-1;-4;671;3958;-106;2;0.4570637;-0.6121257;-0.4792244;-0.432133;0;-1;0;961;3984;-425;8;0.4501385;-0.8649959;0.1385041;0.1731302;-2;0;0;359;3357;2309;0.4696978;2.559483;1.015447;0.4756707;3.103772;1.051987;0.4809224;3.582338;1.082087;0.606853;4.302549;1.144522;0.4085541;4.670408;1.134274;0.04735985;4.586276;1.185258;-0.6771513;4.922015;0.7154803;-0.02034235;5.285706;1.293518;0.9211221;4.580789;1.134273;1.180735;4.388108;1.185257;1.088622;3.510861;1.572848;0.4306199;2.830867;1.523571;0.15745;2.518019;1.004761;0.1229672;1.332401;0.1480356;0;0;0;0.15745;2.518019;1.004761;0.1229672;1.332401;0.1480356;0;0;0
775092.4655;NotLabelled;16384;0.7393606;0.3808864;0.5207756;0.1925208;1;0;3;2750;-1506;2635;65536;-0.534626;-0.6107311;0.5235457;0.2590028;1;-2;-1;3835;-1518;-583;8192;0.5110803;-0.7589548;-0.3545706;-0.1925208;0;2;-1;1288;3747;-865;32768;0.5734072;-0.7366287;0.2603878;-0.2465374;1;-3;2;2703;2823;786;256;0.07202215;-0.2036011;-0.6717451;-0.7086028;0;-5;3;655;4018;-321;128;-0.05817174;0.2783934;0.5844875;0.759926;-2;0;-1;-977;3795;1212;4;-0.6080332;0.2160665;-0.433518;-0.6290255;-7;0;0;2221;3348;566;16;0.7153455;-0.6814404;-0.05263158;-0.1454294;3;5;-3;459;4008;82;2;0.4570637;-0.6121257;-0.4792244;-0.432133;0;-1;0;903;3974;-483;8;0.4487534;-0.8657153;0.1385041;0.1731302;-1;2;0;395;3353;2253;0.4730786;2.558979;1.016259;0.4790514;3.103263;1.052876;0.484303;3.581823;1.083044;0.6082292;4.302167;1.147931;0.4089323;4.669515;1.138779;0.04793918;4.584229;1.189268;-0.6735987;4.92109;0.7157321;-0.01729476;5.282899;1.295521;0.9217433;4.581295;1.13879;1.181851;4.389157;1.189293;1.090338;3.512084;1.577422;0.4312692;2.833266;1.526213;0.1608307;2.517516;1.005567;0.1226442;1.3324;0.1483035;0;0;0;0.1608307;2.517516;1.005567;0.1226442;1.3324;0.1483035;0;0;0
775113.18;NotLabelled;16384;0.7393606;0.3808864;0.5207756;0.1925208;0;1;0;2750;-1418;2609;65536;-0.534626;-0.6107311;0.5235457;0.2590028;0;-1;0;3609;-1568;-619;8192;0.5110803;-0.7596003;-0.3531856;-0.1925208;0;0;-2;1298;3707;-971;32768;0.5747922;-0.7350566;0.2617728;-0.2465374;0;-4;2;2825;2895;760;256;0.07202215;-0.2049861;-0.6717451;-0.7082034;1;-1;2;631;4086;-295;128;-0.05817174;0.2783934;0.5844875;0.759926;0;0;-2;-989;3879;1214;4;-0.6080332;0.2160665;-0.434903;-0.6280686;-7;0;-1;2167;3270;512;16;0.7153455;-0.6814404;-0.05263158;-0.1454294;3;-1;-3;777;4158;-360;2;0.4570637;-0.6131012;-0.4792244;-0.4307479;0;-3;0;837;3982;-437;8;0.4487534;-0.8659911;0.1385041;0.1717452;-2;2;0;407;3445;2237;0.4700738;2.556992;1.017707;0.4760467;3.101276;1.054324;0.4812983;3.579836;1.084492;0.6066276;4.299935;1.149399;0.4080459;4.667671;1.140261;0.04688817;4.583086;1.190754;-0.6740984;4.918621;0.7154394;-0.01901698;5.280432;1.29661;0.9206841;4.578453;1.14026;1.180418;4.385807;1.190753;1.087585;3.508075;1.577076;0.4286253;2.829259;1.524478;0.157826;2.515529;1.007015;0.1176661;1.333086;0.146158;0;0;0;0.157826;2.515529;1.007015;0.1176661;1.333086;0.146158;0;0;0
775134.2014;NotLabelled;16384;0.7397198;0.3808864;0.5207756;0.1911357;0;1;0;2724;-1478;2639;65536;-0.536011;-0.6083235;0.5249307;0.2590028;0;-1;-1;3657;-1610;-651;8192;0.5110803;-0.7596003;-0.3531856;-0.1925208;2;-1;-2;1340;3915;-943;32768;0.5747922;-0.7345619;0.2631579;-0.2465374;0;-3;2;2867;2973;858;256;0.07202215;-0.2049861;-0.6717451;-0.7082034;0;1;2;709;4042;-311;128;-0.05817174;0.2797784;0.5844875;0.7594172;-1;-2;-2;-1015;3955;1192;4;-0.6080332;0.2146814;-0.434903;-0.6285434;-6;-3;1;2465;3254;278;16;0.716839;-0.6800554;-0.05401662;-0.1440443;3;-4;-6;393;4194;-336;2;0.4570637;-0.6131012;-0.4792244;-0.4307479;1;-1;0;783;3994;-567;8;0.4487534;-0.8659911;0.1385041;0.1717452;-1;0;1;411;3487;2197;0.472134;2.558323;1.016011;0.4781067;3.102608;1.052628;0.4833584;3.581168;1.082796;0.6100894;4.30102;1.147725;0.4122244;4.669142;1.138597;0.05090237;4.585259;1.189086;-0.6690697;4.920794;0.7122362;-0.01522842;5.282605;1.294801;0.9246877;4.578926;1.138596;1.184046;4.385772;1.189085;1.088922;3.507925;1.574584;0.42992;2.829533;1.517239;0.1598859;2.516861;1.005319;0.1173544;1.333086;0.1464085;0;0;0;0.1598859;2.516861;1.005319;0.1173544;1.333086;0.1464085;0;0;0
775155.3978;NotLabelled;16384;0.7397198;0.3808864;0.5207756;0.1911357;-1;1;0;2822;-1446;2673;65536;-0.536011;-0.6083235;0.5249307;0.2590028;0;-1;-2;3727;-1622;-677;8192;0.5110803;-0.7598907;-0.3518005;-0.1939058;2;-1;-2;1430;3855;-947;32768;0.5747922;-0.7345619;0.2631579;-0.2465374;0;-1;2;2725;2921;900;256;0.07202215;-0.2049861;-0.6717451;-0.7082034;0;0;2;717;4048;-317;128;-0.05817174;0.2797784;0.5844875;0.7594172;1;-2;-2;-1009;3841;1168;4;-0.6080332;0.2132964;-0.434903;-0.6290147;-4;-1;4;2583;3118;326;16;0.7171159;-0.6800554;-0.05401662;-0.1426593;4;-2;-4;431;3992;-144;2;0.4570637;-0.6141812;-0.4778393;-0.4307479;0;0;-1;837;4044;-469;8;0.4487534;-0.8659911;0.1385041;0.1717452;-2;1;1;259;3343;2287;0.4661919;2.55687;1.020465;0.4721646;3.101148;1.05716;0.4774161;3.579705;1.087397;0.6041471;4.299556;1.152325;0.4062821;4.667678;1.143197;0.0449602;4.583795;1.193686;-0.6744449;4.92092;0.7171026;-0.01802841;5.281208;1.297711;0.9187455;4.577462;1.143196;1.178104;4.384309;1.193685;1.082989;3.506461;1.579187;0.4228124;2.829255;1.52134;0.1539439;2.515408;1.009767;0.1100317;1.333494;0.1483675;0;0;0;0.1539439;2.515408;1.009767;0.1100317;1.333494;0.1483675;0;0;0
775176.284;NotLabelled;16384;0.7397198;0.3808864;0.5207756;0.1911357;-1;2;1;2810;-1450;2593;65536;-0.536011;-0.6083235;0.5249307;0.2590028;0;0;-1;3843;-1494;-617;8192;0.5110803;-0.7598907;-0.3518005;-0.1939058;2;-1;-1;1402;3713;-973;32768;0.5734072;-0.7351466;0.2645429;-0.2465374;0;0;3;2619;2885;884;256;0.07202215;-0.2063712;-0.6717451;-0.707801;-1;0;3;697;3932;-317;128;-0.05817174;0.2797784;0.5844875;0.7594172;4;-2;-2;-981;3795;1140;4;-0.6094183;0.2132964;-0.434903;-0.627673;-5;1;6;2445;3220;492;16;0.7171159;-0.6800554;-0.05401662;-0.1426593;2;-2;-3;537;4118;-130;2;0.4570637;-0.6141812;-0.4778393;-0.4307479;0;-1;-1;885;3948;-459;8;0.4487534;-0.8659911;0.1385041;0.1717452;-1;1;0;389;3377;2337;0.4652129;2.555311;1.021933;0.4711857;3.09959;1.058628;0.4764372;3.578146;1.088865;0.6031683;4.297997;1.153793;0.4053033;4.66612;1.144665;0.04398131;4.582236;1.195154;-0.6754124;4.919361;0.7185535;-0.01899597;5.279649;1.299162;0.9177666;4.575903;1.144664;1.177125;4.382751;1.195153;1.079191;3.504195;1.57833;0.4190139;2.826989;1.520483;0.152965;2.513849;1.011235;0.1076626;1.3338;0.1473549;0;0;0;0.152965;2.513849;1.011235;0.1076626;1.3338;0.1473549;0;0;0
775197.1582;NotLabelled;16384;0.7397198;0.3808864;0.5207756;0.1911357;-1;2;1;2794;-1496;2577;65536;-0.536011;-0.6083235;0.5249307;0.2590028;0;0;-1;3699;-1452;-607;8192;0.5110803;-0.7602428;-0.3518005;-0.1925208;1;-1;0;1392;3661;-899;32768;0.5734072;-0.7351466;0.2645429;-0.2465374;-1;0;2;2621;2837;842;256;0.07202215;-0.2063712;-0.6731302;-0.706484;-2;-1;3;695;3960;-301;128;-0.05817174;0.2811634;0.5858725;0.7578368;7;-1;-3;-1033;3757;1100;4;-0.6121883;0.2119114;-0.433518;-0.6264033;-1;7;6;2473;3216;588;16;0.7175558;-0.6800554;-0.05540166;-0.1398892;2;-10;-7;403;3946;-352;2;0.4570637;-0.6131012;-0.4792244;-0.4307479;0;1;0;859;3996;-437;8;0.4487534;-0.8662115;0.1371191;0.1717452;-1;0;0;239;3363;2269;0.4654446;2.554467;1.023285;0.4714174;3.098746;1.059979;0.4766688;3.577303;1.090216;0.604802;4.296904;1.155167;0.4076547;4.665411;1.146049;0.04616967;4.582231;1.196533;-0.6722059;4.919355;0.718399;-0.01702911;5.279643;1.300407;0.9199414;4.574197;1.146048;1.178923;4.380537;1.196533;1.080171;3.501981;1.5795;0.4179298;2.826715;1.522584;0.1531967;2.513006;1.012586;0.1073484;1.3338;0.1475841;0;0;0;0.1531967;2.513006;1.012586;0.1073484;1.3338;0.1475841;0;0;0
775218.2159;NotLabelled;16384;0.741049;0.3808864;0.5193906;0.1897507;0;3;2;2662;-1522;2545;65536;-0.536011;-0.6083235;0.5249307;0.2590028;-1;-2;-2;3615;-1482;-549;8192;0.5110803;-0.7608821;-0.3504155;-0.1925208;0;-1;0;1342;3633;-933;32768;0.5734072;-0.7351466;0.2645429;-0.2465374;-1;-2;2;2749;2773;858;256;0.07202215;-0.2063712;-0.6731302;-0.706484;-2;-1;2;683;3888;-279;128;-0.05817174;0.2811634;0.5858725;0.7578368;4;0;-3;-971;3713;1272;4;-0.6121883;0.2105263;-0.433518;-0.6268702;-1;-4;4;2319;3268;496;16;0.7180903;-0.6800554;-0.05540166;-0.1371191;1;-7;-7;273;3924;-2;2;0.4570637;-0.6121257;-0.4792244;-0.432133;0;0;0;745;4016;-505;8;0.4473684;-0.8669276;0.1371191;0.1717452;-3;0;0;301;3415;2193;0.4607044;2.55052;1.026173;0.4666786;3.094917;1.06107;0.4719312;3.573571;1.089726;0.6006632;4.29331;1.151909;0.4037944;4.661933;1.141548;0.04227898;4.579221;1.192582;-0.6759857;4.916346;0.7142811;-0.02062172;5.276634;1.296078;0.9160105;4.570322;1.141547;1.174876;4.376651;1.192581;1.077375;3.49869;1.577228;0.4151153;2.823424;1.520525;0.1484562;2.509024;1.015623;0.1003791;1.334724;0.1440911;0;0;0;0.1484562;2.509024;1.015623;0.1003791;1.334724;0.1440911;0;0;0
775239.2968;NotLabelled;16384;0.741049;0.3808864;0.5193906;0.1897507;0;4;2;2710;-1540;2485;65536;-0.536011;-0.6071256;0.5263157;0.2590028;0;-3;-2;3669;-1368;-651;8192;0.5110803;-0.7608821;-0.3504155;-0.1925208;0;-3;-1;1378;3717;-999;32768;0.5734072;-0.7346467;0.265928;-0.2465374;-1;-2;2;2805;2821;748;256;0.07202215;-0.2077562;-0.6731302;-0.7060779;0;0;3;701;3910;-327;128;-0.05817174;0.2811634;0.5872576;0.7567639;0;0;-1;-1085;3749;1284;4;-0.6121883;0.2105263;-0.433518;-0.6268702;0;-9;2;2179;3088;388;16;0.7183534;-0.6800554;-0.05540166;-0.1357341;-1;-9;-6;611;3882;66;2;0.4570637;-0.6121257;-0.4792244;-0.432133;0;-1;-1;593;3962;-501;8;0.4473684;-0.8669276;0.1371191;0.1717452;-3;-2;0;381;3391;2221;0.4573632;2.549196;1.026602;0.4633374;3.093594;1.061499;0.46859;3.572247;1.090155;0.597322;4.291986;1.152338;0.4004532;4.66061;1.141977;0.03893778;4.577898;1.193011;-0.6770711;4.917784;0.7132845;-0.02170777;5.278071;1.295082;0.9126693;4.568998;1.141976;1.171535;4.375328;1.193011;1.072781;3.497256;1.577085;0.4105214;2.82199;1.520381;0.145115;2.5077;1.016052;0.0956458;1.33529;0.1420579;0;0;0;0.145115;2.5077;1.016052;0.0956458;1.33529;0.1420579;0;0;0
775259.2296;NotLabelled;16384;0.7421122;0.3795014;0.5193906;0.1883656;0;3;0;2620;-1500;2469;65536;-0.536011;-0.6071256;0.5263157;0.2590028;0;-3;-1;3639;-1344;-655;8192;0.5110803;-0.7615185;-0.3490305;-0.1925208;0;-2;-3;1476;3767;-1057;32768;0.5734072;-0.7341439;0.267313;-0.2465374;0;-2;1;2775;2973;682;256;0.07202215;-0.2091413;-0.6731302;-0.7056689;1;0;2;735;3968;-279;128;-0.05817174;0.2825485;0.5858725;0.7573215;-1;0;0;-987;3839;1310;4;-0.6108033;0.2091413;-0.433518;-0.6286823;0;-1;2;2321;3118;522;16;0.7171453;-0.6814404;-0.05401662;-0.1357341;-6;-6;-1;491;3906;142;2;0.4570637;-0.6132075;-0.4778393;-0.432133;0;-3;-2;713;4056;-475;8;0.4473684;-0.8669276;0.1371191;0.1717452;-4;0;0;305;3423;2289;0.4528359;2.549508;1.025731;0.4588112;3.094022;1.05875;0.4640649;3.572772;1.085753;0.5942028;4.292256;1.147958;0.3980547;4.661264;1.137607;0.03637826;4.579257;1.188637;-0.6783261;4.919143;0.7069689;-0.02345076;5.277534;1.290485;0.9100908;4.568652;1.137606;1.168577;4.374474;1.188636;1.068781;3.496402;1.572441;0.4054769;2.822327;1.513822;0.1405873;2.507976;1.015337;0.09297888;1.335565;0.1412398;0;0;0;0.1405873;2.507976;1.015337;0.09297888;1.335565;0.1412398;0;0;0
775280.1576;NotLabelled;16384;0.7421122;0.3795014;0.5193906;0.1883656;0;1;0;2708;-1522;2519;65536;-0.536011;-0.605922;0.5277008;0.2590028;0;-1;-1;3703;-1460;-801;8192;0.5110803;-0.7615185;-0.3490305;-0.1925208;0;0;-2;1480;3871;-1061;32768;0.5734072;-0.7341439;0.267313;-0.2465374;1;-2;1;2831;2957;778;256;0.07202215;-0.2091413;-0.6731302;-0.7056689;1;0;2;711;3964;-347;128;-0.05817174;0.2825485;0.5858725;0.7573215;0;0;-1;-971;3813;1326;4;-0.6121883;0.2091413;-0.433518;-0.6273336;-2;1;2;2535;3254;766;16;0.7158267;-0.6828254;-0.05401662;-0.1357341;-5;9;0;319;4024;44;2;0.4570637;-0.6132075;-0.4778393;-0.432133;0;0;0;937;4022;-631;8;0.4459834;-0.867914;0.1371191;0.1703601;-2;0;0;413;3329;2373;0.4546384;2.548396;1.024678;0.4606124;3.092788;1.059653;0.465865;3.571438;1.088378;0.597409;4.290665;1.150605;0.4019828;4.660055;1.140264;0.04014635;4.578754;1.191289;-0.6729339;4.918818;0.7073448;-0.0193038;5.277208;1.292256;0.9138369;4.566442;1.140263;1.171943;4.371758;1.191288;1.07033;3.493579;1.57437;0.4059872;2.820697;1.513832;0.1423901;2.506902;1.014121;0.09762116;1.335521;0.1384945;0;0;0;0.1423901;2.506902;1.014121;0.09762116;1.335521;0.1384945;0;0;0
775301.1812;NotLabelled;16384;0.7421122;0.3795014;0.5193906;0.1883656;0;-1;0;2770;-1536;2557;65536;-0.536011;-0.605922;0.5277008;0.2590028;1;0;-2;3733;-1540;-785;8192;0.5110803;-0.7615185;-0.3490305;-0.1925208;0;1;-3;1500;3873;-1035;32768;0.5734072;-0.7341439;0.267313;-0.2465374;2;-1;1;2833;3011;806;256;0.07202215;-0.2105263;-0.6731302;-0.7052569;1;1;1;753;4020;-339;128;-0.05817174;0.2825485;0.5858725;0.7573215;0;-1;-1;-937;3763;1352;4;-0.6135734;0.2077562;-0.433518;-0.6264401;0;0;2;2357;3376;560;16;0.7153482;-0.6828254;-0.0567867;-0.1371191;-3;5;-2;669;4168;-250;2;0.4570637;-0.6132075;-0.4778393;-0.432133;0;1;0;845;3970;-529;8;0.4459834;-0.867914;0.1371191;0.1703601;-3;0;0;285;3399;2269;0.4596751;2.547783;1.02132;0.4656491;3.092175;1.056295;0.4709018;3.570824;1.08502;0.6024457;4.290051;1.147247;0.4070195;4.659442;1.136906;0.04518297;4.578141;1.187932;-0.6675979;4.918204;0.7035463;-0.01321909;5.274693;1.288782;0.9188734;4.565829;1.136905;1.176979;4.371145;1.18793;1.07513;3.492965;1.57095;0.4107871;2.820083;1.510411;0.1474268;2.506288;1.010763;0.1002894;1.335771;0.1341071;0;0;0;0.1474268;2.506288;1.010763;0.1002894;1.335771;0.1341071;0;0;0
775321.3242;NotLabelled;16384;0.7414023;0.3808864;0.5193906;0.1883656;0;-2;0;2744;-1494;2629;65536;-0.536011;-0.605922;0.5277008;0.2590028;3;2;0;3777;-1510;-749;8192;0.5110803;-0.7615185;-0.3490305;-0.1925208;0;2;-2;1518;3785;-929;32768;0.5734072;-0.7341439;0.267313;-0.2465374;3;0;1;2711;2989;766;256;0.07202215;-0.2105263;-0.6731302;-0.7052569;2;1;1;723;3986;-383;128;-0.05817174;0.2825485;0.5858725;0.7573215;-1;-3;-1;-1009;3891;1298;4;-0.6135734;0.2077562;-0.432133;-0.6273963;0;-2;4;2265;3364;492;16;0.7153482;-0.6828254;-0.0567867;-0.1371191;-5;0;-2;521;4242;-284;2;0.4570637;-0.6132075;-0.4778393;-0.432133;0;-1;0;767;4066;-441;8;0.4459834;-0.867914;0.1371191;0.1703601;-3;0;0;313;3381;2263;0.4591177;2.545354;1.023274;0.4650918;3.089746;1.05825;0.4703444;3.568396;1.086974;0.6032946;4.287362;1.149224;0.4085914;4.657134;1.138893;0.04659617;4.57654;1.189913;-0.6641114;4.916603;0.702491;-0.01098287;5.273091;1.289122;0.9202614;4.562521;1.138892;1.177985;4.367331;1.189913;1.074503;3.489151;1.572494;0.4102906;2.816269;1.510538;0.1468695;2.50386;1.012717;0.09784237;1.336116;0.1324742;0;0;0;0.1468695;2.50386;1.012717;0.09784237;1.336116;0.1324742;0;0;0
775342.593;NotLabelled;16384;0.7414023;0.3808864;0.5193906;0.1883656;-1;-1;-1;2756;-1524;2687;65536;-0.534626;-0.6071445;0.5277008;0.2590028;1;3;0;3783;-1470;-609;8192;0.5110803;-0.761167;-0.3490305;-0.1939058;0;4;-2;1388;3893;-971;32768;0.5747922;-0.7325928;0.267313;-0.2479224;2;0;0;2821;2933;876;256;0.07202215;-0.2105263;-0.6717451;-0.7065762;1;0;1;687;4040;-311;128;-0.05817174;0.2839335;0.5844875;0.7578735;-5;-2;0;-1045;3923;1286;4;-0.6135734;0.2077562;-0.432133;-0.6273963;-1;-3;4;2157;3374;574;16;0.7140235;-0.6842105;-0.0567867;-0.1371191;-3;0;-2;307;4170;-252;2;0.4570637;-0.6141812;-0.4778393;-0.4307479;0;-4;-1;821;3998;-395;8;0.4445983;-0.8686243;0.1371191;0.1703601;-3;1;0;315;3429;2283;0.4549024;2.544024;1.025259;0.4608763;3.088416;1.060235;0.4661289;3.567066;1.08896;0.5990793;4.286032;1.151209;0.4043761;4.655805;1.140878;0.04238114;4.57521;1.191899;-0.6699648;4.916678;0.7078625;-0.01683557;5.273167;1.294493;0.916046;4.561191;1.140877;1.17377;4.366;1.191898;1.071105;3.487821;1.574698;0.4068928;2.814939;1.512744;0.1426542;2.50253;1.014703;0.09784248;1.336115;0.1324742;0;0;0;0.1426542;2.50253;1.014703;0.09784248;1.336115;0.1324742;0;0;0
775363.4044;NotLabelled;16384;0.7414023;0.3808864;0.5193906;0.1883656;-1;-1;-2;2830;-1628;2635;65536;-0.534626;-0.6065518;0.5277008;0.2603878;0;3;0;3879;-1596;-507;8192;0.5110803;-0.761167;-0.3490305;-0.1939058;0;1;-1;1362;3969;-903;32768;0.5747922;-0.7325928;0.267313;-0.2479224;0;0;0;2841;2943;988;256;0.07202215;-0.2105263;-0.6717451;-0.7065762;1;0;0;705;4144;-315;128;-0.05817174;0.2839335;0.5844875;0.7578735;-4;1;0;-1013;3981;1094;4;-0.6135734;0.2063712;-0.433518;-0.6268978;-4;-3;3;2263;3366;772;16;0.7139121;-0.6842105;-0.05817174;-0.1371191;-1;9;-3;441;4138;-110;2;0.4584487;-0.6131481;-0.4778393;-0.4307479;-1;-5;-2;993;4102;-393;8;0.4445983;-0.8688418;0.1357341;0.1703601;-2;4;1;289;3389;2369;0.4572629;2.544214;1.021084;0.4632355;3.088476;1.058015;0.4684868;3.56702;1.08846;0.6008281;4.285852;1.15348;0.405841;4.655508;1.144392;0.0438745;4.57444;1.194863;-0.6686114;4.915908;0.7110323;-0.01752242;5.272044;1.300139;0.9175852;4.561297;1.144392;1.175428;4.36612;1.194862;1.07154;3.487354;1.575982;0.4073358;2.814935;1.509095;0.145015;2.502758;1.010366;0.1004963;1.336343;0.1281228;0;0;0;0.145015;2.502758;1.010366;0.1004963;1.336343;0.1281228;0;0;0
775384.3722;NotLabelled;16384;0.7404301;0.3808864;0.5207756;0.1883656;-1;0;-1;2844;-1568;2647;65536;-0.534626;-0.6065518;0.5277008;0.2603878;-1;2;0;3841;-1536;-477;8192;0.5110803;-0.7608128;-0.3490305;-0.1952908;0;0;-1;1314;3895;-907;32768;0.5747922;-0.7325928;0.267313;-0.2479224;0;0;0;2823;2897;1024;256;0.07202215;-0.2105263;-0.6717451;-0.7065762;0;0;1;725;4160;-271;128;-0.05817174;0.2839335;0.5844875;0.7578735;0;0;0;-937;4031;1092;4;-0.6135734;0.2063712;-0.433518;-0.6268978;-3;-3;3;2415;3354;512;16;0.7141767;-0.6842105;-0.05817174;-0.1357341;1;-4;-5;683;4312;-102;2;0.4584487;-0.6131481;-0.4778393;-0.4307479;0;-1;-2;1121;4100;-537;8;0.4445983;-0.8688418;0.1357341;0.1703601;-1;6;1;279;3379;2471;0.460629;2.543944;1.020091;0.4666016;3.088206;1.057023;0.471853;3.56675;1.087467;0.6041942;4.285583;1.152487;0.4092071;4.655238;1.1434;0.04724064;4.57417;1.193871;-0.6649442;4.915638;0.7095968;-0.01211706;5.269789;1.297976;0.9209513;4.561027;1.143399;1.178794;4.36585;1.19387;1.074669;3.487084;1.574925;0.4104653;2.814665;1.508038;0.1483812;2.502487;1.009374;0.09824484;1.336649;0.1266694;0;0;0;0.1483812;2.502487;1.009374;0.09824484;1.336649;0.1266694;0;0;0
775405.5414;NotLabelled;16384;0.7404301;0.3808864;0.5207756;0.1883656;-1;1;-2;2840;-1464;2639;65536;-0.534626;-0.6077541;0.5263157;0.2603878;-3;1;1;3851;-1584;-441;8192;0.5110803;-0.7608128;-0.3490305;-0.1952908;0;-1;0;1402;3869;-1011;32768;0.5734072;-0.7336773;0.267313;-0.2479224;-3;0;0;2855;2983;972;256;0.07202215;-0.2119114;-0.6717451;-0.706162;-2;0;0;651;4148;-305;128;-0.05817174;0.2839335;0.5844875;0.7578735;3;-2;0;-957;4005;1114;4;-0.6135734;0.2063712;-0.433518;-0.6268978;-3;-1;2;2341;3370;496;16;0.7144385;-0.6842105;-0.05817174;-0.134349;5;-13;-8;227;4272;-50;2;0.4570637;-0.6141812;-0.4778393;-0.4307479;0;2;-1;953;4034;-439;8;0.4445983;-0.8693274;0.134349;0.1689751;0;2;0;247;3331;2351;0.4582535;2.544214;1.019052;0.4642262;3.088476;1.055983;0.4694774;3.56702;1.086427;0.6018188;4.285852;1.151447;0.4068317;4.655508;1.14236;0.04486516;4.57444;1.192831;-0.669274;4.914739;0.7106156;-0.01644668;5.268889;1.298995;0.9185758;4.561297;1.142359;1.176418;4.36612;1.19283;1.070967;3.486769;1.572167;0.4067631;2.81435;1.505281;0.1460057;2.502758;1.008334;0.09586939;1.336919;0.1256297;0;0;0;0.1460057;2.502758;1.008334;0.09586939;1.336919;0.1256297;0;0;0
775426.1823;NotLabelled;16384;0.7404301;0.3808864;0.5207756;0.1883656;-1;4;-2;2868;-1450;2633;65536;-0.536011;-0.6065329;0.5263157;0.2603878;-4;0;1;3765;-1586;-525;8192;0.5110803;-0.761167;-0.3490305;-0.1939058;0;-2;0;1470;3861;-1039;32768;0.5734072;-0.7336773;0.267313;-0.2479224;-3;0;0;2753;3037;984;256;0.0734072;-0.2119114;-0.6731302;-0.704699;-4;0;0;677;4056;-279;128;-0.05955679;0.2839335;0.5858725;0.7566956;2;-2;0;-1025;3903;1222;4;-0.6121883;0.2049861;-0.433518;-0.6287037;1;-4;0;2229;3090;278;16;0.7172469;-0.6828254;-0.05540166;-0.1274238;3;-24;-7;355;3960;-28;2;0.4570637;-0.6131012;-0.4792244;-0.4307479;0;1;-2;871;3994;-401;8;0.4445983;-0.8695403;0.132964;0.1689751;0;1;0;267;3313;2295;0.4537244;2.544479;1.018317;0.459697;3.088742;1.055248;0.4649484;3.567285;1.085693;0.598693;4.285857;1.150736;0.4044283;4.655893;1.141659;0.04230395;4.57553;1.192126;-0.6708027;4.915829;0.7083849;-0.01997635;5.271881;1.297832;0.9159876;4.560682;1.141659;1.173448;4.365001;1.192125;1.067186;3.48565;1.571236;0.4020878;2.813976;1.505765;0.1414765;2.503023;1.007599;0.09322762;1.337185;0.1247901;0;0;0;0.1414765;2.503023;1.007599;0.09322762;1.337185;0.1247901;0;0;0
775447.2311;NotLabelled;16384;0.7398055;0.3808864;0.5221606;0.1869806;-2;6;0;2774;-1456;2569;65536;-0.5373961;-0.605306;0.5263157;0.2603878;-4;-3;1;3719;-1496;-639;8192;0.5110803;-0.7621517;-0.3476454;-0.1925208;1;-3;3;1452;3783;-983;32768;0.5720221;-0.7357257;0.265928;-0.2465374;-6;1;0;2771;2855;976;256;0.0734072;-0.2119114;-0.6745152;-0.7033735;-5;-1;0;701;4006;-219;128;-0.05955679;0.2839335;0.5858725;0.7566956;4;0;1;-1043;3799;1128;4;-0.6121883;0.2049861;-0.433518;-0.6287037;2;-4;1;2313;3286;446;16;0.7164134;-0.6842105;-0.05540166;-0.1246537;0;-6;-2;143;4042;144;2;0.4584487;-0.6120662;-0.4792244;-0.4307479;-1;0;-2;917;3992;-429;8;0.4445983;-0.8695403;0.132964;0.1689751;0;0;0;377;3295;2389;0.4419403;2.543959;1.021738;0.4479145;3.088364;1.056503;0.4531672;3.567025;1.085042;0.5861598;4.286017;1.146899;0.3914461;4.655784;1.136567;0.02949077;4.575207;1.187899;-0.6828051;4.917431;0.7043215;-0.03061375;5.273838;1.292043;0.9031165;4.561174;1.136212;1.160881;4.366006;1.187114;1.055306;3.485732;1.564268;0.3902622;2.814057;1.498255;0.129692;2.50246;1.0112;0.08311088;1.337649;0.1269463;0;0;0;0.129692;2.50246;1.0112;0.08311088;1.337649;0.1269463;0;0;0
775469.1944;NotLabelled;16384;0.7398055;0.3808864;0.5221606;0.1869806;-1;6;0;2704;-1442;2543;65536;-0.5373961;-0.605306;0.5263157;0.2603878;-3;-2;2;3755;-1476;-659;8192;0.5110803;-0.7621517;-0.3476454;-0.1925208;0;-4;3;1480;3673;-1019;32768;0.5706371;-0.7368005;0.265928;-0.2465374;-5;1;-1;2633;2877;922;256;0.0734072;-0.2119114;-0.6745152;-0.7033735;-5;-2;0;705;3960;-263;128;-0.06094183;0.2839335;0.5872576;0.7555106;5;-1;1;-983;3733;1164;4;-0.6108033;0.2049861;-0.432133;-0.6310001;2;0;3;2371;3284;486;16;0.716171;-0.6842105;-0.05540166;-0.1260388;0;10;2;303;4034;212;2;0.4584487;-0.6120662;-0.4792244;-0.4307479;-2;0;-3;959;3940;-435;8;0.4445983;-0.8695403;0.132964;0.1689751;0;0;0;291;3293;2377;0.4395178;2.544685;1.015302;0.445492;3.089091;1.050066;0.4507447;3.567751;1.078605;0.5843079;4.286863;1.137777;0.3898878;4.656743;1.126065;0.02786878;4.576646;1.177696;-0.6860435;4.91736;0.6954385;-0.03221479;5.27411;1.28113;0.9014827;4.561727;1.126063;1.159092;4.366546;1.177694;1.053576;3.488261;1.559479;0.389719;2.814945;1.498445;0.1272696;2.503186;1.004763;0.08100514;1.338375;0.1204934;0;0;0;0.1272696;2.503186;1.004763;0.08100514;1.338375;0.1204934;0;0;0
775489.1988;NotLabelled;16384;0.7398871;0.3795014;0.5235457;0.1855956;0;5;0;2620;-1522;2555;65536;-0.5373961;-0.605306;0.5263157;0.2603878;-4;0;3;3657;-1414;-689;8192;0.5110803;-0.7625003;-0.3476454;-0.1911357;0;-3;4;1480;3671;-981;32768;0.5706371;-0.7368005;0.265928;-0.2465374;-4;2;-1;2571;2843;854;256;0.07479224;-0.2119114;-0.6745152;-0.7032275;-4;-2;0;627;3912;-271;128;-0.06094183;0.2839335;0.5872576;0.7555106;3;-1;0;-941;3709;1198;4;-0.6108033;0.2049861;-0.432133;-0.6310001;2;3;0;2289;3180;480;16;0.7159259;-0.6842105;-0.05540166;-0.1274238;-1;5;5;677;3958;18;2;0.4584487;-0.6120662;-0.4792244;-0.4307479;0;0;-2;911;3968;-403;8;0.4445983;-0.8695403;0.132964;0.1689751;1;0;0;351;3271;2373;0.4353352;2.544011;1.017112;0.4413109;3.088551;1.049704;0.4465647;3.567322;1.076333;0.5801281;4.286434;1.135504;0.3857079;4.656315;1.123792;0.02368876;4.576218;1.175423;-0.6898872;4.916932;0.6926684;-0.03605846;5.273681;1.27836;0.8973031;4.561297;1.123791;1.154913;4.366117;1.175422;1.04913;3.487833;1.557133;0.3842409;2.815285;1.498921;0.1230865;2.502471;1.006752;0.083372;1.338135;0.1215387;0;0;0;0.1230865;2.502471;1.006752;0.083372;1.338135;0.1215387;0;0;0
775509.4684;NotLabelled;16384;0.7398871;0.3795014;0.5235457;0.1855956;0;5;-1;2594;-1460;2501;65536;-0.5387812;-0.6040735;0.5263157;0.2603878;-4;0;2;3533;-1408;-701;8192;0.5096953;-0.7637722;-0.3476454;-0.1897507;0;-3;5;1532;3585;-1029;32768;0.5692521;-0.7378711;0.265928;-0.2465374;-3;3;-1;2639;2883;778;256;0.07479224;-0.2119114;-0.6759003;-0.7018964;-4;-2;0;703;3780;-241;128;-0.06232687;0.2839335;0.5886427;0.7543188;3;-1;0;-901;3619;1280;4;-0.6121883;0.2063712;-0.432133;-0.6292038;4;2;-2;2133;2912;470;16;0.7159259;-0.6842105;-0.05540166;-0.1274238;-1;1;6;103;3704;116;2;0.4584487;-0.6120662;-0.4792244;-0.4307479;1;0;1;837;3920;-515;8;0.4445983;-0.869057;0.134349;0.1703601;3;-6;0;403;3325;2251;0.4358391;2.543766;1.018387;0.4418147;3.088306;1.050979;0.4470686;3.567077;1.077608;0.5792276;4.286476;1.136452;0.384082;4.655969;1.124593;0.02222481;4.575186;1.176289;-0.6906772;4.91492;0.6918509;-0.03793284;5.27167;1.27875;0.8958625;4.561954;1.124592;1.153858;4.367302;1.176287;1.048258;3.489605;1.559395;0.3834773;2.817057;1.499955;0.1235903;2.502226;1.008028;0.08551285;1.33789;0.1227424;0;0;0;0.1235903;2.502226;1.008028;0.08551285;1.33789;0.1227424;0;0;0
775531.1691;NotLabelled;16384;0.739961;0.3781163;0.5249307;0.1842105;0;0;-2;2534;-1550;2471;65536;-0.5401662;-0.6028353;0.5263157;0.2603878;0;0;2;3559;-1322;-791;8192;0.5083103;-0.7644061;-0.3490305;-0.1883656;0;2;3;1420;3593;-963;32768;0.5692521;-0.7383687;0.2645429;-0.2465374;0;2;-2;2699;2719;764;256;0.07617728;-0.2132964;-0.6759003;-0.7013277;-1;0;-1;701;3794;-235;128;-0.06094183;0.2839335;0.5872576;0.7555106;0;5;3;-1013;3625;1252;4;-0.6094183;0.2105263;-0.433518;-0.6295635;3;-4;-9;2577;3432;696;16;0.7156364;-0.6842105;-0.05263158;-0.1301939;-1;0;6;377;4140;-272;2;0.4570637;-0.6140719;-0.4792244;-0.4293629;1;2;3;805;4030;-489;8;0.4445983;-0.8681316;0.1385041;0.1717452;5;-14;-1;347;3353;2251;0.4371048;2.544848;1.016755;0.4430819;3.089514;1.047171;0.4483369;3.568388;1.071886;0.5811105;4.287895;1.127947;0.3862518;4.657498;1.114839;0.02436593;4.577198;1.167086;-0.6892561;4.916933;0.6837094;-0.03446525;5.274013;1.268123;0.8979568;4.563074;1.114839;1.155833;4.368409;1.167085;1.049876;3.49244;1.554029;0.3840443;2.820671;1.497624;0.1248556;2.503267;1.006575;0.08555364;1.33789;0.1227142;0;0;0;0.1248556;2.503267;1.006575;0.08555364;1.33789;0.1227142;0;0;0
775573.1824;NotLabelled;16384;0.739961;0.3781163;0.5249307;0.1842105;1;-1;-4;2604;-1498;2493;65536;-0.5401662;-0.6028353;0.5263157;0.2603878;0;1;2;3707;-1392;-791;8192;0.5083103;-0.7637722;-0.3504155;-0.1883656;0;2;0;1424;3749;-1087;32768;0.5706371;-0.7377944;0.2631579;-0.2465374;0;2;-3;2691;2919;760;256;0.07756232;-0.2132964;-0.6759003;-0.7011758;2;-1;-2;655;4146;-235;128;-0.06232687;0.2811634;0.5872576;0.756433;-4;-1;5;-757;4063;1208;4;-0.6080332;0.2105263;-0.433518;-0.6309013;0;-10;0;3095;4000;644;16;0.7153831;-0.6842105;-0.05263158;-0.1315789;4;2;3;629;5194;-476;2;0.4570637;-0.6129885;-0.4806094;-0.4293629;1;3;3;727;3964;-523;8;0.4459834;-0.8669232;0.1398892;0.1731302;5;-14;-1;293;3357;2279;0.437715;2.55246;1.010977;0.4436907;3.097;1.043569;0.4489446;3.57577;1.070198;0.581733;4.2953;1.125947;0.3868788;4.6649;1.1127;0.02499586;4.584627;1.165008;-0.6878181;4.923384;0.6797566;-0.03349802;5.280782;1.264503;0.8985825;4.570468;1.112699;1.156459;4.375822;1.165007;1.049749;3.501703;1.555909;0.3852978;2.82875;1.49737;0.1254664;2.51092;1.000617;0.09430166;1.336799;0.128076;0;0;0;0.1254664;2.51092;1.000617;0.09430166;1.336799;0.128076;0;0;0
775593.4618;NotLabelled;16384;0.7396148;0.3781163;0.5249307;0.1855956;2;-2;-7;2762;-1502;2571;65536;-0.5415512;-0.6021889;0.5263157;0.2590028;0;1;5;3889;-1516;-677;8192;0.5083103;-0.7637722;-0.3504155;-0.1883656;0;3;0;1562;3915;-999;32768;0.5706371;-0.7377944;0.2631579;-0.2465374;1;4;-3;2779;3161;842;256;0.07756232;-0.2132964;-0.6759003;-0.7011758;2;2;-3;649;4134;-325;128;-0.06232687;0.2811634;0.5872576;0.756433;-5;-6;2;-877;4035;1270;4;-0.6080332;0.2105263;-0.433518;-0.6309013;-2;2;4;3077;3796;660;16;0.715737;-0.6842105;-0.05124654;-0.1301939;4;-18;0;1223;4676;-436;2;0.4570637;-0.6129885;-0.4806094;-0.4293629;2;0;3;809;4030;-457;8;0.4459834;-0.8666985;0.1412742;0.1731302;4;-10;-1;257;3323;2347;0.4358656;2.553041;1.011173;0.4418414;3.097608;1.043317;0.4470957;3.576401;1.069551;0.5784847;4.296213;1.124963;0.3829086;4.665425;1.111564;0.02118722;4.584471;1.163939;-0.6906569;4.923229;0.6772664;-0.03742194;5.280625;1.263225;0.8947954;4.571993;1.111564;1.153056;4.377873;1.163939;1.047006;3.503868;1.555273;0.3848701;2.828951;1.493215;0.1236168;2.511492;1.000851;0.09642349;1.336528;0.1293133;0;0;0;0.1236168;2.511492;1.000851;0.09642349;1.336528;0.1293133;0;0;0
775614.1938;NotLabelled;16384;0.7386299;0.3781163;0.5263157;0.1855956;1;-2;-7;2808;-1436;2539;65536;-0.5415512;-0.6033967;0.5249307;0.2590028;1;0;6;3867;-1576;-605;8192;0.5083103;-0.7637722;-0.3504155;-0.1883656;0;4;0;1644;3935;-845;32768;0.5706371;-0.7382869;0.2617728;-0.2465374;2;4;-2;2797;3227;984;256;0.07756232;-0.2119114;-0.6759003;-0.7015957;0;4;-3;637;4176;-271;128;-0.06371191;0.2825485;0.5858725;0.7568755;-3;-3;0;-1001;3895;1298;4;-0.6094183;0.2105263;-0.432133;-0.630515;-2;10;2;2583;3058;580;16;0.7177483;-0.6828254;-0.04847645;-0.1274238;0;-35;-2;763;3898;-350;2;0.4556787;-0.6140188;-0.4806094;-0.4293629;1;1;3;955;4088;-439;8;0.4459834;-0.8661937;0.1426593;0.1745152;2;-6;0;289;3407;2297;0.4357695;2.553012;1.011554;0.4417454;3.097578;1.043698;0.4469995;3.57637;1.069932;0.5783886;4.296184;1.125344;0.3828126;4.665396;1.111945;0.02109125;4.584441;1.164321;-0.6913993;4.921609;0.67749;-0.03802958;5.281307;1.261889;0.8946995;4.571963;1.111944;1.15296;4.377844;1.164319;1.046966;3.503838;1.555668;0.3848304;2.828921;1.493611;0.1235206;2.511463;1.001232;0.09632608;1.336498;0.1296941;0;0;0;0.1235206;2.511463;1.001232;0.09632608;1.336498;0.1296941;0;0;0
775634.3439;NotLabelled;16384;0.7372923;0.3767313;0.5277008;0.1897507;1;0;-5;2968;-1380;2719;65536;-0.5429363;-0.604537;0.5235457;0.2562327;0;0;6;3785;-1824;-473;8192;0.5083103;-0.7634758;-0.3518005;-0.1869806;-2;1;2;1482;3803;-931;32768;0.5706371;-0.7392373;0.2603878;-0.2451524;1;-2;-1;2653;2951;782;256;0.07756232;-0.2105263;-0.6759003;-0.7020125;0;2;-3;643;4118;-317;128;-0.06371191;0.2811634;0.5858725;0.7573911;0;0;2;-1147;3907;1342;4;-0.6094183;0.2105263;-0.432133;-0.630515;2;4;-2;2421;3216;400;16;0.7182092;-0.6842105;-0.04293629;-0.1191136;0;-3;2;99;3944;-156;2;0.4542936;-0.6150442;-0.4806094;-0.4293629;0;4;0;705;4038;-535;8;0.4473684;-0.8654792;0.1426593;0.1745152;0;2;0;307;3453;2033;0.4326646;2.550484;1.019622;0.4386394;3.094951;1.053418;0.4438926;3.573662;1.081106;0.5738357;4.293733;1.136564;0.3775399;4.662559;1.123056;0.01595205;4.580894;1.175249;-0.7000781;4.915426;0.6918051;-0.0465239;5.277044;1.274811;0.8896096;4.570134;1.123318;1.148225;4.376526;1.17583;1.043511;3.503712;1.570173;0.3824326;2.827616;1.509701;0.1204161;2.508967;1.009163;0.09368613;1.336195;0.1346633;0;0;0;0.1204161;2.508967;1.009163;0.09368613;1.336195;0.1346633;0;0;0
775676.406;NotLabelled;16384;0.7372923;0.3767313;0.5277008;0.1897507;0;0;-2;2970;-1420;2623;65536;-0.5443213;-0.6050746;0.5221606;0.2548476;0;0;2;3637;-1740;-633;8192;0.5083103;-0.7631742;-0.3531856;-0.1855956;-2;3;1;1498;3645;-997;32768;0.5720221;-0.7381661;0.2603878;-0.2451524;2;0;-2;2769;2799;778;256;0.07894737;-0.2091413;-0.6759003;-0.7022721;0;0;-2;685;3960;-263;128;-0.06371191;0.2797784;0.5844875;0.7589725;-4;3;2;-843;3823;1268;4;-0.6108033;0.2132964;-0.4307479;-0.6291901;2;6;-2;2301;3404;506;16;0.7179781;-0.6842105;-0.04293629;-0.1204986;0;4;3;485;4080;-156;2;0.4542936;-0.6129885;-0.4819945;-0.4307479;0;7;-1;853;4044;-461;8;0.4473684;-0.8657573;0.1426593;0.1731302;0;5;0;281;3339;2415;0.4330271;2.55115;1.014182;0.4390019;3.095622;1.047903;0.4442552;3.574336;1.075525;0.5728097;4.294662;1.130898;0.3757816;4.663102;1.117481;0.01438218;4.580726;1.169864;-0.7051843;4.909359;0.6876253;-0.05246699;5.277161;1.267693;0.8880323;4.571685;1.11748;1.147056;4.378587;1.169863;1.045515;3.505304;1.563997;0.3864895;2.82685;1.507667;0.1207785;2.509631;1.003729;0.09174089;1.336859;0.1293036;0;0;0;0.1207785;2.509631;1.003729;0.09174089;1.336859;0.1293036;0;0;0
775718.3634;NotLabelled;16384;0.7369345;0.3767313;0.5277008;0.1911357;0;-2;0;2918;-1416;2491;65536;-0.5443213;-0.6050746;0.5221606;0.2548476;2;1;1;3605;-1752;-701;8192;0.5083103;-0.7621933;-0.3545706;-0.1869806;-1;4;0;1408;3681;-1001;32768;0.5720221;-0.7381661;0.2603878;-0.2451524;3;2;-1;2771;2807;752;256;0.07894737;-0.2091413;-0.6759003;-0.7022721;2;3;-2;611;4014;-257;128;-0.06371191;0.2797784;0.5844875;0.7589725;-2;1;1;-837;3865;1270;4;-0.6108033;0.2132964;-0.4307479;-0.6291901;0;4;-1;2189;3432;620;16;0.7179781;-0.6842105;-0.04293629;-0.1204986;0;3;3;617;4058;-88;2;0.4542936;-0.6129885;-0.4819945;-0.4307479;0;6;0;977;4028;-433;8;0.4473684;-0.8659844;0.1412742;0.1731302;0;4;0;315;3385;2307;0.4310488;2.552429;1.013366;0.4370224;3.096786;1.048884;0.4422746;3.575407;1.078085;0.5680109;4.296258;1.133096;0.3695397;4.663916;1.119517;0.008470267;4.580152;1.171971;-0.7112251;4.908784;0.6899248;-0.05900055;5.28077;1.267875;0.8821447;4.574507;1.119517;1.141927;4.382451;1.171971;1.043285;3.509903;1.568463;0.3852935;2.83067;1.509494;0.1188006;2.510945;1.002765;0.09413072;1.336593;0.1303265;0;0;0;0.1188006;2.510945;1.002765;0.09413072;1.336593;0.1303265;0;0;0
775740.1964;NotLabelled;16384;0.7369345;0.3767313;0.5277008;0.1911357;1;-3;0;2904;-1342;2539;65536;-0.5443213;-0.6050746;0.5221606;0.2548476;4;2;0;3625;-1678;-699;8192;0.5083103;-0.7621933;-0.3545706;-0.1869806;0;3;0;1440;3683;-977;32768;0.5720221;-0.7381661;0.2603878;-0.2451524;3;4;-2;2669;2881;838;256;0.07894737;-0.2077562;-0.6745152;-0.7040128;3;6;-2;599;3928;-283;128;-0.06371191;0.2797784;0.5844875;0.7589725;-3;0;2;-915;3765;1268;4;-0.6108033;0.2146814;-0.432133;-0.6277677;0;1;0;2287;3342;580;16;0.7177443;-0.6842105;-0.04293629;-0.1218837;0;2;2;571;4088;-84;2;0.4542936;-0.6118969;-0.4833795;-0.4307479;0;1;0;919;4070;-333;8;0.4473684;-0.8662093;0.1398892;0.1731302;0;0;0;263;3353;2261;0.4310489;2.552428;1.013367;0.4370226;3.096786;1.048885;0.4422748;3.575406;1.078087;0.5680113;4.296258;1.133098;0.3695401;4.663916;1.11952;0.008470684;4.580151;1.171974;-0.7117865;4.90718;0.6896763;-0.059562;5.279166;1.267627;0.882145;4.574507;1.119519;1.141927;4.38245;1.171973;1.04338;3.509414;1.567412;0.3853888;2.830181;1.508443;0.1188008;2.510944;1.002766;0.09413087;1.336593;0.1303275;0;0;0;0.1188008;2.510944;1.002766;0.09413087;1.336593;0.1303275;0;0;0
775760.1666;NotLabelled;16384;0.7375643;0.3767313;0.5263157;0.1925208;2;-2;1;2810;-1386;2495;65536;-0.5429363;-0.606898;0.5221606;0.2534626;5;2;0;3623;-1606;-505;8192;0.5083103;-0.7615474;-0.3559557;-0.1869806;0;4;0;1524;3641;-825;32768;0.5720221;-0.7386532;0.2590028;-0.2451524;3;4;0;2579;2969;1006;256;0.07894737;-0.2063712;-0.6745152;-0.70442;3;5;-2;577;3954;-295;128;-0.06371191;0.2783934;0.5831025;0.7605455;-5;2;3;-1015;3797;1180;4;-0.6108033;0.2132964;-0.432133;-0.6282397;0;4;0;2307;3214;550;16;0.7177443;-0.6842105;-0.04293629;-0.1218837;-2;1;0;533;4110;-148;2;0.4542936;-0.6118969;-0.4833795;-0.4307479;0;-3;0;859;3988;-379;8;0.4473684;-0.8662093;0.1398892;0.1731302;-1;0;0;325;3373;2255;0.4380917;2.555385;1.009742;0.4440653;3.099742;1.045259;0.4493176;3.578362;1.074461;0.5730259;4.299349;1.132231;0.3735478;4.666506;1.11989;0.01267797;4.581549;1.171799;-0.7084522;4.908578;0.6908079;-0.05518118;5.280564;1.267575;0.8863978;4.578514;1.119889;1.146677;4.386981;1.171797;1.048846;3.513946;1.567415;0.3907495;2.834712;1.509638;0.1258436;2.513901;0.9991403;0.0967247;1.336322;0.1312001;0;0;0;0.1258436;2.513901;0.9991403;0.0967247;1.336322;0.1312001;0;0;0
775781.1908;NotLabelled;16384;0.7372013;0.3767313;0.5263157;0.1939058;2;-3;0;2826;-1376;2457;65536;-0.5429363;-0.606898;0.5221606;0.2534626;4;1;1;3603;-1584;-413;8192;0.5083103;-0.7615474;-0.3559557;-0.1869806;0;3;0;1492;3653;-829;32768;0.5720221;-0.7391374;0.2576177;-0.2451524;1;2;0;2551;2947;964;256;0.07894737;-0.2063712;-0.6745152;-0.70442;1;2;-1;531;3976;-263;128;-0.06232687;0.2770083;0.5831025;0.7611657;0;4;2;-825;3785;1108;4;-0.6121883;0.2146814;-0.432133;-0.6264171;0;5;0;2291;3170;454;16;0.7177443;-0.6842105;-0.04293629;-0.1218837;-1;1;1;423;4040;-208;2;0.4542936;-0.6118969;-0.4833795;-0.4307479;0;0;0;753;3946;-565;8;0.4473684;-0.8659844;0.1412742;0.1731302;-1;-1;0;413;3347;2231;0.4415721;2.553472;1.012113;0.4475444;3.097708;1.049424;0.4527955;3.57623;1.080203;0.5750902;4.29746;1.137953;0.3748924;4.664225;1.125603;0.01419002;4.578562;1.177516;-0.7068356;4.90517;0.696082;-0.05593494;5.278815;1.274454;0.8879141;4.577238;1.125602;1.148568;4.386218;1.177515;1.053233;3.51331;1.574024;0.3961822;2.832906;1.518159;0.1293244;2.512022;1.001364;0.0970029;1.336323;0.1309938;0;0;0;0.1293244;2.512022;1.001364;0.0970029;1.336323;0.1309938;0;0;0
775801.1599;NotLabelled;16384;0.7372013;0.3767313;0.5263157;0.1939058;2;-1;0;2766;-1320;2515;65536;-0.5429363;-0.6080869;0.5207756;0.2534626;3;0;1;3619;-1602;-405;8192;0.5083103;-0.7615474;-0.3559557;-0.1869806;0;1;0;1456;3675;-789;32768;0.5720221;-0.7391374;0.2576177;-0.2451524;0;1;0;2613;2969;950;256;0.07894737;-0.2049861;-0.6745152;-0.7048243;0;0;-1;495;4022;-269;128;-0.06232687;0.2770083;0.5844875;0.7601027;4;3;2;-805;3853;1152;4;-0.6121883;0.2146814;-0.4307479;-0.6273704;0;1;0;2295;3164;478;16;0.7175077;-0.6842105;-0.04293629;-0.1232687;0;1;1;347;3990;-206;2;0.4542936;-0.6118969;-0.4833795;-0.4307479;0;1;0;841;3874;-571;8;0.4473684;-0.8662602;0.1412742;0.1717452;-2;0;0;453;3325;2129;0.4425912;2.554508;1.010686;0.4485633;3.098729;1.048222;0.4538142;3.577239;1.079198;0.5761088;4.298468;1.136948;0.3759111;4.665232;1.124598;0.01520878;4.57957;1.176511;-0.7061558;4.904574;0.6945002;-0.05525529;5.27822;1.272873;0.8889327;4.578245;1.124598;1.149587;4.387226;1.17651;1.05407;3.514318;1.572974;0.3981881;2.832745;1.517624;0.1303435;2.513063;0.9999185;0.0970026;1.336323;0.1309948;0;0;0;0.1303435;2.513063;0.9999185;0.0970026;1.336323;0.1309948;0;0;0
775822.1568;NotLabelled;16384;0.7368357;0.3767313;0.5263157;0.1952908;2;0;0;2776;-1366;2541;65536;-0.5429363;-0.6080869;0.5207756;0.2534626;1;-2;1;3609;-1610;-439;8192;0.5083103;-0.7608985;-0.3573407;-0.1869806;0;1;1;1522;3775;-843;32768;0.5734072;-0.7385454;0.2562327;-0.2451524;0;1;-1;2659;2983;862;256;0.07894737;-0.2049861;-0.6745152;-0.7048243;0;2;-1;531;3990;-285;128;-0.06232687;0.2756233;0.5858725;0.7595397;5;2;2;-795;3909;1220;4;-0.6121883;0.2146814;-0.4307479;-0.6273704;1;-1;2;2291;3220;502;16;0.7175077;-0.6842105;-0.04293629;-0.1232687;-1;0;1;585;4086;-134;2;0.4542936;-0.6118969;-0.4833795;-0.4307479;0;0;-2;683;3894;-559;8;0.4473684;-0.8662602;0.1412742;0.1717452;-2;2;0;415;3361;2143;0.4433911;2.552931;1.013186;0.4493647;3.097278;1.048853;0.4546168;3.575891;1.078186;0.5755291;4.29736;1.135853;0.3746065;4.663731;1.123603;0.01410082;4.577363;1.175712;-0.7097652;4.904015;0.6985894;-0.05811161;5.279548;1.274887;0.8877974;4.57775;1.123326;1.148854;4.387243;1.175102;1.055398;3.512979;1.569062;0.3993708;2.831406;1.515455;0.1311431;2.51145;1.002572;0.09971417;1.336047;0.131769;0;0;0;0.1311431;2.51145;1.002572;0.09971417;1.336047;0.131769;0;0;0
775842.454;NotLabelled;16384;0.7375422;0.3753462;0.5263157;0.1952908;3;1;-2;2752;-1388;2545;65536;-0.5429363;-0.6086624;0.5207756;0.2520775;0;-3;2;3603;-1616;-565;8192;0.5083103;-0.7608985;-0.3573407;-0.1869806;0;1;1;1514;3717;-899;32768;0.5734072;-0.7385454;0.2562327;-0.2451524;0;1;-1;2601;2983;862;256;0.07894737;-0.2049861;-0.6745152;-0.7048243;0;2;-1;533;4048;-283;128;-0.06371191;0.2756233;0.5858725;0.7594248;5;0;1;-921;3817;1226;4;-0.6121883;0.2146814;-0.4307479;-0.6273704;1;-1;1;2321;3266;614;16;0.7175077;-0.6842105;-0.04293629;-0.1232687;-1;-2;1;453;4068;-168;2;0.4542936;-0.6120129;-0.4819945;-0.432133;1;0;-2;835;3972;-513;8;0.4473684;-0.8664849;0.1398892;0.1717452;-2;1;0;363;3331;2355;0.4428531;2.552969;1.013095;0.448828;3.09744;1.046818;0.4540812;3.576154;1.07444;0.5749626;4.297623;1.132172;0.3740466;4.663994;1.119813;0.013513;4.577626;1.17173;-0.70913;4.901026;0.6905555;-0.05778614;5.276559;1.267202;0.8872377;4.578013;1.119813;1.148266;4.387506;1.171729;1.054793;3.51473;1.568969;0.4010114;2.831216;1.512699;0.1306047;2.51145;1.002642;0.09964353;1.336047;0.1318225;0;0;0;0.1306047;2.51145;1.002642;0.09964353;1.336047;0.1318225;0;0;0
775884.1686;NotLabelled;16384;0.7378776;0.3739612;0.5263157;0.1966759;4;1;-2;2788;-1346;2575;65536;-0.5443213;-0.6068079;0.5221606;0.2506925;2;-2;2;3659;-1702;-705;8192;0.5083103;-0.7608985;-0.3573407;-0.1869806;0;0;1;1422;3719;-873;32768;0.5734072;-0.7385454;0.2562327;-0.2451524;-1;-2;0;2683;2945;734;256;0.08033241;-0.2036011;-0.6745152;-0.7050692;0;0;-1;587;4036;-271;128;-0.06371191;0.2742382;0.5872576;0.7588561;4;2;1;-943;3813;1312;4;-0.6121883;0.2132964;-0.4307479;-0.6278426;-2;0;1;2335;3348;584;16;0.7175077;-0.6842105;-0.04293629;-0.1232687;-1;3;0;701;4096;-38;2;0.4542936;-0.6120129;-0.4819945;-0.432133;0;-2;-1;833;3974;-459;8;0.4459834;-0.8669232;0.1398892;0.1731302;-1;-2;0;375;3411;2355;0.4428533;2.552974;1.013071;0.4488284;3.097463;1.046497;0.4540818;3.576193;1.073861;0.5749632;4.297662;1.131592;0.3740471;4.664033;1.119234;0.01351351;4.577665;1.17115;-0.7087963;4.899664;0.6885377;-0.05919409;5.277157;1.26587;0.8872381;4.578052;1.119233;1.148266;4.387545;1.171149;1.055016;3.514768;1.568441;0.4012342;2.831255;1.51217;0.1306048;2.51145;1.002642;0.09964341;1.336047;0.1318223;0;0;0;0.1306048;2.51145;1.002642;0.09964341;1.336047;0.1318223;0;0;0
775925.262;NotLabelled;16384;0.7385779;0.3725762;0.5263157;0.1966759;3;0;-3;2822;-1380;2633;65536;-0.5443213;-0.6073783;0.5221606;0.2493075;2;-1;1;3659;-1782;-677;8192;0.5083103;-0.7608985;-0.3573407;-0.1869806;-1;-1;0;1472;3729;-855;32768;0.5734072;-0.7390038;0.2562327;-0.2437673;0;-3;0;2725;2951;750;256;0.08033241;-0.2036011;-0.6745152;-0.7050692;0;-1;0;635;3954;-255;128;-0.06371191;0.2742382;0.5872576;0.7588561;0;0;0;-893;3847;1270;4;-0.6121883;0.2119114;-0.432133;-0.6273596;-2;-1;0;2223;3366;576;16;0.7175077;-0.6842105;-0.04293629;-0.1232687;0;0;0;493;4098;-68;2;0.4542936;-0.6120129;-0.4819945;-0.432133;0;-3;0;829;4020;-445;8;0.4459834;-0.8669232;0.1398892;0.1731302;0;0;0;397;3467;2291;0.4444853;2.551125;1.015366;0.4504617;3.095731;1.046847;0.4557162;3.574555;1.072499;0.5737784;4.29652;1.129865;0.3714294;4.662096;1.117343;0.01124063;4.574343;1.169332;-0.7111447;4.89333;0.6848361;-0.06048378;5.271216;1.260718;0.884953;4.578123;1.117342;1.146729;4.388664;1.169331;1.053584;3.515888;1.566647;0.3997874;2.832375;1.510551;0.1322362;2.509564;1.005098;0.09967863;1.336047;0.131796;0;0;0;0.1322362;2.509564;1.005098;0.09967863;1.336047;0.131796;0;0;0
775946.1616;NotLabelled;16384;0.7372182;0.3725762;0.5277008;0.1980609;0;-1;-1;2956;-1290;2791;65536;-0.5443213;-0.6073783;0.5221606;0.2493075;0;0;0;3753;-1876;-663;8192;0.5096953;-0.7603109;-0.3573407;-0.1855956;-1;0;0;1432;3793;-923;32768;0.5734072;-0.7385221;0.2576177;-0.2437673;0;-2;0;2759;2989;794;256;0.08033241;-0.2036011;-0.6745152;-0.7050692;1;0;0;599;4096;-339;128;-0.06371191;0.2742382;0.5872576;0.7588561;-1;0;0;-947;3937;1218;4;-0.6108033;0.2119114;-0.432133;-0.6287082;0;-1;0;2277;3194;400;16;0.7172684;-0.6842105;-0.04293629;-0.1246537;0;5;0;379;4074;-130;2;0.4542936;-0.6140751;-0.4806094;-0.4307479;1;-1;-1;851;3990;-531;8;0.4459834;-0.8671986;0.1398892;0.1717452;0;0;0;381;3407;2257;0.4500756;2.550578;1.015875;0.456052;3.095184;1.047356;0.4613065;3.574008;1.073008;0.5793687;4.295973;1.130374;0.3770198;4.661549;1.117852;0.01683092;4.573796;1.169841;-0.7049495;4.891372;0.6835196;-0.05602637;5.271217;1.260073;0.8905435;4.577576;1.117851;1.152319;4.388117;1.169839;1.059175;3.515341;1.567156;0.4064456;2.830657;1.512927;0.1378266;2.509017;1.005607;0.09967858;1.336047;0.1317961;0;0;0;0.1378266;2.509017;1.005607;0.09967858;1.336047;0.1317961;0;0;0
775987.1706;NotLabelled;16384;0.7372182;0.3725762;0.5277008;0.1980609;-1;0;0;2922;-1302;2751;65536;-0.5443213;-0.6085662;0.5207756;0.2493075;0;0;-1;3707;-1874;-573;8192;0.5096953;-0.7612967;-0.3559557;-0.1842105;0;0;0;1482;3811;-905;32768;0.5734072;-0.7385221;0.2576177;-0.2437673;0;0;0;2733;2941;1006;256;0.08033241;-0.2036011;-0.6745152;-0.7050692;1;0;0;567;4028;-351;128;-0.06371191;0.2742382;0.5872576;0.7588561;-1;0;0;-957;3921;1214;4;-0.6108033;0.2119114;-0.433518;-0.627754;2;-3;0;2401;3312;520;16;0.7169421;-0.6842105;-0.04432133;-0.1260388;1;5;1;415;4080;-120;2;0.4556787;-0.613048;-0.4806094;-0.4307479;0;-3;-1;825;4012;-465;8;0.4459834;-0.8671986;0.1398892;0.1717452;0;0;0;361;3359;2339;0.4500677;2.551144;1.015871;0.4560441;3.095749;1.047352;0.4612986;3.574574;1.073005;0.5793608;4.296538;1.130371;0.3770118;4.662114;1.117848;0.01682305;4.574362;1.169837;-0.7074349;4.88914;0.6853843;-0.05851188;5.268985;1.261938;0.8905356;4.578141;1.117848;1.152311;4.388682;1.169836;1.062786;3.515396;1.566864;0.4088824;2.831876;1.512122;0.1378187;2.509583;1.005603;0.1020417;1.335766;0.1328298;0;0;0;0.1378187;2.509583;1.005603;0.1020417;1.335766;0.1328298;0;0;0
776007.2315;NotLabelled;16384;0.7372182;0.3725762;0.5277008;0.1980609;-2;0;1;2958;-1344;2725;65536;-0.5443213;-0.6085662;0.5207756;0.2493075;-1;0;-2;3687;-1794;-595;8192;0.5096953;-0.7612967;-0.3559557;-0.1842105;0;0;0;1496;3713;-895;32768;0.5734072;-0.7385221;0.2576177;-0.2437673;-1;0;0;2667;2917;958;256;0.08171745;-0.2036011;-0.6745152;-0.70491;0;0;0;585;4050;-257;128;-0.06371191;0.2742382;0.5872576;0.7588561;3;-1;0;-901;3861;1280;4;-0.6108033;0.2119114;-0.433518;-0.627754;1;0;0;2351;3256;610;16;0.7166972;-0.6842105;-0.04432133;-0.1274238;1;4;2;549;4060;-74;2;0.4556787;-0.613048;-0.4806094;-0.4307479;0;-2;0;907;4014;-459;8;0.4459834;-0.8671986;0.1398892;0.1717452;0;0;0;395;3331;2387;0.4543369;2.55251;1.013554;0.4603133;3.097116;1.045035;0.4655678;3.57594;1.070687;0.58363;4.297905;1.128054;0.3812811;4.663481;1.115531;0.02109224;4.575728;1.16752;-0.7031658;4.890507;0.6830671;-0.05503735;5.272231;1.259273;0.8948046;4.579508;1.11553;1.15658;4.390049;1.167519;1.066963;3.517246;1.56559;0.4130586;2.833726;1.510847;0.1420879;2.510949;1.003286;0.1020947;1.335795;0.1324977;0;0;0;0.1420879;2.510949;1.003286;0.1020947;1.335795;0.1324977;0;0;0
776027.543;NotLabelled;16384;0.7372182;0.3725762;0.5277008;0.1980609;-3;2;2;2874;-1294;2683;65536;-0.5457063;-0.6073246;0.5207756;0.2493075;-2;0;-2;3757;-1714;-579;8192;0.5096953;-0.7612967;-0.3559557;-0.1842105;1;-2;0;1410;3729;-907;32768;0.5734072;-0.7385221;0.2576177;-0.2437673;-1;0;0;2713;2903;870;256;0.08171745;-0.2049861;-0.6745152;-0.7045085;0;0;1;561;4010;-319;128;-0.06371191;0.2742382;0.5886427;0.7577823;1;0;-1;-931;3857;1210;4;-0.6108033;0.2119114;-0.433518;-0.627754;0;0;-1;2389;3336;582;16;0.7166972;-0.6842105;-0.04432133;-0.1274238;0;1;2;635;4142;-46;2;0.4556787;-0.613048;-0.4806094;-0.4307479;0;0;0;985;4072;-467;8;0.4459834;-0.8671986;0.1398892;0.1717452;0;0;0;319;3363;2349;0.4548371;2.552225;1.014854;0.4608134;3.09683;1.046335;0.466068;3.575654;1.071987;0.5827247;4.297874;1.129002;0.3796614;4.663049;1.116321;0.01964861;4.574618;1.16838;-0.7037086;4.889397;0.6825836;-0.05665135;5.271121;1.259992;0.8933478;4.580079;1.116321;1.155497;4.391156;1.168379;1.06514;3.518355;1.566283;0.4113391;2.834835;1.510326;0.1425881;2.510663;1.004586;0.1042114;1.335509;0.1337253;0;0;0;0.1425881;2.510663;1.004586;0.1042114;1.335509;0.1337253;0;0;0
776048.5076;NotLabelled;16384;0.7379568;0.3725762;0.5277008;0.1952908;-4;4;0;2798;-1370;2595;65536;-0.5457063;-0.6067541;0.5207756;0.2506925;-5;-1;-2;3581;-1582;-665;8192;0.5096953;-0.7616305;-0.3559557;-0.1828255;1;-3;0;1502;3667;-919;32768;0.5720221;-0.7391374;0.2576177;-0.2451524;0;0;1;2609;2875;834;256;0.08171745;-0.2049861;-0.6745152;-0.7045085;0;0;2;611;3962;-273;128;-0.06371191;0.2742382;0.5886427;0.7577823;-1;1;-1;-887;3809;1160;4;-0.6108033;0.2119114;-0.433518;-0.627754;-1;2;-1;2413;3252;556;16;0.7166972;-0.6842105;-0.04432133;-0.1274238;0;-1;0;547;4038;-162;2;0.4556787;-0.6140188;-0.4806094;-0.4293629;0;1;-1;797;4036;-469;8;0.4459834;-0.8671986;0.1398892;0.1717452;0;0;0;315;3391;2219;0.4527065;2.55226;1.014999;0.458684;3.09697;1.044603;0.4639394;3.57588;1.068605;0.5820108;4.29787;1.125638;0.3796635;4.663442;1.112965;0.01947796;4.575715;1.16502;-0.7025917;4.890494;0.6773118;-0.05488959;5.272531;1.253789;0.8931865;4.579465;1.112965;1.154964;4.390028;1.165019;1.063556;3.517226;1.562683;0.4098746;2.833705;1.50534;0.1404571;2.510663;1.004886;0.1039272;1.335509;0.133946;0;0;0;0.1404571;2.510663;1.004886;0.1039272;1.335509;0.133946;0;0;0
776090.4967;NotLabelled;16384;0.738322;0.3725762;0.5277008;0.1939058;-3;2;1;2840;-1364;2527;65536;-0.5470914;-0.6037352;0.5221606;0.2520775;-2;0;-1;3647;-1602;-751;8192;0.5096953;-0.7622764;-0.3545706;-0.1828255;1;-1;-1;1574;3787;-953;32768;0.5720221;-0.7395954;0.2576177;-0.2437673;0;0;2;2643;3017;840;256;0.08171745;-0.2063712;-0.6745152;-0.704104;0;0;2;575;3972;-249;128;-0.06371191;0.2742382;0.5886427;0.7577823;0;0;-1;-883;3845;1234;4;-0.6108033;0.2132964;-0.433518;-0.6272847;0;-2;-1;2337;3252;492;16;0.7177697;-0.6828254;-0.04432133;-0.1288089;1;3;2;723;4052;-112;2;0.4556787;-0.6140188;-0.4806094;-0.4293629;2;-2;0;823;3922;-465;8;0.4459834;-0.8669741;0.1412742;0.1717452;-1;-1;0;331;3351;2223;0.4527065;2.55226;1.014999;0.458684;3.09697;1.044603;0.4639394;3.57588;1.068605;0.5820108;4.29787;1.125638;0.3796635;4.663442;1.112965;0.01947796;4.575715;1.16502;-0.7017623;4.893712;0.6781728;-0.0523195;5.273792;1.253985;0.8931865;4.579465;1.112965;1.154964;4.390028;1.165019;1.065123;3.517849;1.564405;0.4093294;2.836277;1.508013;0.1404571;2.510663;1.004886;0.1039272;1.335509;0.133946;0;0;0;0.1404571;2.510663;1.004886;0.1039272;1.335509;0.133946;0;0;0
776131.2096;NotLabelled;16384;0.7376214;0.3739612;0.5277008;0.1939058;-2;1;1;2772;-1346;2583;65536;-0.5470914;-0.6037352;0.5221606;0.2520775;0;0;-1;3659;-1642;-715;8192;0.5096953;-0.7622764;-0.3545706;-0.1828255;0;0;-1;1592;3699;-953;32768;0.5720221;-0.7395954;0.2576177;-0.2437673;1;2;1;2573;3023;908;256;0.08171745;-0.2063712;-0.6745152;-0.704104;1;1;1;641;3986;-251;128;-0.06371191;0.2756233;0.5886427;0.7572796;1;0;-1;-963;3881;1158;4;-0.6094183;0.2132964;-0.433518;-0.6286304;-1;-2;0;2499;3310;624;16;0.7177697;-0.6828254;-0.04432133;-0.1288089;0;-2;0;671;3986;-72;2;0.4556787;-0.6141313;-0.4792244;-0.4307479;0;-2;-2;831;4010;-387;8;0.4459834;-0.8669741;0.1412742;0.1717452;-1;0;1;265;3387;2199;0.4489223;2.553604;1.018254;0.4548997;3.098315;1.047858;0.4601551;3.577224;1.071859;0.5796416;4.29898;1.12891;0.3780115;4.664948;1.116246;0.01765442;4.577927;1.168297;-0.7020063;4.897529;0.680166;-0.04938641;5.274044;1.254728;0.8913687;4.579966;1.116246;1.152775;4.390014;1.168296;1.060642;3.517695;1.566852;0.4060277;2.83495;1.510943;0.1366729;2.512008;1.008141;0.1033473;1.334973;0.1396142;0;0;0;0.1366729;2.512008;1.008141;0.1033473;1.334973;0.1396142;0;0;0
776153.4319;NotLabelled;16384;0.7389726;0.3739612;0.5263157;0.1925208;-2;0;6;2896;-1352;2603;65536;-0.5457063;-0.6049874;0.5221606;0.2520775;1;0;-3;3643;-1720;-549;8192;0.5083103;-0.7632006;-0.3545706;-0.1828255;0;1;0;1540;3705;-931;32768;0.5720221;-0.7391582;0.2562327;-0.2465374;2;4;2;2693;2871;884;256;0.08033241;-0.2063712;-0.6745152;-0.7042633;2;2;2;659;3942;-283;128;-0.06232687;0.2756233;0.5886427;0.7573949;0;0;-1;-935;3797;1206;4;-0.6108033;0.2119114;-0.433518;-0.627754;-1;4;1;2345;3258;600;16;0.7178538;-0.6828254;-0.04293629;-0.1288089;0;-2;0;555;4098;-230;2;0.4556787;-0.6151004;-0.4792244;-0.4293629;0;0;0;843;3946;-559;8;0.4459834;-0.8671986;0.1398892;0.1717452;-1;0;1;385;3363;2345;0.446549;2.554446;1.017204;0.4525266;3.099153;1.04688;0.4577819;3.578059;1.070944;0.5772684;4.299815;1.127995;0.3756382;4.665782;1.115331;0.01528123;4.578762;1.167382;-0.7049867;4.899774;0.6810756;-0.05236703;5.276289;1.255637;0.8889955;4.5808;1.115331;1.150402;4.390848;1.167381;1.058269;3.518529;1.565937;0.4036543;2.835784;1.510029;0.1342998;2.512851;1.007085;0.1033473;1.334974;0.139614;0;0;0;0.1342998;2.512851;1.007085;0.1033473;1.334974;0.139614;0;0;0
776195.2852;NotLabelled;16384;0.7386299;0.3753462;0.5263157;0.1911357;-3;0;6;2796;-1444;2619;65536;-0.5457063;-0.6032091;0.5235457;0.2534626;1;-1;-7;3565;-1596;-677;8192;0.5083103;-0.7622222;-0.3559557;-0.1842105;0;3;-2;1478;3665;-1029;32768;0.5720221;-0.7386948;0.2562327;-0.2479224;2;6;2;2731;2817;994;256;0.08033241;-0.2063712;-0.6731302;-0.7055873;2;0;2;577;3888;-331;128;-0.06232687;0.2756233;0.5886427;0.7573949;-1;0;-1;-961;3837;1288;4;-0.6108033;0.2119114;-0.433518;-0.627754;1;-3;0;2297;3200;356;16;0.7177697;-0.6828254;-0.04432133;-0.1288089;0;6;1;291;4036;-178;2;0.4570637;-0.6151503;-0.4778393;-0.4293629;0;-3;-1;855;4018;-467;8;0.4445983;-0.8679095;0.1398892;0.1717452;-1;2;0;371;3415;2223;0.4544605;2.551392;1.021892;0.4604377;3.096082;1.051861;0.4656931;3.574976;1.076184;0.5865831;4.296469;1.133588;0.3856686;4.662836;1.121082;0.02513826;4.576494;1.173063;-0.6935333;4.900291;0.6862408;-0.04171583;5.276515;1.261901;0.8988591;4.576852;1.121081;1.15989;4.386366;1.173062;1.066236;3.515188;1.573753;0.4105687;2.833622;1.515825;0.1422112;2.509802;1.011749;0.1059132;1.334648;0.1407988;0;0;0;0.1422112;2.509802;1.011749;0.1059132;1.334648;0.1407988;0;0;0
776237.502;NotLabelled;16384;0.7396148;0.3753462;0.5249307;0.1911357;-3;0;5;2804;-1438;2663;65536;-0.5443213;-0.6044592;0.5235457;0.2534626;0;-1;-7;3721;-1664;-675;8192;0.5083103;-0.7622222;-0.3559557;-0.1842105;0;3;-3;1430;3699;-895;32768;0.5706371;-0.7397782;0.2548476;-0.2493075;1;10;2;2775;2935;1052;256;0.07894737;-0.2063712;-0.6731302;-0.7057436;5;4;2;665;4056;-305;128;-0.06094183;0.2756233;0.5872576;0.7585818;-5;0;-1;-1043;3895;1238;4;-0.6108033;0.2119114;-0.433518;-0.627754;2;-3;1;2405;3242;450;16;0.7177697;-0.6828254;-0.04432133;-0.1288089;0;7;2;523;4088;-86;2;0.4570637;-0.6151503;-0.4778393;-0.4293629;1;-3;-2;951;4008;-531;8;0.4445983;-0.8679095;0.1398892;0.1717452;-1;1;1;411;3361;2273;0.4518497;2.551718;1.020557;0.457827;3.096408;1.050526;0.4630823;3.575302;1.074849;0.583362;4.296672;1.135022;0.3821634;4.662923;1.123759;0.02166966;4.576101;1.175191;-0.6969014;4.902907;0.6902361;-0.04273883;5.275258;1.265756;0.8954219;4.577347;1.123758;1.156572;4.386875;1.175191;1.062879;3.51521;1.574812;0.4061804;2.834819;1.514803;0.1396004;2.510128;1.010414;0.1035641;1.334974;0.1394532;0;0;0;0.1396004;2.510128;1.010414;0.1035641;1.334974;0.1394532;0;0;0
776258.7495;NotLabelled;16384;0.7392672;0.3767313;0.5249307;0.1897507;-4;0;5;2806;-1434;2697;65536;-0.5443213;-0.6032568;0.5249307;0.2534626;0;0;-8;3751;-1712;-707;8192;0.5083103;-0.7628675;-0.3545706;-0.1842105;3;1;-2;1492;3745;-953;32768;0.5706371;-0.739786;0.2534626;-0.2506925;0;14;2;2817;2941;1082;256;0.07756232;-0.2063712;-0.6731302;-0.7058972;5;6;3;635;4062;-307;128;-0.06094183;0.2770083;0.5872576;0.7580771;-4;1;0;-999;3873;1242;4;-0.6108033;0.2105263;-0.433518;-0.6282198;0;0;1;2451;3256;630;16;0.7175198;-0.6828254;-0.04432133;-0.1301939;-2;6;2;645;3962;-82;2;0.4570637;-0.6151503;-0.4778393;-0.4293629;0;0;-2;1037;4044;-455;8;0.4445983;-0.8681825;0.1398892;0.1703601;0;4;2;319;3321;2373;0.4537184;2.551677;1.020477;0.4596943;3.096243;1.052615;0.4649484;3.575036;1.078846;0.5866348;4.296141;1.139367;0.3861541;4.662791;1.12826;0.02548701;4.57665;1.179623;-0.6923391;4.904632;0.6943581;-0.03897417;5.276689;1.270973;0.8992444;4.57621;1.12826;1.160017;4.385204;1.179623;1.067315;3.513539;1.579476;0.409566;2.833934;1.522119;0.1414696;2.510128;1.010154;0.1038221;1.334974;0.1392614;0;0;0;0.1414696;2.510128;1.010154;0.1038221;1.334974;0.1392614;0;0;0
776279.1914;NotLabelled;16384;0.7398962;0.3781163;0.5235457;0.1883656;-7;0;8;2934;-1502;2763;65536;-0.5429363;-0.6021268;0.5263157;0.2562327;-1;2;-8;3855;-1800;-617;8192;0.5069252;-0.7634532;-0.3545706;-0.1855956;5;1;-1;1496;3811;-951;32768;0.567867;-0.7414398;0.2506925;-0.2548476;-2;18;3;2777;2903;1148;256;0.07756232;-0.2063712;-0.6717451;-0.7072153;4;6;3;653;4088;-325;128;-0.06094183;0.2770083;0.5872576;0.7580771;0;2;0;-985;3855;1178;4;-0.6121883;0.2105263;-0.432133;-0.6278257;0;6;1;2493;3354;608;16;0.7169246;-0.6828254;-0.04570637;-0.132964;-2;5;1;551;4158;-142;2;0.4570637;-0.6151503;-0.4778393;-0.4293629;0;3;-1;979;4044;-469;8;0.4445983;-0.8681825;0.1398892;0.1703601;0;2;0;375;3315;2403;0.4593264;2.549496;1.023728;0.4653022;3.094059;1.05594;0.4705564;3.572848;1.082236;0.59365;4.293685;1.1431;0.3938889;4.660731;1.132147;0.03304982;4.575274;1.183443;-0.6854103;4.90626;0.7011636;-0.03019983;5.276411;1.276911;0.9068085;4.573146;1.132146;1.167203;4.381606;1.183442;1.073552;3.509806;1.582779;0.4158148;2.830203;1.525257;0.1470776;2.507948;1.013399;0.1064387;1.334679;0.1401033;0;0;0;0.1470776;2.507948;1.013399;0.1064387;1.334679;0.1401033;0;0;0
776299.3388;NotLabelled;16384;0.7395383;0.3795014;0.5235457;0.1869806;-9;1;9;2870;-1478;2789;65536;-0.5429363;-0.6015356;0.5263157;0.2576177;-4;2;-9;3809;-1664;-589;8192;0.5069252;-0.7631152;-0.3545706;-0.1869806;5;0;0;1476;3747;-907;32768;0.566482;-0.7424727;0.2479224;-0.2576177;-1;18;5;2727;2937;976;256;0.07617728;-0.2063712;-0.6717451;-0.7073659;4;8;3;699;4034;-407;128;-0.06094183;0.2756233;0.5872576;0.7585818;0;1;0;-1015;3827;1290;4;-0.6135734;0.2119114;-0.432133;-0.6260051;-1;7;1;2327;3316;562;16;0.7153442;-0.6842105;-0.04570637;-0.134349;-2;10;2;569;4026;-132;2;0.4570637;-0.6151503;-0.4778393;-0.4293629;0;3;0;761;3972;-501;8;0.4445983;-0.8681825;0.1398892;0.1703601;1;-1;0;277;3311;2307;0.4595814;2.547037;1.027485;0.4655572;3.0916;1.059698;0.4708114;3.570389;1.085994;0.5932981;4.291091;1.149622;0.3932546;4.658019;1.13991;0.03245056;4.572086;1.190657;-0.6839289;4.907242;0.7081631;-0.02652562;5.271218;1.285345;0.9062432;4.570837;1.13991;1.166755;4.379312;1.190656;1.069357;3.508039;1.590249;0.4087172;2.831198;1.533425;0.1473324;2.50549;1.017157;0.1088113;1.334412;0.1408289;0;0;0;0.1473324;2.50549;1.017157;0.1088113;1.334412;0.1408289;0;0;0
776320.3776;NotLabelled;16384;0.7401541;0.3808864;0.5221606;0.1855956;-12;1;9;2816;-1518;2731;65536;-0.5429363;-0.6009405;0.5263157;0.2590028;-6;4;-9;3791;-1624;-653;8192;0.5069252;-0.7631152;-0.3545706;-0.1869806;5;0;0;1504;3675;-1057;32768;0.566482;-0.742452;0.2465374;-0.2590028;0;14;4;2729;2771;908;256;0.07479224;-0.2049861;-0.6717451;-0.7079161;3;5;4;643;3940;-369;128;-0.05955679;0.2756233;0.5872576;0.7586918;-3;1;0;-1025;3807;1262;4;-0.6135734;0.2119114;-0.432133;-0.6260051;0;6;0;2299;3266;490;16;0.7149928;-0.6842105;-0.04709141;-0.1357341;-2;7;1;375;4062;-132;2;0.4570637;-0.6151503;-0.4778393;-0.4293629;0;1;0;787;3974;-529;8;0.4445983;-0.8681825;0.1398892;0.1703601;0;0;0;381;3363;2239;0.4674616;2.548009;1.022396;0.4734376;3.092576;1.054535;0.4786918;3.571369;1.080765;0.6025888;4.2918;1.144732;0.4032672;4.659124;1.135172;0.04229102;4.573877;1.185852;-0.6749799;4.912024;0.7067821;-0.01478964;5.274011;1.28203;0.9160835;4.570935;1.135171;1.176215;4.378875;1.185851;1.078184;3.506985;1.583938;0.4166244;2.830945;1.528291;0.1552128;2.50646;1.012074;0.1140816;1.334344;0.1372531;0;0;0;0.1552128;2.50646;1.012074;0.1140816;1.334344;0.1372531;0;0;0
776342.2444;NotLabelled;16384;0.7401295;0.3822715;0.5221606;0.1828255;-12;3;11;2790;-1516;2613;65536;-0.5429363;-0.6003417;0.5263157;0.2603878;-6;3;-10;3699;-1502;-667;8192;0.5055401;-0.7633891;-0.3559557;-0.1869806;6;4;0;1550;3625;-1091;32768;0.5650969;-0.7425361;0.2465374;-0.2617728;0;13;4;2695;2759;1018;256;0.0734072;-0.2063712;-0.6717451;-0.7076587;4;6;4;933;3852;-207;128;-0.05817174;0.2756233;0.5858725;0.7598693;-6;3;-1;-961;3811;1224;4;-0.6135734;0.2119114;-0.432133;-0.6260051;1;3;0;2189;3148;466;16;0.7149003;-0.6842105;-0.04847645;-0.1357341;-1;12;2;325;3948;-72;2;0.4570637;-0.6151503;-0.4778393;-0.4293629;0;2;-1;789;3984;-555;8;0.4445983;-0.8681825;0.1398892;0.1703601;0;0;1;365;3395;2195;0.4715549;2.548033;1.021449;0.4775306;3.092583;1.053876;0.4827846;3.571362;1.08036;0.606689;4.291763;1.144639;0.4073742;4.659095;1.135219;0.04639307;4.573833;1.185837;-0.6708455;4.916133;0.7096764;-0.006654859;5.276127;1.281561;0.9201891;4.570898;1.135218;1.180314;4.378812;1.185836;1.083874;3.506922;1.584311;0.4222207;2.830875;1.52987;0.1593061;2.50649;1.011103;0.1146979;1.334373;0.1364522;0;0;0;0.1593061;2.50649;1.011103;0.1146979;1.334373;0.1364522;0;0;0
776363.5068;NotLabelled;16384;0.7407293;0.3836565;0.5207756;0.1814404;-12;2;10;2816;-1570;2571;65536;-0.5415512;-0.60099;0.5263157;0.2617728;-5;1;-12;3623;-1580;-643;8192;0.5041551;-0.7639644;-0.3559557;-0.1883656;6;4;0;1500;3653;-1119;32768;0.5637119;-0.7435571;0.2451524;-0.2631579;0;13;4;2721;2791;974;256;0.0734072;-0.2063712;-0.6703601;-0.7089708;5;-6;3;551;3956;-309;128;-0.05817174;0.2756233;0.5844875;0.7609351;-4;2;-1;-977;3929;1330;4;-0.6135734;0.2132964;-0.432133;-0.6255345;2;1;0;2285;3156;570;16;0.7146358;-0.6842105;-0.04847645;-0.1371191;-1;9;2;611;4054;-78;2;0.4570637;-0.6131012;-0.4792244;-0.4307479;0;1;-1;843;3970;-601;8;0.4445983;-0.8681825;0.1398892;0.1703601;0;1;1;415;3327;2245;0.4689681;2.548327;1.020293;0.4749423;3.092744;1.054883;0.4801952;3.571414;1.083268;0.6069154;4.291294;1.147897;0.409042;4.659409;1.138634;0.04772547;4.575538;1.189182;-0.6690811;4.9224;0.7156804;-0.003337801;5.280396;1.287014;0.9215075;4.569203;1.138633;1.180873;4.376075;1.189181;1.083784;3.505462;1.590283;0.4190306;2.83257;1.534562;0.1567198;2.506825;1.009768;0.1123636;1.334709;0.1351052;0;0;0;0.1567198;2.506825;1.009768;0.1123636;1.334709;0.1351052;0;0;0
776384.248;NotLabelled;16384;0.7419041;0.3864266;0.5180055;0.1786704;-10;3;12;2710;-1562;2467;65536;-0.5401662;-0.5985864;0.5290859;0.2645429;-2;-1;-12;3679;-1382;-589;8192;0.501385;-0.7654432;-0.3559557;-0.1897507;8;4;0;1438;3769;-1003;32768;0.5637119;-0.7434797;0.2423823;-0.265928;1;12;3;2779;2895;880;256;0.07479224;-0.2091413;-0.6703601;-0.7080137;9;-12;0;107;4710;-397;128;-0.0567867;0.2756233;0.5844875;0.7610397;-5;5;0;-1007;3865;1274;4;-0.6149584;0.2132964;-0.4307479;-0.6251296;0;4;0;2439;3302;744;16;0.7143688;-0.6842105;-0.04847645;-0.1385041;-1;-2;0;557;4044;-10;2;0.4556787;-0.6141313;-0.4792244;-0.4307479;0;4;-1;859;3990;-457;8;0.4445983;-0.8681825;0.1398892;0.1703601;0;1;0;359;3327;2311;0.4696473;2.549876;1.019051;0.4756203;3.09417;1.055515;0.480872;3.57274;1.085548;0.6069905;4.292473;1.152938;0.4088371;4.660466;1.144915;0.04755291;4.576127;1.194914;-0.6670957;4.927123;0.7211952;-0.001645237;5.282826;1.294298;0.9213724;4.570657;1.144914;1.180856;4.377545;1.194914;1.079995;3.50747;1.596253;0.4143257;2.835392;1.541646;0.1573994;2.508411;1.008372;0.1146944;1.334403;0.1361671;0;0;0;0.1573994;2.508411;1.008372;0.1146944;1.334403;0.1361671;0;0;0
776405.2118;NotLabelled;16384;0.7428086;0.3878116;0.5166205;0.1759003;-8;2;12;2638;-1634;2441;65536;-0.5401662;-0.596744;0.5304709;0.265928;-1;-1;-12;3699;-1240;-675;8192;0.5;-0.7663487;-0.3559557;-0.1897507;8;4;0;1420;3695;-1017;32768;0.5637119;-0.7434332;0.2409972;-0.267313;2;11;3;2671;2967;854;256;0.07617728;-0.2105263;-0.6689751;-0.7087651;6;-3;3;691;3992;-283;128;-0.0567867;0.2756233;0.5844875;0.7610397;-7;5;0;-967;3793;1156;4;-0.6149584;0.2132964;-0.4307479;-0.6251296;-1;6;-1;2437;3354;698;16;0.7144613;-0.6842105;-0.04709141;-0.1385041;0;-2;0;663;4038;-20;2;0.4556787;-0.6141313;-0.4792244;-0.4307479;0;3;0;749;3930;-475;8;0.4445983;-0.8681825;0.1398892;0.1703601;0;0;0;329;3381;2285;0.4639056;2.547378;1.024077;0.4698784;3.091653;1.060825;0.4751299;3.570207;1.091107;0.6026306;4.289721;1.158225;0.405185;4.658092;1.150057;0.04373828;4.574467;1.200081;-0.6607494;4.933448;0.7172163;0.004221112;5.280963;1.295874;0.9175466;4.567299;1.150101;1.176657;4.373706;1.200179;1.064733;3.505562;1.602764;0.3997042;2.833457;1.541125;0.1516578;2.505918;1.013375;0.1162155;1.334091;0.1379171;0;0;0;0.1516578;2.505918;1.013375;0.1162155;1.334091;0.1379171;0;0;0
776427.1836;NotLabelled;16384;0.7424107;0.3891967;0.5166205;0.1745152;-6;2;10;2560;-1658;2447;65536;-0.5387812;-0.5961441;0.5318559;0.267313;-2;-1;-10;3721;-1232;-643;8192;0.5;-0.7660043;-0.3559557;-0.1911357;7;4;-1;1474;3755;-935;32768;0.5623268;-0.7439827;0.2409972;-0.2686981;1;9;4;2611;3021;792;256;0.07617728;-0.2119114;-0.6689751;-0.7083523;6;-4;2;651;3928;-325;128;-0.05540166;0.2742382;0.5831025;0.7627028;-7;4;-1;-947;3779;1310;4;-0.6163435;0.2146814;-0.4307479;-0.6232887;-1;6;-1;2327;3292;612;16;0.7131323;-0.6855956;-0.04709141;-0.1385041;0;-3;0;625;4092;-26;2;0.4556787;-0.6141313;-0.4792244;-0.4307479;0;1;-1;721;3954;-517;8;0.4445983;-0.8681825;0.1398892;0.1703601;-1;-1;0;373;3365;2287;0.4619206;2.547032;1.026109;0.4678934;3.091307;1.062857;0.4731448;3.569861;1.09314;0.6000257;4.289254;1.162689;0.4022839;4.657488;1.155636;0.04088101;4.573406;1.205206;-0.66195;4.9383;0.7243634;0.003029466;5.281843;1.305378;0.9147195;4.567113;1.155635;1.173963;4.373567;1.205204;1.060587;3.506396;1.609475;0.3959821;2.834275;1.543579;0.1496727;2.505572;1.015407;0.1179129;1.333745;0.1398084;0;0;0;0.1496727;2.505572;1.015407;0.1179129;1.333745;0.1398084;0;0;0
776447.2124;NotLabelled;16384;0.7429699;0.3905817;0.5152354;0.1731302;-6;1;11;2516;-1614;2435;65536;-0.5387812;-0.5942813;0.533241;0.2686981;-1;-1;-9;3691;-1272;-717;8192;0.5;-0.7660043;-0.3559557;-0.1911357;4;3;-2;1440;3813;-789;32768;0.5637119;-0.7428796;0.2396122;-0.2700831;1;7;3;2635;3121;744;256;0.07756232;-0.2132964;-0.66759;-0.7090926;4;-3;0;599;3970;-355;128;-0.05401662;0.2742382;0.5817174;0.7638589;-7;2;-1;-935;3743;1302;4;-0.6177285;0.2146814;-0.4307479;-0.6219161;0;4;-1;2259;3194;548;16;0.7133999;-0.6855956;-0.04709141;-0.1371191;0;-3;0;597;4080;-146;2;0.4556787;-0.6131575;-0.4792244;-0.432133;0;0;0;759;3954;-521;8;0.4445983;-0.8681825;0.1398892;0.1703601;-1;-1;0;481;3349;2257;0.4628545;2.548244;1.02088;0.4688258;3.092375;1.059703;0.4740759;3.57081;1.09181;0.6023115;4.289954;1.161466;0.4052911;4.658571;1.154298;0.04369327;4.57519;1.203631;-0.656443;4.941196;0.7197123;0.007503122;5.280466;1.304408;0.9175497;4.567199;1.154625;1.176384;4.373147;1.204355;1.059433;3.506896;1.609578;0.3929218;2.836774;1.542592;0.1506071;2.506825;1.010006;0.1202381;1.333957;0.135755;0;0;0;0.1506071;2.506825;1.010006;0.1202381;1.333957;0.135755;0;0;0
776467.2496;NotLabelled;16384;0.7442495;0.3905817;0.5138504;0.1717452;-5;0;10;2536;-1664;2403;65536;-0.5373961;-0.595534;0.533241;0.2686981;0;0;-7;3717;-1188;-811;8192;0.5;-0.765012;-0.3573407;-0.1925208;0;3;-3;1530;3869;-811;32768;0.5637119;-0.7428202;0.2382271;-0.2714681;1;0;2;2547;3097;840;256;0.07756232;-0.2132964;-0.666205;-0.710394;4;-2;2;741;3904;-357;128;-0.05263158;0.2742382;0.5817174;0.7639556;-6;0;-1;-947;3795;1276;4;-0.6177285;0.2160665;-0.4307479;-0.6214362;0;1;1;2313;3222;526;16;0.7133999;-0.6855956;-0.04709141;-0.1371191;-1;-1;-1;527;4052;-126;2;0.4556787;-0.6131575;-0.4792244;-0.432133;0;1;0;865;3932;-589;8;0.4445983;-0.8681825;0.1398892;0.1703601;0;0;0;423;3403;2357;0.4591761;2.547659;1.021608;0.4651455;3.091633;1.062577;0.4703943;3.569937;1.096572;0.598038;4.288955;1.168577;0.400712;4.657431;1.162628;0.03918627;4.573589;1.211708;-0.6588097;4.945511;0.7292093;0.005423903;5.280777;1.315884;0.9130461;4.566482;1.162627;1.172044;4.372483;1.211707;1.054998;3.504691;1.613594;0.3900455;2.833719;1.539968;0.1469292;2.506284;1.010557;0.1173806;1.334275;0.1351252;0;0;0;0.1469292;2.506284;1.010557;0.1173806;1.334275;0.1351252;0;0;0
776488.8388;NotLabelled;16384;0.7447944;0.3919668;0.5124654;0.1703601;-2;-1;6;2444;-1664;2413;65536;-0.5373961;-0.5936629;0.534626;0.2700831;2;1;-2;3751;-1140;-863;8192;0.5;-0.7646621;-0.3573407;-0.1939058;0;2;-3;1412;3847;-875;32768;0.5650969;-0.7422724;0.2382271;-0.2700831;2;-1;0;2545;3047;902;256;0.07756232;-0.2132964;-0.666205;-0.710394;4;-1;1;621;3968;-387;128;-0.05263158;0.2742382;0.5817174;0.7639556;-2;0;-1;-875;3837;1258;4;-0.6177285;0.2146814;-0.4307479;-0.6219161;0;-2;1;2349;3202;560;16;0.7133999;-0.6855956;-0.04709141;-0.1371191;-2;2;0;465;4094;-152;2;0.4556787;-0.6131575;-0.4792244;-0.432133;1;1;0;917;4008;-605;8;0.4445983;-0.8684531;0.1398892;0.1689751;0;1;0;339;3411;2329;0.4575591;2.549552;1.019171;0.4635282;3.093506;1.060416;0.4687768;3.571792;1.094653;0.5957936;4.290641;1.169401;0.3981744;4.658978;1.164685;0.03668442;4.574664;1.213217;-0.6582545;4.949276;0.7283922;0.003935099;5.284258;1.317535;0.9105816;4.568441;1.164685;1.169704;4.374471;1.213216;1.052403;3.506163;1.613914;0.3876587;2.835171;1.538602;0.1453122;2.508182;1.008098;0.1173381;1.334275;0.1351621;0;0;0;0.1453122;2.508182;1.008098;0.1173381;1.334275;0.1351621;0;0;0
776509.2928;NotLabelled;16384;0.7450159;0.3933518;0.5110803;0.1703601;-1;-3;3;2540;-1684;2481;65536;-0.536011;-0.5936661;0.536011;0.2700831;2;2;-1;3721;-1242;-713;8192;0.5;-0.7646621;-0.3573407;-0.1939058;-1;2;-3;1398;3807;-835;32768;0.5650969;-0.7422724;0.2382271;-0.2700831;1;-3;0;2587;2965;878;256;0.07756232;-0.2146814;-0.66482;-0.7112738;4;-6;0;513;4068;-403;128;-0.05263158;0.2742382;0.5803324;0.7650083;-2;0;0;-901;3855;1288;4;-0.6177285;0.2146814;-0.4307479;-0.6219161;0;0;1;2257;3288;578;16;0.7133999;-0.6855956;-0.04709141;-0.1371191;-2;1;0;531;4050;-74;2;0.4556787;-0.6131575;-0.4792244;-0.432133;0;-2;0;795;3976;-427;8;0.4445983;-0.8684531;0.1398892;0.1689751;-1;0;0;329;3351;2291;0.4588582;2.547654;1.021677;0.4648274;3.091607;1.062921;0.4700758;3.569894;1.097158;0.5970927;4.288742;1.171906;0.3994736;4.657079;1.167191;0.0379836;4.572765;1.215723;-0.6548744;4.951439;0.7310755;0.00973478;5.282408;1.319762;0.9118807;4.566543;1.16719;1.171003;4.372572;1.215722;1.052348;3.503647;1.614677;0.3897029;2.830665;1.538624;0.1466113;2.506284;1.010604;0.1173382;1.334275;0.1351622;0;0;0;0.1466113;2.506284;1.010604;0.1173382;1.334275;0.1351622;0;0;0
776530.1848;NotLabelled;16384;0.7450159;0.3933518;0.5110803;0.1703601;-2;-4;1;2502;-1720;2559;65536;-0.536011;-0.5930341;0.536011;0.2714681;0;2;-1;3783;-1320;-613;8192;0.501385;-0.7637547;-0.3573407;-0.1939058;-2;0;-3;1386;3803;-849;32768;0.5650969;-0.7418265;0.2396122;-0.2700831;1;-5;0;2669;2957;912;256;0.07756232;-0.2146814;-0.66482;-0.7112738;4;-4;0;649;4022;-381;128;-0.05263158;0.2756233;0.5803324;0.7645103;-2;-2;0;-953;3857;1322;4;-0.6177285;0.2146814;-0.4307479;-0.6219161;0;1;0;2267;3412;628;16;0.7133999;-0.6855956;-0.04709141;-0.1371191;-2;0;0;627;4046;-82;2;0.4556787;-0.6141313;-0.4792244;-0.4307479;0;-3;0;793;4022;-491;8;0.4445983;-0.8684531;0.1398892;0.1689751;-1;0;0;355;3451;2365;0.4557839;2.547616;1.022272;0.4617514;3.091424;1.065383;0.4669988;3.56959;1.101262;0.5947341;4.288011;1.178846;0.3975367;4.656586;1.175261;0.03589213;4.572502;1.223033;-0.6526156;4.952013;0.7328726;0.009034932;5.280718;1.326142;0.9098409;4.56547;1.175553;1.168684;4.371027;1.22368;1.047611;3.503475;1.624892;0.3851998;2.830493;1.546824;0.1435374;2.506284;1.011045;0.1169266;1.334275;0.1355182;0;0;0;0.1435374;2.506284;1.011045;0.1169266;1.334275;0.1355182;0;0;0
776550.3976;NotLabelled;16384;0.744283;0.3947368;0.5110803;0.1703601;-3;-3;0;2540;-1628;2643;65536;-0.536011;-0.594283;0.534626;0.2714681;-1;3;0;3695;-1342;-669;8192;0.5027701;-0.7624903;-0.3573407;-0.1952908;-3;0;-3;1336;3835;-911;32768;0.566482;-0.7412729;0.2396122;-0.2686981;0;-6;0;2655;2879;920;256;0.07894737;-0.2160665;-0.6634349;-0.7119949;1;-4;0;551;4024;-457;128;-0.05401662;0.2756233;0.5803324;0.7644137;0;-3;0;-921;3841;1372;4;-0.6177285;0.2160665;-0.4307479;-0.6214362;-1;-1;0;2279;3414;598;16;0.7133999;-0.6855956;-0.04709141;-0.1371191;-1;0;0;557;4072;86;2;0.4556787;-0.6141313;-0.4792244;-0.4307479;0;-2;0;799;4008;-475;8;0.4445983;-0.8684531;0.1398892;0.1689751;0;-1;0;341;3369;2325;0.4563629;2.547614;1.022196;0.4623306;3.091416;1.065387;0.4675778;3.569577;1.101336;0.5953575;4.287997;1.178847;0.3981581;4.656573;1.175375;0.0365409;4.572488;1.223354;-0.6537263;4.953674;0.7369822;0.009975255;5.280329;1.329091;0.9104624;4.565456;1.175374;1.169333;4.371014;1.223353;1.051987;3.500912;1.620126;0.3883898;2.829117;1.541917;0.1441166;2.506284;1.010962;0.1170042;1.334275;0.1354512;0;0;0;0.1441166;2.506284;1.010962;0.1170042;1.334275;0.1354512;0;0;0
776571.187;NotLabelled;16384;0.744283;0.3947368;0.5110803;0.1703601;-4;-1;-3;2552;-1716;2657;65536;-0.536011;-0.594283;0.534626;0.2714681;-4;4;0;3771;-1296;-647;8192;0.5041551;-0.7622235;-0.3559557;-0.1952908;-4;-4;-3;1310;3833;-893;32768;0.566482;-0.7413247;0.2409972;-0.267313;-1;-8;-1;2579;2933;940;256;0.07894737;-0.2160665;-0.6634349;-0.7119949;2;-3;0;645;3956;-409;128;-0.05401662;0.2756233;0.5803324;0.7644137;-2;-2;0;-923;3819;1326;4;-0.6177285;0.2146814;-0.4307479;-0.6219161;-2;-2;1;2233;3322;608;16;0.7120662;-0.6869806;-0.04709141;-0.1371191;0;-1;0;689;4118;72;2;0.4556787;-0.6141313;-0.4792244;-0.4307479;0;-2;0;829;4054;-491;8;0.4445983;-0.8681825;0.1398892;0.1703601;-1;-1;1;279;3321;2385;0.4507379;2.549518;1.020269;0.4567057;3.093342;1.063184;0.4619532;3.571522;1.098889;0.5890739;4.289795;1.178807;0.3915612;4.658212;1.176419;0.02998853;4.573663;1.223915;-0.6587448;4.956225;0.7364503;0.00171411;5.284862;1.331084;0.9039432;4.567533;1.176418;1.162952;4.373156;1.223915;1.04486;3.501274;1.616536;0.3837093;2.827497;1.534735;0.1384915;2.508182;1.009058;0.1164214;1.334275;0.1359526;0;0;0;0.1384915;2.508182;1.009058;0.1164214;1.334275;0.1359526;0;0;0
776591.5858;NotLabelled;16384;0.74333;0.3947368;0.5124654;0.1703601;-5;0;-6;2596;-1692;2555;65536;-0.536011;-0.5948927;0.533241;0.2728532;-6;6;2;3697;-1394;-727;8192;0.5055401;-0.7623053;-0.3545706;-0.1939058;-4;-6;-3;1418;3871;-849;32768;0.566482;-0.7413712;0.2423823;-0.265928;-2;-10;-2;2551;2985;966;256;0.08033241;-0.2160665;-0.6634349;-0.71184;2;-4;0;601;4008;-453;128;-0.05540166;0.2756233;0.5789474;0.7653642;-2;-3;0;-857;3825;1318;4;-0.6163435;0.2146814;-0.432133;-0.6223292;-3;-3;0;2367;3242;572;16;0.7121565;-0.6869806;-0.04570637;-0.1371191;-1;-9;0;733;4088;26;2;0.4556787;-0.6152095;-0.4778393;-0.4307479;0;-3;1;833;3978;-513;8;0.4432133;-0.8688903;0.1398892;0.1703601;0;-3;0;383;3345;2313;0.4547821;2.547813;1.01842;0.4607497;3.091637;1.061335;0.4659973;3.569816;1.09704;0.593118;4.28809;1.176958;0.3956054;4.656507;1.174569;0.03403261;4.571958;1.222066;-0.6547421;4.95452;0.7346599;0.005716741;5.283156;1.329294;0.9079874;4.565827;1.174569;1.166996;4.37145;1.222066;1.049803;3.498308;1.612146;0.3884556;2.824548;1.531804;0.1425355;2.506477;1.007209;0.1191832;1.334469;0.1315895;0;0;0;0.1425355;2.506477;1.007209;0.1191832;1.334469;0.1315895;0;0;0
776632.1882;NotLabelled;16384;0.7416351;0.3961219;0.5138504;0.1703601;-7;0;-7;2632;-1676;2549;65536;-0.5373961;-0.5936046;0.5318559;0.2756233;-4;7;2;3839;-1286;-759;8192;0.5069252;-0.7620285;-0.3531856;-0.1939058;-6;-5;-1;1470;3849;-955;32768;0.567867;-0.7413363;0.2437673;-0.2617728;-2;-11;-3;2703;2949;914;256;0.08310249;-0.2188366;-0.6606648;-0.7132507;1;-8;-1;615;3970;-411;128;-0.0567867;0.2783934;0.5775623;0.7653066;0;-8;0;-947;3811;1326;4;-0.6163435;0.2132964;-0.432133;-0.6228053;-3;-2;1;2305;3270;426;16;0.7125093;-0.6869806;-0.04432133;-0.1357341;-1;0;1;293;4168;-318;2;0.4556787;-0.616177;-0.4778393;-0.4293629;1;-7;1;785;4004;-519;8;0.4432133;-0.8686662;0.1412742;0.1703601;-1;-3;0;351;3403;2253;0.4571196;2.549609;1.017267;0.463086;3.093305;1.061765;0.4683323;3.571379;1.098862;0.5940392;4.28994;1.178423;0.3957983;4.657965;1.175874;0.03439754;4.572724;1.223442;-0.6555062;4.954152;0.7367439;0.004894972;5.282722;1.331479;0.9083586;4.568299;1.175873;1.167755;4.374457;1.223441;1.052013;3.500664;1.612496;0.3906201;2.826919;1.532403;0.1448735;2.508306;1.005927;0.1211971;1.334124;0.133232;0;0;0;0.1448735;2.508306;1.005927;0.1211971;1.334124;0.133232;0;0;0
776652.1575;NotLabelled;16384;0.7399312;0.3975069;0.5152354;0.1703601;-6;0;-8;2640;-1736;2453;65536;-0.5387812;-0.5935885;0.5304709;0.2756233;-4;8;3;3833;-1396;-689;8192;0.5083103;-0.7614568;-0.3531856;-0.1925208;-6;-5;-1;1430;3839;-907;32768;0.567867;-0.7413673;0.2451524;-0.2603878;-2;-11;-4;2781;2977;1026;256;0.08448754;-0.2188366;-0.6606648;-0.713088;0;-8;-1;651;4076;-479;128;-0.05817174;0.2797784;0.5775623;0.7646973;0;-11;-1;-955;3871;1336;4;-0.6163435;0.2119114;-0.433518;-0.6223154;-1;-3;1;2211;3230;420;16;0.7125093;-0.6869806;-0.04432133;-0.1357341;1;6;1;185;4052;-234;2;0.4556787;-0.6172486;-0.4764543;-0.4293629;1;-7;0;781;4054;-501;8;0.4432133;-0.8686662;0.1412742;0.1703601;-1;-4;1;443;3429;2251;0.4496589;2.547652;1.021461;0.4556238;3.091204;1.067691;0.4608687;3.569157;1.106311;0.5852332;4.287409;1.190637;0.3863536;4.655097;1.190233;0.02504912;4.568925;1.236844;-0.6635666;4.950581;0.748504;-0.003646433;5.277324;1.344777;0.8990692;4.566324;1.190233;1.158751;4.372632;1.236844;1.040763;3.497585;1.622393;0.3829461;2.82071;1.539292;0.1374132;2.506386;1.009978;0.1199533;1.3341;0.1345922;0;0;0;0.1374132;2.506386;1.009978;0.1199533;1.3341;0.1345922;0;0;0
776674.1692;NotLabelled;16384;0.7389648;0.3975069;0.5166205;0.1703601;-5;0;-8;2734;-1630;2417;65536;-0.5387812;-0.5941796;0.5290859;0.2770083;1;7;4;3645;-1310;-705;8192;0.5096953;-0.761521;-0.3518005;-0.1911357;-5;-6;-2;1436;3791;-1073;32768;0.567867;-0.7414139;0.2479224;-0.2576177;-3;-9;-4;2729;2893;988;256;0.08587258;-0.2202216;-0.6606648;-0.7124959;-2;-12;0;587;4074;-475;128;-0.05955679;0.2811634;0.5775623;0.7640824;0;-11;0;-975;3881;1276;4;-0.6163435;0.2119114;-0.433518;-0.6223154;0;-5;0;2191;3236;526;16;0.7124218;-0.6869806;-0.04570637;-0.1357341;0;-1;1;737;4026;-112;2;0.4556787;-0.6172486;-0.4764543;-0.4293629;2;-7;0;881;4038;-461;8;0.4432133;-0.8684399;0.1426593;0.1703601;-1;-2;0;391;3373;2307;0.4534023;2.547061;1.02237;0.4593673;3.090631;1.068388;0.4646124;3.568599;1.106823;0.5875639;4.287138;1.190775;0.3879579;4.654432;1.190202;0.02682859;4.56757;1.236889;-0.6632727;4.949436;0.7508157;-0.003245652;5.278444;1.345723;0.9008479;4.566673;1.190202;1.160916;4.373517;1.236889;1.045607;3.49793;1.62202;0.3877509;2.821066;1.539152;0.1411565;2.50579;1.010904;0.1197089;1.3341;0.1348094;0;0;0;0.1411565;2.50579;1.010904;0.1197089;1.3341;0.1348094;0;0;0
776694.18;NotLabelled;16384;0.7372469;0.398892;0.5180055;0.1703601;-3;-2;-8;2738;-1720;2471;65536;-0.5387812;-0.59541;0.5277008;0.2770083;0;8;2;3657;-1432;-487;8192;0.5110803;-0.7605921;-0.3518005;-0.1911357;-5;-4;-1;1460;3775;-1019;32768;0.567867;-0.7418937;0.2479224;-0.2562327;-3;-8;-4;2623;2903;1092;256;0.08864266;-0.2216066;-0.6606648;-0.7117268;-4;-20;-2;495;4118;-453;128;-0.06094183;0.2811634;0.5775623;0.7639731;2;-8;-1;-935;3859;1336;4;-0.6149584;0.2105263;-0.433518;-0.624153;-3;-8;1;2369;3322;588;16;0.7125093;-0.6869806;-0.04432133;-0.1357341;0;1;2;397;4064;36;2;0.4570637;-0.6182532;-0.4750692;-0.4279778;2;-6;0;917;4018;-487;8;0.4432133;-0.8684399;0.1426593;0.1703601;0;-3;1;343;3407;2359;0.4471357;2.54741;1.021457;0.4531009;3.090999;1.067261;0.4583463;3.568981;1.105506;0.5812728;4.287565;1.189106;0.3816506;4.65485;1.188375;0.02052876;4.567994;1.235133;-0.6696568;4.948712;0.748279;-0.01096648;5.277658;1.3447;0.8945445;4.567114;1.188375;1.154624;4.373992;1.235132;1.039959;3.497757;1.618981;0.3820602;2.820907;1.536328;0.1348899;2.506135;1.010008;0.1169317;1.334444;0.1338356;0;0;0;0.1348899;2.506135;1.010008;0.1169317;1.334444;0.1338356;0;0;0
776715.2904;NotLabelled;16384;0.7359499;0.398892;0.5193906;0.1717452;-3;-4;-9;2772;-1660;2485;65536;-0.5387812;-0.5959897;0.5263157;0.2783934;0;9;3;3801;-1384;-433;8192;0.5110803;-0.7612312;-0.3504155;-0.1911357;-3;-5;-1;1468;3779;-877;32768;0.567867;-0.7423706;0.2479224;-0.2548476;-4;-8;-4;2599;2965;1110;256;0.0900277;-0.2229917;-0.6606648;-0.7111201;-2;-9;0;571;4016;-351;128;-0.06232687;0.2825485;0.5775623;0.7633502;3;-6;0;-1001;3833;1238;4;-0.6135734;0.2091413;-0.434903;-0.6250176;-3;-4;0;2383;3290;610;16;0.7122441;-0.6869806;-0.04432133;-0.1371191;0;4;2;629;4058;-20;2;0.4570637;-0.619315;-0.4736842;-0.4279778;0;-7;0;851;4060;-447;8;0.4418283;-0.8689168;0.1440443;0.1703601;0;-5;0;379;3347;2399;0.4424257;2.546052;1.025038;0.4483911;3.089665;1.070544;0.4536367;3.567669;1.108528;0.5751336;4.286583;1.19138;0.3747734;4.653465;1.190312;0.01383501;4.56593;1.237219;-0.6761822;4.946839;0.7502757;-0.02165258;5.27777;1.35017;0.8878427;4.566759;1.190311;1.148318;4.374207;1.237219;1.033764;3.496843;1.618512;0.3773029;2.818827;1.534008;0.1301796;2.50477;1.013614;0.1183844;1.3341;0.1359742;0;0;0;0.1301796;2.50477;1.013614;0.1183844;1.3341;0.1359742;0;0;0
776756.1768;NotLabelled;16384;0.7351975;0.400277;0.5193906;0.1717452;-3;-2;-10;2848;-1652;2437;65536;-0.5373961;-0.5984566;0.5249307;0.2783934;0;9;4;3937;-1424;-441;8192;0.5124654;-0.7606463;-0.3504155;-0.1897507;-4;-7;-1;1498;3731;-857;32768;0.567867;-0.742381;0.2493075;-0.2534626;-4;-9;-3;2667;2989;952;256;0.0900277;-0.2229917;-0.6606648;-0.7111201;-2;-8;-1;681;4066;-367;128;-0.06232687;0.2825485;0.5775623;0.7633502;3;-6;0;-971;3805;1344;4;-0.6135734;0.2091413;-0.434903;-0.6250176;-3;-4;0;2273;3254;574;16;0.7122441;-0.6869806;-0.04432133;-0.1371191;0;-1;1;623;4028;-66;2;0.4570637;-0.6202698;-0.4736842;-0.4265928;1;-7;0;871;4018;-553;8;0.4418283;-0.8689168;0.1440443;0.1703601;0;-3;1;305;3335;2339;0.4439628;2.546022;1.026253;0.4499284;3.089653;1.071536;0.4551741;3.567673;1.109323;0.5766544;4.286632;1.191806;0.3762823;4.653507;1.190572;0.01535073;4.565984;1.237554;-0.6754342;4.944164;0.7495725;-0.02224922;5.275032;1.350965;0.8893543;4.566818;1.190571;1.14984;4.374298;1.237553;1.032371;3.496821;1.617696;0.3771996;2.81764;1.532539;0.1317168;2.504735;1.014847;0.1201672;1.333775;0.1375915;0;0;0;0.1317168;2.504735;1.014847;0.1201672;1.333775;0.1375915;0;0;0
776777.3174;NotLabelled;16384;0.7325783;0.400277;0.5221606;0.1745152;0;0;-8;2782;-1708;2331;65536;-0.5373961;-0.6014335;0.5207756;0.2797784;0;9;6;3675;-1340;-333;8192;0.5138504;-0.760693;-0.3490305;-0.1883656;-6;-5;0;1440;3681;-919;32768;0.5692521;-0.7417916;0.2520775;-0.2493075;-3;-12;-2;2657;2819;984;256;0.09418282;-0.2257618;-0.6606648;-0.7097065;-3;-10;0;699;3942;-345;128;-0.06509695;0.2839335;0.5775623;0.7626047;2;-6;0;-951;3763;1316;4;-0.6135734;0.2077562;-0.4362881;-0.624514;-1;-5;0;2393;3144;428;16;0.7118884;-0.6869806;-0.04570637;-0.1385041;0;10;3;427;4140;-138;2;0.4570637;-0.6213251;-0.4722992;-0.4265928;2;-6;0;941;3974;-545;8;0.4418283;-0.8689168;0.1440443;0.1703601;0;2;1;419;3291;2263;0.4439628;2.546022;1.026253;0.4499284;3.089653;1.071536;0.4551741;3.567673;1.109323;0.5766544;4.286632;1.191806;0.3762823;4.653507;1.190572;0.01535073;4.565984;1.237554;-0.6760879;4.945496;0.7515361;-0.02548891;5.278043;1.354803;0.8893543;4.566818;1.190571;1.14984;4.374298;1.237553;1.035985;3.496292;1.617574;0.3806296;2.817115;1.533813;0.1317168;2.504735;1.014847;0.1201672;1.333775;0.1375915;0;0;0;0.1317168;2.504735;1.014847;0.1201672;1.333775;0.1375915;0;0;0
776799.5384;NotLabelled;16384;0.7315891;0.400277;0.5235457;0.1745152;0;0;-8;2726;-1670;2347;65536;-0.5373961;-0.60263;0.5193906;0.2797784;2;6;6;3763;-1402;-447;8192;0.5152354;-0.7600976;-0.3490305;-0.1869806;-6;-6;-1;1408;3735;-955;32768;0.5692521;-0.7417839;0.2534626;-0.2479224;-4;-13;-2;2663;2867;940;256;0.09556787;-0.2271468;-0.6606648;-0.7090791;-3;-8;0;663;3954;-397;128;-0.06648199;0.2839335;0.5775623;0.7624852;2;-6;0;-997;3777;1316;4;-0.6121883;0.2063712;-0.4362881;-0.6263298;-1;-2;2;2395;3246;648;16;0.7123128;-0.6855956;-0.04709141;-0.1426593;0;6;4;661;4002;-46;2;0.4570637;-0.6233225;-0.4709141;-0.4252077;0;-6;0;955;3958;-539;8;0.4418283;-0.8689168;0.1440443;0.1703601;0;2;1;531;3303;2341;0.439707;2.54546;1.027888;0.4456732;3.089136;1.072634;0.4509192;3.567193;1.10995;0.5709752;4.286524;1.191266;0.3698653;4.652992;1.189507;0.009122878;4.564818;1.236723;-0.6827958;4.938827;0.7471356;-0.03844267;5.275231;1.35495;0.8831106;4.567336;1.189506;1.143996;4.375415;1.236722;1.028561;3.496764;1.614774;0.3758336;2.81562;1.526587;0.1274608;2.504162;1.016527;0.1189202;1.333799;0.1384402;0;0;0;0.1274608;2.504162;1.016527;0.1189202;1.333799;0.1384402;0;0;0
776820.1596;NotLabelled;16384;0.7312574;0.400277;0.5235457;0.1759003;1;0;-7;2844;-1666;2279;65536;-0.5373961;-0.6038209;0.5180055;0.2797784;1;5;6;3711;-1378;-321;8192;0.5166205;-0.7597922;-0.3476454;-0.1869806;-4;-8;0;1410;3653;-969;32768;0.5692521;-0.7417709;0.2548476;-0.2465374;-3;-13;-3;2647;2867;1010;256;0.09695291;-0.2285319;-0.6606648;-0.7084457;-2;-8;0;803;3956;-459;128;-0.06648199;0.2853186;0.5775623;0.761968;2;-3;0;-905;3773;1290;4;-0.6135734;0.2063712;-0.4362881;-0.6249731;-2;-1;1;2481;3276;690;16;0.7123128;-0.6855956;-0.04709141;-0.1426593;0;4;3;687;4014;26;2;0.4570637;-0.6233225;-0.4709141;-0.4252077;1;0;0;891;3962;-557;8;0.4418283;-0.8691872;0.1440443;0.1689751;0;0;0;451;3295;2357;0.4363773;2.543634;1.035976;0.4423436;3.087336;1.08041;0.4475899;3.565414;1.117451;0.5676413;4.28479;1.198376;0.3665253;4.651255;1.19644;0.005788565;4.563099;1.243734;-0.686286;4.935926;0.7534661;-0.04505593;5.274283;1.363495;0.8797721;4.565606;1.19644;1.140664;4.373714;1.243735;1.027404;3.494546;1.621242;0.3748471;2.813399;1.531819;0.1241311;2.50233;1.024641;0.1201563;1.332971;0.1451848;0;0;0;0.1241311;2.50233;1.024641;0.1201563;1.332971;0.1451848;0;0;0
776861.1712;NotLabelled;16384;0.7302638;0.400277;0.5249307;0.1759003;2;-1;-8;2806;-1700;2437;65536;-0.5373961;-0.6050064;0.5166205;0.2797784;0;0;4;3829;-1508;-511;8192;0.5166205;-0.7601318;-0.3476454;-0.1855956;-3;-6;0;1456;3693;-1083;32768;0.5692521;-0.7422091;0.2562327;-0.2437673;-3;-12;-3;2727;2881;1022;256;0.09833795;-0.2285319;-0.6606648;-0.7082548;0;-5;-1;699;4018;-405;128;-0.06786703;0.2853186;0.5775623;0.7618458;5;-3;1;-961;3823;1258;4;-0.6135734;0.2063712;-0.4362881;-0.6249731;-2;-1;1;2469;3328;654;16;0.7120339;-0.6855956;-0.04709141;-0.1440443;-1;2;3;725;4048;104;2;0.4570637;-0.6233225;-0.4709141;-0.4252077;1;-1;1;863;3986;-539;8;0.4418283;-0.8691872;0.1440443;0.1689751;0;-3;0;425;3267;2355;0.4345858;2.542736;1.037657;0.4405522;3.086432;1.082168;0.4457983;3.564504;1.119277;0.5658488;4.283925;1.199805;0.3647284;4.650386;1.19769;0.003996789;4.562253;1.245064;-0.6867403;4.933489;0.751714;-0.04864371;5.273794;1.363941;0.8779761;4.564743;1.19769;1.138875;4.37288;1.245064;1.025074;3.492479;1.619524;0.3726932;2.811329;1.528861;0.1223396;2.501433;1.026315;0.1195756;1.332971;0.1456639;0;0;0;0.1223396;2.501433;1.026315;0.1195756;1.332971;0.1456639;0;0;0
776881.2443;NotLabelled;16384;0.7299288;0.400277;0.5249307;0.1772853;1;0;-6;2924;-1710;2479;65536;-0.5373961;-0.605645;0.5166205;0.2783934;0;-1;4;3839;-1498;-447;8192;0.5166205;-0.7607636;-0.3462604;-0.1855956;-4;-3;-1;1546;3747;-1001;32768;0.5692521;-0.7421833;0.2576177;-0.2423823;-2;-10;-3;2779;2917;988;256;0.09833795;-0.2285319;-0.6606648;-0.7082548;-3;-6;-1;649;4020;-527;128;-0.06925207;0.2867036;0.5789474;0.7601481;4;-4;1;-1021;3807;1360;4;-0.6135734;0.2049861;-0.4362881;-0.6254287;-4;0;2;2405;3364;628;16;0.7105061;-0.6869806;-0.04570637;-0.1454294;-1;-1;3;879;4126;52;2;0.4570637;-0.6233225;-0.4709141;-0.4252077;1;-2;1;731;3952;-519;8;0.4418283;-0.8691872;0.1440443;0.1689751;0;-3;0;365;3365;2265;0.4350195;2.542403;1.039044;0.440986;3.086125;1.083237;0.4462326;3.564219;1.120067;0.5648867;4.283919;1.200167;0.3630514;4.649986;1.19786;0.002496958;4.561176;1.24532;-0.6893429;4.931225;0.7526232;-0.05305606;5.273472;1.365651;0.8764651;4.565345;1.197859;1.137742;4.374018;1.245319;1.024466;3.49421;1.621325;0.3730201;2.811888;1.532771;0.1227732;2.501094;1.027728;0.1216121;1.332632;0.1470731;0;0;0;0.1227732;2.501094;1.027728;0.1216121;1.332632;0.1470731;0;0;0
776902.372;NotLabelled;16384;0.7289307;0.400277;0.5263157;0.1772853;0;2;-4;2816;-1700;2469;65536;-0.5387812;-0.6050493;0.5166205;0.2770083;2;2;6;3863;-1504;-453;8192;0.5180055;-0.7601582;-0.3462604;-0.1842105;-4;-1;0;1602;3787;-1101;32768;0.5692521;-0.7421522;0.2590028;-0.2409972;0;-2;-3;2727;2919;954;256;0.09972299;-0.2285319;-0.6606648;-0.7080612;-2;-2;-1;649;4014;-509;128;-0.07063711;0.2867036;0.5789474;0.7600207;4;-3;1;-1001;3859;1370;4;-0.6135734;0.2049861;-0.4362881;-0.6254287;-6;0;1;2383;3208;726;16;0.7105061;-0.6869806;-0.04570637;-0.1454294;-2;-3;3;699;4012;78;2;0.4570637;-0.6233225;-0.4709141;-0.4252077;0;-4;0;763;3978;-537;8;0.4418283;-0.8689566;0.1454294;0.1689751;0;-3;0;395;3429;2237;0.4437302;2.540004;1.039884;0.4496986;3.083892;1.081982;0.4549467;3.562124;1.116969;0.5736006;4.281824;1.197069;0.3717655;4.647891;1.194762;0.0112111;4.559082;1.242222;-0.6810007;4.927534;0.7488518;-0.04649884;5.271788;1.362606;0.8851793;4.563251;1.194762;1.146456;4.371923;1.242222;1.031572;3.491987;1.617439;0.3799527;2.809656;1.530231;0.1314836;2.498652;1.028741;0.1290831;1.332094;0.1455672;0;0;0;0.1314836;2.498652;1.028741;0.1290831;1.332094;0.1455672;0;0;0
776923.1686;NotLabelled;16384;0.7293517;0.398892;0.5263157;0.1786704;1;0;-4;2774;-1684;2375;65536;-0.5387812;-0.6062291;0.5152354;0.2770083;2;6;7;3741;-1488;-493;8192;0.5180055;-0.7604925;-0.3462604;-0.1828255;-2;1;1;1604;3773;-1087;32768;0.5692521;-0.7426006;0.2590028;-0.2396122;1;0;-2;2685;2981;954;256;0.09972299;-0.2285319;-0.6606648;-0.7080612;-2;0;-1;735;4020;-363;128;-0.07063711;0.2853186;0.5789474;0.7605417;5;-1;2;-981;3835;1384;4;-0.6149584;0.2036011;-0.4376731;-0.6235503;-4;0;0;2275;3076;600;16;0.7105938;-0.6869806;-0.04432133;-0.1454294;-4;3;4;527;3926;-28;2;0.4570637;-0.6243666;-0.4695291;-0.4252077;0;-2;0;803;4018;-643;8;0.4418283;-0.8686861;0.1454294;0.1703601;0;-3;1;467;3435;2241;0.4419479;2.540011;1.040084;0.4479166;3.083924;1.081859;0.4531647;3.562177;1.116562;0.5704308;4.282153;1.196218;0.3678821;4.647825;1.193734;0.007510245;4.55834;1.241313;-0.6853266;4.92589;0.7481465;-0.05174327;5.27248;1.361534;0.8814597;4.564184;1.193687;1.143118;4.373395;1.241211;1.030788;3.492724;1.615477;0.379151;2.810384;1.528481;0.1297011;2.498652;1.028967;0.1288307;1.332094;0.1457905;0;0;0;0.1297011;2.498652;1.028967;0.1288307;1.332094;0.1457905;0;0;0
776944.3055;NotLabelled;16384;0.7283501;0.398892;0.5277008;0.1786704;2;0;-3;2848;-1714;2409;65536;-0.5387812;-0.6080332;0.5138504;0.2756233;0;0;3;3531;-1536;-369;8192;0.5180055;-0.7598603;-0.3476454;-0.1828255;0;3;2;1452;3683;-955;32768;0.5692521;-0.7430822;0.2576177;-0.2396122;1;1;-2;2665;2891;804;256;0.101108;-0.2285319;-0.6606648;-0.7078647;0;2;-2;639;3962;-475;128;-0.07202215;0.2853186;0.5803324;0.7593553;1;0;1;-1011;3747;1364;4;-0.6149584;0.2022161;-0.4376731;-0.6240008;0;-2;-3;2333;3056;466;16;0.7099335;-0.6869806;-0.04570637;-0.1481994;0;6;3;149;3968;-234;2;0.4570637;-0.6243666;-0.4695291;-0.4252077;0;-4;0;821;3994;-577;8;0.4418283;-0.8684531;0.1468144;0.1703601;0;0;1;501;3401;2271;0.451935;2.5381;1.043584;0.4579038;3.082018;1.085284;0.4631521;3.560276;1.119922;0.580411;4.280252;1.199588;0.3778625;4.645924;1.197086;0.01748645;4.556439;1.244633;-0.6760737;4.920786;0.7501076;-0.04325026;5.269307;1.363185;0.8914404;4.562284;1.197085;1.153094;4.371494;1.244632;1.042621;3.491638;1.621359;0.3919582;2.808134;1.53623;0.1396882;2.496739;1.032473;0.1310044;1.331714;0.1473176;0;0;0;0.1396882;2.496739;1.032473;0.1310044;1.331714;0.1473176;0;0;0
776985.1991;NotLabelled;16384;0.728009;0.398892;0.5277008;0.1800554;2;-1;-4;2860;-1592;2403;65536;-0.5401662;-0.6068032;0.5138504;0.2756233;-1;-1;2;3657;-1500;-365;8192;0.5180055;-0.7598603;-0.3476454;-0.1828255;-1;3;1;1354;3675;-957;32768;0.5706371;-0.7420192;0.2576177;-0.2396122;1;0;-2;2747;2851;760;256;0.101108;-0.2271468;-0.6606648;-0.7083104;0;0;-2;627;3970;-505;128;-0.07202215;0.2867036;0.5803324;0.7588334;0;-1;2;-1051;3779;1356;4;-0.6135734;0.2036011;-0.4376731;-0.6249132;2;-2;-4;2309;3074;518;16;0.7099335;-0.6869806;-0.04570637;-0.1481994;3;-4;0;419;3926;-266;2;0.4570637;-0.6254057;-0.468144;-0.4252077;0;-2;0;889;3988;-665;8;0.4404432;-0.8691564;0.1468144;0.1703601;-1;-1;0;431;3367;2339;0.4537136;2.53589;1.047048;0.4596842;3.079971;1.086569;0.4649338;3.558364;1.119291;0.5807985;4.278615;1.198519;0.3775383;4.643889;1.195819;0.01734161;4.553732;1.243454;-0.6773686;4.916879;0.7496619;-0.04816532;5.26932;1.364224;0.8912777;4.56125;1.195818;1.153307;4.370998;1.243454;1.043571;3.491279;1.620717;0.3941951;2.806627;1.534991;0.1414664;2.494485;1.036116;0.1331555;1.331376;0.1484421;0;0;0;0.1414664;2.494485;1.036116;0.1331555;1.331376;0.1484421;0;0;0
777006.16;NotLabelled;16384;0.727665;0.398892;0.5277008;0.1814404;2;-2;-3;2940;-1622;2495;65536;-0.5415512;-0.6049351;0.5138504;0.2770083;-8;-5;0;3739;-1588;-363;8192;0.5180055;-0.7592251;-0.3490305;-0.1828255;-1;3;0;1330;3773;-837;32768;0.5706371;-0.7420192;0.2576177;-0.2396122;1;-2;-1;2773;2887;838;256;0.101108;-0.2271468;-0.6606648;-0.7083104;1;0;-1;655;4050;-405;128;-0.07202215;0.2853186;0.5803324;0.7593553;3;1;2;-975;3921;1292;4;-0.6135734;0.2036011;-0.4376731;-0.6249132;3;-4;-4;2407;3080;542;16;0.7102212;-0.6869806;-0.04570637;-0.1468144;2;-10;-1;577;3940;-174;2;0.4570637;-0.6254057;-0.468144;-0.4252077;0;-1;0;915;4050;-589;8;0.4404432;-0.8691564;0.1468144;0.1703601;-1;0;0;443;3355;2387;0.4524203;2.538725;1.04305;0.4583909;3.0828;1.082644;0.4636406;3.561189;1.115431;0.578105;4.281666;1.194634;0.3741348;4.646545;1.191923;0.01411432;4.555688;1.239563;-0.682287;4.91723;0.746976;-0.04981869;5.270007;1.357983;0.8880341;4.564904;1.191922;1.150433;4.375164;1.239562;1.041524;3.495445;1.617065;0.3931711;2.809992;1.530005;0.1401731;2.497321;1.032113;0.1334774;1.331376;0.1481527;0;0;0;0.1401731;2.497321;1.032113;0.1334774;1.331376;0.1481527;0;0;0
