SEP=;
index;label;RightUpperArm_boneIndex;RightUpperArm_quat9x_w;RightUpperArm_quat9x_x;RightUpperArm_quat9x_y;RightUpperArm_quat9x_z;RightUpperArm_gyroscope_x;RightUpperArm_gyroscope_y;RightUpperArm_gyroscope_z;RightUpperArm_accelerometer_x;RightUpperArm_accelerometer_y;RightUpperArm_accelerometer_z;RightLowerArm_boneIndex;RightLowerArm_quat9x_w;RightLowerArm_quat9x_x;RightLowerArm_quat9x_y;RightLowerArm_quat9x_z;RightLowerArm_gyroscope_x;RightLowerArm_gyroscope_y;RightLowerArm_gyroscope_z;RightLowerArm_accelerometer_x;RightLowerArm_accelerometer_y;RightLowerArm_accelerometer_z;LeftUpperArm_boneIndex;LeftUpperArm_quat9x_w;LeftUpperArm_quat9x_x;LeftUpperArm_quat9x_y;LeftUpperArm_quat9x_z;LeftUpperArm_gyroscope_x;LeftUpperArm_gyroscope_y;LeftUpperArm_gyroscope_z;LeftUpperArm_accelerometer_x;LeftUpperArm_accelerometer_y;LeftUpperArm_accelerometer_z;LeftLowerArm_boneIndex;LeftLowerArm_quat9x_w;LeftLowerArm_quat9x_x;LeftLowerArm_quat9x_y;LeftLowerArm_quat9x_z;LeftLowerArm_gyroscope_x;LeftLowerArm_gyroscope_y;LeftLowerArm_gyroscope_z;LeftLowerArm_accelerometer_x;LeftLowerArm_accelerometer_y;LeftLowerArm_accelerometer_z;Chest_boneIndex;Chest_quat9x_w;Chest_quat9x_x;Chest_quat9x_y;Chest_quat9x_z;Chest_gyroscope_x;Chest_gyroscope_y;Chest_gyroscope_z;Chest_accelerometer_x;Chest_accelerometer_y;Chest_accelerometer_z;Spine_boneIndex;Spine_quat9x_w;Spine_quat9x_x;Spine_quat9x_y;Spine_quat9x_z;Spine_gyroscope_x;Spine_gyroscope_y;Spine_gyroscope_z;Spine_accelerometer_x;Spine_accelerometer_y;Spine_accelerometer_z;RightUpperLeg_boneIndex;RightUpperLeg_quat9x_w;RightUpperLeg_quat9x_x;RightUpperLeg_quat9x_y;RightUpperLeg_quat9x_z;RightUpperLeg_gyroscope_x;RightUpperLeg_gyroscope_y;RightUpperLeg_gyroscope_z;RightUpperLeg_accelerometer_x;RightUpperLeg_accelerometer_y;RightUpperLeg_accelerometer_z;RightLowerLeg_boneIndex;RightLowerLeg_quat9x_w;RightLowerLeg_quat9x_x;RightLowerLeg_quat9x_y;RightLowerLeg_quat9x_z;RightLowerLeg_gyroscope_x;RightLowerLeg_gyroscope_y;RightLowerLeg_gyroscope_z;RightLowerLeg_accelerometer_x;RightLowerLeg_accelerometer_y;RightLowerLeg_accelerometer_z;LeftUpperLeg_boneIndex;LeftUpperLeg_quat9x_w;LeftUpperLeg_quat9x_x;LeftUpperLeg_quat9x_y;LeftUpperLeg_quat9x_z;LeftUpperLeg_gyroscope_x;LeftUpperLeg_gyroscope_y;LeftUpperLeg_gyroscope_z;LeftUpperLeg_accelerometer_x;LeftUpperLeg_accelerometer_y;LeftUpperLeg_accelerometer_z;LeftLowerLeg_boneIndex;LeftLowerLeg_quat9x_w;LeftLowerLeg_quat9x_x;LeftLowerLeg_quat9x_y;LeftLowerLeg_quat9x_z;LeftLowerLeg_gyroscope_x;LeftLowerLeg_gyroscope_y;LeftLowerLeg_gyroscope_z;LeftLowerLeg_accelerometer_x;LeftLowerLeg_accelerometer_y;LeftLowerLeg_accelerometer_z;pelvis_x;pelvis_y;pelvis_z;lowerSpine_x;lowerSpine_y;lowerSpine_z;middleSpine_x;middleSpine_y;middleSpine_z;upperSpine_x;upperSpine_y;upperSpine_z;rightClavicle_x;rightClavicle_y;rightClavicle_z;rightShoulder_x;rightShoulder_y;rightShoulder_z;rightElbow_x;rightElbow_y;rightElbow_z;rightWrist_x;rightWrist_y;rightWrist_z;leftClavicle_x;leftClavicle_y;leftClavicle_z;leftShoulder_x;leftShoulder_y;leftShoulder_z;leftElbow_x;leftElbow_y;leftElbow_z;leftWrist_x;leftWrist_y;leftWrist_z;rightHip_x;rightHip_y;rightHip_z;rightKnee_x;rightKnee_y;rightKnee_z;rightAnkle_x;rightAnkle_y;rightAnkle_z;leftHip_x;leftHip_y;leftHip_z;leftKnee_x;leftKnee_y;leftKnee_z;leftAnkle_x;leftAnkle_y;leftAnkle_z;
1663945.3676;NotLabelled;16384;0.7041339;0.3808864;0.5567867;0.2216066;-1;0;14;3178;-1058;2757;65536;0.5891232;0.5789474;-0.4404432;-0.3518005;9;-2;-10;3837;-1916;-305;8192;0.5249307;-0.7646609;-0.3504155;-0.1301939;5;0;0;1170;3903;-519;32768;0.5692521;-0.7225378;0.3614958;-0.1523546;-1;7;0;2975;2801;372;256;0.07756232;-0.2049861;-0.6772853;-0.7023171;0;-3;4;529;4098;-379;128;0.08033241;0.08587258;0.5817174;0.8048462;11;4;1;-1067;3893;1144;4;0.6594355;-0.2451524;0.3961219;0.5900277;2;11;1;2197;3378;874;16;0.6984923;-0.6869806;-0.07894737;-0.1842105;3;31;4;143;4076;-56;2;0.4529086;-0.5955663;-0.4986149;-0.4376731;1;4;-3;987;4046;-353;8;0.4598338;-0.8768287;0.08448754;0.1121884;0;2;0;129;3337;2553;0.4548333;2.529455;1.034832;0.4608049;3.07362;1.073184;0.4660554;3.552082;1.104877;0.5895466;4.273508;1.15739;0.3899075;4.640491;1.142691;0.02913466;4.555762;1.195639;-0.7487754;4.822246;0.7688218;0.03656197;5.174916;1.164632;0.9027921;4.552699;1.142691;1.16321;4.361642;1.195638;1.15133;3.50219;1.630926;0.4876398;2.826369;1.654776;0.1425857;2.488027;1.023997;0.1573638;1.330782;0.1287736;0;0;0;0.1425857;2.488027;1.023997;0.1573638;1.330782;0.1287736;0;0;0
1663965.4023;NotLabelled;16384;0.7056607;0.3808864;0.5554016;0.2202216;-3;1;17;3150;-1012;2691;65536;0.5880852;0.5789474;-0.4418283;-0.3518005;8;-5;-11;3831;-1822;-191;8192;0.5249307;-0.7652941;-0.3490305;-0.1301939;4;-4;0;1234;3905;-559;32768;0.5692521;-0.722936;0.3601108;-0.1537396;-6;4;1;3027;2871;430;256;0.07894737;-0.2063712;-0.6772853;-0.701757;-4;-9;5;647;4100;-355;128;0.08033241;0.08587258;0.5831025;0.8038433;15;2;0;-1027;3923;1264;4;0.6601565;-0.2465374;0.3961219;0.5886427;-1;16;2;2071;3346;1088;16;0.6966883;-0.6869806;-0.08171745;-0.1897507;4;39;5;785;4128;178;2;0.4515235;-0.5954567;-0.5;-0.4376731;0;7;-1;975;4094;-367;8;0.4584487;-0.8775536;0.08448754;0.1121884;0;0;0;113;3319;2517;0.447789;2.529627;1.036677;0.453762;3.073922;1.073133;0.4590137;3.552491;1.103158;0.5825049;4.273917;1.155671;0.3828659;4.6409;1.140973;0.022093;4.556172;1.19392;-0.7540776;4.823997;0.7647837;0.0288116;5.176735;1.165357;0.8957505;4.553109;1.140972;1.156168;4.362051;1.193919;1.142763;3.5019;1.627779;0.47846;2.826793;1.654624;0.1355411;2.488161;1.025999;0.1528831;1.331132;0.1305431;0;0;0;0.1355411;2.488161;1.025999;0.1528831;1.331132;0.1305431;0;0;0
1663986.366;NotLabelled;16384;0.706431;0.3822715;0.5540166;0.2188366;-4;4;17;3046;-1096;2685;65536;0.587042;0.5789474;-0.4432133;-0.3518005;4;-4;-10;3919;-1598;-91;8192;0.5263157;-0.7649732;-0.3476454;-0.1301939;3;-10;0;1416;3663;-685;32768;0.566482;-0.7251086;0.3601108;-0.1537396;-9;3;2;2801;2863;274;256;0.08033241;-0.2077562;-0.6772853;-0.7011909;-6;-15;7;581;4110;-253;128;0.08033241;0.08587258;0.5858725;0.8018267;17;-1;-2;-1041;3933;1242;4;0.6626162;-0.2465374;0.3961219;0.5858725;-4;10;2;2077;3546;1148;16;0.6969622;-0.6855956;-0.08448754;-0.1925208;5;23;1;1403;4354;-72;2;0.4515235;-0.5954567;-0.5;-0.4376731;0;5;0;677;3954;-473;8;0.4584487;-0.8773754;0.08448754;0.1135734;-1;-6;-1;183;3407;2301;0.4500321;2.530507;1.036017;0.4560063;3.074926;1.070573;0.4612591;3.553597;1.098928;0.5847974;4.275044;1.15105;0.3851562;4.642024;1.136319;0.02441528;4.557326;1.189531;-0.7467685;4.829735;0.7543316;0.03443691;5.180408;1.159971;0.8980389;4.554223;1.136031;1.158486;4.363183;1.188896;1.140932;3.501236;1.61903;0.4763896;2.826247;1.642662;0.1377838;2.489004;1.025496;0.1578945;1.330388;0.1321523;0;0;0;0.1377838;2.489004;1.025496;0.1578945;1.330388;0.1321523;0;0;0
1664007.3715;NotLabelled;16384;0.7087868;0.3822715;0.5526316;0.2146814;-5;8;8;2700;-1252;2539;65536;0.5878878;0.5761772;-0.4445983;-0.3531856;-5;-7;-5;3717;-1236;-231;8192;0.5263157;-0.7656011;-0.3462604;-0.1301939;4;-10;0;1540;3653;-637;32768;0.5650969;-0.7261885;0.3601108;-0.1537396;-10;4;2;2801;2979;388;256;0.08171745;-0.2105263;-0.6786703;-0.6988615;-4;-5;6;583;4016;-273;128;0.07894737;0.0900277;0.5886427;0.7994761;8;-15;-6;-951;3875;1178;4;0.6635231;-0.2451524;0.3975069;0.5844875;-6;0;6;2135;3516;1204;16;0.6974232;-0.6842105;-0.08864266;-0.1939058;15;2;-8;941;4426;-46;2;0.4515235;-0.5954567;-0.5;-0.4376731;1;0;1;491;4070;-361;8;0.4584487;-0.877241;0.08587258;0.1135734;0;-7;-1;277;3365;2231;0.4474554;2.529096;1.041485;0.4534322;3.073743;1.072233;0.4586871;3.552601;1.097241;0.582217;4.274067;1.149104;0.3825914;4.641045;1.134114;0.02182287;4.55638;1.187189;-0.7472138;4.831622;0.7499781;0.03180924;5.180228;1.161552;0.8954723;4.553233;1.134113;1.15589;4.36221;1.187189;1.138642;3.500394;1.617596;0.4727282;2.826867;1.644171;0.1352063;2.487521;1.031278;0.1549389;1.330341;0.1360659;0;0;0;0.1352063;2.487521;1.031278;0.1549389;1.330341;0.1360659;0;0;0
1664027.3679;NotLabelled;16384;0.7096199;0.3822715;0.5526316;0.2119114;-6;10;2;2546;-1314;2457;65536;0.5873606;0.5747922;-0.4459834;-0.3545706;-9;-7;-4;3559;-1140;-379;8192;0.5249307;-0.7671756;-0.3448753;-0.1301939;4;-10;3;1558;3699;-583;32768;0.5637119;-0.7272642;0.3601108;-0.1537396;-10;3;2;2743;2991;450;256;0.08171745;-0.2119114;-0.6786703;-0.6984429;-5;-8;6;629;3968;-345;128;0.07756232;0.09141274;0.5886427;0.7994546;8;-16;-7;-969;3835;1080;4;0.6644202;-0.2437673;0.398892;0.5831025;-8;-5;5;2083;3428;1152;16;0.7008913;-0.6814404;-0.08864266;-0.1911357;25;-27;-20;845;4178;-2;2;0.4529086;-0.5967231;-0.4972299;-0.4376731;1;-12;1;683;3968;-585;8;0.4584487;-0.8769239;0.08725762;0.1149584;0;-5;-1;315;3403;2301;0.4426997;2.528623;1.044032;0.4486785;3.073453;1.071331;0.4539351;3.552461;1.093307;0.5795822;4.273786;1.141933;0.3809623;4.641258;1.125756;0.0200513;4.557833;1.179816;-0.7414676;4.842354;0.7354445;0.03887349;5.18671;1.148098;0.8935935;4.552003;1.125226;1.153566;4.360472;1.178645;1.130812;3.495668;1.60276;0.464135;2.822887;1.629138;0.1304499;2.486983;1.034109;0.1474505;1.331075;0.1372001;0;0;0;0.1304499;2.486983;1.034109;0.1474505;1.331075;0.1372001;0;0;0
1664047.3783;NotLabelled;16384;0.708952;0.3822715;0.5540166;0.2105263;-6;9;-2;2536;-1358;2501;65536;0.5876609;0.5734072;-0.4473684;-0.3545706;-12;-6;-3;3733;-1112;-439;8192;0.5249307;-0.7680302;-0.3434903;-0.1288089;3;-12;5;1464;3815;-551;32768;0.5623268;-0.7283357;0.3601108;-0.1537396;-13;0;3;2743;3033;548;256;0.08171745;-0.2146814;-0.6786703;-0.6975964;-7;-13;6;637;3970;-323;128;0.07617728;0.09418282;0.5900277;0.7982443;7;-16;-7;-1013;3741;1138;4;0.6637096;-0.2423823;0.398892;0.5844875;-7;-25;5;2097;3044;1022;16;0.7051453;-0.6800554;-0.08587258;-0.1814404;28;-68;-31;1157;3998;-174;2;0.4542936;-0.597836;-0.4958449;-0.4362881;3;-11;3;787;3974;-493;8;0.4584487;-0.8767849;0.08864266;0.1149584;1;-6;-2;203;3375;2357;0.4355108;2.527822;1.052488;0.4414895;3.072641;1.080017;0.4467459;3.551639;1.102195;0.5737692;4.272714;1.150968;0.3758934;4.640578;1.134593;0.01476228;4.557865;1.188278;-0.7465177;4.843017;0.7439017;0.03433183;5.183159;1.159081;0.8883474;4.550309;1.134593;1.147886;4.358262;1.188276;1.122225;3.496977;1.619328;0.45482;2.824954;1.646566;0.123261;2.486187;1.042547;0.1361103;1.331576;0.1438994;0;0;0;0.123261;2.486187;1.042547;0.1361103;1.331576;0.1438994;0;0;0
1664067.6612;NotLabelled;16384;0.7094307;0.3808864;0.5554016;0.2077562;-7;8;-7;2442;-1356;2413;65536;0.5895171;0.5706371;-0.4473684;-0.3559557;-14;-4;0;3785;-1056;-451;8192;0.5249307;-0.7682613;-0.3434903;-0.1274238;2;-15;7;1392;3801;-605;32768;0.5609418;-0.7290083;0.3614958;-0.1523546;-15;-2;2;2753;2961;510;256;0.08448754;-0.2160665;-0.6800554;-0.6954867;-9;-17;5;621;4004;-263;128;0.07479224;0.09695291;0.5900277;0.7980436;12;-14;-7;-1065;3673;1194;4;0.6614324;-0.2396122;0.400277;0.5872576;-3;-36;1;2067;2722;712;16;0.7102117;-0.6786703;-0.08033241;-0.1689751;31;-102;-38;955;3880;-2;2;0.4542936;-0.6021268;-0.4930748;-0.433518;0;-11;4;741;3932;-321;8;0.4584487;-0.876461;0.0900277;0.1163435;2;-4;-2;137;3411;2319;0.4151864;2.527779;1.054754;0.421166;3.072678;1.080662;0.4264231;3.551739;1.101415;0.5563003;4.272304;1.150222;0.3598828;4.64095;1.133864;-0.001573503;4.559665;1.187541;-0.7620348;4.84522;0.7420235;0.01811478;5.183217;1.160261;0.8719752;4.548652;1.133863;1.13075;4.355576;1.18754;1.103134;3.494698;1.619282;0.434962;2.823442;1.646642;0.1029363;2.486115;1.044947;0.1199137;1.333084;0.1443413;0;0;0;0.1029363;2.486115;1.044947;0.1199137;1.333084;0.1443413;0;0;0
1664088.5375;NotLabelled;16384;0.7087489;0.3808864;0.5567867;0.2063712;-6;10;-10;2566;-1384;2435;65536;0.5910656;0.5692521;-0.4459834;-0.3573407;-16;-3;2;3729;-1174;-405;8192;0.5263157;-0.7692245;-0.3407202;-0.1232687;-1;-18;10;1412;3733;-787;32768;0.5581717;-0.7307324;0.3628809;-0.1509695;-17;-7;2;2871;2745;270;256;0.08587258;-0.2188366;-0.6800554;-0.6944503;-10;-18;4;675;3850;-299;128;0.0734072;0.09972299;0.5914127;0.7968047;15;-13;-6;-1131;3577;1170;4;0.6570311;-0.2368421;0.4030471;0.5914127;0;-44;-3;2281;2654;568;16;0.7155801;-0.6772853;-0.07479224;-0.1537396;31;-91;-31;633;3628;202;2;0.4556787;-0.6010793;-0.4930748;-0.433518;0;-9;4;835;4064;-301;8;0.4584487;-0.8762761;0.0900277;0.1177285;1;-6;-1;161;3307;2381;0.3957776;2.527637;1.058043;0.401757;3.072521;1.084241;0.4070139;3.551572;1.105249;0.5361767;4.272493;1.150554;0.3393592;4.640853;1.132627;-0.02196631;4.559443;1.186993;-0.7804322;4.845826;0.7386134;0.001025677;5.181571;1.156222;0.8515483;4.549091;1.132626;1.110571;4.35654;1.186992;1.082346;3.496348;1.620059;0.4135295;2.825743;1.64763;0.08352751;2.485978;1.048212;0.1032087;1.33431;0.1459198;0;0;0;0.08352751;2.485978;1.048212;0.1032087;1.33431;0.1459198;0;0;0
1664109.3774;NotLabelled;16384;0.7062694;0.3808864;0.5609418;0.2036011;-9;13;-11;2652;-1392;2475;65536;0.5939245;0.566482;-0.4445983;-0.3587258;-19;-3;3;3633;-1176;-349;8192;0.5263157;-0.7702749;-0.3393352;-0.1204986;-3;-17;10;1416;3725;-885;32768;0.5567867;-0.7306931;0.365651;-0.1495845;-16;-9;1;2911;2719;140;256;0.08864266;-0.2216066;-0.6800554;-0.6932226;-11;-19;4;821;3758;-313;128;0.0734072;0.101108;0.5927978;0.7956;12;-11;-5;-1149;3553;1216;4;0.6534094;-0.234072;0.4044321;0.5955678;0;-36;-4;2661;2470;332;16;0.7195954;-0.6759003;-0.07063711;-0.1426593;24;-69;-22;527;3252;224;2;0.4556787;-0.6032075;-0.4916897;-0.432133;0;-9;3;787;3926;-285;8;0.4584487;-0.8762761;0.0900277;0.1177285;0;0;-1;-31;3245;2187;0.3726625;2.530467;1.055433;0.3786427;3.075428;1.079998;0.3839003;3.554539;1.099569;0.5145684;4.275214;1.144473;0.3184963;4.643969;1.126496;-0.04296315;4.563325;1.181113;-0.7976773;4.85147;0.727561;-0.01599768;5.187101;1.144845;0.8304958;4.551157;1.126234;1.089155;4.358099;1.180534;1.060054;3.496994;1.611726;0.3899192;2.82784;1.642378;0.06041214;2.488779;1.045737;0.0821532;1.335862;0.1450871;0;0;0;0.06041214;2.488779;1.045737;0.0821532;1.335862;0.1450871;0;0;0
1664130.4083;NotLabelled;16384;0.7056022;0.3795014;0.5637119;0.200831;-9;11;-10;2764;-1454;2429;65536;0.5965543;0.5637119;-0.4445983;-0.3587258;-17;-3;1;3605;-1252;-443;8192;0.5263157;-0.7713115;-0.3379501;-0.1177285;-3;-16;8;1424;3661;-987;32768;0.5554016;-0.7313347;0.367036;-0.1481994;-13;-9;1;2987;2577;78;256;0.09141274;-0.2257618;-0.6814404;-0.6901553;-9;-16;2;925;3708;-349;128;0.07202215;0.1038781;0.5941828;0.7943355;9;-2;-1;-1219;3403;1518;4;0.6495978;-0.234072;0.4044321;0.599723;2;1;-17;2705;2422;532;16;0.723265;-0.6745152;-0.06509695;-0.132964;1;-14;5;741;2592;1428;2;0.4556787;-0.6041973;-0.4916897;-0.4307479;-2;-3;4;791;4062;-281;8;0.4584487;-0.8762761;0.0900277;0.1177285;0;-1;-1;273;3343;2391;0.3487873;2.530819;1.056527;0.3547685;3.07586;1.079239;0.3600269;3.555036;1.097182;0.490781;4.275735;1.141433;0.2947666;4.6445;1.123033;-0.06672236;4.56396;1.177607;-0.8244467;4.850296;0.7279463;-0.04230699;5.185664;1.144579;0.8067532;4.551616;1.123032;1.065367;4.358575;1.177605;1.036421;3.499849;1.613528;0.3643976;2.832488;1.64182;0.03653654;2.489098;1.046984;0.06586456;1.336674;0.1459205;0;0;0;0.03653654;2.489098;1.046984;0.06586456;1.336674;0.1459205;0;0;0
1664151.6164;NotLabelled;16384;0.7041394;0.3808864;0.5650969;0.199446;-9;10;-6;2744;-1474;2389;65536;0.5980558;0.5623268;-0.4432133;-0.3601108;-14;-4;0;3619;-1222;-573;8192;0.5263157;-0.7721269;-0.3365651;-0.1163435;-4;-14;6;1434;3567;-1083;32768;0.5540166;-0.7316888;0.368421;-0.1481994;-9;-10;1;3069;2437;38;256;0.09279778;-0.2285319;-0.6814404;-0.6890579;-5;-13;1;983;3600;-239;128;0.07202215;0.1052632;0.5955678;0.793115;9;5;2;-1153;3513;1314;4;0.6502811;-0.2368421;0.4058172;0.5969529;-1;26;-21;2333;2966;1292;16;0.7231323;-0.6745152;-0.06371191;-0.134349;-5;15;15;901;3014;196;2;0.4556787;-0.6030676;-0.4930748;-0.4307479;-3;1;5;585;3998;-397;8;0.4584487;-0.8762761;0.0900277;0.1177285;-2;1;0;79;3375;2259;0.3221602;2.533308;1.056187;0.328142;3.078415;1.077256;0.3334009;3.557642;1.093754;0.4664087;4.278141;1.134401;0.2714914;4.64741;1.114523;-0.09016415;4.568233;1.169978;-0.841838;4.855498;0.7108549;-0.06065896;5.190557;1.129534;0.7831926;4.552966;1.114254;1.041294;4.359399;1.169385;1.006196;3.500441;1.604395;0.3334121;2.833751;1.630335;0.009909213;2.491558;1.046781;0.05416721;1.336827;0.1492869;0;0;0;0.009909213;2.491558;1.046781;0.05416721;1.336827;0.1492869;0;0;0
1664172.3734;NotLabelled;16384;0.7034171;0.3808864;0.566482;0.1980609;-6;6;-6;2736;-1486;2449;65536;0.5998157;0.5595568;-0.4432133;-0.3614958;-10;-4;0;3699;-1158;-637;8192;0.5263157;-0.7729364;-0.33518;-0.1149584;-4;-13;1;1522;3525;-1195;32768;0.5540166;-0.7305671;0.3711911;-0.1468144;-7;-12;0;3071;2463;42;256;0.09279778;-0.2299169;-0.6814404;-0.688597;0;-5;0;951;3928;-155;128;0.0734072;0.1038781;0.5955678;0.7931706;0;0;2;-945;3933;1130;4;0.651083;-0.2368421;0.4085872;0.5941828;-11;-6;0;3409;4774;1022;16;0.7224888;-0.6745152;-0.06509695;-0.1371191;3;22;-2;83;6502;-2326;2;0.4570637;-0.6041369;-0.4916897;-0.4293629;0;-11;2;597;4178;-279;8;0.4584487;-0.8760889;0.0900277;0.1191136;-4;-11;-1;351;3331;2327;0.3233108;2.537721;1.052736;0.3292933;3.082897;1.071945;0.3345529;3.562177;1.086808;0.4690575;4.282415;1.12716;0.2749258;4.652084;1.107016;-0.08691943;4.573694;1.162353;-0.8418154;4.861309;0.7087685;-0.06085479;5.19618;1.128005;0.7864273;4.556564;1.107015;1.044098;4.362482;1.162353;1.010284;3.505233;1.600822;0.3355076;2.840479;1.624631;0.0110594;2.49594;1.043484;0.05763722;1.336328;0.1524228;0;0;0;0.0110594;2.49594;1.043484;0.05763722;1.336328;0.1524228;0;0;0
1664192.5275;NotLabelled;16384;0.7034171;0.3808864;0.566482;0.1980609;-1;1;-14;2768;-1160;2423;65536;0.6011049;0.5581717;-0.4432133;-0.3614958;-7;-2;1;3813;-1290;-693;8192;0.5277008;-0.7733929;-0.33241;-0.1135734;-4;-3;-6;1878;3939;-1079;32768;0.5540166;-0.7297053;0.3739612;-0.1440443;-3;-3;-4;2973;3225;732;256;0.09279778;-0.2285319;-0.6814404;-0.6890579;5;9;-2;755;4274;-235;128;0.07202215;0.1052632;0.5927978;0.7951876;-30;-21;-4;-889;4259;1442;4;0.6491444;-0.234072;0.4072022;0.5983379;5;-37;15;3523;4170;24;16;0.723261;-0.6731302;-0.06786703;-0.1385041;9;11;-5;-333;6424;-836;2;0.4570637;-0.6062417;-0.4903047;-0.4279778;-1;-16;1;947;3822;-341;8;0.4570637;-0.8764796;0.09141274;0.1204986;-2;-5;-1;83;3247;2423;0.3338199;2.539625;1.051196;0.3398026;3.084808;1.070192;0.3450621;3.564095;1.084868;0.4810152;4.28406;1.125225;0.2876246;4.654118;1.105102;-0.07437351;4.576454;1.160461;-0.8287787;4.864676;0.7064468;-0.0450829;5.197111;1.122505;0.7989333;4.557571;1.105065;1.056217;4.362971;1.160382;1.020758;3.50594;1.599149;0.3449827;2.842169;1.621959;0.02156845;2.49784;1.041962;0.05972449;1.336145;0.1532159;0;0;0;0.02156845;2.49784;1.041962;0.05972449;1.336145;0.1532159;0;0;0
1664213.5411;NotLabelled;16384;0.7003888;0.3808864;0.5692521;0.200831;2;-7;-11;3056;-1422;2537;65536;0.6019356;0.5581717;-0.4432133;-0.3601108;0;0;4;4119;-1504;-383;8192;0.5290859;-0.7728358;-0.3310249;-0.1149584;0;0;-1;1920;4077;-819;32768;0.5526316;-0.731462;0.3725762;-0.1440443;-4;2;-2;3147;3321;1146;256;0.09141274;-0.2271468;-0.6814404;-0.6897007;3;7;-2;761;4356;-241;128;0.06925207;0.1094183;0.5886427;0.7979547;-19;-30;-6;-921;4417;1164;4;0.6479493;-0.232687;0.4058172;0.601108;10;-12;7;2817;2802;50;16;0.7237793;-0.6731302;-0.06509695;-0.1371191;-2;-35;2;1955;2828;-1116;2;0.4584487;-0.6061721;-0.4903047;-0.4265928;0;-10;2;1629;4164;-509;8;0.4570637;-0.8764796;0.09141274;0.1204986;0;0;-1;317;3351;2669;0.3251319;2.535473;1.058533;0.3311128;3.0805;1.081595;0.336371;3.559663;1.099845;0.4708757;4.279901;1.140197;0.2767438;4.649571;1.120053;-0.08510134;4.57118;1.175391;-0.8419579;4.859226;0.7253606;-0.05597222;5.19145;1.137248;0.7882454;4.55405;1.120052;1.045915;4.359968;1.17539;1.013878;3.502083;1.612748;0.3385031;2.838022;1.638831;0.01288125;2.493759;1.048961;0.0550728;1.336127;0.1551115;0;0;0;0.01288125;2.493759;1.048961;0.0550728;1.336127;0.1551115;0;0;0
1664234.4555;NotLabelled;16384;0.6999902;0.3808864;0.5692521;0.2022161;3;-3;-7;3186;-1162;2731;65536;0.602953;0.5581717;-0.4418283;-0.3601108;-1;0;7;4097;-1660;-183;8192;0.5290859;-0.7730405;-0.3310249;-0.1135734;1;-5;3;1932;4011;-605;32768;0.5526316;-0.731462;0.3725762;-0.1440443;-7;-1;0;3195;3273;1136;256;0.0900277;-0.2243767;-0.6828254;-0.6894197;-2;11;-4;785;4274;-57;128;0.06648199;0.1108033;0.5886427;0.7979991;7;-2;0;-1201;3949;952;4;0.6453061;-0.234072;0.4030471;0.6052631;16;-8;5;2727;2658;332;16;0.7224688;-0.6759003;-0.06232687;-0.1315789;-12;21;4;-945;4626;-312;2;0.4584487;-0.6071445;-0.4903047;-0.4252077;0;2;6;1819;4238;-363;8;0.4556787;-0.8772005;0.09141274;0.1204986;3;0;-1;289;3281;2711;0.3238059;2.532444;1.064226;0.3297837;3.077172;1.093526;0.3350392;3.556094;1.117261;0.4693873;4.276325;1.158263;0.2752618;4.645985;1.137899;-0.0866915;4.567531;1.192434;-0.8495208;4.844386;0.7454759;-0.06340572;5.178652;1.15546;0.7867717;4.550515;1.138927;1.044344;4.35643;1.194708;1.012864;3.501475;1.637805;0.3379903;2.837112;1.668699;0.01155654;2.490842;1.054139;0.05743534;1.33579;0.1571383;0;0;0;0.01155654;2.490842;1.054139;0.05743534;1.33579;0.1571383;0;0;0
1664254.6506;NotLabelled;16384;0.6992128;0.3795014;0.5706371;0.2036011;3;3;-5;3130;-1064;2769;65536;0.6026825;0.5595568;-0.4404432;-0.3601108;-4;-1;8;4055;-1754;-43;8192;0.5290859;-0.7732428;-0.3310249;-0.1121884;-1;-10;6;1966;3861;-705;32768;0.5512465;-0.7320715;0.3739612;-0.1426593;-10;-7;1;2983;3055;1008;256;0.0900277;-0.2229917;-0.6828254;-0.6898689;-7;0;-2;673;4118;-151;128;0.06648199;0.1108033;0.5900277;0.7969756;8;1;4;-1291;3871;1146;4;0.6457295;-0.234072;0.400277;0.6066482;13;9;8;3055;3134;462;16;0.7198926;-0.6772853;-0.06509695;-0.1371191;-17;49;11;659;4088;-162;2;0.4570637;-0.6070687;-0.4916897;-0.4252077;-1;11;5;1417;4160;-179;8;0.4570637;-0.8764796;0.09141274;0.1204986;5;2;-2;69;3261;2509;0.3193234;2.534342;1.052609;0.325301;3.079052;1.082229;0.3305563;3.557961;1.106245;0.4641368;4.278484;1.144522;0.26951;4.64784;1.123451;-0.0922035;4.569131;1.179194;-0.8583719;4.84936;0.7401193;-0.06845009;5.185647;1.141033;0.7811363;4.552991;1.12345;1.039089;4.359402;1.179193;1.011934;3.500107;1.614108;0.3373453;2.835745;1.650709;0.007074118;2.492746;1.042495;0.05967756;1.336851;0.1469512;0;0;0;0.007074118;2.492746;1.042495;0.05967756;1.336851;0.1469512;0;0;0
1664275.4123;NotLabelled;16384;0.6999628;0.3781163;0.5706371;0.2036011;1;8;-3;3056;-1134;2773;65536;0.6035079;0.5595568;-0.4404432;-0.3587258;-8;-4;8;3825;-1656;-103;8192;0.5277008;-0.7743881;-0.3310249;-0.1108033;-2;-10;6;1870;3701;-1017;32768;0.5498615;-0.7333805;0.3739612;-0.1412742;-10;-8;1;2759;2737;772;256;0.09141274;-0.2229917;-0.6842105;-0.6883128;-9;-7;-1;627;3952;-197;128;0.06648199;0.1108033;0.5914127;0.7959483;11;6;6;-1245;3799;1144;4;0.648232;-0.2354571;0.3975069;0.6052631;5;33;7;2583;3490;890;16;0.7171038;-0.6786703;-0.06648199;-0.1440443;-18;27;6;1283;3882;-134;2;0.4542936;-0.6046306;-0.4972299;-0.4252077;-3;21;0;883;3964;-77;8;0.4570637;-0.8767641;0.08864266;0.1204986;2;7;0;-29;3253;2311;0.3219092;2.531333;1.052878;0.3278878;3.076143;1.080583;0.3331441;3.555134;1.102916;0.4653025;4.275924;1.141099;0.2699224;4.644889;1.120139;-0.09159851;4.565454;1.176104;-0.8617891;4.842891;0.7423236;-0.07182637;5.181417;1.141266;0.7817379;4.551065;1.119829;1.040112;4.357995;1.175419;1.016815;3.497853;1.608877;0.3418891;2.834169;1.651157;0.009659439;2.489701;1.042922;0.06778608;1.3368;0.1438682;0;0;0;0.009659439;2.489701;1.042922;0.06778608;1.3368;0.1438682;0;0;0
1664295.409;NotLabelled;16384;0.6999806;0.3767313;0.5720221;0.2022161;-1;11;-2;3076;-1152;2637;65536;0.6045163;0.5595568;-0.4390582;-0.3587258;-10;-6;5;3585;-1628;-231;8192;0.5263157;-0.775721;-0.3310249;-0.1080332;0;-4;5;1858;3347;-1271;32768;0.5484765;-0.73371;0.3753462;-0.1412742;-4;2;-1;2841;2503;432;256;0.09279778;-0.2243767;-0.6842105;-0.687677;-9;-7;0;747;3836;-147;128;0.06786703;0.1080332;0.5927978;0.7951816;5;9;8;-935;3735;1270;4;0.6527632;-0.2382271;0.3947368;0.601108;0;41;4;2133;3536;936;16;0.7152275;-0.6800554;-0.06648199;-0.1468144;-16;0;0;1045;4052;-22;2;0.4542936;-0.6025106;-0.4986149;-0.4265928;-3;20;-1;549;3906;-243;8;0.4584487;-0.8761798;0.08725762;0.1204986;1;10;0;117;3339;2161;0.3265204;2.52852;1.054996;0.3325;3.073425;1.080783;0.3377571;3.552491;1.101429;0.469182;4.273574;1.136486;0.2734193;4.642245;1.113974;-0.08800977;4.562682;1.170347;-0.8552147;4.837313;0.7295492;-0.06681383;5.177872;1.12985;0.7853305;4.548947;1.113974;1.043913;4.356383;1.170346;1.017594;3.499564;1.610169;0.343276;2.835457;1.655382;0.01427025;2.486854;1.045198;0.07977696;1.33614;0.1438526;0;0;0;0.01427025;2.486854;1.045198;0.07977696;1.33614;0.1438526;0;0;0
1664315.5642;NotLabelled;16384;0.7003861;0.3753462;0.5734072;0.199446;1;6;0;2818;-1138;2335;65536;0.6078849;0.5567867;-0.4390582;-0.3573407;-2;-6;2;3539;-1398;-851;8192;0.5249307;-0.7768503;-0.3310249;-0.1066482;3;1;2;1824;3299;-1353;32768;0.5484765;-0.7344169;0.3739612;-0.1412742;2;8;-3;2841;2615;334;256;0.09418282;-0.2243767;-0.6874887;-0.6842105;-6;-2;0;769;3776;-127;128;0.06786703;0.1066482;0.5927978;0.7953685;-2;9;7;-685;3779;1294;4;0.6563023;-0.2423823;0.3947368;0.5955678;-2;10;0;1663;3588;698;16;0.712007;-0.6828254;-0.06648199;-0.1495845;-8;16;4;511;4116;336;2;0.4542936;-0.6003768;-0.5;-0.4279778;-2;16;0;341;3908;-335;8;0.4584487;-0.8765059;0.08587258;0.1191136;0;6;1;327;3375;2223;0.3276763;2.527001;1.054359;0.3336571;3.072004;1.077962;0.3389151;3.551149;1.096689;0.4704451;4.272236;1.131275;0.2747045;4.640916;1.108728;-0.08668894;4.561421;1.165424;-0.8519522;4.836981;0.721839;-0.06452665;5.179551;1.122343;0.7866058;4.547563;1.108376;1.045212;4.355;1.164645;1.017143;3.498904;1.605765;0.3409134;2.83675;1.651094;0.0154258;2.485296;1.044742;0.08687386;1.335874;0.1421993;0;0;0;0.0154258;2.485296;1.044742;0.08687386;1.335874;0.1421993;0;0;0
1664336.3802;NotLabelled;16384;0.6999902;0.3753462;0.5734072;0.200831;5;0;0;2814;-1132;2285;65536;0.608697;0.5567867;-0.4390582;-0.3559557;6;-3;2;3563;-1398;-965;8192;0.5235457;-0.7770022;-0.33241;-0.1080332;5;8;0;1970;3423;-1205;32768;0.5484765;-0.734853;0.3725762;-0.1426593;7;15;-5;2619;2821;420;256;0.09279778;-0.2216066;-0.6885747;-0.6842105;3;21;-5;655;3968;-7;128;0.06648199;0.1038781;0.5900277;0.7979078;-9;-4;4;-659;3907;1152;4;0.656723;-0.2423823;0.3961219;0.5941828;-5;-1;-1;1843;3454;866;16;0.7102523;-0.6842105;-0.06786703;-0.1509695;-5;9;4;863;3970;278;2;0.4542936;-0.598229;-0.501385;-0.4293629;0;7;1;453;3940;-209;8;0.4584487;-0.8765059;0.08587258;0.1191136;0;3;1;185;3341;2363;0.3396263;2.530959;1.04335;0.345607;3.075965;1.066885;0.3508651;3.555112;1.085552;0.4825866;4.276467;1.113132;0.2869011;4.644959;1.087287;-0.07444853;4.566088;1.145123;-0.8401836;4.840845;0.7018536;-0.05135351;5.184947;1.09826;0.7987818;4.551492;1.087276;1.057407;4.359415;1.145098;1.028903;3.506861;1.593;0.3537152;2.843603;1.637686;0.02737576;2.489252;1.033739;0.09719422;1.335784;0.1362459;0;0;0;0.02737576;2.489252;1.033739;0.09719422;1.335784;0.1362459;0;0;0
1664357.5608;NotLabelled;16384;0.7003327;0.3739612;0.5734072;0.2022161;10;-5;0;2844;-1118;2327;65536;0.6085047;0.5567867;-0.4404432;-0.3545706;13;0;3;3665;-1498;-809;8192;0.5221606;-0.7773404;-0.333795;-0.1080332;6;14;0;1962;3617;-999;32768;0.5498615;-0.7352171;0.3698061;-0.1426593;9;19;-7;2555;3147;558;256;0.0900277;-0.2174515;-0.6888894;-0.6855956;4;25;-6;585;4006;-21;128;0.06509695;0.1038781;0.5900277;0.798022;-10;-6;3;-787;3917;1198;4;0.6571377;-0.2423823;0.3975069;0.5927978;-8;-5;-1;2077;3414;934;16;0.7100875;-0.6842105;-0.06648199;-0.1523546;-4;-4;1;869;4108;308;2;0.4542936;-0.598229;-0.501385;-0.4293629;1;-2;2;595;3910;-243;8;0.4584487;-0.8765059;0.08587258;0.1191136;0;0;0;153;3315;2423;0.3544345;2.532231;1.037705;0.3604134;3.077059;1.065067;0.3656698;3.556062;1.087098;0.4963527;4.277674;1.112831;0.3001197;4.645817;1.086156;-0.0610899;4.566564;1.144344;-0.8311001;4.839517;0.7074118;-0.04048336;5.185629;1.098472;0.8121358;4.553094;1.086155;1.071065;4.361537;1.144342;1.044006;3.509795;1.593873;0.3688965;2.84669;1.641896;0.04218474;2.490593;1.027778;0.1012038;1.336017;0.1309339;0;0;0;0.04218474;2.490593;1.027778;0.1012038;1.336017;0.1309339;0;0;0
1664398.4488;NotLabelled;16384;0.7024442;0.3711911;0.5706371;0.2077562;14;-4;0;2768;-910;2771;65536;0.6066103;0.5623268;-0.4404432;-0.3490305;11;-3;7;3703;-1656;-279;8192;0.5207756;-0.7740611;-0.3421052;-0.1121884;1;16;6;1864;3837;-453;32768;0.5540166;-0.736639;0.3601108;-0.1440443;6;10;-6;2729;3255;762;256;0.08864266;-0.2119114;-0.6894155;-0.6869806;2;11;-6;441;4118;-105;128;0.06371191;0.1038781;0.5872576;0.8001741;-7;-5;3;-949;3897;1062;4;0.6559646;-0.2409972;0.400277;0.5927978;-7;-6;-4;2109;3062;578;16;0.7091751;-0.6855956;-0.06509695;-0.1509695;1;-5;0;117;3896;92;2;0.4542936;-0.6013618;-0.5;-0.4265928;0;-6;5;1067;4072;-211;8;0.4570637;-0.8769031;0.08725762;0.1204986;2;-3;0;151;3349;2445;0.3744794;2.532701;1.038795;0.380458;3.077522;1.066279;0.3857145;3.556522;1.088418;0.5148975;4.278399;1.11425;0.3179009;4.646137;1.087619;-0.04314461;4.566127;1.145787;-0.8169392;4.836048;0.7136837;-0.02340585;5.182178;1.098776;0.8301086;4.554479;1.087618;1.089433;4.363452;1.145786;1.065592;3.513162;1.598239;0.3938755;2.847;1.651283;0.06222954;2.491065;1.028857;0.1070367;1.335398;0.1325956;0;0;0;0.06222954;2.491065;1.028857;0.1070367;1.335398;0.1325956;0;0;0
1664419.3638;NotLabelled;16384;0.7027636;0.3698061;0.5706371;0.2091413;12;0;0;2830;-1012;2819;65536;0.6061199;0.5637119;-0.4404432;-0.3476454;6;-6;7;3661;-1694;-373;8192;0.5207756;-0.7728308;-0.3448753;-0.1121884;-1;12;7;1636;3813;-381;32768;0.5540166;-0.7373145;0.3587258;-0.1440443;2;4;-4;2707;2979;730;256;0.08864266;-0.2105263;-0.6869806;-0.6898397;0;2;-6;399;4150;-67;128;0.06232687;0.1038781;0.5872576;0.8002832;-1;-4;4;-975;3855;1080;4;0.6551174;-0.2409972;0.4016621;0.5927978;-3;-10;-6;2233;2984;544;16;0.7108044;-0.6842105;-0.06509695;-0.1495845;6;1;-1;-223;3808;26;2;0.4542936;-0.6023418;-0.5;-0.4252077;0;-4;6;1079;4118;-353;8;0.4584487;-0.8761798;0.08725762;0.1204986;2;-3;0;151;3447;2407;0.3954912;2.534096;1.033145;0.4014676;3.078704;1.064566;0.4067222;3.557531;1.090165;0.5316881;4.280177;1.11526;0.3325409;4.64673;1.088299;-0.02802086;4.564669;1.146611;-0.8034612;4.827628;0.7131662;-0.01431915;5.182753;1.099091;0.8452755;4.558067;1.088299;1.105722;4.368618;1.14661;1.08785;3.519199;1.600973;0.4251748;2.84408;1.654488;0.08324221;2.492533;1.022882;0.1110875;1.335551;0.1276301;0;0;0;0.08324221;2.492533;1.022882;0.1110875;1.335551;0.1276301;0;0;0
1664439.3624;NotLabelled;16384;0.7042143;0.367036;0.5706371;0.2091413;10;1;-2;2760;-986;2857;65536;0.6069123;0.5637119;-0.4404432;-0.3462604;3;-6;7;3703;-1764;-555;8192;0.5207756;-0.7722113;-0.3462604;-0.1121884;-3;7;7;1390;3711;-521;32768;0.5540166;-0.7379867;0.3573407;-0.1440443;-3;-1;-3;2833;2739;656;256;0.09279778;-0.2091413;-0.6897146;-0.6869806;-6;-7;-4;465;4006;37;128;0.06094183;0.1024931;0.5886427;0.7995505;2;0;4;-867;3905;1128;4;0.6522561;-0.2396122;0.4030471;0.5955678;0;-5;-3;2855;3110;346;16;0.7122966;-0.6828254;-0.06648199;-0.1481994;4;-14;-1;667;4126;-254;2;0.4529086;-0.603384;-0.5;-0.4252077;1;-3;5;1083;4042;-211;8;0.4584487;-0.8760407;0.08864266;0.1204986;4;-3;0;125;3307;2409;0.3946781;2.536013;1.033989;0.4006544;3.080615;1.065523;0.4059089;3.559437;1.091222;0.5283185;4.28233;1.121294;0.3279228;4.648358;1.096547;-0.03241765;4.564651;1.15388;-0.8090522;4.824471;0.720681;-0.02144897;5.181821;1.107694;0.8409638;4.561486;1.096563;1.102003;4.372561;1.153916;1.088256;3.523864;1.609766;0.4268159;2.847657;1.66481;0.08242908;2.494452;1.023717;0.1060554;1.335665;0.1306809;0;0;0;0.08242908;2.494452;1.023717;0.1060554;1.335665;0.1306809;0;0;0
1664459.5488;NotLabelled;16384;0.7045221;0.365651;0.5706371;0.2105263;10;3;-3;2784;-976;2915;65536;0.6077003;0.5637119;-0.4404432;-0.3448753;1;-6;7;3651;-1786;-633;8192;0.5221606;-0.7706521;-0.3476454;-0.1121884;-4;0;7;1212;3623;-619;32768;0.5526316;-0.7386221;0.3587258;-0.1426593;-7;-5;-2;2971;2643;510;256;0.09418282;-0.2091413;-0.6909039;-0.6855956;-6;-5;-3;585;4092;21;128;0.06094183;0.1024931;0.5886427;0.7995505;4;0;4;-825;3919;1092;4;0.6518442;-0.2396122;0.4016621;0.5969529;1;4;2;3007;3244;604;16;0.7127113;-0.6828254;-0.06509695;-0.1468144;0;-4;1;411;4332;-358;2;0.4529086;-0.6043576;-0.5;-0.4238227;0;0;4;1059;4038;-261;8;0.4584487;-0.8760407;0.08864266;0.1204986;4;-2;0;161;3297;2471;0.3845477;2.537459;1.03442;0.3905252;3.082165;1.064094;0.3957806;3.561072;1.088157;0.5138599;4.284934;1.111477;0.311216;4.649507;1.083725;-0.04852417;4.56415;1.142381;-0.8218048;4.821438;0.7017339;-0.03609875;5.180789;1.090745;0.8247727;4.565737;1.083724;1.087037;4.378919;1.14238;1.072385;3.530443;1.598614;0.411936;2.853154;1.652225;0.07229838;2.495863;1.024302;0.09826432;1.336068;0.1326407;0;0;0;0.07229838;2.495863;1.024302;0.09826432;1.336068;0.1326407;0;0;0
1664501.1652;NotLabelled;16384;0.7051277;0.3614958;0.5720221;0.2119114;5;3;-4;2868;-934;2955;65536;0.6102629;0.5637119;-0.4390582;-0.3421052;-2;-4;5;3629;-1884;-763;8192;0.5221606;-0.7716733;-0.3462604;-0.1094183;-1;-7;2;1652;3599;-943;32768;0.5512465;-0.7388363;0.3614958;-0.1398892;-6;-3;-1;2815;2765;456;256;0.09556787;-0.2091413;-0.6920858;-0.6842105;-5;1;-3;605;4066;-63;128;0.05955679;0.101108;0.5900277;0.79881;6;4;4;-925;3921;1182;4;0.6539597;-0.2396122;0.400277;0.5955678;0;10;1;2261;3320;744;16;0.7127113;-0.6828254;-0.06509695;-0.1468144;1;-13;3;901;4078;-40;2;0.4515235;-0.6040655;-0.5027701;-0.4224377;0;6;2;999;4056;-221;8;0.4598338;-0.8749813;0.0900277;0.1218837;5;-3;0;131;3433;2423;0.3775911;2.536351;1.036224;0.3835686;3.081058;1.065897;0.388824;3.559964;1.089961;0.5060772;4.284046;1.11045;0.3029932;4.648274;1.081435;-0.05661127;4.562726;1.14064;-0.8292554;4.81695;0.697108;-0.04493701;5.178299;1.087067;0.8166467;4.565101;1.081434;1.079164;4.378812;1.140638;1.067569;3.529528;1.595454;0.4066247;2.852946;1.651819;0.0653418;2.494756;1.026105;0.09787169;1.336035;0.1332634;0;0;0;0.0653418;2.494756;1.026105;0.09787169;1.336035;0.1332634;0;0;0
1664521.4719;NotLabelled;16384;0.7047045;0.3587258;0.5747922;0.2105263;0;3;-4;2884;-958;2975;65536;0.6127992;0.5637119;-0.4376731;-0.3393352;-3;0;2;3767;-1882;-783;8192;0.5221606;-0.7724882;-0.3448753;-0.1080332;-1;-6;1;1760;3597;-929;32768;0.5498615;-0.7391893;0.3628809;-0.1398892;-5;-2;-1;2879;2927;522;256;0.09556787;-0.2077562;-0.6925029;-0.6842105;-3;3;-3;547;4024;-85;128;0.05955679;0.09972299;0.5914127;0.7979594;7;5;4;-893;3903;1274;4;0.6552184;-0.2396122;0.400277;0.5941828;-1;6;0;2271;3194;652;16;0.7129589;-0.6828254;-0.06232687;-0.1468144;-3;-11;2;783;4016;44;2;0.4515235;-0.6040655;-0.5027701;-0.4224377;0;6;3;957;4118;-215;8;0.4598338;-0.8747873;0.0900277;0.1232687;3;-2;0;-11;3325;2385;0.375243;2.533827;1.039463;0.3812216;3.078632;1.067274;0.3864779;3.557617;1.0897;0.5029064;4.281907;1.107365;0.2993839;4.645788;1.077091;-0.06008533;4.56005;1.136841;-0.8322219;4.807244;0.6884779;-0.04976675;5.174541;1.07662;0.8131331;4.563207;1.077091;1.075902;4.377447;1.136841;1.065102;3.529292;1.593778;0.4039001;2.853277;1.653806;0.06299329;2.492197;1.029499;0.09765058;1.336035;0.1334257;0;0;0;0.06299329;2.492197;1.029499;0.09765058;1.336035;0.1334257;0;0;0
1664563.3691;NotLabelled;16384;0.7047045;0.3587258;0.5747922;0.2105263;-1;1;-4;2902;-898;2915;65536;0.6127992;0.5637119;-0.4376731;-0.3393352;-4;2;2;3719;-1868;-761;8192;0.5221606;-0.7724882;-0.3448753;-0.1080332;0;-4;0;1872;3671;-877;32768;0.5498615;-0.7394501;0.3628809;-0.1385041;-3;0;-1;2841;2993;612;256;0.09556787;-0.2063712;-0.6929168;-0.6842105;-1;5;-1;549;4024;-203;128;0.05955679;0.09833795;0.5914127;0.7981313;-2;-1;3;-983;3873;1282;4;0.655555;-0.2409972;0.398892;0.5941828;0;6;0;2253;3180;694;16;0.7133623;-0.6828254;-0.06094183;-0.1454294;-2;4;4;167;4096;-94;2;0.4515235;-0.6040655;-0.5027701;-0.4224377;0;3;1;701;3920;-265;8;0.4612188;-0.8739141;0.09141274;0.1232687;2;-6;0;159;3379;2185;0.3840662;2.532482;1.04328;0.3900459;3.077384;1.06912;0.395303;3.556449;1.089812;0.5104555;4.280962;1.106614;0.306285;4.644449;1.075956;-0.05302113;4.558146;1.135873;-0.8283305;4.801824;0.6910748;-0.04629585;5.175025;1.074402;0.8201792;4.562775;1.075955;1.083286;4.377549;1.135872;1.073924;3.529794;1.593582;0.4111014;2.855717;1.657411;0.07181612;2.490817;1.033479;0.1023195;1.335395;0.1363009;0;0;0;0.07181612;2.490817;1.033479;0.1023195;1.335395;0.1363009;0;0;0
1664584.384;NotLabelled;16384;0.7035725;0.3587258;0.5761772;0.2105263;-2;0;-3;2932;-956;2717;65536;0.613786;0.5637119;-0.4362881;-0.3393352;-4;4;2;3735;-1790;-629;8192;0.5221606;-0.7726806;-0.3448753;-0.1066482;0;-1;0;1970;3607;-901;32768;0.5498615;-0.7401282;0.3614958;-0.1385041;-1;2;-2;2663;3057;670;256;0.09556787;-0.2063712;-0.6929168;-0.6842105;-1;0;0;525;4008;-145;128;0.05955679;0.09833795;0.5914127;0.7981313;-3;-1;3;-899;3845;1234;4;0.6568077;-0.2409972;0.398892;0.5927978;-1;4;0;2319;3156;664;16;0.712792;-0.6828254;-0.06094183;-0.1481994;-1;14;8;475;4032;-240;2;0.4515235;-0.6040655;-0.5027701;-0.4224377;0;1;0;615;3974;-303;8;0.4612188;-0.8735715;0.09279778;0.1246537;1;-6;0;255;3427;2153;0.381363;2.532936;1.042764;0.3873426;3.07784;1.068542;0.3925997;3.556907;1.089181;0.5064734;4.281642;1.105126;0.3016546;4.644731;1.074086;-0.0574874;4.557862;1.134168;-0.8337471;4.80154;0.6910307;-0.05088711;5.174741;1.07267;0.8156924;4.563966;1.074085;1.079138;4.379276;1.134167;1.070755;3.53152;1.591896;0.4094642;2.856219;1.658604;0.06911287;2.491269;1.032968;0.102462;1.335362;0.1365165;0;0;0;0.06911287;2.491269;1.032968;0.102462;1.335362;0.1365165;0;0;0
1664604.3635;NotLabelled;16384;0.7035725;0.3587258;0.5761772;0.2105263;-3;0;-2;2968;-908;2759;65536;0.6130183;0.5637119;-0.4362881;-0.3407202;-3;3;1;3661;-1684;-463;8192;0.5221606;-0.7726806;-0.3448753;-0.1066482;1;1;3;2058;3627;-859;32768;0.5498615;-0.7408031;0.3601108;-0.1385041;0;6;-2;2625;3045;692;256;0.09695291;-0.2063712;-0.6927244;-0.6842105;-1;-2;0;513;3968;-61;128;0.05817174;0.09833795;0.5900277;0.7992578;-2;-2;1;-787;3863;1246;4;0.6568077;-0.2409972;0.398892;0.5927978;1;1;-1;2281;3060;730;16;0.7120906;-0.6828254;-0.06232687;-0.1509695;0;13;8;559;3996;-206;2;0.4515235;-0.6040655;-0.5027701;-0.4224377;0;-3;0;731;3950;-377;8;0.4612188;-0.8735715;0.09279778;0.1246537;0;-2;0;165;3425;2305;0.3882836;2.531608;1.045966;0.3942632;3.076513;1.071744;0.3995204;3.55558;1.092383;0.513394;4.280315;1.108328;0.3085751;4.643404;1.077288;-0.05056682;4.556534;1.13737;-0.8286195;4.79892;0.6966746;-0.04551578;5.174065;1.075899;0.8226129;4.562639;1.077287;1.086058;4.377948;1.137369;1.079282;3.530921;1.596471;0.4191393;2.854551;1.66371;0.07603344;2.489942;1.03617;0.1071691;1.334768;0.1386943;0;0;0;0.07603344;2.489942;1.03617;0.1071691;1.334768;0.1386943;0;0;0
1664624.5719;NotLabelled;16384;0.7024359;0.3587258;0.5775623;0.2105263;-3;1;-2;2890;-970;2555;65536;0.6140016;0.5637119;-0.434903;-0.3407202;-2;1;1;3613;-1634;-373;8192;0.5207756;-0.772374;-0.3476454;-0.1066482;1;5;5;1844;3547;-813;32768;0.5498615;-0.7418834;0.3573407;-0.1398892;2;7;-2;2727;2935;644;256;0.09695291;-0.2063712;-0.6927244;-0.6842105;-1;-2;0;465;3976;-21;128;0.05817174;0.09833795;0.5900277;0.7992578;0;-3;0;-775;3875;1140;4;0.6568077;-0.2409972;0.398892;0.5927978;1;-2;-1;2423;3056;768;16;0.7117955;-0.6828254;-0.06232687;-0.1523546;0;11;9;417;3960;-110;2;0.4515235;-0.6052157;-0.501385;-0.4224377;2;-6;1;773;3976;-429;8;0.4612188;-0.8736199;0.09418282;0.1232687;0;-2;0;233;3399;2173;0.3887646;2.531301;1.046938;0.3947431;3.076107;1.074731;0.3999994;3.555093;1.097141;0.5124242;4.280055;1.113081;0.3068801;4.642733;1.082039;-0.05208769;4.555147;1.142122;-0.8295121;4.797533;0.7003183;-0.04638511;5.170713;1.08143;0.8210783;4.562996;1.082038;1.084892;4.378832;1.142121;1.077463;3.531806;1.601214;0.4183376;2.854369;1.667696;0.07651472;2.48967;1.036975;0.1094055;1.334496;0.1395627;0;0;0;0.07651472;2.48967;1.036975;0.1094055;1.334496;0.1395627;0;0;0
1664645.3844;NotLabelled;16384;0.7024359;0.3587258;0.5775623;0.2105263;0;2;-1;2898;-1020;2485;65536;0.6149803;0.5637119;-0.433518;-0.3407202;-1;0;1;3529;-1574;-409;8192;0.5207756;-0.7719392;-0.3490305;-0.1052632;1;5;4;1724;3625;-729;32768;0.5498615;-0.7425489;0.3559557;-0.1398892;1;6;-2;2821;2803;540;256;0.09695291;-0.2063712;-0.6927244;-0.6842105;-1;-1;-1;499;4006;23;128;0.0567867;0.09833795;0.5914127;0.7983332;3;-3;1;-807;3859;1150;4;0.6568077;-0.2409972;0.398892;0.5927978;0;-4;0;2485;3148;840;16;0.7125242;-0.6814404;-0.06232687;-0.1551246;0;16;7;479;4044;-94;2;0.4515235;-0.6063604;-0.5;-0.4224377;2;-4;1;771;4032;-393;8;0.4612188;-0.8736199;0.09418282;0.1232687;0;0;1;135;3393;2237;0.3911184;2.53099;1.048034;0.397097;3.075796;1.075827;0.4023532;3.554783;1.098237;0.5147782;4.279744;1.114177;0.309234;4.642423;1.083135;-0.04973373;4.554836;1.143218;-0.828706;4.795926;0.7034371;-0.04533941;5.171052;1.082138;0.8234322;4.562685;1.083135;1.087246;4.378522;1.143217;1.080128;3.533297;1.605624;0.4219053;2.854945;1.67172;0.0788686;2.48936;1.038071;0.1117594;1.334187;0.140658;0;0;0;0.0788686;2.48936;1.038071;0.1117594;1.334187;0.140658;0;0;0
1664666.4799;NotLabelled;16384;0.7012948;0.3587258;0.5789474;0.2105263;1;1;-1;2872;-950;2511;65536;0.6149803;0.5637119;-0.433518;-0.3407202;0;-1;1;3529;-1648;-443;8192;0.5207756;-0.7719392;-0.3490305;-0.1052632;1;4;4;1636;3599;-691;32768;0.5512465;-0.7412587;0.3559557;-0.1412742;0;3;-1;2831;2833;464;256;0.09833795;-0.2063712;-0.6925291;-0.6842105;-1;0;-1;493;3964;-57;128;0.0567867;0.09833795;0.5914127;0.7983332;3;-2;1;-847;3845;1168;4;0.6552184;-0.2396122;0.400277;0.5941828;-1;-3;0;2569;3122;854;16;0.7117928;-0.6814404;-0.06371191;-0.1578947;0;1;0;747;4124;-156;2;0.4515235;-0.6063604;-0.5;-0.4224377;1;-3;0;917;3954;-465;8;0.4612188;-0.8736199;0.09418282;0.1232687;-1;0;1;311;3385;2309;0.3929556;2.53017;1.054349;0.3989351;3.075065;1.080339;0.4041921;3.554123;1.101163;0.5166171;4.279084;1.117103;0.3110728;4.641764;1.086061;-0.04789484;4.554176;1.146144;-0.8266575;4.795266;0.7059919;-0.04306182;5.172332;1.082286;0.8252711;4.562027;1.08606;1.089085;4.377863;1.146143;1.084714;3.533718;1.610552;0.4276401;2.854306;1.677183;0.08070546;2.488507;1.044536;0.1135963;1.333333;0.1471227;0;0;0;0.08070546;2.488507;1.044536;0.1135963;1.333333;0.1471227;0;0;0
1664686.5848;NotLabelled;16384;0.7012948;0.3587258;0.5789474;0.2105263;2;0;-1;2858;-960;2587;65536;0.6149803;0.5637119;-0.433518;-0.3407202;0;-1;1;3663;-1642;-477;8192;0.5207756;-0.7713115;-0.3504155;-0.1052632;0;2;2;1538;3615;-731;32768;0.5512465;-0.7412587;0.3559557;-0.1412742;0;0;-1;2831;2801;462;256;0.09833795;-0.2063712;-0.6938948;-0.6828254;-1;0;0;519;4000;-75;128;0.05540166;0.09972299;0.5927978;0.7972307;4;-2;0;-909;3853;1166;4;0.6552184;-0.2396122;0.400277;0.5941828;0;-2;0;2687;3100;644;16;0.7122212;-0.6814404;-0.06232687;-0.1565097;0;-12;-1;853;4078;-228;2;0.4515235;-0.6063604;-0.5;-0.4224377;1;-2;0;895;3994;-429;8;0.4612188;-0.8736199;0.09418282;0.1232687;-1;0;0;223;3341;2291;0.3959913;2.530131;1.054935;0.4019709;3.075026;1.080925;0.4072279;3.554084;1.101749;0.5182033;4.279268;1.117684;0.3119345;4.641536;1.086639;-0.04685724;4.553231;1.146723;-0.8267498;4.793022;0.7078645;-0.04389167;5.170088;1.08569;0.8262911;4.562826;1.086638;1.090473;4.379191;1.146722;1.085415;3.535047;1.611124;0.4274492;2.855967;1.672109;0.08374119;2.488468;1.045121;0.1158182;1.333045;0.1479987;0;0;0;0.08374119;2.488468;1.045121;0.1158182;1.333045;0.1479987;0;0;0
1664707.3794;NotLabelled;16384;0.7020016;0.3573407;0.5789474;0.2105263;2;0;-1;2934;-976;2711;65536;0.6149803;0.5637119;-0.433518;-0.3407202;0;-2;1;3691;-1702;-499;8192;0.5207756;-0.7713115;-0.3504155;-0.1052632;0;0;1;1576;3645;-715;32768;0.5512465;-0.7412587;0.3559557;-0.1412742;-1;-1;0;2853;2811;458;256;0.09833795;-0.2063712;-0.6938948;-0.6828254;-1;0;0;589;3974;-55;128;0.05540166;0.09972299;0.5927978;0.7972307;4;0;0;-981;3807;1280;4;0.6560625;-0.2396122;0.398892;0.5941828;0;0;1;2583;3048;690;16;0.7126439;-0.6814404;-0.06094183;-0.1551246;-2;-11;-1;405;3988;-146;2;0.4529086;-0.606468;-0.4986149;-0.4224377;0;-3;0;927;4030;-401;8;0.4612188;-0.8736199;0.09418282;0.1232687;-2;2;0;171;3401;2291;0.3961203;2.530126;1.055211;0.4021006;3.075101;1.079452;0.4073584;3.554224;1.098739;0.5189555;4.27937;1.111865;0.3129747;4.641692;1.079569;-0.04585651;4.553919;1.140194;-0.8258709;4.79371;0.7015519;-0.04290769;5.170776;1.07916;0.8272647;4.562547;1.079568;1.091326;4.378917;1.140193;1.087765;3.535116;1.605233;0.4298158;2.856036;1.6664;0.08386984;2.488432;1.045542;0.1156978;1.33301;0.1484104;0;0;0;0.08386984;2.488432;1.045542;0.1156978;1.33301;0.1484104;0;0;0
1664729.3646;NotLabelled;16384;0.7015848;0.3573407;0.5789474;0.2119114;2;0;0;2936;-1050;2749;65536;0.6157457;0.5637119;-0.433518;-0.3393352;2;-1;0;3701;-1718;-505;8192;0.5207756;-0.7717491;-0.3490305;-0.1066482;0;-2;-2;1618;3563;-793;32768;0.5512465;-0.7405919;0.3573407;-0.1412742;-1;-4;2;2891;2757;472;256;0.09833795;-0.2063712;-0.6938948;-0.6828254;0;2;0;591;4036;-57;128;0.0567867;0.09972299;0.5927978;0.7971333;4;1;0;-973;3857;1314;4;0.6565667;-0.2382271;0.398892;0.5941828;1;2;1;2451;3080;696;16;0.7125242;-0.6814404;-0.06232687;-0.1551246;-4;5;2;281;4054;-102;2;0.4529086;-0.6074303;-0.4986149;-0.4210526;0;0;0;995;3986;-385;8;0.4598338;-0.8744978;0.09279778;0.1232687;-2;2;0;167;3397;2361;0.3930828;2.528275;1.057874;0.3990631;3.07325;1.082115;0.404321;3.552372;1.101402;0.515918;4.277519;1.114528;0.3099371;4.63984;1.082232;-0.04889399;4.552067;1.142858;-0.8283274;4.790526;0.7024599;-0.04536459;5.167591;1.080068;0.8242271;4.560696;1.082231;1.088289;4.377065;1.142857;1.084728;3.533264;1.607896;0.4267784;2.854185;1.669064;0.08083236;2.486581;1.048205;0.1155445;1.332975;0.1488459;0;0;0;0.08083236;2.486581;1.048205;0.1155445;1.332975;0.1488459;0;0;0
1664750.5192;NotLabelled;16384;0.7015848;0.3573407;0.5789474;0.2119114;1;0;0;2936;-966;2771;65536;0.6167185;0.5637119;-0.432133;-0.3393352;1;0;0;3705;-1794;-529;8192;0.5207756;-0.7717491;-0.3490305;-0.1066482;0;-2;-3;1666;3581;-865;32768;0.5512465;-0.7405919;0.3573407;-0.1412742;0;-3;2;2807;2859;454;256;0.09833795;-0.2063712;-0.6938948;-0.6828254;1;5;1;655;4008;-85;128;0.0567867;0.09972299;0.5927978;0.7971333;1;0;0;-889;3885;1290;4;0.6574062;-0.2382271;0.3975069;0.5941828;2;3;1;2375;3096;646;16;0.7120987;-0.6814404;-0.06371191;-0.1565097;-4;11;1;515;4078;-192;2;0.4529086;-0.6074303;-0.4986149;-0.4210526;0;0;0;903;3976;-409;8;0.4598338;-0.8746919;0.09279778;0.1218837;-3;3;0;145;3343;2307;0.3927834;2.526328;1.059357;0.3987638;3.071307;1.083497;0.4040216;3.550433;1.102696;0.5156187;4.275579;1.115822;0.309638;4.637901;1.083526;-0.04919308;4.550129;1.144151;-0.8290392;4.786826;0.7035331;-0.04684678;5.165847;1.080781;0.8239279;4.558757;1.083525;1.087989;4.375126;1.14415;1.081452;3.530239;1.607181;0.4223542;2.852226;1.667811;0.080533;2.484632;1.049696;0.1133494;1.333333;0.1473134;0;0;0;0.080533;2.484632;1.049696;0.1133494;1.333333;0.1473134;0;0;0
1664771.3842;NotLabelled;16384;0.7015848;0.3573407;0.5789474;0.2119114;0;0;1;3002;-1054;2821;65536;0.6167185;0.5637119;-0.432133;-0.3393352;0;0;-2;3623;-1844;-475;8192;0.5207756;-0.7715564;-0.3490305;-0.1080332;0;-1;-4;1798;3555;-933;32768;0.5512465;-0.7396563;0.3587258;-0.1426593;1;-1;2;2847;2943;624;256;0.09695291;-0.2049861;-0.6931355;-0.6842105;2;6;2;587;3990;-141;128;0.0567867;0.09972299;0.5927978;0.7971333;-2;1;0;-909;3915;1226;4;0.6569026;-0.2396122;0.3975069;0.5941828;3;4;0;2429;3240;594;16;0.7104642;-0.6828254;-0.06371191;-0.1578947;-1;8;1;373;4110;-172;2;0.4529086;-0.6074303;-0.4986149;-0.4210526;0;-1;0;999;4046;-335;8;0.4584487;-0.8754186;0.09279778;0.1218837;-2;1;0;211;3349;2383;0.3900511;2.52454;1.061124;0.3960316;3.06952;1.085265;0.4012893;3.548646;1.104463;0.5128864;4.273792;1.117589;0.3069056;4.636113;1.085293;-0.05192542;4.548341;1.145919;-0.8317831;4.785038;0.7053216;-0.04937211;5.165989;1.080164;0.8211955;4.55697;1.085292;1.085257;4.373339;1.145918;1.078732;3.528451;1.608949;0.4196343;2.850439;1.669579;0.07780063;2.482844;1.051463;0.1135095;1.333369;0.1468694;0;0;0;0.07780063;2.482844;1.051463;0.1135095;1.333369;0.1468694;0;0;0
1664792.496;NotLabelled;16384;0.7015848;0.3573407;0.5789474;0.2119114;-1;0;1;2980;-886;2791;65536;0.6167185;0.5637119;-0.432133;-0.3393352;-1;0;-3;3743;-1798;-449;8192;0.5207756;-0.7715564;-0.3490305;-0.1080332;0;0;-3;1814;3671;-881;32768;0.5512465;-0.7396563;0.3587258;-0.1426593;0;0;2;2865;2933;728;256;0.09695291;-0.2049861;-0.6931355;-0.6842105;1;2;3;539;4126;-105;128;0.0567867;0.09972299;0.5927978;0.7971333;3;2;0;-897;4009;1178;4;0.6572325;-0.2409972;0.3961219;0.5941828;5;4;-1;2295;3184;648;16;0.7097173;-0.6828254;-0.06509695;-0.1606648;0;19;4;391;3992;-102;2;0.4529086;-0.6074303;-0.4986149;-0.4210526;0;0;-1;993;4010;-267;8;0.4584487;-0.8755643;0.09141274;0.1218837;0;1;0;185;3419;2317;0.3974042;2.52674;1.054617;0.4033847;3.071719;1.078758;0.4086425;3.550845;1.097956;0.519786;4.276023;1.113046;0.3135944;4.638301;1.081625;-0.04520699;4.550148;1.141872;-0.8267464;4.786844;0.7042655;-0.04290536;5.167795;1.076108;0.8279331;4.559475;1.081624;1.092083;4.375848;1.141871;1.085736;3.53022;1.603552;0.4243394;2.854497;1.664712;0.08515373;2.485044;1.044956;0.1193021;1.333257;0.1432472;0;0;0;0.08515373;2.485044;1.044956;0.1193021;1.333257;0.1432472;0;0;0
1664813.3718;NotLabelled;16384;0.7015848;0.3573407;0.5789474;0.2119114;-2;1;1;2930;-940;2751;65536;0.6159543;0.5637119;-0.432133;-0.3407202;-2;-1;-3;3799;-1688;-397;8192;0.5207756;-0.7715564;-0.3490305;-0.1080332;3;1;-2;1774;3677;-925;32768;0.5498615;-0.7410879;0.3573407;-0.1440443;1;2;2;2849;2983;762;256;0.09556787;-0.2049861;-0.6933278;-0.6842105;0;4;2;495;4164;-27;128;0.0567867;0.09833795;0.5941828;0.7962736;2;0;-1;-891;3999;1146;4;0.656723;-0.2423823;0.3961219;0.5941828;4;5;-2;2201;3154;698;16;0.7102874;-0.6814404;-0.06648199;-0.1634349;0;30;11;509;4064;66;2;0.4529086;-0.6074303;-0.4986149;-0.4210526;0;1;0;991;3976;-373;8;0.4584487;-0.8755643;0.09141274;0.1218837;0;0;0;169;3245;2435;0.3951541;2.526927;1.054446;0.4011346;3.071908;1.078586;0.4063924;3.551033;1.097785;0.5175359;4.27621;1.112875;0.3113442;4.638489;1.081454;-0.04745713;4.550336;1.141701;-0.8289965;4.787033;0.7040938;-0.0451555;5.167983;1.075937;0.8256829;4.559663;1.081453;1.089833;4.376035;1.141699;1.083485;3.530407;1.60338;0.4220892;2.854685;1.664541;0.08290365;2.485231;1.044785;0.12184;1.332958;0.143892;0;0;0;0.08290365;2.485231;1.044785;0.12184;1.332958;0.143892;0;0;0
1664834.389;NotLabelled;16384;0.7020016;0.3573407;0.5789474;0.2105263;-3;3;0;2952;-982;2753;65536;0.6159543;0.5637119;-0.432133;-0.3407202;-5;-1;-2;3789;-1724;-317;8192;0.5207756;-0.7713612;-0.3490305;-0.1094183;4;0;1;1778;3699;-783;32768;0.5498615;-0.7408173;0.3573407;-0.1454294;0;5;3;2787;2991;670;256;0.09556787;-0.2049861;-0.6933278;-0.6842105;0;3;3;533;4138;-93;128;0.0567867;0.09972299;0.5941828;0.7961014;2;0;-1;-861;3929;1116;4;0.6579735;-0.2423823;0.3961219;0.5927978;1;8;-3;2215;3262;786;16;0.7087246;-0.6814404;-0.06925207;-0.1689751;0;33;14;911;3990;132;2;0.4529086;-0.6074303;-0.4986149;-0.4210526;0;0;0;839;3934;-397;8;0.4584487;-0.8755643;0.09141274;0.1218837;-1;0;0;155;3339;2333;0.3949466;2.528759;1.055985;0.400928;3.073823;1.078153;0.4061865;3.553016;1.095619;0.5187783;4.277969;1.110713;0.3133108;4.640658;1.079294;-0.04566601;4.553222;1.13954;-0.827832;4.789919;0.7030532;-0.04248962;5.168919;1.073719;0.8274909;4.560805;1.079293;1.091274;4.37665;1.139539;1.085588;3.531023;1.601229;0.4234665;2.856314;1.665647;0.08269581;2.487029;1.046487;0.1217756;1.332452;0.1485537;0;0;0;0.08269581;2.487029;1.046487;0.1217756;1.332452;0.1485537;0;0;0
1664855.3626;NotLabelled;16384;0.7012716;0.3573407;0.5803324;0.2091413;-4;7;3;2908;-1024;2631;65536;0.617713;0.5609418;-0.432133;-0.3421052;-7;-3;-2;3625;-1558;-485;8192;0.5193906;-0.7722945;-0.3490305;-0.1094183;5;-1;2;1676;3669;-761;32768;0.5498615;-0.7414837;0.3559557;-0.1454294;0;4;2;2781;2865;572;256;0.09418282;-0.2049861;-0.6935173;-0.6842105;-2;1;4;541;4006;-69;128;0.05817174;0.09972299;0.5941828;0.7960014;3;0;-1;-883;3763;1138;4;0.6587078;-0.2437673;0.3961219;0.5914127;0;7;-3;2215;3302;866;16;0.7085757;-0.6800554;-0.07063711;-0.1745152;2;31;15;1129;4012;2;2;0.4529086;-0.6074303;-0.4986149;-0.4210526;0;-2;0;929;4020;-359;8;0.4570637;-0.8762881;0.09141274;0.1218837;-2;2;0;181;3351;2323;0.4022496;2.527424;1.058245;0.4082309;3.072485;1.080473;0.4134895;3.551676;1.09799;0.5260811;4.276629;1.113086;0.3206141;4.639319;1.081664;-0.03836364;4.551882;1.141905;-0.8203194;4.790295;0.7059757;-0.03498259;5.169294;1.076654;0.8347943;4.559465;1.081671;1.098576;4.37531;1.141921;1.091523;3.528996;1.602329;0.4280187;2.855505;1.665266;0.08999878;2.485694;1.048743;0.1268829;1.331837;0.149793;0;0;0;0.08999878;2.485694;1.048743;0.1268829;1.331837;0.149793;0;0;0
1664877.3668;NotLabelled;16384;0.7023868;0.3559557;0.5803324;0.2077562;-3;8;2;2814;-996;2607;65536;0.6167418;0.5609418;-0.433518;-0.3421052;-6;-5;-3;3513;-1482;-687;8192;0.5193906;-0.7722945;-0.3490305;-0.1094183;4;-1;2;1694;3651;-799;32768;0.5484765;-0.7422363;0.3559557;-0.1468144;-2;1;2;2779;2859;562;256;0.09418282;-0.2063712;-0.694471;-0.6828254;-3;-2;4;541;3956;-77;128;0.05817174;0.09972299;0.5941828;0.7960014;1;-1;-2;-929;3833;1184;4;0.6586015;-0.2451524;0.3975069;0.5900277;-2;5;-4;2249;3194;892;16;0.7085175;-0.6786703;-0.07063711;-0.1800554;6;28;16;919;3994;232;2;0.4529086;-0.6074303;-0.4986149;-0.4210526;0;-3;1;849;3990;-367;8;0.4570637;-0.8760943;0.09141274;0.1232687;-3;1;0;153;3327;2343;0.4090025;2.527779;1.063045;0.4149839;3.072844;1.085168;0.4202425;3.552038;1.102593;0.534282;4.276766;1.117692;0.3295391;4.639865;1.086275;-0.02961168;4.553145;1.14652;-0.8137503;4.792068;0.714813;-0.02420518;5.168571;1.079041;0.8435588;4.558985;1.086274;1.106974;4.374304;1.146519;1.098641;3.529075;1.608898;0.436407;2.854509;1.673667;0.09675178;2.486048;1.053551;0.1315556;1.330605;0.156556;0;0;0;0.09675178;2.486048;1.053551;0.1315556;1.330605;0.156556;0;0;0
1664897.3607;NotLabelled;16384;0.702795;0.3559557;0.5803324;0.2063712;-2;5;1;2762;-1076;2547;65536;0.6179987;0.5595568;-0.433518;-0.3421052;-2;-5;-3;3575;-1466;-729;8192;0.5193906;-0.7722945;-0.3490305;-0.1094183;2;-2;1;1674;3621;-697;32768;0.5484765;-0.7422363;0.3559557;-0.1468144;-2;0;2;2719;2815;496;256;0.09418282;-0.2063712;-0.694471;-0.6828254;-3;-4;4;589;3914;-79;128;0.05817174;0.09972299;0.5941828;0.7960014;0;-1;-2;-911;3857;1216;4;0.6590033;-0.2451524;0.398892;0.5886427;-3;-3;-3;2351;3336;934;16;0.7079093;-0.6772853;-0.07202215;-0.1869806;6;7;5;715;4242;58;2;0.4542936;-0.608489;-0.4972299;-0.4196676;0;-2;0;751;3928;-461;8;0.4570637;-0.8760943;0.09141274;0.1232687;-3;0;0;211;3405;2373;0.4167469;2.529464;1.067545;0.4227284;3.07453;1.089668;0.4279869;3.553723;1.107093;0.5439218;4.278188;1.120231;0.3401132;4.641736;1.08794;-0.01923695;4.556112;1.148564;-0.8015891;4.795459;0.7138602;-0.01292598;5.170031;1.081969;0.8539205;4.559516;1.08794;1.116878;4.374308;1.148562;1.107696;3.529078;1.610926;0.4433491;2.856611;1.675871;0.1044961;2.487732;1.058051;0.1377619;1.32891;0.1653676;0;0;0;0.1044961;2.487732;1.058051;0.1377619;1.32891;0.1653676;0;0;0
1664917.3679;NotLabelled;16384;0.702795;0.3559557;0.5803324;0.2063712;0;2;1;2762;-1042;2535;65536;0.618278;0.5581717;-0.434903;-0.3421052;0;-3;-2;3561;-1484;-773;8192;0.5180055;-0.7732242;-0.3490305;-0.1094183;2;-2;0;1592;3539;-723;32768;0.5484765;-0.7422363;0.3559557;-0.1468144;-1;-1;3;2745;2895;460;256;0.09556787;-0.2091413;-0.6948134;-0.6814404;-1;-3;3;521;3926;-7;128;0.05817174;0.101108;0.5941828;0.7958267;0;-5;-4;-887;3903;1144;4;0.6590033;-0.2451524;0.398892;0.5886427;-2;-6;-2;2535;3334;816;16;0.7092319;-0.6759003;-0.07202215;-0.1869806;5;-10;-1;595;4128;-42;2;0.4542936;-0.608489;-0.4972299;-0.4196676;0;-4;1;747;4018;-473;8;0.4556787;-0.8768156;0.09141274;0.1232687;-3;0;-1;233;3347;2315;0.4285285;2.52879;1.074391;0.4345098;3.073855;1.096514;0.4397685;3.553049;1.113939;0.5557034;4.277514;1.127078;0.3518948;4.641062;1.094787;-0.007455349;4.555438;1.15541;-0.7893778;4.796544;0.7209059;0.000636518;5.170829;1.086399;0.8657017;4.558842;1.094786;1.128659;4.373633;1.155409;1.119478;3.528404;1.617772;0.4551307;2.855937;1.682718;0.1162776;2.487058;1.064898;0.1444409;1.327173;0.1734201;0;0;0;0.1162776;2.487058;1.064898;0.1444409;1.327173;0.1734201;0;0;0
1664938.3732;NotLabelled;16384;0.702795;0.3559557;0.5803324;0.2063712;1;0;1;2756;-1002;2591;65536;0.618278;0.5581717;-0.434903;-0.3421052;2;-2;-2;3599;-1562;-655;8192;0.5193906;-0.7729189;-0.3476454;-0.1094183;1;-2;0;1716;3685;-773;32768;0.5484765;-0.7415704;0.3573407;-0.1468144;-2;-2;3;2861;2891;508;256;0.09556787;-0.2091413;-0.6948134;-0.6814404;0;-2;3;551;3992;-27;128;0.05817174;0.1024931;0.5941828;0.7956494;3;-4;-4;-931;3867;1124;4;0.6574368;-0.2437673;0.400277;0.5900277;0;-10;-2;2447;3170;672;16;0.7100955;-0.6759003;-0.07063711;-0.1842105;7;-26;-5;831;4038;-118;2;0.4542936;-0.6096182;-0.4958449;-0.4196676;0;-10;1;751;3916;-477;8;0.4556787;-0.8768156;0.09141274;0.1232687;-4;0;-1;249;3313;2295;0.4191604;2.528555;1.079241;0.4251416;3.073618;1.101425;0.4304002;3.55281;1.118903;0.5480725;4.277014;1.130948;0.345127;4.641001;1.098171;-0.01441258;4.556327;1.159004;-0.7937311;4.797433;0.719846;-0.004774004;5.169493;1.089866;0.8587358;4.557552;1.09817;1.121264;4.371803;1.159004;1.107133;3.527719;1.62333;0.4424099;2.855252;1.684302;0.1069094;2.486825;1.069742;0.1404014;1.32694;0.1784489;0;0;0;0.1069094;2.486825;1.069742;0.1404014;1.32694;0.1784489;0;0;0
1664959.6683;NotLabelled;16384;0.702795;0.3559557;0.5803324;0.2063712;1;0;1;2764;-972;2763;65536;0.6180669;0.5581717;-0.4362881;-0.3407202;1;-3;-1;3671;-1678;-501;8192;0.5193906;-0.7729189;-0.3476454;-0.1094183;0;-3;-1;1706;3675;-743;32768;0.5484765;-0.7409014;0.3587258;-0.1468144;-2;-6;4;2919;2893;576;256;0.09556787;-0.2091413;-0.6948134;-0.6814404;0;-2;3;573;3990;-51;128;0.05817174;0.1038781;0.5955678;0.7944334;4;-4;-5;-971;3839;1188;4;0.6561912;-0.2437673;0.400277;0.5914127;0;-12;-2;2397;2956;648;16;0.7114302;-0.6759003;-0.06786703;-0.1800554;6;-35;-5;725;3944;-378;2;0.4556787;-0.6106604;-0.4944598;-0.4182825;0;-8;0;961;4020;-403;8;0.4542936;-0.8776771;0.0900277;0.1232687;-4;2;0;221;3353;2287;0.4191714;2.529122;1.078451;0.4251527;3.074183;1.100695;0.4304112;3.553372;1.118227;0.5480835;4.277575;1.130272;0.3451382;4.641563;1.097494;-0.01440147;4.55689;1.158328;-0.7937196;4.797996;0.7191695;-0.00476259;5.170055;1.089189;0.858747;4.558113;1.097494;1.121275;4.372364;1.158328;1.107968;3.526809;1.619991;0.4421085;2.855419;1.680432;0.1069205;2.487392;1.068947;0.1378562;1.327288;0.1778469;0;0;0;0.1069205;2.487392;1.068947;0.1378562;1.327288;0.1778469;0;0;0
1664980.3792;NotLabelled;16384;0.702795;0.3559557;0.5803324;0.2063712;0;0;0;2864;-1004;2813;65536;0.6180669;0.5581717;-0.4362881;-0.3407202;0;-3;-2;3741;-1740;-485;8192;0.5193906;-0.7735404;-0.3462604;-0.1094183;0;-4;-1;1566;3633;-763;32768;0.5470914;-0.7412535;0.3601108;-0.1468144;-3;-8;5;2907;2795;676;256;0.09556787;-0.2105263;-0.694395;-0.6814404;-1;-3;3;625;3970;-35;128;0.05817174;0.1038781;0.5955678;0.7944334;3;-1;-4;-995;3859;1210;4;0.655454;-0.2423823;0.400277;0.5927978;2;-12;0;2665;2948;508;16;0.7139107;-0.6745152;-0.06648199;-0.1759003;3;-18;-5;-53;4114;-364;2;0.4556787;-0.612724;-0.4930748;-0.4168975;-1;-9;-2;1087;4034;-349;8;0.4542936;-0.8776771;0.0900277;0.1232687;-4;5;0;161;3415;2375;0.4142452;2.530183;1.077134;0.4202275;3.075317;1.097522;0.4254867;3.554564;1.113422;0.5431589;4.278767;1.125467;0.3402135;4.642754;1.09269;-0.01932609;4.55808;1.153524;-0.7984113;4.799186;0.7139517;-0.01043651;5.17127;1.086036;0.8538221;4.559304;1.092689;1.11635;4.373556;1.153522;1.102799;3.527999;1.615178;0.4358034;2.85769;1.67509;0.1019941;2.488422;1.067784;0.1351457;1.327584;0.1777205;0;0;0;0.1019941;2.488422;1.067784;0.1351457;1.327584;0.1777205;0;0;0
1665004.0332;NotLabelled;16384;0.7038996;0.3545706;0.5803324;0.2049861;0;2;0;2798;-1050;2863;65536;0.619315;0.5567867;-0.4362881;-0.3407202;-2;-3;-2;3741;-1714;-493;8192;0.5193906;-0.7735404;-0.3462604;-0.1094183;0;-6;-2;1570;3597;-903;32768;0.5470914;-0.740579;0.3614958;-0.1468144;-4;-9;5;2867;2695;656;256;0.09556787;-0.2119114;-0.6953309;-0.6800554;-1;-5;4;667;3942;-5;128;0.05817174;0.1052632;0.5955678;0.794251;3;1;-3;-1079;3795;1196;4;0.6546282;-0.2423823;0.3975069;0.5955678;4;0;1;2611;3108;558;16;0.7135116;-0.6745152;-0.07063711;-0.1759003;0;10;-1;717;3926;-348;2;0.4570637;-0.6116915;-0.4930748;-0.4168975;-1;-2;-1;1137;4028;-309;8;0.4529086;-0.8787267;0.08864266;0.1218837;-3;7;0;197;3287;2499;0.4061227;2.529059;1.081626;0.412105;3.074193;1.102014;0.4173642;3.55344;1.117914;0.5363445;4.277419;1.13057;0.3339812;4.641804;1.098616;-0.02558777;4.557695;1.160059;-0.8053325;4.800694;0.7227044;-0.01735803;5.172778;1.094788;0.8474399;4.557444;1.097507;1.109757;4.37116;1.157607;1.094482;3.524768;1.617676;0.4257327;2.856423;1.679942;0.09387168;2.487298;1.072276;0.127358;1.32802;0.1801932;0;0;0;0.09387168;2.487298;1.072276;0.127358;1.32802;0.1801932;0;0;0
1665024.3832;NotLabelled;16384;0.7038996;0.3545706;0.5803324;0.2049861;-1;3;1;2880;-1034;2873;65536;0.619315;0.5567867;-0.4362881;-0.3407202;-4;-4;-3;3747;-1700;-619;8192;0.5207756;-0.7734226;-0.3448753;-0.1080332;0;-7;-2;1610;3525;-979;32768;0.5457063;-0.7409235;0.3628809;-0.1468144;-4;-8;5;3037;2723;644;256;0.09695291;-0.2146814;-0.6956426;-0.6786703;-2;-5;5;759;3982;-59;128;0.05955679;0.1052632;0.5969529;0.7931077;1;3;-3;-979;3853;1136;4;0.6546282;-0.2423823;0.3975069;0.5955678;4;3;1;2617;3158;562;16;0.7143378;-0.6731302;-0.07202215;-0.1772853;0;8;0;691;4146;-352;2;0.4570637;-0.6116915;-0.4930748;-0.4168975;0;0;-1;1115;4002;-307;8;0.4529086;-0.8788654;0.08725762;0.1218837;-2;8;0;35;3277;2475;0.3851008;2.528133;1.079565;0.391083;3.073263;1.100015;0.3963421;3.552509;1.115968;0.5171964;4.276205;1.126952;0.3158438;4.641032;1.093702;-0.04404971;4.558025;1.15474;-0.8205923;4.799541;0.7109143;-0.03274617;5.17132;1.083576;0.8290812;4.555327;1.093701;1.090805;4.368515;1.154739;1.074279;3.522634;1.615703;0.4041559;2.855373;1.674746;0.07284966;2.486372;1.07021;0.1201337;1.329263;0.1759391;0;0;0;0.07284966;2.486372;1.07021;0.1201337;1.329263;0.1759391;0;0;0
1665044.3678;NotLabelled;16384;0.7043015;0.3545706;0.5803324;0.2036011;-3;3;1;2920;-1136;2855;65536;0.6195813;0.5554016;-0.4376731;-0.3407202;-4;-3;-5;3693;-1654;-707;8192;0.5207756;-0.7746519;-0.3421052;-0.1080332;2;-6;-2;1700;3553;-1047;32768;0.5443213;-0.7403044;0.365651;-0.1481994;-2;-2;4;2919;2813;594;256;0.09695291;-0.2160665;-0.6952136;-0.6786703;0;0;5;709;4020;-15;128;0.06094183;0.1052632;0.5969529;0.7930025;3;3;-2;-913;3927;1110;4;0.6554672;-0.2423823;0.3961219;0.5955678;5;5;3;2725;3142;524;16;0.7143378;-0.6731302;-0.07202215;-0.1772853;-1;3;-2;405;3888;-246;2;0.4570637;-0.6116915;-0.4930748;-0.4168975;0;2;-1;921;4008;-211;8;0.4529086;-0.8790017;0.08587258;0.1218837;-2;8;0;111;3289;2455;0.3758788;2.527929;1.083447;0.3818618;3.073132;1.101867;0.3871215;3.552433;1.116037;0.5097178;4.275851;1.125982;0.3092349;4.641116;1.09227;-0.05084267;4.559059;1.153508;-0.8244414;4.800574;0.7045711;-0.03884044;5.172353;1.081942;0.8222646;4.554176;1.092269;1.083553;4.36682;1.153507;1.066411;3.520202;1.61309;0.3941842;2.854914;1.670457;0.0636273;2.486134;1.07426;0.116264;1.329024;0.1802886;0;0;0;0.0636273;2.486134;1.07426;0.116264;1.329024;0.1802886;0;0;0
1665064.3966;NotLabelled;16384;0.7047004;0.3545706;0.5803324;0.2022161;-4;3;2;2812;-1048;2809;65536;0.6200579;0.5540166;-0.4376731;-0.3421052;-2;-1;-5;3719;-1616;-743;8192;0.5193906;-0.7761907;-0.3407202;-0.1080332;4;-6;-3;1784;3589;-1085;32768;0.5443213;-0.7403044;0.365651;-0.1481994;-1;-1;4;2813;2851;654;256;0.09556787;-0.2160665;-0.6954054;-0.6786703;0;1;5;687;4036;-39;128;0.06094183;0.1052632;0.5969529;0.7930025;2;3;-2;-973;3949;1148;4;0.6545285;-0.2437673;0.3947368;0.5969529;5;6;4;2443;3280;580;16;0.7141969;-0.6731302;-0.0734072;-0.1772853;-4;0;-1;911;4354;-192;2;0.4570637;-0.6116915;-0.4930748;-0.4168975;-1;6;-2;871;3994;-265;8;0.4515235;-0.8800389;0.08448754;0.1204986;-3;5;0;197;3343;2301;0.3706391;2.526112;1.085741;0.3766219;3.071319;1.104049;0.3818817;3.550623;1.11812;0.5057538;4.273811;1.128957;0.3059234;4.639468;1.095642;-0.05431113;4.557976;1.156708;-0.8267571;4.801245;0.7067344;-0.04084647;5.170783;1.085657;0.8187988;4.551623;1.095641;1.079743;4.363732;1.156707;1.059141;3.516467;1.614955;0.3825738;2.855493;1.671148;0.05838752;2.484315;1.076563;0.1158728;1.329024;0.1805403;0;0;0;0.05838752;2.484315;1.076563;0.1158728;1.329024;0.1805403;0;0;0
1665084.5748;NotLabelled;16384;0.7050964;0.3545706;0.5803324;0.200831;-3;1;3;2780;-1070;2721;65536;0.6203147;0.5526316;-0.4390582;-0.3421052;-1;0;-4;3695;-1592;-639;8192;0.5193906;-0.7759967;-0.3407202;-0.1094183;4;-4;-3;1832;3683;-1063;32768;0.5443213;-0.7403044;0.365651;-0.1481994;0;0;3;2831;2959;642;256;0.09556787;-0.2174515;-0.6949735;-0.6786703;0;1;5;687;4028;9;128;0.06232687;0.1052632;0.5969529;0.7928948;1;4;0;-999;3899;1182;4;0.6566207;-0.2437673;0.3933518;0.5955678;4;7;4;2231;3348;740;16;0.7128889;-0.6745152;-0.0734072;-0.1772853;-4;3;0;559;3934;-52;2;0.4584487;-0.6095332;-0.4944598;-0.4168975;-3;1;-5;907;4096;-231;8;0.4515235;-0.8803592;0.08310249;0.1191136;-3;8;1;95;3315;2387;0.3636358;2.527691;1.082018;0.3696189;3.072897;1.100327;0.3748786;3.552202;1.114398;0.5001909;4.275142;1.125239;0.3010893;4.641196;1.091925;-0.05930695;4.560421;1.152991;-0.8322177;4.80544;0.7047682;-0.04344407;5.172704;1.079935;0.8137887;4.55233;1.091924;1.074358;4.36392;1.152989;1.051116;3.517487;1.612648;0.3746606;2.856513;1.670168;0.05138427;2.485894;1.072841;0.114085;1.32943;0.1786831;0;0;0;0.05138427;2.485894;1.072841;0.114085;1.32943;0.1786831;0;0;0
1665106.3628;NotLabelled;16384;0.706234;0.3545706;0.5789474;0.200831;-3;1;3;2878;-1158;2703;65536;0.6203147;0.5526316;-0.4390582;-0.3421052;0;0;-5;3781;-1508;-655;8192;0.5180055;-0.7775278;-0.3393352;-0.1094183;4;-1;-3;1894;3653;-1015;32768;0.5443213;-0.7400258;0.365651;-0.1495845;1;0;3;2857;2967;708;256;0.09418282;-0.2174515;-0.696512;-0.6772853;1;1;5;707;4014;-21;128;0.06232687;0.1052632;0.5969529;0.7928948;0;6;0;-987;3883;1090;4;0.6569333;-0.2451524;0.3919668;0.5955678;3;5;3;2205;3260;686;16;0.712543;-0.6745152;-0.0734072;-0.1786704;-4;9;0;577;4058;-2;2;0.4584487;-0.6085836;-0.4944598;-0.4182825;-1;4;-4;1001;3994;-379;8;0.4515235;-0.8804889;0.08171745;0.1191136;-2;7;1;151;3271;2463;0.3635984;2.525458;1.081193;0.3695814;3.070669;1.099385;0.3748412;3.549976;1.113355;0.5014268;4.272681;1.125094;0.3029783;4.639126;1.092181;-0.05757266;4.558913;1.153073;-0.829073;4.805682;0.7033826;-0.04000464;5.170689;1.080129;0.8155199;4.549355;1.09218;1.075744;4.360411;1.153072;1.049922;3.513261;1.611268;0.3733431;2.852287;1.667318;0.05134678;2.48366;1.072025;0.1167082;1.329718;0.1748048;0;0;0;0.05134678;2.48366;1.072025;0.1167082;1.329718;0.1748048;0;0;0
1665126.3639;NotLabelled;16384;0.705537;0.3559557;0.5789474;0.200831;-2;0;4;2780;-1074;2637;65536;0.6195488;0.5526316;-0.4390582;-0.3434903;0;0;-3;3733;-1468;-551;8192;0.5180055;-0.7775278;-0.3393352;-0.1094183;3;0;-2;1932;3771;-877;32768;0.5443213;-0.7400258;0.365651;-0.1495845;2;2;2;2787;3059;760;256;0.09418282;-0.2174515;-0.696512;-0.6772853;1;2;4;701;3994;-53;128;0.06371191;0.1038781;0.5983379;0.7919229;1;7;0;-917;3915;1058;4;0.6564147;-0.2465374;0.3919668;0.5955678;0;0;1;2163;3322;754;16;0.7107355;-0.6759003;-0.07479224;-0.1800554;-2;-1;-1;701;4022;12;2;0.4584487;-0.6085836;-0.4944598;-0.4182825;-1;6;-2;929;3964;-397;8;0.4515235;-0.8808026;0.08033241;0.1177285;-2;5;0;125;3257;2483;0.3635985;2.525576;1.081233;0.3695816;3.070787;1.099426;0.3748414;3.550094;1.113395;0.5034955;4.272472;1.122341;0.3060712;4.639358;1.088183;-0.05466658;4.560403;1.149613;-0.8253712;4.808434;0.6992531;-0.03544655;5.173442;1.074201;0.8183547;4.548124;1.088182;1.078079;4.358668;1.149612;1.049754;3.51237;1.609233;0.371962;2.852643;1.665315;0.05134693;2.483778;1.072065;0.1194361;1.329364;0.1756553;0;0;0;0.05134693;2.483778;1.072065;0.1194361;1.329364;0.1756553;0;0;0
1665147.3695;NotLabelled;16384;0.7059298;0.3559557;0.5789474;0.199446;-1;1;4;2740;-1058;2597;65536;0.6197996;0.5512465;-0.4404432;-0.3434903;0;-1;-2;3663;-1404;-595;8192;0.5180055;-0.7775278;-0.3393352;-0.1094183;3;0;-1;1828;3701;-873;32768;0.5443213;-0.7404275;0.3642659;-0.1509695;3;3;2;2761;2997;692;256;0.09279778;-0.2188366;-0.6962641;-0.6772853;0;0;2;605;4032;-71;128;0.06509695;0.1024931;0.599723;0.7909424;7;2;0;-865;3843;1056;4;0.6564147;-0.2465374;0.3919668;0.5955678;0;-4;2;2313;3302;656;16;0.7094158;-0.6772853;-0.07479224;-0.1800554;-2;-5;-3;739;4062;32;2;0.4584487;-0.6085836;-0.4944598;-0.4182825;0;3;0;897;3978;-307;8;0.4501385;-0.8815112;0.08033241;0.1177285;0;4;1;119;3269;2479;0.3649711;2.528213;1.073307;0.3709549;3.07349;1.08939;0.3762152;3.552849;1.101505;0.5048693;4.275228;1.11045;0.307445;4.642112;1.076293;-0.05329269;4.563157;1.137723;-0.8242871;4.812542;0.6886083;-0.03362906;5.175596;1.063907;0.8197283;4.550879;1.076291;1.079453;4.361423;1.137721;1.050831;3.515124;1.597323;0.3730391;2.855397;1.653404;0.05271915;2.48638;1.064314;0.1226587;1.329677;0.1710022;0;0;0;0.05271915;2.48638;1.064314;0.1226587;1.329677;0.1710022;0;0;0
1665168.3968;NotLabelled;16384;0.7070634;0.3559557;0.5775623;0.199446;0;1;2;2650;-1130;2551;65536;0.6197996;0.5512465;-0.4404432;-0.3434903;0;-1;0;3591;-1314;-551;8192;0.5166205;-0.7776475;-0.3407202;-0.1108033;3;4;1;1810;3705;-881;32768;0.5443213;-0.7411073;0.3628809;-0.1509695;2;5;0;2827;2907;714;256;0.09418282;-0.2188366;-0.6960781;-0.6772853;0;-1;1;635;3954;-51;128;0.06371191;0.1024931;0.599723;0.7910552;5;0;0;-847;3853;1122;4;0.6569333;-0.2451524;0.3919668;0.5955678;-1;-4;3;2431;3314;566;16;0.7099105;-0.6772853;-0.0734072;-0.1786704;-2;-8;-1;731;4024;2;2;0.4584487;-0.6074556;-0.4958449;-0.4182825;0;1;0;917;3960;-305;8;0.4501385;-0.8816363;0.07894737;0.1177285;0;2;0;153;3139;2465;0.3677724;2.528491;1.068998;0.3737567;3.073827;1.082963;0.3790176;3.553228;1.093217;0.5103823;4.275106;1.103069;0.3143451;4.642773;1.069315;-0.04670015;4.565099;1.130571;-0.8174462;4.816229;0.6820027;-0.02577132;5.177015;1.057343;0.8262821;4.549615;1.069315;1.08528;4.35911;1.13057;1.056857;3.512812;1.590185;0.3788272;2.853234;1.645139;0.05552018;2.486623;1.060181;0.1256506;1.329921;0.1668844;0;0;0;0.05552018;2.486623;1.060181;0.1256506;1.329921;0.1668844;0;0;0
1665189.3855;NotLabelled;16384;0.7074526;0.3559557;0.5775623;0.1980609;2;0;0;2690;-1144;2541;65536;0.6197996;0.5512465;-0.4404432;-0.3434903;1;-3;0;3713;-1374;-515;8192;0.5166205;-0.7770392;-0.3421052;-0.1108033;2;4;2;1684;3709;-777;32768;0.5443213;-0.7408237;0.3628809;-0.1523546;0;5;0;2809;2809;686;256;0.09418282;-0.2188366;-0.6960781;-0.6772853;-1;-1;1;677;3948;9;128;0.06371191;0.1024931;0.601108;0.7900032;5;1;0;-865;3855;1096;4;0.6569333;-0.2451524;0.3919668;0.5955678;0;0;2;2327;3326;622;16;0.7099105;-0.6772853;-0.0734072;-0.1786704;-2;-7;-1;479;3986;-40;2;0.4584487;-0.6074556;-0.4958449;-0.4182825;0;-2;-2;975;3964;-281;8;0.4501385;-0.8816363;0.07894737;0.1177285;-1;0;0;159;3217;2509;0.3673169;2.526158;1.072725;0.3733014;3.07149;1.086817;0.378562;3.550889;1.097181;0.5084906;4.273028;1.10703;0.3117222;4.640302;1.073275;-0.04916766;4.561911;1.134531;-0.8172219;4.8143;0.6820703;-0.02628493;5.175086;1.058963;0.8238435;4.548164;1.073274;1.08322;4.358175;1.13453;1.051494;3.512636;1.595325;0.374469;2.851961;1.649485;0.05506462;2.484292;1.063898;0.1251026;1.329877;0.1676381;0;0;0;0.05506462;2.484292;1.063898;0.1251026;1.329877;0.1676381;0;0;0
1665210.4616;NotLabelled;16384;0.7074526;0.3559557;0.5775623;0.1980609;3;1;0;2668;-1164;2539;65536;0.6197996;0.5512465;-0.4404432;-0.3434903;0;-3;1;3727;-1402;-453;8192;0.5152354;-0.7777598;-0.3421052;-0.1121884;3;2;3;1606;3683;-847;32768;0.5443213;-0.7408237;0.3628809;-0.1523546;-1;2;0;2871;2803;600;256;0.09418282;-0.2188366;-0.6960781;-0.6772853;-2;0;0;677;3974;-27;128;0.06371191;0.1024931;0.602493;0.7889475;5;1;0;-923;3871;1070;4;0.6569333;-0.2451524;0.3919668;0.5955678;-1;3;1;2363;3228;586;16;0.7089343;-0.6786703;-0.0734072;-0.1772853;0;-3;0;333;4130;-60;2;0.4598338;-0.6064079;-0.4958449;-0.4182825;0;-1;-1;961;3994;-327;8;0.4487534;-0.8823422;0.07894737;0.1177285;0;-2;0;139;3289;2537;0.3673172;2.526189;1.072565;0.373302;3.071567;1.084724;0.3785631;3.551;1.09339;0.5084916;4.273139;1.103239;0.3117232;4.640413;1.069484;-0.04916677;4.562021;1.13074;-0.8167571;4.81615;0.6784648;-0.02581996;5.176937;1.055358;0.8238447;4.548275;1.069483;1.083221;4.358286;1.130738;1.052829;3.513052;1.592182;0.3744714;2.853621;1.644816;0.05506453;2.484292;1.063898;0.1251027;1.329878;0.167638;0;0;0;0.05506453;2.484292;1.063898;0.1251027;1.329878;0.167638;0;0;0
1665230.3684;NotLabelled;16384;0.7074526;0.3559557;0.5775623;0.1980609;3;2;-1;2762;-1098;2623;65536;0.6197996;0.5512465;-0.4404432;-0.3434903;0;-4;2;3681;-1490;-515;8192;0.5152354;-0.777149;-0.3434903;-0.1121884;2;0;2;1540;3663;-885;32768;0.5443213;-0.7415006;0.3614958;-0.1523546;-2;0;0;2989;2831;528;256;0.09418282;-0.2188366;-0.6960781;-0.6772853;-2;1;0;715;4050;-47;128;0.06371191;0.1024931;0.602493;0.7889475;8;1;1;-917;3907;1106;4;0.6569333;-0.2451524;0.3919668;0.5955678;0;0;0;2299;3206;556;16;0.7089343;-0.6786703;-0.0734072;-0.1772853;0;5;0;525;4052;40;2;0.4598338;-0.6064079;-0.4958449;-0.4182825;0;0;0;985;4000;-373;8;0.4487534;-0.8823422;0.07894737;0.1177285;0;-3;-1;189;3281;2501;0.3680084;2.52681;1.067122;0.3739938;3.072228;1.077346;0.3792553;3.551688;1.084311;0.5091837;4.273827;1.09416;0.3124155;4.641101;1.060405;-0.04847449;4.56271;1.121661;-0.8157941;4.816838;0.6689264;-0.0248569;5.177625;1.045819;0.8245369;4.548963;1.060404;1.083913;4.358974;1.12166;1.049473;3.514196;1.583653;0.3711153;2.854766;1.636287;0.05575544;2.484882;1.058615;0.1257935;1.330467;0.1623566;0;0;0;0.05575544;2.484882;1.058615;0.1257935;1.330467;0.1623566;0;0;0
1665250.3608;NotLabelled;16384;0.7077589;0.3545706;0.5775623;0.199446;3;4;-1;2774;-1070;2699;65536;0.6205651;0.5512465;-0.4404432;-0.3421052;-1;-4;2;3651;-1544;-601;8192;0.5152354;-0.777149;-0.3434903;-0.1121884;1;-1;1;1582;3689;-903;32768;0.5443213;-0.7408237;0.3628809;-0.1523546;-2;-1;0;2953;2863;500;256;0.09279778;-0.2174515;-0.6980417;-0.6759003;-3;3;0;691;4060;-79;128;0.06371191;0.101108;0.6052631;0.7870035;6;0;1;-909;3899;1160;4;0.6556749;-0.2451524;0.3919668;0.5969529;0;-1;1;2345;3248;562;16;0.7089343;-0.6786703;-0.0734072;-0.1772853;0;2;1;735;4072;-8;2;0.4584487;-0.6074556;-0.4958449;-0.4182825;1;0;1;945;4026;-367;8;0.4487534;-0.8822171;0.08033241;0.1177285;0;-3;0;167;3339;2435;0.3680084;2.52681;1.067122;0.3739938;3.072228;1.077346;0.3792553;3.551688;1.084311;0.5091837;4.273827;1.09416;0.3124155;4.641102;1.060405;-0.04847449;4.56271;1.121661;-0.8160651;4.816838;0.6693859;-0.02512786;5.177626;1.046279;0.8245369;4.548963;1.060404;1.083913;4.358974;1.12166;1.0511;3.514498;1.584322;0.3738533;2.853969;1.637492;0.05575544;2.484882;1.058615;0.1257935;1.330467;0.1623566;0;0;0;0.05575544;2.484882;1.058615;0.1257935;1.330467;0.1623566;0;0;0
1665271.3532;NotLabelled;16384;0.7073197;0.3531856;0.5789474;0.199446;3;2;-3;2772;-1092;2749;65536;0.6195797;0.5512465;-0.4418283;-0.3421052;0;-3;2;3731;-1562;-669;8192;0.5152354;-0.7777598;-0.3421052;-0.1121884;1;-1;1;1748;3799;-897;32768;0.5429363;-0.7418394;0.3628809;-0.1523546;-3;1;0;2851;2965;648;256;0.09418282;-0.2174515;-0.6978562;-0.6759003;-3;2;0;675;4010;-107;128;0.06371191;0.1024931;0.6052631;0.7868243;4;-1;1;-999;3965;1100;4;0.6565009;-0.2451524;0.3905817;0.5969529;0;-1;1;2395;3306;672;16;0.7085865;-0.6786703;-0.0734072;-0.1786704;0;0;1;763;4028;-32;2;0.4584487;-0.6074556;-0.4958449;-0.4182825;0;-1;0;981;4004;-305;8;0.4487534;-0.8820312;0.08033241;0.1191136;1;-3;0;75;3231;2497;0.3718291;2.527555;1.065415;0.3778152;3.073033;1.071703;0.383077;3.552531;1.075207;0.513797;4.27457;1.081201;0.3173499;4.641885;1.046042;-0.04349267;4.564186;1.108451;-0.8160186;4.818459;0.6647403;-0.02367985;5.181201;1.036781;0.8293715;4.549195;1.045413;1.088674;4.359232;1.107061;1.061056;3.511436;1.563958;0.3830089;2.852005;1.620449;0.05957547;2.485568;1.057236;0.1267152;1.330467;0.1616391;0;0;0;0.05957547;2.485568;1.057236;0.1267152;1.330467;0.1616391;0;0;0
1665291.3722;NotLabelled;16384;0.7073197;0.3531856;0.5789474;0.199446;2;1;-1;2850;-1064;2753;65536;0.6203425;0.5512465;-0.4418283;-0.3407202;0;0;3;3853;-1586;-619;8192;0.5152354;-0.7777598;-0.3421052;-0.1121884;1;0;2;1782;3735;-901;32768;0.5429363;-0.7418394;0.3628809;-0.1523546;-3;2;0;2871;2931;670;256;0.09418282;-0.2174515;-0.6978562;-0.6759003;-3;0;0;689;4052;-93;128;0.06371191;0.1024931;0.6052631;0.7868243;6;-1;1;-1013;3951;1088;4;0.6565009;-0.2451524;0.3905817;0.5969529;-1;-2;0;2411;3250;728;16;0.7089343;-0.6786703;-0.0734072;-0.1772853;0;2;0;417;4086;-92;2;0.4584487;-0.6074556;-0.4958449;-0.4182825;1;0;0;953;3986;-215;8;0.4487534;-0.8820312;0.08033241;0.1191136;1;-2;0;65;3265;2533;0.3678804;2.525366;1.068848;0.3738664;3.070843;1.075194;0.3791283;3.550341;1.07875;0.508408;4.272637;1.084902;0.3112755;4.639561;1.049502;-0.04948846;4.561147;1.111468;-0.8193296;4.809562;0.659844;-0.02845919;5.170377;1.036849;0.8234804;4.547888;1.049501;1.083084;4.35844;1.111467;1.050081;3.513661;1.573564;0.3712182;2.85513;1.630749;0.05562672;2.483379;1.060664;0.1285425;1.330106;0.1631664;0;0;0;0.05562672;2.483379;1.060664;0.1285425;1.330106;0.1631664;0;0;0
1665312.5527;NotLabelled;16384;0.7080096;0.3518005;0.5789474;0.199446;1;3;-2;2876;-1080;2839;65536;0.6213266;0.5512465;-0.4404432;-0.3407202;-1;-1;3;3879;-1604;-531;8192;0.5152354;-0.777149;-0.3434903;-0.1121884;1;0;4;1670;3705;-855;32768;0.5415512;-0.7435262;0.3614958;-0.1523546;-4;4;0;2957;2897;628;256;0.09418282;-0.2174515;-0.699195;-0.6745152;-3;0;0;623;4106;-99;128;0.06232687;0.1024931;0.6066482;0.785868;7;-1;1;-1015;3949;1086;4;0.6565009;-0.2451524;0.3905817;0.5969529;-1;-2;1;2429;3212;664;16;0.7084417;-0.6786703;-0.07479224;-0.1786704;0;8;1;435;4148;-102;2;0.4584487;-0.6095332;-0.4944598;-0.4168975;1;-2;0;803;4042;-265;8;0.4487534;-0.8817158;0.08171745;0.1204986;1;-5;0;141;3361;2389;0.3655362;2.525727;1.067725;0.3715222;3.071205;1.074071;0.376784;3.550702;1.077626;0.5060638;4.272998;1.083779;0.3089313;4.639923;1.048378;-0.05183271;4.561508;1.110344;-0.8216655;4.809923;0.6587068;-0.03152382;5.172694;1.035363;0.8211362;4.54825;1.048378;1.080739;4.358801;1.110343;1.047728;3.514023;1.57244;0.3688657;2.855492;1.629624;0.0532825;2.48374;1.059541;0.1261982;1.330467;0.1620431;0;0;0;0.0532825;2.48374;1.059541;0.1261982;1.330467;0.1620431;0;0;0
1665333.38;NotLabelled;16384;0.7068748;0.3518005;0.5803324;0.199446;1;4;-1;2838;-1098;2847;65536;0.6213266;0.5512465;-0.4404432;-0.3407202;-3;-2;2;3765;-1618;-439;8192;0.5152354;-0.7773477;-0.3434903;-0.1108033;1;-1;5;1630;3681;-875;32768;0.5415512;-0.7438086;0.3614958;-0.1509695;-5;4;0;2955;2853;620;256;0.09418282;-0.2174515;-0.699195;-0.6745152;-5;0;0;705;4112;-105;128;0.06232687;0.1024931;0.6080332;0.7847969;7;-1;0;-1009;3935;1028;4;0.6570165;-0.2437673;0.3905817;0.5969529;0;0;3;2463;3104;552;16;0.7084091;-0.6772853;-0.07756232;-0.1828255;0;27;6;435;4186;-308;2;0.4598338;-0.608489;-0.4944598;-0.4168975;0;-4;1;855;4038;-381;8;0.4487534;-0.8815863;0.08310249;0.1204986;0;-5;0;135;3355;2483;0.3661021;2.525795;1.067052;0.3720882;3.07129;1.071581;0.3773502;3.550797;1.07354;0.5072516;4.273;1.076905;0.3104094;4.639957;1.040264;-0.05037963;4.562086;1.102764;-0.8195263;4.809134;0.6492116;-0.0289917;5.173828;1.023177;0.8225356;4.547846;1.040263;1.082018;4.358408;1.102764;1.050247;3.513931;1.565499;0.3718756;2.855217;1.626283;0.05384818;2.48378;1.059019;0.1264764;1.330507;0.1614982;0;0;0;0.05384818;2.48378;1.059019;0.1264764;1.330507;0.1614982;0;0;0
1665354.4888;NotLabelled;16384;0.7079514;0.3504155;0.5803324;0.1980609;0;6;-1;2782;-1120;2761;65536;0.6225527;0.5498615;-0.4404432;-0.3407202;-5;-5;2;3787;-1556;-527;8192;0.5138504;-0.7784599;-0.3434903;-0.1094183;3;-2;7;1642;3671;-887;32768;0.5401662;-0.7445329;0.3614958;-0.1523546;-6;4;0;2935;2751;650;256;0.09556787;-0.2188366;-0.6999094;-0.6731302;-7;-3;0;713;4024;-21;128;0.06232687;0.1038781;0.6080332;0.7846147;0;-8;-2;-1003;3787;1176;4;0.6557554;-0.2437673;0.3905817;0.5983379;0;1;4;2395;3066;430;16;0.7083387;-0.6759003;-0.08033241;-0.1869806;2;30;11;793;3932;-370;2;0.4598338;-0.608489;-0.4944598;-0.4168975;0;-2;1;885;4088;-381;8;0.4487534;-0.8815863;0.08310249;0.1204986;1;-4;0;201;3341;2467;0.367741;2.523029;1.074218;0.3737272;3.068537;1.076802;0.3789893;3.548047;1.077052;0.5088908;4.27025;1.080416;0.3120485;4.637209;1.043775;-0.04874068;4.559337;1.106275;-0.8196944;4.805134;0.6551172;-0.02915969;5.169827;1.029083;0.8241748;4.545096;1.043774;1.083658;4.355659;1.106275;1.053447;3.511904;1.570428;0.3764188;2.851951;1.632738;0.05548674;2.480986;1.066347;0.1262571;1.330006;0.1657393;0;0;0;0.05548674;2.480986;1.066347;0.1262571;1.330006;0.1657393;0;0;0
1665376.5492;NotLabelled;16384;0.7067445;0.3490305;0.5831025;0.1966759;-1;9;-1;2718;-1120;2761;65536;0.6245278;0.5484765;-0.4404432;-0.3393352;-7;-6;1;3607;-1426;-585;8192;0.5138504;-0.7784599;-0.3434903;-0.1094183;2;-3;8;1586;3583;-911;32768;0.5387812;-0.7462058;0.3601108;-0.1523546;-6;3;0;2817;2711;650;256;0.09695291;-0.2188366;-0.7010486;-0.6717451;-7;-5;0;679;3884;-69;128;0.06094183;0.1038781;0.6080332;0.7847235;0;-8;-1;-985;3789;1120;4;0.6565784;-0.2437673;0.3891967;0.5983379;5;2;0;2267;3062;498;16;0.7093334;-0.6731302;-0.08171745;-0.1925208;9;25;17;947;3808;10;2;0.4598338;-0.6094356;-0.4944598;-0.4155124;0;-1;2;963;4032;-369;8;0.4487534;-0.8812642;0.08448754;0.1218837;2;-3;-1;183;3305;2415;0.3612477;2.523204;1.077554;0.3672339;3.068712;1.080195;0.372496;3.548222;1.080494;0.5028723;4.270346;1.081977;0.306254;4.637339;1.044499;-0.05455753;4.559863;1.10736;-0.8230522;4.806032;0.6522269;-0.03257716;5.170372;1.026663;0.8183196;4.544892;1.044498;1.077706;4.355443;1.107359;1.045397;3.51359;1.574816;0.3661544;2.855797;1.635852;0.04899335;2.481163;1.069678;0.1253896;1.329499;0.1704047;0;0;0;0.04899335;2.481163;1.069678;0.1253896;1.329499;0.1704047;0;0;0
1665397.62;NotLabelled;16384;0.7071285;0.3490305;0.5831025;0.1952908;0;9;-2;2688;-1144;2719;65536;0.6257415;0.5470914;-0.4404432;-0.3393352;-6;-6;1;3649;-1410;-743;8192;0.5124654;-0.7795656;-0.3434903;-0.1080332;2;-4;8;1602;3589;-925;32768;0.5373961;-0.747485;0.3601108;-0.1509695;-7;4;0;2799;2655;616;256;0.09695291;-0.2202216;-0.7006148;-0.6717451;-8;-5;1;665;3928;-7;128;0.06094183;0.1052632;0.6080332;0.7845389;0;-4;0;-1011;3881;1018;4;0.6565784;-0.2437673;0.3891967;0.5983379;3;0;-4;1995;3094;922;16;0.7089601;-0.6717451;-0.08310249;-0.1980609;13;29;21;871;3792;308;2;0.4584487;-0.6104782;-0.4944598;-0.4155124;0;0;2;917;3958;-359;8;0.4487534;-0.8812642;0.08448754;0.1218837;1;-2;0;185;3243;2367;0.3576221;2.5198;1.090769;0.3636083;3.065307;1.093534;0.3688703;3.544818;1.093943;0.4984416;4.267087;1.092647;0.3013887;4.633719;1.053935;-0.05929419;4.556075;1.117326;-0.8297023;4.800125;0.6642919;-0.03920609;5.16604;1.037144;0.8135571;4.541842;1.053934;1.073197;4.352918;1.117325;1.040123;3.511065;1.584729;0.3612347;2.853119;1.648009;0.04536778;2.47776;1.082883;0.1261814;1.327934;0.1816464;0;0;0;0.04536778;2.47776;1.082883;0.1261814;1.327934;0.1816464;0;0;0
1665418.376;NotLabelled;16384;0.7070485;0.3476454;0.5844875;0.1939058;0;8;-3;2656;-1046;2637;65536;0.6269498;0.5457063;-0.4404432;-0.3393352;-6;-5;3;3659;-1480;-717;8192;0.5124654;-0.7795656;-0.3434903;-0.1080332;2;-4;8;1596;3585;-909;32768;0.5373961;-0.747485;0.3601108;-0.1509695;-8;3;0;2943;2787;534;256;0.09833795;-0.2202216;-0.7017474;-0.6703601;-7;-4;1;691;3960;21;128;0.05955679;0.1066482;0.6080332;0.7844582;2;-2;0;-951;3895;1012;4;0.6565009;-0.2451524;0.3905817;0.5969529;-1;1;-8;2197;3198;1086;16;0.7100091;-0.6689751;-0.08310249;-0.2036011;16;23;18;875;3932;178;2;0.4598338;-0.6094356;-0.4944598;-0.4155124;0;-5;1;667;3962;-405;8;0.4487534;-0.8812642;0.08448754;0.1218837;0;0;0;167;3367;2321;0.3594046;2.518436;1.09778;0.3653908;3.063943;1.100603;0.3706528;3.543454;1.101061;0.501509;4.265492;1.100672;0.3051171;4.632521;1.062363;-0.05571717;4.555442;1.125581;-0.8247033;4.801237;0.6710768;-0.03364432;5.166771;1.043107;0.8171211;4.539734;1.062362;1.076411;4.35027;1.12558;1.041701;3.510334;1.5963;0.3633698;2.852099;1.662478;0.04715037;2.476398;1.08989;0.1299141;1.326572;0.1888305;0;0;0;0.04715037;2.476398;1.08989;0.1299141;1.326572;0.1888305;0;0;0
1665439.3715;NotLabelled;16384;0.7070485;0.3476454;0.5844875;0.1939058;1;7;-3;2660;-1020;2649;65536;0.6269498;0.5457063;-0.4404432;-0.3393352;-5;-4;3;3627;-1538;-821;8192;0.5110803;-0.7806647;-0.3434903;-0.1066482;2;-5;7;1652;3679;-943;32768;0.536011;-0.7484788;0.3601108;-0.1509695;-7;1;-1;2921;2877;508;256;0.09833795;-0.2216066;-0.7026325;-0.6689751;-6;-3;0;771;3988;75;128;0.05955679;0.1066482;0.6080332;0.7844582;5;-4;0;-923;3843;1052;4;0.6568413;-0.2465374;0.3933518;0.5941828;-4;3;-6;2713;3392;936;16;0.7102644;-0.666205;-0.08587258;-0.2105263;10;9;4;751;4064;324;2;0.4598338;-0.6105568;-0.4930748;-0.4155124;0;-4;1;607;3962;-495;8;0.4487534;-0.8812642;0.08448754;0.1218837;-1;3;0;153;3393;2359;0.3639053;2.519722;1.106377;0.3698916;3.065228;1.109376;0.3751536;3.544738;1.109989;0.505209;4.266915;1.106828;0.3083848;4.633582;1.067287;-0.0523214;4.556339;1.131035;-0.8213785;4.801265;0.6761811;-0.02956918;5.166405;1.047001;0.8204916;4.54136;1.067286;1.080033;4.35242;1.131033;1.044534;3.512484;1.601694;0.3660938;2.854249;1.666746;0.05165112;2.477687;1.098472;0.1326212;1.324413;0.2016645;0;0;0;0.05165112;2.477687;1.098472;0.1326212;1.324413;0.2016645;0;0;0
1665459.5567;NotLabelled;16384;0.7069603;0.3462604;0.5858725;0.1925208;1;5;-4;2608;-1046;2671;65536;0.6298666;0.5443213;-0.4390582;-0.3379501;-3;-4;5;3621;-1426;-779;8192;0.5110803;-0.7810382;-0.3434903;-0.1038781;2;-4;6;1800;3569;-913;32768;0.534626;-0.7497464;0.3601108;-0.1495845;-4;2;0;2773;2855;584;256;0.09972299;-0.2216066;-0.7024373;-0.6689751;-6;-1;0;739;4044;39;128;0.05817174;0.1066482;0.6094183;0.7834868;8;-7;-1;-943;3901;1092;4;0.6568413;-0.2465374;0.3933518;0.5941828;-4;0;-1;2755;3416;834;16;0.7119693;-0.66482;-0.08587258;-0.2091413;5;-14;-4;1055;4078;40;2;0.4598338;-0.6105568;-0.4930748;-0.4155124;0;-3;1;683;4050;-525;8;0.4487534;-0.8813959;0.08310249;0.1218837;-1;1;0;291;3411;2325;0.3714529;2.522562;1.111575;0.3774391;3.068067;1.114574;0.3827012;3.547577;1.115187;0.5146689;4.269396;1.11017;0.3187993;4.636485;1.069805;-0.04208133;4.560358;1.133906;-0.8094577;4.805283;0.6762228;-0.0183326;5.170425;1.0485;0.8306596;4.542906;1.069804;1.089729;4.353438;1.133905;1.051877;3.515429;1.607808;0.3726656;2.858146;1.67443;0.05919871;2.480525;1.10367;0.1333839;1.322695;0.2121632;0;0;0;0.05919871;2.480525;1.10367;0.1333839;1.322695;0.2121632;0;0;0
1665481.5495;NotLabelled;16384;0.706488;0.3448753;0.5872576;0.1925208;2;3;-4;2738;-1032;2777;65536;0.6298666;0.5443213;-0.4390582;-0.3379501;-2;-3;5;3671;-1644;-759;8192;0.5096953;-0.7819427;-0.3434903;-0.1038781;1;-2;6;1816;3573;-917;32768;0.534626;-0.7497464;0.3601108;-0.1495845;-4;2;0;2769;2867;666;256;0.101108;-0.2216066;-0.7035561;-0.66759;-4;0;0;645;3998;-7;128;0.0567867;0.1094183;0.6108033;0.7821267;7;-8;-2;-965;3871;1040;4;0.6573595;-0.2451524;0.3933518;0.5941828;-3;-4;2;2479;3310;754;16;0.7129426;-0.66482;-0.08448754;-0.2063712;3;-23;-6;893;4048;-346;2;0.4598338;-0.6116727;-0.4916897;-0.4155124;0;-4;1;685;3998;-545;8;0.4487534;-0.8813959;0.08310249;0.1218837;-1;4;0;85;3307;2345;0.3637817;2.522671;1.114362;0.3697681;3.068184;1.115529;0.3750301;3.547693;1.114532;0.5055746;4.269771;1.109516;0.3089817;4.636472;1.069152;-0.05174816;4.559633;1.133253;-0.8196403;4.803693;0.6759722;-0.02834094;5.17224;1.044503;0.8210255;4.543902;1.069151;1.080468;4.354946;1.133251;1.045453;3.518406;1.60996;0.3667995;2.860859;1.67959;0.05152717;2.480608;1.10661;0.1274816;1.322778;0.2152525;0;0;0;0.05152717;2.480608;1.10661;0.1274816;1.322778;0.2152525;0;0;0
1665503.3588;NotLabelled;16384;0.7067839;0.3434903;0.5872576;0.1939058;2;3;-4;2774;-1036;2813;65536;0.6315699;0.5443213;-0.4376731;-0.3365651;-1;-3;4;3669;-1722;-703;8192;0.5096953;-0.7821255;-0.3434903;-0.1024931;1;-1;6;1792;3609;-907;32768;0.534626;-0.7497464;0.3601108;-0.1495845;-4;0;0;2873;2725;766;256;0.101108;-0.2216066;-0.7035561;-0.66759;-4;-2;0;629;3964;-11;128;0.0567867;0.1108033;0.6108033;0.7819318;7;-7;-2;-1013;3827;1078;4;0.6578743;-0.2437673;0.3933518;0.5941828;0;-10;2;2441;3082;668;16;0.7139013;-0.66482;-0.08310249;-0.2036011;1;-18;-6;307;3822;-362;2;0.4612188;-0.610629;-0.4916897;-0.4155124;-2;-10;0;821;3964;-505;8;0.4487534;-0.8817158;0.08171745;0.1204986;-2;6;-1;221;3259;2485;0.3617851;2.520737;1.116843;0.3677714;3.066251;1.116283;0.3730334;3.545755;1.113768;0.5027791;4.267951;1.105924;0.3057355;4.634285;1.06444;-0.05483282;4.55729;1.129258;-0.8232031;4.800182;0.6721592;-0.03232315;5.168729;1.04159;0.8178803;4.542277;1.064166;1.077606;4.353842;1.128653;1.03957;3.517001;1.6046;0.3608388;2.859453;1.673459;0.04953027;2.47865;1.109235;0.1246929;1.32311;0.214843;0;0;0;0.04953027;2.47865;1.109235;0.1246929;1.32311;0.214843;0;0;0
1665523.6224;NotLabelled;16384;0.7067839;0.3434903;0.5872576;0.1939058;3;4;-3;2812;-1022;2831;65536;0.6315699;0.5443213;-0.4376731;-0.3365651;-2;-3;2;3719;-1764;-691;8192;0.5096953;-0.7815158;-0.3448753;-0.1024931;1;-1;7;1724;3523;-935;32768;0.533241;-0.7507321;0.3601108;-0.1495845;-5;0;1;3033;2687;728;256;0.101108;-0.2216066;-0.7048678;-0.666205;-5;-5;1;745;3966;53;128;0.05540166;0.1121884;0.6121883;0.7807496;8;-5;-2;-1113;3829;1046;4;0.6563023;-0.2423823;0.3947368;0.5955678;0;-13;1;2495;2814;604;16;0.7146855;-0.66482;-0.08310249;-0.200831;0;-2;-5;325;4060;-558;2;0.4612188;-0.6136141;-0.4903047;-0.4127424;-2;-4;2;1097;4048;-537;8;0.4487534;-0.881843;0.08033241;0.1204986;0;7;-2;71;3337;2493;0.360449;2.518765;1.119428;0.3664353;3.064279;1.118924;0.3716972;3.543784;1.116459;0.5014471;4.265979;1.108687;0.3044264;4.632313;1.067094;-0.05617744;4.555318;1.131714;-0.8246695;4.793587;0.6723912;-0.03446358;5.165926;1.039454;0.8165712;4.540306;1.067102;1.076262;4.35187;1.131732;1.040107;3.517327;1.611842;0.3613372;2.859779;1.680326;0.04819417;2.476679;1.111815;0.1220449;1.323437;0.2143534;0;0;0;0.04819417;2.476679;1.111815;0.1220449;1.323437;0.2143534;0;0;0
1665544.3835;NotLabelled;16384;0.7063033;0.3421052;0.5886427;0.1939058;2;4;-2;2910;-1032;2927;65536;0.6327609;0.5429363;-0.4376731;-0.3365651;-3;-4;2;3697;-1784;-607;8192;0.5083103;-0.7825975;-0.3448753;-0.101108;1;-3;7;1658;3511;-929;32768;0.5318559;-0.7514371;0.3601108;-0.1509695;-6;-1;2;3055;2589;660;256;0.1024931;-0.2229917;-0.7055383;-0.66482;-6;-7;2;803;3908;61;128;0.05540166;0.1135734;0.6121883;0.7805493;8;-3;-2;-1181;3919;980;4;0.6551232;-0.2409972;0.3933518;0.5983379;3;-11;2;2663;2810;526;16;0.714523;-0.66482;-0.08448754;-0.200831;0;9;-4;381;4064;-442;2;0.4612188;-0.6136141;-0.4903047;-0.4127424;-1;-3;2;1007;4002;-391;8;0.4487534;-0.8819681;0.07894737;0.1204986;0;8;-1;131;3303;2409;0.3588068;2.519801;1.116893;0.3647931;3.065311;1.1146;0.370055;3.544804;1.110561;0.5004308;4.266852;1.10003;0.3037021;4.633203;1.057218;-0.0569247;4.556763;1.122367;-0.825578;4.795078;0.6633389;-0.03524911;5.167418;1.030137;0.815766;4.540746;1.057217;1.075336;4.352323;1.122366;1.040669;3.518051;1.603057;0.3612711;2.861476;1.674576;0.04655173;2.47769;1.10943;0.1175187;1.324221;0.2120275;0;0;0;0.04655173;2.47769;1.10943;0.1175187;1.324221;0.2120275;0;0;0
1665564.7598;NotLabelled;16384;0.7066821;0.3421052;0.5886427;0.1925208;0;5;-1;2830;-1064;2999;65536;0.6327609;0.5429363;-0.4376731;-0.3365651;-6;-5;0;3767;-1810;-597;8192;0.5083103;-0.7827752;-0.3448753;-0.09972299;1;-5;7;1574;3495;-987;32768;0.5318559;-0.7507718;0.3614958;-0.1509695;-7;-2;4;3045;2509;662;256;0.1024931;-0.2243767;-0.705099;-0.66482;-6;-7;3;757;4024;39;128;0.05540166;0.1135734;0.6135734;0.779461;6;1;-1;-1147;4003;920;4;0.6534153;-0.2409972;0.3919668;0.601108;7;3;1;2463;3126;588;16;0.7143579;-0.66482;-0.08587258;-0.200831;2;-12;-5;897;3922;-346;2;0.4612188;-0.6145434;-0.4903047;-0.4113573;-1;-2;0;1023;4028;-293;8;0.4487534;-0.882091;0.07756232;0.1204986;-1;7;-2;113;3259;2263;0.3469965;2.517541;1.118343;0.3529829;3.063051;1.116106;0.3582446;3.542545;1.112116;0.4891216;4.264474;1.099753;0.2926306;4.630856;1.056127;-0.06802058;4.55483;1.121625;-0.8361898;4.790528;0.66044;-0.0458993;5.162436;1.02776;0.8046296;4.53804;1.056126;1.064096;4.349596;1.121624;1.026994;3.517284;1.605519;0.3453305;2.862913;1.675678;0.03474158;2.475431;1.110875;0.1146362;1.324679;0.2107394;0;0;0;0.03474158;2.475431;1.110875;0.1146362;1.324679;0.2107394;0;0;0
1665585.4087;NotLabelled;16384;0.706196;0.3407202;0.5900277;0.1925208;-2;7;-1;2920;-1096;2967;65536;0.6349007;0.5415512;-0.4362881;-0.3365651;-7;-5;0;3771;-1782;-639;8192;0.5069252;-0.7844558;-0.3434903;-0.09833795;4;-7;5;1576;3487;-1177;32768;0.5290859;-0.7517803;0.3628809;-0.1523546;-6;1;4;3089;2497;786;256;0.1038781;-0.2257618;-0.707058;-0.6620498;-7;-5;5;793;3942;113;128;0.05817174;0.1135734;0.6149584;0.7781667;6;9;0;-995;3909;938;4;0.6550031;-0.2423823;0.3905817;0.599723;4;6;1;2481;3252;642;16;0.7149109;-0.66482;-0.08448754;-0.199446;0;-6;-3;729;4100;32;2;0.4612188;-0.6145434;-0.4903047;-0.4113573;-3;0;-1;1009;4034;-287;8;0.4487534;-0.8823997;0.07617728;0.1191136;-2;7;0;183;3227;2407;0.3359301;2.517569;1.116373;0.3419162;3.063067;1.112179;0.3471779;3.542543;1.106469;0.4793398;4.264252;1.094945;0.2834866;4.631039;1.051849;-0.0772742;4.555576;1.117394;-0.8435825;4.794681;0.654869;-0.05385822;5.166588;1.023404;0.7953191;4.537308;1.051531;1.054474;4.34832;1.116694;1.017455;3.515021;1.598894;0.3346084;2.861717;1.667462;0.02367482;2.475433;1.109069;0.1122519;1.325133;0.2091672;0;0;0;0.02367482;2.475433;1.109069;0.1122519;1.325133;0.2091672;0;0;0
1665606.3558;NotLabelled;16384;0.7069454;0.3407202;0.5900277;0.1897507;-3;10;1;2812;-1100;2837;65536;0.6363026;0.5387812;-0.4376731;-0.3365651;-8;-6;-2;3653;-1570;-763;8192;0.5069252;-0.7852331;-0.3421052;-0.09695291;5;-8;4;1672;3481;-1209;32768;0.5277008;-0.7527532;0.3628809;-0.1523546;-6;3;4;2967;2629;782;256;0.1038781;-0.2271468;-0.7079094;-0.6606648;-6;-3;5;865;3928;61;128;0.05817174;0.1121884;0.6163435;0.7772712;3;4;-1;-959;3895;1044;4;0.655827;-0.2423823;0.3891967;0.599723;4;4;3;2539;3226;710;16;0.7151309;-0.66482;-0.08587258;-0.1980609;-1;2;-4;313;3894;186;2;0.4626039;-0.612392;-0.4916897;-0.4113573;-4;5;-3;927;3996;-335;8;0.4487534;-0.8825182;0.07479224;0.1191136;-1;8;-1;147;3321;2433;0.3285258;2.51728;1.116914;0.3345117;3.062757;1.110538;0.3397731;3.542207;1.102911;0.4730797;4.263619;1.08691;0.2777895;4.630447;1.041671;-0.08305749;4.555964;1.107858;-0.8491361;4.790796;0.6427708;-0.05930117;5.164122;1.00963;0.7894715;4.535899;1.041669;1.048358;4.3469;1.107856;1.007855;3.516985;1.595581;0.3210043;2.867959;1.664788;0.01627022;2.475114;1.109792;0.1111514;1.325058;0.2102211;0;0;0;0.01627022;2.475114;1.109792;0.1111514;1.325058;0.2102211;0;0;0
1665627.5363;NotLabelled;16384;0.7068246;0.3393352;0.5914127;0.1883656;-4;9;2;2740;-1100;2793;65536;0.6363026;0.5387812;-0.4376731;-0.3365651;-7;-6;-3;3639;-1522;-817;8192;0.5055401;-0.7867268;-0.3407202;-0.09695291;6;-8;3;1758;3501;-1239;32768;0.5263157;-0.753441;0.3628809;-0.1537396;-5;7;3;2813;2713;820;256;0.1038781;-0.2285319;-0.7074634;-0.6606648;-5;0;5;849;3952;129;128;0.05955679;0.1121884;0.6163435;0.7771663;1;0;-2;-993;3913;1036;4;0.655827;-0.2423823;0.3891967;0.599723;2;0;4;2655;3228;670;16;0.7134551;-0.666205;-0.08587258;-0.199446;-5;9;-3;1109;3988;70;2;0.4626039;-0.6114594;-0.4916897;-0.4127424;-5;6;-2;929;3956;-325;8;0.4487534;-0.8826345;0.0734072;0.1191136;-2;6;-1;123;3249;2539;0.319914;2.516276;1.115873;0.3258997;3.061726;1.107478;0.3311606;3.541144;1.098076;0.4663797;4.262156;1.08018;0.2720219;4.629395;1.034267;-0.08894953;4.556039;1.101031;-0.8534122;4.796093;0.6359506;-0.06152871;5.166633;1.001215;0.7834488;4.533477;1.033931;1.041902;4.343945;1.10029;1.000876;3.51265;1.585616;0.3132821;2.864625;1.656789;0.007658094;2.474084;1.10892;0.106564;1.325876;0.2074254;0;0;0;0.007658094;2.474084;1.10892;0.106564;1.325876;0.2074254;0;0;0
1665648.424;NotLabelled;16384;0.7071922;0.3393352;0.5914127;0.1869806;-2;9;3;2668;-1178;2773;65536;0.6365197;0.5373961;-0.4390582;-0.3365651;-6;-6;-3;3625;-1482;-859;8192;0.5041551;-0.7876151;-0.3407202;-0.09695291;7;-6;4;1916;3495;-1143;32768;0.5249307;-0.7544066;0.3628809;-0.1537396;-4;8;2;2855;2789;866;256;0.1024931;-0.2285319;-0.7089559;-0.6592798;-5;1;5;783;3938;133;128;0.05955679;0.1121884;0.6163435;0.7771663;0;0;-1;-1027;3893;992;4;0.6553794;-0.2423823;0.3878116;0.601108;2;3;3;2385;3124;720;16;0.7134551;-0.666205;-0.08587258;-0.199446;-4;-6;-5;969;3990;-240;2;0.4626039;-0.610343;-0.4930748;-0.4127424;-4;3;-1;901;3986;-249;8;0.4473684;-0.8833373;0.0734072;0.1191136;-2;0;-2;75;3249;2513;0.322274;2.516258;1.113116;0.3282596;3.061706;1.104602;0.3335205;3.541122;1.095096;0.4700444;4.261914;1.078225;0.2763846;4.629558;1.0326;-0.08477688;4.556763;1.098952;-0.8493544;4.794236;0.6327366;-0.05850172;5.164776;1.000227;0.787639;4.532724;1.032599;1.045694;4.342649;1.09895;1.00038;3.514071;1.588525;0.3106026;2.868289;1.658951;0.01001808;2.474066;1.106172;0.1114596;1.325857;0.2049589;0;0;0;0.01001808;2.474066;1.106172;0.1114596;1.325857;0.2049589;0;0;0
1665669.343;NotLabelled;16384;0.707557;0.3393352;0.5914127;0.1855956;-1;8;4;2688;-1092;2721;65536;0.6376865;0.536011;-0.4390582;-0.3365651;-4;-6;-1;3629;-1454;-857;8192;0.5027701;-0.788669;-0.3407202;-0.09556787;8;-3;4;1956;3601;-1125;32768;0.5249307;-0.754788;0.3614958;-0.1551246;-3;9;2;2875;2903;760;256;0.1024931;-0.2299169;-0.7097943;-0.6578947;-5;2;5;783;3946;135;128;0.05955679;0.1121884;0.6163435;0.7771663;0;-1;-1;-1041;3893;978;4;0.6574631;-0.2423823;0.3864266;0.599723;2;0;4;2395;3092;564;16;0.712761;-0.66759;-0.08725762;-0.1966759;-4;-3;-5;451;4052;-316;2;0.4639889;-0.6092908;-0.4930748;-0.4127424;-4;2;0;833;4018;-357;8;0.4473684;-0.8833373;0.0734072;0.1191136;-2;-1;-2;171;3273;2423;0.3197323;2.515082;1.114007;0.3257178;3.06053;1.105493;0.3309788;3.539946;1.095987;0.469541;4.260279;1.076375;0.276896;4.628303;1.029535;-0.08442429;4.556781;1.096405;-0.8507749;4.796003;0.6340102;-0.0579657;5.164211;0.9996246;0.7878729;4.530015;1.029534;1.045433;4.339448;1.096403;1.000249;3.51212;1.588095;0.309981;2.867355;1.662897;0.007476389;2.472889;1.107063;0.1119383;1.325856;0.2046978;0;0;0;0.007476389;2.472889;1.107063;0.1119383;1.325856;0.2046978;0;0;0
1665690.3648;NotLabelled;16384;0.7079189;0.3393352;0.5914127;0.1842105;-1;8;4;2574;-1106;2729;65536;0.637894;0.534626;-0.4404432;-0.3365651;-2;-6;-1;3643;-1374;-851;8192;0.5;-0.7904281;-0.3407202;-0.09556787;7;0;4;2030;3593;-1027;32768;0.5235457;-0.7561249;0.3601108;-0.1565097;0;7;2;2861;2913;800;256;0.1024931;-0.2299169;-0.7110755;-0.6565097;-5;0;3;781;3928;151;128;0.06094183;0.1121884;0.6163435;0.7770589;2;0;0;-995;3853;916;4;0.6570107;-0.2423823;0.3850415;0.601108;3;-2;5;2511;3054;488;16;0.7131417;-0.66759;-0.08725762;-0.1952908;-4;-4;-4;565;3906;-164;2;0.4639889;-0.6081674;-0.4944598;-0.4127424;-5;-1;0;827;4010;-427;8;0.4459834;-0.8838497;0.0734072;0.1204986;-3;-3;-3;155;3287;2349;0.3134629;2.514063;1.109049;0.3194486;3.059511;1.100535;0.3247095;3.538927;1.09103;0.4651937;4.258837;1.069628;0.2735144;4.627263;1.021996;-0.08796504;4.556871;1.089203;-0.8519671;4.79784;0.623839;-0.05846259;5.165562;0.9884315;0.7842259;4.527605;1.021995;1.041305;4.336509;1.089201;0.9935078;3.511185;1.584004;0.3028392;2.866585;1.656499;0.001206994;2.47187;1.102105;0.1081395;1.327363;0.1968283;0;0;0;0.001206994;2.47187;1.102105;0.1081395;1.327363;0.1968283;0;0;0
1665711.364;NotLabelled;16384;0.7092955;0.3379501;0.5914127;0.1814404;1;7;7;2674;-1128;2729;65536;0.638824;0.533241;-0.4418283;-0.33518;1;-8;-2;3713;-1480;-841;8192;0.4986149;-0.7908708;-0.3421052;-0.09418282;6;2;5;1998;3521;-1103;32768;0.5235457;-0.7564952;0.3587258;-0.1578947;0;8;1;2755;2807;806;256;0.1024931;-0.2313019;-0.7106262;-0.6565097;-5;0;3;805;3888;139;128;0.06094183;0.1121884;0.6163435;0.7770589;4;1;0;-881;3871;886;4;0.6557408;-0.2423823;0.3850415;0.602493;6;-3;5;2429;3132;584;16;0.7120111;-0.6689751;-0.08587258;-0.1952908;-4;-9;-4;951;4082;110;2;0.4639889;-0.6091051;-0.4944598;-0.4113573;-4;0;1;725;3954;-375;8;0.4459834;-0.8836598;0.0734072;0.1218837;-4;-4;-3;93;3239;2353;0.3064622;2.513232;1.108749;0.3124478;3.058678;1.100114;0.3177088;3.538092;1.0905;0.4588161;4.257793;1.066367;0.2674281;4.626214;1.017536;-0.09406275;4.556391;1.085271;-0.8579974;4.799209;0.6207587;-0.06326732;5.164582;0.985042;0.7780507;4.526102;1.017513;1.035011;4.335024;1.085222;0.9832457;3.512124;1.583652;0.2916735;2.868717;1.658106;-0.005793691;2.471038;1.101816;0.1059194;1.327722;0.1956114;0;0;0;-0.005793691;2.471038;1.101816;0.1059194;1.327722;0.1956114;0;0;0
1665732.5468;NotLabelled;16384;0.710448;0.3379501;0.5900277;0.1814404;3;6;10;2720;-1076;2741;65536;0.6390193;0.5318559;-0.4432133;-0.33518;5;-9;-2;3617;-1578;-843;8192;0.4972299;-0.7911425;-0.3434903;-0.09418282;5;4;5;1808;3585;-1081;32768;0.5235457;-0.7571504;0.3573407;-0.1578947;0;10;0;2789;2757;746;256;0.1024931;-0.2313019;-0.7119033;-0.6551247;-4;-1;2;823;3966;201;128;0.06094183;0.1121884;0.6177285;0.7759584;6;0;0;-855;3881;884;4;0.6570618;-0.2409972;0.3836565;0.602493;2;-5;4;2441;3318;656;16;0.7112522;-0.6703601;-0.08448754;-0.1939058;-6;-16;-4;1159;3982;96;2;0.4653739;-0.6080475;-0.4944598;-0.4113573;-3;-1;0;739;3912;-311;8;0.4445983;-0.8842414;0.07479224;0.1218837;-4;-7;-3;207;3219;2421;0.3071229;2.513787;1.105443;0.3131084;3.059233;1.096807;0.3183694;3.538648;1.087193;0.4607759;4.258123;1.064012;0.2700638;4.626949;1.015593;-0.09157151;4.557689;1.083135;-0.8518792;4.802482;0.6137334;-0.05757818;5.167397;0.9794101;0.7805059;4.525921;1.015591;1.037103;4.334295;1.083133;0.983691;3.513858;1.585433;0.2916936;2.870615;1.657301;-0.005133092;2.471593;1.098509;0.1107197;1.327616;0.1936586;0;0;0;-0.005133092;2.471593;1.098509;0.1107197;1.327616;0.1936586;0;0;0
1665753.3552;NotLabelled;16384;0.7126035;0.3365651;0.5886427;0.1800554;6;7;12;2704;-1006;2753;65536;0.638782;0.5318559;-0.4445983;-0.333795;8;-11;-2;3629;-1598;-817;8192;0.4972299;-0.7911425;-0.3434903;-0.09418282;4;2;4;1812;3599;-1011;32768;0.5235457;-0.7578025;0.3559557;-0.1578947;-1;9;0;2891;2777;718;256;0.1024931;-0.2313019;-0.7119033;-0.6551247;-3;0;1;813;3938;201;128;0.06094183;0.1121884;0.6177285;0.7759584;7;0;0;-873;3881;870;4;0.6570618;-0.2409972;0.3836565;0.602493;-1;5;5;2457;3254;688;16;0.7121646;-0.6703601;-0.08310249;-0.1911357;-5;-23;-6;931;3984;60;2;0.4653739;-0.6080475;-0.4944598;-0.4113573;-2;-2;0;821;3946;-219;8;0.4432133;-0.8845505;0.07479224;0.1246537;-4;-6;-2;-5;3227;2523;0.3092376;2.509887;1.106978;0.3152229;3.055298;1.096374;0.3204834;3.534675;1.085031;0.4635136;4.253934;1.059127;0.2730952;4.622751;1.009502;-0.08855286;4.55406;1.077556;-0.8481456;4.80004;0.6076189;-0.05264935;5.162597;0.973043;0.7834469;4.521267;1.009501;1.039922;4.329659;1.077555;0.9868691;3.510829;1.582507;0.2959439;2.866521;1.655152;-0.003018528;2.467667;1.100209;0.1137206;1.327859;0.1902275;0;0;0;-0.003018528;2.467667;1.100209;0.1137206;1.327859;0.1902275;0;0;0
1665773.3744;NotLabelled;16384;0.7140934;0.3365651;0.5872576;0.1786704;7;6;14;2696;-1122;2851;65536;0.6385387;0.5318559;-0.4459834;-0.33241;9;-11;-4;3581;-1576;-851;8192;0.4958449;-0.7914092;-0.3448753;-0.09418282;3;1;4;1764;3593;-1041;32768;0.5235457;-0.7584516;0.3545706;-0.1578947;-1;7;-1;2795;2771;766;256;0.1024931;-0.2313019;-0.7131754;-0.6537396;-4;0;0;825;3946;245;128;0.05955679;0.1121884;0.6191136;0.7749614;6;0;1;-871;3859;958;4;0.6591343;-0.2409972;0.3822715;0.601108;-5;1;5;2377;3258;822;16;0.7118495;-0.6731302;-0.07894737;-0.1842105;-4;-26;-11;545;4132;48;2;0.466759;-0.6079212;-0.4944598;-0.4099723;-3;0;1;921;3972;-185;8;0.4432133;-0.8844323;0.07617728;0.1246537;-4;-3;-1;-69;3185;2489;0.3066833;2.51019;1.106365;0.3126684;3.055602;1.095762;0.317929;3.534978;1.084418;0.4609592;4.254238;1.058515;0.2705407;4.623055;1.00889;-0.09110722;4.554363;1.076944;-0.8478112;4.80184;0.6031473;-0.0533087;5.164444;0.9706803;0.7808925;4.52157;1.008888;1.037367;4.329963;1.076943;0.9843148;3.511132;1.581894;0.2944376;2.865763;1.655079;-0.005572885;2.467971;1.099596;0.1111663;1.328162;0.1896152;0;0;0;-0.005572885;2.467971;1.099596;0.1111663;1.328162;0.1896152;0;0;0
1665794.3664;NotLabelled;16384;0.7158803;0.33518;0.5858725;0.1786704;8;5;18;2640;-1056;2869;65536;0.6382893;0.5318559;-0.4473684;-0.3310249;9;-12;-5;3545;-1638;-907;8192;0.4958449;-0.7914092;-0.3448753;-0.09418282;1;2;2;1794;3617;-1003;32768;0.5221606;-0.7597619;0.3531856;-0.1592798;-1;7;-3;2779;2845;716;256;0.1038781;-0.232687;-0.7125242;-0.6537396;-4;0;0;715;3896;159;128;0.05955679;0.1121884;0.6191136;0.7749614;7;-4;0;-839;3879;896;4;0.6596391;-0.2396122;0.3822715;0.601108;-4;-4;4;2383;3206;608;16;0.7116014;-0.6745152;-0.07894737;-0.1800554;-4;-23;-11;473;4014;-28;2;0.466759;-0.6079212;-0.4944598;-0.4099723;-2;0;2;819;3900;-305;8;0.4418283;-0.8849288;0.07617728;0.1260388;-4;-6;-3;41;3227;2553;0.3072094;2.508813;1.100552;0.3131942;3.054185;1.088101;0.3184543;3.53352;1.075135;0.4621045;4.252553;1.046514;0.2719779;4.621356;0.9956865;-0.08968157;4.553236;1.064251;-0.8439118;4.80361;0.5880389;-0.05028498;5.166263;0.9574122;0.7822392;4.519419;0.9956856;1.038593;4.327832;1.06425;0.9844898;3.510611;1.571694;0.2956868;2.864185;1.645656;-0.005047023;2.466571;1.093937;0.1122373;1.329292;0.1808658;0;0;0;-0.005047023;2.466571;1.093937;0.1122373;1.329292;0.1808658;0;0;0
1665815.4672;NotLabelled;16384;0.7208872;0.33241;0.5817174;0.1772853;7;5;16;2432;-994;3017;65536;0.6386574;0.5304709;-0.4515235;-0.3268698;6;-12;-4;3525;-1556;-947;8192;0.4958449;-0.7908041;-0.3462604;-0.09418282;1;2;3;1812;3605;-915;32768;0.5221606;-0.7604042;0.3518005;-0.1592798;-2;7;-3;2787;2859;752;256;0.1052632;-0.2313019;-0.7140397;-0.6523545;-2;-1;0;629;3986;143;128;0.0567867;0.1121884;0.6218836;0.7729487;11;-10;0;-873;4033;944;4;0.6593366;-0.2382271;0.3836565;0.601108;-6;-6;5;2453;3250;516;16;0.7111349;-0.6759003;-0.07756232;-0.1772853;-4;-17;-10;543;3952;52;2;0.466759;-0.6079212;-0.4944598;-0.4099723;-2;-5;3;739;3952;-253;8;0.4404432;-0.8854208;0.07617728;0.1274238;-5;-10;-4;147;3269;2447;0.3006823;2.507816;1.096035;0.306667;3.053188;1.083584;0.311927;3.532524;1.070618;0.455483;4.251613;1.04296;0.2653172;4.620455;0.9925576;-0.0963501;4.552195;1.060942;-0.8463949;4.802304;0.5780268;-0.05533868;5.165008;0.9528241;0.7755926;4.518589;0.9925568;1.031956;4.32695;1.060941;0.9760582;3.509729;1.56819;0.2859951;2.86451;1.640932;-0.01157412;2.465575;1.089421;0.1077589;1.330613;0.1737346;0;0;0;-0.01157412;2.465575;1.089421;0.1077589;1.330613;0.1737346;0;0;0
1665836.3634;NotLabelled;16384;0.7229771;0.3310249;0.5803324;0.1759003;5;6;11;2348;-990;3001;65536;0.6376759;0.5304709;-0.4529086;-0.3268698;3;-11;-2;3615;-1422;-1053;8192;0.4958449;-0.7908041;-0.3462604;-0.09418282;1;0;2;1780;3651;-925;32768;0.5221606;-0.7610435;0.3504155;-0.1592798;-3;7;-4;2779;2891;852;256;0.1052632;-0.2313019;-0.7140397;-0.6523545;-2;0;-1;659;3996;157;128;0.05540166;0.1135734;0.6232687;0.7717305;10;-9;0;-919;4045;934;4;0.6585709;-0.2368421;0.3836565;0.602493;-7;-10;6;2469;3148;532;16;0.710502;-0.6772853;-0.07756232;-0.1745152;-6;-11;-9;471;4160;-20;2;0.468144;-0.6077887;-0.4944598;-0.4085872;-1;-11;3;771;3938;-199;8;0.4404432;-0.8851001;0.07756232;0.1288089;-5;-11;-3;63;3291;2503;0.3065883;2.507967;1.092195;0.3125721;3.053241;1.076036;0.317831;3.532478;1.059811;0.4593113;4.251829;1.028502;0.2680473;4.619877;0.9764847;-0.09335822;4.550924;1.045554;-0.8356161;4.80331;0.5519109;-0.0460954;5.165657;0.9302748;0.7786107;4.519465;0.9764837;1.035584;4.328892;1.045553;0.980552;3.511993;1.553414;0.2915676;2.865719;1.627026;-0.005668581;2.465681;1.085891;0.1084569;1.331168;0.1689865;0;0;0;-0.005668581;2.465681;1.085891;0.1084569;1.331168;0.1689865;0;0;0
1665857.5356;NotLabelled;16384;0.7233127;0.3310249;0.5803324;0.1745152;4;4;7;2290;-1060;3121;65536;0.6385492;0.5290859;-0.4542936;-0.3254848;1;-7;0;3597;-1404;-1099;8192;0.4958449;-0.7908041;-0.3462604;-0.09418282;0;-1;3;1790;3539;-809;32768;0.5221606;-0.761332;0.3504155;-0.1578947;-5;3;-3;2863;2945;902;256;0.1066482;-0.2313019;-0.7138341;-0.6523545;-3;0;-1;567;4086;173;128;0.05401662;0.1149584;0.6232687;0.7716236;9;-6;0;-1007;3983;882;4;0.6595606;-0.234072;0.3836565;0.602493;-8;-9;7;2647;3118;714;16;0.7095186;-0.6786703;-0.07756232;-0.1731302;-7;-14;-12;833;4120;-112;2;0.468144;-0.60984;-0.4930748;-0.4072022;-2;-12;1;737;4080;-189;8;0.4390582;-0.8854631;0.07894737;0.1301939;-6;-10;-3;-17;3389;2485;0.3054613;2.507259;1.087599;0.3114443;3.052477;1.06963;0.3167028;3.531656;1.051814;0.4581637;4.251008;1.020417;0.2668676;4.619057;0.9685179;-0.09449521;4.550103;1.03781;-0.8350052;4.80551;0.5430965;-0.04560357;5.166011;0.9234653;0.777431;4.518643;0.9682024;1.034447;4.328071;1.037113;0.9806616;3.50949;1.542394;0.2927679;2.862167;1.616972;-0.006795913;2.464953;1.081447;0.1071031;1.332087;0.1624794;0;0;0;-0.006795913;2.464953;1.081447;0.1071031;1.332087;0.1624794;0;0;0
1665877.5116;NotLabelled;16384;0.7239449;0.3296399;0.5803324;0.1745152;4;4;1;2156;-1106;3041;65536;0.6385492;0.5290859;-0.4542936;-0.3254848;-1;-3;3;3697;-1326;-1075;8192;0.4958449;-0.7909679;-0.3462604;-0.09279778;0;-5;5;1802;3529;-775;32768;0.5207756;-0.7629153;0.3490305;-0.1578947;-7;0;-1;2853;2961;926;256;0.1066482;-0.2313019;-0.7138341;-0.6523545;-4;-1;-1;663;4114;153;128;0.05401662;0.1149584;0.6246537;0.7705028;10;-4;1;-1023;3921;876;4;0.6597554;-0.2299169;0.3836565;0.6038781;-10;-3;8;2495;3002;666;16;0.7109326;-0.6800554;-0.0734072;-0.1634349;-4;-29;-13;129;3984;-476;2;0.4709141;-0.6097487;-0.4916897;-0.4058172;0;-8;0;1007;4230;-227;8;0.4362881;-0.8865023;0.08033241;0.1315789;-8;-7;-1;-55;3329;2515;0.3070091;2.50316;1.08849;0.3129922;3.048384;1.070683;0.3182507;3.527568;1.053008;0.4583364;4.247192;1.02171;0.2663594;4.614871;0.9696984;-0.09491181;4.545216;1.038766;-0.8333914;4.800672;0.541051;-0.04465285;5.160709;0.923231;0.7771165;4.515448;0.9696974;1.034459;4.325372;1.038764;0.9790397;3.508473;1.546583;0.2922615;2.859945;1.620968;-0.00524801;2.460855;1.082325;0.1075278;1.332651;0.1575038;0;0;0;-0.00524801;2.460855;1.082325;0.1075278;1.332651;0.1575038;0;0;0
1665897.3664;NotLabelled;16384;0.724574;0.3282548;0.5803324;0.1745152;2;4;-4;2234;-1062;3037;65536;0.6406757;0.5277008;-0.4529086;-0.3254848;-5;0;6;3573;-1356;-1065;8192;0.4958449;-0.7911291;-0.3462604;-0.09141274;-2;-7;6;1858;3497;-1013;32768;0.5193906;-0.7635098;0.3504155;-0.1565097;-8;-4;0;2755;2823;796;256;0.1080332;-0.2313019;-0.7148895;-0.6509695;-7;-4;0;669;4034;129;128;0.05263158;0.1149584;0.6260388;0.7694738;9;-4;1;-1037;3899;882;4;0.6607142;-0.2271468;0.3836565;0.6038781;-7;0;8;2477;2816;472;16;0.711875;-0.6800554;-0.0734072;-0.1592798;-3;-16;-11;137;4036;-580;2;0.4709141;-0.6106683;-0.4916897;-0.4044321;-2;-5;0;867;4200;-259;8;0.434903;-0.8869761;0.08033241;0.132964;-10;-8;-1;-121;3223;2527;0.3034483;2.49823;1.08902;0.3094307;3.043386;1.069234;0.3146884;3.522503;1.049821;0.4547742;4.242127;1.018524;0.2627974;4.609806;0.9665116;-0.09847403;4.540151;1.035579;-0.8360415;4.794136;0.5357639;-0.04730314;5.154174;0.9179441;0.7735543;4.510383;0.9665105;1.030897;4.320307;1.035577;0.9767563;3.504177;1.54477;0.2903186;2.85567;1.622419;-0.008809149;2.455903;1.083021;0.1007134;1.334032;0.1501386;0;0;0;-0.008809149;2.455903;1.083021;0.1007134;1.334032;0.1501386;0;0;0
1665918.3856;NotLabelled;16384;0.7239317;0.3254848;0.5831025;0.1731302;-1;3;-11;2364;-1158;2987;65536;0.6416525;0.5277008;-0.4515235;-0.3254848;-8;2;7;3499;-1450;-1055;8192;0.4958449;-0.791288;-0.3462604;-0.0900277;-2;-4;6;1844;3447;-1071;32768;0.5193906;-0.7637923;0.3504155;-0.1551246;-7;-3;-1;2725;2693;706;256;0.1094183;-0.232687;-0.715489;-0.6495845;-7;-7;0;715;3840;145;128;0.05124654;0.1163435;0.6274238;0.76823;8;-4;1;-867;3837;894;4;0.6599211;-0.2257618;0.3836565;0.6052631;-2;-3;6;2629;2790;342;16;0.7126305;-0.6800554;-0.07202215;-0.1565097;-1;-21;-6;471;3918;-470;2;0.4722992;-0.6107122;-0.4903047;-0.4044321;-4;-6;0;655;4078;-261;8;0.433518;-0.8873188;0.08171745;0.134349;-13;-10;-1;-129;3253;2359;0.2982813;2.494444;1.091283;0.3042628;3.039528;1.069624;0.3095198;3.518576;1.048565;0.4488353;4.238228;1.014575;0.2564401;4.605517;0.9613724;-0.1047105;4.535737;1.030944;-0.8408679;4.788245;0.5283099;-0.05101034;5.149588;0.906931;0.7673001;4.506624;0.9613712;1.024888;4.317066;1.030942;0.9715255;3.501709;1.541451;0.2845291;2.854114;1.621728;-0.01397642;2.452097;1.08544;0.09355506;1.334937;0.1466919;0;0;0;-0.01397642;2.452097;1.08544;0.09355506;1.334937;0.1466919;0;0;0
1665938.5284;NotLabelled;16384;0.722814;0.3254848;0.5844875;0.1731302;-2;3;-13;2414;-1104;2929;65536;0.6437598;0.5263157;-0.4501385;-0.3254848;-8;1;6;3529;-1512;-1047;8192;0.4958449;-0.7914443;-0.3462604;-0.08864266;-2;-3;5;1764;3497;-1147;32768;0.5193906;-0.7640723;0.3504155;-0.1537396;-6;-1;-2;2757;2685;740;256;0.1108033;-0.232687;-0.7165312;-0.6481994;-5;-7;-1;757;3818;159;128;0.05124654;0.1163435;0.6288089;0.7670967;10;-5;2;-847;3963;750;4;0.6594529;-0.2257618;0.3822715;0.6066482;0;-9;6;2523;2918;518;16;0.7120488;-0.6814404;-0.07063711;-0.1537396;-3;-13;-3;179;3770;-4;2;0.4736842;-0.6105552;-0.4903047;-0.4030471;-7;-14;-2;397;3906;-269;8;0.4307479;-0.888328;0.08310249;0.1357341;-19;-14;-2;-5;3305;2091;0.2912991;2.493069;1.09227;0.2972799;3.038077;1.068781;0.302536;3.517052;1.046114;0.4423922;4.236515;1.010386;0.2502567;4.603828;0.956416;-0.110916;4.534489;1.026312;-0.8475115;4.78349;0.5225716;-0.05875349;5.146664;0.9017316;0.7610402;4.50454;0.9564149;1.018513;4.314945;1.026311;0.9648137;3.500361;1.538019;0.2788304;2.851569;1.617277;-0.02095872;2.450703;1.086581;0.09047043;1.335189;0.1463302;0;0;0;-0.02095872;2.450703;1.086581;0.09047043;1.335189;0.1463302;0;0;0
1665958.3639;NotLabelled;16384;0.7216917;0.3254848;0.5858725;0.1731302;0;2;-14;2524;-1100;2935;65536;0.6447261;0.5263157;-0.4487534;-0.3254848;-5;0;6;3617;-1502;-1051;8192;0.4958449;-0.7922027;-0.3448753;-0.08725762;-2;-4;4;1744;3557;-1153;32768;0.5180055;-0.765012;0.3504155;-0.1537396;-6;-1;-4;2795;2715;786;256;0.1121884;-0.234072;-0.7158642;-0.6481994;-3;-4;-2;813;3932;213;128;0.04986149;0.1163435;0.6301939;0.7660507;11;-7;2;-875;4017;832;4;0.6586495;-0.2243767;0.3822715;0.6080332;0;-14;7;2561;3086;558;16;0.7123464;-0.6814404;-0.07063711;-0.1523546;-4;-2;-1;285;4226;-4;2;0.4764543;-0.610618;-0.4875346;-0.4030471;-2;-21;-7;115;3844;-143;8;0.4279778;-0.8891082;0.08448754;0.1385041;-21;-18;-3;311;3501;2377;0.2849637;2.492355;1.088054;0.2909434;3.037274;1.06258;0.2961986;3.516164;1.038167;0.4352908;4.235636;0.9997604;0.2427406;4.602556;0.9446064;-0.1183122;4.533098;1.015003;-0.8560035;4.780981;0.512315;-0.06613898;5.145427;0.8879362;0.7536256;4.503792;0.9446051;1.011342;4.314714;1.015001;0.9583673;3.500906;1.528019;0.2735679;2.850918;1.607725;-0.02729437;2.449969;1.082532;0.09082424;1.335668;0.141659;0;0;0;-0.02729437;2.449969;1.082532;0.09082424;1.335668;0.141659;0;0;0
1665979.3816;NotLabelled;16384;0.7211891;0.3240997;0.5872576;0.1731302;0;1;-13;2630;-1144;2883;65536;0.6456879;0.5263157;-0.4473684;-0.3254848;-3;0;7;3731;-1584;-993;8192;0.4972299;-0.791334;-0.3448753;-0.08725762;-3;-6;3;1748;3631;-1049;32768;0.5180055;-0.765289;0.3504155;-0.1523546;-6;-2;-6;2937;2821;752;256;0.1135734;-0.234072;-0.7156458;-0.6481994;-2;-2;-3;837;3998;317;128;0.04847645;0.1163435;0.6315789;0.7649983;10;-8;1;-875;4027;972;4;0.6574879;-0.2202216;0.3822715;0.6108033;-3;-19;7;2735;3068;770;16;0.7107382;-0.6828254;-0.0734072;-0.1523546;-8;13;-6;-97;3862;-236;2;0.4833795;-0.6104861;-0.4819945;-0.4016621;-8;-25;-10;501;4198;-605;8;0.4224377;-0.8912708;0.08725762;0.1398892;-21;-6;0;79;3161;2649;0.2778622;2.491006;1.088459;0.2838409;3.035834;1.061099;0.2890952;3.514635;1.03503;0.4281066;4.234175;0.9975904;0.2355243;4.601141;0.9428636;-0.1255373;4.531548;1.01308;-0.8631209;4.778309;0.5096831;-0.07448334;5.144572;0.8861118;0.7464216;4.502441;0.9428624;1.004144;4.313305;1.013078;0.9494144;3.499937;1.526608;0.2635708;2.851032;1.606157;-0.0343959;2.4486;1.083095;0.08794226;1.335951;0.140809;0;0;0;-0.0343959;2.4486;1.083095;0.08794226;1.335951;0.140809;0;0;0
1666000.3728;NotLabelled;16384;0.7197247;0.3240997;0.5886427;0.1745152;2;0;-12;2574;-974;2905;65536;0.6456879;0.5263157;-0.4473684;-0.3254848;-2;0;7;3727;-1612;-917;8192;0.4986149;-0.7913655;-0.3434903;-0.08448754;-5;-5;4;2000;3647;-995;32768;0.5180055;-0.7652001;0.3518005;-0.1495845;-5;-4;-5;2777;3013;784;256;0.1135734;-0.234072;-0.7156458;-0.6481994;-1;0;-4;743;4048;297;128;0.04709141;0.1177285;0.6315789;0.7648728;11;-9;0;-977;3961;934;4;0.6558285;-0.2174515;0.3822715;0.6135734;-5;-21;11;2939;2794;728;16;0.708814;-0.6842105;-0.07617728;-0.1537396;-12;21;-8;13;4180;-748;2;0.4889196;-0.6143827;-0.4736842;-0.398892;0;-34;-8;797;3940;-293;8;0.4182825;-0.8930103;0.08725762;0.1412742;-24;-7;-1;141;3273;2395;0.2759113;2.486202;1.087506;0.281889;3.030932;1.058257;0.2871421;3.50964;1.030527;0.424763;4.229448;0.9931011;0.231472;4.596043;0.9383803;-0.1294547;4.52575;1.008594;-0.8674097;4.769912;0.5044745;-0.07919648;5.137989;0.8800219;0.7425592;4.498331;0.9383795;1.000646;4.309689;1.008593;0.9470694;3.495029;1.52019;0.262381;2.844932;1.599965;-0.03634709;2.443778;1.082302;0.08668174;1.336788;0.1334634;0;0;0;-0.03634709;2.443778;1.082302;0.08668174;1.336788;0.1334634;0;0;0
1666020.5586;NotLabelled;16384;0.7177363;0.3227147;0.5914127;0.1759003;0;1;-9;2646;-976;2981;65536;0.6482927;0.5263157;-0.4445983;-0.3240997;-5;2;6;3589;-1766;-877;8192;0.4986149;-0.7909096;-0.3448753;-0.08310249;-5;-2;5;1972;3595;-969;32768;0.5180055;-0.7654695;0.3518005;-0.1481994;-4;-4;-4;2851;2975;790;256;0.1135734;-0.232687;-0.7160974;-0.6481994;-1;2;-4;711;4052;127;128;0.04570637;0.1177285;0.632964;0.7638112;13;-9;0;-1111;3887;936;4;0.6554013;-0.2132964;0.3808864;0.6163435;0;-10;14;3073;2536;354;16;0.7071705;-0.6855956;-0.07894737;-0.1537396;-14;6;-11;645;4208;-724;2;0.4916897;-0.6160914;-0.4709141;-0.3961219;-5;-22;-10;1095;4258;-275;8;0.4155124;-0.8940827;0.08725762;0.1426593;-24;-10;-4;373;3227;2631;0.276776;2.48344;1.084956;0.2827539;3.028177;1.055848;0.2880071;3.506892;1.028242;0.4256281;4.2267;0.9908158;0.2323371;4.593294;0.9360949;-0.1285897;4.523002;1.006308;-0.8692695;4.764329;0.5048273;-0.0810563;5.132406;0.8803746;0.7434242;4.495583;0.9360942;1.001511;4.306941;1.006307;0.95247;3.492202;1.518234;0.2693924;2.840746;1.600677;-0.03548229;2.441017;1.07974;0.08805709;1.337314;0.1271461;0;0;0;-0.03548229;2.441017;1.07974;0.08805709;1.337314;0.1271461;0;0;0
1666041.4488;NotLabelled;16384;0.7165927;0.3227147;0.5927978;0.1759003;-3;2;-9;2704;-920;2993;65536;0.6492404;0.5263157;-0.4432133;-0.3240997;-7;3;5;3603;-1676;-825;8192;0.4986149;-0.7909096;-0.3448753;-0.08310249;-4;-1;6;1900;3477;-999;32768;0.5180055;-0.7657363;0.3518005;-0.1468144;-3;-4;-2;2911;2711;794;256;0.1149584;-0.232687;-0.7158763;-0.6481994;-3;-7;-3;695;3912;-11;128;0.04570637;0.1204986;0.6357341;0.7610737;11;-4;0;-1193;3841;926;4;0.6561502;-0.2119114;0.3781163;0.6177285;9;-2;12;3167;2532;248;16;0.7074702;-0.6855956;-0.07894737;-0.1523546;-12;-6;-9;91;3866;-186;2;0.4944598;-0.6149305;-0.4695291;-0.3961219;-12;-12;-12;1119;4058;-351;8;0.4113573;-0.8956444;0.08864266;0.1440443;-23;-9;-3;145;3055;2729;0.2765564;2.476573;1.085855;0.2825331;3.021206;1.054848;0.2877853;3.499822;1.025573;0.4240983;4.219828;0.9871944;0.2301328;4.586004;0.9320527;-0.1306494;4.51515;1.002444;-0.8758162;4.751028;0.5050336;-0.08685812;5.124578;0.8735479;0.7413956;4.489213;0.9320515;0.9998394;4.301129;1.002442;0.9544359;3.487519;1.516497;0.2728699;2.834875;1.602004;-0.03570214;2.434133;1.080799;0.08744419;1.33807;0.1193737;0;0;0;-0.03570214;2.434133;1.080799;0.08744419;1.33807;0.1193737;0;0;0
