SEP=;
index;label;RightUpperArm_boneIndex;RightUpperArm_quat9x_w;RightUpperArm_quat9x_x;RightUpperArm_quat9x_y;RightUpperArm_quat9x_z;RightUpperArm_gyroscope_x;RightUpperArm_gyroscope_y;RightUpperArm_gyroscope_z;RightUpperArm_accelerometer_x;RightUpperArm_accelerometer_y;RightUpperArm_accelerometer_z;RightLowerArm_boneIndex;RightLowerArm_quat9x_w;RightLowerArm_quat9x_x;RightLowerArm_quat9x_y;RightLowerArm_quat9x_z;RightLowerArm_gyroscope_x;RightLowerArm_gyroscope_y;RightLowerArm_gyroscope_z;RightLowerArm_accelerometer_x;RightLowerArm_accelerometer_y;RightLowerArm_accelerometer_z;LeftUpperArm_boneIndex;LeftUpperArm_quat9x_w;LeftUpperArm_quat9x_x;LeftUpperArm_quat9x_y;LeftUpperArm_quat9x_z;LeftUpperArm_gyroscope_x;LeftUpperArm_gyroscope_y;LeftUpperArm_gyroscope_z;LeftUpperArm_accelerometer_x;LeftUpperArm_accelerometer_y;LeftUpperArm_accelerometer_z;LeftLowerArm_boneIndex;LeftLowerArm_quat9x_w;LeftLowerArm_quat9x_x;LeftLowerArm_quat9x_y;LeftLowerArm_quat9x_z;LeftLowerArm_gyroscope_x;LeftLowerArm_gyroscope_y;LeftLowerArm_gyroscope_z;LeftLowerArm_accelerometer_x;LeftLowerArm_accelerometer_y;LeftLowerArm_accelerometer_z;Chest_boneIndex;Chest_quat9x_w;Chest_quat9x_x;Chest_quat9x_y;Chest_quat9x_z;Chest_gyroscope_x;Chest_gyroscope_y;Chest_gyroscope_z;Chest_accelerometer_x;Chest_accelerometer_y;Chest_accelerometer_z;Spine_boneIndex;Spine_quat9x_w;Spine_quat9x_x;Spine_quat9x_y;Spine_quat9x_z;Spine_gyroscope_x;Spine_gyroscope_y;Spine_gyroscope_z;Spine_accelerometer_x;Spine_accelerometer_y;Spine_accelerometer_z;RightUpperLeg_boneIndex;RightUpperLeg_quat9x_w;RightUpperLeg_quat9x_x;RightUpperLeg_quat9x_y;RightUpperLeg_quat9x_z;RightUpperLeg_gyroscope_x;RightUpperLeg_gyroscope_y;RightUpperLeg_gyroscope_z;RightUpperLeg_accelerometer_x;RightUpperLeg_accelerometer_y;RightUpperLeg_accelerometer_z;RightLowerLeg_boneIndex;RightLowerLeg_quat9x_w;RightLowerLeg_quat9x_x;RightLowerLeg_quat9x_y;RightLowerLeg_quat9x_z;RightLowerLeg_gyroscope_x;RightLowerLeg_gyroscope_y;RightLowerLeg_gyroscope_z;RightLowerLeg_accelerometer_x;RightLowerLeg_accelerometer_y;RightLowerLeg_accelerometer_z;LeftUpperLeg_boneIndex;LeftUpperLeg_quat9x_w;LeftUpperLeg_quat9x_x;LeftUpperLeg_quat9x_y;LeftUpperLeg_quat9x_z;LeftUpperLeg_gyroscope_x;LeftUpperLeg_gyroscope_y;LeftUpperLeg_gyroscope_z;LeftUpperLeg_accelerometer_x;LeftUpperLeg_accelerometer_y;LeftUpperLeg_accelerometer_z;LeftLowerLeg_boneIndex;LeftLowerLeg_quat9x_w;LeftLowerLeg_quat9x_x;LeftLowerLeg_quat9x_y;LeftLowerLeg_quat9x_z;LeftLowerLeg_gyroscope_x;LeftLowerLeg_gyroscope_y;LeftLowerLeg_gyroscope_z;LeftLowerLeg_accelerometer_x;LeftLowerLeg_accelerometer_y;LeftLowerLeg_accelerometer_z;pelvis_x;pelvis_y;pelvis_z;lowerSpine_x;lowerSpine_y;lowerSpine_z;middleSpine_x;middleSpine_y;middleSpine_z;upperSpine_x;upperSpine_y;upperSpine_z;rightClavicle_x;rightClavicle_y;rightClavicle_z;rightShoulder_x;rightShoulder_y;rightShoulder_z;rightElbow_x;rightElbow_y;rightElbow_z;rightWrist_x;rightWrist_y;rightWrist_z;leftClavicle_x;leftClavicle_y;leftClavicle_z;leftShoulder_x;leftShoulder_y;leftShoulder_z;leftElbow_x;leftElbow_y;leftElbow_z;leftWrist_x;leftWrist_y;leftWrist_z;rightHip_x;rightHip_y;rightHip_z;rightKnee_x;rightKnee_y;rightKnee_z;rightAnkle_x;rightAnkle_y;rightAnkle_z;leftHip_x;leftHip_y;leftHip_z;leftKnee_x;leftKnee_y;leftKnee_z;leftAnkle_x;leftAnkle_y;leftAnkle_z;
1853333.7742;NotLabelled;16384;0.716578;0.3739612;0.5498615;0.2105263;0;0;2;2848;-1256;2585;65536;-0.5803324;-0.5926586;0.4529086;0.3268698;1;-2;-2;3717;-1578;-457;8192;0.5221606;-0.7598932;-0.3310249;-0.200831;2;3;0;1264;3761;-1061;32768;0.5747922;-0.7612829;0.2742382;-0.1218837;1;6;1;2243;3235;722;256;0.09279778;-0.2174515;-0.6814404;-0.6926344;0;-3;3;661;3916;-195;128;0.04847645;0.1024931;0.5803324;0.8064487;-1;-1;-1;-881;3765;1352;4;0.6590368;-0.2285319;0.4085872;0.5886427;0;0;-1;2469;3130;884;16;0.7133892;-0.6828254;-0.0401662;-0.1523546;1;2;0;621;4064;-144;2;0.4612188;-0.598213;-0.4986149;-0.4252077;1;-1;0;677;4036;-341;8;0.4445983;-0.8851684;0.07479224;0.1149584;0;0;0;117;3321;2311;0.4537918;2.514477;1.087649;0.4597602;3.058384;1.129497;0.4650081;3.536633;1.164264;0.5865211;4.259183;1.204487;0.3857628;4.625293;1.184285;0.02538964;4.540408;1.239648;-0.7185916;4.821947;0.7647194;0.01561451;5.193204;1.234726;0.8989017;4.539;1.184285;1.160027;4.3496;1.239648;1.036658;3.458134;1.58366;0.4807672;2.693089;1.642641;0.141545;2.473119;1.076526;0.1456658;1.328025;0.1657012;0;0;0;0.141545;2.473119;1.076526;0.1456658;1.328025;0.1657012;0;0;0
1853354.7944;NotLabelled;16384;0.716578;0.3739612;0.5498615;0.2105263;0;0;2;2840;-1222;2627;65536;-0.5803324;-0.5915976;0.4542936;0.3268698;0;0;-3;3713;-1598;-395;8192;0.5207756;-0.760843;-0.3310249;-0.200831;2;3;0;1172;3751;-1043;32768;0.5747922;-0.7610599;0.2742382;-0.1232687;2;6;0;2289;3217;746;256;0.09279778;-0.2188366;-0.6814404;-0.692198;1;-5;4;703;3914;-259;128;0.04847645;0.1024931;0.5803324;0.8064487;0;-1;-1;-911;3721;1368;4;0.6598935;-0.2285319;0.4072022;0.5886427;0;-1;0;2395;3098;838;16;0.7133099;-0.6828254;-0.04155125;-0.1523546;1;5;0;481;4030;-150;2;0.4612188;-0.598213;-0.4986149;-0.4252077;0;-1;0;641;3980;-297;8;0.4445983;-0.8851684;0.07479224;0.1149584;0;0;-1;129;3285;2369;0.456302;2.51394;1.08864;0.4622705;3.057847;1.130488;0.4675183;3.536095;1.165255;0.5904734;4.258401;1.205492;0.3904462;4.624911;1.185296;0.02990404;4.540745;1.240656;-0.7117977;4.822283;0.7621756;0.02141514;5.193541;1.23373;0.9034119;4.537594;1.185296;1.164158;4.347671;1.240655;1.039145;3.456206;1.584075;0.4843866;2.690296;1.642486;0.1440553;2.472582;1.077517;0.1453162;1.328026;0.1660081;0;0;0;0.1440553;2.472582;1.077517;0.1453162;1.328026;0.1660081;0;0;0
1853375.7894;NotLabelled;16384;0.7162594;0.3753462;0.5498615;0.2091413;0;0;3;2876;-1238;2619;65536;-0.5803324;-0.5915976;0.4542936;0.3268698;1;-1;-3;3659;-1580;-493;8192;0.5207756;-0.7604761;-0.3310249;-0.2022161;3;4;0;1190;3765;-1079;32768;0.5747922;-0.761332;0.2728532;-0.1246537;3;9;1;2275;3209;688;256;0.09279778;-0.2202216;-0.6800554;-0.6931202;2;-6;4;639;3878;-169;128;0.04847645;0.1038781;0.5803324;0.8062714;-3;-3;-2;-931;3733;1432;4;0.6598935;-0.2285319;0.4072022;0.5886427;0;-2;0;2375;3094;782;16;0.7133099;-0.6828254;-0.04155125;-0.1523546;1;4;0;753;4018;-116;2;0.4612188;-0.598213;-0.4986149;-0.4252077;-1;-3;0;701;4096;-307;8;0.4445983;-0.8851684;0.07479224;0.1149584;0;0;0;125;3347;2385;0.448846;2.512549;1.089769;0.4548143;3.056456;1.131617;0.4600623;3.534704;1.166384;0.5844595;4.256763;1.206634;0.3851649;4.623671;1.186445;0.02445519;4.540225;1.241802;-0.7172452;4.821763;0.7633191;0.01574975;5.190995;1.236799;0.8979551;4.53533;1.186445;1.158322;4.344886;1.241802;1.030971;3.454508;1.587176;0.4746183;2.68956;1.64299;0.1365993;2.471191;1.078646;0.1427111;1.328447;0.1648849;0;0;0;0.1365993;2.471191;1.078646;0.1427111;1.328447;0.1648849;0;0;0
1853396.7736;NotLabelled;16384;0.7173205;0.3753462;0.5484765;0.2091413;-1;-1;4;2910;-1096;2549;65536;-0.5803324;-0.5905315;0.4556787;0.3268698;2;0;-5;3641;-1682;-449;8192;0.5193906;-0.7604496;-0.33241;-0.2036011;2;9;-1;1304;3757;-1039;32768;0.5747922;-0.7616281;0.2700831;-0.1288089;6;16;2;2297;3263;786;256;0.09279778;-0.2216066;-0.6800554;-0.6926787;3;-5;4;711;3950;-239;128;0.04847645;0.1038781;0.5789474;0.8072666;-6;-3;-3;-837;3831;1322;4;0.6598935;-0.2285319;0.4072022;0.5886427;1;-2;0;2427;3140;786;16;0.7143365;-0.6814404;-0.04155125;-0.1537396;0;0;0;693;4002;-108;2;0.4612188;-0.598213;-0.4986149;-0.4252077;0;-3;1;713;3964;-341;8;0.4445983;-0.8851684;0.07479224;0.1149584;0;0;-1;141;3269;2459;0.4462295;2.512547;1.090103;0.4521979;3.056449;1.132013;0.4574458;3.534694;1.166835;0.5826263;4.256454;1.209902;0.3837566;4.62366;1.190973;0.02291733;4.54041;1.245778;-0.7178013;4.824977;0.7675675;0.01404268;5.19421;1.242823;0.8964471;4.534743;1.190972;1.156564;4.343799;1.245777;1.027152;3.452903;1.589045;0.4704535;2.688052;1.642681;0.1339829;2.47119;1.078975;0.1423109;1.328447;0.1652312;0;0;0;0.1339829;2.47119;1.078975;0.1423109;1.328447;0.1652312;0;0;0
1853416.7862;NotLabelled;16384;0.7173205;0.3753462;0.5484765;0.2091413;-1;-1;5;2892;-1212;2619;65536;-0.5803324;-0.5897627;0.4556787;0.3282548;2;0;-5;3707;-1600;-565;8192;0.5180055;-0.7607876;-0.333795;-0.2036011;3;11;0;1256;3759;-1121;32768;0.5761772;-0.7608355;0.2686981;-0.1301939;7;18;1;2303;3189;814;256;0.09279778;-0.2229917;-0.6800554;-0.692234;4;-5;5;691;3904;-185;128;0.04847645;0.1052632;0.5789474;0.8070871;-5;-4;-3;-835;3807;1394;4;0.6586553;-0.2285319;0.4072022;0.5900277;1;-3;0;2527;3116;934;16;0.7146332;-0.6814404;-0.04155125;-0.1523546;0;-3;-1;843;3984;14;2;0.4612188;-0.5993646;-0.4972299;-0.4252077;0;-2;2;775;3972;-335;8;0.4445983;-0.8851684;0.07479224;0.1149584;0;-2;0;181;3287;2451;0.4427575;2.511888;1.095999;0.4487242;3.055642;1.139789;0.4539707;3.533763;1.176264;0.5805666;4.255271;1.219418;0.3824408;4.622874;1.200383;0.02140495;4.540343;1.25498;-0.7148111;4.824515;0.769634;0.01652852;5.191718;1.247234;0.894953;4.532934;1.200674;1.154656;4.34147;1.255624;1.021283;3.452402;1.602101;0.4625825;2.688702;1.651108;0.1305113;2.47057;1.084716;0.1412943;1.327826;0.1709981;0;0;0;0.1305113;2.47057;1.084716;0.1412943;1.327826;0.1709981;0;0;0
1853437.863;NotLabelled;16384;0.7173205;0.3753462;0.5484765;0.2091413;-2;-2;5;2826;-1186;2621;65536;-0.5789474;-0.5911224;0.4556787;0.3282548;2;1;-5;3689;-1634;-485;8192;0.5180055;-0.759806;-0.33518;-0.2049861;5;13;-1;1274;3753;-1071;32768;0.5761772;-0.7613295;0.265928;-0.132964;7;20;1;2279;3201;860;256;0.09279778;-0.2243767;-0.6786703;-0.6931452;6;-4;4;647;3886;-161;128;0.04847645;0.1066482;0.5761772;0.8088856;-5;0;-2;-827;3793;1286;4;0.6586553;-0.2285319;0.4072022;0.5900277;1;0;0;2625;3148;868;16;0.7133099;-0.6828254;-0.04155125;-0.1523546;0;-6;-2;799;4004;-62;2;0.4612188;-0.6003448;-0.4972299;-0.4238227;0;-2;2;715;3988;-315;8;0.4445983;-0.8851684;0.07479224;0.1149584;0;-1;-1;57;3279;2415;0.4366108;2.513098;1.094007;0.4425775;3.056847;1.13786;0.447824;3.534964;1.17439;0.5758845;4.256217;1.217487;0.3784826;4.624215;1.198572;0.01731345;4.542404;1.253371;-0.7194449;4.828246;0.7698315;0.01287401;5.193407;1.247497;0.8908143;4.533252;1.198571;1.150166;4.341269;1.253371;1.016282;3.452164;1.599554;0.458243;2.687696;1.643932;0.1243645;2.471781;1.082719;0.1387196;1.328216;0.1700797;0;0;0;0.1243645;2.471781;1.082719;0.1387196;1.328216;0.1700797;0;0;0
1853458.77;NotLabelled;16384;0.7169968;0.3767313;0.5484765;0.2077562;-3;-3;5;2836;-1240;2649;65536;-0.5789474;-0.5900521;0.4570637;0.3282548;2;2;-6;3739;-1682;-379;8192;0.5166205;-0.7593844;-0.3365651;-0.2077562;5;14;-2;1152;3767;-1029;32768;0.5761772;-0.7615689;0.2645429;-0.134349;6;18;1;2297;3259;856;256;0.09279778;-0.2257618;-0.6772853;-0.6940495;6;-2;4;705;3974;-145;128;0.04847645;0.1066482;0.5761772;0.8088856;-5;0;-2;-853;3849;1302;4;0.6586553;-0.2285319;0.4072022;0.5900277;0;-1;0;2449;3194;848;16;0.7133892;-0.6828254;-0.0401662;-0.1523546;-1;-8;-2;793;4052;-70;2;0.4612188;-0.6003448;-0.4972299;-0.4238227;0;-2;2;785;4012;-269;8;0.4445983;-0.8849874;0.07479224;0.1163435;-1;-2;-1;161;3319;2445;0.4368662;2.51325;1.09038;0.4428293;3.056677;1.138051;0.448073;3.534526;1.177938;0.5769043;4.255468;1.223849;0.3799233;4.623755;1.206193;0.01862666;4.542138;1.26044;-0.7175114;4.82798;0.7759567;0.01197466;5.193085;1.25798;0.8921534;4.532223;1.206192;1.151255;4.339745;1.260439;1.017167;3.450174;1.605346;0.4586546;2.68588;1.646638;0.1246209;2.472013;1.078779;0.1412043;1.328448;0.1661775;0;0;0;0.1246209;2.472013;1.078779;0.1412043;1.328448;0.1661775;0;0;0
1853478.7774;NotLabelled;16384;0.7173258;0.3781163;0.5470914;0.2077562;-5;-1;4;2854;-1216;2615;65536;-0.5775623;-0.590637;0.4570637;0.3296399;0;2;-5;3699;-1556;-331;8192;0.5152354;-0.75933;-0.3379501;-0.2091413;5;10;-2;1098;3855;-949;32768;0.5761772;-0.7620322;0.2617728;-0.1371191;6;13;1;2299;3319;782;256;0.09279778;-0.2271468;-0.6772853;-0.6935975;5;-1;4;631;4054;-187;128;0.04847645;0.1066482;0.5761772;0.8088856;-5;0;-3;-823;3823;1280;4;0.6586553;-0.2285319;0.4072022;0.5900277;0;-2;0;2497;3076;842;16;0.7137602;-0.6828254;-0.03878116;-0.1509695;-2;-12;-2;869;4000;-70;2;0.4612188;-0.6003448;-0.4972299;-0.4238227;0;0;1;735;3978;-323;8;0.4432133;-0.8856818;0.07479224;0.1163435;-1;-2;-1;131;3287;2435;0.4364621;2.512828;1.092137;0.4424253;3.056255;1.139808;0.4476688;3.534104;1.179695;0.5772639;4.254725;1.228415;0.3807013;4.623292;1.212018;0.01927829;4.541872;1.265712;-0.7152821;4.830737;0.7806281;0.0137859;5.193806;1.264816;0.89283;4.531196;1.212016;1.151682;4.338228;1.265711;1.013038;3.448765;1.60909;0.4542499;2.684555;1.648143;0.1242167;2.471591;1.080536;0.1430339;1.328025;0.1679779;0;0;0;0.1242167;2.471591;1.080536;0.1430339;1.328025;0.1679779;0;0;0
1853499.7872;NotLabelled;16384;0.7177255;0.3781163;0.5470914;0.2063712;-5;0;4;2812;-1208;2619;65536;-0.5775623;-0.5898619;0.4570637;0.3310249;-2;2;-5;3695;-1550;-311;8192;0.5138504;-0.7595005;-0.3379501;-0.2119114;3;6;-3;1200;3799;-907;32768;0.5775623;-0.7612073;0.2603878;-0.1385041;5;6;2;2323;3367;750;256;0.09279778;-0.2271468;-0.6759003;-0.6949472;4;0;5;673;4020;-231;128;0.04986149;0.1066482;0.5747922;0.8097863;-6;3;-2;-867;3895;1266;4;0.6595097;-0.2285319;0.4058172;0.5900277;-1;0;0;2555;3092;820;16;0.7144144;-0.6828254;-0.03739612;-0.1481994;-3;-15;-3;591;4062;-166;2;0.4612188;-0.6003448;-0.4972299;-0.4238227;-1;0;1;785;4018;-353;8;0.4432133;-0.8856818;0.07479224;0.1163435;-2;-1;0;65;3279;2439;0.4340939;2.512797;1.092697;0.4400571;3.056224;1.140367;0.4453007;3.534073;1.180254;0.5763307;4.254434;1.228993;0.3805026;4.623392;1.212603;0.01891762;4.542689;1.266294;-0.7133452;4.83416;0.7792975;0.01474136;5.195121;1.266529;0.892447;4.530275;1.212602;1.150914;4.336791;1.266293;1.009429;3.447957;1.610142;0.4502186;2.68391;1.64624;0.1218485;2.47156;1.081095;0.1426109;1.327995;0.1685795;0;0;0;0.1218485;2.47156;1.081095;0.1426109;1.327995;0.1685795;0;0;0
1853520.7795;NotLabelled;16384;0.7169942;0.3795014;0.5470914;0.2063712;-5;-1;3;2788;-1258;2537;65536;-0.5761772;-0.5912149;0.4570637;0.3310249;-1;0;-5;3749;-1538;-381;8192;0.5138504;-0.7595005;-0.3379501;-0.2119114;2;4;-4;1108;3911;-851;32768;0.5775623;-0.760954;0.2603878;-0.1398892;4;4;1;2259;3419;740;256;0.09141274;-0.2271468;-0.6759003;-0.6951308;4;0;4;621;3994;-191;128;0.04986149;0.1066482;0.5747922;0.8097863;-6;3;-1;-773;3827;1298;4;0.6587471;-0.2271468;0.4058172;0.5914127;1;-2;1;2423;3032;672;16;0.7136581;-0.6842105;-0.03739612;-0.1454294;-3;0;-2;209;4026;-278;2;0.4626039;-0.6002554;-0.4972299;-0.4224377;0;-1;0;797;4048;-345;8;0.4432133;-0.8856818;0.07479224;0.1163435;-2;0;-1;53;3281;2385;0.4284267;2.511298;1.094223;0.4343882;3.054565;1.143698;0.4396302;3.532279;1.185172;0.5699821;4.252567;1.236697;0.3738351;4.62141;1.221556;0.01228619;4.540185;1.274698;-0.719589;4.833339;0.7881305;0.01006788;5.192251;1.274524;0.8858624;4.528751;1.221556;1.144466;4.335298;1.274698;0.9983415;3.446526;1.616763;0.4399474;2.681706;1.648898;0.1161818;2.470101;1.082473;0.140197;1.328355;0.1677606;0;0;0;0.1161818;2.470101;1.082473;0.140197;1.328355;0.1677606;0;0;0
1853540.783;NotLabelled;16384;0.716657;0.3808864;0.5470914;0.2049861;-4;0;2;2846;-1236;2515;65536;-0.5761772;-0.5901416;0.4584487;0.3310249;-1;1;-5;3673;-1508;-471;8192;0.5152354;-0.7581733;-0.3379501;-0.2132964;2;2;-3;1136;3973;-791;32768;0.5789474;-0.7599007;0.2603878;-0.1398892;3;1;1;2227;3465;798;256;0.09141274;-0.2271468;-0.6759003;-0.6951308;5;1;3;605;4020;-271;128;0.05124654;0.1066482;0.5734072;0.8106813;-4;3;-3;-795;3909;1400;4;0.6587471;-0.2271468;0.4058172;0.5914127;4;0;1;2377;3012;648;16;0.7135842;-0.6842105;-0.03878116;-0.1454294;-2;-1;-1;615;4040;-46;2;0.4626039;-0.5992782;-0.4972299;-0.4238227;0;0;0;835;4046;-289;8;0.4432133;-0.8856818;0.07479224;0.1163435;-2;2;0;111;3299;2413;0.4283944;2.510756;1.08935;0.4343558;3.054022;1.138825;0.4395979;3.531736;1.180299;0.5713294;4.251745;1.232223;0.3758931;4.620972;1.217261;0.01418376;4.540413;1.270324;-0.7198992;4.834896;0.7879019;0.008994579;5.193738;1.275491;0.8877413;4.527329;1.21726;1.145967;4.33335;1.270323;1.000923;3.444578;1.612847;0.4411884;2.680718;1.644504;0.1161495;2.469558;1.0776;0.1387826;1.329348;0.1609398;0;0;0;0.1161495;2.469558;1.0776;0.1387826;1.329348;0.1609398;0;0;0
1853561.7724;NotLabelled;16384;0.7177122;0.3808864;0.5457063;0.2049861;-4;-1;2;2782;-1232;2553;65536;-0.5761772;-0.5893625;0.4584487;0.33241;-1;3;-4;3691;-1594;-439;8192;0.5152354;-0.7577823;-0.3379501;-0.2146814;1;1;-4;1184;3963;-729;32768;0.5789474;-0.7599007;0.2603878;-0.1398892;2;-2;2;2283;3429;766;256;0.09141274;-0.2285319;-0.6745152;-0.6960217;4;-1;3;575;4070;-265;128;0.05263158;0.1066482;0.5734072;0.8105925;-2;2;-3;-777;3853;1284;4;0.6595984;-0.2271468;0.4044321;0.5914127;3;0;1;2327;3196;716;16;0.713939;-0.6842105;-0.03739612;-0.1440443;-3;-4;-1;691;4094;-54;2;0.4626039;-0.5992782;-0.4972299;-0.4238227;0;-1;0;919;4052;-317;8;0.4418283;-0.8863736;0.07479224;0.1163435;-1;1;-1;137;3339;2531;0.4261466;2.511122;1.088058;0.4321061;3.054222;1.139333;0.4373467;3.531795;1.182389;0.5690781;4.251805;1.234313;0.3736419;4.621032;1.219351;0.01193243;4.540473;1.272415;-0.7214201;4.837963;0.7907273;0.008224189;5.194764;1.278691;0.8854902;4.527389;1.21935;1.143716;4.33341;1.272413;0.999245;3.443013;1.610935;0.4405046;2.678312;1.639696;0.113902;2.469964;1.076161;0.1365351;1.329754;0.1595003;0;0;0;0.113902;2.469964;1.076161;0.1365351;1.329754;0.1595003;0;0;0
1853581.7852;NotLabelled;16384;0.7159191;0.3822715;0.5470914;0.2049861;-4;-2;0;2890;-1230;2613;65536;-0.5761772;-0.5896553;0.4570637;0.333795;-2;2;-2;3701;-1684;-281;8192;0.5152354;-0.7577823;-0.3379501;-0.2146814;0;0;-4;1116;3899;-715;32768;0.5789474;-0.7599007;0.2603878;-0.1398892;1;-6;3;2183;3395;796;256;0.09141274;-0.2285319;-0.6745152;-0.6960217;3;-1;3;563;4118;-257;128;0.05263158;0.1066482;0.5720221;0.8115705;0;3;-3;-857;3899;1400;4;0.6591198;-0.2285319;0.4044321;0.5914127;2;2;1;2339;3256;822;16;0.7126089;-0.6855956;-0.03739612;-0.1440443;-2;-3;-1;569;4026;102;2;0.4612188;-0.6013203;-0.4972299;-0.4224377;0;0;0;1015;4044;-321;8;0.4418283;-0.8863736;0.07479224;0.1163435;0;0;0;115;3205;2593;0.4204707;2.509265;1.090806;0.4264305;3.052371;1.142006;0.431671;3.52995;1.184997;0.5641531;4.249615;1.239723;0.3691311;4.619109;1.226017;0.007297039;4.538748;1.278527;-0.7229038;4.837508;0.7928537;0.00726223;5.192255;1.281535;0.8808768;4.524906;1.226016;1.138854;4.330446;1.278527;0.9923848;3.439534;1.614826;0.4335749;2.674832;1.642209;0.1082262;2.468105;1.078914;0.13608;1.329725;0.1601237;0;0;0;0.1082262;2.468105;1.078914;0.13608;1.329725;0.1601237;0;0;0
1853601.794;NotLabelled;16384;0.7159191;0.3822715;0.5470914;0.2049861;-6;-2;0;3024;-1146;2723;65536;-0.5761772;-0.5896553;0.4570637;0.333795;-4;2;-3;3721;-1808;-213;8192;0.5166205;-0.7574557;-0.3365651;-0.2146814;0;-6;-2;1120;3827;-819;32768;0.5789474;-0.7589459;0.2631579;-0.1398892;-1;-9;4;2191;3243;836;256;0.09141274;-0.2299169;-0.6745152;-0.6955654;3;-1;3;657;4136;-231;128;0.05263158;0.1066482;0.5734072;0.8105925;0;4;-3;-835;3855;1420;4;0.6599676;-0.2285319;0.4030471;0.5914127;2;0;0;2443;3244;850;16;0.7126089;-0.6855956;-0.03739612;-0.1440443;-2;0;0;701;4022;170;2;0.4612188;-0.6001723;-0.4986149;-0.4224377;0;0;0;1033;4044;-225;8;0.4418283;-0.8861907;0.07479224;0.1177285;0;1;0;81;3243;2535;0.4209064;2.511784;1.08378;0.4268641;3.054711;1.136849;0.432103;3.53214;1.181484;0.5645525;4.251804;1.236289;0.3695388;4.621298;1.222466;0.007673562;4.540937;1.274761;-0.7246135;4.838083;0.7912434;0.006244242;5.192823;1.278895;0.8812841;4.527095;1.22277;1.13923;4.332635;1.275434;0.9923797;3.442885;1.614632;0.4335539;2.678183;1.641683;0.1086622;2.470665;1.071735;0.1388796;1.329933;0.1559426;0;0;0;0.1086622;2.470665;1.071735;0.1388796;1.329933;0.1559426;0;0;0
1853621.9702;NotLabelled;16384;0.7155734;0.3836565;0.5470914;0.2036011;-7;-1;1;3034;-1130;2799;65536;-0.5775623;-0.5875107;0.4570637;0.33518;-6;0;-6;3713;-1902;-333;8192;0.5166205;-0.7580696;-0.33518;-0.2146814;0;-8;-2;1088;3835;-811;32768;0.5789474;-0.7587184;0.2645429;-0.1385041;-2;-10;4;2321;3319;772;256;0.09141274;-0.2299169;-0.6745152;-0.6955654;2;-2;4;621;4046;-323;128;0.05401662;0.1080332;0.5734072;0.810318;0;4;-4;-879;3833;1366;4;0.6594864;-0.2299169;0.4030471;0.5914127;0;2;-1;2203;3304;872;16;0.7116243;-0.6869806;-0.03601108;-0.1426593;0;-5;0;639;4050;84;2;0.4612188;-0.5990189;-0.5;-0.4224377;-1;3;1;917;4006;-257;8;0.4418283;-0.8863065;0.0734072;0.1177285;1;-1;-1;85;3231;2511;0.4162822;2.509995;1.085961;0.4222418;3.053102;1.137161;0.4274825;3.530681;1.180152;0.5613927;4.25008;1.234898;0.3671044;4.619961;1.221201;0.005111456;4.540317;1.273707;-0.7264076;4.839124;0.7900507;0.003694892;5.193863;1.278832;0.878662;4.524742;1.2212;1.136252;4.329769;1.273706;0.9898113;3.437726;1.607006;0.4284577;2.674805;1.631936;0.1040377;2.468835;1.074069;0.1386384;1.329933;0.156157;0;0;0;0.1040377;2.468835;1.074069;0.1386384;1.329933;0.156157;0;0;0
1853642.7872;NotLabelled;16384;0.7145123;0.3836565;0.5484765;0.2036011;-11;1;1;2984;-1130;2783;65536;-0.5775623;-0.5885856;0.4556787;0.33518;-7;0;-7;3735;-1834;-331;8192;0.5180055;-0.7571238;-0.33518;-0.2146814;-1;-8;-1;1122;3819;-951;32768;0.5789474;-0.758234;0.265928;-0.1385041;-2;-10;5;2313;3283;780;256;0.09141274;-0.2313019;-0.6731302;-0.6964474;0;-7;6;579;4064;-365;128;0.05540166;0.1080332;0.5734072;0.8102245;3;3;-5;-891;3795;1408;4;0.6586379;-0.2299169;0.4044321;0.5914127;0;0;-2;2193;3220;820;16;0.7116243;-0.6869806;-0.03601108;-0.1426593;1;-3;-1;551;4076;12;2;0.4612188;-0.5990189;-0.5;-0.4224377;-1;0;1;843;4012;-279;8;0.4418283;-0.8861907;0.07479224;0.1177285;1;-2;-1;79;3281;2423;0.4173077;2.512512;1.078968;0.4232673;3.055619;1.13016;0.428508;3.533199;1.173144;0.5624182;4.252598;1.22789;0.3681302;4.622478;1.214192;0.006137192;4.542834;1.266699;-0.725838;4.844638;0.7856001;0.00765723;5.197378;1.270735;0.8796877;4.52726;1.214192;1.137278;4.332287;1.266698;0.9895853;3.44021;1.599355;0.4283773;2.677212;1.625178;0.1050632;2.471352;1.067078;0.1414726;1.330098;0.1521608;0;0;0;0.1050632;2.471352;1.067078;0.1414726;1.330098;0.1521608;0;0;0
1853663.9863;NotLabelled;16384;0.7141605;0.3850415;0.5484765;0.2022161;-13;2;1;2926;-1176;2703;65536;-0.5775623;-0.5867184;0.4570637;0.3365651;-9;2;-7;3751;-1758;-375;8192;0.5180055;-0.7581265;-0.333795;-0.2132964;0;-8;-1;1142;3815;-975;32768;0.5775623;-0.7583137;0.2686981;-0.1385041;-2;-8;5;2359;3205;756;256;0.09141274;-0.232687;-0.6731302;-0.6959859;0;-10;7;579;3964;-321;128;0.0567867;0.1080332;0.5734072;0.8101286;4;1;-6;-845;3875;1314;4;0.6598789;-0.2299169;0.4044321;0.5900277;0;-2;-2;2245;3142;748;16;0.7116243;-0.6869806;-0.03601108;-0.1426593;3;-2;0;579;4016;6;2;0.4612188;-0.5990189;-0.5;-0.4224377;0;0;1;725;4014;-307;8;0.4418283;-0.8861907;0.07479224;0.1177285;1;-1;-1;73;3265;2445;0.4176351;2.514339;1.077057;0.4235948;3.057454;1.128169;0.4288355;3.535041;1.171082;0.5634867;4.254082;1.228625;0.3696091;4.624223;1.216183;0.007493138;4.544775;1.268136;-0.7252273;4.845301;0.7873721;0.006321371;5.200098;1.273944;0.8810631;4.52845;1.216182;1.138405;4.333001;1.268135;0.9922765;3.439833;1.598548;0.4297654;2.67773;1.62235;0.1053906;2.473177;1.065173;0.1410953;1.330098;0.1525106;0;0;0;0.1053906;2.473177;1.065173;0.1410953;1.330098;0.1525106;0;0;0
1853706.784;NotLabelled;16384;0.7113169;0.3891967;0.5512465;0.1966759;-18;3;2;3038;-1242;2639;65536;-0.5789474;-0.583216;0.4556787;0.3421052;-12;5;-10;3781;-1666;-293;8192;0.5180055;-0.7603298;-0.3296399;-0.2119114;4;-7;0;1060;3867;-961;32768;0.5761772;-0.7583808;0.2714681;-0.1385041;-6;-2;5;2407;3235;852;256;0.09418282;-0.2396122;-0.6731302;-0.6932614;-5;-13;10;631;3976;-351;128;0.0567867;0.1108033;0.5747922;0.8087718;3;-1;-9;-955;3805;1290;4;0.6577854;-0.2299169;0.4058172;0.5914127;-1;-2;-1;2341;3190;728;16;0.7132345;-0.6855956;-0.03601108;-0.1412742;2;-2;0;547;4020;16;2;0.4612188;-0.5990189;-0.5;-0.4224377;0;-3;0;833;3990;-317;8;0.4418283;-0.8860056;0.07479224;0.1191136;0;-2;-1;105;3233;2429;0.4174848;2.513537;1.078366;0.4234446;3.056659;1.129393;0.4286852;3.534253;1.172233;0.5647619;4.253024;1.229798;0.3716189;4.623549;1.217365;0.009345651;4.544818;1.269314;-0.7225191;4.848335;0.7891264;0.01044995;5.199009;1.276549;0.8828818;4.526761;1.217364;1.139835;4.330802;1.269313;0.9926975;3.438104;1.600546;0.4266586;2.67863;1.624772;0.1052403;2.472373;1.066489;0.1407673;1.330098;0.1528133;0;0;0;0.1052403;2.472373;1.066489;0.1407673;1.330098;0.1528133;0;0;0
1853727.7904;NotLabelled;16384;0.7109393;0.3905817;0.5512465;0.1952908;-19;4;3;3022;-1280;2573;65536;-0.5789474;-0.5826648;0.4542936;0.3448753;-14;4;-11;3805;-1712;-269;8192;0.5180055;-0.7609288;-0.3282548;-0.2119114;5;-9;0;958;3849;-911;32768;0.5747922;-0.7589346;0.2728532;-0.1385041;-7;-2;5;2309;3259;802;256;0.09418282;-0.2409972;-0.6731302;-0.6927812;-8;-15;11;631;3902;-297;128;0.05817174;0.1121884;0.5747922;0.8084823;-1;0;-10;-947;3801;1324;4;0.6577854;-0.2299169;0.4058172;0.5914127;-2;-4;0;2385;3118;792;16;0.7132345;-0.6855956;-0.03601108;-0.1412742;2;-1;0;601;4116;-166;2;0.4612188;-0.5990189;-0.5;-0.4224377;-1;0;0;823;4152;-207;8;0.4432133;-0.8853135;0.07479224;0.1191136;1;0;-1;55;3337;2497;0.3976751;2.516387;1.07939;0.4036366;3.059669;1.128684;0.4088789;3.537397;1.169999;0.549341;4.25538;1.226863;0.3584558;4.627063;1.214116;-0.004280508;4.550588;1.266203;-0.7327995;4.862176;0.7860965;0.0009539127;5.206646;1.276752;0.8691198;4.527163;1.214114;1.124885;4.329691;1.266202;0.969599;3.437398;1.594797;0.3997871;2.680568;1.612421;0.08543;2.475185;1.067655;0.1332818;1.330282;0.1578387;0;0;0;0.08543;2.475185;1.067655;0.1332818;1.330282;0.1578387;0;0;0
1853748.7834;NotLabelled;16384;0.7109326;0.3919668;0.5512465;0.1925208;-21;5;4;3006;-1240;2625;65536;-0.5789474;-0.5810163;0.4542936;0.3476454;-15;3;-12;3831;-1690;-163;8192;0.5180055;-0.7615248;-0.3268698;-0.2119114;6;-11;0;1014;3755;-891;32768;0.5734072;-0.7599815;0.2728532;-0.1385041;-10;-2;6;2307;3185;788;256;0.09556787;-0.2437673;-0.6731302;-0.6916214;-10;-19;13;733;3926;-307;128;0.05817174;0.1135734;0.5734072;0.8092721;-5;-1;-12;-929;3687;1426;4;0.6570209;-0.2285319;0.4058172;0.5927978;-1;-6;3;2423;3130;816;16;0.7144923;-0.6842105;-0.03739612;-0.1412742;0;5;0;689;4102;-116;2;0.4612188;-0.5990189;-0.5;-0.4224377;-1;-1;0;941;4136;-293;8;0.4432133;-0.8851261;0.07479224;0.1204986;1;-1;0;149;3315;2515;0.3953777;2.516387;1.07957;0.4013392;3.059671;1.128849;0.4065815;3.5374;1.170151;0.548474;4.2551;1.227037;0.3583297;4.627162;1.2143;-0.004558325;4.551409;1.266385;-0.7314557;4.865978;0.7857649;0.003977001;5.208356;1.275369;0.8687936;4.526245;1.214297;1.124164;4.328262;1.266379;0.9662304;3.435933;1.59361;0.3941318;2.680854;1.612233;0.08313271;2.475185;1.067836;0.1329419;1.330282;0.1581251;0;0;0;0.08313271;2.475185;1.067836;0.1329419;1.330282;0.1581251;0;0;0
1853770.9012;NotLabelled;16384;0.7098362;0.3933518;0.5526316;0.1897507;-23;9;4;2954;-1294;2579;65536;0.5818114;0.5775623;-0.4529086;-0.3504155;-19;4;-13;3779;-1596;-163;8192;0.5180055;-0.7621178;-0.3254848;-0.2119114;6;-13;2;920;3775;-869;32768;0.5720221;-0.7605266;0.2742382;-0.1385041;-12;-4;7;2371;3173;770;256;0.09695291;-0.2506925;-0.6745152;-0.6875919;-9;-20;14;719;4024;-247;128;0.06094183;0.1177285;0.5720221;0.8094546;-6;-2;-12;-1007;3831;1338;4;0.657501;-0.2271468;0.4058172;0.5927978;-2;-10;4;2401;3110;824;16;0.714217;-0.6842105;-0.03739612;-0.1426593;0;-2;-1;839;4080;-194;2;0.4612188;-0.5999932;-0.5;-0.4210526;0;-6;0;841;4004;-345;8;0.4432133;-0.8851261;0.07479224;0.1204986;1;-3;-1;83;3309;2367;0.383189;2.514996;1.084805;0.3891487;3.0581;1.136035;0.3943893;3.535677;1.179053;0.5377735;4.253109;1.235569;0.3483992;4.625559;1.222666;-0.01463997;4.550584;1.274822;-0.7395494;4.869789;0.7942564;-0.003687859;5.207973;1.286126;0.8586532;4.523584;1.222665;1.113618;4.325099;1.274822;0.9531673;3.432754;1.600783;0.379922;2.678529;1.618739;0.07094452;2.473836;1.072911;0.1267516;1.330466;0.1616223;0;0;0;0.07094452;2.473836;1.072911;0.1267516;1.330466;0.1616223;0;0;0
1853791.7831;NotLabelled;16384;0.7071719;0.3975069;0.5554016;0.1828255;-23;12;3;2930;-1460;2527;65536;0.5825578;0.5734072;-0.4529086;-0.3559557;-22;2;-13;3857;-1496;-231;8192;0.5180055;-0.7630913;-0.3240997;-0.2105263;6;-17;1;906;3759;-885;32768;0.5706371;-0.7605631;0.2770083;-0.1385041;-14;-9;8;2459;3183;668;256;0.09695291;-0.2520775;-0.6759003;-0.6857229;-9;-19;14;703;4054;-215;128;0.06094183;0.1191136;0.5720221;0.809252;0;-1;-11;-1001;3851;1300;4;0.6567274;-0.2257618;0.4058172;0.5941828;-1;-12;5;2435;3184;862;16;0.714217;-0.6842105;-0.03739612;-0.1426593;0;0;-1;557;4076;-142;2;0.4626039;-0.6000795;-0.4986149;-0.4210526;0;-4;-2;805;4048;-217;8;0.4432133;-0.8850079;0.07617728;0.1204986;0;-1;0;91;3317;2365;0.3739455;2.512242;1.090067;0.3799032;3.05516;1.143224;0.385142;3.532582;1.187936;0.535073;4.248913;1.241359;0.3490717;4.623007;1.227068;-0.01458704;4.551544;1.279836;-0.7348404;4.874117;0.7945418;0.001239181;5.210182;1.287536;0.8583801;4.51641;1.227068;1.11158;4.315838;1.279835;0.9454995;3.423471;1.602905;0.3698044;2.671015;1.615987;0.06170145;2.471125;1.078014;0.1270089;1.330098;0.1644219;0;0;0;0.06170145;2.471125;1.078014;0.1270089;1.330098;0.1644219;0;0;0
1853812.7752;NotLabelled;16384;0.7063644;0.398892;0.5567867;0.1786704;-23;12;3;2904;-1436;2465;65536;0.5835777;0.5706371;-0.4529086;-0.3587258;-24;2;-13;3933;-1456;-239;8192;0.5180055;-0.7661772;-0.3185596;-0.2077562;7;-22;2;1002;3819;-927;32768;0.566482;-0.762143;0.2811634;-0.1385041;-17;-13;9;2499;3201;922;256;0.09833795;-0.2562327;-0.6759003;-0.6839834;-9;-19;14;819;3990;-295;128;0.06232687;0.1204986;0.5720221;0.8089414;2;0;-11;-1055;3895;1374;4;0.655947;-0.2243767;0.4058172;0.5955678;-2;-12;6;2573;3088;896;16;0.7144923;-0.6842105;-0.03739612;-0.1412742;0;2;-2;657;4088;-166;2;0.4626039;-0.6000795;-0.4986149;-0.4210526;-2;-6;-4;925;4132;-275;8;0.4432133;-0.8851261;0.07479224;0.1204986;0;2;0;135;3297;2429;0.3716159;2.510709;1.092062;0.3775733;3.05362;1.145297;0.3828121;3.531035;1.190077;0.5349276;4.247107;1.240727;0.3500353;4.621701;1.225194;-0.01379412;4.551523;1.278509;-0.7365496;4.883753;0.8035594;0.006469131;5.211293;1.29186;0.8590221;4.513581;1.225194;1.111663;4.312448;1.278508;0.9446973;3.420546;1.602406;0.3655225;2.670773;1.615961;0.05937174;2.469594;1.080003;0.1267142;1.330098;0.1646489;0;0;0;0.05937174;2.469594;1.080003;0.1267142;1.330098;0.1646489;0;0;0
1853832.7922;NotLabelled;16384;0.7062761;0.400277;0.5567867;0.1759003;-26;11;5;2968;-1574;2517;65536;0.5847828;0.567867;-0.4515235;-0.3628809;-24;0;-14;3859;-1412;-121;8192;0.5180055;-0.7676967;-0.3157895;-0.2063712;7;-22;3;1052;3867;-1023;32768;0.5637119;-0.7634193;0.2839335;-0.1371191;-17;-8;10;2501;3185;942;256;0.09833795;-0.2590028;-0.6759003;-0.6829392;-11;-19;16;955;3976;-305;128;0.06371191;0.1204986;0.5720221;0.8088335;5;3;-10;-1133;3733;1282;4;0.6551598;-0.2229917;0.4058172;0.5969529;-2;-10;5;2649;3150;818;16;0.7128135;-0.6855956;-0.03878116;-0.1426593;-2;6;-2;727;4128;-68;2;0.4639889;-0.5990093;-0.4986149;-0.4210526;-2;-4;-4;887;3942;-395;8;0.4432133;-0.8851261;0.07479224;0.1204986;0;2;-1;193;3161;2481;0.3599559;2.509548;1.093112;0.3659133;3.05246;1.146334;0.3711522;3.529876;1.191104;0.5262446;4.245334;1.241393;0.3429077;4.620686;1.225698;-0.02120423;4.552045;1.279084;-0.7409766;4.88931;0.8031547;0.002652884;5.212518;1.293409;0.8514413;4.510452;1.225698;1.10325;4.308298;1.279083;0.9301636;3.417287;1.602218;0.3441257;2.672897;1.617388;0.04771179;2.468432;1.081054;0.1230944;1.330466;0.1644249;0;0;0;0.04771179;2.468432;1.081054;0.1230944;1.330466;0.1644249;0;0;0
1853853.8152;NotLabelled;16384;0.7046282;0.4030471;0.5581717;0.1717452;-26;15;8;3000;-1680;2497;65536;0.58574;0.5650969;-0.4515235;-0.365651;-24;0;-15;3951;-1270;-119;8192;0.5166205;-0.7704991;-0.3130194;-0.2036011;7;-22;4;1048;3761;-1197;32768;0.5609418;-0.764174;0.2867036;-0.1385041;-15;0;10;2467;3163;836;256;0.09833795;-0.2617728;-0.6772853;-0.6805066;-12;-19;16;1089;3980;-303;128;0.06509695;0.1218837;0.5734072;0.8075339;5;0;-10;-1105;3713;1462;4;0.6569508;-0.2202216;0.4044321;0.5969529;-3;0;4;2557;3210;880;16;0.7124581;-0.6855956;-0.0401662;-0.1440443;-1;9;0;649;4094;116;2;0.4639889;-0.5991854;-0.4972299;-0.4224377;-2;3;-2;659;3858;-363;8;0.4432133;-0.8851261;0.07479224;0.1204986;0;0;-3;223;3251;2411;0.3580641;2.508259;1.09078;0.3640217;3.05118;1.143909;0.3692607;3.528605;1.188596;0.5272442;4.243426;1.23893;0.3454266;4.619517;1.223255;-0.01896065;4.552346;1.276632;-0.7362098;4.894217;0.8001795;0.01125759;5.213044;1.287456;0.8535103;4.507229;1.223254;1.104499;4.304054;1.276631;0.928319;3.413489;1.599323;0.3390642;2.671718;1.617814;0.04582006;2.467142;1.07873;0.1255832;1.330703;0.1605784;0;0;0;0.04582006;2.467142;1.07873;0.1255832;1.330703;0.1605784;0;0;0
1853873.7767;NotLabelled;16384;0.705163;0.4044321;0.5581717;0.166205;-25;19;11;2940;-1788;2345;65536;0.5879938;0.5609418;-0.4515235;-0.368421;-23;-2;-16;4003;-1084;-251;8192;0.5166205;-0.7719827;-0.3102493;-0.2022161;7;-23;5;1130;3763;-1337;32768;0.5595568;-0.7651888;0.2867036;-0.1385041;-14;4;9;2471;3097;756;256;0.09695291;-0.267313;-0.6799284;-0.6759003;-9;-16;13;1135;3856;-281;128;0.06509695;0.1260388;0.5747922;0.8059098;10;-7;-12;-949;3713;1468;4;0.6569508;-0.2202216;0.4044321;0.5969529;-4;0;3;2389;3316;842;16;0.7121767;-0.6855956;-0.0401662;-0.1454294;0;12;2;697;4058;156;2;0.4639889;-0.5991854;-0.4972299;-0.4224377;0;-1;0;533;3924;-397;8;0.4432133;-0.8848183;0.07617728;0.1218837;-1;-4;-2;255;3365;2321;0.3541697;2.501751;1.098618;0.3601293;3.044855;1.149848;0.3653699;3.522432;1.192864;0.5270166;4.236623;1.240435;0.3470947;4.613572;1.223522;-0.01758367;4.548446;1.277443;-0.7343102;4.89656;0.8047386;0.01583892;5.210971;1.290762;0.8546027;4.498709;1.223522;1.104602;4.294462;1.277442;0.9239331;3.405954;1.603305;0.3288479;2.66886;1.622115;0.04192513;2.460591;1.086724;0.1250416;1.330729;0.1607866;0;0;0;0.04192513;2.460591;1.086724;0.1250416;1.330729;0.1607866;0;0;0
1853914.9514;NotLabelled;16384;0.7050923;0.4099723;0.5581717;0.1523546;-18;13;13;2504;-2040;2211;65536;0.588874;0.5512465;-0.4542936;-0.3781163;-14;-1;-15;3815;-702;-621;8192;0.5152354;-0.7767231;-0.3033241;-0.1980609;3;-16;0;1288;3873;-1299;32768;0.5554016;-0.7669192;0.2894737;-0.1398892;-6;-2;5;2353;3525;694;256;0.09695291;-0.2714681;-0.6810294;-0.6731302;-2;-17;10;1069;3868;-361;128;0.06648199;0.1301939;0.5747922;0.8051358;0;-8;-9;-1263;3781;1554;4;0.6570194;-0.2174515;0.4058172;0.5969529;-8;-5;0;2469;3048;780;16;0.7115259;-0.6855956;-0.04155125;-0.1481994;-1;4;0;697;4044;48;2;0.4653739;-0.599259;-0.4958449;-0.4224377;0;-6;0;601;4182;-265;8;0.4432133;-0.8846264;0.07617728;0.1232687;-1;-2;-2;19;3337;2477;0.3498266;2.501417;1.100029;0.3557878;3.044672;1.149617;0.3610299;3.522378;1.191189;0.5313108;4.234869;1.233888;0.3559005;4.613834;1.214795;-0.009449422;4.553444;1.269673;-0.7219994;4.909496;0.7965672;0.03141087;5.219322;1.280487;0.8619925;4.492885;1.214794;1.109606;4.286003;1.269671;0.9255776;3.397943;1.594877;0.3293174;2.661779;1.612869;0.03758162;2.460221;1.08827;0.1262966;1.330359;0.1628522;0;0;0;0.03758162;2.460221;1.08827;0.1262966;1.330359;0.1628522;0;0;0
1853935.9004;NotLabelled;16384;0.7043614;0.4127424;0.5581717;0.1481994;-14;8;13;2532;-2006;2103;65536;0.5886052;0.5484765;-0.4556787;-0.3808864;-9;0;-13;3843;-742;-721;8192;0.5152354;-0.7776142;-0.301939;-0.1966759;2;-12;0;1360;3953;-1329;32768;0.5554016;-0.7669192;0.2894737;-0.1398892;-3;1;3;2367;3469;790;256;0.09556787;-0.2728532;-0.6806715;-0.6731302;-7;-19;10;769;4272;-279;128;0.06648199;0.132964;0.5734072;0.8056705;-1;-8;-8;-1227;3679;1550;4;0.6566193;-0.2160665;0.4072022;0.5969529;-7;-8;0;2541;2942;842;16;0.7112361;-0.6855956;-0.04155125;-0.1495845;0;3;0;643;4032;-166;2;0.466759;-0.6003001;-0.4944598;-0.4210526;-1;-7;1;761;4130;-211;8;0.4432133;-0.8846264;0.07617728;0.1232687;-1;-1;-2;101;3311;2545;0.3518075;2.498202;1.1054;0.3577686;3.041444;1.155138;0.3630105;3.519138;1.196844;0.5382917;4.230544;1.237351;0.3655177;4.610668;1.217277;-0.0002057552;4.55299;1.272584;-0.7065178;4.930554;0.8068618;0.05810732;5.220214;1.285654;0.8707526;4.486187;1.217276;1.116955;4.277742;1.272583;0.9250723;3.392202;1.600112;0.3219044;2.661729;1.61973;0.03956264;2.45701;1.093628;0.1276172;1.33001;0.164664;0;0;0;0.03956264;2.45701;1.093628;0.1276172;1.33001;0.164664;0;0;0
1853956.8795;NotLabelled;16384;0.7052215;0.4141274;0.5567867;0.1454294;-11;1;12;2552;-1874;2171;65536;0.587922;0.5470914;-0.4570637;-0.3822715;-6;2;-12;3865;-758;-609;8192;0.5138504;-0.7794142;-0.300554;-0.1952908;1;-5;0;1392;4053;-1427;32768;0.5540166;-0.7679203;0.2894737;-0.1398892;-1;9;2;2337;3337;970;256;0.09695291;-0.2770083;-0.6801655;-0.6717451;0;-26;7;1105;3860;-307;128;0.06509695;0.134349;0.5747922;0.8045661;6;-11;-7;-1067;3721;1324;4;0.6562642;-0.2132964;0.4072022;0.5983379;-5;-9;0;2663;2816;612;16;0.7114437;-0.6855956;-0.04293629;-0.1481994;-2;0;-1;377;3860;-144;2;0.466759;-0.6012692;-0.4944598;-0.4196676;0;-7;2;693;3984;-283;8;0.4418283;-0.8850047;0.07756232;0.1246537;-2;-6;-2;123;3219;2407;0.358297;2.497281;1.107956;0.3642561;3.04033;1.159757;0.3694961;3.517862;1.203277;0.5473667;4.228557;1.244961;0.3759942;4.609342;1.225414;0.0100404;4.552919;1.28049;-0.6959224;4.937843;0.8202953;0.07212555;5.220748;1.297646;0.8807698;4.483011;1.225413;1.126185;4.273579;1.280489;0.9342163;3.388495;1.609198;0.3310397;2.658022;1.628554;0.0460526;2.456134;1.096015;0.1297682;1.32963;0.1660475;0;0;0;0.0460526;2.456134;1.096015;0.1297682;1.32963;0.1660475;0;0;0
1853977.7916;NotLabelled;16384;0.705783;0.4155124;0.5554016;0.1440443;-10;0;12;2604;-1978;2253;65536;0.5874014;0.5457063;-0.4570637;-0.3850415;-3;3;-12;3921;-890;-525;8192;0.5138504;-0.7794142;-0.300554;-0.1952908;0;1;1;1340;4013;-1345;32768;0.5540166;-0.7681876;0.2880886;-0.1412742;0;13;1;2379;3319;878;256;0.09279778;-0.2742382;-0.6818654;-0.6717451;-12;6;3;585;3862;-439;128;0.06371191;0.1385041;0.5761772;0.8029802;13;-5;-3;-1247;3661;1538;4;0.6545857;-0.2119114;0.4085872;0.599723;-3;-5;0;2597;2836;564;16;0.7101064;-0.6869806;-0.04293629;-0.1481994;-2;4;-1;281;3926;-248;2;0.468144;-0.6013298;-0.4930748;-0.4196676;0;-6;2;707;3940;-273;8;0.4418283;-0.8848085;0.07756232;0.1260388;-3;-3;-1;121;3251;2345;0.3458325;2.494205;1.109998;0.3517932;3.037415;1.160089;0.3570348;3.515081;1.202106;0.5376652;4.22504;1.24447;0.367783;4.606507;1.225227;0.001599371;4.551462;1.28017;-0.6969589;4.942092;0.8135297;0.06841183;5.220545;1.29775;0.8720623;4.47821;1.225226;1.116647;4.267773;1.280169;0.9186953;3.384327;1.609735;0.3142834;2.654816;1.626672;0.03358763;2.453021;1.098197;0.1240367;1.330411;0.164161;0;0;0;0.03358763;2.453021;1.098197;0.1240367;1.330411;0.164161;0;0;0
1854018.8146;NotLabelled;16384;0.707416;0.4196676;0.5512465;0.1398892;-9;-2;17;2658;-1834;2329;65536;0.5857825;0.5443213;-0.4584487;-0.3878116;-4;2;-10;3921;-1098;-121;8192;0.5138504;-0.7788787;-0.301939;-0.1952908;1;0;3;1184;3903;-1261;32768;0.5540166;-0.7684497;0.2867036;-0.1426593;1;8;2;2553;3251;846;256;0.09141274;-0.2728532;-0.6826077;-0.6717451;-6;15;2;1219;3720;-203;128;0.06232687;0.1398892;0.5761772;0.8028488;3;-4;-1;-1213;3577;1450;4;0.6545857;-0.2119114;0.4085872;0.599723;0;-3;-1;2667;2828;536;16;0.7100213;-0.6869806;-0.04432133;-0.1481994;-2;4;-2;135;3782;-344;2;0.468144;-0.6022941;-0.4930748;-0.4182825;0;-7;1;747;4068;-227;8;0.4418283;-0.8848085;0.07756232;0.1260388;-2;-1;-1;121;3259;2325;0.3632761;2.494799;1.105194;0.3692385;3.038148;1.153741;0.3744813;3.515933;1.194399;0.5571556;4.225501;1.23448;0.3883404;4.607388;1.214216;0.02204502;4.553547;1.269606;-0.6796912;4.94822;0.8112079;0.0933882;5.222191;1.285639;0.892254;4.477662;1.214215;1.136283;4.266698;1.269605;0.9420501;3.383253;1.601376;0.3376815;2.65385;1.623686;0.05103099;2.453581;1.093521;0.1289737;1.33059;0.1588146;0;0;0;0.05103099;2.453581;1.093521;0.1289737;1.33059;0.1588146;0;0;0
1854040.9316;NotLabelled;16384;0.7079012;0.4238227;0.5484765;0.1357341;-11;0;21;2518;-1866;2363;65536;0.5855844;0.5415512;-0.4584487;-0.3919668;-13;7;-10;3835;-1160;-59;8192;0.5152354;-0.7777708;-0.3033241;-0.1939058;-9;5;0;1152;3831;-1315;32768;0.5554016;-0.7671905;0.2867036;-0.1440443;4;-8;0;2377;3177;696;256;0.08310249;-0.2645429;-0.6882793;-0.6703601;-11;26;0;1229;3632;-153;128;0.06232687;0.1412742;0.5761772;0.8026062;-1;0;0;-1173;3533;1492;4;0.6541782;-0.2119114;0.4072022;0.601108;4;-3;-2;2567;2824;534;16;0.7111807;-0.6855956;-0.04709141;-0.1481994;-1;0;-3;613;4064;-436;2;0.468144;-0.6032536;-0.4930748;-0.4168975;0;0;4;915;3988;-293;8;0.4404432;-0.8851781;0.07894737;0.1274238;-1;-3;-1;29;3321;2577;0.3658446;2.49519;1.103362;0.3718067;3.038524;1.152083;0.3770493;3.516295;1.192894;0.5600155;4.225851;1.23183;0.3913408;4.607774;1.211054;0.02504629;4.55416;1.266668;-0.6725503;4.960893;0.8125142;0.1044911;5.228236;1.284246;0.8952038;4.477851;1.211053;1.139173;4.266877;1.266668;0.9477354;3.383436;1.600072;0.3433007;2.65414;1.624003;0.05359948;2.453976;1.091674;0.1275438;1.330986;0.1566431;0;0;0;0.05359948;2.453976;1.091674;0.1275438;1.330986;0.1566431;0;0;0
1854061.9311;NotLabelled;16384;0.7097349;0.4252077;0.5457063;0.132964;-12;0;22;2686;-1882;2487;65536;0.5848058;0.5415512;-0.4570637;-0.3947368;-18;10;-13;3627;-1046;41;8192;0.5166205;-0.7763093;-0.3047091;-0.1939058;-10;7;-1;1048;3939;-1327;32768;0.5567867;-0.7659255;0.2880886;-0.1426593;3;-9;-3;2333;3185;890;256;0.08171745;-0.2631579;-0.6903206;-0.6689751;-10;0;0;1127;3840;23;128;0.06232687;0.1412742;0.5747922;0.8035987;-1;0;1;-1139;3735;1360;4;0.6542119;-0.2105263;0.4058172;0.602493;2;-4;6;3023;3406;770;16;0.7102212;-0.6869806;-0.04570637;-0.1468144;-6;0;0;749;4354;-46;2;0.468144;-0.6042085;-0.4930748;-0.4155124;1;-6;3;733;4056;-81;8;0.4404432;-0.8851781;0.07894737;0.1274238;0;-3;1;103;3377;2335;0.3817891;2.494753;1.103529;0.3877511;3.03808;1.152336;0.3929937;3.515844;1.193223;0.5783075;4.225251;1.222597;0.4107619;4.607414;1.197548;0.04448658;4.555668;1.255028;-0.6604376;4.973173;0.8224765;0.1331986;5.233628;1.269804;0.9142128;4.475904;1.197547;1.157702;4.264876;1.255026;0.9799052;3.38073;1.594068;0.3759541;2.651495;1.629367;0.06954393;2.453541;1.091834;0.1241892;1.331583;0.1542389;0;0;0;0.06954393;2.453541;1.091834;0.1241892;1.331583;0.1542389;0;0;0
1854103.8176;NotLabelled;16384;0.7106209;0.4293629;0.5429363;0.1260388;-14;8;16;2438;-2062;2229;65536;0.58411;0.536011;-0.4584487;-0.4016621;-11;4;-17;3915;-442;-909;8192;0.5166205;-0.7757643;-0.3060942;-0.1939058;-9;9;-1;1024;3833;-1283;32768;0.5567867;-0.7659255;0.2880886;-0.1426593;3;-1;-4;2417;3049;1134;256;0.08310249;-0.265928;-0.6904345;-0.66759;2;-9;7;975;4198;-159;128;0.06094183;0.1398892;0.5747922;0.8039472;0;-2;2;-981;4019;1510;4;0.6537925;-0.2105263;0.4044321;0.6038781;1;1;7;2927;3280;768;16;0.7088789;-0.6883656;-0.04570637;-0.1468144;-8;3;0;665;4016;0;2;0.468144;-0.6042085;-0.4930748;-0.4155124;0;-4;3;875;4114;-125;8;0.4404432;-0.8851781;0.07894737;0.1274238;0;-2;0;193;3321;2579;0.3865966;2.491444;1.103421;0.3925569;3.034597;1.154124;0.3977978;3.512216;1.196677;0.5840663;4.221524;1.222138;0.4169796;4.60377;1.195342;0.05071616;4.552796;1.253582;-0.6514244;4.977062;0.8230863;0.1460239;5.235347;1.264857;0.9202603;4.471609;1.19534;1.163555;4.260565;1.25358;0.9910741;3.375265;1.592356;0.3884625;2.644972;1.628674;0.07435197;2.450273;1.09157;0.1278774;1.331738;0.1498315;0;0;0;0.07435197;2.450273;1.09157;0.1278774;1.331738;0.1498315;0;0;0
1854124.8764;NotLabelled;16384;0.711325;0.4307479;0.5415512;0.1232687;-7;2;10;2290;-2258;1869;65536;0.5836452;0.533241;-0.4598338;-0.4044321;-1;5;-11;3969;-136;-1151;8192;0.5180055;-0.7748401;-0.3060942;-0.1939058;-4;2;2;992;3767;-1169;32768;0.5567867;-0.766445;0.2867036;-0.1426593;3;6;-4;2567;3075;1140;256;0.08171745;-0.2645429;-0.6911315;-0.66759;0;-13;4;1205;4260;93;128;0.06094183;0.1398892;0.5747922;0.8039472;-1;1;2;-935;3905;1398;4;0.6542369;-0.2091413;0.4044321;0.6038781;-1;6;5;2443;3090;786;16;0.7085906;-0.6883656;-0.04570637;-0.1481994;-9;1;0;835;4078;-20;2;0.468144;-0.6051586;-0.4930748;-0.4141274;0;0;2;1137;4150;-203;8;0.4404432;-0.8850535;0.08033241;0.1274238;0;0;0;39;3265;2565;0.3819718;2.487802;1.104841;0.3879319;3.030956;1.155538;0.3931729;3.508574;1.198087;0.5812359;4.217441;1.222667;0.4152681;4.600069;1.194411;0.04865831;4.550198;1.251414;-0.6431796;4.987872;0.8176738;0.1623609;5.225255;1.25648;0.9181913;4.466572;1.196556;1.160707;4.255012;1.256158;0.9882947;3.369121;1.593423;0.3866258;2.637906;1.626688;0.06972715;2.446631;1.092991;0.1300719;1.331899;0.1464761;0;0;0;0.06568059;2.449373;1.088794;0.1300719;1.331899;0.1464761;0;0;0
1854144.984;NotLabelled;16384;0.7123774;0.4307479;0.5401662;0.1232687;0;-8;4;2124;-2168;1861;65536;0.5825512;0.533241;-0.4612188;-0.4044321;6;9;-2;4129;-156;-909;8192;0.5180055;-0.7742915;-0.3074792;-0.1939058;-1;-1;3;1012;3881;-925;32768;0.5567867;-0.7672167;0.2839335;-0.1440443;0;12;0;2541;3229;820;256;0.07894737;-0.2631579;-0.6906429;-0.6689751;-1;-15;1;925;4076;-3;128;0.06094183;0.1385041;0.5747922;0.8041869;-2;1;1;-903;3813;1232;4;0.6555126;-0.2091413;0.4044321;0.602493;-3;4;1;2345;2982;814;16;0.7075312;-0.6897507;-0.04570637;-0.1468144;-7;-6;-1;699;4112;126;2;0.468144;-0.6040275;-0.4944598;-0.4141274;1;2;3;1037;4046;-133;8;0.4404432;-0.8851781;0.07894737;0.1274238;0;2;1;77;3269;2499;0.3866343;2.487802;1.104533;0.3925944;3.030956;1.155231;0.3978354;3.508574;1.197779;0.5860015;4.217441;1.221557;0.4199145;4.600069;1.194009;0.05355138;4.550198;1.252576;-0.639025;4.993774;0.8260713;0.1683801;5.231157;1.261437;0.9228424;4.466572;1.194008;1.16561;4.255011;1.252575;0.9962252;3.368572;1.589931;0.3947039;2.637357;1.625763;0.07438967;2.44663;1.092683;0.1329757;1.331534;0.1471748;0;0;0;0.07438967;2.44663;1.092683;0.1329757;1.331534;0.1471748;0;0;0
1854165.7974;NotLabelled;16384;0.7112967;0.432133;0.5401662;0.1246537;5;-12;-2;2246;-2154;2009;65536;0.5804862;0.533241;-0.4626039;-0.4058172;10;9;5;4191;-186;-613;8192;0.5193906;-0.7737091;-0.3074792;-0.1925208;-3;-4;0;1018;3931;-877;32768;0.5567867;-0.7677279;0.2825485;-0.1440443;-3;6;-1;2479;3269;696;256;0.07617728;-0.2603878;-0.690661;-0.6703601;1;-8;-1;1257;4084;-321;128;0.06094183;0.1385041;0.5747922;0.8041869;-2;-1;3;-1001;3859;1220;4;0.6555126;-0.2091413;0.4044321;0.602493;-3;3;0;2501;3074;688;16;0.7062666;-0.6911357;-0.04432133;-0.1468144;-6;-7;-2;527;4070;90;2;0.466759;-0.6050984;-0.4944598;-0.4141274;0;4;2;861;4012;-311;8;0.4404432;-0.8851781;0.07894737;0.1274238;-1;2;1;71;3357;2347;0.3957613;2.48745;1.09979;0.4017215;3.030612;1.150402;0.4069626;3.508237;1.192875;0.5960731;4.216793;1.218363;0.4305208;4.599706;1.191578;0.06405538;4.5502;1.249814;-0.6289341;4.994933;0.8251883;0.180306;5.230149;1.258318;0.9332672;4.465528;1.191577;1.175714;4.253508;1.249812;1.00964;3.367095;1.588878;0.4093091;2.635062;1.62783;0.08351669;2.446277;1.087947;0.13461;1.332039;0.1409929;0;0;0;0.08351669;2.446277;1.087947;0.13461;1.332039;0.1409929;0;0;0
1854185.7938;NotLabelled;16384;0.7121027;0.432133;0.5387812;0.1260388;8;-10;-8;2180;-2172;2047;65536;0.5792108;0.534626;-0.4626039;-0.4058172;10;8;12;4005;-450;-245;8192;0.5207756;-0.7733271;-0.3060942;-0.1925208;-5;-8;-1;1134;3957;-877;32768;0.5567867;-0.7677279;0.2825485;-0.1440443;-4;-5;-2;2275;3289;672;256;0.0734072;-0.2562327;-0.6898203;-0.6731302;0;1;-3;1165;3942;-475;128;0.05955679;0.1385041;0.5747922;0.8042907;-1;-3;3;-1013;3815;1350;4;0.6567829;-0.2091413;0.4044321;0.601108;-1;6;0;2447;3140;642;16;0.7051957;-0.6925207;-0.04432133;-0.1454294;-4;1;1;361;3970;104;2;0.466759;-0.6030118;-0.4958449;-0.4155124;0;3;0;693;4062;-289;8;0.4404432;-0.8853764;0.07894737;0.1260388;-2;4;2;153;3285;2457;0.4097227;2.487188;1.096404;0.415683;3.030349;1.147015;0.4209239;3.507975;1.189489;0.6097932;4.216572;1.215589;0.444119;4.599452;1.189078;0.07765764;4.549777;1.247194;-0.6200864;4.994088;0.829977;0.1924603;5.224941;1.259246;0.9469106;4.465442;1.189077;1.189414;4.253456;1.247193;1.029646;3.366369;1.587526;0.4308139;2.63342;1.63193;0.09747818;2.446015;1.08456;0.1409487;1.331777;0.1372257;0;0;0;0.09747818;2.446015;1.08456;0.1409487;1.331777;0.1372257;0;0;0
1854207.0611;NotLabelled;16384;0.710556;0.432133;0.5401662;0.1288089;8;-10;-14;2168;-2062;2211;65536;0.5787203;0.5373961;-0.4612188;-0.4044321;6;3;13;3805;-722;-21;8192;0.5207756;-0.7736706;-0.3060942;-0.1911357;-6;-7;-1;1246;3911;-1069;32768;0.5567867;-0.7677317;0.2839335;-0.1412742;-5;-14;-4;2197;3291;964;256;0.06509695;-0.2451524;-0.6919693;-0.6759003;-2;10;-6;933;3922;-185;128;0.05817174;0.1371191;0.5734072;0.8056169;-3;-4;4;-941;3741;1304;4;0.657606;-0.2105263;0.4044321;0.599723;0;5;-1;2293;3018;730;16;0.7051957;-0.6925207;-0.04432133;-0.1454294;-3;4;2;245;3910;34;2;0.466759;-0.6030118;-0.4958449;-0.4155124;0;0;-1;743;3994;-301;8;0.4404432;-0.8856949;0.07756232;0.1246537;-3;5;2;47;3247;2509;0.4232128;2.486796;1.091021;0.4291729;3.029949;1.141711;0.4344141;3.50757;1.184254;0.6211611;4.216638;1.212725;0.454375;4.599107;1.187271;0.0880146;4.548165;1.244927;-0.6126176;4.99206;0.8321302;0.202792;5.223144;1.255809;0.9575609;4.466586;1.187271;1.200644;4.255138;1.244926;1.045154;3.366875;1.584172;0.44679;2.633926;1.634493;0.1109681;2.445624;1.079171;0.1429872;1.332248;0.1303681;0;0;0;0.1109681;2.445624;1.079171;0.1429872;1.332248;0.1303681;0;0;0
1854227.7806;NotLabelled;16384;0.7076736;0.432133;0.5429363;0.132964;5;-7;-18;2646;-1816;2357;65536;0.5804613;0.5387812;-0.4598338;-0.4016621;0;-7;10;3705;-1126;-205;8192;0.5221606;-0.7727365;-0.3060942;-0.1911357;-9;-3;-1;1220;3975;-1163;32768;0.5554016;-0.7687256;0.2853186;-0.1385041;-7;-19;-6;2249;3379;1154;256;0.06094183;-0.2396122;-0.6929334;-0.6772853;-3;7;-6;899;3916;-127;128;0.05817174;0.1371191;0.5734072;0.8056169;0;-3;4;-915;3763;1338;4;0.657606;-0.2105263;0.4044321;0.599723;0;-1;0;2207;2976;734;16;0.7051073;-0.6925207;-0.04570637;-0.1454294;-1;9;2;247;3938;-94;2;0.466759;-0.6030118;-0.4958449;-0.4155124;1;-2;0;853;3978;-287;8;0.4390582;-0.8863823;0.07756232;0.1246537;-1;2;1;97;3159;2631;0.4547343;2.488285;1.085696;0.4606925;3.03126;1.138266;0.465932;3.50873;1.182461;0.6502073;4.218551;1.208148;0.4820508;4.600334;1.181452;0.1159272;4.548316;1.239649;-0.6001983;4.987876;0.849417;0.2246839;5.223777;1.251557;0.9857002;4.469586;1.181451;1.229582;4.259208;1.239647;1.085621;3.371419;1.585165;0.4906324;2.637353;1.655327;0.1424901;2.447155;1.073692;0.1467173;1.332249;0.1261557;0;0;0;0.1424901;2.447155;1.073692;0.1467173;1.332249;0.1261557;0;0;0
1854247.777;NotLabelled;16384;0.7069277;0.4307479;0.5443213;0.1357341;6;-4;-16;2744;-1714;2329;65536;0.5825101;0.5387812;-0.4584487;-0.400277;0;-5;12;3855;-1222;-209;8192;0.5235457;-0.7721405;-0.3060942;-0.1897507;-4;-1;3;1310;3779;-1115;32768;0.5554016;-0.7686707;0.2880886;-0.132964;-1;-11;-6;2489;3339;1168;256;0.05817174;-0.234072;-0.6937096;-0.6786703;-2;6;-7;933;3936;-95;128;0.0567867;0.1371191;0.5747922;0.8047282;4;-5;4;-957;3703;1354;4;0.6563402;-0.2105263;0.4044321;0.601108;2;-7;-1;2291;3060;678;16;0.7048202;-0.6925207;-0.04570637;-0.1468144;0;6;0;351;4054;-216;2;0.466759;-0.6050984;-0.4944598;-0.4141274;1;-2;3;993;3966;-321;8;0.4390582;-0.8863823;0.07756232;0.1246537;-1;0;0;131;3165;2627;0.4680216;2.488662;1.082111;0.4739799;3.031637;1.134681;0.4792193;3.509107;1.178876;0.6622166;4.219303;1.203321;0.493356;4.600737;1.176071;0.1273523;4.548149;1.234509;-0.605435;4.980559;0.8679398;0.2234039;5.223233;1.257725;0.997242;4.470902;1.17607;1.24153;4.261063;1.234507;1.109521;3.372137;1.58187;0.5165281;2.637913;1.665902;0.1557775;2.447532;1.070108;0.1462948;1.332626;0.1226093;0;0;0;0.1557775;2.447532;1.070108;0.1462948;1.332626;0.1226093;0;0;0
1854267.7968;NotLabelled;16384;0.7053208;0.4307479;0.5457063;0.1385041;8;-3;-16;2820;-1702;2381;65536;0.5832654;0.5401662;-0.4570637;-0.398892;0;-5;12;3929;-1322;-271;8192;0.5235457;-0.7719293;-0.3074792;-0.1883656;-4;1;5;1350;3697;-1129;32768;0.5567867;-0.7676679;0.2880886;-0.132964;0;-5;-6;2455;3053;1138;256;0.05401662;-0.2299169;-0.6940786;-0.6800554;-2;8;-8;967;3844;-59;128;0.05540166;0.1371191;0.5747922;0.8048248;2;-9;4;-1133;3797;1310;4;0.6563402;-0.2105263;0.4044321;0.601108;4;-9;-1;2465;3030;598;16;0.704729;-0.6925207;-0.04709141;-0.1468144;1;6;1;423;3932;58;2;0.466759;-0.6050984;-0.4944598;-0.4141274;1;-6;3;967;3974;-281;8;0.4390582;-0.8863823;0.07756232;0.1246537;0;-1;0;119;3205;2515;0.4816195;2.489196;1.080043;0.4875796;3.032344;1.130798;0.4928207;3.509959;1.173398;0.6730965;4.220889;1.196689;0.5027608;4.601628;1.168924;0.1369843;4.547725;1.227585;-0.5976853;4.974587;0.8582917;0.2358927;5.22161;1.235021;1.007142;4.473732;1.168923;1.252257;4.264922;1.227584;1.122836;3.375342;1.574245;0.5344799;2.638878;1.670401;0.1693749;2.448026;1.068188;0.1502017;1.332261;0.1218484;0;0;0;0.1693749;2.448026;1.068188;0.1502017;1.332261;0.1218484;0;0;0
1854287.7815;NotLabelled;16384;0.7048188;0.4293629;0.5470914;0.1398892;7;-2;-14;2818;-1698;2413;65536;0.5842102;0.5401662;-0.4570637;-0.3975069;0;-5;12;3889;-1240;-319;8192;0.5235457;-0.7719293;-0.3074792;-0.1883656;-3;2;5;1106;3649;-1071;32768;0.5554016;-0.768909;0.2880886;-0.1315789;-1;-2;-5;2399;3033;982;256;0.05124654;-0.2243767;-0.694743;-0.6814404;-2;8;-8;1039;3902;-113;128;0.05401662;0.1371191;0.5747922;0.8049189;0;-8;4;-1137;3805;1344;4;0.6537925;-0.2105263;0.4044321;0.6038781;3;0;1;2649;3224;824;16;0.7045302;-0.6925207;-0.04570637;-0.1481994;-2;4;3;563;4224;150;2;0.466759;-0.6060439;-0.4944598;-0.4127424;2;-6;3;1005;4010;-207;8;0.4390582;-0.8863823;0.07756232;0.1246537;0;3;1;-19;3245;2475;0.4922923;2.489573;1.076553;0.4982523;3.032714;1.127377;0.5034933;3.510324;1.170038;0.6836928;4.221275;1.193258;0.513315;4.601994;1.165462;0.1475458;4.548055;1.224137;-0.5951643;4.970487;0.8659992;0.2416082;5.222063;1.232495;1.01771;4.474152;1.165461;1.262849;4.265374;1.224136;1.140765;3.376319;1.574782;0.554324;2.638895;1.675183;0.1800477;2.448404;1.064692;0.1494071;1.332639;0.1186551;0;0;0;0.1800477;2.448404;1.064692;0.1494071;1.332639;0.1186551;0;0;0
1854309.9235;NotLabelled;16384;0.704029;0.4279778;0.5484765;0.1426593;7;-2;-13;2870;-1900;2489;65536;0.5849501;0.5415512;-0.4556787;-0.3961219;0;-6;9;3929;-1318;-221;8192;0.5235457;-0.771713;-0.3088643;-0.1869806;-2;0;5;972;3677;-1095;32768;0.5554016;-0.7691447;0.2880886;-0.1301939;-2;-7;-5;2479;3073;950;256;0.04847645;-0.2202216;-0.6949114;-0.6828254;-2;5;-6;949;3906;-23;128;0.05263158;0.1371191;0.5747922;0.8050107;-1;-4;4;-1123;3821;1296;4;0.6537925;-0.2105263;0.4044321;0.6038781;1;3;1;2627;3226;750;16;0.7041463;-0.6925207;-0.04709141;-0.1495845;0;14;5;423;4030;70;2;0.466759;-0.6069849;-0.4944598;-0.4113573;0;0;1;1049;4042;-197;8;0.4390582;-0.8865023;0.07617728;0.1246537;1;1;1;185;3205;2483;0.5058347;2.490532;1.074761;0.5117947;3.033667;1.12565;0.5170355;3.511272;1.168368;0.6944796;4.222947;1.190611;0.5226155;4.602964;1.162379;0.1570775;4.547682;1.221243;-0.5921386;4.966143;0.8721091;0.248567;5.219885;1.227955;1.027503;4.477083;1.162378;1.27347;4.269334;1.221242;1.155748;3.38028;1.573376;0.5714633;2.642809;1.685336;0.19359;2.449365;1.062894;0.1555579;1.331891;0.1191445;0;0;0;0.19359;2.449365;1.062894;0.1555579;1.331891;0.1191445;0;0;0
1854329.7806;NotLabelled;16384;0.7021369;0.4265928;0.5512465;0.1454294;5;4;-12;2960;-1804;2563;65536;0.5878894;0.5415512;-0.4542936;-0.3933518;-6;-11;9;4037;-1334;79;8192;0.5235457;-0.771713;-0.3088643;-0.1869806;-3;-4;4;942;3649;-1075;32768;0.5554016;-0.7688578;0.2894737;-0.1288089;-5;-10;-6;2403;3041;830;256;0.04155125;-0.2105263;-0.6969994;-0.6842105;1;11;-6;989;4032;-17;128;0.05263158;0.1357341;0.5747922;0.8052453;2;4;6;-1031;3835;1260;4;0.6559222;-0.2105263;0.4030471;0.602493;0;2;0;2409;3086;884;16;0.7035521;-0.6925207;-0.04709141;-0.1523546;0;11;3;843;3828;260;2;0.4653739;-0.6069185;-0.4958449;-0.4113573;0;1;1;913;4032;-301;8;0.4390582;-0.886696;0.07617728;0.1232687;1;0;1;93;3279;2495;0.5167305;2.490543;1.07243;0.5226905;3.033672;1.123382;0.5279313;3.511272;1.166154;0.7038653;4.22332;1.188449;0.5311962;4.602975;1.16024;0.1657753;4.546913;1.219095;-0.5897996;4.959764;0.8770566;0.2531229;5.218038;1.224293;1.03635;4.478164;1.160239;1.282756;4.270934;1.219093;1.171497;3.382416;1.574668;0.5899296;2.643941;1.693922;0.204486;2.449377;1.060559;0.1568921;1.331903;0.1172431;0;0;0;0.204486;2.449377;1.060559;0.1568921;1.331903;0.1172431;0;0;0
1854351.9144;NotLabelled;16384;0.7018882;0.4252077;0.5526316;0.1454294;4;9;-11;2892;-1736;2471;65536;0.5888137;0.5415512;-0.4542936;-0.3919668;-7;-14;9;4011;-1276;-203;8192;0.5249307;-0.7716596;-0.3074792;-0.1855956;-3;-8;2;1158;3777;-1081;32768;0.5554016;-0.76902;0.2908587;-0.1246537;-7;-13;-5;2493;3157;894;256;0.03878116;-0.2063712;-0.6970407;-0.6855956;0;12;-6;963;3966;-63;128;0.05263158;0.134349;0.5761772;0.8044875;0;5;5;-1101;3869;1330;4;0.6546223;-0.2119114;0.4044321;0.602493;0;1;-2;2329;3042;852;16;0.7035521;-0.6925207;-0.04709141;-0.1523546;0;-10;1;959;3890;244;2;0.4653739;-0.6069185;-0.4958449;-0.4113573;0;2;2;839;4044;-271;8;0.4390582;-0.886696;0.07617728;0.1232687;2;1;2;113;3293;2449;0.5473696;2.487019;1.072205;0.5533296;3.030156;1.123077;0.5585704;3.507761;1.165779;0.7321414;4.220489;1.184608;0.5581691;4.599431;1.154853;0.1930042;4.542417;1.214377;-0.5753024;4.948402;0.8931143;0.2750967;5.213116;1.216449;1.063738;4.476313;1.154852;1.310903;4.270181;1.214377;1.208475;3.381662;1.572596;0.6303915;2.643072;1.707096;0.235125;2.445851;1.060341;0.1646484;1.331147;0.1151823;0;0;0;0.235125;2.445851;1.060341;0.1646484;1.331147;0.1151823;0;0;0
1854371.7802;NotLabelled;16384;0.701634;0.4238227;0.5540166;0.1454294;4;8;-9;2832;-1810;2367;65536;0.5910023;0.5401662;-0.4542936;-0.3905817;-6;-9;9;3789;-1188;-653;8192;0.5249307;-0.7725416;-0.3060942;-0.1842105;-3;-6;1;1272;3793;-1157;32768;0.5540166;-0.7697169;0.2922437;-0.1232687;-7;-14;-4;2583;3245;872;256;0.03462604;-0.200831;-0.6975138;-0.6869806;-1;13;-4;841;3966;-75;128;0.05263158;0.132964;0.5761772;0.8047175;-1;4;5;-1125;3731;1450;4;0.6546223;-0.2119114;0.4044321;0.602493;0;0;-5;2363;2986;804;16;0.7026654;-0.6939058;-0.04432133;-0.1509695;0;-12;0;435;3918;248;2;0.4653739;-0.6069185;-0.4958449;-0.4113573;0;2;0;863;3998;-333;8;0.4404432;-0.8860089;0.07617728;0.1232687;2;0;2;207;3259;2405;0.5585122;2.491356;1.06449;0.5644742;3.034674;1.113397;0.5697167;3.512431;1.154372;0.7417514;4.225524;1.17344;0.5669662;4.604099;1.143792;0.2019203;4.546281;1.203271;-0.5706538;4.949894;0.8893366;0.2823671;5.216749;1.203884;1.072799;4.482069;1.143791;1.320402;4.276452;1.203269;1.223342;3.387243;1.561266;0.6502247;2.646529;1.705026;0.2462671;2.450146;1.052787;0.1657987;1.331146;0.1135197;0;0;0;0.2462671;2.450146;1.052787;0.1657987;1.331146;0.1135197;0;0;0
1854392.7872;NotLabelled;16384;0.7010856;0.4224377;0.5554016;0.1468144;7;5;-8;2852;-1798;2319;65536;0.5919153;0.5401662;-0.4542936;-0.3891967;-1;-6;7;3781;-1184;-789;8192;0.5263157;-0.7719281;-0.3060942;-0.1828255;-3;-5;1;1264;3833;-1163;32768;0.5540166;-0.7696283;0.2936288;-0.1204986;-5;-13;-4;2549;3221;944;256;0.03185596;-0.1966759;-0.6988286;-0.6869806;-2;10;-4;853;4024;-7;128;0.05263158;0.132964;0.5761772;0.8047175;0;2;4;-1037;3821;1438;4;0.6545886;-0.2132964;0.4058172;0.601108;1;3;-5;2437;3180;806;16;0.7044118;-0.6925207;-0.04293629;-0.1495845;3;-3;2;649;4140;-130;2;0.4653739;-0.6069185;-0.4958449;-0.4113573;0;2;1;811;4054;-413;8;0.4404432;-0.8860089;0.07617728;0.1232687;2;0;1;171;3251;2501;0.5780447;2.491023;1.05777;0.5840068;3.034347;1.106598;0.5892493;3.51211;1.147504;0.7598704;4.225558;1.166028;0.5843281;4.603764;1.136137;0.219408;4.545262;1.195721;-0.5590998;4.946501;0.8936231;0.2987089;5.215242;1.193187;1.090402;4.482739;1.136136;1.338424;4.277657;1.19572;1.246742;3.388873;1.556184;0.6756305;2.649006;1.711798;0.2657995;2.449811;1.046072;0.1720296;1.330812;0.1080395;0;0;0;0.2657995;2.449811;1.046072;0.1720296;1.330812;0.1080395;0;0;0
1854413.805;NotLabelled;16384;0.7016271;0.4210526;0.5554016;0.1481994;9;0;-6;2904;-1676;2257;65536;0.5928237;0.5401662;-0.4542936;-0.3878116;3;-7;6;3889;-1348;-709;8192;0.5263157;-0.7719281;-0.3060942;-0.1828255;-1;-4;1;1268;3873;-1143;32768;0.5540166;-0.7693142;0.2950138;-0.1191136;-3;-8;-4;2471;3229;932;256;0.02770083;-0.1925208;-0.7001615;-0.6869806;-1;8;-3;957;3936;-81;128;0.05263158;0.1315789;0.5761772;0.8049452;1;0;4;-999;3827;1416;4;0.6541357;-0.2146814;0.4058172;0.601108;2;0;-4;2435;3208;866;16;0.7044118;-0.6925207;-0.04293629;-0.1495845;3;-3;2;641;4294;-60;2;0.4653739;-0.6059775;-0.4958449;-0.4127424;0;0;0;749;3876;-431;8;0.4404432;-0.8860803;0.07756232;0.1218837;0;-3;0;173;3183;2383;0.5891004;2.494365;1.055495;0.5950625;3.03769;1.104324;0.6003051;3.515452;1.14523;0.7698588;4.229216;1.161255;0.5937198;4.607054;1.130251;0.2289361;4.548199;1.190318;-0.5547562;4.945407;0.89641;0.3055399;5.216276;1.186786;1.099977;4.486796;1.13025;1.348356;4.282288;1.190315;1.263982;3.392872;1.551003;0.6965813;2.65188;1.714633;0.2768553;2.453154;1.043798;0.1706839;1.330725;0.1111996;0;0;0;0.2768553;2.453154;1.043798;0.1706839;1.330725;0.1111996;0;0;0
1854434.8687;NotLabelled;16384;0.7007681;0.4196676;0.5567867;0.1509695;8;-1;-5;2850;-1762;2477;65536;0.5953537;0.5401662;-0.4556787;-0.3822715;7;-7;6;3841;-1388;-491;8192;0.5263157;-0.7722548;-0.3060942;-0.1814404;0;-2;2;1340;3849;-1185;32768;0.5540166;-0.7693142;0.2950138;-0.1191136;0;-3;-5;2263;3265;854;256;0.0235457;-0.1855956;-0.7008228;-0.6883656;0;7;-4;857;3934;-59;128;0.05124654;0.1315789;0.5761772;0.8050345;2;-1;3;-973;3829;1274;4;0.6541357;-0.2146814;0.4058172;0.601108;1;-1;-3;2461;3182;902;16;0.7044118;-0.6925207;-0.04293629;-0.1495845;4;3;2;537;4130;60;2;0.4653739;-0.6071082;-0.4944598;-0.4127424;0;-3;0;711;3900;-371;8;0.4404432;-0.8860803;0.07756232;0.1218837;0;0;0;103;3305;2353;0.5997388;2.496736;1.049398;0.605701;3.040068;1.09815;0.6109435;3.517837;1.138988;0.7808134;4.231575;1.152569;0.6048104;4.609386;1.120484;0.2400497;4.550882;1.181033;-0.5512413;4.945327;0.9042649;0.3119856;5.218318;1.183751;1.111016;4.488913;1.120467;1.359356;4.284493;1.180995;1.283952;3.395026;1.543539;0.7190328;2.653905;1.714989;0.2874937;2.455523;1.037708;0.1720499;1.330725;0.1090739;0;0;0;0.2874937;2.455523;1.037708;0.1720499;1.330725;0.1090739;0;0;0
1854455.7843;NotLabelled;16384;0.7012962;0.4182825;0.5567867;0.1523546;7;-2;-4;2858;-1676;2509;65536;0.594983;0.5415512;-0.4556787;-0.3808864;7;-3;5;3809;-1346;-465;8192;0.5249307;-0.7726472;-0.3074792;-0.1814404;0;5;2;1204;3807;-1001;32768;0.5554016;-0.7690586;0.2936288;-0.1177285;0;2;-5;2363;3209;944;256;0.02077562;-0.1814404;-0.7006367;-0.6897507;0;7;-4;853;3970;-59;128;0.05124654;0.1315789;0.5775623;0.8040414;5;0;2;-1009;3817;1260;4;0.6541357;-0.2146814;0.4058172;0.601108;0;-2;-2;2391;3090;936;16;0.7057708;-0.6911357;-0.04293629;-0.1495845;4;2;3;807;3982;-24;2;0.4653739;-0.6071082;-0.4944598;-0.4127424;1;-4;0;807;4012;-355;8;0.4404432;-0.8860803;0.07756232;0.1218837;0;1;0;79;3285;2551;0.6165232;2.496734;1.044608;0.6224853;3.04006;1.093421;0.6277279;3.517824;1.134314;0.7948077;4.232241;1.146813;0.6173178;4.609313;1.114238;0.2528074;4.54947;1.174984;-0.542311;4.938167;0.9010669;0.3227824;5.217513;1.168231;1.123991;4.490822;1.114237;1.373148;4.287462;1.174983;1.300712;3.398535;1.539448;0.7386461;2.657415;1.720033;0.3042781;2.455522;1.032912;0.1737955;1.330725;0.106271;0;0;0;0.3042781;2.455522;1.032912;0.1737955;1.330725;0.106271;0;0;0
1854476.7784;NotLabelled;16384;0.7018185;0.4168975;0.5567867;0.1537396;7;-1;-3;2836;-1648;2447;65536;0.5946057;0.5429363;-0.4556787;-0.3795014;7;0;5;3811;-1310;-479;8192;0.5249307;-0.7726472;-0.3074792;-0.1814404;0;2;2;1122;3803;-945;32768;0.5554016;-0.7690586;0.2936288;-0.1177285;1;0;-3;2445;3223;882;256;0.01800554;-0.1772853;-0.7017761;-0.6897507;-1;4;-3;851;4018;-57;128;0.04986149;0.1315789;0.5789474;0.8031319;6;0;2;-1071;3807;1364;4;0.6532744;-0.2146814;0.4072022;0.601108;0;-4;-3;2461;2980;782;16;0.7057708;-0.6911357;-0.04293629;-0.1495845;5;-1;0;587;3960;-126;2;0.4653739;-0.6071082;-0.4944598;-0.4127424;0;-2;0;907;4066;-383;8;0.4404432;-0.8860803;0.07756232;0.1218837;0;0;0;145;3267;2509;0.6246031;2.496677;1.046117;0.6305671;3.040169;1.093045;0.6358112;3.518072;1.132278;0.8013219;4.232843;1.145349;0.6230115;4.60955;1.113029;0.2586226;4.548862;1.173665;-0.5395251;4.93474;0.9046155;0.3266573;5.216464;1.165683;1.129943;4.49217;1.113028;1.379534;4.289312;1.173663;1.310048;3.401572;1.541581;0.7531054;2.657618;1.726337;0.3123576;2.455425;1.034577;0.1726778;1.330627;0.1092777;0;0;0;0.3123576;2.455425;1.034577;0.1726778;1.330627;0.1092777;0;0;0
1854497.7904;NotLabelled;16384;0.7007174;0.4168975;0.5581717;0.1537396;8;-2;-3;2748;-1652;2465;65536;0.5942216;0.5443213;-0.4556787;-0.3781163;7;-3;4;3815;-1286;-379;8192;0.5249307;-0.7729711;-0.3074792;-0.1800554;0;0;3;1042;3725;-959;32768;0.5554016;-0.7690586;0.2936288;-0.1177285;1;-3;-2;2369;3049;856;256;0.01523546;-0.1745152;-0.7011731;-0.6911357;-2;5;-2;915;3974;-27;128;0.05124654;0.1301939;0.5789474;0.8032704;4;2;1;-1045;3757;1378;4;0.6519972;-0.2146814;0.4072022;0.602493;4;-5;-4;2623;2966;662;16;0.7071244;-0.6897507;-0.04293629;-0.1495845;6;5;1;589;3984;-24;2;0.4653739;-0.6091712;-0.4930748;-0.4113573;0;-2;0;939;4048;-377;8;0.4404432;-0.8860803;0.07756232;0.1218837;0;-2;0;121;3255;2469;0.6385248;2.49861;1.039723;0.6444902;3.042257;1.084822;0.6497359;3.52029;1.122449;0.814091;4.235367;1.133149;0.6351162;4.611684;1.099959;0.270914;4.550579;1.161296;-0.5337734;4.93451;0.909493;0.333742;5.218604;1.16347;1.142239;4.495134;1.099584;1.39225;4.292867;1.16047;1.331174;3.403892;1.526895;0.7763129;2.659938;1.717814;0.3262788;2.457319;1.028333;0.1738786;1.330627;0.1073568;0;0;0;0.3262788;2.457319;1.028333;0.1738786;1.330627;0.1073568;0;0;0
1854517.7795;NotLabelled;16384;0.7012346;0.4155124;0.5581717;0.1551246;7;-1;-3;2784;-1596;2477;65536;0.5942216;0.5443213;-0.4556787;-0.3781163;3;-3;5;3829;-1334;-277;8192;0.5249307;-0.7729711;-0.3074792;-0.1800554;0;-1;3;1124;3727;-1017;32768;0.5554016;-0.7692693;0.2936288;-0.1163435;0;-5;-1;2353;3025;872;256;0.01385042;-0.1717452;-0.7018855;-0.6911357;-2;6;-1;889;3958;-11;128;0.05124654;0.1301939;0.5789474;0.8032704;3;2;1;-1059;3719;1334;4;0.6515396;-0.2160665;0.4072022;0.602493;5;-2;-3;2619;3116;740;16;0.7081789;-0.6883656;-0.04293629;-0.1509695;4;3;1;787;4072;-60;2;0.4653739;-0.6091712;-0.4930748;-0.4113573;0;-5;0;809;4016;-363;8;0.4404432;-0.8858887;0.07756232;0.1232687;0;0;0;165;3249;2419;0.6413494;2.499343;1.041521;0.6473153;3.043001;1.086484;0.6525609;3.521043;1.123991;0.8166689;4.236153;1.136224;0.6376096;4.612473;1.10353;0.2733561;4.551135;1.164328;-0.5317129;4.932941;0.9105229;0.3360578;5.219396;1.160953;1.144771;4.496089;1.103529;1.394777;4.29379;1.164326;1.333845;3.406544;1.534944;0.7803371;2.66259;1.729749;0.3291034;2.45805;1.030141;0.1725521;1.330509;0.1109013;0;0;0;0.3291034;2.45805;1.030141;0.1725521;1.330509;0.1109013;0;0;0
1854537.8087;NotLabelled;16384;0.7006422;0.4141274;0.5595568;0.1565097;4;2;-4;2782;-1650;2517;65536;0.595766;0.5457063;-0.4542936;-0.3753462;-1;-5;3;3855;-1372;-385;8192;0.5249307;-0.7729711;-0.3074792;-0.1800554;0;-1;3;1074;3771;-1059;32768;0.5554016;-0.7687393;0.2950138;-0.1163435;0;-5;-1;2389;3185;748;256;0.008310249;-0.16759;-0.7029765;-0.6911357;-2;4;0;897;3842;-57;128;0.05124654;0.1301939;0.5803324;0.8022703;3;1;1;-1019;3853;1232;4;0.650256;-0.2160665;0.4072022;0.6038781;5;0;-1;2675;3168;800;16;0.7081789;-0.6883656;-0.04293629;-0.1509695;2;5;2;743;4174;-52;2;0.4653739;-0.6091712;-0.4930748;-0.4113573;0;-2;0;939;3982;-383;8;0.4404432;-0.8858887;0.07756232;0.1232687;0;0;-1;271;3267;2465;0.6458079;2.501174;1.042433;0.6517735;3.044832;1.087396;0.6570192;3.522874;1.124903;0.8198663;4.238295;1.135687;0.6401266;4.614233;1.102349;0.2760091;4.552368;1.163425;-0.5312388;4.931341;0.912308;0.3380758;5.217795;1.157325;1.147493;4.498748;1.102348;1.397883;4.297009;1.163424;1.339283;3.409763;1.534418;0.7887402;2.664817;1.73378;0.3335619;2.45988;1.031054;0.1737066;1.329986;0.1152786;0;0;0;0.3335619;2.45988;1.031054;0.1737066;1.329986;0.1152786;0;0;0
1854558.7916;NotLabelled;16384;0.7014589;0.4127424;0.5595568;0.1565097;3;3;-2;2782;-1648;2533;65536;0.5970317;0.5443213;-0.4542936;-0.3753462;-1;-5;3;3837;-1328;-513;8192;0.5249307;-0.7732924;-0.3074792;-0.1786704;0;-2;2;1002;3739;-1075;32768;0.5554016;-0.7684148;0.2963989;-0.1149584;-4;-8;0;2505;3053;808;256;0.006925208;-0.1648199;-0.7036461;-0.6911357;-1;5;0;883;3932;-17;128;0.05124654;0.1288089;0.5803324;0.8024938;4;1;1;-931;3765;1324;4;0.6511213;-0.2160665;0.4058172;0.6038781;5;3;0;2749;3144;740;16;0.7092264;-0.6869806;-0.04293629;-0.1523546;2;8;3;623;4006;-42;2;0.4653739;-0.6091712;-0.4930748;-0.4113573;0;0;0;945;4036;-383;8;0.4404432;-0.8858887;0.07756232;0.1232687;0;0;-1;109;3245;2477;0.6580812;2.502053;1.036838;0.6640486;3.045864;1.07991;0.6692956;3.524033;1.115753;0.8337564;4.239114;1.124419;0.6548402;4.61536;1.090138;0.2906242;4.554486;1.151621;-0.5220811;4.92937;0.912243;0.3484699;5.222358;1.144828;1.161946;4.498734;1.090137;1.411921;4.296606;1.15162;1.358594;3.40936;1.523409;0.809638;2.665277;1.730232;0.3458347;2.460719;1.025614;0.1753254;1.329986;0.1128009;0;0;0;0.3458347;2.460719;1.025614;0.1753254;1.329986;0.1128009;0;0;0
1854579.7676;NotLabelled;16384;0.7014589;0.4127424;0.5595568;0.1565097;4;5;-1;2764;-1596;2431;65536;0.5979002;0.5443213;-0.4542936;-0.3739612;0;-4;3;3769;-1322;-585;8192;0.5249307;-0.7732924;-0.3074792;-0.1786704;0;-3;1;1038;3733;-1095;32768;0.5554016;-0.7680852;0.2977839;-0.1135734;-4;-7;0;2469;3083;850;256;0.004155125;-0.1620499;-0.7029492;-0.6925207;-1;6;0;897;3920;-23;128;0.05124654;0.1288089;0.5817174;0.8014904;4;3;0;-981;3861;1276;4;0.6506601;-0.2174515;0.4058172;0.6038781;3;2;0;2503;3128;854;16;0.7088423;-0.6869806;-0.04432133;-0.1537396;1;10;2;833;3938;182;2;0.4653739;-0.6091712;-0.4930748;-0.4113573;0;2;0;907;4016;-369;8;0.4404432;-0.8858887;0.07756232;0.1232687;1;0;-1;123;3297;2471;0.6626529;2.49961;1.0429;0.6686202;3.043427;1.085898;0.6738673;3.521602;1.121676;0.8370408;4.236993;1.128953;0.6574312;4.612852;1.094053;0.2933516;4.551435;1.155803;-0.5207314;4.925142;0.9192878;0.3520454;5.217873;1.143713;1.164747;4.497142;1.094052;1.415112;4.295578;1.155802;1.365749;3.40883;1.52932;0.8185517;2.664616;1.740291;0.3504063;2.458276;1.031683;0.176594;1.329443;0.1171419;0;0;0;0.3504063;2.458276;1.031683;0.176594;1.329443;0.1171419;0;0;0
1854600.9116;NotLabelled;16384;0.7011663;0.4113573;0.5609418;0.1565097;4;3;-2;2742;-1642;2399;65536;0.5979002;0.5443213;-0.4542936;-0.3739612;0;-4;1;3721;-1256;-597;8192;0.5249307;-0.7738417;-0.3060942;-0.1786704;1;-5;1;1108;3781;-1097;32768;0.5540166;-0.7690848;0.2977839;-0.1135734;-5;-6;0;2435;3155;876;256;0.002770083;-0.1606648;-0.7032739;-0.6925207;-2;4;0;879;3952;41;128;0.05263158;0.1288089;0.5817174;0.8014007;2;4;2;-1099;3835;1342;4;0.6519428;-0.2174515;0.4058172;0.602493;2;2;-2;2467;3108;788;16;0.7088423;-0.6869806;-0.04432133;-0.1537396;2;-7;-1;775;4004;142;2;0.4653739;-0.6082336;-0.4930748;-0.4127424;0;1;0;835;4062;-265;8;0.4404432;-0.8858887;0.07756232;0.1232687;0;0;0;79;3261;2467;0.6689209;2.502017;1.037003;0.6748899;3.045981;1.078106;0.6801382;3.524276;1.112219;0.8430896;4.239702;1.120894;0.6633518;4.615575;1.086807;0.2993097;4.553919;1.14854;-0.5186492;4.928425;0.927142;0.3553351;5.223243;1.144007;1.170703;4.500025;1.086423;1.421151;4.298415;1.147692;1.378091;3.410371;1.518903;0.8331717;2.666023;1.73523;0.356674;2.460644;1.025941;0.1776203;1.329466;0.1153175;0;0;0;0.356674;2.460644;1.025941;0.1776203;1.329466;0.1153175;0;0;0
1854620.8574;NotLabelled;16384;0.7016668;0.4099723;0.5609418;0.1578947;3;1;0;2844;-1662;2537;65536;0.5977108;0.5443213;-0.4556787;-0.3725762;1;-4;1;3953;-1344;-537;8192;0.5249307;-0.7738417;-0.3060942;-0.1786704;1;-5;0;1128;3825;-1103;32768;0.5540166;-0.7687505;0.299169;-0.1121884;-4;-5;0;2401;3241;818;256;0;-0.1578947;-0.7052664;-0.6911357;-3;4;0;889;3876;13;128;0.05263158;0.1274238;0.5817174;0.801622;1;4;2;-963;3811;1350;4;0.6514792;-0.2188366;0.4058172;0.602493;2;0;-3;2535;3116;734;16;0.7092264;-0.6869806;-0.04293629;-0.1523546;3;-11;-2;683;3836;100;2;0.4653739;-0.6071082;-0.4944598;-0.4127424;-1;1;0;781;3980;-351;8;0.4404432;-0.8856949;0.07756232;0.1246537;0;0;0;107;3285;2411;0.6746879;2.50119;1.036357;0.680657;3.045159;1.077393;0.6859056;3.523459;1.111446;0.8489075;4.23888;1.119567;0.6692168;4.614736;1.08505;0.3051375;4.553162;1.146647;-0.5138503;4.924473;0.9236751;0.3608543;5.219291;1.137617;1.17656;4.499146;1.085035;1.426959;4.297572;1.146615;1.382014;3.410703;1.520404;0.837696;2.667322;1.741516;0.362441;2.459815;1.025301;0.1780047;1.329466;0.1147227;0;0;0;0.362441;2.459815;1.025301;0.1780047;1.329466;0.1147227;0;0;0
1854641.7714;NotLabelled;16384;0.7016668;0.4099723;0.5609418;0.1578947;3;2;0;2816;-1628;2549;65536;0.598572;0.5443213;-0.4556787;-0.3711911;1;-4;1;3905;-1294;-493;8192;0.5249307;-0.7747064;-0.3047091;-0.1772853;1;-3;0;1322;3843;-1125;32768;0.5526316;-0.7694077;0.300554;-0.1108033;-3;-2;0;2405;3271;734;256;-0.002770083;-0.1551246;-0.7045166;-0.6925207;0;5;0;945;3944;-137;128;0.05263158;0.1274238;0.5831025;0.8006151;3;3;1;-1003;3779;1342;4;0.6514792;-0.2188366;0.4058172;0.602493;2;4;-3;2457;3122;646;16;0.709605;-0.6869806;-0.04155125;-0.1509695;1;-13;-1;719;4108;-30;2;0.4653739;-0.6071082;-0.4944598;-0.4127424;-1;2;0;729;4054;-357;8;0.4404432;-0.8856949;0.07756232;0.1246537;0;0;0;149;3263;2447;0.6809124;2.503514;1.031137;0.6868815;3.047488;1.072099;0.6921301;3.525793;1.106088;0.8555576;4.241152;1.109996;0.676041;4.616915;1.073606;0.3120052;4.555901;1.136011;-0.5105168;4.924354;0.9214675;0.3654342;5.219191;1.130221;1.183316;4.501028;1.07359;1.433677;4.299655;1.135977;1.393628;3.412781;1.510313;0.8517137;2.669265;1.736805;0.3686654;2.462138;1.020087;0.1789457;1.329443;0.1135174;0;0;0;0.3686654;2.462138;1.020087;0.1789457;1.329443;0.1135174;0;0;0
1854662.0044;NotLabelled;16384;0.7024742;0.4085872;0.5609418;0.1578947;2;3;0;2728;-1604;2445;65536;0.597515;0.5443213;-0.4570637;-0.3711911;0;-2;2;3799;-1296;-541;8192;0.5249307;-0.7747064;-0.3047091;-0.1772853;0;1;0;1374;3825;-1109;32768;0.5526316;-0.7694077;0.300554;-0.1108033;-2;-1;0;2425;3211;798;256;-0.004155125;-0.1523546;-0.7051141;-0.6925207;-1;5;0;841;3982;-79;128;0.05401662;0.1260388;0.5831025;0.8007421;0;2;1;-1037;3909;1358;4;0.653151;-0.2202216;0.4044321;0.601108;3;3;-2;2511;3184;734;16;0.709978;-0.6869806;-0.0401662;-0.1495845;2;-7;0;317;4136;-64;2;0.4653739;-0.6071082;-0.4944598;-0.4127424;-1;0;0;813;3960;-313;8;0.4404432;-0.8856949;0.07756232;0.1246537;1;-1;0;209;3285;2393;0.6894637;2.50353;1.028155;0.6954345;3.047643;1.06722;0.7006842;3.526063;1.09954;0.8638909;4.241464;1.104909;0.6842487;4.617246;1.069351;0.3202477;4.555989;1.13172;-0.5040033;4.925157;0.925192;0.3730063;5.222079;1.126412;1.19156;4.501518;1.068966;1.441999;4.300091;1.130868;1.405186;3.412386;1.503561;0.8656321;2.669705;1.738279;0.3772163;2.462115;1.017261;0.1798673;1.32942;0.1123224;0;0;0;0.3772163;2.462115;1.017261;0.1798673;1.32942;0.1123224;0;0;0
1854682.786;NotLabelled;16384;0.7013659;0.4085872;0.5623268;0.1578947;3;1;-1;2784;-1676;2501;65536;0.5983732;0.5443213;-0.4570637;-0.3698061;0;0;1;3685;-1226;-603;8192;0.5249307;-0.7747064;-0.3047091;-0.1772853;0;3;-1;1274;3903;-1111;32768;0.5526316;-0.7694077;0.300554;-0.1108033;-2;0;-1;2439;3221;850;256;-0.006925208;-0.1509695;-0.7053902;-0.6925207;-1;5;0;811;3970;-81;128;0.05401662;0.1260388;0.5831025;0.8007421;-2;-1;1;-967;3859;1352;4;0.6518736;-0.2202216;0.4044321;0.602493;5;0;-2;2479;3174;706;16;0.709978;-0.6869806;-0.0401662;-0.1495845;3;2;1;471;3996;8;2;0.4653739;-0.6071082;-0.4944598;-0.4127424;-1;0;0;931;3986;-277;8;0.4418283;-0.8848822;0.07894737;0.1246537;1;-1;-1;141;3231;2401;0.6924672;2.503146;1.027398;0.698438;3.04727;1.066317;0.7036879;3.5257;1.098508;0.8655695;4.241408;1.102717;0.6852461;4.616796;1.066452;0.3213356;4.554972;1.12879;-0.5022683;4.922204;0.9163133;0.3759551;5.217062;1.115262;1.192771;4.502006;1.066451;1.443558;4.30115;1.12879;1.405623;3.414748;1.504461;0.8673476;2.672067;1.742098;0.3802198;2.461729;1.016517;0.1804518;1.329397;0.1116542;0;0;0;0.3802198;2.461729;1.016517;0.1804518;1.329397;0.1116542;0;0;0
1854703.7915;NotLabelled;16384;0.7013659;0.4085872;0.5623268;0.1578947;2;-1;-3;2748;-1728;2437;65536;0.5983732;0.5443213;-0.4570637;-0.3698061;2;2;0;3637;-1250;-699;8192;0.5235457;-0.7756431;-0.3047091;-0.1772853;2;2;0;1182;3901;-1063;32768;0.5526316;-0.7694077;0.300554;-0.1108033;-2;1;-1;2441;3327;916;256;-0.008310249;-0.1481994;-0.7059624;-0.6925207;-1;3;0;897;4092;-9;128;0.05263158;0.1260388;0.5831025;0.8008344;-4;-3;0;-957;3953;1336;4;0.6509312;-0.2229917;0.4044321;0.602493;4;2;-7;2377;3274;748;16;0.7109433;-0.6855956;-0.04155125;-0.1509695;3;0;1;663;4070;68;2;0.4653739;-0.6071082;-0.4944598;-0.4127424;0;0;0;881;4078;-357;8;0.4418283;-0.8848822;0.07894737;0.1246537;2;-1;0;131;3285;2437;0.6962189;2.503962;1.024602;0.7021897;3.048086;1.06352;0.7074397;3.526516;1.095712;0.8707651;4.241899;1.09929;0.6911924;4.61762;1.062745;0.3271699;4.556582;1.125204;-0.4989331;4.92257;0.9204208;0.3797995;5.219512;1.113945;1.198484;4.501806;1.062744;1.448878;4.300497;1.125203;1.413224;3.414096;1.501098;0.876388;2.671414;1.741967;0.3839715;2.462545;1.013721;0.1811198;1.329397;0.1105671;0;0;0;0.3839715;2.462545;1.013721;0.1811198;1.329397;0.1105671;0;0;0
1854724.7928;NotLabelled;16384;0.7010527;0.4085872;0.5623268;0.1592798;3;-3;-3;2926;-1610;2523;65536;0.5994287;0.5443213;-0.4556787;-0.3698061;3;-1;0;4003;-1372;-433;8192;0.5235457;-0.7753252;-0.3047091;-0.1786704;3;1;0;1210;3967;-1059;32768;0.5526316;-0.7699474;0.299169;-0.1108033;-2;1;-1;2409;3313;1004;256;-0.009695291;-0.1468144;-0.7062341;-0.6925207;-2;4;0;963;3994;-35;128;0.05263158;0.1274238;0.5817174;0.801622;-2;-4;0;-989;3887;1352;4;0.6517353;-0.2243767;0.4044321;0.601108;2;0;-6;2467;3224;758;16;0.7109433;-0.6855956;-0.04155125;-0.1509695;5;3;1;657;3974;40;2;0.4653739;-0.6071082;-0.4944598;-0.4127424;-1;2;1;959;4106;-231;8;0.4418283;-0.8848822;0.07894737;0.1246537;3;-3;-1;123;3283;2521;0.6955917;2.508477;1.02208;0.7015624;3.052596;1.061072;0.7068124;3.531021;1.093328;0.8688036;4.246714;1.095658;0.6885158;4.622037;1.058557;0.3246314;4.560423;1.121256;-0.502717;4.926412;0.9215646;0.377191;5.223353;1.109672;1.196023;4.50717;1.058557;1.446816;4.306432;1.121255;1.411812;3.421165;1.499875;0.8764699;2.678484;1.744046;0.3833444;2.467061;1.011192;0.1801005;1.329244;0.1140169;0;0;0;0.3833444;2.467061;1.011192;0.1801005;1.329244;0.1140169;0;0;0
1854745.8004;NotLabelled;16384;0.7015424;0.4072022;0.5623268;0.1606648;3;0;-2;2924;-1530;2529;65536;0.5981681;0.5457063;-0.4556787;-0.3698061;2;-1;1;3983;-1444;-339;8192;0.5221606;-0.7757136;-0.3060942;-0.1786704;4;1;1;1312;3835;-1053;32768;0.5526316;-0.7699474;0.299169;-0.1108033;-1;3;-1;2339;3345;890;256;-0.01246537;-0.1440443;-0.7067608;-0.6925207;-3;1;0;805;4014;15;128;0.05124654;0.1288089;0.5817174;0.8014904;0;-8;-1;-977;3871;1310;4;0.6503947;-0.2257618;0.4058172;0.601108;1;0;-5;2459;3188;752;16;0.7106478;-0.6855956;-0.04155125;-0.1523546;3;12;1;633;4012;78;2;0.4653739;-0.6059775;-0.4958449;-0.4127424;-1;-1;0;749;3998;-175;8;0.4432133;-0.883993;0.07894737;0.1260388;2;0;0;15;3297;2381;0.6986858;2.509964;1.019089;0.7046549;3.053939;1.060052;0.7099036;3.532243;1.094041;0.871925;4.247931;1.095881;0.691676;4.623232;1.058367;0.3277515;4.561686;1.120899;-0.5016068;4.925276;0.9252071;0.3787336;5.224277;1.107954;1.199178;4.508343;1.058762;1.449925;4.307645;1.121773;1.41568;3.423256;1.502509;0.8824522;2.679719;1.748693;0.3864388;2.468588;1.008039;0.1804731;1.329245;0.1134265;0;0;0;0.3864388;2.468588;1.008039;0.1804731;1.329245;0.1134265;0;0;0
1854765.7868;NotLabelled;16384;0.7015424;0.4072022;0.5623268;0.1606648;2;2;0;2866;-1518;2577;65536;0.5981681;0.5457063;-0.4556787;-0.3698061;0;-3;1;3869;-1444;-321;8192;0.5221606;-0.7757136;-0.3060942;-0.1786704;3;3;2;1324;3835;-1031;32768;0.5512465;-0.7714756;0.2977839;-0.1108033;-2;4;-1;2291;3229;864;256;-0.01385042;-0.1426593;-0.7070159;-0.6925207;-3;1;0;777;3970;-41;128;0.04986149;0.1301939;0.5817174;0.801354;1;-9;-1;-961;3759;1258;4;0.6503947;-0.2257618;0.4058172;0.601108;0;2;-3;2461;3214;718;16;0.7116014;-0.6842105;-0.04293629;-0.1537396;1;12;2;935;4140;62;2;0.4653739;-0.6071082;-0.4944598;-0.4127424;0;0;0;747;3962;-247;8;0.4432133;-0.883993;0.07894737;0.1260388;1;0;0;51;3291;2415;0.7097602;2.513763;1.010834;0.7157294;3.057727;1.051938;0.7209778;3.536023;1.086051;0.8830566;4.251699;1.086553;0.702794;4.626954;1.04864;0.3389366;4.565537;1.111688;-0.4922314;4.926971;0.9197133;0.3890486;5.226242;1.09742;1.210287;4.512025;1.048639;1.46109;4.311409;1.111687;1.428871;3.426857;1.49222;0.8978511;2.683321;1.743132;0.3975134;2.47239;0.9997723;0.1840181;1.328855;0.1123018;0;0;0;0.3975134;2.47239;0.9997723;0.1840181;1.328855;0.1123018;0;0;0
1854786.866;NotLabelled;16384;0.7023445;0.4058172;0.5623268;0.1606648;2;4;1;2834;-1546;2515;65536;0.5990221;0.5457063;-0.4556787;-0.368421;-1;-5;1;3725;-1416;-337;8192;0.5221606;-0.7751656;-0.3074792;-0.1786704;2;3;2;1204;3687;-1001;32768;0.5512465;-0.7720088;0.2963989;-0.1108033;-1;5;0;2255;3121;894;256;-0.01523546;-0.1412742;-0.7072656;-0.6925207;-4;1;0;805;3910;33;128;0.04847645;0.1301939;0.5817174;0.801439;0;-8;-1;-925;3765;1324;4;0.6503947;-0.2257618;0.4058172;0.601108;-1;4;-2;2297;3172;736;16;0.7112159;-0.6842105;-0.04432133;-0.1551246;3;1;0;545;4158;-292;2;0.4653739;-0.6059775;-0.4958449;-0.4127424;-1;0;0;757;4022;-221;8;0.4432133;-0.883993;0.07894737;0.1260388;0;1;0;59;3305;2463;0.7121662;2.513595;1.013798;0.7181352;3.057549;1.055039;0.7233835;3.535836;1.089273;0.8854867;4.251507;1.089177;0.7052299;4.626738;1.050999;0.341382;4.565383;1.114161;-0.4905563;4.926818;0.9255514;0.391436;5.226088;1.099689;1.212719;4.511792;1.050998;1.463527;4.311217;1.11416;1.432848;3.426666;1.494821;0.9041986;2.683263;1.751078;0.3999194;2.472225;1.002725;0.1828324;1.328689;0.1161267;0;0;0;0.3999194;2.472225;1.002725;0.1828324;1.328689;0.1161267;0;0;0
1854806.9094;NotLabelled;16384;0.7023445;0.4058172;0.5623268;0.1606648;2;3;2;2884;-1534;2501;65536;0.5990221;0.5457063;-0.4556787;-0.368421;-2;-4;0;3679;-1310;-497;8192;0.5207756;-0.7760968;-0.3074792;-0.1786704;1;1;3;1114;3637;-969;32768;0.5512465;-0.7720088;0.2963989;-0.1108033;0;5;0;2255;3081;870;256;-0.01523546;-0.1398892;-0.7075408;-0.6925207;-4;0;0;771;3868;49;128;0.04847645;0.1315789;0.5803324;0.8022165;0;-6;-1;-889;3727;1274;4;0.6495284;-0.2257618;0.4072022;0.601108;0;-6;-4;2289;3016;622;16;0.7125457;-0.6828254;-0.04432133;-0.1551246;5;-5;0;631;4004;-192;2;0.466759;-0.6049113;-0.4958449;-0.4127424;-1;-1;1;707;4052;-281;8;0.4432133;-0.8841156;0.07756232;0.1260388;0;3;0;25;3353;2471;0.7162008;2.513622;1.011855;0.7221697;3.057571;1.053156;0.727418;3.535854;1.087442;0.8895433;4.251521;1.086759;0.7092925;4.626726;1.048313;0.3454523;4.565433;1.11158;-0.4880187;4.925647;0.9274598;0.3939831;5.226998;1.097923;1.216778;4.511765;1.048325;1.467589;4.311232;1.111606;1.441505;3.426793;1.49287;0.9152039;2.682541;1.751491;0.403954;2.472253;1.000778;0.1833011;1.328717;0.1150599;0;0;0;0.403954;2.472253;1.000778;0.1833011;1.328717;0.1150599;0;0;0
1854827.7572;NotLabelled;16384;0.703458;0.4044321;0.5623268;0.1592798;3;3;2;2784;-1456;2433;65536;0.6000764;0.5443213;-0.4570637;-0.367036;1;-5;0;3761;-1336;-601;8192;0.5207756;-0.7760968;-0.3074792;-0.1786704;1;1;3;1156;3675;-985;32768;0.5512465;-0.7720088;0.2963989;-0.1108033;0;3;0;2269;3119;792;256;-0.0166205;-0.1398892;-0.7088626;-0.6911357;-3;-2;0;849;3894;25;128;0.04709141;0.1315789;0.5817174;0.8012953;3;-5;-1;-881;3753;1232;4;0.6495284;-0.2257618;0.4072022;0.601108;0;-9;-4;2455;3100;548;16;0.71417;-0.6814404;-0.04432133;-0.1537396;4;-8;0;641;4056;-118;2;0.466759;-0.6069849;-0.4944598;-0.4113573;0;-5;1;717;3988;-193;8;0.4418283;-0.8848085;0.07756232;0.1260388;-1;0;-1;165;3317;2377;0.7188457;2.515239;1.01309;0.724813;3.059035;1.056356;0.7300599;3.537191;1.092371;0.8908038;4.253168;1.091098;0.7098216;4.627995;1.052396;0.3461131;4.56605;1.115783;-0.4871473;4.926285;0.9307519;0.3952124;5.227635;1.099353;1.217528;4.514013;1.052395;1.468738;4.314015;1.115782;1.440606;3.430679;1.499452;0.9148526;2.686429;1.759184;0.4065993;2.47391;1.00185;0.181918;1.32851;0.1195603;0;0;0;0.4065993;2.47391;1.00185;0.181918;1.32851;0.1195603;0;0;0
1854847.9732;NotLabelled;16384;0.703458;0.4044321;0.5623268;0.1592798;4;2;1;2742;-1532;2497;65536;0.6000764;0.5443213;-0.4570637;-0.367036;2;-5;0;3723;-1380;-601;8192;0.5207756;-0.7764143;-0.3074792;-0.1772853;0;-2;2;1090;3769;-961;32768;0.5512465;-0.7720088;0.2963989;-0.1108033;-4;-2;0;2363;3201;804;256;-0.01800554;-0.1371191;-0.7093698;-0.6911357;-2;-2;1;819;3884;95;128;0.04570637;0.132964;0.5831025;0.8001394;5;-3;0;-947;3847;1194;4;0.6473718;-0.2257618;0.4085872;0.602493;0;-6;-1;2719;3078;636;16;0.7145513;-0.6814404;-0.04293629;-0.1523546;3;-4;0;563;4002;-162;2;0.466759;-0.6081105;-0.4930748;-0.4113573;0;-7;0;861;4002;-315;8;0.4418283;-0.8848085;0.07756232;0.1260388;-2;0;0;85;3237;2417;0.717098;2.515434;1.016395;0.7230668;3.059373;1.057824;0.7283151;3.537648;1.092223;0.8907021;4.253242;1.088066;0.7105478;4.628334;1.048082;0.346753;4.567469;1.11202;-0.4860237;4.928179;0.9257377;0.3969072;5.229277;1.091781;1.217991;4.513186;1.048082;1.468796;4.312854;1.112019;1.441007;3.429519;1.495715;0.9158767;2.685268;1.756705;0.4048511;2.474067;1.005306;0.1780556;1.328667;0.1235575;0;0;0;0.4048511;2.474067;1.005306;0.1780556;1.328667;0.1235575;0;0;0
1854889.7899;NotLabelled;16384;0.7042524;0.4030471;0.5623268;0.1592798;2;4;0;2650;-1534;2569;65536;0.5998653;0.5443213;-0.4584487;-0.365651;-1;-4;0;3765;-1292;-551;8192;0.5207756;-0.7767293;-0.3074792;-0.1759003;0;-4;2;1118;3767;-1059;32768;0.5498615;-0.7724634;0.2977839;-0.1108033;-6;-4;0;2397;3161;1020;256;-0.01939058;-0.1357341;-0.7095997;-0.6911357;-3;-2;1;789;3888;3;128;0.04570637;0.132964;0.5844875;0.7991282;6;-1;0;-913;3827;1268;4;0.6478531;-0.2243767;0.4085872;0.602493;-1;-1;1;2541;3070;654;16;0.7158695;-0.6800554;-0.04293629;-0.1523546;1;2;0;389;4112;-320;2;0.468144;-0.6079813;-0.4930748;-0.4099723;0;-2;0;981;4042;-247;8;0.4418283;-0.8848085;0.07756232;0.1260388;0;2;0;93;3297;2473;0.7229738;2.518104;1.01068;0.728944;3.062174;1.050338;0.7341934;3.540559;1.08318;0.8952038;4.256457;1.077871;0.7143156;4.63114;1.037376;0.3506606;4.569674;1.101532;-0.4833728;4.930384;0.9209614;0.4005581;5.231481;1.081596;1.221979;4.516967;1.037375;1.473191;4.317214;1.101532;1.449812;3.434384;1.486678;0.9262896;2.690133;1.750879;0.4107266;2.476701;0.999738;0.1788306;1.328633;0.1227985;0;0;0;0.4107266;2.476701;0.999738;0.1788306;1.328633;0.1227985;0;0;0
1854910.77;NotLabelled;16384;0.7039364;0.4016621;0.5637119;0.1592798;2;4;0;2604;-1572;2613;65536;0.6011192;0.5429363;-0.4584487;-0.365651;-3;-4;1;3781;-1332;-555;8192;0.5207756;-0.7772762;-0.3060942;-0.1759003;2;-6;2;1150;3835;-1059;32768;0.5484765;-0.7736446;0.2977839;-0.1094183;-6;-4;0;2417;3167;946;256;-0.01939058;-0.1357341;-0.7095997;-0.6911357;-4;-2;1;803;3920;47;128;0.04570637;0.132964;0.5844875;0.7991282;7;0;0;-971;3735;1308;4;0.6474355;-0.2243767;0.4072022;0.6038781;1;-2;1;2475;3054;700;16;0.7157851;-0.6800554;-0.04432133;-0.1523546;0;0;0;649;3968;-164;2;0.468144;-0.6079813;-0.4930748;-0.4099723;0;0;0;837;4010;-319;8;0.4418283;-0.8848085;0.07756232;0.1260388;0;1;0;137;3277;2463;0.728894;2.515583;1.015731;0.7348657;3.059788;1.053492;0.7401164;3.538285;1.084665;0.9011303;4.254177;1.078667;0.7202091;4.628831;1.038054;0.3566123;4.567419;1.102591;-0.4791835;4.927536;0.9291245;0.4050775;5.228656;1.087891;1.227871;4.514651;1.037675;1.479139;4.314945;1.101753;1.461216;3.431278;1.485271;0.9377415;2.68887;1.754702;0.4166464;2.474142;1.004945;0.1778761;1.328383;0.1268326;0;0;0;0.4166464;2.474142;1.004945;0.1778761;1.328383;0.1268326;0;0;0
1854950.8855;NotLabelled;16384;0.7050365;0.400277;0.5637119;0.1578947;0;5;-2;2600;-1520;2605;65536;0.6032059;0.5415512;-0.4584487;-0.3642659;-5;-4;1;3683;-1272;-615;8192;0.5207756;-0.7775882;-0.3060942;-0.1745152;2;-6;2;1294;3753;-1143;32768;0.5470914;-0.7742853;0.299169;-0.1080332;-4;-3;1;2299;3213;866;256;-0.02077562;-0.134349;-0.709824;-0.6911357;-3;0;1;871;3948;23;128;0.04570637;0.132964;0.5858725;0.7981133;7;1;1;-945;3781;1332;4;0.6479139;-0.2229917;0.4072022;0.6038781;1;-5;1;2489;3208;692;16;0.7157851;-0.6800554;-0.04432133;-0.1523546;0;2;0;497;3998;-122;2;0.468144;-0.6070449;-0.4930748;-0.4113573;-1;0;1;771;4000;-355;8;0.4418283;-0.8848085;0.07756232;0.1260388;0;0;0;169;3261;2525;0.7210541;2.514931;1.017884;0.7270257;3.059136;1.055644;0.7322765;3.537633;1.086818;0.8932946;4.253525;1.080939;0.712404;4.628179;1.040192;0.3487591;4.566766;1.104457;-0.4872586;4.92381;0.9257865;0.3974796;5.224645;1.082418;1.220066;4.513999;1.040191;1.471286;4.314293;1.104456;1.449708;3.431894;1.490695;0.9279946;2.689505;1.763569;0.4088064;2.473491;1.007098;0.1752116;1.328797;0.1262076;0;0;0;0.4088064;2.473491;1.007098;0.1752116;1.328797;0.1262076;0;0;0
1854971.899;NotLabelled;16384;0.7047127;0.398892;0.5650969;0.1578947;0;5;-3;2650;-1512;2567;65536;0.6032059;0.5415512;-0.4584487;-0.3642659;-5;-2;0;3735;-1268;-705;8192;0.5207756;-0.7784414;-0.3047091;-0.1731302;1;-3;2;1260;3853;-1135;32768;0.5470914;-0.7742853;0.299169;-0.1080332;-4;-1;0;2355;3221;800;256;-0.02216066;-0.134349;-0.7111282;-0.6897507;-3;-1;1;883;3946;-13;128;0.04570637;0.132964;0.5872576;0.7970947;8;0;0;-1011;3881;1286;4;0.6466202;-0.2229917;0.4072022;0.6052631;0;-6;1;2521;3172;746;16;0.7157851;-0.6800554;-0.04432133;-0.1523546;0;2;0;747;4054;36;2;0.468144;-0.6079813;-0.4930748;-0.4099723;1;-5;0;683;3968;-383;8;0.4418283;-0.8848085;0.07756232;0.1260388;0;0;0;75;3235;2333;0.7285603;2.512657;1.018029;0.7345334;3.056991;1.053889;0.7397853;3.535594;1.083391;0.9008045;4.251479;1.07683;0.7198799;4.626104;1.035967;0.3562934;4.564744;1.100611;-0.4807826;4.922856;0.9291811;0.404588;5.225458;1.078675;1.227541;4.51192;1.035587;1.478818;4.31226;1.099772;1.462715;3.429018;1.48435;0.9429936;2.687498;1.76332;0.4163123;2.471179;1.007399;0.1758137;1.328797;0.1253668;0;0;0;0.4163123;2.471179;1.007399;0.1758137;1.328797;0.1253668;0;0;0
1854992.7831;NotLabelled;16384;0.7047127;0.398892;0.5650969;0.1578947;0;4;-3;2680;-1596;2597;65536;0.6044465;0.5401662;-0.4584487;-0.3642659;-4;-2;1;3823;-1154;-729;8192;0.5207756;-0.7784414;-0.3047091;-0.1731302;2;-1;2;1258;3885;-1131;32768;0.5470914;-0.7737488;0.300554;-0.1080332;-4;-1;0;2413;3219;882;256;-0.0235457;-0.132964;-0.7113439;-0.6897507;-3;0;1;933;3970;27;128;0.04432133;0.134349;0.5886427;0.7959182;6;0;0;-1055;3853;1330;4;0.6470962;-0.2216066;0.4072022;0.6052631;0;-2;1;2587;3176;736;16;0.7157851;-0.6800554;-0.04432133;-0.1523546;0;1;0;835;4108;52;2;0.468144;-0.6091019;-0.4916897;-0.4099723;0;-5;0;815;4036;-275;8;0.4418283;-0.8848085;0.07756232;0.1260388;-1;0;0;199;3273;2385;0.7278171;2.5135;1.016793;0.7337915;3.057956;1.05075;0.7390445;3.536659;1.078578;0.9016786;4.252149;1.069255;0.721595;4.627023;1.026978;0.3578787;4.56673;1.091899;-0.479718;4.921774;0.9166698;0.4058995;5.224376;1.064695;1.228997;4.511691;1.026977;1.479831;4.311712;1.091898;1.462514;3.430247;1.480479;0.9432567;2.688726;1.76031;0.4155686;2.471985;1.006321;0.1760216;1.328796;0.125075;0;0;0;0.4155686;2.471985;1.006321;0.1760216;1.328796;0.125075;0;0;0
1855013.9848;NotLabelled;16384;0.7050216;0.398892;0.5650969;0.1565097;0;5;-3;2698;-1624;2505;65536;0.6044465;0.5401662;-0.4584487;-0.3642659;-3;-2;1;3865;-1262;-695;8192;0.5193906;-0.7793662;-0.3047091;-0.1731302;2;-2;1;1166;3795;-1103;32768;0.5470914;-0.7737488;0.300554;-0.1080332;-3;0;0;2413;3187;892;256;-0.0235457;-0.132964;-0.7113439;-0.6897507;-2;0;1;949;3960;97;128;0.04432133;0.134349;0.5886427;0.7959182;8;-1;0;-1021;3787;1454;4;0.6470962;-0.2216066;0.4072022;0.6052631;-1;0;1;2455;3146;794;16;0.715489;-0.6800554;-0.04432133;-0.1537396;0;1;0;647;4088;-110;2;0.468144;-0.6091019;-0.4916897;-0.4099723;0;-4;0;783;4068;-351;8;0.4418283;-0.8848085;0.07756232;0.1260388;-1;1;0;165;3359;2455;0.7345853;2.511221;1.017207;0.740561;3.055786;1.049377;0.7458148;3.534577;1.075637;0.9084458;4.25006;1.065757;0.7283545;4.624902;1.023233;0.3646495;4.564658;1.088259;-0.4737779;4.919701;0.9170486;0.4129866;5.221988;1.058709;1.235757;4.509573;1.023232;1.486601;4.309641;1.088258;1.471148;3.428176;1.476917;0.9517146;2.687494;1.758639;0.4223365;2.469672;1.006882;0.176525;1.328796;0.1243644;0;0;0;0.4223365;2.469672;1.006882;0.176525;1.328796;0.1243644;0;0;0
1855033.8998;NotLabelled;16384;0.7046922;0.3975069;0.566482;0.1565097;0;3;-3;2678;-1634;2501;65536;0.6044465;0.5401662;-0.4584487;-0.3642659;-2;-1;1;3795;-1280;-687;8192;0.5193906;-0.7793662;-0.3047091;-0.1731302;1;-2;2;1176;3775;-1145;32768;0.5457063;-0.7747262;0.300554;-0.1080332;-3;0;0;2437;3191;836;256;-0.02493075;-0.1315789;-0.7115542;-0.6897507;-1;0;1;931;3968;63;128;0.04432133;0.134349;0.5900277;0.794892;8;-3;0;-1025;3793;1308;4;0.6475688;-0.2202216;0.4072022;0.6052631;0;-4;1;2459;3040;766;16;0.7154018;-0.6800554;-0.04570637;-0.1537396;0;2;-1;667;4026;-130;2;0.468144;-0.6091019;-0.4916897;-0.4099723;0;-4;0;811;4070;-335;8;0.4418283;-0.8848085;0.07756232;0.1260388;-1;2;0;45;3325;2459;0.7371264;2.510844;1.017602;0.743102;3.055408;1.049773;0.748356;3.5342;1.076032;0.910987;4.249683;1.066152;0.7308955;4.624525;1.023629;0.3671906;4.564281;1.088654;-0.4705464;4.921001;0.9175531;0.416218;5.22329;1.059213;1.238298;4.509195;1.023628;1.489143;4.309264;1.088654;1.472155;3.428963;1.479878;0.9527214;2.68828;1.7616;0.4248775;2.469295;1.007277;0.179066;1.328419;0.1247598;0;0;0;0.4248775;2.469295;1.007277;0.179066;1.328419;0.1247598;0;0;0
1855054.7748;NotLabelled;16384;0.7046922;0.3975069;0.566482;0.1565097;-1;2;-3;2738;-1576;2571;65536;0.6044465;0.5401662;-0.4584487;-0.3642659;-3;0;1;3809;-1302;-529;8192;0.5193906;-0.7796726;-0.3047091;-0.1717452;0;-2;1;1156;3839;-1123;32768;0.5457063;-0.7747262;0.300554;-0.1080332;-3;-1;0;2419;3211;828;256;-0.02493075;-0.1315789;-0.7115542;-0.6897507;-1;0;0;887;3968;19;128;0.04432133;0.134349;0.5914127;0.793862;7;-2;0;-1011;3781;1298;4;0.6475688;-0.2202216;0.4072022;0.6052631;0;-5;0;2505;3080;686;16;0.7154018;-0.6800554;-0.04570637;-0.1537396;0;-1;-2;689;4028;-138;2;0.468144;-0.6102173;-0.4903047;-0.4099723;-1;-3;0;797;3996;-365;8;0.4404432;-0.8854988;0.07756232;0.1260388;-2;0;0;131;3283;2455;0.7413276;2.508976;1.017212;0.7473045;3.05365;1.047474;0.7525593;3.53253;1.072054;0.9151853;4.248007;1.061623;0.7350852;4.622817;1.018854;0.3713912;4.562618;1.083985;-0.4682083;4.916884;0.9169608;0.4191209;5.219173;1.055039;1.242488;4.507489;1.018853;1.493344;4.307607;1.083984;1.477937;3.427306;1.475274;0.9597975;2.687645;1.762015;0.4290784;2.467391;1.007045;0.176991;1.328833;0.123305;0;0;0;0.4290784;2.467391;1.007045;0.176991;1.328833;0.123305;0;0;0
1855075.7826;NotLabelled;16384;0.7035766;0.3975069;0.567867;0.1565097;0;4;-3;2722;-1600;2477;65536;0.6056814;0.5387812;-0.4584487;-0.3642659;-3;-1;2;3829;-1230;-523;8192;0.5193906;-0.7802125;-0.3033241;-0.1717452;0;-1;1;1216;3785;-1125;32768;0.5457063;-0.7747262;0.300554;-0.1080332;-3;-2;0;2435;3177;878;256;-0.02631579;-0.1315789;-0.7115043;-0.6897507;-1;0;1;953;3936;-9;128;0.04293629;0.1357341;0.5914127;0.7937025;8;-2;0;-1039;3771;1164;4;0.6462714;-0.2202216;0.4072022;0.6066482;1;-3;0;2593;3060;608;16;0.715698;-0.6800554;-0.04570637;-0.1523546;0;-1;-2;587;3978;-92;2;0.4695291;-0.6091523;-0.4903047;-0.4099723;0;-3;1;913;4040;-347;8;0.4404432;-0.8854988;0.07756232;0.1260388;-1;0;-1;237;3323;2447;0.7413278;2.509011;1.017054;0.7473058;3.053788;1.045404;0.7525616;3.532752;1.068303;0.9151876;4.248229;1.057872;0.7350875;4.623039;1.015104;0.3713934;4.56284;1.080234;-0.4680791;4.917106;0.9125715;0.4192504;5.219395;1.05065;1.24249;4.50771;1.015103;1.493347;4.307828;1.080234;1.479464;3.428035;1.472723;0.9613254;2.688375;1.759464;0.4290782;2.467391;1.007045;0.176991;1.328833;0.1233051;0;0;0;0.4290782;2.467391;1.007045;0.176991;1.328833;0.1233051;0;0;0
1855096.7754;NotLabelled;16384;0.7035766;0.3975069;0.567867;0.1565097;0;3;-3;2748;-1638;2487;65536;0.6067273;0.5387812;-0.4570637;-0.3642659;-3;-1;2;3733;-1222;-443;8192;0.5193906;-0.7802125;-0.3033241;-0.1717452;0;0;1;1128;3781;-1137;32768;0.5457063;-0.7747262;0.300554;-0.1080332;-4;-3;0;2443;3129;940;256;-0.02770083;-0.1301939;-0.7130463;-0.6883656;-1;0;1;855;3986;61;128;0.04293629;0.1357341;0.5941828;0.7916309;7;0;0;-1001;3829;1244;4;0.6467417;-0.2188366;0.4072022;0.6066482;1;-1;1;2553;3144;770;16;0.715698;-0.6800554;-0.04570637;-0.1523546;0;-1;-2;707;4014;-32;2;0.4695291;-0.6100821;-0.4903047;-0.4085872;0;-3;1;943;3990;-389;8;0.4404432;-0.8854988;0.07756232;0.1260388;0;1;-1;201;3253;2469;0.7383611;2.510196;1.015472;0.7443389;3.054966;1.04394;0.7495947;3.533926;1.066942;0.9136132;4.249084;1.056506;0.7342428;4.624243;1.013736;0.3704325;4.564753;1.078867;-0.4705541;4.917797;0.9162892;0.41758;5.219759;1.04983;1.24142;4.507928;1.013734;1.491887;4.307559;1.078866;1.47754;3.427688;1.471164;0.9599684;2.688027;1.758928;0.4261114;2.468578;1.005453;0.1746901;1.329205;0.1225743;0;0;0;0.4261114;2.468578;1.005453;0.1746901;1.329205;0.1225743;0;0;0
1855118.0168;NotLabelled;16384;0.7027636;0.3975069;0.5692521;0.1551246;0;2;-4;2760;-1588;2535;65536;0.6067273;0.5387812;-0.4570637;-0.3642659;-4;-1;1;3765;-1212;-549;8192;0.5193906;-0.7802125;-0.3033241;-0.1717452;2;-2;2;1102;3817;-1145;32768;0.5443213;-0.7751619;0.301939;-0.1080332;-5;-2;0;2459;3127;962;256;-0.02908587;-0.1301939;-0.7129911;-0.6883656;-2;0;1;1005;3950;59;128;0.04293629;0.1357341;0.5941828;0.7916309;8;0;0;-1007;3861;1202;4;0.6476117;-0.2188366;0.4058172;0.6066482;0;0;0;2539;3142;814;16;0.715698;-0.6800554;-0.04570637;-0.1523546;-1;-4;-2;813;4014;-62;2;0.468144;-0.6111456;-0.4903047;-0.4085872;-1;0;2;935;4052;-357;8;0.4404432;-0.885619;0.07617728;0.1260388;0;1;0;81;3197;2491;0.7455933;2.507947;1.01543;0.7515733;3.052904;1.040066;0.7568307;3.532013;1.059699;0.9210306;4.247072;1.045842;0.7417165;4.622082;1.001554;0.3779584;4.562987;1.067334;-0.4635022;4.916031;0.9072288;0.4248889;5.220017;1.034315;1.248862;4.50563;1.001553;1.499343;4.30549;1.067333;1.486149;3.425618;1.459672;0.9698716;2.685958;1.749752;0.433343;2.466259;1.005729;0.1752372;1.329205;0.1217905;0;0;0;0.433343;2.466259;1.005729;0.1752372;1.329205;0.1217905;0;0;0
1855138.8007;NotLabelled;16384;0.7027636;0.3975069;0.5692521;0.1551246;0;4;-3;2762;-1606;2497;65536;0.6067273;0.5387812;-0.4570637;-0.3642659;-3;-1;1;3877;-1144;-543;8192;0.5193906;-0.7802125;-0.3033241;-0.1717452;2;-3;2;1146;3811;-1123;32768;0.5443213;-0.7753537;0.301939;-0.1066482;-5;-1;1;2505;3141;952;256;-0.03047091;-0.1288089;-0.7131848;-0.6883656;-3;2;1;945;4028;-13;128;0.04293629;0.1357341;0.5955678;0.7905895;9;0;0;-1055;3845;1232;4;0.6476117;-0.2188366;0.4058172;0.6066482;0;2;0;2527;3080;662;16;0.7147607;-0.6814404;-0.04432133;-0.1509695;-2;-2;-3;681;3976;-150;2;0.468144;-0.6100318;-0.4916897;-0.4085872;0;2;1;887;4050;-295;8;0.4404432;-0.8854208;0.07617728;0.1274238;0;1;-1;73;3285;2497;0.7455465;2.506045;1.017608;0.7515265;3.051003;1.042243;0.7567838;3.530111;1.061877;0.922372;4.24485;1.048013;0.7437865;4.620208;1.003723;0.3799145;4.561821;1.069505;-0.4624475;4.915323;0.9152617;0.4261935;5.21931;1.040588;1.250705;4.502769;1.003721;1.500797;4.302144;1.069503;1.488984;3.422273;1.461885;0.972156;2.68448;1.755716;0.4332961;2.464358;1.007906;0.1754784;1.329205;0.1214435;0;0;0;0.4332961;2.464358;1.007906;0.1754784;1.329205;0.1214435;0;0;0
1855159.7872;NotLabelled;16384;0.7035452;0.3961219;0.5692521;0.1551246;1;5;-3;2718;-1616;2473;65536;0.6067273;0.5387812;-0.4570637;-0.3642659;-3;-4;2;3793;-1248;-453;8192;0.5193906;-0.7805161;-0.3033241;-0.1703601;2;-4;3;1170;3741;-1089;32768;0.5429363;-0.7763242;0.301939;-0.1066482;-5;-2;1;2477;3147;924;256;-0.03047091;-0.1288089;-0.7131848;-0.6883656;-4;3;1;949;3918;23;128;0.04293629;0.1357341;0.5969529;0.7895442;9;0;0;-1055;3815;1238;4;0.6476117;-0.2188366;0.4058172;0.6066482;1;2;1;2441;3112;736;16;0.7147607;-0.6814404;-0.04432133;-0.1509695;-2;0;-2;511;4088;-46;2;0.468144;-0.6100318;-0.4916897;-0.4085872;-1;0;1;799;4062;-241;8;0.4404432;-0.8854208;0.07617728;0.1274238;0;1;-1;91;3287;2415;0.7510628;2.506294;1.011107;0.7570438;3.051335;1.033822;0.7623019;3.53051;1.051767;0.927874;4.245242;1.037363;0.7492743;4.620564;0.9928331;0.3854143;4.562217;1.058717;-0.457563;4.915721;0.9078752;0.4315763;5.219707;1.029613;1.256195;4.503136;0.9928319;1.506302;4.302561;1.058716;1.496072;3.422691;1.451142;0.982334;2.683907;1.747889;0.4388121;2.464573;1.001564;0.1774185;1.329421;0.116149;0;0;0;0.4388121;2.464573;1.001564;0.1774185;1.329421;0.116149;0;0;0
1855180.894;NotLabelled;16384;0.7024223;0.3961219;0.5706371;0.1551246;1;5;-3;2750;-1630;2449;65536;0.6079544;0.5373961;-0.4570637;-0.3642659;-3;-4;1;3773;-1256;-523;8192;0.5180055;-0.7819722;-0.301939;-0.1703601;3;-3;3;1168;3773;-1159;32768;0.5415512;-0.7767515;0.3033241;-0.1066482;-6;-1;0;2367;3225;844;256;-0.03185596;-0.1274238;-0.7133731;-0.6883656;-3;1;1;937;3926;5;128;0.04155125;0.1357341;0.5969529;0.7896183;6;-1;0;-1003;3815;1208;4;0.6476117;-0.2188366;0.4058172;0.6066482;0;0;2;2395;3146;652;16;0.7146734;-0.6814404;-0.04570637;-0.1509695;-2;-1;-2;757;4028;-80;2;0.4695291;-0.6089665;-0.4916897;-0.4085872;-2;-2;0;741;4008;-261;8;0.4404432;-0.8854208;0.07617728;0.1274238;-1;2;-1;119;3325;2461;0.7510632;2.506328;1.010948;0.7570449;3.051445;1.031739;0.7623037;3.530681;1.047993;0.9278761;4.245412;1.033589;0.7492762;4.620735;0.989059;0.3854162;4.562388;1.054943;-0.4575836;4.91466;0.9013696;0.431556;5.218647;1.023108;1.256197;4.503306;0.9890581;1.506304;4.302732;1.054942;1.497611;3.42337;1.448541;0.9840714;2.685623;1.748196;0.4388121;2.464573;1.001565;0.1774186;1.329421;0.116149;0;0;0;0.4388121;2.464573;1.001565;0.1774186;1.329421;0.116149;0;0;0
1855200.7832;NotLabelled;16384;0.7032016;0.3947368;0.5706371;0.1551246;1;5;-3;2762;-1630;2545;65536;0.6087821;0.5373961;-0.4570637;-0.3628809;-3;-4;1;3813;-1200;-573;8192;0.5180055;-0.7819722;-0.301939;-0.1703601;3;-3;3;1118;3831;-1201;32768;0.5415512;-0.7767515;0.3033241;-0.1066482;-5;0;0;2379;3209;872;256;-0.033241;-0.1260388;-0.7148895;-0.6869806;-5;1;1;1007;3922;33;128;0.04155125;0.1371191;0.5983379;0.7883296;7;-4;0;-1017;3875;1160;4;0.6476117;-0.2188366;0.4058172;0.6066482;0;0;2;2433;2990;676;16;0.7137293;-0.6828254;-0.04432133;-0.1495845;-4;-6;-4;729;4066;-76;2;0.4695291;-0.6089665;-0.4916897;-0.4085872;-1;-2;0;763;3994;-331;8;0.4404432;-0.8855389;0.07479224;0.1274238;-1;3;-1;-3;3301;2439;0.7525145;2.50673;1.008487;0.7584962;3.051846;1.029327;0.7637549;3.531079;1.045624;0.9293097;4.245804;1.030687;0.7506944;4.621091;0.9859192;0.3868464;4.562783;1.051905;-0.4578891;4.913833;0.9052246;0.4322169;5.217477;1.020589;1.257618;4.503674;0.9859183;1.50774;4.303152;1.051903;1.497943;3.42489;1.447927;0.9845281;2.689021;1.752377;0.4402634;2.464976;0.999099;0.1752994;1.329823;0.1147454;0;0;0;0.4402634;2.464976;0.999099;0.1752994;1.329823;0.1147454;0;0;0
1855220.8979;NotLabelled;16384;0.70238;0.3947368;0.5720221;0.1537396;2;5;-2;2680;-1608;2497;65536;0.6087821;0.5373961;-0.4570637;-0.3628809;-2;-4;2;3861;-1236;-633;8192;0.5166205;-0.7828879;-0.301939;-0.1703601;2;-1;2;1158;3775;-1163;32768;0.5415512;-0.7767515;0.3033241;-0.1066482;-4;0;0;2369;3199;872;256;-0.03462604;-0.1260388;-0.7148237;-0.6869806;-5;1;0;959;3916;39;128;0.0401662;0.1371191;0.599723;0.7873483;8;-4;0;-1065;3771;1132;4;0.6480781;-0.2174515;0.4058172;0.6066482;0;-1;3;2479;3096;706;16;0.7140182;-0.6828254;-0.04432133;-0.1481994;-3;-5;-4;475;4044;-228;2;0.4695291;-0.6089665;-0.4916897;-0.4085872;-2;-3;1;789;4084;-311;8;0.4390582;-0.8862264;0.07479224;0.1274238;-2;2;-1;113;3275;2555;0.7591351;2.506963;1.001403;0.7651174;3.052147;1.020383;0.7703767;3.531434;1.035044;0.9360623;4.246045;1.016582;0.7574495;4.621167;0.9704419;0.393708;4.563242;1.037344;-0.4526746;4.913548;0.8985949;0.4373354;5.219234;1.00921;1.264346;4.503635;0.9700587;1.514542;4.303356;1.036498;1.508853;3.423748;1.429603;0.9970382;2.68788;1.736737;0.4468836;2.465178;0.9921694;0.1772947;1.330025;0.1092149;0;0;0;0.4468836;2.465178;0.9921694;0.1772947;1.330025;0.1092149;0;0;0
1855241.8456;NotLabelled;16384;0.70238;0.3947368;0.5720221;0.1537396;2;5;-1;2750;-1656;2405;65536;0.610002;0.536011;-0.4570637;-0.3628809;-1;-3;2;3779;-1156;-673;8192;0.5166205;-0.783188;-0.301939;-0.1689751;2;-1;3;1228;3767;-1147;32768;0.5401662;-0.7777153;0.3033241;-0.1066482;-4;1;0;2403;3191;926;256;-0.03462604;-0.1260388;-0.7148237;-0.6869806;-6;0;0;911;3922;41;128;0.0401662;0.1385041;0.601108;0.7860486;9;-4;0;-1009;3803;1180;4;0.6467788;-0.2174515;0.4058172;0.6080332;1;-2;4;2533;3060;744;16;0.7143042;-0.6828254;-0.04432133;-0.1468144;-2;4;-5;291;4062;-248;2;0.4695291;-0.6098934;-0.4916897;-0.4072022;-2;-2;2;761;4002;-347;8;0.4390582;-0.8862264;0.07479224;0.1274238;-2;2;-1;27;3271;2487;0.7605625;2.505032;1.002504;0.7665458;3.050278;1.019602;0.7718055;3.529613;1.032609;0.9388888;4.243902;1.014264;0.7610378;4.619369;0.9679857;0.3971346;4.562148;1.034616;-0.44888;4.912434;0.8935874;0.4412656;5.218119;1.003105;1.267705;4.500854;0.9679846;1.517463;4.300092;1.034614;1.508465;3.423017;1.433278;0.9970303;2.687148;1.741043;0.4483109;2.463215;0.9934271;0.1748695;1.330391;0.1086691;0;0;0;0.4483109;2.463215;0.9934271;0.1748695;1.330391;0.1086691;0;0;0
1855262.7759;NotLabelled;16384;0.7031566;0.3933518;0.5720221;0.1537396;4;3;-2;2622;-1606;2447;65536;0.6108238;0.536011;-0.4570637;-0.3614958;0;-3;3;3799;-1264;-573;8192;0.5166205;-0.783188;-0.301939;-0.1689751;2;0;3;1114;3801;-1087;32768;0.5401662;-0.7777153;0.3033241;-0.1066482;-3;2;0;2333;3197;834;256;-0.03462604;-0.1260388;-0.7161523;-0.6855956;-5;-2;0;967;3934;61;128;0.03878116;0.1385041;0.601108;0.7861181;9;-5;0;-1039;3805;1114;4;0.647671;-0.2160665;0.4030471;0.6094183;3;-2;5;2615;2990;624;16;0.7137481;-0.6828254;-0.04847645;-0.1481994;0;20;-3;585;4016;-116;2;0.4695291;-0.6098934;-0.4916897;-0.4072022;-2;-5;2;645;3962;-367;8;0.4390582;-0.8863422;0.0734072;0.1274238;-3;1;-2;79;3253;2523;0.7555991;2.506241;1.001713;0.7615829;3.051543;1.016944;0.7668432;3.530919;1.028309;0.9339263;4.245208;1.009964;0.7560753;4.620675;0.9636856;0.3921723;4.563455;1.030316;-0.4538432;4.913739;0.8892934;0.4367631;5.219065;0.996029;1.262743;4.502161;0.9636842;1.512501;4.301398;1.030314;1.50537;3.424832;1.430134;0.9941717;2.690016;1.740791;0.443347;2.464393;0.9927911;0.1723101;1.330751;0.1083411;0;0;0;0.443347;2.464393;0.9927911;0.1723101;1.330751;0.1083411;0;0;0
1855283.9176;NotLabelled;16384;0.7028018;0.3919668;0.5734072;0.1537396;3;4;-2;2688;-1632;2495;65536;0.609785;0.536011;-0.4584487;-0.3614958;0;-4;2;3795;-1180;-541;8192;0.5152354;-0.7840999;-0.301939;-0.1689751;2;0;5;1110;3775;-1111;32768;0.5387812;-0.7786755;0.3033241;-0.1066482;-5;2;0;2377;3199;832;256;-0.03462604;-0.1260388;-0.7161523;-0.6855956;-5;-2;0;939;3876;29;128;0.03878116;0.1398892;0.602493;0.7848116;9;-6;0;-1001;3859;1118;4;0.6468263;-0.2146814;0.4030471;0.6108033;3;-5;6;2723;3006;636;16;0.711937;-0.6842105;-0.05124654;-0.1495845;-5;13;-3;835;3936;-128;2;0.4709141;-0.6099406;-0.4903047;-0.4072022;-3;-10;1;529;3990;-269;8;0.4390582;-0.886142;0.0734072;0.1288089;-4;2;-2;97;3327;2255;0.7472138;2.501689;1.007726;0.7531975;3.046989;1.023001;0.7584578;3.526364;1.034405;0.9256985;4.240538;1.013193;0.7478979;4.615869;0.9656447;0.3840403;4.558992;1.032816;-0.4623165;4.90804;0.8907742;0.4276485;5.2154;0.9970222;1.254537;4.497231;0.9656436;1.504305;4.296662;1.032814;1.497666;3.420095;1.432643;0.9866065;2.685279;1.74353;0.4349615;2.459842;0.9988007;0.1671606;1.331552;0.1065546;0;0;0;0.4349615;2.459842;0.9988007;0.1671606;1.331552;0.1065546;0;0;0
1855304.8096;NotLabelled;16384;0.7028018;0.3919668;0.5734072;0.1537396;3;4;-3;2674;-1648;2561;65536;0.6106039;0.536011;-0.4584487;-0.3601108;-1;-5;2;3849;-1278;-503;8192;0.5152354;-0.7840999;-0.301939;-0.1689751;2;-2;4;978;3791;-1093;32768;0.5387812;-0.7788639;0.3033241;-0.1052632;-5;0;0;2421;3135;866;256;-0.03601108;-0.1260388;-0.7160839;-0.6855956;-6;0;0;885;3894;115;128;0.03739612;0.1398892;0.6038781;0.7838136;8;-5;0;-1075;3875;1194;4;0.6476873;-0.2146814;0.4016621;0.6108033;3;0;6;2655;3034;768;16;0.7116446;-0.6842105;-0.05124654;-0.1509695;-7;7;-5;673;4102;-182;2;0.4736842;-0.6098306;-0.4889196;-0.4058172;-6;-12;-5;535;4048;-373;8;0.4376731;-0.8872519;0.07063711;0.1274238;-9;12;1;-75;3295;2241;0.7463778;2.500819;1.003335;0.752362;3.046168;1.016739;0.7576227;3.525579;1.026498;0.9248636;4.239753;1.005286;0.7470629;4.615085;0.9577382;0.3832053;4.558208;1.024909;-0.4641813;4.904797;0.8829911;0.4261747;5.210154;0.9917112;1.253702;4.496447;0.9577371;1.50347;4.295877;1.024908;1.495074;3.420507;1.427317;0.9842529;2.686752;1.741088;0.4341253;2.458941;0.9945649;0.1659467;1.332173;0.1005107;0;0;0;0.4341253;2.458941;0.9945649;0.1659467;1.332173;0.1005107;0;0;0
1855326.8003;NotLabelled;16384;0.7035725;0.3905817;0.5734072;0.1537396;4;5;-4;2732;-1672;2635;65536;0.6106039;0.536011;-0.4584487;-0.3601108;-2;-6;1;3937;-1252;-589;8192;0.5138504;-0.7853051;-0.301939;-0.16759;1;-5;3;948;3815;-1105;32768;0.5387812;-0.7788639;0.3033241;-0.1052632;-6;-4;0;2489;3179;774;256;-0.03739612;-0.1246537;-0.7175785;-0.6842105;-5;-2;3;1149;4838;157;128;0.03739612;0.1412742;0.6052631;0.7824958;10;-2;0;-1111;3947;1162;4;0.649001;-0.2132964;0.400277;0.6108033;3;0;6;2631;2938;724;16;0.710105;-0.6855956;-0.05401662;-0.1509695;-8;8;-6;511;4046;-102;2;0.4764543;-0.6098871;-0.4861496;-0.4058172;-8;-15;-11;229;4094;-515;8;0.4362881;-0.8883473;0.06786703;0.1260388;-15;23;3;-537;3511;2107;0.7489263;2.498567;1.005669;0.7549109;3.043959;1.017177;0.760172;3.523402;1.02527;0.9287933;4.23725;1.004048;0.7517183;4.612925;0.9564959;0.3877517;4.556752;1.023669;-0.4599142;4.903341;0.8834247;0.4299672;5.210732;0.9902847;1.258127;4.493307;0.9564949;1.507507;4.292256;1.023667;1.499906;3.416887;1.426093;0.9916326;2.682143;1.741683;0.4366735;2.456659;0.9970559;0.1687181;1.331825;0.1005022;0;0;0;0.4366735;2.456659;0.9970559;0.1687181;1.331825;0.1005022;0;0;0
1855347.798;NotLabelled;16384;0.7024415;0.3905817;0.5747922;0.1537396;3;5;-3;2750;-1664;2641;65536;0.611817;0.534626;-0.4584487;-0.3601108;-2;-5;2;3835;-1218;-711;8192;0.5138504;-0.7858363;-0.300554;-0.16759;1;-8;3;1084;3793;-1227;32768;0.5373961;-0.7792801;0.3047091;-0.1052632;-6;-4;0;2539;3203;722;256;-0.03878116;-0.1246537;-0.717505;-0.6842105;-7;4;0;1109;4060;277;128;0.03601108;0.1426593;0.6066482;0.7812359;12;-2;0;-1263;3907;1090;4;0.6485486;-0.2132964;0.398892;0.6121883;5;0;7;2641;2830;704;16;0.7099983;-0.6855956;-0.05540166;-0.1509695;-11;12;-6;545;3988;-112;2;0.4792244;-0.6089948;-0.4833795;-0.4072022;-9;-16;-19;-45;4232;-327;8;0.434903;-0.889627;0.06232687;0.1246537;-25;29;6;-493;3749;1983;0.7503974;2.495254;1.002265;0.7563826;3.040683;1.011895;0.7616439;3.52015;1.018338;0.930376;4.233863;0.9937301;0.7533212;4.609354;0.9446785;0.3894157;4.553555;1.012489;-0.4590489;4.898897;0.8740134;0.4313025;5.206289;0.9768782;1.259707;4.489641;0.9446772;1.50912;4.288846;1.012487;1.503785;3.415195;1.418666;0.9969326;2.680451;1.736535;0.4381444;2.453317;0.993808;0.1653876;1.332764;0.09335025;0;0;0;0.4381444;2.453317;0.993808;0.1653876;1.332764;0.09335025;0;0;0
1855368.0138;NotLabelled;16384;0.7035112;0.3891967;0.5747922;0.1523546;4;5;-1;2838;-1772;2635;65536;0.6126301;0.534626;-0.4584487;-0.3587258;0;-6;0;3873;-1222;-741;8192;0.5138504;-0.7858363;-0.300554;-0.16759;0;-7;3;1206;3823;-1263;32768;0.5373961;-0.7794659;0.3047091;-0.1038781;-3;-1;0;2577;3127;714;256;-0.03878116;-0.1246537;-0.7188233;-0.6828254;-6;2;1;1129;3956;99;128;0.03601108;0.1426593;0.6080332;0.7801584;11;-3;0;-1255;3857;1212;4;0.6498414;-0.2105263;0.3961219;0.6135734;5;-11;10;2791;2942;824;16;0.706378;-0.6883656;-0.05955679;-0.1537396;-14;12;-9;743;4066;-220;2;0.4847645;-0.6058667;-0.4806094;-0.4085872;-19;-12;-26;3;4498;-1;8;0.433518;-0.8906851;0.05955679;0.1232687;-31;22;5;-209;3681;2337;0.7454376;2.494506;1.00326;0.7514231;3.039965;1.011048;0.7566845;3.519451;1.015871;0.9267932;4.232837;0.9912519;0.7504629;4.608668;0.9421952;0.3864505;4.553572;1.010008;-0.4632372;4.8977;0.8760861;0.4277577;5.204718;0.9743964;1.256617;4.487978;0.9421943;1.505643;4.286703;1.010007;1.499597;3.412978;1.416015;0.9923542;2.680131;1.737617;0.4331842;2.452541;0.9949566;0.163008;1.333129;0.09230375;0;0;0;0.4331842;2.452541;0.9949566;0.163008;1.333129;0.09230375;0;0;0
1855387.9814;NotLabelled;16384;0.7042756;0.3878116;0.5747922;0.1523546;5;4;0;2818;-1650;2595;65536;0.6127992;0.533241;-0.4598338;-0.3587258;1;-5;0;3949;-1196;-791;8192;0.5138504;-0.7861304;-0.300554;-0.166205;0;-1;2;1208;3823;-1399;32768;0.5387812;-0.7783231;0.3047091;-0.1052632;4;4;0;2365;3113;650;256;-0.0401662;-0.1246537;-0.7187472;-0.6828254;-5;0;2;1153;3920;83;128;0.03601108;0.1440443;0.6080332;0.7799038;7;-3;-2;-1065;3835;1286;4;0.6485087;-0.2091413;0.3947368;0.6163435;5;-16;9;2749;2906;898;16;0.7036679;-0.6911357;-0.05955679;-0.1537396;-14;1;-11;939;4050;-98;2;0.4903047;-0.6024963;-0.4792244;-0.4085872;-25;-9;-30;75;4296;-13;8;0.4293629;-0.8930662;0.0567867;0.1218837;-35;13;4;-201;3683;2603;0.7453405;2.487437;1.00117;0.7513263;3.032919;1.007013;0.756588;3.512419;1.010126;0.9268352;4.225669;0.9826484;0.7505453;4.601351;0.9323269;0.3865821;4.546596;1.000677;-0.462672;4.891167;0.8651528;0.4276759;5.200212;0.9629737;1.256672;4.480546;0.9323256;1.505714;4.279472;1.000675;1.499836;3.405747;1.406686;0.9946707;2.671911;1.729301;0.4330868;2.445442;0.9930282;0.1633128;1.333849;0.08064605;0;0;0;0.4330868;2.445442;0.9930282;0.1633128;1.333849;0.08064605;0;0;0
1855408.764;NotLabelled;16384;0.7050365;0.3864266;0.5747922;0.1523546;6;4;0;2660;-1618;2671;65536;0.6136079;0.533241;-0.4598338;-0.3573407;4;-4;1;3795;-1210;-935;8192;0.5138504;-0.7861304;-0.300554;-0.166205;0;2;2;1108;3843;-1385;32768;0.5401662;-0.7771737;0.3047091;-0.1066482;4;6;-1;2617;3217;750;256;-0.04155125;-0.1232687;-0.7189073;-0.6828254;0;1;0;1047;3954;3;128;0.03601108;0.1454294;0.6094183;0.7785646;5;-5;-2;-989;3815;1308;4;0.6484776;-0.2077562;0.3933518;0.6177285;2;-20;9;2789;2902;750;16;0.7026066;-0.6925207;-0.05955679;-0.1523546;-13;-10;-15;983;3974;-60;2;0.501385;-0.5956887;-0.4750692;-0.4099723;-22;-11;-23;509;4134;-205;8;0.4196676;-0.8980209;0.05401662;0.1204986;-36;2;1;-73;3379;2773;0.7461608;2.484924;0.9947526;0.7521465;3.030406;1.000656;0.7574081;3.509907;1.003822;0.9290284;4.222826;0.9763327;0.7534622;4.598846;0.9260054;0.3893944;4.544793;0.9943579;-0.4604262;4.888107;0.8591937;0.4309693;5.194773;0.954937;1.259355;4.477067;0.9260044;1.50801;4.275515;0.9943568;1.505166;3.402303;1.401502;0.9984373;2.668387;1.721474;0.433907;2.44293;0.9866058;0.1662348;1.334074;0.070283;0;0;0;0.433907;2.44293;0.9866058;0.1662348;1.334074;0.070283;0;0;0
1855428.806;NotLabelled;16384;0.7050365;0.3864266;0.5747922;0.1523546;6;2;0;2590;-1654;2663;65536;0.6125675;0.533241;-0.4612188;-0.3573407;5;-2;0;3749;-1272;-943;8192;0.5138504;-0.7858363;-0.300554;-0.16759;0;5;0;1054;3895;-1193;32768;0.5401662;-0.7777153;0.3033241;-0.1066482;5;7;-2;2607;3239;624;256;-0.04293629;-0.1232687;-0.7188259;-0.6828254;-9;-7;5;627;4274;145;128;0.03462604;0.1468144;0.6094183;0.7783675;11;-7;-1;-1053;3843;1300;4;0.6467121;-0.2049861;0.3933518;0.6204986;-1;-10;8;2757;2886;664;16;0.7021287;-0.6939058;-0.05955679;-0.1481994;-15;-14;-16;655;3964;38;2;0.5041551;-0.5933461;-0.4750692;-0.4099723;-22;-8;-20;653;4182;-483;8;0.4141274;-0.9004027;0.05401662;0.1218837;-36;-1;0;203;3139;2853;0.7473402;2.481824;0.9922441;0.7533261;3.027324;0.9962596;0.7585879;3.506832;0.9977665;0.9301594;4.219743;0.9697589;0.7545617;4.595717;0.9192023;0.3905087;4.541688;0.987652;-0.4599376;4.883739;0.853221;0.4311464;5.19243;0.945289;1.260462;4.473969;0.9192015;1.50914;4.27248;0.9876512;1.507615;3.399268;1.394803;0.999966;2.665286;1.713158;0.4350861;2.439803;0.9842545;0.1652663;1.334497;0.06427848;0;0;0;0.4350861;2.439803;0.9842545;0.1652663;1.334497;0.06427848;0;0;0
1855449.939;NotLabelled;16384;0.7057939;0.3850415;0.5747922;0.1523546;4;0;0;2516;-1552;2669;65536;0.6133733;0.533241;-0.4612188;-0.3559557;5;3;-1;3451;-1112;-1029;8192;0.5138504;-0.7858363;-0.300554;-0.16759;0;3;0;992;3873;-1143;32768;0.5415512;-0.7770997;0.301939;-0.1080332;5;6;-2;2433;3107;632;256;-0.04293629;-0.1232687;-0.7188259;-0.6828254;0;2;0;1089;3788;161;128;0.03462604;0.1468144;0.6094183;0.7783675;4;-7;-1;-1103;3715;1308;4;0.6475258;-0.200831;0.3919668;0.6218836;0;-14;9;2861;2912;614;16;0.6966759;-0.7001286;-0.06094183;-0.1440443;-16;4;-16;181;4092;-80;2;0.5083103;-0.5909033;-0.4736842;-0.4099723;-21;-9;-18;599;3968;-383;8;0.4085872;-0.9029303;0.05401662;0.1218837;-37;-6;0;189;3087;2675;0.7437008;2.479757;0.9889458;0.7496867;3.025255;0.9930574;0.7549484;3.504764;0.9946489;0.9278933;4.217341;0.9666352;0.7530216;4.593654;0.9160659;0.3888628;4.540326;0.9845034;-0.4622089;4.882354;0.8540294;0.4294862;5.189054;0.9468285;1.258686;4.470931;0.9160852;1.506974;4.268965;0.9845473;1.50547;3.395311;1.390752;0.9997475;2.660495;1.710246;0.4314468;2.437737;0.9809482;0.1588839;1.335558;0.058034;0;0;0;0.4314468;2.437737;0.9809482;0.1588839;1.335558;0.058034;0;0;0
1855469.8292;NotLabelled;16384;0.7054935;0.3850415;0.5747922;0.1537396;0;-6;-2;2384;-1452;2737;65536;0.6111205;0.534626;-0.4626039;-0.3559557;3;6;0;3777;-1262;-737;8192;0.5138504;-0.7855396;-0.300554;-0.1689751;0;0;0;924;3831;-1061;32768;0.5429363;-0.7761326;0.301939;-0.1080332;2;0;-1;2423;3117;804;256;-0.04293629;-0.1232687;-0.7188259;-0.6828254;2;0;1;1091;3984;75;128;0.03462604;0.1481994;0.6094183;0.778105;2;-6;-1;-1111;3677;1134;4;0.6461231;-0.199446;0.3905817;0.6246537;4;-12;8;2793;2938;416;16;0.6952909;-0.701541;-0.06371191;-0.1426593;-19;7;-15;523;3986;-38;2;0.5124654;-0.5884178;-0.4722992;-0.4099723;-20;-13;-21;591;3812;-69;8;0.4030471;-0.9054168;0.05401662;0.1218837;-36;-6;-1;311;3039;2615;0.7434434;2.472801;0.9731123;0.7494293;3.018299;0.977224;0.7546912;3.497808;0.9788154;0.927635;4.210385;0.9507948;0.7527611;4.586698;0.9002326;0.388605;4.53337;0.9686849;-0.462409;4.874151;0.8346218;0.4285986;5.182877;0.9273087;1.258426;4.463975;0.9002315;1.506716;4.262009;0.9686836;1.504432;3.388284;1.37473;0.9978126;2.65257;1.690722;0.4311895;2.43078;0.9651147;0.1544672;1.336914;0.0335893;0;0;0;0.4311895;2.43078;0.9651147;0.1544672;1.336914;0.0335893;0;0;0
1855490.7696;NotLabelled;16384;0.7054935;0.3850415;0.5747922;0.1537396;-2;-5;-4;2506;-1508;2713;65536;0.6113591;0.534626;-0.4612188;-0.3573407;0;8;2;3761;-1196;-679;8192;0.5152354;-0.7846318;-0.300554;-0.1689751;-2;0;-1;960;3753;-979;32768;0.5443213;-0.7749676;0.301939;-0.1094183;0;-4;-1;2361;3089;820;256;-0.04432133;-0.1232687;-0.7187419;-0.6828254;1;0;0;983;3972;145;128;0.03462604;0.1481994;0.6094183;0.778105;4;-4;0;-933;3767;1000;4;0.6456181;-0.199446;0.3891967;0.6260388;8;-7;9;2733;2988;410;16;0.6925207;-0.7041489;-0.06509695;-0.1426593;-19;0;-14;293;4074;156;2;0.5152354;-0.5871074;-0.4709141;-0.4099723;-18;-9;-19;577;3922;-133;8;0.398892;-0.907068;0.05401662;0.1232687;-35;-5;-2;223;2863;2687;0.7333162;2.470872;0.9705243;0.7393022;3.01637;0.9746971;0.744564;3.495878;0.9763424;0.9175079;4.208456;0.9483218;0.7426342;4.584768;0.8977594;0.3784781;4.531441;0.9662119;-0.4732023;4.870533;0.8320967;0.4177982;5.177651;0.9300421;1.248299;4.462045;0.8977584;1.496589;4.260079;0.9662104;1.492419;3.385844;1.371143;0.9855215;2.649086;1.684239;0.4210624;2.428852;0.9625215;0.14817;1.337783;0.02659577;0;0;0;0.4210624;2.428852;0.9625215;0.14817;1.337783;0.02659577;0;0;0
1855510.7746;NotLabelled;16384;0.7047358;0.3864266;0.5747922;0.1537396;-4;-3;-6;2500;-1446;2591;65536;0.6111895;0.536011;-0.4598338;-0.3573407;-2;7;3;3645;-1230;-491;8192;0.5152354;-0.7846318;-0.300554;-0.1689751;-3;-4;0;942;3627;-1021;32768;0.5443213;-0.7751619;0.301939;-0.1080332;-3;-7;-1;2391;3137;994;256;-0.04432133;-0.1232687;-0.7187419;-0.6828254;1;0;0;843;3818;123;128;0.033241;0.1481994;0.6094183;0.7781654;7;-2;0;-865;3787;1052;4;0.6463634;-0.1980609;0.3864266;0.6274238;8;-6;9;2561;2978;370;16;0.6897507;-0.7072872;-0.06648199;-0.1398892;-20;0;-14;269;3912;386;2;0.5221606;-0.5830499;-0.4695291;-0.4085872;-16;-9;-20;749;3798;-223;8;0.3878116;-0.9118603;0.05401662;0.1232687;-34;4;0;153;2643;2669;0.7309392;2.469785;0.9619815;0.7369251;3.015284;0.9661543;0.7421868;3.494791;0.9677995;0.9165022;4.207035;0.9397659;0.7423531;4.583682;0.889198;0.3780953;4.531057;0.9576529;-0.4738484;4.870149;0.8252218;0.4176144;5.177233;0.9189731;1.247781;4.459986;0.8891968;1.495682;4.257543;0.9576512;1.4937;3.3821;1.359983;0.985226;2.645299;1.670411;0.4186852;2.427766;0.9539789;0.1482384;1.337946;0.01589016;0;0;0;0.4186852;2.427766;0.9539789;0.1482384;1.337946;0.01589016;0;0;0
