SEP=;
index;label;RightUpperArm_boneIndex;RightUpperArm_quat9x_w;RightUpperArm_quat9x_x;RightUpperArm_quat9x_y;RightUpperArm_quat9x_z;RightUpperArm_gyroscope_x;RightUpperArm_gyroscope_y;RightUpperArm_gyroscope_z;RightUpperArm_accelerometer_x;RightUpperArm_accelerometer_y;RightUpperArm_accelerometer_z;RightLowerArm_boneIndex;RightLowerArm_quat9x_w;RightLowerArm_quat9x_x;RightLowerArm_quat9x_y;RightLowerArm_quat9x_z;RightLowerArm_gyroscope_x;RightLowerArm_gyroscope_y;RightLowerArm_gyroscope_z;RightLowerArm_accelerometer_x;RightLowerArm_accelerometer_y;RightLowerArm_accelerometer_z;LeftUpperArm_boneIndex;LeftUpperArm_quat9x_w;LeftUpperArm_quat9x_x;LeftUpperArm_quat9x_y;LeftUpperArm_quat9x_z;LeftUpperArm_gyroscope_x;LeftUpperArm_gyroscope_y;LeftUpperArm_gyroscope_z;LeftUpperArm_accelerometer_x;LeftUpperArm_accelerometer_y;LeftUpperArm_accelerometer_z;LeftLowerArm_boneIndex;LeftLowerArm_quat9x_w;LeftLowerArm_quat9x_x;LeftLowerArm_quat9x_y;LeftLowerArm_quat9x_z;LeftLowerArm_gyroscope_x;LeftLowerArm_gyroscope_y;LeftLowerArm_gyroscope_z;LeftLowerArm_accelerometer_x;LeftLowerArm_accelerometer_y;LeftLowerArm_accelerometer_z;Chest_boneIndex;Chest_quat9x_w;Chest_quat9x_x;Chest_quat9x_y;Chest_quat9x_z;Chest_gyroscope_x;Chest_gyroscope_y;Chest_gyroscope_z;Chest_accelerometer_x;Chest_accelerometer_y;Chest_accelerometer_z;Spine_boneIndex;Spine_quat9x_w;Spine_quat9x_x;Spine_quat9x_y;Spine_quat9x_z;Spine_gyroscope_x;Spine_gyroscope_y;Spine_gyroscope_z;Spine_accelerometer_x;Spine_accelerometer_y;Spine_accelerometer_z;RightUpperLeg_boneIndex;RightUpperLeg_quat9x_w;RightUpperLeg_quat9x_x;RightUpperLeg_quat9x_y;RightUpperLeg_quat9x_z;RightUpperLeg_gyroscope_x;RightUpperLeg_gyroscope_y;RightUpperLeg_gyroscope_z;RightUpperLeg_accelerometer_x;RightUpperLeg_accelerometer_y;RightUpperLeg_accelerometer_z;RightLowerLeg_boneIndex;RightLowerLeg_quat9x_w;RightLowerLeg_quat9x_x;RightLowerLeg_quat9x_y;RightLowerLeg_quat9x_z;RightLowerLeg_gyroscope_x;RightLowerLeg_gyroscope_y;RightLowerLeg_gyroscope_z;RightLowerLeg_accelerometer_x;RightLowerLeg_accelerometer_y;RightLowerLeg_accelerometer_z;LeftUpperLeg_boneIndex;LeftUpperLeg_quat9x_w;LeftUpperLeg_quat9x_x;LeftUpperLeg_quat9x_y;LeftUpperLeg_quat9x_z;LeftUpperLeg_gyroscope_x;LeftUpperLeg_gyroscope_y;LeftUpperLeg_gyroscope_z;LeftUpperLeg_accelerometer_x;LeftUpperLeg_accelerometer_y;LeftUpperLeg_accelerometer_z;LeftLowerLeg_boneIndex;LeftLowerLeg_quat9x_w;LeftLowerLeg_quat9x_x;LeftLowerLeg_quat9x_y;LeftLowerLeg_quat9x_z;LeftLowerLeg_gyroscope_x;LeftLowerLeg_gyroscope_y;LeftLowerLeg_gyroscope_z;LeftLowerLeg_accelerometer_x;LeftLowerLeg_accelerometer_y;LeftLowerLeg_accelerometer_z;pelvis_x;pelvis_y;pelvis_z;lowerSpine_x;lowerSpine_y;lowerSpine_z;middleSpine_x;middleSpine_y;middleSpine_z;upperSpine_x;upperSpine_y;upperSpine_z;rightClavicle_x;rightClavicle_y;rightClavicle_z;rightShoulder_x;rightShoulder_y;rightShoulder_z;rightElbow_x;rightElbow_y;rightElbow_z;rightWrist_x;rightWrist_y;rightWrist_z;leftClavicle_x;leftClavicle_y;leftClavicle_z;leftShoulder_x;leftShoulder_y;leftShoulder_z;leftElbow_x;leftElbow_y;leftElbow_z;leftWrist_x;leftWrist_y;leftWrist_z;rightHip_x;rightHip_y;rightHip_z;rightKnee_x;rightKnee_y;rightKnee_z;rightAnkle_x;rightAnkle_y;rightAnkle_z;leftHip_x;leftHip_y;leftHip_z;leftKnee_x;leftKnee_y;leftKnee_z;leftAnkle_x;leftAnkle_y;leftAnkle_z;
1788104.7916;NotLabelled;16384;0.7320701;-0.6204986;0.2728532;-0.06786703;42;-68;113;-2280;3120;-1143;65536;0.8667018;-0.4889196;0.06925207;0.07063711;-37;-175;19;-901;3850;2653;8192;0.5720221;-0.6399237;-0.4044321;-0.3157895;-1;4;38;348;4039;-251;32768;0.7321213;-0.5858725;-0.2285319;-0.2617728;0;4;-28;847;4033;-874;256;-0.1565097;0.005540166;-0.9853264;-0.06786703;11;7;1;395;112;3909;128;0.1440443;-0.06371191;0.9745881;0.1592798;1;0;4;83;1037;-3968;4;-0.4972299;0.4944598;-0.5201749;-0.4875346;23;-1;-31;-185;4154;86;16;-0.1191136;-0.9799284;-0.1412742;0.07479224;-2;46;1;-1047;-1054;3636;2;0.4792244;-0.3864266;-0.4833795;-0.6223848;8;10;0;-1193;3512;-687;8;-0.1191136;-0.9847227;0.1149584;-0.05401662;0;-17;-18;1407;-507;3725;1.290401;1.340919;2.315255;1.290887;1.385233;1.771511;1.291292;1.42217;1.293396;1.292318;1.521583;0.566362;1.033703;1.530657;0.2380577;0.6928662;1.577742;0.3855437;0.1878518;0.8049231;0.4632578;0;0;0;1.55402;1.525283;0.2380546;1.843374;1.565861;0.3855383;1.932752;0.6133075;0.4992435;1.888949;-0.3123157;0.3015276;0.9785208;1.333014;2.359986;0.9290055;-0.1287324;2.401255;1.472371;0.2124381;3.58476;0.9785208;1.333014;2.359986;0.9290055;-0.1287324;2.401255;1.472371;0.2124381;3.58476
1788125.7799;NotLabelled;16384;0.7321213;-0.6246537;0.267313;-0.04847645;43;-70;105;-1742;2522;-1127;65536;0.859543;-0.4958449;0.08033241;0.09418282;-63;-165;7;-1335;3662;2155;8192;0.5692521;-0.6411142;-0.4085872;-0.3130194;-4;0;35;590;4145;-47;32768;0.7301942;-0.5872576;-0.232687;-0.2603878;0;7;-30;711;3993;-852;256;-0.1565097;0.006925208;-0.9852213;-0.06925207;9;10;-1;411;54;3965;128;0.1440443;-0.06371191;0.9745881;0.1592798;-2;6;8;-23;941;-3932;4;-0.4930748;0.4986149;-0.5201638;-0.4875346;24;-8;-29;-409;4210;-46;16;-0.1177285;-0.9790726;-0.1481994;0.07479224;0;41;2;-981;-1058;3626;2;0.4778393;-0.3864266;-0.4819945;-0.6245202;14;4;-2;-1275;3486;-675;8;-0.1177285;-0.9845434;0.1191136;-0.05124654;0;-16;-22;1231;-375;3623;1.242841;1.389349;2.304742;1.24331;1.432151;1.760877;1.243701;1.467759;1.282661;1.244705;1.56515;0.5553539;0.9860803;1.573311;0.2270333;0.6452476;1.620806;0.3743983;0.1960374;0.8135636;0.4443872;0;0;0;1.506397;1.567937;0.2270293;1.795756;1.608925;0.3743906;1.891158;0.6580584;0.4969759;1.855078;-0.2687033;0.3030748;0.9309626;1.381569;2.349504;0.8956773;-0.07986212;2.411421;1.440068;0.2661448;3.59305;0.9309626;1.381569;2.349504;0.8956773;-0.07986212;2.411421;1.440068;0.2661448;3.59305
1788145.7775;NotLabelled;16384;0.7315931;-0.6288089;0.2617728;-0.02908587;64;-59;103;-1452;2380;-629;65536;0.8486757;-0.5096953;0.08587258;0.1121884;-100;-102;-3;-1101;3048;3917;8192;0.5650969;-0.6405529;-0.4182825;-0.3088643;-7;9;39;418;4145;-23;32768;0.7280195;-0.5872576;-0.2423823;-0.2576177;-1;4;-37;817;3975;-790;256;-0.1551246;0.009695291;-0.9853186;-0.07063711;11;16;-11;543;156;3833;128;0.1398892;-0.06786703;0.9749128;0.1592798;-4;13;14;311;1207;-3962;4;-0.4806094;0.5041551;-0.5238736;-0.4903047;27;-32;-27;-559;3972;-50;16;-0.1177285;-0.9777785;-0.1565097;0.07479224;2;20;4;-1065;-1052;3638;2;0.4778393;-0.3878116;-0.4792244;-0.6257921;18;-4;-4;-1271;3674;-691;8;-0.1163435;-0.9845093;0.1218837;-0.04847645;1;-9;-23;1173;-563;3615;1.203345;1.409981;2.300087;1.203815;1.452784;1.756222;1.204206;1.488391;1.278006;1.205023;1.590114;0.5512913;0.9463959;1.599637;0.223009;0.6054477;1.645472;0.3706322;0.1854774;0.8220395;0.4331816;0;0;0;1.466723;1.595458;0.2230057;1.75598;1.636231;0.3706272;1.859158;0.6868006;0.4979556;1.830612;-0.2406449;0.3060805;0.8914668;1.402201;2.344849;0.871582;-0.05936348;2.410362;1.414668;0.2808255;3.594279;0.8914668;1.402201;2.344849;0.871582;-0.05936348;2.410362;1.414668;0.2808255;3.594279
1788165.9672;NotLabelled;16384;0.7290018;-0.6357341;0.2534626;-0.01246537;77;-38;111;-1796;2424;-207;65536;0.8442837;-0.5152354;0.08864266;0.1177285;-44;-76;13;3093;6234;-2585;8192;0.5623268;-0.6422517;-0.4224377;-0.3047091;-7;-3;41;432;3971;7;32768;0.7259917;-0.5886427;-0.2465374;-0.2562327;-2;2;-39;615;3931;-844;256;-0.1537396;0.01246537;-0.9855045;-0.07063711;5;21;-16;479;366;3769;128;0.1385041;-0.06925207;0.9752384;0.1578947;2;9;18;383;1275;-3940;4;-0.4736842;0.5055401;-0.5262411;-0.4930748;29;-40;-28;-249;3986;-20;16;-0.1163435;-0.9774969;-0.1592798;0.07479224;2;11;4;-965;-1030;3730;2;0.4778393;-0.3905817;-0.4722992;-0.6293243;23;-14;-8;-1063;3726;-459;8;-0.1135734;-0.9846262;0.1260388;-0.04155125;3;-6;-27;1161;-833;3645;1.152749;1.439654;2.283201;1.153225;1.483033;1.739381;1.153621;1.519148;1.261204;1.153914;1.623499;0.5348613;0.8952448;1.632858;0.2066081;0.5540603;1.676378;0.3543863;0.1637892;0.8380209;0.4107204;0;0;0;1.415587;1.631396;0.206605;1.704625;1.673145;0.3543812;1.823912;0.7269582;0.4914064;1.813259;-0.2015792;0.3030114;0.8408703;1.431827;2.327951;0.8538035;-0.02888048;2.411769;1.391274;0.3125726;3.597882;0.8408703;1.431827;2.327951;0.8538035;-0.02888048;2.411769;1.391274;0.3125726;3.597882
1788186.7744;NotLabelled;16384;0.7233883;-0.6454294;0.2451524;0.005540166;104;-51;108;-2374;2540;-1947;65536;0.8420062;-0.5138504;0.09833795;0.1315789;31;-97;14;3709;6218;-10667;8192;0.5609418;-0.6420247;-0.4265928;-0.301939;-8;-6;44;562;4099;-127;32768;0.7239344;-0.5900277;-0.2520775;-0.2534626;-2;3;-40;505;3961;-826;256;-0.1509695;0.01523546;-0.985992;-0.06925207;-1;23;-22;345;470;3663;128;0.1357341;-0.07202215;0.9756504;0.1565097;5;9;22;441;1187;-3862;4;-0.4653739;0.5069252;-0.5297092;-0.4958449;28;-37;-28;-7;4098;-52;16;-0.1163435;-0.9774969;-0.1592798;0.07479224;3;3;3;-1045;-960;3676;2;0.4778393;-0.3919668;-0.4695291;-0.6305348;26;-12;-9;-881;3856;-287;8;-0.1121884;-0.9847733;0.1274238;-0.03739612;3;-12;-30;881;-929;3625;1.113882;1.465619;2.279096;1.114343;1.50767;1.735172;1.114727;1.542617;1.256907;1.114452;1.647594;0.5306548;0.8557437;1.655771;0.2024004;0.5143138;1.697232;0.3502036;0.1564978;0.8441614;0.4008706;0;0;0;1.376086;1.657253;0.2024149;1.664879;1.70051;0.3502375;1.792903;0.7564706;0.4940187;1.790207;-0.1730962;0.310481;0.802004;1.457901;2.323873;0.8309796;-0.002172351;2.414459;1.365508;0.3361038;3.60281;0.802004;1.457901;2.323873;0.8309796;-0.002172351;2.414459;1.365508;0.3361038;3.60281
1788206.7762;NotLabelled;16384;0.7061512;-0.6634349;0.2451524;0.033241;45;-41;-20;-7528;11746;6355;65536;0.8422055;-0.5069252;0.1024931;0.1523546;-30;-10;-34;-1389;3404;-2485;8192;0.5581717;-0.6442424;-0.4307479;-0.2963989;-8;-7;52;820;3845;-53;32768;0.7224662;-0.5900277;-0.2576177;-0.2520775;0;5;-37;403;3961;-750;256;-0.1468144;0.01800554;-0.9865726;-0.06925207;-1;18;-32;-23;346;3767;128;0.1315789;-0.0734072;0.9763374;0.1551246;0;4;27;1027;733;-3842;4;-0.4598338;0.5083103;-0.5306192;-0.4986149;22;-26;-27;-47;4186;-114;16;-0.1149584;-0.9777657;-0.1592798;0.0734072;3;-1;3;-1159;-978;3708;2;0.4778393;-0.3933518;-0.4653739;-0.6327488;30;-11;-11;-669;3900;-251;8;-0.1108033;-0.9846691;0.1301939;-0.03462604;2;-12;-31;653;-943;3403;1.076473;1.488221;2.273825;1.076921;1.529119;1.729813;1.077294;1.563051;1.251476;1.076348;1.666637;0.5250244;0.8175876;1.672562;0.1967623;0.4759062;1.712159;0.3444954;0.1560258;0.8444719;0.4003996;0;0;0;1.33791;1.677314;0.1967592;1.626428;1.722667;0.3444905;1.762522;0.7807727;0.494783;1.771917;-0.1497658;0.3164619;0.764596;1.480598;2.318626;0.8110769;0.02163458;2.419246;1.339465;0.3599105;3.61034;0.764596;1.480598;2.318626;0.8110769;0.02163458;2.419246;1.339465;0.3599105;3.61034
1788227.8019;NotLabelled;16384;0.7073957;-0.6592798;0.2520775;0.03739612;-26;-84;2;-1320;5340;5801;65536;0.8404714;-0.5124654;0.09279778;0.1495845;-57;42;-28;-853;2840;-3247;8192;0.5526316;-0.6511434;-0.4376731;-0.2811634;-9;-43;61;1006;3279;331;32768;0.7190914;-0.5927978;-0.265928;-0.2465374;0;-3;-25;245;3973;-854;256;-0.1412742;0.01939058;-0.9873549;-0.06925207;14;-6;-34;-2003;-222;4707;128;0.1288089;-0.07617728;0.9764946;0.1551246;-5;-11;23;1455;1003;-3896;4;-0.4542936;0.5096953;-0.5327551;-0.5;18;-16;-24;-239;4154;-206;16;-0.1149584;-0.9777657;-0.1592798;0.0734072;4;-1;4;-1119;-986;3764;2;0.4778393;-0.3947368;-0.4612188;-0.6349249;32;-9;-10;-493;3926;-175;8;-0.1094183;-0.9848191;0.1315789;-0.02908587;1;-6;-32;353;-931;3125;1.014013;1.503672;2.262903;1.014446;1.54308;1.718781;1.014804;1.575701;1.240353;1.013222;1.679851;0.5139837;0.7544264;1.684465;0.185728;0.4125133;1.721875;0.3334951;0.1452194;0.838685;0.4163107;0;0;0;1.27471;1.69237;0.1857246;1.56295;1.739354;0.3334898;1.708899;0.8006961;0.4944066;1.729343;-0.1301842;0.3188204;0.7021378;1.496172;2.307734;0.7627463;0.03794193;2.411416;1.279163;0.372061;3.608915;0.7021378;1.496172;2.307734;0.7627463;0.03794193;2.411416;1.279163;0.372061;3.608915
1788268.9348;NotLabelled;16384;0.7114518;-0.6537396;0.2520775;0.05401662;-2;-31;34;-366;4250;-1257;65536;0.8323823;-0.5304709;0.0734072;0.1426593;-58;32;-17;-777;4288;-629;8192;0.5484765;-0.6580129;-0.4445983;-0.2617728;-16;-23;63;1126;4211;-279;32768;0.7172884;-0.5941828;-0.2714681;-0.2423823;0;-3;-35;661;4087;-798;256;-0.1274238;0.006925208;-0.9888945;-0.07617728;17;-38;-38;769;440;4319;128;0.1177285;-0.06094183;0.9778374;0.1620499;-18;-74;19;457;1245;-4216;4;-0.4418283;0.5166205;-0.5352608;-0.501385;12;-16;-18;-725;3990;-446;16;-0.1121884;-0.9782915;-0.1592798;0.07063711;3;3;7;-1339;-1064;3924;2;0.4736842;-0.400277;-0.4501385;-0.6424772;34;-1;-1;-467;2760;-21;8;-0.1080332;-0.9845054;0.1371191;-0.0166205;8;3;-22;-261;-2695;3027;1.000443;1.507223;2.266938;1.000879;1.546962;1.722841;1.00124;1.579875;1.244432;0.9992856;1.684244;0.5180949;0.7404739;1.688047;0.189842;0.3984317;1.724203;0.3376223;0.1245498;0.8425562;0.4151886;0;0;0;1.260727;1.697789;0.1898388;1.548799;1.745745;0.3376168;1.718336;0.8155503;0.5227385;1.758763;-0.1165086;0.357149;0.6885674;1.499696;2.311763;0.7605217;0.04258919;2.423663;1.263779;0.376709;3.626753;0.6885674;1.499696;2.311763;0.7605217;0.04258919;2.423663;1.263779;0.376709;3.626753
1788289.79;NotLabelled;16384;0.7084525;-0.6565097;0.2520775;0.05955679;10;-48;27;-2092;2214;-2307;65536;0.8280464;-0.5373961;0.06925207;0.1440443;-31;-21;-15;-501;3992;-517;8192;0.5457063;-0.6602103;-0.4487534;-0.2548476;-15;-17;60;628;4307;-541;32768;0.7149485;-0.5955678;-0.2770083;-0.2396122;2;-5;-48;829;4067;-826;256;-0.1218837;0;-0.9892882;-0.08033241;14;-51;-43;673;462;3917;128;0.1121884;-0.04847645;0.978955;0.1634349;-1;-87;23;347;1183;-4392;4;-0.4376731;0.5180055;-0.5373319;-0.501385;10;-22;-14;-837;4006;-504;16;-0.1108033;-0.9782228;-0.1606648;0.07063711;1;9;7;-1385;-994;3850;2;0.4709141;-0.4030471;-0.4473684;-0.6447127;31;-13;13;-379;2262;-197;8;-0.101108;-0.987284;0.1218837;-0.01385042;48;132;-19;-267;-2931;5541;0.9358804;1.494231;2.273026;0.936366;1.538491;1.729278;0.9367709;1.575378;1.251159;0.9374104;1.687229;0.5259342;0.6787884;1.700731;0.1977873;0.3377233;1.743714;0.3459975;0.07552957;0.8566413;0.3978159;0;0;0;1.199124;1.697756;0.1977845;1.488274;1.737136;0.3459926;1.683516;0.8177867;0.5580145;1.741369;-0.1145792;0.3994763;0.6240008;1.486332;2.317758;0.7273393;0.03302813;2.452254;1.189518;0.3588269;3.673963;0.6240008;1.486332;2.317758;0.7273393;0.03302813;2.452254;1.189518;0.3588269;3.673963
1788310.9156;NotLabelled;16384;0.6990743;-0.6634349;0.2534626;0.08310249;65;-74;41;-1034;3494;-247;65536;0.8237074;-0.5401662;0.06925207;0.1578947;-2;-48;-23;-375;3972;-1509;8192;0.5443213;-0.662522;-0.4501385;-0.2493075;-9;-33;50;262;4287;-367;32768;0.7130032;-0.5969529;-0.2825485;-0.2354571;0;-4;-59;549;4167;-846;256;-0.1149584;-0.006925208;-0.9898639;-0.08310249;11;-42;-48;665;558;3901;128;0.1066482;-0.03601108;0.9803414;0.1620499;25;-86;30;95;1351;-4198;4;-0.433518;0.5166205;-0.5407289;-0.5027701;6;-37;-9;-1321;4616;-552;16;-0.1108033;-0.9780933;-0.1620499;0.06925207;0;15;5;-1747;-1090;3796;2;0.4695291;-0.4085872;-0.4459834;-0.6431934;16;-35;25;-325;5554;795;8;-0.09556787;-0.9903677;0.09972299;-0.009695291;20;147;-6;-2599;-1807;5139;0.9061113;1.489106;2.261602;0.9065912;1.53283;1.717811;0.9069909;1.569248;1.239656;0.9092753;1.685881;0.5151882;0.6509079;1.705142;0.1871283;0.3104522;1.751867;0.3356069;0.05744115;0.8622069;0.3887114;0;0;0;1.171152;1.694951;0.1871251;1.460801;1.729335;0.3356019;1.665928;0.8150935;0.5600139;1.736393;-0.1176034;0.4086943;0.5942322;1.48125;2.306346;0.7042083;0.02941597;2.451054;1.151744;0.3518088;3.679102;0.5942322;1.48125;2.306346;0.7042083;0.02941597;2.451054;1.151744;0.3518088;3.679102
1788331.9852;NotLabelled;16384;0.6933721;-0.66759;0.2548476;0.09279778;50;-49;31;-1458;4418;1127;65536;0.8227415;-0.5401662;0.06786703;0.1634349;-12;-32;-29;-231;3848;-1843;8192;0.5429363;-0.6667203;-0.4501385;-0.2409972;-6;-49;44;1076;4217;259;32768;0.7114316;-0.5983379;-0.2880886;-0.2299169;-4;-10;-64;495;4009;-962;256;-0.1080332;-0.01108033;-0.9904887;-0.08448754;13;-28;-51;71;434;4239;128;0.09972299;-0.02631579;0.9818313;0.1592798;22;-55;38;-165;1649;-4288;4;-0.4279778;0.5138504;-0.5451806;-0.5055401;7;-51;-17;-551;4354;-122;16;-0.1108033;-0.9771593;-0.16759;0.06925207;2;30;2;-1505;-898;3762;2;0.4709141;-0.4127424;-0.4445983;-0.6404811;0;-22;15;-1297;9294;-45;8;-0.09418282;-0.9928207;0.0734072;-0.006925208;9;179;3;-621;-2071;5079;0.8465137;1.494299;2.253602;0.8469568;1.534677;1.709552;0.8473242;1.568153;1.231182;0.8512498;1.687709;0.5071977;0.5932041;1.711731;0.179199;0.253377;1.762351;0.3278407;0.03519568;0.8639292;0.3875357;0;0;0;1.113268;1.694655;0.1791958;1.403326;1.724593;0.327835;1.612947;0.8138281;0.5620195;1.697986;-0.1188353;0.4181621;0.5346376;1.486719;2.298414;0.6461262;0.03576434;2.450598;1.071254;0.3577777;3.686681;0.5346376;1.486719;2.298414;0.6461262;0.03576434;2.450598;1.071254;0.3577777;3.686681
1788352.9067;NotLabelled;16384;0.6908706;-0.6689751;0.2548476;0.101108;35;-45;22;-886;4468;1379;65536;0.8213261;-0.5415512;0.06371191;0.16759;-22;-22;-34;-565;3734;-1667;8192;0.5443213;-0.67322;-0.4487534;-0.2216066;-20;-60;46;2024;3855;835;32768;0.7052949;-0.6066482;-0.2963989;-0.2160665;-16;-38;-57;-109;4207;-1136;256;-0.09279778;-0.01108033;-0.9916694;-0.08864266;11;-6;-46;-209;814;4097;128;0.08864266;-0.01108033;0.9834068;0.1578947;17;-45;28;-583;751;-4014;4;-0.4224377;0.5124654;-0.5482211;-0.5083103;12;-39;-18;101;3566;-172;16;-0.1094183;-0.9765938;-0.1717452;0.06925207;4;27;-2;-1445;-902;3608;2;0.4722992;-0.4168975;-0.4445983;-0.6367592;-7;-48;29;-691;6808;203;8;-0.09418282;-0.994154;0.05263158;-0.004155125;-6;97;-2;1547;-2289;5433;0.8168815;1.498563;2.251097;0.8172772;1.53461;1.706743;0.8176028;1.564277;1.228122;0.8224739;1.685335;0.5043927;0.5646411;1.711959;0.1764282;0.2251848;1.764774;0.3251527;0.02183314;0.8632392;0.390049;0;0;0;1.084564;1.691037;0.1764249;1.374824;1.718515;0.3251469;1.590583;0.8123614;0.5713339;1.691663;-0.1198382;0.4350441;0.5050094;1.491341;2.295995;0.6186997;0.04126155;2.454756;1.023947;0.3640288;3.697303;0.5050094;1.491341;2.295995;0.6186997;0.04126155;2.454756;1.023947;0.3640288;3.697303
1788373.7884;NotLabelled;16384;0.6890899;-0.6689751;0.2562327;0.1094183;25;-47;19;-374;4252;503;65536;0.818945;-0.5443213;0.05955679;0.1717452;-24;-22;-31;-1109;3836;-1313;8192;0.5443213;-0.6758464;-0.4501385;-0.2105263;-24;-55;45;2420;3553;197;32768;0.7030324;-0.6108033;-0.299169;-0.2077562;-10;-35;-52;-325;4235;-940;256;-0.08725762;-0.01246537;-0.9920311;-0.0900277;11;-18;-41;191;370;3127;128;0.08448754;-0.006925208;0.9844684;0.1537396;18;-20;23;-197;507;-3366;4;-0.4127424;0.5138504;-0.5517231;-0.5110803;18;-13;-18;-99;3868;-40;16;-0.1080332;-0.975557;-0.1772853;0.07202215;4;5;-7;-1471;-1062;3644;2;0.4833795;-0.4238227;-0.4501385;-0.6197531;-35;-33;24;599;3572;261;8;-0.09833795;-0.9934475;0.05817174;-0.002770083;-15;-67;-2;465;-1569;4281;0.7832689;1.500112;2.255659;0.7836294;1.532967;1.711102;0.7839241;1.559827;1.232316;0.7888271;1.687326;0.5096941;0.5310591;1.716408;0.1818865;0.1914585;1.767296;0.3309533;-0.001628667;0.8631604;0.3908296;0;0;0;1.051019;1.696412;0.1818832;1.341178;1.723082;0.3309478;1.573534;0.825767;0.5938416;1.703607;-0.10642;0.4847724;0.4713995;1.493153;2.300619;0.588244;0.04417455;2.46696;0.9546228;0.3639069;3.722295;0.4713995;1.493153;2.300619;0.588244;0.04417455;2.46696;0.9546228;0.3639069;3.722295
1788394.7831;NotLabelled;16384;0.6858501;-0.6703601;0.2576177;0.1177285;25;-52;22;-184;4012;-633;65536;0.8161104;-0.5470914;0.0567867;0.1772853;-22;-34;-23;-1077;3890;-1205;8192;0.5429363;-0.679388;-0.4515235;-0.199446;-18;-42;46;2982;3267;-439;32768;0.7014467;-0.6135734;-0.301939;-0.200831;-1;-32;-45;-301;4505;-1040;256;-0.08171745;-0.01385042;-0.9923579;-0.09141274;-2;-9;-35;119;-98;3825;128;0.08171745;-0.005540166;0.984711;0.1537396;0;-8;20;419;665;-3510;4;-0.4099723;0.5152354;-0.5524962;-0.5110803;15;0;-20;-397;4294;-138;16;-0.1080332;-0.9754538;-0.1772853;0.0734072;3;-3;-7;-1271;-1152;3840;2;0.4833795;-0.4252077;-0.4542936;-0.6157597;-27;11;25;695;3640;-85;8;-0.101108;-0.9927347;0.06509695;-0.004155125;-20;-21;3;-475;-847;3449;0.7579296;1.509202;2.265544;0.7582361;1.53712;1.720712;0.7584833;1.55964;1.241702;0.7635304;1.689115;0.5194326;0.5057704;1.719619;0.1917479;0.1662966;1.770781;0.3410097;-0.01850741;0.8641648;0.3881666;0;0;0;1.025689;1.698574;0.1916054;1.315924;1.724247;0.3406961;1.558578;0.8307784;0.6073548;1.702218;-0.1007645;0.5104914;0.4460648;1.502651;2.310596;0.5809872;0.05685806;2.490423;0.9393757;0.3750017;3.748466;0.4460648;1.502651;2.310596;0.5809872;0.05685806;2.490423;0.9393757;0.3750017;3.748466
1788415.7928;NotLabelled;16384;0.6778488;-0.6745152;0.2576177;0.1385041;40;-58;26;-316;3930;-443;65536;0.811528;-0.5498615;0.05540166;0.1897507;-13;-42;-13;-1019;3892;-1279;8192;0.5415512;-0.6828732;-0.4515235;-0.1911357;-10;-37;45;3310;3163;-757;32768;0.7019661;-0.6149584;-0.3033241;-0.1925208;20;-39;-35;235;4469;-2954;256;-0.07617728;-0.01523546;-0.9927782;-0.09141274;10;-12;-31;-287;-168;4625;128;0.07756232;-0.005540166;0.9848298;0.1551246;-13;-11;18;821;967;-3918;4;-0.4085872;0.5193906;-0.5509089;-0.5096953;13;15;-21;-611;4272;-224;16;-0.1080332;-0.9757045;-0.1759003;0.0734072;0;-2;-4;-1251;-1172;3940;2;0.4792244;-0.4238227;-0.4626039;-0.613772;-24;38;27;263;3820;-229;8;-0.1038781;-0.9924487;0.06509695;-0.004155125;-21;-11;6;-121;-781;3905;0.7298211;1.508281;2.250526;0.7301261;1.536094;1.705688;0.7303721;1.558522;1.226674;0.7359551;1.689993;0.5047688;0.4783826;1.721919;0.1770724;0.1389536;1.773341;0.3263466;-0.03495031;0.8652198;0.3846692;0;0;0;0.9982581;1.69984;0.1770695;1.288486;1.724523;0.326341;1.545977;0.8406823;0.6105921;1.701887;-0.08983469;0.5233107;0.4179564;1.501737;2.29558;0.557385;0.05729246;2.482652;0.9045817;0.3760669;3.74367;0.4179564;1.501737;2.29558;0.557385;0.05729246;2.482652;0.9045817;0.3760669;3.74367
1788435.9815;NotLabelled;16384;0.6717451;-0.6783226;0.2590028;0.1468144;38;-46;19;2;4322;27;65536;0.8096039;-0.5512465;0.05540166;0.1939058;-16;-29;-13;-1051;3752;-1561;8192;0.5387812;-0.6876602;-0.4542936;-0.1745152;-22;-41;55;3618;3057;521;32768;0.7133462;-0.602493;-0.3060942;-0.1855956;92;15;44;2429;4913;-3974;256;-0.0734072;-0.01523546;-0.992728;-0.09418282;26;-5;-30;-497;230;4073;128;0.07479224;-0.006925208;0.9848162;0.1565097;-10;-10;15;675;1257;-4058;4;-0.4072022;0.5235457;-0.5492786;-0.5083103;10;26;-21;-649;4166;-298;16;-0.1094183;-0.975445;-0.1759003;0.07479224;-3;5;-2;-1141;-1148;4000;2;0.4750692;-0.4210526;-0.4709141;-0.6125878;-29;42;27;-685;4040;-271;8;-0.1080332;-0.9918126;0.06786703;-0.005540166;-23;-31;3;731;-795;3873;0.6766205;1.509839;2.243296;0.6769428;1.539204;1.69854;0.677204;1.562998;1.219591;0.6830187;1.694483;0.4976901;0.4255033;1.72687;0.1699944;0.08616433;1.778882;0.3192695;-0.05647492;0.8655723;0.3813042;0;0;0;0.9453394;1.703882;0.1699914;1.23561;1.728052;0.3192648;1.499587;0.8496426;0.6142039;1.668362;-0.07906997;0.5317736;0.3647543;1.503167;2.288321;0.5113193;0.06044877;2.483107;0.8446665;0.379023;3.747906;0.3647543;1.503167;2.288321;0.5113193;0.06044877;2.483107;0.8446665;0.379023;3.747906
1788456.7738;NotLabelled;16384;0.66759;-0.6805714;0.2590028;0.1551246;30;-36;13;-320;4402;249;65536;0.806796;-0.5540166;0.05401662;0.1980609;-20;-18;-14;-1093;3810;-1367;8192;0.5373961;-0.6892986;-0.4570637;-0.1648199;-28;-14;64;4132;3161;1109;32768;0.7252555;-0.5858725;-0.3060942;-0.1925208;113;69;89;1487;5439;-3528;256;-0.06925207;-0.01385042;-0.9929144;-0.09556787;9;-5;-26;-687;710;3611;128;0.0734072;-0.006925208;0.9849204;0.1565097;-6;-8;11;409;1331;-4070;4;-0.4072022;0.5277008;-0.547857;-0.5055401;8;24;-19;-789;4030;-466;16;-0.1094183;-0.9751942;-0.1772853;0.07479224;-4;11;0;-1113;-1046;3960;2;0.4722992;-0.4182825;-0.4764543;-0.6123435;-33;23;23;-1349;4166;-459;8;-0.1108033;-0.9907957;0.07756232;-0.005540166;-19;-56;-7;1321;-615;3645;0.655134;1.503692;2.231445;0.6554744;1.534712;1.68678;0.6557515;1.559959;1.207906;0.6617333;1.695535;0.4867639;0.4042962;1.729753;0.1591926;0.06491472;1.780884;0.3086747;-0.06403412;0.8661284;0.3788386;0;0;0;0.9241345;1.706818;0.1591892;1.214366;1.73017;0.3086698;1.499707;0.8640003;0.6194834;1.687798;-0.0581193;0.5094594;0.3432664;1.496884;2.276439;0.497956;0.05597794;2.478227;0.8268472;0.3787696;3.743123;0.3432664;1.496884;2.276439;0.497956;0.05597794;2.478227;0.8268472;0.3787696;3.743123
1788497.8762;NotLabelled;16384;0.66482;-0.6817936;0.2603878;0.1592798;20;-33;6;-446;4280;-135;65536;0.8056824;-0.5554016;0.05124654;0.199446;-17;-7;-14;-1059;3930;-1107;8192;0.534626;-0.6865714;-0.466759;-0.1578947;-19;34;68;4062;3025;471;32768;0.7368578;-0.5650969;-0.3074792;-0.2077562;127;92;102;485;4241;-2536;256;-0.06232687;-0.01246537;-0.9932573;-0.09695291;10;-10;-13;-545;652;4311;128;0.07063711;-0.005540166;0.9849107;0.1578947;-1;-8;4;205;1227;-4212;4;-0.4044321;0.533241;-0.5470932;-0.5027701;6;0;-14;-819;4210;-342;16;-0.1108033;-0.97453;-0.1800554;0.07479224;-4;14;2;-1123;-868;3694;2;0.4722992;-0.4168975;-0.4819945;-0.6089428;-28;3;21;-1501;4068;-751;8;-0.1121884;-0.9897166;0.08864266;-0.004155125;-12;-70;-17;1285;-187;3789;0.6310461;1.505597;2.223093;0.6313863;1.536624;1.678429;0.6316632;1.561877;1.199554;0.637284;1.699731;0.4788414;0.379776;1.734116;0.1513433;0.04020662;1.783645;0.3009385;-0.07556967;0.8673465;0.3738951;0;0;0;0.899688;1.712916;0.1513398;1.189821;1.736769;0.3009324;1.487756;0.8783553;0.6213019;1.676698;-0.03853893;0.4750358;0.3191785;1.498789;2.268087;0.4769009;0.05948651;2.47878;0.795073;0.3824835;3.746363;0.3191785;1.498789;2.268087;0.4769009;0.05948651;2.47878;0.795073;0.3824835;3.746363
1788517.7792;NotLabelled;16384;0.6634349;-0.6824897;0.2603878;0.1620499;13;-15;2;-46;4126;-463;65536;0.8040199;-0.5581717;0.04709141;0.199446;-16;-1;-13;-925;3876;-1143;8192;0.5304709;-0.6831064;-0.4778393;-0.1537396;-20;55;47;2382;2815;179;32768;0.7505124;-0.5457063;-0.3047091;-0.2146814;110;-1;83;-619;2855;-254;256;-0.06094183;-0.01246537;-0.9932071;-0.09833795;10;-8;-7;-555;620;4289;128;0.07063711;-0.005540166;0.9849107;0.1578947;0;-6;2;323;1141;-4316;4;-0.4030471;0.534626;-0.5480339;-0.501385;5;-8;-11;-805;4176;-236;16;-0.1108033;-0.9742731;-0.1814404;0.07479224;-3;14;4;-1229;-854;3664;2;0.4722992;-0.4182825;-0.4833795;-0.6068916;-2;-6;14;-1385;3336;-857;8;-0.1108033;-0.9886849;0.101108;-0.001385042;0;1;-13;-11;-133;3499;0.615374;1.502781;2.217491;0.6157303;1.535239;1.672911;0.6160213;1.56175;1.194105;0.6211905;1.701938;0.4738386;0.3635894;1.736372;0.1464189;0.02381182;1.784097;0.2961277;-0.08721583;0.8673863;0.3712567;0;0;0;0.8835799;1.717197;0.1464152;1.1736;1.741699;0.2961225;1.485803;0.8929012;0.6283053;1.671339;-0.01725054;0.441255;0.3035051;1.495854;2.262458;0.469285;0.05983734;2.488804;0.7684523;0.3868306;3.759985;0.3035051;1.495854;2.262458;0.469285;0.05983734;2.488804;0.7684523;0.3868306;3.759985
1788538.771;NotLabelled;16384;0.6606648;-0.6855578;0.2576177;0.1648199;10;-7;-3;114;4272;-541;65536;0.8014258;-0.5623268;0.04155125;0.199446;-10;0;-2;-1353;3904;-1091;8192;0.5304709;-0.6769015;-0.4861496;-0.1551246;-39;51;12;102;3363;833;32768;0.76332;-0.533241;-0.2977839;-0.2105263;90;-78;60;-687;1627;-282;256;-0.06094183;-0.01246537;-0.993069;-0.09972299;2;-6;-3;-523;412;3927;128;0.06925207;-0.004155125;0.9850158;0.1578947;0;-6;1;383;1143;-4290;4;-0.4016621;0.534626;-0.5477818;-0.5027701;2;-12;-8;-801;4102;-250;16;-0.1108033;-0.9737532;-0.1842105;0.07479224;-2;14;5;-1239;-854;3648;2;0.4722992;-0.4196676;-0.4833795;-0.6059347;4;-17;8;-1295;3390;-595;8;-0.1108033;-0.989102;0.09695291;0;1;45;-9;455;-545;3567;0.6018302;1.501643;2.211627;0.6021864;1.534101;1.667046;0.6024774;1.560612;1.18824;0.6077071;1.702837;0.4683744;0.3501364;1.73817;0.1410263;0.01033858;1.785438;0.2908343;-0.09634811;0.8682866;0.3668694;0;0;0;0.8701289;1.719049;0.1410226;1.160131;1.743156;0.2908283;1.486649;0.9038274;0.6331532;1.671942;0.003719211;0.402373;0.2899612;1.494716;2.256594;0.4569469;0.06006479;2.49058;0.7520736;0.3872607;3.762654;0.2899612;1.494716;2.256594;0.4569469;0.06006479;2.49058;0.7520736;0.3872607;3.762654
1788559.7939;NotLabelled;16384;0.6592798;-0.6870742;0.2562327;0.166205;7;3;-4;122;4328;-381;65536;0.8008667;-0.5637119;0.0401662;0.1980609;-10;7;1;-1039;3912;-1199;8192;0.5443213;-0.6604107;-0.4916897;-0.1606648;-47;4;-18;410;3591;1363;32768;0.7828879;-0.5235457;-0.2811634;-0.1842105;58;-79;1;-2043;2765;-1690;256;-0.06094183;-0.01108033;-0.9930854;-0.09972299;3;-5;2;-611;514;4015;128;0.06925207;-0.004155125;0.9852368;0.1565097;6;-10;-2;495;1153;-4196;4;-0.400277;0.534626;-0.5487947;-0.5027701;-1;-11;-5;-745;4158;-330;16;-0.1094183;-0.9737522;-0.1855956;0.0734072;-1;8;5;-1263;-908;3628;2;0.4736842;-0.4224377;-0.4819945;-0.604029;5;-30;6;-845;3586;-327;8;-0.1094183;-0.9900315;0.08864266;0.002770083;5;60;-9;1009;-995;3813;0.5808985;1.501439;2.200451;0.5812536;1.533803;1.655865;0.5815435;1.560231;1.177054;0.5868707;1.704455;0.4575867;0.3293396;1.74074;0.130312;-0.01046578;1.787647;0.2802157;-0.1074463;0.8697582;0.3602396;0;0;0;0.8493289;1.721532;0.1303084;1.139319;1.745176;0.2802101;1.47414;0.908374;0.6206979;1.662085;0.01821256;0.3559788;0.2690297;1.49452;2.24542;0.440559;0.06018555;2.478056;0.734696;0.3877836;3.750255;0.2690297;1.49452;2.24542;0.440559;0.06018555;2.478056;0.734696;0.3877836;3.750255
1788581.7732;NotLabelled;16384;0.6592798;-0.6882528;0.2548476;0.1634349;0;17;-8;-118;4298;-277;65536;0.8003659;-0.5650969;0.03739612;0.1966759;-9;11;3;-1141;3842;-1139;8192;0.5526316;-0.6548508;-0.4903047;-0.1592798;-50;-12;-28;1564;3763;897;32768;0.787553;-0.5193906;-0.2811634;-0.1759003;46;-43;-28;-1771;2503;-1338;256;-0.06232687;-0.01108033;-0.9929994;-0.09972299;5;-4;6;-651;648;4137;128;0.06925207;-0.002770083;0.9854607;0.1551246;12;-10;-6;485;1291;-4200;4;-0.398892;0.533241;-0.5511457;-0.5027701;-4;-8;-4;-659;4114;-472;16;-0.1094183;-0.9737522;-0.1855956;0.0734072;0;0;4;-1399;-948;3602;2;0.4764543;-0.4252077;-0.4806094;-0.6010027;2;-34;6;-263;4052;85;8;-0.1094183;-0.9907289;0.08033241;0.005540166;6;53;-8;1185;-1213;3957;0.5752721;1.506996;2.196033;0.5756105;1.537835;1.651358;0.5758859;1.562923;1.172475;0.5808202;1.707274;0.4530305;0.323192;1.742901;0.1257595;-0.01674208;1.788849;0.2756687;-0.1088575;0.8706349;0.3576877;0;0;0;0.8432323;1.725125;0.1257567;1.133156;1.749543;0.2756636;1.480762;0.9048928;0.582278;1.680409;0.02999175;0.2781779;0.2634047;1.500203;2.24103;0.4364094;0.06654453;2.476725;0.7277228;0.3900987;3.750608;0.2634047;1.500203;2.24103;0.4364094;0.06654453;2.476725;0.7277228;0.3900987;3.750608
1788601.7703;NotLabelled;16384;0.6592798;-0.6894155;0.2534626;0.1606648;-4;11;-12;-218;4136;-39;65536;0.8001261;-0.566482;0.03601108;0.1939058;-7;11;6;-1095;3916;-1087;8192;0.5609418;-0.6487926;-0.4889196;-0.1592798;-48;-15;-39;2014;3445;1579;32768;0.7885729;-0.5180055;-0.2867036;-0.166205;35;-20;-55;-2203;2903;-1374;256;-0.06371191;-0.01108033;-0.9927714;-0.101108;0;-10;8;-391;816;3699;128;0.07202215;-0.001385042;0.9859103;0.1509695;13;-11;-7;299;1373;-3714;4;-0.398892;0.533241;-0.552406;-0.501385;-7;1;-4;-493;4058;-492;16;-0.1094183;-0.9741185;-0.1842105;0.07202215;1;-10;2;-1435;-976;3676;2;0.4778393;-0.4279778;-0.4792244;-0.5990397;0;-28;6;-29;4286;267;8;-0.1094183;-0.9911538;0.07479224;0.006925208;6;36;-5;1041;-1269;4059;0.5737104;1.510064;2.19225;0.5740309;1.539277;1.647486;0.5742904;1.562936;1.16853;0.5792627;1.707251;0.4490784;0.3216435;1.742934;0.1218065;-0.0182776;1.788982;0.2717143;-0.1114307;0.8710639;0.3558488;0;0;0;0.8416789;1.725014;0.1218029;1.131609;1.74936;0.2717086;1.487853;0.9017251;0.5596004;1.697687;0.03282487;0.2453244;0.2618444;1.503405;2.237278;0.433355;0.07007122;2.476021;0.7281873;0.3936255;3.749094;0.2618444;1.503405;2.237278;0.433355;0.07007122;2.476021;0.7281873;0.3936255;3.749094
1788621.9144;NotLabelled;16384;0.6592798;-0.6905624;0.2520775;0.1578947;-4;14;-14;-118;4200;-443;65536;0.799217;-0.5692521;0.03462604;0.1897507;-6;13;10;-1209;3842;-1145;8192;0.5692521;-0.6429085;-0.4875346;-0.1578947;-55;1;-41;2020;2993;1337;32768;0.7869937;-0.5180055;-0.2977839;-0.1537396;26;-22;-72;-2519;3483;-1310;256;-0.06509695;-0.01246537;-0.9928053;-0.09972299;-4;-15;9;-467;806;3741;128;0.0734072;0;0.9860202;0.1495845;12;-13;-7;325;1369;-3694;4;-0.400277;0.533241;-0.5526594;-0.5;-8;7;-4;-481;4074;-452;16;-0.1094183;-0.9743794;-0.1828255;0.07202215;2;-13;1;-1475;-978;3770;2;0.4792244;-0.4307479;-0.4819945;-0.5937016;3;4;6;87;4294;303;8;-0.1080332;-0.9915108;0.07202215;0.006925208;0;-3;5;893;-1195;4313;0.5756413;1.517018;2.18753;0.5759104;1.541531;1.642534;0.5761248;1.561057;1.163392;0.5812309;1.707334;0.4443377;0.3236592;1.744026;0.1171401;-0.01625566;1.789818;0.2671406;-0.1104715;0.8722013;0.3533522;0;0;0;0.8436863;1.725874;0.1171366;1.133613;1.74968;0.2671357;1.496559;0.8984617;0.5354131;1.724598;0.03404903;0.2214447;0.2637796;1.510748;2.232643;0.4328394;0.07779872;2.475408;0.7280663;0.4004995;3.748605;0.2637796;1.510748;2.232643;0.4328394;0.07779872;2.475408;0.7280663;0.4004995;3.748605
1788641.9598;NotLabelled;16384;0.6620498;-0.6912662;0.2479224;0.1495845;-10;27;-18;-484;4166;-89;65536;0.7989686;-0.5720221;0.03185596;0.1828255;-4;19;12;-1117;3884;-1107;8192;0.5761772;-0.6370514;-0.4875346;-0.1565097;-56;-8;-27;2562;2549;827;32768;0.7856385;-0.5180055;-0.3060942;-0.1440443;18;-31;-79;-3055;4069;-1442;256;-0.06648199;-0.01523546;-0.9926748;-0.09972299;-5;-25;11;-409;828;3641;128;0.0734072;0.001385042;0.9864355;0.1468144;14;-15;-9;389;1291;-3838;4;-0.400277;0.534626;-0.5525727;-0.4986149;-8;9;-4;-607;4134;-568;16;-0.1094183;-0.9747397;-0.1814404;0.07063711;1;-8;1;-1529;-1044;3788;2;0.4764543;-0.4307479;-0.4833795;-0.594804;3;15;5;-167;4142;237;8;-0.1094183;-0.991266;0.0734072;0.005540166;-3;-19;9;783;-1117;4185;0.5776405;1.523232;2.180587;0.5778916;1.546102;1.635519;0.5780901;1.564183;1.156321;0.5835318;1.708292;0.4368311;0.3260286;1.74474;0.1095524;-0.01373725;1.791949;0.259451;-0.1090102;0.8746388;0.3477361;0;0;0;0.846002;1.725104;0.1095485;1.136013;1.748532;0.2594454;1.50729;0.8950348;0.5083854;1.763764;0.0357182;0.202472;0.2657803;1.517098;2.225729;0.4309021;0.08385623;2.469472;0.7298218;0.4063654;3.741857;0.2657803;1.517098;2.225729;0.4309021;0.08385623;2.469472;0.7298218;0.4063654;3.741857
1788661.9994;NotLabelled;16384;0.6620498;-0.6924419;0.2479224;0.1440443;-13;17;-22;-512;3912;-29;65536;0.7992782;-0.5734072;0.03047091;0.1772853;-3;23;10;-891;3918;-1127;8192;0.5817174;-0.6322742;-0.4889196;-0.1509695;-55;-8;-8;3432;2379;319;32768;0.7844986;-0.5193906;-0.3116343;-0.132964;19;-53;-66;-1633;4945;-888;256;-0.06786703;-0.01800554;-0.9925348;-0.09972299;-3;-28;11;-279;778;3599;128;0.07479224;0.002770083;0.9867369;0.1440443;21;-17;-11;335;1137;-3712;4;-0.4016621;0.534626;-0.5528156;-0.4972299;-9;9;-4;-785;4102;-546;16;-0.1094183;-0.9749964;-0.1800554;0.07063711;0;-3;1;-1437;-958;3746;2;0.4750692;-0.4307479;-0.4861496;-0.5936531;3;20;5;-393;3992;149;8;-0.1094183;-0.9909612;0.07756232;0.002770083;-4;-28;11;751;-899;3973;0.5854059;1.528467;2.181146;0.5856223;1.548185;1.635955;0.5857903;1.563495;1.15666;0.5919169;1.707289;0.437113;0.3345615;1.745096;0.1098717;-0.004895303;1.794326;0.2598208;-0.1066157;0.8771505;0.3421074;0;0;0;0.8544129;1.722456;0.1097708;1.144585;1.744267;0.2595996;1.525057;0.8885987;0.4862006;1.802968;0.0338161;0.1863671;0.2735485;1.522594;2.226342;0.4397442;0.09009624;2.473704;0.7386789;0.4117663;3.746298;0.2735485;1.522594;2.226342;0.4397442;0.09009624;2.473704;0.7386789;0.4117663;3.746298
1788682.8064;NotLabelled;16384;0.6634349;-0.6922465;0.2479224;0.1385041;-13;19;-26;-684;3832;-593;65536;0.8002892;-0.5734072;0.02770083;0.1731302;3;25;9;-935;3892;-1071;8192;0.5872576;-0.6250436;-0.4944598;-0.1412742;-43;-5;28;3868;2617;381;32768;0.7824124;-0.5263157;-0.3144044;-0.1094183;5;-82;-34;-73;4239;356;256;-0.06925207;-0.0235457;-0.9924613;-0.09833795;-8;-34;10;-213;678;3387;128;0.07617728;0.005540166;0.9870197;0.1412742;25;-15;-13;279;1109;-4020;4;-0.4030471;0.536011;-0.5517092;-0.4958449;-10;7;-4;-867;4070;-466;16;-0.1094183;-0.9749964;-0.1800554;0.07063711;0;-4;0;-1539;-1034;3656;2;0.4722992;-0.4293629;-0.4875346;-0.5957273;3;20;5;-539;3990;17;8;-0.1108033;-0.9903619;0.08310249;0;-4;-34;14;699;-857;3931;0.5941027;1.531417;2.169343;0.5942844;1.547964;1.624047;0.5944219;1.560487;1.144671;0.6015003;1.703954;0.4250676;0.3444228;1.743115;0.09776771;0.005230848;1.794366;0.2476389;-0.1028567;0.8787844;0.3390521;0;0;0;0.8641346;1.717473;0.09776452;1.154402;1.737667;0.2476336;1.548424;0.8866284;0.4684396;1.844876;0.0359385;0.1747903;0.2822482;1.525807;2.214593;0.4444012;0.09302855;2.463009;0.7463922;0.4145107;3.734929;0.2822482;1.525807;2.214593;0.4444012;0.09302855;2.463009;0.7463922;0.4145107;3.734929
1788702.8103;NotLabelled;16384;0.6634349;-0.6928352;0.2493075;0.132964;-14;19;-32;-670;3618;-921;65536;0.8015144;-0.5734072;0.02631579;0.16759;11;23;8;-905;3954;-991;8192;0.5872576;-0.6246691;-0.4972299;-0.132964;-34;-15;22;2550;3337;177;32768;0.7787765;-0.536011;-0.3102493;-0.09972299;-26;-84;-28;755;3461;1898;256;-0.07202215;-0.03185596;-0.9924352;-0.09418282;-10;-18;10;-113;590;4249;128;0.08033241;0.008310249;0.987825;0.132964;24;-3;-12;119;925;-3992;4;-0.4058172;0.5373961;-0.5520498;-0.4916897;-13;8;-3;-781;3970;-284;16;-0.1094183;-0.9752512;-0.1786704;0.07063711;0;-11;1;-1279;-974;3570;2;0.4695291;-0.4279778;-0.4903047;-0.5966395;5;17;6;-665;3990;-71;8;-0.1121884;-0.9898474;0.08725762;-0.001385042;-2;-34;15;733;-861;3783;0.6005275;1.533707;2.174983;0.6006731;1.546974;1.629597;0.6007789;1.556613;1.150155;0.6090806;1.697452;0.4300448;0.352286;1.738307;0.1027298;0.01376013;1.793847;0.2525789;-0.1017353;0.8787346;0.3395193;0;0;0;0.8716813;1.7069;0.1025717;1.162232;1.724401;0.2522319;1.58132;0.8810973;0.4558945;1.903821;0.03552628;0.1751994;0.2886761;1.52837;2.220286;0.4503684;0.09563637;2.469265;0.7550249;0.4171202;3.740549;0.2886761;1.52837;2.220286;0.4503684;0.09563637;2.469265;0.7550249;0.4171202;3.740549
1788722.9271;NotLabelled;16384;0.6634349;-0.6943784;0.2493075;0.1246537;-14;31;-38;-478;3686;-979;65536;0.8034041;-0.5720221;0.02493075;0.1634349;17;23;11;-955;3966;-1087;8192;0.5886427;-0.6239486;-0.4972299;-0.1301939;-19;-21;3;1708;4073;599;32768;0.7708089;-0.5512465;-0.3047091;-0.09556787;-70;-68;-26;1343;2609;2250;256;-0.0734072;-0.033241;-0.9922883;-0.09418282;0;-10;13;-63;416;4303;128;0.08310249;0.008310249;0.9881464;0.1288089;21;9;-14;95;861;-4194;4;-0.4072022;0.5373961;-0.5522618;-0.4903047;-15;8;-2;-697;3974;-338;16;-0.1094183;-0.9758539;-0.1759003;0.06925207;0;-17;0;-1377;-974;3660;2;0.466759;-0.4279778;-0.4903047;-0.5988091;7;7;4;-709;3978;-423;8;-0.1121884;-0.9891786;0.09418282;-0.008310249;0;-15;13;459;-809;3761;0.6105739;1.548932;2.16774;0.610616;1.552772;1.622206;0.6106308;1.554124;1.142669;0.6209372;1.687934;0.4212456;0.3647077;1.729892;0.09362733;0.02720826;1.792428;0.2430346;-0.09640307;0.8793344;0.3395198;0;0;0;0.8835149;1.68993;0.09362406;1.17438;1.704068;0.2430289;1.607397;0.8696349;0.4539618;1.930315;0.01994562;0.1864933;0.2987311;1.544379;2.213188;0.4528618;0.1118746;2.468204;0.7630912;0.4331689;3.738186;0.2987311;1.544379;2.213188;0.4528618;0.1118746;2.468204;0.7630912;0.4331689;3.738186
1788743.7839;NotLabelled;16384;0.6634349;-0.6974355;0.2479224;0.1094183;-10;29;-35;-504;4178;-231;65536;0.8075802;-0.5692521;0.0235457;0.1523546;20;23;22;-927;3820;-1283;8192;0.5900277;-0.6248411;-0.4944598;-0.1301939;-8;-26;-18;924;4001;1131;32768;0.7622927;-0.5637119;-0.3033241;-0.09556787;-102;-12;-6;2111;2437;936;256;-0.07617728;-0.033241;-0.99221;-0.09279778;3;2;11;135;364;4425;128;0.08587258;0.005540166;0.9884618;0.1246537;18;12;-15;97;813;-4278;4;-0.4085872;0.5373961;-0.5536893;-0.4875346;-15;10;-2;-535;4096;-342;16;-0.1094183;-0.9763492;-0.1731302;0.06925207;1;-22;0;-1391;-1006;3724;2;0.4639889;-0.4293629;-0.4903047;-0.5999693;11;6;2;-495;3972;-413;8;-0.1121884;-0.9890332;0.09556787;-0.009695291;1;-4;11;439;-901;3847;0.6238573;1.554303;2.171868;0.6238489;1.553526;1.626321;0.6238192;1.55082;1.146789;0.6340902;1.684396;0.4253224;0.3777893;1.727033;0.0978478;0.04057026;1.790627;0.2474415;-0.09200208;0.8786435;0.3425178;0;0;0;0.8964739;1.685511;0.09754115;1.187471;1.698815;0.2467656;1.626551;0.8644562;0.4450852;1.940933;0.004053831;0.202888;0.3120186;1.550134;2.217382;0.4624177;0.1173847;2.473249;0.7739948;0.437674;3.743155;0.3120186;1.550134;2.217382;0.4624177;0.1173847;2.473249;0.7739948;0.437674;3.743155
1788764.7799;NotLabelled;16384;0.6634349;-0.6982822;0.2479224;0.1038781;-17;21;-32;-638;4454;141;65536;0.809579;-0.567867;0.0235457;0.1468144;17;29;29;-935;3908;-1407;8192;0.5941828;-0.6294477;-0.4819945;-0.1357341;43;-28;-47;2190;2365;-1917;32768;0.7521707;-0.5706371;-0.3088643;-0.1149584;-30;85;21;-1701;4677;-2306;256;-0.07756232;-0.03185596;-0.9921481;-0.09279778;-4;3;11;-165;558;4303;128;0.08864266;0.004155125;0.9885694;0.1218837;19;12;-17;315;919;-4332;4;-0.4113573;0.5373961;-0.5528554;-0.4861496;-16;12;-3;-451;4108;-292;16;-0.1094183;-0.9770769;-0.1689751;0.06925207;1;-23;0;-1395;-1006;3750;2;0.4626039;-0.4293629;-0.4903047;-0.6010378;15;7;0;-201;3972;-395;8;-0.1121884;-0.989135;0.09418282;-0.01246537;1;1;8;543;-1001;3847;0.6529424;1.559994;2.160695;0.6528857;1.554847;1.615172;0.6528139;1.548301;1.135677;0.6633744;1.679714;0.4138171;0.4071994;1.721449;0.08612792;0.06994833;1.785593;0.2354143;-0.07859968;0.8780079;0.3474494;0;0;0;0.9258714;1.679767;0.08612496;1.21682;1.693429;0.2354092;1.653764;0.8588104;0.4373192;1.961434;-0.01044953;0.2193442;0.3411077;1.55619;2.206268;0.4852612;0.1237024;2.467148;0.8041735;0.4436207;3.735326;0.3411077;1.55619;2.206268;0.4852612;0.1237024;2.467148;0.8041735;0.4436207;3.735326
1788786.029;NotLabelled;16384;0.66482;-0.6974671;0.2493075;0.09695291;-25;20;-31;-570;4588;313;65536;0.81201;-0.566482;0.0235457;0.1385041;11;32;34;-931;3794;-1317;8192;0.5941828;-0.6345169;-0.4736842;-0.1412742;29;-33;-56;3930;4505;515;32768;0.7507704;-0.566482;-0.3144044;-0.1288089;-7;78;26;-1445;6737;-3220;256;-0.07894737;-0.03047091;-0.9923376;-0.0900277;-12;-2;13;-369;402;4073;128;0.09279778;0.001385042;0.9886995;0.1177285;15;17;-22;429;745;-4378;4;-0.4141274;0.5373961;-0.5532162;-0.4833795;-16;17;-3;-499;4130;-276;16;-0.1094183;-0.977649;-0.166205;0.06786703;1;-21;0;-1371;-954;3758;2;0.4598338;-0.4293629;-0.4903047;-0.6031598;16;11;-3;-87;4046;-279;8;-0.1121884;-0.9891165;0.09418282;-0.01385042;2;1;6;529;-1101;3957;0.6676988;1.565217;2.159152;0.6676099;1.557114;1.613665;0.6675096;1.54797;1.134212;0.6777453;1.679465;0.4123627;0.4214686;1.720583;0.08467513;0.08405727;1.783872;0.2339643;-0.07073066;0.8777921;0.349678;0;0;0;0.9402433;1.6802;0.08467168;1.231157;1.694579;0.2339594;1.648973;0.8476977;0.4250015;1.939226;-0.03297281;0.2301713;0.3558669;1.56166;2.204763;0.4948045;0.128247;2.463379;0.8188766;0.4476049;3.730389;0.3558669;1.56166;2.204763;0.4948045;0.128247;2.463379;0.8188766;0.4476049;3.730389
1788806.7796;NotLabelled;16384;0.66759;-0.6957473;0.2493075;0.0900277;-28;25;-27;-688;4152;319;65536;0.8133838;-0.566482;0.0235457;0.1301939;7;33;35;-729;3862;-1321;8192;0.5941828;-0.6373645;-0.468144;-0.1468144;24;0;-39;6172;5299;851;32768;0.748202;-0.566482;-0.3157895;-0.1398892;-27;35;34;-339;4273;-1460;256;-0.08448754;-0.02908587;-0.9922912;-0.08587258;-7;16;16;1245;-90;4761;128;0.09972299;-0.002770083;0.9885083;0.1135734;-3;28;-22;-515;309;-4510;4;-0.4196676;0.5387812;-0.5525066;-0.4778393;-17;25;0;-737;4054;-202;16;-0.1094183;-0.9785748;-0.1606648;0.06786703;1;-14;-1;-1263;-994;3686;2;0.4570637;-0.4293629;-0.4889196;-0.606381;18;18;-5;-45;3986;-181;8;-0.1121884;-0.9892271;0.09279778;-0.01523546;1;-1;6;729;-1115;3997;0.6908214;1.577979;2.160365;0.6906846;1.56553;1.61496;0.6905421;1.552566;1.135595;0.7000975;1.680148;0.4130346;0.4435672;1.718728;0.08523625;0.1060332;1.781844;0.2343218;-0.05984658;0.8779068;0.3514197;0;0;0;0.962458;1.679863;0.0852327;1.253389;1.695906;0.2343157;1.653943;0.8403838;0.4238209;1.936381;-0.04232216;0.2267224;0.3789934;1.574786;2.206031;0.5097713;0.1409874;2.466758;0.8353035;0.4593778;3.733638;0.3789934;1.574786;2.206031;0.5097713;0.1409874;2.466758;0.8353035;0.4593778;3.733638
1788826.7748;NotLabelled;16384;0.6703601;-0.6939431;0.2493075;0.08310249;-30;35;-25;-1152;3946;409;65536;0.8146706;-0.566482;0.0235457;0.1218837;4;44;33;-689;3884;-1393;8192;0.5955678;-0.6354519;-0.466759;-0.1537396;0;25;-44;4090;5465;3045;32768;0.747766;-0.566482;-0.3130194;-0.1481994;-36;11;36;-559;3691;-2102;256;-0.08725762;-0.02493075;-0.9922834;-0.08448754;-7;32;15;1663;-40;4785;128;0.1038781;-0.006925208;0.9880599;0.1135734;-4;34;-15;-699;371;-4548;4;-0.4238227;0.5401662;-0.5515597;-0.4736842;-19;27;0;-941;4002;-168;16;-0.1094183;-0.9788011;-0.1592798;0.06786703;2;-14;-1;-1185;-998;3768;2;0.4501385;-0.4265928;-0.4903047;-0.6123685;19;33;-8;-359;4008;-253;8;-0.1121884;-0.9889168;0.09556787;-0.01800554;1;-16;6;769;-1021;3933;0.7138581;1.595209;2.166054;0.7136755;1.578567;1.620761;0.7134928;1.561916;1.141511;0.7219469;1.683365;0.4178804;0.4649657;1.718521;0.09005013;0.1274393;1.782073;0.238967;-0.04672908;0.8790107;0.3506485;0;0;0;0.9839503;1.680934;0.08980203;1.275003;1.698962;0.2384203;1.665775;0.8353291;0.4107854;1.934769;-0.05158854;0.2137914;0.402034;1.592368;2.21177;0.5216215;0.1581175;2.475367;0.8642328;0.4757676;3.737921;0.402034;1.592368;2.21177;0.5216215;0.1581175;2.475367;0.8642328;0.4757676;3.737921
1788847.7862;NotLabelled;16384;0.6786703;-0.6887585;0.2465374;0.06509695;-44;46;-23;-1354;4152;267;65536;0.8156578;-0.5692521;0.02077562;0.101108;-3;55;28;-261;4028;-1349;8192;0.5983379;-0.6314332;-0.4653739;-0.1634349;-1;41;-66;1588;3749;1475;32768;0.7464641;-0.567867;-0.3102493;-0.1551246;-38;14;34;123;3985;-1510;256;-0.08864266;-0.01939058;-0.9925164;-0.08171745;-13;43;13;823;90;4375;128;0.1052632;-0.01385042;0.9878405;0.1135734;0;41;-12;-529;669;-4516;4;-0.4265928;0.5415512;-0.5504369;-0.4709141;-21;28;2;-1003;3958;-180;16;-0.1094183;-0.9792479;-0.1565097;0.06786703;2;-17;0;-1075;-966;3782;2;0.4459834;-0.4238227;-0.4903047;-0.6173123;20;36;-8;-555;4016;-295;8;-0.1121884;-0.9886189;0.09833795;-0.01939058;1;-23;7;695;-967;4021;0.7379724;1.599477;2.162451;0.7377945;1.583261;1.617145;0.7376159;1.566986;1.137881;0.7453283;1.68683;0.4139752;0.4881789;1.719166;0.0859862;0.150105;1.780348;0.2346538;-0.03583766;0.8800204;0.3493944;0;0;0;1.007449;1.685748;0.08598316;1.298299;1.706456;0.2346482;1.678635;0.8388503;0.4103751;1.933001;-0.05179524;0.2107861;0.4261479;1.5966;2.208161;0.5374609;0.1621115;2.474075;0.8878543;0.4795759;3.734539;0.4261479;1.5966;2.208161;0.5374609;0.1621115;2.474075;0.8878543;0.4795759;3.734539
1788868.9496;NotLabelled;16384;0.6828254;-0.686482;0.2437673;0.05540166;-47;53;-23;-1082;4238;147;65536;0.816054;-0.5706371;0.01800554;0.0900277;-5;55;31;-179;4244;-1465;8192;0.602493;-0.6223108;-0.4639889;-0.1855956;2;60;-51;522;3065;-925;32768;0.742164;-0.5706371;-0.3074792;-0.1703601;-18;28;22;-63;3963;-1052;256;-0.09141274;-0.01385042;-0.9925821;-0.07894737;-9;40;18;195;294;4477;128;0.1080332;-0.01939058;0.9874482;0.1135734;-5;39;-16;-321;711;-4496;4;-0.4307479;0.5429363;-0.5493747;-0.466759;-21;24;4;-1023;3826;-160;16;-0.1094183;-0.9796866;-0.1537396;0.06786703;1;-19;0;-1013;-976;3816;2;0.4432133;-0.4224377;-0.4903047;-0.6202497;19;33;-6;-757;4120;-387;8;-0.1121884;-0.9881687;0.1024931;-0.02077562;3;-31;7;679;-963;4023;0.7837763;1.60813;2.163425;0.7836069;1.592708;1.618096;0.7834359;1.577131;1.13881;0.7896613;1.693639;0.4143447;0.5321021;1.721529;0.08626974;0.1933886;1.779601;0.2347287;-0.0182556;0.8839033;0.3408495;0;0;0;1.051715;1.693962;0.08629817;1.342342;1.718645;0.2347935;1.712218;0.8442011;0.3985456;1.953445;-0.05030107;0.1998887;0.471951;1.605186;2.209126;0.5789289;0.1706083;2.476335;0.9348958;0.4876976;3.73533;0.471951;1.605186;2.209126;0.5789289;0.1706083;2.476335;0.9348958;0.4876976;3.73533
1788889.7866;NotLabelled;16384;0.688746;-0.6828254;0.2396122;0.04432133;-43;69;-22;-908;4372;405;65536;0.8160963;-0.5720221;0.01800554;0.08033241;-6;38;36;-205;4184;-1531;8192;0.6038781;-0.6185851;-0.4626039;-0.1966759;19;25;-55;300;2953;-497;32768;0.7396303;-0.5706371;-0.3088643;-0.1786704;-10;27;20;29;4109;-1196;256;-0.09556787;-0.008310249;-0.992469;-0.07617728;-5;31;25;173;326;4551;128;0.1121884;-0.02493075;0.9868603;0.1135734;-8;34;-19;-167;949;-4420;4;-0.434903;0.5429363;-0.5484468;-0.4639889;-20;20;4;-985;3916;-54;16;-0.1094183;-0.9804245;-0.1495845;0.06648199;0;-17;0;-1023;-1084;3806;2;0.4390582;-0.4196676;-0.4889196;-0.6261507;19;25;-5;-813;4136;-509;8;-0.1108033;-0.9877046;0.1080332;-0.02216066;3;-30;6;509;-1011;3931;0.8073009;1.617202;2.167168;0.8071392;1.602455;1.621821;0.8069748;1.58747;1.142515;0.811723;1.700615;0.4175062;0.5537861;1.724105;0.08938354;0.2144894;1.779126;0.2376722;-0.009186704;0.8855636;0.3368823;0;0;0;1.073672;1.702286;0.08938023;1.364047;1.730884;0.2376671;1.708653;0.8422873;0.3787984;1.925729;-0.05954528;0.1855056;0.4954751;1.614202;2.212861;0.594498;0.1794369;2.482125;0.9596109;0.4961493;3.738593;0.4954751;1.614202;2.212861;0.594498;0.1794369;2.482125;0.9596109;0.4961493;3.738593
1788909.7828;NotLabelled;16384;0.6921661;-0.6814404;0.2354571;0.033241;-41;64;-22;-1302;4326;503;65536;0.8159;-0.5734072;0.01800554;0.07202215;-6;32;40;269;4326;-1755;8192;0.6038781;-0.6179522;-0.4598338;-0.2049861;19;20;-49;1584;3697;61;32768;0.7393385;-0.5692521;-0.3088643;-0.1842105;-8;28;21;-297;3959;-1382;256;-0.1038781;-0.005540166;-0.9915456;-0.07756232;14;13;29;885;522;3947;128;0.1191136;-0.0401662;0.985704;0.1121884;7;80;-14;-485;933;-3484;4;-0.4418283;0.5429363;-0.5475699;-0.4584487;-21;17;3;-757;4050;72;16;-0.1108033;-0.9811912;-0.1440443;0.06509695;0;-17;1;-1121;-1030;3884;2;0.4362881;-0.4196676;-0.4889196;-0.6280839;19;20;-5;-691;4092;-611;8;-0.1108033;-0.9873316;0.1108033;-0.02493075;2;-26;4;633;-943;3859;0.8351964;1.625902;2.171642;0.8350429;1.61189;1.626275;0.8348856;1.597552;1.14695;0.8382971;1.707343;0.421418;0.5800722;1.726486;0.09323925;0.2402184;1.778507;0.2413349;0.003451768;0.8874199;0.3320704;0;0;0;1.100165;1.710326;0.09323621;1.390233;1.742776;0.2413301;1.721912;0.8474474;0.3703688;1.929129;-0.05695784;0.1782745;0.5233699;1.62284;2.217327;0.6145915;0.1871865;2.484602;0.9891348;0.502799;3.738569;0.5233699;1.62284;2.217327;0.6145915;0.1871865;2.484602;0.9891348;0.502799;3.738569
1788929.8564;NotLabelled;16384;0.6962559;-0.6786703;0.232687;0.02216066;-43;55;-22;-1800;4006;439;65536;0.8155849;-0.5747922;0.01939058;0.06371191;2;38;45;683;4760;-2853;8192;0.6038781;-0.6161661;-0.4584487;-0.2132964;13;26;-38;1300;4011;827;32768;0.7391283;-0.566482;-0.3102493;-0.1911357;-10;23;22;25;3841;-1482;256;-0.1080332;-0.004155125;-0.9909989;-0.07894737;9;15;28;1093;620;3389;128;0.1218837;-0.04986149;0.9850791;0.1108033;-9;53;-11;-61;991;-4280;4;-0.4445983;0.5415512;-0.5490096;-0.4556787;-22;16;4;-799;4126;140;16;-0.1108033;-0.9815939;-0.1412742;0.06509695;-1;-19;1;-1063;-954;3848;2;0.433518;-0.4182825;-0.4875346;-0.6319904;18;18;-7;-505;3914;-567;8;-0.1108033;-0.9868205;0.1149584;-0.02631579;3;-30;1;721;-949;3905;0.8594602;1.623206;2.167189;0.859314;1.609887;1.621805;0.8591635;1.596157;1.142462;0.8622004;1.708181;0.4172698;0.603929;1.727307;0.0891265;0.2638599;1.77753;0.2373488;0.01711482;0.889065;0.3272119;0;0;0;1.124082;1.713204;0.08912325;1.414006;1.746348;0.2373435;1.733881;0.8454454;0.357052;1.931625;-0.05994654;0.1596951;0.5476331;1.620086;2.212866;0.6244316;0.1834977;2.479652;1.01783;0.5014665;3.727234;0.5476331;1.620086;2.212866;0.6244316;0.1834977;2.479652;1.01783;0.5014665;3.727234
1788950.7784;NotLabelled;16384;0.7050923;-0.6717451;0.2271468;0.002770083;-48;41;-28;-3540;3652;1173;65536;0.8218025;-0.567867;0.0235457;0.0401662;46;46;53;1987;4570;-4241;8192;0.6038781;-0.6147572;-0.4570637;-0.2202216;11;19;-32;1162;3943;941;32768;0.7376735;-0.566482;-0.3102493;-0.1966759;-13;11;21;37;3887;-1424;256;-0.1121884;-0.004155125;-0.9905371;-0.07894737;-8;3;21;879;682;3845;128;0.1232687;-0.05263158;0.9844469;0.1135734;-13;9;-10;115;1119;-3868;4;-0.4487534;0.5415512;-0.5479201;-0.4529086;-18;11;5;-825;4124;244;16;-0.1108033;-0.9820794;-0.1385041;0.06371191;-1;-19;0;-1103;-898;3782;2;0.4279778;-0.4155124;-0.4861496;-0.6386259;21;26;-5;-769;3942;-791;8;-0.1094183;-0.9857595;0.1246537;-0.02770083;0;-34;-2;797;-987;3917;0.8858538;1.619963;2.165598;0.8857076;1.606636;1.620214;0.8855569;1.592899;1.140871;0.8884458;1.707061;0.4160117;0.6301645;1.726685;0.08790547;0.2899941;1.775857;0.2362474;0.02997342;0.8907456;0.3216678;0;0;0;1.150342;1.713522;0.08790243;1.440195;1.746754;0.2362425;1.749085;0.8411303;0.3489712;1.939673;-0.06471097;0.1466954;0.5740266;1.616843;2.211274;0.6408696;0.1801747;2.480299;1.045742;0.4977779;3.724298;0.5740266;1.616843;2.211274;0.6408696;0.1801747;2.480299;1.045742;0.4977779;3.724298
1788970.8627;NotLabelled;16384;0.709878;-0.666205;0.2285319;-0.004155125;-65;7;-40;-4250;3838;2131;65536;0.8269684;-0.5609418;0.02493075;0.02908587;60;43;45;1167;4548;-3291;8192;0.6038781;-0.6122307;-0.4556787;-0.2299169;11;6;-21;1142;3723;415;32768;0.7376332;-0.5650969;-0.3074792;-0.2049861;-11;4;20;73;3891;-1358;256;-0.1135734;-0.005540166;-0.9903725;-0.07894737;7;6;10;507;640;3533;128;0.1246537;-0.05401662;0.9841975;0.1135734;10;21;-6;-97;1017;-3544;4;-0.4515235;0.5401662;-0.5492926;-0.4501385;-17;5;4;-833;4012;332;16;-0.1121884;-0.9823089;-0.1357341;0.06371191;0;-16;0;-1155;-930;3798;2;0.4252077;-0.4155124;-0.4847645;-0.6415225;18;23;-3;-993;4096;-969;8;-0.1094183;-0.9852251;0.1288089;-0.02770083;0;-30;-5;977;-1011;3853;0.9475564;1.601759;2.179288;0.9474486;1.591925;1.633829;0.9473316;1.581259;1.154408;0.950362;1.695342;0.4295371;0.6921241;1.7151;0.1014051;0.351972;1.764509;0.2497103;0.06793081;0.8861845;0.3284194;0;0;0;1.212293;1.701598;0.1014515;1.502154;1.734656;0.2498149;1.80257;0.8258398;0.3597137;1.98485;-0.08169723;0.1573812;0.6357261;1.598347;2.224921;0.6946143;0.1609881;2.49211;1.107151;0.4777346;3.733808;0.6357261;1.598347;2.224921;0.6946143;0.1609881;2.49211;1.107151;0.4777346;3.733808
1788991.7812;NotLabelled;16384;0.7148331;-0.6578947;0.2368421;-0.009695291;-75;-44;-53;-2960;3748;1807;65536;0.8327844;-0.5526316;0.02631579;0.01939058;74;47;39;127;4280;-1309;8192;0.6038781;-0.6106542;-0.4556787;-0.234072;7;8;-19;1032;3769;281;32768;0.7370425;-0.5650969;-0.3060942;-0.2091413;-7;3;18;133;3903;-1248;256;-0.1149584;-0.004155125;-0.9901081;-0.08033241;11;4;4;641;732;3489;128;0.1260388;-0.05540166;0.984103;0.1121884;1;7;-3;-487;1101;-3582;4;-0.4529086;0.5387812;-0.5506442;-0.4487534;-15;0;2;-571;3990;456;16;-0.1121884;-0.9824993;-0.134349;0.06371191;0;-8;0;-1091;-934;3886;2;0.4224377;-0.4141274;-0.4833795;-0.6452822;14;10;-3;-1037;4220;-1153;8;-0.1094183;-0.984485;0.134349;-0.02770083;-1;-27;-6;945;-991;3837;0.9809778;1.590312;2.206822;0.9808729;1.580748;1.661359;0.9807584;1.570319;1.181933;0.9840498;1.684143;0.4570218;0.7258369;1.704553;0.12891;0.3858483;1.755021;0.2772339;0.08643299;0.8804736;0.3392531;0;0;0;1.245963;1.689511;0.1289068;1.535937;1.721761;0.2772284;1.822113;0.8072498;0.3774617;1.990493;-0.1021187;0.1713419;0.6691473;1.586878;2.252452;0.716601;0.1495926;2.5223;1.132612;0.4695957;3.762002;0.6691473;1.586878;2.252452;0.716601;0.1495926;2.5223;1.132612;0.4695957;3.762002
1789012.0744;NotLabelled;16384;0.7203228;-0.6481994;0.2465374;-0.01385042;-61;-46;-53;-1256;3068;519;65536;0.8384228;-0.5443213;0.02631579;0.008310249;67;63;40;-93;3392;533;8192;0.602493;-0.6114469;-0.4542936;-0.2382271;8;10;-14;1046;3749;-49;32768;0.7378854;-0.5637119;-0.3047091;-0.2119114;-1;5;17;-11;4009;-1118;256;-0.1163435;-0.004155125;-0.9898329;-0.08171745;5;5;7;1495;714;3483;128;0.1274238;-0.05401662;0.9836818;0.1149584;0;6;-5;-805;1159;-4018;4;-0.4570637;0.536011;-0.5510412;-0.4473684;-12;0;0;-507;4020;362;16;-0.1108033;-0.9828448;-0.132964;0.06371191;0;-5;-2;-1037;-1008;3860;2;0.4210526;-0.4141274;-0.4806094;-0.6482497;12;-2;-3;-813;3986;-1087;8;-0.1094183;-0.984103;0.1371191;-0.02770083;-2;-23;-6;1095;-963;3763;1.021119;1.576495;2.227499;1.021;1.565694;1.682059;1.020874;1.554177;1.202658;1.023972;1.670206;0.4780959;0.7657415;1.69104;0.1500249;0.4256302;1.740306;0.2984713;0.1041175;0.8731346;0.3529764;0;0;0;1.2859;1.677147;0.1500214;1.575789;1.709588;0.2984656;1.85731;0.793256;0.3951871;2.018162;-0.1173518;0.1885308;0.7092896;1.573164;2.273144;0.7497188;0.135977;2.544651;1.169829;0.4557993;3.783017;0.7092896;1.573164;2.273144;0.7497188;0.135977;2.544651;1.169829;0.4557993;3.783017
1789031.9339;NotLabelled;16384;0.7265002;-0.6371191;0.2562327;-0.02493075;-35;12;-27;192;2662;177;65536;0.8408685;-0.5401662;0.03047091;-0.01523546;0;12;70;-343;2248;3003;8192;0.601108;-0.611177;-0.4542936;-0.2423823;9;12;-9;920;3821;25;32768;0.7381414;-0.5623268;-0.3047091;-0.2146814;1;4;14;309;3885;-1254;256;-0.1177285;-0.005540166;-0.9894297;-0.08448754;8;0;7;1323;956;3567;128;0.1288089;-0.05263158;0.9835765;0.1149584;4;2;-3;-713;1277;-3870;4;-0.4584487;0.534626;-0.5523573;-0.4459834;-11;0;-1;-591;3970;364;16;-0.1121884;-0.9826877;-0.132964;0.06371191;0;-4;-2;-1113;-960;3782;2;0.4210526;-0.4155124;-0.4792244;-0.6483889;13;-7;-2;-631;3900;-1081;8;-0.1094183;-0.9835151;0.1412742;-0.02770083;-2;-23;-5;1073;-953;3807;1.060386;1.55217;2.249732;1.0603;1.544233;1.704243;1.060201;1.535234;1.224788;1.063416;1.653233;0.5005446;0.8052214;1.675101;0.1725134;0.4651258;1.724148;0.3210678;0.1207503;0.8652838;0.3667432;0;0;0;1.325372;1.660926;0.1725098;1.615268;1.692805;0.3210626;1.889059;0.7741851;0.4182795;2.044539;-0.1364404;0.2076243;0.7485545;1.5486;2.295341;0.7753327;0.1102781;2.562498;1.199977;0.426303;3.800291;0.7485545;1.5486;2.295341;0.7753327;0.1102781;2.562498;1.199977;0.426303;3.800291
1789052.79;NotLabelled;16384;0.7287662;-0.634349;0.2562327;-0.02908587;-11;14;-7;-666;2398;275;65536;0.8385806;-0.5429363;0.04155125;-0.0166205;-25;-54;70;-1545;1742;2163;8192;0.599723;-0.6114327;-0.4542936;-0.2451524;7;4;-5;542;3883;191;32768;0.7389544;-0.5609418;-0.3033241;-0.2174515;1;-5;13;323;3841;-1378;256;-0.1177285;-0.008310249;-0.9892911;-0.08587258;6;-6;5;1401;952;3555;128;0.1301939;-0.04986149;0.9835384;0.1149584;5;-6;-1;-501;1255;-4128;4;-0.4598338;0.533241;-0.5536599;-0.4445983;-9;0;-2;-665;3942;396;16;-0.1121884;-0.9828742;-0.1315789;0.06371191;0;-2;-2;-1099;-946;3822;2;0.4196676;-0.4168975;-0.4750692;-0.6514482;10;-2;1;-735;4072;-1001;8;-0.1108033;-0.9825862;0.1468144;-0.02631579;-2;-10;-3;1201;-971;3723;1.124224;1.527271;2.258623;1.124135;1.519172;1.713136;1.124035;1.51003;1.233683;1.127794;1.631756;0.5100596;0.8697317;1.656252;0.1821086;0.5297922;1.705761;0.3308672;0.1536073;0.8598901;0.3671379;0;0;0;1.389828;1.640195;0.1821057;1.679814;1.670258;0.3308625;1.947846;0.7499522;0.4281824;2.09993;-0.1606089;0.2147894;0.8123921;1.523714;2.304234;0.8320513;0.08559382;2.573088;1.259065;0.4052361;3.809136;0.8123921;1.523714;2.304234;0.8320513;0.08559382;2.573088;1.259065;0.4052361;3.809136
1789073.779;NotLabelled;16384;0.7288201;-0.634349;0.2562327;-0.02770083;3;-25;11;-1490;1584;407;65536;0.8352719;-0.5470914;0.05401662;-0.009695291;-36;-86;46;-3387;1450;533;8192;0.599723;-0.6134812;-0.4515235;-0.2451524;-1;-23;10;730;4061;325;32768;0.7401618;-0.5595568;-0.301939;-0.2188366;5;-6;6;47;4057;-1154;256;-0.1191136;-0.01246537;-0.9889604;-0.08725762;-1;-11;0;1471;964;3695;128;0.1301939;-0.04709141;0.983675;0.1149584;1;-15;0;-377;1181;-4354;4;-0.4598338;0.533241;-0.5547693;-0.4432133;-6;0;-2;-779;3940;352;16;-0.1121884;-0.9828742;-0.1315789;0.06371191;0;2;-3;-1077;-1006;3850;2;0.4196676;-0.4182825;-0.4750692;-0.6505598;8;0;4;-837;4180;-969;8;-0.1108033;-0.9823782;0.1481994;-0.02631579;-1;-4;-2;1133;-939;3743;1.146838;1.521221;2.252086;1.146745;1.512737;1.706605;1.146641;1.503258;1.227159;1.151163;1.626499;0.5037963;0.8932734;1.65319;0.1758811;0.5536153;1.704357;0.3247219;0.1702233;0.8615208;0.3558137;0;0;0;1.413267;1.634113;0.1758786;1.703411;1.662175;0.3247175;1.967049;0.7407892;0.4238098;2.114439;-0.169728;0.2069631;0.8350066;1.517696;2.297702;0.8467636;0.07981658;2.568301;1.273607;0.3992777;3.804456;0.8350066;1.517696;2.297702;0.8467636;0.07981658;2.568301;1.273607;0.3992777;3.804456
1789115.7884;NotLabelled;16384;0.7280077;-0.6357341;0.2562327;-0.01385042;26;-19;39;-420;1380;111;65536;0.8274739;-0.5581717;0.06094183;0.004155125;-56;8;-23;-3773;1332;2227;8192;0.5983379;-0.6159294;-0.4515235;-0.2423823;0;-5;7;-16;4563;347;32768;0.7406412;-0.5581717;-0.3033241;-0.2188366;-1;-9;-16;451;3951;-1386;256;-0.1163435;-0.01800554;-0.9894452;-0.08448754;-22;23;-14;1611;792;3209;128;0.1260388;-0.0401662;0.9846837;0.1135734;7;-1;18;-1033;1063;-3752;4;-0.4584487;0.5318559;-0.5572397;-0.4432133;0;-9;-1;-753;3942;304;16;-0.1108033;-0.9825657;-0.134349;0.06509695;1;3;-2;-969;-978;3792;2;0.4196676;-0.4196676;-0.4722992;-0.6516837;3;-7;4;-751;4074;-921;8;-0.1108033;-0.9823782;0.1481994;-0.02631579;0;3;-1;1103;-985;3735;1.153635;1.519462;2.237547;1.153537;1.510542;1.692073;1.153429;1.500679;1.212635;1.159091;1.625146;0.4894899;0.9014722;1.654678;0.1616056;0.5622652;1.708566;0.3105145;0.1804973;0.865009;0.3420191;0;0;0;1.421279;1.631032;0.1616024;1.711646;1.656281;0.3105096;1.971447;0.7338535;0.4100422;2.115245;-0.1762265;0.1889906;0.8418041;1.515974;2.283169;0.8514051;0.07889998;2.558095;1.280789;0.3983606;3.793369;0.8418041;1.515974;2.283169;0.8514051;0.07889998;2.558095;1.280789;0.3983606;3.793369
1789137.7808;NotLabelled;16384;0.7230726;-0.6468144;0.2423823;-0.006925208;80;50;31;-2982;3358;-1973;65536;0.8308206;-0.5526316;0.06094183;0.02493075;75;-122;-34;5389;10422;-9901;8192;0.5983379;-0.6159294;-0.4515235;-0.2423823;-2;-7;6;-56;4539;677;32768;0.7398404;-0.5595568;-0.3047091;-0.2160665;-3;-12;-20;83;3847;-1448;256;-0.1149584;-0.01385042;-0.9901313;-0.07894737;-37;36;-16;1665;756;3145;128;0.1232687;-0.03878116;0.9852485;0.1121884;15;4;23;-955;1023;-3626;4;-0.4584487;0.5304709;-0.5585583;-0.4432133;0;-9;0;-729;3960;352;16;-0.1108033;-0.982473;-0.134349;0.06648199;1;1;-1;-985;-1028;3884;2;0.4196676;-0.4210526;-0.4722992;-0.6507897;0;-7;7;-641;4110;-1021;8;-0.1108033;-0.9825862;0.1468144;-0.02631579;0;6;-1;1075;-1001;3731;1.12314;1.542945;2.219776;1.123012;1.531327;1.674353;1.122878;1.519094;1.19497;1.129501;1.638705;0.4710138;0.8720656;1.668603;0.143019;0.5334611;1.726819;0.2916697;0.1684434;0.8757706;0.3200767;0;0;0;1.391613;1.639833;0.1430156;1.68227;1.663203;0.2916641;1.94365;0.7420204;0.3983327;2.09125;-0.1671985;0.1762458;0.8113109;1.539682;2.265432;0.8172408;0.1034235;2.544689;1.242108;0.4201031;3.782238;0.8113109;1.539682;2.265432;0.8172408;0.1034235;2.544689;1.242108;0.4201031;3.782238
1789178.7899;NotLabelled;16384;0.7147499;-0.6565097;0.2409972;-0.006925208;67;-4;-33;-8594;10122;2395;65536;0.8321899;-0.5498615;0.06094183;0.03739612;-8;-4;-49;-1417;4664;-937;8192;0.5969529;-0.6168569;-0.4542936;-0.2382271;-5;-19;27;1070;3269;45;32768;0.7382687;-0.5609418;-0.3088643;-0.2119114;5;-17;-15;69;3793;-1312;256;-0.1121884;-0.01108033;-0.9909099;-0.0734072;-32;37;-21;1229;838;3593;128;0.1204986;-0.03878116;0.9859025;0.1094183;15;5;28;121;475;-3656;4;-0.4584487;0.5290859;-0.5598704;-0.4432133;1;-10;-1;-801;3956;378;16;-0.1108033;-0.982473;-0.134349;0.06648199;0;2;-1;-917;-994;4004;2;0.4196676;-0.4238227;-0.4736842;-0.647979;-2;-6;10;-643;4158;-911;8;-0.1108033;-0.9832342;0.1426593;-0.02493075;-1;22;-4;937;-959;3773;1.075657;1.570841;2.231848;1.07551;1.557436;1.686466;1.075358;1.543632;1.207125;1.080486;1.656014;0.4819995;0.822621;1.680109;0.153864;0.4835346;1.736523;0.3021109;0.1496909;0.8729895;0.3365706;0;0;0;1.342424;1.656392;0.1538609;1.632908;1.68408;0.3021053;1.894109;0.7628974;0.4092103;2.046896;-0.1463907;0.1909474;0.7638299;1.567729;2.277525;0.7657586;0.1316177;2.557597;1.191729;0.4487704;3.794647;0.7638299;1.567729;2.277525;0.7657586;0.1316177;2.557597;1.191729;0.4487704;3.794647
1789199.0103;NotLabelled;16384;0.7156512;-0.6523545;0.2493075;-0.01108033;-80;-40;-35;-4102;8072;7211;65536;0.8321875;-0.5512465;0.04986149;0.033241;-28;46;-32;679;3340;-2879;8192;0.5969529;-0.618968;-0.4542936;-0.232687;1;-35;27;1266;3181;429;32768;0.7388687;-0.5609418;-0.3102493;-0.2077562;5;-28;-15;127;3913;-1358;256;-0.1094183;-0.008310249;-0.9914479;-0.07063711;-4;3;-19;-1347;-204;4769;128;0.1163435;-0.03878116;0.9867048;0.1066482;13;-13;22;1125;337;-4064;4;-0.4570637;0.5290859;-0.5599047;-0.4445983;4;-13;-2;-775;3962;318;16;-0.1108033;-0.982473;-0.134349;0.06648199;0;4;0;-995;-1016;3958;2;0.4196676;-0.4252077;-0.4736842;-0.6470709;-3;-9;7;-479;4008;-923;8;-0.1121884;-0.9838992;0.1371191;-0.0235457;-2;31;-6;917;-997;3807;1.054631;1.591612;2.223806;1.05445;1.575114;1.678508;1.054269;1.558592;1.199254;1.058304;1.66352;0.4730054;0.8001434;1.682383;0.1447601;0.4607207;1.737897;0.2925767;0.1369146;0.8714955;0.3457564;0;0;0;1.320103;1.662385;0.1447573;1.61044;1.693679;0.2925711;1.878976;0.7754211;0.4064436;2.043098;-0.133406;0.194586;0.7428066;1.588758;2.26952;0.7398809;0.1528043;2.550383;1.159726;0.4699571;3.789525;0.7428066;1.588758;2.26952;0.7398809;0.1528043;2.550383;1.159726;0.4699571;3.789525
1789219.922;NotLabelled;16384;0.7209604;-0.6454294;0.2520775;-0.009695291;-19;-11;17;1282;2352;861;65536;0.8304511;-0.5540166;0.04709141;0.03462604;-20;-15;-25;-149;3860;-903;8192;0.5955678;-0.6233595;-0.4529086;-0.2271468;-8;-36;23;1002;3987;559;32768;0.7389726;-0.5623268;-0.3102493;-0.2036011;3;-30;-23;199;4021;-1380;256;-0.1066482;-0.009695291;-0.9917371;-0.07063711;-1;-24;-13;-1427;-492;4955;128;0.1149584;-0.03462604;0.9871703;0.1052632;0;-39;10;1409;375;-4604;4;-0.4556787;0.5277008;-0.5612376;-0.4459834;5;-14;-3;-629;4006;274;16;-0.1108033;-0.9822826;-0.1357341;0.06648199;0;10;1;-1095;-1040;3924;2;0.4196676;-0.4265928;-0.4736842;-0.6461586;-2;-9;4;-379;3920;-789;8;-0.1121884;-0.9845015;0.132964;-0.02216066;-3;32;-8;975;-1027;3863;1.057991;1.600306;2.227873;1.057775;1.580675;1.68268;1.057564;1.561399;1.203528;1.060805;1.662844;0.4767815;0.8024768;1.678445;0.1484973;0.4627233;1.732465;0.2961068;0.122111;0.872499;0.3487566;0;0;0;1.322555;1.661826;0.1484941;1.612706;1.695719;0.2961013;1.887294;0.7798922;0.4150054;2.059393;-0.1276858;0.2041254;0.7461694;1.597715;2.273622;0.7461014;0.1615908;2.553635;1.159627;0.4787433;3.794898;0.7461694;1.597715;2.273622;0.7461014;0.1615908;2.553635;1.159627;0.4787433;3.794898
1789241.7747;NotLabelled;16384;0.7151148;-0.6551247;0.2437673;0;30;-30;24;-2496;3194;21;65536;0.8271215;-0.5581717;0.04432133;0.04847645;2;-46;-12;111;3688;-1685;8192;0.5969529;-0.6235119;-0.4542936;-0.2202216;-9;-7;7;1176;4491;243;32768;0.7378126;-0.5637119;-0.3157895;-0.1952908;3;-13;-43;-47;4013;-1298;256;-0.09695291;-0.01800554;-0.9923115;-0.07479224;0;-7;-19;351;788;4123;128;0.1080332;-0.0166205;0.9879677;0.1094183;-8;-42;19;-439;1139;-4260;4;-0.4515235;0.5277008;-0.5623866;-0.4487534;6;-8;-3;-629;4186;182;16;-0.1108033;-0.9813007;-0.1426593;0.06648199;-3;17;0;-1183;-1020;3956;2;0.4210526;-0.4279778;-0.4750692;-0.6433187;-5;-5;3;-505;3852;-743;8;-0.1149584;-0.9852018;0.1260388;-0.0166205;-6;15;-9;1091;-975;3891;1.056316;1.603452;2.24458;1.056078;1.58171;1.699466;1.055846;1.560577;1.220392;1.059256;1.66187;0.493625;0.8009334;1.678015;0.1653626;0.4613228;1.732866;0.3129944;0.1130091;0.8749933;0.3455603;0;0;0;1.320971;1.660167;0.1653123;1.611215;1.693404;0.3128852;1.88799;0.7791896;0.4389117;2.065754;-0.1279962;0.2310605;0.7444969;1.601039;2.290352;0.7436748;0.1648974;2.570272;1.149738;0.4822412;3.813949;0.7444969;1.601039;2.290352;0.7436748;0.1648974;2.570272;1.149738;0.4822412;3.813949
1789282.9354;NotLabelled;16384;0.7120582;-0.6578947;0.2451524;0.006925208;29;-47;30;-1214;4110;1255;65536;0.8267782;-0.5581717;0.04432133;0.05401662;-8;-32;-14;-1;3818;-1993;8192;0.5983379;-0.6231564;-0.4542936;-0.2174515;-10;-17;-2;1552;3957;1047;32768;0.7338616;-0.567867;-0.3240997;-0.1842105;-5;-33;-43;-395;4047;-1314;256;-0.09279778;-0.01939058;-0.9926826;-0.07479224;3;-4;-21;293;440;4103;128;0.1038781;-0.009695291;0.9881949;0.1121884;-11;-41;20;-279;895;-3906;4;-0.4501385;0.5277008;-0.5634958;-0.4487534;5;-12;-4;-705;4050;74;16;-0.1121884;-0.9806417;-0.1454294;0.06786703;-5;16;-2;-1125;-1146;4046;2;0.4224377;-0.4279778;-0.4764543;-0.6413835;-10;-12;9;-891;4252;-757;8;-0.1163435;-0.9852582;0.1246537;-0.01385042;-4;-1;-6;1109;-979;3743;0.9976948;1.597817;2.23289;0.9974796;1.578201;1.687695;0.9972683;1.558936;1.208543;1.002618;1.665296;0.4825113;0.7447321;1.68788;0.1542854;0.4059739;1.747098;0.302188;0.08500487;0.8789926;0.3434293;0;0;0;1.264419;1.661738;0.154282;1.55509;1.689296;0.302183;1.841265;0.7791765;0.4365784;2.040259;-0.1258724;0.2389042;0.6858735;1.595225;2.278638;0.6893466;0.1594417;2.560369;1.067208;0.4777324;3.812663;0.6858735;1.595225;2.278638;0.6893466;0.1594417;2.560369;1.067208;0.4777324;3.812663
1789303.0164;NotLabelled;16384;0.7119289;-0.6578947;0.2451524;0.01523546;12;-25;25;-1074;4600;2037;65536;0.8256555;-0.5595568;0.04432133;0.0567867;-17;-7;-15;-17;3758;-1771;8192;0.599723;-0.6227853;-0.4542936;-0.2146814;-14;-24;1;2072;4115;1005;32768;0.7317241;-0.5720221;-0.3254848;-0.1772853;-9;-45;-38;-475;4079;-1314;256;-0.0900277;-0.01939058;-0.9928324;-0.07617728;8;-4;-17;241;502;4065;128;0.101108;-0.004155125;0.9880406;0.1163435;-19;-40;19;-389;915;-4044;4;-0.4487534;0.5277008;-0.5634958;-0.4501385;4;-15;-6;-803;3868;20;16;-0.1135734;-0.9800674;-0.1481994;0.06786703;-8;17;-1;-1235;-1146;4160;2;0.4238227;-0.4293629;-0.4764543;-0.6395414;-5;-14;13;-865;4074;-679;8;-0.1163435;-0.985082;0.1260388;-0.01385042;-3;-6;-5;1161;-1019;3849;0.9795353;1.595633;2.231102;0.9793444;1.578219;1.685833;0.9791543;1.560891;1.206606;0.9847308;1.667212;0.4805714;0.7268931;1.690337;0.1523446;0.388263;1.750287;0.3002465;0.07628322;0.8790952;0.3452101;0;0;0;1.246523;1.663082;0.1523413;1.537253;1.690021;0.3002408;1.826766;0.781063;0.4353393;2.05014;-0.1218127;0.2544855;0.667712;1.592856;2.276826;0.6702512;0.1577547;2.562022;1.039317;0.4805437;3.815786;0.667712;1.592856;2.276826;0.6702512;0.1577547;2.562022;1.039317;0.4805437;3.815786
1789322.93;NotLabelled;16384;0.7123397;-0.6578947;0.2437673;0.01800554;3;-12;17;-1224;3746;905;65536;0.8245931;-0.5609418;0.04293629;0.05955679;-18;-11;-15;31;3780;-1489;8192;0.601108;-0.6238763;-0.4529086;-0.2105263;-15;-32;6;2042;3863;859;32768;0.7301075;-0.5761772;-0.3254848;-0.1703601;-10;-47;-30;-523;4213;-1064;256;-0.08864266;-0.01939058;-0.9928497;-0.07756232;4;-4;-13;223;612;3909;128;0.09833795;0;0.9881648;0.1177285;-6;-34;17;-125;1039;-3748;4;-0.4459834;0.5263157;-0.5658773;-0.4515235;4;-16;-8;-645;3802;-26;16;-0.1149584;-0.979386;-0.1509695;0.06925207;-11;21;-1;-1353;-1206;4124;2;0.4252077;-0.4307479;-0.4764543;-0.637688;0;-15;13;-631;3920;-535;8;-0.1163435;-0.9849223;0.1274238;-0.01246537;-1;-11;-5;1077;-963;3909;0.9639678;1.590528;2.23247;0.9638197;1.577049;1.68709;0.9636675;1.563179;1.207751;0.9693376;1.671614;0.4820288;0.7115463;1.695653;0.1538316;0.372884;1.755118;0.3018551;0.07069841;0.8803072;0.3433048;0;0;0;1.23118;1.66848;0.1538284;1.521884;1.695035;0.3018497;1.815128;0.7872579;0.4368423;2.047956;-0.1152897;0.2665871;0.6521407;1.587421;2.278149;0.6574295;0.1521745;2.562576;1.017817;0.4789515;3.817831;0.6521407;1.587421;2.278149;0.6574295;0.1521745;2.562576;1.017817;0.4789515;3.817831
1789344.7918;NotLabelled;16384;0.7122225;-0.6578947;0.2437673;0.02216066;12;-20;19;-1048;3588;375;65536;0.8225678;-0.5637119;0.04155125;0.06232687;-16;-13;-13;-241;3868;-1423;8192;0.602493;-0.6239286;-0.4529086;-0.2063712;-9;-32;12;2254;3757;421;32768;0.7280854;-0.5803324;-0.3254848;-0.1648199;-7;-41;-18;-577;4271;-952;256;-0.08725762;-0.02077562;-0.9928352;-0.07894737;5;-3;-13;353;780;3945;128;0.09556787;0.002770083;0.9880988;0.1204986;-10;-14;16;111;1281;-3748;4;-0.4418283;0.5263157;-0.5680258;-0.4529086;4;-15;-15;-393;4252;-208;16;-0.1191136;-0.9777962;-0.1578947;0.06925207;-19;16;-2;-1305;-1198;4104;2;0.4252077;-0.433518;-0.4778393;-0.6347678;0;-15;16;-485;3908;-415;8;-0.1163435;-0.9847422;0.1288089;-0.01246537;-1;-11;-3;899;-873;3867;0.9524916;1.588697;2.233575;0.9523559;1.576319;1.688168;0.9522142;1.563415;1.208802;0.9579964;1.673909;0.4833918;0.7002546;1.698889;0.1552256;0.3615724;1.757946;0.3033672;0.06398389;0.8814209;0.3417605;0;0;0;1.219888;1.671698;0.1552228;1.51057;1.697823;0.3033623;1.807541;0.7913191;0.4387712;2.047511;-0.1109523;0.2771898;0.6406636;1.585499;2.27924;0.6475072;0.1509066;2.566918;1.006167;0.4821968;3.821486;0.6406636;1.585499;2.27924;0.6475072;0.1509066;2.566918;1.006167;0.4821968;3.821486
1789365.7852;NotLabelled;16384;0.7105088;-0.6592798;0.2437673;0.033241;20;-27;17;-902;3862;655;65536;0.8204054;-0.566482;0.0401662;0.06648199;-15;-7;-9;-329;3846;-1567;8192;0.601108;-0.6270645;-0.4529086;-0.200831;0;-25;19;2620;3535;351;32768;0.728034;-0.5831025;-0.3227147;-0.1606648;-6;-30;-1;-797;4337;-318;256;-0.08310249;-0.02077562;-0.9929676;-0.08171745;6;-6;-13;9;926;3817;128;0.0900277;0.004155125;0.9880988;0.1246537;-8;-16;18;453;1621;-3896;4;-0.4390582;0.5263157;-0.5701697;-0.4529086;0;-10;-17;-511;4374;-182;16;-0.1218837;-0.97723;-0.1592798;0.06925207;-22;2;-3;-1359;-1164;4294;2;0.4252077;-0.434903;-0.4778393;-0.6338196;0;-7;17;-587;3798;-245;8;-0.1163435;-0.98456;0.1301939;-0.01246537;-2;-9;-3;869;-929;3877;0.9391654;1.58322;2.227255;0.9390601;1.573627;1.681792;0.9389453;1.563172;1.202367;0.9453018;1.675544;0.47725;0.6877515;1.702098;0.149057;0.3491803;1.761709;0.2972301;0.05638423;0.8836477;0.33732;0;0;0;1.207307;1.673461;0.1491711;1.498006;1.698391;0.2974837;1.800217;0.7944846;0.4385395;2.045716;-0.1078937;0.2861226;0.6273349;1.579789;2.272886;0.6405941;0.1464555;2.566551;0.9905545;0.4894831;3.820419;0.6273349;1.579789;2.272886;0.6405941;0.1464555;2.566551;0.9905545;0.4894831;3.820419
1789386.7964;NotLabelled;16384;0.708462;-0.6606648;0.2451524;0.03878116;17;-24;15;-872;3988;813;65536;0.8185033;-0.5692521;0.03739612;0.06786703;-17;1;-8;-327;3902;-1477;8192;0.5955678;-0.6329231;-0.4556787;-0.1925208;9;-9;36;1942;3705;669;32768;0.723143;-0.5914127;-0.3199446;-0.1578947;-23;-18;2;-823;3933;-942;256;-0.08033241;-0.02077562;-0.9930806;-0.08310249;5;-2;-16;-119;1052;4007;128;0.08725762;0.004155125;0.987994;0.1274238;-12;-7;19;353;1533;-3950;4;-0.4376731;0.5277008;-0.5699543;-0.4529086;-1;-6;-18;-639;4308;-308;16;-0.1260388;-0.9767027;-0.1592798;0.06925207;-29;-4;-5;-1375;-1222;4310;2;0.4224377;-0.4376731;-0.4806094;-0.631667;5;6;22;-699;3944;-439;8;-0.1177285;-0.9838534;0.134349;-0.01108033;-2;-16;-5;949;-987;3819;0.9137117;1.576743;2.227094;0.9136559;1.571653;1.68157;0.9135846;1.565156;1.202075;0.9199868;1.681707;0.4776183;0.6624618;1.710103;0.14956;0.3238656;1.768795;0.2980421;0.04565541;0.8857968;0.3332817;0;0;0;1.182023;1.681566;0.1495571;1.472703;1.705696;0.2980378;1.779722;0.8039773;0.4426734;2.026783;-0.09875941;0.2949769;0.601877;1.572935;2.272666;0.6156938;0.1410267;2.573177;0.9532892;0.4914203;3.828399;0.601877;1.572935;2.272666;0.6156938;0.1410267;2.573177;0.9532892;0.4914203;3.828399
1789407.7803;NotLabelled;16384;0.7082223;-0.6606648;0.2451524;0.04293629;15;-20;11;-862;3978;791;65536;0.8177143;-0.5706371;0.03601108;0.06648199;-17;1;-8;-63;3798;-1475;8192;0.5914127;-0.6356496;-0.4584487;-0.1897507;16;-14;29;1192;3589;403;32768;0.7228391;-0.5914127;-0.3199446;-0.1592798;-20;2;2;-537;3679;-2450;256;-0.07756232;-0.01939058;-0.9930931;-0.08587258;10;2;-16;-103;968;4129;128;0.08448754;0.004155125;0.9878736;0.1301939;-9;-3;19;121;1331;-4026;4;-0.434903;0.5277008;-0.5720708;-0.4529086;-5;-10;-20;-741;4220;-378;16;-0.1315789;-0.9761969;-0.1578947;0.06925207;-37;-10;-7;-1247;-1112;4328;2;0.4196676;-0.4404432;-0.4819945;-0.6305317;6;7;25;-721;4052;-627;8;-0.1177285;-0.9834712;0.1371191;-0.01108033;-1;-16;-6;855;-999;3801;0.8981653;1.572369;2.220335;0.8981432;1.57036;1.674791;0.8981016;1.566571;1.195267;0.9045926;1.685239;0.4711549;0.6471134;1.714535;0.1431399;0.3084803;1.772716;0.2917389;0.03670526;0.8878002;0.3290295;0;0;0;1.166681;1.686115;0.1431367;1.457332;1.709877;0.2917336;1.772653;0.8144093;0.4560049;2.016769;-0.09178698;0.3256072;0.5863278;1.568303;2.265866;0.6033786;0.1370399;2.569268;0.9316214;0.4981866;3.823922;0.5863278;1.568303;2.265866;0.6033786;0.1370399;2.569268;0.9316214;0.4981866;3.823922
1789429.5516;NotLabelled;16384;0.7066631;-0.6620498;0.2451524;0.04709141;12;-17;7;-792;3932;487;65536;0.8158342;-0.5734072;0.03462604;0.06648199;-15;3;-7;-353;3950;-1357;8192;0.5886427;-0.6394364;-0.4584487;-0.1855956;15;-19;32;1604;3415;865;32768;0.7212995;-0.5914127;-0.3227147;-0.1606648;-22;6;-4;-1275;3087;-2960;256;-0.07617728;-0.01800554;-0.9931057;-0.08725762;10;5;-15;-179;920;4061;128;0.08171745;0.002770083;0.9879279;0.1315789;-11;3;19;-115;1259;-4152;4;-0.433518;0.5290859;-0.572937;-0.4515235;-4;-12;-23;-615;3974;-98;16;-0.1385041;-0.9754617;-0.1565097;0.06925207;-43;-16;-9;-1179;-1296;4230;2;0.4168975;-0.4418283;-0.4833795;-0.63034;8;3;27;-561;4148;-599;8;-0.1177285;-0.9832917;0.1385041;-0.009695291;0;-14;-8;907;-917;3653;0.8903704;1.565517;2.219213;0.8903823;1.566591;1.673668;0.8903704;1.565513;1.194129;0.896752;1.688461;0.4707307;0.6392924;1.718971;0.1428109;0.3004529;1.775333;0.2916411;0.03360896;0.8888223;0.3265913;0;0;0;1.158937;1.691999;0.1428078;1.449476;1.715694;0.2916358;1.767455;0.8236363;0.4688301;2.010564;-0.08305907;0.3400331;0.5785301;1.561194;2.264702;0.5968926;0.1314033;2.574894;0.9157276;0.5066824;3.827826;0.5785301;1.561194;2.264702;0.5968926;0.1314033;2.574894;0.9157276;0.5066824;3.827826
1789450.778;NotLabelled;16384;0.7059909;-0.6620498;0.2465374;0.04986149;14;-13;4;-890;3958;387;65536;0.8149719;-0.5747922;0.03185596;0.06648199;-12;1;-7;-91;3932;-1307;8192;0.5858725;-0.640785;-0.4612188;-0.1828255;9;-9;26;1146;3419;2321;32768;0.718085;-0.5941828;-0.3240997;-0.1620499;-21;6;-6;-841;3161;-3148;256;-0.0734072;-0.0166205;-0.9932158;-0.08864266;2;0;-16;-141;956;4015;128;0.07894737;0.001385042;0.9877833;0.134349;-10;6;17;3;1329;-3934;4;-0.4307479;0.5304709;-0.5780621;-0.4459834;-9;8;-29;-575;3852;228;16;-0.1551246;-0.9740457;-0.1495845;0.06925207;-53;-24;-16;-813;-2414;3874;2;0.4141274;-0.4459834;-0.4847645;-0.6281725;10;-2;27;-429;4122;-823;8;-0.1177285;-0.9829103;0.1412742;-0.008310249;1;-13;-10;955;-965;3717;0.880204;1.565124;2.211569;0.8802344;1.567879;1.666029;0.880239;1.568278;1.186489;0.8863865;1.693441;0.4634684;0.6288921;1.724231;0.1356023;0.289875;1.779198;0.2845492;0.02930227;0.890897;0.3213108;0;0;0;1.14861;1.698704;0.1355991;1.439059;1.722754;0.2845445;1.759264;0.8335001;0.4715506;2.004496;-0.07315302;0.3465327;0.5683622;1.560661;2.257032;0.5878804;0.1324253;2.574243;0.9001551;0.5253744;3.823405;0.5683622;1.560661;2.257032;0.5878804;0.1324253;2.574243;0.9001551;0.5253744;3.823405
1789471.9491;NotLabelled;16384;0.7030761;-0.66482;0.2465374;0.05401662;15;-10;-1;-816;4014;273;65536;0.8130642;-0.5775623;0.03047091;0.06648199;-8;2;-4;-175;3952;-1337;8192;0.5858725;-0.6385613;-0.4653739;-0.1800554;-1;-5;32;1266;3407;2249;32768;0.717144;-0.5941828;-0.3254848;-0.1634349;-27;-6;-6;-23;3765;-1922;256;-0.06786703;-0.01523546;-0.993632;-0.08864266;-7;-3;-19;-357;920;3947;128;0.0734072;-0.001385042;0.9880211;0.1357341;-3;6;15;451;1353;-3944;4;-0.4293629;0.533241;-0.5797322;-0.4418283;-13;12;-37;-977;3764;166;16;-0.1634349;-0.9732162;-0.1454294;0.07063711;-49;-26;-16;-653;-2704;3510;2;0.4127424;-0.4487534;-0.4847645;-0.6271104;9;-3;25;-491;3972;-653;8;-0.1163435;-0.9828858;0.1426593;-0.006925208;2;-11;-11;991;-999;3869;0.8722174;1.559536;2.209579;0.8722826;1.565485;1.664065;0.872318;1.568692;1.184536;0.8781891;1.696111;0.461907;0.6206492;1.727136;0.1340984;0.2814459;1.780614;0.2831636;0.02273152;0.8917507;0.3194713;0;0;0;1.140442;1.703184;0.134095;1.430796;1.727653;0.2831579;1.754722;0.8417765;0.4795502;1.999295;-0.06631553;0.3640476;0.5603726;1.554807;2.254996;0.5727712;0.1317151;2.59487;0.8721182;0.5664324;3.833312;0.5603726;1.554807;2.254996;0.5727712;0.1317151;2.59487;0.8721182;0.5664324;3.833312
1789493.0784;NotLabelled;16384;0.7011676;-0.666205;0.2479224;0.05540166;14;-6;-4;-794;4010;461;65536;0.8121294;-0.5789474;0.02908587;0.06648199;-8;6;-3;-269;3954;-1299;8192;0.5858725;-0.6405754;-0.466759;-0.1689751;-2;-37;34;1530;4149;533;32768;0.7117524;-0.602493;-0.3240997;-0.1592798;-24;-28;-14;-251;4475;-902;256;-0.06509695;-0.01385042;-0.9939601;-0.08725762;-5;1;-20;-85;868;4023;128;0.07202215;-0.004155125;0.987924;0.1371191;-6;11;14;243;1353;-3906;4;-0.4265928;0.536011;-0.58444;-0.434903;-15;14;-53;-1435;3654;190;16;-0.1717452;-0.9721946;-0.1426593;0.07063711;-51;-13;-17;-1147;-3866;3376;2;0.4085872;-0.4542936;-0.4861496;-0.6247659;5;-4;25;-443;4000;-803;8;-0.1149584;-0.9826584;0.1454294;-0.004155125;0;-10;-10;1175;-983;3845;0.858953;1.561909;2.201121;0.8590381;1.569662;1.655629;0.8590907;1.574455;1.176113;0.8645002;1.7022;0.4535383;0.6068524;1.732405;0.1257381;0.2674496;1.784556;0.2748189;0.01591316;0.8937659;0.3142085;0;0;0;1.12673;1.710389;0.1257347;1.416989;1.735875;0.2748136;1.747841;0.8535087;0.4754114;1.993625;-0.05480278;0.3642902;0.5471064;1.55703;2.24651;0.5551084;0.1374772;2.601001;0.841941;0.5933919;3.834775;0.5471064;1.55703;2.24651;0.5551084;0.1374772;2.601001;0.841941;0.5933919;3.834775
1789513.7686;NotLabelled;16384;0.6998491;-0.66759;0.2479224;0.05540166;12;-1;-7;-910;3990;461;65536;0.8113471;-0.5803324;0.02631579;0.06509695;-8;11;-3;-217;3926;-1293;8192;0.5831025;-0.6445282;-0.466759;-0.1634349;8;-35;31;2416;3821;5;32768;0.7091562;-0.6066482;-0.3227147;-0.1578947;-21;-12;-16;-157;4007;-492;256;-0.06094183;-0.01246537;-0.9942418;-0.08725762;0;11;-21;21;764;4117;128;0.07063711;-0.006925208;0.9878153;0.1385041;-10;20;13;67;1327;-3876;4;-0.4224377;0.5415512;-0.5884618;-0.4265928;-15;22;-73;-2001;3316;264;16;-0.1800554;-0.9703835;-0.1440443;0.07202215;-52;9;-17;-1051;-4440;3188;2;0.4072022;-0.4570637;-0.4875346;-0.6225666;0;-5;26;-457;4034;-917;8;-0.1149584;-0.9822494;0.1481994;-0.002770083;0;-12;-10;1237;-1065;3823;0.8540564;1.564052;2.195851;0.8541606;1.573552;1.650387;0.85423;1.579879;1.170889;0.8591325;1.705842;0.4479977;0.6013511;1.734348;0.1201507;0.2617865;1.78571;0.2691368;0.01155829;0.8946996;0.3117319;0;0;0;1.121301;1.714109;0.120147;1.411485;1.74096;0.2691313;1.756694;0.8658133;0.4770348;2.002237;-0.04465389;0.3845899;0.5422083;1.559028;2.241214;0.5431006;0.146096;2.621323;0.8203559;0.6227865;3.84942;0.5422083;1.559028;2.241214;0.5431006;0.146096;2.621323;0.8203559;0.6227865;3.84942
1789534.9898;NotLabelled;16384;0.6980321;-0.6689751;0.2493075;0.05540166;12;3;-10;-838;3944;529;65536;0.8116083;-0.5803324;0.02493075;0.06232687;-9;12;-4;-191;3862;-1367;8192;0.5803324;-0.6480588;-0.466759;-0.1592798;13;-13;21;2282;3519;79;32768;0.7051943;-0.6094183;-0.3254848;-0.1592798;-21;12;-14;-131;3325;-98;256;-0.05817174;-0.008310249;-0.9943287;-0.08864266;6;22;-18;63;798;4139;128;0.06925207;-0.01108033;0.9876803;0.1398892;-10;22;10;-153;1337;-3898;4;-0.4168975;0.5484765;-0.5939019;-0.4155124;-13;23;-86;-2277;4232;642;16;-0.1869806;-0.968762;-0.1454294;0.0734072;-33;12;-11;-1045;-2944;3272;2;0.4058172;-0.4612188;-0.4875346;-0.6204028;1;-13;29;-385;4018;-1049;8;-0.1149584;-0.9818304;0.1509695;-0.001385042;1;-16;-10;1253;-1005;3711;0.8484151;1.563427;2.191417;0.8485386;1.574669;1.645985;0.8486248;1.582529;1.16651;0.8531544;1.708736;0.443659;0.5953048;1.73645;0.1157974;0.2555505;1.786585;0.2647693;0.005759802;0.8955528;0.3094346;0;0;0;1.115322;1.718017;0.1158347;1.405398;1.745829;0.2648533;1.751329;0.8753871;0.4905488;1.995453;-0.03643405;0.4082457;0.5365655;1.558258;2.236752;0.5341276;0.1541871;2.648381;0.7997863;0.6525534;3.870423;0.5365655;1.558258;2.236752;0.5341276;0.1541871;2.648381;0.7997863;0.6525534;3.870423
1789555.7712;NotLabelled;16384;0.6969168;-0.6703601;0.2493075;0.05263158;14;13;-15;-746;3940;651;65536;0.8107629;-0.5817174;0.0235457;0.06094183;-10;7;-2;17;3956;-1201;8192;0.5761772;-0.6507618;-0.468144;-0.1592798;22;1;9;1982;3035;261;32768;0.7014248;-0.6108033;-0.3296399;-0.1620499;-23;33;-13;-75;2593;142;256;-0.0567867;-0.005540166;-0.994428;-0.08864266;7;17;-12;-5;768;3971;128;0.06925207;-0.01385042;0.987249;0.1426593;-10;25;7;-221;1433;-3868;4;-0.4044321;0.5623268;-0.6045639;-0.3933518;-23;2;-111;-2829;5262;1230;16;-0.1911357;-0.9669961;-0.1509695;0.07479224;6;3;9;1159;-3342;3082;2;0.4044321;-0.4653739;-0.4875346;-0.6182004;3;-26;31;-453;3962;-1059;8;-0.1149584;-0.9814014;0.1537396;0;2;-17;-11;1095;-981;3683;0.8496619;1.561876;2.187987;0.8498054;1.574963;1.642596;0.8499093;1.584444;1.16315;0.8533631;1.713088;0.4407231;0.5952887;1.739677;0.1129449;0.2551148;1.786398;0.2620693;0.005217679;0.8955376;0.3094863;0;0;0;1.115445;1.725711;0.112942;1.40527;1.755517;0.2620639;1.754556;0.8876309;0.4923885;1.999046;-0.02501965;0.4211079;0.5378106;1.556554;2.233293;0.5318832;0.1652802;2.686263;0.7907624;0.6817348;3.902233;0.5378106;1.556554;2.233293;0.5318832;0.1652802;2.686263;0.7907624;0.6817348;3.902233
1789576.9276;NotLabelled;16384;0.6939473;-0.6731302;0.2506925;0.04986149;10;-4;-16;-826;4112;525;65536;0.8080457;-0.5858725;0.02077562;0.05817174;-18;8;6;-273;3940;-1395;8192;0.5734072;-0.6528646;-0.468144;-0.1606648;30;11;-2;1546;2405;567;32768;0.6972677;-0.6121883;-0.333795;-0.166205;-29;35;-11;-203;2423;42;256;-0.05540166;-0.001385042;-0.9945206;-0.08864266;-15;-4;-4;-639;974;3689;128;0.06786703;-0.02216066;0.9867894;0.1454294;-7;19;3;443;1547;-3942;4;-0.3947368;0.567867;-0.6137062;-0.3808864;-27;-8;-122;-2935;5076;896;16;-0.1883656;-0.9681777;-0.1481994;0.07202215;25;-30;19;385;-3190;3518;2;0.4058172;-0.4709141;-0.4861496;-0.614175;7;-38;34;-651;3930;-1057;8;-0.1135734;-0.9813447;0.1551246;0;3;-11;-13;949;-941;3713;0.8514541;1.558649;2.177115;0.8516334;1.574997;1.631813;0.8517689;1.587345;1.152433;0.8545315;1.71625;0.430049;0.5963308;1.741464;0.102262;0.2558835;1.786176;0.2513782;0.003365796;0.8965105;0.3066834;0;0;0;1.116559;1.730492;0.1022907;1.406197;1.761915;0.251443;1.752392;0.8972791;0.4980803;1.99756;-0.01584399;0.4357295;0.5395998;1.553056;2.222368;0.5313212;0.1916391;2.758404;0.7856016;0.7196802;3.970362;0.5395998;1.553056;2.222368;0.5313212;0.1916391;2.758404;0.7856016;0.7196802;3.970362
1789597.9354;NotLabelled;16384;0.6920983;-0.6745152;0.2520775;0.04986149;9;-6;-15;-536;4234;475;65536;0.8061287;-0.5886427;0.02077562;0.0567867;-19;6;12;-281;4004;-1221;8192;0.566482;-0.6567039;-0.466759;-0.1731302;42;16;-20;1088;2201;237;32768;0.6894322;-0.6121883;-0.3434903;-0.1786704;-21;56;-1;-1087;3455;-684;256;-0.05401662;-0.001385042;-0.9948398;-0.08587258;-17;-10;-2;-777;904;3629;128;0.06925207;-0.02493075;0.9864219;0.1468144;-2;7;0;707;1415;-3680;4;-0.3850415;0.5720221;-0.6251664;-0.365651;-37;-10;-134;-3003;4618;1022;16;-0.1842105;-0.9701077;-0.1426593;0.06786703;38;-37;18;-957;-3348;4142;2;0.4072022;-0.4847645;-0.4806094;-0.6067984;13;-48;40;-561;3682;-533;8;-0.1121884;-0.9814952;0.1551246;0.004155125;0;0;-23;903;-1025;3887;0.8523951;1.55832;2.164784;0.8526152;1.578368;1.619605;0.8527865;1.593969;1.140319;0.8544125;1.723235;0.4179969;0.5959885;1.746406;0.09023446;0.2551813;1.788148;0.2393891;1.838058E-05;0.899448;0.2979768;0;0;0;1.116291;1.739861;0.09023163;1.40566;1.773677;0.2393845;1.747654;0.9075135;0.4865182;1.991533;-0.006531358;0.4332942;0.5405375;1.55242;2.209975;0.5290999;0.2124208;2.797452;0.7769915;0.7321862;4.014302;0.5405375;1.55242;2.209975;0.5290999;0.2124208;2.797452;0.7769915;0.7321862;4.014302
1789618.9868;NotLabelled;16384;0.6915922;-0.6745152;0.2534626;0.04986149;8;0;-19;-650;4072;289;65536;0.8042895;-0.5914127;0.02077562;0.05401662;-19;5;16;-271;3964;-1121;8192;0.5623268;-0.6584107;-0.466759;-0.1800554;48;24;-10;1816;2647;-45;32768;0.6860403;-0.6108033;-0.3490305;-0.1855956;-19;52;4;-729;3573;-1002;256;-0.05401662;-0.002770083;-0.9949555;-0.08448754;-14;-14;0;-447;830;3691;128;0.06925207;-0.02631579;0.9863859;0.1468144;0;5;-2;479;1409;-3656;4;-0.3753462;0.5761772;-0.6366417;-0.3490305;-52;-8;-144;-2547;4564;1388;16;-0.1759003;-0.9723455;-0.1385041;0.06648199;55;-12;10;-1155;-3080;4394;2;0.4085872;-0.4930748;-0.4792244;-0.6002314;15;-46;41;-131;3770;-527;8;-0.1121884;-0.9814688;0.1551246;0.008310249;0;0;-29;909;-957;3813;0.8526408;1.56195;2.155319;0.8528801;1.58377;1.610209;0.8530682;1.600928;1.130976;0.8545758;1.726195;0.4079487;0.5961175;1.74741;0.08008169;0.2552975;1.789792;0.2290264;-0.0002985112;0.9014965;0.2917208;0;0;0;1.116424;1.741148;0.08007866;1.405784;1.775947;0.2290216;1.72323;0.9035784;0.486851;1.961873;-0.01254427;0.4473889;0.5407815;1.555903;2.20048;0.5174043;0.2424325;2.844768;0.7565502;0.7496535;4.068641;0.5407815;1.555903;2.20048;0.5174043;0.2424325;2.844768;0.7565502;0.7496535;4.068641
1789638.7782;NotLabelled;16384;0.6898271;-0.6759003;0.2548476;0.04847645;9;8;-21;-772;3972;463;65536;0.8023899;-0.5941828;0.02216066;0.05124654;-21;10;18;-69;3944;-1303;8192;0.5567867;-0.6605937;-0.468144;-0.1855956;42;27;-7;2180;3021;431;32768;0.6827089;-0.6108033;-0.3518005;-0.1925208;-14;21;12;-1227;4939;-2238;256;-0.05401662;-0.005540166;-0.9951752;-0.08171745;-14;-17;2;-5;646;3537;128;0.06925207;-0.02770083;0.986348;0.1468144;5;-3;-4;291;1289;-3676;4;-0.365651;0.5803324;-0.6480249;-0.3310249;-57;-7;-148;-2579;4696;1228;16;-0.166205;-0.9741431;-0.1385041;0.06509695;76;0;10;-1255;-2232;4522;2;0.4072022;-0.501385;-0.4764543;-0.596482;13;-40;40;193;4002;-847;8;-0.1108033;-0.9813437;0.1565097;0.01385042;0;-1;-31;1249;-873;3781;0.8555784;1.564364;2.147987;0.8558191;1.586301;1.602881;0.8560086;1.603563;1.123653;0.8578116;1.726711;0.4002626;0.5993955;1.747642;0.07234392;0.2586936;1.791348;0.2211764;0.001694154;0.9035571;0.2852692;0;0;0;1.119684;1.740024;0.07234073;1.409139;1.774503;0.221171;1.713937;0.8993444;0.4847447;1.950484;-0.01749849;0.449645;0.5437191;1.558307;2.193145;0.5078937;0.2751875;2.895413;0.7496237;0.7604859;4.127637;0.5437191;1.558307;2.193145;0.5078937;0.2751875;2.895413;0.7496237;0.7604859;4.127637
1789658.7856;NotLabelled;16384;0.6886568;-0.6772853;0.2548476;0.04570637;10;15;-23;-1000;3902;599;65536;0.8005468;-0.5969529;0.0235457;0.04709141;-23;9;17;51;3934;-1281;8192;0.5512465;-0.6630719;-0.4695291;-0.1897507;40;7;-7;2496;3315;101;32768;0.6822367;-0.6108033;-0.3504155;-0.1966759;-11;8;17;-2189;6623;-2216;256;-0.05540166;-0.008310249;-0.9951926;-0.08033241;-12;-16;7;99;372;3753;128;0.07063711;-0.02631579;0.9864929;0.1454294;8;-8;-7;73;1171;-3924;4;-0.3434903;0.5872576;-0.6715095;-0.2936288;-43;-20;-156;-3103;5178;356;16;-0.134349;-0.9789393;-0.1398892;0.06371191;111;17;33;-1633;-32;4286;2;0.4058172;-0.5083103;-0.4764543;-0.5915441;7;-30;39;383;4224;-1001;8;-0.1108033;-0.9810544;0.1578947;0.01800554;0;-14;-30;1619;-1017;3795;0.8608178;1.567432;2.137193;0.8610599;1.589487;1.592092;0.8612506;1.606853;1.112867;0.8636131;1.725763;0.3887699;0.605272;1.746126;0.060756;0.2648197;1.792477;0.2093594;0.005741747;0.9056656;0.2784502;0;0;0;1.125513;1.735794;0.06075364;1.415162;1.769631;0.2093559;1.709316;0.8937764;0.4825366;1.93967;-0.02480221;0.4518995;0.5489584;1.561366;2.18235;0.4985739;0.3126657;2.943315;0.7411087;0.7728705;4.184973;0.5489584;1.561366;2.18235;0.4985739;0.3126657;2.943315;0.7411087;0.7728705;4.184973
1789679.7696;NotLabelled;16384;0.6843423;-0.6800554;0.2603878;0.03739612;7;6;-33;-1202;3724;415;65536;0.7966518;-0.602493;0.02493075;0.04155125;-21;11;16;-119;3966;-1091;8192;0.5470914;-0.6666843;-0.468144;-0.1925208;36;-14;12;3650;5403;-119;32768;0.6804925;-0.6121883;-0.3490305;-0.200831;-28;-11;20;233;4035;-896;256;-0.0567867;-0.009695291;-0.9952129;-0.07894737;-1;10;5;1345;250;4681;128;0.07479224;-0.02216066;0.9862887;0.1454294;-5;-4;-11;-553;881;-4532;4;-0.3296399;0.5900277;-0.682987;-0.2770083;-42;-23;-157;-3067;5002;612;16;-0.1163435;-0.9811043;-0.1426593;0.05955679;121;24;48;-1787;354;4426;2;0.4058172;-0.5138504;-0.4764543;-0.586738;8;-30;38;535;4346;-1449;8;-0.1094183;-0.9802171;0.1634349;0.02216066;1;-32;-26;1755;-859;3749;0.8684745;1.571021;2.126516;0.8686988;1.591458;1.581352;0.8688738;1.607401;1.102077;0.8718423;1.724054;0.3776146;0.6135926;1.744846;0.04955603;0.2734166;1.793558;0.1980371;0.01212109;0.9077405;0.2713971;0;0;0;1.133768;1.731607;0.0495528;1.423613;1.764284;0.1980311;1.709772;0.888574;0.4800229;1.932979;-0.0317117;0.4477635;0.5566165;1.565088;2.1717;0.4815815;0.3977975;3.050711;0.7384238;0.7759048;4.316962;0.5566165;1.565088;2.1717;0.4815815;0.3977975;3.050711;0.7384238;0.7759048;4.316962
1789699.7812;NotLabelled;16384;0.6826485;-0.6814404;0.2617728;0.033241;10;13;-30;-1180;3596;151;65536;0.7947556;-0.6052631;0.02493075;0.03739612;-19;10;18;-47;4014;-1097;8192;0.5415512;-0.668087;-0.4736842;-0.1897507;2;30;13;2000;3187;639;32768;0.6785983;-0.6163435;-0.3421052;-0.2063712;-25;1;16;-235;4315;-344;256;-0.05817174;-0.008310249;-0.9952543;-0.07756232;-7;10;10;595;456;4399;128;0.07756232;-0.02077562;0.9858996;0.1468144;-10;0;-8;-777;887;-4158;4;-0.3157895;0.5914127;-0.6952881;-0.2590028;-33;-24;-159;-2733;4052;402;16;-0.09556787;-0.9832596;-0.1454294;0.05401662;126;23;62;-1779;176;4324;2;0.4044321;-0.5207756;-0.4750692;-0.5826977;8;-36;39;181;4406;-1427;8;-0.1094183;-0.9789706;0.1703601;0.02493075;1;-34;-19;1711;-651;3659;0.8885834;1.570959;2.098939;0.8888041;1.591091;1.553764;0.888976;1.606766;1.074481;0.8922133;1.721266;0.349676;0.633996;1.741815;0.02157634;0.2939711;1.791927;0.169938;0.01910495;0.9115591;0.2578602;0;0;0;1.154132;1.727107;0.02157331;1.444081;1.759406;0.1699327;1.721682;0.8832479;0.4589981;1.936729;-0.03903759;0.4284505;0.5767257;1.565052;2.144129;0.4999972;0.4422474;3.079159;0.7569638;0.7724545;4.358714;0.5767257;1.565052;2.144129;0.4999972;0.4422474;3.079159;0.7569638;0.7724545;4.358714
1789721.9494;NotLabelled;16384;0.6786703;-0.685061;0.2631579;0.02908587;11;21;-27;-1216;3876;19;65536;0.7927194;-0.6080332;0.02631579;0.03462604;-19;5;22;-97;4004;-1131;8192;0.5373961;-0.6678759;-0.4764543;-0.1952908;26;37;0;1386;3415;-1301;32768;0.6767569;-0.6177285;-0.3407202;-0.2105263;-18;9;11;-293;4057;-428;256;-0.06094183;-0.006925208;-0.9953111;-0.07479224;-10;5;14;373;298;4241;128;0.07894737;-0.01800554;0.9858441;0.1468144;-11;-14;-11;-613;893;-4158;4;-0.299169;0.5955678;-0.7045384;-0.2437673;-19;-21;-164;-2221;3012;-36;16;-0.0734072;-0.9848951;-0.1495845;0.04709141;136;17;71;-1895;574;4214;2;0.4058172;-0.533241;-0.4722992;-0.5726256;-2;-53;33;1;4242;-1279;8;-0.1080332;-0.9775676;0.1786704;0.02770083;3;-18;-12;1381;-775;3633;0.8988162;1.571795;2.086076;0.8990526;1.593354;1.540955;0.8992384;1.610283;1.061715;0.9021173;1.722864;0.3366084;0.6438231;1.741844;0.008474544;0.3036744;1.791432;0.156728;0.02358604;0.9133691;0.2509923;0;0;0;1.163997;1.72854;0.008471221;1.453867;1.762016;0.1567224;1.737698;0.892006;0.4580499;1.93463;-0.03438056;0.4295393;0.5869571;1.56577;2.131241;0.5056457;0.492263;3.122114;0.761014;0.7664186;4.415154;0.5869571;1.56577;2.131241;0.5056457;0.492263;3.122114;0.761014;0.7664186;4.415154
1789742.96;NotLabelled;16384;0.6772853;-0.6865938;0.2631579;0.02493075;9;19;-24;-1270;4020;201;65536;0.7916746;-0.6094183;0.02908587;0.03185596;-21;6;26;-71;4046;-1127;8192;0.533241;-0.6685735;-0.4778393;-0.200831;28;25;2;1344;3563;-961;32768;0.674181;-0.6191136;-0.3407202;-0.2146814;-14;13;8;-337;4123;-648;256;-0.06371191;-0.006925208;-0.9952407;-0.0734072;-7;5;16;359;196;4081;128;0.08033241;-0.01385042;0.9855921;0.1481994;-11;-18;-17;-455;777;-4100;4;-0.2825485;0.599723;-0.7133744;-0.2271468;-12;-2;-162;-2169;2364;660;16;-0.04986149;-0.9860902;-0.1537396;0.03878116;137;43;78;-2275;1714;4348;2;0.4085872;-0.5401662;-0.468144;-0.5675545;0;-66;29;591;4078;-1593;8;-0.1066482;-0.9774253;0.1800554;0.02908587;5;-3;-11;1317;-745;3537;0.9080498;1.578141;2.067151;0.9082838;1.59946;1.52202;0.9084672;1.616177;1.042773;0.9109555;1.724808;0.3170622;0.6525706;1.741309;-0.0111343;0.3123094;1.790798;0.1368939;0.02920436;0.9151546;0.2437951;0;0;0;1.172778;1.729392;-0.01113757;1.462577;1.764448;0.1368886;1.740721;0.8939191;0.4419966;1.929343;-0.03423464;0.4147863;0.5961909;1.572136;2.11232;0.5292297;0.5481561;3.155316;0.7833484;0.7617828;4.459967;0.5961909;1.572136;2.11232;0.5292297;0.5481561;3.155316;0.7833484;0.7617828;4.459967
1789763.9948;NotLabelled;16384;0.6745152;-0.6894531;0.2631579;0.02077562;8;20;-18;-1436;3940;409;65536;0.7885632;-0.6135734;0.03047091;0.02770083;-24;7;28;75;4008;-1139;8192;0.5290859;-0.6706105;-0.4778393;-0.2049861;27;8;1;1604;3569;-419;32768;0.6732926;-0.6191136;-0.3407202;-0.2174515;-14;7;6;-409;4159;-738;256;-0.06648199;-0.008310249;-0.9952495;-0.07063711;-5;3;18;559;-176;3811;128;0.08310249;-0.01108033;0.9851881;0.1495845;-7;-10;-18;-229;605;-3950;4;-0.265928;0.6052631;-0.7201511;-0.2105263;-4;15;-155;-2221;2482;988;16;-0.02770083;-0.9857361;-0.1634349;0.02908587;122;84;89;-2047;2554;4100;2;0.4099723;-0.5484765;-0.4653739;-0.5608239;3;-57;26;875;4088;-1129;8;-0.1052632;-0.9774891;0.1800554;0.03185596;5;5;-13;1469;-801;3529;0.9195191;1.577446;2.05697;0.9197656;1.599915;1.511886;0.9199601;1.617644;1.032674;0.9224267;1.724216;0.3066584;0.6640242;1.739848;-0.02156667;0.3237845;1.789837;0.1263425;0.03727788;0.9160571;0.2392628;0;0;0;1.184229;1.727807;-0.02156994;1.474046;1.763214;0.1263371;1.74469;0.8917153;0.4353951;1.926531;-0.03787494;0.411248;0.6076591;1.571346;2.102119;0.5536993;0.6012909;3.196167;0.8034201;0.7497268;4.510676;0.6076591;1.571346;2.102119;0.5536993;0.6012909;3.196167;0.8034201;0.7497268;4.510676
1789784.7775;NotLabelled;16384;0.6731302;-0.6909789;0.2631579;0.01385042;6;11;-13;-1974;3590;185;65536;0.7842357;-0.6191136;0.03601108;0.01939058;-20;5;24;267;3968;-957;8192;0.5249307;-0.6730191;-0.4778393;-0.2077562;21;6;0;2046;3677;-99;32768;0.6723917;-0.6191136;-0.3407202;-0.2202216;-12;5;6;-503;4059;-672;256;-0.06925207;-0.008310249;-0.9951579;-0.06925207;0;2;19;523;-342;3809;128;0.08725762;-0.009695291;0.9848434;0.1495845;-6;-9;-18;23;477;-3864;4;-0.2368421;0.6177285;-0.7275965;-0.1814404;-8;20;-124;-1337;2318;1478;16;0.01108033;-0.9817541;-0.1897507;0.005540166;94;71;86;-971;1918;2726;2;0.4113573;-0.5568643;-0.4639889;-0.5526316;-1;-43;22;1131;4064;-751;8;-0.1038781;-0.9775912;0.1800554;0.033241;7;9;-12;1773;-797;3713;0.9278004;1.579116;2.037736;0.9280608;1.602854;1.492705;0.9282676;1.621699;1.013536;0.930923;1.724062;0.2869159;0.6725161;1.738518;-0.0413593;0.3324396;1.790313;0.106304;0.04371128;0.9185157;0.2285055;0;0;0;1.192685;1.725023;-0.04136249;1.482622;1.760473;0.1062987;1.745705;0.8884578;0.4203835;1.923622;-0.0418793;0.3957542;0.6159393;1.57291;2.082863;0.5778311;0.6582344;3.224254;0.8183343;0.7445529;4.546009;0.6159393;1.57291;2.082863;0.5778311;0.6582344;3.224254;0.8183343;0.7445529;4.546009
1789805.7827;NotLabelled;16384;0.6703601;-0.6931894;0.2645429;0.01108033;5;9;-12;-2228;3482;-9;65536;0.7831391;-0.6204986;0.03739612;0.0166205;-18;6;21;245;4054;-903;8192;0.5193906;-0.6730589;-0.4819945;-0.2119114;15;20;-2;2258;3631;-277;32768;0.669736;-0.6204986;-0.3407202;-0.2243767;-6;4;7;-389;4051;-564;256;-0.07479224;-0.009695291;-0.9948398;-0.06786703;6;0;15;567;-274;3825;128;0.09279778;-0.004155125;0.9841644;0.1509695;-13;-15;-16;-229;417;-3648;4;-0.2257618;0.6232687;-0.7293937;-0.1689751;-10;16;-98;-1697;1860;1768;16;0.02631579;-0.9798354;-0.1980609;-0.001385042;83;39;62;-581;1544;2030;2;0.4127424;-0.5599389;-0.4639889;-0.5484765;-3;-34;19;1167;4098;-763;8;-0.1024931;-0.9779433;0.1786704;0.03462604;6;6;-9;1755;-857;3773;0.9513716;1.581518;2.015458;0.9516306;1.605116;1.470422;0.9518359;1.623837;0.991248;0.9544581;1.724135;0.2643394;0.6960298;1.737708;-0.06395696;0.3559745;1.789991;0.08358356;0.06039958;0.92144;0.2123614;0;0;0;1.216196;1.72411;-0.06395978;1.506151;1.759923;0.08357882;1.763513;0.8883234;0.403506;1.937493;-0.04274476;0.3784089;0.6395107;1.575324;2.060587;0.6293116;0.7608682;3.276078;0.8334385;0.7344097;4.606476;0.6395107;1.575324;2.060587;0.6293116;0.7608682;3.276078;0.8334385;0.7344097;4.606476
1789826.0859;NotLabelled;16384;0.6689751;-0.6940358;0.265928;0.008310249;4;7;-7;-2136;3574;-29;65536;0.7809228;-0.6232687;0.03878116;0.01385042;-15;4;19;411;4010;-861;8192;0.5166205;-0.6733197;-0.4833795;-0.2146814;12;15;-3;2032;3477;-625;32768;0.6700839;-0.6191136;-0.3407202;-0.2271468;-2;6;6;-495;4047;-540;256;-0.07756232;-0.01108033;-0.9946132;-0.06786703;9;0;13;465;-228;3751;128;0.09418282;0;0.9840416;0.1509695;-9;-26;-15;-181;631;-4130;4;-0.2174515;0.6260388;-0.7317241;-0.1592798;-7;-2;-78;-2431;1532;526;16;0.0401662;-0.9790608;-0.199446;-0.006925208;76;0;46;-445;1278;1968;2;0.4127424;-0.5655025;-0.4653739;-0.5415512;-2;-5;14;563;3920;-837;8;-0.101108;-0.9780375;0.1786704;0.03601108;2;2;0;1821;-825;3797;0.9591845;1.579095;2.000245;0.9594537;1.603637;1.45525;0.9596683;1.623188;0.9761096;0.9625556;1.721211;0.2488918;0.7041434;1.734618;-0.0794238;0.3642767;1.788486;0.06798056;0.0673417;0.9220626;0.2075136;0;0;0;1.224262;1.719297;-0.07942685;1.514347;1.754609;0.0679757;1.77003;0.8846493;0.3936602;1.937106;-0.04774451;0.3709384;0.6473228;1.572823;2.045358;0.6571074;0.8003891;3.287979;0.865748;0.7302256;4.616088;0.6473228;1.572823;2.045358;0.6571074;0.8003891;3.287979;0.865748;0.7302256;4.616088
1789846.0068;NotLabelled;16384;0.66759;-0.6953957;0.265928;0.005540166;2;4;-6;-2080;3532;55;65536;0.7797895;-0.6246537;0.0401662;0.01108033;-12;0;16;307;4064;-785;8192;0.5138504;-0.6745494;-0.4833795;-0.2174515;12;12;-2;1802;3533;-553;32768;0.6696128;-0.6191136;-0.3407202;-0.2285319;0;5;7;-329;4065;-646;256;-0.07894737;-0.01246537;-0.9944878;-0.06786703;9;-1;12;431;-164;4033;128;0.09695291;0.001385042;0.9837715;0.1509695;-6;-14;-12;-323;677;-4180;4;-0.2105263;0.6246537;-0.7363929;-0.1523546;-10;-30;-64;-2153;1560;28;16;0.05124654;-0.9787864;-0.1980609;-0.01108033;66;-13;33;-359;1450;1942;2;0.4113573;-0.5678316;-0.4653739;-0.5401662;-3;-8;13;457;3860;-1165;8;-0.101108;-0.9780375;0.1786704;0.03601108;1;-3;1;1739;-819;3801;0.9662583;1.577675;1.985801;0.9665229;1.60179;1.440788;0.9667333;1.620967;0.9616317;0.9699081;1.71877;0.2343857;0.7115303;1.73289;-0.09392738;0.3718376;1.787864;0.05347045;0.07244665;0.9233962;0.1997218;0;0;0;1.231598;1.715942;-0.09393929;1.521797;1.750389;0.05344546;1.776613;0.8803722;0.3796569;1.940658;-0.05246043;0.353193;0.6543969;1.571438;2.030921;0.6738073;0.8320066;3.293349;0.8822141;0.7224067;4.618823;0.6543969;1.571438;2.030921;0.6738073;0.8320066;3.293349;0.8822141;0.7224067;4.618823
1789866.8542;NotLabelled;16384;0.66759;-0.6948741;0.267313;0.004155125;3;0;-4;-2162;3626;-19;65536;0.7785486;-0.6260388;0.04293629;0.009695291;-10;-2;13;299;4034;-863;8192;0.5110803;-0.6747612;-0.4847645;-0.2202216;11;14;-1;1860;3511;-323;32768;0.6697116;-0.6177285;-0.3421052;-0.2299169;0;3;6;-459;4061;-600;256;-0.08171745;-0.01246537;-0.994264;-0.06786703;7;-3;11;505;-60;4199;128;0.09833795;0.001385042;0.9834205;0.1523546;-16;14;-10;-223;759;-4300;4;-0.2036011;0.6218836;-0.7415149;-0.1481994;-1;-21;-47;-1567;1424;118;16;0.06094183;-0.9787521;-0.1952908;-0.01385042;53;-20;20;-949;768;2122;2;0.4113573;-0.5704539;-0.4653739;-0.5373961;-5;-12;12;671;3940;-1105;8;-0.101108;-0.9775274;0.1814404;0.03601108;1;-8;4;1713;-651;3685;0.9735736;1.575451;1.977688;0.9738362;1.599385;1.432666;0.9740449;1.618401;0.9535034;0.9775134;1.71601;0.2262325;0.7191811;1.730806;-0.1020863;0.3796504;1.786816;0.045294;0.07756287;0.9239287;0.1952855;0;0;0;1.239197;1.712328;-0.1020891;1.529494;1.745959;0.04528958;1.777268;0.8760154;0.3770741;1.939338;-0.05715799;0.3504872;0.6617124;1.569229;2.022811;0.6853708;0.8560848;3.300201;0.8916159;0.7151244;4.623047;0.6617124;1.569229;2.022811;0.6853708;0.8560848;3.300201;0.8916159;0.7151244;4.623047
1789887.7824;NotLabelled;16384;0.66482;-0.6969994;0.2686981;0.002770083;3;1;-1;-2254;3650;-1;65536;0.7761845;-0.6288089;0.04570637;0.006925208;-5;-6;7;459;4042;-823;8192;0.5096953;-0.6739021;-0.4861496;-0.2229917;7;7;0;1934;3775;-83;32768;0.6692345;-0.6177285;-0.3421052;-0.2313019;-2;2;6;-383;4061;-784;256;-0.08310249;-0.01385042;-0.9941309;-0.06786703;8;-3;9;493;2;4227;128;0.101108;0;0.9829249;0.1537396;-18;16;-8;-309;703;-3846;4;-0.1980609;0.6246537;-0.7415058;-0.1440443;5;26;-7;-511;1132;148;16;0.07063711;-0.9783552;-0.1939058;-0.01523546;9;9;3;-1369;-94;2616;2;0.4113573;-0.5706254;-0.466759;-0.536011;-9;-4;8;923;3998;-801;8;-0.101108;-0.9773193;0.1828255;0.03462604;3;-6;6;1437;-697;3669;0.9811933;1.57129;1.966334;0.9814724;1.59672;1.42138;0.9816957;1.617053;0.9422721;0.9852474;1.714588;0.2149916;0.7269418;1.729448;-0.1133454;0.3874225;1.785598;0.03400773;0.0835672;0.9244487;0.1902845;0;0;0;1.246951;1.710778;-0.1133125;1.537251;1.744316;0.03408152;1.784332;0.8755291;0.3693967;1.94681;-0.05750155;0.3403584;0.6693308;1.564944;2.011431;0.704962;0.8728416;3.300067;0.9154028;0.7049627;4.619104;0.6693308;1.564944;2.011431;0.704962;0.8728416;3.300067;0.9154028;0.7049627;4.619104
1789907.765;NotLabelled;16384;0.66482;-0.696468;0.2700831;0.001385042;1;-2;-2;-2196;3578;111;65536;0.7761017;-0.6288089;0.04709141;0.006925208;-4;-4;4;349;3970;-869;8192;0.5083103;-0.6734878;-0.4875346;-0.2243767;0;4;-4;1860;3789;-103;32768;0.6695483;-0.6163435;-0.3421052;-0.234072;0;5;1;-303;4095;-560;256;-0.08587258;-0.01523546;-0.9937796;-0.06925207;10;1;9;455;122;4067;128;0.1052632;0.001385042;0.9820501;0.1565097;-12;7;-13;-757;795;-4020;4;-0.1980609;0.6301939;-0.7370725;-0.1426593;6;54;-13;-1745;968;682;16;0.07063711;-0.9772182;-0.199446;-0.0166205;1;57;8;-2039;194;2954;2;0.4113573;-0.5696514;-0.4695291;-0.534626;-9;3;5;773;4048;-1023;8;-0.09972299;-0.9775097;0.1828255;0.033241;4;3;8;1377;-553;3591;0.9885172;1.566619;1.953943;0.9888139;1.593667;1.409066;0.9890525;1.615421;0.9300208;0.9928333;1.712749;0.2027137;0.7345465;1.728279;-0.1256072;0.3952053;1.785468;0.02175735;0.08995748;0.9255292;0.1819374;0;0;0;1.254498;1.70808;-0.1256101;1.544907;1.740803;0.02175218;1.78797;0.8705571;0.356216;1.948465;-0.06281281;0.3270598;0.6766531;1.560139;1.99901;0.7229234;0.885534;3.296556;0.9374867;0.69151;4.611335;0.6766531;1.560139;1.99901;0.7229234;0.885534;3.296556;0.9374867;0.69151;4.611335
1789927.889;NotLabelled;16384;0.66482;-0.6959307;0.2714681;0;-1;-4;0;-1780;3764;209;65536;0.7761017;-0.6288089;0.04709141;0.006925208;-3;-6;3;401;4062;-813;8192;0.5083103;-0.6730248;-0.4875346;-0.2257618;1;10;-7;1896;3809;-291;32768;0.6703358;-0.6149584;-0.3421052;-0.2354571;0;6;0;-359;4085;-676;256;-0.08725762;-0.0166205;-0.9935393;-0.07063711;9;4;11;679;112;4107;128;0.1080332;0;0.9817502;0.1565097;-12;27;-10;-793;767;-3960;4;-0.1966759;0.6385041;-0.7307955;-0.1398892;15;82;-20;-2467;622;558;16;0.07063711;-0.9742377;-0.2132964;-0.01939058;1;101;12;-1739;278;3326;2;0.4113573;-0.5685069;-0.4709141;-0.534626;-10;13;0;523;4202;-915;8;-0.09833795;-0.97821;0.1800554;0.03185596;5;15;9;1265;-567;3649;0.9932926;1.555698;1.950006;0.9936204;1.585565;1.405277;0.9938862;1.609799;0.9263506;0.9980686;1.70888;0.1992828;0.7398691;1.726076;-0.1290234;0.4007069;1.784046;0.01844725;0.0928836;0.9254478;0.1808735;0;0;0;1.25975;1.704131;-0.1290269;1.550253;1.73552;0.01844198;1.793821;0.8655828;0.3533425;1.951222;-0.06819355;0.3205497;0.681426;1.548985;1.995022;0.7371089;0.8760251;3.293052;0.9561335;0.6812459;4.606984;0.681426;1.548985;1.995022;0.7371089;0.8760251;3.293052;0.9561335;0.6812459;4.606984
1789949.0128;NotLabelled;16384;0.66482;-0.6959307;0.2714681;0;-1;-1;0;-1630;3734;93;65536;0.7748921;-0.6301939;0.04847645;0.006925208;-3;-8;2;355;4002;-857;8192;0.5069252;-0.6721292;-0.4889196;-0.2285319;0;9;-9;1828;3741;-303;32768;0.6691386;-0.6149584;-0.3434903;-0.2368421;0;6;-1;-411;4133;-644;256;-0.0900277;-0.0166205;-0.9932921;-0.07063711;10;7;13;697;80;3917;128;0.1108033;-0.002770083;0.9812157;0.1578947;-10;31;-11;-825;913;-4154;4;-0.1939058;0.6509695;-0.7209976;-0.1371191;26;100;-16;-3105;1314;858;16;0.07063711;-0.9710425;-0.2271468;-0.02216066;-1;89;10;-779;76;3062;2;0.4113573;-0.5651819;-0.4764543;-0.533241;-23;11;-6;987;4098;-987;8;-0.09695291;-0.9799274;0.1717452;0.02908587;6;28;11;1771;-885;4017;0.9961424;1.550016;1.948052;0.9964714;1.579986;1.403329;0.9967384;1.604309;0.9244069;1.001318;1.705178;0.197587;0.7432113;1.724008;-0.1307028;0.4042186;1.782692;0.01687579;0.09334196;0.9254479;0.1806368;0;0;0;1.26302;1.700408;-0.130706;1.553604;1.730508;0.01687062;1.796185;0.8597214;0.3502768;1.952467;-0.07411337;0.3139852;0.6842757;1.543295;1.993066;0.7487373;0.8766515;3.293946;0.9666152;0.6802289;4.607824;0.6842757;1.543295;1.993066;0.7487373;0.8766515;3.293946;0.9666152;0.6802289;4.607824
1789969.7808;NotLabelled;16384;0.66482;-0.6959307;0.2714681;0;-2;0;-2;-1700;3628;23;65536;0.7748042;-0.6301939;0.04986149;0.006925208;-1;-6;1;323;4014;-853;8192;0.5069252;-0.6716567;-0.4889196;-0.2299169;-3;8;-11;1972;3733;-163;32768;0.6684903;-0.6135734;-0.3462604;-0.2382271;1;7;-1;-479;4067;-602;256;-0.09141274;-0.01523546;-0.9930883;-0.07202215;9;9;15;523;112;3965;128;0.1149584;-0.006925208;0.980717;0.1578947;-9;33;-14;-455;969;-4092;4;-0.1911357;0.6620498;-0.7115867;-0.1371191;25;94;-4;-3545;1638;584;16;0.06925207;-0.9680747;-0.2396122;-0.02493075;-8;78;3;-1447;554;2654;2;0.4113573;-0.5616527;-0.4806094;-0.533241;-30;21;-10;941;4072;-951;8;-0.09695291;-0.980449;0.1689751;0.02770083;7;17;17;1729;-1029;4069;0.9973611;1.547151;1.941773;0.9977096;1.57891;1.397152;0.9979938;1.604807;0.9183121;1.002608;1.705582;0.1914793;0.7445062;1.72447;-0.1368113;0.4055371;1.783302;0.01076198;0.09559277;0.9260584;0.1762798;0;0;0;1.264306;1.700671;-0.1368144;1.554902;1.730678;0.01075643;1.7963;0.8593487;0.3436035;1.952071;-0.07460976;0.3083277;0.6854929;1.540282;1.986753;0.7692657;0.881596;3.290583;0.9900103;0.6833638;4.60371;0.6854929;1.540282;1.986753;0.7692657;0.881596;3.290583;0.9900103;0.6833638;4.60371
1789989.7792;NotLabelled;16384;0.66482;-0.696468;0.2700831;-0.001385042;-2;10;-1;-1710;3766;9;65536;0.7748042;-0.6301939;0.04986149;0.006925208;1;-4;-2;351;4046;-805;8192;0.5083103;-0.6696529;-0.4889196;-0.232687;-5;13;-11;2106;3595;-171;32768;0.6679951;-0.6135734;-0.3462604;-0.2396122;1;6;0;-395;4015;-662;256;-0.09556787;-0.01523546;-0.9926971;-0.07202215;6;8;17;307;162;3907;128;0.1191136;-0.009695291;0.9801975;0.1578947;-9;27;-17;-181;1007;-4088;4;-0.1897507;0.6814404;-0.692867;-0.1398892;31;74;16;-3737;1544;354;16;0.06509695;-0.960582;-0.2686981;-0.02908587;-13;99;5;-543;648;2426;2;0.4127424;-0.5557177;-0.4847645;-0.534626;-32;33;-15;761;4008;-1147;8;-0.09695291;-0.9809967;0.166205;0.02493075;5;12;27;1867;-915;3947;0.9996377;1.544939;1.939512;0.9999911;1.577136;1.394916;1.00028;1.603418;0.916097;1.004754;1.706344;0.1895649;0.7466515;1.725602;-0.1387034;0.4075282;1.783215;0.008996695;0.09804973;0.9259716;0.1753841;0;0;0;1.266505;1.703004;-0.1387066;1.557012;1.733248;0.008991301;1.797559;0.8610727;0.3402358;1.955363;-0.072528;0.3045218;0.6877691;1.538034;1.984484;0.7911824;0.882203;3.288344;1.010287;0.6856145;4.601993;0.6877691;1.538034;1.984484;0.7911824;0.882203;3.288344;1.010287;0.6856145;4.601993
1790009.778;NotLabelled;16384;0.66482;-0.6969925;0.2686981;-0.004155125;-5;13;-3;-1910;3692;-41;65536;0.7748042;-0.6301939;0.04986149;0.006925208;3;-2;-3;299;4058;-799;8192;0.5096953;-0.6655914;-0.4916897;-0.2354571;-9;8;-12;1870;3535;-125;32768;0.6680482;-0.6121883;-0.3476454;-0.2409972;2;5;4;-435;4033;-576;256;-0.09833795;-0.01385042;-0.9924468;-0.07202215;7;7;18;137;112;3879;128;0.1218837;-0.01385042;0.979807;0.1578947;-8;20;-19;177;979;-4148;4;0.1897507;-0.6909359;0.6828254;0.1426593;23;67;17;-4249;1590;322;16;0.06371191;-0.9574184;-0.2797784;-0.03185596;-2;65;6;-237;-18;2336;2;0.4127424;-0.5507209;-0.4889196;-0.536011;-31;37;-17;643;4004;-1127;8;-0.09695291;-0.9813554;0.1648199;0.01939058;0;8;35;1963;-871;3877;0.9996783;1.544156;1.9361;1.000035;1.576655;1.391523;1.000326;1.603203;0.9127185;1.004855;1.705993;0.1861677;0.7467616;1.725343;-0.142102;0.4076734;1.783183;0.005589858;0.09950801;0.9259717;0.1745609;0;0;0;1.266601;1.702441;-0.1421053;1.557128;1.732541;0.005584776;1.798085;0.8579094;0.3299838;1.953684;-0.07602429;0.2933192;0.6878093;1.537225;1.981066;0.8280617;0.8752058;3.27834;1.050586;0.6858017;4.59247;0.6878093;1.537225;1.981066;0.8280617;0.8752058;3.27834;1.050586;0.6858017;4.59247
1790030.7702;NotLabelled;16384;0.666205;-0.6956591;0.2686981;-0.005540166;-7;13;-2;-1684;3792;-39;65536;0.7760028;-0.6288089;0.04847645;0.008310249;3;-1;-4;323;4046;-869;8192;0.5096953;-0.6650998;-0.4916897;-0.2368421;-12;5;-11;1960;3493;-211;32768;0.6693148;-0.6108033;-0.3476454;-0.2409972;3;2;5;-327;4009;-636;256;-0.1038781;-0.01108033;-0.991917;-0.07202215;2;6;17;141;2;4083;128;0.1288089;-0.01939058;0.9788266;0.1578947;-1;16;-19;211;797;-4142;4;0.1897507;-0.6974272;0.6759003;0.1440443;15;48;18;-4431;1552;276;16;0.06509695;-0.9552269;-0.2867036;-0.033241;9;25;13;-739;118;3280;2;0.4127424;-0.5443883;-0.4944598;-0.5373961;-29;38;-15;391;3968;-769;8;-0.09833795;-0.9813115;0.1648199;0.01385042;-4;11;41;1833;-869;3783;1.001955;1.543718;1.933343;1.002317;1.576739;1.388797;1.002613;1.603745;0.910018;1.006904;1.706648;0.1834819;0.748767;1.725434;-0.1447868;0.4095425;1.782453;0.002911389;0.1005082;0.9259712;0.1739873;0;0;0;1.268659;1.703757;-0.1447903;1.559113;1.734523;0.002905726;1.803151;0.8581916;0.3203394;1.959062;-0.07559168;0.2812557;0.6900852;1.536745;1.9783;0.8521203;0.8680283;3.269586;1.07631;0.6797947;4.583601;0.6900852;1.536745;1.9783;0.8521203;0.8680283;3.269586;1.07631;0.6797947;4.583601
1790051.7774;NotLabelled;16384;0.666205;-0.6966951;0.265928;-0.008310249;-7;21;-3;-1722;3708;1;65536;0.7760028;-0.6288089;0.04847645;0.008310249;3;2;-7;275;3982;-911;8192;0.5110803;-0.6640361;-0.4916897;-0.2368421;-13;1;-11;1886;3555;-327;32768;0.6700768;-0.6094183;-0.3476454;-0.2423823;2;0;7;-459;4045;-696;256;-0.1080332;-0.01108033;-0.9915727;-0.07063711;0;8;17;305;-16;4067;128;0.132964;-0.02077562;0.978465;0.1565097;-9;4;-21;65;713;-3934;4;0.1925208;-0.7014261;0.6703601;0.1468144;13;51;27;-3947;1540;232;16;0.06509695;-0.9542906;-0.2894737;-0.03601108;-13;42;12;-3465;-784;5276;2;0.4141274;-0.5304709;-0.5027701;-0.542514;-34;39;-19;571;3922;-637;8;-0.1038781;-0.9821976;0.1565097;0.001385042;-7;33;47;1647;-1173;3967;1.003136;1.543793;1.935583;1.003507;1.577553;1.391081;1.00381;1.605211;0.91234;1.007624;1.708367;0.1858369;0.7494057;1.726042;-0.1424293;0.4099141;1.781412;0.005282551;0.09974851;0.925476;0.1770362;0;0;0;1.269394;1.706817;-0.1424326;1.559698;1.738904;0.005277455;1.805585;0.8617412;0.3189657;1.961816;-0.07175553;0.2746515;0.6912662;1.536759;1.980525;0.877069;0.8645891;3.266808;1.115096;0.6715065;4.577682;0.6912662;1.536759;1.980525;0.877069;0.8645891;3.266808;1.115096;0.6715065;4.577682
1790072.7835;NotLabelled;16384;0.666205;-0.6971604;0.2645429;-0.01246537;-11;32;-4;-1912;3618;131;65536;0.7761845;-0.6288089;0.04570637;0.006925208;2;7;-9;351;4010;-877;8192;0.5138504;-0.6618949;-0.4916897;-0.2368421;-17;-5;-9;2022;3693;-177;32768;0.6700768;-0.6094183;-0.3476454;-0.2423823;0;-8;8;-345;4029;-776;256;-0.1108033;-0.009695291;-0.9913793;-0.06925207;0;11;17;385;62;4055;128;0.1371191;-0.02077562;0.9776686;0.1578947;-14;0;-22;-71;929;-4424;4;0.1939058;-0.7086095;0.6620498;0.1481994;15;76;16;-4759;1908;342;16;0.06094183;-0.950088;-0.3033241;-0.0401662;-17;124;16;-3407;192;5374;2;0.4155124;-0.5235457;-0.5083103;-0.5430194;-34;37;-21;709;4014;-799;8;-0.1066482;-0.9825462;0.1523546;-0.004155125;-12;27;45;1747;-1191;3969;1.003441;1.548679;1.932796;1.003797;1.581123;1.388215;1.004088;1.607623;0.9094076;1.007853;1.708659;0.1826064;0.7496038;1.725452;-0.1456823;0.4101447;1.781352;0.001904473;0.1012309;0.9254755;0.1761926;0;0;0;1.269587;1.706076;-0.1456854;1.559916;1.738508;0.001899481;1.809575;0.8606061;0.3104969;1.964292;-0.07292676;0.2618436;0.691572;1.541753;1.977763;0.8919004;0.8585795;3.256042;1.134412;0.6632546;4.565761;0.691572;1.541753;1.977763;0.8919004;0.8585795;3.256042;1.134412;0.6632546;4.565761
1790093.7779;NotLabelled;16384;0.6689751;-0.69583;0.2603878;-0.02216066;-15;23;-6;-1680;3652;99;65536;0.7775488;-0.6274238;0.04155125;0.005540166;3;11;-10;313;4022;-797;8192;0.5152354;-0.6623396;-0.4903047;-0.2354571;-21;-13;-10;2026;3631;-43;32768;0.6707935;-0.6094183;-0.3462604;-0.2423823;2;-17;8;-327;4051;-688;256;-0.1135734;-0.009695291;-0.9911615;-0.06786703;-5;12;19;457;128;4073;128;0.1398892;-0.02216066;0.9767941;0.1606648;-16;17;-19;-323;1155;-4872;4;0.1939058;-0.7203375;0.6495845;0.1468144;0;52;-2;-4319;3396;264;16;0.06232687;-0.942722;-0.3240997;-0.04847645;5;19;18;-2181;658;4354;2;0.4155124;-0.5166205;-0.5124654;-0.5457398;-29;45;-21;723;4200;-475;8;-0.1108033;-0.982473;0.1495845;-0.009695291;-16;3;41;1611;-1099;4061;1.005308;1.548366;1.930961;1.00568;1.582319;1.386472;1.005986;1.610146;0.9077407;1.009417;1.709327;0.1806827;0.7510948;1.72459;-0.1476233;0.4115007;1.779962;-0.0001477748;0.1000088;0.9255283;0.1766121;0;0;0;1.271127;1.706601;-0.1476264;1.561382;1.740186;-0.0001533628;1.815187;0.8608344;0.3008406;1.96962;-0.07269824;0.2512915;0.6934375;1.541315;1.975899;0.9083279;0.8521082;3.248564;1.147627;0.6634119;4.559844;0.6934375;1.541315;1.975899;0.9083279;0.8521082;3.248564;1.147627;0.6634119;4.559844
1790114.7788;NotLabelled;16384;0.6703601;-0.6953833;0.2576177;-0.02631579;-17;27;-6;-1506;3740;-87;65536;0.7776918;-0.6274238;0.03878116;0.005540166;8;7;-8;129;4082;-763;8192;0.5221606;-0.6598819;-0.4889196;-0.2299169;-30;-15;-10;1846;3687;-387;32768;0.6739661;-0.6080332;-0.3434903;-0.2409972;13;-11;3;-279;4215;-522;256;-0.1163435;-0.008310249;-0.9910386;-0.06509695;-17;14;23;535;368;4367;128;0.1440443;-0.02493075;0.9758942;0.1620499;-17;21;-16;-429;1313;-4944;4;0.1966759;-0.7248281;0.6440443;0.1454294;-3;61;13;-4095;2962;-94;16;0.06371191;-0.9410437;-0.3282548;-0.05124654;1;47;16;-2601;702;3502;2;0.4141274;-0.5083103;-0.5193906;-0.5480443;-25;62;-24;675;4388;-301;8;-0.1135734;-0.9820863;0.1495845;-0.01523546;-19;-16;37;1293;-949;4237;1.012105;1.54161;1.938858;1.012514;1.578799;1.39458;1.01285;1.60947;0.9160225;1.016216;1.706576;0.1886839;0.7578627;1.720917;-0.1396388;0.4182867;1.776733;0.0077108;0.09766217;0.9249505;0.1809033;0;0;0;1.277895;1.702894;-0.1396418;1.568166;1.736882;0.007706165;1.824825;0.8572611;0.3054788;1.977314;-0.07646358;0.2535772;0.7002321;1.534293;1.983733;0.9315346;0.8464698;3.254268;1.16236;0.6459681;4.565316;0.7002321;1.534293;1.983733;0.9315346;0.8464698;3.254268;1.16236;0.6459681;4.565316
1790136.7812;NotLabelled;16384;0.6717451;-0.695404;0.2534626;-0.03047091;-16;32;-4;-1284;3824;-189;65536;0.778875;-0.6260388;0.03739612;0.005540166;12;6;-1;97;4106;-829;8192;0.5249307;-0.6591896;-0.4875346;-0.2285319;-29;-4;-15;1730;3613;-833;32768;0.6757059;-0.6066482;-0.3434903;-0.2396122;28;0;0;-381;4155;-390;256;-0.1274238;-0.006925208;-0.9902757;-0.05540166;-33;5;36;545;518;4659;128;0.1495845;-0.03047091;0.9742032;0.166205;-5;20;-18;-175;1677;-5150;4;0.200831;-0.7322012;0.634349;0.1454294;-1;84;31;-3855;2276;-920;16;0.06509695;-0.9377723;-0.3365651;-0.05540166;3;50;18;-2819;1034;2338;2;0.4141274;-0.5;-0.5235457;-0.5517231;-28;64;-31;809;4660;-663;8;-0.1177285;-0.9812831;0.1509695;-0.02077562;-19;-11;34;1007;-843;4229;1.012279;1.544051;1.941418;1.012709;1.583193;1.397277;1.013064;1.615581;0.9188325;1.016015;1.708842;0.1909892;0.7575647;1.720665;-0.1373574;0.4178466;1.776235;0.00975734;0.09484973;0.9250915;0.1816761;0;0;0;1.277648;1.704211;-0.1373603;1.56784;1.739855;0.009752274;1.837169;0.8596704;0.2943802;1.988543;-0.0737747;0.2347785;0.7004045;1.536573;1.986254;0.9356507;0.8453166;3.254198;1.169088;0.638597;4.563817;0.7004045;1.536573;1.986254;0.9356507;0.8453166;3.254198;1.169088;0.638597;4.563817
1790157.7588;NotLabelled;16384;0.6731302;-0.6953723;0.2493075;-0.03462604;-13;43;0;-1230;3808;-237;65536;0.7799948;-0.6246537;0.03739612;0.004155125;19;-1;0;285;4084;-803;8192;0.5304709;-0.6547966;-0.4861496;-0.2313019;-20;15;-25;2162;3303;-611;32768;0.6780058;-0.602493;-0.3462604;-0.2396122;42;10;0;-455;4173;-454;256;-0.132964;-0.006925208;-0.9898416;-0.04986149;-44;0;40;117;432;4457;128;0.1537396;-0.03047091;0.9735562;0.166205;15;-5;-24;399;1945;-6000;4;0.2077562;-0.7403615;0.6218836;0.1481994;0;93;49;-3335;1794;-694;16;0.06509695;-0.9345798;-0.3448753;-0.05817174;0;46;14;-3591;886;2072;2;0.4168975;-0.4778393;-0.533241;-0.5599287;-36;52;-48;749;4406;-813;8;-0.1274238;-0.9800302;0.1495845;-0.03047091;-35;11;35;1069;-1153;4413;1.014157;1.552992;1.941086;1.014647;1.597601;1.397366;1.015055;1.634797;0.9192718;1.017261;1.714019;0.1897644;0.7585908;1.718532;-0.1385912;0.4187436;1.775644;0.007632196;0.09795358;0.9244392;0.1833393;0;0;0;1.278733;1.704048;-0.1385947;1.568867;1.743617;0.007626235;1.846712;0.8625116;0.280995;1.999138;-0.07026374;0.2140362;0.7022774;1.545063;1.985811;0.9660422;0.8447866;3.243149;1.221647;0.6302185;4.547355;0.7022774;1.545063;1.985811;0.9660422;0.8447866;3.243149;1.221647;0.6302185;4.547355
