SEP=;
index;label;RightUpperArm_boneIndex;RightUpperArm_quat9x_w;RightUpperArm_quat9x_x;RightUpperArm_quat9x_y;RightUpperArm_quat9x_z;RightUpperArm_gyroscope_x;RightUpperArm_gyroscope_y;RightUpperArm_gyroscope_z;RightUpperArm_accelerometer_x;RightUpperArm_accelerometer_y;RightUpperArm_accelerometer_z;RightLowerArm_boneIndex;RightLowerArm_quat9x_w;RightLowerArm_quat9x_x;RightLowerArm_quat9x_y;RightLowerArm_quat9x_z;RightLowerArm_gyroscope_x;RightLowerArm_gyroscope_y;RightLowerArm_gyroscope_z;RightLowerArm_accelerometer_x;RightLowerArm_accelerometer_y;RightLowerArm_accelerometer_z;LeftUpperArm_boneIndex;LeftUpperArm_quat9x_w;LeftUpperArm_quat9x_x;LeftUpperArm_quat9x_y;LeftUpperArm_quat9x_z;LeftUpperArm_gyroscope_x;LeftUpperArm_gyroscope_y;LeftUpperArm_gyroscope_z;LeftUpperArm_accelerometer_x;LeftUpperArm_accelerometer_y;LeftUpperArm_accelerometer_z;LeftLowerArm_boneIndex;LeftLowerArm_quat9x_w;LeftLowerArm_quat9x_x;LeftLowerArm_quat9x_y;LeftLowerArm_quat9x_z;LeftLowerArm_gyroscope_x;LeftLowerArm_gyroscope_y;LeftLowerArm_gyroscope_z;LeftLowerArm_accelerometer_x;LeftLowerArm_accelerometer_y;LeftLowerArm_accelerometer_z;Chest_boneIndex;Chest_quat9x_w;Chest_quat9x_x;Chest_quat9x_y;Chest_quat9x_z;Chest_gyroscope_x;Chest_gyroscope_y;Chest_gyroscope_z;Chest_accelerometer_x;Chest_accelerometer_y;Chest_accelerometer_z;Spine_boneIndex;Spine_quat9x_w;Spine_quat9x_x;Spine_quat9x_y;Spine_quat9x_z;Spine_gyroscope_x;Spine_gyroscope_y;Spine_gyroscope_z;Spine_accelerometer_x;Spine_accelerometer_y;Spine_accelerometer_z;RightUpperLeg_boneIndex;RightUpperLeg_quat9x_w;RightUpperLeg_quat9x_x;RightUpperLeg_quat9x_y;RightUpperLeg_quat9x_z;RightUpperLeg_gyroscope_x;RightUpperLeg_gyroscope_y;RightUpperLeg_gyroscope_z;RightUpperLeg_accelerometer_x;RightUpperLeg_accelerometer_y;RightUpperLeg_accelerometer_z;RightLowerLeg_boneIndex;RightLowerLeg_quat9x_w;RightLowerLeg_quat9x_x;RightLowerLeg_quat9x_y;RightLowerLeg_quat9x_z;RightLowerLeg_gyroscope_x;RightLowerLeg_gyroscope_y;RightLowerLeg_gyroscope_z;RightLowerLeg_accelerometer_x;RightLowerLeg_accelerometer_y;RightLowerLeg_accelerometer_z;LeftUpperLeg_boneIndex;LeftUpperLeg_quat9x_w;LeftUpperLeg_quat9x_x;LeftUpperLeg_quat9x_y;LeftUpperLeg_quat9x_z;LeftUpperLeg_gyroscope_x;LeftUpperLeg_gyroscope_y;LeftUpperLeg_gyroscope_z;LeftUpperLeg_accelerometer_x;LeftUpperLeg_accelerometer_y;LeftUpperLeg_accelerometer_z;LeftLowerLeg_boneIndex;LeftLowerLeg_quat9x_w;LeftLowerLeg_quat9x_x;LeftLowerLeg_quat9x_y;LeftLowerLeg_quat9x_z;LeftLowerLeg_gyroscope_x;LeftLowerLeg_gyroscope_y;LeftLowerLeg_gyroscope_z;LeftLowerLeg_accelerometer_x;LeftLowerLeg_accelerometer_y;LeftLowerLeg_accelerometer_z;pelvis_x;pelvis_y;pelvis_z;lowerSpine_x;lowerSpine_y;lowerSpine_z;middleSpine_x;middleSpine_y;middleSpine_z;upperSpine_x;upperSpine_y;upperSpine_z;rightClavicle_x;rightClavicle_y;rightClavicle_z;rightShoulder_x;rightShoulder_y;rightShoulder_z;rightElbow_x;rightElbow_y;rightElbow_z;rightWrist_x;rightWrist_y;rightWrist_z;leftClavicle_x;leftClavicle_y;leftClavicle_z;leftShoulder_x;leftShoulder_y;leftShoulder_z;leftElbow_x;leftElbow_y;leftElbow_z;leftWrist_x;leftWrist_y;leftWrist_z;rightHip_x;rightHip_y;rightHip_z;rightKnee_x;rightKnee_y;rightKnee_z;rightAnkle_x;rightAnkle_y;rightAnkle_z;leftHip_x;leftHip_y;leftHip_z;leftKnee_x;leftKnee_y;leftKnee_z;leftAnkle_x;leftAnkle_y;leftAnkle_z;
867032.1536;NotLabelled;16384;0.6274238;-0.6727909;0.3795014;-0.09833795;-90;22;63;-3378;2492;-599;65536;0.8452261;-0.5138504;0.06509695;0.1315789;61;3;-15;1715;4862;-311;8192;0.6262257;-0.5983379;-0.4113573;-0.2839335;30;16;17;842;3759;-295;32768;0.7588941;-0.5443213;-0.2506925;-0.2548476;-22;9;-11;539;3939;-1228;256;-0.1108033;-0.03739612;-0.991743;-0.05263158;4;32;19;437;-148;4149;128;0.1537396;-0.0401662;0.9777265;0.1371191;8;26;1;309;595;-4226;4;0.5675207;-0.4819945;0.4141274;0.5235457;11;-7;-46;367;4364;-36;16;-0.1481994;-0.9769384;-0.1398892;0.06371191;-10;30;9;-957;-1590;3316;2;0.4944598;-0.3296399;-0.5083103;-0.6232718;7;-11;46;-955;3764;-69;8;-0.09833795;-0.9862527;0.06648199;-0.1149584;-1;0;-1;543;-655;4001;1.155782;1.32822;1.93859;1.155993;1.347434;1.393381;1.156157;1.362302;0.9140719;1.163675;1.433656;0.1837884;0.9057686;1.454734;-0.1445224;0.5714907;1.539359;0.001203343;0.06855015;0.8628323;0.3855093;0;0;0;1.423248;1.400208;-0.1445256;1.715726;1.418792;0.001197994;1.899366;0.472997;-0.003556848;1.939538;-0.4259773;-0.3002379;0.8439254;1.322389;1.983795;0.8223125;-0.1026688;1.652732;1.199346;0.2993138;2.880976;0.8439254;1.322389;1.983795;0.8223125;-0.1026688;1.652732;1.199346;0.2993138;2.880976
867053.2087;NotLabelled;16384;0.6385041;-0.6673328;0.3698061;-0.101108;-84;32;62;-3176;2882;-487;65536;0.8500071;-0.5055401;0.06509695;0.132964;56;-19;0;2215;4530;-179;8192;0.6156678;-0.602493;-0.4182825;-0.2880886;21;9;16;506;4157;481;32768;0.7535644;-0.5484765;-0.2548476;-0.2576177;-24;3;-12;373;3887;-1262;256;-0.1135734;-0.033241;-0.9916501;-0.05124654;3;31;18;431;-330;3901;128;0.1537396;-0.04432133;0.9779316;0.134349;7;26;0;371;493;-3938;4;0.5634634;-0.4861496;0.4182825;0.5207756;9;-2;-45;293;4186;152;16;-0.1495845;-0.9762126;-0.1440443;0.06232687;-4;31;10;-1007;-1404;3148;2;0.4903047;-0.33518;-0.5110803;-0.6213313;6;-9;44;-787;3828;127;8;-0.09833795;-0.9863451;0.06509695;-0.1149584;0;7;0;397;-707;4063;1.171123;1.362024;2.074325;1.171284;1.376701;1.528976;1.171403;1.38758;1.049559;1.177479;1.458103;0.3191815;0.9191815;1.473835;-0.009120643;0.5833698;1.552274;0.1365403;0.07183762;0.8393197;0.4337952;0;0;0;1.437605;1.429169;-0.009123921;1.729692;1.45351;0.1365346;1.904137;0.5061364;0.1546342;1.941665;-0.39776;-0.1270583;0.8592703;1.35657;2.119605;0.8477764;-0.0783776;1.833855;1.233358;0.335438;3.055498;0.8592703;1.35657;2.119605;0.8477764;-0.0783776;1.833855;1.233358;0.335438;3.055498
867074.1558;NotLabelled;16384;0.6481994;-0.6628477;0.3601108;-0.1038781;-77;29;60;-3460;2992;-333;65536;0.8538722;-0.4986149;0.06786703;0.132964;46;-8;17;1981;4650;-271;8192;0.6117606;-0.6038781;-0.4210526;-0.2894737;15;11;22;494;4029;333;32768;0.7505929;-0.5512465;-0.2562327;-0.2590028;-23;3;-12;639;3929;-1168;256;-0.1163435;-0.02770083;-0.9915698;-0.04986149;2;31;17;251;-372;3845;128;0.1551246;-0.04709141;0.97796;0.1315789;6;23;0;239;621;-3962;4;0.5593013;-0.4903047;0.4224377;0.5180055;8;-1;-44;265;3930;284;16;-0.1495845;-0.9755905;-0.1481994;0.06232687;1;18;7;-955;-1258;3100;2;0.4875346;-0.3393352;-0.5138504;-0.6189664;4;-3;40;-657;4150;161;8;-0.09833795;-0.9865959;0.06371191;-0.1135734;-1;12;-1;875;-833;3819;1.183046;1.371752;2.112931;1.183182;1.384165;1.567525;1.18328;1.393055;1.088068;1.188652;1.462095;0.3575429;0.9301785;1.474996;0.02925467;0.5937511;1.55095;0.1748113;0.07932127;0.8307624;0.4487092;0;0;0;1.448955;1.434633;0.02925152;1.740854;1.461702;0.1748064;1.912871;0.5145037;0.2135409;1.950055;-0.3931725;-0.05577207;0.8711956;1.366485;2.158248;0.8633317;-0.07256627;1.893807;1.250308;0.3447757;3.113808;0.8711956;1.366485;2.158248;0.8633317;-0.07256627;1.893807;1.250308;0.3447757;3.113808
867094.3372;NotLabelled;16384;0.6596391;-0.6565097;0.3504155;-0.1052632;-72;23;55;-3748;2962;-579;65536;0.8566961;-0.4944598;0.07063711;0.1288089;34;11;32;1429;4872;5;8192;0.6078092;-0.6052631;-0.4238227;-0.2908587;15;12;22;622;3935;203;32768;0.7475941;-0.5540166;-0.2576177;-0.2603878;-21;2;-13;589;3955;-1102;256;-0.1218837;-0.01939058;-0.991237;-0.04709141;2;25;13;237;-186;3921;128;0.1565097;-0.05401662;0.9779316;0.1274238;1;21;0;301;605;-4028;4;0.5506529;-0.4986149;0.4307479;0.5124654;9;-12;-41;189;3844;-4;16;-0.1481994;-0.9754646;-0.1509695;0.06094183;5;2;5;-1281;-1238;3640;2;0.4778393;-0.3476454;-0.5180055;-0.6184517;21;11;34;-477;3814;-571;8;-0.09833795;-0.9863393;0.07202215;-0.1108033;-1;-44;-19;765;-1335;4173;1.198496;1.384278;2.144262;1.198605;1.394222;1.598806;1.198679;1.40094;1.119313;1.203202;1.46877;0.3886693;0.9445645;1.478242;0.06039411;0.6073344;1.550723;0.2058645;0.0914405;0.823958;0.4588352;0;0;0;1.463755;1.44362;0.06039113;1.755354;1.474167;0.2058589;1.927133;0.5272344;0.2515372;1.96209;-0.382641;-0.01055443;0.8866472;1.379217;2.189618;0.8828496;-0.0636214;1.946593;1.275545;0.3541673;3.164612;0.8866472;1.379217;2.189618;0.8828496;-0.0636214;1.946593;1.275545;0.3541673;3.164612
867115.1704;NotLabelled;16384;0.6773759;-0.6468144;0.333795;-0.1066482;-59;13;37;-3788;2786;-465;65536;0.859475;-0.4930748;0.07479224;0.1121884;2;46;45;1501;4900;571;8192;0.601108;-0.609991;-0.4265928;-0.2908587;16;8;23;722;4009;185;32768;0.7450532;-0.5567867;-0.2590028;-0.2603878;-19;2;-12;435;3977;-1042;256;-0.1232687;-0.0166205;-0.9911809;-0.04570637;1;23;10;149;-176;3887;128;0.1565097;-0.0567867;0.9779541;0.1260388;6;21;0;367;591;-4034;4;0.5461404;-0.501385;0.434903;0.5110803;11;-18;-39;203;3958;-70;16;-0.1468144;-0.975674;-0.1509695;0.06094183;5;0;5;-1195;-1228;3926;2;0.4709141;-0.3531856;-0.5180055;-0.6206207;28;11;36;-249;3910;-539;8;-0.09833795;-0.9861165;0.07894737;-0.1080332;-8;-38;-23;773;-1221;4057;1.217932;1.407041;2.17033;1.218007;1.413803;1.624824;1.21805;1.417724;1.145301;1.221301;1.482761;0.4143957;0.9624775;1.486643;0.08615339;0.6241162;1.554069;0.2314273;0.1081428;0.820022;0.4622399;0;0;0;1.482173;1.460666;0.08615035;1.773251;1.496632;0.2314227;1.945115;0.5500234;0.2830995;1.97641;-0.3620001;0.0281046;0.9060869;1.402244;2.215734;0.9118969;-0.04719031;2.015823;1.31543;0.3668121;3.231591;0.9060869;1.402244;2.215734;0.9118969;-0.04719031;2.015823;1.31543;0.3668121;3.231591
867156.2072;NotLabelled;16384;0.6850876;-0.6412742;0.3282548;-0.1080332;-53;18;28;-3724;2616;-447;65536;0.8592561;-0.4958449;0.07479224;0.101108;-12;58;45;1191;4912;925;8192;0.5969529;-0.6111503;-0.4307479;-0.2908587;13;5;26;746;3919;231;32768;0.7425593;-0.5581717;-0.2617728;-0.2617728;-18;1;-12;567;3941;-1106;256;-0.1260388;-0.01246537;-0.9909563;-0.04432133;1;23;8;33;-112;4019;128;0.1565097;-0.05955679;0.9781424;0.1232687;4;17;0;377;709;-4064;4;0.5426607;-0.5041551;0.4376731;0.5096953;13;-19;-36;381;4064;-142;16;-0.1454294;-0.9759669;-0.1509695;0.05955679;1;2;5;-1335;-1216;3978;2;0.4639889;-0.3587258;-0.5193906;-0.621501;27;6;36;-285;3950;-379;8;-0.09972299;-0.9856982;0.08587258;-0.1052632;-11;-35;-24;709;-1329;4119;1.243683;1.425063;2.209821;1.243747;1.430844;1.664305;1.24378;1.433903;1.184775;1.24659;1.497384;0.4537319;0.9877166;1.499081;0.1255098;0.6489897;1.564887;0.2706746;0.1322316;0.8190281;0.4577169;0;0;0;1.507551;1.476073;0.1255066;1.798434;1.514012;0.2706696;1.969473;0.5682464;0.3381062;2.0011;-0.3457028;0.09014606;0.9318386;1.420348;2.255241;0.9426991;-0.0313983;2.073102;1.350808;0.3790493;3.288547;0.9318386;1.420348;2.255241;0.9426991;-0.0313983;2.073102;1.350808;0.3790493;3.288547
867176.3146;NotLabelled;16384;0.6876882;-0.6398892;0.3240997;-0.1121884;-35;15;19;-3594;2472;-689;65536;0.8584856;-0.5;0.0734072;0.08725762;-25;64;45;1249;4664;1201;8192;0.5900277;-0.6145934;-0.4362881;-0.2894737;9;6;28;958;3989;43;32768;0.7379386;-0.5623268;-0.2645429;-0.2631579;-16;0;-13;683;3949;-1004;256;-0.1274238;-0.009695291;-0.9908102;-0.04432133;0;20;7;171;-114;4143;128;0.1578947;-0.06232687;0.9779208;0.1218837;2;17;1;361;659;-4092;4;0.5353683;-0.5083103;0.4418283;0.5096953;14;-13;-35;363;4042;-186;16;-0.1454294;-0.9757517;-0.1523546;0.05955679;-2;13;4;-1385;-1246;4048;2;0.4584487;-0.3642659;-0.5193906;-0.6223894;28;9;34;-221;3846;-641;8;-0.101108;-0.9853507;0.09141274;-0.1024931;-13;-22;-25;701;-1255;3939;1.257115;1.442359;2.218667;1.257151;1.445657;1.673129;1.257161;1.446534;1.193591;1.259309;1.508685;0.4624304;1.000371;1.507617;0.1342565;0.6611332;1.570861;0.2793662;0.1431989;0.8217634;0.4494397;0;0;0;1.52038;1.488947;0.1341944;1.810962;1.52958;0.2792301;1.985886;0.5847224;0.3493727;2.017926;-0.3305976;0.106577;0.9452724;1.437852;2.264122;0.9608798;-0.01555693;2.096135;1.373807;0.3908035;3.311326;0.9452724;1.437852;2.264122;0.9608798;-0.01555693;2.096135;1.373807;0.3908035;3.311326
867197.1735;NotLabelled;16384;0.6894044;-0.6398892;0.3199446;-0.1135734;-17;1;21;-2800;2806;-783;65536;0.8562929;-0.5055401;0.0734072;0.07617728;-43;58;48;1161;4436;1827;8192;0.5858725;-0.6165925;-0.4390582;-0.2894737;7;7;28;644;4003;-39;32768;0.7363825;-0.5637119;-0.265928;-0.2631579;-14;-2;-15;487;3979;-970;256;-0.1274238;-0.006925208;-0.9908944;-0.04293629;0;18;6;213;-86;3903;128;0.1578947;-0.06509695;0.9779119;0.1204986;3;13;1;287;635;-3982;4;0.5328974;-0.5110803;0.4432133;0.5083103;14;-6;-33;389;3954;-18;16;-0.1454294;-0.9751775;-0.1565097;0.05817174;-4;27;5;-1213;-1216;3818;2;0.4515235;-0.368421;-0.5193906;-0.6250007;28;8;33;-291;3890;-503;8;-0.1038781;-0.9850917;0.09556787;-0.09833795;-14;-22;-25;899;-1169;3971;1.270265;1.449423;2.214551;1.270292;1.451809;1.669009;1.270293;1.451884;1.18947;1.272204;1.514519;0.4583508;1.01332;1.512271;0.1301409;0.6737278;1.573598;0.2752446;0.152268;0.8256054;0.4393024;0;0;0;1.533422;1.496396;0.1301378;1.823761;1.538496;0.2752395;2.003079;0.5963161;0.3669759;2.03544;-0.321995;0.1357934;0.9584239;1.444991;2.26002;0.9880741;-0.01036596;2.11198;1.403955;0.3961325;3.326118;0.9584239;1.444991;2.26002;0.9880741;-0.01036596;2.11198;1.403955;0.3961325;3.326118
867217.172;NotLabelled;16384;0.6896242;-0.6412742;0.3171745;-0.1121884;2;-4;34;-2434;3088;-621;65536;0.851519;-0.5152354;0.0734072;0.06371191;-66;56;58;1091;3920;1947;8192;0.5831025;-0.617887;-0.4418283;-0.2880886;6;-2;28;548;3931;-105;32768;0.7343124;-0.5650969;-0.2686981;-0.2631579;-12;0;-16;499;3989;-978;256;-0.1301939;-0.002770083;-0.9906707;-0.0401662;0;14;1;379;-182;4079;128;0.1578947;-0.06648199;0.9783218;0.1163435;2;5;2;189;613;-4134;4;0.5253198;-0.5180055;0.4473684;0.5055401;14;1;-28;121;4014;-4;16;-0.1454294;-0.9738073;-0.1648199;0.05817174;-1;27;6;-1023;-1182;3570;2;0.4404432;-0.3781163;-0.5207756;-0.6259637;29;7;32;-441;3944;-163;8;-0.1066482;-0.9843252;0.1066482;-0.09141274;-12;-35;-27;905;-891;3761;1.276227;1.464332;2.208635;1.276242;1.465752;1.663089;1.276234;1.464977;1.18355;1.277725;1.526122;0.452304;1.018834;1.521687;0.1241216;0.6788998;1.581327;0.2691287;0.1588215;0.8309762;0.4266759;0;0;0;1.53902;1.508851;0.1241055;1.829119;1.552945;0.2690955;2.009409;0.6117325;0.3685417;2.043249;-0.3075432;0.1414413;0.9643861;1.459981;2.254117;0.9999774;0.003709555;2.116757;1.411125;0.4100659;3.332553;0.9643861;1.459981;2.254117;0.9999774;0.003709555;2.116757;1.411125;0.4100659;3.332553
867238.515;NotLabelled;16384;0.6925997;-0.6495845;0.2977839;-0.09833795;31;20;50;-1834;2162;-741;65536;0.8208051;-0.5650969;0.07756232;0.03047091;-83;18;27;-1589;4618;-1937;8192;0.5761772;-0.6216708;-0.4473684;-0.2853186;3;2;31;910;4157;151;32768;0.7301153;-0.567867;-0.2742382;-0.2631579;-10;3;-20;495;3993;-982;256;-0.1288089;-0.001385042;-0.9909631;-0.03739612;-1;7;-6;589;-94;3807;128;0.1565097;-0.06786703;0.9787747;0.1135734;4;9;9;235;581;-4048;4;0.5180055;-0.5281133;0.4487534;0.501385;14;-7;-21;-241;4094;-240;16;-0.1440443;-0.9731413;-0.1703601;0.0567867;0;13;9;-1147;-1290;3656;2;0.4293629;-0.3864266;-0.5193906;-0.6297265;35;6;29;-473;4250;-501;8;-0.1066482;-0.9836321;0.1191136;-0.08310249;-7;-37;-30;1105;-879;3535;1.2793;1.494117;2.184347;1.279269;1.49129;1.638807;1.27922;1.486782;1.159289;1.280143;1.544652;0.4277744;1.021285;1.536485;0.09963816;0.6808504;1.593809;0.244405;0.1662822;0.8403114;0.4049987;0;0;0;1.541563;1.528186;0.09963512;1.831273;1.575459;0.2444001;2.015765;0.6359097;0.3515706;2.051793;-0.2844628;0.1293018;0.9674634;1.49012;2.229889;1.019627;0.03198206;2.120473;1.434627;0.4391032;3.334702;0.9674634;1.49012;2.229889;1.019627;0.03198206;2.120473;1.434627;0.4391032;3.334702
867280.3262;NotLabelled;16384;0.6861731;-0.6634349;0.2853186;-0.08725762;58;0;50;-3912;3564;-533;65536;0.8150178;-0.5720221;0.08448754;0.03739612;-14;-78;7;2383;4536;-1861;8192;0.5692521;-0.6251449;-0.4556787;-0.2783934;-1;-18;38;840;3919;231;32768;0.724676;-0.5720221;-0.2825485;-0.2603878;-8;-1;-24;325;4027;-1014;256;-0.1274238;0;-0.9911944;-0.03601108;-6;13;-13;327;10;3867;128;0.1537396;-0.07063711;0.9793351;0.1108033;5;11;15;329;749;-3918;4;0.5083103;-0.5326507;0.4529086;0.5027701;19;-22;-21;-299;4070;-274;16;-0.1440443;-0.972313;-0.1759003;0.05401662;-2;25;13;-1423;-1498;3822;2;0.4196676;-0.3961219;-0.5180055;-0.631377;32;3;28;-345;4290;-251;8;-0.1052632;-0.9820794;0.1357341;-0.07756232;2;-48;-18;1205;-817;3539;1.247255;1.575271;2.090467;1.247193;1.569631;1.544949;1.247117;1.562651;1.06546;1.247786;1.616776;0.3336594;0.9889382;1.606005;0.005590498;0.6483107;1.662854;0.1500896;0.1695708;0.8834872;0.297478;0;0;0;1.509242;1.599563;0.005587041;1.798792;1.64861;0.1500844;1.989131;0.7124615;0.275264;2.032729;-0.2100115;0.06329536;0.9354208;1.571509;2.136047;1.012175;0.1125443;2.056114;1.419246;0.5160081;3.274243;0.9354208;1.571509;2.136047;1.012175;0.1125443;2.056114;1.419246;0.5160081;3.274243
867321.3372;NotLabelled;16384;0.6835107;-0.6689751;0.2811634;-0.07894737;46;-33;46;-3602;4024;1253;65536;0.8140734;-0.5720221;0.08864266;0.04709141;-1;-74;-12;405;5252;-3173;8192;0.566482;-0.6290804;-0.4570637;-0.2728532;-3;-16;43;896;3891;159;32768;0.7229904;-0.5734072;-0.2853186;-0.2590028;-6;-2;-24;357;4017;-940;256;-0.1246537;0.001385042;-0.9916424;-0.033241;-5;11;-19;21;-116;3823;128;0.1509695;-0.07202215;0.9799744;0.1080332;8;10;19;501;469;-3938;4;0.4986149;-0.5356352;0.4570637;0.5055401;19;-23;-19;43;4008;-142;16;-0.1440443;-0.9703934;-0.1869806;0.05124654;-3;32;13;-1379;-1282;3688;2;0.4141274;-0.400277;-0.5180055;-0.6324137;29;1;25;-121;4276;-193;8;-0.1038781;-0.981245;0.1426593;-0.07756232;5;-46;-10;983;-865;3521;1.210195;1.608302;2.063493;1.210104;1.600034;1.518008;1.210002;1.590744;1.038559;1.210483;1.643128;0.3066308;0.9516632;1.630748;-0.02140394;0.6108584;1.68685;0.1229697;0.1663405;0.8894935;0.2809438;0;0;0;1.471985;1.625971;-0.02140731;1.761379;1.67629;0.1229643;1.966394;0.7461693;0.2682903;2.024251;-0.1788164;0.07120442;0.8983628;1.604759;2.109107;0.9965277;0.1460962;2.049734;1.391325;0.5487738;3.272155;0.8983628;1.604759;2.109107;0.9965277;0.1460962;2.049734;1.391325;0.5487738;3.272155
867342.5903;NotLabelled;16384;0.6731302;-0.6786139;0.2880886;-0.05817174;6;-22;5;-2196;4098;2333;65536;0.8149589;-0.5692521;0.08587258;0.06648199;-24;8;-32;-481;3360;-2085;8192;0.5609418;-0.6346786;-0.4626039;-0.2617728;-7;-30;45;1170;3639;-97;32768;0.7211573;-0.5747922;-0.2908587;-0.2548476;0;-7;-24;241;3973;-978;256;-0.1163435;0.004155125;-0.9927328;-0.03047091;4;-7;-18;-1073;-390;4623;128;0.1440443;-0.0734072;0.9816515;0.101108;3;-12;12;1061;619;-4300;4;0.4903047;-0.539612;0.4598338;0.5069252;19;-13;-15;157;4102;-508;16;-0.1440443;-0.9688977;-0.1952908;0.04847645;-3;26;13;-1491;-1206;3520;2;0.4016621;-0.4085872;-0.5193906;-0.6340012;15;15;17;-77;4014;207;8;-0.09695291;-0.9791715;0.1592798;-0.08033241;17;-31;10;785;-927;3665;1.187598;1.630287;2.061844;1.187476;1.619109;1.516411;1.187346;1.607261;1.037018;1.187615;1.655891;0.3048315;0.9288328;1.640887;-0.0231235;0.5878304;1.696489;0.1209764;0.1603442;0.8903929;0.2815796;0;0;0;1.449169;1.638003;-0.02312732;1.738382;1.690113;0.1209716;1.949144;0.7631992;0.2780843;2.013156;-0.1624739;0.08620059;0.8757691;1.626988;2.107494;0.994339;0.169264;2.064582;1.371193;0.5714148;3.292826;0.8757691;1.626988;2.107494;0.994339;0.169264;2.064582;1.371193;0.5714148;3.292826
867383.2034;NotLabelled;16384;0.6745152;-0.6789671;0.2853186;-0.05124654;8;-31;25;-1680;3704;-691;65536;0.810944;-0.5761772;0.07479224;0.06925207;-28;-1;-25;-405;4116;-961;8192;0.5567867;-0.6424189;-0.466759;-0.2437673;-10;-17;34;1372;3985;45;32768;0.7180061;-0.5761772;-0.300554;-0.2493075;4;-3;-33;279;4019;-958;256;-0.1121884;0;-0.9931762;-0.03185596;6;-24;-19;231;-70;4503;128;0.1412742;-0.06786703;0.9824525;0.101108;0;-30;9;723;601;-4236;4;0.4847645;-0.5444711;0.4584487;0.5083103;17;5;-12;-251;4024;-432;16;-0.1440443;-0.9673204;-0.2036011;0.04570637;-1;25;14;-1581;-1220;3506;2;0.3947368;-0.4085872;-0.5249307;-0.6337879;3;18;15;-299;3704;-67;8;-0.09279778;-0.9787551;0.1606648;-0.08725762;9;-7;22;137;-1017;3909;1.135543;1.662004;2.058454;1.135336;1.643123;1.513234;1.135131;1.624506;1.034056;1.135079;1.66961;0.3016436;0.8764054;1.651293;-0.02622828;0.5350373;1.705302;0.1176113;0.1331294;0.8899843;0.2966505;0;0;0;1.396749;1.651895;-0.02623141;1.685606;1.706635;0.1176062;1.910573;0.7873896;0.2983074;1.989991;-0.1386124;0.1139154;0.8237208;1.659351;2.104195;0.9623953;0.2029852;2.079139;1.308674;0.6042455;3.316639;0.8237208;1.659351;2.104195;0.9623953;0.2029852;2.079139;1.308674;0.6042455;3.316639
867425.1575;NotLabelled;16384;0.6703601;-0.6839049;0.2867036;-0.02631579;33;-50;43;-1634;3386;-237;65536;0.8053252;-0.5831025;0.07063711;0.08033241;-9;-42;-13;-27;3878;-1247;8192;0.5540166;-0.6468886;-0.4695291;-0.232687;-12;-36;30;1256;3831;225;32768;0.7151349;-0.5775623;-0.3102493;-0.2423823;3;-10;-36;75;3985;-1026;256;-0.101108;-0.01385042;-0.9941762;-0.03462604;11;-33;-28;81;-214;4107;128;0.134349;-0.05263158;0.9842131;0.1024931;-7;-40;15;539;531;-3894;4;0.4792244;-0.5505066;0.4570637;0.5083103;18;-7;-6;-415;3970;-488;16;-0.1426593;-0.9653153;-0.2146814;0.04155125;0;17;7;-1921;-1190;3472;2;0.3905817;-0.4085872;-0.5318559;-0.6305804;-16;1;11;-345;3782;-107;8;-0.09418282;-0.9786845;0.1537396;-0.09833795;1;4;27;195;-543;3727;1.099541;1.668985;2.060819;1.099321;1.648947;1.51564;1.099106;1.629312;1.036503;1.099438;1.675744;0.3041735;0.8406249;1.660172;-0.02373087;0.4997153;1.716755;0.1202074;0.1069337;0.8952911;0.2912309;0;0;0;1.360956;1.656452;-0.02373379;1.650255;1.70853;0.1202024;1.898274;0.8002055;0.324429;1.998785;-0.1257744;0.1505152;0.78772;1.666428;2.106573;0.9475726;0.2121146;2.089915;1.272948;0.6123288;3.333412;0.78772;1.666428;2.106573;0.9475726;0.2121146;2.089915;1.272948;0.6123288;3.333412
867466.2131;NotLabelled;16384;0.6689751;-0.6855634;0.2867036;-0.0166205;25;-47;40;-1900;3764;621;65536;0.8047532;-0.5831025;0.07063711;0.08587258;-10;-37;-16;233;3914;-1491;8192;0.5540166;-0.6493379;-0.4695291;-0.2257618;-14;-45;33;1560;3521;353;32768;0.7142035;-0.5789474;-0.3130194;-0.2382271;3;-15;-33;-103;4057;-994;256;-0.09833795;-0.01800554;-0.9943383;-0.03601108;14;-33;-30;73;-174;4033;128;0.1315789;-0.04570637;0.9847879;0.1038781;-6;-43;17;485;581;-3920;4;0.4750692;-0.5540963;0.4570637;0.5083103;18;-10;-5;-409;4022;-658;16;-0.1426593;-0.9646951;-0.2174515;0.04155125;0;15;3;-2093;-1184;3388;2;0.3933518;-0.4085872;-0.533241;-0.6276821;-17;-11;6;-467;3870;-167;8;-0.09279778;-0.9791784;0.1495845;-0.101108;13;19;26;453;-215;4147;1.03747;1.672063;2.054981;1.037235;1.650612;1.509855;1.037006;1.629735;1.03077;1.038681;1.678201;0.2985746;0.7795704;1.670648;-0.02937752;0.4403251;1.736144;0.1147127;0.07745811;0.9006628;0.2839093;0;0;0;1.299604;1.652674;-0.02938035;1.590208;1.6964;0.1147075;1.848614;0.7954849;0.3379849;1.974038;-0.1297449;0.17672;0.7256505;1.669625;2.100749;0.9069561;0.2177345;2.099438;1.189587;0.6125335;3.355058;0.7256505;1.669625;2.100749;0.9069561;0.2177345;2.099438;1.189587;0.6125335;3.355058
867486.1735;NotLabelled;16384;0.6689751;-0.6851491;0.2880886;-0.006925208;14;-44;36;-2032;3972;849;65536;0.8034471;-0.5844875;0.07063711;0.08864266;-15;-25;-20;121;3864;-1529;8192;0.5540166;-0.6534402;-0.4709141;-0.2105263;-17;-29;37;2000;3641;363;32768;0.7122239;-0.5817174;-0.3185596;-0.2299169;3;-18;-31;-69;4043;-960;256;-0.09279778;-0.0235457;-0.9946508;-0.03878116;13;-33;-30;-83;-126;3975;128;0.1274238;-0.0401662;0.9855756;0.1038781;0;-39;19;457;651;-4156;4;0.4722992;-0.5551909;0.4570637;0.5096953;16;-11;-2;-555;4262;-742;16;-0.1412742;-0.9639531;-0.2216066;0.04155125;0;14;0;-2021;-1152;3432;2;0.3961219;-0.4085872;-0.534626;-0.6247551;-14;-18;2;-415;4872;-119;8;-0.0900277;-0.9798295;0.1440443;-0.1052632;25;28;22;547;-237;4519;1.028231;1.667049;2.051582;1.027999;1.645894;1.506445;1.027773;1.625278;1.027349;1.025625;1.675628;0.2952817;0.7645704;1.67109;-0.03118086;0.4267226;1.739043;0.1150398;0.07138281;0.9006176;0.2856402;0;0;0;1.284426;1.648774;-0.03424472;1.576213;1.689698;0.1082675;1.837085;0.7896571;0.3322054;1.970753;-0.1351495;0.1751913;0.7164114;1.664586;2.097347;0.9107164;0.2143947;2.104436;1.192229;0.608582;3.360499;0.7164114;1.664586;2.097347;0.9107164;0.2143947;2.104436;1.192229;0.608582;3.360499
867507.1666;NotLabelled;16384;0.6703601;-0.6838291;0.2880886;0;7;-39;30;-1656;3848;659;65536;0.802366;-0.5858725;0.06786703;0.09141274;-19;-11;-25;-59;3818;-1437;8192;0.5526316;-0.654804;-0.4736842;-0.2036011;-17;-28;36;1768;3677;137;32768;0.7111754;-0.5831025;-0.3213296;-0.2257618;4;-15;-31;-197;3993;-984;256;-0.0900277;-0.02631579;-0.994781;-0.0401662;8;-27;-29;-177;6;3945;128;0.1246537;-0.03601108;0.9860902;0.1038781;3;-24;21;175;923;-4392;4;0.4695291;-0.5551253;0.4584487;0.5110803;13;-19;-1;-503;4416;-734;16;-0.1412742;-0.9636337;-0.2229917;0.04155125;1;11;-3;-2005;-1246;3474;2;0.3975069;-0.4085872;-0.536011;-0.6226852;-14;-3;-3;-365;6428;-223;8;-0.08725762;-0.9805322;0.1398892;-0.1066482;23;16;25;147;-1071;4443;0.9987913;1.666714;2.060549;0.9985485;1.644579;1.515452;0.9983128;1.623101;1.036393;1.001203;1.676505;0.304545;0.742115;1.676241;-0.02351159;0.4041592;1.747363;0.120941;0.06241883;0.9018089;0.2839757;0;0;0;1.261699;1.648122;-0.02351534;1.553047;1.685188;0.1209359;1.837049;0.7967945;0.3625427;1.989733;-0.1271478;0.2182978;0.6869723;1.664333;2.106326;0.8892161;0.2152718;2.119702;1.1481;0.6067277;3.381474;0.6869723;1.664333;2.106326;0.8892161;0.2152718;2.119702;1.1481;0.6067277;3.381474
867527.1776;NotLabelled;16384;0.6717451;-0.682456;0.2880886;0.004155125;3;-23;27;-1360;3878;281;65536;0.8013731;-0.5872576;0.06371191;0.09418282;-23;0;-25;-141;3966;-1425;8192;0.5512465;-0.6570807;-0.4750692;-0.1966759;-16;-30;35;1750;3551;163;32768;0.7112253;-0.5831025;-0.3240997;-0.2216066;6;-14;-32;-97;3997;-876;256;-0.08587258;-0.02908587;-0.9950712;-0.0401662;3;-24;-26;89;106;4001;128;0.1204986;-0.03462604;0.9866562;0.1038781;5;-10;20;-69;987;-4230;4;0.466759;-0.5549041;0.4584487;0.5138504;12;-20;-1;-57;4062;-692;16;-0.1412742;-0.9632514;-0.2243767;0.04293629;1;5;-6;-1785;-1182;3358;2;0.398892;-0.4072022;-0.536011;-0.6227068;-11;2;-7;-97;5704;-509;8;-0.08587258;-0.9807776;0.1357341;-0.1108033;15;23;21;539;-1017;4653;0.9918463;1.666915;2.058711;0.991596;1.644092;1.513642;0.9913536;1.62201;1.034611;0.9903759;1.676251;0.3028191;0.7294276;1.677812;-0.02375638;0.3927012;1.750646;0.1227004;0.05445826;0.9029644;0.2819338;0;0;0;1.248838;1.646801;-0.02675155;1.541206;1.682076;0.1160787;1.832985;0.7972579;0.3615118;1.993811;-0.1262459;0.2234401;0.680028;1.664592;2.104494;0.8867993;0.2162193;2.122409;1.145147;0.6092997;3.383786;0.680028;1.664592;2.104494;0.8867993;0.2162193;2.122409;1.145147;0.6092997;3.383786
867547.2632;NotLabelled;16384;0.6731302;-0.6827553;0.2839335;0.01108033;5;-12;23;-1630;3510;-271;65536;0.7978345;-0.5927978;0.05401662;0.09556787;-13;-1;-24;-91;4050;-1097;8192;0.5512465;-0.6591139;-0.4750692;-0.1897507;-15;-34;31;1774;3593;109;32768;0.7094632;-0.5844875;-0.3282548;-0.2174515;6;-14;-34;-95;4007;-1062;256;-0.08310249;-0.033241;-0.9951193;-0.04155125;4;-25;-22;297;294;4233;128;0.1191136;-0.03185596;0.9869177;0.1038781;0;-11;16;-47;775;-4040;4;0.4626039;-0.5556624;0.4570637;0.5180055;14;0;4;-115;3830;-778;16;-0.1412742;-0.9631239;-0.2243767;0.04570637;2;-2;-6;-1625;-1266;3518;2;0.400277;-0.4058172;-0.5373961;-0.6215273;-15;-3;-8;273;3596;-161;8;-0.08448754;-0.9813066;0.1315789;-0.1121884;2;20;10;381;-1561;4909;0.966365;1.667648;2.073503;0.9661112;1.644528;1.528446;0.9658661;1.622184;1.049428;0.969436;1.677176;0.3177;0.7104077;1.680428;-0.01038787;0.3732165;1.754864;0.1341824;0.04042111;0.9032235;0.2834609;0;0;0;1.229659;1.646718;-0.0103907;1.521369;1.680326;0.1341769;1.822455;0.8025675;0.3933346;1.994071;-0.1194491;0.2583512;0.6545469;1.66535;2.119289;0.8687145;0.2180421;2.136306;1.111835;0.6103773;3.400937;0.6545469;1.66535;2.119289;0.8687145;0.2180421;2.136306;1.111835;0.6103773;3.400937
867568.1547;NotLabelled;16384;0.6731302;-0.6832496;0.2825485;0.01523546;7;-10;24;-1458;3752;-173;65536;0.7968192;-0.5941828;0.05124654;0.09695291;-7;-1;-22;-251;4044;-1167;8192;0.5512465;-0.6606838;-0.4750692;-0.1842105;-14;-33;24;1846;3677;313;32768;0.7094374;-0.5844875;-0.3310249;-0.2132964;5;-13;-36;-239;4045;-1032;256;-0.07756232;-0.03878116;-0.9953073;-0.04293629;0;-21;-20;175;12;4167;128;0.1135734;-0.02908587;0.9878007;0.1024931;1;-11;13;431;509;-4220;4;0.4626039;-0.5567988;0.4556787;0.5180055;10;5;8;-371;4016;-790;16;-0.1412742;-0.9633788;-0.2229917;0.04709141;2;-7;-4;-1477;-1202;3550;2;0.4030471;-0.4030471;-0.5387812;-0.6203394;-12;2;-1;195;3448;-207;8;-0.08725762;-0.9815617;0.1301939;-0.1094183;-5;-7;-10;495;-1215;3701;0.9336687;1.670125;2.076497;0.9334104;1.646588;1.531458;0.9331612;1.623878;1.052457;0.9372753;1.680507;0.3208565;0.6783221;1.686658;-0.007248625;0.3417429;1.76356;0.1374564;0.01969052;0.9060729;0.2764802;0;0;0;1.197275;1.648638;-0.007276207;1.489237;1.679494;0.1373971;1.796028;0.8057244;0.403256;1.978184;-0.1153668;0.2759853;0.621851;1.667862;2.122288;0.8508521;0.2227995;2.136832;1.093491;0.6167595;3.40105;0.621851;1.667862;2.122288;0.8508521;0.2227995;2.136832;1.093491;0.6167595;3.40105
867588.17;NotLabelled;16384;0.6731302;-0.6847641;0.2783934;0.02216066;5;-11;25;-1566;3888;285;65536;0.7971405;-0.5941828;0.04293629;0.09833795;-1;0;-21;-259;3966;-1187;8192;0.5512465;-0.6631067;-0.4778393;-0.16759;-19;-26;23;1968;3475;293;32768;0.7064866;-0.5886427;-0.3393352;-0.1980609;3;-23;-32;-439;3971;-1034;256;-0.07063711;-0.04293629;-0.995711;-0.04155125;0;-19;-23;89;-94;4099;128;0.1094183;-0.02493075;0.9885258;0.101108;9;-23;15;515;709;-4194;4;0.4626039;-0.5575992;0.4515235;0.5207756;10;1;13;-393;4184;-792;16;-0.1412742;-0.9640158;-0.2202216;0.04709141;1;-4;0;-1491;-1238;3674;2;0.4044321;-0.4016621;-0.5415512;-0.6179195;-11;-7;-1;-473;4484;-91;8;-0.08864266;-0.981332;0.134349;-0.1052632;-1;-19;-12;595;-821;3817;0.9162498;1.668551;2.077272;0.9159694;1.643025;1.532322;0.9157012;1.618568;1.053407;0.9206073;1.676871;0.321943;0.6618164;1.686597;-0.006203726;0.3260539;1.766799;0.1386081;0.01005014;0.906656;0.2750821;0;0;0;1.180328;1.642961;-0.006207168;1.472571;1.670312;0.1386026;1.784778;0.8001583;0.4099561;1.977145;-0.1194391;0.2869788;0.6044338;1.666456;2.123083;0.8368063;0.2219542;2.13975;1.068741;0.616673;3.40574;0.6044338;1.666456;2.123083;0.8368063;0.2219542;2.13975;1.068741;0.616673;3.40574
867628.1651;NotLabelled;16384;0.6731302;-0.6852304;0.2770083;0.02493075;1;-13;27;-1612;3912;179;65536;0.7972848;-0.5941828;0.0401662;0.09833795;-1;4;-20;-115;4018;-1217;8192;0.5526316;-0.6633309;-0.4778393;-0.1620499;-22;-35;23;1882;3433;287;32768;0.7055261;-0.5900277;-0.3421052;-0.1925208;4;-29;-32;-319;3995;-1014;256;-0.06786703;-0.04570637;-0.9957803;-0.04155125;1;-22;-24;119;44;4161;128;0.1066482;-0.02216066;0.9890351;0.09972299;8;-24;16;401;725;-4184;4;0.4626039;-0.5574238;0.4501385;0.5221606;8;-6;14;-263;4184;-718;16;-0.1412742;-0.9640158;-0.2202216;0.04709141;0;-1;2;-1575;-1252;3600;2;0.4072022;-0.4016621;-0.5415512;-0.6160976;-12;-18;-3;-605;4386;-163;8;-0.08864266;-0.9814346;0.1357341;-0.1024931;0;-3;-10;741;-801;3859;0.885811;1.674859;2.087639;0.8855078;1.647224;1.542793;0.8852191;1.620912;1.063976;0.8903822;1.67718;0.3323545;0.63159;1.687964;0.00424169;0.2964785;1.771091;0.1489112;-0.007564861;0.9056045;0.2786046;0;0;0;1.149757;1.640417;0.004238665;1.442234;1.665957;0.1489061;1.775374;0.8075567;0.4325299;1.996535;-0.1078949;0.328492;0.5739971;1.672941;2.133471;0.8162027;0.2299941;2.143502;1.031423;0.6246039;3.412475;0.5739971;1.672941;2.133471;0.8162027;0.2299941;2.143502;1.031423;0.6246039;3.412475
867649.1828;NotLabelled;16384;0.6745152;-0.6842625;0.2756233;0.02908587;0;-17;24;-1624;3676;107;65536;0.7974833;-0.5941828;0.03601108;0.09833795;3;2;-20;-141;3982;-1149;8192;0.5526316;-0.6659775;-0.4764543;-0.1551246;-22;-41;21;2060;3477;71;32768;0.7040195;-0.5927978;-0.3434903;-0.1869806;5;-27;-31;-517;3953;-972;256;-0.06371191;-0.04847645;-0.9959239;-0.04155125;2;-20;-24;193;82;3975;128;0.1038781;-0.01800554;0.9895528;0.09833795;8;-24;16;367;657;-4022;4;0.4612188;-0.5570864;0.4487534;0.5249307;6;-12;16;-183;4102;-662;16;-0.1412742;-0.9643312;-0.2188366;0.04709141;0;-1;2;-1617;-1210;3550;2;0.4113573;-0.4016621;-0.5415512;-0.6133311;-12;-28;-5;-331;4114;-209;8;-0.08864266;-0.9815783;0.1357341;-0.101108;0;0;-10;1125;-775;4015;0.8749636;1.676953;2.091164;0.8746398;1.647432;1.546416;0.8743329;1.619463;1.067693;0.8797879;1.675634;0.3360661;0.6210535;1.687761;0.007954702;0.2863898;1.772683;0.1526196;-0.01324483;0.9052504;0.2795398;0;0;0;1.13896;1.637461;0.007951289;1.431571;1.66146;0.1526135;1.771305;0.8061479;0.4377404;2.002624;-0.1075319;0.3404319;0.5631515;1.675193;2.137014;0.8085705;0.2327708;2.143737;1.016494;0.62738;3.413925;0.5631515;1.675193;2.137014;0.8085705;0.2327708;2.143737;1.016494;0.62738;3.413925
867670.1686;NotLabelled;16384;0.6745152;-0.6844895;0.2742382;0.03601108;5;-12;17;-1238;3580;11;65536;0.7996501;-0.5914127;0.02908587;0.09972299;14;2;-25;-207;3896;-1229;8192;0.5540166;-0.6673918;-0.4750692;-0.1481994;-21;-34;18;2348;3541;123;32768;0.7036243;-0.5941828;-0.3448753;-0.1814404;7;-24;-31;-553;3991;-954;256;-0.05817174;-0.05263158;-0.9959932;-0.04293629;0;-11;-21;445;98;3811;128;0.09695291;-0.009695291;0.9906427;0.09556787;8;-35;16;47;647;-3872;4;0.4612188;-0.5518135;0.4487534;0.5304709;5;-13;18;-301;4106;-732;16;-0.1412742;-0.9643978;-0.2188366;0.04570637;0;-2;0;-1849;-1212;3500;2;0.4182825;-0.4044321;-0.5387812;-0.609253;-6;-25;-7;-63;3910;-313;8;-0.08864266;-0.9815499;0.1398892;-0.09556787;-8;-23;-13;1331;-725;4127;0.8610207;1.679694;2.09937;0.8606745;1.648142;1.554737;0.860348;1.618388;1.076121;0.8661023;1.674587;0.344499;0.6074376;1.688089;0.01638635;0.2732198;1.774742;0.1610549;-0.02177201;0.9047;0.280786;0;0;0;1.125076;1.63509;0.01638293;1.417806;1.657552;0.16105;1.762175;0.8062317;0.4524915;2.001344;-0.1063567;0.3643556;0.5492104;1.678105;2.14524;0.8016122;0.2368758;2.148399;0.9992511;0.6314297;3.420246;0.5492104;1.678105;2.14524;0.8016122;0.2368758;2.148399;0.9992511;0.6314297;3.420246
867690.186;NotLabelled;16384;0.6745152;-0.6848117;0.2728532;0.0401662;9;-11;9;-1310;3640;365;65536;0.8040104;-0.5858725;0.01939058;0.09972299;23;4;-28;-297;3946;-1261;8192;0.5540166;-0.66961;-0.4764543;-0.132964;-20;-32;15;3156;3061;-343;32768;0.7046787;-0.5941828;-0.3490305;-0.1689751;17;-20;-5;-1009;4155;-952;256;-0.05401662;-0.05540166;-0.9959537;-0.04570637;14;-6;-15;255;202;3623;128;0.09141274;0.001385042;0.9913483;0.09418282;9;-34;15;-247;775;-4082;4;0.4612188;-0.5489205;0.4473684;0.534626;-3;-10;18;53;4074;-990;16;-0.1412742;-0.9640158;-0.2202216;0.04709141;0;3;-3;-1787;-1218;3518;2;0.4224377;-0.4058172;-0.536011;-0.6079071;3;-11;-7;119;4006;-59;8;-0.0900277;-0.9803893;0.1495845;-0.09141274;-11;-24;-8;1345;-897;3767;0.836811;1.68056;2.112187;0.8364211;1.645035;1.567798;0.8360564;1.61179;1.089412;0.8424952;1.670057;0.3579578;0.5840518;1.686585;0.02980901;0.2504945;1.7755;0.1746288;-0.03553408;0.9017285;0.2888238;0;0;0;1.101248;1.629431;0.02980602;1.394102;1.649124;0.1746235;1.743351;0.8012756;0.470349;1.991366;-0.1095854;0.3890541;0.5250043;1.679306;2.158091;0.776277;0.2379183;2.147071;0.9556708;0.6316818;3.421863;0.5250043;1.679306;2.158091;0.776277;0.2379183;2.147071;0.9556708;0.6316818;3.421863
867732.164;NotLabelled;16384;0.6745152;-0.6846436;0.2728532;0.04293629;10;-10;4;-974;3968;635;65536;0.8069386;-0.5817174;0.01523546;0.101108;21;7;-29;-349;3806;-1419;8192;0.5554016;-0.670785;-0.4750692;-0.1260388;-23;-40;17;3986;3047;-473;32768;0.7071841;-0.5927978;-0.3476454;-0.166205;26;-20;12;-1109;4461;-880;256;-0.05263158;-0.05540166;-0.9958969;-0.04847645;20;-1;-8;261;244;3801;128;0.08864266;0.004155125;0.9917226;0.09279778;7;-8;18;-217;811;-3982;4;0.4626039;-0.5463985;0.4473684;0.536011;-5;-11;19;55;4238;-1100;16;-0.1412742;-0.9639471;-0.2202216;0.04847645;1;2;-6;-1841;-1192;3546;2;0.4224377;-0.4072022;-0.536011;-0.6069802;5;-5;-6;-79;4012;105;8;-0.09141274;-0.9797463;0.1537396;-0.0900277;-10;-15;-4;1417;-907;3685;0.8147366;1.674043;2.129152;0.8143179;1.635908;1.584939;0.8139279;1.600371;1.106718;0.8211724;1.662786;0.3756133;0.5630417;1.68261;0.04740113;0.2298814;1.772526;0.1925167;-0.05013835;0.8963434;0.3030699;0;0;0;1.079916;1.622618;0.04739788;1.372778;1.639872;0.1925113;1.740913;0.8032626;0.4971995;2.010369;-0.1019686;0.4214483;0.5029324;1.673009;2.175078;0.7569869;0.2322358;2.152987;0.928039;0.6268452;3.428663;0.5029324;1.673009;2.175078;0.7569869;0.2322358;2.152987;0.928039;0.6268452;3.428663
867753.1596;NotLabelled;16384;0.6759003;-0.6841965;0.2700831;0.04570637;0;5;-4;-128;4318;555;65536;0.8110362;-0.5761772;0.004155125;0.101108;13;14;-24;-637;3916;-1425;8192;0.5567867;-0.6716338;-0.4736842;-0.1204986;-20;-34;25;4440;3041;-329;32768;0.71117;-0.5900277;-0.3448753;-0.1648199;33;-18;28;-1203;4619;-800;256;-0.05124654;-0.05401662;-0.9959065;-0.05124654;24;5;-2;377;326;4185;128;0.08587258;0.005540166;0.9919596;0.09279778;3;-10;18;59;835;-3802;4;-0.4639889;0.5387812;-0.4473684;-0.5424857;-10;-16;22;-305;4202;-958;16;-0.1412742;-0.9634863;-0.2216066;0.05124654;2;3;-9;-1915;-1226;3516;2;0.4238227;-0.4058172;-0.534626;-0.6081626;10;-3;-5;-307;3950;141;8;-0.09279778;-0.9791774;0.1565097;-0.0900277;-8;-10;-1;1459;-867;3751;0.8041303;1.669362;2.140002;0.8036929;1.629488;1.595914;0.8032862;1.592422;1.11781;0.8110236;1.658995;0.387077;0.5531131;1.680727;0.05881268;0.219871;1.76987;0.2042172;-0.05708392;0.8924963;0.3130318;0;0;0;1.069978;1.620652;0.05880889;1.362747;1.637034;0.2042115;1.738317;0.8040795;0.5098389;2.010851;-0.09984863;0.4296698;0.4923276;1.668475;2.185943;0.7421142;0.2270777;2.156952;0.912735;0.6224828;3.432441;0.4923276;1.668475;2.185943;0.7421142;0.2270777;2.156952;0.912735;0.6224828;3.432441
867774.1996;NotLabelled;16384;0.6759003;-0.6848327;0.2686981;0.04432133;-3;15;0;-488;4372;359;65536;0.8122002;-0.5747922;0;0.09972299;10;13;-18;-625;3918;-1437;8192;0.5554016;-0.6739832;-0.4736842;-0.1135734;-16;-17;35;3876;3149;81;32768;0.7165874;-0.5858725;-0.3407202;-0.1648199;42;-19;39;-1235;4631;-1400;256;-0.05540166;-0.05124654;-0.995368;-0.05955679;35;-1;11;-189;96;3511;128;0.08171745;0.006925208;0.9923018;0.09279778;-6;-12;10;323;771;-4280;4;-0.4639889;0.534626;-0.4473684;-0.546581;-11;-23;25;-415;4132;-858;16;-0.1412742;-0.9634116;-0.2216066;0.05263158;2;3;-11;-1791;-1246;3450;2;0.4238227;-0.4072022;-0.5318559;-0.6096638;14;-9;0;-877;3926;-23;8;-0.09556787;-0.9788148;0.1578947;-0.08864266;-8;-1;0;1163;-773;3855;0.7829595;1.661998;2.158458;0.7825209;1.622035;1.614377;0.7821134;1.584891;1.136278;0.7901583;1.65573;0.4059496;0.5324084;1.678694;0.07764305;0.1988374;1.766115;0.223338;-0.07257247;0.8863769;0.3269047;0;0;0;1.049429;1.619976;0.07763961;1.342057;1.63628;0.2233328;1.723527;0.806021;0.5289901;1.996651;-0.09687424;0.4397101;0.4711569;1.661118;2.2044;0.7151422;0.2193732;2.152425;0.8884487;0.6164367;3.427036;0.4711569;1.661118;2.2044;0.7151422;0.2193732;2.152425;0.8884487;0.6164367;3.427036
867795.1711;NotLabelled;16384;0.6786703;-0.6842442;0.2631579;0.04432133;-8;-2;6;-738;4156;-43;65536;0.8134947;-0.5734072;-0.005540166;0.09695291;5;0;-1;-659;3924;-1373;8192;0.5512465;-0.6661503;-0.4903047;-0.1094183;-7;29;12;1318;4261;2077;32768;0.7294937;-0.5734072;-0.333795;-0.166205;10;-20;5;-481;3465;-734;256;-0.05817174;-0.04847645;-0.9949102;-0.06648199;14;6;8;-161;904;4609;128;0.07756232;0.009695291;0.9924816;0.09418282;0;-12;14;533;1107;-4440;4;-0.4639889;0.5249307;-0.4515235;-0.5525292;-15;-35;26;159;4010;-878;16;-0.1412742;-0.9631757;-0.2216066;0.0567867;2;-3;-14;-1837;-1258;3400;2;0.4265928;-0.4113573;-0.5263157;-0.6097503;15;-20;1;-623;4166;-181;8;-0.09695291;-0.9785787;0.1592798;-0.08725762;-5;-11;0;899;-755;3757;0.7794825;1.647973;2.158196;0.7790433;1.607952;1.614119;0.7786351;1.570756;1.136024;0.7876863;1.653589;0.4069709;0.5304294;1.68084;0.07860515;0.1962279;1.764447;0.2250922;-0.0743238;0.8847196;0.3309737;0;0;0;1.047695;1.624321;0.07860276;1.33999;1.639474;0.2250878;1.731612;0.8148367;0.5331166;2.001707;-0.0871762;0.4272466;0.46768;1.647099;2.204138;0.7097025;0.2056338;2.13733;0.8963237;0.6034949;3.40981;0.46768;1.647099;2.204138;0.7097025;0.2056338;2.13733;0.8963237;0.6034949;3.40981
867837.1655;NotLabelled;16384;0.6800554;-0.6833085;0.2617728;0.04570637;-8;3;3;-730;3928;-209;65536;0.8144692;-0.5720221;-0.005540166;0.09695291;8;-2;1;-549;4024;-1249;8192;0.5512465;-0.6638728;-0.4930748;-0.1108033;-8;27;1;476;4403;1651;32768;0.7296619;-0.5747922;-0.33241;-0.1634349;-4;-31;-9;-299;3713;-898;256;-0.05955679;-0.04709141;-0.9947057;-0.06925207;27;11;3;-249;888;4377;128;0.07617728;0.009695291;0.9925888;0.09418282;4;-6;13;291;965;-4486;4;-0.4639889;0.5193906;-0.4542936;-0.5554863;-15;-34;24;433;3936;-816;16;-0.1412742;-0.963093;-0.2216066;0.05817174;1;-4;-14;-1813;-1274;3462;2;0.4279778;-0.4141274;-0.5235457;-0.6092892;17;-25;0;-491;4024;-271;8;-0.09695291;-0.9781237;0.1620499;-0.08725762;-5;-18;-1;931;-883;3805;0.770498;1.636041;2.166527;0.7700736;1.59737;1.622352;0.7696785;1.561361;1.144167;0.7794147;1.654295;0.4163405;0.5225139;1.684935;0.08799477;0.1877314;1.765027;0.2351176;-0.07753681;0.8829777;0.3348677;0;0;0;1.040025;1.630717;0.0879916;1.332038;1.645143;0.2351123;1.747115;0.8344491;0.5493752;2.013823;-0.0633769;0.4059775;0.4586942;1.635052;2.212458;0.6863292;0.192246;2.126713;0.8900161;0.5924962;3.395823;0.4586942;1.635052;2.212458;0.6863292;0.192246;2.126713;0.8900161;0.5924962;3.395823
867858.1612;NotLabelled;16384;0.6814404;-0.6838558;0.2576177;0.0401662;-10;19;-3;-1322;3704;-37;65536;0.8157542;-0.5706371;-0.006925208;0.09418282;16;-2;1;-407;3976;-1361;8192;0.5526316;-0.6612177;-0.4944598;-0.1135734;-6;9;-3;740;3957;1143;32768;0.7298145;-0.5761772;-0.3310249;-0.1606648;-7;-18;-10;-7;3609;-1344;256;-0.06094183;-0.04293629;-0.9945119;-0.0734072;17;23;-1;-97;1008;4493;128;0.0734072;0.009695291;0.9927976;0.09418282;3;0;12;247;877;-4348;4;-0.4653739;0.5096953;-0.4556787;-0.5621341;-17;-20;18;907;3936;-850;16;-0.1426593;-0.9628559;-0.2202216;0.06371191;1;-4;-15;-1669;-1160;3394;2;0.4279778;-0.4168975;-0.5207756;-0.6097739;21;-26;-1;-327;4010;-365;8;-0.09695291;-0.9777834;0.1648199;-0.08587258;-5;-25;-5;991;-869;3889;0.7690769;1.632344;2.171454;0.768653;1.593699;1.627278;0.7682582;1.557712;1.149091;0.7781985;1.654692;0.4217957;0.5214162;1.686564;0.09347448;0.1863685;1.765081;0.2408424;-0.07606645;0.8818986;0.3380318;0;0;0;1.03905;1.633523;0.09347349;1.330945;1.647799;0.2408422;1.749238;0.8376179;0.5521507;2.016474;-0.06012475;0.4092156;0.4572732;1.631353;2.217385;0.6754285;0.1876595;2.122435;0.8859921;0.5887048;3.39017;0.4572732;1.631353;2.217385;0.6754285;0.1876595;2.122435;0.8859921;0.5887048;3.39017
867879.16;NotLabelled;16384;0.6814404;-0.6845329;0.2562327;0.03739612;-10;10;-6;-1368;3752;-73;65536;0.8178433;-0.567867;-0.006925208;0.09279778;20;-8;1;-515;3908;-1341;8192;0.5540166;-0.6598179;-0.4944598;-0.1149584;0;-8;-1;1832;3371;901;32768;0.728088;-0.5775623;-0.33241;-0.1606648;-7;-4;-7;-211;3181;-1346;256;-0.05955679;-0.03462604;-0.9947115;-0.07617728;1;26;-8;-191;754;4067;128;0.07063711;0.005540166;0.9931608;0.09279778;0;12;8;269;953;-4292;4;-0.468144;0.5055401;-0.4570637;-0.5624616;-18;-9;17;961;3990;-760;16;-0.1426593;-0.9633927;-0.2174515;0.06509695;3;-10;-17;-1593;-1126;3418;2;0.4293629;-0.4224377;-0.5138504;-0.6108615;21;-12;-5;81;3956;-375;8;-0.09833795;-0.9769346;0.1703601;-0.08310249;-6;-15;-11;1101;-929;3873;0.7749852;1.627376;2.175487;0.7745616;1.58878;1.631306;0.7741672;1.552837;1.153116;0.7839571;1.656138;0.4266894;0.5272052;1.688875;0.09842966;0.1914493;1.763567;0.2461728;-0.07365398;0.8809323;0.3410721;0;0;0;1.045228;1.63978;0.09842607;1.336886;1.655011;0.2461674;1.754595;0.8429093;0.5532281;2.022335;-0.05474758;0.4106991;0.4631814;1.626381;2.221417;0.6686077;0.1826696;2.1016;0.8964553;0.5902832;3.364242;0.4631814;1.626381;2.221417;0.6686077;0.1826696;2.1016;0.8964553;0.5902832;3.364242
867900.1747;NotLabelled;16384;0.6846071;-0.6814404;0.2562327;0.03601108;-8;8;-7;-1082;3856;55;65536;0.8197598;-0.5650969;-0.006925208;0.09279778;21;-11;2;-535;3870;-1441;8192;0.5567867;-0.657482;-0.4944598;-0.1149584;-3;3;-25;2474;2541;1239;32768;0.7246071;-0.5803324;-0.33518;-0.1606648;-13;-1;-13;-679;2287;-1358;256;-0.05817174;-0.02908587;-0.995076;-0.07479224;-4;22;-8;-231;614;3985;128;0.06925207;0.002770083;0.9932699;0.09279778;-1;14;7;183;847;-4204;4;-0.4709141;0.5027701;-0.4556787;-0.5637545;-18;2;14;977;3940;-706;16;-0.1426593;-0.9635132;-0.2160665;0.06786703;5;-15;-18;-1561;-1098;3476;2;0.4279778;-0.4252077;-0.5110803;-0.6122338;23;-4;-6;99;4002;-357;8;-0.09972299;-0.9765388;0.1731302;-0.08033241;-7;-21;-12;1181;-899;3795;0.7817694;1.630677;2.179819;0.7813333;1.590925;1.635722;0.7809277;1.553964;1.157609;0.7893869;1.662144;0.4318767;0.5322985;1.692792;0.1036784;0.195284;1.760988;0.2516978;-0.07167325;0.8789175;0.3466479;0;0;0;1.051059;1.652225;0.1036752;1.342352;1.671288;0.2516922;1.758893;0.8575819;0.5560768;2.027846;-0.04052317;0.4187452;0.4699667;1.62978;2.225759;0.6627722;0.1849124;2.099097;0.8929033;0.5930686;3.361149;0.4699667;1.62978;2.225759;0.6627722;0.1849124;2.099097;0.8929033;0.5930686;3.361149
867921.34;NotLabelled;16384;0.6852639;-0.6814404;0.2548476;0.033241;-11;13;-10;-840;4136;273;65536;0.8215153;-0.5623268;-0.005540166;0.09418282;20;-16;3;-343;3900;-1537;8192;0.5595568;-0.6551744;-0.4930748;-0.1204986;0;16;-45;1940;2137;1181;32768;0.7218964;-0.5817174;-0.3379501;-0.1620499;-20;4;-11;-785;2147;-750;256;-0.0567867;-0.02493075;-0.9953718;-0.0734072;-12;15;-4;-539;558;3741;128;0.06925207;0;0.9932737;0.09279778;3;19;4;499;881;-4134;4;-0.4750692;0.5;-0.4556787;-0.562731;-18;11;13;773;3962;-614;16;-0.1412742;-0.9644405;-0.2119114;0.07063711;7;-19;-18;-1489;-1158;3516;2;0.4265928;-0.4252077;-0.5083103;-0.6154979;24;3;-6;-71;4044;-343;8;-0.09972299;-0.975906;0.1772853;-0.07894737;-4;-27;-11;1357;-871;3675;0.7891676;1.636063;2.193769;0.788734;1.59653;1.649656;0.7883306;1.559763;1.171528;0.7954538;1.666504;0.445568;0.5379868;1.693528;0.1173478;0.2002374;1.758187;0.2652791;-0.07120745;0.8766763;0.3523701;0;0;0;1.057176;1.658879;0.1173449;1.348253;1.681574;0.2652739;1.766742;0.8668251;0.5641508;2.037788;-0.03211617;0.4367672;0.4773646;1.635147;2.239706;0.6646584;0.1905549;2.102109;0.8999731;0.6001258;3.362746;0.4773646;1.635147;2.239706;0.6646584;0.1905549;2.102109;0.8999731;0.6001258;3.362746
867941.3256;NotLabelled;16384;0.6872793;-0.6800554;0.2534626;0.03047091;-15;18;-14;-734;4296;451;65536;0.8224617;-0.5609418;-0.005540166;0.09418282;15;-16;5;-463;3822;-1635;8192;0.5623268;-0.6535694;-0.4903047;-0.1274238;4;26;-54;1700;1845;1123;32768;0.7183735;-0.5844875;-0.3393352;-0.1648199;-24;21;1;-729;2515;-534;256;-0.0567867;-0.02216066;-0.9956378;-0.07063711;-21;8;0;-717;728;3723;128;0.06786703;-0.002770083;0.9933655;0.09279778;7;23;0;415;995;-4046;4;-0.4778393;0.4986149;-0.4542936;-0.5627344;-18;15;13;517;3974;-554;16;-0.1412742;-0.9648383;-0.2091413;0.0734072;8;-23;-18;-1417;-1190;3574;2;0.4252077;-0.4265928;-0.5069252;-0.6166391;24;6;-6;-247;4068;-431;8;-0.09972299;-0.9752532;0.1814404;-0.07756232;-3;-21;-10;1407;-951;3633;0.7945496;1.64001;2.20171;0.7941182;1.600681;1.657582;0.7937167;1.564094;1.179441;0.7998356;1.669249;0.4532402;0.5421073;1.693305;0.1249944;0.2038289;1.755381;0.2728238;-0.07016802;0.8744731;0.358008;0;0;0;1.061576;1.663142;0.1250004;1.352464;1.688684;0.272839;1.76345;0.8680406;0.5659435;2.035605;-0.03154421;0.4456682;0.4827463;1.639077;2.247646;0.6579035;0.1935863;2.10364;0.90023;0.6007385;3.363732;0.4827463;1.639077;2.247646;0.6579035;0.1935863;2.10364;0.90023;0.6007385;3.363732
867962.1635;NotLabelled;16384;0.691803;-0.6759003;0.2534626;0.01800554;-22;11;-23;-910;3934;343;65536;0.8260725;-0.5554016;0;0.09556787;13;-9;18;-825;3750;-1673;8192;0.5637119;-0.6496436;-0.4889196;-0.1454294;25;27;-42;2048;2053;-105;32768;0.7158709;-0.5831025;-0.3407202;-0.1772853;-6;26;31;-545;4085;-1410;256;-0.05817174;-0.01523546;-0.9964938;-0.05817174;-24;1;8;-587;714;3785;128;0.07063711;-0.01523546;0.9936821;0.08587258;19;12;-7;601;1039;-3846;4;-0.4889196;0.4930748;-0.4542936;-0.558079;-19;9;11;323;4112;-338;16;-0.1412742;-0.9679677;-0.1925208;0.07756232;4;-30;-11;-1267;-1380;3754;2;0.4196676;-0.4265928;-0.5;-0.6260173;26;9;-9;-189;3950;-717;8;-0.09972299;-0.9745281;0.1869806;-0.0734072;-1;-8;-4;1625;-955;3621;0.7997202;1.646104;2.209543;0.7992911;1.606987;1.665401;0.7988918;1.570585;1.187245;0.804185;1.671952;0.4604995;0.5462251;1.69278;0.1322148;0.207634;1.75366;0.2798255;-0.06941197;0.8733234;0.3609507;0;0;0;1.065861;1.665643;0.1322117;1.356638;1.693657;0.2798196;1.75871;0.8652277;0.5632262;2.027406;-0.03645039;0.4511256;0.4879169;1.645153;2.255478;0.6581351;0.1998228;2.104131;0.9093064;0.6081588;3.362107;0.4879169;1.645153;2.255478;0.6581351;0.1998228;2.104131;0.9093064;0.6081588;3.362107
868002.162;NotLabelled;16384;0.692741;-0.6745152;0.2548476;0.01385042;-22;20;-27;-1170;3738;521;65536;0.8273163;-0.5540166;0.001385042;0.09279778;12;4;21;-663;3674;-1635;8192;0.5595568;-0.651722;-0.4861496;-0.1606648;38;7;-20;3820;4449;-753;32768;0.7217037;-0.5747922;-0.3365651;-0.1883656;5;18;45;-467;5543;-604;256;-0.05955679;-0.01523546;-0.9965699;-0.05540166;-21;4;10;-191;406;3843;128;0.07202215;-0.0166205;0.9936792;0.08448754;8;9;-12;279;693;-4050;4;-0.4916897;0.4916897;-0.4542936;-0.556866;-20;8;8;473;4244;-328;16;-0.1412742;-0.968673;-0.1883656;0.07894737;2;-26;-7;-1185;-1370;3722;2;0.4168975;-0.4279778;-0.4972299;-0.6291215;29;14;-8;-89;3944;-819;8;-0.09972299;-0.9743647;0.1883656;-0.07202215;-1;-8;-2;1637;-947;3665;0.8330426;1.680116;2.230198;0.8325412;1.634419;1.686568;0.8320785;1.592236;1.208888;0.8351911;1.676008;0.4798924;0.5766512;1.684988;0.1515258;0.2373158;1.744339;0.2980452;-0.05844807;0.8694785;0.3720057;0;0;0;1.096636;1.665665;0.1515228;1.387091;1.701616;0.29804;1.767215;0.8590527;0.5698296;2.022306;-0.04645693;0.4568319;0.5212454;1.679722;2.276182;0.6586236;0.2323401;2.111646;0.9325001;0.6407354;3.364855;0.5212454;1.679722;2.276182;0.6586236;0.2323401;2.111646;0.9325001;0.6407354;3.364855
868022.1624;NotLabelled;16384;0.6955309;-0.6717451;0.2548476;0.006925208;-24;27;-32;-1456;3520;889;65536;0.8286971;-0.5526316;0.001385042;0.08864266;10;17;19;-539;3704;-1697;8192;0.5567867;-0.6544318;-0.4847645;-0.1634349;21;-6;-2;5550;7133;1429;32768;0.7226241;-0.5734072;-0.333795;-0.1939058;-8;7;40;-459;3589;-1780;256;-0.06232687;-0.01246537;-0.9966613;-0.05124654;-19;26;10;1121;-150;4449;128;0.07479224;-0.01800554;0.9935672;0.08310249;-8;15;-11;-415;247;-4066;4;-0.4958449;0.4903047;-0.4542936;-0.5543974;-22;12;6;557;4202;-352;16;-0.1426593;-0.9692689;-0.1842105;0.07894737;0;-21;-3;-1147;-1342;3722;2;0.4141274;-0.4279778;-0.4958449;-0.6320374;29;16;-8;-97;4002;-699;8;-0.09972299;-0.9740959;0.1897507;-0.07202215;-1;-10;0;1667;-949;3715;0.847442;1.684766;2.233557;0.8469253;1.637688;1.690046;0.846449;1.594291;1.212474;0.8493971;1.673988;0.483021;0.5907878;1.681089;0.1546633;0.2514728;1.741203;0.3009191;-0.05174403;0.8688593;0.3744361;0;0;0;1.110776;1.661853;0.1546608;1.401256;1.698671;0.300914;1.755644;0.845608;0.5747156;1.996532;-0.0606544;0.4388902;0.535646;1.684489;2.279552;0.6644464;0.2367148;2.111558;0.9471587;0.6452129;3.36277;0.535646;1.684489;2.279552;0.6644464;0.2367148;2.111558;0.9471587;0.6452129;3.36277
868063.2014;NotLabelled;16384;0.6977229;-0.6689751;0.2562327;0;-31;31;-33;-1536;3722;821;65536;0.8294098;-0.5526316;0;0.08171745;8;39;16;-625;3728;-1707;8192;0.5567867;-0.6523501;-0.4861496;-0.16759;-11;38;-28;2944;4089;2407;32768;0.724198;-0.5706371;-0.3310249;-0.200831;-9;26;40;-111;4075;-996;256;-0.06371191;-0.008310249;-0.9967556;-0.04847645;-11;38;8;1069;-124;4621;128;0.07617728;-0.01939058;0.9933192;0.08448754;-8;26;-5;-571;255;-4288;4;-0.4986149;0.4889196;-0.4556787;-0.5519943;-23;16;6;457;4054;-338;16;-0.1426593;-0.9700493;-0.1800554;0.07894737;-1;-18;-1;-1185;-1226;3722;2;0.4099723;-0.4279778;-0.4930748;-0.6368948;28;15;-8;-251;4064;-565;8;-0.09972299;-0.9735522;0.1925208;-0.07202215;0;-13;3;1639;-965;3747;0.8660288;1.694012;2.240722;0.8654974;1.645576;1.69733;0.8650081;1.600986;1.219868;0.8673152;1.674804;0.4897942;0.6085867;1.67777;0.1614673;0.2689693;1.737117;0.3073343;-0.04458721;0.8681232;0.3770551;0;0;0;1.128677;1.661515;0.1614646;1.418977;1.701177;0.3073292;1.767171;0.8465592;0.5842103;1.997775;-0.06132591;0.4415414;0.5542341;1.693849;2.286725;0.6703033;0.2453885;2.115409;0.9613581;0.656845;3.363736;0.5542341;1.693849;2.286725;0.6703033;0.2453885;2.115409;0.9613581;0.656845;3.363736
868084.16;NotLabelled;16384;0.7027964;-0.6634349;0.2562327;-0.0166205;-42;30;-29;-968;4416;561;65536;0.8310735;-0.5526316;-0.005540166;0.06232687;-2;61;26;-449;3952;-1659;8192;0.5595568;-0.6456879;-0.4889196;-0.1759003;2;53;-42;1046;3259;-47;32768;0.7235672;-0.5692521;-0.3296399;-0.2091413;-4;26;34;69;3975;-932;256;-0.06509695;-0.002770083;-0.9967633;-0.04709141;2;34;14;-187;74;4373;128;0.07756232;-0.0235457;0.9931221;0.08448754;-2;26;-8;-177;557;-4436;4;-0.5055401;0.4847645;-0.4556787;-0.5493537;-22;11;9;435;3840;-268;16;-0.1426593;-0.970923;-0.1759003;0.07756232;0;-14;2;-1171;-1248;3634;2;0.4072022;-0.4265928;-0.4916897;-0.6406607;26;14;-8;-489;4120;-675;8;-0.09972299;-0.9728968;0.1952908;-0.0734072;0;-16;4;1509;-947;3727;0.8853292;1.697008;2.244139;0.8848157;1.650216;1.700602;0.8843422;1.607071;1.223008;0.8859377;1.677207;0.492569;0.6271554;1.676312;0.1642726;0.287063;1.73351;0.3098905;-0.03832615;0.868637;0.3765606;0;0;0;1.147365;1.664477;0.1642694;1.437335;1.707341;0.3098852;1.783017;0.8506116;0.5833684;2.002755;-0.05851007;0.4317043;0.5735331;1.696706;2.290131;0.6777126;0.2472492;2.119599;0.9745619;0.6581227;3.366752;0.5735331;1.696706;2.290131;0.6777126;0.2472492;2.119599;0.9745619;0.6581227;3.366752
868105.164;NotLabelled;16384;0.7089546;-0.6578947;0.2520775;-0.03185596;-36;48;-18;-1500;4258;815;65536;0.8315454;-0.5540166;-0.009695291;0.03878116;-5;67;39;13;4284;-1807;8192;0.5595568;-0.6400496;-0.4861496;-0.2022161;22;24;-45;1250;3801;309;32768;0.7235593;-0.5595568;-0.33241;-0.2299169;1;39;20;-31;3995;-1256;256;-0.07202215;0.009695291;-0.9963707;-0.04432133;-5;22;16;-91;558;4155;128;0.08448754;-0.03739612;0.9920127;0.08587258;-5;38;-15;337;939;-3974;4;-0.5124654;0.4833795;-0.4556787;-0.5441328;-17;17;6;583;4018;-106;16;-0.1440443;-0.9715719;-0.1717452;0.07617728;-1;-16;5;-1271;-1350;3644;2;0.4016621;-0.4265928;-0.4847645;-0.6493763;21;16;-11;-165;3982;-1031;8;-0.09972299;-0.9716626;0.200831;-0.07479224;0;-13;5;1401;-947;3699;0.9236487;1.697094;2.252541;0.9231395;1.650691;1.708971;0.9226697;1.607888;1.231346;0.9234696;1.676511;0.500762;0.6647052;1.67206;0.1724805;0.3240028;1.725787;0.3179947;-0.02560057;0.8697243;0.3751283;0;0;0;1.185014;1.665995;0.1724772;1.474494;1.712377;0.3179896;1.816958;0.8505673;0.5792879;2.024939;-0.06063747;0.423601;0.611852;1.696759;2.29853;0.694407;0.247062;2.118466;0.9936347;0.6567311;3.365447;0.611852;1.696759;2.29853;0.694407;0.247062;2.118466;0.9936347;0.6567311;3.365447
868145.1651;NotLabelled;16384;0.7111983;-0.6565097;0.2479224;-0.04155125;-38;56;-21;-2284;4074;889;65536;0.8320585;-0.5540166;-0.01108033;0.02493075;-3;67;40;51;4578;-2049;8192;0.5595568;-0.6369053;-0.4861496;-0.2119114;19;32;-42;1162;4013;925;32768;0.7232769;-0.5567867;-0.333795;-0.2354571;-6;35;18;-77;3891;-1358;256;-0.0734072;0.01246537;-0.9962387;-0.04432133;2;17;16;23;536;4123;128;0.08725762;-0.04155125;0.9914866;0.08725762;-7;12;-19;537;911;-4374;4;-0.5166205;0.4819945;-0.4542936;-0.5425882;-14;20;4;621;3972;-60;16;-0.1440443;-0.9722705;-0.1689751;0.0734072;-3;-17;6;-1391;-1384;3654;2;0.398892;-0.4252077;-0.4833795;-0.6530144;20;21;-11;-135;3956;-1155;8;-0.09972299;-0.9712677;0.2022161;-0.07617728;-1;-10;4;1511;-929;3671;0.9666231;1.705613;2.257942;0.9661468;1.662217;1.714124;0.965706;1.622056;1.236269;0.964854;1.68789;0.5054289;0.7062934;1.675826;0.177178;0.3643658;1.721714;0.3225017;-0.002583351;0.8723418;0.369878;0;0;0;1.226594;1.682556;0.1771744;1.514839;1.736597;0.3224961;1.825135;0.8571295;0.5644233;2.014016;-0.05495954;0.3906265;0.6548237;1.705024;2.30391;0.7154506;0.2545425;2.121464;1.030789;0.6665758;3.363687;0.6548237;1.705024;2.30391;0.7154506;0.2545425;2.121464;1.030789;0.6665758;3.363687
868166.3323;NotLabelled;16384;0.7139711;-0.6537396;0.2451524;-0.05263158;-37;52;-28;-2888;3882;667;65536;0.832297;-0.5540166;-0.01385042;0.01246537;3;73;42;765;4668;-2723;8192;0.5609418;-0.6339165;-0.4847645;-0.2202216;14;32;-43;1256;4049;1227;32768;0.7214112;-0.5554016;-0.33518;-0.2423823;-14;32;17;-113;3961;-1350;256;-0.07617728;0.01385042;-0.9959499;-0.04570637;5;5;14;23;530;4081;128;0.0900277;-0.04155125;0.991116;0.08864266;-2;3;-20;239;891;-3962;4;-0.5193906;0.4819945;-0.4542936;-0.5399371;-9;23;2;543;3966;0;16;-0.1454294;-0.9724076;-0.16759;0.07202215;-4;-15;8;-1441;-1426;3638;2;0.3947368;-0.4238227;-0.4819945;-0.6574485;17;26;-11;-291;3924;-1291;8;-0.101108;-0.9707254;0.2036011;-0.07756232;-1;-9;4;1525;-1007;3677;0.9885808;1.702071;2.26129;0.988127;1.660709;1.717313;0.9877058;1.622336;1.239312;0.9864934;1.68848;0.5084999;0.7279993;1.675162;0.1802452;0.3858302;1.719143;0.3255906;0.01074438;0.8730692;0.3680108;0;0;0;1.248256;1.684699;0.1802421;1.536206;1.740231;0.3255856;1.835494;0.8550564;0.560462;2.020354;-0.05704522;0.3824578;0.6767795;1.70131;2.307243;0.7279876;0.251303;2.11825;1.041287;0.661779;3.361504;0.6767795;1.70131;2.307243;0.7279876;0.251303;2.11825;1.041287;0.661779;3.361504
868187.1519;NotLabelled;16384;0.7173218;-0.6481994;0.2451524;-0.07202215;-32;28;-53;-2582;3874;989;65536;0.8339906;-0.5512465;-0.02077562;-0.01246537;12;70;21;57;4350;-2007;8192;0.5623268;-0.6297342;-0.4847645;-0.2285319;9;26;-40;998;3989;865;32768;0.7205931;-0.5540166;-0.33518;-0.2479224;-14;35;14;-209;4033;-1066;256;-0.07756232;0.01385042;-0.9957784;-0.04709141;2;-8;10;-127;468;4111;128;0.09279778;-0.04155125;0.9908605;0.08864266;0;5;-17;-79;779;-3868;4;-0.5235457;0.4847645;-0.4515235;-0.5357516;0;17;-4;503;3958;176;16;-0.1468144;-0.9728742;-0.1648199;0.06925207;-5;-7;9;-1263;-1210;3704;2;0.3919668;-0.4224377;-0.4806094;-0.6610016;15;28;-10;-335;4040;-1355;8;-0.101108;-0.9704339;0.2049861;-0.07756232;0;-7;4;1529;-975;3639;1.011267;1.692886;2.260171;1.010831;1.653133;1.716074;1.010426;1.616173;1.237961;1.008947;1.684528;0.5073534;0.7504332;1.671611;0.1790985;0.4081867;1.714366;0.3246274;0.02147101;0.8735157;0.3664785;0;0;0;1.270666;1.682343;0.1790472;1.558511;1.738095;0.324515;1.84991;0.8479046;0.5501728;2.027668;-0.06535256;0.3708618;0.6994645;1.691989;2.306111;0.7422408;0.2415987;2.117961;1.059023;0.6548561;3.35941;0.6994645;1.691989;2.306111;0.7422408;0.2415987;2.117961;1.059023;0.6548561;3.35941
868207.1654;NotLabelled;16384;0.7205824;-0.6412742;0.2493075;-0.08587258;-23;-4;-17;-1860;3002;505;65536;0.8380474;-0.5443213;-0.01939058;-0.03185596;27;0;52;2691;3096;-1679;8192;0.5609418;-0.6208062;-0.4847645;-0.2548476;18;33;-35;1410;4147;373;32768;0.7145861;-0.5498615;-0.3421052;-0.2645429;-11;23;7;53;4053;-1232;256;-0.08033241;0.006925208;-0.9952794;-0.05401662;12;7;6;729;648;3359;128;0.09833795;-0.0401662;0.9901313;0.09141274;-3;8;-13;-751;945;-3984;4;-0.5263157;0.4875346;-0.4515235;-0.5304981;-1;15;-5;521;4016;422;16;-0.1481994;-0.973091;-0.1634349;0.06648199;-4;-3;5;-1159;-1178;3784;2;0.3836565;-0.4155124;-0.4792244;-0.6711938;5;18;-9;-703;4068;-1269;8;-0.101108;-0.9699149;0.2063712;-0.08033241;1;-4;8;1669;-895;3541;1.054097;1.676152;2.274591;1.053662;1.636498;1.730488;1.053258;1.599626;1.252368;1.051826;1.670022;0.5219541;0.7933173;1.658112;0.1936567;0.4510813;1.700578;0.3392939;0.03823818;0.8717322;0.3693468;0;0;0;1.313554;1.668663;0.1936503;1.601414;1.723909;0.3392822;1.884153;0.8281393;0.5535926;2.055337;-0.08588433;0.3718107;0.7422945;1.675246;2.32053;0.7818307;0.2246597;2.133195;1.095364;0.6399605;3.374787;0.7422945;1.675246;2.32053;0.7818307;0.2246597;2.133195;1.095364;0.6399605;3.374787
868249.3583;NotLabelled;16384;0.7222404;-0.6385041;0.2520775;-0.08448754;-10;-44;-10;-1970;2384;733;65536;0.8398036;-0.5415512;-0.01246537;-0.03601108;23;-13;51;-555;3110;-97;8192;0.5609418;-0.6185029;-0.4847645;-0.2603878;10;22;-28;1372;4049;581;32768;0.7141001;-0.5484765;-0.3421052;-0.2686981;-12;9;11;13;3933;-1280;256;-0.08171745;0.005540166;-0.9952495;-0.05263158;-8;0;8;1287;772;4393;128;0.101108;-0.0401662;0.9897234;0.09279778;-6;5;-13;-791;1169;-4338;4;0.5304981;-0.4875346;0.4515235;0.5263157;-4;8;-5;557;3964;418;16;-0.1481994;-0.973091;-0.1634349;0.06648199;-4;1;3;-1085;-1152;3762;2;0.3822715;-0.4141274;-0.4792244;-0.672838;3;9;-8;-787;4072;-1273;8;-0.101108;-0.9695033;0.2077562;-0.08171745;2;-5;9;1601;-871;3597;1.102485;1.631313;2.292314;1.102083;1.594708;1.747996;1.101708;1.560515;1.269677;1.101301;1.640231;0.5402206;0.8426222;1.636432;0.2118632;0.5010787;1.682225;0.3581168;0.06397314;0.8656522;0.379935;0;0;0;1.362959;1.639088;0.2118601;1.651633;1.688099;0.3581116;1.902775;0.7790076;0.5549754;2.063418;-0.1371117;0.3741256;0.7906795;1.63015;2.338228;0.8238381;0.1783091;2.159575;1.136261;0.5958475;3.400696;0.7906795;1.63015;2.338228;0.8238381;0.1783091;2.159575;1.136261;0.5958475;3.400696
868270.3928;NotLabelled;16384;0.7239237;-0.634349;0.2590028;-0.08033241;-5;-50;-9;-1404;2616;1339;65536;0.8414592;-0.5387812;-0.006925208;-0.0401662;20;-10;44;-391;2950;-431;8192;0.5609418;-0.6161412;-0.4847645;-0.265928;6;16;-18;1590;3879;337;32768;0.713174;-0.5498615;-0.3407202;-0.2700831;-6;-1;15;-143;4085;-988;256;-0.08310249;0.004155125;-0.9949911;-0.05540166;14;5;9;971;864;3711;128;0.1038781;-0.03878116;0.9893609;0.09418282;-1;3;-14;-673;1203;-4030;4;0.5318686;-0.4875346;0.4515235;0.5249307;-4;2;-4;677;3956;250;16;-0.1481994;-0.973091;-0.1634349;0.06648199;-3;4;2;-1075;-1180;3752;2;0.3822715;-0.4127424;-0.4778393;-0.6746716;0;2;-6;-779;3936;-1191;8;-0.101108;-0.9690878;0.2091413;-0.08310249;2;-7;11;1673;-941;3765;1.121916;1.624977;2.298719;1.121532;1.589972;1.754297;1.121172;1.557184;1.275879;1.120984;1.634723;0.5461878;0.8622983;1.630636;0.2178392;0.5208777;1.677782;0.3639503;0.08081886;0.862735;0.3833454;0;0;0;1.382641;1.631898;0.2178361;1.671444;1.680571;0.3639451;1.916771;0.7687852;0.5556068;2.072582;-0.1476476;0.3721354;0.8101091;1.623679;2.34462;0.8314606;0.1713971;2.167758;1.147134;0.5889354;3.408055;0.8101091;1.623679;2.34462;0.8314606;0.1713971;2.167758;1.147134;0.5889354;3.408055
868291.16;NotLabelled;16384;0.7234997;-0.632964;0.265928;-0.07202215;8;-23;4;-1096;2756;1065;65536;0.8450332;-0.533241;0.008310249;-0.03878116;4;-49;56;1109;2384;-307;8192;0.5595568;-0.6161988;-0.4847645;-0.2686981;5;4;-10;1714;3679;11;32768;0.7138462;-0.5484765;-0.3393352;-0.2728532;0;0;20;-249;4019;-802;256;-0.08448754;0.004155125;-0.9947964;-0.0567867;0;4;11;863;1026;3643;128;0.1052632;-0.03739612;0.989135;0.09556787;-3;1;-12;-575;1147;-3800;4;0.5334155;-0.4875346;0.4529086;0.5221606;-2;7;-6;551;3952;32;16;-0.1481994;-0.972951;-0.1648199;0.06509695;-1;2;6;-993;-1278;3726;2;0.3836565;-0.4127424;-0.4778393;-0.673885;-2;4;-4;-659;4064;-1231;8;-0.101108;-0.968968;0.2091413;-0.08448754;1;-10;10;1555;-997;3751;1.141079;1.609736;2.302955;1.14071;1.576158;1.758442;1.140364;1.544625;1.279941;1.14044;1.626032;0.5506704;0.8817441;1.624556;0.2223082;0.5404834;1.672075;0.3686716;0.09547019;0.8596933;0.3867944;0;0;0;1.402088;1.624067;0.2223054;1.691052;1.670993;0.3686659;1.930616;0.7565746;0.5550067;2.081567;-0.1609561;0.3729683;0.8292704;1.608318;2.348843;0.8464231;0.155911;2.172553;1.165353;0.5734491;3.412018;0.8292704;1.608318;2.348843;0.8464231;0.155911;2.172553;1.165353;0.5734491;3.412018
868311.2958;NotLabelled;16384;0.724586;-0.6315789;0.2686981;-0.06232687;4;-40;12;-1346;2554;1631;65536;0.8438848;-0.534626;0.03047091;-0.033241;-19;-72;47;-259;2312;-1001;8192;0.5567867;-0.6168817;-0.4847645;-0.2728532;2;1;0;554;4109;3;32768;0.7173806;-0.5443213;-0.33518;-0.2770083;5;-4;10;277;3999;-1034;256;-0.0900277;0.002770083;-0.9943933;-0.05540166;-4;6;12;975;518;3489;128;0.1121884;-0.03185596;0.9882958;0.09833795;-1;-2;-11;-527;951;-3918;4;0.5335809;-0.4903047;0.4529086;0.5193906;2;11;-7;489;3972;-36;16;-0.1495845;-0.9726848;-0.166205;0.06232687;-2;4;11;-1141;-1302;3744;2;0.3822715;-0.4099723;-0.4792244;-0.6753778;-6;7;-1;-521;3968;-1149;8;-0.1024931;-0.9682768;0.2105263;-0.08725762;0;-2;6;1369;-999;3653;1.161426;1.595368;2.315851;1.161073;1.563167;1.771255;1.16074;1.532844;1.292675;1.162893;1.61811;0.5638494;0.9051182;1.618476;0.2347596;0.5634663;1.665354;0.3804152;0.1195355;0.8523334;0.3962782;0;0;0;1.42546;1.61778;0.2362128;1.71403;1.663816;0.3836296;1.948178;0.7473301;0.5666677;2.094801;-0.1696268;0.3783085;0.8496165;1.593834;2.361727;0.8593367;0.1412009;2.186729;1.174166;0.5551771;3.428435;0.8496165;1.593834;2.361727;0.8593367;0.1412009;2.186729;1.174166;0.5551771;3.428435
868353.1666;NotLabelled;16384;0.7245263;-0.6315789;0.2700831;-0.0567867;9;-28;16;-1288;2150;1113;65536;0.8418865;-0.5373961;0.03878116;-0.03047091;-28;-38;33;-771;2360;-737;8192;0.5554016;-0.6175158;-0.4847645;-0.2742382;0;1;1;786;4095;201;32768;0.7178939;-0.5429363;-0.33518;-0.2783934;6;-5;5;233;4023;-1050;256;-0.09279778;0.002770083;-0.9942148;-0.05401662;-8;13;12;1017;636;3569;128;0.1135734;-0.03047091;0.9881813;0.09833795;-1;1;-9;-589;1059;-3810;4;0.5348251;-0.4916897;0.4515235;0.5180055;5;12;-6;395;3958;18;16;-0.1495845;-0.9727726;-0.166205;0.06094183;-3;5;12;-1149;-1248;3738;2;0.3808864;-0.4085872;-0.4806094;-0.6760153;-5;10;-1;-411;3924;-1221;8;-0.1024931;-0.968151;0.2105263;-0.08864266;0;1;4;1361;-999;3599;1.189785;1.598574;2.29177;1.189459;1.56886;1.747032;1.18915;1.540721;1.268319;1.189513;1.621939;0.5390275;0.9308122;1.621291;0.2106657;0.5897213;1.67005;0.3570168;0.1535731;0.8530781;0.3827142;0;0;0;1.451151;1.618966;0.2106621;1.74028;1.66491;0.3570116;1.970366;0.7481909;0.5439882;2.106497;-0.1677572;0.3432485;0.8779728;1.596831;2.337621;0.8867959;0.1428704;2.173973;1.210296;0.5625105;3.411543;0.8779728;1.596831;2.337621;0.8867959;0.1428704;2.173973;1.210296;0.5625105;3.411543
868373.1798;NotLabelled;16384;0.7240443;-0.632964;0.2686981;-0.05401662;12;7;19;-1668;2274;897;65536;0.8399795;-0.5401662;0.04155125;-0.03047091;-19;-11;20;1177;3624;-2421;8192;0.5554016;-0.6168989;-0.4847645;-0.2756233;-1;0;2;602;4059;223;32768;0.7178939;-0.5429363;-0.33518;-0.2783934;5;-6;0;499;3981;-1130;256;-0.09418282;0.002770083;-0.9941589;-0.05263158;-11;18;11;1065;744;3819;128;0.1149584;-0.03047091;0.9878823;0.09972299;-1;4;-5;-589;1067;-3934;4;0.5335485;-0.4930748;0.4515235;0.5180055;7;9;-7;339;4004;46;16;-0.1495845;-0.9727045;-0.16759;0.05817174;-3;6;14;-1155;-1324;3648;2;0.3795014;-0.4072022;-0.4819945;-0.6766435;-7;8;0;-583;3912;-1315;8;-0.1024931;-0.9684511;0.2091413;-0.08864266;1;8;2;1417;-961;3627;1.19584;1.605985;2.277611;1.195512;1.576119;1.732882;1.195202;1.547848;1.254176;1.195561;1.627041;0.5246621;0.9368572;1.625494;0.1963059;0.5957702;1.674678;0.3425247;0.1647711;0.8551524;0.3733118;0;0;0;1.457196;1.623143;0.1963038;1.746328;1.669479;0.3425215;1.975541;0.7523925;0.5287724;2.10966;-0.16308;0.3245434;0.884028;1.604255;2.323464;0.8926191;0.1502762;2.159961;1.219528;0.5693319;3.396833;0.884028;1.604255;2.323464;0.8926191;0.1502762;2.159961;1.219528;0.5693319;3.396833
868393.4152;NotLabelled;16384;0.7212769;-0.6385041;0.2617728;-0.05955679;10;36;-6;-4306;4378;1351;65536;0.8381161;-0.5429363;0.04570637;-0.02631579;-4;-28;-9;1577;5288;-3745;8192;0.5554016;-0.6168989;-0.4847645;-0.2756233;-2;0;4;486;4169;241;32768;0.7189393;-0.5415512;-0.33518;-0.2783934;4;-3;-4;237;4045;-1090;256;-0.09556787;0.004155125;-0.9940218;-0.05263158;-10;21;10;749;680;3787;128;0.1163435;-0.03047091;0.9877201;0.09972299;0;10;-2;-395;925;-3948;4;0.533545;-0.4972299;0.4501385;0.5152354;9;4;-8;381;3996;210;16;-0.1495845;-0.9724629;-0.1703601;0.05401662;-3;9;14;-1443;-1232;3656;2;0.3795014;-0.4072022;-0.4819945;-0.6766435;-7;5;1;-633;4036;-1299;8;-0.1024931;-0.9687492;0.2077562;-0.08864266;2;10;2;1459;-1041;3655;1.194708;1.610809;2.270967;1.194397;1.582478;1.726156;1.194102;1.555555;1.247373;1.194442;1.632728;0.517642;0.9357331;1.630244;0.1892956;0.5946428;1.679795;0.3353822;0.1690209;0.8574593;0.3660494;0;0;0;1.456072;1.627951;0.189292;1.745201;1.674723;0.3353772;1.972316;0.7570536;0.5213214;2.105865;-0.1584191;0.3167199;0.8828949;1.608949;2.316806;0.8954979;0.1546452;2.15649;1.218334;0.5726507;3.394786;0.8828949;1.608949;2.316806;0.8954979;0.1546452;2.15649;1.218334;0.5726507;3.394786
868415.178;NotLabelled;16384;0.7190821;-0.6412742;0.2590028;-0.06786703;-3;20;-6;-3252;4342;1829;65536;0.837657;-0.5443213;0.0401662;-0.02077562;-15;2;-25;189;4116;-1925;8192;0.5554016;-0.615808;-0.4861496;-0.2756233;-4;-9;12;824;3821;589;32768;0.7187098;-0.5415512;-0.3379501;-0.2756233;2;-11;-8;189;3991;-1108;256;-0.09972299;0.009695291;-0.993853;-0.04709141;-6;2;2;-209;74;4367;128;0.1163435;-0.03185596;0.9878153;0.09833795;6;-5;1;379;765;-4374;4;0.5296422;-0.501385;0.4501385;0.5152354;14;0;-9;313;3964;56;16;-0.1495845;-0.9716262;-0.1759003;0.05124654;-3;16;11;-1395;-1292;3606;2;0.3822715;-0.4058172;-0.4861496;-0.6729335;-15;-3;3;-549;4018;-1151;8;-0.1024931;-0.9700464;0.2022161;-0.08725762;1;7;0;1443;-957;3645;1.192336;1.616848;2.255753;1.192025;1.588545;1.71094;1.19173;1.561646;1.232156;1.191869;1.63901;0.5024452;0.9331679;1.635936;0.1740978;0.5919496;1.684559;0.320197;0.171171;0.8600712;0.358852;0;0;0;1.453511;1.635;0.1740944;1.742517;1.682488;0.3201916;1.970719;0.764827;0.5048472;2.104497;-0.1498349;0.2967956;0.8805223;1.614987;2.301591;0.8986076;0.1599486;2.148628;1.213491;0.576385;3.389498;0.8805223;1.614987;2.301591;0.8986076;0.1599486;2.148628;1.213491;0.576385;3.389498
868457.181;NotLabelled;16384;0.7198073;-0.6412742;0.2562327;-0.07063711;-1;14;1;-1956;3568;1003;65536;0.8360432;-0.5470914;0.03739612;-0.01800554;-15;-17;-23;365;3654;-1443;8192;0.5554016;-0.6170403;-0.4861496;-0.2728532;-5;-10;19;918;3799;285;32768;0.7191141;-0.5415512;-0.3393352;-0.2728532;4;-12;-10;253;4033;-1074;256;-0.09972299;0.009695291;-0.9939176;-0.04570637;-5;-4;0;3;176;4463;128;0.1163435;-0.03047091;0.9879959;0.09695291;7;-11;0;193;851;-4358;4;0.5295045;-0.5027701;0.4487534;0.5152354;15;-2;-9;367;4058;-8;16;-0.1495845;-0.9711927;-0.1786704;0.04986149;-2;18;9;-1421;-1276;3610;2;0.3822715;-0.4044321;-0.4875346;-0.6727653;-18;-4;3;-479;3968;-1147;8;-0.1024931;-0.9703341;0.200831;-0.08725762;1;11;0;1429;-977;3709;1.186581;1.635239;2.248853;1.186255;1.605616;1.704111;1.185948;1.577557;1.225393;1.185255;1.647662;0.4949501;0.9266398;1.638306;0.166654;0.5848626;1.68439;0.3122691;0.1597733;0.8624957;0.3582877;0;0;0;1.446958;1.643446;0.1666506;1.735376;1.695755;0.3122637;1.966687;0.7785075;0.4950935;2.105655;-0.135605;0.2880363;0.8747685;1.633488;2.294705;0.9050897;0.1776893;2.151214;1.221731;0.5932822;3.391919;0.8747685;1.633488;2.294705;0.9050897;0.1776893;2.151214;1.221731;0.5932822;3.391919
868477.3324;NotLabelled;16384;0.7202989;-0.6412742;0.2548476;-0.07063711;4;10;6;-1258;3398;297;65536;0.8352754;-0.5484765;0.03601108;-0.01385042;-11;-24;-20;91;3870;-1421;8192;0.5540166;-0.6184098;-0.4875346;-0.2700831;-5;-15;23;944;3891;213;32768;0.719638;-0.5415512;-0.3393352;-0.2714681;5;-7;-16;211;4019;-1030;256;-0.09972299;0.008310249;-0.9939929;-0.04432133;-5;-4;-4;367;452;4249;128;0.1163435;-0.02908587;0.9881726;0.09556787;7;-8;2;-205;901;-4178;4;0.528186;-0.5041551;0.4487534;0.5152354;16;-2;-8;283;4086;-20;16;-0.1495845;-0.9704892;-0.1828255;0.04847645;0;18;7;-1557;-1170;3556;2;0.3836565;-0.4044321;-0.4889196;-0.6709694;-21;-5;2;-505;3926;-1111;8;-0.1024931;-0.9709033;0.1980609;-0.08725762;0;13;1;1503;-1005;3701;1.178901;1.64403;2.247792;1.178558;1.612714;1.703144;1.178233;1.583168;1.224515;1.177541;1.651258;0.4938815;0.9189381;1.640924;0.1656055;0.5771438;1.687314;0.3110834;0.1515794;0.8655257;0.3545226;0;0;0;1.439255;1.646208;0.1656024;1.727654;1.698999;0.3110782;1.962157;0.7830324;0.4962496;2.106372;-0.1304376;0.2899426;0.8670906;1.642422;2.293659;0.9018266;0.1867672;2.149709;1.213824;0.6019013;3.391742;0.8670906;1.642422;2.293659;0.9018266;0.1867672;2.149709;1.213824;0.6019013;3.391742
868498.1848;NotLabelled;16384;0.71693;-0.6468144;0.2506925;-0.06925207;21;-1;17;-2038;3630;475;65536;0.8344688;-0.5498615;0.03601108;-0.004155125;-1;-44;-11;169;3926;-1537;8192;0.5540166;-0.6208;-0.4875346;-0.2645429;-4;-17;17;782;4189;479;32768;0.7183214;-0.5429363;-0.3421052;-0.2686981;3;-10;-23;379;3991;-1244;256;-0.09833795;0.006925208;-0.9941415;-0.04432133;-5;-6;-5;433;558;4143;128;0.1163435;-0.02770083;0.9882123;0.09556787;7;-5;3;-455;765;-4208;4;0.525528;-0.5069252;0.4487534;0.5152354;17;-2;-7;259;4018;-118;16;-0.1481994;-0.9701759;-0.1855956;0.04847645;0;17;6;-1455;-1244;3534;2;0.3864266;-0.4044321;-0.4903047;-0.668364;-23;-7;1;-485;3944;-1097;8;-0.1024931;-0.9713082;0.1966759;-0.08587258;1;16;1;1519;-965;3681;1.170368;1.650988;2.248288;1.170006;1.61798;1.70374;1.169666;1.586948;1.225206;1.16916;1.652819;0.4943688;0.9105393;1.642129;0.1661177;0.5688577;1.689807;0.3114432;0.1446069;0.8672531;0.3532123;0;0;0;1.430868;1.646124;0.1661143;1.719393;1.698643;0.3114378;1.957745;0.7847447;0.5018394;2.103712;-0.1283723;0.2952026;0.8585595;1.649522;2.29417;0.8978708;0.193666;2.153465;1.204486;0.6083925;3.396974;0.8585595;1.649522;2.29417;0.8978708;0.193666;2.153465;1.204486;0.6083925;3.396974
868518.2904;NotLabelled;16384;0.7147647;-0.6509695;0.2479224;-0.06232687;19;-7;24;-2176;3866;1129;65536;0.8334119;-0.5512465;0.03878116;0.006925208;-11;-36;-12;371;3854;-1827;8192;0.5540166;-0.6243235;-0.4889196;-0.2534626;-15;-24;22;1540;3785;517;32768;0.7155064;-0.5484765;-0.3476454;-0.2576177;-7;-25;-26;-163;4017;-1146;256;-0.09556787;0;-0.9944965;-0.04293629;-1;-13;-6;95;208;4123;128;0.1149584;-0.02216066;0.988907;0.09141274;9;-7;4;209;595;-4166;4;-0.5152354;0.5124654;-0.4459834;-0.5225041;21;-6;-5;269;3942;-144;16;-0.1481994;-0.9688938;-0.1925208;0.04709141;1;13;3;-1561;-1290;3610;2;0.3905817;-0.4030471;-0.4944598;-0.6637082;-25;-14;2;-545;4120;-997;8;-0.1024931;-0.9726848;0.1897507;-0.08587258;2;22;3;1501;-1013;3663;1.148982;1.656567;2.241559;1.148618;1.623375;1.697023;1.148276;1.59218;1.218499;1.147944;1.657844;0.4876429;0.8892968;1.64774;0.1593938;0.5477415;1.696357;0.3047058;0.1330876;0.8692666;0.3527893;0;0;0;1.409634;1.650368;0.1593913;1.698296;1.70217;0.3047006;1.942507;0.7909333;0.5003664;2.095298;-0.122346;0.2994615;0.8371736;1.655116;2.287443;0.8860201;0.1989225;2.153385;1.18878;0.610267;3.398961;0.8371736;1.655116;2.287443;0.8860201;0.1989225;2.153385;1.18878;0.610267;3.398961
868559.1582;NotLabelled;16384;0.7143311;-0.6523545;0.2465374;-0.05817174;11;-9;22;-2084;3756;971;65536;0.8324492;-0.5526316;0.03878116;0.01108033;-14;-23;-13;273;3872;-1583;8192;0.5540166;-0.6254609;-0.4903047;-0.2479224;-13;-19;20;1544;3615;205;32768;0.7141861;-0.5512465;-0.3490305;-0.2534626;-3;-20;-27;-13;4023;-1108;256;-0.09418282;-0.001385042;-0.9946865;-0.04155125;-1;-17;-6;-31;158;4049;128;0.1149584;-0.02077562;0.9891893;0.08864266;11;-11;1;277;679;-4018;4;-0.5138504;0.5138504;-0.4459834;-0.5225078;22;-7;-5;283;4020;-172;16;-0.1468144;-0.9685501;-0.1952908;0.04709141;1;14;3;-1565;-1286;3578;2;0.3961219;-0.4044321;-0.4972299;-0.6574835;-25;-16;2;-333;4016;-807;8;-0.1024931;-0.9740102;0.1828255;-0.08587258;3;23;5;1357;-989;3657;1.12436;1.670568;2.23793;1.123938;1.632113;1.69374;1.123545;1.596293;1.21554;1.12406;1.65896;0.4844216;0.8652905;1.65094;0.1562111;0.5244145;1.704677;0.3013148;0.1231558;0.8711456;0.3517606;0;0;0;1.385617;1.646669;0.1562082;1.674945;1.695234;0.3013104;1.932865;0.7899793;0.5068972;2.104568;-0.123436;0.3225638;0.8125563;1.669561;2.283859;0.9002638;0.2149724;2.152186;1.188982;0.6259917;3.4012;0.8125563;1.669561;2.283859;0.9002638;0.2149724;2.152186;1.188982;0.6259917;3.4012
868580.1687;NotLabelled;16384;0.7145513;-0.6523545;0.2465374;-0.05540166;9;-11;20;-1946;3600;687;65536;0.8315499;-0.5540166;0.03739612;0.01385042;-14;-15;-15;271;3906;-1639;8192;0.5540166;-0.6265519;-0.4903047;-0.2451524;-10;-21;17;1372;3719;71;32768;0.7128256;-0.5540166;-0.3504155;-0.2493075;0;-17;-29;-95;4049;-1030;256;-0.09279778;-0.004155125;-0.9948089;-0.04155125;0;-19;-6;-35;212;3973;128;0.1149584;-0.01939058;0.9893405;0.08725762;10;-14;0;315;611;-4056;4;-0.5110803;0.5166205;-0.4445983;-0.5236722;23;-6;-5;329;4034;-306;16;-0.1468144;-0.9682699;-0.1966759;0.04709141;0;13;3;-1521;-1226;3570;2;0.398892;-0.4044321;-0.5;-0.6536971;-26;-14;2;-289;4008;-751;8;-0.1024931;-0.974781;0.1786704;-0.08587258;4;26;5;1397;-947;3777;1.111385;1.683012;2.242598;1.110929;1.641371;1.698642;1.110505;1.602752;1.220661;1.111146;1.663218;0.4893565;0.8523489;1.654825;0.161178;0.5116059;1.709808;0.3061271;0.1172358;0.8726299;0.3500997;0;0;0;1.372664;1.649318;0.161176;1.662111;1.697631;0.3061245;1.927318;0.7945046;0.5118008;2.104898;-0.1192148;0.3346828;0.7995845;1.682274;2.288553;0.8923119;0.2276752;2.160483;1.177219;0.6352959;3.411482;0.7995845;1.682274;2.288553;0.8923119;0.2276752;2.160483;1.177219;0.6352959;3.411482
868600.1575;NotLabelled;16384;0.7133744;-0.6551247;0.2437673;-0.04986149;14;-2;17;-1690;3418;357;65536;0.8287758;-0.5581717;0.03462604;0.01939058;-12;-16;-20;243;3802;-1583;8192;0.5540166;-0.6281618;-0.4903047;-0.2409972;-9;-19;15;1448;3747;195;32768;0.7113426;-0.5554016;-0.3531856;-0.2465374;1;-14;-31;-105;4031;-1054;256;-0.09279778;-0.006925208;-0.9947935;-0.04155125;0;-17;-6;-1;172;3961;128;0.1149584;-0.01800554;0.9894879;0.08587258;10;-12;1;179;581;-4060;4;-0.5083103;0.5180055;-0.4432133;-0.5261682;25;-6;-5;263;4084;-410;16;-0.1468144;-0.967703;-0.199446;0.04709141;0;14;2;-1605;-1244;3584;2;0.4016621;-0.4044321;-0.501385;-0.6509342;-26;-11;0;-259;4022;-731;8;-0.1024931;-0.9755334;0.1745152;-0.08587258;3;24;5;1269;-991;3807;1.10102;1.686056;2.236765;1.100544;1.642734;1.692941;1.100104;1.602637;1.215081;1.101065;1.662736;0.4837469;0.8422222;1.655577;0.1555743;0.5017825;1.712471;0.3004987;0.1105895;0.8740383;0.3487471;0;0;0;1.3625;1.647262;0.1555709;1.652205;1.694085;0.3004935;1.920655;0.7936302;0.5135485;2.104107;-0.120315;0.3437326;0.78922;1.68546;2.282732;0.8946879;0.2314861;2.157451;1.175268;0.639172;3.409407;0.78922;1.68546;2.282732;0.8946879;0.2314861;2.157451;1.175268;0.639172;3.409407
868621.4012;NotLabelled;16384;0.7102901;-0.6592798;0.2423823;-0.04570637;13;-4;14;-1782;3672;529;65536;0.8269185;-0.5609418;0.03047091;0.02493075;-10;-8;-23;85;3836;-1643;8192;0.5540166;-0.6317278;-0.4916897;-0.2285319;-12;-18;15;1874;3613;607;32768;0.7081153;-0.5595568;-0.3614958;-0.234072;1;-18;-29;-385;3929;-1194;256;-0.09141274;-0.01108033;-0.9948841;-0.04155125;0;-14;-6;153;174;3995;128;0.1149584;-0.01385042;0.9897912;0.08310249;10;-8;2;61;523;-4132;4;-0.5;0.5249307;-0.4390582;-0.5307313;25;-5;-3;251;4076;-584;16;-0.1454294;-0.9664593;-0.2063712;0.04709141;1;10;3;-1543;-1218;3530;2;0.4058172;-0.4016621;-0.5055401;-0.6468456;-25;-7;-1;-289;3998;-591;8;-0.1038781;-0.9766006;0.16759;-0.08587258;2;21;5;1311;-989;3831;1.077271;1.695308;2.228192;1.076777;1.650306;1.684505;1.076321;1.608734;1.20677;1.077604;1.668454;0.4754062;0.8187228;1.662556;0.1472397;0.4786036;1.721398;0.2921381;0.09863369;0.8779422;0.3424702;0;0;0;1.338947;1.651373;0.1472362;1.628907;1.696671;0.2921327;1.902245;0.7984315;0.5082949;2.091876;-0.1152778;0.3440895;0.7654729;1.694854;2.274171;0.8824502;0.2418936;2.147368;1.161611;0.6497065;3.3996;0.7654729;1.694854;2.274171;0.8824502;0.2418936;2.147368;1.161611;0.6497065;3.3996
868642.1588;NotLabelled;16384;0.709647;-0.6606648;0.2409972;-0.04293629;12;-7;16;-1618;3706;597;65536;0.8270183;-0.5609418;0.02631579;0.02631579;-9;-5;-22;147;3830;-1537;8192;0.5554016;-0.6309211;-0.4930748;-0.2243767;-15;-19;14;1652;3723;619;32768;0.7065722;-0.5623268;-0.3628809;-0.2299169;-1;-23;-28;-331;3977;-1296;256;-0.0900277;-0.01523546;-0.9948967;-0.04293629;2;-16;-5;95;84;3909;128;0.1149584;-0.01108033;0.9901662;0.07894737;12;-7;2;181;533;-4050;4;-0.4972299;0.5277008;-0.4376731;-0.5317297;24;-4;-3;195;4028;-570;16;-0.1454294;-0.9661626;-0.2077562;0.04709141;0;10;3;-1563;-1266;3572;2;0.4085872;-0.400277;-0.5083103;-0.6437821;-25;-6;0;-411;3978;-579;8;-0.1038781;-0.9773046;0.1634349;-0.08587258;2;19;4;1237;-1019;3815;1.053042;1.704335;2.22539;1.05251;1.655801;1.682006;1.05202;1.611126;1.204552;1.053686;1.670308;0.4731447;0.7947179;1.666286;0.1450178;0.4551104;1.728004;0.2899207;0.08422644;0.880486;0.3397766;0;0;0;1.314833;1.65086;0.1449518;1.605174;1.693896;0.2897754;1.894037;0.8015819;0.5102494;2.107719;-0.1096475;0.3626398;0.7412478;1.70418;2.271394;0.8944466;0.2542183;2.148919;1.167984;0.6588135;3.403433;0.7412478;1.70418;2.271394;0.8944466;0.2542183;2.148919;1.167984;0.6588135;3.403433
868683.1826;NotLabelled;16384;0.7102779;-0.6606648;0.2396122;-0.0401662;12;-10;15;-1354;3786;591;65536;0.8261154;-0.5623268;0.0235457;0.02770083;-7;-4;-21;-11;3790;-1595;8192;0.5554016;-0.6323834;-0.4930748;-0.2202216;-15;-18;15;1794;3649;475;32768;0.705821;-0.5637119;-0.365651;-0.2243767;0;-20;-27;-423;3965;-1118;256;-0.08864266;-0.0166205;-0.9949989;-0.04293629;2;-12;-6;-11;134;3893;128;0.1149584;-0.01108033;0.9902757;0.07756232;10;-3;2;331;511;-4080;4;-0.4944598;0.5290859;-0.4362881;-0.5340696;22;-4;-2;175;4056;-612;16;-0.1440443;-0.9660712;-0.2091413;0.04709141;0;13;4;-1583;-1248;3590;2;0.4155124;-0.398892;-0.5138504;-0.6357613;-21;-11;-2;-253;3954;-435;8;-0.1038781;-0.9784375;0.1565097;-0.08587258;0;21;0;997;-881;3753;1.037421;1.708558;2.219935;1.036835;1.655176;1.677007;1.036298;1.606239;1.199971;1.038608;1.666918;0.4686877;0.7796815;1.665752;0.1405057;0.4405759;1.730024;0.2854737;0.07534491;0.8804651;0.3419097;0;0;0;1.299649;1.645954;0.1405025;1.590312;1.686248;0.2854685;1.887313;0.7978789;0.5110035;2.106794;-0.1131803;0.3710476;0.7256307;1.708814;2.265969;0.8913512;0.2599491;2.146862;1.160221;0.6646038;3.402367;0.7256307;1.708814;2.265969;0.8913512;0.2599491;2.146862;1.160221;0.6646038;3.402367
868704.1567;NotLabelled;16384;0.7088464;-0.6634349;0.2368421;-0.03601108;9;4;13;-1244;3892;627;65536;0.8242941;-0.5650969;0.0166205;0.03047091;-11;9;-17;-21;3898;-1549;8192;0.5554016;-0.6322605;-0.4944598;-0.2174515;-12;-12;12;1898;3549;267;32768;0.7048692;-0.5650969;-0.367036;-0.2216066;2;-12;-27;-453;3989;-1044;256;-0.08725762;-0.01939058;-0.9950712;-0.04293629;3;-11;-5;57;186;4045;128;0.1149584;-0.01108033;0.9904887;0.07479224;9;-1;2;287;579;-4004;4;-0.4916897;0.5304709;-0.434903;-0.5363778;20;-2;-2;215;4082;-652;16;-0.1440443;-0.9654674;-0.2119114;0.04709141;0;15;3;-1725;-1212;3564;2;0.4182825;-0.3975069;-0.5152354;-0.633688;-18;-6;-3;-271;3986;-419;8;-0.1038781;-0.9789971;0.1537396;-0.08448754;0;20;-1;1011;-881;3859;1.0256;1.713359;2.224699;1.024998;1.658478;1.681919;1.024446;1.608225;1.20502;1.026851;1.668761;0.4737251;0.7678927;1.668218;0.1455668;0.4289712;1.733413;0.2905527;0.06808084;0.8815966;0.3405128;0;0;0;1.287806;1.647046;0.1455206;1.578588;1.686599;0.2904531;1.879316;0.7999909;0.5179693;2.108749;-0.1094874;0.3838142;0.7138114;1.713742;2.27074;0.8911496;0.2663181;2.150843;1.156911;0.6675103;3.408121;0.7138114;1.713742;2.27074;0.8911496;0.2663181;2.150843;1.156911;0.6675103;3.408121
868724.3612;NotLabelled;16384;0.7098348;-0.6634349;0.234072;-0.03462604;6;0;12;-1392;3806;513;65536;0.8233941;-0.566482;0.01385042;0.03047091;-9;5;-15;-81;3892;-1507;8192;0.5554016;-0.6330565;-0.4958449;-0.2119114;-8;-8;9;2018;3531;435;32768;0.7018731;-0.567867;-0.3725762;-0.2146814;5;-7;-26;-521;3965;-1142;256;-0.08725762;-0.01939058;-0.9950712;-0.04293629;4;-10;-3;-53;240;4067;128;0.1149584;-0.01108033;0.9904887;0.07479224;5;-11;1;285;609;-4102;4;-0.4875346;0.534626;-0.432133;-0.5382807;18;-1;0;207;4170;-762;16;-0.1440443;-0.964546;-0.2160665;0.04709141;1;12;0;-1693;-1266;3560;2;0.4196676;-0.3961219;-0.5166205;-0.6325108;-17;-6;-3;-291;4018;-327;8;-0.1052632;-0.9792802;0.1509695;-0.08448754;0;17;-3;1025;-1013;3779;0.9993726;1.722026;2.216532;0.9987376;1.664151;1.674063;0.9981573;1.611268;1.197449;1.000936;1.671487;0.4661295;0.7419987;1.672207;0.1379543;0.4034251;1.739292;0.2828912;0.05230463;0.8837065;0.3378217;0;0;0;1.26179;1.648228;0.1379516;1.552772;1.686269;0.2828865;1.858683;0.8024682;0.51438;2.092883;-0.1065053;0.3851296;0.6875866;1.722664;2.26259;0.8765326;0.2767633;2.142049;1.137296;0.6780723;3.400334;0.6875866;1.722664;2.26259;0.8765326;0.2767633;2.142049;1.137296;0.6780723;3.400334
868766.1623;NotLabelled;16384;0.7078837;-0.666205;0.232687;-0.03047091;7;-4;12;-1410;3796;319;65536;0.8225141;-0.567867;0.008310249;0.03047091;-6;1;-12;-155;3926;-1509;8192;0.5540166;-0.6339241;-0.4986149;-0.2063712;-8;-8;11;2160;3513;665;32768;0.7009939;-0.567867;-0.3781163;-0.2077562;4;-7;-18;-653;3929;-1154;256;-0.08725762;-0.0235457;-0.9949208;-0.04432133;4;-12;-2;-107;228;3985;128;0.1135734;-0.006925208;0.9907898;0.0734072;0;-13;1;409;613;-4134;4;-0.4847645;0.5373961;-0.4293629;-0.5402372;12;-2;0;89;4108;-840;16;-0.1440443;-0.9636058;-0.2202216;0.04709141;0;10;0;-1753;-1244;3538;2;0.4238227;-0.3933518;-0.5207756;-0.6280457;-7;3;-2;-439;3896;-207;8;-0.1052632;-0.9809869;0.1426593;-0.07894737;-1;12;-8;1059;-1107;3835;0.9901035;1.725065;2.217753;0.9894686;1.66719;1.675285;0.9888883;1.614307;1.19867;0.9916666;1.674526;0.4673506;0.7327297;1.675246;0.1391752;0.394156;1.74233;0.2841122;0.04745702;0.8847439;0.3358166;0;0;0;1.252521;1.651266;0.1391725;1.543503;1.689307;0.2841074;1.85801;0.8093674;0.5187682;2.105973;-0.09751821;0.4010326;0.6783175;1.725703;2.263811;0.8867424;0.2822657;2.145877;1.145804;0.6837442;3.40446;0.6783175;1.725703;2.263811;0.8867424;0.2822657;2.145877;1.145804;0.6837442;3.40446
868786.1632;NotLabelled;16384;0.7083956;-0.666205;0.2313019;-0.02908587;6;-1;11;-1404;3856;437;65536;0.8215795;-0.5692521;0.005540166;0.03047091;-6;2;-12;-1;3858;-1437;8192;0.5540166;-0.6348191;-0.4986149;-0.2036011;-9;-14;12;2076;3633;679;32768;0.6999367;-0.5692521;-0.3795014;-0.2049861;4;-10;-16;-693;3917;-1180;256;-0.08587258;-0.02493075;-0.9949449;-0.04570637;3;-11;-2;-59;288;4001;128;0.1135734;-0.006925208;0.9907898;0.0734072;3;-7;3;363;611;-4020;4;-0.4833795;0.5373961;-0.4279778;-0.5425723;10;-3;1;117;4136;-966;16;-0.1440443;-0.9632195;-0.2216066;0.04847645;0;7;-1;-1769;-1304;3508;2;0.4238227;-0.3933518;-0.5207756;-0.6280457;-1;4;1;-511;3934;-177;8;-0.1066482;-0.9811482;0.1412742;-0.07756232;-1;10;-9;1101;-987;3861;0.9712811;1.725915;2.211892;0.9706237;1.666024;1.669643;0.970024;1.61137;1.193228;0.9733973;1.67307;0.4620349;0.7145129;1.676671;0.1338371;0.3765064;1.746337;0.2788799;0.03824937;0.8856382;0.3346317;0;0;0;1.234081;1.648265;0.1338343;1.52536;1.683529;0.2788752;1.848951;0.8085477;0.5196475;2.112292;-0.09468222;0.4073324;0.659497;1.726723;2.25796;0.8829117;0.2855963;2.139232;1.139789;0.6872363;3.398211;0.659497;1.726723;2.25796;0.8829117;0.2855963;2.139232;1.139789;0.6872363;3.398211
868807.1732;NotLabelled;16384;0.708099;-0.66759;0.2285319;-0.02631579;3;-3;8;-1410;3774;357;65536;0.8206368;-0.5706371;0;0.03047091;-4;2;-11;-111;3932;-1403;8192;0.5540166;-0.6350487;-0.5;-0.199446;-8;-12;12;2080;3523;615;32768;0.6995886;-0.5692521;-0.3808864;-0.2036011;2;-11;-13;-621;3825;-1182;256;-0.08587258;-0.02631579;-0.9949092;-0.04570637;3;-11;-2;-17;306;3869;128;0.1121884;-0.005540166;0.9909563;0.0734072;4;-8;4;361;651;-4002;4;-0.4819945;0.5387812;-0.4279778;-0.5424308;8;-5;2;7;4186;-1024;16;-0.1440443;-0.9628998;-0.2229917;0.04847645;0;7;-2;-1791;-1274;3496;2;0.4238227;-0.3933518;-0.5221606;-0.6268947;1;1;2;-599;3966;-53;8;-0.1066482;-0.9815617;0.1398892;-0.07479224;0;13;-10;929;-925;3829;0.9620218;1.724118;2.212288;0.9613645;1.664227;1.670039;0.9607647;1.609573;1.193624;0.9644251;1.67317;0.4625949;0.7056015;1.678372;0.134371;0.3677751;1.748632;0.279547;0.03242164;0.8866282;0.3326184;0;0;0;1.225086;1.648473;0.1343678;1.516443;1.68252;0.279542;1.842729;0.8092487;0.5228722;2.110714;-0.09323311;0.4156448;0.6502377;1.724927;2.258357;0.8806822;0.2852423;2.135621;1.13673;0.6877353;3.394497;0.6502377;1.724927;2.258357;0.8806822;0.2852423;2.135621;1.13673;0.6877353;3.394497
868827.2987;NotLabelled;16384;0.7081491;-0.66759;0.2285319;-0.02493075;2;-4;8;-1170;3832;361;65536;0.8206368;-0.5706371;0;0.03047091;-2;1;-9;-181;3908;-1421;8192;0.5540166;-0.6356723;-0.501385;-0.1939058;-6;-8;15;2004;3505;579;32768;0.6989014;-0.5706371;-0.3822715;-0.199446;3;-8;-7;-757;3871;-1094;256;-0.08587258;-0.02770083;-0.994807;-0.04709141;2;-11;-4;3;374;3885;128;0.1121884;-0.005540166;0.9909563;0.0734072;2;-14;6;447;681;-4008;4;-0.4792244;0.5387812;-0.4279778;-0.5448797;1;-15;3;93;4284;-1014;16;-0.1440443;-0.9625072;-0.2243767;0.04986149;0;4;-6;-1797;-1208;3448;2;0.4238227;-0.3933518;-0.5221606;-0.6268947;2;-2;2;-597;4014;23;8;-0.1066482;-0.982057;0.1371191;-0.0734072;0;18;-11;833;-851;3871;0.9453567;1.726593;2.211052;0.9446977;1.666536;1.668821;0.9440964;1.611735;1.192423;0.9479221;1.675156;0.4613791;0.6891091;1.680997;0.1331574;0.35148;1.752222;0.2783219;0.02331065;0.8874457;0.3312002;0;0;0;1.208509;1.649664;0.1331546;1.499961;1.682941;0.2783164;1.833154;0.8128812;0.5237833;2.104523;-0.08876324;0.4180319;0.6335728;1.727416;2.257121;0.8684238;0.2881337;2.138083;1.123766;0.6906831;3.397083;0.6335728;1.727416;2.257121;0.8684238;0.2881337;2.138083;1.123766;0.6906831;3.397083
868848.1674;NotLabelled;16384;0.708642;-0.66759;0.2271468;-0.0235457;2;-1;9;-1132;3902;351;65536;0.8206322;-0.5706371;-0.002770083;0.03047091;-2;3;-7;-195;3868;-1497;8192;0.5526316;-0.6366221;-0.5027701;-0.1911357;-4;-12;16;1952;3537;525;32768;0.6992952;-0.5706371;-0.3822715;-0.1980609;4;-4;-5;-725;3949;-996;256;-0.08448754;-0.02908587;-0.994886;-0.04709141;2;-11;-5;7;354;3977;128;0.1108033;-0.002770083;0.9911238;0.0734072;0;-28;6;613;687;-3850;4;-0.4778393;0.5373961;-0.4293629;-0.5463721;-2;-15;2;225;4202;-1078;16;-0.1454294;-0.9619749;-0.2257618;0.04986149;0;3;-5;-1817;-1298;3598;2;0.4238227;-0.3933518;-0.5221606;-0.6268947;4;-3;2;-635;4026;123;8;-0.1052632;-0.9827921;0.134349;-0.07063711;0;20;-10;761;-757;3905;0.9430628;1.723154;2.211132;0.9424038;1.663096;1.668901;0.9418026;1.608295;1.192503;0.9459355;1.673557;0.4616227;0.6871938;1.681004;0.1333771;0.349756;1.752871;0.2786698;0.02324622;0.8874462;0.3312041;0;0;0;1.206497;1.648116;0.1333737;1.498025;1.680152;0.2786646;1.839811;0.8142469;0.5269897;2.117264;-0.08601451;0.4253213;0.6312789;1.723976;2.257201;0.8733783;0.2859941;2.136973;1.131373;0.689409;3.395155;0.6312789;1.723976;2.257201;0.8733783;0.2859941;2.136973;1.131373;0.689409;3.395155
868888.6268;NotLabelled;16384;0.7078227;-0.6689751;0.2257618;-0.02216066;1;-2;9;-1300;3848;407;65536;0.8206263;-0.5706371;-0.004155125;0.03047091;-1;1;-5;-123;3898;-1479;8192;0.5512465;-0.6386454;-0.5027701;-0.1883656;-1;-18;12;1858;3655;511;32768;0.6989275;-0.5706371;-0.3836565;-0.1966759;4;-2;-7;-683;3965;-1054;256;-0.08171745;-0.03185596;-0.9949661;-0.04847645;7;-14;-10;-91;460;3859;128;0.1066482;0.004155125;0.9913657;0.07617728;-7;-38;9;499;895;-4174;4;-0.4764543;0.5373961;-0.4293629;-0.5475804;-5;-13;0;269;4200;-1104;16;-0.1454294;-0.9619021;-0.2257618;0.05124654;-2;2;-5;-1643;-1394;3746;2;0.4252077;-0.3933518;-0.5221606;-0.6259561;5;-4;2;-539;3952;337;8;-0.1052632;-0.9834497;0.1301939;-0.06925207;0;18;-10;869;-871;3943;0.9345542;1.723426;2.214489;0.9338915;1.66304;1.672295;0.9332869;1.607951;1.195931;0.9375854;1.673102;0.4650417;0.6788613;1.681187;0.1367972;0.3416155;1.753963;0.2820833;0.01803869;0.8872809;0.3319695;0;0;0;1.198076;1.646932;0.136794;1.489689;1.678218;0.2820779;1.834724;0.8151724;0.5358045;2.114228;-0.08451164;0.4346428;0.6227708;1.724277;2.26056;0.8650071;0.2863312;2.140169;1.117754;0.6933126;3.398267;0.6227708;1.724277;2.26056;0.8650071;0.2863312;2.140169;1.117754;0.6933126;3.398267
868910.401;NotLabelled;16384;0.7096862;-0.66759;0.2243767;-0.01800554;0;-8;4;-1298;3906;605;65536;0.8196931;-0.5720221;-0.006925208;0.02908587;-1;1;-3;-163;3910;-1445;8192;0.5526316;-0.6416212;-0.5;-0.1814404;-4;-36;7;2172;3891;817;32768;0.6985692;-0.5720221;-0.3836565;-0.1939058;-2;-17;-8;-589;4043;-1064;256;-0.07617728;-0.03462604;-0.995102;-0.05263158;10;-16;-12;-51;552;4071;128;0.1024931;0.01108033;0.991534;0.07894737;-2;-23;16;413;1047;-4536;4;-0.4750692;0.534626;-0.433518;-0.5482211;-14;-16;-6;277;4250;-1122;16;-0.1481994;-0.9614044;-0.2257618;0.05263158;-12;2;0;-1793;-1580;3768;2;0.4238227;-0.3961219;-0.5221606;-0.6251481;15;11;9;-579;3944;343;8;-0.1038781;-0.9844216;0.1260388;-0.06509695;6;7;-1;905;-939;3977;0.9256077;1.715046;2.215386;0.9249696;1.656889;1.672948;0.9243866;1.603758;1.196361;0.9291744;1.670723;0.465639;0.6705578;1.681056;0.1373732;0.3336906;1.755318;0.2827855;0.01395751;0.8871946;0.3323965;0;0;0;1.189577;1.643947;0.13737;1.481331;1.673265;0.2827808;1.826978;0.8124707;0.5432334;2.11042;-0.08632827;0.4452109;0.613822;1.715707;2.261446;0.8603556;0.2784221;2.141898;1.109174;0.6862171;3.400517;0.613822;1.715707;2.261446;0.8603556;0.2784221;2.141898;1.109174;0.6862171;3.400517
868931.1596;NotLabelled;16384;0.7092806;-0.66759;0.2257618;-0.0166205;1;-10;5;-1320;3868;553;65536;0.8196802;-0.5720221;-0.008310249;0.02908587;-2;1;-1;-153;3904;-1389;8192;0.5526316;-0.6464244;-0.4972299;-0.1717452;-2;-34;16;2296;3415;827;32768;0.6981956;-0.5747922;-0.3822715;-0.1897507;-6;-17;-1;-1065;3775;-1422;256;-0.07479224;-0.03601108;-0.9950075;-0.05540166;9;-17;-13;207;634;4117;128;0.09833795;0.01385042;0.9918087;0.08033241;-3;-26;18;435;1101;-4418;4;-0.4736842;0.533241;-0.4390582;-0.5463564;-20;-3;-18;275;4296;-930;16;-0.1537396;-0.9602824;-0.2271468;0.05124654;-24;4;0;-1875;-2158;3810;2;0.4210526;-0.3947368;-0.5235457;-0.6267355;10;21;10;-781;3982;27;8;-0.1024931;-0.9847431;0.1246537;-0.06509695;4;11;5;1235;-829;4121;0.9120047;1.703097;2.22165;0.9113919;1.647245;1.678969;0.9108311;1.59614;1.202161;0.9164633;1.669133;0.4720222;0.6581191;1.683644;0.1437001;0.3215825;1.758596;0.2895236;0.006783083;0.8881952;0.3299403;0;0;0;1.176909;1.643612;0.1436079;1.46873;1.67008;0.2894292;1.81754;0.8121063;0.5549256;2.104753;-0.08612502;0.4628522;0.6002058;1.703562;2.267608;0.8409945;0.2648348;2.153836;1.076542;0.6804475;3.41245;0.6002058;1.703562;2.267608;0.8409945;0.2648348;2.153836;1.076542;0.6804475;3.41245
868952.1712;NotLabelled;16384;0.7106411;-0.666205;0.2257618;-0.01385042;1;-16;7;-1322;3908;547;65536;0.819713;-0.5720221;-0.009695291;0.02770083;-1;-3;0;-163;3908;-1349;8192;0.5512465;-0.6486935;-0.4972299;-0.16759;0;-19;18;2190;3173;785;32768;0.698186;-0.5761772;-0.3808864;-0.1883656;-5;-11;2;-1067;3669;-1176;256;-0.0734072;-0.03739612;-0.9949815;-0.0567867;4;-12;-16;333;786;4329;128;0.09556787;0.0166205;0.9919238;0.08171745;-5;-22;19;251;1115;-4292;4;-0.4736842;0.534626;-0.4432133;-0.5416275;-21;6;-26;51;4328;-864;16;-0.1578947;-0.9596079;-0.2271468;0.05124654;-24;-1;-8;-1611;-2638;3654;2;0.4182825;-0.3947368;-0.5249307;-0.6274315;6;18;13;-821;3964;99;8;-0.1024931;-0.9849175;0.1232687;-0.06509695;-1;0;11;1635;-781;4169;0.9078069;1.693839;2.221344;0.9072083;1.639292;1.678531;0.90666;1.589332;1.201601;0.9128318;1.666281;0.4718727;0.6546761;1.683361;0.1435261;0.3183042;1.758537;0.2896145;0.003618076;0.8881048;0.330233;0;0;0;1.173354;1.641759;0.1435226;1.46519;1.666548;0.2896092;1.821522;0.8137511;0.5617152;2.110994;-0.08422029;0.4743024;0.5960179;1.694194;2.267384;0.8276507;0.2530617;2.165685;1.051066;0.6818997;3.422073;0.5960179;1.694194;2.267384;0.8276507;0.2530617;2.165685;1.051066;0.6818997;3.422073
868973.1716;NotLabelled;16384;0.7106667;-0.666205;0.2257618;-0.01246537;3;-16;5;-1084;3774;551;65536;0.819713;-0.5720221;-0.009695291;0.02770083;0;-4;1;-171;3856;-1421;8192;0.5498615;-0.650576;-0.4972299;-0.1648199;5;-10;14;1654;3277;727;32768;0.698186;-0.5761772;-0.3808864;-0.1883656;-5;-2;0;-629;3765;-1022;256;-0.06648199;-0.04155125;-0.9951415;-0.05955679;-1;-8;-18;27;1234;4341;128;0.08864266;0.02216066;0.9922264;0.08448754;-3;-16;20;-351;1287;-4220;4;0.4736842;-0.5393488;0.4459834;0.534626;-22;13;-35;-25;4280;-910;16;-0.1620499;-0.959242;-0.2257618;0.05124654;-27;-7;-12;-2647;-3058;3724;2;0.4113573;-0.3961219;-0.5263157;-0.6299717;13;17;21;-649;3936;-1049;8;-0.1038781;-0.9832264;0.132964;-0.06925207;0;-40;11;1091;-965;3767;0.9031924;1.688306;2.226064;0.9026079;1.635053;1.683123;0.9020722;1.586231;1.206076;0.9086232;1.665124;0.4765582;0.6505898;1.683813;0.1482031;0.3143982;1.759542;0.2944206;0.001968496;0.8880893;0.3302878;0;0;0;1.169149;1.640752;0.1481996;1.461021;1.664327;0.2944152;1.820435;0.8148464;0.5727665;2.109498;-0.08344924;0.4873549;0.5914022;1.688551;2.272097;0.8146523;0.2449886;2.18756;1.031163;0.6842831;3.441542;0.5914022;1.688551;2.272097;0.8146523;0.2449886;2.18756;1.031163;0.6842831;3.441542
869014.1584;NotLabelled;16384;0.7102684;-0.666205;0.2271468;-0.009695291;4;-3;-3;-1050;3902;737;65536;0.8187904;-0.5734072;-0.009695291;0.02631579;-3;0;3;-169;3846;-1443;8192;0.5498615;-0.6509253;-0.4972299;-0.1634349;13;-11;7;1412;3745;767;32768;0.6966649;-0.5775623;-0.3808864;-0.1897507;-8;5;-3;-419;3837;-1184;256;-0.06371191;-0.04155125;-0.9954046;-0.05817174;-7;0;-18;65;1344;4257;128;0.08448754;0.0235457;0.9923173;0.08725762;-5;-12;18;-305;1263;-3874;4;0.4736842;-0.5413564;0.4501385;0.5290859;-22;16;-47;-693;4276;-720;16;-0.16759;-0.9583837;-0.2243767;0.05540166;-26;-6;-38;-1089;-5542;3280;2;0.4072022;-0.398892;-0.5263157;-0.6309226;20;7;23;-639;3914;-1145;8;-0.1038781;-0.9823626;0.1385041;-0.07063711;0;-30;7;729;-967;3787;0.8952852;1.674119;2.230663;0.8947303;1.623558;1.687464;0.8942203;1.577101;1.21018;0.9017664;1.660028;0.4811204;0.6440562;1.682594;0.1527546;0.3083981;1.760154;0.2992375;-0.002839837;0.8880893;0.3302818;0;0;0;1.162259;1.635441;0.1527516;1.454234;1.655891;0.299233;1.811646;0.8088185;0.5873312;2.101921;-0.08947742;0.5061364;0.5834925;1.674136;2.27668;0.8034258;0.2287745;2.218217;0.999229;0.6784545;3.471924;0.5834925;1.674136;2.27668;0.8034258;0.2287745;2.218217;0.999229;0.6784545;3.471924
869035.1656;NotLabelled;16384;0.7098564;-0.666205;0.2285319;-0.006925208;6;-15;-5;-1008;3908;767;65536;0.8178774;-0.5747922;-0.008310249;0.02493075;-6;-6;9;-103;3854;-1439;8192;0.5443213;-0.6562672;-0.4958449;-0.1648199;21;-10;7;2244;3375;1281;32768;0.6916823;-0.5789474;-0.3850415;-0.1952908;-24;2;-2;-881;3615;-1444;256;-0.05817174;-0.03739612;-0.9958265;-0.05955679;-4;8;-18;153;892;3933;128;0.07894737;0.02770083;0.9922922;0.09141274;-7;-14;14;-233;1177;-3786;4;0.4626039;-0.559622;0.4778393;0.4944598;-50;-5;-129;-2703;4172;462;16;-0.1911357;-0.9569174;-0.2063712;0.07202215;-41;-58;-54;-605;-4686;2886;2;0.4030471;-0.4058172;-0.5235457;-0.6314787;11;-15;23;-857;4114;-765;8;-0.1038781;-0.9821663;0.1398892;-0.07063711;1;2;-7;453;-1021;3811;0.8927253;1.672641;2.226415;0.8922037;1.625109;1.682943;0.8917232;1.581315;1.205407;0.899386;1.66241;0.4761425;0.6417356;1.684024;0.1476659;0.3060084;1.761789;0.2938815;-0.003709782;0.8892639;0.3270984;0;0;0;1.159962;1.637123;0.1478928;1.451894;1.658084;0.2943851;1.807608;0.8136055;0.5920415;2.09564;-0.08585763;0.5159396;0.5809298;1.672401;2.272412;0.7919979;0.2250535;2.233751;0.9874847;0.6909738;3.481561;0.5809298;1.672401;2.272412;0.7919979;0.2250535;2.233751;0.9874847;0.6909738;3.481561
869075.1644;NotLabelled;16384;0.7089708;-0.666205;0.2313019;-0.005540166;8;-15;-7;-920;3880;739;65536;0.8178902;-0.5747922;-0.006925208;0.02493075;-9;-4;10;-195;3874;-1459;8192;0.5429363;-0.6577591;-0.4958449;-0.1634349;19;-15;8;2376;3397;1297;32768;0.6889604;-0.5817174;-0.3850415;-0.1966759;-29;-3;1;-1061;3835;-1440;256;-0.05124654;-0.03601108;-0.9963399;-0.05817174;-5;0;-19;133;730;3563;128;0.07756232;0.02908587;0.9921027;0.09418282;-7;-14;14;-339;1157;-3594;4;0.4556787;-0.5641354;0.4930748;0.4806094;-49;-27;-144;-2257;5244;746;16;-0.1980609;-0.9575126;-0.1952908;0.07617728;-28;-63;-42;-835;-4092;3186;2;0.4030471;-0.4099723;-0.5221606;-0.6299397;12;-22;26;-707;4070;-753;8;-0.1038781;-0.9824613;0.1385041;-0.06925207;-1;5;-14;711;-973;3909;0.892386;1.668235;2.228286;0.8919123;1.625094;1.684447;0.8914739;1.585157;1.206574;0.8983226;1.669005;0.4776121;0.6404462;1.689574;0.1492461;0.3040716;1.763856;0.2957843;-0.003848992;0.8905089;0.3236922;0;0;0;1.159063;1.647212;0.1492429;1.450822;1.670188;0.295779;1.796295;0.8245935;0.6022002;2.081416;-0.07676744;0.5386242;0.5805863;1.667624;2.274252;0.7560223;0.218632;2.376749;0.9728032;0.7511046;3.594044;0.5805863;1.667624;2.274252;0.7560223;0.218632;2.376749;0.9728032;0.7511046;3.594044
869096.1675;NotLabelled;16384;0.7062218;-0.666205;0.2396122;-0.002770083;10;-16;-15;-1132;3746;395;65536;0.8150896;-0.5789474;-0.004155125;0.02077562;-10;-6;13;-79;3766;-1441;8192;0.5373961;-0.6626335;-0.4958449;-0.1620499;26;-3;10;2200;3177;251;32768;0.6838053;-0.5886427;-0.3822715;-0.199446;-29;-1;9;-865;3831;-774;256;-0.04293629;-0.03601108;-0.9967325;-0.05817174;0;-5;-14;93;688;3791;128;0.07063711;0.03739612;0.9918;0.09972299;-8;-22;7;-325;955;-3952;4;0.434903;-0.5729772;0.5290859;0.4501385;-54;-57;-160;-1331;5478;-36;16;-0.2063712;-0.9586629;-0.1786704;0.08033241;-8;-45;-23;-839;-3958;3680;2;0.398892;-0.4279778;-0.5180055;-0.6240116;14;-31;38;-337;3910;-829;8;-0.1038781;-0.9829005;0.1398892;-0.05955679;-3;-13;-22;1067;-947;3961;0.8925239;1.666271;2.230438;0.892083;1.626102;1.686372;0.8916733;1.588776;1.208287;0.8980929;1.671128;0.4791507;0.6400887;1.690057;0.1507862;0.3034653;1.7634;0.2972268;-0.00611826;0.8905884;0.323438;0;0;0;1.158859;1.649615;0.1507829;1.450555;1.673976;0.2972212;1.792153;0.8299109;0.6120852;2.074195;-0.07309115;0.5589085;0.5807216;1.665408;2.276381;0.733619;0.2196797;2.441756;0.9457451;0.7703477;3.651754;0.5807216;1.665408;2.276381;0.733619;0.2196797;2.441756;0.9457451;0.7703477;3.651754
869137.4955;NotLabelled;16384;0.7057503;-0.666205;0.2409972;-0.002770083;11;-9;-17;-1288;3826;505;65536;0.8141477;-0.5803324;-0.001385042;0.01939058;-9;-6;14;-103;3916;-1341;8192;0.533241;-0.6656433;-0.4958449;-0.1634349;32;1;10;2304;3105;-231;32768;0.6825698;-0.5900277;-0.3808864;-0.2022161;-23;5;13;-727;3967;-642;256;-0.04155125;-0.03739612;-0.9966584;-0.05955679;-1;-4;-11;275;550;4049;128;0.06925207;0.04155125;0.9914498;0.1024931;-6;-22;5;-477;767;-4030;4;0.4210526;-0.5755227;0.5498615;0.434903;-52;-62;-168;-813;5142;-622;16;-0.2077562;-0.959263;-0.1731302;0.08171745;7;-20;-14;-565;-3214;3536;2;0.398892;-0.434903;-0.5166205;-0.6203611;13;-35;37;-427;4028;-623;8;-0.1038781;-0.9827453;0.1426593;-0.05540166;-4;-18;-22;1181;-951;3873;0.901098;1.656655;2.218689;0.9007206;1.62227;1.674227;0.9003669;1.590026;1.195773;0.9067452;1.672851;0.4666896;0.6487395;1.691747;0.1383246;0.3120401;1.764679;0.2847951;-0.003590526;0.8941181;0.3135864;0;0;0;1.167547;1.651793;0.1383214;1.459213;1.676335;0.2847898;1.791486;0.8356218;0.6180623;2.062322;-0.07164407;0.5819455;0.5892903;1.655305;2.264584;0.696282;0.229152;2.573611;0.9031252;0.800473;3.774917;0.5892903;1.655305;2.264584;0.696282;0.229152;2.573611;0.9031252;0.800473;3.774917
869158.1478;NotLabelled;16384;0.7034866;-0.66759;0.2437673;-0.002770083;12;-9;-17;-1406;3806;655;65536;0.8131917;-0.5817174;0;0.01800554;-11;-6;14;13;3898;-1415;8192;0.5221606;-0.6733496;-0.4958449;-0.16759;38;8;6;2420;3441;-475;32768;0.6779846;-0.5927978;-0.3795014;-0.2119114;-15;18;17;-735;4009;-726;256;-0.0401662;-0.03739612;-0.996797;-0.05817174;0;-1;-9;415;368;4141;128;0.06925207;0.04432133;0.9913298;0.1024931;-7;-22;3;-505;767;-4164;4;-0.3961219;0.5817174;-0.5869162;-0.400277;-55;-17;-180;-1251;4810;-378;16;-0.199446;-0.9618881;-0.16759;0.08310249;53;-15;11;-1389;-1824;3678;2;0.398892;-0.4432133;-0.5152354;-0.6156132;9;-41;37;-201;4158;-583;8;-0.1038781;-0.9822855;0.1468144;-0.05263158;-5;-25;-21;1137;-875;3833;0.9064788;1.647807;2.214679;0.9061326;1.616267;1.670045;0.9058063;1.586524;1.191429;0.912571;1.671356;0.4625801;0.6546903;1.691867;0.1342133;0.3181579;1.765306;0.280814;0.0009531267;0.8953339;0.3101175;0;0;0;1.173388;1.650502;0.1342103;1.465086;1.673844;0.2808088;1.790396;0.834057;0.6231624;2.055137;-0.07509828;0.5894511;0.5946685;1.646217;2.260549;0.6801738;0.2372984;2.645902;0.8893234;0.8119785;3.845205;0.5946685;1.646217;2.260549;0.6801738;0.2372984;2.645902;0.8893234;0.8119785;3.845205
869179.1691;NotLabelled;16384;0.7020262;-0.66759;0.2479224;-0.004155125;10;-14;-19;-1472;3816;641;65536;0.8121991;-0.5831025;0;0.01800554;-10;-5;15;-133;3858;-1339;8192;0.5166205;-0.6759018;-0.4972299;-0.1703601;37;11;4;2506;3493;-207;32768;0.6774468;-0.5927978;-0.3781163;-0.2160665;-14;14;17;-731;4143;-864;256;-0.03878116;-0.03739612;-0.9968519;-0.05817174;0;2;-6;577;248;4167;128;0.06786703;0.04847645;0.991087;0.1038781;-10;-20;1;-699;669;-4070;4;-0.3822715;0.5886427;-0.6027828;-0.3795014;-45;-8;-188;-1693;4718;-464;16;-0.1883656;-0.9648314;-0.1648199;0.08033241;69;-7;27;-1211;-1474;3980;2;0.398892;-0.4501385;-0.5138504;-0.6117339;10;-40;37;3;4168;-737;8;-0.1038781;-0.9818001;0.1509695;-0.04986149;-4;-25;-19;1115;-829;3773;0.9115032;1.65083;2.206572;0.9111552;1.619122;1.661947;0.9108272;1.589232;1.18334;0.917415;1.672126;0.4542668;0.6594594;1.691694;0.1259012;0.3229382;1.765434;0.2723773;0.003498085;0.8964677;0.3068069;0;0;0;1.178168;1.650469;0.1258978;1.469891;1.674278;0.2723719;1.777278;0.8370743;0.6368965;2.025435;-0.07695472;0.6093862;0.599693;1.649254;2.252442;0.6413869;0.2874548;2.785944;0.858968;0.8414869;3.993435;0.599693;1.649254;2.252442;0.6413869;0.2874548;2.785944;0.858968;0.8414869;3.993435
869200.172;NotLabelled;16384;0.7010418;-0.66759;0.2506925;-0.004155125;10;-11;-19;-1326;3828;583;65536;0.8112313;-0.5844875;0.001385042;0.0166205;-12;-2;15;-39;3934;-1309;8192;0.5110803;-0.6783848;-0.4986149;-0.1731302;31;14;7;2392;3623;59;32768;0.6761075;-0.5927978;-0.3781163;-0.2202216;-15;13;18;-691;4007;-998;256;-0.03739612;-0.03739612;-0.9969048;-0.05817174;1;2;-2;555;262;3999;128;0.06786703;0.05124654;0.9908015;0.1052632;-11;-15;0;-827;567;-4082;4;-0.367036;0.5969529;-0.6166422;-0.3587258;-35;5;-191;-2027;4470;-76;16;-0.1745152;-0.9677685;-0.1648199;0.07617728;94;2;41;-1067;-578;4068;2;0.398892;-0.4570637;-0.5124654;-0.6077477;11;-38;35;119;4116;-713;8;-0.1038781;-0.981069;0.1565097;-0.04709141;-3;-33;-18;1429;-911;3809;0.9166198;1.646845;2.200248;0.9162868;1.616494;1.655546;0.9159718;1.587797;1.176866;0.9225536;1.670772;0.4478023;0.6645979;1.690335;0.1194365;0.328064;1.764006;0.2659175;0.002375571;0.8975049;0.3037696;0;0;0;1.183313;1.649191;0.1194335;1.475031;1.673031;0.2659128;1.773804;0.8374101;0.6410763;2.015076;-0.07843602;0.6127713;0.6048083;1.645156;2.246106;0.6292223;0.3172485;2.860049;0.8442554;0.8422276;4.080903;0.6048083;1.645156;2.246106;0.6292223;0.3172485;2.860049;0.8442554;0.8422276;4.080903
869220.5898;NotLabelled;16384;0.6987119;-0.6689751;0.2534626;-0.005540166;10;-4;-21;-1380;3774;515;65536;0.8092709;-0.5872576;0.004155125;0.01385042;-12;-1;15;-75;3928;-1253;8192;0.5069252;-0.6797691;-0.5;-0.1759003;29;15;6;2202;3507;85;32768;0.6759542;-0.5914127;-0.3781163;-0.2243767;-14;11;18;-671;4027;-868;256;-0.03739612;-0.03878116;-0.9968519;-0.05817174;0;1;3;521;172;3979;128;0.06925207;0.05540166;0.9900315;0.1094183;-11;-10;-2;-837;511;-4138;4;-0.3531856;0.6066482;-0.6276638;-0.3365651;-43;17;-193;-2181;4594;858;16;-0.1551246;-0.9711463;-0.166205;0.07202215;110;19;56;-1195;98;4028;2;0.3961219;-0.4695291;-0.5110803;-0.6011878;10;-21;32;343;4126;-747;8;-0.1024931;-0.9793958;0.1689751;-0.04155125;-2;-37;-19;1195;-985;3789;0.9221467;1.644035;2.194202;0.9218285;1.615049;1.649426;0.9215266;1.587551;1.170676;0.9282262;1.670607;0.4416218;0.6703263;1.690165;0.1132122;0.3337546;1.763767;0.2596408;0.00487343;0.8986081;0.3004606;0;0;0;1.189047;1.649103;0.1132978;1.480736;1.672973;0.2598321;1.769461;0.8400108;0.6485319;2.005201;-0.0773083;0.6213332;0.610334;1.64223;2.240047;0.6234024;0.3537401;2.933214;0.8318781;0.8422748;4.170226;0.610334;1.64223;2.240047;0.6234024;0.3537401;2.933214;0.8318781;0.8422748;4.170226
869242.1628;NotLabelled;16384;0.6939169;-0.6717451;0.2590028;-0.01246537;8;4;-20;-1742;3756;457;65536;0.8063096;-0.5914127;0.006925208;0.006925208;-11;4;15;125;3910;-1199;8192;0.4958449;-0.6812645;-0.5055401;-0.1855956;24;25;2;2008;3523;-253;32768;0.6732784;-0.5927978;-0.3739612;-0.2354571;-12;7;15;-351;4063;-846;256;-0.03878116;-0.03739612;-0.9970096;-0.05540166;-4;3;6;539;214;3983;128;0.07063711;0.05817174;0.9894646;0.1121884;-16;-3;-2;-619;509;-3972;4;-0.3060942;0.6301939;-0.661032;-0.2686981;-34;11;-200;-3005;4256;618;16;-0.06925207;-0.9800204;-0.1814404;0.04293629;199;49;121;-1089;1794;3282;2;0.3933518;-0.4806094;-0.5096953;-0.5953987;9;-29;30;147;4060;-779;8;-0.1024931;-0.9778933;0.1786704;-0.03601108;-4;-30;-21;1193;-811;3707;0.9315901;1.634602;2.176739;0.9313186;1.609865;1.631753;0.9310577;1.5861;1.152803;0.9382602;1.669076;0.4237452;0.6805385;1.689319;0.09523714;0.3441167;1.763864;0.2415334;0.01150279;0.9007497;0.2937936;0;0;0;1.199144;1.646822;0.09552118;1.490842;1.669897;0.2421624;1.773949;0.8400252;0.6414593;2.005308;-0.07832575;0.6115776;0.6197735;1.63244;2.222543;0.6221289;0.3872576;2.990901;0.8291216;0.825103;4.246995;0.6197735;1.63244;2.222543;0.6221289;0.3872576;2.990901;0.8291216;0.825103;4.246995
869283.142;NotLabelled;16384;0.6914757;-0.6731302;0.2617728;-0.01523546;5;-1;-18;-1758;3710;329;65536;0.8052894;-0.5927978;0.008310249;0.005540166;-12;3;15;123;3938;-1233;8192;0.4930748;-0.6811012;-0.5069252;-0.1897507;24;19;-2;1988;3753;-153;32768;0.6730718;-0.5927978;-0.3725762;-0.2382271;-13;4;13;-385;4103;-738;256;-0.0401662;-0.03739612;-0.9970308;-0.05401662;-2;4;5;547;166;4055;128;0.07063711;0.05955679;0.9892241;0.1135734;-15;-6;-2;-643;623;-4054;4;-0.2880886;0.6371191;-0.6715538;-0.2451524;-27;1;-207;-3483;4114;-550;16;-0.02770083;-0.9815421;-0.1869806;0.02908587;244;32;138;-1853;2540;5904;2;0.3947368;-0.4875346;-0.5083103;-0.5900115;7;-41;29;7;4020;-773;8;-0.1024931;-0.9772232;0.1828255;-0.033241;-4;-26;-23;1249;-791;3761;0.9575538;1.633708;2.159321;0.9573132;1.611773;1.614215;0.9570795;1.590471;1.135149;0.963324;1.669406;0.4056342;0.7052202;1.687098;0.07727894;0.3687355;1.76151;0.2234975;0.02373431;0.9037836;0.2835633;0;0;0;1.223943;1.646059;0.07727534;1.515721;1.670769;0.2234918;1.782953;0.839618;0.6309843;1.993792;-0.08358669;0.5989283;0.6457346;1.63131;2.205096;0.6211879;0.5470543;3.187258;0.7979598;0.7507627;4.50619;0.6457346;1.63131;2.205096;0.6211879;0.5470543;3.187258;0.7979598;0.7507627;4.50619
869303.1676;NotLabelled;16384;0.6909178;-0.6731302;0.2631579;-0.0166205;6;0;-18;-1716;3646;229;65536;0.8042823;-0.5941828;0.008310249;0.002770083;-11;2;15;133;3904;-1205;8192;0.4903047;-0.6823224;-0.5069252;-0.1925208;18;17;-3;2110;3741;-121;32768;0.6716281;-0.5941828;-0.3711911;-0.2409972;-15;0;10;-401;4059;-718;256;-0.0401662;-0.03739612;-0.9970308;-0.05401662;0;6;4;563;-84;4039;128;0.07063711;0.06094183;0.9889798;0.1149584;-11;-13;-3;-947;391;-4040;4;-0.2700831;0.6426592;-0.6814095;-0.2229917;-38;-17;-201;-3973;3220;816;16;0.005540166;-0.9824457;-0.1855956;0.01800554;173;12;99;-7671;330;11580;2;0.3961219;-0.4930748;-0.5055401;-0.5868508;8;-50;25;-31;3986;-835;8;-0.1024931;-0.9765692;0.1869806;-0.02908587;-3;-18;-23;1243;-801;3637;0.9671217;1.631875;2.14869;0.9668967;1.61139;1.603528;0.9666768;1.591362;1.124406;0.9727585;1.668197;0.3946655;0.7145807;1.684954;0.0663192;0.3781325;1.759802;0.2123996;0.027939;0.9047511;0.2800772;0;0;0;1.233302;1.643893;0.06631589;1.525114;1.669011;0.2123942;1.786983;0.837106;0.6218252;1.99257;-0.08720493;0.5875911;0.6553012;1.629355;2.194448;0.6262195;0.610465;3.244151;0.7913334;0.6983151;4.577322;0.6553012;1.629355;2.194448;0.6262195;0.610465;3.244151;0.7913334;0.6983151;4.577322
869323.1876;NotLabelled;16384;0.6889632;-0.6745152;0.2645429;-0.01939058;4;5;-16;-1758;3636;255;65536;0.8032465;-0.5955678;0.009695291;0;-10;3;14;125;3948;-1225;8192;0.4889196;-0.6825291;-0.5069252;-0.1952908;11;14;-7;1992;3781;-173;32768;0.6718937;-0.5941828;-0.3698061;-0.2423823;-17;-4;7;-309;4119;-836;256;-0.04432133;-0.03601108;-0.9971222;-0.04986149;1;12;11;837;-654;4241;128;0.0734072;0.06232687;0.9881997;0.1191136;-32;19;-2;-1083;3;-4140;4;-0.2520775;0.6440443;-0.6937801;-0.200831;-40;-37;-187;-2501;3220;1928;16;0.02631579;-0.9766242;-0.2132964;0.004155125;101;243;115;-1361;5006;5196;2;0.3975069;-0.5;-0.501385;-0.5836106;10;-55;23;233;3998;-897;8;-0.1024931;-0.9763816;0.1883656;-0.02631579;-4;-6;-21;1583;-879;3651;0.9730516;1.62867;2.143862;0.9728426;1.609637;1.598646;0.9726366;1.590886;1.119474;0.9787183;1.667721;0.3897328;0.7205403;1.684478;0.0613867;0.3840924;1.759327;0.2074673;0.03078151;0.9056863;0.2767352;0;0;0;1.239262;1.643417;0.06138337;1.531074;1.668535;0.2074615;1.786399;0.8364257;0.6205933;1.985567;-0.08934963;0.5880165;0.6612298;1.626029;2.189604;0.6266305;0.6734484;3.299672;0.7795147;0.6677917;4.637178;0.6612298;1.626029;2.189604;0.6266305;0.6734484;3.299672;0.7795147;0.6677917;4.637178
869344.2124;NotLabelled;16384;0.6868913;-0.6759003;0.265928;-0.02493075;0;6;-13;-2096;3512;189;65536;0.802195;-0.5969529;0.01108033;-0.002770083;-6;1;12;161;4004;-1075;8192;0.4875346;-0.6827216;-0.5069252;-0.1980609;6;12;-13;2278;3785;-337;32768;0.6709265;-0.5955678;-0.368421;-0.2437673;-15;-1;5;-469;4123;-604;256;-0.04570637;-0.03601108;-0.997128;-0.04847645;2;7;13;619;-288;4131;128;0.07479224;0.06094183;0.9876726;0.1232687;-21;2;-5;-785;309;-4556;4;-0.2382271;0.6412742;-0.7061091;-0.1828255;-42;-38;-159;-2625;3808;206;16;0.04847645;-0.9713072;-0.232687;-0.008310249;115;48;101;1737;2910;2510;2;0.4058172;-0.5152354;-0.4930748;-0.5715961;-2;-74;17;711;4390;-1027;8;-0.1024931;-0.9754302;0.1939058;-0.02077562;0;-18;-12;2047;-739;3629;0.9833574;1.628137;2.12387;0.9831958;1.613407;1.578522;0.9830317;1.598438;1.099216;0.9888092;1.669061;0.3688453;0.7305431;1.682325;0.04040878;0.3939151;1.757514;0.1858985;0.0379915;0.9065838;0.2728721;0;0;0;1.249373;1.642655;0.04067415;1.541136;1.6698;0.1864867;1.798257;0.8398962;0.602928;1.983407;-0.08931184;0.5929573;0.661321;1.617232;2.195633;0.6167743;0.7252382;3.354607;0.7451833;0.6478688;4.692461;0.661321;1.617232;2.195633;0.6167743;0.7252382;3.354607;0.7451833;0.6478688;4.692461
869365.161;NotLabelled;16384;0.6857061;-0.6759003;0.2686981;-0.02770083;1;-2;-10;-1952;3702;39;65536;0.8011361;-0.5983379;0.01246537;-0.004155125;-4;-2;13;157;3990;-1119;8192;0.4861496;-0.6795955;-0.5096953;-0.2049861;6;27;-14;2180;3181;-671;32768;0.6681674;-0.5969529;-0.368421;-0.2479224;-4;5;8;-591;4023;-578;256;-0.04847645;-0.03462604;-0.9970462;-0.04847645;0;4;14;363;36;4075;128;0.07617728;0.06094183;0.9872169;0.1260388;-19;-12;-8;-437;637;-4260;4;-0.2160665;0.6218836;-0.7365544;-0.1551246;-47;-148;-84;-1937;2386;378;16;0.08448754;-0.9763492;-0.1980609;-0.01939058;92;-155;29;-425;2604;1382;2;0.4099723;-0.5221606;-0.4889196;-0.5658875;-1;-64;12;965;4168;-1085;8;-0.101108;-0.9744858;0.199446;-0.01939058;1;-30;-2;2285;-767;3509;0.9974686;1.620068;2.123132;0.997357;1.6099;1.57768;0.9972367;1.598941;1.098265;1.002477;1.667465;0.3676902;0.7439688;1.679788;0.03940752;0.407449;1.7554;0.1849287;0.04383874;0.9074439;0.2691103;0;0;0;1.262798;1.640113;0.03940439;1.554669;1.667672;0.1849237;1.804911;0.8334342;0.5968716;1.995874;-0.09398067;0.5619013;0.6856385;1.616684;2.16877;0.6424867;0.7918571;3.376518;0.7688723;0.6598758;4.710286;0.6856385;1.616684;2.16877;0.6424867;0.7918571;3.376518;0.7688723;0.6598758;4.710286
869385.3108;NotLabelled;16384;0.6857061;-0.6759003;0.2686981;-0.02770083;0;0;-9;-1718;3728;247;65536;0.801105;-0.5983379;0.01385042;-0.005540166;-5;-2;14;41;3990;-1215;8192;0.4847645;-0.6793188;-0.5096953;-0.2091413;6;15;-13;1992;3339;-461;32768;0.6684142;-0.5969529;-0.367036;-0.2493075;-2;7;9;-485;4023;-644;256;-0.04986149;-0.03462604;-0.9970443;-0.04709141;-1;3;14;169;230;4067;128;0.07756232;0.06371191;0.9865765;0.1288089;-17;-26;-10;-235;997;-4290;4;-0.2119114;0.602493;-0.7547981;-0.1495845;-60;-157;-35;85;804;-698;16;0.09833795;-0.979292;-0.1759003;-0.01939058;73;-170;17;791;240;1436;2;0.4127424;-0.5277008;-0.4847645;-0.5622979;2;-57;11;903;3968;-897;8;-0.09972299;-0.9734497;0.2049861;-0.02077562;4;-36;5;2083;-755;3665;1.008326;1.613946;2.114142;1.008247;1.606735;1.568643;1.008155;1.598374;1.089176;1.013218;1.666845;0.3585952;0.7546781;1.678489;0.030313;0.4179709;1.753272;0.1758296;0.04870777;0.9083083;0.2653305;0;0;0;1.273605;1.640115;0.03030986;1.565407;1.668419;0.1758246;1.81099;0.8310556;0.5842192;1.99481;-0.09789991;0.5519623;0.6964933;1.610315;2.159742;0.631419;0.8827524;3.427527;0.7495927;0.6503136;4.748259;0.6964933;1.610315;2.159742;0.631419;0.8827524;3.427527;0.7495927;0.6503136;4.748259
869406.1555;NotLabelled;16384;0.6856487;-0.6759003;0.2686981;-0.02908587;-1;5;-6;-1612;3922;365;65536;0.8000195;-0.599723;0.01523546;-0.008310249;-5;0;16;123;3984;-1183;8192;0.4847645;-0.6784598;-0.5096953;-0.2119114;3;8;-11;2050;3495;-303;32768;0.6691314;-0.5955678;-0.367036;-0.2506925;0;7;11;-515;4007;-642;256;-0.05263158;-0.03462604;-0.9969019;-0.04709141;3;4;13;285;272;3947;128;0.07894737;0.06786703;0.9860076;0.1301939;0;-30;-11;-431;1173;-4720;4;-0.2119114;0.5858725;-0.7685683;-0.1454294;-44;-116;-10;-131;-22;-250;16;0.1066482;-0.9838446;-0.1426593;-0.01800554;36;-230;12;1485;744;858;2;0.4155124;-0.533241;-0.4819945;-0.5573911;1;-53;13;471;3806;-755;8;-0.09972299;-0.9725024;0.2091413;-0.0235457;4;-20;10;1625;-869;3611;1.012646;1.611231;2.113023;1.012598;1.606818;1.567493;1.012533;1.600916;1.08799;1.017441;1.667289;0.3572147;0.758831;1.677991;0.02895577;0.4221546;1.753189;0.1743283;0.05311991;0.9082258;0.264766;0;0;0;1.277758;1.639618;0.02895245;1.569591;1.668341;0.174323;1.809463;0.828975;0.5820003;1.989868;-0.1005725;0.5475966;0.700811;1.607366;2.158586;0.6195344;0.9033451;3.438667;0.7422102;0.6348746;4.752136;0.700811;1.607366;2.158586;0.6195344;0.9033451;3.438667;0.7422102;0.6348746;4.752136
869426.166;NotLabelled;16384;0.6860012;-0.6759003;0.267313;-0.033241;-2;17;-3;-1986;3608;459;65536;0.7988676;-0.601108;0.01800554;-0.01246537;-6;3;14;341;3942;-1109;8192;0.4847645;-0.6780256;-0.5096953;-0.2132964;0;8;-8;2088;3483;-255;32768;0.668087;-0.5955678;-0.367036;-0.2534626;0;8;13;-407;4019;-700;256;-0.05540166;-0.03462604;-0.9967518;-0.04709141;-6;2;12;667;348;4053;128;0.08033241;0.07202215;0.9861408;0.1260388;14;9;-1;-1001;839;-4340;4;-0.2119114;0.5734072;-0.7779126;-0.1454294;-27;-85;14;619;98;116;16;0.1094183;-0.9873219;-0.1135734;-0.01800554;0;-150;13;-1685;426;892;2;0.4224377;-0.5443213;-0.4736842;-0.548529;0;-68;13;125;3866;-975;8;-0.09972299;-0.9720939;0.2105263;-0.02770083;0;6;12;1839;-807;3649;1.020123;1.609056;2.106755;1.020088;1.605827;1.561217;1.020035;1.600967;1.081702;1.024948;1.667189;0.3509129;0.7663357;1.677889;0.02265556;0.4296803;1.753202;0.1680183;0.05946798;0.9090003;0.2607291;0;0;0;1.285253;1.639386;0.02265248;1.577095;1.668065;0.1680125;1.815786;0.8267766;0.5724075;1.99527;-0.1027893;0.5339301;0.708287;1.605092;2.152302;0.6116674;0.9146959;3.438722;0.7390156;0.6252738;4.747288;0.708287;1.605092;2.152302;0.6116674;0.9146959;3.438722;0.7390156;0.6252738;4.747288
869447.1907;NotLabelled;16384;0.6858613;-0.6759003;0.267313;-0.03601108;-5;13;-4;-2176;3542;519;65536;0.7987872;-0.601108;0.01939058;-0.01523546;-5;5;11;331;3912;-1157;8192;0.4847645;-0.6775883;-0.5096953;-0.2146814;-2;-6;-2;1840;3633;-185;32768;0.6697188;-0.5927978;-0.365651;-0.2576177;0;2;13;-337;4155;-722;256;-0.05817174;-0.03462604;-0.9966584;-0.04570637;-12;3;11;655;234;4125;128;0.08033241;0.07063711;0.986591;0.1232687;13;21;2;-1377;517;-4004;4;-0.2160665;0.5650969;-0.7825767;-0.1468144;-21;-36;30;559;516;1070;16;0.1094183;-0.9883346;-0.1038781;-0.02077562;0;-9;32;-2513;1048;614;2;0.4265928;-0.5529752;-0.4695291;-0.5401662;-2;-68;6;881;3928;-697;8;-0.09972299;-0.9726493;0.2077562;-0.02908587;1;13;16;1409;-857;3507;1.033397;1.617473;2.101036;1.033307;1.609285;1.55555;1.033206;1.600064;1.076099;1.038125;1.666136;0.3452963;0.7795106;1.676834;0.01704048;0.4428762;1.75226;0.1623926;0.06942095;0.9096018;0.2561288;0;0;0;1.298418;1.6382;0.01703739;1.59027;1.666835;0.1623874;1.829397;0.8245896;0.5645265;2.004833;-0.1057247;0.5254669;0.7215654;1.613924;2.146648;0.6210561;0.9272805;3.434777;0.7478679;0.6309065;4.741838;0.7215654;1.613924;2.146648;0.6210561;0.9272805;3.434777;0.7478679;0.6309065;4.741838
