SEP=;
index;label;RightUpperArm_boneIndex;RightUpperArm_quat9x_w;RightUpperArm_quat9x_x;RightUpperArm_quat9x_y;RightUpperArm_quat9x_z;RightUpperArm_gyroscope_x;RightUpperArm_gyroscope_y;RightUpperArm_gyroscope_z;RightUpperArm_accelerometer_x;RightUpperArm_accelerometer_y;RightUpperArm_accelerometer_z;RightLowerArm_boneIndex;RightLowerArm_quat9x_w;RightLowerArm_quat9x_x;RightLowerArm_quat9x_y;RightLowerArm_quat9x_z;RightLowerArm_gyroscope_x;RightLowerArm_gyroscope_y;RightLowerArm_gyroscope_z;RightLowerArm_accelerometer_x;RightLowerArm_accelerometer_y;RightLowerArm_accelerometer_z;LeftUpperArm_boneIndex;LeftUpperArm_quat9x_w;LeftUpperArm_quat9x_x;LeftUpperArm_quat9x_y;LeftUpperArm_quat9x_z;LeftUpperArm_gyroscope_x;LeftUpperArm_gyroscope_y;LeftUpperArm_gyroscope_z;LeftUpperArm_accelerometer_x;LeftUpperArm_accelerometer_y;LeftUpperArm_accelerometer_z;LeftLowerArm_boneIndex;LeftLowerArm_quat9x_w;LeftLowerArm_quat9x_x;LeftLowerArm_quat9x_y;LeftLowerArm_quat9x_z;LeftLowerArm_gyroscope_x;LeftLowerArm_gyroscope_y;LeftLowerArm_gyroscope_z;LeftLowerArm_accelerometer_x;LeftLowerArm_accelerometer_y;LeftLowerArm_accelerometer_z;Chest_boneIndex;Chest_quat9x_w;Chest_quat9x_x;Chest_quat9x_y;Chest_quat9x_z;Chest_gyroscope_x;Chest_gyroscope_y;Chest_gyroscope_z;Chest_accelerometer_x;Chest_accelerometer_y;Chest_accelerometer_z;Spine_boneIndex;Spine_quat9x_w;Spine_quat9x_x;Spine_quat9x_y;Spine_quat9x_z;Spine_gyroscope_x;Spine_gyroscope_y;Spine_gyroscope_z;Spine_accelerometer_x;Spine_accelerometer_y;Spine_accelerometer_z;RightUpperLeg_boneIndex;RightUpperLeg_quat9x_w;RightUpperLeg_quat9x_x;RightUpperLeg_quat9x_y;RightUpperLeg_quat9x_z;RightUpperLeg_gyroscope_x;RightUpperLeg_gyroscope_y;RightUpperLeg_gyroscope_z;RightUpperLeg_accelerometer_x;RightUpperLeg_accelerometer_y;RightUpperLeg_accelerometer_z;RightLowerLeg_boneIndex;RightLowerLeg_quat9x_w;RightLowerLeg_quat9x_x;RightLowerLeg_quat9x_y;RightLowerLeg_quat9x_z;RightLowerLeg_gyroscope_x;RightLowerLeg_gyroscope_y;RightLowerLeg_gyroscope_z;RightLowerLeg_accelerometer_x;RightLowerLeg_accelerometer_y;RightLowerLeg_accelerometer_z;LeftUpperLeg_boneIndex;LeftUpperLeg_quat9x_w;LeftUpperLeg_quat9x_x;LeftUpperLeg_quat9x_y;LeftUpperLeg_quat9x_z;LeftUpperLeg_gyroscope_x;LeftUpperLeg_gyroscope_y;LeftUpperLeg_gyroscope_z;LeftUpperLeg_accelerometer_x;LeftUpperLeg_accelerometer_y;LeftUpperLeg_accelerometer_z;LeftLowerLeg_boneIndex;LeftLowerLeg_quat9x_w;LeftLowerLeg_quat9x_x;LeftLowerLeg_quat9x_y;LeftLowerLeg_quat9x_z;LeftLowerLeg_gyroscope_x;LeftLowerLeg_gyroscope_y;LeftLowerLeg_gyroscope_z;LeftLowerLeg_accelerometer_x;LeftLowerLeg_accelerometer_y;LeftLowerLeg_accelerometer_z;pelvis_x;pelvis_y;pelvis_z;lowerSpine_x;lowerSpine_y;lowerSpine_z;middleSpine_x;middleSpine_y;middleSpine_z;upperSpine_x;upperSpine_y;upperSpine_z;rightClavicle_x;rightClavicle_y;rightClavicle_z;rightShoulder_x;rightShoulder_y;rightShoulder_z;rightElbow_x;rightElbow_y;rightElbow_z;rightWrist_x;rightWrist_y;rightWrist_z;leftClavicle_x;leftClavicle_y;leftClavicle_z;leftShoulder_x;leftShoulder_y;leftShoulder_z;leftElbow_x;leftElbow_y;leftElbow_z;leftWrist_x;leftWrist_y;leftWrist_z;rightHip_x;rightHip_y;rightHip_z;rightKnee_x;rightKnee_y;rightKnee_z;rightAnkle_x;rightAnkle_y;rightAnkle_z;leftHip_x;leftHip_y;leftHip_z;leftKnee_x;leftKnee_y;leftKnee_z;leftAnkle_x;leftAnkle_y;leftAnkle_z;
1196557.4555;NotLabelled;16384;0.6664324;-0.6121883;0.3448753;0.2493075;-50;52;-2;-974;3448;769;65536;0.7707293;-0.5429363;0.1814404;0.2797784;13;105;-32;-763;3554;-1419;8192;0.5285472;-0.501385;-0.501385;-0.466759;28;-9;12;996;4747;-459;32768;0.6291856;-0.4542936;-0.365651;-0.5138504;-40;-11;-62;1623;4951;-446;256;-0.09972299;0.06509695;-0.7046936;-0.699446;-26;24;33;779;3814;119;128;0.1371191;-0.05401662;0.5277008;0.8365479;17;20;-6;-1285;3299;1618;4;0.5703177;-0.4986149;0.4196676;0.5;-6;7;10;903;3802;-68;16;-0.09141274;-0.9939688;-0.05955679;-0.01108033;16;41;-22;-685;-658;4514;2;0.4542936;-0.333795;-0.5138504;-0.6466498;23;31;5;-1221;3974;-365;8;-0.06509695;-0.9823402;0.06371191;-0.1634349;2;-6;0;793;-541;4339;0.7270861;-0.1357942;0.07609659;0.7329835;0.4016199;0.1697622;0.7381711;0.8743529;0.2501014;0.7628394;1.607738;0.2508053;0.5152557;1.942432;0.2129824;0.1694274;1.813701;0.275992;0.05450147;0.8949037;0.306552;0;0;0;1.035306;1.924942;0.212981;1.319347;1.775027;0.27599;1.382482;0.8136821;0.2656748;1.309827;-0.0769639;-0.04937735;0.4148533;-0.1758833;0.06074297;0.3980495;-1.62315;-0.1537243;0.6404727;-1.373387;1.146728;0.4148533;-0.1758833;0.06074297;0.3980495;-1.62315;-0.1537243;0.6404727;-1.373387;1.146728
1196579.206;NotLabelled;16384;0.672714;-0.6094183;0.3434903;0.2409972;-49;42;0;-954;3362;645;65536;0.7776598;-0.5415512;0.1703601;0.2700831;19;89;-35;-623;3700;-1475;8192;0.5246731;-0.5041551;-0.501385;-0.468144;26;7;18;1002;4771;-403;32768;0.6226097;-0.4626039;-0.368421;-0.5124654;-32;4;-53;1523;4903;-396;256;-0.1066482;0.06371191;-0.7065477;-0.6966759;-21;21;30;919;3676;-89;128;0.1412742;-0.05401662;0.5304709;0.834101;22;24;-4;-1289;3385;1534;4;0.5747472;-0.4958449;0.4168975;0.5;-2;15;13;1401;3632;402;16;-0.08725762;-0.9933655;-0.07479224;-0.004155125;0;35;-7;-1119;74;3960;2;0.4459834;-0.333795;-0.5124654;-0.6534975;14;16;3;-1193;4016;-313;8;-0.06509695;-0.981635;0.07063711;-0.1648199;-1;-18;11;599;-707;4051;0.7391534;-0.1541791;0.1196045;0.7450568;0.3837776;0.2101019;0.7502495;0.856976;0.2876543;0.7852898;1.589876;0.2780483;0.5424401;1.927476;0.2356462;0.1948678;1.80455;0.3006203;0.0534487;0.8892159;0.3228537;0;0;0;1.062191;1.90263;0.2356452;1.344125;1.749609;0.3006189;1.400194;0.7877927;0.2941651;1.323679;-0.1099539;0.0009343028;0.4269196;-0.1943579;0.1045076;0.4042124;-1.640561;-0.1164928;0.6679733;-1.397697;1.181111;0.4269196;-0.1943579;0.1045076;0.4042124;-1.640561;-0.1164928;0.6679733;-1.397697;1.181111
1196600.3964;NotLabelled;16384;0.6831415;-0.6038781;0.3393352;0.2313019;-36;24;1;-1038;3310;719;65536;0.7891067;-0.536011;0.1537396;0.2576177;30;46;-41;-473;3680;-959;8192;0.5055401;-0.51154;-0.5083103;-0.4736842;19;33;31;386;4507;-421;32768;0.6053028;-0.4722992;-0.3808864;-0.5152354;-10;43;-29;1681;4461;-464;256;-0.1177285;0.05955679;-0.7078755;-0.6939058;-9;18;23;945;3784;115;128;0.1509695;-0.05540166;0.536011;0.8287527;23;28;-1;-1333;3581;1632;4;0.5808892;-0.4944598;0.4099723;0.5;4;24;20;1125;3748;372;16;-0.08448754;-0.993068;-0.08171745;0;7;19;-17;-821;46;3674;2;0.4418283;-0.33241;-0.5110803;-0.6580945;10;14;-2;-1061;4048;-483;8;-0.06509695;-0.9808275;0.07202215;-0.1689751;-1;-4;15;97;-625;3901;0.7451143;-0.1677842;0.1496068;0.751026;0.3709321;0.235467;0.7562259;0.8447804;0.3089405;0.7991939;1.577157;0.2933815;0.559993;1.917012;0.2483388;0.2111411;1.798387;0.3144418;0.05539923;0.8853016;0.3331188;0;0;0;1.079444;1.88654;0.2483376;1.359736;1.731005;0.3144402;1.40967;0.7688298;0.3145542;1.3272;-0.134789;0.04168224;0.4328791;-0.2080913;0.1348859;0.4000969;-1.652045;-0.09916943;0.6902655;-1.419503;1.194683;0.4328791;-0.2080913;0.1348859;0.4000969;-1.652045;-0.09916943;0.6902655;-1.419503;1.194683
1196642.1968;NotLabelled;16384;0.69326;-0.5969529;0.3393352;0.2188366;-22;19;-2;-638;3466;1149;65536;0.8004642;-0.5249307;0.134349;0.2562327;22;19;-50;-615;3642;-663;8192;0.4930748;-0.5110803;-0.5183295;-0.4764543;10;34;29;46;4555;-421;32768;0.5944701;-0.4709141;-0.3919668;-0.5207756;0;48;-24;1897;4313;-310;256;-0.132964;0.0567867;-0.7094645;-0.6897507;-5;20;15;1105;3792;175;128;0.1620499;-0.05817174;0.5401662;0.8237575;5;21;1;-1345;3701;1492;4;0.5868819;-0.4930748;0.4030471;0.5;1;6;23;497;4080;228;16;-0.08310249;-0.9921868;-0.09279778;0.006925208;1;47;-13;-525;-344;4164;2;0.4362881;-0.3310249;-0.5110803;-0.6624742;7;21;1;-869;4142;-347;8;-0.06648199;-0.9803541;0.07063711;-0.1717452;1;3;8;-43;-829;3987;0.7472461;-0.1933966;0.2097009;0.7531742;0.3468032;0.2856659;0.758388;0.8219204;0.3504361;0.8163824;1.553094;0.3284293;0.5841829;1.897386;0.2805295;0.2330137;1.786538;0.3478502;0.05881265;0.8766289;0.3547686;0;0;0;1.102898;1.856246;0.2805283;1.379981;1.69557;0.3478488;1.413738;0.7332392;0.3803465;1.327746;-0.1804304;0.1445495;0.4350081;-0.2339664;0.1957845;0.3967459;-1.674345;-0.05858538;0.7106467;-1.448442;1.230895;0.4350081;-0.2339664;0.1957845;0.3967459;-1.674345;-0.05858538;0.7106467;-1.448442;1.230895
1196683.1671;NotLabelled;16384;0.695746;-0.5955678;0.3393352;0.2146814;-17;24;-1;-542;3452;1131;65536;0.8038588;-0.5207756;0.1274238;0.2576177;18;21;-49;-681;3644;-805;8192;0.4875346;-0.5110803;-0.5235439;-0.4764543;5;33;25;-130;4619;-493;32768;0.5906598;-0.4695291;-0.3975069;-0.5221606;6;43;-26;1939;4365;-326;256;-0.1385041;0.0567867;-0.7084038;-0.6897507;-3;22;11;1133;3950;293;128;0.1648199;-0.05955679;0.5401662;0.8231087;4;20;3;-1225;3757;1430;4;0.5896358;-0.4889196;0.398892;0.5041551;2;-5;25;973;4104;294;16;-0.08171745;-0.9914518;-0.101108;0.01108033;1;22;-3;-181;-558;4278;2;0.432133;-0.3282548;-0.5124654;-0.6654992;3;17;4;-1325;3980;-537;8;-0.06648199;-0.980401;0.06648199;-0.1731302;2;7;1;-79;-669;3987;0.7472362;-0.2282195;0.2786506;0.753177;0.3131528;0.345752;0.7584018;0.7892671;0.4027265;0.8338048;1.518524;0.3717141;0.6098293;1.867652;0.3198285;0.2561995;1.766054;0.3888422;0.05574442;0.8615403;0.3904325;0;0;0;1.127414;1.814138;0.3198275;1.400668;1.647725;0.3888408;1.435241;0.686244;0.4401704;1.349515;-0.2311025;0.2190062;0.4349957;-0.2690115;0.2654571;0.3889985;-1.70555;-0.008588046;0.7431557;-1.481818;1.270803;0.4349957;-0.2690115;0.2654571;0.3889985;-1.70555;-0.008588046;0.7431557;-1.481818;1.270803
1196704.5638;NotLabelled;16384;0.6990798;-0.5969529;0.33518;0.2063712;-4;26;2;-854;3618;981;65536;0.8079638;-0.5166205;0.1149584;0.2590028;10;16;-44;-565;3576;-733;8192;0.4778393;-0.5069252;-0.5338919;-0.4792244;-5;31;8;-64;4687;-449;32768;0.5792439;-0.4653739;-0.4168975;-0.5235457;22;36;-25;1989;4353;-236;256;-0.1454294;0.05817174;-0.7095942;-0.6869806;-3;22;3;1049;4004;299;128;0.1703601;-0.06371191;0.5401662;0.8216683;0;13;4;-1047;3651;1534;4;0.5922312;-0.4833795;0.3947368;0.5096953;1;5;27;1249;3892;216;16;-0.08033241;-0.9912438;-0.1038781;0.01385042;7;13;-6;-481;-504;4074;2;0.4293629;-0.3268698;-0.5138504;-0.6669044;1;1;7;-1503;3922;-483;8;-0.06648199;-0.9808285;0.06371191;-0.1717452;2;-2;-5;41;-793;4109;0.7445908;-0.2399507;0.2931936;0.750533;0.301538;0.3593489;0.7557588;0.777751;0.4154916;0.836853;1.506396;0.3844528;0.6156102;1.85726;0.3325555;0.2611982;1.758429;0.4015741;0.05346468;0.8555598;0.4036765;0;0;0;1.132761;1.799707;0.3325545;1.404708;1.631168;0.4015728;1.441946;0.6703677;0.4628272;1.359397;-0.248539;0.246994;0.43235;-0.2807655;0.2800773;0.3817687;-1.712879;-0.01547664;0.7556739;-1.491721;1.258733;0.43235;-0.2807655;0.2800773;0.3817687;-1.712879;-0.01547664;0.7556739;-1.491721;1.258733
1196745.2167;NotLabelled;16384;0.7027854;-0.5983379;0.3282548;0.200831;7;14;17;-958;3498;1017;65536;0.8114535;-0.5124654;0.09833795;0.2631579;-3;7;-32;-549;3560;-873;8192;0.4736842;-0.501385;-0.5402941;-0.4819945;-10;34;6;-44;4619;-293;32768;0.5745436;-0.4598338;-0.4293629;-0.5235457;26;37;-17;2007;4215;-42;256;-0.1523546;0.06371191;-0.7076627;-0.6869806;5;11;-7;829;3738;167;128;0.1717452;-0.06648199;0.5401662;0.8211603;-1;1;10;-1053;3529;1540;4;0.5980526;-0.4792244;0.3891967;0.5110803;-6;9;30;679;3894;528;16;-0.07894737;-0.9909941;-0.1066482;0.01800554;4;11;-10;-361;-606;4206;2;0.4293629;-0.3296399;-0.5138504;-0.6655395;1;-7;11;-1119;4000;-347;8;-0.06648199;-0.9813095;0.06371191;-0.1689751;1;1;-7;149;-665;4029;0.7361227;-0.2529926;0.3192653;0.7420676;0.2887387;0.3834023;0.7472956;0.7651577;0.4377697;0.8332337;1.492995;0.401307;0.6142972;1.844943;0.347012;0.2592923;1.748995;0.4170458;0.04585129;0.8474665;0.4213018;0;0;0;1.131052;1.783931;0.3470106;1.401925;1.614086;0.4170436;1.444431;0.6543126;0.489868;1.380596;-0.2701554;0.2922025;0.4238814;-0.2938561;0.3063141;0.3659395;-1.72035;-0.01402202;0.762789;-1.502079;1.25373;0.4238814;-0.2938561;0.3063141;0.3659395;-1.72035;-0.01402202;0.762789;-1.502079;1.25373
1196787.1794;NotLabelled;16384;0.7018527;-0.599723;0.3268698;0.2022161;13;10;19;-1032;3358;947;65536;0.8114961;-0.5124654;0.09418282;0.2645429;-5;0;-30;-497;3466;-887;8192;0.4709141;-0.4986149;-0.5440288;-0.4833795;-13;32;6;-98;4483;-207;32768;0.5736865;-0.4556787;-0.434903;-0.5235457;27;33;-12;2029;4171;12;256;-0.1523546;0.06509695;-0.7075366;-0.6869806;7;6;-10;811;3742;151;128;0.1703601;-0.06786703;0.5401662;0.8213355;-3;-2;12;-1069;3613;1444;4;0.6050255;-0.4722992;0.3850415;0.5124654;-12;-2;31;785;3890;404;16;-0.07756232;-0.9910192;-0.1066482;0.02216066;4;-1;-11;-165;-924;3796;2;0.4293629;-0.33241;-0.5138504;-0.6641603;0;-5;13;-923;3984;-453;8;-0.06648199;-0.9818714;0.06232687;-0.166205;0;2;-5;399;-745;4103;0.7212671;-0.2645521;0.3422798;0.7272126;0.2772508;0.4058101;0.7324414;0.7537303;0.4596443;0.8197768;1.481451;0.4241713;0.6015222;1.833888;0.3703136;0.2463233;1.738526;0.4401622;0.03237268;0.837111;0.4427114;0;0;0;1.118159;1.771889;0.3703125;1.388696;1.601432;0.440161;1.437032;0.6419592;0.5132984;1.387439;-0.2846985;0.3219004;0.4090257;-0.3054304;0.3293781;0.3367008;-1.726201;-0.01272941;0.7665344;-1.510383;1.244646;0.4090257;-0.3054304;0.3293781;0.3367008;-1.726201;-0.01272941;0.7665344;-1.510383;1.244646
1196807.3343;NotLabelled;16384;0.7012347;-0.602493;0.3213296;0.2049861;20;-2;21;-1004;3434;975;65536;0.8108563;-0.5110803;0.08725762;0.2714681;-12;-11;-26;-461;3456;-857;8192;0.4695291;-0.4903047;-0.5514954;-0.4847645;-20;14;6;-250;4345;-211;32768;0.572798;-0.4459834;-0.4459834;-0.5235457;28;10;0;2015;4063;-128;256;-0.1509695;0.06925207;-0.7060914;-0.6883656;8;0;-16;799;3918;115;128;0.16759;-0.06925207;0.5401662;0.8217896;-4;-9;13;-1057;3655;1400;4;0.6089066;-0.4653739;0.3836565;0.5152354;-11;-6;22;619;3722;276;16;-0.07894737;-0.9914914;-0.09972299;0.02770083;0;-17;-13;-523;-1452;3702;2;0.4279778;-0.33518;-0.5166205;-0.6615078;-4;-2;12;-895;3924;-465;8;-0.06648199;-0.9823363;0.06232687;-0.1634349;-1;0;1;481;-667;4113;0.7125037;-0.2642159;0.3445667;0.7184488;0.2775407;0.4084889;0.723677;0.7539811;0.4626676;0.8095891;1.481884;0.4274668;0.5906473;1.833914;0.3737296;0.2356326;1.73783;0.4435275;0.026325;0.8353271;0.4464657;0;0;0;1.107405;1.772926;0.3737283;1.378271;1.602973;0.4435254;1.42915;0.6437607;0.5183413;1.388758;-0.2831292;0.32591;0.4002622;-0.3050842;0.331633;0.3098824;-1.718719;-0.03487438;0.7530736;-1.505398;1.218283;0.4002622;-0.3050842;0.331633;0.3098824;-1.718719;-0.03487438;0.7530736;-1.505398;1.218283
1196849.2559;NotLabelled;16384;0.6990963;-0.6052631;0.3171745;0.2105263;27;-6;18;-782;3582;1075;65536;0.807042;-0.5138504;0.08448754;0.2783934;-17;-17;-21;-477;3596;-1049;8192;0.4695291;-0.4875346;-0.5539457;-0.4847645;-22;9;4;-172;4349;-209;32768;0.5749341;-0.4418283;-0.4473684;-0.5235457;29;4;0;1931;3987;-100;256;-0.1495845;0.07063711;-0.7048964;-0.6897507;7;-2;-18;825;3868;119;128;0.1648199;-0.06925207;0.5401662;0.8223497;-5;-11;14;-1227;3625;1390;4;0.6098431;-0.4626039;0.3836565;0.5166205;-11;-8;17;457;3610;346;16;-0.08171745;-0.9915021;-0.09695291;0.02908587;-3;-14;-12;-511;-1576;3850;2;0.4265928;-0.3365651;-0.5180055;-0.6606155;-5;0;12;-843;4022;-479;8;-0.06786703;-0.9822416;0.06232687;-0.1634349;0;4;4;365;-705;4071;0.6957628;-0.2631626;0.3516908;0.7017067;0.2784934;0.4164593;0.7069342;0.754849;0.4713823;0.7876135;1.483519;0.4398472;0.566168;1.834223;0.3877307;0.2118171;1.735237;0.4568425;0.0134943;0.8302517;0.456395;0;0;0;1.083352;1.776962;0.3877293;1.355399;1.608624;0.4568403;1.417626;0.6497798;0.5277119;1.39705;-0.276814;0.3307632;0.3835216;-0.3040109;0.3386879;0.2769177;-1.711703;-0.04588687;0.7391133;-1.493511;1.199543;0.3835216;-0.3040109;0.3386879;0.2769177;-1.711703;-0.04588687;0.7391133;-1.493511;1.199543
1196869.1838;NotLabelled;16384;0.6976816;-0.6066482;0.3157895;0.2132964;30;-6;16;-798;3530;1051;65536;0.8044529;-0.5166205;0.08310249;0.2811634;-19;-19;-17;-493;3576;-1259;8192;0.4709141;-0.4861496;-0.5551961;-0.4833795;-24;6;2;-158;4329;-245;32768;0.5782827;-0.4376731;-0.4487534;-0.5221606;30;0;2;1921;3905;-104;256;-0.1454294;0.0734072;-0.7041258;-0.6911357;6;-3;-22;967;3814;91;128;0.1606648;-0.07202215;0.5401662;0.8229339;-1;-7;21;-1203;3585;1320;4;0.6107625;-0.4598338;0.3836565;0.5180055;-11;-12;13;459;3528;318;16;-0.08448754;-0.9914518;-0.09418282;0.03185596;-8;-7;-10;-321;-1630;3500;2;0.4252077;-0.3365651;-0.5193906;-0.6604209;-6;0;12;-863;4012;-431;8;-0.06786703;-0.9823285;0.06094183;-0.1634349;-1;9;4;287;-745;4079;0.6713405;-0.2582726;0.347732;0.6772834;0.2832751;0.4134017;0.6825098;0.7595382;0.4691172;0.7608029;1.488596;0.4407091;0.5382331;1.838786;0.3899341;0.1841686;1.73834;0.4584047;-0.0005178154;0.8304772;0.4561837;0;0;0;1.055603;1.783232;0.390016;1.328162;1.6155;0.4585869;1.394878;0.6569705;0.5296113;1.380031;-0.2682757;0.3259304;0.3590997;-0.2990994;0.3346555;0.2471693;-1.704678;-0.05608437;0.7116911;-1.478934;1.187131;0.3590997;-0.2990994;0.3346555;0.2471693;-1.704678;-0.05608437;0.7116911;-1.478934;1.187131
1196891.1652;NotLabelled;16384;0.6946035;-0.6094183;0.3144044;0.2174515;33;-8;15;-742;3594;1129;65536;0.802587;-0.5180055;0.08310249;0.2839335;-20;-23;-12;-529;3536;-1327;8192;0.4722992;-0.4833795;-0.5564369;-0.4833795;-26;5;0;-246;4217;-241;32768;0.5803325;-0.433518;-0.4501385;-0.5221606;31;0;4;1857;3903;-138;256;-0.1440443;0.07479224;-0.7042648;-0.6911357;6;-3;-23;1019;3900;125;128;0.1592798;-0.0734072;0.5401662;0.8230807;-2;-7;22;-1225;3627;1336;4;0.6118279;-0.4556787;0.3850415;0.5193906;-6;-11;5;737;3614;186;16;-0.0900277;-0.9912573;-0.0900277;0.03462604;-12;-21;-7;-383;-1536;3186;2;0.4238227;-0.3379501;-0.5221606;-0.6584165;-8;1;13;-931;4002;-423;8;-0.06925207;-0.9825599;0.05540166;-0.1634349;0;15;2;65;-741;3931;0.6648962;-0.2507482;0.3407667;0.6708375;0.2906537;0.4076289;0.6760624;0.7667933;0.4643933;0.7476751;1.496663;0.4394088;0.5219183;1.84503;0.3901904;0.1687694;1.741024;0.4580718;-0.009479791;0.8318844;0.4535153;0;0;0;1.039776;1.794222;0.3901893;1.313841;1.62868;0.4580706;1.385419;0.6702805;0.5260769;1.378799;-0.2534132;0.3150469;0.3526556;-0.2915459;0.3275926;0.2361377;-1.694973;-0.06948943;0.7041969;-1.461361;1.170944;0.3526556;-0.2915459;0.3275926;0.2361377;-1.694973;-0.06948943;0.7041969;-1.461361;1.170944
1196912.1588;NotLabelled;16384;0.691287;-0.6121883;0.3144044;0.2202216;35;-11;13;-628;3686;1139;65536;0.8002999;-0.5207756;0.08310249;0.2853186;-22;-25;-7;-531;3488;-1437;8192;0.4764543;-0.4778393;-0.5600674;-0.4806094;-31;1;-7;-54;4149;-369;32768;0.5867756;-0.4252077;-0.4529086;-0.5193906;40;1;9;1707;4017;-254;256;-0.1412742;0.07617728;-0.7046773;-0.6911357;4;-2;-25;989;3886;129;128;0.1565097;-0.07617728;0.5401662;0.8233603;-2;-7;24;-1207;3657;1358;4;0.6116805;-0.4542936;0.3850415;0.5207756;-2;-9;0;655;3638;150;16;-0.09418282;-0.9912399;-0.08587258;0.03462604;-13;-27;-4;-453;-1756;3264;2;0.4238227;-0.3393352;-0.5235457;-0.6566018;-10;-3;13;-925;3972;-389;8;-0.07063711;-0.9828429;0.05263158;-0.1620499;0;19;0;13;-701;4055;0.6538954;-0.2459893;0.3367736;0.6598361;0.2953663;0.4040073;0.6650606;0.7714667;0.4610983;0.7338247;1.501621;0.4364254;0.5067117;1.849125;0.3873449;0.1539688;1.743713;0.4551678;-0.01393776;0.8325996;0.4520834;0;0;0;1.024764;1.800339;0.3873438;1.29947;1.635839;0.4551665;1.375192;0.6774845;0.5191916;1.374231;-0.2447114;0.3016093;0.3416549;-0.286778;0.3235692;0.2149837;-1.68786;-0.07865278;0.6885842;-1.43919;1.156739;0.3416549;-0.286778;0.3235692;0.2149837;-1.68786;-0.07865278;0.6885842;-1.43919;1.156739
1196932.1696;NotLabelled;16384;0.6893487;-0.6135734;0.3130194;0.2243767;36;-13;13;-450;3690;1169;65536;0.7981097;-0.5221606;0.08587258;0.2880886;-23;-28;-1;-531;3542;-1533;8192;0.4792244;-0.4750692;-0.5612462;-0.4792244;-32;1;-9;78;4091;-485;32768;0.5909033;-0.4196676;-0.4542936;-0.5180055;45;8;13;1695;4073;-212;256;-0.1385041;0.07756232;-0.7037156;-0.6925207;4;-1;-26;987;3850;103;128;0.1537396;-0.07894737;0.5401662;0.8236212;-6;-8;26;-1157;3657;1304;4;0.6108065;-0.4542936;0.3864266;0.5207756;3;-10;-8;535;3474;140;16;-0.09833795;-0.9913009;-0.08033241;0.03462604;-9;-43;-1;-559;-2212;3766;2;0.4238227;-0.3393352;-0.5249307;-0.655495;-12;-7;13;-901;4072;-489;8;-0.07063711;-0.9829873;0.04986149;-0.1620499;-1;18;-1;41;-733;4093;0.6460281;-0.2392225;0.326224;0.6519679;0.3020415;0.3941948;0.6571916;0.7780633;0.451934;0.7216741;1.508619;0.4275891;0.4925333;1.854805;0.3786268;0.1404052;1.747297;0.4463523;-0.01968524;0.8347735;0.4478415;0;0;0;1.010863;1.809061;0.3786803;1.28652;1.646145;0.4464716;1.375972;0.6886292;0.5050994;1.39094;-0.2299843;0.2733382;0.3337878;-0.2799935;0.3129595;0.2068027;-1.67996;-0.09302886;0.6770345;-1.420592;1.14145;0.3337878;-0.2799935;0.3129595;0.2068027;-1.67996;-0.09302886;0.6770345;-1.420592;1.14145
1196953.2552;NotLabelled;16384;0.6845847;-0.6177285;0.3102493;0.2313019;35;-9;13;-182;3908;1243;65536;0.7915534;-0.5290859;0.0900277;0.2922437;-28;-29;12;-673;3528;-1493;8192;0.4819945;-0.4722992;-0.5612119;-0.4792244;-34;7;-11;194;4175;-591;32768;0.5936385;-0.4127424;-0.4570637;-0.5180055;50;18;18;1603;4169;-136;256;-0.1357341;0.08310249;-0.7036229;-0.6925207;1;1;-29;853;4136;161;128;0.1495845;-0.08448754;0.5415512;0.8229269;-5;-1;30;-791;4227;1336;4;0.6068205;-0.4556787;0.3891967;0.5221606;13;-21;-12;891;4266;352;16;-0.09972299;-0.9920456;-0.06925207;0.033241;-5;-82;5;-507;-1966;4788;2;0.4252077;-0.3407202;-0.5263157;-0.6527632;-14;-12;12;-927;4042;-501;8;-0.07202215;-0.9832507;0.04709141;-0.1606648;0;13;-2;123;-747;4113;0.641113;-0.233037;0.3195029;0.6470516;0.3081346;0.3882031;0.6522745;0.7840786;0.4465841;0.7129134;1.515062;0.4253793;0.4819642;1.860242;0.3778347;0.1303905;1.750592;0.4450044;-0.02142744;0.8366556;0.4442365;0;0;0;1.000527;1.817228;0.3778333;1.277022;1.655478;0.4450024;1.373251;0.6982636;0.4975038;1.397856;-0.2176437;0.2560577;0.3288728;-0.2737894;0.3061788;0.2023048;-1.674705;-0.09665488;0.6696673;-1.404749;1.136643;0.3288728;-0.2737894;0.3061788;0.2023048;-1.674705;-0.09665488;0.6696673;-1.404749;1.136643
1196973.987;NotLabelled;16384;0.6825403;-0.6191136;0.3088643;0.2354571;32;-6;13;-92;4158;1049;65536;0.78776;-0.533241;0.09418282;0.2936288;-30;-26;21;-763;3772;-1557;8192;0.4833795;-0.4695291;-0.562344;-0.4792244;-34;16;-11;290;4201;-505;32768;0.598144;-0.4030471;-0.4598338;-0.5180055;55;31;23;1527;4485;-116;256;-0.132964;0.08725762;-0.7050093;-0.6911357;0;3;-32;573;4648;127;128;0.1468144;-0.08864266;0.5415512;0.8229886;-8;0;28;-491;4543;1508;4;0.6036875;-0.4570637;0.3905817;0.5235457;14;-20;-11;1185;5460;860;16;-0.101108;-0.992897;-0.05401662;0.03185596;-10;-99;-6;477;-980;4472;2;0.4265928;-0.3421052;-0.5277008;-0.6500111;-16;-18;11;-797;4146;-467;8;-0.07202215;-0.9836048;0.04432133;-0.1592798;0;5;-2;147;-665;3967;0.6295663;-0.2175169;0.3041151;0.635506;0.323751;0.3720548;0.6407298;0.7997761;0.429767;0.6928491;1.531454;0.4098907;0.4578993;1.874005;0.3629346;0.1076185;1.760143;0.4298535;-0.02710774;0.8435316;0.4307163;0;0;0;0.9769284;1.837036;0.3629335;1.25528;1.678397;0.429852;1.35538;0.7212262;0.4754311;1.388894;-0.1917863;0.2242876;0.3173259;-0.2582884;0.290853;0.1957206;-1.662163;-0.1031084;0.666537;-1.389601;1.128301;0.3173259;-0.2582884;0.290853;0.1957206;-1.662163;-0.1031084;0.666537;-1.389601;1.128301
1196994.2024;NotLabelled;16384;0.680305;-0.6218836;0.3060942;0.2382271;29;-3;14;-16;4452;759;65536;0.7849386;-0.5373961;0.09833795;0.2922437;-30;-22;31;-821;4070;-1625;8192;0.4833795;-0.4639889;-0.5669238;-0.4792244;-31;23;-11;236;4385;-435;32768;0.5991118;-0.3933518;-0.4653739;-0.5193906;60;51;28;1331;4621;38;256;-0.1288089;0.09141274;-0.7052542;-0.6911357;-2;0;-36;181;4708;131;128;0.1440443;-0.09141274;0.5401662;0.8240846;-14;-16;22;-273;4247;1754;4;0.5974942;-0.4584487;0.3947368;0.5263157;6;-19;-12;-21;4186;160;16;-0.1052632;-0.9932853;-0.033241;0.03462604;-12;-13;-16;-2063;-782;3958;2;0.4307479;-0.3448753;-0.5304709;-0.6435199;-20;-20;5;-539;4124;-323;8;-0.0734072;-0.9840084;0.04293629;-0.1565097;1;10;-3;141;-711;3969;0.6306105;-0.2056684;0.2959973;0.6365493;0.3355155;0.3646032;0.6417723;0.8114696;0.4229012;0.6863376;1.543595;0.4012616;0.4478594;1.883591;0.3535244;0.09878173;1.766283;0.4207759;-0.02756836;0.8484783;0.4208573;0;0;0;0.9672424;1.851979;0.3535233;1.247226;1.696382;0.4207743;1.35148;0.7394609;0.462115;1.397133;-0.1688061;0.1961192;0.3183702;-0.2464237;0.282681;0.2029877;-1.652267;-0.1060987;0.6761985;-1.377338;1.123866;0.3183702;-0.2464237;0.282681;0.2029877;-1.652267;-0.1060987;0.6761985;-1.377338;1.123866
1197014.2827;NotLabelled;16384;0.6793019;-0.6232687;0.3033241;0.2409972;25;-1;14;-180;4468;501;65536;0.7803994;-0.5429363;0.1038781;0.2922437;-27;-20;40;-857;4280;-1669;8192;0.4847645;-0.4556787;-0.5701243;-0.4819945;-16;27;-5;148;4723;133;32768;0.5995838;-0.365651;-0.4778393;-0.5277008;58;83;37;1367;4569;198;256;-0.1246537;0.09418282;-0.7069901;-0.6897507;-7;-3;-38;-113;4450;29;128;0.1385041;-0.09141274;0.5387812;0.8259389;-7;-36;16;-335;4195;1616;4;0.5942829;-0.4598338;0.3961219;0.5277008;17;-22;-10;353;3854;-412;16;-0.1052632;-0.9928719;-0.04155125;0.03739612;-2;76;-9;-1509;-1314;3996;2;0.433518;-0.3462604;-0.5318559;-0.6397618;-23;-22;1;-519;4092;-279;8;-0.0734072;-0.9843447;0.0401662;-0.1551246;1;19;-3;99;-637;3999;0.6333654;-0.1920075;0.2787715;0.6393007;0.3488541;0.3498729;0.6445208;0.8245339;0.4103655;0.6805445;1.557162;0.3898308;0.4381202;1.894424;0.3425829;0.09042988;1.772951;0.4096262;-0.02620429;0.8538613;0.4099155;0;0;0;0.9578365;1.868873;0.3425816;1.239611;1.716451;0.4096245;1.352767;0.7604203;0.448051;1.411829;-0.1442399;0.1725703;0.321126;-0.2327008;0.2652515;0.2153116;-1.642248;-0.1126885;0.6994392;-1.357635;1.110808;0.321126;-0.2327008;0.2652515;0.2153116;-1.642248;-0.1126885;0.6994392;-1.357635;1.110808
1197035.2676;NotLabelled;16384;0.6774907;-0.6260388;0.300554;0.2423823;24;-3;12;-408;4234;485;65536;0.7772515;-0.5470914;0.1094183;0.2908587;-23;-22;45;-921;4210;-1553;8192;0.4833795;-0.4529086;-0.5734975;-0.4819945;-6;19;0;150;4617;351;32768;0.5984085;-0.3518005;-0.4819945;-0.534626;51;84;42;1463;4295;208;256;-0.1191136;0.09833795;-0.7087273;-0.6883656;-11;-7;-42;-107;4296;23;128;0.1315789;-0.0900277;0.5415512;0.8254116;11;-46;15;-375;3975;1390;4;0.588716;-0.4626039;0.3975069;0.5304709;24;-28;-13;1053;4160;-358;16;-0.1066482;-0.9920157;-0.05401662;0.0401662;0;73;-6;-245;-1474;3694;2;0.4362881;-0.3462604;-0.533241;-0.6367186;-24;-24;-2;-443;4022;-277;8;-0.0734072;-0.9847227;0.03601108;-0.1537396;1;25;-2;183;-657;4037;0.6347224;-0.1778331;0.2634355;0.6406528;0.362577;0.3378934;0.6458685;0.837872;0.4013381;0.674318;1.570773;0.3787587;0.4284167;1.90538;0.3306054;0.08200712;1.780508;0.3980342;-0.02711884;0.8604994;0.3957306;0;0;0;0.9483691;1.885199;0.3306038;1.231711;1.735885;0.3980321;1.351675;0.7803302;0.4263207;1.440283;-0.1130037;0.1231878;0.322484;-0.2184415;0.2496419;0.2246302;-1.629828;-0.1235491;0.7107894;-1.344248;1.098916;0.322484;-0.2184415;0.2496419;0.2246302;-1.629828;-0.1235491;0.7107894;-1.344248;1.098916
1197055.4504;NotLabelled;16384;0.6734137;-0.6288089;0.300554;0.2465374;20;-14;1;-704;3728;465;65536;0.7705052;-0.5554016;0.1218837;0.2880886;-14;-28;43;-971;3834;-1193;8192;0.4819945;-0.4515235;-0.5745887;-0.4833795;3;6;9;166;4385;707;32768;0.5979258;-0.3379501;-0.4847645;-0.5415512;40;70;46;1635;3853;212;256;-0.1149584;0.1024931;-0.7115043;-0.6855956;-18;-7;-44;-157;4204;43;128;0.1232687;-0.08725762;0.5457063;0.8242545;32;-56;16;-515;3935;1548;4;0.5841691;-0.4639889;0.398892;0.533241;23;-12;-14;1617;3918;58;16;-0.1066482;-0.9914711;-0.06232687;0.04155125;-3;47;-5;89;-1424;3902;2;0.4404432;-0.3462604;-0.534626;-0.6326836;-25;-22;-8;-307;4040;-85;8;-0.0734072;-0.985081;0.03185596;-0.1523546;3;26;0;335;-671;4055;0.6422314;-0.1635566;0.2554528;0.6481642;0.3770742;0.3282861;0.6533819;0.8525586;0.3903019;0.6714228;1.585738;0.3661047;0.4207934;1.916713;0.317235;0.07619511;1.787085;0.3849685;-0.0249263;0.8661604;0.3833291;0;0;0;0.9409799;1.903916;0.3172337;1.226417;1.758788;0.3849666;1.351082;0.8038793;0.4147;1.449196;-0.08341599;0.09710312;0.3299924;-0.204206;0.2417916;0.2477368;-1.618235;-0.1251078;0.7341921;-1.327541;1.096033;0.3299924;-0.204206;0.2417916;0.2477368;-1.618235;-0.1251078;0.7341921;-1.327541;1.096033
1197076.2207;NotLabelled;16384;0.6704732;-0.6301939;0.301939;0.2493075;17;-20;-7;-578;3458;319;65536;0.7673705;-0.5581717;0.1288089;0.2880886;-10;-31;38;-915;3606;-1119;8192;0.4806094;-0.4529086;-0.5758209;-0.4819945;5;-11;17;118;4119;853;32768;0.5971586;-0.3282548;-0.4861496;-0.5470914;29;39;48;1733;3507;-110;256;-0.1038781;0.1108033;-0.7172563;-0.6800554;-25;-8;-45;-253;4086;155;128;0.1121884;-0.08725762;0.5623268;0.8146093;48;-10;32;-53;3823;970;4;0.5838472;-0.466759;0.3961219;0.533241;22;16;-9;1799;3544;446;16;-0.1080332;-0.9909921;-0.06648199;0.04293629;-8;34;0;11;-1072;4098;2;0.4432133;-0.3462604;-0.536011;-0.6295696;-26;-13;-13;-247;4110;149;8;-0.0734072;-0.9851667;0.02908587;-0.1523546;10;21;2;475;-529;4037;0.6516427;-0.1443954;0.2422028;0.6575798;0.396647;0.3119128;0.6628015;0.8724813;0.3711818;0.6714408;1.605675;0.3426291;0.4165859;1.933115;0.2918328;0.07368252;1.799485;0.3603867;-0.01751611;0.8775296;0.3569758;0;0;0;0.9368939;1.926986;0.2918293;1.224172;1.785933;0.3603798;1.348402;0.8308167;0.3847641;1.454319;-0.04963255;0.05103165;0.3394028;-0.1851234;0.2287963;0.2677491;-1.600748;-0.1341512;0.7550926;-1.309079;1.086403;0.3394028;-0.1851234;0.2287963;0.2677491;-1.600748;-0.1341512;0.7550926;-1.309079;1.086403
1197097.219;NotLabelled;16384;0.6673932;-0.6315789;0.3047091;0.2506925;13;-25;-14;-462;3426;203;65536;0.765165;-0.5595568;0.1357341;0.2880886;-6;-34;33;-917;3476;-1015;8192;0.4806094;-0.4556787;-0.5759475;-0.4792244;1;-26;21;180;3779;787;32768;0.6000892;-0.3199446;-0.4833795;-0.5512465;18;2;47;1741;3229;-402;256;-0.09833795;0.1149584;-0.7212995;-0.6759003;-30;-9;-44;-415;3828;313;128;0.1094183;-0.09141274;0.5692521;0.8097058;43;10;37;-135;3819;1000;4;0.5850354;-0.4764543;0.3864266;0.5304709;25;42;-5;1027;3962;-490;16;-0.1108033;-0.9895461;-0.08171745;0.04293629;-13;65;13;-253;-710;4068;2;0.4473684;-0.3434903;-0.5387812;-0.6257721;-26;-3;-15;-335;4152;221;8;-0.07063711;-0.9853692;0.02908587;-0.1523546;14;-12;8;995;-875;4253;0.6766856;-0.1253586;0.2688856;0.6826459;0.417788;0.3196608;0.6878872;0.8954015;0.3622782;0.6749434;1.628151;0.3252193;0.4105697;1.947333;0.2706609;0.07173483;1.804471;0.3408059;-0.01442245;0.8820391;0.3458271;0;0;0;0.9308323;1.956527;0.2706597;1.222124;1.824798;0.3408042;1.347347;0.8701544;0.3761719;1.458919;-0.005358696;0.03147525;0.364441;-0.1665273;0.257029;0.3037844;-1.582125;-0.1080215;0.7872756;-1.286185;1.113036;0.364441;-0.1665273;0.257029;0.3037844;-1.582125;-0.1080215;0.7872756;-1.286185;1.113036
1197118.1623;NotLabelled;16384;0.664957;-0.6315789;0.3088643;0.2520775;7;-30;-20;-364;3504;57;65536;0.762621;-0.5609418;0.1412742;0.2894737;-2;-34;31;-927;3516;-931;8192;0.4806094;-0.4653739;-0.5750492;-0.4709141;-2;-39;26;510;3311;1031;32768;0.6140234;-0.3171745;-0.4722992;-0.5470914;-2;-72;42;1415;3005;-560;256;-0.09279778;0.1191136;-0.7252303;-0.6717451;-31;-6;-44;-659;3908;425;128;0.1080332;-0.09556787;0.5747922;0.8054872;54;2;30;-43;3821;1360;4;0.5847139;-0.4806094;0.3836565;0.5290859;22;11;-1;619;3974;-720;16;-0.1108033;-0.9888838;-0.0900277;0.04155125;-8;57;17;-9;-468;3834;2;0.4501385;-0.33518;-0.5415512;-0.6259009;-23;11;-20;-1103;4088;63;8;-0.06648199;-0.984673;0.03878116;-0.1565097;2;-32;15;85;-249;4237;0.693633;-0.1133265;0.2792011;0.6996014;0.4305511;0.3214352;0.7048492;0.9087744;0.3565422;0.6807473;1.64086;0.3125734;0.411555;1.955446;0.2549639;0.07491586;1.808101;0.3263966;-0.008825406;0.8854942;0.3370737;0;0;0;0.931617;1.972571;0.2549624;1.224862;1.845965;0.3263943;1.351503;0.8917193;0.3670319;1.464761;0.02289772;0.006324708;0.3813863;-0.1546764;0.2680465;0.3482703;-1.570234;-0.1006779;0.8233061;-1.265573;1.121553;0.3813863;-0.1546764;0.2680465;0.3482703;-1.570234;-0.1006779;0.8233061;-1.265573;1.121553
1197138.262;NotLabelled;16384;0.6618267;-0.6315789;0.3144044;0.2534626;2;-34;-24;-216;3786;-199;65536;0.7613056;-0.5609418;0.1481994;0.2894737;0;-34;30;-987;3656;-787;8192;0.4819945;-0.4695291;-0.5750225;-0.4653739;-4;-44;27;484;3477;1283;32768;0.6237563;-0.3199446;-0.4639889;-0.5415512;-12;-99;36;1207;3121;-670;256;-0.08725762;0.1232687;-0.7290504;-0.66759;-32;-8;-41;-891;3888;449;128;0.1066482;-0.09833795;0.5817174;0.8003503;49;4;25;273;3947;1210;4;0.5820768;-0.4833795;0.3822715;0.5304709;21;-12;1;575;3944;-458;16;-0.1108033;-0.988421;-0.09556787;0.0401662;-4;28;15;-253;-600;3792;2;0.4529086;-0.3310249;-0.5429363;-0.6249132;-26;0;-20;-1041;3966;205;8;-0.06648199;-0.9842287;0.03878116;-0.1592798;1;0;17;-305;-325;4001;0.7101651;-0.101675;0.28901;0.7161388;0.4427052;0.3241717;0.7213914;0.9213452;0.3530605;0.6861835;1.652538;0.3022659;0.4122663;1.962444;0.2416453;0.07787373;1.81067;0.3143443;-0.00652191;0.8881931;0.3299496;0;0;0;0.9320079;1.987474;0.2416441;1.227111;1.866013;0.3143426;1.355955;0.9128542;0.3705876;1.468264;0.05409956;-0.0137493;0.3979169;-0.1431661;0.2784383;0.3765184;-1.55953;-0.08804858;0.8425376;-1.254442;1.137543;0.3979169;-0.1431661;0.2784383;0.3765184;-1.55953;-0.08804858;0.8425376;-1.254442;1.137543
1197159.196;NotLabelled;16384;0.6559119;-0.6315789;0.3254848;0.2548476;-11;-35;-27;54;4338;-413;65536;0.7572163;-0.5623268;0.1606648;0.2908587;10;-31;35;-1183;4180;-719;8192;0.4833795;-0.4750692;-0.5748724;-0.4584487;-7;-46;27;578;3699;1249;32768;0.6343718;-0.3268698;-0.4542936;-0.533241;-20;-118;29;955;3327;-860;256;-0.08171745;0.1274238;-0.7340133;-0.6620498;-30;-7;-40;-915;3880;419;128;0.1038781;-0.1024931;0.5872576;0.7961363;30;0;25;621;4047;1470;4;0.5792952;-0.4847645;0.3808864;0.533241;18;-3;1;807;4010;2;16;-0.1121884;-0.9881852;-0.09695291;0.03878116;-5;3;14;-679;-902;3700;2;0.4556787;-0.3282548;-0.5429363;-0.6243604;-11;1;-18;-1001;3562;-137;8;-0.06648199;-0.9841088;0.03601108;-0.1606648;1;24;14;149;-693;4011;0.7321422;-0.09020472;0.3008837;0.7381216;0.454679;0.3271125;0.7433786;0.9337282;0.3481473;0.6971214;1.663805;0.2906072;0.4185737;1.968953;0.2270144;0.08647771;1.8128;0.3009593;0.0006978363;0.8905935;0.3234796;0;0;0;0.9378762;2.001858;0.2270132;1.234744;1.885559;0.3009576;1.368294;0.9334621;0.3638213;1.477707;0.07906914;-0.03093129;0.4198921;-0.1318626;0.29105;0.4119177;-1.548642;-0.07437161;0.8695772;-1.243428;1.154335;0.4198921;-0.1318626;0.29105;0.4119177;-1.548642;-0.07437161;0.8695772;-1.243428;1.154335
1197180.3587;NotLabelled;16384;0.6558008;-0.6288089;0.3310249;0.2548476;-13;-34;-26;138;4588;-545;65536;0.7567424;-0.5609418;0.16759;0.2908587;16;-32;40;-1255;4498;-705;8192;0.4847645;-0.4792244;-0.5757377;-0.4515235;-10;-49;23;734;3859;1259;32768;0.6448927;-0.33518;-0.4445983;-0.5235457;-25;-123;22;633;3521;-1084;256;-0.0734072;0.1357341;-0.7408186;-0.6537396;-26;-2;-38;-1121;3926;431;128;0.09833795;-0.1080332;0.5955678;0.7899097;32;-2;19;531;4195;770;4;0.5790435;-0.4861496;0.3795014;0.533241;17;1;5;555;4026;-460;16;-0.1121884;-0.9881532;-0.09833795;0.03601108;-6;-6;13;-1061;-1090;3800;2;0.4598338;-0.3254848;-0.5415512;-0.6239671;-9;-14;-20;-1431;3880;407;8;-0.06648199;-0.9842063;0.033241;-0.1606648;1;21;7;589;-641;4239;0.760056;-0.0756259;0.2968485;0.7660386;0.4695435;0.3162489;0.771298;0.9488182;0.3312803;0.7136729;1.677286;0.2643645;0.4304455;1.977192;0.1966462;0.1007608;1.816814;0.272314;0.01066037;0.8954935;0.3094756;0;0;0;0.9491688;2.018229;0.196645;1.247747;1.907551;0.2723122;1.386533;0.9568515;0.3443129;1.490583;0.1048017;-0.05689907;0.4478046;-0.117404;0.2875804;0.4521905;-1.533533;-0.0804094;0.9017847;-1.224916;1.150423;0.4478046;-0.117404;0.2875804;0.4521905;-1.533533;-0.0804094;0.9017847;-1.224916;1.150423
1197201.1658;NotLabelled;16384;0.6543057;-0.6274238;0.3365651;0.2548476;-15;-31;-26;152;4804;-565;65536;0.7560894;-0.5595568;0.1772853;0.2894737;22;-38;47;-1261;4704;-521;8192;0.4875346;-0.4833795;-0.576382;-0.4432133;-11;-49;19;940;3853;1237;32768;0.6533918;-0.3462604;-0.434903;-0.5138504;-30;-120;16;483;3647;-1228;256;-0.06786703;0.1398892;-0.7442211;-0.6495845;-24;-5;-35;-1251;3974;429;128;0.09695291;-0.1108033;0.601108;0.7854884;40;-2;14;525;4333;750;4;0.5775059;-0.4875346;0.3781163;0.534626;13;-1;10;387;4102;-476;16;-0.1135734;-0.9880444;-0.09833795;0.03462604;-5;0;10;-1159;-1092;3832;2;0.466759;-0.3240997;-0.5401662;-0.6207382;-8;-37;-25;-1657;3742;873;8;-0.06648199;-0.9842521;0.03185596;-0.1606648;0;2;3;241;-463;4389;0.7992699;-0.05644894;0.3251706;0.8052554;0.4889846;0.3345637;0.8105169;0.9684548;0.3407978;0.733833;1.69384;0.2608089;0.4429255;1.984914;0.1873483;0.1174416;1.817263;0.265401;0.01980307;0.8968191;0.3051557;0;0;0;0.9603857;2.039621;0.1873471;1.261634;1.938226;0.2653997;1.408087;0.9892912;0.3450797;1.506308;0.1385331;-0.06032264;0.4870168;-0.09838915;0.3167334;0.4969109;-1.514348;-0.05180828;0.9369401;-1.206328;1.182625;0.4870168;-0.09838915;0.3167334;0.4969109;-1.514348;-0.05180828;0.9369401;-1.206328;1.182625
1197221.4058;NotLabelled;16384;0.6520296;-0.6260388;0.3434903;0.2548476;-16;-31;-25;162;5042;-471;65536;0.7547765;-0.5581717;0.1869806;0.2894737;25;-43;52;-1353;4888;-349;8192;0.4916897;-0.4916897;-0.5752727;-0.4307479;-8;-38;21;1122;3815;1285;32768;0.6675987;-0.365651;-0.4196676;-0.4944598;-34;-96;8;233;3603;-1294;256;-0.06371191;0.1426593;-0.7464718;-0.6468144;-26;-9;-31;-1339;4160;699;128;0.09556787;-0.1121884;0.6080332;0.7801129;52;-3;15;525;4287;846;4;0.5745419;-0.4875346;0.3767313;0.5387812;5;-15;14;703;4128;-614;16;-0.1149584;-0.9873646;-0.1038781;0.033241;-1;19;3;-1231;-1076;3686;2;0.4722992;-0.3240997;-0.536011;-0.6201492;4;-40;-25;-1273;3864;29;8;-0.06648199;-0.984296;0.03047091;-0.1606648;2;3;2;-101;-127;4305;0.830458;-0.04397345;0.334148;0.8364443;0.5015364;0.3363178;0.8417063;0.9810472;0.3362023;0.7542304;1.704469;0.2497651;0.4590657;1.990486;0.1734769;0.1360518;1.818658;0.2526985;0.03313304;0.8990188;0.2974294;0;0;0;0.9756465;2.052954;0.1734754;1.2783;1.956783;0.2526966;1.434596;1.010043;0.3394642;1.524483;0.1577768;-0.0647015;0.5182036;-0.08602142;0.3263122;0.5373521;-1.501504;-0.04368904;0.9694416;-1.190201;1.192724;0.5182036;-0.08602142;0.3263122;0.5373521;-1.501504;-0.04368904;0.9694416;-1.190201;1.192724
1197242.1622;NotLabelled;16384;0.6522811;-0.6232687;0.3490305;0.2534626;-17;-31;-26;100;5070;-343;65536;0.7535021;-0.5567867;0.1980609;0.2880886;28;-49;56;-1467;4888;-167;8192;0.4916897;-0.4958449;-0.5768478;-0.4238227;-7;-34;24;1062;3663;1179;32768;0.6716167;-0.3753462;-0.4127424;-0.4875346;-36;-82;5;235;3587;-1412;256;-0.05955679;0.1454294;-0.7510464;-0.6412742;-32;-12;-27;-1287;4308;777;128;0.09418282;-0.1135734;0.6149584;0.7746333;53;-2;14;535;4279;738;4;0.5727076;-0.4861496;0.3753462;0.5429363;4;-16;13;983;4114;-410;16;-0.1149584;-0.9869187;-0.1080332;0.033241;0;19;0;-991;-1050;3744;2;0.4792244;-0.3227147;-0.5277008;-0.6226805;13;2;-25;-1395;3786;143;8;-0.06094183;-0.9851025;0.03047091;-0.1578947;2;-8;-4;305;-155;4291;0.8562823;-0.03420591;0.3603382;0.8622681;0.5112638;0.3533556;0.8675293;0.990705;0.3451953;0.7726753;1.712644;0.2542577;0.4747426;1.995067;0.1753841;0.1533167;1.820287;0.254609;0.04414032;0.9009643;0.2900213;0;0;0;0.9906306;2.063007;0.176617;1.294034;1.970513;0.2573363;1.460949;1.025277;0.3406572;1.540884;0.169414;-0.0579614;0.5440266;-0.07637882;0.3532665;0.5753346;-1.490047;-0.02279428;0.9951726;-1.175141;1.216922;0.5440266;-0.07637882;0.3532665;0.5753346;-1.490047;-0.02279428;0.9951726;-1.175141;1.216922
1197262.1694;NotLabelled;16384;0.651298;-0.6177285;0.3614958;0.2520775;-19;-29;-28;-200;4674;-203;65536;0.7504038;-0.5526316;0.2202216;0.2880886;29;-48;55;-1625;4680;-77;8192;0.4916897;-0.4986149;-0.5785016;-0.4182825;-4;-34;27;1010;3541;1169;32768;0.6753296;-0.3850415;-0.4058172;-0.4806094;-37;-70;3;179;3477;-1396;256;-0.05540166;0.1468144;-0.7546227;-0.6371191;-38;-13;-22;-1303;4088;773;128;0.09279778;-0.1135734;0.6218836;0.7692531;55;-6;11;425;4151;792;4;0.5724195;-0.4833795;0.3753462;0.5457063;4;-12;13;1059;3932;-322;16;-0.1149584;-0.986766;-0.1094183;0.033241;0;9;-2;-919;-954;3856;2;0.4806094;-0.3213296;-0.5249307;-0.6246676;15;4;-29;-1431;3428;231;8;-0.05955679;-0.9850976;0.033241;-0.1578947;5;-18;-3;101;241;4047;0.8899615;-0.024055;0.3585414;0.8959453;0.5212188;0.3423423;0.9012042;1.000453;0.3260813;0.7979359;1.720001;0.2258286;0.4967061;1.997901;0.1434919;0.1773708;1.820454;0.2252012;0.05930055;0.9031959;0.2802079;0;0;0;1.011772;2.071826;0.1434907;1.31627;1.983913;0.2251995;1.491495;1.042647;0.3328574;1.563197;0.1835666;-0.06036955;0.5777045;-0.06634092;0.3522411;0.615196;-1.477451;-0.03275517;1.032499;-1.16231;1.207758;0.5777045;-0.06634092;0.3522411;0.615196;-1.477451;-0.03275517;1.032499;-1.16231;1.207758
1197283.2024;NotLabelled;16384;0.650045;-0.6163435;0.367036;0.2506925;-18;-25;-29;-376;4512;-177;65536;0.7496352;-0.5498615;0.2313019;0.2867036;29;-43;50;-1711;4480;-63;8192;0.4916897;-0.5041551;-0.5776786;-0.4127424;0;-40;30;1040;3299;1143;32768;0.6775926;-0.3919668;-0.400277;-0.4764543;-37;-63;0;291;3231;-1296;256;-0.05263158;0.1481994;-0.7591936;-0.6315789;-38;-12;-18;-1349;3878;737;128;0.09141274;-0.1135734;0.6288089;0.7637697;50;-8;8;349;3949;772;4;0.5709379;-0.4819945;0.3753462;0.5484765;4;-15;13;1039;3848;-404;16;-0.1149584;-0.9865639;-0.1108033;0.03462604;0;3;-2;-621;-900;3806;2;0.4833795;-0.3185596;-0.5207756;-0.6274208;16;3;-35;-1609;3680;279;8;-0.0567867;-0.9853848;0.03601108;-0.1565097;3;-26;-4;-107;239;3873;0.941793;-0.01569462;0.3601231;0.9477728;0.5292244;0.3346428;0.9530278;1.008113;0.3102252;0.8434357;1.72565;0.2025532;0.5398417;1.999976;0.1169741;0.2219923;1.820487;0.2000099;0.08680061;0.906117;0.2630872;0;0;0;1.05422;2.078542;0.1169726;1.359371;1.994209;0.2000078;1.541004;1.055142;0.3159245;1.606142;0.1927371;-0.07111913;0.6295349;-0.05808115;0.3546019;0.6667079;-1.467184;-0.03770775;1.077155;-1.151965;1.205071;0.6295349;-0.05808115;0.3546019;0.6667079;-1.467184;-0.03770775;1.077155;-1.151965;1.205071
1197303.3414;NotLabelled;16384;0.6487364;-0.6149584;0.3725762;0.2493075;-20;-20;-30;-430;4260;-179;65536;0.7486069;-0.5470914;0.2409972;0.2867036;28;-34;42;-1709;4234;-37;8192;0.4916897;-0.5096953;-0.576748;-0.4072022;0;-43;30;1074;3161;1163;32768;0.6788923;-0.400277;-0.3947368;-0.4722992;-41;-59;-3;311;2991;-1262;256;-0.04709141;0.1481994;-0.7675155;-0.6218836;-39;-15;-7;-1161;3458;707;128;0.0900277;-0.1135734;0.6412742;0.7535008;54;-4;0;335;3731;642;4;0.5694357;-0.4806094;0.3753462;0.5512465;6;-14;13;1317;3870;-214;16;-0.1149584;-0.9867184;-0.1094183;0.03462604;1;-3;-1;-659;-1034;3796;2;0.4861496;-0.3144044;-0.5166205;-0.6308025;11;-4;-41;-1547;3656;361;8;-0.05401662;-0.9856544;0.03878116;-0.1551246;2;-29;-5;-371;153;3891;0.9703124;-0.008243084;0.3760977;0.9762865;0.5361586;0.3412693;0.9815363;1.014558;0.3086365;0.8667037;1.729706;0.1909952;0.5612113;2.00051;0.1010657;0.2445615;1.819734;0.1858733;0.1025899;0.9068189;0.2548566;0;0;0;1.074974;2.083009;0.1010642;1.380578;2.002152;0.1858711;1.564412;1.064685;0.3109164;1.623071;0.1999354;-0.07190704;0.6580534;-0.05071735;0.3713635;0.6987094;-1.458453;-0.02548283;1.107943;-1.142761;1.217575;0.6580534;-0.05071735;0.3713635;0.6987094;-1.458453;-0.02548283;1.107943;-1.142761;1.217575
1197324.2604;NotLabelled;16384;0.6481788;-0.6135734;0.3767313;0.2479224;-21;-14;-31;-446;4040;-161;65536;0.7478135;-0.5457063;0.2465374;0.2867036;26;-21;33;-1699;4060;-5;8192;0.4916897;-0.5207756;-0.574562;-0.3961219;-1;-41;23;922;2989;1147;32768;0.6817473;-0.4168975;-0.3822715;-0.4639889;-45;-60;-12;421;2773;-1360;256;-0.04570637;0.1468144;-0.7723193;-0.6163435;-40;-16;-3;-1169;3378;699;128;0.09141274;-0.1121884;0.6481994;0.7475928;57;-3;-5;393;3573;604;4;0.5704523;-0.4778393;0.3711911;0.5554016;7;0;17;1061;3772;-180;16;-0.1149584;-0.9870217;-0.1066482;0.03462604;0;-15;-1;-773;-812;3884;2;0.4903047;-0.3102493;-0.5110803;-0.6341479;7;-14;-46;-1451;3484;423;8;-0.05263158;-0.985774;0.04293629;-0.1537396;3;-24;-6;-435;-141;3591;0.9965143;0.004279137;0.4214456;1.002473;0.5473056;0.3694036;1.007709;1.024433;0.3216451;0.8859019;1.735168;0.1857027;0.5779792;2.0004;0.08780599;0.262879;1.81846;0.1758345;0.1134297;0.9070854;0.2492518;0;0;0;1.090845;2.088299;0.08780438;1.396914;2.012818;0.175832;1.581494;1.07702;0.3118004;1.635138;0.208724;-0.06366211;0.6842539;-0.03832245;0.4181665;0.7312911;-1.444674;0.01714021;1.127801;-1.129063;1.264336;0.6842539;-0.03832245;0.4181665;0.7312911;-1.444674;0.01714021;1.127801;-1.129063;1.264336
1197367.1848;NotLabelled;16384;0.646264;-0.6121883;0.3891967;0.2368421;-24;0;-33;-500;3842;-245;65536;0.7495622;-0.5429363;0.2520775;0.2825485;19;14;11;-1447;3794;45;8192;0.4930748;-0.5290859;-0.5714434;-0.3878116;0;-37;15;778;2851;775;32768;0.6807123;-0.434903;-0.3739612;-0.4556787;-40;-52;-21;399;2861;-1338;256;-0.04432133;0.1426593;-0.7797304;-0.6080332;-35;-19;4;-1281;3300;715;128;0.09279778;-0.1080332;0.6606648;0.7370478;49;-10;-12;633;3769;360;4;0.5727461;-0.4750692;0.367036;0.5581717;4;1;27;731;4170;-218;16;-0.1135734;-0.9875725;-0.1024931;0.03601108;2;-1;-3;-769;-900;3982;2;0.5055401;-0.300554;-0.4972299;-0.6378549;7;-6;-46;-807;3508;185;8;-0.05124654;-0.9862984;0.05124654;-0.1481994;2;-26;-22;-351;-1301;3841;1.009759;0.008603573;0.446892;1.015707;0.5505695;0.3847687;1.020932;1.026727;0.3281527;0.8983967;1.735173;0.1813487;0.5903248;1.998441;0.07873538;0.2752756;1.81734;0.168656;0.1195208;0.9073105;0.2455609;0;0;0;1.103055;2.087128;0.0787335;1.409011;2.01344;0.1686532;1.597649;1.08117;0.3221555;1.633598;0.2064133;-0.04019386;0.6974984;-0.03405094;0.4444684;0.7492505;-1.435018;0.02557614;1.140104;-1.119572;1.274597;0.6974984;-0.03405094;0.4444684;0.7492505;-1.435018;0.02557614;1.140104;-1.119572;1.274597
1197388.4724;NotLabelled;16384;0.6447558;-0.6121883;0.3933518;0.234072;-23;-1;-32;-534;3834;-335;65536;0.7505469;-0.5429363;0.2506925;0.2811634;18;15;7;-1319;3840;55;8192;0.4944598;-0.533241;-0.5691847;-0.3836565;6;-36;14;710;2831;787;32768;0.680391;-0.4432133;-0.3698061;-0.4515235;-40;-42;-23;379;2787;-1074;256;-0.04432133;0.1398892;-0.7834526;-0.6038781;-35;-23;6;-1459;3380;831;128;0.09141274;-0.1052632;0.666205;0.7326215;44;-15;-16;791;3903;416;4;0.5743082;-0.4736842;0.3642659;0.5595568;0;-2;30;623;4144;-350;16;-0.1135734;-0.9874278;-0.1038781;0.03601108;0;5;-3;-987;-1204;3922;2;0.5083103;-0.2977839;-0.4916897;-0.6412383;7;-6;-42;-777;3508;41;8;-0.05263158;-0.9866931;0.05401662;-0.1440443;0;-25;-28;-465;-1813;3629;1.04197;0.008486748;0.4798741;1.047891;0.5480747;0.3996781;1.053093;1.022075;0.3271851;0.9325114;1.727146;0.1634886;0.6253589;1.988528;0.05355701;0.3096059;1.810143;0.1463908;0.1313242;0.906209;0.2435896;0;0;0;1.138256;2.076246;0.05355561;1.443709;2.004104;0.1463888;1.635043;1.074111;0.3100307;1.658832;0.1901436;-0.03029931;0.7297084;-0.03422308;0.4789914;0.785028;-1.429977;0.04348126;1.169388;-1.118048;1.295397;0.7297084;-0.03422308;0.4789914;0.785028;-1.429977;0.04348126;1.169388;-1.118048;1.295397
1197409.642;NotLabelled;16384;0.644555;-0.6121883;0.3961219;0.2299169;-22;-6;-31;-580;3822;-331;65536;0.7505469;-0.5429363;0.2506925;0.2811634;19;9;3;-1209;3800;89;8192;0.4944598;-0.5373961;-0.5671335;-0.3808864;10;-39;14;672;2965;905;32768;0.6775048;-0.4515235;-0.368421;-0.4487534;-43;-30;-26;409;2729;-890;256;-0.0401662;0.134349;-0.7920125;-0.5941828;-41;-33;8;-1545;3544;783;128;0.09141274;-0.09695291;0.6772853;0.7235526;53;-26;-24;767;3947;-78;4;0.5747572;-0.4709141;0.3628809;0.5623268;0;-8;30;845;3938;-500;16;-0.1135734;-0.9872296;-0.1052632;0.03739612;0;9;-4;-1085;-1198;3896;2;0.5124654;-0.2950138;-0.4875346;-0.6423831;9;-7;-34;-785;3358;-7;8;-0.0567867;-0.9871004;0.0567867;-0.1385041;-7;-15;-30;17;-2183;3499;1.04455;0.008489132;0.5009094;1.050458;0.5468783;0.4130224;1.055648;1.019795;0.3337736;0.9374822;1.723231;0.1615007;0.6313248;1.984194;0.04786229;0.3148603;1.807851;0.1421616;0.1304691;0.9058223;0.2454791;0;0;0;1.144478;2.070399;0.04786038;1.449531;1.998462;0.1421586;1.640956;1.069358;0.3106738;1.659214;0.1814427;-0.01956815;0.7322886;-0.0342288;0.500685;0.7897701;-1.426778;0.05530757;1.168045;-1.114759;1.309054;0.7322886;-0.0342288;0.500685;0.7897701;-1.426778;0.05530757;1.168045;-1.114759;1.309054
1197430.334;NotLabelled;16384;0.6442841;-0.6108033;0.400277;0.2271468;-19;-13;-29;-616;3790;-319;65536;0.7525238;-0.5415512;0.2493075;0.2797784;18;2;1;-1159;3786;113;8192;0.4944598;-0.5498615;-0.5597454;-0.3739612;15;-46;17;430;3011;1067;32768;0.671181;-0.468144;-0.3642659;-0.4445983;-50;-26;-34;677;2877;-832;256;-0.03878116;0.1301939;-0.7968974;-0.5886427;-46;-38;10;-1407;3594;787;128;0.0900277;-0.0900277;0.6855956;0.7167627;73;-40;-27;671;4213;-294;4;0.5764287;-0.4653739;0.3587258;0.567867;-4;5;36;1017;3880;-450;16;-0.1135734;-0.9866688;-0.1094183;0.0401662;1;6;-9;-1085;-870;3786;2;0.5152354;-0.2936288;-0.4833795;-0.6439401;11;-11;-25;-739;3024;-143;8;-0.0567867;-0.9877532;0.05540166;-0.134349;8;21;-26;-495;-2547;5577;1.047379;0.01694489;0.554363;1.053256;0.5524688;0.4504335;1.058418;1.022808;0.3570939;0.9414938;1.721381;0.1652927;0.6360254;1.979332;0.04323468;0.3190214;1.805776;0.1408351;0.1265762;0.9058232;0.2475087;0;0;0;1.14923;2.065233;0.04323286;1.453805;1.995716;0.1408325;1.641882;1.06722;0.3163249;1.659786;0.1741791;0.0001844168;0.735118;-0.02575874;0.5555168;0.798328;-1.414946;0.1005184;1.159848;-1.10246;1.359083;0.735118;-0.02575874;0.5555168;0.798328;-1.414946;0.1005184;1.159848;-1.10246;1.359083
1197451.2436;NotLabelled;16384;0.6421726;-0.6108033;0.4044321;0.2257618;-16;-20;-29;-608;3788;-339;65536;0.7530029;-0.5401662;0.2493075;0.2811634;18;-6;0;-1083;3754;163;8192;0.4944598;-0.5570296;-0.5554016;-0.3698061;17;-52;18;348;3125;949;32768;0.6669145;-0.4778393;-0.3628809;-0.4418283;-53;-29;-39;799;3055;-930;256;-0.03601108;0.1246537;-0.8019702;-0.5831025;-52;-43;9;-1365;3932;1011;128;0.0900277;-0.08171745;0.6966759;0.7070078;101;-40;-27;73;4641;-572;4;0.5801076;-0.4612188;0.3559557;0.5692521;-5;2;45;871;4004;-460;16;-0.1135734;-0.9866115;-0.1094183;0.04155125;0;7;-12;-945;-994;3780;2;0.5180055;-0.2950138;-0.4764543;-0.6462418;15;-5;-27;-1523;5856;1121;8;-0.06232687;-0.9897515;0.02493075;-0.1260388;-22;129;-3;167;-33;4547;1.053242;0.01908875;0.5936939;1.059092;0.552176;0.477911;1.064229;1.020329;0.3741614;0.9501064;1.716173;0.1710842;0.6458067;1.973164;0.04417795;0.327981;1.802199;0.1436621;0.1264353;0.9044895;0.2524074;0;0;0;1.15929;2.057382;0.04417616;1.463381;1.988419;0.1436595;1.6426;1.061014;0.3336004;1.648629;0.158649;0.04465806;0.740981;-0.02357817;0.5958705;0.806475;-1.404701;0.1172595;1.162864;-1.091153;1.377023;0.740981;-0.02357817;0.5958705;0.806475;-1.404701;0.1172595;1.162864;-1.091153;1.377023
1197472.5782;NotLabelled;16384;0.6372907;-0.6094183;0.4141274;0.2257618;-5;-29;-32;-394;3940;-133;65536;0.751973;-0.5373961;0.2520775;0.2867036;15;-21;-2;-1029;3888;293;8192;0.4944598;-0.565209;-0.5498615;-0.365651;19;-58;18;406;3261;799;32768;0.6624641;-0.4875346;-0.3614958;-0.4390582;-54;-33;-45;867;3283;-964;256;-0.03462604;0.1191136;-0.8068672;-0.5775623;-57;-45;13;-857;4262;733;128;0.0900277;-0.0734072;0.7092792;0.6952909;108;-33;-23;-539;4451;-148;4;0.5823602;-0.4570637;0.3531856;0.5720221;-5;-1;50;741;4024;-284;16;-0.1149584;-0.9861758;-0.1108033;0.04432133;1;5;-10;-845;-1248;3732;2;0.5221606;-0.2922437;-0.4722992;-0.6472058;-6;-5;-41;-959;5250;1103;8;-0.06786703;-0.989798;0.01246537;-0.1246537;-25;54;5;1707;-735;4059;1.050881;0.02474785;0.6377623;1.056689;0.5540371;0.5056986;1.06179;1.018792;0.3876523;0.9509646;1.711676;0.1729583;0.6480216;1.967758;0.04106823;0.3292598;1.79969;0.1424754;0.1233996;0.9036593;0.2568443;0;0;0;1.161834;2.049944;0.04106629;1.465388;1.981416;0.1424726;1.639768;1.054804;0.3406059;1.642466;0.1470432;0.06903332;0.7386208;-0.01783085;0.64135;0.8024914;-1.39375;0.147765;1.146601;-1.079811;1.41084;0.7386208;-0.01783085;0.64135;0.8024914;-1.39375;0.147765;1.146601;-1.079811;1.41084
1197494.8004;NotLabelled;16384;0.6331609;-0.6094183;0.4196676;0.2271468;4;-23;-41;-324;3816;139;65536;0.7508996;-0.536011;0.2534626;0.2908587;11;-24;-5;-1017;3642;369;8192;0.4944598;-0.5718696;-0.5457063;-0.3614958;21;-63;18;310;3383;533;32768;0.6587427;-0.4972299;-0.3601108;-0.434903;-52;-35;-48;903;3201;-842;256;-0.033241;0.1108033;-0.8130135;-0.5706371;-70;-47;18;-305;3980;823;128;0.09141274;-0.06509695;0.7192808;0.6855956;85;-28;-23;-889;3993;-48;4;0.5842562;-0.4515235;0.3504155;0.5761772;-8;-6;55;895;3862;-400;16;-0.1135734;-0.9863363;-0.1108033;0.04432133;4;3;-5;-459;-978;3714;2;0.5249307;-0.2880886;-0.4709141;-0.6478369;-6;-4;-46;-289;4096;423;8;-0.07063711;-0.9895654;0.01523546;-0.1246537;-15;-25;9;1509;-729;3699;1.050053;0.03007066;0.680499;1.055806;0.5543474;0.5297591;1.060857;1.014627;0.3953148;0.9545906;1.704606;0.1692623;0.6534673;1.960284;0.0325098;0.3334852;1.795706;0.1357799;0.1206805;0.9027809;0.2611905;0;0;0;1.167747;2.039493;0.03250775;1.470646;1.970849;0.1357769;1.6379;1.044849;0.3427138;1.636303;0.132006;0.08874041;0.7377945;-0.01235175;0.6857151;0.8025448;-1.382478;0.1763831;1.139843;-1.064014;1.440162;0.7377945;-0.01235175;0.6857151;0.8025448;-1.382478;0.1763831;1.139843;-1.064014;1.440162
1197515.3335;NotLabelled;16384;0.6291048;-0.6108033;0.4252077;0.2243767;13;-12;-50;-300;3378;409;65536;0.7497964;-0.534626;0.2548476;0.2950138;4;-23;-7;-995;3340;411;8192;0.4930748;-0.5817158;-0.5401662;-0.3559557;23;-63;19;506;3257;341;32768;0.6537529;-0.5083103;-0.3587258;-0.4307479;-52;-41;-49;907;3059;-732;256;-0.03462604;0.09279778;-0.8284424;-0.5512465;-93;-48;32;-87;3190;833;128;0.09556787;-0.05124654;0.7378424;0.666205;87;-19;-29;-501;3459;-314;4;0.5868704;-0.4459834;0.3462604;0.5803324;-8;-12;59;981;3970;-520;16;-0.1135734;-0.9864277;-0.1094183;0.04570637;4;-7;0;-355;-1064;3726;2;0.5277008;-0.2839335;-0.468144;-0.6494265;-6;12;-47;-105;3988;-43;8;-0.07202215;-0.9891272;0.0235457;-0.1260388;-7;-38;9;327;-1031;3489;1.038148;0.03535664;0.7250328;1.043851;0.5550228;0.5590911;1.048857;1.011193;0.4113017;0.9502442;1.697471;0.1709661;0.6521264;1.953335;0.02811423;0.3301937;1.794119;0.1337016;0.1154029;0.902464;0.2646442;0;0;0;1.16718;2.027347;0.02811226;1.469065;1.957771;0.1336988;1.630319;1.032763;0.3496406;1.626851;0.1152436;0.1131341;0.7258916;-0.006894588;0.7315816;0.7928634;-1.369709;0.203272;1.113481;-1.054873;1.472291;0.7258916;-0.006894588;0.7315816;0.7928634;-1.369709;0.203272;1.113481;-1.054873;1.472291
1197536.1784;NotLabelled;16384;0.623598;-0.6135734;0.4307479;0.2216066;22;1;-57;-354;2958;587;65536;0.7492154;-0.533241;0.2562327;0.2977839;-3;-16;-11;-1045;2986;455;8192;0.4930748;-0.5967311;-0.5290859;-0.3476454;21;-61;22;700;2585;183;32768;0.6459433;-0.5290859;-0.3559557;-0.4196676;-48;-48;-42;801;2625;-626;256;-0.03739612;0.08310249;-0.8366098;-0.5401662;-91;-41;35;3;2996;903;128;0.09833795;-0.04570637;0.7464821;0.6565097;96;-7;-25;-283;3637;-760;4;-0.5886427;0.432133;-0.3407202;-0.5921745;-11;-23;67;1353;3690;-630;16;-0.1135734;-0.9872344;-0.1024931;0.04432133;2;-24;6;-697;-1090;3958;2;0.5277008;-0.2783934;-0.468144;-0.6518206;-5;37;-48;-287;4234;-141;8;-0.0734072;-0.9888139;0.02493075;-0.1274238;-4;-3;9;-231;-1451;3401;1.014111;0.05446792;0.8867948;1.019703;0.5640417;0.6920518;1.024611;1.011234;0.5189834;0.9480402;1.686168;0.241379;0.658967;1.941947;0.08087423;0.3314201;1.797206;0.1899702;0.1059195;0.9021469;0.2696478;0;0;0;1.175811;2.002091;0.0845331;1.474249;1.930192;0.1980619;1.617089;0.995484;0.3829761;1.613313;0.07290792;0.1670437;0.7018595;0.01265407;0.8958874;0.781119;-1.341304;0.3469123;1.068801;-1.026197;1.623734;0.7018595;0.01265407;0.8958874;0.781119;-1.341304;0.3469123;1.068801;-1.026197;1.623734
1197557.2896;NotLabelled;16384;0.6149584;-0.6208062;0.434903;0.2174515;29;16;-61;-406;2572;563;65536;0.7485813;-0.533241;0.2548476;0.300554;-13;-2;-15;-1019;2676;481;8192;0.4916897;-0.6046925;-0.5249307;-0.3421052;18;-58;22;782;2353;29;32768;0.6430189;-0.5387812;-0.3531856;-0.4141274;-44;-46;-36;737;2467;-654;256;-0.0401662;0.07479224;-0.8451772;-0.5277008;-97;-35;35;47;2868;1315;128;0.101108;-0.04155125;0.7571378;0.6440443;113;-9;-21;-293;3781;-1100;4;-0.5886427;0.4238227;-0.3365651;-0.6004982;-1;-20;63;2235;3534;-758;16;-0.1135734;-0.9875793;-0.09972299;0.04293629;0;-15;11;-1063;-1440;4032;2;0.5277008;-0.267313;-0.4639889;-0.659386;0;20;-49;-2357;3920;171;8;-0.07894737;-0.988122;0.02077562;-0.1301939;-18;8;6;-305;-1317;4761;1.001103;0.0532676;0.8624024;1.006635;0.5573932;0.6539594;1.011489;0.9997464;0.4688691;0.945291;1.667528;0.1719718;0.6599575;1.923456;0.005137891;0.3304466;1.787603;0.1196177;0.1056265;0.9017116;0.2712157;0;0;0;1.177763;1.974789;0.005135536;1.475404;1.901108;0.1196136;1.614179;0.9798709;0.3652526;1.60185;0.04912496;0.1881999;0.6888538;0.01171637;0.8727142;0.7605394;-1.323096;0.2777371;1.045966;-1.008977;1.555309;0.6888538;0.01171637;0.8727142;0.7605394;-1.323096;0.2777371;1.045966;-1.008977;1.555309
1197579.1858;NotLabelled;16384;0.601108;-0.6359589;0.4390582;0.2036011;32;36;-66;-420;2454;597;65536;0.7472938;-0.5387812;0.2451524;0.301939;-35;34;-17;-891;2374;395;8192;0.4916897;-0.6113575;-0.5207756;-0.3365651;15;-57;22;878;2201;-183;32768;0.6409302;-0.5470914;-0.3490305;-0.4099723;-40;-46;-31;839;2503;-660;256;-0.04293629;0.06786703;-0.8532778;-0.5152354;-103;-30;34;25;3010;1651;128;0.1038781;-0.03601108;0.769748;0.6288089;122;-2;-21;-465;3929;-908;4;-0.5927978;0.4168975;-0.3296399;-0.6050825;0;8;68;2361;3188;-340;16;-0.1149584;-0.9875356;-0.09972299;0.0401662;-1;1;13;-1157;-1076;3962;2;0.5318559;-0.2617728;-0.4598338;-0.6611786;-7;-24;-54;-3567;3876;551;8;-0.08171745;-0.9879823;0.02493075;-0.1288089;-28;-54;-6;351;-481;4257;0.9788066;0.0652864;0.9012468;0.9842587;0.5621105;0.6759524;0.9890418;0.9979836;0.4760768;0.933471;1.656943;0.1580412;0.652381;1.911615;-0.01768075;0.3206023;1.784282;0.0999985;0.09922974;0.9016262;0.2738989;0;0;0;1.170884;1.955344;-0.01768297;1.467102;1.880973;0.09999526;1.602599;0.9622265;0.3565524;1.586322;0.02851105;0.196246;0.6665618;0.02410746;0.9130664;0.7404701;-1.297387;0.2893283;1.015751;-0.983865;1.569271;0.6665618;0.02410746;0.9130664;0.7404701;-1.297387;0.2893283;1.015751;-0.983865;1.569271
1197600.1622;NotLabelled;16384;0.5955678;-0.6427832;0.4404432;0.1952908;31;42;-65;-366;2556;503;65536;0.7466325;-0.5443213;0.2382271;0.299169;-47;55;-15;-787;2470;331;8192;0.4916897;-0.6190284;-0.5152354;-0.3310249;11;-54;20;920;2333;-253;32768;0.6400031;-0.5540166;-0.3462604;-0.4044321;-35;-48;-25;907;2603;-524;256;-0.04709141;0.06094183;-0.8617898;-0.501385;-107;-25;32;49;3182;1323;128;0.1080332;-0.03047091;0.7816189;0.6135734;127;-6;-23;-929;3759;-746;4;-0.5983379;0.4113573;-0.3213296;-0.6078849;0;15;76;1739;3308;-198;16;-0.1135734;-0.9876104;-0.101108;0.03878116;0;6;9;-723;-604;3756;2;0.5401662;-0.2590028;-0.4542936;-0.6593598;-8;-54;-57;-2687;3734;407;8;-0.08310249;-0.98742;0.03878116;-0.1288089;-21;-94;-12;-245;-167;3583;0.9463077;0.0799849;0.9242389;0.951655;0.5672628;0.6789769;0.9563452;0.99467;0.461585;0.9097395;1.64416;0.1232772;0.6322519;1.89678;-0.06092813;0.2986445;1.777277;0.05975281;0.07916195;0.9032918;0.2749444;0;0;0;1.151261;1.934026;-0.06093061;1.446262;1.859631;0.05974859;1.580136;0.9429094;0.3242772;1.557565;0.007243395;0.1766045;0.6340686;0.0393219;0.937858;0.7073017;-1.267565;0.2839918;0.9700013;-0.9511178;1.565857;0.6340686;0.0393219;0.937858;0.7073017;-1.267565;0.2839918;0.9700013;-0.9511178;1.565857
1197620.1939;NotLabelled;16384;0.5886427;-0.6506349;0.4418283;0.1869806;32;53;-64;-224;2818;437;65536;0.7452103;-0.5526316;0.2285319;0.2950138;-56;71;-10;-679;2678;233;8192;0.4916897;-0.6235195;-0.5124654;-0.3268698;7;-48;15;1102;2525;-315;32768;0.6375977;-0.5623268;-0.3421052;-0.400277;-30;-49;-21;911;2805;-454;256;-0.04986149;0.05401662;-0.8700035;-0.4875346;-113;-25;36;361;3056;1369;128;0.1108033;-0.02631579;0.7920622;0.599723;114;2;-17;-915;3127;-30;4;-0.602493;0.4030471;-0.3144044;-0.6129478;-5;4;83;1267;3696;102;16;-0.1121884;-0.987626;-0.1024931;0.03878116;4;0;3;-577;-524;3750;2;0.5512465;-0.2562327;-0.4473684;-0.6559982;-5;-49;-62;-1389;3432;-51;8;-0.08310249;-0.9869585;0.05263158;-0.1274238;-8;-79;-12;-157;-213;3667;0.9257195;0.109422;1.005099;0.9309552;0.5865189;0.7405753;0.9355463;1.004906;0.5062904;0.8995684;1.643252;0.1461739;0.6264893;1.893335;-0.0478211;0.2906891;1.782547;0.0750747;0.06709225;0.9052416;0.2717227;0;0;0;1.145961;1.923421;-0.04639526;1.439329;1.849072;0.07822877;1.567747;0.9240514;0.315129;1.543749;-0.01326466;0.1785601;0.6134867;0.06933832;1.020467;0.6878713;-1.222528;0.3375269;0.9421396;-0.9099677;1.622043;0.6134867;0.06933832;1.020467;0.6878713;-1.222528;0.3375269;0.9421396;-0.9099677;1.622043
1197640.4104;NotLabelled;16384;0.5831025;-0.6592202;0.4404432;0.1772853;33;66;-62;-232;2862;423;65536;0.743037;-0.5623268;0.2188366;0.2894737;-65;84;-4;-527;2764;-57;8192;0.4944598;-0.6305348;-0.5055401;-0.3199446;-1;-29;2;1202;2925;-483;32768;0.6389922;-0.5734072;-0.333795;-0.3891967;-19;-49;-17;785;3277;-470;256;-0.05955679;0.04155125;-0.8871772;-0.4556787;-117;-7;39;545;2374;1427;128;0.1163435;-0.0235457;0.8116037;0.5720221;112;9;-10;-193;3467;-1304;4;-0.6052631;0.3850415;-0.3060942;-0.6258641;0;-50;66;2317;3536;-640;16;-0.1108033;-0.9883415;-0.09695291;0.03878116;7;-29;-2;-1071;-1520;3838;2;0.5581717;-0.2520775;-0.4404432;-0.6564381;3;-16;-70;-975;2994;-593;8;-0.08171745;-0.9866873;0.06232687;-0.1260388;-1;-58;-15;175;-507;4057;0.8996333;0.1228616;0.9976485;0.9047621;0.5902368;0.7163014;0.909259;1.000015;0.4672647;0.8808081;1.626461;0.08618811;0.6106327;1.873369;-0.1157754;0.2736278;1.770933;0.01100688;0.05126925;0.9082133;0.2651735;0;0;0;1.130441;1.896979;-0.1157776;1.423012;1.823138;0.01100355;1.553215;0.9099356;0.2891809;1.522489;-0.02901649;0.1658402;0.5874069;0.08335304;1.014557;0.6568775;-1.191203;0.2993352;0.9109381;-0.8821764;1.584747;0.5874069;0.08335304;1.014557;0.6568775;-1.191203;0.2993352;0.9109381;-0.8821764;1.584747
1197682.17;NotLabelled;16384;0.5775623;-0.6693191;0.4362881;0.16759;36;78;-56;-286;2788;409;65536;0.7420075;-0.5720221;0.2077562;0.2811634;-72;88;3;-319;2630;-339;8192;0.4958449;-0.6323606;-0.5027701;-0.3185596;-5;-21;-6;1212;3237;-671;32768;0.638788;-0.5789474;-0.3310249;-0.3836565;-11;-57;-18;993;3517;-410;256;-0.06509695;0.03739612;-0.8946361;-0.4404432;-115;-1;34;395;2452;2117;128;0.1191136;-0.02216066;0.8217721;0.5567867;124;23;-8;-359;3713;-1320;4;-0.6038781;0.3781163;-0.301939;-0.6333973;6;-27;57;3313;3184;-408;16;-0.1108033;-0.9887936;-0.09279778;0.03739612;3;-21;4;-1421;-1512;3990;2;0.5650969;-0.2354571;-0.4279778;-0.6648762;-1;15;-66;-3499;2860;-103;8;-0.08033241;-0.9868613;0.06925207;-0.1218837;3;-1;-16;-27;-721;3489;0.8641256;0.1792815;1.085458;0.8690292;0.6261231;0.7725202;0.8733268;1.017736;0.4957913;0.8617156;1.614671;0.069181;0.5983399;1.852787;-0.1514591;0.258604;1.768782;-0.01856095;0.0366166;0.9118706;0.2548499;0;0;0;1.118585;1.862909;-0.1514614;1.408956;1.791163;-0.01856449;1.540398;0.8790919;0.2627264;1.505607;-0.06145048;0.1533714;0.5519131;0.1410418;1.105289;0.6048527;-1.101553;0.3345659;0.8663085;-0.7965736;1.619461;0.5519131;0.1410418;1.105289;0.6048527;-1.101553;0.3345659;0.8663085;-0.7965736;1.619461
1197702.2152;NotLabelled;16384;0.5650969;-0.6983398;0.4168975;0.1385041;15;105;-25;-578;3100;71;65536;0.7314567;-0.6080332;0.1800554;0.2506925;-72;97;31;-395;2570;-1945;8192;0.5027701;-0.6319692;-0.4972299;-0.3171745;-12;-25;-25;926;3503;-641;32768;0.6449863;-0.5872576;-0.3199446;-0.3698061;0;-69;-17;1373;3939;-302;256;-0.07479224;0.02908587;-0.9091846;-0.4085872;-114;-2;33;285;2792;1971;128;0.1246537;-0.0166205;0.8418034;0.5249307;113;6;-13;-731;3333;-668;4;-0.6135734;0.365651;-0.2880886;-0.6378339;2;20;74;1877;3456;360;16;-0.1108033;-0.9889226;-0.09141274;0.03739612;1;9;0;-505;-624;4020;2;0.5775623;-0.2257618;-0.4141274;-0.6662971;1;-36;-62;-2559;3544;-71;8;-0.07894737;-0.9880862;0.06509695;-0.1149584;9;25;-21;429;-991;3843;0.8381124;0.222419;1.144715;0.8428846;0.6572872;0.8153391;0.8470659;1.038315;0.5242057;0.8418428;1.620176;0.07713336;0.5810836;1.853081;-0.1520123;0.2403855;1.777095;-0.01677169;0.02398244;0.9150549;0.2447369;0;0;0;1.101404;1.858062;-0.1516144;1.390902;1.788107;-0.01588991;1.5241;0.8658715;0.2290923;1.488553;-0.07563519;0.1286518;0.5259083;0.1849475;1.166085;0.5756685;-1.042895;0.3718642;0.8414053;-0.7385612;1.656034;0.5259083;0.1849475;1.166085;0.5756685;-1.042895;0.3718642;0.8414053;-0.7385612;1.656034
1197723.2612;NotLabelled;16384;0.5650969;-0.7061267;0.4072022;0.1274238;0;110;-11;-560;3228;293;65536;0.7287135;-0.6177285;0.1731302;0.2396122;-64;76;36;-611;2798;-2557;8192;0.5138504;-0.6309803;-0.4861496;-0.3185596;-18;-31;-41;926;4237;-167;32768;0.6531584;-0.5927978;-0.3102493;-0.3545706;7;-55;-8;1689;4647;-940;256;-0.08448754;0.02216066;-0.9216284;-0.3781163;-104;1;30;399;2290;2529;128;0.1288089;-0.01385042;0.8570879;0.4986149;98;8;-5;-513;3673;-1814;4;-0.6204986;0.3504155;-0.2770083;-0.6445594;-7;-14;62;2903;3264;-218;16;-0.1080332;-0.9888363;-0.09556787;0.03739612;5;18;0;-363;-904;3694;2;0.5844875;-0.2229917;-0.4072022;-0.6654588;4;-30;-64;-1713;3532;-101;8;-0.07756232;-0.9889352;0.06094183;-0.1108033;12;21;-22;759;-955;3897;0.782313;0.2918587;1.126144;0.7867931;0.7001145;0.7643028;0.7907163;1.057629;0.4447314;0.7952298;1.606008;-0.04283719;0.538341;1.826531;-0.2880425;0.1965301;1.766503;-0.1476813;-0.009161403;0.9283731;0.1893038;0;0;0;1.058667;1.82225;-0.2880452;1.347061;1.757036;-0.1476865;1.483713;0.841243;0.1186301;1.447513;-0.1007679;0.02327782;0.4701283;0.2561514;1.150595;0.5007694;-0.9381046;0.3058037;0.7813507;-0.6338723;1.586836;0.4701283;0.2561514;1.150595;0.5007694;-0.9381046;0.3058037;0.7813507;-0.6338723;1.586836
1197764.5544;NotLabelled;16384;0.567867;-0.7116365;0.3961219;0.1191136;-8;94;4;-998;3156;537;65536;0.7265834;-0.6246537;0.1703601;0.2299169;-54;51;38;-825;3248;-2967;8192;0.5207756;-0.6288424;-0.4806094;-0.3199446;-16;-27;-48;1012;4625;21;32768;0.6561868;-0.5941828;-0.3074792;-0.3490305;13;-47;0;1727;4903;-1404;256;-0.08864266;0.01939058;-0.9274071;-0.3628809;-99;1;26;367;2360;2973;128;0.1301939;-0.01246537;0.8648107;0.4847645;101;15;-4;-595;3811;-1982;4;-0.6218836;0.3434903;-0.2728532;-0.6487113;-3;-14;52;3689;2864;-132;16;-0.1080332;-0.9885646;-0.09833795;0.03739612;4;15;7;-469;-1354;3812;2;0.5886427;-0.2188366;-0.4016621;-0.6665418;6;7;-57;-1879;3672;-57;8;-0.07617728;-0.9894995;0.06094183;-0.1066482;14;-1;-17;891;-839;4143;0.7675325;0.3688843;1.192805;0.771758;0.7539454;0.8063706;0.7754565;1.090981;0.4652674;0.7873092;1.605163;-0.05812542;0.5333239;1.812463;-0.3174816;0.1908823;1.767099;-0.173208;-0.01189691;0.9316745;0.1721562;0;0;0;1.05353;1.800473;-0.3174848;1.341146;1.740586;-0.1732125;1.475777;0.8177245;0.06860453;1.444583;-0.1244869;-0.02654061;0.4553651;0.3347664;1.219634;0.4592498;-0.8240058;0.3262742;0.7561414;-0.5267558;1.605268;0.4553651;0.3347664;1.219634;0.4592498;-0.8240058;0.3262742;0.7561414;-0.5267558;1.605268
1197785.17;NotLabelled;16384;0.5789474;-0.7166584;0.3739612;0.1066482;-15;43;18;-1812;4148;695;65536;0.7197474;-0.634349;0.1745152;0.2216066;20;-17;2;-2455;4776;-4057;8192;0.533241;-0.6225327;-0.4722992;-0.3240997;-23;-9;-47;1010;5059;251;32768;0.6642455;-0.5927978;-0.300554;-0.3421052;25;-34;25;2431;4973;-1910;256;-0.09418282;0.01246537;-0.9373519;-0.33518;-97;1;20;501;2558;2963;128;0.1357341;-0.01108033;0.8789461;0.4570637;100;11;-9;-735;3575;-2158;4;-0.6315789;0.33518;-0.2617728;-0.6482572;-5;50;42;2799;2888;-82;16;-0.1080332;-0.9883861;-0.101108;0.03462604;-2;9;14;-587;-878;4296;2;0.601108;-0.200831;-0.3891967;-0.6684774;-6;-19;-46;-3079;2658;117;8;-0.06925207;-0.9893104;0.0734072;-0.1052632;12;-34;2;1019;-621;3943;0.7636192;0.4251087;1.248492;0.7677064;0.7975588;0.8498868;0.7712829;1.123464;0.4981324;0.7850715;1.619891;-0.04208358;0.5317982;1.819807;-0.3078538;0.1893379;1.781093;-0.1616992;-0.009586439;0.9343276;0.1572802;0;0;0;1.051933;1.805048;-0.3081457;1.339444;1.748456;-0.1623423;1.474718;0.8146384;0.03249532;1.446452;-0.1276076;-0.06321716;0.4514616;0.3918719;1.276512;0.4432572;-0.7511954;0.3631727;0.7478588;-0.4537456;1.640306;0.4514616;0.3918719;1.276512;0.4432572;-0.7511954;0.3631727;0.7478588;-0.4537456;1.640306
1197826.1666;NotLabelled;16384;0.5872576;-0.7154956;0.3642659;0.1024931;-31;14;30;-2068;5296;839;65536;0.7300207;-0.6204986;0.1745152;0.2271468;68;-5;-42;-3413;5372;-4039;8192;0.5623268;-0.6077982;-0.4515235;-0.33241;-39;-32;-63;698;5635;183;32768;0.6891372;-0.5761772;-0.2825485;-0.3365651;66;-46;63;2721;5657;-2170;256;-0.1024931;0.005540166;-0.9499639;-0.2950138;-83;10;12;501;2470;3225;128;0.1398892;-0.009695291;0.8954794;0.4224377;80;18;0;-661;3677;-2450;4;0.6458201;-0.3282548;0.2493075;0.6426592;-3;25;34;2917;2682;-496;16;-0.1080332;-0.98779;-0.1080332;0.03047091;1;25;11;-633;-508;3678;2;0.6066482;-0.1925208;-0.3808864;-0.6707006;0;-1;-31;-2807;3168;159;8;-0.06509695;-0.9890176;0.07894737;-0.1066482;16;-9;4;33;-631;3853;0.7662573;0.5083508;1.292936;0.7700593;0.8548121;0.8715433;0.773384;1.157789;0.4998549;0.7918039;1.620605;-0.06928886;0.5403244;1.80704;-0.3463223;0.1977168;1.78111;-0.1977059;-0.004349047;0.9385188;0.1302271;0;0;0;1.060257;1.786349;-0.3463255;1.347376;1.735356;-0.1977108;1.479058;0.8009555;-0.003208637;1.452755;-0.1400974;-0.1105171;0.4541199;0.4769619;1.323222;0.430693;-0.6391094;0.3773388;0.7350765;-0.3421862;1.654646;0.4541199;0.4769619;1.323222;0.430693;-0.6391094;0.3773388;0.7350765;-0.3421862;1.654646
1197867.1603;NotLabelled;16384;0.5941828;-0.7116715;0.3601108;0.1038781;-44;0;38;-2128;5312;925;65536;0.7390881;-0.6094183;0.1717452;0.2299169;83;-3;-65;-3465;5452;-3869;8192;0.5720221;-0.6028209;-0.4459834;-0.33241;-45;-24;-62;680;5399;429;32768;0.7017638;-0.566482;-0.2742382;-0.333795;73;-51;76;2583;5557;-1784;256;-0.1052632;0.005540166;-0.9530324;-0.2839335;-79;10;12;433;2326;3793;128;0.1412742;-0.009695291;0.900407;0.4113573;80;16;0;-589;3763;-2810;4;0.6500244;-0.3213296;0.2437673;0.6440443;0;0;19;3263;2670;-242;16;-0.1066482;-0.9875191;-0.1121884;0.02908587;1;-6;7;-889;-966;3716;2;0.6094183;-0.1897507;-0.3781163;-0.6705461;0;-5;-26;-3269;2944;351;8;-0.06232687;-0.9891961;0.07894737;-0.1066482;17;-12;-1;-193;-583;4237;0.7743536;0.6279449;1.434688;0.7777861;0.9407308;0.9877267;0.780785;1.214013;0.5936881;0.801396;1.626144;-0.01309422;0.5506098;1.790746;-0.3042302;0.2083999;1.781188;-0.15277;0.006574877;0.9335425;0.1620211;0;0;0;1.070304;1.764757;-0.3042335;1.357533;1.72372;-0.152775;1.481009;0.7759686;-0.03114134;1.449366;-0.1567066;-0.1951611;0.4622431;0.5990059;1.467579;0.4140077;-0.4902151;0.4918078;0.7227979;-0.1940284;1.768228;0.4622431;0.5990059;1.467579;0.4140077;-0.4902151;0.4918078;0.7227979;-0.1940284;1.768228
1197887.1647;NotLabelled;16384;0.602493;-0.7051508;0.3587258;0.1052632;-55;-7;42;-1804;5384;1185;65536;0.748721;-0.5969529;0.166205;0.2354571;92;0;-85;-3471;5480;-3635;8192;0.5803324;-0.5971457;-0.4418283;-0.333795;-43;-21;-61;436;5407;561;32768;0.7132843;-0.5567867;-0.265928;-0.33241;78;-46;85;2123;5643;-1816;256;-0.1066482;0.004155125;-0.9561172;-0.2728532;-71;10;10;225;2508;3961;128;0.1426593;-0.01108033;0.9057653;0.398892;81;16;0;-475;3911;-2878;4;0.6503666;-0.3199446;0.2409972;0.6454294;3;6;13;3505;2910;-250;16;-0.1066482;-0.9877153;-0.1108033;0.02770083;2;-12;5;-879;-818;3780;2;0.6121883;-0.1842105;-0.3711911;-0.6734308;6;6;-20;-3959;2580;23;8;-0.05817174;-0.9897438;0.07894737;-0.1038781;14;-9;-17;-191;-675;4183;0.7822532;0.6735449;1.52111;0.7855649;0.9753296;1.066647;0.7884574;1.238913;0.6660549;0.8074937;1.636898;0.04985064;0.5559778;1.794533;-0.2444937;0.21409;1.788238;-0.0921379;0.01402281;0.9283969;0.188888;0;0;0;1.075691;1.768924;-0.2449814;1.363265;1.731613;-0.09321439;1.489153;0.7793438;-0.01831597;1.455054;-0.1474869;-0.2122441;0.4701516;0.6454189;1.554781;0.4067475;-0.4252369;0.5595244;0.72007;-0.132889;1.835725;0.4701516;0.6454189;1.554781;0.4067475;-0.4252369;0.5595244;0.72007;-0.132889;1.835725
1197907.1938;NotLabelled;16384;0.6218836;-0.691735;0.3504155;0.1094183;-73;8;57;-858;5560;1327;65536;0.7716633;-0.567867;0.1481994;0.2451524;92;21;-104;-2951;5424;-2715;8192;0.5930712;-0.5886427;-0.4362881;-0.333795;-44;-26;-61;220;5553;765;32768;0.7263352;-0.5443213;-0.2562327;-0.33241;79;-41;88;1953;5509;-1890;256;-0.1080332;0.004155125;-0.959055;-0.2617728;-69;7;7;335;2530;4021;128;0.1440443;-0.01108033;0.9103464;0.3878116;79;15;0;-427;3791;-2932;4;0.6515571;-0.3185596;0.2396122;0.6454294;4;11;8;3401;3052;-296;16;-0.1052632;-0.9882085;-0.1080332;0.02631579;2;-12;4;-867;-932;3988;2;0.6135734;-0.1842105;-0.368421;-0.6736915;9;-8;-15;-3561;2946;-29;8;-0.05540166;-0.9901894;0.07894737;-0.101108;11;-1;-21;307;-679;4145;0.7925528;0.7040443;1.579151;0.7957287;0.9934642;1.116714;0.7985016;1.24615;0.70916;0.817799;1.629667;0.08385634;0.5663747;1.780669;-0.214023;0.224517;1.778273;-0.06148822;0.0154905;0.9211688;0.2213697;0;0;0;1.086061;1.75452;-0.2140259;1.373633;1.720454;-0.0614931;1.499383;0.7684295;0.0166713;1.461264;-0.1517117;-0.2062058;0.4804614;0.6768374;1.613661;0.4177976;-0.38726;0.6113485;0.7299458;-0.09537768;1.887944;0.4804614;0.6768374;1.613661;0.4177976;-0.38726;0.6113485;0.7299458;-0.09537768;1.887944
1197928.858;NotLabelled;16384;0.6454294;-0.676659;0.3365651;0.1108033;-82;22;74;-814;5552;1271;65536;0.7936215;-0.5401662;0.1246537;0.2506925;86;45;-99;-2495;5432;-2035;8192;0.6216199;-0.5720221;-0.4182825;-0.333795;-51;-40;-64;-300;5419;1019;32768;0.7608809;-0.5124654;-0.2271468;-0.3268698;65;-67;75;1749;5141;-1842;256;-0.1094183;0.002770083;-0.9660385;-0.234072;-53;2;0;459;2544;3931;128;0.1454294;-0.01246537;0.9230333;0.3559557;68;9;3;-583;3673;-2864;4;0.6539362;-0.3185596;0.2368421;0.6440443;1;5;0;3167;2816;60;16;-0.1052632;-0.9883948;-0.1066482;0.02493075;1;-2;5;-747;-866;3902;2;0.6163435;-0.1842105;-0.3628809;-0.6741696;8;-9;-2;-3399;2928;71;8;-0.05401662;-0.9909486;0.07894737;-0.09418282;3;1;-15;883;-569;4251;0.8039358;0.7330229;1.723782;0.8069885;1.011216;1.254505;0.8096527;1.254008;0.8409797;0.8276089;1.623115;0.2070236;0.5755996;1.766829;-0.09394985;0.2339167;1.767368;0.05899383;0.01572796;0.8992841;0.2980577;0;0;0;1.095329;1.741547;-0.09395331;1.383127;1.711463;0.05898869;1.512931;0.7579594;0.1064966;1.467685;-0.1526909;-0.1512967;0.4918535;0.706656;1.75902;0.424186;-0.3532987;0.7526528;0.7382928;-0.06556988;2.02971;0.4918535;0.706656;1.75902;0.424186;-0.3532987;0.7526528;0.7382928;-0.06556988;2.02971
1197970.1571;NotLabelled;16384;0.6592798;-0.6677725;0.3268698;0.1121884;-86;30;75;-896;5436;1159;65536;0.8039948;-0.5277008;0.1108033;0.2506925;77;48;-95;-2165;5296;-1723;8192;0.6332095;-0.5650969;-0.4113573;-0.33241;-55;-50;-62;-352;5241;935;32768;0.7713612;-0.5041551;-0.2160665;-0.3227147;59;-75;69;1549;4851;-1484;256;-0.1080332;0.002770083;-0.9678458;-0.2271468;-52;2;-1;479;2640;3883;128;0.1454294;-0.01108033;0.9272478;0.3448753;70;8;3;-677;3723;-3268;4;0.6513864;-0.3199446;0.2382271;0.6454294;4;-13;-14;3311;2872;-42;16;-0.1052632;-0.9884288;-0.1066482;0.0235457;0;2;1;-1101;-950;3962;2;0.6177285;-0.1869806;-0.3614958;-0.6728822;9;-17;3;-3393;2920;329;8;-0.05401662;-0.991208;0.07894737;-0.09141274;0;0;-9;1079;-521;4273;0.8134595;0.8239028;1.910622;0.8161551;1.069547;1.423515;0.8185048;1.283662;0.9944377;0.833764;1.615963;0.3403698;0.5805641;1.741569;0.03237462;0.239284;1.749949;0.1859872;0.01016625;0.8716288;0.3714261;0;0;0;1.100361;1.7177;0.03237158;1.388642;1.697171;0.185982;1.517353;0.7425694;0.1649147;1.452263;-0.1370831;-0.1811542;0.5014043;0.8000007;1.947804;0.4318227;-0.2559805;0.9373975;0.7470529;0.03130627;2.214279;0.5014043;0.8000007;1.947804;0.4318227;-0.2559805;0.9373975;0.7470529;0.03130627;2.214279
1197990.1728;NotLabelled;16384;0.6877621;-0.6481994;0.3074792;0.1108033;-91;35;78;-614;5162;991;65536;0.8209559;-0.5055401;0.08725762;0.2506925;62;46;-74;-1103;4906;-1393;8192;0.6439475;-0.5595568;-0.4044321;-0.3296399;-56;-55;-62;-410;5033;933;32768;0.7811168;-0.4972299;-0.2049861;-0.3171745;56;-77;62;1315;4775;-1546;256;-0.1080332;0.001385042;-0.9697616;-0.2188366;-52;1;-1;705;2424;4157;128;0.1454294;-0.01108033;0.9307964;0.33518;71;9;3;-623;3621;-3194;4;0.6496834;-0.3213296;0.2409972;0.6454294;5;-8;-21;3621;2946;-104;16;-0.1052632;-0.9882783;-0.1080332;0.0235457;-1;6;0;-911;-864;4054;2;0.6191136;-0.1897507;-0.3614958;-0.6708307;4;2;17;-3119;2824;327;8;-0.05401662;-0.9908682;0.08310249;-0.09141274;-2;-8;3;873;-587;4063;0.8130831;0.8490038;1.995341;0.8156505;1.082959;1.502512;0.8178872;1.286778;1.068449;0.8320249;1.609858;0.4097517;0.5783642;1.730564;0.1001808;0.2371617;1.740374;0.2538808;0.003444672;0.8566773;0.4048323;0;0;0;1.098211;1.707816;0.1001776;1.386631;1.690075;0.2538755;1.516615;0.7366126;0.2060398;1.444516;-0.1325073;-0.1643933;0.5010376;0.8259966;2.033163;0.4377989;-0.2338238;1.026367;0.7463988;0.0530746;2.304953;0.5010376;0.8259966;2.033163;0.4377989;-0.2338238;1.026367;0.7463988;0.0530746;2.304953
1198011.1898;NotLabelled;16384;0.7015574;-0.6385041;0.2963989;0.1108033;-89;40;78;-664;4892;1019;65536;0.8286473;-0.4958449;0.07756232;0.2479224;53;46;-60;-867;4582;-811;8192;0.6550676;-0.5540166;-0.3975069;-0.3254848;-55;-56;-57;-198;4875;771;32768;0.7906708;-0.4889196;-0.1966759;-0.3116343;55;-66;55;1069;4675;-1622;256;-0.1066482;0;-0.9717535;-0.2105263;-52;0;-1;433;2560;4029;128;0.1454294;-0.01108033;0.9347122;0.3240997;71;10;2;-645;3517;-3218;4;0.6477894;-0.3240997;0.2423823;0.6454294;4;-4;-28;3231;2866;-216;16;-0.1052632;-0.9880919;-0.1094183;0.02493075;0;7;-1;-883;-852;3916;2;0.6177285;-0.1925208;-0.3628809;-0.6705704;3;4;23;-3097;3058;157;8;-0.05401662;-0.9907511;0.08448754;-0.09141274;-4;-8;6;867;-571;4203;0.8156358;0.8584893;2.136694;0.8180919;1.082299;1.639176;0.8202306;1.277183;1.201027;0.8341444;1.588855;0.536852;0.5803514;1.704435;0.2254387;0.2392757;1.717194;0.3792037;-0.007699803;0.82798;0.4606371;0;0;0;1.100178;1.681229;0.2254356;1.3887;1.665882;0.3791987;1.520295;0.7141171;0.3077711;1.440776;-0.1451445;-0.08355054;0.5035989;0.8362622;2.175051;0.4405309;-0.2298284;1.174885;0.7484364;0.05711532;2.453629;0.5035989;0.8362622;2.175051;0.4405309;-0.2298284;1.174885;0.7484364;0.05711532;2.453629
1198031.169;NotLabelled;16384;0.7267075;-0.6204986;0.2742382;0.1080332;-84;48;74;-608;4616;947;65536;0.8414512;-0.4819945;0.05955679;0.2368421;47;74;-28;-427;4656;-1169;8192;0.6832594;-0.5387812;-0.3795014;-0.3144044;-51;-47;-40;-138;4441;939;32768;0.8131444;-0.466759;-0.1772853;-0.299169;49;-51;40;885;4177;-1682;256;-0.1052632;0;-0.9750801;-0.1952908;-50;2;-1;591;2254;3919;128;0.1454294;-0.01108033;0.9416592;0.3033241;69;10;3;-657;3355;-3330;4;-0.6412742;0.3310249;-0.2493075;-0.645783;7;-9;-39;3093;2940;-174;16;-0.1052632;-0.9879376;-0.1108033;0.02493075;-1;-1;-2;-851;-870;3932;2;0.6121883;-0.1980609;-0.367036;-0.6717752;3;14;35;-3291;2940;-23;8;-0.0567867;-0.9902272;0.08725762;-0.09279778;-9;-7;7;587;-711;4117;0.8160189;0.8832235;2.211945;0.818347;1.095373;1.709343;0.8203729;1.279989;1.266769;0.8338687;1.58023;0.5973405;0.5798707;1.690537;0.2841867;0.2389176;1.706036;0.4379716;-0.01120137;0.8151126;0.4829727;0;0;0;1.09969;1.667171;0.2841833;1.388326;1.654371;0.437966;1.523241;0.7051079;0.3432347;1.441693;-0.1436465;-0.0699881;0.5039921;0.8618977;2.250889;0.4492051;-0.2102792;1.256759;0.7565315;0.07710743;2.535542;0.5039921;0.8618977;2.250889;0.4492051;-0.2102792;1.256759;0.7565315;0.07710743;2.535542
1198073.2028;NotLabelled;16384;0.7375109;-0.6135734;0.2617728;0.1052632;-72;47;68;-556;4336;777;65536;0.8477178;-0.4764543;0.05263158;0.2271468;42;83;-13;-253;4368;-951;8192;0.6920484;-0.534626;-0.3739612;-0.3088643;-52;-58;-37;-210;4427;1233;32768;0.8194894;-0.4612188;-0.1717452;-0.2936288;46;-55;31;635;4101;-1636;256;-0.1052632;0;-0.977752;-0.1814404;-49;4;-2;363;2164;4051;128;0.1454294;-0.01108033;0.9476863;0.2839335;66;8;4;-493;3311;-3432;4;-0.6357341;0.3393352;-0.2576177;-0.6436823;5;-12;-51;2931;3094;-258;16;-0.1066482;-0.9875968;-0.1121884;0.02631579;-3;6;-4;-1047;-982;4026;2;0.6080332;-0.2022161;-0.3698061;-0.6727909;4;9;42;-3317;3070;1;8;-0.05955679;-0.9898106;0.08864266;-0.09418282;-12;-7;8;589;-615;4091;0.8189756;0.9324794;2.338243;0.8210618;1.122599;1.8269;0.8228749;1.287817;1.376725;0.8343747;1.567284;0.698324;0.5795602;1.666905;0.3822651;0.2387461;1.685861;0.5359715;-0.01594844;0.7953503;0.5147423;0;0;0;1.099464;1.645511;0.3822623;1.388342;1.638556;0.5359664;1.529959;0.6984351;0.3797874;1.440756;-0.1213582;-0.08686838;0.5069675;0.9128685;2.378226;0.4639558;-0.1794624;1.405693;0.7682373;0.1079729;2.685193;0.5069675;0.9128685;2.378226;0.4639558;-0.1794624;1.405693;0.7682373;0.1079729;2.685193
1198094.229;NotLabelled;16384;0.7566917;-0.599723;0.2409972;0.09833795;-68;59;53;-1142;4030;1077;65536;0.8564833;-0.4736842;0.04155125;0.200831;29;85;3;-275;4148;-1173;8192;0.6998847;-0.5304709;-0.3698061;-0.3033241;-55;-59;-33;6;4477;1353;32768;0.8258762;-0.4556787;-0.16759;-0.2867036;42;-54;22;437;3981;-1840;256;-0.1052632;-0.001385042;-0.9790108;-0.1745152;-48;3;0;319;2060;3881;128;0.1454294;-0.01108033;0.9505372;0.2742382;63;8;3;-431;2899;-3396;4;-0.6315789;0.3434903;-0.2631579;-0.6433276;6;-16;-59;3007;3204;-210;16;-0.1080332;-0.9874462;-0.1121884;0.02631579;-6;7;-5;-1001;-1034;4020;2;0.6052631;-0.2063712;-0.3739612;-0.6717295;2;6;48;-3201;3092;171;8;-0.06094183;-0.9894685;0.0900277;-0.09556787;-13;-9;10;679;-503;4029;0.8238605;0.9887881;2.402242;0.8257194;1.158173;1.88366;0.8273323;1.30514;1.427199;0.8372846;1.565497;0.741213;0.5818401;1.655473;0.4227787;0.2411368;1.677744;0.5762862;-0.01248176;0.788101;0.5258692;0;0;0;1.101804;1.635597;0.4227755;1.390866;1.633794;0.5762805;1.536334;0.6973717;0.4024247;1.445591;-0.1144881;-0.07761398;0.5118701;0.9708052;2.443119;0.4763729;-0.1457405;1.498172;0.7839458;0.1457927;2.775957;0.5118701;0.9708052;2.443119;0.4763729;-0.1457405;1.498172;0.7839458;0.1457927;2.775957
1198115.1583;NotLabelled;16384;0.7649117;-0.5941828;0.2313019;0.09141274;-68;55;44;-1248;3842;959;65536;0.8595017;-0.4736842;0.03739612;0.1883656;26;75;8;-237;3970;-1147;8192;0.7092834;-0.5249307;-0.3642659;-0.2977839;-53;-52;-31;42;4205;1293;32768;0.8312638;-0.4515235;-0.166205;-0.2783934;39;-48;14;477;3817;-1718;256;-0.1038781;-0.001385042;-0.9803678;-0.16759;-48;0;-1;295;1878;3975;128;0.1454294;-0.01108033;0.9528955;0.265928;58;6;3;-341;2791;-3280;4;-0.6274238;0.3490305;-0.2686981;-0.6421202;4;-12;-65;2945;3172;-142;16;-0.1094183;-0.9870974;-0.1135734;0.02770083;-10;9;-6;-1081;-1060;4046;2;0.5983379;-0.2174515;-0.3822715;-0.6697575;0;5;61;-3047;3060;45;8;-0.06509695;-0.9886762;0.09279778;-0.09833795;-12;-10;14;789;-649;4035;0.8341872;1.011669;2.469643;0.8359317;1.170634;1.947773;0.8374438;1.30843;1.48846;0.8473357;1.558959;0.7988223;0.5918247;1.644701;0.4792761;0.251236;1.66959;0.6326352;-0.003616922;0.784678;0.5310972;0;0;0;1.111764;1.624173;0.479273;1.400909;1.624198;0.6326305;1.551305;0.6916628;0.4428035;1.462674;-0.1125979;-0.05024588;0.5222059;0.9945092;2.510941;0.4907121;-0.1357527;1.582299;0.7974275;0.1594198;2.859455;0.5222059;0.9945092;2.510941;0.4907121;-0.1357527;1.582299;0.7974275;0.1594198;2.859455
1198135.1724;NotLabelled;16384;0.7800428;-0.5817174;0.2160665;0.08033241;-55;41;30;-988;3530;1319;65536;0.8653551;-0.4722992;0.03047091;0.1648199;20;65;14;-143;3544;-1257;8192;0.7306275;-0.5110803;-0.3559557;-0.2797784;-49;-46;-16;-280;3723;1503;32768;0.8426325;-0.4432133;-0.1648199;-0.2576177;28;-41;-13;-1;3261;-1584;256;-0.1024931;-0.004155125;-0.9827726;-0.1537396;-46;-2;-4;245;1582;3909;128;0.1440443;-0.009695291;0.9572411;0.2506925;61;3;5;-279;2719;-3464;4;-0.6177285;0.3628809;-0.2825485;-0.6378834;5;-16;-79;2779;3256;-266;16;-0.1135734;-0.9858928;-0.1191136;0.03047091;-18;21;-7;-1013;-1094;3950;2;0.5900277;-0.2285319;-0.3947368;-0.6662007;-3;14;70;-2847;3198;-15;8;-0.07063711;-0.9878736;0.09279778;-0.1024931;-17;11;17;431;-741;3977;0.8418465;1.036165;2.515339;0.8434927;1.186173;1.990823;0.8449185;1.316085;1.529218;0.8536517;1.557;0.8361486;0.597663;1.637793;0.5156957;0.2571772;1.664164;0.6690361;-1.646578E-06;0.7849228;0.5307474;0;0;0;1.11764;1.618263;0.5154554;1.406936;1.620979;0.668507;1.562185;0.6971853;0.443166;1.48163;-0.1018124;-0.05972612;0.5298731;1.019715;2.556982;0.5064824;-0.1260231;1.64726;0.813176;0.1732509;2.923465;0.5298731;1.019715;2.556982;0.5064824;-0.1260231;1.64726;0.813176;0.1732509;2.923465
1198175.3626;NotLabelled;16384;0.7978296;-0.566482;0.1966759;0.06232687;-42;44;11;-926;3574;1813;65536;0.8739524;-0.4695291;0.0235457;0.1232687;17;66;29;549;3582;-1841;8192;0.7420295;-0.5041551;-0.3518005;-0.267313;-46;-43;-2;-336;3399;1673;32768;0.8470455;-0.4418283;-0.1689751;-0.2423823;19;-51;-36;-183;3075;-1898;256;-0.09695291;-0.008310249;-0.9859551;-0.1357341;-44;-6;-8;283;1500;3807;128;0.1426593;-0.008310249;0.9633191;0.2271468;60;4;7;-419;2335;-3450;4;-0.602493;0.3850415;-0.3074792;-0.6278548;0;-13;-92;2585;3096;-390;16;-0.1260388;-0.9828351;-0.1301939;0.03462604;-30;27;-8;-973;-946;3954;2;0.5775623;-0.2409972;-0.4085872;-0.6643783;-2;16;78;-2901;3198;-61;8;-0.07756232;-0.9875405;0.08587258;-0.1066482;-18;24;13;525;-965;4253;0.8576496;1.08377;2.558585;0.8591132;1.217143;2.029594;0.8603781;1.332417;1.564117;0.8691593;1.553533;0.8644795;0.6131282;1.625744;0.5420179;0.2728026;1.657191;0.694756;0.009209916;0.7840741;0.5319205;0;0;0;1.133062;1.605096;0.5420147;1.422466;1.611534;0.6947505;1.598648;0.6988504;0.4412873;1.539612;-0.08938551;-0.08119321;0.5456907;1.068645;2.600835;0.5398072;-0.1147504;1.74037;0.8456053;0.1964998;3.013923;0.5456907;1.068645;2.600835;0.5398072;-0.1147504;1.74037;0.8456053;0.1964998;3.013923
1198217.1578;NotLabelled;16384;0.8018506;-0.5623268;0.1939058;0.0567867;-39;33;3;-952;3548;2009;65536;0.8756202;-0.4695291;0.0235457;0.1108033;11;47;36;617;3282;-1715;8192;0.7463562;-0.501385;-0.3518005;-0.2603878;-39;-47;4;58;3399;1563;32768;0.8489559;-0.4432133;-0.1731302;-0.2299169;16;-51;-45;-389;3225;-1826;256;-0.09556787;-0.008310249;-0.986837;-0.1301939;-46;-2;-9;259;1590;3649;128;0.1412742;-0.006925208;0.9654554;0.2188366;59;3;8;-367;2327;-3242;4;-0.5969529;0.3933518;-0.3171745;-0.6231548;0;-15;-94;2345;3166;-448;16;-0.1301939;-0.9816838;-0.134349;0.03601108;-31;23;-10;-971;-1002;4042;2;0.566482;-0.2548476;-0.4224377;-0.6600736;-1;0;86;-2825;3248;-5;8;-0.08448754;-0.9870217;0.08171745;-0.1094183;-20;7;13;427;-755;4301;0.8866474;1.148861;2.62995;0.8878285;1.256491;2.095127;0.888845;1.349114;1.624619;0.8971899;1.544337;0.9173136;0.6408699;1.605428;0.59279;0.3008806;1.643507;0.7447648;0.03057063;0.783165;0.5324622;0;0;0;1.160739;1.583206;0.5927863;1.4504;1.59437;0.7447593;1.643349;0.6909499;0.471122;1.611455;-0.09591866;-0.05576301;0.5747112;1.135801;2.673048;0.5947282;-0.1080005;1.902713;0.887192;0.2376666;3.170508;0.5747112;1.135801;2.673048;0.5947282;-0.1080005;1.902713;0.887192;0.2376666;3.170508
1198237.3264;NotLabelled;16384;0.8057824;-0.5581717;0.1911357;0.05124654;-35;22;-2;-704;3252;1709;65536;0.8768724;-0.4695291;0.02631579;0.09972299;14;25;46;1075;3166;-1939;8192;0.7510502;-0.4986149;-0.3518005;-0.2520775;-39;-43;15;316;3447;1515;32768;0.8500116;-0.4445983;-0.1786704;-0.2188366;12;-47;-53;-897;3091;-1806;256;-0.09418282;-0.009695291;-0.9876726;-0.1246537;-46;-3;-9;359;1534;3609;128;0.1398892;-0.006925208;0.9672004;0.2119114;56;3;8;-305;2339;-3310;4;-0.5900277;0.4016621;-0.3268698;-0.619428;-2;-20;-98;2225;3258;-544;16;-0.1357341;-0.9804979;-0.1371191;0.03739612;-35;11;-12;-1089;-1146;4142;2;0.5609418;-0.2631579;-0.4293629;-0.6570691;-2;-2;89;-2593;3230;83;8;-0.08864266;-0.9866163;0.08033241;-0.1108033;-23;4;14;505;-839;4265;0.9021724;1.173453;2.644829;0.9032522;1.271864;2.108232;0.9041797;1.356376;1.6362;0.9119229;1.543768;0.9267726;0.6553681;1.600899;0.6017135;0.3153946;1.640176;0.7534189;0.04019526;0.7840917;0.5304539;0;0;0;1.175268;1.579416;0.6017104;1.464983;1.592673;0.7534132;1.668672;0.693686;0.4730405;1.655876;-0.09482813;-0.05219185;0.5902444;1.161137;2.688204;0.6169928;-0.1043894;1.95432;0.9062942;0.2527583;3.219657;0.5902444;1.161137;2.688204;0.6169928;-0.1043894;1.95432;0.9062942;0.2527583;3.219657
1198278.1916;NotLabelled;16384;0.810473;-0.5526316;0.1897507;0.04155125;-18;16;-21;-840;2566;1533;65536;0.8794228;-0.466759;0.0401662;0.08448754;19;-6;67;1301;2762;-1631;8192;0.7566258;-0.4972299;-0.3587258;-0.2271468;-24;-41;45;890;2933;1141;32768;0.8493219;-0.4515235;-0.200831;-0.1855956;7;-33;-79;-1197;3189;-928;256;-0.08864266;-0.01246537;-0.9902592;-0.1066482;-46;0;-11;313;1246;3459;128;0.1371191;-0.005540166;0.9719232;0.1911357;53;2;10;-297;1987;-3238;4;-0.5761772;0.4168975;-0.3462604;-0.611817;-3;-19;-104;2299;3478;-530;16;-0.1468144;-0.9785953;-0.1385041;0.0401662;-39;5;-16;-1295;-1198;4054;2;0.5498615;-0.2783934;-0.4459834;-0.6490365;-3;3;96;-2253;3284;249;8;-0.09695291;-0.985631;0.07894737;-0.1135734;-26;0;8;3;-945;4123;0.9198893;1.19359;2.657793;0.9208868;1.284477;2.119871;0.9217416;1.362372;1.646701;0.9293947;1.541718;0.9351962;0.67276;1.595515;0.6096318;0.3329126;1.636964;0.7610416;0.05289543;0.7852342;0.5276414;0;0;0;1.192631;1.573332;0.6096288;1.482436;1.587913;0.7610368;1.698201;0.6939905;0.4735948;1.705719;-0.09630322;-0.04906029;0.6079679;1.181883;2.701385;0.6441892;-0.1041365;2.004462;0.9295928;0.2680011;3.266359;0.6079679;1.181883;2.701385;0.6441892;-0.1041365;2.004462;0.9295928;0.2680011;3.266359
1198298.2;NotLabelled;16384;0.8112928;-0.5512465;0.1911357;0.03739612;-11;11;-31;-808;2498;1375;65536;0.8802525;-0.4653739;0.04847645;0.07894737;17;-8;77;1375;2870;-1037;8192;0.7568273;-0.4972299;-0.3642659;-0.2174515;-18;-32;53;884;2979;1015;32768;0.8475583;-0.4542936;-0.2105263;-0.1759003;2;-20;-85;-1039;3321;-418;256;-0.08725762;-0.01246537;-0.9911035;-0.09972299;-48;2;-10;337;1278;3381;128;0.1357341;-0.005540166;0.9734536;0.1842105;52;4;10;-435;1915;-3034;4;-0.5623268;0.433518;-0.367036;-0.6009453;-6;-11;-108;2027;3474;-652;16;-0.1592798;-0.9764003;-0.1385041;0.04570637;-37;-11;-25;-1135;-1262;4096;2;0.5429363;-0.2867036;-0.4542936;-0.6454755;-2;6;100;-2093;3484;223;8;-0.101108;-0.9853235;0.07756232;-0.1135734;-27;8;2;-127;-1037;4115;0.9620804;1.260395;2.683633;0.9628273;1.328445;2.142347;0.9634618;1.386254;1.666305;0.9701543;1.539624;0.9487429;0.7130541;1.581813;0.6218371;0.3734862;1.629072;0.772168;0.08433621;0.7843447;0.5248691;0;0;0;1.232903;1.559128;0.6218337;1.522962;1.578913;0.7721628;1.781413;0.6954682;0.4875503;1.859509;-0.1019244;-0.01826882;0.6501794;1.250546;2.727825;0.7058262;-0.07231808;2.105094;0.9783261;0.3294911;3.36073;0.6501794;1.250546;2.727825;0.7058262;-0.07231808;2.105094;0.9783261;0.3294911;3.36073
1198340.3508;NotLabelled;16384;0.8083696;-0.5540166;0.1980609;0.01939058;22;38;-36;68;2386;275;65536;0.8750076;-0.4764543;0.0734072;0.04432133;-53;79;108;713;2280;2513;8192;0.7535746;-0.501385;-0.3739612;-0.2022161;-1;-34;52;-440;3571;353;32768;0.8389968;-0.468144;-0.2299169;-0.1551246;-32;-62;-109;1003;3679;2376;256;-0.08310249;-0.01385042;-0.9935287;-0.07617728;-48;1;-4;463;580;2901;128;0.132964;-0.004155125;0.9768403;0.16759;52;4;9;-375;1461;-2690;4;-0.5498615;0.4487534;-0.3864266;-0.5890222;-12;-10;-110;1655;3746;-310;16;-0.1703601;-0.975024;-0.132964;0.05124654;-32;-3;-25;-1041;-1434;3916;2;0.5221606;-0.3157895;-0.4806094;-0.6297935;0;-2;113;-2075;3488;111;8;-0.1163435;-0.9844791;0.07479224;-0.1080332;-32;-25;-15;217;-951;3681;0.9874264;1.284462;2.687188;0.9880903;1.344966;2.145007;0.9886518;1.396138;1.668206;0.9946988;1.539593;0.9485903;0.7373459;1.576882;0.6212879;0.3977957;1.62571;0.7711564;0.101971;0.7835891;0.5228636;0;0;0;1.257228;1.554968;0.6212852;1.547344;1.577256;0.7711517;1.824709;0.6979897;0.4914474;1.928104;-0.101884;-0.005844116;0.6755322;1.27523;2.731562;0.7430492;-0.08360624;2.19317;1.020007;0.3521719;3.43644;0.6755322;1.27523;2.731562;0.7430492;-0.08360624;2.19317;1.020007;0.3521719;3.43644
1198361.1836;NotLabelled;16384;0.804702;-0.5595568;0.1980609;0.01108033;38;43;-40;-1382;1690;153;65536;0.867967;-0.4903047;0.07617728;0.02077562;-80;120;84;-1571;2804;3583;8192;0.7444879;-0.5180055;-0.3767313;-0.1883656;59;-67;46;66;2811;749;32768;0.8209103;-0.5041551;-0.2396122;-0.1204986;-134;-108;-96;1369;1509;7400;256;-0.08171745;-0.01385042;-0.9941502;-0.06925207;-42;2;-3;447;680;2997;128;0.1315789;-0.004155125;0.9784169;0.1592798;51;4;10;-359;1531;-2784;4;-0.5429363;0.4570637;-0.398892;-0.5806877;-17;-10;-116;1483;3984;-260;16;-0.1759003;-0.9738901;-0.132964;0.05401662;-34;6;-24;-825;-1514;3894;2;0.5138504;-0.3254848;-0.4889196;-0.62528;-1;-7;117;-1797;3592;145;8;-0.1204986;-0.9837286;0.08171745;-0.1052632;-25;-44;-19;43;-929;3421;1.074751;1.370247;2.650607;1.075214;1.412422;2.106693;1.075598;1.447477;1.628437;1.079997;1.556862;0.9028491;0.8219512;1.578196;0.5746647;0.4825897;1.633394;0.7227393;0.1633597;0.796247;0.4869313;0;0;0;1.341875;1.557286;0.5746614;1.63223;1.587161;0.7227342;1.940008;0.7119184;0.4629287;2.094439;-0.1000135;-0.0004351139;0.7628732;1.362519;2.695382;0.8412759;-0.02563524;2.239597;1.119571;0.4399421;3.471716;0.7628732;1.362519;2.695382;0.8412759;-0.02563524;2.239597;1.119571;0.4399421;3.471716
1198403.1848;NotLabelled;16384;0.7985806;-0.567867;0.199446;0.004155125;68;27;-48;-1176;958;-783;65536;0.8596736;-0.5055401;0.0734072;0.001385042;-62;120;38;4433;3738;16485;8192;0.7361037;-0.533241;-0.3753462;-0.1814404;109;-76;54;848;1455;-287;32768;0.8078474;-0.5235457;-0.2437673;-0.1177285;-96;60;-39;2733;9069;-5162;256;-0.08033241;-0.01385042;-0.9946334;-0.06371191;-37;5;-7;545;1040;2945;128;0.1301939;-0.004155125;0.9799186;0.1509695;55;5;11;-197;1739;-2718;4;-0.5373961;0.4653739;-0.4099723;-0.5714501;-22;-6;-120;1263;3992;-328;16;-0.1814404;-0.9725251;-0.134349;0.0567867;-34;9;-26;-633;-1564;3676;2;0.5069252;-0.3365651;-0.4986149;-0.6173605;-1;-9;121;-1507;3716;255;8;-0.1218837;-0.9831249;0.0900277;-0.1024931;-21;-56;-24;325;-1211;3259;1.099017;1.415269;2.612642;1.099381;1.448374;2.068101;1.099678;1.475455;1.589326;1.103542;1.574833;0.8622972;0.8452919;1.5913;0.5339931;0.5059369;1.648085;0.6814814;0.1819153;0.8095019;0.4576139;0;0;0;1.365243;1.57108;0.53399;1.655637;1.603377;0.6814754;1.974464;0.7221763;0.4576206;2.171416;-0.1168499;0.06387836;0.7871479;1.408289;2.657597;0.8661503;0.004268169;2.253439;1.145463;0.4848447;3.479555;0.7871479;1.408289;2.657597;0.8661503;0.004268169;2.253439;1.145463;0.4848447;3.479555
1198423.1887;NotLabelled;16384;0.7882067;-0.5817174;0.200831;-0.001385042;138;36;-55;-2466;3072;-5141;65536;0.8601922;-0.5041551;0.07617728;0.009695291;145;-164;-32;931;21082;-27783;8192;0.7184268;-0.5554016;-0.3781163;-0.1800554;182;-22;100;5282;3239;-4201;32768;0.8027149;-0.5221606;-0.2548476;-0.134349;71;167;29;-1817;16271;-19830;256;-0.07479224;-0.01246537;-0.9957312;-0.05263158;-32;-2;-31;-1331;-1826;6217;128;0.1260388;-0.004155125;0.982877;0.134349;36;-6;23;833;-173;-4438;4;-0.5249307;0.4806094;-0.4362881;-0.5505589;-35;-9;-128;941;3732;-68;16;-0.1925208;-0.9697695;-0.1357341;0.06371191;-28;11;-21;-1419;-1942;3896;2;0.4986149;-0.3490305;-0.5069252;-0.6103997;0;-13;130;-1341;3700;377;8;-0.1232687;-0.9822991;0.101108;-0.09833795;-15;-72;-29;547;-1283;3269;1.109546;1.460666;2.567732;1.10981;1.484701;2.022715;1.110019;1.503808;1.543556;1.113474;1.595177;0.8154751;0.8550702;1.607751;0.48712;0.5157158;1.665795;0.6341189;0.1884328;0.8238069;0.4285233;0;0;0;1.375042;1.588087;0.487117;1.665463;1.622316;0.634114;1.983159;0.7335137;0.4407902;2.18646;-0.1223835;0.08879972;0.7976843;1.454435;2.612854;0.8761203;0.03700948;2.258436;1.155654;0.5326496;3.478489;0.7976843;1.454435;2.612854;0.8761203;0.03700948;2.258436;1.155654;0.5326496;3.478489
1198443.1898;NotLabelled;16384;0.7545998;-0.6080332;0.2465374;-0.009695291;-2;-121;-100;5288;-1722;3815;65536;0.850305;-0.5221606;0.0567867;0.033241;-109;27;-44;523;3644;-1957;8192;0.6891859;-0.5803324;-0.3947368;-0.1800554;-3;102;29;2570;13633;9117;32768;0.7941435;-0.5235457;-0.2617728;-0.1634349;-112;-42;-4;2745;1587;-3782;256;-0.06925207;-0.01939058;-0.9952841;-0.06509695;56;-22;-16;869;-3824;7777;128;0.1218837;0.004155125;0.9828243;0.1385041;12;-11;-2;1779;-1635;-7166;4;-0.5124654;0.4958449;-0.4612188;-0.5280098;-30;4;-120;177;3498;-840;16;-0.200831;-0.9660831;-0.1468144;0.06925207;-25;57;-7;-469;-1258;3694;2;0.4722992;-0.3919668;-0.536011;-0.5796445;-4;-44;137;-645;3436;247;8;-0.1204986;-0.9785267;0.1426593;-0.08725762;-11;-102;-35;991;-667;3525;1.10021;1.51783;2.578821;1.100275;1.523756;2.033306;1.10031;1.526942;1.553777;1.10225;1.602486;0.8238783;0.8433129;1.606608;0.4957287;0.5038776;1.666106;0.6419576;0.1811739;0.8232535;0.4326966;0;0;0;1.363379;1.589593;0.495347;1.653832;1.628485;0.6411155;1.967431;0.7324961;0.4763901;2.173692;-0.1267017;0.1343024;0.7883654;1.513102;2.624238;0.8571682;0.07191479;2.381125;1.135492;0.5978826;3.588693;0.7883654;1.513102;2.624238;0.8571682;0.07191479;2.381125;1.135492;0.5978826;3.588693
1198484.2822;NotLabelled;16384;0.7507973;-0.6080332;0.2576177;-0.01523546;28;5;-70;4396;3638;-2959;65536;0.8424219;-0.536011;0.04570637;0.03047091;-91;58;-10;-2883;3894;-1431;8192;0.6788315;-0.5789474;-0.4085872;-0.1925208;58;-12;34;-2416;2909;-1833;32768;0.7742395;-0.5526316;-0.2562327;-0.1717452;-110;-9;-20;1043;3943;-1054;256;-0.06648199;-0.02077562;-0.9947636;-0.07479224;56;9;-14;2459;-250;6639;128;0.1232687;0.002770083;0.9824603;0.1398892;-27;14;4;-255;-245;-5338;4;-0.5069252;0.5027701;-0.4722992;-0.5168971;-25;0;-112;-265;3392;-742;16;-0.2036011;-0.9643242;-0.1537396;0.07063711;-29;34;-7;-541;-1198;3664;2;0.466759;-0.4072022;-0.5415512;-0.5683702;2;-48;120;507;3134;279;8;-0.1191136;-0.9763728;0.1592798;-0.08448754;-7;-111;-32;1281;-729;3537;1.077731;1.505024;2.425688;1.077834;1.514486;1.880223;1.077903;1.52078;1.400725;1.082342;1.613895;0.6728704;0.8241119;1.629815;0.3445235;0.4853277;1.690834;0.4916325;0.1156292;0.8449976;0.4128022;0;0;0;1.343866;1.605038;0.34452;1.634592;1.636049;0.4916273;1.951084;0.7276671;0.43731;2.140373;-0.1413262;0.1104951;0.7658826;1.500003;2.471052;0.8232579;0.0437665;2.340884;1.089002;0.5935299;3.540662;0.7658826;1.500003;2.471052;0.8232579;0.0437665;2.340884;1.089002;0.5935299;3.540662
1198505.2216;NotLabelled;16384;0.7435894;-0.6149584;0.2617728;-0.01939058;71;31;-38;-176;4490;-3531;65536;0.8355991;-0.5470914;0.04293629;0.02493075;-78;10;30;-587;4162;-1183;8192;0.6671948;-0.5914127;-0.4085872;-0.1952908;77;-15;51;930;4039;-1551;32768;0.7630699;-0.566482;-0.2576177;-0.1745152;-102;17;-33;5;4447;-906;256;-0.06371191;-0.01939058;-0.9945408;-0.08033241;18;-9;-22;709;2836;5669;128;0.1204986;0;0.981589;0.1481994;-73;9;24;-891;587;-4942;4;0.501385;-0.5133387;0.4819945;0.5027701;-31;8;-100;-363;3290;-416;16;-0.2077562;-0.9631129;-0.1551246;0.07202215;-31;8;-10;-889;-1324;3152;2;0.4487534;-0.4279778;-0.5568247;-0.5526316;18;21;98;1565;3024;331;8;-0.1177285;-0.9739206;0.1759003;-0.08171745;-5;-90;-35;931;-851;3485;1.071755;1.488404;2.389575;1.071877;1.499528;1.844141;1.071962;1.507283;1.364664;1.077465;1.614446;0.638752;0.819621;1.637665;0.3105366;0.4809164;1.697072;0.4584863;0.09329696;0.8583682;0.3902512;0;0;0;1.33928;1.610982;0.3105335;1.629972;1.638072;0.4584814;1.945855;0.7284858;0.4246317;2.108723;-0.1657505;0.1570438;0.7599053;1.483245;2.434912;0.8101329;0.02301311;2.357074;1.06636;0.5808821;3.555179;0.7599053;1.483245;2.434912;0.8101329;0.02301311;2.357074;1.06636;0.5808821;3.555179
1198525.3459;NotLabelled;16384;0.7344939;-0.6274238;0.2576177;-0.02216066;101;21;4;-1360;4162;-1277;65536;0.8289795;-0.5567867;0.04847645;0.02077562;-63;-24;60;-731;4490;-931;8192;0.6559339;-0.6038781;-0.4085872;-0.1952908;69;-29;24;694;3889;-325;32768;0.7514983;-0.5775623;-0.2631579;-0.1800554;-95;28;-47;337;4297;-1114;256;-0.05955679;-0.01800554;-0.9947115;-0.08171745;4;22;-35;433;1102;5189;128;0.1149584;-0.001385042;0.9807405;0.1578947;-49;4;35;-417;1327;-5424;4;0.4986149;-0.5239176;0.4972299;0.4792244;-36;32;-79;-597;3296;-168;16;-0.2160665;-0.9615142;-0.1523546;0.07479224;-21;-15;-16;-867;-1594;2946;2;0.4362881;-0.434903;-0.5627071;-0.5512465;21;36;89;935;3460;635;8;-0.1149584;-0.9725261;0.1869806;-0.07756232;1;-64;-36;1527;-1021;3171;1.071054;1.470973;2.34714;1.07128;1.491601;1.801983;1.071457;1.507713;1.322714;1.077098;1.623152;0.5980732;0.8193802;1.649471;0.2699924;0.4804469;1.706351;0.4184114;0.08847372;0.8683715;0.3686465;0;0;0;1.339104;1.624075;0.26999;1.629645;1.650196;0.4184068;1.932345;0.7355137;0.4161695;2.089697;-0.1688544;0.1813363;0.7591956;1.465024;2.392321;0.8053868;0.002697587;2.374278;1.055108;0.5715199;3.568601;0.7591956;1.465024;2.392321;0.8053868;0.002697587;2.374278;1.055108;0.5715199;3.568601
1198546.1628;NotLabelled;16384;0.7182025;-0.6412742;0.2700831;-0.002770083;30;-25;-13;-1636;2986;499;65536;0.8126441;-0.5789474;0.06509695;0.01385042;-62;9;30;195;3808;-1405;8192;0.6398577;-0.6177285;-0.4113573;-0.199446;44;10;11;2750;3045;545;32768;0.7312679;-0.5969529;-0.2728532;-0.1855956;-83;8;-33;-331;3859;-1042;256;-0.04709141;-0.009695291;-0.9949024;-0.08864266;2;11;-14;31;-1802;3489;128;0.1038781;-0.009695291;0.9791117;0.1745152;-42;2;22;107;-789;-2974;4;0.4972299;-0.5354812;0.5083103;0.4556787;-30;29;-66;-1343;3928;-414;16;-0.2202216;-0.9618523;-0.1440443;0.07479224;0;-31;-5;-789;-1068;2496;2;0.4099723;-0.4473684;-0.5766066;-0.5470914;31;36;84;693;4060;-83;8;-0.1121884;-0.9710969;0.199446;-0.06786703;10;-1;-33;1927;-1257;3417;1.068241;1.463249;2.303274;1.068587;1.494775;1.758638;1.068869;1.520467;1.279788;1.074238;1.638188;0.5555117;0.8164827;1.664692;0.2274758;0.4773449;1.720005;0.3760194;0.0950153;0.8766172;0.3468581;0;0;0;1.336287;1.640988;0.2274729;1.62672;1.667591;0.3760151;1.919283;0.7501149;0.4063397;2.074517;-0.1622039;0.2029567;0.756373;1.456399;2.348259;0.772876;-0.005356908;2.410347;1.01659;0.5846839;3.595583;0.756373;1.456399;2.348259;0.772876;-0.005356908;2.410347;1.01659;0.5846839;3.595583
1198587.4188;NotLabelled;16384;0.7151953;-0.6440443;0.2714681;-0.002770083;30;-14;-17;-1102;3338;-339;65536;0.8076289;-0.5858725;0.06648199;0.008310249;-53;6;28;83;3994;-1021;8192;0.6218836;-0.6304039;-0.4182825;-0.2022161;44;20;15;2482;2691;-977;32768;0.7161281;-0.6135734;-0.2742382;-0.1883656;-59;6;-6;-591;3927;-498;256;-0.04570637;-0.008310249;-0.9949796;-0.08864266;21;10;-11;-241;-1668;2545;128;0.09972299;-0.01246537;0.9782532;0.1814404;-38;10;20;369;-949;-3192;4;0.4958449;-0.539795;0.5124654;0.4473684;-27;19;-60;-1743;4440;-284;16;-0.2188366;-0.9628878;-0.1398892;0.0734072;12;-28;4;-1161;-916;2516;2;0.3878116;-0.4626039;-0.5837979;-0.5429363;31;-18;77;693;4468;-259;8;-0.1066482;-0.9724629;0.1980609;-0.06094183;12;6;-19;2157;-857;3867;1.070065;1.44921;2.212187;1.070624;1.500079;1.669017;1.071092;1.542779;1.191383;1.074652;1.671538;0.4689762;0.8166011;1.698387;0.1412016;0.4764641;1.745356;0.2903318;0.1127146;0.8933043;0.2951257;0;0;0;1.336746;1.684004;0.1411986;1.626594;1.713553;0.2903263;1.902351;0.7935283;0.3663896;2.057755;-0.1296891;0.2204139;0.7581797;1.440768;2.256778;0.7448623;-0.01620591;2.390605;0.9631644;0.5831189;3.576136;0.7581797;1.440768;2.256778;0.7448623;-0.01620591;2.390605;0.9631644;0.5831189;3.576136
1198607.3775;NotLabelled;16384;0.7098362;-0.6481994;0.2756233;-0.001385042;34;-23;-19;-1436;3184;-1199;65536;0.8024568;-0.5927978;0.06786703;0.006925208;-39;-10;27;1;4108;-961;8192;0.6121883;-0.6357537;-0.4224377;-0.2063712;44;43;16;2210;3251;-597;32768;0.7102306;-0.6191136;-0.2742382;-0.1925208;-50;10;1;-165;4021;-626;256;-0.04432133;-0.005540166;-0.9945524;-0.09418282;31;13;-11;-245;-1414;2801;128;0.09833795;-0.01523546;0.9773105;0.1869806;-37;12;19;389;-765;-2936;4;0.4944598;-0.5425935;0.5180055;0.4390582;-23;6;-51;-1953;4590;-116;16;-0.2174515;-0.9639004;-0.1357341;0.07202215;21;-23;5;-1257;-1050;2570;2;0.3808864;-0.4736842;-0.5833213;-0.5387812;30;-28;70;803;4130;-55;8;-0.1038781;-0.9729323;0.1980609;-0.05817174;12;3;-11;1889;-1033;4137;1.075266;1.440194;2.176344;1.075912;1.499;1.633976;1.076457;1.54868;1.157017;1.079778;1.677561;0.4346315;0.8217137;1.703687;0.1068083;0.481407;1.749611;0.2558766;0.1179562;0.8977379;0.2791942;0;0;0;1.3419;1.690865;0.106909;1.631627;1.72126;0.2561008;1.89634;0.8045436;0.3896348;2.040718;-0.1260256;0.2848287;0.7633734;1.431101;2.220757;0.740714;-0.02303994;2.381442;0.9555891;0.5719498;3.569779;0.7633734;1.431101;2.220757;0.740714;-0.02303994;2.381442;0.9555891;0.5719498;3.569779
1198629.1756;NotLabelled;16384;0.7056648;-0.6509695;0.2797784;0;42;-41;-21;-1484;3312;-611;65536;0.7991413;-0.5969529;0.07063711;0.005540166;-32;-15;26;-69;3876;-1023;8192;0.6052631;-0.6368557;-0.4279778;-0.2119114;38;39;13;1686;3731;95;32768;0.704601;-0.6246537;-0.2742382;-0.1952908;-49;6;3;-487;4129;-812;256;-0.04293629;-0.004155125;-0.9943538;-0.09695291;22;12;-9;-111;-986;3003;128;0.09556787;-0.01939058;0.9764356;0.1925208;-40;23;21;153;-83;-3428;4;0.4875346;-0.5437272;0.5290859;0.432133;-10;-39;-32;-1745;3776;290;16;-0.2077562;-0.9669118;-0.1315789;0.06786703;28;0;22;-833;-1408;2530;2;0.3753462;-0.4833795;-0.5827817;-0.534626;27;-26;62;1209;3850;-75;8;-0.1024931;-0.973161;0.1980609;-0.0567867;7;4;-5;1761;-1495;4007;1.076885;1.425377;2.145984;1.077601;1.49057;1.604346;1.078207;1.545867;1.128006;1.080935;1.682976;0.4071342;0.8227754;1.711469;0.07958303;0.4822132;1.753899;0.229103;0.1188316;0.9023694;0.2634492;0;0;0;1.343022;1.70139;0.07963115;1.632567;1.731614;0.2292115;1.888608;0.8153108;0.3812202;2.02447;-0.1180165;0.2905003;0.7649866;1.415761;2.190246;0.7287741;-0.03489721;2.3777;0.9406856;0.5557672;3.568723;0.7649866;1.415761;2.190246;0.7287741;-0.03489721;2.3777;0.9406856;0.5557672;3.568723
1198650.1655;NotLabelled;16384;0.6940952;-0.6578947;0.2922437;0;13;-5;-33;-1892;3572;-9;65536;0.7907581;-0.6080332;0.07063711;-0.002770083;-27;19;15;171;4126;-973;8192;0.5914127;-0.6404496;-0.4376731;-0.2202216;36;35;14;1518;3865;-121;32768;0.6953088;-0.632964;-0.2728532;-0.2036011;-42;15;6;-267;4157;-490;256;-0.04155125;0;-0.9937217;-0.1038781;19;9;-1;-143;662;4309;128;0.0900277;-0.02631579;0.9745507;0.2036011;-19;-10;6;79;1549;-4824;4;-0.4764543;0.5387812;-0.5451261;-0.4307479;0;-35;-33;-1529;3208;632;16;-0.2022161;-0.9687334;-0.1301939;0.06094183;-5;7;26;-2175;-3538;4906;2;0.3614958;-0.5;-0.5850748;-0.5263157;18;-20;58;2061;3798;-121;8;-0.101108;-0.9741422;0.1939058;-0.0567867;4;17;7;1749;-1645;3853;1.081771;1.411727;2.132074;1.082559;1.483452;1.591263;1.083229;1.544493;1.115625;1.085572;1.685716;0.3955465;0.8273329;1.715358;0.06815992;0.4866547;1.755988;0.2179156;0.1225942;0.9047878;0.2532331;0;0;0;1.347605;1.706725;0.06815705;1.637066;1.7369;0.2179105;1.887663;0.8193362;0.3713766;2.016655;-0.1162223;0.2946973;0.7698672;1.401577;2.176175;0.7215531;-0.04321611;2.40222;0.9272672;0.5216928;3.606747;0.7698672;1.401577;2.176175;0.7215531;-0.04321611;2.40222;0.9272672;0.5216928;3.606747
1198691.3311;NotLabelled;16384;0.6902692;-0.6606648;0.2950138;-0.004155125;21;18;-42;-2382;3324;-361;65536;0.7878525;-0.6121883;0.06648199;-0.009695291;-21;43;8;275;4130;-1353;8192;0.5761772;-0.6456716;-0.4459834;-0.2285319;33;33;18;2466;3539;-821;32768;0.6880242;-0.6371191;-0.2742382;-0.2132964;-22;9;15;-347;4107;-386;256;-0.04155125;0.001385042;-0.993575;-0.1052632;9;8;3;237;726;4431;128;0.0900277;-0.02493075;0.9742967;0.2049861;-7;-6;2;-225;1333;-4686;4;-0.4722992;0.5387812;-0.5508932;-0.4279778;-5;-22;-41;-1829;3228;982;16;-0.2036011;-0.967935;-0.1357341;0.0567867;-6;20;24;349;-3660;4328;2;0.3476454;-0.5152354;-0.5876609;-0.5180055;21;-5;57;1753;3590;-487;8;-0.1024931;-0.9741067;0.1925208;-0.05955679;1;-11;8;1365;-1217;3655;1.096347;1.380446;2.07;1.097275;1.465042;1.531052;1.098069;1.537404;1.057004;1.099377;1.688898;0.3390139;0.8409503;1.721152;0.01202253;0.4999412;1.75693;0.1622618;0.1283028;0.9107932;0.227576;0;0;0;1.361275;1.716659;0.01201919;1.650468;1.746997;0.1622561;1.89066;0.8314403;0.3420884;2.001692;-0.1078516;0.2856027;0.784431;1.369249;2.113765;0.7249305;-0.06909227;2.375474;0.9139574;0.4797045;3.590142;0.784431;1.369249;2.113765;0.7249305;-0.06909227;2.375474;0.9139574;0.4797045;3.590142
1198712.1606;NotLabelled;16384;0.6847963;-0.666205;0.2950138;-0.01385042;18;59;-47;-2454;3830;203;65536;0.7859949;-0.6149584;0.06094183;-0.01800554;-16;58;9;1223;4448;-1399;8192;0.567867;-0.648192;-0.4515235;-0.2313019;28;26;21;2582;3599;-601;32768;0.6877105;-0.6371191;-0.2728532;-0.2160665;-11;7;19;-487;4235;-340;256;-0.04293629;0.002770083;-0.9933655;-0.1066482;8;12;9;371;134;4251;128;0.0900277;-0.02493075;0.9740043;0.2063712;-12;2;2;-721;887;-4094;4;-0.466759;0.5387812;-0.5587712;-0.4238227;-8;-28;-40;-1925;3826;912;16;-0.2036011;-0.9680935;-0.1357341;0.05401662;-14;-8;19;-103;-3208;4056;2;0.3393352;-0.5221606;-0.5900488;-0.5138504;19;-5;57;1409;3862;-553;8;-0.1024931;-0.9734694;0.1952908;-0.06094183;1;-18;8;1297;-839;3625;1.103402;1.375461;2.049925;1.104346;1.461429;1.511195;1.105153;1.534998;1.037333;1.106074;1.688574;0.3197844;0.8475691;1.721093;-0.007118478;0.5064642;1.755536;0.1432151;0.1291187;0.9127977;0.2189199;0;0;0;1.367904;1.717973;-0.007121861;1.657013;1.748637;0.1432095;1.883276;0.83551;0.3512429;1.980022;-0.1060345;0.3073893;0.7914854;1.364153;2.093653;0.7279007;-0.07044125;2.374286;0.9028167;0.4809215;3.589905;0.7914854;1.364153;2.093653;0.7279007;-0.07044125;2.374286;0.9028167;0.4809215;3.589905
1198733.1788;NotLabelled;16384;0.6809603;-0.6703601;0.2936288;-0.02631579;11;61;-50;-2564;3938;791;65536;0.7850376;-0.6163435;0.05540166;-0.02770083;-18;66;14;1445;4594;-1655;8192;0.5609418;-0.6508133;-0.4556787;-0.232687;26;24;19;2292;3555;-439;32768;0.6869401;-0.6371191;-0.2714681;-0.2202216;-4;6;22;-265;4097;-488;256;-0.04570637;0.002770083;-0.9933896;-0.1052632;9;14;13;515;-392;3935;128;0.0900277;-0.02770083;0.973635;0.2077562;-19;36;1;-771;397;-3560;4;-0.4584487;0.5373961;-0.5700082;-0.4196676;-6;-25;-36;-1363;4322;758;16;-0.2105263;-0.9661109;-0.1412742;0.04847645;-21;38;23;-845;-1716;2958;2;0.333795;-0.5277008;-0.5906857;-0.5110803;14;-13;55;1099;4146;-609;8;-0.1024931;-0.9730132;0.1966759;-0.06371191;1;-18;8;1241;-915;3663;1.112667;1.367294;2.024181;1.113627;1.454781;1.485695;1.114449;1.529685;1.012042;1.115003;1.685338;0.2949408;0.8564203;1.718197;-0.03186619;0.515237;1.751407;0.1185678;0.1305964;0.9139104;0.2133316;0;0;0;1.376761;1.716294;-0.03187977;1.665799;1.747201;0.1185391;1.889083;0.8374841;0.344003;1.980278;-0.1045535;0.2988792;0.8007485;1.355863;2.067867;0.7318723;-0.07306898;2.3749;0.9034137;0.4773684;3.591419;0.8007485;1.355863;2.067867;0.7318723;-0.07306898;2.3749;0.9034137;0.4773684;3.591419
1198753.2127;NotLabelled;16384;0.6717451;-0.6766393;0.2950138;-0.06232687;-7;19;-69;-3212;4496;263;65536;0.7801855;-0.6204986;0.033241;-0.07202215;15;76;37;475;5240;-1985;8192;0.5512465;-0.6511876;-0.4626039;-0.2409972;19;27;2;1282;4225;237;32768;0.6865141;-0.6357341;-0.2700831;-0.2271468;-10;3;15;439;4041;-510;256;-0.0567867;0.006925208;-0.9924999;-0.1080332;29;2;24;347;-204;3617;128;0.09556787;-0.04293629;0.9704319;0.2174515;-32;23;-12;-223;949;-3950;4;-0.4515235;0.5373961;-0.5795087;-0.4141274;0;-25;-29;-1157;3626;716;16;-0.2132964;-0.9638596;-0.1537396;0.04293629;-6;27;22;-905;-1428;3182;2;0.3268698;-0.5401662;-0.5904226;-0.5027701;-3;-33;40;1477;4312;-965;8;-0.1024931;-0.9728278;0.1966759;-0.06648199;-1;11;10;1653;-903;3975;1.127204;1.360234;2.012878;1.128184;1.449532;1.47469;1.129023;1.52603;1.001292;1.129656;1.679679;0.2837584;0.8710912;1.711745;-0.04314179;0.5299221;1.745533;0.107195;0.1345914;0.9140253;0.2103318;0;0;0;1.391431;1.709601;-0.0431447;1.680482;1.740794;0.10719;1.901095;0.8332319;0.3436997;1.984722;-0.1094463;0.2973124;0.815284;1.348656;2.056514;0.7413928;-0.07232094;2.397429;0.8987699;0.4937415;3.608682;0.815284;1.348656;2.056514;0.7413928;-0.07232094;2.397429;0.8987699;0.4937415;3.608682
1198794.3686;NotLabelled;16384;0.6689751;-0.6753125;0.3033241;-0.06648199;0;-56;-67;-2662;3656;-363;65536;0.7826636;-0.6163435;0.033241;-0.08033241;34;2;46;33;3732;-849;8192;0.5457063;-0.6492256;-0.466759;-0.2506925;13;26;0;992;3755;-205;32768;0.6857424;-0.6357341;-0.267313;-0.232687;-8;1;12;-73;4145;-426;256;-0.06094183;0.005540166;-0.991801;-0.1121884;29;-13;22;341;314;3605;128;0.09833795;-0.04570637;0.9694034;0.2202216;-19;21;-14;-433;1321;-3432;4;-0.4459834;0.536011;-0.5850551;-0.4141274;7;-37;-27;-1087;3730;1334;16;-0.2119114;-0.9638387;-0.1565097;0.0401662;0;12;20;-833;-1532;3626;2;0.3268698;-0.5457063;-0.592343;-0.4944598;-10;3;17;3131;3856;-1391;8;-0.1066482;-0.9732122;0.1925208;-0.06648199;-18;8;1;2033;-925;4015;1.188698;1.310296;1.965212;1.189815;1.412038;1.429237;1.190775;1.499482;0.9577385;1.190541;1.65742;0.2411367;0.9317974;1.689992;-0.08557175;0.5904461;1.720972;0.06495616;0.1576376;0.9128699;0.1990369;0;0;0;1.452141;1.69076;-0.08557542;1.741014;1.72267;0.06495005;1.95675;0.8163953;0.3107122;2.029023;-0.1269341;0.2588049;0.8767674;1.297711;2.008489;0.8047179;-0.1146483;2.383869;0.9669082;0.4566612;3.592021;0.8767674;1.297711;2.008489;0.8047179;-0.1146483;2.383869;0.9669082;0.4566612;3.592021
1198815.5443;NotLabelled;16384;0.666205;-0.6712909;0.3185596;-0.06371191;9;-102;-43;-824;2772;-253;65536;0.7863122;-0.6108033;0.04155125;-0.08310249;29;-55;57;-839;1650;1553;8192;0.5415512;-0.6490897;-0.4695291;-0.2548476;12;32;5;1062;3811;-861;32768;0.6847963;-0.6357341;-0.267313;-0.2354571;-1;5;8;231;4179;-234;256;-0.06371191;0.002770083;-0.9908305;-0.1191136;46;-9;19;581;712;3721;128;0.101108;-0.04709141;0.9684184;0.2229917;-22;5;-20;45;1891;-4104;4;-0.4432133;0.534626;-0.5893902;-0.4127424;4;-30;-30;-677;4094;1548;16;-0.2119114;-0.9637242;-0.1578947;0.03739612;0;0;16;-945;-2160;3980;2;0.3240997;-0.5457063;-0.5950136;-0.4930748;-2;25;16;2815;3918;-1047;8;-0.1094183;-0.9727232;0.1939058;-0.06509695;-21;-3;-4;1963;-935;3409;1.211601;1.281862;1.958421;1.212755;1.387039;1.423109;1.213748;1.477505;0.9521815;1.214187;1.641297;0.2368957;0.9555887;1.677618;-0.08953291;0.6143658;1.708786;0.06124732;0.1696339;0.9090972;0.2063055;0;0;0;1.475931;1.67622;-0.0895365;1.764931;1.705696;0.06124201;1.971156;0.7977982;0.3091672;2.03208;-0.146216;0.2551893;0.8996667;1.269001;2.001594;0.8328614;-0.1395599;2.39192;0.9968023;0.4272959;3.60193;0.8996667;1.269001;2.001594;0.8328614;-0.1395599;2.39192;0.9968023;0.4272959;3.60193
1198836.1671;NotLabelled;16384;0.6666627;-0.666205;0.3296399;-0.05540166;19;-88;3;1732;1766;-271;65536;0.7878452;-0.6080332;0.05401662;-0.08171745;8;-77;59;-2489;690;2317;8192;0.5373961;-0.6498945;-0.4709141;-0.2590028;14;20;4;798;4011;-621;32768;0.6856026;-0.634349;-0.267313;-0.2368421;1;3;0;157;4183;-396;256;-0.06648199;0;-0.9899705;-0.1246537;33;-16;12;859;1136;4601;128;0.1052632;-0.04570637;0.9673997;0.2257618;-12;-5;-19;-279;2093;-4262;4;-0.4432133;0.5401662;-0.5900993;-0.4044321;-2;63;-28;-763;3720;604;16;-0.2132964;-0.9628808;-0.1620499;0.033241;-8;24;15;-1423;-1968;3724;2;0.3199446;-0.5443213;-0.5985207;-0.4930748;-1;23;18;1949;3992;-591;8;-0.1121884;-0.971943;0.1966759;-0.06371191;-17;-12;-5;2223;-807;2839;1.237852;1.244359;1.944533;1.239042;1.352803;1.409874;1.240067;1.446142;0.9395074;1.241742;1.619609;0.2265072;0.9834445;1.662161;-0.09940578;0.6424295;1.693671;0.05177304;0.1869699;0.903621;0.2151921;0;0;0;1.503764;1.65712;-0.09941311;1.792945;1.682523;0.05175889;1.996254;0.7764416;0.3085764;2.05313;-0.1678369;0.2547888;0.9259155;1.231233;1.987606;0.8576527;-0.1740496;2.389325;1.019594;0.3917134;3.600116;0.9259155;1.231233;1.987606;0.8576527;-0.1740496;2.389325;1.019594;0.3917134;3.600116
1198857.4524;NotLabelled;16384;0.6606648;-0.6745394;0.3282548;-0.02770083;44;-13;47;-1772;802;-315;65536;0.7855701;-0.6094183;0.0900277;-0.05817174;-22;-110;-5;-905;3084;-1003;8192;0.534626;-0.6500642;-0.4722992;-0.2617728;1;1;9;1450;4333;-105;32768;0.6853171;-0.632964;-0.2700831;-0.2382271;2;5;-5;-7;4167;-430;256;-0.0734072;0.001385042;-0.9885831;-0.1315789;-8;39;2;1833;1172;3283;128;0.1108033;-0.04570637;0.9661298;0.2285319;2;19;0;-1293;1685;-4142;4;-0.4473684;0.5595568;-0.5790368;-0.3891967;10;77;-20;-2003;3758;24;16;-0.2132964;-0.960539;-0.1759003;0.03047091;-5;44;15;-1487;-1674;3368;2;0.3144044;-0.5429363;-0.6027001;-0.4930748;0;17;10;835;3846;-883;8;-0.1149584;-0.9711443;0.199446;-0.06232687;-8;12;-2;2129;-855;3149;1.257034;1.220067;1.945559;1.258256;1.331439;1.411502;1.259309;1.427354;0.9416535;1.262311;1.608461;0.2305604;1.004373;1.656293;-0.09490597;0.6635553;1.688524;0.05656531;0.2050904;0.8994393;0.2162058;0;0;0;1.524646;1.647668;-0.09490898;1.813967;1.669453;0.05656004;2.009932;0.7617497;0.3133633;2.065479;-0.1824015;0.2560845;0.9450944;1.206706;1.98854;0.8740605;-0.1922692;2.411248;1.027946;0.3752084;3.622288;0.9450944;1.206706;1.98854;0.8740605;-0.1922692;2.411248;1.027946;0.3752084;3.622288
1198898.3428;NotLabelled;16384;0.6565097;-0.6802049;0.3254848;-0.01939058;63;-9;36;-3552;2722;-221;65536;0.7869791;-0.6080332;0.09418282;-0.04570637;35;-71;-14;8047;10634;-8749;8192;0.5304709;-0.6514482;-0.4750692;-0.2617728;-2;0;18;1224;3827;-101;32768;0.6846997;-0.632964;-0.2728532;-0.2368421;6;-2;-3;-115;4031;-440;256;-0.07479224;0.006925208;-0.9888207;-0.1288089;-21;46;1;1153;778;3125;128;0.1121884;-0.04847645;0.9664862;0.2257618;14;35;5;-1045;1359;-3902;4;-0.4473684;0.567867;-0.5755494;-0.3822715;11;59;-15;-2197;3902;176;16;-0.2132964;-0.959245;-0.1828255;0.03047091;-1;35;11;-1443;-1892;3238;2;0.3102493;-0.5429363;-0.6002905;-0.4986149;20;7;0;1461;3980;-1337;8;-0.1149584;-0.9710327;0.200831;-0.05955679;-5;3;-13;1897;-655;3513;1.240213;1.21948;1.901589;1.241469;1.333977;1.368194;1.242552;1.432643;0.8989154;1.24572;1.623692;0.1904293;0.9878578;1.67608;-0.1343946;0.6470048;1.706188;0.01743436;0.2323154;0.8973191;0.1965809;0;0;0;1.50813;1.667453;-0.1343978;1.797416;1.687112;0.01742887;1.992765;0.7795038;0.275035;2.049817;-0.164458;0.216133;0.9282704;1.205867;1.944472;0.8719906;-0.1861532;2.391654;1.027731;0.3799069;3.603119;0.9282704;1.205867;1.944472;0.8719906;-0.1861532;2.391654;1.027731;0.3799069;3.603119
1198920.1611;NotLabelled;16384;0.6495845;-0.6875486;0.3240997;-0.0166205;78;31;-27;-8286;8968;247;65536;0.7910928;-0.602493;0.09833795;-0.03878116;11;-43;-10;-729;4592;267;8192;0.5290859;-0.6511036;-0.4778393;-0.2603878;-1;-12;25;1460;3697;69;32768;0.6859775;-0.6315789;-0.2728532;-0.2368421;7;-4;0;-45;4021;-482;256;-0.07617728;0.01246537;-0.9891931;-0.1246537;-12;26;6;-851;228;3971;128;0.1121884;-0.05401662;0.9671538;0.2216066;20;44;10;-137;1057;-3856;4;0.4473684;-0.5769243;0.5692521;0.3781163;8;34;-15;-2243;3752;306;16;-0.2146814;-0.9581345;-0.1869806;0.03047091;-1;26;1;-1249;-2090;3156;2;0.3074792;-0.5429363;-0.5994079;-0.501385;23;9;-2;1843;4046;-1111;8;-0.1163435;-0.9716824;0.1980609;-0.05540166;-14;26;-16;1783;-1109;3129;1.218068;1.243325;1.895723;1.219296;1.355224;1.361776;1.220354;1.451603;0.8920231;1.2214;1.63929;0.1826326;0.9629681;1.687284;-0.1424172;0.6218084;1.714363;0.009292707;0.2254152;0.898649;0.198533;0;0;0;1.483304;1.684384;-0.1424206;1.77236;1.707952;0.009287298;1.968429;0.8027575;0.2747222;2.030543;-0.1409969;0.2176583;0.9061282;1.229921;1.938688;0.8565708;-0.1573424;2.401184;1.013388;0.4085426;3.612592;0.9061282;1.229921;1.938688;0.8565708;-0.1573424;2.401184;1.013388;0.4085426;3.612592
1198940.3699;NotLabelled;16384;0.6481994;-0.6878443;0.3254848;-0.02770083;-77;-11;-43;-4248;8460;8015;65536;0.7903759;-0.6038781;0.09556787;-0.03878116;-13;10;-17;1435;3212;-3339;8192;0.5277008;-0.6528558;-0.4792244;-0.2562327;-6;-18;22;1202;3329;373;32768;0.6872501;-0.6301939;-0.2728532;-0.2368421;5;-9;-2;67;4033;-592;256;-0.08033241;0.01385042;-0.9888459;-0.1246537;1;7;23;-2509;-76;5285;128;0.1135734;-0.05955679;0.9679201;0.2160665;25;24;-1;1251;997;-3974;4;0.4459834;-0.5806926;0.5692521;0.3739612;10;8;-18;-2063;3578;456;16;-0.2146814;-0.9575446;-0.1897507;0.03185596;2;16;-2;-1485;-1948;3180;2;0.3033241;-0.5429363;-0.5992014;-0.5041551;20;15;-8;1945;3318;-801;8;-0.1177285;-0.9716696;0.1980609;-0.05263158;-13;9;-21;2595;-713;3045;1.209742;1.262882;1.892386;1.210929;1.371056;1.357672;1.211951;1.464158;0.8872585;1.210917;1.646515;0.1764795;0.951976;1.689161;-0.1489105;0.6105269;1.713541;0.002606228;0.226555;0.8960142;0.2088705;0;0;0;1.472311;1.692111;-0.148914;1.761078;1.720064;0.002600491;1.962343;0.8168356;0.270828;2.024975;-0.1266518;0.2100291;0.8978052;1.249778;1.935467;0.862824;-0.1353767;2.405554;1.021307;0.433785;3.615209;0.8978052;1.249778;1.935467;0.862824;-0.1353767;2.405554;1.021307;0.433785;3.615209
