SEP=;
index;label;RightUpperArm_boneIndex;RightUpperArm_quat9x_w;RightUpperArm_quat9x_x;RightUpperArm_quat9x_y;RightUpperArm_quat9x_z;RightUpperArm_gyroscope_x;RightUpperArm_gyroscope_y;RightUpperArm_gyroscope_z;RightUpperArm_accelerometer_x;RightUpperArm_accelerometer_y;RightUpperArm_accelerometer_z;RightLowerArm_boneIndex;RightLowerArm_quat9x_w;RightLowerArm_quat9x_x;RightLowerArm_quat9x_y;RightLowerArm_quat9x_z;RightLowerArm_gyroscope_x;RightLowerArm_gyroscope_y;RightLowerArm_gyroscope_z;RightLowerArm_accelerometer_x;RightLowerArm_accelerometer_y;RightLowerArm_accelerometer_z;LeftUpperArm_boneIndex;LeftUpperArm_quat9x_w;LeftUpperArm_quat9x_x;LeftUpperArm_quat9x_y;LeftUpperArm_quat9x_z;LeftUpperArm_gyroscope_x;LeftUpperArm_gyroscope_y;LeftUpperArm_gyroscope_z;LeftUpperArm_accelerometer_x;LeftUpperArm_accelerometer_y;LeftUpperArm_accelerometer_z;LeftLowerArm_boneIndex;LeftLowerArm_quat9x_w;LeftLowerArm_quat9x_x;LeftLowerArm_quat9x_y;LeftLowerArm_quat9x_z;LeftLowerArm_gyroscope_x;LeftLowerArm_gyroscope_y;LeftLowerArm_gyroscope_z;LeftLowerArm_accelerometer_x;LeftLowerArm_accelerometer_y;LeftLowerArm_accelerometer_z;Chest_boneIndex;Chest_quat9x_w;Chest_quat9x_x;Chest_quat9x_y;Chest_quat9x_z;Chest_gyroscope_x;Chest_gyroscope_y;Chest_gyroscope_z;Chest_accelerometer_x;Chest_accelerometer_y;Chest_accelerometer_z;Spine_boneIndex;Spine_quat9x_w;Spine_quat9x_x;Spine_quat9x_y;Spine_quat9x_z;Spine_gyroscope_x;Spine_gyroscope_y;Spine_gyroscope_z;Spine_accelerometer_x;Spine_accelerometer_y;Spine_accelerometer_z;RightUpperLeg_boneIndex;RightUpperLeg_quat9x_w;RightUpperLeg_quat9x_x;RightUpperLeg_quat9x_y;RightUpperLeg_quat9x_z;RightUpperLeg_gyroscope_x;RightUpperLeg_gyroscope_y;RightUpperLeg_gyroscope_z;RightUpperLeg_accelerometer_x;RightUpperLeg_accelerometer_y;RightUpperLeg_accelerometer_z;RightLowerLeg_boneIndex;RightLowerLeg_quat9x_w;RightLowerLeg_quat9x_x;RightLowerLeg_quat9x_y;RightLowerLeg_quat9x_z;RightLowerLeg_gyroscope_x;RightLowerLeg_gyroscope_y;RightLowerLeg_gyroscope_z;RightLowerLeg_accelerometer_x;RightLowerLeg_accelerometer_y;RightLowerLeg_accelerometer_z;LeftUpperLeg_boneIndex;LeftUpperLeg_quat9x_w;LeftUpperLeg_quat9x_x;LeftUpperLeg_quat9x_y;LeftUpperLeg_quat9x_z;LeftUpperLeg_gyroscope_x;LeftUpperLeg_gyroscope_y;LeftUpperLeg_gyroscope_z;LeftUpperLeg_accelerometer_x;LeftUpperLeg_accelerometer_y;LeftUpperLeg_accelerometer_z;LeftLowerLeg_boneIndex;LeftLowerLeg_quat9x_w;LeftLowerLeg_quat9x_x;LeftLowerLeg_quat9x_y;LeftLowerLeg_quat9x_z;LeftLowerLeg_gyroscope_x;LeftLowerLeg_gyroscope_y;LeftLowerLeg_gyroscope_z;LeftLowerLeg_accelerometer_x;LeftLowerLeg_accelerometer_y;LeftLowerLeg_accelerometer_z;pelvis_x;pelvis_y;pelvis_z;lowerSpine_x;lowerSpine_y;lowerSpine_z;middleSpine_x;middleSpine_y;middleSpine_z;upperSpine_x;upperSpine_y;upperSpine_z;rightClavicle_x;rightClavicle_y;rightClavicle_z;rightShoulder_x;rightShoulder_y;rightShoulder_z;rightElbow_x;rightElbow_y;rightElbow_z;rightWrist_x;rightWrist_y;rightWrist_z;leftClavicle_x;leftClavicle_y;leftClavicle_z;leftShoulder_x;leftShoulder_y;leftShoulder_z;leftElbow_x;leftElbow_y;leftElbow_z;leftWrist_x;leftWrist_y;leftWrist_z;rightHip_x;rightHip_y;rightHip_z;rightKnee_x;rightKnee_y;rightKnee_z;rightAnkle_x;rightAnkle_y;rightAnkle_z;leftHip_x;leftHip_y;leftHip_z;leftKnee_x;leftKnee_y;leftKnee_z;leftAnkle_x;leftAnkle_y;leftAnkle_z;
677172.6047;NotLabelled;16384;-0.4598338;0.6246537;-0.6302077;-0.03462604;15;17;4;-3298;2394;811;65536;0.7290057;-0.5927978;0.06925207;0.33518;-30;48;-7;-5709;3854;1377;8192;0.3074792;-0.6080332;-0.7038601;-0.200831;0;-6;-21;3130;2697;1029;32768;-0.5373961;0.5027701;0.3407202;0.5850961;-2;-41;-22;863;4317;448;256;-0.09695291;0.1024931;-0.7801953;-0.6094183;-5;2;4;-239;3920;951;128;0.1163435;-0.0734072;0.6426592;0.7537007;0;8;-5;-221;4211;600;4;0.5567867;-0.5851305;0.4155124;0.4182825;1;-4;5;165;4012;-324;16;0.6080332;-0.7662185;-0.1398892;-0.1537396;-5;0;-3;-221;4076;734;2;0.4362881;-0.3739612;-0.5443213;-0.6111628;0;4;0;-449;4062;-67;8;0.6108033;-0.7892586;-0.06094183;-0.0166205;0;1;-2;-337;3947;1027;0.273908;2.816728;-0.3330893;0.2798589;3.359004;-0.3924501;0.2850872;3.835443;-0.4466389;0.2540851;4.547764;-0.6201332;-0.01775236;4.844106;-0.7342994;-0.3534597;4.708061;-0.6397923;-0.6899922;4.137663;0.008065522;-0.5021863;3.27555;-0.3373153;0.5020992;4.866734;-0.7343009;0.7960212;4.758095;-0.6397946;1.160527;4.130127;-0.006495893;0.8895416;3.241732;-0.1938704;-0.03835276;2.774086;-0.3357476;0.01122108;1.312181;-0.3006376;0;0;0;-0.03835276;2.774086;-0.3357476;0.01122108;1.312181;-0.3006376;0;0;0
677193.5944;NotLabelled;16384;0.4584487;-0.6284625;0.6274238;0.03462604;12;8;5;-3086;2532;693;65536;0.7291518;-0.5955678;0.06371191;0.3310249;-24;44;1;-979;3780;-337;8192;0.3130194;-0.6080332;-0.7010158;-0.2022161;0;-7;-15;3130;2815;971;32768;-0.5387812;0.5138504;0.3421052;0.5732684;-6;-22;-36;85;4421;832;256;-0.09833795;0.1024931;-0.7811021;-0.6080332;-6;1;5;-339;3848;933;128;0.1191136;-0.07479224;0.6426592;0.7531316;-4;6;-4;-193;4117;722;4;0.5581717;-0.5847796;0.4127424;0.4196676;2;7;4;133;3996;-134;16;0.6066482;-0.7673155;-0.1398892;-0.1537396;-6;0;-3;-103;3964;928;2;0.4362881;-0.3739612;-0.5443213;-0.6111628;0;4;-2;-495;4030;-39;8;0.6108033;-0.7892586;-0.06094183;-0.0166205;0;3;-1;-429;3971;1023;0.267753;2.816906;-0.329151;0.2737033;3.359145;-0.3888508;0.2789312;3.83555;-0.4433375;0.2491575;4.547926;-0.6168193;-0.02216868;4.844738;-0.7309798;-0.35811;4.709272;-0.6364749;-0.6878773;4.136606;0.0128611;-0.4932617;3.273652;-0.3265973;0.4977213;4.86647;-0.7309815;0.7914556;4.757322;-0.6364774;1.15731;4.124844;-0.00846678;0.8863147;3.235041;-0.189021;-0.04450793;2.774263;-0.3317804;0.005328499;1.312282;-0.300355;0;0;0;-0.04450793;2.774263;-0.3317804;0.005328499;1.312282;-0.300355;0;0;0
677214.6076;NotLabelled;16384;0.4570637;-0.6320618;0.6246537;0.03739612;19;12;5;-3276;2506;237;65536;0.7288781;-0.5983379;0.06232687;0.3268698;-12;13;3;-1017;3984;-1089;8192;0.3144044;-0.6080332;-0.7003956;-0.2022161;-2;-8;-13;3340;2759;791;32768;-0.5373961;0.5193906;0.3434903;0.5687295;-8;-29;-42;651;4233;822;256;-0.09833795;0.1024931;-0.7821782;-0.6066482;-6;1;4;-271;3980;1055;128;0.1191136;-0.07479224;0.6426592;0.7531316;1;8;-2;-19;4161;586;4;0.5595568;-0.5844318;0.4113573;0.4196676;2;8;5;-3;4086;-116;16;0.6052631;-0.7684085;-0.1398892;-0.1537396;-7;1;-3;-157;3932;856;2;0.4362881;-0.3739612;-0.5443213;-0.6111628;0;6;-3;-537;4212;-71;8;0.6108033;-0.7891505;-0.06232687;-0.0166205;0;4;-1;-351;3903;1013;0.264358;2.815925;-0.3248068;0.2703075;3.358086;-0.3852091;0.2755347;3.834419;-0.4403129;0.2466742;4.546228;-0.6162643;-0.02426259;4.842977;-0.7315084;-0.36039;4.708251;-0.6366063;-0.6827722;4.133295;0.01441142;-0.4829894;3.27037;-0.3221062;0.4956537;4.864068;-0.7314755;0.7892335;4.754887;-0.6365322;1.159528;4.114343;-0.01939338;0.896085;3.21804;-0.1775939;-0.0479029;2.773279;-0.3273766;0.004385978;1.311217;-0.3049875;0;0;0;-0.0479029;2.773279;-0.3273766;0.004385978;1.311217;-0.3049875;0;0;0
677235.6023;NotLabelled;16384;0.4542936;-0.6353342;0.6232687;0.03878116;24;10;2;-3496;2388;611;65536;0.730114;-0.5983379;0.06232687;0.3240997;-1;6;4;-1553;4100;-1401;8192;0.3157895;-0.6094183;-0.6985664;-0.2022161;3;-8;-9;3236;2563;757;32768;-0.536011;0.5263157;0.3448753;0.5628009;-10;-29;-48;191;4131;1048;256;-0.09972299;0.1024931;-0.7820029;-0.6066482;-6;0;4;-469;3892;903;128;0.1204986;-0.07617728;0.6412742;0.7539526;-4;7;-1;-57;4071;700;4;0.5595568;-0.5854042;0.4099723;0.4196676;1;9;5;-87;4056;-162;16;0.6052631;-0.7681551;-0.1412742;-0.1537396;-7;4;-3;-141;3964;810;2;0.4362881;-0.3725762;-0.5443213;-0.6120082;-2;7;-2;-599;4220;25;8;0.6108033;-0.7891505;-0.06232687;-0.0166205;0;6;0;-361;4033;933;0.2651356;2.814945;-0.3250214;0.2710851;3.357105;-0.3854236;0.2763123;3.833439;-0.4405274;0.2471141;4.544618;-0.6189518;-0.02396035;4.840831;-0.7352456;-0.3600286;4.70627;-0.6399012;-0.6760547;4.127698;0.01103017;-0.4756053;3.262616;-0.3194986;0.4959456;4.862179;-0.7352474;0.7895721;4.753473;-0.6399038;1.159577;4.112348;-0.02319479;0.8986585;3.213203;-0.1689592;-0.04712527;2.772298;-0.3275911;0.00406386;1.310137;-0.3095996;0;0;0;-0.04712527;2.772298;-0.3275911;0.00406386;1.310137;-0.3095996;0;0;0
677256.5931;NotLabelled;16384;0.4515235;-0.63722;0.6232687;0.0401662;14;0;1;-3340;2750;1063;65536;0.7307273;-0.5983379;0.06232687;0.3227147;5;16;4;-1983;4046;-1131;8192;0.3171745;-0.6108033;-0.6967269;-0.2022161;6;-11;-7;3178;2613;599;32768;-0.533241;0.533241;0.3476454;0.5571811;-8;-5;-49;57;4073;812;256;-0.09972299;0.1024931;-0.7830754;-0.6052631;-7;-1;2;-493;3914;959;128;0.1204986;-0.07617728;0.6412742;0.7539526;1;2;0;-35;4077;720;4;0.5609418;-0.5850469;0.4085872;0.4196676;1;7;8;-127;4050;-198;16;0.6038781;-0.7692444;-0.1412742;-0.1537396;-9;0;-3;-125;3964;736;2;0.434903;-0.3711911;-0.5457063;-0.6126019;-4;7;-1;-637;4122;-51;8;0.6094183;-0.7901101;-0.06371191;-0.0166205;-1;5;0;-321;3971;923;0.2595521;2.815936;-0.3151033;0.2655035;3.358272;-0.373909;0.2707324;3.834766;-0.4276102;0.2431543;4.546519;-0.6039899;-0.0271505;4.843542;-0.7200086;-0.3636615;4.709279;-0.6258128;-0.6749091;4.128301;0.0252763;-0.4776064;3.263118;-0.3068792;0.49279;4.863994;-0.7187885;0.7860157;4.7545;-0.6231137;1.153289;4.109179;-0.009154975;0.895696;3.207133;-0.1423762;-0.05270872;2.773298;-0.3178086;0.001804963;1.311201;-0.3050835;0;0;0;-0.05270872;2.773298;-0.3178086;0.001804963;1.311201;-0.3050835;0;0;0
677276.6255;NotLabelled;16384;-0.4584487;0.6260388;-0.6289278;-0.04847645;-15;-21;28;-2196;3232;1165;65536;0.7399325;-0.6038781;0.0401662;0.2936288;-28;129;24;57;2942;603;8192;0.3171745;-0.6149584;-0.6918363;-0.2063712;16;0;-10;2962;2525;537;32768;0.5235457;-0.5522045;-0.3573407;-0.5415512;-8;-12;-51;835;3959;438;256;-0.09833795;0.101108;-0.7844986;-0.6038781;0;-3;3;-331;3838;959;128;0.1191136;-0.07479224;0.6412742;0.7543113;3;-8;-5;-421;4061;860;4;0.5623268;-0.5826846;0.4072022;0.4224377;-3;-7;10;-417;4056;-216;16;0.601108;-0.7722101;-0.1398892;-0.1509695;-7;-9;-3;-149;3990;1122;2;0.4362881;-0.3698061;-0.5457063;-0.6124547;0;-2;0;-765;3980;-105;8;0.6094183;-0.7901101;-0.06371191;-0.0166205;-3;0;0;-331;3999;973;0.2596271;2.81398;-0.3233456;0.2655786;3.356316;-0.3821515;0.2708075;3.83281;-0.4358527;0.2425025;4.543404;-0.6167337;-0.02819397;4.839545;-0.7340872;-0.3644395;4.705724;-0.6383266;-0.6658182;4.126231;0.01870295;-0.4708072;3.259542;-0.3108701;0.4917375;4.860259;-0.7340891;0.7852182;4.751523;-0.6383295;1.156011;4.106913;-0.02574074;0.9023664;3.200993;-0.1387094;-0.0526337;2.771341;-0.326051;0.0008093566;1.309204;-0.3135477;0;0;0;-0.0526337;2.771341;-0.326051;0.0008093566;1.309204;-0.3135477;0;0;0
677318.5934;NotLabelled;16384;-0.4639889;0.6232687;-0.6272802;-0.05263158;-9;-2;32;-2306;2902;331;65536;0.7422001;-0.6094183;0.03185596;0.2770083;-42;96;49;759;3040;325;8192;0.3171745;-0.6163435;-0.6897688;-0.2091413;17;-7;-15;3024;2449;599;32768;0.5207756;-0.5579552;-0.3587258;-0.5373961;-9;-9;-46;1231;3799;494;256;-0.09833795;0.101108;-0.7834305;-0.6052631;3;-4;3;-143;3858;963;128;0.1191136;-0.0734072;0.6412742;0.7544473;5;-11;-7;-433;3789;646;4;0.5609418;-0.5830499;0.4085872;0.4224377;-4;-15;8;-435;4116;-164;16;0.599723;-0.7735355;-0.1385041;-0.1509695;-6;-10;-3;-137;3928;1204;2;0.4362881;-0.3698061;-0.5457063;-0.6124547;0;-6;0;-787;4156;-151;8;0.6094183;-0.7901101;-0.06371191;-0.0166205;-3;-1;0;-349;4027;981;0.2574292;2.811508;-0.3223897;0.2633811;3.353883;-0.3808316;0.2686104;3.830414;-0.4342131;0.2402868;4.540269;-0.6179684;-0.03041057;4.835914;-0.7365611;-0.3666623;4.702459;-0.6403149;-0.6781188;4.114163;0.004069865;-0.4794069;3.245034;-0.3167491;0.4895195;4.856663;-0.7365628;0.7829918;4.748335;-0.6403173;1.141264;4.0976;-0.02675539;0.9020308;3.183012;-0.09068605;-0.05483158;2.768871;-0.325126;-0.00223697;1.30665;-0.3240199;0;0;0;-0.05483158;2.768871;-0.325126;-0.00223697;1.30665;-0.3240199;0;0;0
677339.6315;NotLabelled;16384;0.466759;-0.6263605;0.6218836;0.05540166;-5;18;30;-2764;2516;673;65536;0.7393243;-0.6191136;0.02908587;0.2631579;-57;70;68;-647;2934;1407;8192;0.3171745;-0.6177285;-0.6881064;-0.2105263;16;2;-23;3066;2595;727;32768;0.5193906;-0.5623235;-0.3601108;-0.533241;-6;-13;-41;1303;3627;736;256;-0.09833795;0.09972299;-0.783608;-0.6052631;9;1;4;31;3834;877;128;0.1191136;-0.07063711;0.6412742;0.7547117;-2;-8;-7;-507;3483;1290;4;0.5609418;-0.579075;0.4113573;0.4252077;-4;-22;5;-343;4030;-208;16;0.599723;-0.7738045;-0.1385041;-0.1495845;-4;-10;-2;-123;3972;1200;2;0.4376731;-0.3698061;-0.5443213;-0.612699;1;-9;0;-721;4084;-93;8;0.6080332;-0.7911764;-0.06371191;-0.0166205;-3;-1;0;-337;3951;989;0.2582416;2.810156;-0.3320232;0.2641935;3.352532;-0.3904524;0.2694228;3.829063;-0.4438228;0.2414213;4.539564;-0.625115;-0.02914771;4.835752;-0.7426459;-0.3654518;4.702128;-0.6468158;-0.6801725;4.105101;-0.0121204;-0.482691;3.231211;-0.3205292;0.4907926;4.856246;-0.7426477;0.7842251;4.747443;-0.6468185;1.137017;4.093019;-0.03400379;0.8997093;3.177061;-0.08392823;-0.05401923;2.767519;-0.3347605;-0.0003298074;1.305347;-0.3292355;0;0;0;-0.05401923;2.767519;-0.3347605;-0.0003298074;1.305347;-0.3292355;0;0;0
677360.6626;NotLabelled;16384;0.4695291;-0.626783;0.6191136;0.05817174;5;6;34;-2708;2576;461;65536;0.7357582;-0.6288089;0.033241;0.2493075;-59;20;85;693;3756;-863;8192;0.3185596;-0.6163435;-0.6869904;-0.2160665;21;23;-29;2934;2639;375;32768;0.5193906;-0.5653515;-0.3614958;-0.5290859;-3;-20;-39;1027;3299;904;256;-0.09972299;0.09972299;-0.781285;-0.6080332;11;1;4;65;3718;803;128;0.1177285;-0.06925207;0.6412742;0.7550573;10;-5;-2;-895;2693;850;4;0.5595568;-0.5784103;0.4127424;0.4265928;-4;-20;3;-235;4118;-240;16;0.5983379;-0.7753883;-0.1371191;-0.1481994;-2;-6;-2;-299;3962;1128;2;0.4390582;-0.3711911;-0.5443213;-0.6108677;0;-11;1;-593;4076;-43;8;0.6080332;-0.7911764;-0.06371191;-0.0166205;-4;-1;0;-387;3897;1013;0.2623167;2.810308;-0.3271327;0.2682686;3.352686;-0.3855358;0.273498;3.829221;-0.4388832;0.247018;4.53968;-0.620569;-0.02291523;4.83638;-0.7382695;-0.3595058;4.703526;-0.6423729;-0.6720201;4.097965;-0.01471257;-0.4747184;3.216032;-0.2994296;0.4970676;4.855763;-0.7382713;0.790265;4.746385;-0.6423755;1.13859;4.089964;-0.02914172;0.9048246;3.172596;-0.0688577;-0.04994407;2.767671;-0.3298722;-0.002736792;1.305265;-0.3295494;0;0;0;-0.04994407;2.767671;-0.3298722;-0.002736792;1.305265;-0.3295494;0;0;0
677381.626;NotLabelled;16384;0.4722992;-0.6306656;0.6121883;0.06648199;17;1;43;-3096;2230;565;65536;0.7243092;-0.6468144;0.04709141;0.234072;-45;0;60;-3447;3734;-1259;8192;0.3185596;-0.6135734;-0.6872571;-0.2229917;26;26;-37;2708;2373;-155;32768;0.5180055;-0.5695924;-0.3628809;-0.5249307;6;-9;-35;713;3355;456;256;-0.09972299;0.09972299;-0.7802051;-0.6094183;20;5;4;167;3460;587;128;0.1163435;-0.06786703;0.6440443;0.7530373;20;-20;5;-211;2785;358;4;0.5581717;-0.577735;0.4141274;0.4279778;-4;-17;2;-181;4072;-146;16;0.5983379;-0.7756517;-0.1371191;-0.1468144;0;-6;0;-273;3960;1112;2;0.4404432;-0.3739612;-0.5429363;-0.6094121;2;-13;2;-357;4056;27;8;0.6080332;-0.7911764;-0.06371191;-0.0166205;-2;-3;0;-353;3915;1103;0.2592853;2.808863;-0.3332735;0.2652376;3.351281;-0.3913169;0.2704673;3.82785;-0.4443482;0.2458532;4.539624;-0.6210805;-0.02331121;4.837861;-0.7366365;-0.3602327;4.705252;-0.6415688;-0.6689088;4.093628;-0.01789954;-0.4823756;3.201163;-0.275791;0.4967221;4.855844;-0.736654;0.7896496;4.745013;-0.6416062;1.134436;4.081313;-0.03423518;0.9055442;3.162411;-0.0661267;-0.05297554;2.766228;-0.3360437;-0.00458499;1.303861;-0.3350393;0;0;0;-0.05297554;2.766228;-0.3360437;-0.00458499;1.303861;-0.3350393;0;0;0
677401.642;NotLabelled;16384;0.4736842;-0.631541;0.6094183;0.0734072;21;-12;45;-2798;2436;197;65536;0.7206423;-0.6509695;0.05263158;0.232687;-19;-40;31;-3443;3922;-1509;8192;0.3199446;-0.6108033;-0.683477;-0.2396122;37;8;-45;2424;2225;233;32768;0.5207756;-0.5682166;-0.367036;-0.5207756;17;0;-4;2691;2875;486;256;-0.101108;0.101108;-0.7776759;-0.6121883;28;4;6;-133;3246;645;128;0.1149584;-0.06648199;0.6468144;0.7509966;25;-18;3;-277;3475;994;4;0.5581717;-0.5757093;0.4155124;0.4293629;-2;-12;0;-205;4116;-172;16;0.5983379;-0.7758953;-0.1357341;-0.1468144;2;-5;0;-253;3890;1176;2;0.4418283;-0.3753462;-0.5415512;-0.60879;3;-12;3;-297;4116;51;8;0.6066482;-0.7923491;-0.06232687;-0.0166205;-2;-5;0;-337;3861;1141;0.2552237;2.808754;-0.3346478;0.2611718;3.350777;-0.396262;0.2663976;3.826988;-0.4524306;0.2421699;4.539385;-0.6266915;-0.02682395;4.838154;-0.7412651;-0.3638304;4.70538;-0.6467288;-0.6637027;4.074035;-0.03861117;-0.4918024;3.165316;-0.24472;0.4932179;4.855881;-0.7411126;0.7860712;4.744576;-0.6463903;1.120828;4.068915;-0.04664373;0.895617;3.148803;-0.06818438;-0.05703727;2.766101;-0.3371145;-0.00747817;1.303775;-0.3353248;0;0;0;-0.05703727;2.766101;-0.3371145;-0.00747817;1.303775;-0.3353248;0;0;0
677422.5887;NotLabelled;16384;0.4750692;-0.6321467;0.6066482;0.08171745;23;-11;43;-2824;2670;599;65536;0.717604;-0.6523545;0.05817174;0.2368421;-1;-46;4;-3915;4158;-993;8192;0.3213296;-0.6094183;-0.6810955;-0.2479224;34;14;-50;2098;2497;477;32768;0.5249307;-0.564895;-0.3642659;-0.5221606;19;-3;12;2645;2707;520;256;-0.1024931;0.101108;-0.7708786;-0.6204986;35;4;8;-205;3872;817;128;0.1108033;-0.06371191;0.6509695;0.7482661;3;-7;-1;-309;4851;1000;4;0.5567867;-0.5750442;0.4182825;0.4293629;0;-6;-5;-235;4020;-258;16;0.599723;-0.7753277;-0.134349;-0.1454294;6;-3;2;-231;3922;1220;2;0.4418283;-0.3781163;-0.5415512;-0.6070734;1;-11;2;-247;4072;107;8;0.6066482;-0.7923769;-0.06232687;-0.01523546;-1;-5;0;-347;3931;1167;0.2593339;2.808724;-0.3327142;0.2652773;3.350328;-0.3979129;0.2704989;3.826156;-0.4572306;0.2466028;4.53986;-0.6261032;-0.02227475;4.839645;-0.7382727;-0.3593087;4.706364;-0.6445532;-0.6488045;4.069171;-0.03750592;-0.4814523;3.156956;-0.2315519;0.4977778;4.85706;-0.7382743;0.7906161;4.74487;-0.6445558;1.105401;4.052987;-0.05253893;0.892251;3.130001;-0.07376236;-0.05292723;2.766056;-0.3348761;-0.006703965;1.303619;-0.3359435;0;0;0;-0.05292723;2.766056;-0.3348761;-0.006703965;1.303619;-0.3359435;0;0;0
677442.5935;NotLabelled;16384;0.4764543;-0.6330156;0.6038781;0.08725762;22;8;39;-2800;2940;1133;65536;0.7173646;-0.6509695;0.05955679;0.2409972;0;-8;-20;-4165;4576;-601;8192;0.3240997;-0.6080332;-0.6779379;-0.2562327;33;4;-57;1876;2671;437;32768;0.5290859;-0.5602112;-0.3614958;-0.5249307;16;-1;30;2715;3215;592;256;-0.1038781;0.101108;-0.7673293;-0.6246537;26;11;8;-53;3990;1059;128;0.1121884;-0.06371191;0.6495845;0.7492627;-26;-2;-9;-385;4451;580;4;0.5554016;-0.5753744;0.4196676;0.4293629;-1;-5;-7;-153;4078;-250;16;0.599723;-0.7753277;-0.134349;-0.1454294;9;0;4;-245;3930;1164;2;0.4418283;-0.3795014;-0.5415512;-0.6062085;1;-10;3;-295;4094;47;8;0.6066482;-0.7924846;-0.06094183;-0.01523546;0;-6;0;-353;3911;1165;0.2604802;2.809733;-0.334757;0.2664168;3.350724;-0.4048626;0.2716324;3.825995;-0.4684914;0.2511031;4.5432;-0.6223058;-0.01636726;4.846557;-0.7280518;-0.354011;4.712942;-0.6370408;-0.6321033;4.059219;-0.04236394;-0.4652903;3.145968;-0.2319525;0.5037625;4.861487;-0.7278664;0.7960848;4.745956;-0.6366293;1.102198;4.038228;-0.0589698;0.8877464;3.115849;-0.09080526;-0.05178116;2.767048;-0.3365011;-0.00779549;1.304548;-0.3322958;0;0;0;-0.05178116;2.767048;-0.3365011;-0.00779549;1.304548;-0.3322958;0;0;0
677463.8332;NotLabelled;16384;0.4778393;-0.6353311;0.599723;0.09141274;15;21;33;-2854;3400;1277;65536;0.7180168;-0.6495845;0.05540166;0.2437673;0;6;-37;-2607;4982;-511;8192;0.3268698;-0.6080332;-0.6728551;-0.265928;30;-11;-55;2050;3105;353;32768;0.533241;-0.5554293;-0.3587258;-0.5277008;13;-4;46;2549;4119;714;256;-0.1052632;0.1024931;-0.7646922;-0.6274238;27;13;8;-73;4074;1017;128;0.1135734;-0.06371191;0.6454294;0.7526373;-38;2;-13;-351;4645;604;4;0.5540166;-0.576728;0.4210526;0.4279778;-1;-3;-9;-131;4114;-280;16;0.601108;-0.7739929;-0.134349;-0.1468144;10;2;5;-301;3910;1140;2;0.4418283;-0.3808864;-0.5415512;-0.6053392;2;-9;4;-279;4100;9;8;0.6066482;-0.7926154;-0.05955679;-0.01385042;1;-7;1;-337;3975;1189;0.2584285;2.809674;-0.3388382;0.2643675;3.350876;-0.4072943;0.2695851;3.826339;-0.4694738;0.2513278;4.545196;-0.6156719;-0.01520574;4.850534;-0.7180225;-0.3532315;4.717077;-0.6282069;-0.6249893;4.060599;-0.03363797;-0.4570351;3.148436;-0.2274092;0.5049705;4.86375;-0.7180241;0.7969669;4.746295;-0.6282096;1.092994;4.032107;-0.05324966;0.8762247;3.110818;-0.09824309;-0.05383279;2.766994;-0.3407227;-0.008682333;1.304548;-0.3322743;0;0;0;-0.05383279;2.766994;-0.3407227;-0.008682333;1.304548;-0.3322743;0;0;0
677484.596;NotLabelled;16384;0.4806094;-0.6361157;0.5955678;0.09833795;4;-4;20;-3508;3222;1057;65536;0.7211174;-0.6440443;0.04847645;0.2506925;27;-9;-31;491;5200;-2371;8192;0.3310249;-0.6094183;-0.6667706;-0.2728532;30;-18;-53;2642;3433;657;32768;0.5373961;-0.5501039;-0.3545706;-0.5318559;9;6;59;2037;4477;668;256;-0.1080332;0.1024931;-0.7620234;-0.6301939;24;10;11;-19;4322;1037;128;0.1149584;-0.06232687;0.6412742;0.7560868;-25;0;-15;-323;4479;474;4;0.5540166;-0.5757143;0.4224377;0.4279778;1;2;-11;107;4044;-252;16;0.602493;-0.7729152;-0.134349;-0.1468144;12;3;7;-273;4034;1034;2;0.4432133;-0.3850415;-0.5401662;-0.6029307;5;-12;9;-387;4210;35;8;0.6066482;-0.7927182;-0.05817174;-0.01385042;3;-5;1;-369;4053;1119;0.2592706;2.810781;-0.3413249;0.265217;3.35266;-0.4041961;0.2704413;3.828738;-0.461469;0.2526807;4.548706;-0.6021585;-0.01364927;4.855014;-0.7021178;-0.3517554;4.721119;-0.6132608;-0.615293;4.057024;-0.02346924;-0.4413733;3.147547;-0.2244716;0.5065364;4.867849;-0.7021195;0.798464;4.749498;-0.613263;1.082354;4.022027;-0.048935;0.8631884;3.10203;-0.1068955;-0.05299041;2.768122;-0.3436849;-0.006627589;1.30578;-0.327447;0;0;0;-0.05299041;2.768122;-0.3436849;-0.006627589;1.30578;-0.327447;0;0;0
677507.1298;NotLabelled;16384;0.4819945;-0.6346318;0.5955678;0.101108;-1;-15;15;-3280;3210;1201;65536;0.7244853;-0.6385041;0.04986149;0.2548476;40;-31;-16;1381;4634;-1379;8192;0.3365651;-0.6108033;-0.6568443;-0.2867036;25;-3;-39;3042;3717;553;32768;-0.5429363;0.5318559;0.3490305;0.5482036;10;38;79;1253;5347;244;256;-0.1094183;0.1024931;-0.7595258;-0.632964;23;1;10;-245;4250;879;128;0.1163435;-0.06094183;0.6385041;0.7583289;-29;-1;-14;-315;4427;506;4;0.5526316;-0.5790783;0.4210526;0.4265928;3;11;-12;239;4094;-116;16;0.6038781;-0.7715689;-0.134349;-0.1481994;13;0;7;-203;4028;888;2;0.4432133;-0.3864266;-0.5401662;-0.602044;5;-12;8;-351;4286;-25;8;0.6066482;-0.7927182;-0.05817174;-0.01385042;3;-4;2;-303;4019;1071;0.2615556;2.811983;-0.3370858;0.2675087;3.354481;-0.3943813;0.2727394;3.831122;-0.4467555;0.2582875;4.552148;-0.5823169;-0.006637603;4.860386;-0.6800481;-0.3453465;4.727427;-0.5920863;-0.5998988;4.052434;-0.01078033;-0.416888;3.149273;-0.2312468;0.5136018;4.870816;-0.6800496;0.8049917;4.750489;-0.5920885;1.080722;4.011512;-0.03877056;0.8559799;3.093926;-0.1116797;-0.05070516;2.769352;-0.3399195;-0.007631563;1.306918;-0.3228522;0;0;0;-0.05070516;2.769352;-0.3399195;-0.007631563;1.306918;-0.3228522;0;0;0
677526.6076;NotLabelled;16384;0.4833795;-0.6333549;0.5955678;0.1024931;-9;-9;17;-2940;3204;1489;65536;0.7258662;-0.634349;0.05401662;0.2603878;36;-40;-7;517;4562;-777;8192;0.3379501;-0.6108033;-0.6543013;-0.2908587;19;-14;-29;3418;3933;913;32768;-0.5443213;0.5221606;0.3448753;0.5586802;4;37;81;817;5477;432;256;-0.1108033;0.1038781;-0.7556528;-0.6371191;14;5;6;-301;4464;563;128;0.1177285;-0.05817174;0.632964;0.7629631;-6;-4;-8;-423;4427;518;4;0.5526316;-0.5811087;0.4210526;0.4238227;1;5;-5;-149;4114;-70;16;0.6080332;-0.7685395;-0.132964;-0.1481994;10;-3;7;47;3956;688;2;0.4432133;-0.3905817;-0.5387812;-0.600602;4;-9;6;-357;4078;-117;8;0.6080332;-0.7917569;-0.0567867;-0.01385042;3;-4;1;-277;3949;1011;0.2563105;2.812823;-0.337736;0.2622677;3.355688;-0.3914326;0.267502;3.832667;-0.4406447;0.2550993;4.554678;-0.5710629;-0.00895378;4.864363;-0.6665573;-0.3480313;4.73175;-0.5794969;-0.6008579;4.053391;-0.001365125;-0.4220679;3.152675;-0.2349067;0.5113134;4.873302;-0.6665588;0.8023682;4.751517;-0.579499;1.057258;3.99287;-0.04306614;0.8190317;3.083052;-0.1582534;-0.05594996;2.770211;-0.3408749;-0.004928179;1.308112;-0.3180324;0;0;0;-0.05594996;2.770211;-0.3408749;-0.004928179;1.308112;-0.3180324;0;0;0
677547.7332;NotLabelled;16384;0.4861496;-0.6310046;0.5955678;0.1038781;-19;-10;15;-2928;3170;1349;65536;0.7276189;-0.6288089;0.06094183;0.267313;41;-93;-2;451;4606;-995;8192;0.3393352;-0.6121883;-0.6510447;-0.2936288;11;-15;-19;3214;4197;1507;32768;-0.5470914;0.5152354;0.3407202;0.5649187;-3;12;70;-59;5707;168;256;-0.1108033;0.1038781;-0.7544829;-0.6385041;15;-1;6;-257;4152;325;128;0.1177285;-0.0567867;0.632964;0.7630674;3;-10;-10;-337;4571;416;4;0.5526316;-0.5801027;0.4224377;0.4238227;0;-5;0;-247;4234;8;16;0.6094183;-0.7674417;-0.132964;-0.1481994;7;-5;5;45;3946;634;2;0.4432133;-0.3933518;-0.5373961;-0.6000348;4;-11;6;-553;4044;-209;8;0.6080332;-0.7917799;-0.0567867;-0.01246537;2;-4;1;-309;4015;979;0.258584;2.815766;-0.3310322;0.2645488;3.359322;-0.3772173;0.2697901;3.836935;-0.4198294;0.2583576;4.56039;-0.5420791;-0.005286112;4.871497;-0.6340172;-0.3445303;4.738376;-0.5483949;-0.5959466;4.058001;0.02798069;-0.4219987;3.158754;-0.2147052;0.5149928;4.879722;-0.6340187;0.8058953;4.75656;-0.5483969;1.05655;3.992459;-0.01773995;0.8069176;3.088715;-0.1545522;-0.05367593;2.773202;-0.3348073;-0.002571009;1.311232;-0.3049422;0;0;0;-0.05367593;2.773202;-0.3348073;-0.002571009;1.311232;-0.3049422;0;0;0
677568.6438;NotLabelled;16384;0.4889196;-0.6275461;0.5969529;0.1038781;-22;-21;9;-2928;2918;809;65536;0.7263774;-0.6218836;0.07617728;0.2825485;56;-167;0;763;4402;-1743;8192;0.3407202;-0.6135734;-0.6483859;-0.2950138;-2;-12;-11;3072;4389;1365;32768;-0.5498615;0.5096953;0.33518;0.5705413;-3;-3;52;-777;5775;-504;256;-0.1094183;0.1024931;-0.7525225;-0.6412742;14;-8;4;-339;4194;501;128;0.1163435;-0.05401662;0.6315789;0.764627;-18;-6;-10;-417;4679;1004;4;0.5526316;-0.5790915;0.4238227;0.4238227;-3;-18;3;-223;4246;24;16;0.6108033;-0.7663099;-0.1315789;-0.1495845;4;-6;3;129;3960;662;2;0.4445983;-0.3947368;-0.5373961;-0.5980974;3;-16;5;-635;4088;-275;8;0.6080332;-0.791878;-0.05540166;-0.01246537;1;-6;1;-307;3897;903;0.2623721;2.816921;-0.3274639;0.2683369;3.360478;-0.3736308;0.2735782;3.838094;-0.416227;0.2625368;4.561989;-0.5358825;-0.0009410232;4.873568;-0.6266897;-0.3402536;4.740326;-0.5415252;-0.595085;4.057304;0.03020084;-0.4286836;3.159373;-0.2224399;0.5193426;4.881506;-0.6266921;0.810182;4.757878;-0.5415291;1.055173;3.989629;-0.01422793;0.7986348;3.090693;-0.1687939;-0.04988796;2.774358;-0.3312405;-0.002109155;1.312297;-0.3003311;0;0;0;-0.04988796;2.774358;-0.3312405;-0.002109155;1.312297;-0.3003311;0;0;0
677610.706;NotLabelled;16384;0.4930748;-0.6171181;0.6038781;0.1066482;-9;-5;3;-2020;2756;1213;65536;0.7181544;-0.5927978;0.1398892;0.3365651;51;-108;3;-2015;3728;1569;8192;0.3462604;-0.6108033;-0.6505598;-0.2894737;-25;2;9;2616;3503;689;32768;-0.5498615;0.5027701;0.3310249;0.5790485;3;31;9;647;4673;-60;256;-0.1080332;0.101108;-0.7505417;-0.6440443;5;-10;0;-219;4430;867;128;0.1177285;-0.05124654;0.6288089;0.7668854;-8;-5;-8;-501;4339;588;4;0.5512465;-0.5742797;0.4279778;0.4279778;-7;-23;7;-45;4034;122;16;0.6121883;-0.7659443;-0.1288089;-0.1481994;0;-9;0;-19;3952;836;2;0.4473684;-0.4016621;-0.533241;-0.5951329;1;-9;-5;17;4010;-297;8;0.6094183;-0.7910224;-0.05263158;-0.01108033;0;-3;0;-277;3853;955;0.2726797;2.817925;-0.3243276;0.2786467;3.361675;-0.3681686;0.2838899;3.839468;-0.408721;0.2738005;4.564152;-0.5235904;0.01072907;4.876674;-0.6123111;-0.3287526;4.743325;-0.527995;-0.5920679;4.059905;0.0393959;-0.4344623;3.163069;-0.2226003;0.5310227;4.883921;-0.6123125;0.8217052;4.759347;-0.527997;1.061305;3.988326;-0.002266347;0.7967555;3.094816;-0.1738569;-0.03958008;2.775378;-0.3283011;0.00474035;1.313235;-0.2961704;0;0;0;-0.03958008;2.775378;-0.3283011;0.00474035;1.313235;-0.2961704;0;0;0
677630.771;NotLabelled;16384;0.4972299;-0.6126489;0.6052631;0.1052632;-16;-13;3;-2714;3186;1103;65536;0.7199033;-0.5831025;0.1509695;0.3448753;21;-8;0;-2033;3672;1867;8192;0.3490305;-0.6080332;-0.6553018;-0.2811634;-27;-3;15;2360;3535;455;32768;-0.5484765;0.4986149;0.33241;0.5831469;0;4;5;2007;3799;792;256;-0.1024931;0.09833795;-0.7481058;-0.6481994;4;-17;0;75;3972;355;128;0.1163435;-0.04570637;0.634349;0.7628738;21;-9;-3;-577;3843;500;4;0.5526316;-0.5677286;0.4307479;0.432133;-7;-9;6;75;4202;-184;16;0.6121883;-0.7664425;-0.1274238;-0.1468144;1;-1;1;-191;3994;1018;2;0.4487534;-0.4016621;-0.5304709;-0.596564;2;-3;-6;-117;4074;-59;8;0.6080332;-0.7920876;-0.05263158;-0.01108033;0;-3;0;-207;4009;1171;0.2815129;2.818806;-0.3167248;0.2874829;3.362833;-0.3569681;0.2927289;3.840885;-0.3943592;0.2835774;4.566327;-0.5044148;0.02090746;4.879775;-0.5910345;-0.3187412;4.746312;-0.5075741;-0.5962196;4.06314;0.05332732;-0.4881771;3.167144;-0.2353175;0.5412099;4.886341;-0.5910362;0.8317364;4.76083;-0.5075763;1.084645;3.990766;0.01330054;0.8106166;3.103629;-0.1755985;-0.03074653;2.776286;-0.321002;0.007931054;1.313895;-0.2931636;0;0;0;-0.03074653;2.776286;-0.321002;0.007931054;1.313895;-0.2931636;0;0;0
677672.6459;NotLabelled;16384;0.4986149;-0.6101481;0.6066482;0.1052632;-13;-11;3;-2552;3158;959;65536;0.7178205;-0.5844875;0.1523546;0.3462604;8;-19;12;-617;3648;1233;8192;0.3504155;-0.6080332;-0.6563314;-0.2770083;-30;1;11;2346;3447;355;32768;-0.5498615;0.4972299;0.3310249;0.5838127;3;2;11;2063;3639;652;256;-0.101108;0.09556787;-0.7486531;-0.6481994;2;-13;0;185;3986;735;128;0.1163435;-0.04432133;0.6357341;0.7618018;18;-10;-1;-529;4185;642;4;0.5526316;-0.5666717;0.4307479;0.433518;-8;-8;6;-57;4008;-220;16;0.6121883;-0.7664425;-0.1274238;-0.1468144;1;0;0;-85;4000;986;2;0.4487534;-0.4016621;-0.5304709;-0.596564;2;3;-5;-209;4406;55;8;0.6080332;-0.7921784;-0.05124654;-0.01108033;1;-4;0;-351;4029;1199;0.2961263;2.819093;-0.3064265;0.3020897;3.362524;-0.3540554;0.3073297;3.840023;-0.3979362;0.2969682;4.566486;-0.5009241;0.03377041;4.880329;-0.5844564;-0.3056466;4.745502;-0.5022572;-0.5998201;4.062967;0.05086002;-0.5047275;3.168788;-0.2478017;0.5540614;4.887753;-0.584458;0.8448057;4.761915;-0.5022597;1.11025;3.998248;0.02178919;0.8380019;3.112647;-0.1766528;-0.0161338;2.776519;-0.3100794;0.01079775;1.313688;-0.2939967;0;0;0;-0.0161338;2.776519;-0.3100794;0.01079775;1.313688;-0.2939967;0;0;0
677714.6132;NotLabelled;16384;0.5;-0.6106275;0.6052631;0.1038781;0;14;-1;-2508;2840;937;65536;0.7070159;-0.5872576;0.1689751;0.3559557;-5;-89;23;-679;3698;597;8192;0.3545706;-0.6066482;-0.6576949;-0.2714681;-22;-7;0;2260;2941;-93;32768;-0.5526316;0.4903047;0.3296399;0.5878242;9;3;20;2117;3179;610;256;-0.101108;0.09418282;-0.7488286;-0.6481994;0;-11;-1;239;4154;973;128;0.1149584;-0.04293629;0.6385041;0.759772;16;-8;-1;-627;4249;822;4;0.5526316;-0.5645519;0.432133;0.434903;-5;-8;4;-191;4012;-154;16;0.6121883;-0.7664425;-0.1274238;-0.1468144;2;-1;2;-149;4094;968;2;0.4473684;-0.4016621;-0.5318559;-0.596371;0;7;-3;-143;4332;65;8;0.6080332;-0.7921966;-0.05124654;-0.009695291;4;-3;0;-353;4067;1229;0.297965;2.819142;-0.3030418;0.3039266;3.3624;-0.3526084;0.3091648;3.839739;-0.3981917;0.3004354;4.566113;-0.5019649;0.03794388;4.880454;-0.5858406;-0.301776;4.746477;-0.5035012;-0.6030439;4.064407;0.04636087;-0.5040534;3.169342;-0.2483506;0.5582504;4.88671;-0.5858421;0.8487103;4.760309;-0.5035031;1.118873;3.999703;0.02258205;0.8468993;3.115349;-0.1817111;-0.01429527;2.776556;-0.3065307;0.01249997;1.313688;-0.2939294;0;0;0;-0.01429527;2.776556;-0.3065307;0.01249997;1.313688;-0.2939294;0;0;0
677734.6008;NotLabelled;16384;0.5;-0.6119972;0.6038781;0.1038781;0;12;0;-2676;2838;881;65536;0.6978452;-0.5872576;0.1828255;0.367036;-18;-133;26;209;3614;835;8192;0.3573407;-0.6052631;-0.658042;-0.2700831;-23;1;-8;2092;3007;71;32768;-0.5554016;0.4861496;0.3282548;0.5894373;11;2;22;1631;2963;810;256;-0.09972299;0.09279778;-0.7491872;-0.6481994;3;-10;-3;173;4190;721;128;0.1149584;-0.04155125;0.6398892;0.758683;9;-9;-2;-683;4117;532;4;0.5526316;-0.563489;0.433518;0.434903;-5;-11;3;-309;4076;-82;16;0.6135734;-0.7653342;-0.1274238;-0.1468144;4;-2;2;-197;3972;956;2;0.4473684;-0.4016621;-0.5318559;-0.596371;0;-1;1;-363;4058;-51;8;0.6094183;-0.7911316;-0.05124654;-0.009695291;6;-3;0;-279;3945;1105;0.3020311;2.819244;-0.3007077;0.3079889;3.362165;-0.3538448;0.3132237;3.839195;-0.4025653;0.3059773;4.565528;-0.5067222;0.04412819;4.880361;-0.5907657;-0.2958649;4.747121;-0.5083575;-0.6003029;4.064867;0.03952421;-0.5026101;3.164047;-0.2375649;0.5644464;4.885555;-0.5907671;0.8546475;4.758605;-0.5083594;1.136884;4.000337;0.01475364;0.8653264;3.119651;-0.2053276;-0.01022944;2.776636;-0.3038942;0.01303978;1.313688;-0.2939064;0;0;0;-0.01022944;2.776636;-0.3038942;0.01303978;1.313688;-0.2939064;0;0;0
677755.7292;NotLabelled;16384;0.4972299;-0.6160696;0.602493;0.101108;12;16;-6;-3224;2868;731;65536;0.6752998;-0.5858725;0.2119114;0.3947368;-8;-131;19;-2117;4492;61;8192;0.3642659;-0.602493;-0.6573536;-0.2686981;-15;-8;-22;1854;3205;-193;32768;-0.5581717;0.4806094;0.3282548;0.5913608;14;0;12;841;3245;1328;256;-0.09556787;0.0900277;-0.7476634;-0.6509695;5;-2;-3;67;3860;567;128;0.1149584;-0.03878116;0.6412742;0.7576596;2;-2;1;-609;3987;664;4;0.5512465;-0.5616339;0.4362881;0.4362881;-4;-9;-1;89;4206;-124;16;0.6149584;-0.7646784;-0.1246537;-0.1468144;6;-3;5;-109;3906;882;2;0.4473684;-0.4030471;-0.5318559;-0.5954358;2;-7;2;-463;4144;-71;8;0.6108033;-0.7901671;-0.04986149;-0.008310249;8;-7;0;-275;4001;1055;0.307044;2.820327;-0.297232;0.3129997;3.363053;-0.3523152;0.3182326;3.839905;-0.4027456;0.3111409;4.566186;-0.5072825;0.04935908;4.88103;-0.5914919;-0.2906625;4.747906;-0.5090157;-0.5958062;4.06465;0.03722402;-0.4974637;3.160856;-0.2297644;0.5696782;4.886113;-0.5914932;0.859852;4.759145;-0.5090178;1.145225;4.000148;0.01132792;0.8752866;3.121799;-0.2198112;-0.005216666;2.777707;-0.3002532;0.01455344;1.314715;-0.2892046;0;0;0;-0.005216666;2.777707;-0.3002532;0.01455344;1.314715;-0.2892046;0;0;0
677796.7636;NotLabelled;16384;0.4958449;-0.6185339;0.601108;0.101108;14;7;-9;-3414;2958;819;65536;0.6658393;-0.5844875;0.2243767;0.4058172;-4;-123;15;-2071;4570;107;8192;0.367036;-0.601108;-0.6565126;-0.2700831;-13;-9;-25;2402;3317;53;32768;-0.5581717;0.4792244;0.3268698;0.5932491;9;-3;6;707;3735;1530;256;-0.09556787;0.0900277;-0.7476634;-0.6509695;0;-5;-2;-105;3926;575;128;0.1149584;-0.03878116;0.6412742;0.7576596;0;0;1;-543;4135;510;4;0.5512465;-0.5594745;0.4376731;0.4376731;-6;-8;0;77;4080;-132;16;0.6163435;-0.7635625;-0.1246537;-0.1468144;6;-1;5;-25;4052;844;2;0.4487534;-0.4030471;-0.5318559;-0.5943927;3;-7;1;-457;4170;-75;8;0.6121883;-0.7891808;-0.04847645;-0.008310249;7;-6;0;-347;3971;983;0.3174022;2.821028;-0.295649;0.3233557;3.363555;-0.3526622;0.3285865;3.840224;-0.4047885;0.3211743;4.567142;-0.5047872;0.05925119;4.882392;-0.5870128;-0.2807076;4.748608;-0.5053489;-0.5877864;4.068107;0.04324004;-0.4815566;3.159824;-0.2048227;0.5795681;4.887701;-0.5870142;0.8698018;4.760344;-0.505351;1.158782;3.997288;0.007006049;0.8944675;3.121051;-0.2382148;0.005141437;2.778398;-0.2985065;0.02234603;1.315388;-0.2856236;0;0;0;0.005141437;2.778398;-0.2985065;0.02234603;1.315388;-0.2856236;0;0;0
677817.6028;NotLabelled;16384;0.4889196;-0.6215659;0.6038781;0.09972299;14;-12;-17;-3108;2838;1123;65536;0.6504257;-0.5761772;0.2437673;0.4307479;-8;-93;-17;-3057;4034;419;8192;0.3711911;-0.601108;-0.6535988;-0.2714681;-13;-7;-20;2550;3253;517;32768;-0.5581717;0.4792244;0.3282548;0.5924838;4;9;6;585;3989;1340;256;-0.09418282;0.08864266;-0.7480045;-0.6509695;1;-8;-2;-123;4022;535;128;0.1135734;-0.03878116;0.6412742;0.7578684;3;-1;1;-361;4139;562;4;0.5512465;-0.5583882;0.4390582;0.4376731;-5;-9;0;45;4094;-66;16;0.6177285;-0.7621744;-0.1246537;-0.1481994;5;-1;4;-15;3970;746;2;0.4487534;-0.4044321;-0.5304709;-0.5946895;3;-6;2;-497;4150;-39;8;0.6135734;-0.7881178;-0.04847645;-0.006925208;7;-6;0;-277;4001;953;0.3212729;2.822086;-0.2882678;0.3272265;3.364614;-0.345281;0.3324573;3.841282;-0.3974073;0.3250451;4.5682;-0.497406;0.06312199;4.883451;-0.5796315;-0.2768368;4.749666;-0.4979676;-0.580085;4.068745;0.05222888;-0.4726404;3.158679;-0.1886699;0.5834389;4.888759;-0.579633;0.8736726;4.761403;-0.4979698;1.163225;3.99478;0.00870961;0.8962356;3.12039;-0.2401802;0.00901223;2.779457;-0.2911253;0.02266549;1.316388;-0.2809541;0;0;0;0.00901223;2.779457;-0.2911253;0.02266549;1.316388;-0.2809541;0;0;0
677838.6082;NotLabelled;16384;0.4861496;-0.619685;0.6080332;0.09972299;10;-12;-18;-2768;2926;1037;65536;0.6462596;-0.5734072;0.2465374;0.4390582;-15;-44;-24;-2863;3796;421;8192;0.3767313;-0.601108;-0.6515704;-0.2686981;-13;-17;-7;2726;3193;533;32768;-0.5526316;0.4778393;0.3310249;0.5972357;-3;26;8;1233;4069;1028;256;-0.09279778;0.08864266;-0.7481776;-0.6509695;2;-7;-3;-41;4030;489;128;0.1135734;-0.03878116;0.6426592;0.7566943;5;-5;1;-381;4041;464;4;0.5512465;-0.5583882;0.4390582;0.4376731;-4;-4;0;213;4122;-36;16;0.6177285;-0.7621744;-0.1246537;-0.1481994;4;-1;4;-25;4006;676;2;0.4487534;-0.4058172;-0.5304709;-0.5937452;1;-1;-2;-375;3992;-117;8;0.6149584;-0.7872034;-0.04570637;-0.006925208;4;-6;1;-285;3935;889;0.3291548;2.82311;-0.2840869;0.3351087;3.365672;-0.3407715;0.3403399;3.842372;-0.3926091;0.3330789;4.569241;-0.4929703;0.07122165;4.884505;-0.5753546;-0.2687654;4.750832;-0.493626;-0.566771;4.076138;0.06700704;-0.4552813;3.166959;-0.1754029;0.5915395;4.889706;-0.5753558;0.8817465;4.762331;-0.4936275;1.168941;3.990665;0.00669843;0.9054648;3.115194;-0.2421352;0.01689409;2.780482;-0.2869724;0.02700279;1.317392;-0.2758189;0;0;0;0.01689409;2.780482;-0.2869724;0.02700279;1.317392;-0.2758189;0;0;0
677858.6934;NotLabelled;16384;0.4833795;-0.6204909;0.6094183;0.09972299;8;-6;-13;-2496;2878;925;65536;0.6444939;-0.5706371;0.2451524;0.4459834;-16;-17;-27;-1995;3608;-31;8192;0.3781163;-0.601108;-0.6513378;-0.267313;-14;-10;-3;2900;3421;427;32768;-0.5498615;0.4764543;0.33241;0.6001227;-5;21;7;1421;4171;1046;256;-0.09279778;0.08864266;-0.7481776;-0.6509695;2;-7;-3;-85;3896;551;128;0.1121884;-0.03878116;0.6426592;0.7569008;6;-7;2;-427;4011;566;4;0.5526316;-0.5570176;0.4390582;0.4376731;-5;2;5;33;3970;178;16;0.6191136;-0.7612754;-0.1232687;-0.1481994;0;-2;2;-13;3962;658;2;0.4487534;-0.4058172;-0.5290859;-0.5949798;0;0;-3;-397;4040;-219;8;0.6149584;-0.7872034;-0.04570637;-0.006925208;3;-4;1;-287;3967;805;0.3297589;2.82312;-0.2842184;0.3357106;3.365472;-0.3428735;0.3409397;3.841981;-0.3964423;0.3323456;4.568836;-0.4968057;0.06991056;4.883618;-0.5791907;-0.2698306;4.749322;-0.4974614;-0.5686519;4.078743;0.06765608;-0.4524049;3.171363;-0.1792151;0.590218;4.889773;-0.5791921;0.880658;4.76293;-0.4974637;1.173996;3.989372;-0.003668249;0.9080991;3.114292;-0.2513009;0.01749814;2.780482;-0.2869366;0.02758325;1.317392;-0.2757617;0;0;0;0.01749814;2.780482;-0.2869366;0.02758325;1.317392;-0.2757617;0;0;0
677879.6052;NotLabelled;16384;0.4819945;-0.6202064;0.6108033;0.09972299;8;-8;-11;-2452;2844;659;65536;0.6423831;-0.5692521;0.2437673;0.4515235;-11;-39;-28;-757;3830;-383;8192;0.3795014;-0.601108;-0.6510992;-0.265928;-12;-5;-2;2722;3471;411;32768;-0.5484765;0.4764543;0.33241;0.6013888;-3;9;6;1415;4301;876;256;-0.0900277;0.08725762;-0.7486787;-0.6509695;0;-7;-4;-61;3990;613;128;0.1108033;-0.03739612;0.6454294;0.7548146;8;-6;2;-409;4065;530;4;0.5570176;-0.5526316;0.4390582;0.4376731;-4;0;6;-71;3994;150;16;0.6191136;-0.7610044;-0.1232687;-0.1495845;0;-1;2;27;3958;782;2;0.4487534;-0.4044321;-0.5290859;-0.5959221;0;0;-3;-489;3994;-205;8;0.6163435;-0.7861987;-0.04432133;-0.006925208;2;-3;2;-263;3983;821;0.3369248;2.823956;-0.2766796;0.3428768;3.366343;-0.33501;0.3481062;3.842885;-0.3882935;0.3395121;4.569738;-0.4886569;0.077077;4.884521;-0.5710419;-0.2626642;4.750225;-0.4893126;-0.5583114;4.081851;0.08007021;-0.4364713;3.177707;-0.1758156;0.5973846;4.890676;-0.5710434;0.8878248;4.763834;-0.4893149;1.184044;3.990524;0.003148973;0.9166625;3.116009;-0.2448831;0.02466395;2.78132;-0.2794253;0.0301925;1.318183;-0.2716786;0;0;0;0.02466395;2.78132;-0.2794253;0.0301925;1.318183;-0.2716786;0;0;0
677900.7271;NotLabelled;16384;0.4792244;-0.6207629;0.6121883;0.101108;12;-2;-12;-2692;2820;581;65536;0.6379181;-0.5623268;0.2506925;0.4626039;4;-149;-42;-369;4398;-395;8192;0.3795014;-0.602493;-0.6503829;-0.2645429;-10;-7;1;2638;3345;421;32768;-0.5470914;0.4750692;0.33241;0.6037415;-1;12;7;1359;4111;774;256;-0.08864266;0.08725762;-0.748844;-0.6509695;-1;-7;-4;-35;4036;483;128;0.1094183;-0.03739612;0.6468144;0.7538304;8;-6;3;-541;4197;528;4;0.5570176;-0.5526316;0.4390582;0.4376731;-2;-6;9;-343;4138;84;16;0.6191136;-0.7612274;-0.1218837;-0.1495845;0;0;1;37;3968;818;2;0.4501385;-0.4044321;-0.5290859;-0.5948766;1;-2;-2;-761;4024;-273;8;0.6163435;-0.7861987;-0.04432133;-0.006925208;1;-2;2;-227;4017;879;0.3559723;2.823981;-0.265434;0.36192;3.365968;-0.3273727;0.3671454;3.842145;-0.3838265;0.3573736;4.568933;-0.4845495;0.09442896;4.88325;-0.5670919;-0.2450948;4.748444;-0.4852984;-0.5431978;4.081659;0.08466819;-0.4136358;3.180097;-0.1764741;0.6147258;4.890248;-0.567093;0.9053707;4.763917;-0.4852998;1.201621;3.990858;0.007539272;0.9337917;3.116797;-0.2416047;0.04371137;2.781328;-0.2678731;0.03475501;1.318191;-0.2710934;0;0;0;0.04371137;2.781328;-0.2678731;0.03475501;1.318191;-0.2710934;0;0;0
677921.6383;NotLabelled;16384;0.4695291;-0.625191;0.6149584;0.1024931;31;-25;-14;-2968;2478;151;65536;0.6222122;-0.534626;0.267313;0.5055401;17;-79;-97;-7191;3148;327;8192;0.3808864;-0.602493;-0.6512495;-0.2603878;-11;-3;5;2622;3291;607;32768;-0.5457063;0.4709141;0.33518;0.6067114;4;14;9;1839;4263;214;256;-0.08725762;0.08725762;-0.7490066;-0.6509695;-2;-8;-5;17;4070;505;128;0.1080332;-0.03739612;0.6481994;0.7528399;6;-6;4;-437;4047;458;4;0.5572999;-0.5512465;0.4390582;0.4390582;-3;-13;7;-185;4044;90;16;0.6204986;-0.7600989;-0.1218837;-0.1495845;0;-2;1;35;4058;774;2;0.4501385;-0.4044321;-0.5277008;-0.5961056;2;-6;-3;-663;4034;-255;8;0.6163435;-0.7861987;-0.04432133;-0.006925208;1;-3;1;-229;3913;939;0.3588608;2.823802;-0.2660749;0.3648064;3.365597;-0.3296732;0.3700299;3.841599;-0.387585;0.3589263;4.568367;-0.4883111;0.09540625;4.882202;-0.5708548;-0.2438697;4.746773;-0.4890607;-0.5386827;4.080854;0.08362114;-0.4110442;3.181289;-0.1852473;0.6156895;4.890153;-0.570856;0.9065651;4.764355;-0.4890623;1.202416;3.992396;0.005736589;0.9331274;3.119539;-0.2460424;0.04659979;2.781141;-0.268373;0.0376501;1.318005;-0.2716112;0;0;0;0.04659979;2.781141;-0.268373;0.0376501;1.318005;-0.2716112;0;0;0
677941.853;NotLabelled;16384;0.4653739;-0.6246338;0.6177285;0.1080332;30;-33;-4;-2018;2948;945;65536;0.6259929;-0.5263157;0.2590028;0.5138504;4;8;-99;-3583;3172;1895;8192;0.3822715;-0.602493;-0.6509902;-0.2590028;-15;-1;7;2562;3243;757;32768;-0.5470914;0.4695291;0.333795;0.6073009;4;-14;6;1827;3951;346;256;-0.08587258;0.08587258;-0.7493267;-0.6509695;-3;-8;-5;-145;3920;601;128;0.1066482;-0.03739612;0.6481994;0.7530373;5;-6;3;-429;4041;566;4;0.5564818;-0.5498615;0.4404432;0.4404432;-2;-9;5;-15;4374;172;16;0.6204986;-0.7600989;-0.1218837;-0.1495845;0;-4;0;47;4026;882;2;0.4529086;-0.4058172;-0.5249307;-0.5955116;2;-9;-3;-521;4144;-329;8;0.6177285;-0.7851988;-0.04293629;-0.005540166;1;-7;1;-253;4029;961;0.3606941;2.82474;-0.2570444;0.3666374;3.366336;-0.3223078;0.3718589;3.842158;-0.3816825;0.3594326;4.568905;-0.4824119;0.09534526;4.882255;-0.5649793;-0.2436891;4.746207;-0.483214;-0.5263236;4.0837;0.09947921;-0.4013072;3.197215;-0.2108639;0.615613;4.89116;-0.5649358;0.9067116;4.765895;-0.4831167;1.207902;3.995567;0.01100147;0.9421726;3.123199;-0.2461929;0.04843302;2.782072;-0.2592008;0.03849224;1.318958;-0.2668224;0;0;0;0.04843302;2.782072;-0.2592008;0.03849224;1.318958;-0.2668224;0;0;0
677962.604;NotLabelled;16384;-0.4639889;0.6204986;-0.6221813;-0.1121884;18;-23;4;-1408;2956;1553;65536;0.6310609;-0.5180055;0.2465374;0.5221606;-8;33;-114;-3427;2784;1089;8192;0.3822715;-0.601108;-0.6533625;-0.2562327;-21;2;7;2384;3283;1019;32768;-0.5498615;0.4695291;0.33241;0.6055563;0;-22;4;1379;3699;276;256;-0.08310249;0.08587258;-0.749639;-0.6509695;-1;-11;-5;-271;3896;637;128;0.1066482;-0.03739612;0.6495845;0.7518429;6;-6;3;-515;4057;418;4;0.5583728;-0.5457063;0.4418283;0.4418283;-5;-15;7;-131;4008;172;16;0.6204986;-0.7605909;-0.1204986;-0.1481994;1;0;0;13;4054;874;2;0.4529086;-0.4072022;-0.5235457;-0.5957853;2;-11;-2;-395;4204;-269;8;0.6177285;-0.7852734;-0.04155125;-0.005540166;0;-6;0;-273;3951;1021;0.3626426;2.824728;-0.2561404;0.3685863;3.366362;-0.3210942;0.3738082;3.842216;-0.3801967;0.3615316;4.568918;-0.481277;0.09750563;4.882285;-0.5639756;-0.2415519;4.74635;-0.482118;-0.5155409;4.084067;0.1049423;-0.3873137;3.207492;-0.2311683;0.6177753;4.891078;-0.5639769;0.9088533;4.76579;-0.4821197;1.212133;3.997236;0.01348233;0.9468782;3.126287;-0.2489578;0.05038148;2.782062;-0.2583231;0.03952083;1.318958;-0.2666727;0;0;0;0.05038148;2.782062;-0.2583231;0.03952083;1.318958;-0.2666727;0;0;0
677982.6603;NotLabelled;16384;-0.4653739;0.6177285;-0.6231394;-0.1163435;12;-8;16;-1604;3066;1581;65536;0.6378639;-0.5124654;0.2313019;0.5263157;-20;48;-96;-1279;3102;737;8192;0.3850415;-0.5983379;-0.6553559;-0.2534626;-26;0;6;2188;3277;1113;32768;-0.5512465;0.4695291;0.3310249;0.6050556;-4;-9;2;635;3435;368;256;-0.08033241;0.08448754;-0.7512979;-0.6495845;0;-11;-6;-13;3924;585;128;0.1038781;-0.03462604;0.6509695;0.7511651;3;-10;2;-443;3937;570;4;0.5575287;-0.5443213;0.4432133;0.4432133;-5;-11;6;95;4156;168;16;0.6204986;-0.7605909;-0.1204986;-0.1481994;2;-3;1;11;4008;890;2;0.4542936;-0.4072022;-0.5221606;-0.5959463;1;-11;-2;-309;4128;-219;8;0.6177285;-0.785354;-0.0401662;-0.004155125;2;-6;0;-181;3977;1053;0.3730766;2.82438;-0.2494828;0.3790177;3.365773;-0.3164168;0.3842372;3.841407;-0.3772593;0.3693004;4.568058;-0.4783465;0.1041291;4.880456;-0.561048;-0.2344286;4.743282;-0.4791893;-0.5089825;4.080469;0.1070095;-0.3739235;3.217032;-0.2590949;0.624363;4.891154;-0.5610494;0.9158977;4.766933;-0.4791911;1.223295;4.001683;0.01898086;0.9605412;3.130962;-0.2467115;0.06081543;2.781706;-0.2514969;0.04006419;1.318773;-0.2675063;0;0;0;0.06081543;2.781706;-0.2514969;0.04006419;1.318773;-0.2675063;0;0;0
678003.6364;NotLabelled;16384;-0.466759;0.6177285;-0.6213112;-0.1204986;5;13;21;-1786;3264;1403;65536;0.6426458;-0.5096953;0.2174515;0.5290859;-27;49;-82;-907;3360;443;8192;0.3878116;-0.5969529;-0.6565784;-0.2493075;-29;-8;4;2038;3279;795;32768;-0.5498615;0.4709141;0.3310249;0.6052394;-4;2;0;1027;3397;466;256;-0.07894737;0.08310249;-0.7515991;-0.6495845;0;-7;-5;-7;3982;551;128;0.1024931;-0.03462604;0.6509695;0.7513554;4;-9;3;-535;4057;470;4;0.556673;-0.5429363;0.4445983;0.4445983;-3;-12;6;15;3986;44;16;0.6204986;-0.760809;-0.1191136;-0.1481994;3;-3;1;-33;3996;908;2;0.4556787;-0.4085872;-0.5221606;-0.5939375;0;-10;0;-367;4000;-173;8;0.6177285;-0.7854236;-0.03878116;-0.004155125;2;-7;0;-211;3977;1029;0.3755299;2.824364;-0.2485879;0.3814691;3.365589;-0.3168679;0.386687;3.841071;-0.3788928;0.3702824;4.567267;-0.4829751;0.1044843;4.878782;-0.5669858;-0.2338013;4.741258;-0.4845909;-0.5111798;4.074241;0.09547661;-0.366152;3.224076;-0.2969295;0.6246954;4.890536;-0.5669872;0.9164743;4.767247;-0.484593;1.229781;4.003323;0.01192743;0.9681215;3.133272;-0.2570229;0.06326864;2.781685;-0.2504875;0.04169074;1.318773;-0.2672578;0;0;0;0.06326864;2.781685;-0.2504875;0.04169074;1.318773;-0.2672578;0;0;0
678023.6139;NotLabelled;16384;0.4750692;-0.6199512;0.6121883;0.1232687;-4;17;25;-2652;3266;1223;65536;0.6425503;-0.5055401;0.199446;0.5401662;-33;-34;-63;-1099;3762;-51;8192;0.3905817;-0.5969529;-0.6565009;-0.2451524;-28;-11;2;2164;2963;485;32768;-0.5484765;0.4695291;0.3310249;0.6075677;-2;19;3;1607;3531;690;256;-0.07756232;0.08310249;-0.7517434;-0.6495845;0;-7;-5;-73;3914;515;128;0.101108;-0.033241;0.6523545;0.7504038;4;-5;3;-477;3951;466;4;0.5569142;-0.5415512;0.4445983;0.4459834;-3;-13;6;-69;3754;-42;16;0.6218836;-0.7596774;-0.1191136;-0.1481994;4;-2;1;-51;4008;896;2;0.4556787;-0.4099723;-0.5207756;-0.594199;2;-9;1;-365;3892;-233;8;0.6177285;-0.7854297;-0.03878116;-0.002770083;3;-7;0;-233;3983;1051;0.3797605;2.824154;-0.2482366;0.3857002;3.365417;-0.3162187;0.3909183;3.840933;-0.3779819;0.374683;4.567084;-0.4824043;0.1089578;4.878621;-0.5665636;-0.2293606;4.741213;-0.4841079;-0.5054208;4.068223;0.0896535;-0.3484334;3.229458;-0.3222049;0.6291717;4.890255;-0.5665653;0.9209213;4.766937;-0.4841103;1.241823;4.005487;0.01136053;0.9792315;3.13511;-0.2556199;0.06749925;2.781476;-0.2501615;0.04508164;1.318585;-0.2676357;0;0;0;0.06749925;2.781476;-0.2501615;0.04508164;1.318585;-0.2676357;0;0;0
678044.6479;NotLabelled;16384;0.4778393;-0.6202744;0.6094183;0.1246537;-3;10;25;-2866;3142;843;65536;0.6393719;-0.5027701;0.1939058;0.5484765;-30;-32;-55;-2003;3578;853;8192;0.3947368;-0.5969529;-0.656061;-0.2396122;-22;-2;-2;2576;2861;477;32768;-0.5470914;0.4653739;0.3282548;0.6134874;-11;4;23;2867;3099;1668;256;-0.07617728;0.08310249;-0.7518849;-0.6495845;-3;-6;-3;-55;3996;573;128;0.09972299;-0.033241;0.6523545;0.7505891;4;-4;3;-557;4051;580;4;0.5560403;-0.5401662;0.4459834;0.4473684;-2;-14;3;109;4184;42;16;0.6218836;-0.7596774;-0.1191136;-0.1481994;5;-2;1;-31;3946;820;2;0.4556787;-0.4113573;-0.5207756;-0.593241;3;-10;1;-423;3956;-193;8;0.6177285;-0.7854968;-0.03739612;-0.002770083;3;-8;0;-233;3993;959;0.3813652;2.82503;-0.2392189;0.3873025;3.36608;-0.3088784;0.3925185;3.841403;-0.3721152;0.3749588;4.567522;-0.4765418;0.108666;4.878573;-0.5607029;-0.2294012;4.740549;-0.4782465;-0.5080534;4.054985;0.07914393;-0.3275039;3.235239;-0.3604176;0.6288578;4.891156;-0.5607044;0.9208317;4.76837;-0.4782487;1.248743;4.009014;0.01584339;0.9848421;3.139852;-0.2537916;0.06910396;2.782346;-0.2410009;0.04581283;1.319527;-0.2628238;0;0;0;0.06910396;2.782346;-0.2410009;0.04581283;1.319527;-0.2628238;0;0;0
678064.6026;NotLabelled;16384;0.4806094;-0.6205697;0.6066482;0.1260388;-5;9;22;-2730;3216;777;65536;0.6389442;-0.501385;0.1869806;0.5526316;-34;21;-51;-2905;4162;1127;8192;0.3975069;-0.5955678;-0.6561517;-0.2382271;-21;0;-5;2310;2927;531;32768;-0.5470914;0.4639889;0.3227147;0.617463;-20;-17;33;2683;2971;1766;256;-0.07479224;0.08310249;-0.752024;-0.6495845;-3;-2;-3;-89;4010;531;128;0.09972299;-0.033241;0.6537396;0.749383;3;-2;2;-655;4127;522;4;0.5564955;-0.5373961;0.4473684;0.4487534;-2;-7;0;169;4066;48;16;0.6232687;-0.7587576;-0.1177285;-0.1481994;5;-1;2;-21;3958;788;2;0.4570637;-0.4127424;-0.5193906;-0.5924271;3;-6;0;-363;4392;-127;8;0.6191136;-0.7844741;-0.03601108;-0.001385042;3;-7;0;-281;4031;903;0.3827614;2.825006;-0.2384579;0.3886991;3.366092;-0.3078274;0.3939156;3.841449;-0.3708095;0.3750319;4.567534;-0.4752412;0.1081722;4.878098;-0.5594045;-0.2296428;4.739459;-0.4769471;-0.5098186;4.049497;0.0742172;-0.3177716;3.238768;-0.3770426;0.6283402;4.89163;-0.5594061;0.9205376;4.769378;-0.4769495;1.258136;4.012436;0.01431555;0.9883206;3.148321;-0.2654952;0.07050003;2.782323;-0.2402647;0.04636588;1.319527;-0.2627275;0;0;0;0.07050003;2.782323;-0.2402647;0.04636588;1.319527;-0.2627275;0;0;0
678084.6319;NotLabelled;16384;0.4833795;-0.6197702;0.6052631;0.1260388;-8;10;14;-2424;3150;925;65536;0.6394199;-0.5027701;0.1772853;0.5540166;-36;25;-47;-1261;4212;-87;8192;0.400277;-0.5941828;-0.6562248;-0.2368421;-21;-4;-10;1988;2953;533;32768;-0.5498615;0.4653739;0.3116343;0.6196479;-39;-43;35;2211;2633;2318;256;-0.07479224;0.08310249;-0.7532181;-0.6481994;-5;2;-4;53;3990;557;128;0.09972299;-0.033241;0.6537396;0.749383;-1;0;3;-555;4045;598;4;0.5553758;-0.5373961;0.4473684;0.4501385;-2;-8;1;169;4178;48;16;0.6246537;-0.7576178;-0.1177285;-0.1481994;5;-1;3;-13;4016;760;2;0.4570637;-0.4141274;-0.5180055;-0.5926732;1;-4;0;-425;4268;-95;8;0.6191136;-0.7845377;-0.03462604;0;3;-6;0;-321;4023;887;0.3911195;2.825584;-0.2302317;0.3970544;3.366412;-0.3015886;0.4022683;3.841534;-0.3663166;0.3820756;4.567583;-0.4707563;0.1146622;4.87766;-0.5549601;-0.2229112;4.738405;-0.4725499;-0.5058058;4.042081;0.06914471;-0.3036488;3.239163;-0.3915642;0.6348047;4.892139;-0.5548875;0.9272126;4.770421;-0.4723883;1.267622;4.011256;0.01347691;0.988951;3.152587;-0.2743033;0.07885803;2.782895;-0.2318689;0.04945515;1.320264;-0.2584268;0;0;0;0.07885803;2.782895;-0.2318689;0.04945515;1.320264;-0.2584268;0;0;0
678106.6048;NotLabelled;16384;0.4847645;-0.6213853;0.602493;0.1260388;-2;21;9;-2792;3056;871;65536;0.6376864;-0.5027701;0.1703601;0.5581717;-41;-20;-48;-1437;3738;867;8192;0.4030471;-0.5927978;-0.6567756;-0.234072;-24;-16;-15;1828;3099;513;32768;-0.5512465;0.4695291;0.2977839;0.6220888;-52;-56;36;1955;2995;1842;256;-0.07479224;0.08310249;-0.7532181;-0.6481994;-3;4;-3;-59;3936;505;128;0.09972299;-0.033241;0.6523545;0.7505891;-3;2;3;-509;4049;516;4;0.5555968;-0.536011;0.4487534;0.4501385;-2;-7;1;181;4082;68;16;0.6246537;-0.7576178;-0.1177285;-0.1481994;5;0;2;-1;4092;668;2;0.4570637;-0.4141274;-0.5180055;-0.5926732;-1;-2;0;-405;4206;-125;8;0.6204986;-0.7834427;-0.03462604;0;3;-4;0;-277;4001;915;0.3876981;2.826549;-0.2246989;0.3936329;3.367377;-0.2960558;0.3988468;3.842499;-0.3607838;0.3783556;4.568156;-0.4678607;0.1108131;4.877816;-0.5531799;-0.2267006;4.738725;-0.4702502;-0.5114068;4.042251;0.07030085;-0.2961907;3.246891;-0.3975479;0.6309497;4.892507;-0.5531814;0.9234104;4.771207;-0.4702522;1.269964;4.013417;0.01341003;0.9757989;3.162543;-0.2820028;0.07543667;2.78386;-0.2263363;0.04958569;1.321176;-0.2536951;0;0;0;0.07543667;2.78386;-0.2263363;0.04958569;1.321176;-0.2536951;0;0;0
678126.9778;NotLabelled;16384;0.4889196;-0.6210889;0.599723;0.1246537;-15;5;17;-2404;3044;1215;65536;0.6235072;-0.5083103;0.1551246;0.5734072;-73;9;-36;-2949;2930;1649;8192;0.4127424;-0.5941828;-0.6504536;-0.2313019;-16;-29;-18;2238;2949;241;32768;-0.5554016;0.4764543;0.2797784;0.6214857;-28;-8;16;-1311;4425;-1402;256;-0.07479224;0.08448754;-0.753064;-0.6481994;-3;4;-1;-221;4004;483;128;0.09972299;-0.03462604;0.6523545;0.7505264;-2;1;2;-463;4049;576;4;0.5558074;-0.534626;0.4487534;0.4515235;-2;-6;0;229;4022;98;16;0.6260388;-0.7564736;-0.1177285;-0.1481994;4;0;3;-65;4024;626;2;0.4584487;-0.4141274;-0.5180055;-0.5916025;-2;-3;0;-435;3950;-147;8;0.6204986;-0.7834427;-0.03462604;0;3;-3;0;-221;4027;933;0.3921148;2.826463;-0.2247912;0.3980526;3.367549;-0.2941608;0.403269;3.842906;-0.3571428;0.3827778;4.568562;-0.4642198;0.1152353;4.878222;-0.549539;-0.2222784;4.739131;-0.4666094;-0.5063311;4.040266;0.07119089;-0.279529;3.252487;-0.4039544;0.6353719;4.892913;-0.5495405;0.9278325;4.771614;-0.4666114;1.281477;4.01496;0.01368594;0.9652163;3.17341;-0.2855834;0.07985347;2.78378;-0.226598;0.04958566;1.321176;-0.2536952;0;0;0;0.07985347;2.78378;-0.226598;0.04958566;1.321176;-0.2536952;0;0;0
678147.6008;NotLabelled;16384;0.4930748;-0.620749;0.5969529;0.1232687;-15;25;32;-1800;2718;613;65536;0.6209777;-0.5138504;0.1412742;0.5747922;-74;53;-28;-1643;2514;531;8192;0.4155124;-0.5969529;-0.6466335;-0.2299169;-2;-32;-14;2598;2827;-33;32768;-0.5526316;0.4750692;0.2797784;0.6250054;-1;42;22;1025;4705;-908;256;-0.07617728;0.08587258;-0.7539589;-0.6468144;-4;3;0;-287;4108;493;128;0.09972299;-0.03462604;0.6523545;0.7505264;-2;2;0;-423;4079;444;4;0.5558074;-0.534626;0.4487534;0.4515235;0;-2;0;271;4132;176;16;0.6260388;-0.7566879;-0.1163435;-0.1481994;3;0;2;47;3946;678;2;0.4584487;-0.4141274;-0.5180055;-0.5916025;0;-4;1;-383;3808;-201;8;0.6204986;-0.7835027;-0.033241;0;3;-3;0;-205;4005;939;0.3927637;2.827256;-0.2159462;0.3987014;3.36834;-0.2853294;0.4039178;3.843695;-0.3483236;0.3819293;4.569358;-0.4550662;0.1137479;4.878505;-0.5402393;-0.2234772;4.738681;-0.4573692;-0.5116894;4.037483;0.07515768;-0.2434504;3.268306;-0.408798;0.633853;4.894268;-0.5402409;0.9265642;4.773534;-0.4573716;1.287916;4.011021;0.007680058;0.9458699;3.180031;-0.2927333;0.08050236;2.784573;-0.2177517;0.04928454;1.322073;-0.2490388;0;0;0;0.08050236;2.784573;-0.2177517;0.04928454;1.322073;-0.2490388;0;0;0
678168.6424;NotLabelled;16384;0.4986149;-0.6229408;0.5900277;0.1232687;-12;45;44;-1342;2744;365;65536;0.6200703;-0.5193906;0.1301939;0.5734072;-60;43;-18;-549;2172;-71;8192;0.4155124;-0.601108;-0.6432665;-0.2285319;7;-21;-3;3372;2743;381;32768;-0.5512465;0.4695291;0.2797784;0.6303918;5;10;36;3543;4015;1022;256;-0.07617728;0.08587258;-0.7539589;-0.6468144;-6;-3;1;-393;3950;543;128;0.101108;-0.03462604;0.6523545;0.7503411;-1;3;0;-393;4013;548;4;0.5558074;-0.534626;0.4487534;0.4515235;0;0;0;273;3996;194;16;0.6274238;-0.7555398;-0.1163435;-0.1481994;3;0;1;75;4044;672;2;0.4584487;-0.4155124;-0.5180055;-0.5906305;1;0;0;-251;4216;-241;8;0.6218836;-0.7824615;-0.03185596;0;3;-7;0;-191;3999;915;0.3942743;2.827065;-0.2168044;0.4002121;3.368149;-0.2861877;0.4054286;3.843504;-0.3491818;0.3829749;4.568812;-0.4582137;0.1145991;4.877513;-0.5443866;-0.2225423;4.737729;-0.4611084;-0.5139131;4.034231;0.06664377;-0.22311;3.275651;-0.4209922;0.6346939;4.893616;-0.5443882;0.927476;4.773335;-0.4611107;1.290686;4.00888;-0.000718236;0.9439814;3.179976;-0.301554;0.08201299;2.784382;-0.2186101;0.05067385;1.321882;-0.2497757;0;0;0;0.08201299;2.784382;-0.2186101;0.05067385;1.321882;-0.2497757;0;0;0
678188.6136;NotLabelled;16384;0.5055401;-0.6236041;0.5831025;0.1246537;-4;43;53;-1498;2772;255;65536;0.6166998;-0.5235457;0.1232687;0.5747922;-43;2;-10;-1527;2240;-1975;8192;0.4141274;-0.602493;-0.6433545;-0.2271468;0;13;-1;3272;2927;1083;32768;-0.5540166;0.4653739;0.2756233;0.6328701;-1;-19;48;2995;3711;1364;256;-0.07479224;0.08448754;-0.7554395;-0.6454294;-6;-5;0;-233;3706;569;128;0.101108;-0.03462604;0.6523545;0.7503411;-1;0;-3;-359;3917;536;4;0.5571364;-0.533241;0.4487534;0.4515235;-1;1;1;145;3902;170;16;0.6274238;-0.7555398;-0.1163435;-0.1481994;1;3;0;27;3956;686;2;0.4584487;-0.4155124;-0.5180055;-0.5906305;0;7;0;-249;4156;-231;8;0.6218836;-0.7824602;-0.03185596;0.001385042;3;-5;0;-313;3997;895;0.3944622;2.827948;-0.2120742;0.4003995;3.368995;-0.2817475;0.4056156;3.844317;-0.3449964;0.3831619;4.569623;-0.4540282;0.1147861;4.878325;-0.5402012;-0.2223553;4.738541;-0.4569229;-0.5152686;4.028229;0.06075254;-0.205833;3.276435;-0.4259222;0.634881;4.89443;-0.5402027;0.9276631;4.774148;-0.4569252;1.288319;4.00961;0.005333543;0.9403794;3.184884;-0.3053973;0.08220085;2.785264;-0.2138551;0.05086171;1.322764;-0.2450206;0;0;0;0.08220085;2.785264;-0.2138551;0.05086171;1.322764;-0.2450206;0;0;0
678210.6138;NotLabelled;16384;0.5096953;-0.6273658;0.5747922;0.1274238;9;39;61;-1754;2974;63;65536;0.6147745;-0.5249307;0.1204986;0.5761772;-25;-7;3;-1111;1884;-549;8192;0.4141274;-0.599723;-0.6454487;-0.2285319;-5;16;-2;2438;3121;971;32768;-0.5581717;0.4612188;0.2686981;0.6352345;-10;-19;58;2707;2963;2350;256;-0.07479224;0.08310249;-0.7555931;-0.6454294;0;-5;1;-99;3960;755;128;0.101108;-0.033241;0.6509695;0.7516056;-1;-5;-2;-611;4053;476;4;0.5571364;-0.533241;0.4487534;0.4515235;0;1;4;61;4026;166;16;0.6274238;-0.7553253;-0.1177285;-0.1481994;1;5;0;59;4050;654;2;0.4570637;-0.4155124;-0.5180055;-0.591703;-1;7;0;-437;4226;-321;8;0.6232687;-0.7813575;-0.03185596;0.001385042;3;-3;-1;-183;4007;853;0.3997631;2.827769;-0.2083183;0.4057004;3.368816;-0.2779915;0.4109164;3.844138;-0.3412403;0.3883604;4.568988;-0.4532472;0.1199462;4.87729;-0.5407187;-0.2171833;4.737795;-0.4569109;-0.5145311;4.018953;0.0462587;-0.1876247;3.272823;-0.437703;0.6400383;4.893478;-0.5407203;0.9328291;4.773587;-0.4569133;1.291755;4.011238;0.01028037;0.9423401;3.192077;-0.3132541;0.08750182;2.785085;-0.2100992;0.05184015;1.322764;-0.2448154;0;0;0;0.08750182;2.785085;-0.2100992;0.05184015;1.322764;-0.2448154;0;0;0
678231.5904;NotLabelled;16384;0.5221606;-0.6322135;0.5554016;0.1385041;5;33;74;-1754;3402;467;65536;0.6114029;-0.5318559;0.1204986;0.5734072;-10;20;23;-2495;2662;371;8192;0.4155124;-0.5983379;-0.6458439;-0.2285319;-3;5;-8;1878;3307;819;32768;-0.5623268;0.4584487;0.2590028;0.6375977;-18;-45;56;2167;2409;1778;256;-0.0734072;0.08310249;-0.755729;-0.6454294;2;-7;1;-129;4124;735;128;0.101108;-0.03185596;0.6509695;0.7516655;-1;-4;0;-469;4121;552;4;0.5582491;-0.533241;0.4473684;0.4515235;0;3;3;23;4116;172;16;0.6274238;-0.7550522;-0.1177285;-0.1495845;1;3;0;55;4070;720;2;0.4570637;-0.4141274;-0.5180055;-0.5926732;-3;5;-1;-579;4284;-315;8;0.6232687;-0.7814127;-0.03047091;0.001385042;3;-3;-1;-119;4069;829;0.3977494;2.827952;-0.2074647;0.4036894;3.369253;-0.2751387;0.4089081;3.844805;-0.3366311;0.3878359;4.569649;-0.4489684;0.1200479;4.878466;-0.5365459;-0.2173581;4.739706;-0.4526289;-0.5111061;4.013307;0.0417247;-0.1766621;3.270175;-0.4417;0.6401725;4.893577;-0.5366244;0.9327261;4.773119;-0.4528014;1.291072;4.012046;0.01691079;0.936833;3.200717;-0.3208001;0.0854881;2.785275;-0.2094159;0.04988482;1.322955;-0.2441927;0;0;0;0.0854881;2.785275;-0.2094159;0.04988482;1.322955;-0.2441927;0;0;0
678251.5871;NotLabelled;16384;0.5290859;-0.6336592;0.5457063;0.1440443;9;26;78;-2064;3498;589;65536;0.6125941;-0.534626;0.1218837;0.5692521;-5;7;28;-2381;3070;267;8192;0.4210526;-0.5969529;-0.6415389;-0.234072;10;-24;-44;954;3041;-43;32768;-0.567867;0.4542936;0.2451524;0.6411276;-14;-7;33;625;2611;678;256;-0.0734072;0.08171745;-0.75588;-0.6454294;0;-6;1;-95;4016;663;128;0.09972299;-0.03185596;0.6509695;0.7518505;-1;-3;2;-255;4171;426;4;0.5582491;-0.533241;0.4473684;0.4515235;0;2;2;45;4114;142;16;0.6288089;-0.7538992;-0.1177285;-0.1495845;1;2;0;75;3994;778;2;0.4570637;-0.4141274;-0.5193906;-0.5914598;-1;7;0;-505;3696;-241;8;0.6232687;-0.781409;-0.03047091;0.002770083;3;-2;-2;-223;3971;879;0.4011178;2.827836;-0.2030591;0.4070579;3.369139;-0.2707186;0.4122765;3.844692;-0.3321983;0.3899081;4.569496;-0.4445452;0.1215744;4.877827;-0.532165;-0.2155921;4.738457;-0.4482967;-0.4969088;3.984235;0.01033108;-0.1529395;3.237067;-0.4600096;0.6416705;4.89388;-0.5321668;0.9344295;4.773952;-0.4482995;1.294592;4.010471;0.01608664;0.9311793;3.208973;-0.3350827;0.08885661;2.785159;-0.2050115;0.05332088;1.322932;-0.2435873;0;0;0;0.08885661;2.785159;-0.2050115;0.05332088;1.322932;-0.2435873;0;0;0
678273.3582;NotLabelled;16384;0.534626;-0.6356693;0.536011;0.1509695;16;35;77;-2502;3466;481;65536;0.6108959;-0.5373961;0.1246537;0.567867;-3;-9;22;-7229;1434;2143;8192;0.4252077;-0.599723;-0.6346484;-0.2382271;18;-39;-53;1048;3115;127;32768;-0.567867;0.4529086;0.2409972;0.6436778;-14;-9;21;1119;2401;1174;256;-0.0734072;0.08171745;-0.75588;-0.6454294;1;-2;1;-233;4008;577;128;0.09972299;-0.033241;0.6509695;0.7517906;-3;-1;0;-321;4041;554;4;0.5593666;-0.533241;0.4473684;0.4501385;1;0;1;33;4036;86;16;0.6288089;-0.7536815;-0.1191136;-0.1495845;2;1;0;-17;4076;802;2;0.4556787;-0.4127424;-0.5193906;-0.5934932;0;-3;1;-703;4098;-191;8;0.6246537;-0.7803023;-0.03047091;0.002770083;3;-3;-1;-239;4031;825;0.401624;2.828699;-0.1981027;0.4075645;3.370038;-0.2654727;0.4127834;3.845623;-0.3266982;0.3919167;4.570422;-0.4393732;0.1242229;4.879267;-0.5271363;-0.2132324;4.740633;-0.4432099;-0.4899136;3.973769;-0.003101379;-0.1467433;3.221638;-0.46606;0.6443512;4.894245;-0.5271379;0.93686;4.77375;-0.4432122;1.290865;4.000041;0.008818984;0.9137104;3.213295;-0.3607385;0.08936284;2.786022;-0.2000796;0.05389749;1.323796;-0.2387203;0;0;0;0.08936284;2.786022;-0.2000796;0.05389749;1.323796;-0.2387203;0;0;0
678293.5998;NotLabelled;16384;0.5387812;-0.6389142;0.5263157;0.1565097;19;23;74;-2726;3736;465;65536;0.6106117;-0.5373961;0.1260388;0.567867;5;6;9;-3595;3816;595;8192;0.4307479;-0.602493;-0.6261277;-0.2437673;21;-37;-58;1636;3001;271;32768;-0.5692521;0.4542936;0.2382271;0.6425086;-13;-20;6;893;2603;1502;256;-0.0734072;0.08033241;-0.7560285;-0.6454294;0;-6;1;-205;3946;645;128;0.09833795;-0.03185596;0.6495845;0.7532296;-7;-4;-3;-481;4031;646;4;0.5582491;-0.533241;0.4473684;0.4515235;0;-1;-1;125;4144;60;16;0.6288089;-0.7536815;-0.1191136;-0.1495845;3;0;0;81;4012;828;2;0.4570637;-0.4141274;-0.5193906;-0.5914598;0;-3;1;-559;4082;-85;8;0.6246537;-0.7802961;-0.03047091;0.004155125;1;-3;-1;-291;4003;865;0.4027876;2.828818;-0.1983621;0.408728;3.370155;-0.2657467;0.413947;3.84574;-0.3269849;0.3930803;4.570537;-0.43966;0.1253865;4.879383;-0.5274235;-0.2120689;4.740749;-0.4434973;-0.4795338;3.96109;-0.02050501;-0.1360718;3.204813;-0.4764382;0.6455149;4.89436;-0.5274245;0.9380237;4.773865;-0.4434984;1.283365;3.991151;-0.0003579855;0.9000067;3.209779;-0.3748999;0.0905264;2.786142;-0.2003379;0.05152297;1.323985;-0.2381936;0;0;0;0.0905264;2.786142;-0.2003379;0.05152297;1.323985;-0.2381936;0;0;0
678314.596;NotLabelled;16384;0.5429363;-0.6389742;0.5193906;0.1648199;18;6;80;-2462;4162;721;65536;0.6131762;-0.5373961;0.1260388;0.5650969;10;32;5;-3439;3488;373;8192;0.434903;-0.6052631;-0.618354;-0.2493075;25;-29;-64;1622;3153;137;32768;-0.5706371;0.4556787;0.2354571;0.6413192;0;-21;-12;-263;3219;-230;256;-0.0734072;0.07894737;-0.7561743;-0.6454294;-3;-1;5;-243;3954;685;128;0.09833795;-0.02908587;0.6481994;0.7545337;-10;-13;-6;-487;4029;494;4;0.5582491;-0.533241;0.4473684;0.4515235;0;0;-3;167;4068;104;16;0.6288089;-0.7536815;-0.1191136;-0.1495845;3;0;0;-7;4010;762;2;0.4570637;-0.4141274;-0.5193906;-0.5914598;0;-2;2;-613;4122;-89;8;0.6246537;-0.7802961;-0.03047091;0.004155125;1;-2;-1;-295;4017;817;0.3996121;2.828879;-0.1972243;0.4055556;3.370495;-0.2623263;0.4107773;3.846334;-0.3215591;0.3914127;4.571123;-0.4345572;0.12436;4.880483;-0.5224612;-0.2133827;4.742586;-0.4384772;-0.4714226;3.952117;-0.02993783;-0.1284896;3.194639;-0.484273;0.6445183;4.894383;-0.5224631;0.936776;4.773321;-0.4384801;1.270383;3.979172;-0.006842554;0.8847109;3.199024;-0.3815603;0.08735104;2.786211;-0.1993944;0.0519563;1.323985;-0.2380994;0;0;0;0.08735104;2.786211;-0.1993944;0.0519563;1.323985;-0.2380994;0;0;0
678334.5951;NotLabelled;16384;0.5540166;-0.6337561;0.5069252;0.1855956;0;-26;80;-1916;3728;299;65536;0.6265075;-0.5387812;0.1218837;0.5498615;24;58;18;-1863;3502;95;8192;0.4404432;-0.6142343;-0.5983379;-0.265928;56;-38;-54;1972;3399;-471;32768;-0.5706371;0.4598338;0.2520775;0.6319677;36;22;-50;-361;4307;322;256;-0.0734072;0.07894737;-0.7561743;-0.6454294;1;-6;9;-371;3710;685;128;0.09695291;-0.02631579;0.6468144;0.7560018;-12;-14;-5;-437;3723;690;4;0.5593666;-0.533241;0.4473684;0.4501385;2;0;-3;211;4034;64;16;0.6301939;-0.7525238;-0.1191136;-0.1495845;3;1;2;-17;3968;642;2;0.4570637;-0.4141274;-0.5193906;-0.5914598;0;-2;2;-657;4088;-147;8;0.6246537;-0.7802961;-0.03047091;0.004155125;0;-1;-1;-259;4001;775;0.3999756;2.828871;-0.1968951;0.4059217;3.370725;-0.2599855;0.4111459;3.84678;-0.317451;0.3932844;4.571558;-0.4307673;0.1268743;4.881432;-0.5188104;-0.2111544;4.744272;-0.43477;-0.4602757;3.942835;-0.04238367;-0.1198705;3.183406;-0.4953615;0.6470602;4.894254;-0.5188119;0.9390657;4.772623;-0.4347722;1.260267;3.968412;-0.01245886;0.8722972;3.189476;-0.3873283;0.08771452;2.786212;-0.1992363;0.05239014;1.323985;-0.2380051;0;0;0;0.08771452;2.786212;-0.1992363;0.05239014;1.323985;-0.2380051;0;0;0
678354.6123;NotLabelled;16384;0.5623268;-0.6259147;0.5;0.2049861;3;-39;72;-1754;3824;607;65536;0.6378173;-0.5429363;0.1246537;0.5318559;17;51;43;-953;3442;1379;8192;0.4390582;-0.6243235;-0.5817174;-0.2811634;58;-14;-39;2970;3699;549;32768;-0.566482;0.4639889;0.2756233;0.6227714;39;14;-65;1019;4841;832;256;-0.07202215;0.0734072;-0.7568653;-0.6454294;3;-15;6;-89;3838;783;128;0.09141274;-0.02077562;0.6440443;0.7592227;-15;-26;-7;-297;3885;552;4;0.5580429;-0.534626;0.4473684;0.4501385;3;3;-2;325;4050;274;16;0.6315789;-0.7515801;-0.1177285;-0.1495845;2;-3;0;187;3988;550;2;0.4570637;-0.4141274;-0.5180055;-0.5926732;0;-4;2;-647;4052;-335;8;0.6246537;-0.7802961;-0.03047091;0.004155125;-1;1;-1;-203;4047;739;0.4036267;2.829637;-0.1926897;0.4095758;3.371753;-0.2534885;0.4148024;3.848047;-0.3089408;0.396941;4.572824;-0.4222567;0.1305308;4.882698;-0.5102996;-0.2074977;4.745538;-0.4262592;-0.439925;3.920624;-0.07437316;-0.1113759;3.153942;-0.5238726;0.6507168;4.895521;-0.5103011;0.942722;4.77389;-0.4262615;1.224861;3.946166;-0.02185303;0.8622869;3.147007;-0.3791643;0.09136584;2.786989;-0.1952257;0.05250045;1.324831;-0.2332233;0;0;0;0.09136584;2.786989;-0.1952257;0.05250045;1.324831;-0.2332233;0;0;0
678395.606;NotLabelled;16384;0.566482;-0.6206254;0.4972299;0.2160665;9;-42;65;-1452;3884;347;65536;0.6405349;-0.5484765;0.1274238;0.5221606;15;68;57;-1417;3680;1967;8192;0.4362881;-0.6275966;-0.5761772;-0.2894737;59;-7;-30;2910;3665;625;32768;-0.5650969;0.466759;0.2853186;0.6175717;28;19;-61;1639;4719;1022;256;-0.07063711;0.07063711;-0.7560767;-0.6468144;0;-19;5;-19;4090;611;128;0.08864266;-0.01800554;0.6412742;0.7619617;-15;-26;-7;-607;4161;536;4;0.5569228;-0.534626;0.4473684;0.4515235;3;-7;0;237;4040;260;16;0.6315789;-0.7518544;-0.1177285;-0.1481994;0;-2;-2;95;4018;606;2;0.4584487;-0.4155124;-0.5180055;-0.5906305;0;-7;4;-705;4004;-361;8;0.6246537;-0.7802408;-0.03185596;0.004155125;-4;5;-1;-241;3919;719;0.4035476;2.830451;-0.1906088;0.4095026;3.373115;-0.2463112;0.4147348;3.849908;-0.2972858;0.4015816;4.574594;-0.4118249;0.137191;4.886042;-0.5004014;-0.2017234;4.751221;-0.4161439;-0.4249507;3.909126;-0.1009062;-0.109933;3.127239;-0.5335879;0.6574491;4.895488;-0.500403;0.9486563;4.772106;-0.4161462;1.185931;3.929056;-0.01459485;0.8588538;3.105664;-0.3504999;0.09128692;2.787828;-0.1935776;0.05714457;1.325475;-0.2284258;0;0;0;0.09128692;2.787828;-0.1935776;0.05714457;1.325475;-0.2284258;0;0;0
678416.5992;NotLabelled;16384;0.567867;-0.6186207;0.4944598;0.2243767;13;-11;49;-1514;3444;125;65536;0.6457859;-0.5540166;0.1274238;0.5096953;12;58;57;-1745;4458;975;8192;0.432133;-0.6310305;-0.5720221;-0.2963989;50;-9;-17;2766;3633;789;32768;-0.5623268;0.4695291;0.2936288;0.6140953;10;16;-50;2469;4407;1112;256;-0.06925207;0.06509695;-0.7578835;-0.6454294;-10;-9;6;313;3984;591;128;0.08587258;-0.01246537;0.6385041;0.764711;-17;-14;-1;-657;4195;352;4;0.5569228;-0.534626;0.4473684;0.4515235;3;-7;0;143;3924;198;16;0.6315789;-0.7518544;-0.1177285;-0.1481994;-2;-2;-2;97;3990;522;2;0.4584487;-0.4168975;-0.5166205;-0.5908676;2;-11;4;-793;4008;-347;8;0.6246537;-0.780183;-0.033241;0.004155125;-6;3;-1;-155;4053;703;0.3982306;2.830513;-0.1895375;0.4041905;3.373619;-0.2407481;0.4094271;3.850818;-0.2877759;0.3982349;4.575859;-0.4002686;0.1346863;4.888271;-0.4879522;-0.204589;4.754132;-0.4040582;-0.423515;3.903608;-0.1090865;-0.1118262;3.111748;-0.5257472;0.6549683;4.896306;-0.4879536;0.9458433;4.771896;-0.4040602;1.160639;3.923258;-0.001627058;0.8492694;3.089488;-0.3266833;0.08597023;2.787917;-0.1928873;0.05558896;1.325502;-0.2286502;0;0;0;0.08597023;2.787917;-0.1928873;0.05558896;1.325502;-0.2286502;0;0;0
678437.6076;NotLabelled;16384;0.566482;-0.625999;0.4847645;0.2285319;35;25;3;-2800;3760;289;65536;0.6540785;-0.5567867;0.132964;0.4944598;37;34;25;-3193;5462;-1275;8192;0.4293629;-0.6334563;-0.5692521;-0.300554;41;-10;-10;2594;3589;655;32768;-0.5595568;0.4722992;0.2977839;0.6124985;3;3;-36;3287;4347;792;256;-0.07063711;0.06371191;-0.7590508;-0.6440443;-11;0;5;371;3978;697;128;0.08448754;-0.01108033;0.6371191;0.7660407;-13;-9;0;-619;4063;194;4;0.557126;-0.533241;0.4473684;0.4529086;4;-7;2;65;4042;74;16;0.6315789;-0.752126;-0.1177285;-0.1468144;-3;-3;-3;63;3888;604;2;0.4598338;-0.4182825;-0.5152354;-0.5900213;4;-15;2;-635;3962;-283;8;0.6232687;-0.7812961;-0.033241;0.002770083;-7;5;-1;-305;3883;719;0.4000368;2.830484;-0.1883405;0.4060011;3.373996;-0.2350456;0.4112418;3.851568;-0.2781145;0.404521;4.576077;-0.394329;0.1429059;4.889652;-0.4836363;-0.1971932;4.758038;-0.3990818;-0.4105157;3.901523;-0.1176461;-0.1014571;3.100436;-0.518319;0.6632274;4.894482;-0.4836379;0.9533266;4.768716;-0.3990837;1.146103;3.916985;0.00793919;0.8475294;3.074921;-0.3076081;0.08777674;2.787917;-0.1920717;0.0577324;1.325502;-0.2281183;0;0;0;0.08777674;2.787917;-0.1920717;0.0577324;1.325502;-0.2281183;0;0;0
678458.1188;NotLabelled;16384;0.5637119;-0.6279893;0.4847645;0.2299169;32;-16;-6;-3402;4742;1105;65536;0.6611641;-0.5554016;0.134349;0.4861496;45;67;20;-2195;4528;-583;8192;0.4238227;-0.6370077;-0.566482;-0.3060942;24;7;-3;2202;3967;169;32768;-0.5554016;0.4750692;0.3047091;0.6107296;7;15;-18;2847;4001;-462;256;-0.07202215;0.06232687;-0.7613774;-0.6412742;-23;9;6;-15;4054;661;128;0.08448754;-0.01108033;0.6357341;0.7671905;-7;-5;-2;-585;4197;392;4;0.5559972;-0.533241;0.4473684;0.4542936;5;-8;5;173;4314;-32;16;0.6315789;-0.752126;-0.1177285;-0.1468144;-4;-6;-4;163;4048;580;2;0.4598338;-0.4196676;-0.5138504;-0.5902455;5;-15;-1;-425;3942;-211;8;0.6232687;-0.7812359;-0.03462604;0.002770083;-9;6;-1;-319;3987;765;0.3978656;2.830364;-0.1844933;0.403832;3.374063;-0.2289737;0.4090747;3.851807;-0.2700878;0.4049153;4.575867;-0.3891823;0.1444087;4.890009;-0.4797277;-0.1961506;4.759938;-0.3946396;-0.3903341;3.898719;-0.113704;-0.1016688;3.083979;-0.5018628;0.6647441;4.892996;-0.4797646;0.9543996;4.766541;-0.3947202;1.135936;3.914914;0.01765582;0.8401151;3.068444;-0.2885562;0.08560576;2.787813;-0.1884127;0.05479234;1.325525;-0.2287097;0;0;0;0.08560576;2.787813;-0.1884127;0.05479234;1.325525;-0.2287097;0;0;0
678478.6196;NotLabelled;16384;0.5581717;-0.6292571;0.4875346;0.234072;22;-41;-12;-2640;4864;1233;65536;0.6671948;-0.5554016;0.134349;0.4778393;34;42;26;-1463;4192;487;8192;0.4210526;-0.6387355;-0.5650969;-0.3088643;21;1;-4;2260;3897;101;32768;-0.5554016;0.4750692;0.3074792;0.6093397;8;8;-10;2769;3775;-222;256;-0.0734072;0.06232687;-0.7624097;-0.6398892;-23;6;8;-19;4100;453;128;0.08448754;-0.009695291;0.6357341;0.7672093;-4;0;-3;-449;4285;864;4;0.5548626;-0.533241;0.4473684;0.4556787;4;-10;4;175;4208;126;16;0.6301939;-0.7537706;-0.1163435;-0.1454294;-5;-5;-5;33;4100;616;2;0.4612188;-0.4210526;-0.5124654;-0.589382;5;-15;-5;-253;4116;-141;8;0.6218836;-0.78228;-0.03601108;0.001385042;-10;6;0;-255;3971;799;0.3942466;2.830402;-0.1836571;0.4002147;3.374257;-0.2261737;0.405459;3.852148;-0.2655623;0.4036254;4.575294;-0.3901367;0.1441325;4.889574;-0.4830875;-0.1968484;4.76124;-0.397055;-0.3853632;3.898773;-0.116087;-0.1105325;3.079108;-0.5039212;0.6644748;4.890895;-0.483089;0.9537173;4.764162;-0.3970571;1.118764;3.910332;0.01768392;0.8285709;3.057651;-0.2764401;0.08198687;2.787865;-0.1877426;0.05473664;1.325526;-0.2287227;0;0;0;0.08198687;2.787865;-0.1877426;0.05473664;1.325526;-0.2287227;0;0;0
678498.6068;NotLabelled;16384;0.5540166;-0.6286594;0.4916897;0.2368421;9;-28;-21;-1244;4030;1371;65536;0.6717123;-0.5540166;0.1371191;0.4722992;26;13;23;-2131;4490;249;8192;0.4210526;-0.6380638;-0.5650969;-0.3102493;12;-3;-9;1842;3827;595;32768;-0.5567867;0.4750692;0.3088643;0.6073719;7;-11;-14;1711;3593;-160;256;-0.07617728;0.06232687;-0.7644551;-0.6371191;-16;13;9;-21;4058;563;128;0.08448754;-0.009695291;0.634349;0.7683549;-10;2;-4;-545;4289;1116;4;0.5540894;-0.5304709;0.4473684;0.4598338;3;-8;9;23;4128;-64;16;0.6288089;-0.7549772;-0.1177285;-0.1440443;-6;-1;-4;7;3924;700;2;0.4639889;-0.4224377;-0.5096953;-0.5886182;1;-5;-6;-405;4566;-141;8;0.6191136;-0.7844093;-0.03739612;0.001385042;-11;8;0;-257;3899;1031;0.3897737;2.829449;-0.1889381;0.3957419;3.373305;-0.2314342;0.4009861;3.851197;-0.2708048;0.4001975;4.573892;-0.3979831;0.1411592;4.888209;-0.4920677;-0.2000072;4.760679;-0.4055765;-0.3790261;3.898418;-0.1178465;-0.1151127;3.074521;-0.5042926;0.661503;4.88878;-0.4920691;0.9505616;4.76194;-0.4055786;1.108322;3.907938;0.01163578;0.8222092;3.05286;-0.2795153;0.07751395;2.786911;-0.1930252;0.05375593;1.324529;-0.2346464;0;0;0;0.07751395;2.786911;-0.1930252;0.05375593;1.324529;-0.2346464;0;0;0
678519.5963;NotLabelled;16384;0.5526316;-0.6255131;0.4972299;0.2368421;0;-16;-27;-1282;3992;989;65536;0.6752912;-0.5540166;0.1385041;0.466759;27;55;23;-2365;4400;-329;8192;0.4224377;-0.6370198;-0.5637119;-0.3130194;2;-4;-16;1202;3887;675;32768;-0.5581717;0.4764543;0.3102493;0.604302;4;-25;-19;1209;4019;422;256;-0.07756232;0.06232687;-0.7654682;-0.6357341;-7;8;8;103;4144;679;128;0.08587258;-0.009695291;0.632964;0.769343;-9;3;-3;-499;4119;966;4;0.552937;-0.5304709;0.4473684;0.4612188;1;-2;5;287;4294;-264;16;0.6288089;-0.7549772;-0.1177285;-0.1440443;-6;-3;-4;-5;4108;714;2;0.4653739;-0.4224377;-0.5083103;-0.5887225;0;-4;-8;-189;3904;-57;8;0.6177285;-0.7855017;-0.03739612;0;-10;6;0;-283;3979;1003;0.381639;2.828511;-0.184736;0.3876089;3.372517;-0.2252704;0.3928546;3.850548;-0.2629172;0.3941371;4.572309;-0.3952867;0.1360002;4.886683;-0.4916301;-0.2055294;4.760756;-0.4042276;-0.3797116;3.89963;-0.1102027;-0.1292625;3.071672;-0.4969296;0.6563433;4.885761;-0.4916314;0.945038;4.758718;-0.404229;1.102959;3.90375;0.01094219;0.8198843;3.046978;-0.2781894;0.06937954;2.785989;-0.1889888;0.04745047;1.323865;-0.2397026;0;0;0;0.06937954;2.785989;-0.1889888;0.04745047;1.323865;-0.2397026;0;0;0
678540.6142;NotLabelled;16384;0.5484765;-0.6267172;0.5041551;0.2285319;-13;2;-43;-2614;4016;549;65536;0.6941615;-0.5581717;0.1274238;0.4362881;18;112;31;-1645;4738;251;8192;0.4265928;-0.636696;-0.5609418;-0.3130194;-3;-29;-16;1722;3951;293;32768;-0.5595568;0.4806094;0.3102493;0.5997134;-2;-37;-20;1205;4485;850;256;-0.08033241;0.06371191;-0.7650684;-0.6357341;-9;8;6;79;4216;195;128;0.08864266;-0.009695291;0.6315789;0.7701666;4;9;-6;-623;4157;1058;4;0.5540547;-0.5304709;0.4459834;0.4612188;6;4;2;289;3804;-30;16;0.6274238;-0.7563912;-0.1177285;-0.1426593;-6;-1;-4;-119;4068;798;2;0.4653739;-0.4224377;-0.5083103;-0.5887225;1;1;-11;59;4218;-15;8;0.6163435;-0.7865219;-0.03878116;0;-9;3;0;-225;3933;1103;0.3776475;2.828521;-0.1840154;0.3836187;3.372653;-0.222827;0.3888657;3.850801;-0.25896;0.3911745;4.57208;-0.3939176;0.1334844;4.886474;-0.4913866;-0.2082232;4.761348;-0.4035307;-0.3868844;3.902621;-0.1052055;-0.1454724;3.07112;-0.4900725;0.6538259;4.884812;-0.4913876;0.9423405;4.757671;-0.4035318;1.0977;3.899665;0.006303847;0.8182079;3.040392;-0.2788625;0.06538802;2.786013;-0.1884137;0.04693635;1.323865;-0.2398043;0;0;0;0.06538802;2.786013;-0.1884137;0.04693635;1.323865;-0.2398043;0;0;0
678560.6092;NotLabelled;16384;0.5373961;-0.6279953;0.5180055;0.2202216;0;-37;-59;-2716;3388;-231;65536;0.7055098;-0.5581717;0.134349;0.4155124;41;-5;47;-63;3606;-517;8192;0.433518;-0.6407685;-0.5540166;-0.3074792;-4;8;9;3374;3949;-527;32768;-0.567867;0.4916897;0.300554;0.5877376;-6;-26;1;1025;4973;1300;256;-0.08310249;0.06232687;-0.7660357;-0.634349;-5;4;6;13;4132;433;128;0.09279778;-0.01108033;0.6315789;0.7696583;8;12;-5;-547;4147;1282;4;0.553795;-0.5318559;0.4432133;0.4626039;5;14;1;185;4218;206;16;0.6260388;-0.757538;-0.1177285;-0.1426593;-5;2;-3;-23;4000;786;2;0.4653739;-0.4196676;-0.5083103;-0.5907003;-4;3;-8;-107;4248;-223;8;0.6135734;-0.7886848;-0.03878116;0;-6;5;0;-309;4021;1125;0.3735047;2.827509;-0.1858405;0.379477;3.371744;-0.22318;0.3847251;3.849987;-0.2580193;0.3880793;4.57131;-0.3927217;0.1308446;4.886112;-0.490075;-0.211043;4.761452;-0.4022575;-0.3948053;3.911903;-0.0815897;-0.1736293;3.072281;-0.4609467;0.6511831;4.883694;-0.4900854;0.939514;4.756104;-0.4022796;1.100851;3.896015;0.0008238554;0.8213981;3.033782;-0.2753076;0.06124543;2.785013;-0.190363;0.04250919;1.322999;-0.2453445;0;0;0;0.06124543;2.785013;-0.190363;0.04250919;1.322999;-0.2453445;0;0;0
678580.707;NotLabelled;16384;0.5304709;-0.6267753;0.5277008;0.2174515;3;-41;-57;-2272;3556;151;65536;0.7071244;-0.5567867;0.1440443;0.4113573;37;-26;52;-1375;3608;179;8192;0.4307479;-0.6402354;-0.5567867;-0.3074792;3;17;18;3084;3855;-839;32768;-0.5706371;0.4930748;0.2977839;0.5852993;-3;-19;-1;205;4395;1212;256;-0.08448754;0.06232687;-0.7658842;-0.634349;-3;3;5;-73;4212;455;128;0.09418282;-0.01108033;0.6315789;0.7694901;11;8;-3;-335;4187;1094;4;0.5547243;-0.533241;0.4418283;0.4612188;8;7;1;107;4032;146;16;0.6246537;-0.7584643;-0.1191136;-0.1426593;-4;4;-2;-123;4068;818;2;0.466759;-0.4196676;-0.5096953;-0.5884096;-1;4;-5;-217;4178;-185;8;0.6135734;-0.7886155;-0.0401662;0;-6;3;0;-91;3825;1065;0.3648587;2.826527;-0.1861477;0.3708304;3.370708;-0.2242686;0.376078;3.848901;-0.2597947;0.3832453;4.569659;-0.3973401;0.1276775;4.885431;-0.4959335;-0.2148627;4.762929;-0.4076247;-0.4060496;3.926228;-0.05875786;-0.2183625;3.074163;-0.4282942;0.6479957;4.88026;-0.4959353;0.9356497;4.751493;-0.4076276;1.100541;3.888515;-0.01220798;0.8154649;3.02463;-0.2771993;0.05259945;2.784024;-0.1906041;0.0417887;1.322111;-0.2502055;0;0;0;0.05259945;2.784024;-0.1906041;0.0417887;1.322111;-0.2502055;0;0;0
678623.425;NotLabelled;16384;0.5249307;-0.6260496;0.534626;0.2160665;5;-28;-54;-1668;3780;739;65536;0.7069888;-0.5567867;0.1523546;0.4085872;18;-15;45;-1883;4144;275;8192;0.4279778;-0.6384636;-0.5609418;-0.3074792;9;33;20;2646;3663;-691;32768;-0.5706371;0.4958449;0.299169;0.5822449;0;-18;-9;91;4013;824;256;-0.08448754;0.06232687;-0.7670292;-0.632964;-3;0;3;-75;3984;745;128;0.09418282;-0.01246537;0.632964;0.7683299;10;1;-2;-381;4107;1066;4;0.5533895;-0.534626;0.4418283;0.4612188;1;2;2;-265;4206;-162;16;0.6232687;-0.7591228;-0.1204986;-0.1440443;-3;4;-3;5;4044;880;2;0.4639889;-0.4168975;-0.5110803;-0.5913609;-2;17;-3;-391;4354;-91;8;0.6121883;-0.7897604;-0.03878116;0;-5;0;0;-379;3971;1039;0.3610838;2.825823;-0.191081;0.3670552;3.369985;-0.2294624;0.3723026;3.848161;-0.2652174;0.3807503;4.568906;-0.402766;0.1257438;4.885131;-0.5013608;-0.2170136;4.763238;-0.4130518;-0.4105744;3.934545;-0.0468093;-0.2416874;3.076129;-0.4106709;0.646052;4.879035;-0.5013622;0.9334768;4.749758;-0.4130537;1.099827;3.889003;-0.01342437;0.8134004;3.025499;-0.2782044;0.04882444;2.783318;-0.1955155;0.03877813;1.321376;-0.254537;0;0;0;0.04882444;2.783318;-0.1955155;0.03877813;1.321376;-0.254537;0;0;0
678643.6144;NotLabelled;16384;0.5138504;-0.6253167;0.5498615;0.2063712;-5;-25;-66;-2214;3762;929;65536;0.7037333;-0.5581717;0.1620499;0.4085872;9;-19;17;-2545;4100;-487;8192;0.4210526;-0.6387355;-0.5650969;-0.3088643;18;38;23;2092;3437;-497;32768;-0.5706371;0.4986149;0.300554;0.5791578;3;-11;-16;855;3975;956;256;-0.08448754;0.06232687;-0.7658842;-0.634349;8;-2;1;137;3954;571;128;0.09418282;-0.01108033;0.632964;0.7683511;0;-4;-3;-409;3951;866;4;0.5533895;-0.534626;0.4418283;0.4612188;3;-5;2;-357;4050;-34;16;0.6232687;-0.7591633;-0.1218837;-0.1426593;-4;5;-3;-57;3962;886;2;0.4626039;-0.4155124;-0.5110803;-0.5934172;-1;14;1;-545;4172;-149;8;0.6108033;-0.7907629;-0.0401662;0;-6;2;0;-305;3851;963;0.3570911;2.825257;-0.1984883;0.3630609;3.369276;-0.2388528;0.3683068;3.847318;-0.2763503;0.3764772;4.567569;-0.4164741;0.1213475;4.883344;-0.5161877;-0.2213602;4.761638;-0.4274292;-0.4155668;3.938668;-0.04883462;-0.259425;3.074717;-0.405212;0.6416581;4.877445;-0.5161893;0.9291351;4.748593;-0.4274314;1.097897;3.890242;-0.02366149;0.814142;3.023939;-0.2820964;0.04483157;2.782736;-0.2027554;0.03920263;1.320634;-0.258294;0;0;0;0.04483157;2.782736;-0.2027554;0.03920263;1.320634;-0.258294;0;0;0
678664.5972;NotLabelled;16384;0.5083103;-0.6246246;0.5567867;0.2036011;-7;-42;-53;-1990;4610;685;65536;0.702395;-0.5567867;0.1689751;0.4099723;11;-56;23;-2055;2836;309;8192;0.4099723;-0.6403447;-0.5706371;-0.3102493;16;21;28;1804;3735;-27;32768;-0.566482;0.501385;0.3088643;0.5764669;3;13;-27;1551;3863;602;256;-0.08448754;0.06094183;-0.7648465;-0.6357341;7;-1;0;251;3994;723;128;0.09418282;-0.009695291;0.632964;0.7683699;4;-6;-4;-647;4053;740;4;0.5522323;-0.534626;0.4418283;0.4626039;-1;-10;0;9;4064;-182;16;0.6218836;-0.7600371;-0.1218837;-0.1440443;-4;5;-3;-11;3980;792;2;0.4626039;-0.4155124;-0.5124654;-0.5922215;-3;5;1;-799;3938;-203;8;0.6108033;-0.7907629;-0.0401662;0;-4;3;0;-219;4059;973;0.3518461;2.825408;-0.1984594;0.357816;3.369428;-0.2388003;0.3630619;3.847472;-0.2762771;0.3715097;4.568216;-0.4138254;0.1165031;4.884442;-0.5124201;-0.2262543;4.762548;-0.4241111;-0.4291598;3.956907;-0.0141091;-0.2818734;3.087038;-0.3596955;0.6368115;4.878346;-0.5124215;0.9242363;4.749069;-0.424113;1.08913;3.895067;-0.009665906;0.808125;3.025999;-0.2617444;0.03958651;2.782887;-0.2027285;0.03395861;1.320785;-0.2582672;0;0;0;0.03958651;2.782887;-0.2027285;0.03395861;1.320785;-0.2582672;0;0;0
678684.8404;NotLabelled;16384;0.5027701;-0.6216384;0.5650969;0.2036011;0;-58;-40;-1230;3960;131;65536;0.698175;-0.5554016;0.1772853;0.4155124;12;-73;26;-1791;3088;-427;8192;0.4058172;-0.641186;-0.5734072;-0.3088643;14;18;31;2070;3631;117;32768;-0.5650969;0.5027701;0.3116343;0.5751276;0;15;-24;1801;3939;508;256;-0.08448754;0.06094183;-0.7648465;-0.6357341;7;-1;2;107;4054;783;128;0.09418282;-0.008310249;0.632964;0.7683861;7;0;-4;-769;4095;564;4;0.5512988;-0.533241;0.4432133;0.4639889;0;-13;3;109;3890;-94;16;0.6218836;-0.7598137;-0.1232687;-0.1440443;-4;0;-3;3;3968;692;2;0.4626039;-0.4141274;-0.5124654;-0.5931908;0;1;0;-791;3938;-331;8;0.6094183;-0.7918308;-0.0401662;0;-3;1;0;-177;4129;1127;0.3514331;2.824474;-0.2018749;0.357403;3.368496;-0.2421921;0.3626489;3.846542;-0.2796482;0.3728919;4.567702;-0.4148694;0.1186756;4.884876;-0.5124526;-0.2243873;4.76355;-0.4245502;-0.4296761;3.96519;-0.001694813;-0.2897113;3.092774;-0.3438889;0.6389672;4.87749;-0.5124543;0.926066;4.747215;-0.4245529;1.083367;3.900798;0.008008718;0.811825;3.025137;-0.231303;0.03917354;2.781953;-0.2061461;0.03722954;1.319871;-0.2624521;0;0;0;0.03917354;2.781953;-0.2061461;0.03722954;1.319871;-0.2624521;0;0;0
678726.6008;NotLabelled;16384;0.4958449;-0.6183028;0.5747922;0.2036011;3;-1;-32;-1268;3256;847;65536;0.6900705;-0.5526316;0.1939058;0.4252077;-3;-52;19;-1733;3694;-931;8192;0.3961219;-0.6410918;-0.5817174;-0.3060942;7;15;40;1920;3703;201;32768;-0.5595568;0.5027701;0.3157895;0.5782694;-6;29;0;2479;3937;542;256;-0.08448754;0.05955679;-0.7638023;-0.6371191;5;2;4;-87;3978;759;128;0.09695291;-0.008310249;0.634349;0.7668979;4;9;-4;-459;4041;580;4;0.5489554;-0.533241;0.4432133;0.466759;0;0;-1;203;4042;-200;16;0.6204986;-0.761206;-0.1232687;-0.1426593;0;-1;0;-115;4090;982;2;0.4626039;-0.4168975;-0.5110803;-0.592445;3;-7;4;-29;3934;-177;8;0.6094183;-0.7918308;-0.0401662;0;1;-1;-2;-351;3795;1199;0.3499579;2.824613;-0.2008038;0.3559278;3.368638;-0.2410969;0.3611737;3.846685;-0.2785317;0.3714167;4.567846;-0.413753;0.1172005;4.88502;-0.5113362;-0.2258625;4.763693;-0.423434;-0.432086;3.971389;0.01021919;-0.2963793;3.096941;-0.3284858;0.6374921;4.877634;-0.5113378;0.924591;4.747358;-0.4234361;1.082403;3.905295;0.01735964;0.8139558;3.027233;-0.2165835;0.03769836;2.782093;-0.2050769;0.03487573;1.320034;-0.2619548;0;0;0;0.03769836;2.782093;-0.2050769;0.03487573;1.320034;-0.2619548;0;0;0
678746.5928;NotLabelled;16384;0.4930748;-0.6192902;0.5775623;0.199446;2;-2;-38;-1916;3176;1213;65536;0.6891428;-0.5512465;0.1980609;0.4265928;6;-19;15;-3891;4242;-443;8192;0.3905817;-0.6420232;-0.5858725;-0.3033241;4;11;41;2132;3615;303;32768;-0.5567867;0.5027701;0.3157895;0.580937;-13;28;4;2003;3567;548;256;-0.08448754;0.05955679;-0.7626449;-0.6385041;3;1;3;21;3876;709;128;0.09833795;-0.008310249;0.6357341;0.7655735;2;3;-3;-529;4075;458;4;0.5501301;-0.533241;0.4432133;0.4653739;0;0;-4;177;3478;-186;16;0.6204986;-0.7616873;-0.1218837;-0.1412742;0;-2;0;7;3992;968;2;0.4612188;-0.4168975;-0.5110803;-0.5935239;4;5;3;19;3922;-9;8;0.6094183;-0.7918308;-0.0401662;0;2;-1;-1;-407;3987;1151;0.3397664;2.822615;-0.2174512;0.3457343;3.366448;-0.2602403;0.3509783;3.844319;-0.2998685;0.3627687;4.565269;-0.4360836;0.1091656;4.882942;-0.5336392;-0.2340388;4.762588;-0.4449565;-0.441604;3.978783;0.003257617;-0.3154986;3.09833;-0.3233886;0.6294364;4.874262;-0.5345654;0.9163687;4.743393;-0.4470035;1.075805;3.91177;0.01262608;0.8065476;3.031538;-0.2120493;0.02750661;2.780076;-0.2215135;0.03188406;1.317828;-0.2732047;0;0;0;0.02750661;2.780076;-0.2215135;0.03188406;1.317828;-0.2732047;0;0;0
678767.5874;NotLabelled;16384;0.4861496;-0.6178372;0.5872576;0.1925208;-11;-11;-46;-1944;3856;1015;65536;0.6866999;-0.5512465;0.2063712;0.4265928;4;-40;20;-497;3530;-961;8192;0.3850415;-0.6390283;-0.5941828;-0.300554;-2;32;24;1574;3817;-235;32768;-0.5526316;0.4986149;0.3185596;0.5869424;0;28;-2;1443;3613;402;256;-0.08587258;0.05955679;-0.7636479;-0.6371191;-4;4;0;163;4094;729;128;0.09833795;-0.009695291;0.6371191;0.7644049;2;6;1;-567;4221;644;4;0.5501301;-0.533241;0.4432133;0.4653739;2;4;-5;137;4316;-16;16;0.6204986;-0.7616873;-0.1218837;-0.1412742;2;-2;0;-117;3960;928;2;0.4598338;-0.4182825;-0.5124654;-0.5924288;2;11;2;-81;4108;-65;8;0.6094183;-0.7918308;-0.0401662;0;2;0;-1;-397;3935;1143;0.343215;2.823472;-0.2065515;0.3491809;3.367125;-0.2515799;0.3544231;3.844828;-0.2931756;0.3667363;4.566864;-0.4234669;0.113436;4.885419;-0.5189059;-0.2299815;4.764473;-0.4318676;-0.4394474;3.985224;0.02335082;-0.3173341;3.105193;-0.3059345;0.6337045;4.87655;-0.5189077;0.9204208;4.744861;-0.4318702;1.082416;3.919844;0.03864163;0.8094794;3.041696;-0.1897165;0.03095512;2.780916;-0.2104245;0.03183584;1.318885;-0.268061;0;0;0;0.03095512;2.780916;-0.2104245;0.03183584;1.318885;-0.268061;0;0;0
678808.058;NotLabelled;16384;0.4833795;-0.615998;0.5927978;0.1883656;-10;-19;-44;-1938;3674;607;65536;0.6830924;-0.5498615;0.2160665;0.4293629;5;-72;25;-449;3854;-699;8192;0.3822715;-0.638109;-0.5969529;-0.300554;3;15;19;1808;3515;-423;32768;-0.5512465;0.4972299;0.3213296;0.587909;5;31;-5;1293;3823;264;256;-0.08587258;0.06094183;-0.7635387;-0.6371191;-5;7;0;-57;4126;867;128;0.09972299;-0.009695291;0.6371191;0.7642255;2;8;2;-635;4113;762;4;0.5499557;-0.534626;0.4432133;0.4639889;0;10;-6;229;4200;-60;16;0.6204986;-0.761206;-0.1232687;-0.1426593;2;2;1;-115;4066;806;2;0.4584487;-0.4168975;-0.5138504;-0.5932782;0;15;2;-273;4100;-55;8;0.6094183;-0.7917593;-0.04155125;0;3;-1;0;-281;3919;1087;0.342758;2.823485;-0.2067868;0.3487221;3.36697;-0.2538072;0.3539626;3.844517;-0.2971534;0.3672863;4.566061;-0.4300413;0.1144295;4.88463;-0.5266099;-0.2291525;4.764482;-0.4391161;-0.4435477;3.99844;0.03579596;-0.3305129;3.114242;-0.2854735;0.6346848;4.875026;-0.5266115;0.9212208;4.743246;-0.4391186;1.09156;3.925593;0.04119831;0.8165126;3.049079;-0.1908811;0.03049796;2.780916;-0.2104913;0.03125355;1.318885;-0.2681295;0;0;0;0.03049796;2.780916;-0.2104913;0.03125355;1.318885;-0.2681295;0;0;0
678828.5878;NotLabelled;16384;0.4792244;-0.6164882;0.5969529;0.1842105;-8;-6;-44;-2052;3468;735;65536;0.6784089;-0.5512465;0.2243767;0.4307479;2;-42;32;-669;4056;11;8192;0.3795014;-0.6391153;-0.5983379;-0.299169;5;4;19;2052;3455;-19;32768;-0.5484765;0.4958449;0.3254848;0.589382;6;26;-8;1265;3807;844;256;-0.08725762;0.06094183;-0.7645354;-0.6357341;-7;8;0;73;4056;733;128;0.101108;-0.01108033;0.6371191;0.7640246;3;13;2;-655;4135;564;4;0.5486059;-0.536011;0.4432133;0.4639889;0;10;-7;375;4002;-160;16;0.6204986;-0.761206;-0.1232687;-0.1426593;2;1;1;-115;4064;732;2;0.4570637;-0.4155124;-0.5152354;-0.5941167;0;11;2;-391;4012;69;8;0.6094183;-0.7918308;-0.0401662;0;3;-1;0;-269;4003;1005;0.3420887;2.823831;-0.2101441;0.3480525;3.367291;-0.2574423;0.3532927;3.844817;-0.3010325;0.3651001;4.566432;-0.4336706;0.1115748;4.884502;-0.5301307;-0.2317544;4.763603;-0.4426807;-0.4508388;4.004962;0.04187696;-0.3465232;3.117355;-0.2728723;0.6318493;4.875992;-0.5301322;0.9186611;4.744784;-0.4426829;1.090107;3.929612;0.04144019;0.8174309;3.052184;-0.1899826;0.02982863;2.781259;-0.2138251;0.03133225;1.319067;-0.2672205;0;0;0;0.02982863;2.781259;-0.2138251;0.03133225;1.319067;-0.2672205;0;0;0
678848.5948;NotLabelled;16384;0.4764543;-0.6175764;0.599723;0.1786704;-12;14;-48;-2284;3388;1183;65536;0.6754205;-0.5526316;0.2299169;0.4307479;2;-6;33;-1617;4366;391;8192;0.3767313;-0.640102;-0.599723;-0.2977839;7;3;21;2352;3359;209;32768;-0.5457063;0.4958449;0.3296399;0.589644;7;33;-9;763;4177;642;256;-0.08864266;0.06232687;-0.7654144;-0.634349;-7;10;2;167;4030;583;128;0.1024931;-0.01246537;0.6385041;0.7626613;5;16;4;-717;4065;590;4;0.5502574;-0.5401662;0.4404432;0.4598338;2;23;-7;333;4060;-150;16;0.6218836;-0.7595877;-0.1246537;-0.1440443;1;5;2;-183;4030;688;2;0.4556787;-0.4155124;-0.5166205;-0.5939778;0;10;0;-365;4132;31;8;0.6108033;-0.7907629;-0.0401662;0;2;0;0;-389;3973;949;0.3371582;2.823945;-0.2137101;0.3431217;3.367378;-0.2613142;0.3483616;3.844879;-0.3051731;0.3611718;4.565997;-0.4404021;0.108086;4.884073;-0.5379876;-0.2354063;4.763969;-0.4500825;-0.4538053;4.012505;0.04583168;-0.354155;3.120646;-0.2582334;0.6283479;4.874834;-0.5379912;0.9149815;4.743539;-0.4500895;1.088707;3.931565;0.0385758;0.8187802;3.05265;-0.1904109;0.02489815;2.781371;-0.2173651;0.03075022;1.319067;-0.267288;0;0;0;0.02489815;2.781371;-0.2173651;0.03075022;1.319067;-0.267288;0;0;0
678869.634;NotLabelled;16384;0.4695291;-0.6183835;0.6108033;0.1551246;-24;6;-56;-2960;3356;685;65536;0.6718894;-0.5567867;0.2451524;0.4224377;14;-28;43;-2009;4262;-553;8192;0.365651;-0.6431785;-0.6066482;-0.2908587;3;16;30;2788;3407;-75;32768;-0.5318559;0.4903047;0.3490305;0.5957418;11;51;-15;889;4157;834;256;-0.09141274;0.06371191;-0.7672631;-0.6315789;-6;10;1;-3;3844;935;128;0.1052632;-0.01800554;0.6398892;0.7610107;1;11;4;-369;4001;646;4;0.5529231;-0.5443213;0.4362881;0.4556787;2;18;-4;9;4082;-30;16;0.6218836;-0.7593237;-0.1246537;-0.1454294;-1;3;3;23;3944;684;2;0.4529086;-0.4113573;-0.5193906;-0.5965672;-2;22;-2;-551;4044;-221;8;0.6108033;-0.7907629;-0.0401662;0;1;0;2;-203;3919;1025;0.3343384;2.825249;-0.2137939;0.3402997;3.368478;-0.2636783;0.3455376;3.84579;-0.3095408;0.357827;4.566478;-0.4470996;0.1045098;4.884057;-0.5456986;-0.2388923;4.763994;-0.4573875;-0.4597927;4.020223;0.04890998;-0.3642764;3.125191;-0.2470511;0.6247782;4.875187;-0.5457006;0.9115097;4.744381;-0.4573904;1.086272;3.93619;0.03714031;0.8188386;3.055074;-0.186244;0.02207822;2.782661;-0.2172559;0.03036529;1.320193;-0.2617162;0;0;0;0.02207822;2.782661;-0.2172559;0.03036529;1.320193;-0.2617162;0;0;0
678911.605;NotLabelled;16384;0.466759;-0.6183912;0.6149584;0.1468144;-27;-3;-53;-2776;3284;735;65536;0.6712952;-0.5581717;0.2506925;0.4182825;16;2;54;-1727;3728;309;8192;0.3628809;-0.6414373;-0.6108033;-0.2894737;0;14;32;2704;3431;29;32768;-0.5277008;0.4875346;0.3545706;0.5984325;11;44;-16;987;4323;790;256;-0.09279778;0.06509695;-0.7681189;-0.6301939;-5;12;0;27;3830;995;128;0.1066482;-0.02077562;0.6398892;0.7607473;0;10;5;-423;3997;662;4;0.5526976;-0.5457063;0.4362881;0.4542936;0;14;-4;67;4156;-74;16;0.6218836;-0.7593237;-0.1246537;-0.1454294;-1;2;1;83;3968;678;2;0.4515235;-0.4085872;-0.5207756;-0.5983107;0;20;-2;-623;3994;-193;8;0.6108033;-0.7907629;-0.0401662;0;1;0;2;-249;4041;1005;0.3331442;2.82533;-0.2156642;0.3391027;3.368309;-0.2681978;0.3443381;3.845392;-0.3163881;0.3570809;4.56512;-0.4588395;0.1039589;4.882187;-0.5595639;-0.2395109;4.76295;-0.4703999;-0.479346;4.049381;0.06962449;-0.4033524;3.144182;-0.1998886;0.6242213;4.872979;-0.5595653;0.9108782;4.742588;-0.470402;1.092813;3.950045;0.04636633;0.8383658;3.061828;-0.1636705;0.02088372;2.782725;-0.2189018;0.03165996;1.320216;-0.2614472;0;0;0;0.02088372;2.782725;-0.2189018;0.03165996;1.320216;-0.2614472;0;0;0
678931.6019;NotLabelled;16384;-0.4653739;0.6135734;-0.6220903;-0.1412742;-31;-14;-43;-2110;3268;1085;65536;0.6713895;-0.5623268;0.2548476;0.4099723;4;47;60;-1385;3338;711;8192;0.3587258;-0.6423742;-0.6135734;-0.2867036;1;10;33;2726;3311;19;32768;-0.5249307;0.4861496;0.3601108;0.5986874;12;39;-17;843;4243;568;256;-0.09418282;0.06648199;-0.7678316;-0.6301939;-2;12;0;-21;3852;995;128;0.1066482;-0.02216066;0.6398892;0.7607082;-2;10;5;-475;4049;692;4;0.5535559;-0.5470914;0.434903;0.4529086;0;9;-4;111;4128;-28;16;0.6218836;-0.7593237;-0.1246537;-0.1454294;-3;0;1;35;3978;740;2;0.4501385;-0.4072022;-0.5207756;-0.6002953;1;14;-1;-677;4048;-219;8;0.6121883;-0.78969;-0.0401662;-0.001385042;1;-1;2;-181;4071;971;0.3313619;2.825444;-0.2200966;0.3373201;3.368389;-0.2729748;0.3425551;3.845442;-0.3214678;0.3547544;4.564719;-0.4662207;0.1013909;4.881274;-0.5679441;-0.2419852;4.762069;-0.47838;-0.4872873;4.05994;0.07404377;-0.4203334;3.151145;-0.1855837;0.6216601;4.872454;-0.5679455;0.9084189;4.742562;-0.478382;1.095891;3.953955;0.0424127;0.8444664;3.064307;-0.1651926;0.01910146;2.782837;-0.2233049;0.03062693;1.320216;-0.2615704;0;0;0;0.01910146;2.782837;-0.2233049;0.03062693;1.320216;-0.2615704;0;0;0
678952.6043;NotLabelled;16384;-0.4639889;0.6108033;-0.6273627;-0.134349;-31;-3;-35;-1770;2874;945;65536;0.6717009;-0.5692521;0.2562327;0.398892;-8;51;71;-199;3194;1371;8192;0.3545706;-0.6438686;-0.6163435;-0.2825485;1;12;34;2946;3157;45;32768;-0.5207756;0.4847645;0.365651;0.6000796;10;42;-12;1013;4001;834;256;-0.09418282;0.06786703;-0.7677104;-0.6301939;1;11;0;-47;3840;959;128;0.1066482;-0.0235457;0.6385041;0.7618295;-6;10;5;-579;3955;626;4;0.5546862;-0.5470914;0.434903;0.4515235;-1;5;0;51;4058;-86;16;0.6204986;-0.7601898;-0.1246537;-0.1468144;-4;-1;1;-69;4028;718;2;0.4501385;-0.4058172;-0.5207756;-0.6012325;0;5;0;-683;4090;-211;8;0.6121883;-0.78969;-0.0401662;-0.001385042;1;0;1;-303;3957;977;0.32953;2.825454;-0.2208708;0.3354881;3.368398;-0.2737702;0.3407232;3.845448;-0.322282;0.3526761;4.564784;-0.4667667;0.09920443;4.88129;-0.568374;-0.2441314;4.761932;-0.4788565;-0.4979009;4.069983;0.08251479;-0.4396461;3.156523;-0.1624185;0.6194767;4.872648;-0.5683751;0.9062794;4.742822;-0.478858;1.097739;3.96044;0.04981667;0.8514863;3.068273;-0.1531239;0.01726946;2.782848;-0.2240775;0.02960139;1.320215;-0.261689;0;0;0;0.01726946;2.782848;-0.2240775;0.02960139;1.320215;-0.261689;0;0;0
678972.886;NotLabelled;16384;-0.4639889;0.6149584;-0.6279037;-0.1108033;-20;48;-32;-2414;2406;635;65536;0.6666109;-0.5969529;0.2520775;0.368421;-33;71;57;-1441;3174;1027;8192;0.3393352;-0.641669;-0.6301939;-0.2756233;2;33;30;2698;3025;-165;32768;-0.5096953;0.4764543;0.3822715;0.6058635;18;50;-2;1263;3795;802;256;-0.09695291;0.07202215;-0.7669867;-0.6301939;5;9;-2;41;3782;961;128;0.1094183;-0.02908587;0.6371191;0.7624047;-10;6;6;-495;4001;438;4;0.5566472;-0.5484765;0.433518;0.4487534;-1;10;-1;67;4154;110;16;0.6191136;-0.7615436;-0.1232687;-0.1468144;-4;0;1;-9;4018;802;2;0.4501385;-0.4058172;-0.5193906;-0.6024294;1;0;0;-455;4030;-367;8;0.6121883;-0.7897592;-0.03878116;-0.001385042;-1;-1;2;-223;3953;961;0.3354207;2.82457;-0.2258616;0.3413809;3.3677;-0.2768126;0.3466178;3.844921;-0.3236124;0.3570549;4.564337;-0.4678188;0.1029175;4.880345;-0.5693084;-0.240167;4.760229;-0.4798436;-0.5017568;4.080953;0.09329067;-0.448463;3.162648;-0.1340333;0.6232067;4.872802;-0.5693033;0.9102814;4.743546;-0.4798309;1.107266;3.970635;0.06061339;0.8646709;3.076413;-0.1376345;0.02316039;2.781975;-0.2292333;0.03186885;1.319296;-0.2660255;0;0;0;0.02316039;2.781975;-0.2292333;0.03186885;1.319296;-0.2660255;0;0;0
679013.695;NotLabelled;16384;-0.4639889;0.6191136;-0.6249976;-0.1038781;-19;46;-25;-2438;2396;599;65536;0.6667476;-0.6038781;0.2451524;0.3614958;-35;59;33;-3005;3148;261;8192;0.33518;-0.6403508;-0.634349;-0.2742382;2;38;31;2610;3063;-227;32768;-0.5069252;0.4709141;0.3878116;0.6089901;20;48;0;1279;3945;740;256;-0.09833795;0.0734072;-0.766679;-0.6301939;2;7;-2;-61;3868;973;128;0.1080332;-0.03047091;0.6357341;0.7637032;-13;4;7;-681;3973;354;4;0.5566472;-0.5484765;0.433518;0.4487534;-2;8;0;-163;4178;-28;16;0.6191136;-0.7615436;-0.1232687;-0.1468144;-4;0;1;63;3990;906;2;0.4487534;-0.4058172;-0.5207756;-0.602267;0;1;0;-443;4044;-203;8;0.6121883;-0.7897592;-0.03878116;-0.001385042;-1;0;1;-239;3959;935;0.3378705;2.823488;-0.2328248;0.3438319;3.366735;-0.2825097;0.34907;3.844065;-0.328197;0.3575039;4.563678;-0.4715451;0.1024877;4.879099;-0.5726588;-0.2402612;4.757919;-0.4833387;-0.5203167;4.100285;0.1060788;-0.4611533;3.170178;-0.06480119;0.6227961;4.873004;-0.5726604;0.9102291;4.744441;-0.483341;1.118721;3.990787;0.07951778;0.8884797;3.091681;-0.1112317;0.02561023;2.7809;-0.2363038;0.03141236;1.318171;-0.2716002;0;0;0;0.02561023;2.7809;-0.2363038;0.03141236;1.318171;-0.2716002;0;0;0
679034.6974;NotLabelled;16384;0.4626039;-0.6243865;0.6218836;0.09695291;-9;34;-25;-2762;2478;299;65536;0.6662021;-0.6094183;0.2409972;0.3559557;-31;41;9;-3267;3624;161;8192;0.3296399;-0.6371191;-0.6410678;-0.2728532;4;35;35;2438;2943;-163;32768;-0.5041551;0.466759;0.3919668;0.6118217;18;44;2;1333;3797;1188;256;-0.09833795;0.07479224;-0.7665451;-0.6301939;-1;7;-3;-171;3942;859;128;0.1080332;-0.03185596;0.634349;0.7647976;-18;-1;4;-297;4151;310;4;0.5577609;-0.5484765;0.433518;0.4473684;-2;6;0;-109;4008;50;16;0.6191136;-0.7612754;-0.1232687;-0.1481994;-4;0;0;37;3972;860;2;0.4487534;-0.4058172;-0.5207756;-0.602267;-1;2;0;-465;4042;-257;8;0.6121883;-0.7897592;-0.03878116;-0.001385042;-1;1;2;-235;3861;959;0.3369432;2.823473;-0.2327331;0.3429069;3.366921;-0.2801661;0.348147;3.844436;-0.3238749;0.3563415;4.564111;-0.4669269;0.1012205;4.879488;-0.5679122;-0.2414884;4.758159;-0.4786438;-0.5230151;4.105574;0.1156658;-0.4568509;3.174615;-0.04784945;0.621531;4.873567;-0.5679135;0.9090068;4.745064;-0.4786456;1.121405;3.996874;0.09001374;0.8966415;3.096932;-0.1033124;0.02468305;2.780901;-0.2364027;0.03034639;1.31817;-0.2717217;0;0;0;0.02468305;2.780901;-0.2364027;0.03034639;1.31817;-0.2717217;0;0;0
679055.8188;NotLabelled;16384;0.4612188;-0.6276165;0.6204986;0.09141274;-6;21;-26;-2810;2778;391;65536;0.664615;-0.6135734;0.2368421;0.3545706;-23;23;-11;-2991;3762;81;8192;0.3240997;-0.6371191;-0.6444716;-0.2714681;4;22;40;2298;3169;25;32768;-0.501385;0.4626039;0.3947368;0.6154621;13;42;2;1267;3837;1386;256;-0.09833795;0.07617728;-0.7675455;-0.6288089;-11;9;-4;-151;4068;743;128;0.1066482;-0.03185596;0.632964;0.7661384;-16;-3;4;-391;4175;560;4;0.558869;-0.5484765;0.433518;0.4459834;-3;3;1;-119;4128;96;16;0.6177285;-0.7623997;-0.1232687;-0.1481994;-4;0;0;-45;3910;836;2;0.4487534;-0.4058172;-0.5207756;-0.602267;0;3;0;-513;4014;-257;8;0.6121883;-0.7897555;-0.03878116;-0.002770083;-2;0;1;-191;3909;993;0.3429689;2.823502;-0.2331061;0.3489344;3.367117;-0.2785996;0.3541762;3.844784;-0.3206041;0.360857;4.564535;-0.4633518;0.1050734;4.879418;-0.5642048;-0.2373797;4.75733;-0.4749891;-0.5192858;4.1104;0.1252943;-0.4484197;3.178449;-0.03040807;0.6253951;4.874592;-0.5642064;0.9131401;4.746655;-0.4749914;1.129485;4.005487;0.1013241;0.9081699;3.10509;-0.09384504;0.03070898;2.780943;-0.2369397;0.03278481;1.318183;-0.2713778;0;0;0;0.03070898;2.780943;-0.2369397;0.03278481;1.318183;-0.2713778;0;0;0
679076.729;NotLabelled;16384;0.4556787;-0.6337833;0.6191136;0.08587258;6;11;-10;-2258;2962;1029;65536;0.6731117;-0.6135734;0.2160665;0.3518005;-5;75;-22;-1865;3460;-291;8192;0.3102493;-0.6357341;-0.6559996;-0.2631579;4;19;44;2422;3669;375;32768;-0.4930748;0.4612188;0.398892;0.6205156;-7;-2;-20;899;3645;1602;256;-0.09833795;0.07894737;-0.7706522;-0.6246537;-19;8;-6;-101;4404;591;128;0.1052632;-0.033241;0.632964;0.7662711;2;0;7;-551;4379;962;4;0.5580429;-0.5470914;0.434903;0.4473684;-3;-7;5;-323;4128;52;16;0.6163435;-0.7637421;-0.1218837;-0.1481994;-4;-4;0;-61;3958;860;2;0.4501385;-0.4058172;-0.5180055;-0.6036208;2;-9;0;-665;4094;-319;8;0.6108033;-0.7908272;-0.03878116;-0.002770083;-3;1;1;-265;3945;1007;0.3458009;2.822538;-0.2385591;0.3517684;3.366337;-0.2817889;0.3570121;3.844175;-0.3218042;0.3618532;4.563492;-0.4668015;0.1052642;4.877404;-0.5686263;-0.2368733;4.754724;-0.4790137;-0.5185037;4.115787;0.1298977;-0.4395416;3.183861;-0.02200982;0.6255965;4.873904;-0.568637;0.9136701;4.746982;-0.479036;1.131273;4.01499;0.1084265;0.9109524;3.115055;-0.08997768;0.03354115;2.779996;-0.2425842;0.03203855;1.317214;-0.2761303;0;0;0;0.03354115;2.779996;-0.2425842;0.03203855;1.317214;-0.2761303;0;0;0
679117.5928;NotLabelled;16384;0.4570637;-0.6341373;0.6177285;0.08587258;0;19;-3;-2220;3018;1221;65536;0.6769085;-0.6163435;0.2049861;0.3462604;-9;78;-19;-1365;3388;-141;8192;0.3060942;-0.6357341;-0.6590499;-0.2603878;3;9;42;2334;3499;485;32768;-0.4889196;0.4639889;0.4016621;0.6199512;-10;16;-30;-9;3693;1006;256;-0.09695291;0.08033241;-0.7740338;-0.6204986;-19;2;-5;-159;4064;643;128;0.1024931;-0.03462604;0.632964;0.7665852;4;-4;8;-509;4007;1000;4;0.5583178;-0.5457063;0.4362881;0.4473684;-5;-13;7;-193;3996;4;16;0.6163435;-0.7640095;-0.1218837;-0.1468144;-3;-6;-1;43;3934;938;2;0.4515235;-0.4072022;-0.5166205;-0.6028401;5;-11;0;-633;4124;-273;8;0.6108033;-0.7908272;-0.03878116;-0.002770083;-3;-1;1;-251;3905;1085;0.3479917;2.821351;-0.2432416;0.3539595;3.365171;-0.286191;0.3592034;3.84303;-0.32596;0.3600459;4.560913;-0.4779671;0.101716;4.872387;-0.5828367;-0.2397347;4.748686;-0.4920152;-0.5155284;4.115058;0.1250607;-0.4227185;3.188345;-0.0492579;0.6220597;4.871779;-0.5828384;0.910834;4.74734;-0.4920174;1.136327;4.035197;0.1164886;0.9112913;3.135177;-0.07614988;0.03573197;2.77881;-0.2472905;0.03310231;1.316046;-0.2815214;0;0;0;0.03573197;2.77881;-0.2472905;0.03310231;1.316046;-0.2815214;0;0;0
679138.6248;NotLabelled;16384;0.4584487;-0.634671;0.6163435;0.08448754;-3;19;1;-2494;2968;1123;65536;0.6804474;-0.6191136;0.1939058;0.3407202;-17;100;-20;-1527;3600;213;8192;0.3033241;-0.6371191;-0.6600809;-0.2576177;3;3;40;2248;3321;335;32768;-0.4819945;0.466759;0.4044321;0.6214918;-11;34;-31;1095;3571;912;256;-0.09695291;0.08171745;-0.7749972;-0.6191136;-15;1;-5;-127;3946;751;128;0.101108;-0.03462604;0.634349;0.7656236;10;-1;7;-481;3929;1046;4;0.5574737;-0.5443213;0.4376731;0.4487534;-5;-14;6;-35;4050;-36;16;0.6163435;-0.7642292;-0.1204986;-0.1468144;-3;-7;0;21;3972;928;2;0.4529086;-0.4085872;-0.5152354;-0.6020488;4;-14;-3;-279;4208;-173;8;0.6094183;-0.7919616;-0.03739612;-0.002770083;-3;-3;0;-197;3975;1087;0.3496773;2.821326;-0.2437941;0.3556454;3.365193;-0.286172;0.3608898;3.843093;-0.3254386;0.3579954;4.559392;-0.4847161;0.09804931;4.868436;-0.5927352;-0.2427554;4.743882;-0.5006598;-0.519747;4.108549;0.1141212;-0.4196797;3.183407;-0.06447265;0.6183891;4.870541;-0.5927369;0.9078045;4.748537;-0.5006626;1.134899;4.043452;0.115421;0.9089793;3.14167;-0.06770882;0.03741758;2.77879;-0.2478911;0.03029238;1.316036;-0.2818874;0;0;0;0.03741758;2.77879;-0.2478911;0.03029238;1.316036;-0.2818874;0;0;0
679158.5942;NotLabelled;16384;0.4598338;-0.6363509;0.6135734;0.08448754;-7;15;7;-2600;3064;1031;65536;0.6855914;-0.6232687;0.1786704;0.3310249;-21;120;-18;-1151;3868;-79;8192;0.299169;-0.6385041;-0.6617122;-0.2548476;9;1;36;2428;3039;61;32768;-0.4778393;0.468144;0.4085872;0.6209406;-5;22;-32;1773;3585;58;256;-0.09695291;0.08171745;-0.7761017;-0.6177285;-11;1;-5;-35;3980;659;128;0.09972299;-0.03601108;0.634349;0.7657414;10;-2;6;-549;3971;884;4;0.5577076;-0.5429363;0.4376731;0.4501385;-5;-12;6;59;4112;68;16;0.6149584;-0.7658253;-0.1191136;-0.1454294;-2;-6;0;-85;3978;934;2;0.4529086;-0.4099723;-0.5152354;-0.6011065;0;-10;-5;-131;4106;-201;8;0.6094183;-0.7919616;-0.03739612;-0.002770083;-3;-2;1;-267;3963;1037;0.3525521;2.821136;-0.243948;0.3585188;3.364869;-0.2879914;0.3637618;3.842647;-0.3287217;0.3590384;4.558445;-0.4901919;0.09830703;4.866488;-0.5991741;-0.2421833;4.741342;-0.5067406;-0.5195005;4.103853;0.1056585;-0.4122441;3.180312;-0.07700178;0.6186396;4.869931;-0.5991478;0.9083609;4.748952;-0.5066811;1.138824;4.047568;0.1123669;0.907766;3.14491;-0.05970815;0.04029225;2.778587;-0.2479043;0.03212633;1.315852;-0.2825377;0;0;0;0.04029225;2.778587;-0.2479043;0.03212633;1.315852;-0.2825377;0;0;0
679178.7938;NotLabelled;16384;0.4653739;-0.6421099;0.6038781;0.08033241;-1;30;8;-2972;2936;715;65536;0.6937869;-0.6357341;0.1412742;0.3074792;-23;78;-19;-1119;4300;-67;8192;0.2894737;-0.6398892;-0.6662583;-0.2506925;3;0;14;2220;2893;345;32768;-0.4764543;0.4792244;0.4099723;0.6125831;-13;-11;-32;881;3371;1294;256;-0.09695291;0.08310249;-0.7781519;-0.6149584;-8;4;-3;239;3978;775;128;0.09972299;-0.03601108;0.6371191;0.7634381;10;2;6;-621;4017;890;4;0.5559713;-0.5401662;0.4404432;0.4529086;-3;-3;-2;215;3996;-98;16;0.6149584;-0.7658253;-0.1191136;-0.1454294;2;0;1;-81;3974;1130;2;0.4556787;-0.4099723;-0.5152354;-0.5990093;-1;0;0;-177;4292;-57;8;0.6080332;-0.7930255;-0.03739612;-0.002770083;1;-1;0;-195;4007;1257;0.3526404;2.81982;-0.2452708;0.3586075;3.363576;-0.2890464;0.3638507;3.841373;-0.3295414;0.3587998;4.556598;-0.4935259;0.09792599;4.864138;-0.6035796;-0.2425047;4.739165;-0.5106936;-0.5203857;4.101231;0.1009848;-0.4045441;3.179375;-0.0849196;0.6182569;4.867814;-0.6035858;0.908036;4.747293;-0.5107059;1.137833;4.055155;0.118907;0.9084468;3.150452;-0.0444434;0.04038063;2.777274;-0.2492498;0.0311842;1.314654;-0.2881686;0;0;0;0.04038063;2.777274;-0.2492498;0.0311842;1.314654;-0.2881686;0;0;0
679220.596;NotLabelled;16384;0.466759;-0.643873;0.601108;0.07894737;0;24;7;-2986;2876;557;65536;0.6955805;-0.6385041;0.1315789;0.301939;-17;63;-19;-963;4020;-375;8192;0.2880886;-0.6412742;-0.6655266;-0.2506925;0;-3;10;2420;2939;339;32768;-0.4736842;0.4819945;0.4099723;0.6125581;-11;5;-24;1189;3761;968;256;-0.09833795;0.08448754;-0.7789218;-0.6135734;-4;8;-1;-11;3892;933;128;0.101108;-0.03878116;0.6385041;0.7619617;10;9;6;-537;4043;680;4;0.5570967;-0.5401662;0.4404432;0.4515235;0;5;-6;239;4036;-38;16;0.6149584;-0.7658253;-0.1191136;-0.1454294;4;1;2;-143;4030;1058;2;0.4556787;-0.4099723;-0.5152354;-0.5990093;-2;1;0;-91;4194;-225;8;0.6080332;-0.7930896;-0.03601108;-0.002770083;3;-2;0;-277;3991;1247;0.3541397;2.819802;-0.2444547;0.3601031;3.363228;-0.2921474;0.365343;3.840722;-0.3360842;0.3581389;4.554839;-0.5047494;0.09634344;4.86086;-0.6168292;-0.2437141;4.735467;-0.5231451;-0.524561;4.091908;0.08124266;-0.3822496;3.173746;-0.1045608;0.6166608;4.866111;-0.6168308;0.9067964;4.747078;-0.5231477;1.136241;4.068902;0.1216058;0.9070584;3.160289;-0.01869661;0.04187964;2.777228;-0.2481022;0.03069376;1.314654;-0.2882205;0;0;0;0.04187964;2.777228;-0.2481022;0.03069376;1.314654;-0.2882205;0;0;0
679240.6248;NotLabelled;16384;0.466759;-0.646448;0.5983379;0.07894737;2;22;9;-3034;2894;463;65536;0.6986406;-0.6385041;0.1246537;0.2977839;-9;49;-18;-793;4040;-523;8192;0.2867036;-0.6412742;-0.666644;-0.2493075;4;-4;10;2826;2769;-121;32768;-0.4722992;0.4833795;0.4099723;0.6125361;-6;8;-16;1589;3641;644;256;-0.09833795;0.08587258;-0.7787704;-0.6135734;-3;9;0;-99;3826;877;128;0.1024931;-0.0401662;0.6398892;0.7605417;11;12;5;-463;3987;708;4;0.5568729;-0.5415512;0.4404432;0.4501385;0;10;-9;145;4108;-56;16;0.6149584;-0.7658253;-0.1191136;-0.1454294;5;3;3;-99;4004;1006;2;0.4542936;-0.4099723;-0.5166205;-0.5988684;-3;5;0;-109;4190;-211;8;0.6094183;-0.7920258;-0.03601108;-0.002770083;5;0;0;-279;3969;1133;0.3567103;2.81981;-0.2457435;0.3626714;3.36303;-0.2957206;0.3679092;3.840336;-0.3416646;0.3601161;4.553933;-0.5124893;0.09807329;4.85939;-0.625526;-0.2418888;4.733991;-0.531505;-0.5191966;4.086684;0.07051155;-0.3701975;3.169741;-0.1160638;0.6183861;4.865087;-0.6254799;0.9086115;4.746586;-0.5314016;1.140576;4.067008;0.1109697;0.9069902;3.158443;-0.02220693;0.04445006;2.777221;-0.2491976;0.02959356;1.314653;-0.2883369;0;0;0;0.04445006;2.777221;-0.2491976;0.02959356;1.314653;-0.2883369;0;0;0
679260.659;NotLabelled;16384;0.468144;-0.6480027;0.5955678;0.07894737;2;16;13;-3110;2824;475;65536;0.6999806;-0.6398892;0.1163435;0.2950138;-8;58;-19;-1433;3922;-247;8192;0.2853186;-0.6426592;-0.665904;-0.2493075;9;0;6;3034;2517;-223;32768;-0.4709141;0.4833795;0.4099723;0.6136016;-4;3;-8;1629;3651;626;256;-0.09972299;0.08725762;-0.7795299;-0.6121883;-2;9;0;-91;3794;889;128;0.1038781;-0.04293629;0.6412742;0.7590344;10;16;4;-447;3949;722;4;0.5566421;-0.5429363;0.4404432;0.4487534;1;14;-11;167;3930;16;16;0.6163435;-0.7644463;-0.1191136;-0.1468144;7;3;3;-29;4002;904;2;0.4542936;-0.4099723;-0.5166205;-0.5988684;-3;8;2;-267;4088;-271;8;0.6094183;-0.7920258;-0.03601108;-0.002770083;6;0;0;-201;3985;1085;0.3551956;2.819943;-0.2502721;0.3611544;3.362949;-0.3025219;0.36639;3.840057;-0.3504629;0.3570589;4.553719;-0.5209451;0.09435438;4.85867;-0.63381;-0.2453303;4.732502;-0.5398161;-0.5210647;4.085909;0.06368858;-0.370014;3.170206;-0.1272801;0.6146539;4.865477;-0.6338117;0.9051406;4.747549;-0.5398184;1.1372;4.07363;0.1084533;0.901453;3.165108;-0.02115974;0.04293512;2.777339;-0.2535338;0.02906674;1.314654;-0.2883906;0;0;0;0.04293512;2.777339;-0.2535338;0.02906674;1.314654;-0.2883906;0;0;0
679282.5867;NotLabelled;16384;0.4695291;-0.648272;0.5941828;0.07894737;0;8;14;-3044;2798;707;65536;0.7025657;-0.6412742;0.1066482;0.2894737;-13;74;-20;-1379;3882;91;8192;0.2839335;-0.6440443;-0.6651575;-0.2493075;11;0;1;2912;2695;55;32768;-0.4722992;0.4833795;0.4099723;0.6125361;-3;-4;-2;1479;3547;708;256;-0.101108;0.08864266;-0.7791951;-0.6121883;0;11;0;-31;3762;1045;128;0.1052632;-0.04432133;0.6426592;0.7575912;7;16;6;-367;3889;782;4;0.557002;-0.5470914;0.4390582;0.4445983;5;22;-12;203;4074;152;16;0.6177285;-0.7628424;-0.1204986;-0.1481994;6;4;3;-1;4024;696;2;0.4529086;-0.4099723;-0.5180055;-0.598721;-3;9;3;-369;4102;-271;8;0.6108033;-0.7909582;-0.03601108;-0.002770083;6;1;-1;-201;4021;1033;0.3564199;2.821073;-0.2499;0.3623762;3.363853;-0.3044454;0.3676096;3.840755;-0.3544033;0.3576674;4.553892;-0.5270269;0.09470353;4.858276;-0.6408169;-0.2448757;4.732097;-0.5464579;-0.5178228;4.082904;0.05551976;-0.359791;3.169042;-0.1385943;0.6149969;4.865533;-0.6408185;0.9055817;4.74814;-0.5464604;1.137823;4.075542;0.103116;0.899592;3.167461;-0.02503794;0.04415932;2.778457;-0.252967;0.03123231;1.315665;-0.2835081;0;0;0;0.04415932;2.778457;-0.252967;0.03123231;1.315665;-0.2835081;0;0;0
679303.602;NotLabelled;16384;0.4736842;-0.6501306;0.5886427;0.08033241;-5;17;18;-2694;2920;669;65536;0.7057341;-0.6454294;0.08864266;0.2783934;-17;53;-19;-535;3902;-125;8192;0.2825485;-0.6440443;-0.6647031;-0.2520775;6;7;-10;2798;2791;299;32768;-0.4736842;0.4847645;0.4058172;0.6131387;-8;-13;2;961;3759;752;256;-0.101108;0.0900277;-0.7790363;-0.6121883;5;11;0;-5;3744;1087;128;0.1052632;-0.04709141;0.6426592;0.7574241;5;14;6;-435;4005;638;4;0.5575683;-0.5498615;0.4376731;0.4418283;2;16;-10;183;4266;110;16;0.6191136;-0.7617187;-0.1204986;-0.1481994;6;5;2;71;3958;722;2;0.4501385;-0.4085872;-0.5207756;-0.5993534;-5;10;4;-497;4092;-295;8;0.6121883;-0.7898223;-0.03739612;-0.002770083;6;3;-1;-215;3993;943;0.3532977;2.822453;-0.2538026;0.3592515;3.364999;-0.3106326;0.3644825;3.841686;-0.3625979;0.354269;4.554906;-0.534866;0.09119339;4.85924;-0.6485299;-0.2483443;4.732875;-0.5542678;-0.5177066;4.079465;0.0447543;-0.3544647;3.167164;-0.1523673;0.6114839;4.866707;-0.6484764;0.9021068;4.749385;-0.5541481;1.136864;4.075383;0.09306562;0.9001225;3.166861;-0.03472221;0.04103699;2.779824;-0.2566758;0.03114739;1.316845;-0.277986;0;0;0;0.04103699;2.779824;-0.2566758;0.03114739;1.316845;-0.277986;0;0;0
679323.6223;NotLabelled;16384;0.4764543;-0.650778;0.5858725;0.07894737;-3;23;17;-2872;2814;481;65536;0.7063888;-0.6468144;0.08171745;0.2756233;-13;33;-17;-835;4076;-205;8192;0.2839335;-0.6426592;-0.6643971;-0.2548476;4;6;-14;2912;2873;215;32768;-0.4750692;0.4861496;0.4030471;0.6127976;-6;-19;1;637;3977;524;256;-0.1038781;0.09279778;-0.7772552;-0.6135734;8;11;0;-191;3858;1181;128;0.1080332;-0.04986149;0.6440443;0.7556782;-1;12;3;-409;4039;406;4;0.5572964;-0.5512465;0.4376731;0.4404432;0;11;-9;131;4148;58;16;0.6191136;-0.7617187;-0.1204986;-0.1481994;4;4;1;101;4032;720;2;0.4487534;-0.4072022;-0.5221606;-0.6001291;-5;17;4;-477;4106;-239;8;0.6135734;-0.7887468;-0.03739612;-0.002770083;5;3;-1;-265;4001;921;0.3511115;2.823501;-0.2541577;0.3570652;3.366044;-0.3110185;0.3622963;3.842727;-0.3630109;0.3505439;4.55601;-0.5349203;0.08680737;4.85984;-0.6484019;-0.2524495;4.732706;-0.5541644;-0.5228738;4.074497;0.03909919;-0.3473468;3.164528;-0.1582383;0.6070809;4.868417;-0.6484036;0.8979639;4.751666;-0.5541672;1.125895;4.078796;0.09665447;0.8832396;3.172122;-0.03314847;0.0388508;2.780872;-0.2570282;0.03100562;1.317817;-0.2733585;0;0;0;0.0388508;2.780872;-0.2570282;0.03100562;1.317817;-0.2733585;0;0;0
679344.655;NotLabelled;16384;0.4778393;-0.6534843;0.5817174;0.07894737;-4;22;14;-3102;2858;507;65536;0.7073956;-0.6468144;0.07756232;0.2742382;-10;29;-15;-1089;4126;-321;8192;0.2853186;-0.6412742;-0.6646093;-0.2562327;2;2;-15;2832;2837;191;32768;-0.4778393;0.4875346;0.4030471;0.6095347;-4;-21;0;611;4257;378;256;-0.1038781;0.09418282;-0.7770886;-0.6135734;6;12;0;-167;3884;1121;128;0.1094183;-0.05124654;0.6440443;0.7553862;-2;11;4;-365;4077;404;4;0.5570176;-0.5526316;0.4376731;0.4390582;0;9;-8;183;3958;170;16;0.6204986;-0.7603197;-0.1204986;-0.1495845;2;3;0;49;3990;606;2;0.4473684;-0.4058172;-0.5235457;-0.6008942;-4;17;4;-699;4114;-279;8;0.6135734;-0.78868;-0.03878116;-0.002770083;5;4;-1;-229;3965;921;0.347944;2.823562;-0.258995;0.3538946;3.365824;-0.3184716;0.3591228;3.842252;-0.3727622;0.3471392;4.556302;-0.5414373;0.08330142;4.860563;-0.6535213;-0.2559093;4.732899;-0.5598359;-0.5248634;4.072698;0.0318801;-0.3443376;3.164155;-0.1675139;0.6035721;4.869298;-0.6535227;0.8944978;4.752211;-0.5598381;1.125372;4.074974;0.08539248;0.8786143;3.169259;-0.04337266;0.03568315;2.78092;-0.2616435;0.02884686;1.317817;-0.2735946;0;0;0;0.03568315;2.78092;-0.2616435;0.02884686;1.317817;-0.2735946;0;0;0
679365.5984;NotLabelled;16384;0.4792244;-0.6538672;0.5803324;0.07756232;-5;17;13;-3162;2742;613;65536;0.707782;-0.6481994;0.07202215;0.2714681;-8;34;-15;-1137;4098;-143;8192;0.2867036;-0.6412742;-0.6634769;-0.2576177;3;-1;-15;3078;2865;305;32768;-0.4806094;0.4889196;0.400277;0.6080711;-2;-30;-1;641;4289;450;256;-0.1052632;0.09556787;-0.776733;-0.6135734;5;10;-1;-183;3866;1059;128;0.1094183;-0.05263158;0.6440443;0.755291;-2;10;3;-259;4059;390;4;0.5591899;-0.5526316;0.4362881;0.4376731;1;9;-7;199;4050;128;16;0.6204986;-0.7600989;-0.1218837;-0.1495845;0;3;0;27;3944;646;2;0.4459834;-0.4044321;-0.5249307;-0.6016487;-3;13;4;-759;3980;-307;8;0.6149584;-0.7876005;-0.03878116;-0.002770083;3;3;-2;-165;3957;849;0.3496865;2.82455;-0.2584087;0.3556367;3.366776;-0.3182153;0.3608646;3.843171;-0.3727958;0.347364;4.557282;-0.5410971;0.08287995;4.861041;-0.6530197;-0.2560582;4.732607;-0.5593978;-0.5222692;4.068952;0.02968842;-0.3388681;3.16155;-0.1722549;0.6031311;4.870879;-0.6530213;0.8943056;4.754361;-0.5594003;1.126243;4.074281;0.08245009;0.8833535;3.167253;-0.04440477;0.03742556;2.781906;-0.2610291;0.03171445;1.31877;-0.2686425;0;0;0;0.03742556;2.781906;-0.2610291;0.03171445;1.31877;-0.2686425;0;0;0
679386.674;NotLabelled;16384;0.4806094;-0.6553017;0.5775623;0.07756232;-7;12;12;-3080;2744;581;65536;0.7087219;-0.6481994;0.06786703;0.2700831;-5;31;-18;-1131;4130;-7;8192;0.2880886;-0.6412742;-0.6623367;-0.2590028;0;-1;-13;3220;2853;375;32768;-0.4833795;0.4916897;0.398892;0.6045417;2;-33;-2;515;4331;290;256;-0.1052632;0.09695291;-0.7765613;-0.6135734;4;9;-1;-237;3834;1095;128;0.1108033;-0.05401662;0.6440443;0.7549912;-2;7;3;-241;4037;360;4;0.5596854;-0.5554016;0.434903;0.434903;3;10;-3;213;4074;140;16;0.6204986;-0.7600989;-0.1218837;-0.1495845;-2;1;-2;47;3968;634;2;0.4459834;-0.4030471;-0.5263157;-0.6013681;-4;9;3;-735;3960;-401;8;0.6149584;-0.7875311;-0.0401662;-0.002770083;1;3;-2;-245;3995;793;0.3499925;2.824704;-0.2552561;0.3559427;3.366928;-0.3150769;0.3611706;3.843322;-0.3696699;0.3473934;4.557518;-0.5375869;0.08279139;4.861235;-0.6493435;-0.2560964;4.732621;-0.5557875;-0.5223741;4.068642;0.03290249;-0.3347546;3.162165;-0.1693227;0.6030384;4.871273;-0.6493449;0.8942587;4.754818;-0.5557895;1.127369;4.071817;0.08252442;0.8828934;3.165277;-0.04477713;0.03773168;2.78206;-0.2578753;0.02835074;1.318958;-0.268091;0;0;0;0.03773168;2.78206;-0.2578753;0.02835074;1.318958;-0.268091;0;0;0
679407.6284;NotLabelled;16384;0.4833795;-0.6560216;0.5747922;0.07479224;-8;10;7;-3222;2850;305;65536;0.711263;-0.6481994;0.0567867;0.265928;0;34;-17;-1069;4282;19;8192;0.2880886;-0.6398892;-0.6631327;-0.2603878;-1;7;-5;3152;2765;129;32768;-0.4903047;0.4930748;0.3975069;0.598721;11;-29;1;1147;4067;444;256;-0.1066482;0.09972299;-0.7760214;-0.6135734;4;8;-1;-227;3876;1149;128;0.1108033;-0.05540166;0.6426592;0.7560704;-2;8;3;-373;4049;374;4;0.5596854;-0.5554016;0.434903;0.434903;1;8;-2;113;4132;44;16;0.6204986;-0.7600989;-0.1218837;-0.1495845;-3;3;-2;67;3928;674;2;0.4445983;-0.4030471;-0.5277008;-0.6011798;-3;1;1;-717;4014;-313;8;0.6149584;-0.7874531;-0.04155125;-0.004155125;-1;4;-1;-181;4029;735;0.3473482;2.824744;-0.2603849;0.3532981;3.366932;-0.32054;0.3585255;3.843291;-0.3754267;0.3432332;4.557548;-0.5429592;0.07798676;4.860763;-0.6545494;-0.2606266;4.731381;-0.5610591;-0.5254258;4.064846;0.02540542;-0.3348729;3.15953;-0.1792642;0.5982115;4.871904;-0.6545511;0.8896791;4.756015;-0.5610615;1.122546;4.070104;0.0742119;0.8796027;3.162724;-0.04999921;0.03508734;2.782099;-0.2629756;0.02788223;1.318958;-0.2681395;0;0;0;0.03508734;2.782099;-0.2629756;0.02788223;1.318958;-0.2681395;0;0;0
