SEP=;
index;label;RightUpperArm_boneIndex;RightUpperArm_quat9x_w;RightUpperArm_quat9x_x;RightUpperArm_quat9x_y;RightUpperArm_quat9x_z;RightUpperArm_gyroscope_x;RightUpperArm_gyroscope_y;RightUpperArm_gyroscope_z;RightUpperArm_accelerometer_x;RightUpperArm_accelerometer_y;RightUpperArm_accelerometer_z;RightLowerArm_boneIndex;RightLowerArm_quat9x_w;RightLowerArm_quat9x_x;RightLowerArm_quat9x_y;RightLowerArm_quat9x_z;RightLowerArm_gyroscope_x;RightLowerArm_gyroscope_y;RightLowerArm_gyroscope_z;RightLowerArm_accelerometer_x;RightLowerArm_accelerometer_y;RightLowerArm_accelerometer_z;LeftUpperArm_boneIndex;LeftUpperArm_quat9x_w;LeftUpperArm_quat9x_x;LeftUpperArm_quat9x_y;LeftUpperArm_quat9x_z;LeftUpperArm_gyroscope_x;LeftUpperArm_gyroscope_y;LeftUpperArm_gyroscope_z;LeftUpperArm_accelerometer_x;LeftUpperArm_accelerometer_y;LeftUpperArm_accelerometer_z;LeftLowerArm_boneIndex;LeftLowerArm_quat9x_w;LeftLowerArm_quat9x_x;LeftLowerArm_quat9x_y;LeftLowerArm_quat9x_z;LeftLowerArm_gyroscope_x;LeftLowerArm_gyroscope_y;LeftLowerArm_gyroscope_z;LeftLowerArm_accelerometer_x;LeftLowerArm_accelerometer_y;LeftLowerArm_accelerometer_z;Chest_boneIndex;Chest_quat9x_w;Chest_quat9x_x;Chest_quat9x_y;Chest_quat9x_z;Chest_gyroscope_x;Chest_gyroscope_y;Chest_gyroscope_z;Chest_accelerometer_x;Chest_accelerometer_y;Chest_accelerometer_z;Spine_boneIndex;Spine_quat9x_w;Spine_quat9x_x;Spine_quat9x_y;Spine_quat9x_z;Spine_gyroscope_x;Spine_gyroscope_y;Spine_gyroscope_z;Spine_accelerometer_x;Spine_accelerometer_y;Spine_accelerometer_z;RightUpperLeg_boneIndex;RightUpperLeg_quat9x_w;RightUpperLeg_quat9x_x;RightUpperLeg_quat9x_y;RightUpperLeg_quat9x_z;RightUpperLeg_gyroscope_x;RightUpperLeg_gyroscope_y;RightUpperLeg_gyroscope_z;RightUpperLeg_accelerometer_x;RightUpperLeg_accelerometer_y;RightUpperLeg_accelerometer_z;RightLowerLeg_boneIndex;RightLowerLeg_quat9x_w;RightLowerLeg_quat9x_x;RightLowerLeg_quat9x_y;RightLowerLeg_quat9x_z;RightLowerLeg_gyroscope_x;RightLowerLeg_gyroscope_y;RightLowerLeg_gyroscope_z;RightLowerLeg_accelerometer_x;RightLowerLeg_accelerometer_y;RightLowerLeg_accelerometer_z;LeftUpperLeg_boneIndex;LeftUpperLeg_quat9x_w;LeftUpperLeg_quat9x_x;LeftUpperLeg_quat9x_y;LeftUpperLeg_quat9x_z;LeftUpperLeg_gyroscope_x;LeftUpperLeg_gyroscope_y;LeftUpperLeg_gyroscope_z;LeftUpperLeg_accelerometer_x;LeftUpperLeg_accelerometer_y;LeftUpperLeg_accelerometer_z;LeftLowerLeg_boneIndex;LeftLowerLeg_quat9x_w;LeftLowerLeg_quat9x_x;LeftLowerLeg_quat9x_y;LeftLowerLeg_quat9x_z;LeftLowerLeg_gyroscope_x;LeftLowerLeg_gyroscope_y;LeftLowerLeg_gyroscope_z;LeftLowerLeg_accelerometer_x;LeftLowerLeg_accelerometer_y;LeftLowerLeg_accelerometer_z;pelvis_x;pelvis_y;pelvis_z;lowerSpine_x;lowerSpine_y;lowerSpine_z;middleSpine_x;middleSpine_y;middleSpine_z;upperSpine_x;upperSpine_y;upperSpine_z;rightClavicle_x;rightClavicle_y;rightClavicle_z;rightShoulder_x;rightShoulder_y;rightShoulder_z;rightElbow_x;rightElbow_y;rightElbow_z;rightWrist_x;rightWrist_y;rightWrist_z;leftClavicle_x;leftClavicle_y;leftClavicle_z;leftShoulder_x;leftShoulder_y;leftShoulder_z;leftElbow_x;leftElbow_y;leftElbow_z;leftWrist_x;leftWrist_y;leftWrist_z;rightHip_x;rightHip_y;rightHip_z;rightKnee_x;rightKnee_y;rightKnee_z;rightAnkle_x;rightAnkle_y;rightAnkle_z;leftHip_x;leftHip_y;leftHip_z;leftKnee_x;leftKnee_y;leftKnee_z;leftAnkle_x;leftAnkle_y;leftAnkle_z;
233496.9881;NotLabelled;16384;0.735208;0.07756232;-0.4252077;0.5221606;1;0;0;2874;-2284;1721;65536;0.1980609;-0.3961219;0.8948687;0.05540166;0;0;0;2871;1031;-2802;8192;0.02631579;-0.3725762;-0.770453;-0.5166205;0;1;0;2246;3391;703;32768;-0.6578947;0.1080332;0.1094183;0.7372456;0;0;0;3865;1251;400;256;0.5138504;-0.5795882;0.3961219;0.4930748;0;0;0;209;4022;-649;128;0.6461838;-0.601108;0.265928;0.3878116;0;0;0;-809;4059;122;4;0.6736189;-0.6426592;-0.3213296;0.1731302;0;2;0;2577;3108;454;16;-0.4182825;0.2437673;0.6177285;0.6197005;0;-4;0;963;3940;-464;2;-0.08171745;-0.06925207;-0.6509695;-0.7515085;-1;0;0;893;4002;-441;8;0.333795;-0.6468515;-0.2534626;-0.6371191;0;0;0;361;3059;2637;0.6710315;2.451872;1.19736;0.6768547;2.982554;1.07101;0.6819683;3.448554;0.9579809;0.7164271;4.172286;1.074118;0.4736274;4.512288;1.088082;0.1256482;4.380238;1.128237;-0.5438503;4.896913;0.749889;0.36487;4.654263;0.8645425;0.9933827;4.487544;1.088081;1.274916;4.325523;1.128236;1.778351;3.539569;1.367202;0.8968417;3.25196;1.562163;0.3587709;2.409257;1.200452;0.2134484;1.305222;0.2513224;0;0;0;0.3587709;2.409257;1.200452;0.2134484;1.305222;0.2513224;0;0;0
233518.005;NotLabelled;16384;0.735208;0.07756232;-0.4252077;0.5221606;1;0;0;2874;-2284;1721;65536;0.1980609;-0.3961219;0.8948687;0.05540166;0;0;0;2871;1031;-2802;8192;0.02631579;-0.3725762;-0.770453;-0.5166205;0;1;0;2246;3391;703;32768;-0.6578947;0.1080332;0.1094183;0.7372456;0;0;0;3865;1251;400;256;0.5138504;-0.5795882;0.3961219;0.4930748;0;0;0;209;4022;-649;128;0.6461838;-0.601108;0.265928;0.3878116;0;0;0;-809;4059;122;4;0.6736189;-0.6426592;-0.3213296;0.1731302;0;2;0;2577;3108;454;16;-0.4182825;0.2437673;0.6177285;0.6197005;0;-4;0;963;3940;-464;2;-0.08171745;-0.06925207;-0.6509695;-0.7515085;-1;0;0;893;4002;-441;8;0.333795;-0.6468515;-0.2534626;-0.6371191;0;0;0;361;3059;2637;0.6710315;2.451872;1.19736;0.6768547;2.982554;1.07101;0.6819683;3.448554;0.9579809;0.7164271;4.172286;1.074118;0.4736274;4.512288;1.088082;0.1256482;4.380238;1.128237;-0.5438503;4.896913;0.749889;0.36487;4.654263;0.8645425;0.9933827;4.487544;1.088081;1.274916;4.325523;1.128236;1.778351;3.539569;1.367202;0.8968417;3.25196;1.562163;0.3587709;2.409257;1.200452;0.2134484;1.305222;0.2513224;0;0;0;0.3587709;2.409257;1.200452;0.2134484;1.305222;0.2513224;0;0;0
233538.9939;NotLabelled;16384;0.735208;0.07756232;-0.4252077;0.5221606;1;0;0;2874;-2284;1721;65536;0.1980609;-0.3961219;0.8948687;0.05540166;0;0;0;2871;1031;-2802;8192;0.02631579;-0.3725762;-0.770453;-0.5166205;0;1;0;2246;3391;703;32768;-0.6578947;0.1080332;0.1094183;0.7372456;0;0;0;3865;1251;400;256;0.5138504;-0.5795882;0.3961219;0.4930748;0;0;0;209;4022;-649;128;0.6461838;-0.601108;0.265928;0.3878116;0;0;0;-809;4059;122;4;0.6736189;-0.6426592;-0.3213296;0.1731302;0;2;0;2577;3108;454;16;-0.4182825;0.2437673;0.6177285;0.6197005;0;-4;0;963;3940;-464;2;-0.08171745;-0.06925207;-0.6509695;-0.7515085;-1;0;0;893;4002;-441;8;0.333795;-0.6468515;-0.2534626;-0.6371191;0;0;0;361;3059;2637;0.6710315;2.451872;1.19736;0.6768547;2.982554;1.07101;0.6819683;3.448554;0.9579809;0.7164271;4.172286;1.074118;0.4736274;4.512288;1.088082;0.1256482;4.380238;1.128237;-0.5438503;4.896913;0.749889;0.36487;4.654263;0.8645425;0.9933827;4.487544;1.088081;1.274916;4.325523;1.128236;1.778351;3.539569;1.367202;0.8968417;3.25196;1.562163;0.3587709;2.409257;1.200452;0.2134484;1.305222;0.2513224;0;0;0;0.3587709;2.409257;1.200452;0.2134484;1.305222;0.2513224;0;0;0
233559.9936;NotLabelled;16384;0.735208;0.07756232;-0.4252077;0.5221606;1;0;0;2874;-2284;1721;65536;0.1980609;-0.3961219;0.8948687;0.05540166;0;0;0;2871;1031;-2802;8192;0.02631579;-0.3725762;-0.770453;-0.5166205;0;1;0;2246;3391;703;32768;-0.6578947;0.1080332;0.1094183;0.7372456;0;0;0;3865;1251;400;256;0.5138504;-0.5795882;0.3961219;0.4930748;0;0;0;209;4022;-649;128;0.6461838;-0.601108;0.265928;0.3878116;0;0;0;-809;4059;122;4;0.6736189;-0.6426592;-0.3213296;0.1731302;0;2;0;2577;3108;454;16;-0.4182825;0.2437673;0.6177285;0.6197005;0;-4;0;963;3940;-464;2;-0.08171745;-0.06925207;-0.6509695;-0.7515085;-1;0;0;893;4002;-441;8;0.333795;-0.6468515;-0.2534626;-0.6371191;0;0;0;361;3059;2637;0.6710315;2.451872;1.19736;0.6768547;2.982554;1.07101;0.6819683;3.448554;0.9579809;0.7164271;4.172286;1.074118;0.4736274;4.512288;1.088082;0.1256482;4.380238;1.128237;-0.5438503;4.896913;0.749889;0.36487;4.654263;0.8645425;0.9933827;4.487544;1.088081;1.274916;4.325523;1.128236;1.778351;3.539569;1.367202;0.8968417;3.25196;1.562163;0.3587709;2.409257;1.200452;0.2134484;1.305222;0.2513224;0;0;0;0.3587709;2.409257;1.200452;0.2134484;1.305222;0.2513224;0;0;0
233581.0624;NotLabelled;16384;0.735208;0.07756232;-0.4252077;0.5221606;1;0;0;2874;-2284;1721;65536;0.1980609;-0.3961219;0.8948687;0.05540166;0;0;0;2871;1031;-2802;8192;0.02631579;-0.3725762;-0.770453;-0.5166205;0;1;0;2246;3391;703;32768;-0.6578947;0.1080332;0.1094183;0.7372456;0;0;0;3865;1251;400;256;0.5138504;-0.5795882;0.3961219;0.4930748;0;0;0;209;4022;-649;128;0.6461838;-0.601108;0.265928;0.3878116;0;0;0;-809;4059;122;4;0.6736189;-0.6426592;-0.3213296;0.1731302;0;2;0;2577;3108;454;16;-0.4182825;0.2437673;0.6177285;0.6197005;0;-4;0;963;3940;-464;2;-0.08171745;-0.06925207;-0.6509695;-0.7515085;-1;0;0;893;4002;-441;8;0.333795;-0.6468515;-0.2534626;-0.6371191;0;0;0;361;3059;2637;0.6710315;2.451872;1.19736;0.6768547;2.982554;1.07101;0.6819683;3.448554;0.9579809;0.7164271;4.172286;1.074118;0.4736274;4.512288;1.088082;0.1256482;4.380238;1.128237;-0.5438503;4.896913;0.749889;0.36487;4.654263;0.8645425;0.9933827;4.487544;1.088081;1.274916;4.325523;1.128236;1.778351;3.539569;1.367202;0.8968417;3.25196;1.562163;0.3587709;2.409257;1.200452;0.2134484;1.305222;0.2513224;0;0;0;0.3587709;2.409257;1.200452;0.2134484;1.305222;0.2513224;0;0;0
233602.1646;NotLabelled;16384;0.735208;0.07756232;-0.4252077;0.5221606;1;0;0;2874;-2284;1721;65536;0.1980609;-0.3961219;0.8948687;0.05540166;0;0;0;2871;1031;-2802;8192;0.02631579;-0.3725762;-0.770453;-0.5166205;0;1;0;2246;3391;703;32768;-0.6578947;0.1080332;0.1094183;0.7372456;0;0;0;3865;1251;400;256;0.5138504;-0.5795882;0.3961219;0.4930748;0;0;0;209;4022;-649;128;0.6461838;-0.601108;0.265928;0.3878116;0;0;0;-809;4059;122;4;0.6736189;-0.6426592;-0.3213296;0.1731302;0;2;0;2577;3108;454;16;-0.4182825;0.2437673;0.6177285;0.6197005;0;-4;0;963;3940;-464;2;-0.08171745;-0.06925207;-0.6509695;-0.7515085;-1;0;0;893;4002;-441;8;0.333795;-0.6468515;-0.2534626;-0.6371191;0;0;0;361;3059;2637;0.6710315;2.451872;1.19736;0.6768547;2.982554;1.07101;0.6819683;3.448554;0.9579809;0.7164271;4.172286;1.074118;0.4736274;4.512288;1.088082;0.1256482;4.380238;1.128237;-0.5438503;4.896913;0.749889;0.36487;4.654263;0.8645425;0.9933827;4.487544;1.088081;1.274916;4.325523;1.128236;1.778351;3.539569;1.367202;0.8968417;3.25196;1.562163;0.3587709;2.409257;1.200452;0.2134484;1.305222;0.2513224;0;0;0;0.3587709;2.409257;1.200452;0.2134484;1.305222;0.2513224;0;0;0
233622.9998;NotLabelled;16384;0.735208;0.07756232;-0.4252077;0.5221606;1;0;0;2874;-2284;1721;65536;0.1980609;-0.3961219;0.8948687;0.05540166;0;0;0;2871;1031;-2802;8192;0.02631579;-0.3725762;-0.770453;-0.5166205;0;1;0;2246;3391;703;32768;-0.6578947;0.1080332;0.1094183;0.7372456;0;0;0;3865;1251;400;256;0.5138504;-0.5795882;0.3961219;0.4930748;0;0;0;209;4022;-649;128;0.6461838;-0.601108;0.265928;0.3878116;0;0;0;-809;4059;122;4;0.6736189;-0.6426592;-0.3213296;0.1731302;0;2;0;2577;3108;454;16;-0.4182825;0.2437673;0.6177285;0.6197005;0;-4;0;963;3940;-464;2;-0.08171745;-0.06925207;-0.6509695;-0.7515085;-1;0;0;893;4002;-441;8;0.333795;-0.6468515;-0.2534626;-0.6371191;0;0;0;361;3059;2637;0.6710315;2.451872;1.19736;0.6768547;2.982554;1.07101;0.6819683;3.448554;0.9579809;0.7164271;4.172286;1.074118;0.4736274;4.512288;1.088082;0.1256482;4.380238;1.128237;-0.5438503;4.896913;0.749889;0.36487;4.654263;0.8645425;0.9933827;4.487544;1.088081;1.274916;4.325523;1.128236;1.778351;3.539569;1.367202;0.8968417;3.25196;1.562163;0.3587709;2.409257;1.200452;0.2134484;1.305222;0.2513224;0;0;0;0.3587709;2.409257;1.200452;0.2134484;1.305222;0.2513224;0;0;0
233665.1697;NotLabelled;16384;0.735208;0.07756232;-0.4252077;0.5221606;1;0;0;2874;-2284;1721;65536;0.1980609;-0.3961219;0.8948687;0.05540166;0;0;0;2871;1031;-2802;8192;0.02631579;-0.3725762;-0.770453;-0.5166205;0;1;0;2246;3391;703;32768;-0.6578947;0.1080332;0.1094183;0.7372456;0;0;0;3865;1251;400;256;0.5138504;-0.5795882;0.3961219;0.4930748;0;0;0;209;4022;-649;128;0.6461838;-0.601108;0.265928;0.3878116;0;0;0;-809;4059;122;4;0.6736189;-0.6426592;-0.3213296;0.1731302;0;2;0;2577;3108;454;16;-0.4182825;0.2437673;0.6177285;0.6197005;0;-4;0;963;3940;-464;2;-0.08171745;-0.06925207;-0.6509695;-0.7515085;-1;0;0;893;4002;-441;8;0.333795;-0.6468515;-0.2534626;-0.6371191;0;0;0;361;3059;2637;0.6710315;2.451872;1.19736;0.6768547;2.982554;1.07101;0.6819683;3.448554;0.9579809;0.7164271;4.172286;1.074118;0.4736274;4.512288;1.088082;0.1256482;4.380238;1.128237;-0.5438503;4.896913;0.749889;0.36487;4.654263;0.8645425;0.9933827;4.487544;1.088081;1.274916;4.325523;1.128236;1.778351;3.539569;1.367202;0.8968417;3.25196;1.562163;0.3587709;2.409257;1.200452;0.2134484;1.305222;0.2513224;0;0;0;0.3587709;2.409257;1.200452;0.2134484;1.305222;0.2513224;0;0;0
233686.3922;NotLabelled;16384;0.735208;0.07756232;-0.4252077;0.5221606;1;0;0;2874;-2284;1721;65536;0.1980609;-0.3961219;0.8948687;0.05540166;0;0;0;2871;1031;-2802;8192;0.02631579;-0.3725762;-0.770453;-0.5166205;0;1;0;2246;3391;703;32768;-0.6578947;0.1080332;0.1094183;0.7372456;0;0;0;3865;1251;400;256;0.5138504;-0.5795882;0.3961219;0.4930748;0;0;0;209;4022;-649;128;0.6461838;-0.601108;0.265928;0.3878116;0;0;0;-809;4059;122;4;0.6736189;-0.6426592;-0.3213296;0.1731302;0;2;0;2577;3108;454;16;-0.4182825;0.2437673;0.6177285;0.6197005;0;-4;0;963;3940;-464;2;-0.08171745;-0.06925207;-0.6509695;-0.7515085;-1;0;0;893;4002;-441;8;0.333795;-0.6468515;-0.2534626;-0.6371191;0;0;0;361;3059;2637;0.6710315;2.451872;1.19736;0.6768547;2.982554;1.07101;0.6819683;3.448554;0.9579809;0.7164271;4.172286;1.074118;0.4736274;4.512288;1.088082;0.1256482;4.380238;1.128237;-0.5438503;4.896913;0.749889;0.36487;4.654263;0.8645425;0.9933827;4.487544;1.088081;1.274916;4.325523;1.128236;1.778351;3.539569;1.367202;0.8968417;3.25196;1.562163;0.3587709;2.409257;1.200452;0.2134484;1.305222;0.2513224;0;0;0;0.3587709;2.409257;1.200452;0.2134484;1.305222;0.2513224;0;0;0
233707.9935;NotLabelled;16384;0.735208;0.07756232;-0.4252077;0.5221606;1;0;0;2874;-2284;1721;65536;0.1980609;-0.3961219;0.8948687;0.05540166;0;0;0;2871;1031;-2802;8192;0.02631579;-0.3725762;-0.770453;-0.5166205;0;1;0;2246;3391;703;32768;-0.6578947;0.1080332;0.1094183;0.7372456;0;0;0;3865;1251;400;256;0.5138504;-0.5795882;0.3961219;0.4930748;0;0;0;209;4022;-649;128;0.6461838;-0.601108;0.265928;0.3878116;0;0;0;-809;4059;122;4;0.6736189;-0.6426592;-0.3213296;0.1731302;0;2;0;2577;3108;454;16;-0.4182825;0.2437673;0.6177285;0.6197005;0;-4;0;963;3940;-464;2;-0.08171745;-0.06925207;-0.6509695;-0.7515085;-1;0;0;893;4002;-441;8;0.333795;-0.6468515;-0.2534626;-0.6371191;0;0;0;361;3059;2637;0.6710315;2.451872;1.19736;0.6768547;2.982554;1.07101;0.6819683;3.448554;0.9579809;0.7164271;4.172286;1.074118;0.4736274;4.512288;1.088082;0.1256482;4.380238;1.128237;-0.5438503;4.896913;0.749889;0.36487;4.654263;0.8645425;0.9933827;4.487544;1.088081;1.274916;4.325523;1.128236;1.778351;3.539569;1.367202;0.8968417;3.25196;1.562163;0.3587709;2.409257;1.200452;0.2134484;1.305222;0.2513224;0;0;0;0.3587709;2.409257;1.200452;0.2134484;1.305222;0.2513224;0;0;0
233729.1987;NotLabelled;16384;0.735208;0.07756232;-0.4252077;0.5221606;1;0;0;2874;-2284;1721;65536;0.1980609;-0.3961219;0.8948687;0.05540166;0;0;0;2871;1031;-2802;8192;0.02631579;-0.3725762;-0.770453;-0.5166205;0;1;0;2246;3391;703;32768;-0.6578947;0.1080332;0.1094183;0.7372456;0;0;0;3865;1251;400;256;0.5138504;-0.5795882;0.3961219;0.4930748;0;0;0;209;4022;-649;128;0.6461838;-0.601108;0.265928;0.3878116;0;0;0;-809;4059;122;4;0.6736189;-0.6426592;-0.3213296;0.1731302;0;2;0;2577;3108;454;16;-0.4182825;0.2437673;0.6177285;0.6197005;0;-4;0;963;3940;-464;2;-0.08171745;-0.06925207;-0.6509695;-0.7515085;-1;0;0;893;4002;-441;8;0.333795;-0.6468515;-0.2534626;-0.6371191;0;0;0;361;3059;2637;0.6710315;2.451872;1.19736;0.6768547;2.982554;1.07101;0.6819683;3.448554;0.9579809;0.7164271;4.172286;1.074118;0.4736274;4.512288;1.088082;0.1256482;4.380238;1.128237;-0.5438503;4.896913;0.749889;0.36487;4.654263;0.8645425;0.9933827;4.487544;1.088081;1.274916;4.325523;1.128236;1.778351;3.539569;1.367202;0.8968417;3.25196;1.562163;0.3587709;2.409257;1.200452;0.2134484;1.305222;0.2513224;0;0;0;0.3587709;2.409257;1.200452;0.2134484;1.305222;0.2513224;0;0;0
233749.217;NotLabelled;16384;0.735208;0.07756232;-0.4252077;0.5221606;1;0;0;2874;-2284;1721;65536;0.1980609;-0.3961219;0.8948687;0.05540166;0;0;0;2871;1031;-2802;8192;0.02631579;-0.3725762;-0.770453;-0.5166205;0;1;0;2246;3391;703;32768;-0.6578947;0.1080332;0.1094183;0.7372456;0;0;0;3865;1251;400;256;0.5138504;-0.5795882;0.3961219;0.4930748;0;0;0;209;4022;-649;128;0.6461838;-0.601108;0.265928;0.3878116;0;0;0;-809;4059;122;4;0.6736189;-0.6426592;-0.3213296;0.1731302;0;2;0;2577;3108;454;16;-0.4182825;0.2437673;0.6177285;0.6197005;0;-4;0;963;3940;-464;2;-0.08171745;-0.06925207;-0.6509695;-0.7515085;-1;0;0;893;4002;-441;8;0.333795;-0.6468515;-0.2534626;-0.6371191;0;0;0;361;3059;2637;0.6710315;2.451872;1.19736;0.6768547;2.982554;1.07101;0.6819683;3.448554;0.9579809;0.7164271;4.172286;1.074118;0.4736274;4.512288;1.088082;0.1256482;4.380238;1.128237;-0.5438503;4.896913;0.749889;0.36487;4.654263;0.8645425;0.9933827;4.487544;1.088081;1.274916;4.325523;1.128236;1.778351;3.539569;1.367202;0.8968417;3.25196;1.562163;0.3587709;2.409257;1.200452;0.2134484;1.305222;0.2513224;0;0;0;0.3587709;2.409257;1.200452;0.2134484;1.305222;0.2513224;0;0;0
233770.099;NotLabelled;16384;0.735208;0.07756232;-0.4252077;0.5221606;1;0;0;2874;-2284;1721;65536;0.1980609;-0.3961219;0.8948687;0.05540166;0;0;0;2871;1031;-2802;8192;0.02631579;-0.3725762;-0.770453;-0.5166205;0;1;0;2246;3391;703;32768;-0.6578947;0.1080332;0.1094183;0.7372456;0;0;0;3865;1251;400;256;0.5138504;-0.5795882;0.3961219;0.4930748;0;0;0;209;4022;-649;128;0.6461838;-0.601108;0.265928;0.3878116;0;0;0;-809;4059;122;4;0.6736189;-0.6426592;-0.3213296;0.1731302;0;2;0;2577;3108;454;16;-0.4182825;0.2437673;0.6177285;0.6197005;0;-4;0;963;3940;-464;2;-0.08171745;-0.06925207;-0.6509695;-0.7515085;-1;0;0;893;4002;-441;8;0.333795;-0.6468515;-0.2534626;-0.6371191;0;0;0;361;3059;2637;0.6710315;2.451872;1.19736;0.6768547;2.982554;1.07101;0.6819683;3.448554;0.9579809;0.7164271;4.172286;1.074118;0.4736274;4.512288;1.088082;0.1256482;4.380238;1.128237;-0.5438503;4.896913;0.749889;0.36487;4.654263;0.8645425;0.9933827;4.487544;1.088081;1.274916;4.325523;1.128236;1.778351;3.539569;1.367202;0.8968417;3.25196;1.562163;0.3587709;2.409257;1.200452;0.2134484;1.305222;0.2513224;0;0;0;0.3587709;2.409257;1.200452;0.2134484;1.305222;0.2513224;0;0;0
233811.9934;NotLabelled;16384;0.735208;0.07756232;-0.4252077;0.5221606;1;0;0;2874;-2284;1721;65536;0.1980609;-0.3961219;0.8948687;0.05540166;0;0;0;2871;1031;-2802;8192;0.02631579;-0.3725762;-0.770453;-0.5166205;0;1;0;2246;3391;703;32768;-0.6578947;0.1080332;0.1094183;0.7372456;0;0;0;3865;1251;400;256;0.5138504;-0.5795882;0.3961219;0.4930748;0;0;0;209;4022;-649;128;0.6461838;-0.601108;0.265928;0.3878116;0;0;0;-809;4059;122;4;0.6736189;-0.6426592;-0.3213296;0.1731302;0;2;0;2577;3108;454;16;-0.4182825;0.2437673;0.6177285;0.6197005;0;-4;0;963;3940;-464;2;-0.08171745;-0.06925207;-0.6509695;-0.7515085;-1;0;0;893;4002;-441;8;0.333795;-0.6468515;-0.2534626;-0.6371191;0;0;0;361;3059;2637;0.6710315;2.451872;1.19736;0.6768547;2.982554;1.07101;0.6819683;3.448554;0.9579809;0.7164271;4.172286;1.074118;0.4736274;4.512288;1.088082;0.1256482;4.380238;1.128237;-0.5438503;4.896913;0.749889;0.36487;4.654263;0.8645425;0.9933827;4.487544;1.088081;1.274916;4.325523;1.128236;1.778351;3.539569;1.367202;0.8968417;3.25196;1.562163;0.3587709;2.409257;1.200452;0.2134484;1.305222;0.2513224;0;0;0;0.3587709;2.409257;1.200452;0.2134484;1.305222;0.2513224;0;0;0
233832.3574;NotLabelled;16384;0.735208;0.07756232;-0.4252077;0.5221606;1;0;0;2874;-2284;1721;65536;0.1980609;-0.3961219;0.8948687;0.05540166;0;0;0;2871;1031;-2802;8192;0.02631579;-0.3725762;-0.770453;-0.5166205;0;1;0;2246;3391;703;32768;-0.6578947;0.1080332;0.1094183;0.7372456;0;0;0;3865;1251;400;256;0.5138504;-0.5795882;0.3961219;0.4930748;0;0;0;209;4022;-649;128;0.6461838;-0.601108;0.265928;0.3878116;0;0;0;-809;4059;122;4;0.6736189;-0.6426592;-0.3213296;0.1731302;0;2;0;2577;3108;454;16;-0.4182825;0.2437673;0.6177285;0.6197005;0;-4;0;963;3940;-464;2;-0.08171745;-0.06925207;-0.6509695;-0.7515085;-1;0;0;893;4002;-441;8;0.333795;-0.6468515;-0.2534626;-0.6371191;0;0;0;361;3059;2637;0.6710315;2.451872;1.19736;0.6768547;2.982554;1.07101;0.6819683;3.448554;0.9579809;0.7164271;4.172286;1.074118;0.4736274;4.512288;1.088082;0.1256482;4.380238;1.128237;-0.5438503;4.896913;0.749889;0.36487;4.654263;0.8645425;0.9933827;4.487544;1.088081;1.274916;4.325523;1.128236;1.778351;3.539569;1.367202;0.8968417;3.25196;1.562163;0.3587709;2.409257;1.200452;0.2134484;1.305222;0.2513224;0;0;0;0.3587709;2.409257;1.200452;0.2134484;1.305222;0.2513224;0;0;0
233874.2341;NotLabelled;16384;0.735208;0.07756232;-0.4252077;0.5221606;1;0;0;2874;-2284;1721;65536;0.1980609;-0.3961219;0.8948687;0.05540166;0;0;0;2871;1031;-2802;8192;0.02631579;-0.3725762;-0.770453;-0.5166205;0;1;0;2246;3391;703;32768;-0.6578947;0.1080332;0.1094183;0.7372456;0;0;0;3865;1251;400;256;0.5138504;-0.5795882;0.3961219;0.4930748;0;0;0;209;4022;-649;128;0.6461838;-0.601108;0.265928;0.3878116;0;0;0;-809;4059;122;4;0.6736189;-0.6426592;-0.3213296;0.1731302;0;2;0;2577;3108;454;16;-0.4182825;0.2437673;0.6177285;0.6197005;0;-4;0;963;3940;-464;2;-0.08171745;-0.06925207;-0.6509695;-0.7515085;-1;0;0;893;4002;-441;8;0.333795;-0.6468515;-0.2534626;-0.6371191;0;0;0;361;3059;2637;0.6710315;2.451872;1.19736;0.6768547;2.982554;1.07101;0.6819683;3.448554;0.9579809;0.7164271;4.172286;1.074118;0.4736274;4.512288;1.088082;0.1256482;4.380238;1.128237;-0.5438503;4.896913;0.749889;0.36487;4.654263;0.8645425;0.9933827;4.487544;1.088081;1.274916;4.325523;1.128236;1.778351;3.539569;1.367202;0.8968417;3.25196;1.562163;0.3587709;2.409257;1.200452;0.2134484;1.305222;0.2513224;0;0;0;0.3587709;2.409257;1.200452;0.2134484;1.305222;0.2513224;0;0;0
233894.2014;NotLabelled;16384;0.735208;0.07756232;-0.4252077;0.5221606;1;0;0;2874;-2284;1721;65536;0.1980609;-0.3961219;0.8948687;0.05540166;0;0;0;2871;1031;-2802;8192;0.02631579;-0.3725762;-0.770453;-0.5166205;0;1;0;2246;3391;703;32768;-0.6578947;0.1080332;0.1094183;0.7372456;0;0;0;3865;1251;400;256;0.5138504;-0.5795882;0.3961219;0.4930748;0;0;0;209;4022;-649;128;0.6461838;-0.601108;0.265928;0.3878116;0;0;0;-809;4059;122;4;0.6736189;-0.6426592;-0.3213296;0.1731302;0;2;0;2577;3108;454;16;-0.4182825;0.2437673;0.6177285;0.6197005;0;-4;0;963;3940;-464;2;-0.08171745;-0.06925207;-0.6509695;-0.7515085;-1;0;0;893;4002;-441;8;0.333795;-0.6468515;-0.2534626;-0.6371191;0;0;0;361;3059;2637;0.6710315;2.451872;1.19736;0.6768547;2.982554;1.07101;0.6819683;3.448554;0.9579809;0.7164271;4.172286;1.074118;0.4736274;4.512288;1.088082;0.1256482;4.380238;1.128237;-0.5438503;4.896913;0.749889;0.36487;4.654263;0.8645425;0.9933827;4.487544;1.088081;1.274916;4.325523;1.128236;1.778351;3.539569;1.367202;0.8968417;3.25196;1.562163;0.3587709;2.409257;1.200452;0.2134484;1.305222;0.2513224;0;0;0;0.3587709;2.409257;1.200452;0.2134484;1.305222;0.2513224;0;0;0
233914.9906;NotLabelled;16384;0.735208;0.07756232;-0.4252077;0.5221606;1;0;0;2874;-2284;1721;65536;0.1980609;-0.3961219;0.8948687;0.05540166;0;0;0;2871;1031;-2802;8192;0.02631579;-0.3725762;-0.770453;-0.5166205;0;1;0;2246;3391;703;32768;-0.6578947;0.1080332;0.1094183;0.7372456;0;0;0;3865;1251;400;256;0.5138504;-0.5795882;0.3961219;0.4930748;0;0;0;209;4022;-649;128;0.6461838;-0.601108;0.265928;0.3878116;0;0;0;-809;4059;122;4;0.6736189;-0.6426592;-0.3213296;0.1731302;0;2;0;2577;3108;454;16;-0.4182825;0.2437673;0.6177285;0.6197005;0;-4;0;963;3940;-464;2;-0.08171745;-0.06925207;-0.6509695;-0.7515085;-1;0;0;893;4002;-441;8;0.333795;-0.6468515;-0.2534626;-0.6371191;0;0;0;361;3059;2637;0.6710315;2.451872;1.19736;0.6768547;2.982554;1.07101;0.6819683;3.448554;0.9579809;0.7164271;4.172286;1.074118;0.4736274;4.512288;1.088082;0.1256482;4.380238;1.128237;-0.5438503;4.896913;0.749889;0.36487;4.654263;0.8645425;0.9933827;4.487544;1.088081;1.274916;4.325523;1.128236;1.778351;3.539569;1.367202;0.8968417;3.25196;1.562163;0.3587709;2.409257;1.200452;0.2134484;1.305222;0.2513224;0;0;0;0.3587709;2.409257;1.200452;0.2134484;1.305222;0.2513224;0;0;0
233934.9907;NotLabelled;16384;0.735208;0.07756232;-0.4252077;0.5221606;1;0;0;2874;-2284;1721;65536;0.1980609;-0.3961219;0.8948687;0.05540166;0;0;0;2871;1031;-2802;8192;0.02631579;-0.3725762;-0.770453;-0.5166205;0;1;0;2246;3391;703;32768;-0.6578947;0.1080332;0.1094183;0.7372456;0;0;0;3865;1251;400;256;0.5138504;-0.5795882;0.3961219;0.4930748;0;0;0;209;4022;-649;128;0.6461838;-0.601108;0.265928;0.3878116;0;0;0;-809;4059;122;4;0.6736189;-0.6426592;-0.3213296;0.1731302;0;2;0;2577;3108;454;16;-0.4182825;0.2437673;0.6177285;0.6197005;0;-4;0;963;3940;-464;2;-0.08171745;-0.06925207;-0.6509695;-0.7515085;-1;0;0;893;4002;-441;8;0.333795;-0.6468515;-0.2534626;-0.6371191;0;0;0;361;3059;2637;0.6710315;2.451872;1.19736;0.6768547;2.982554;1.07101;0.6819683;3.448554;0.9579809;0.7164271;4.172286;1.074118;0.4736274;4.512288;1.088082;0.1256482;4.380238;1.128237;-0.5438503;4.896913;0.749889;0.36487;4.654263;0.8645425;0.9933827;4.487544;1.088081;1.274916;4.325523;1.128236;1.778351;3.539569;1.367202;0.8968417;3.25196;1.562163;0.3587709;2.409257;1.200452;0.2134484;1.305222;0.2513224;0;0;0;0.3587709;2.409257;1.200452;0.2134484;1.305222;0.2513224;0;0;0
233956.009;NotLabelled;16384;0.735208;0.07756232;-0.4252077;0.5221606;1;0;0;2874;-2284;1721;65536;0.1980609;-0.3961219;0.8948687;0.05540166;0;0;0;2871;1031;-2802;8192;0.02631579;-0.3725762;-0.770453;-0.5166205;0;1;0;2246;3391;703;32768;-0.6578947;0.1080332;0.1094183;0.7372456;0;0;0;3865;1251;400;256;0.5138504;-0.5795882;0.3961219;0.4930748;0;0;0;209;4022;-649;128;0.6461838;-0.601108;0.265928;0.3878116;0;0;0;-809;4059;122;4;0.6736189;-0.6426592;-0.3213296;0.1731302;0;2;0;2577;3108;454;16;-0.4182825;0.2437673;0.6177285;0.6197005;0;-4;0;963;3940;-464;2;-0.08171745;-0.06925207;-0.6509695;-0.7515085;-1;0;0;893;4002;-441;8;0.333795;-0.6468515;-0.2534626;-0.6371191;0;0;0;361;3059;2637;0.6710315;2.451872;1.19736;0.6768547;2.982554;1.07101;0.6819683;3.448554;0.9579809;0.7164271;4.172286;1.074118;0.4736274;4.512288;1.088082;0.1256482;4.380238;1.128237;-0.5438503;4.896913;0.749889;0.36487;4.654263;0.8645425;0.9933827;4.487544;1.088081;1.274916;4.325523;1.128236;1.778351;3.539569;1.367202;0.8968417;3.25196;1.562163;0.3587709;2.409257;1.200452;0.2134484;1.305222;0.2513224;0;0;0;0.3587709;2.409257;1.200452;0.2134484;1.305222;0.2513224;0;0;0
233976.9683;NotLabelled;16384;0.735208;0.07756232;-0.4252077;0.5221606;1;0;0;2874;-2284;1721;65536;0.1980609;-0.3961219;0.8948687;0.05540166;0;0;0;2871;1031;-2802;8192;0.02631579;-0.3725762;-0.770453;-0.5166205;0;1;0;2246;3391;703;32768;-0.6578947;0.1080332;0.1094183;0.7372456;0;0;0;3865;1251;400;256;0.5138504;-0.5795882;0.3961219;0.4930748;0;0;0;209;4022;-649;128;0.6461838;-0.601108;0.265928;0.3878116;0;0;0;-809;4059;122;4;0.6736189;-0.6426592;-0.3213296;0.1731302;0;2;0;2577;3108;454;16;-0.4182825;0.2437673;0.6177285;0.6197005;0;-4;0;963;3940;-464;2;-0.08171745;-0.06925207;-0.6509695;-0.7515085;-1;0;0;893;4002;-441;8;0.333795;-0.6468515;-0.2534626;-0.6371191;0;0;0;361;3059;2637;0.6710315;2.451872;1.19736;0.6768547;2.982554;1.07101;0.6819683;3.448554;0.9579809;0.7164271;4.172286;1.074118;0.4736274;4.512288;1.088082;0.1256482;4.380238;1.128237;-0.5438503;4.896913;0.749889;0.36487;4.654263;0.8645425;0.9933827;4.487544;1.088081;1.274916;4.325523;1.128236;1.778351;3.539569;1.367202;0.8968417;3.25196;1.562163;0.3587709;2.409257;1.200452;0.2134484;1.305222;0.2513224;0;0;0;0.3587709;2.409257;1.200452;0.2134484;1.305222;0.2513224;0;0;0
233997.0253;NotLabelled;16384;0.735208;0.07756232;-0.4252077;0.5221606;1;0;0;2874;-2284;1721;65536;0.1980609;-0.3961219;0.8948687;0.05540166;0;0;0;2871;1031;-2802;8192;0.02631579;-0.3725762;-0.770453;-0.5166205;0;1;0;2246;3391;703;32768;-0.6578947;0.1080332;0.1094183;0.7372456;0;0;0;3865;1251;400;256;0.5138504;-0.5795882;0.3961219;0.4930748;0;0;0;209;4022;-649;128;0.6461838;-0.601108;0.265928;0.3878116;0;0;0;-809;4059;122;4;0.6736189;-0.6426592;-0.3213296;0.1731302;0;2;0;2577;3108;454;16;-0.4182825;0.2437673;0.6177285;0.6197005;0;-4;0;963;3940;-464;2;-0.08171745;-0.06925207;-0.6509695;-0.7515085;-1;0;0;893;4002;-441;8;0.333795;-0.6468515;-0.2534626;-0.6371191;0;0;0;361;3059;2637;0.6710315;2.451872;1.19736;0.6768547;2.982554;1.07101;0.6819683;3.448554;0.9579809;0.7164271;4.172286;1.074118;0.4736274;4.512288;1.088082;0.1256482;4.380238;1.128237;-0.5438503;4.896913;0.749889;0.36487;4.654263;0.8645425;0.9933827;4.487544;1.088081;1.274916;4.325523;1.128236;1.778351;3.539569;1.367202;0.8968417;3.25196;1.562163;0.3587709;2.409257;1.200452;0.2134484;1.305222;0.2513224;0;0;0;0.3587709;2.409257;1.200452;0.2134484;1.305222;0.2513224;0;0;0
234017.9935;NotLabelled;16384;0.735208;0.07756232;-0.4252077;0.5221606;1;0;0;2874;-2284;1721;65536;0.1980609;-0.3961219;0.8948687;0.05540166;0;0;0;2871;1031;-2802;8192;0.02631579;-0.3725762;-0.770453;-0.5166205;0;1;0;2246;3391;703;32768;-0.6578947;0.1080332;0.1094183;0.7372456;0;0;0;3865;1251;400;256;0.5138504;-0.5795882;0.3961219;0.4930748;0;0;0;209;4022;-649;128;0.6461838;-0.601108;0.265928;0.3878116;0;0;0;-809;4059;122;4;0.6736189;-0.6426592;-0.3213296;0.1731302;0;2;0;2577;3108;454;16;-0.4182825;0.2437673;0.6177285;0.6197005;0;-4;0;963;3940;-464;2;-0.08171745;-0.06925207;-0.6509695;-0.7515085;-1;0;0;893;4002;-441;8;0.333795;-0.6468515;-0.2534626;-0.6371191;0;0;0;361;3059;2637;0.6710315;2.451872;1.19736;0.6768547;2.982554;1.07101;0.6819683;3.448554;0.9579809;0.7164271;4.172286;1.074118;0.4736274;4.512288;1.088082;0.1256482;4.380238;1.128237;-0.5438503;4.896913;0.749889;0.36487;4.654263;0.8645425;0.9933827;4.487544;1.088081;1.274916;4.325523;1.128236;1.778351;3.539569;1.367202;0.8968417;3.25196;1.562163;0.3587709;2.409257;1.200452;0.2134484;1.305222;0.2513224;0;0;0;0.3587709;2.409257;1.200452;0.2134484;1.305222;0.2513224;0;0;0
234038.3403;NotLabelled;16384;0.735208;0.07756232;-0.4252077;0.5221606;1;0;0;2874;-2284;1721;65536;0.1980609;-0.3961219;0.8948687;0.05540166;0;0;0;2871;1031;-2802;8192;0.02631579;-0.3725762;-0.770453;-0.5166205;0;1;0;2246;3391;703;32768;-0.6578947;0.1080332;0.1094183;0.7372456;0;0;0;3865;1251;400;256;0.5138504;-0.5795882;0.3961219;0.4930748;0;0;0;209;4022;-649;128;0.6461838;-0.601108;0.265928;0.3878116;0;0;0;-809;4059;122;4;0.6736189;-0.6426592;-0.3213296;0.1731302;0;2;0;2577;3108;454;16;-0.4182825;0.2437673;0.6177285;0.6197005;0;-4;0;963;3940;-464;2;-0.08171745;-0.06925207;-0.6509695;-0.7515085;-1;0;0;893;4002;-441;8;0.333795;-0.6468515;-0.2534626;-0.6371191;0;0;0;361;3059;2637;0.6710315;2.451872;1.19736;0.6768547;2.982554;1.07101;0.6819683;3.448554;0.9579809;0.7164271;4.172286;1.074118;0.4736274;4.512288;1.088082;0.1256482;4.380238;1.128237;-0.5438503;4.896913;0.749889;0.36487;4.654263;0.8645425;0.9933827;4.487544;1.088081;1.274916;4.325523;1.128236;1.778351;3.539569;1.367202;0.8968417;3.25196;1.562163;0.3587709;2.409257;1.200452;0.2134484;1.305222;0.2513224;0;0;0;0.3587709;2.409257;1.200452;0.2134484;1.305222;0.2513224;0;0;0
234058.9865;NotLabelled;16384;0.735208;0.07756232;-0.4252077;0.5221606;1;0;0;2874;-2284;1721;65536;0.1980609;-0.3961219;0.8948687;0.05540166;0;0;0;2871;1031;-2802;8192;0.02631579;-0.3725762;-0.770453;-0.5166205;0;1;0;2246;3391;703;32768;-0.6578947;0.1080332;0.1094183;0.7372456;0;0;0;3865;1251;400;256;0.5138504;-0.5795882;0.3961219;0.4930748;0;0;0;209;4022;-649;128;0.6461838;-0.601108;0.265928;0.3878116;0;0;0;-809;4059;122;4;0.6736189;-0.6426592;-0.3213296;0.1731302;0;2;0;2577;3108;454;16;-0.4182825;0.2437673;0.6177285;0.6197005;0;-4;0;963;3940;-464;2;-0.08171745;-0.06925207;-0.6509695;-0.7515085;-1;0;0;893;4002;-441;8;0.333795;-0.6468515;-0.2534626;-0.6371191;0;0;0;361;3059;2637;0.6710315;2.451872;1.19736;0.6768547;2.982554;1.07101;0.6819683;3.448554;0.9579809;0.7164271;4.172286;1.074118;0.4736274;4.512288;1.088082;0.1256482;4.380238;1.128237;-0.5438503;4.896913;0.749889;0.36487;4.654263;0.8645425;0.9933827;4.487544;1.088081;1.274916;4.325523;1.128236;1.778351;3.539569;1.367202;0.8968417;3.25196;1.562163;0.3587709;2.409257;1.200452;0.2134484;1.305222;0.2513224;0;0;0;0.3587709;2.409257;1.200452;0.2134484;1.305222;0.2513224;0;0;0
234079.1929;NotLabelled;16384;0.735208;0.07756232;-0.4252077;0.5221606;1;0;0;2874;-2284;1721;65536;0.1980609;-0.3961219;0.8948687;0.05540166;0;0;0;2871;1031;-2802;8192;0.02631579;-0.3725762;-0.770453;-0.5166205;0;1;0;2246;3391;703;32768;-0.6578947;0.1080332;0.1094183;0.7372456;0;0;0;3865;1251;400;256;0.5138504;-0.5795882;0.3961219;0.4930748;0;0;0;209;4022;-649;128;0.6461838;-0.601108;0.265928;0.3878116;0;0;0;-809;4059;122;4;0.6736189;-0.6426592;-0.3213296;0.1731302;0;2;0;2577;3108;454;16;-0.4182825;0.2437673;0.6177285;0.6197005;0;-4;0;963;3940;-464;2;-0.08171745;-0.06925207;-0.6509695;-0.7515085;-1;0;0;893;4002;-441;8;0.333795;-0.6468515;-0.2534626;-0.6371191;0;0;0;361;3059;2637;0.6710315;2.451872;1.19736;0.6768547;2.982554;1.07101;0.6819683;3.448554;0.9579809;0.7164271;4.172286;1.074118;0.4736274;4.512288;1.088082;0.1256482;4.380238;1.128237;-0.5438503;4.896913;0.749889;0.36487;4.654263;0.8645425;0.9933827;4.487544;1.088081;1.274916;4.325523;1.128236;1.778351;3.539569;1.367202;0.8968417;3.25196;1.562163;0.3587709;2.409257;1.200452;0.2134484;1.305222;0.2513224;0;0;0;0.3587709;2.409257;1.200452;0.2134484;1.305222;0.2513224;0;0;0
234100.1476;NotLabelled;16384;0.735208;0.07756232;-0.4252077;0.5221606;1;0;0;2874;-2284;1721;65536;0.1980609;-0.3961219;0.8948687;0.05540166;0;0;0;2871;1031;-2802;8192;0.02631579;-0.3725762;-0.770453;-0.5166205;0;1;0;2246;3391;703;32768;-0.6578947;0.1080332;0.1094183;0.7372456;0;0;0;3865;1251;400;256;0.5138504;-0.5795882;0.3961219;0.4930748;0;0;0;209;4022;-649;128;0.6461838;-0.601108;0.265928;0.3878116;0;0;0;-809;4059;122;4;0.6736189;-0.6426592;-0.3213296;0.1731302;0;2;0;2577;3108;454;16;-0.4182825;0.2437673;0.6177285;0.6197005;0;-4;0;963;3940;-464;2;-0.08171745;-0.06925207;-0.6509695;-0.7515085;-1;0;0;893;4002;-441;8;0.333795;-0.6468515;-0.2534626;-0.6371191;0;0;0;361;3059;2637;0.6710315;2.451872;1.19736;0.6768547;2.982554;1.07101;0.6819683;3.448554;0.9579809;0.7164271;4.172286;1.074118;0.4736274;4.512288;1.088082;0.1256482;4.380238;1.128237;-0.5438503;4.896913;0.749889;0.36487;4.654263;0.8645425;0.9933827;4.487544;1.088081;1.274916;4.325523;1.128236;1.778351;3.539569;1.367202;0.8968417;3.25196;1.562163;0.3587709;2.409257;1.200452;0.2134484;1.305222;0.2513224;0;0;0;0.3587709;2.409257;1.200452;0.2134484;1.305222;0.2513224;0;0;0
234122.011;NotLabelled;16384;0.735208;0.07756232;-0.4252077;0.5221606;1;0;0;2874;-2284;1721;65536;0.1980609;-0.3961219;0.8948687;0.05540166;0;0;0;2871;1031;-2802;8192;0.02631579;-0.3725762;-0.770453;-0.5166205;0;1;0;2246;3391;703;32768;-0.6578947;0.1080332;0.1094183;0.7372456;0;0;0;3865;1251;400;256;0.5138504;-0.5795882;0.3961219;0.4930748;0;0;0;209;4022;-649;128;0.6461838;-0.601108;0.265928;0.3878116;0;0;0;-809;4059;122;4;0.6736189;-0.6426592;-0.3213296;0.1731302;0;2;0;2577;3108;454;16;-0.4182825;0.2437673;0.6177285;0.6197005;0;-4;0;963;3940;-464;2;-0.08171745;-0.06925207;-0.6509695;-0.7515085;-1;0;0;893;4002;-441;8;0.333795;-0.6468515;-0.2534626;-0.6371191;0;0;0;361;3059;2637;0.6710315;2.451872;1.19736;0.6768547;2.982554;1.07101;0.6819683;3.448554;0.9579809;0.7164271;4.172286;1.074118;0.4736274;4.512288;1.088082;0.1256482;4.380238;1.128237;-0.5438503;4.896913;0.749889;0.36487;4.654263;0.8645425;0.9933827;4.487544;1.088081;1.274916;4.325523;1.128236;1.778351;3.539569;1.367202;0.8968417;3.25196;1.562163;0.3587709;2.409257;1.200452;0.2134484;1.305222;0.2513224;0;0;0;0.3587709;2.409257;1.200452;0.2134484;1.305222;0.2513224;0;0;0
234142.9972;NotLabelled;16384;0.735208;0.07756232;-0.4252077;0.5221606;1;0;0;2874;-2284;1721;65536;0.1980609;-0.3961219;0.8948687;0.05540166;0;0;0;2871;1031;-2802;8192;0.02631579;-0.3725762;-0.770453;-0.5166205;0;1;0;2246;3391;703;32768;-0.6578947;0.1080332;0.1094183;0.7372456;0;0;0;3865;1251;400;256;0.5138504;-0.5795882;0.3961219;0.4930748;0;0;0;209;4022;-649;128;0.6461838;-0.601108;0.265928;0.3878116;0;0;0;-809;4059;122;4;0.6736189;-0.6426592;-0.3213296;0.1731302;0;2;0;2577;3108;454;16;-0.4182825;0.2437673;0.6177285;0.6197005;0;-4;0;963;3940;-464;2;-0.08171745;-0.06925207;-0.6509695;-0.7515085;-1;0;0;893;4002;-441;8;0.333795;-0.6468515;-0.2534626;-0.6371191;0;0;0;361;3059;2637;0.6710315;2.451872;1.19736;0.6768547;2.982554;1.07101;0.6819683;3.448554;0.9579809;0.7164271;4.172286;1.074118;0.4736274;4.512288;1.088082;0.1256482;4.380238;1.128237;-0.5438503;4.896913;0.749889;0.36487;4.654263;0.8645425;0.9933827;4.487544;1.088081;1.274916;4.325523;1.128236;1.778351;3.539569;1.367202;0.8968417;3.25196;1.562163;0.3587709;2.409257;1.200452;0.2134484;1.305222;0.2513224;0;0;0;0.3587709;2.409257;1.200452;0.2134484;1.305222;0.2513224;0;0;0
234163.1306;NotLabelled;16384;0.735208;0.07756232;-0.4252077;0.5221606;1;0;0;2874;-2284;1721;65536;0.1980609;-0.3961219;0.8948687;0.05540166;0;0;0;2871;1031;-2802;8192;0.02631579;-0.3725762;-0.770453;-0.5166205;0;1;0;2246;3391;703;32768;-0.6578947;0.1080332;0.1094183;0.7372456;0;0;0;3865;1251;400;256;0.5138504;-0.5795882;0.3961219;0.4930748;0;0;0;209;4022;-649;128;0.6461838;-0.601108;0.265928;0.3878116;0;0;0;-809;4059;122;4;0.6736189;-0.6426592;-0.3213296;0.1731302;0;2;0;2577;3108;454;16;-0.4182825;0.2437673;0.6177285;0.6197005;0;-4;0;963;3940;-464;2;-0.08171745;-0.06925207;-0.6509695;-0.7515085;-1;0;0;893;4002;-441;8;0.333795;-0.6468515;-0.2534626;-0.6371191;0;0;0;361;3059;2637;0.6710315;2.451872;1.19736;0.6768547;2.982554;1.07101;0.6819683;3.448554;0.9579809;0.7164271;4.172286;1.074118;0.4736274;4.512288;1.088082;0.1256482;4.380238;1.128237;-0.5438503;4.896913;0.749889;0.36487;4.654263;0.8645425;0.9933827;4.487544;1.088081;1.274916;4.325523;1.128236;1.778351;3.539569;1.367202;0.8968417;3.25196;1.562163;0.3587709;2.409257;1.200452;0.2134484;1.305222;0.2513224;0;0;0;0.3587709;2.409257;1.200452;0.2134484;1.305222;0.2513224;0;0;0
234184.139;NotLabelled;16384;0.735208;0.07756232;-0.4252077;0.5221606;1;0;0;2874;-2284;1721;65536;0.1980609;-0.3961219;0.8948687;0.05540166;0;0;0;2871;1031;-2802;8192;0.02631579;-0.3725762;-0.770453;-0.5166205;0;1;0;2246;3391;703;32768;-0.6578947;0.1080332;0.1094183;0.7372456;0;0;0;3865;1251;400;256;0.5138504;-0.5795882;0.3961219;0.4930748;0;0;0;209;4022;-649;128;0.6461838;-0.601108;0.265928;0.3878116;0;0;0;-809;4059;122;4;0.6736189;-0.6426592;-0.3213296;0.1731302;0;2;0;2577;3108;454;16;-0.4182825;0.2437673;0.6177285;0.6197005;0;-4;0;963;3940;-464;2;-0.08171745;-0.06925207;-0.6509695;-0.7515085;-1;0;0;893;4002;-441;8;0.333795;-0.6468515;-0.2534626;-0.6371191;0;0;0;361;3059;2637;0.6710315;2.451872;1.19736;0.6768547;2.982554;1.07101;0.6819683;3.448554;0.9579809;0.7164271;4.172286;1.074118;0.4736274;4.512288;1.088082;0.1256482;4.380238;1.128237;-0.5438503;4.896913;0.749889;0.36487;4.654263;0.8645425;0.9933827;4.487544;1.088081;1.274916;4.325523;1.128236;1.778351;3.539569;1.367202;0.8968417;3.25196;1.562163;0.3587709;2.409257;1.200452;0.2134484;1.305222;0.2513224;0;0;0;0.3587709;2.409257;1.200452;0.2134484;1.305222;0.2513224;0;0;0
234205.0672;NotLabelled;16384;0.735208;0.07756232;-0.4252077;0.5221606;1;0;0;2874;-2284;1721;65536;0.1980609;-0.3961219;0.8948687;0.05540166;0;0;0;2871;1031;-2802;8192;0.02631579;-0.3725762;-0.770453;-0.5166205;0;1;0;2246;3391;703;32768;-0.6578947;0.1080332;0.1094183;0.7372456;0;0;0;3865;1251;400;256;0.5138504;-0.5795882;0.3961219;0.4930748;0;0;0;209;4022;-649;128;0.6461838;-0.601108;0.265928;0.3878116;0;0;0;-809;4059;122;4;0.6736189;-0.6426592;-0.3213296;0.1731302;0;2;0;2577;3108;454;16;-0.4182825;0.2437673;0.6177285;0.6197005;0;-4;0;963;3940;-464;2;-0.08171745;-0.06925207;-0.6509695;-0.7515085;-1;0;0;893;4002;-441;8;0.333795;-0.6468515;-0.2534626;-0.6371191;0;0;0;361;3059;2637;0.6710315;2.451872;1.19736;0.6768547;2.982554;1.07101;0.6819683;3.448554;0.9579809;0.7164271;4.172286;1.074118;0.4736274;4.512288;1.088082;0.1256482;4.380238;1.128237;-0.5438503;4.896913;0.749889;0.36487;4.654263;0.8645425;0.9933827;4.487544;1.088081;1.274916;4.325523;1.128236;1.778351;3.539569;1.367202;0.8968417;3.25196;1.562163;0.3587709;2.409257;1.200452;0.2134484;1.305222;0.2513224;0;0;0;0.3587709;2.409257;1.200452;0.2134484;1.305222;0.2513224;0;0;0
234225.9931;NotLabelled;16384;0.735208;0.07756232;-0.4252077;0.5221606;1;0;0;2874;-2284;1721;65536;0.1980609;-0.3961219;0.8948687;0.05540166;0;0;0;2871;1031;-2802;8192;0.02631579;-0.3725762;-0.770453;-0.5166205;0;1;0;2246;3391;703;32768;-0.6578947;0.1080332;0.1094183;0.7372456;0;0;0;3865;1251;400;256;0.5138504;-0.5795882;0.3961219;0.4930748;0;0;0;209;4022;-649;128;0.6461838;-0.601108;0.265928;0.3878116;0;0;0;-809;4059;122;4;0.6736189;-0.6426592;-0.3213296;0.1731302;0;2;0;2577;3108;454;16;-0.4182825;0.2437673;0.6177285;0.6197005;0;-4;0;963;3940;-464;2;-0.08171745;-0.06925207;-0.6509695;-0.7515085;-1;0;0;893;4002;-441;8;0.333795;-0.6468515;-0.2534626;-0.6371191;0;0;0;361;3059;2637;0.6710315;2.451872;1.19736;0.6768547;2.982554;1.07101;0.6819683;3.448554;0.9579809;0.7164271;4.172286;1.074118;0.4736274;4.512288;1.088082;0.1256482;4.380238;1.128237;-0.5438503;4.896913;0.749889;0.36487;4.654263;0.8645425;0.9933827;4.487544;1.088081;1.274916;4.325523;1.128236;1.778351;3.539569;1.367202;0.8968417;3.25196;1.562163;0.3587709;2.409257;1.200452;0.2134484;1.305222;0.2513224;0;0;0;0.3587709;2.409257;1.200452;0.2134484;1.305222;0.2513224;0;0;0
234246.4338;NotLabelled;16384;0.7345501;0.07617728;-0.4265928;0.5221606;1;-1;0;2900;-2310;1757;65536;0.199446;-0.3961219;0.8945611;0.05540166;1;0;-1;2865;1091;-2850;8192;0.02631579;-0.3725762;-0.770453;-0.5166205;0;-1;0;2212;3347;721;32768;-0.6578947;0.1080332;0.1094183;0.7372456;0;0;0;3869;1305;468;256;0.5138504;-0.5795882;0.3961219;0.4930748;0;1;0;183;3986;-657;128;0.6461838;-0.601108;0.265928;0.3878116;-1;0;0;-799;4041;150;4;0.6736189;-0.6426592;-0.3213296;0.1731302;1;-2;-1;2515;3060;432;16;-0.4182825;0.2437673;0.6177285;0.6197005;1;-7;0;881;3914;-438;2;-0.08171745;-0.06925207;-0.6509695;-0.7515085;-1;1;0;925;3972;-583;8;0.333795;-0.6482128;-0.2534626;-0.6357341;0;1;0;411;3089;2685;0.6710315;2.451872;1.19736;0.6768547;2.982554;1.07101;0.6819683;3.448554;0.9579809;0.7164271;4.172286;1.074118;0.4736274;4.512288;1.088082;0.1256482;4.380238;1.128237;-0.5426342;4.896273;0.7468786;0.3655105;4.652616;0.863928;0.9933827;4.487544;1.088081;1.274916;4.325523;1.128236;1.778351;3.539569;1.367202;0.8968417;3.25196;1.562163;0.3587709;2.409257;1.200452;0.2134484;1.305222;0.2513224;0;0;0;0.3587709;2.409257;1.200452;0.2134484;1.305222;0.2513224;0;0;0
234268.0015;NotLabelled;16384;0.7345501;0.07617728;-0.4265928;0.5221606;1;0;0;2842;-2328;1789;65536;0.199446;-0.3961219;0.8945611;0.05540166;1;0;-1;2841;1057;-2746;8192;0.02631579;-0.3725762;-0.770453;-0.5166205;0;0;0;2292;3409;737;32768;-0.6578947;0.1080332;0.1094183;0.7372456;0;0;0;3859;1219;392;256;0.5138504;-0.5807637;0.3961219;0.4916897;0;0;0;145;4006;-643;128;0.6461838;-0.601108;0.265928;0.3878116;0;1;0;-753;4091;112;4;0.6736189;-0.6426592;-0.3213296;0.1731302;0;-1;-1;2597;3104;446;16;-0.4196676;0.2451524;0.6163435;0.6195968;1;-8;0;1099;3970;-438;2;-0.08171745;-0.06925207;-0.6509695;-0.7515085;0;0;0;833;3954;-513;8;0.333795;-0.6482128;-0.2534626;-0.6357341;0;-2;-1;463;3093;2647;0.6767653;2.451863;1.194327;0.6825887;2.982545;1.067977;0.6877022;3.448545;0.9549475;0.7204549;4.172358;1.071072;0.4768546;4.511786;1.08503;0.1291876;4.378918;1.125187;-0.5401469;4.894953;0.7456786;0.3683181;4.651296;0.8602167;0.9966667;4.488268;1.085029;1.278581;4.326913;1.125187;1.782675;3.540959;1.36276;0.9017081;3.253349;1.560157;0.3645048;2.409248;1.197419;0.2165583;1.305213;0.2486947;0;0;0;0.3645048;2.409248;1.197419;0.2165583;1.305213;0.2486947;0;0;0
234288.9897;NotLabelled;16384;0.7345501;0.07617728;-0.4265928;0.5221606;1;0;0;2836;-2274;1705;65536;0.199446;-0.3961219;0.8945611;0.05540166;0;1;-1;2775;1105;-2818;8192;0.02631579;-0.3725762;-0.770453;-0.5166205;0;1;-1;2264;3319;741;32768;-0.6578947;0.1080332;0.1094183;0.7372456;0;0;0;3813;1285;472;256;0.5138504;-0.5795882;0.3961219;0.4930748;0;0;0;153;4026;-637;128;0.6461838;-0.601108;0.265928;0.3878116;0;2;0;-673;4061;132;4;0.6736189;-0.6426592;-0.3213296;0.1731302;-3;0;-1;2621;3108;434;16;-0.4210526;0.2451524;0.6163435;0.6186563;0;-2;1;1043;3988;-464;2;-0.08171745;-0.06925207;-0.6509695;-0.7515085;0;0;0;859;3978;-551;8;0.333795;-0.6482128;-0.2534626;-0.6357341;0;-1;0;349;3115;2635;0.6773576;2.451216;1.197186;0.6831809;2.981899;1.070835;0.6882944;3.447899;0.9578061;0.7230742;4.17163;1.073848;0.4803141;4.511632;1.088483;0.1324473;4.379582;1.1296;-0.5367155;4.897201;0.7519485;0.3717495;4.653543;0.8664864;1.000067;4.486888;1.087045;1.281711;4.324867;1.126421;1.784605;3.537723;1.362591;0.9036384;3.250114;1.559988;0.365097;2.408601;1.200277;0.2171505;1.304567;0.2515534;0;0;0;0.365097;2.408601;1.200277;0.2171505;1.304567;0.2515534;0;0;0
234309.1275;NotLabelled;16384;0.7345501;0.07617728;-0.4265928;0.5221606;2;-2;0;2832;-2272;1735;65536;0.200831;-0.3961219;0.8942511;0.05540166;2;1;-1;2793;1079;-2858;8192;0.02631579;-0.3725762;-0.770453;-0.5166205;0;0;0;2226;3387;699;32768;-0.6578947;0.1080332;0.1094183;0.7372456;0;0;0;3843;1309;430;256;0.5138504;-0.5786392;0.3975069;0.4930748;0;0;-1;215;4046;-659;128;0.6461838;-0.601108;0.265928;0.3878116;-1;0;0;-683;4109;144;4;0.6736189;-0.6426592;-0.3213296;0.1731302;-1;0;-1;2643;3116;448;16;-0.4210526;0.2451524;0.6163435;0.6186563;0;0;0;829;4084;-528;2;-0.08171745;-0.06925207;-0.6509695;-0.7515085;0;0;0;881;4024;-569;8;0.333795;-0.6482128;-0.2534626;-0.6357341;0;1;0;381;3077;2673;0.6713284;2.451216;1.199003;0.6771517;2.981898;1.072653;0.6822652;3.447899;0.9596236;0.7161193;4.171917;1.074141;0.4730315;4.511742;1.087372;0.1251692;4.379486;1.127858;-0.5413871;4.895522;0.743491;0.3659034;4.650856;0.8649811;0.9928076;4.487441;1.087371;1.274483;4.32575;1.127858;1.776836;3.539796;1.36909;0.8948892;3.252187;1.562064;0.359068;2.408602;1.202095;0.2158851;1.304567;0.2526404;0;0;0;0.359068;2.408602;1.202095;0.2158851;1.304567;0.2526404;0;0;0
234329.0094;NotLabelled;16384;0.733744;0.07617728;-0.4279778;0.5221606;2;-2;0;2878;-2198;1765;65536;0.200831;-0.3975069;0.8936363;0.05540166;1;1;-1;2853;977;-2786;8192;0.02631579;-0.3725762;-0.7695224;-0.5180055;0;0;0;2262;3353;717;32768;-0.6578947;0.1080332;0.1094183;0.7372456;0;0;0;3817;1261;420;256;0.5138504;-0.5786392;0.3975069;0.4930748;0;0;-1;135;4014;-613;128;0.6461838;-0.601108;0.265928;0.3878116;0;0;0;-711;4087;140;4;0.6736189;-0.6426592;-0.3213296;0.1731302;0;0;0;2741;3036;406;16;-0.4210526;0.2451524;0.6163435;0.6186563;-1;1;0;885;4012;-562;2;-0.08171745;-0.06925207;-0.6509695;-0.7515085;0;0;0;843;4024;-609;8;0.333795;-0.6482128;-0.2534626;-0.6357341;0;0;0;385;3097;2661;0.6713284;2.451216;1.199003;0.6771517;2.981898;1.072653;0.6822652;3.447899;0.9596236;0.7161193;4.171917;1.074141;0.4730315;4.511742;1.087372;0.1251692;4.379486;1.127858;-0.5403479;4.896748;0.7433392;0.366867;4.65162;0.8644572;0.9928076;4.487441;1.087371;1.274483;4.32575;1.127858;1.774874;3.538679;1.369523;0.8929277;3.25107;1.562497;0.359068;2.408602;1.202095;0.2158851;1.304567;0.2526404;0;0;0;0.359068;2.408602;1.202095;0.2158851;1.304567;0.2526404;0;0;0
234350.9974;NotLabelled;16384;0.7338865;0.07479224;-0.4279778;0.5221606;1;-1;0;2838;-2256;1777;65536;0.200831;-0.3975069;0.893721;0.05401662;1;1;-1;2831;1077;-2810;8192;0.02631579;-0.3725762;-0.770453;-0.5166205;0;2;0;2262;3377;767;32768;-0.6578947;0.1080332;0.1108033;0.7370386;1;0;-1;3837;1251;430;256;0.5138504;-0.5798165;0.3975069;0.4916897;0;1;-1;165;3958;-671;128;0.6470131;-0.601108;0.265928;0.3864266;0;2;1;-757;4049;156;4;0.6749375;-0.6412742;-0.3213296;0.1731302;-1;0;0;2587;2980;454;16;-0.4196676;0.2451524;0.6195968;0.6163435;0;2;0;809;3970;-596;2;-0.08171745;-0.06925207;-0.6509695;-0.7515085;0;1;0;791;3902;-569;8;0.333795;-0.6482128;-0.2534626;-0.6357341;0;-3;-1;455;3117;2607;0.6698329;2.4516;1.202406;0.6756532;2.982004;1.074896;0.6807641;3.447756;0.960848;0.7129081;4.171854;1.075354;0.4690183;4.511105;1.088578;0.1214694;4.378028;1.129067;-0.5457495;4.893426;0.7449954;0.3622943;4.650636;0.8646011;0.9888506;4.488031;1.088578;1.270907;4.327006;1.129067;1.774446;3.541053;1.367812;0.8932478;3.251552;1.561374;0.3575726;2.408992;1.205599;0.2065597;1.305213;0.25706;0;0;0;0.3575726;2.408992;1.205599;0.2065597;1.305213;0.25706;0;0;0
234371.1437;NotLabelled;16384;0.7338865;0.07479224;-0.4279778;0.5221606;0;-2;0;2832;-2330;1781;65536;0.200831;-0.3975069;0.893721;0.05401662;1;2;0;2829;1067;-2794;8192;0.02631579;-0.3725762;-0.770453;-0.5166205;0;2;0;2252;3343;747;32768;-0.6578947;0.1080332;0.1108033;0.7370386;1;0;0;3817;1225;464;256;0.5138504;-0.5807637;0.3961219;0.4916897;0;1;-1;211;4032;-625;128;0.6457236;-0.602493;0.265928;0.3864266;-1;1;0;-713;4071;192;4;0.6745807;-0.6412742;-0.3213296;0.1745152;-1;0;1;2553;3022;442;16;-0.4196676;0.2437673;0.620143;0.6163435;-1;1;0;861;3994;-586;2;-0.08171745;-0.06925207;-0.6509695;-0.7515085;0;-1;0;877;3974;-587;8;0.333795;-0.6487526;-0.2520775;-0.6357341;0;0;0;395;3079;2607;0.6736016;2.44898;1.206825;0.6794266;2.979812;1.081109;0.6845416;3.445948;0.968637;0.7172943;4.16976;1.084762;0.473694;4.509189;1.09872;0.126027;4.376319;1.138877;-0.5421287;4.891718;0.7564373;0.3661826;4.648928;0.8739955;0.9935061;4.48567;1.09872;1.27542;4.324314;1.138877;1.779542;3.53836;1.376391;0.8987824;3.248859;1.571939;0.361341;2.406361;1.209862;0.2077304;1.304554;0.259449;0;0;0;0.361341;2.406361;1.209862;0.2077304;1.304554;0.259449;0;0;0
234391.9847;NotLabelled;16384;0.7338865;0.07479224;-0.4279778;0.5221606;0;-2;0;2840;-2300;1829;65536;0.200831;-0.3975069;0.893721;0.05401662;1;1;-1;2821;1061;-2772;8192;0.02631579;-0.3711911;-0.7711212;-0.5166205;0;2;0;2198;3255;749;32768;-0.6578947;0.1080332;0.1108033;0.7370386;2;0;0;3813;1267;442;256;0.5138504;-0.5807637;0.3961219;0.4916897;0;1;-1;141;4048;-625;128;0.6457236;-0.602493;0.265928;0.3864266;0;4;1;-695;4123;122;4;0.6732613;-0.6426592;-0.3213296;0.1745152;0;-3;0;2655;3066;370;16;-0.4196676;0.2451524;0.6195968;0.6163435;-1;-1;0;863;3966;-572;2;-0.08033241;-0.06925207;-0.6509695;-0.7516579;0;-1;0;885;3942;-591;8;0.333795;-0.6487526;-0.2520775;-0.6357341;-1;0;0;385;3115;2625;0.6678063;2.449891;1.204503;0.6736311;2.980724;1.078787;0.6787462;3.446859;0.9663152;0.711499;4.170672;1.082441;0.4678986;4.5101;1.096398;0.1202317;4.377231;1.136556;-0.5478798;4.892631;0.754038;0.3604316;4.649839;0.8715963;0.9877107;4.486582;1.096398;1.269625;4.325226;1.136555;1.773427;3.538668;1.372741;0.8926677;3.249166;1.568289;0.3555457;2.407273;1.20754;0.2071389;1.305213;0.2565937;0;0;0;0.3555457;2.407273;1.20754;0.2071389;1.305213;0.2565937;0;0;0
234412.0072;NotLabelled;16384;0.7328991;0.07479224;-0.4279778;0.5235457;0;-1;0;2892;-2252;1805;65536;0.200831;-0.3975069;0.893721;0.05401662;1;2;0;2863;1013;-2840;8192;0.02493075;-0.3711911;-0.7711672;-0.5166205;0;2;0;2204;3297;697;32768;-0.6578947;0.1080332;0.1121884;0.7368291;1;0;-1;3821;1209;372;256;0.5138504;-0.5819334;0.3961219;0.4903047;0;1;-1;149;3972;-669;128;0.6471184;-0.602493;0.2645429;0.3850415;0;5;0;-783;4061;158;4;0.6732613;-0.6426592;-0.3213296;0.1745152;0;0;0;2677;3032;420;16;-0.4196676;0.2451524;0.6195968;0.6163435;-1;-1;0;879;3952;-540;2;-0.08033241;-0.06925207;-0.6509695;-0.7516579;0;0;0;871;4002;-585;8;0.333795;-0.6487526;-0.2520775;-0.6357341;-1;-1;0;473;3177;2625;0.6711372;2.449884;1.203417;0.6769591;2.980443;1.076551;0.6820713;3.446333;0.9630681;0.7131214;4.170223;1.079181;0.4687233;4.509078;1.093133;0.12137;4.375391;1.133294;-0.5475935;4.891754;0.7535741;0.3610389;4.648963;0.8686247;0.9885892;4.486782;1.093133;1.270882;4.326091;1.133293;1.775884;3.540479;1.370068;0.8958762;3.249088;1.566194;0.3588768;2.407272;1.206554;0.2078459;1.305213;0.2560208;0;0;0;0.3588768;2.407272;1.206554;0.2078459;1.305213;0.2560208;0;0;0
234432.1421;NotLabelled;16384;0.733039;0.0734072;-0.4279778;0.5235457;0;-1;0;2896;-2278;1739;65536;0.200831;-0.3975069;0.893721;0.05401662;0;1;0;2881;1069;-2776;8192;0.02631579;-0.3711911;-0.7711212;-0.5166205;0;2;0;2186;3333;773;32768;-0.6578947;0.1080332;0.1121884;0.7368291;1;0;0;3837;1237;414;256;0.5138504;-0.5819334;0.3961219;0.4903047;0;0;0;107;4050;-661;128;0.6471184;-0.602493;0.2645429;0.3850415;-1;5;0;-775;4113;126;4;0.6732613;-0.6426592;-0.3213296;0.1745152;0;2;0;2645;3142;382;16;-0.4196676;0.2451524;0.6195968;0.6163435;0;-3;0;895;3960;-546;2;-0.08033241;-0.06786703;-0.6509695;-0.7517842;0;2;0;945;4038;-487;8;0.333795;-0.6487526;-0.2520775;-0.6357341;0;0;0;353;3109;2699;0.6711372;2.449884;1.203417;0.6769591;2.980443;1.076551;0.6820713;3.446333;0.9630681;0.7131214;4.170223;1.079181;0.4687233;4.509078;1.093133;0.12137;4.375391;1.133294;-0.5482631;4.889891;0.7522289;0.3603691;4.647101;0.8672796;0.9885892;4.486782;1.093133;1.270882;4.326091;1.133293;1.775334;3.539532;1.368088;0.8953269;3.248141;1.564213;0.3588768;2.407272;1.206554;0.2078459;1.305213;0.2560208;0;0;0;0.3588768;2.407272;1.206554;0.2078459;1.305213;0.2560208;0;0;0
234453.0675;NotLabelled;16384;0.733039;0.0734072;-0.4279778;0.5235457;0;-2;0;2944;-2344;1817;65536;0.2022161;-0.3975069;0.8934087;0.05401662;0;1;0;2875;1067;-2824;8192;0.02631579;-0.3711911;-0.7711212;-0.5166205;0;2;0;2204;3383;795;32768;-0.6578947;0.1080332;0.1121884;0.7368291;0;0;0;3895;1245;436;256;0.5138504;-0.5819334;0.3961219;0.4903047;0;1;-1;183;4112;-649;128;0.645826;-0.6038781;0.2645429;0.3850415;0;4;0;-721;4133;166;4;0.6745807;-0.6412742;-0.3213296;0.1745152;0;0;0;2623;3064;470;16;-0.4196676;0.2465374;0.619047;0.6163435;-1;-2;-1;917;3954;-466;2;-0.08171745;-0.06786703;-0.6509695;-0.7516349;0;1;-1;995;4038;-543;8;0.333795;-0.6487526;-0.2520775;-0.6357341;0;1;0;405;3077;2759;0.6756096;2.450295;1.200207;0.6814363;2.981281;1.07514;0.6865528;3.447553;0.9632373;0.7175903;4.171443;1.079353;0.4731906;4.510298;1.093279;0.1258328;4.376612;1.133402;-0.5437318;4.889816;0.7504752;0.3643102;4.646014;0.8680205;0.9930567;4.488002;1.093335;1.275345;4.327311;1.133526;1.779756;3.541553;1.371076;0.8997266;3.250162;1.567107;0.363349;2.407673;1.203187;0.2072186;1.305866;0.253186;0;0;0;0.363349;2.407673;1.203187;0.2072186;1.305866;0.253186;0;0;0
234473.1603;NotLabelled;16384;0.733039;0.0734072;-0.4279778;0.5235457;0;0;0;2866;-2312;1759;65536;0.2022161;-0.398892;0.8928739;0.05263158;1;1;0;2861;1083;-2788;8192;0.02631579;-0.3698061;-0.7717864;-0.5166205;0;1;-1;2162;3403;761;32768;-0.6578947;0.1080332;0.1121884;0.7368291;0;-1;0;3925;1281;430;256;0.5138504;-0.5819334;0.3961219;0.4903047;0;2;-1;79;4064;-615;128;0.6472147;-0.6038781;0.2631579;0.3836565;0;6;0;-725;4081;140;4;0.6745807;-0.6412742;-0.3213296;0.1745152;0;-1;0;2651;3094;406;16;-0.4196676;0.2451524;0.6195968;0.6163435;-2;8;0;969;4008;-574;2;-0.08033241;-0.06786703;-0.6509695;-0.7517842;0;-1;0;887;3982;-555;8;0.333795;-0.6487526;-0.2520775;-0.6357341;0;0;0;449;3053;2627;0.6763395;2.449635;1.202925;0.6821632;2.98035;1.076712;0.687277;3.446379;0.9638019;0.718327;4.170269;1.079915;0.4739289;4.509123;1.093867;0.1265756;4.375438;1.134027;-0.5430576;4.889938;0.7529631;0.3654152;4.648003;0.8710376;0.9937948;4.486828;1.093867;1.276088;4.326137;1.134027;1.780245;3.538976;1.367436;0.9002371;3.247585;1.563562;0.3640791;2.40702;1.206006;0.207846;1.305212;0.2560209;0;0;0;0.3640791;2.40702;1.206006;0.207846;1.305212;0.2560209;0;0;0
234495.1831;NotLabelled;16384;0.733039;0.0734072;-0.4279778;0.5235457;0;0;0;2896;-2266;1707;65536;0.2022161;-0.398892;0.8928739;0.05263158;1;1;0;2841;1075;-2742;8192;0.02631579;-0.3698061;-0.7717864;-0.5166205;0;0;0;2236;3457;837;32768;-0.6578947;0.1080332;0.1121884;0.7368291;0;-1;-1;3863;1317;434;256;0.5138504;-0.5830976;0.3961219;0.4889196;0;2;0;17;4070;-619;128;0.6480337;-0.6038781;0.2631579;0.3822715;0;3;1;-677;4085;126;4;0.6732613;-0.6426592;-0.3213296;0.1745152;1;-2;0;2685;3122;404;16;-0.4196676;0.2451524;0.6177285;0.6182159;-2;9;1;965;4032;-492;2;-0.08171745;-0.06786703;-0.6509695;-0.7516349;0;0;-1;861;3996;-459;8;0.333795;-0.6487526;-0.2520775;-0.6357341;0;-1;0;383;3113;2683;0.6798492;2.449895;1.197812;0.6856699;2.980336;1.070451;0.690781;3.44612;0.956534;0.7201315;4.170082;1.072636;0.4749384;4.508363;1.086583;0.1278999;4.373862;1.126745;-0.542756;4.888362;0.7474837;0.3660386;4.646428;0.8630553;0.9948554;4.487288;1.086582;1.277525;4.32726;1.126745;1.782308;3.5401;1.358798;0.9028437;3.248709;1.557346;0.3675888;2.407286;1.200991;0.2139409;1.305227;0.250878;0;0;0;0.3675888;2.407286;1.200991;0.2139409;1.305227;0.250878;0;0;0
234514.9934;NotLabelled;16384;0.733039;0.0734072;-0.4279778;0.5235457;1;-1;-1;2880;-2374;1713;65536;0.2022161;-0.398892;0.8928739;0.05263158;2;0;0;2953;1077;-2754;8192;0.02631579;-0.3698061;-0.7717864;-0.5166205;-1;0;-1;2318;3369;859;32768;-0.6578947;0.1080332;0.1121884;0.7368291;0;-1;-1;3877;1373;434;256;0.5138504;-0.5830976;0.3961219;0.4889196;0;0;-1;149;4136;-713;128;0.6467403;-0.6052631;0.2631579;0.3822715;0;0;1;-701;4149;140;4;0.6732613;-0.6426592;-0.3213296;0.1745152;-1;0;0;2729;3102;462;16;-0.4182825;0.2437673;0.6163435;0.621078;-2;7;1;845;3938;-430;2;-0.08171745;-0.06786703;-0.6509695;-0.7516349;0;0;0;961;4000;-597;8;0.333795;-0.6487526;-0.2520775;-0.6357341;0;2;0;461;3119;2683;0.6852986;2.449876;1.193306;0.6911239;2.980746;1.067748;0.6962392;3.446914;0.9554135;0.7255781;4.170877;1.071518;0.4803836;4.509157;1.085441;0.133341;4.374657;1.125568;-0.5372772;4.887865;0.7444952;0.3715058;4.64593;0.8601583;1.000301;4.488082;1.085492;1.282966;4.328054;1.125683;1.787726;3.541687;1.360457;0.9082416;3.250295;1.558918;0.3730381;2.407256;1.19633;0.219485;1.305197;0.246201;0;0;0;0.3730381;2.407256;1.19633;0.219485;1.305197;0.246201;0;0;0
234535.9807;NotLabelled;16384;0.733039;0.0734072;-0.4279778;0.5235457;2;0;0;2908;-2300;1683;65536;0.2036011;-0.398892;0.8926396;0.05124654;1;0;0;2881;1047;-2806;8192;0.02631579;-0.3698061;-0.7717864;-0.5166205;-2;0;-1;2232;3333;791;32768;-0.6592798;0.1080332;0.1121884;0.7355901;0;-1;0;3901;1371;438;256;0.5138504;-0.5830976;0.3961219;0.4889196;0;0;-1;111;4084;-707;128;0.6467403;-0.6052631;0.2631579;0.3822715;-2;-2;1;-679;4053;182;4;0.6745807;-0.6412742;-0.3213296;0.1745152;-1;4;0;2643;3032;364;16;-0.4182825;0.2437673;0.6163435;0.621078;-2;5;0;909;4012;-454;2;-0.08171745;-0.06786703;-0.6509695;-0.7516349;1;1;0;823;4018;-595;8;0.333795;-0.6487526;-0.2520775;-0.6357341;0;-1;0;409;3117;2657;0.6906195;2.449623;1.192706;0.6964447;2.980493;1.067147;0.7015601;3.446661;0.954813;0.7309105;4.170624;1.070915;0.4857175;4.508904;1.084862;0.1386789;4.374403;1.125024;-0.5320013;4.888904;0.7458056;0.3767059;4.648289;0.8647703;1.005634;4.487828;1.084861;1.288304;4.327802;1.125024;1.793102;3.540641;1.357044;0.9135234;3.24923;1.555056;0.3783589;2.407004;1.195729;0.2195098;1.305197;0.2461784;0;0;0;0.3783589;2.407004;1.195729;0.2195098;1.305197;0.2461784;0;0;0
234556.138;NotLabelled;16384;0.733039;0.0734072;-0.4279778;0.5235457;1;0;0;2924;-2314;1733;65536;0.2036011;-0.398892;0.8926396;0.05124654;2;0;0;2775;1009;-2756;8192;0.02631579;-0.3698061;-0.7717864;-0.5166205;-2;0;0;2296;3363;807;32768;-0.6592798;0.1080332;0.1121884;0.7355901;0;0;0;3875;1251;402;256;0.5138504;-0.5830976;0.3961219;0.4889196;0;0;-1;207;4052;-677;128;0.6459196;-0.6052631;0.2631579;0.3836565;-2;0;1;-721;4043;158;4;0.6742763;-0.6412742;-0.3227147;0.1731302;0;2;0;2635;3088;408;16;-0.4168975;0.2437673;0.6163435;0.6220086;-2;3;0;843;3964;-530;2;-0.08171745;-0.06786703;-0.6509695;-0.7516349;0;4;0;817;3994;-563;8;0.333795;-0.6487526;-0.2520775;-0.6357341;0;0;0;329;3079;2685;0.6874283;2.450294;1.190355;0.6932565;2.981434;1.065944;0.6983745;3.447844;0.9546184;0.7277249;4.171807;1.07072;0.4825319;4.510087;1.084667;0.1354935;4.375587;1.12483;-0.5352107;4.890087;0.7456537;0.373496;4.649472;0.8646186;1.002449;4.489012;1.084666;1.285118;4.328985;1.124829;1.789931;3.541824;1.356817;0.9103526;3.250413;1.554829;0.3751677;2.407668;1.193279;0.2189038;1.305832;0.2433333;0;0;0;0.3751677;2.407668;1.193279;0.2189038;1.305832;0.2433333;0;0;0
234576.0885;NotLabelled;16384;0.7331765;0.07202215;-0.4279778;0.5235457;1;0;-1;2828;-2204;1755;65536;0.2036011;-0.398892;0.8926396;0.05124654;1;2;0;2761;1007;-2810;8192;0.02631579;-0.3698061;-0.7717864;-0.5166205;-2;2;0;2228;3357;781;32768;-0.6592798;0.1080332;0.1135734;0.7353776;0;0;-1;3789;1185;472;256;0.5138504;-0.5830976;0.3961219;0.4889196;0;0;-1;111;4002;-661;128;0.6459196;-0.6052631;0.2631579;0.3836565;-2;1;0;-743;4029;168;4;0.6742763;-0.6412742;-0.3227147;0.1731302;0;0;0;2475;3090;406;16;-0.4168975;0.2423823;0.6163435;0.6225496;-1;4;1;831;3960;-492;2;-0.08310249;-0.06648199;-0.6509695;-0.7516068;0;3;0;859;3924;-537;8;0.333795;-0.6487526;-0.2520775;-0.6357341;0;2;0;381;3079;2641;0.6896111;2.449637;1.191901;0.6954393;2.980778;1.067491;0.7005572;3.447187;0.9561646;0.7299077;4.17115;1.072266;0.4847147;4.50943;1.086213;0.1376763;4.37493;1.126376;-0.5336699;4.887567;0.7458144;0.3750368;4.646951;0.8647792;1.004632;4.488356;1.086213;1.287301;4.328328;1.126375;1.792099;3.541168;1.358395;0.9127305;3.247871;1.554549;0.3773505;2.407012;1.194825;0.2210866;1.305175;0.2448795;0;0;0;0.3773505;2.407012;1.194825;0.2210866;1.305175;0.2448795;0;0;0
234596.9921;NotLabelled;16384;0.7331765;0.07202215;-0.4279778;0.5235457;1;-1;0;2786;-2240;1761;65536;0.2036011;-0.398892;0.8927181;0.04986149;2;2;0;2835;1007;-2734;8192;0.02631579;-0.3698061;-0.7717864;-0.5166205;0;0;0;2168;3307;727;32768;-0.6592798;0.1080332;0.1135734;0.7353776;1;0;-1;3743;1261;446;256;0.5124654;-0.5843152;0.3961219;0.4889196;0;1;-1;113;3976;-611;128;0.6467403;-0.6052631;0.2631579;0.3822715;-1;1;0;-729;4037;166;4;0.6742763;-0.6412742;-0.3227147;0.1731302;0;0;0;2553;3082;416;16;-0.4168975;0.2423823;0.6163435;0.6225496;0;1;0;951;3972;-554;2;-0.08310249;-0.06648199;-0.6509695;-0.7516068;0;-2;0;847;3954;-549;8;0.333795;-0.6473925;-0.2520775;-0.6371191;0;-3;0;419;3079;2599;0.6896577;2.449631;1.191787;0.6954831;2.980501;1.066228;0.7005984;3.446669;0.9538933;0.7282628;4.170362;1.072071;0.4822846;4.508031;1.086973;0.1355572;4.372611;1.12673;-0.5358101;4.886069;0.7473143;0.3733859;4.64779;0.867242;1.002249;4.488163;1.086942;1.285287;4.328677;1.126662;1.790097;3.541018;1.356952;0.9107371;3.247722;1.55314;0.3773971;2.407012;1.19481;0.2210962;1.305175;0.2448702;0;0;0;0.3773971;2.407012;1.19481;0.2210962;1.305175;0.2448702;0;0;0
234617.4608;NotLabelled;16384;0.7321855;0.07202215;-0.4279778;0.5249307;0;-2;0;2876;-2224;1767;65536;0.2036011;-0.400277;0.8920979;0.04986149;0;1;0;2869;999;-2778;8192;0.02631579;-0.3698061;-0.7727117;-0.5152354;0;1;0;2222;3265;729;32768;-0.6592798;0.1080332;0.1135734;0.7353776;1;0;-1;3767;1291;466;256;0.5124654;-0.5843152;0.3961219;0.4889196;0;1;-1;139;3942;-659;128;0.6459196;-0.6052631;0.2631579;0.3836565;-1;0;0;-709;4033;184;4;0.6742763;-0.6412742;-0.3227147;0.1731302;-1;0;0;2637;3008;430;16;-0.4168975;0.2423823;0.6163435;0.6225496;-1;-2;0;907;4010;-536;2;-0.08310249;-0.06648199;-0.6509695;-0.7516068;0;0;0;931;3982;-585;8;0.333795;-0.6487526;-0.2520775;-0.6357341;-1;0;0;363;3123;2619;0.6895881;2.449637;1.191908;0.6954163;2.980778;1.067497;0.7005343;3.447188;0.9561711;0.7281917;4.17088;1.07435;0.4822127;4.50855;1.089238;0.135483;4.373129;1.128974;-0.5356756;4.886733;0.7493883;0.3734359;4.647978;0.8690066;1.002177;4.488682;1.089237;1.285213;4.329195;1.128973;1.792502;3.543166;1.359391;0.9131299;3.249871;1.555528;0.3773275;2.407011;1.194832;0.221082;1.305175;0.2448833;0;0;0;0.3773275;2.407011;1.194832;0.221082;1.305175;0.2448833;0;0;0
234637.9814;NotLabelled;16384;0.7323204;0.07063711;-0.4279778;0.5249307;0;-1;-1;2930;-2240;1787;65536;0.2036011;-0.400277;0.8920979;0.04986149;0;1;1;2885;1041;-2698;8192;0.02631579;-0.3698061;-0.7727117;-0.5152354;0;2;1;2258;3297;809;32768;-0.6578947;0.1080332;0.1135734;0.7366169;1;0;-1;3827;1273;448;256;0.5124654;-0.5843152;0.3961219;0.4889196;0;0;0;131;3946;-625;128;0.6446189;-0.6066482;0.2631579;0.3836565;-1;0;0;-665;4089;190;4;0.6742763;-0.6412742;-0.3227147;0.1731302;-1;1;1;2647;3082;452;16;-0.4168975;0.2423823;0.6163435;0.6225496;0;-3;0;841;3942;-508;2;-0.08310249;-0.06648199;-0.6509695;-0.7516068;0;0;0;859;3962;-553;8;0.333795;-0.6473925;-0.2520775;-0.6371191;0;0;0;445;3089;2673;0.6895883;2.449647;1.192064;0.6954211;2.981208;1.069462;0.7005433;3.447994;0.9597239;0.7282007;4.171688;1.077903;0.4822217;4.509356;1.09279;0.1354919;4.373936;1.132527;-0.5363037;4.885678;0.7515546;0.372808;4.646923;0.8711734;1.002186;4.489488;1.09279;1.285222;4.330002;1.132526;1.792497;3.543973;1.362973;0.9132403;3.250695;1.55965;0.3773275;2.407012;1.194831;0.2210819;1.305175;0.2448831;0;0;0;0.3773275;2.407012;1.194831;0.2210819;1.305175;0.2448831;0;0;0
234659.0084;NotLabelled;16384;0.7323204;0.07063711;-0.4279778;0.5249307;0;0;-1;2898;-2186;1763;65536;0.2036011;-0.400277;0.8920979;0.04986149;0;0;1;2789;993;-2736;8192;0.02631579;-0.3698061;-0.7727117;-0.5152354;0;2;1;2206;3281;823;32768;-0.6578947;0.1080332;0.1149584;0.736402;1;0;-1;3803;1287;456;256;0.5124654;-0.5843152;0.3961219;0.4889196;0;0;0;93;4018;-669;128;0.6454412;-0.6066482;0.2631579;0.3822715;-1;0;0;-649;4085;188;4;0.6742763;-0.6412742;-0.3227147;0.1731302;-1;0;1;2563;3080;432;16;-0.4168975;0.2423823;0.6163435;0.6225496;0;-2;0;847;4020;-484;2;-0.08310249;-0.06648199;-0.6509695;-0.7516068;0;0;0;867;3950;-527;8;0.333795;-0.6473925;-0.2520775;-0.6371191;-1;0;0;433;3117;2649;0.6895882;2.449641;1.191966;0.6954182;2.980935;1.068215;0.7005377;3.447483;0.9574676;0.7281952;4.171175;1.075646;0.4822162;4.508845;1.090534;0.1354862;4.373425;1.130271;-0.5362868;4.885167;0.7492598;0.3728248;4.646412;0.8688782;1.002181;4.488977;1.090533;1.285216;4.329491;1.13027;1.792478;3.543462;1.360747;0.913439;3.248297;1.555566;0.3773276;2.407012;1.194832;0.2210819;1.305175;0.2448836;0;0;0;0.3773276;2.407012;1.194832;0.2210819;1.305175;0.2448836;0;0;0
234678.984;NotLabelled;16384;0.7323204;0.07063711;-0.4279778;0.5249307;0;0;-1;2886;-2230;1737;65536;0.2036011;-0.400277;0.8920979;0.04986149;0;0;2;2863;991;-2768;8192;0.02631579;-0.3698061;-0.7727117;-0.5152354;0;1;1;2166;3327;769;32768;-0.6578947;0.1080332;0.1149584;0.736402;0;0;0;3799;1261;444;256;0.5124654;-0.5843152;0.3961219;0.4889196;0;0;0;95;3990;-665;128;0.6454412;-0.6066482;0.2631579;0.3822715;-1;0;0;-739;4075;98;4;0.6742763;-0.6412742;-0.3227147;0.1731302;-1;-1;0;2567;3042;448;16;-0.4168975;0.2437673;0.6163435;0.6220086;0;-5;0;899;3942;-476;2;-0.08310249;-0.06509695;-0.6509695;-0.7517281;1;-1;0;839;3946;-619;8;0.333795;-0.6479301;-0.2506925;-0.6371191;-1;-2;0;463;3109;2677;0.6874056;2.450298;1.190418;0.6932356;2.981593;1.066667;0.6983551;3.44814;0.9559203;0.7260125;4.171833;1.074099;0.4800335;4.509502;1.088986;0.1333036;4.374083;1.128723;-0.5384918;4.885825;0.7477509;0.3706199;4.64707;0.8673695;0.9999979;4.489635;1.088986;1.283034;4.330149;1.128722;1.790309;3.54412;1.35917;0.91127;3.248954;1.55399;0.3751449;2.407669;1.193285;0.2188992;1.305832;0.2433366;0;0;0;0.3751449;2.407669;1.193285;0.2188992;1.305832;0.2433366;0;0;0
234699.2694;NotLabelled;16384;0.7323204;0.07063711;-0.4279778;0.5249307;0;0;-1;2828;-2200;1753;65536;0.2022161;-0.400277;0.8924893;0.04847645;0;0;2;2923;1051;-2772;8192;0.02631579;-0.3698061;-0.7727117;-0.5152354;0;0;0;2192;3401;885;32768;-0.6578947;0.1080332;0.1149584;0.736402;0;0;0;3859;1243;370;256;0.5124654;-0.5833739;0.3975069;0.4889196;0;0;0;157;3976;-679;128;0.6446189;-0.6066482;0.2631579;0.3836565;0;-1;0;-725;4125;104;4;0.6742763;-0.6412742;-0.3227147;0.1731302;-2;0;0;2607;3068;418;16;-0.4182825;0.2437673;0.6163435;0.621078;0;-8;0;883;3940;-534;2;-0.08171745;-0.06509695;-0.6509695;-0.7518799;0;-1;-1;885;4018;-519;8;0.333795;-0.6479301;-0.2506925;-0.6371191;0;-1;0;375;3061;2691;0.6852432;2.449669;1.194229;0.6910763;2.981229;1.071627;0.6961985;3.448016;0.961889;0.7232288;4.171995;1.078451;0.4769561;4.509482;1.092592;0.1303455;4.373849;1.13264;-0.539687;4.884763;0.7474751;0.3702055;4.649364;0.8678074;0.9969377;4.490067;1.092621;1.280113;4.330916;1.132705;1.786319;3.54539;1.367183;0.9068313;3.250225;1.55997;0.3729827;2.407033;1.196996;0.218935;1.305197;0.2466896;0;0;0;0.3729827;2.407033;1.196996;0.218935;1.305197;0.2466896;0;0;0
234720.0086;NotLabelled;16384;0.7323204;0.07063711;-0.4279778;0.5249307;0;-1;-2;2914;-2222;1743;65536;0.2022161;-0.400277;0.8924893;0.04847645;0;0;2;2897;1005;-2794;8192;0.02631579;-0.368421;-0.773373;-0.5152354;0;0;0;2200;3369;821;32768;-0.6578947;0.1080332;0.1149584;0.736402;0;0;0;3889;1269;454;256;0.5124654;-0.5854714;0.3961219;0.4875346;0;0;0;125;4112;-667;128;0.6440518;-0.6066482;0.2645429;0.3836565;0;-1;0;-699;4133;116;4;0.6749375;-0.6412742;-0.3213296;0.1731302;-1;-2;0;2579;3038;450;16;-0.4196676;0.2451524;0.6163435;0.6195968;0;-7;-1;651;3982;-536;2;-0.08171745;-0.06509695;-0.6509695;-0.7518799;0;0;-1;837;4004;-631;8;0.333795;-0.6479301;-0.2506925;-0.6371191;0;-1;0;521;3091;2613;0.6918256;2.451627;1.191036;0.6976584;2.983186;1.068428;0.7027806;3.449971;0.9586838;0.7287466;4.173728;1.076853;0.481979;4.510822;1.091736;0.1355666;4.374592;1.131474;-0.5372742;4.886334;0.752351;0.373216;4.650936;0.8680751;1.001988;4.492168;1.091735;1.285396;4.333345;1.131473;1.793001;3.546721;1.359145;0.9145006;3.251555;1.556382;0.3795648;2.408992;1.193804;0.2186014;1.305213;0.2469023;0;0;0;0.3795648;2.408992;1.193804;0.2186014;1.305213;0.2469023;0;0;0
234741.203;NotLabelled;16384;0.731458;0.06925207;-0.4279778;0.5263157;0;0;-2;2978;-2214;1811;65536;0.2022161;-0.400277;0.8924893;0.04847645;0;0;2;2893;947;-2828;8192;0.02493075;-0.368421;-0.7734189;-0.5152354;0;0;0;2228;3389;861;32768;-0.6578947;0.1080332;0.1149584;0.736402;0;0;0;3851;1345;444;256;0.5124654;-0.5845318;0.3975069;0.4875346;0;0;0;91;4130;-665;128;0.6440518;-0.6066482;0.2645429;0.3836565;0;-2;0;-657;4089;166;4;0.6745807;-0.6412742;-0.3213296;0.1745152;0;-4;0;2585;3058;402;16;-0.4196676;0.2465374;0.6163435;0.619047;0;-3;0;689;4006;-558;2;-0.08171745;-0.06509695;-0.6509695;-0.7518799;0;0;-1;789;3982;-587;8;0.333795;-0.6479301;-0.2506925;-0.6371191;0;-2;0;439;3115;2717;0.687404;2.450308;1.192583;0.6932369;2.981867;1.069974;0.6983591;3.448652;0.9602307;0.7237006;4.172693;1.076781;0.4766393;4.509604;1.090932;0.1303493;4.37316;1.131002;-0.5412228;4.884011;0.7484446;0.3690037;4.648612;0.8662227;0.9966648;4.491405;1.090931;1.280215;4.332919;1.131001;1.78734;3.547234;1.362947;0.9083965;3.252068;1.558201;0.3751433;2.407673;1.19535;0.2158443;1.305866;0.2458744;0;0;0;0.3751433;2.407673;1.19535;0.2158443;1.305866;0.2458744;0;0;0
234761.3394;NotLabelled;16384;0.731458;0.06925207;-0.4279778;0.5263157;0;0;-1;2984;-2176;1753;65536;0.2022161;-0.400277;0.8924893;0.04847645;0;0;2;2889;997;-2844;8192;0.02493075;-0.368421;-0.7734189;-0.5152354;0;0;0;2216;3373;851;32768;-0.6578947;0.1080332;0.1149584;0.736402;-1;0;0;3879;1287;458;256;0.5124654;-0.5833739;0.3975069;0.4889196;-1;-1;0;75;4046;-643;128;0.6440518;-0.6066482;0.2645429;0.3836565;0;-3;0;-687;4089;144;4;0.6745807;-0.6412742;-0.3213296;0.1745152;0;-3;0;2611;3052;362;16;-0.4196676;0.2465374;0.6163435;0.619047;1;-2;0;799;4002;-418;2;-0.08171745;-0.06509695;-0.6509695;-0.7518799;0;-2;0;881;3928;-613;8;0.333795;-0.6479301;-0.2506925;-0.6371191;0;0;0;449;3065;2681;0.6841161;2.450308;1.193609;0.689949;2.981866;1.071;0.695071;3.448652;0.9612567;0.7221079;4.17263;1.077817;0.4758361;4.510118;1.091972;0.1292276;4.374485;1.13204;-0.5421555;4.885336;0.7491515;0.3677438;4.649938;0.8694321;0.9958177;4.490702;1.091972;1.278996;4.331552;1.13204;1.786005;3.545866;1.364235;0.9065292;3.2507;1.557072;0.3718555;2.407672;1.196376;0.2151676;1.305865;0.2464668;0;0;0;0.3718555;2.407672;1.196376;0.2151676;1.305865;0.2464668;0;0;0
234781.9955;NotLabelled;16384;0.731458;0.06925207;-0.4279778;0.5263157;0;0;-1;3032;-2250;1745;65536;0.2022161;-0.400277;0.8925634;0.04709141;0;0;1;2927;967;-2800;8192;0.02493075;-0.368421;-0.7734189;-0.5152354;0;0;0;2198;3361;877;32768;-0.6578947;0.1080332;0.1149584;0.736402;-1;0;0;3855;1345;422;256;0.5124654;-0.5833739;0.3975069;0.4889196;0;-1;0;123;4048;-691;128;0.6440518;-0.6066482;0.2645429;0.3836565;0;-3;0;-707;4123;146;4;0.6739206;-0.6426592;-0.3199446;0.1745152;0;0;0;2679;3138;410;16;-0.4196676;0.2451524;0.6163435;0.6195968;1;3;2;763;4012;-458;2;-0.08171745;-0.06509695;-0.6509695;-0.7518799;0;-5;0;961;3986;-563;8;0.333795;-0.6479301;-0.2506925;-0.6371191;0;-1;0;443;3109;2603;0.6832172;2.451855;1.193084;0.6890501;2.983414;1.070475;0.6941721;3.4502;0.9607314;0.7212089;4.174178;1.077292;0.4749372;4.511665;1.091447;0.1283287;4.376032;1.131515;-0.5430544;4.886884;0.7486264;0.3673126;4.653821;0.8699105;0.9949186;4.49225;1.091446;1.278097;4.3331;1.131515;1.785107;3.547414;1.36371;0.9056302;3.252248;1.556546;0.3709565;2.40922;1.195851;0.2173625;1.305213;0.2479928;0;0;0;0.3709565;2.40922;1.195851;0.2173625;1.305213;0.2479928;0;0;0
234802.9784;NotLabelled;16384;0.7322667;0.06925207;-0.4265928;0.5263157;0;0;-1;2962;-2194;1775;65536;0.200831;-0.400277;0.892876;0.04709141;0;0;1;2917;995;-2824;8192;0.02493075;-0.368421;-0.7734189;-0.5152354;-1;-1;0;2184;3351;785;32768;-0.6578947;0.1080332;0.1149584;0.736402;-2;1;0;3877;1225;438;256;0.5124654;-0.5833739;0.3975069;0.4889196;-1;-2;0;123;4114;-637;128;0.6440518;-0.6066482;0.2645429;0.3836565;0;-4;0;-781;4139;92;4;0.6739206;-0.6426592;-0.3199446;0.1745152;0;1;0;2651;3108;482;16;-0.4196676;0.2451524;0.6163435;0.6195968;2;5;1;1027;3994;-386;2;-0.08171745;-0.06648199;-0.6509695;-0.7517586;1;-3;0;879;4008;-623;8;0.33518;-0.6477495;-0.2493075;-0.6371191;0;-3;0;487;3121;2655;0.6832172;2.451855;1.193084;0.6890501;2.983414;1.070475;0.6941721;3.4502;0.9607314;0.7212089;4.174178;1.077292;0.4749372;4.511665;1.091447;0.1283287;4.376032;1.131515;-0.5449462;4.885636;0.7502898;0.3659976;4.653596;0.8691801;0.9949186;4.49225;1.091446;1.278097;4.3331;1.131515;1.785107;3.547414;1.36371;0.9056302;3.252248;1.556546;0.3709565;2.40922;1.195851;0.2173625;1.305213;0.2479928;0;0;0;0.3709565;2.40922;1.195851;0.2173625;1.305213;0.2479928;0;0;0
234823.0454;NotLabelled;16384;0.7322667;0.06925207;-0.4265928;0.5263157;0;1;-1;2954;-2272;1811;65536;0.200831;-0.400277;0.892876;0.04709141;0;-1;2;2967;1037;-2814;8192;0.02493075;-0.368421;-0.7734189;-0.5152354;0;-2;0;2118;3335;787;32768;-0.6578947;0.1080332;0.1149584;0.736402;-3;0;0;3941;1217;424;256;0.5124654;-0.5833739;0.3975069;0.4889196;-1;-1;1;131;4072;-653;128;0.643958;-0.6052631;0.265928;0.3850415;0;-3;-1;-785;4121;148;4;0.6752387;-0.6412742;-0.3199446;0.1745152;-1;4;0;2595;3072;492;16;-0.4182825;0.2437673;0.6177285;0.6197005;2;12;1;749;3986;-538;2;-0.08033241;-0.06648199;-0.6495845;-0.7531048;0;0;0;939;4050;-571;8;0.333795;-0.6484643;-0.2493075;-0.6371191;0;4;0;341;3061;2617;0.6860479;2.451602;1.194502;0.6918793;2.983009;1.071233;0.6969998;3.449657;0.9609088;0.7240406;4.173635;1.077469;0.4777692;4.511123;1.091631;0.1311621;4.37549;1.131711;-0.5421331;4.885568;0.751155;0.3688149;4.653527;0.8700156;0.9977508;4.491707;1.091614;1.28093;4.332557;1.131673;1.787952;3.546584;1.362865;0.9084821;3.251418;1.55573;0.3737873;2.40897;1.197327;0.2149615;1.305221;0.2500299;0;0;0;0.3737873;2.40897;1.197327;0.2149615;1.305221;0.2500299;0;0;0
234842.9979;NotLabelled;16384;0.7332602;0.06925207;-0.4265928;0.5249307;0;4;-1;2890;-2218;1801;65536;0.199446;-0.398892;0.8937318;0.04847645;-1;-2;2;2809;989;-2822;8192;0.02631579;-0.3698061;-0.7727117;-0.5152354;0;-3;0;2200;3335;761;32768;-0.6578947;0.1080332;0.1135734;0.7366169;-3;0;1;3821;1277;450;256;0.5124654;-0.5824277;0.398892;0.4889196;-2;0;1;171;4034;-651;128;0.6431278;-0.6052631;0.265928;0.3864266;0;-2;0;-743;4095;174;4;0.6752387;-0.6412742;-0.3199446;0.1745152;1;0;0;2575;3012;386;16;-0.4168975;0.2396122;0.6177285;0.6222491;2;10;2;1113;3932;-586;2;-0.08033241;-0.06648199;-0.6495845;-0.7531048;0;1;0;793;3978;-645;8;0.33518;-0.6477495;-0.2493075;-0.6371191;0;-1;0;477;3071;2677;0.6891361;2.450275;1.197298;0.6949703;2.981948;1.075186;0.7000936;3.448835;0.965879;0.7265097;4.173096;1.080817;0.4799475;4.510402;1.094223;0.1334572;4.374561;1.134605;-0.5382454;4.882359;0.7482314;0.3726032;4.649471;0.8661875;0.9999457;4.491435;1.094252;1.283262;4.332619;1.134668;1.788939;3.547099;1.370304;0.9087912;3.253819;1.562958;0.3768754;2.407636;1.200022;0.220276;1.303887;0.2523549;0;0;0;0.3768754;2.407636;1.200022;0.220276;1.303887;0.2523549;0;0;0
234863.2177;NotLabelled;16384;0.7332602;0.06925207;-0.4265928;0.5249307;0;2;-1;2898;-2260;1737;65536;0.199446;-0.398892;0.8937318;0.04847645;-2;-1;1;2885;971;-2758;8192;0.02631579;-0.3698061;-0.7727117;-0.5152354;0;-3;0;2190;3341;795;32768;-0.6578947;0.1080332;0.1135734;0.7366169;-2;0;1;3787;1219;412;256;0.5124654;-0.5824277;0.398892;0.4889196;-1;0;1;167;4020;-627;128;0.6431278;-0.6052631;0.265928;0.3864266;0;-1;0;-749;4083;106;4;0.6742778;-0.6426592;-0.3199446;0.1731302;0;-3;-1;2623;3078;494;16;-0.4182825;0.2396122;0.6177285;0.6213189;2;-3;1;935;3882;-418;2;-0.08033241;-0.06648199;-0.6495845;-0.7531048;-1;1;-1;787;3970;-579;8;0.333795;-0.6484643;-0.2493075;-0.6371191;0;2;0;431;3053;2679;0.6841297;2.451848;1.198442;0.6899639;2.983521;1.07633;0.6950873;3.450408;0.967023;0.7215098;4.174669;1.08196;0.4749483;4.511975;1.09538;0.1284603;4.376133;1.135781;-0.5441481;4.884769;0.7520928;0.3667074;4.651881;0.8699982;0.9949464;4.493007;1.095379;1.278265;4.334192;1.13578;1.784494;3.548163;1.368516;0.9043573;3.254884;1.561219;0.371869;2.40921;1.201166;0.2208819;1.303234;0.2551853;0;0;0;0.371869;2.40921;1.201166;0.2208819;1.303234;0.2551853;0;0;0
234885.0582;NotLabelled;16384;0.7332602;0.06925207;-0.4265928;0.5249307;0;3;0;2904;-2246;1751;65536;0.1980609;-0.398892;0.8940398;0.04847645;-1;-2;1;2809;1067;-2692;8192;0.02770083;-0.3725762;-0.7713314;-0.5152354;0;-1;1;2290;3273;729;32768;-0.6565097;0.1080332;0.1121884;0.7380635;-1;1;1;3785;1237;528;256;0.5138504;-0.5821543;0.3975069;0.4889196;-2;0;1;149;4018;-657;128;0.6431278;-0.6052631;0.265928;0.3864266;1;-2;-1;-761;4069;184;4;0.6742778;-0.6426592;-0.3199446;0.1731302;0;0;-2;2561;3072;514;16;-0.4196676;0.2396122;0.6177285;0.6203842;2;-4;2;1039;3920;-326;2;-0.08033241;-0.06648199;-0.6495845;-0.7531048;0;-2;0;817;3904;-683;8;0.33518;-0.6477495;-0.2493075;-0.6371191;0;-1;0;469;3077;2507;0.6874675;2.451187;1.200435;0.6933017;2.98286;1.078323;0.6984249;3.449747;0.9690155;0.7271587;4.173992;1.083499;0.4816739;4.51209;1.096713;0.1347556;4.377379;1.137207;-0.5387257;4.886015;0.7550531;0.3729575;4.654146;0.8684838;1.001609;4.491465;1.096713;1.284421;4.331773;1.137206;1.791213;3.545997;1.369572;0.9114156;3.254627;1.566672;0.3752067;2.408549;1.203159;0.2220622;1.302573;0.257525;0;0;0;0.3752067;2.408549;1.203159;0.2220622;1.302573;0.257525;0;0;0
234906.4878;NotLabelled;16384;0.7350527;0.06925207;-0.4252077;0.5235457;0;2;-1;2838;-2270;1703;65536;0.1980609;-0.398892;0.8940398;0.04847645;0;-2;0;2863;1041;-2796;8192;0.02770083;-0.3725762;-0.7713314;-0.5152354;0;-1;0;2268;3313;783;32768;-0.6565097;0.1080332;0.1121884;0.7380635;-1;1;1;3869;1289;400;256;0.5138504;-0.5821543;0.3975069;0.4889196;-2;0;1;189;3996;-651;128;0.6431278;-0.6052631;0.265928;0.3864266;0;-3;0;-689;4063;192;4;0.6755951;-0.6412742;-0.3199446;0.1731302;-1;0;-2;2545;3038;626;16;-0.4196676;0.2396122;0.6177285;0.6203842;2;-5;1;1067;3860;-526;2;-0.07894737;-0.06648199;-0.6495845;-0.7532513;0;0;-1;765;4038;-567;8;0.33518;-0.6477495;-0.2493075;-0.6371191;0;1;0;371;3045;2679;0.6926688;2.450926;1.199883;0.698503;2.982599;1.077771;0.7036262;3.449486;0.9684637;0.73236;4.173731;1.082947;0.4868752;4.511829;1.096161;0.1399569;4.377119;1.136655;-0.5356053;4.883544;0.755239;0.3760784;4.651675;0.8686696;1.00681;4.491204;1.096161;1.289622;4.331512;1.136655;1.796414;3.545736;1.36902;0.9166168;3.254367;1.56612;0.3804079;2.408288;1.202607;0.2220619;1.302573;0.2575245;0;0;0;0.3804079;2.408288;1.202607;0.2220619;1.302573;0.2575245;0;0;0
234927.1788;NotLabelled;16384;0.7349209;0.07063711;-0.4252077;0.5235457;0;1;0;2844;-2302;1699;65536;0.1980609;-0.3975069;0.8946564;0.04847645;0;-1;0;2833;1017;-2738;8192;0.02770083;-0.3725762;-0.7713314;-0.5152354;1;-2;1;2272;3409;735;32768;-0.6565097;0.1080332;0.1121884;0.7380635;0;1;0;3873;1269;420;256;0.5138504;-0.5812061;0.398892;0.4889196;-1;-1;1;115;4060;-717;128;0.6417184;-0.6052631;0.267313;0.3878116;0;-6;-1;-775;4055;194;4;0.6755951;-0.6412742;-0.3199446;0.1731302;-3;0;0;2629;3000;512;16;-0.4210526;0.2396122;0.6177285;0.619445;1;-7;0;1091;4012;-520;2;-0.07894737;-0.06648199;-0.6495845;-0.7532513;0;-2;0;873;3940;-541;8;0.33518;-0.6477495;-0.2493075;-0.6371191;0;-1;0;457;3005;2675;0.6904665;2.450263;1.203712;0.6963036;2.9822;1.082756;0.7014295;3.449324;0.9744637;0.7295456;4.173848;1.087325;0.4837717;4.511764;1.099789;0.1369699;4.376847;1.140594;-0.5361769;4.884311;0.7563002;0.3753135;4.652904;0.8722;1.003724;4.491585;1.09982;1.286674;4.332225;1.140663;1.792382;3.546958;1.377076;0.912129;3.255589;1.572131;0.3782058;2.407619;1.206336;0.222056;1.301904;0.2608887;0;0;0;0.3782058;2.407619;1.206336;0.222056;1.301904;0.2608887;0;0;0
234947.0821;NotLabelled;16384;0.7349209;0.07063711;-0.4252077;0.5235457;1;2;0;2904;-2254;1665;65536;0.1980609;-0.3975069;0.8946564;0.04847645;0;-1;0;2849;999;-2686;8192;0.02631579;-0.3739612;-0.7707094;-0.5152354;1;0;2;2250;3421;765;32768;-0.6565097;0.1080332;0.1121884;0.7380635;0;2;0;3899;1335;378;256;0.5138504;-0.5812061;0.398892;0.4889196;-1;0;1;157;3930;-601;128;0.6430219;-0.6038781;0.267313;0.3878116;0;-3;-1;-703;4023;194;4;0.6762493;-0.6412742;-0.3185596;0.1731302;-2;-1;0;2697;2982;472;16;-0.4224377;0.2396122;0.6185013;0.6177285;1;-13;-1;1037;3944;-526;2;-0.07894737;-0.06648199;-0.6495845;-0.7532513;1;-1;1;855;3916;-617;8;0.33518;-0.6477495;-0.2493075;-0.6371191;0;-5;0;423;3031;2625;0.6909961;2.451507;1.205645;0.6968286;2.983031;1.082885;0.7019506;3.449785;0.9730081;0.7300735;4.174309;1.085867;0.4843003;4.512225;1.098347;0.137501;4.377307;1.139173;-0.5365151;4.885602;0.7575089;0.3749823;4.654196;0.8733532;1.004253;4.492045;1.098346;1.287205;4.332686;1.139172;1.794292;3.548463;1.376094;0.9140515;3.257094;1.571202;0.3787353;2.408873;1.208426;0.2204283;1.301228;0.2655992;0;0;0;0.3787353;2.408873;1.208426;0.2204283;1.301228;0.2655992;0;0;0
234968.2187;NotLabelled;16384;0.7349209;0.07063711;-0.4252077;0.5235457;1;2;0;2840;-2244;1687;65536;0.1980609;-0.3975069;0.8946564;0.04847645;0;-1;0;2845;1107;-2772;8192;0.02631579;-0.3739612;-0.7707094;-0.5152354;1;-1;1;2240;3341;805;32768;-0.6565097;0.1080332;0.1121884;0.7380635;0;2;0;3825;1265;436;256;0.5138504;-0.5812061;0.398892;0.4889196;-1;0;0;109;4022;-689;128;0.6421846;-0.6038781;0.267313;0.3891967;2;-3;0;-757;4087;188;4;0.6758932;-0.6412742;-0.3185596;0.1745152;0;-7;1;2669;3044;370;16;-0.4238227;0.2423823;0.6192345;0.6149584;1;-2;-1;667;3956;-662;2;-0.07894737;-0.06648199;-0.6495845;-0.7532513;0;-2;0;825;3976;-633;8;0.33518;-0.6477495;-0.2493075;-0.6371191;-1;-2;-1;387;3089;2529;0.6856169;2.450209;1.209534;0.6914523;2.982001;1.08794;0.6965767;3.448995;0.9790879;0.7246997;4.173519;1.091947;0.4789265;4.511435;1.104427;0.1321272;4.376518;1.145253;-0.5419487;4.884812;0.763694;0.3695491;4.653406;0.8795382;0.9988791;4.491255;1.104426;1.281831;4.331897;1.145252;1.788956;3.547673;1.382095;0.9087149;3.256304;1.577203;0.373356;2.407569;1.212213;0.2145869;1.301884;0.267167;0;0;0;0.373356;2.407569;1.212213;0.2145869;1.301884;0.267167;0;0;0
234988.9857;NotLabelled;16384;0.7349209;0.07063711;-0.4252077;0.5235457;2;1;0;2836;-2308;1667;65536;0.1980609;-0.3975069;0.8945803;0.04986149;2;-3;0;2889;1175;-2744;8192;0.02631579;-0.3739612;-0.7707094;-0.5152354;0;-2;1;2148;3275;769;32768;-0.6565097;0.1080332;0.1108033;0.7382726;-2;2;1;3897;1229;428;256;0.5152354;-0.5809288;0.3975069;0.4889196;-1;0;0;221;4068;-653;128;0.6421846;-0.6038781;0.267313;0.3891967;2;-9;0;-735;4117;178;4;0.6755341;-0.6412742;-0.3185596;0.1759003;0;0;1;2721;2970;384;16;-0.4238227;0.2423823;0.6192345;0.6149584;0;0;0;955;3944;-688;2;-0.07756232;-0.06648199;-0.6495845;-0.7533951;0;-2;0;803;4014;-541;8;0.33518;-0.6477495;-0.2493075;-0.6371191;-1;-2;0;479;3179;2601;0.6888497;2.448244;1.210895;0.6946852;2.980036;1.089301;0.6998096;3.44703;0.9804485;0.7302448;4.171531;1.092849;0.4855503;4.510237;1.105121;0.1383238;4.376452;1.146041;-0.5365978;4.884747;0.765981;0.3746881;4.650999;0.8787483;1.005436;4.4884;1.10512;1.287879;4.328166;1.14604;1.795529;3.543942;1.381755;0.9155271;3.254466;1.580721;0.376589;2.405603;1.213574;0.2151961;1.301884;0.2666765;0;0;0;0.376589;2.405603;1.213574;0.2151961;1.301884;0.2666765;0;0;0
235008.9841;NotLabelled;16384;0.7350527;0.06925207;-0.4252077;0.5235457;3;2;-1;2960;-2344;1813;65536;0.1980609;-0.3961219;0.8951945;0.04986149;1;-3;0;2885;1021;-2852;8192;0.02631579;-0.3739612;-0.7707094;-0.5152354;0;-3;0;2232;3293;773;32768;-0.6565097;0.1080332;0.1108033;0.7382726;0;1;2;3885;1237;360;256;0.5152354;-0.5809288;0.3975069;0.4889196;-2;0;1;201;4058;-723;128;0.6420665;-0.602493;0.2686981;0.3905817;2;-6;-1;-791;4071;260;4;0.6755341;-0.6412742;-0.3185596;0.1759003;0;2;2;2781;3026;436;16;-0.4238227;0.2423823;0.6192345;0.6149584;0;1;0;815;3950;-632;2;-0.07756232;-0.06786703;-0.6495845;-0.7532716;0;3;0;935;4008;-591;8;0.33518;-0.6482808;-0.2479224;-0.6371191;0;0;0;517;3085;2743;0.6888499;2.448241;1.21084;0.6946837;2.979887;1.088609;0.6998067;3.446749;0.9791976;0.7302419;4.171251;1.091598;0.4855474;4.509956;1.10387;0.1383209;4.376172;1.14479;-0.5372346;4.882597;0.7633632;0.3741259;4.649311;0.8764841;1.005433;4.488121;1.103869;1.287877;4.327886;1.144789;1.795517;3.543663;1.380523;0.9155156;3.254187;1.579489;0.3765891;2.405603;1.213574;0.2151963;1.301884;0.2666767;0;0;0;0.3765891;2.405603;1.213574;0.2151963;1.301884;0.2666767;0;0;0
235029.2926;NotLabelled;16384;0.7360372;0.06925207;-0.4252077;0.5221606;3;2;-1;2924;-2340;1765;65536;0.1980609;-0.3961219;0.8951945;0.04986149;1;-2;-1;2891;1003;-2856;8192;0.02770083;-0.3753462;-0.7699872;-0.5152354;0;0;0;2272;3379;683;32768;-0.6565097;0.1080332;0.1108033;0.7382726;0;0;3;3947;1187;344;256;0.5152354;-0.5809288;0.3975069;0.4889196;-1;0;2;183;4024;-703;128;0.6412219;-0.602493;0.2686981;0.3919668;1;-3;-1;-785;4083;266;4;0.6755341;-0.6412742;-0.3185596;0.1759003;0;1;1;2785;2996;386;16;-0.4238227;0.2423823;0.6192345;0.6149584;-1;3;0;939;3926;-634;2;-0.07756232;-0.06648199;-0.6495845;-0.7533951;-2;7;0;869;4006;-559;8;0.33518;-0.6482808;-0.2479224;-0.6371191;0;-1;0;473;3047;2777;0.6888502;2.448247;1.21094;0.6946869;2.980162;1.089886;0.6998125;3.447266;0.9815077;0.7302479;4.171767;1.093908;0.4855533;4.510473;1.10618;0.1383268;4.376688;1.1471;-0.5374665;4.882147;0.7648125;0.3738937;4.64886;0.8779336;1.005439;4.488637;1.106179;1.287882;4.328403;1.147099;1.795287;3.543832;1.382186;0.9152852;3.254356;1.581152;0.3765894;2.405603;1.213573;0.2151963;1.301884;0.2666761;0;0;0;0.3765894;2.405603;1.213573;0.2151963;1.301884;0.2666761;0;0;0
235070.004;NotLabelled;16384;0.7352353;0.06925207;-0.4265928;0.5221606;3;2;0;2908;-2256;1861;65536;0.1980609;-0.3961219;0.8951945;0.04986149;0;-2;0;2833;973;-2792;8192;0.02770083;-0.3753462;-0.7699872;-0.5152354;0;0;0;2124;3359;657;32768;-0.6565097;0.1066482;0.1108033;0.738474;0;0;2;3981;1153;378;256;0.5152354;-0.5809288;0.3975069;0.4889196;-1;0;1;177;4014;-711;128;0.6425205;-0.601108;0.2686981;0.3919668;2;0;-1;-749;4083;230;4;0.6748792;-0.6412742;-0.3199446;0.1759003;1;3;1;2727;3016;452;16;-0.4238227;0.2409972;0.6197748;0.6149584;-2;3;0;885;4010;-536;2;-0.07894737;-0.06648199;-0.6495845;-0.7532513;-2;6;2;985;4034;-645;8;0.33518;-0.6482808;-0.2479224;-0.6371191;0;1;-1;447;3025;2665;0.6873554;2.44561;1.216245;0.6931876;2.977112;1.093393;0.6983092;3.443848;0.9834359;0.7287444;4.168349;1.095837;0.4840499;4.507055;1.108108;0.1368234;4.37327;1.149028;-0.5370624;4.879965;0.7650154;0.3742982;4.646679;0.8781365;1.003935;4.485219;1.108107;1.286379;4.324984;1.149027;1.793768;3.540413;1.384149;0.9128231;3.252618;1.581375;0.3750946;2.402976;1.219033;0.2157961;1.301198;0.2695236;0;0;0;0.3750946;2.402976;1.219033;0.2157961;1.301198;0.2695236;0;0;0
235113.1067;NotLabelled;16384;0.7352353;0.06925207;-0.4265928;0.5221606;1;2;0;2866;-2216;1757;65536;0.199446;-0.3947368;0.8954988;0.04986149;0;-1;-1;2837;1019;-2866;8192;0.02770083;-0.3753462;-0.7690586;-0.5166205;2;-1;0;2164;3413;701;32768;-0.6565097;0.1066482;0.1094183;0.7386805;0;1;2;3915;1165;394;256;0.5152354;-0.5809288;0.3975069;0.4889196;-1;2;1;221;3938;-623;128;0.6425205;-0.601108;0.2686981;0.3919668;3;3;-1;-871;4043;200;4;0.6742209;-0.6412742;-0.3213296;0.1759003;0;7;2;2693;3052;548;16;-0.4224377;0.2409972;0.6193444;0.6163435;-3;9;0;867;3904;-520;2;-0.07894737;-0.06786703;-0.6495845;-0.7531278;0;0;2;899;4008;-693;8;0.33518;-0.6496391;-0.2479224;-0.6357341;0;-6;-1;547;3041;2555;0.6858909;2.44436;1.214935;0.6917232;2.975863;1.092083;0.6968448;3.442598;0.9821259;0.72728;4.167099;1.094527;0.4825855;4.505805;1.106798;0.135359;4.37202;1.147718;-0.5385268;4.878716;0.7637054;0.372348;4.644884;0.8795814;1.002471;4.483969;1.106797;1.284915;4.323734;1.147717;1.789822;3.538043;1.384434;0.908675;3.252143;1.583506;0.3736303;2.401726;1.217723;0.2164389;1.301897;0.2656073;0;0;0;0.3736303;2.401726;1.217723;0.2164389;1.301897;0.2656073;0;0;0
235155.2523;NotLabelled;16384;0.736217;0.06925207;-0.4265928;0.5207756;0;1;1;2886;-2264;1779;65536;0.199446;-0.3947368;0.8954988;0.04986149;-1;-1;-1;2843;1113;-2854;8192;0.02770083;-0.3753462;-0.7690586;-0.5166205;3;1;0;2220;3337;737;32768;-0.6565097;0.1052632;0.1094183;0.7388791;0;2;2;3885;1229;476;256;0.5166205;-0.5796974;0.3975069;0.4889196;0;2;2;217;3982;-655;128;0.6425205;-0.601108;0.2686981;0.3919668;4;3;-1;-781;4085;236;4;0.6752344;-0.6398892;-0.3227147;0.1745152;0;9;3;2623;3114;440;16;-0.4210526;0.2396122;0.619445;0.6177285;-3;18;2;849;3938;-494;2;-0.07894737;-0.06786703;-0.6495845;-0.7531278;-1;3;0;719;3974;-563;8;0.3365651;-0.6489226;-0.2479224;-0.6357341;-1;-2;0;389;3161;2521;0.6897843;2.444129;1.213695;0.6956167;2.975631;1.090844;0.7007383;3.442367;0.9808866;0.7328798;4.167116;1.091198;0.4889784;4.506425;1.102525;0.1414458;4.37357;1.143872;-0.5326449;4.879296;0.7589412;0.3782317;4.645464;0.874798;1.008811;4.483375;1.102525;1.290885;4.322599;1.143871;1.795797;3.536909;1.380577;0.9137189;3.252691;1.577924;0.3775238;2.401495;1.216484;0.2177067;1.301905;0.2645286;0;0;0;0.3775238;2.401495;1.216484;0.2177067;1.301905;0.2645286;0;0;0
235176.1455;NotLabelled;16384;0.7360854;0.07063711;-0.4265928;0.5207756;0;1;1;2942;-2338;1703;65536;0.199446;-0.3947368;0.8954988;0.04986149;0;-1;-1;2925;1115;-2738;8192;0.02770083;-0.3753462;-0.7681264;-0.5180055;3;0;0;2158;3393;699;32768;-0.6551247;0.1052632;0.1094183;0.7401074;0;2;3;3851;1255;446;256;0.5166205;-0.5806448;0.3961219;0.4889196;-1;0;2;195;4052;-679;128;0.6439401;-0.601108;0.267313;0.3905817;3;6;-1;-785;4131;158;4;0.6745707;-0.6398892;-0.3240997;0.1745152;0;8;4;2449;3112;428;16;-0.4182825;0.2382271;0.6177285;0.6218513;-4;18;1;937;3986;-566;2;-0.07894737;-0.06648199;-0.6509695;-0.7520546;-4;4;-2;665;3990;-431;8;0.33518;-0.6496391;-0.2479224;-0.6357341;-3;4;0;365;3169;2453;0.6963035;2.442827;1.207042;0.7021328;2.974059;1.083022;0.7072518;3.44055;0.9720379;0.7400025;4.165024;1.083969;0.4963905;4.504517;1.096029;0.1487399;4.371866;1.137045;-0.5255399;4.879466;0.7549195;0.3855963;4.645634;0.8687198;1.016204;4.481021;1.096028;1.298136;4.319912;1.137044;1.801077;3.53311;1.37425;0.9195577;3.248914;1.574108;0.3840428;2.4002;1.209932;0.2242023;1.30256;0.2557322;0;0;0;0.3840428;2.4002;1.209932;0.2242023;1.30256;0.2557322;0;0;0
235196.3645;NotLabelled;16384;0.7360854;0.07063711;-0.4265928;0.5207756;1;1;1;2886;-2370;1689;65536;0.200831;-0.3947368;0.8951109;0.05124654;0;-3;-2;2939;1073;-2700;8192;0.02770083;-0.3753462;-0.7681264;-0.5180055;3;-1;0;2208;3351;743;32768;-0.6551247;0.1052632;0.1080332;0.7403108;0;3;2;3899;1263;490;256;0.5166205;-0.5794757;0.3961219;0.4903047;-2;1;2;169;4068;-659;128;0.6452302;-0.599723;0.267313;0.3905817;0;4;-1;-705;4095;100;4;0.6745707;-0.6398892;-0.3240997;0.1745152;0;1;4;2377;3024;470;16;-0.4168975;0.2368421;0.6177285;0.6233087;-3;9;-1;1081;3980;-570;2;-0.07894737;-0.06509695;-0.6509695;-0.7521758;-3;4;-6;661;4088;-647;8;0.333795;-0.648995;-0.2479224;-0.6371191;-8;3;2;329;3169;2573;0.694517;2.442798;1.20668;0.7003418;2.973607;1.080867;0.7054566;3.439721;0.9683092;0.7399167;4.164114;1.080253;0.4971065;4.504181;1.092318;0.1491438;4.372351;1.133331;-0.5240625;4.87995;0.7493185;0.3857089;4.642769;0.8670391;1.016863;4.479459;1.092318;1.298414;4.317684;1.133331;1.800689;3.530881;1.371945;0.9184258;3.248586;1.571215;0.3822565;2.40018;1.209725;0.2250435;1.30254;0.2550892;0;0;0;0.3822565;2.40018;1.209725;0.2250435;1.30254;0.2550892;0;0;0
235237.0416;NotLabelled;16384;0.735281;0.07063711;-0.4279778;0.5207756;2;2;1;2836;-2354;1697;65536;0.200831;-0.3947368;0.8951109;0.05124654;0;-4;-2;2923;1075;-2664;8192;0.02770083;-0.3753462;-0.7681264;-0.5180055;3;-1;2;2208;3465;727;32768;-0.6551247;0.1052632;0.1080332;0.7403108;0;3;2;3917;1233;424;256;0.5180055;-0.5782379;0.3961219;0.4903047;-3;0;2;197;3984;-675;128;0.6452302;-0.599723;0.267313;0.3905817;0;1;-1;-749;4005;152;4;0.6758819;-0.6385041;-0.3240997;0.1745152;0;-4;4;2391;2914;556;16;-0.4168975;0.2368421;0.6177285;0.6233087;-4;4;-1;959;3946;-596;2;-0.07756232;-0.06371191;-0.6523545;-0.751238;-4;5;-5;483;4056;-533;8;0.33241;-0.6497055;-0.2479224;-0.6371191;-9;4;2;285;3173;2605;0.6997279;2.442514;1.206129;0.7055525;2.973324;1.080316;0.7106674;3.439437;0.9677581;0.7468396;4.164067;1.077608;0.5048282;4.504735;1.088727;0.1565637;4.373839;1.130167;-0.5148102;4.882668;0.744579;0.3949642;4.645488;0.8622774;1.024525;4.478796;1.088726;1.305702;4.316481;1.130167;1.808013;3.529678;1.368706;0.9257548;3.247383;1.567999;0.3874673;2.399896;1.209175;0.2250498;1.302541;0.2550834;0;0;0;0.3874673;2.399896;1.209175;0.2250498;1.302541;0.2550834;0;0;0
235257.3891;NotLabelled;16384;0.735281;0.07063711;-0.4279778;0.5207756;4;3;1;2884;-2310;1677;65536;0.200831;-0.3947368;0.8951109;0.05124654;1;-5;-2;2869;1097;-2682;8192;0.02770083;-0.3767313;-0.767448;-0.5180055;3;-1;2;2270;3409;749;32768;-0.6551247;0.1052632;0.1080332;0.7403108;0;3;1;3785;1195;378;256;0.5180055;-0.5782379;0.3961219;0.4903047;-3;0;2;171;3940;-671;128;0.6443897;-0.599723;0.267313;0.3919668;2;0;-1;-753;3949;214;4;0.6747953;-0.6385041;-0.3240997;0.1786704;-4;-7;8;2731;2982;608;16;-0.4155124;0.2368421;0.6177285;0.6242329;-6;3;-4;1127;3950;-512;2;-0.07617728;-0.06232687;-0.6523545;-0.7514958;-4;-2;-6;513;3998;-463;8;0.3310249;-0.6495801;-0.2465374;-0.6385041;-10;2;2;393;3039;2711;0.7005178;2.437203;1.209991;0.7063456;2.968289;1.085352;0.7114631;3.434652;0.9738259;0.7476354;4.159281;1.083677;0.5056239;4.499949;1.094795;0.1573595;4.369053;1.136236;-0.514048;4.877882;0.7507057;0.3957266;4.640702;0.8684037;1.025321;4.47401;1.094794;1.306498;4.311696;1.136235;1.809127;3.525505;1.376121;0.9268683;3.24321;1.575413;0.3882571;2.394578;1.212934;0.2244549;1.303194;0.2522534;0;0;0;0.3882571;2.394578;1.212934;0.2244549;1.303194;0.2522534;0;0;0
235278.2004;NotLabelled;16384;0.73626;0.07063711;-0.4279778;0.5193906;5;5;2;2828;-2330;1665;65536;0.200831;-0.3933518;0.8957204;0.05124654;2;-5;-3;2817;1157;-2704;8192;0.02631579;-0.3767313;-0.7665601;-0.5193906;2;-1;3;2114;3379;795;32768;-0.6537396;0.1038781;0.1080332;0.7417296;-1;4;0;3889;1157;394;256;0.5180055;-0.5782379;0.3961219;0.4903047;-4;-2;2;157;3974;-759;128;0.6443897;-0.599723;0.267313;0.3919668;7;-3;0;-803;3981;170;4;0.6744271;-0.6385041;-0.3240997;0.1800554;-8;-9;10;2765;3064;654;16;-0.4141274;0.2368421;0.6177285;0.6251526;-6;4;-5;1177;3894;-466;2;-0.07479224;-0.06232687;-0.6537396;-0.7504306;-3;-5;-6;637;3912;-493;8;0.3296399;-0.6502841;-0.2465374;-0.6385041;-13;1;2;299;3033;2543;0.700384;2.435848;1.209352;0.7062118;2.966935;1.084713;0.7113292;3.433297;0.9731867;0.7475016;4.157926;1.083037;0.50549;4.498594;1.094155;0.1572256;4.367699;1.135596;-0.5143461;4.875556;0.7490719;0.3955038;4.638844;0.8671286;1.025187;4.472655;1.094154;1.306364;4.310341;1.135595;1.80703;3.524008;1.379092;0.9239504;3.243415;1.577147;0.3881233;2.393224;1.212295;0.2238606;1.303841;0.2494239;0;0;0;0.3881233;2.393224;1.212295;0.2238606;1.303841;0.2494239;0;0;0
235298.0125;NotLabelled;16384;0.7365935;0.07063711;-0.4307479;0.5166205;5;5;1;2752;-2314;1667;65536;0.2036011;-0.3905817;0.8962268;0.05263158;2;-5;-2;2701;1161;-2702;8192;0.02631579;-0.3767313;-0.7665601;-0.5193906;1;-2;2;2020;3317;727;32768;-0.6537396;0.1052632;0.1066482;0.7417347;-2;3;1;3829;1163;354;256;0.5193906;-0.5760408;0.3975069;0.4903047;-5;-2;2;277;3902;-707;128;0.6456612;-0.5955678;0.2714681;0.3933518;6;-9;0;-861;3991;186;4;0.6755412;-0.6357341;-0.3240997;0.1855956;-11;-5;12;2783;2840;522;16;-0.4127424;0.2382271;0.6163435;0.6269069;-11;-4;-9;1089;4052;-630;2;-0.06648199;-0.06094183;-0.6537396;-0.751326;-4;-4;-17;565;3922;-611;8;0.3268698;-0.6520516;-0.2382271;-0.6412742;-29;-10;5;467;3187;2373;0.7114769;2.42841;1.209599;0.7172937;2.958496;1.080771;0.7224014;3.423964;0.9655653;0.7597265;4.14909;1.071686;0.5182338;4.490174;1.0812;0.1697973;4.360016;1.12351;-0.4968367;4.871458;0.7331818;0.4112839;4.631347;0.8575223;1.037891;4.463452;1.081033;1.318848;4.300929;1.123142;1.818569;3.512691;1.362381;0.9358441;3.232327;1.562335;0.3992166;2.38581;1.212906;0.2246666;1.305077;0.2421299;0;0;0;0.3992166;2.38581;1.212906;0.2246666;1.305077;0.2421299;0;0;0
235318.0223;NotLabelled;16384;0.7365935;0.07063711;-0.4307479;0.5166205;5;3;0;2676;-2348;1725;65536;0.2036011;-0.3905817;0.8962268;0.05263158;3;-5;-1;2749;1233;-2676;8192;0.02631579;-0.3767313;-0.7665601;-0.5193906;1;-2;2;2004;3273;671;32768;-0.6537396;0.1052632;0.1066482;0.7417347;-3;3;1;3821;1081;304;256;0.5193906;-0.5760408;0.3975069;0.4903047;-6;-1;1;285;3892;-659;128;0.6460919;-0.5941828;0.2714681;0.3947368;4;0;0;-805;3911;188;4;0.6754106;-0.634349;-0.3254848;0.1883656;-7;-5;15;2893;2804;474;16;-0.4113573;0.2409972;0.6163435;0.6267585;-12;-6;-10;971;3848;-604;2;-0.06371191;-0.05955679;-0.6551247;-0.7504702;-13;-5;-22;323;3970;-353;8;0.3254848;-0.652387;-0.2354571;-0.6426592;-32;0;7;231;3071;2479;0.7100785;2.42397;1.210011;0.7158937;2.953911;1.080589;0.721;3.419248;0.9648609;0.7582912;4.144375;1.070993;0.5167955;4.485459;1.080429;0.1683456;4.355302;1.122628;-0.4989426;4.863655;0.7293953;0.4091386;4.623544;0.8540257;1.036453;4.458737;1.080429;1.317396;4.296214;1.122627;1.817516;3.509882;1.367242;0.9347287;3.229519;1.566915;0.3978183;2.381373;1.21337;0.2196906;1.307011;0.2361939;0;0;0;0.3978183;2.381373;1.21337;0.2196906;1.307011;0.2361939;0;0;0
235338.3564;NotLabelled;16384;0.7367523;0.07063711;-0.432133;0.5152354;5;3;0;2698;-2362;1683;65536;0.2036011;-0.3891967;0.8968291;0.05263158;3;-5;-2;2771;1161;-2636;8192;0.02631579;-0.3781163;-0.7658779;-0.5193906;1;-3;2;1998;3315;645;32768;-0.6523545;0.1038781;0.1052632;0.7433456;-3;3;1;3695;1095;384;256;0.5193906;-0.5760408;0.3975069;0.4903047;-6;0;1;255;3928;-707;128;0.6469361;-0.5941828;0.2714681;0.3933518;7;7;0;-745;3869;244;4;0.6752628;-0.632964;-0.3268698;0.1911357;-2;-5;17;2845;2694;426;16;-0.4113573;0.2423823;0.6163435;0.6262242;-13;-2;-11;829;3932;-692;2;-0.05955679;-0.0567867;-0.6578947;-0.7486005;-11;-4;-23;263;3840;-655;8;0.3227147;-0.653882;-0.2313019;-0.6440443;-33;0;6;467;3029;2849;0.7117659;2.418185;1.21464;0.717578;2.947836;1.084037;0.7226814;3.412916;0.9672738;0.7599726;4.138042;1.073406;0.518477;4.479126;1.082842;0.1700269;4.348969;1.125041;-0.4955048;4.857558;0.7291465;0.4126515;4.617922;0.8541395;1.038134;4.452404;1.082842;1.319078;4.289881;1.12504;1.81947;3.504171;1.371094;0.935674;3.227422;1.571346;0.3995058;2.375597;1.218101;0.217521;1.307658;0.2346133;0;0;0;0.3995058;2.375597;1.218101;0.217521;1.307658;0.2346133;0;0;0
235359.0457;NotLabelled;16384;0.7367523;0.07063711;-0.432133;0.5152354;5;4;0;2716;-2310;1667;65536;0.2036011;-0.3891967;0.8968291;0.05263158;3;-6;-1;2761;1121;-2594;8192;0.02631579;-0.3781163;-0.7649367;-0.5207756;2;-3;3;2160;3393;655;32768;-0.6523545;0.1052632;0.1038781;0.7433456;-3;4;1;3765;1109;322;256;0.5207756;-0.5747889;0.3975069;0.4903047;-6;0;1;201;3900;-727;128;0.6477761;-0.5941828;0.2714681;0.3919668;8;8;0;-709;3873;240;4;0.67259;-0.632964;-0.3282548;0.1980609;-4;-20;21;2911;2746;556;16;-0.4072022;0.2465374;0.6149584;0.6286747;-16;-2;-14;1181;3920;-448;2;-0.0567867;-0.05401662;-0.6592798;-0.7478019;-13;4;-24;41;3876;-443;8;0.3199446;-0.6553326;-0.2271468;-0.6454294;-36;-6;6;407;3057;2719;0.7076293;2.409365;1.211245;0.7134381;2.938725;1.079468;0.7185386;3.403544;0.9616735;0.7575649;4.128884;1.065698;0.5168757;4.470563;1.074207;0.1681305;4.34135;1.116867;-0.4975222;4.850817;0.722305;0.4106492;4.61118;0.8471882;1.036469;4.442617;1.074156;1.317039;4.279554;1.116757;1.815;3.492207;1.362509;0.931974;3.215697;1.566455;0.3953692;2.366784;1.214808;0.21322;1.311224;0.2180771;0;0;0;0.3953692;2.366784;1.214808;0.21322;1.311224;0.2180771;0;0;0
235383.0555;NotLabelled;16384;0.7369059;0.07063711;-0.433518;0.5138504;8;6;0;2708;-2296;1659;65536;0.2049861;-0.3878116;0.8971136;0.05263158;4;-7;-1;2737;1145;-2714;8192;0.02770083;-0.3795014;-0.7642016;-0.5207756;1;-4;3;2114;3381;671;32768;-0.6523545;0.1052632;0.1038781;0.7433456;-2;4;0;3831;1151;316;256;0.5207756;-0.5738286;0.398892;0.4903047;-6;0;0;241;3850;-765;128;0.6491902;-0.5941828;0.2700831;0.3905817;10;6;0;-753;3939;254;4;0.6709337;-0.632964;-0.3282548;0.2036011;-5;-20;22;2879;2742;560;16;-0.4058172;0.2493075;0.6135734;0.6298301;-18;-11;-17;1211;4020;-468;2;-0.05401662;-0.04986149;-0.6606648;-0.7470731;-7;-2;-23;349;3964;-581;8;0.3171745;-0.6567391;-0.2229917;-0.6468144;-37;-11;6;397;2969;2821;0.705505;2.402639;1.211308;0.7113106;2.931708;1.078365;0.7164084;3.396266;0.9595458;0.7548369;4.121869;1.061948;0.5138654;4.463367;1.069699;0.1652282;4.333961;1.112657;-0.4977165;4.842778;0.7127358;0.4096311;4.60263;0.8425279;1.033481;4.43585;1.069699;1.314188;4.273115;1.112656;1.811288;3.485978;1.360812;0.9277826;3.209468;1.562673;0.393245;2.360066;1.214972;0.2117036;1.312895;0.2093209;0;0;0;0.393245;2.360066;1.214972;0.2117036;1.312895;0.2093209;0;0;0
235402.9956;NotLabelled;16384;0.738001;0.06925207;-0.433518;0.5124654;7;5;-1;2722;-2312;1705;65536;0.2049861;-0.3864266;0.897711;0.05263158;3;-5;-1;2705;1119;-2754;8192;0.02770083;-0.3808864;-0.7635123;-0.5207756;1;-2;3;2200;3413;689;32768;-0.6509695;0.1052632;0.1038781;0.7445588;-2;4;0;3847;1199;296;256;0.5207756;-0.5738286;0.398892;0.4903047;-4;2;0;289;3926;-755;128;0.6504551;-0.5927978;0.2700831;0.3905817;8;-3;0;-845;4065;342;4;0.6702858;-0.6315789;-0.3296399;0.2077562;-7;-16;23;2975;2732;554;16;-0.4058172;0.2534626;0.6121883;0.6295193;-21;-13;-18;973;3988;-440;2;-0.04986149;-0.04847645;-0.6620498;-0.7462264;-10;-7;-22;557;4098;-497;8;0.3144044;-0.6581017;-0.2188366;-0.6481994;-39;-2;9;173;3087;2763;0.7071723;2.395555;1.211405;0.712973;2.924177;1.076693;0.7180663;3.388335;0.9563214;0.7565092;4.113938;1.058718;0.5155388;4.455435;1.066503;0.1669078;4.326029;1.10951;-0.4969634;4.833324;0.7091903;0.4104766;4.593654;0.8392178;1.035155;4.427919;1.06643;1.315867;4.265184;1.109348;1.81332;3.477845;1.356152;0.9299467;3.201372;1.55864;0.3949124;2.352995;1.215223;0.2090197;1.314574;0.2013268;0;0;0;0.3949124;2.352995;1.215223;0.2090197;1.314574;0.2013268;0;0;0
235425.0065;NotLabelled;16384;0.7381465;0.06925207;-0.434903;0.5110803;5;4;0;2662;-2320;1835;65536;0.2063712;-0.3850415;0.8979888;0.05263158;3;-5;-1;2713;1129;-2788;8192;0.02770083;-0.3808864;-0.7644551;-0.5193906;1;0;4;2190;3401;745;32768;-0.6509695;0.1052632;0.1038781;0.7445588;-1;5;0;3803;1189;270;256;0.5221606;-0.5725686;0.398892;0.4903047;-4;0;0;215;3826;-773;128;0.651139;-0.5914127;0.2714681;0.3905817;5;-5;1;-927;4045;292;4;0.6698492;-0.6301939;-0.3296399;0.2132964;-7;-11;22;2957;2790;532;16;-0.4044321;0.2576177;0.6108033;0.6300691;-23;-8;-19;811;4012;-494;2;-0.04432133;-0.04432133;-0.66482;-0.7443693;-15;1;-26;397;4106;-311;8;0.3060942;-0.6592492;-0.2105263;-0.6537396;-44;-2;10;579;2995;2793;0.7104673;2.392848;1.200437;0.716263;2.921017;1.06396;0.7213519;3.38477;0.9420388;0.7615149;4.110905;1.039906;0.5213536;4.453013;1.045564;0.1724186;4.324704;1.089382;-0.488425;4.829903;0.6814764;0.4184682;4.590178;0.8151663;1.040903;4.424268;1.045654;1.321231;4.26114;1.089582;1.819279;3.476096;1.342424;0.9358844;3.200301;1.545744;0.3982075;2.3503;1.204409;0.2056079;1.317339;0.1861965;0;0;0;0.3982075;2.3503;1.204409;0.2056079;1.317339;0.1861965;0;0;0
235445.6571;NotLabelled;16384;0.7391036;0.06925207;-0.434903;0.5096953;3;2;0;2714;-2346;1751;65536;0.2063712;-0.3850415;0.8979888;0.05263158;1;-3;-1;2723;1155;-2794;8192;0.02770083;-0.3808864;-0.7644551;-0.5193906;0;0;3;2018;3433;659;32768;-0.6509695;0.1052632;0.1038781;0.7445588;-1;4;0;3877;1121;244;256;0.5221606;-0.5725686;0.398892;0.4903047;-4;-1;1;315;3868;-719;128;0.651139;-0.5914127;0.2714681;0.3905817;4;-1;2;-833;3963;276;4;0.6678271;-0.6301939;-0.3310249;0.2174515;-4;-13;21;3037;2736;506;16;-0.4016621;0.2617728;0.6094183;0.6314681;-23;-3;-19;689;4004;-442;2;-0.04155125;-0.0401662;-0.66759;-0.7422828;-23;6;-29;373;4022;-255;8;0.301939;-0.6615325;-0.2049861;-0.6551247;-44;0;11;539;2723;3099;0.7054564;2.382712;1.203524;0.7112521;2.910881;1.067047;0.716341;3.374634;0.9451259;0.7565031;4.100438;1.045418;0.5163417;4.442525;1.052216;0.1674061;4.31407;1.095602;-0.4947672;4.819245;0.6898268;0.4121251;4.579075;0.8227251;1.035891;4.41378;1.052216;1.316218;4.250506;1.095602;1.816089;3.46508;1.343617;0.9326923;3.188607;1.546005;0.3931966;2.340164;1.207496;0.2015361;1.319229;0.1770515;0;0;0;0.3931966;2.340164;1.207496;0.2015361;1.319229;0.1770515;0;0;0
235467.0171;NotLabelled;16384;0.7391036;0.06925207;-0.434903;0.5096953;3;1;0;2728;-2332;1743;65536;0.2063712;-0.3836565;0.8985814;0.05263158;1;-2;-1;2703;1243;-2814;8192;0.02770083;-0.3808864;-0.7644551;-0.5193906;0;0;1;1984;3387;655;32768;-0.6509695;0.1052632;0.1038781;0.7445588;-1;2;0;3795;1113;202;256;0.5221606;-0.5725686;0.398892;0.4903047;-4;0;0;289;3972;-741;128;0.651139;-0.5914127;0.2714681;0.3905817;3;4;1;-725;3971;270;4;0.6656836;-0.6288089;-0.33241;0.2257618;-4;-7;22;3183;2564;330;16;-0.3961219;0.2686981;0.6066482;0.6347179;-26;-11;-22;1033;4006;-246;2;-0.03878116;-0.03601108;-0.6703601;-0.7401463;-22;9;-26;271;4016;-573;8;0.2977839;-0.6623598;-0.199446;-0.6578947;-43;6;10;505;2677;2991;0.7047743;2.371175;1.192294;0.71057;2.899344;1.055817;0.7156588;3.363097;0.9338953;0.755821;4.088902;1.034188;0.5156596;4.430988;1.040986;0.166724;4.302534;1.084372;-0.4955094;4.807708;0.6786947;0.411457;4.56802;0.8119552;1.035209;4.402244;1.040985;1.315536;4.23897;1.084372;1.815443;3.453543;1.332312;0.9320468;3.177071;1.5347;0.3925145;2.328628;1.196265;0.1954639;1.323308;0.1515822;0;0;0;0.3925145;2.328628;1.196265;0.1954639;1.323308;0.1515822;0;0;0
235488.2122;NotLabelled;16384;0.7391036;0.06925207;-0.434903;0.5096953;4;0;-1;2708;-2250;1673;65536;0.2077562;-0.3836565;0.8982621;0.05263158;2;-1;0;2697;1129;-2734;8192;0.02770083;-0.3808864;-0.7644551;-0.5193906;0;0;1;2002;3363;705;32768;-0.6509695;0.1052632;0.1024931;0.7447506;0;1;0;3765;1113;234;256;0.5221606;-0.5725686;0.398892;0.4903047;-2;0;0;273;3958;-739;128;0.651139;-0.5914127;0.2714681;0.3905817;4;5;0;-739;3981;316;4;0.6641776;-0.6274238;-0.33518;0.2299169;-8;-4;24;3029;2566;324;16;-0.3947368;0.2742382;0.6052631;0.6345335;-27;-15;-24;877;3988;-168;2;-0.03739612;-0.03185596;-0.6731302;-0.7378906;-17;11;-23;217;3922;-591;8;0.2936288;-0.6626958;-0.1952908;-0.6606648;-41;-4;7;839;2679;3349;0.700465;2.362025;1.190695;0.7062607;2.890194;1.054218;0.7113496;3.353947;0.9322968;0.7515117;4.079751;1.032589;0.5113503;4.421838;1.039387;0.1624147;4.293384;1.082773;-0.4998186;4.798558;0.677096;0.4065326;4.557895;0.8127624;1.0309;4.393093;1.039387;1.311227;4.22982;1.082773;1.811134;3.444393;1.330714;0.9275587;3.169837;1.534922;0.3882052;2.319478;1.194667;0.1893279;1.325526;0.1395037;0;0;0;0.3882052;2.319478;1.194667;0.1893279;1.325526;0.1395037;0;0;0
235509.1203;NotLabelled;16384;0.7391036;0.06925207;-0.434903;0.5096953;3;2;0;2634;-2216;1667;65536;0.2077562;-0.3836565;0.8982621;0.05263158;2;-1;0;2639;1073;-2676;8192;0.02770083;-0.3808864;-0.7644551;-0.5193906;0;0;2;2058;3455;733;32768;-0.6509695;0.1052632;0.1024931;0.7447506;0;2;-1;3771;1097;290;256;0.5221606;-0.5725686;0.398892;0.4903047;-2;1;-1;179;3794;-707;128;0.6519678;-0.5914127;0.2714681;0.3891967;3;8;2;-761;3957;198;4;0.6638194;-0.6260388;-0.3365651;0.232687;-6;-1;25;2837;2534;342;16;-0.3933518;0.2797784;0.6038781;0.6342946;-30;-14;-25;751;3990;-300;2;-0.03601108;-0.02908587;-0.6745152;-0.7368083;-16;9;-19;289;4094;-261;8;0.2908587;-0.6645371;-0.1883656;-0.6620498;-42;-7;6;617;2483;3105;0.6978986;2.357099;1.184443;0.703691;2.884966;1.046804;0.708777;3.34845;0.9238631;0.7489488;4.074254;1.024151;0.5087882;4.416342;1.030972;0.1598569;4.287887;1.074393;-0.5024458;4.793952;0.6699404;0.4039184;4.553288;0.8055184;1.028337;4.387596;1.030921;1.308669;4.224322;1.07428;1.808618;3.438353;1.320408;0.925063;3.163798;1.524703;0.385639;2.31456;1.188515;0.1830437;1.327617;0.1274981;0;0;0;0.385639;2.31456;1.188515;0.1830437;1.327617;0.1274981;0;0;0
235530.1563;NotLabelled;16384;0.7391036;0.06925207;-0.434903;0.5096953;2;0;-1;2648;-2264;1667;65536;0.2077562;-0.3836565;0.8982621;0.05263158;2;0;0;2639;1147;-2710;8192;0.02908587;-0.3808864;-0.7644037;-0.5193906;0;-2;1;2030;3405;813;32768;-0.6509695;0.1052632;0.1024931;0.7447506;-1;2;-2;3743;1177;366;256;0.5221606;-0.5725686;0.398892;0.4903047;-2;3;-1;165;3884;-615;128;0.6527926;-0.5914127;0.2714681;0.3878116;5;8;3;-797;3987;100;4;0.6629505;-0.6246537;-0.3379501;0.2368421;-1;-10;24;2967;2476;412;16;-0.3905817;0.2853186;0.601108;0.636167;-32;-14;-26;545;4044;-434;2;-0.03047091;-0.02493075;-0.6772853;-0.7346663;-13;6;-21;167;3872;-103;8;0.2839335;-0.6678069;-0.1772853;-0.66482;-42;-3;6;689;2523;3161;0.6986655;2.352374;1.169097;0.7044547;2.879938;1.030302;0.7095376;3.343152;0.906345;0.7497022;4.069174;1.005045;0.5095408;4.411276;1.011099;0.1606063;4.282916;1.054775;-0.5015972;4.787201;0.6479425;0.4047574;4.546835;0.7841144;1.02909;4.38253;1.011149;1.309419;4.219353;1.054886;1.808757;3.433501;1.302626;0.9251859;3.159393;1.507457;0.3864059;2.309845;1.17327;0.1798936;1.329893;0.106543;0;0;0;0.3864059;2.309845;1.17327;0.1798936;1.329893;0.106543;0;0;0
235551.2086;NotLabelled;16384;0.7391036;0.06925207;-0.434903;0.5096953;3;-2;-2;2646;-2376;1771;65536;0.2077562;-0.3836565;0.8982621;0.05263158;4;0;0;2631;1225;-2730;8192;0.02908587;-0.3808864;-0.7644037;-0.5193906;-1;-2;0;2102;3333;847;32768;-0.6509695;0.1066482;0.1024931;0.7445536;-3;0;-1;3785;1255;398;256;0.5221606;-0.5737517;0.398892;0.4889196;-2;0;-2;163;3938;-643;128;0.6536134;-0.5914127;0.2714681;0.3864266;4;2;2;-711;4027;172;4;0.6612453;-0.6246537;-0.3393352;0.2396122;0;-8;23;3103;2446;318;16;-0.3878116;0.2908587;0.599723;0.6366598;-31;-8;-26;341;3992;-204;2;-0.02631579;-0.02077562;-0.6800554;-0.7323937;-12;6;-19;323;3972;-231;8;-0.2797784;0.666205;0.1731302;0.6692689;-42;3;7;621;2559;3039;0.693275;2.34504;1.164822;0.6990606;2.872301;1.024877;0.7041405;3.335243;0.8999095;0.7425743;4.061142;1.000185;0.5015954;4.402654;1.007;0.1529724;4.273365;1.05042;-0.5115018;4.779419;0.6495321;0.3952308;4.538756;0.7826245;1.021212;4.375152;1.006951;1.301933;4.212551;1.050314;1.802643;3.425627;1.291799;0.9205871;3.149401;1.500276;0.3810154;2.30252;1.169096;0.1729461;1.331736;0.09431942;0;0;0;0.3810154;2.30252;1.169096;0.1729461;1.331736;0.09431942;0;0;0
235573.2814;NotLabelled;16384;0.7392321;0.06786703;-0.434903;0.5096953;4;-1;-4;2732;-2300;1753;65536;0.2077562;-0.3836565;0.8982621;0.05263158;4;0;0;2789;1197;-2720;8192;0.03047091;-0.3822715;-0.7645981;-0.5180055;-4;-1;1;2094;3287;783;32768;-0.6509695;0.1080332;0.1024931;0.7443538;-4;0;-1;3837;1283;438;256;0.5221606;-0.5727863;0.400277;0.4889196;-3;-2;-3;157;4016;-705;128;0.6536134;-0.5914127;0.2714681;0.3864266;3;-1;2;-683;4097;156;4;0.6580537;-0.6232687;-0.3421052;0.2479224;0;-8;23;3081;2554;358;16;-0.3808864;0.300554;0.5969529;0.6389366;-32;2;-23;499;4090;-70;2;-0.02493075;-0.01800554;-0.6814404;-0.7312272;-11;2;-15;239;4158;-343;8;-0.2756233;0.66759;0.1689751;0.6706734;-40;0;4;877;2241;3507;0.6830435;2.329707;1.150486;0.6888292;2.856968;1.01054;0.6939093;3.31991;0.8855729;0.731976;4.046063;0.984135;0.4907325;4.387393;0.9907387;0.1423166;4.257916;1.03525;-0.5230026;4.759757;0.6304866;0.3837174;4.519094;0.7636626;1.01037;4.360315;0.9895575;1.291324;4.198042;1.032639;1.794783;3.413351;1.275673;0.9136492;3.135456;1.485827;0.370784;2.287187;1.154759;0.1599348;1.335166;0.06386122;0;0;0;0.370784;2.287187;1.154759;0.1599348;1.335166;0.06386122;0;0;0
235593.6806;NotLabelled;16384;0.7392321;0.06786703;-0.434903;0.5096953;4;0;-5;2690;-2180;1781;65536;0.2077562;-0.3836565;0.8983423;0.05124654;3;-2;2;2843;1059;-2664;8192;0.03185596;-0.3822715;-0.7645417;-0.5180055;-4;-3;2;2168;3319;733;32768;-0.6509695;0.1094183;0.1024931;0.7441515;-3;1;-2;3789;1297;502;256;0.5221606;-0.5727863;0.400277;0.4889196;-3;-3;-3;153;3946;-671;128;0.6530365;-0.5914127;0.2728532;0.3864266;3;-1;2;-705;4017;192;4;0.6568676;-0.6218836;-0.3448753;0.2506925;-4;2;24;3077;2510;362;16;-0.3767313;0.3047091;0.5955678;0.6407222;-34;1;-23;599;4050;-96;2;-0.0235457;-0.01800554;-0.6828254;-0.72998;-7;-3;-14;497;3994;-391;8;-0.2714681;0.6689751;0.1634349;0.6723589;-40;0;6;541;2279;3207;0.675912;2.321409;1.143552;0.6816977;2.84867;1.003607;0.6867777;3.311612;0.8786399;0.7246203;4.037766;0.9772882;0.4833625;4.379095;0.983344;0.1348464;4.249618;1.027064;-0.5282074;4.752912;0.6203897;0.3786848;4.514599;0.7565877;1.003001;4.352017;0.9833431;1.283857;4.189744;1.027063;1.784995;3.403132;1.268677;0.9043313;3.123567;1.478586;0.3636524;2.278889;1.147826;0.1541447;1.336499;0.04834075;0;0;0;0.3636524;2.278889;1.147826;0.1541447;1.336499;0.04834075;0;0;0
235614.5306;NotLabelled;16384;0.7401709;0.06648199;-0.433518;0.5096953;3;0;-5;2730;-2150;1741;65536;0.2063712;-0.3822715;0.8992515;0.05124654;3;-2;4;2729;1021;-2706;8192;0.03185596;-0.3822715;-0.7654783;-0.5166205;-4;-3;3;2194;3333;699;32768;-0.6509695;0.1094183;0.1024931;0.7441515;-4;2;-3;3729;1221;488;256;0.5221606;-0.5718159;0.4016621;0.4889196;-3;-2;-3;59;3888;-581;128;0.6530365;-0.5914127;0.2728532;0.3864266;5;-2;4;-693;3923;114;4;0.6563855;-0.6204986;-0.3462604;0.2534626;0;-6;24;3111;2422;428;16;-0.3725762;0.3088643;0.5927978;0.6437241;-35;-1;-23;455;4034;-48;2;-0.02216066;-0.0166205;-0.6842105;-0.7287583;-12;5;-14;177;3926;-91;8;-0.267313;0.6703601;0.1592798;0.6736401;-40;-4;5;603;2435;3209;0.6748653;2.314821;1.130875;0.6806509;2.842081;0.9909292;0.6857309;3.305023;0.8659624;0.722998;4.031427;0.9629744;0.481465;4.372574;0.9682913;0.133059;4.242914;1.012343;-0.5306888;4.743118;0.6029968;0.3765828;4.506264;0.7392142;1.001126;4.345917;0.9682906;1.282117;4.183969;1.012342;1.784647;3.398455;1.254639;0.9035068;3.11889;1.46254;0.3626059;2.2723;1.135148;0.1521809;1.337271;0.02957124;0;0;0;0.3626059;2.2723;1.135148;0.1521809;1.337271;0.02957124;0;0;0
235635.2456;NotLabelled;16384;0.7412457;0.06509695;-0.433518;0.5083103;3;2;-6;2742;-2146;1775;65536;0.2049861;-0.3822715;0.8996461;0.04986149;3;-3;4;2689;1005;-2720;8192;0.03185596;-0.3836565;-0.7647851;-0.5166205;-3;-3;5;2174;3279;727;32768;-0.6509695;0.1108033;0.1024931;0.7439466;-4;4;-4;3673;1163;496;256;0.5207756;-0.5732851;0.4030471;0.4875346;-6;-3;-3;141;3892;-593;128;0.6531261;-0.5900277;0.2756233;0.3864266;6;-4;2;-711;3927;12;4;0.6545754;-0.6204986;-0.3476454;0.2562327;5;-7;24;3101;2366;324;16;-0.368421;0.3130194;0.5914127;0.6453804;-35;10;-21;373;4056;-62;2;-0.02216066;-0.01385042;-0.6855956;-0.7275134;-10;6;-13;199;3818;-433;8;-0.2645429;0.6717451;0.1537396;0.6746404;-42;-5;5;653;2025;3397;0.6680886;2.308577;1.121057;0.6738691;2.835369;0.9793587;0.6789445;3.297894;0.8528528;0.7121722;4.024432;0.9503195;0.4687424;4.364225;0.9558716;0.1210678;4.232598;0.9998701;-0.5448399;4.731277;0.5921751;0.3635833;4.49775;0.7264487;0.9885437;4.340463;0.9558108;1.270437;4.180055;0.9997367;1.774061;3.394355;1.239139;0.8939832;3.113122;1.449277;0.3558293;2.266071;1.125484;0.1463858;1.338174;0.01372823;0;0;0;0.3558293;2.266071;1.125484;0.1463858;1.338174;0.01372823;0;0;0
235657.0274;NotLabelled;16384;0.742054;0.06509695;-0.432133;0.5083103;2;2;-6;2770;-2118;1763;65536;0.2049861;-0.3822715;0.8996461;0.04986149;3;-3;5;2703;959;-2676;8192;0.03185596;-0.3850415;-0.7650233;-0.5152354;-2;-3;6;2128;3235;733;32768;-0.6495845;0.1108033;0.1024931;0.7451562;-4;5;-4;3675;1145;506;256;0.5207756;-0.5723088;0.4044321;0.4875346;-6;-1;-3;149;3882;-623;128;0.6539435;-0.5900277;0.2756233;0.3850415;8;-4;2;-767;3865;82;4;0.6520031;-0.6204986;-0.3504155;0.2590028;0;0;26;3159;2432;286;16;-0.3628809;0.3157895;0.5900277;0.6484303;-35;19;-22;211;4002;236;2;-0.02077562;-0.008310249;-0.6883656;-0.7250187;-9;4;-13;93;4012;-473;8;-0.2562327;0.6745152;0.1440443;0.6772188;-42;-6;4;871;2081;3535;0.6601863;2.301874;1.107593;0.6659635;2.828357;0.9647513;0.6710359;3.290606;0.8372418;0.7039032;4.017596;0.931412;0.4602138;4.357215;0.93602;0.1127475;4.225509;0.9814027;-0.556168;4.719277;0.5726563;0.3522427;4.486042;0.7075196;0.9800321;4.333868;0.9348662;1.262155;4.17388;0.9788523;1.769589;3.392184;1.223263;0.8895971;3.111464;1.434443;0.3479271;2.259378;1.112119;0.1425904;1.338639;-0.006333664;0;0;0;0.3479271;2.259378;1.112119;0.1425904;1.338639;-0.006333664;0;0;0
235677.0042;NotLabelled;16384;0.742054;0.06509695;-0.432133;0.5083103;2;3;-6;2702;-2148;1755;65536;0.2036011;-0.3822715;0.9000362;0.04847645;2;-4;5;2689;975;-2652;8192;0.03185596;-0.3864266;-0.7652565;-0.5138504;-1;-5;6;2128;3111;623;32768;-0.6481994;0.1135734;0.1024931;0.7459449;-5;5;-4;3673;1167;380;256;0.5207756;-0.5713276;0.4058172;0.4875346;-6;-2;-3;169;3822;-631;128;0.6546062;-0.5886427;0.2770083;0.3850415;8;-1;3;-711;3903;118;4;0.6507176;-0.6191136;-0.3531856;0.2617728;-1;1;27;3109;2310;514;16;-0.3573407;0.3185596;0.5886427;0.651404;-37;8;-25;705;4026;318;2;-0.01939058;-0.006925208;-0.6883656;-0.7250716;-9;6;-11;273;4070;-443;8;-0.2520775;0.6745152;0.1385041;0.6799285;-41;-1;5;453;2091;3325;0.654828;2.293421;1.09644;0.6605999;2.819427;0.9518523;0.6656675;3.28125;0.8228098;0.6979754;4.008583;0.9144916;0.4540169;4.348023;0.9179882;0.1066642;4.216196;0.9638886;-0.5604807;4.710378;0.5527549;0.3486965;4.480629;0.6884315;0.9738535;4.325084;0.9168118;1.256112;4.165471;0.9612881;1.765256;3.385257;1.206873;0.8868167;3.101521;1.420476;0.342569;2.25094;1.101119;0.138803;1.338825;-0.02466356;0;0;0;0.342569;2.25094;1.101119;0.138803;1.338825;-0.02466356;0;0;0
235697.9858;NotLabelled;16384;0.7428589;0.06509695;-0.4307479;0.5083103;2;4;-7;2678;-2144;1741;65536;0.2036011;-0.3808864;0.9006232;0.04847645;2;-5;6;2649;983;-2658;8192;0.03185596;-0.3878116;-0.7654846;-0.5124654;-2;-3;6;2136;3103;669;32768;-0.6481994;0.1135734;0.101108;0.7461339;-4;5;-3;3689;1155;486;256;0.5207756;-0.5713276;0.4058172;0.4875346;-7;-2;-3;167;3812;-597;128;0.6540183;-0.5886427;0.2783934;0.3850415;7;-3;3;-675;3899;56;4;0.6482512;-0.6163435;-0.3573407;0.2686981;-2;-4;25;2985;2418;272;16;-0.3490305;0.3268698;0.5844875;0.6555213;-36;3;-27;87;3856;366;2;-0.01939058;-0.005540166;-0.6897507;-0.7237661;-13;5;-7;145;4070;139;8;-0.2479224;0.6759003;0.134349;0.6809138;-38;0;5;819;1723;3795;0.6483893;2.269481;1.085518;0.6541612;2.795488;0.9409324;0.6592289;3.257312;0.8118919;0.69131;3.984337;0.9060638;0.4473411;4.323763;0.9100989;0.09987994;4.191785;0.9547251;-0.567699;4.686687;0.5451662;0.34122;4.456969;0.6826161;0.9671793;4.300827;0.9100984;1.249331;4.141068;0.9547246;1.75996;3.361348;1.198794;0.8808277;3.078828;1.41115;0.3361303;2.227;1.090196;0.1306657;1.338773;-0.05422377;0;0;0;0.3361303;2.227;1.090196;0.1306657;1.338773;-0.05422377;0;0;0
235717.9919;NotLabelled;16384;0.7447249;0.06371191;-0.4293629;0.5069252;3;3;-6;2770;-2148;1737;65536;0.2022161;-0.3795014;0.9015929;0.04709141;2;-5;5;2609;971;-2744;8192;0.03185596;-0.3891967;-0.7647813;-0.5124654;-2;-3;5;2080;3133;675;32768;-0.6468144;0.1149584;0.101108;0.7471231;-5;4;-3;3629;1151;404;256;0.5207756;-0.5715222;0.4072022;0.4861496;-6;-3;-2;185;3824;-565;128;0.6552622;-0.5872576;0.2783934;0.3850415;5;-3;2;-667;3859;104;4;0.648192;-0.6135734;-0.3601108;0.2714681;-5;0;23;2973;2252;648;16;-0.3434903;0.3310249;0.5817174;0.6588184;-38;7;-29;599;4070;306;2;-0.01800554;-0.005540166;-0.6911357;-0.7224794;-6;-2;-2;223;3952;-227;8;-0.2423823;0.6772853;0.1288089;0.6826007;-39;9;8;675;1943;3203;0.6515839;2.258249;1.070844;0.6573505;2.783774;0.9245165;0.6624135;3.245167;0.7939463;0.6921865;3.972504;0.8864514;0.4471375;4.31116;0.8897348;0.1001027;4.178178;0.9346979;-0.570349;4.668987;0.5249063;0.3397491;4.443076;0.6608578;0.9670461;4.289881;0.889734;1.24971;4.131124;0.9346972;1.760727;3.352023;1.179925;0.8827516;3.067914;1.394932;0.339325;2.215784;1.075675;0.1277332;1.338015;-0.07567734;0;0;0;0.339325;2.215784;1.075675;0.1277332;1.338015;-0.07567734;0;0;0
