SEP=;
index;label;RightUpperArm_boneIndex;RightUpperArm_quat9x_w;RightUpperArm_quat9x_x;RightUpperArm_quat9x_y;RightUpperArm_quat9x_z;RightUpperArm_gyroscope_x;RightUpperArm_gyroscope_y;RightUpperArm_gyroscope_z;RightUpperArm_accelerometer_x;RightUpperArm_accelerometer_y;RightUpperArm_accelerometer_z;RightLowerArm_boneIndex;RightLowerArm_quat9x_w;RightLowerArm_quat9x_x;RightLowerArm_quat9x_y;RightLowerArm_quat9x_z;RightLowerArm_gyroscope_x;RightLowerArm_gyroscope_y;RightLowerArm_gyroscope_z;RightLowerArm_accelerometer_x;RightLowerArm_accelerometer_y;RightLowerArm_accelerometer_z;LeftUpperArm_boneIndex;LeftUpperArm_quat9x_w;LeftUpperArm_quat9x_x;LeftUpperArm_quat9x_y;LeftUpperArm_quat9x_z;LeftUpperArm_gyroscope_x;LeftUpperArm_gyroscope_y;LeftUpperArm_gyroscope_z;LeftUpperArm_accelerometer_x;LeftUpperArm_accelerometer_y;LeftUpperArm_accelerometer_z;LeftLowerArm_boneIndex;LeftLowerArm_quat9x_w;LeftLowerArm_quat9x_x;LeftLowerArm_quat9x_y;LeftLowerArm_quat9x_z;LeftLowerArm_gyroscope_x;LeftLowerArm_gyroscope_y;LeftLowerArm_gyroscope_z;LeftLowerArm_accelerometer_x;LeftLowerArm_accelerometer_y;LeftLowerArm_accelerometer_z;Chest_boneIndex;Chest_quat9x_w;Chest_quat9x_x;Chest_quat9x_y;Chest_quat9x_z;Chest_gyroscope_x;Chest_gyroscope_y;Chest_gyroscope_z;Chest_accelerometer_x;Chest_accelerometer_y;Chest_accelerometer_z;Spine_boneIndex;Spine_quat9x_w;Spine_quat9x_x;Spine_quat9x_y;Spine_quat9x_z;Spine_gyroscope_x;Spine_gyroscope_y;Spine_gyroscope_z;Spine_accelerometer_x;Spine_accelerometer_y;Spine_accelerometer_z;RightUpperLeg_boneIndex;RightUpperLeg_quat9x_w;RightUpperLeg_quat9x_x;RightUpperLeg_quat9x_y;RightUpperLeg_quat9x_z;RightUpperLeg_gyroscope_x;RightUpperLeg_gyroscope_y;RightUpperLeg_gyroscope_z;RightUpperLeg_accelerometer_x;RightUpperLeg_accelerometer_y;RightUpperLeg_accelerometer_z;RightLowerLeg_boneIndex;RightLowerLeg_quat9x_w;RightLowerLeg_quat9x_x;RightLowerLeg_quat9x_y;RightLowerLeg_quat9x_z;RightLowerLeg_gyroscope_x;RightLowerLeg_gyroscope_y;RightLowerLeg_gyroscope_z;RightLowerLeg_accelerometer_x;RightLowerLeg_accelerometer_y;RightLowerLeg_accelerometer_z;LeftUpperLeg_boneIndex;LeftUpperLeg_quat9x_w;LeftUpperLeg_quat9x_x;LeftUpperLeg_quat9x_y;LeftUpperLeg_quat9x_z;LeftUpperLeg_gyroscope_x;LeftUpperLeg_gyroscope_y;LeftUpperLeg_gyroscope_z;LeftUpperLeg_accelerometer_x;LeftUpperLeg_accelerometer_y;LeftUpperLeg_accelerometer_z;LeftLowerLeg_boneIndex;LeftLowerLeg_quat9x_w;LeftLowerLeg_quat9x_x;LeftLowerLeg_quat9x_y;LeftLowerLeg_quat9x_z;LeftLowerLeg_gyroscope_x;LeftLowerLeg_gyroscope_y;LeftLowerLeg_gyroscope_z;LeftLowerLeg_accelerometer_x;LeftLowerLeg_accelerometer_y;LeftLowerLeg_accelerometer_z;pelvis_x;pelvis_y;pelvis_z;lowerSpine_x;lowerSpine_y;lowerSpine_z;middleSpine_x;middleSpine_y;middleSpine_z;upperSpine_x;upperSpine_y;upperSpine_z;rightClavicle_x;rightClavicle_y;rightClavicle_z;rightShoulder_x;rightShoulder_y;rightShoulder_z;rightElbow_x;rightElbow_y;rightElbow_z;rightWrist_x;rightWrist_y;rightWrist_z;leftClavicle_x;leftClavicle_y;leftClavicle_z;leftShoulder_x;leftShoulder_y;leftShoulder_z;leftElbow_x;leftElbow_y;leftElbow_z;leftWrist_x;leftWrist_y;leftWrist_z;rightHip_x;rightHip_y;rightHip_z;rightKnee_x;rightKnee_y;rightKnee_z;rightAnkle_x;rightAnkle_y;rightAnkle_z;leftHip_x;leftHip_y;leftHip_z;leftKnee_x;leftKnee_y;leftKnee_z;leftAnkle_x;leftAnkle_y;leftAnkle_z;
106741.2986;NotLabelled;16384;0.7100145;0.004155125;-0.4958449;0.5;-1;1;0;2790;-2044;2025;65536;0.3310249;-0.33518;0.8819985;0.01246537;-2;-1;1;2365;1052;-3183;8192;0.1038781;-0.3753462;-0.7717168;-0.5027701;0;-1;0;1960;3521;789;32768;0.7219269;-0.1177285;-0.04986149;-0.6800554;-1;0;1;3929;917;-182;256;-0.1301939;0.0166205;-0.6260388;-0.7686669;0;0;1;753;3938;-697;128;0.4903047;-0.4224377;0.4653739;0.6038003;1;-1;-1;-851;4047;358;4;0.6814376;-0.6509695;-0.2894737;0.16759;0;0;0;2493;3192;386;16;-0.4362881;0.2313019;0.6230009;0.6066482;0;-4;0;1035;3888;-704;2;-0.07617728;-0.04986149;-0.6495845;-0.7548184;0;-1;0;699;3998;-627;8;-0.3393352;0.6149584;0.2645429;0.6608289;0;0;0;509;3145;2517;-0.8891907;2.488161;0.3720929;-0.8832909;3.025843;0.2799808;-0.8781086;3.498124;0.1970206;-0.7487851;4.207532;0.3329596;-0.9445398;4.57618;0.3559031;-1.307122;4.490319;0.3919772;-0.7604632;4.954749;-0.1943669;-1.1539;4.723621;0.6360458;-0.4326317;4.482862;0.3559029;-0.1752061;4.283979;0.391977;-0.2968366;3.460953;0.8778869;-0.5545108;3.235572;-0.005626202;-1.201452;2.445442;0.3722309;-0.317341;1.289299;0.2221001;0;0;0;-1.201452;2.445442;0.3722309;-0.317341;1.289299;0.2221001;0;0;0
106762.1539;NotLabelled;16384;0.7100145;0.004155125;-0.4958449;0.5;-1;1;0;2838;-2032;2045;65536;0.3310249;-0.333795;0.882503;0.01385042;-1;0;1;2371;1012;-3231;8192;0.1038781;-0.3753462;-0.7717168;-0.5027701;0;-1;-1;1958;3507;805;32768;0.7219269;-0.1177285;-0.04986149;-0.6800554;-1;0;1;3949;973;-248;256;-0.1301939;0.0166205;-0.6260388;-0.7686669;0;-1;1;747;3960;-691;128;0.4903047;-0.4224377;0.4653739;0.6038003;1;0;0;-815;4019;344;4;0.6808476;-0.6509695;-0.2908587;0.16759;0;0;0;2537;3166;422;16;-0.4362881;0.232687;0.6238317;0.6052631;0;-3;0;1005;3878;-650;2;-0.07617728;-0.04986149;-0.6509695;-0.7536243;0;-1;0;693;4064;-585;8;-0.3393352;0.6149584;0.2645429;0.6608289;0;0;0;457;3185;2535;-0.8923147;2.487015;0.3657016;-0.8864148;3.024698;0.2735894;-0.8812326;3.496978;0.1906292;-0.7519091;4.206386;0.3265682;-0.9476638;4.575034;0.3495117;-1.310246;4.489174;0.3855858;-0.7635828;4.953602;-0.2007542;-1.156516;4.721016;0.6294893;-0.4357557;4.481717;0.3495114;-0.1783301;4.282834;0.3855855;-0.2999642;3.459807;0.8714946;-0.5576382;3.234426;-0.01201876;-1.204576;2.444297;0.3658395;-0.3177963;1.289957;0.217584;0;0;0;-1.204576;2.444297;0.3658395;-0.3177963;1.289957;0.217584;0;0;0
106783.2806;NotLabelled;16384;0.7100145;0.004155125;-0.4958449;0.5;-1;0;0;2826;-2018;2039;65536;0.3310249;-0.333795;0.882503;0.01385042;0;0;0;2297;1022;-3167;8192;0.1038781;-0.3753462;-0.7717168;-0.5027701;0;-1;-1;1974;3523;883;32768;0.7220212;-0.1177285;-0.04847645;-0.6800554;-1;-1;1;3897;999;-214;256;-0.1301939;0.0166205;-0.6260388;-0.7686669;0;-1;1;775;3980;-727;128;0.4903047;-0.4224377;0.4653739;0.6038003;0;2;0;-759;4101;380;4;0.6808476;-0.6509695;-0.2908587;0.16759;0;0;0;2583;3152;442;16;-0.4376731;0.232687;0.6228608;0.6052631;-1;-6;-1;1093;3934;-628;2;-0.07617728;-0.04986149;-0.6509695;-0.7536243;0;1;0;633;4072;-565;8;-0.3393352;0.6149584;0.2645429;0.6608289;0;0;0;443;3169;2619;-0.8928505;2.486301;0.369127;-0.8869506;3.023983;0.2770149;-0.8817685;3.496264;0.1940546;-0.7524449;4.205672;0.3299936;-0.9481997;4.574319;0.3529372;-1.310782;4.48846;0.3890112;-0.7641186;4.952888;-0.1973287;-1.157051;4.720302;0.6329147;-0.4362915;4.481003;0.3529369;-0.1788659;4.282119;0.389011;-0.3005;3.459093;0.8749201;-0.5600749;3.235476;-0.008484855;-1.205112;2.443583;0.369265;-0.3183321;1.289243;0.2210094;0;0;0;-1.205112;2.443583;0.369265;-0.3183321;1.289243;0.2210094;0;0;0
106804.2004;NotLabelled;16384;0.7100145;0.004155125;-0.4958449;0.5;0;0;0;2842;-2092;1997;65536;0.3310249;-0.333795;0.882503;0.01385042;0;0;0;2399;1032;-3221;8192;0.1038781;-0.3753462;-0.7717168;-0.5027701;0;-1;-1;1958;3549;851;32768;0.7220212;-0.1177285;-0.04847645;-0.6800554;0;0;0;3969;1021;-206;256;-0.1301939;0.0166205;-0.6260388;-0.7686669;0;0;0;789;3942;-743;128;0.4916897;-0.4238227;0.4639889;0.6027685;-2;1;0;-853;4143;358;4;0.6808476;-0.6509695;-0.2908587;0.16759;-1;1;0;2573;3202;434;16;-0.4376731;0.234072;0.6223416;0.6052631;0;-4;-1;895;3948;-726;2;-0.07617728;-0.04986149;-0.6509695;-0.7536243;0;0;0;697;4006;-533;8;-0.3393352;0.6149584;0.2645429;0.6608289;0;0;0;535;3149;2569;-0.8900342;2.487138;0.3682318;-0.8841345;3.024807;0.2760448;-0.8789523;3.497076;0.1930189;-0.7496286;4.206503;0.3288589;-0.9453833;4.575154;0.3517513;-1.307965;4.489299;0.3878378;-0.761303;4.953646;-0.1985675;-1.154235;4.721176;0.6317089;-0.4334753;4.481837;0.3517632;-0.1760496;4.282959;0.3878647;-0.2976831;3.46;0.8738884;-0.5572591;3.23626;-0.009484783;-1.202296;2.44442;0.3683763;-0.3155162;1.290059;0.2202801;0;0;0;-1.202296;2.44442;0.3683763;-0.3155162;1.290059;0.2202801;0;0;0
106825.2675;NotLabelled;16384;0.7100145;0.004155125;-0.4958449;0.5;0;0;0;2844;-2064;2067;65536;0.3310249;-0.333795;0.882503;0.01385042;0;0;0;2365;1020;-3191;8192;0.1052632;-0.3753462;-0.7715291;-0.5027701;0;0;-1;2076;3505;869;32768;0.7217941;-0.1191136;-0.04847645;-0.6800554;0;0;0;3999;961;-114;256;-0.1301939;0.0166205;-0.6260388;-0.7686669;0;0;0;699;3978;-695;128;0.4903047;-0.4238227;0.4639889;0.6038956;0;1;0;-805;4051;360;4;0.6821692;-0.6495845;-0.2908587;0.16759;0;0;0;2501;3168;314;16;-0.4376731;0.234072;0.6223416;0.6052631;-1;-3;0;1015;3968;-674;2;-0.07617728;-0.04986149;-0.6509695;-0.7536243;0;0;0;757;3990;-609;8;-0.3393352;0.6149584;0.2645429;0.6608289;0;0;0;523;3157;2549;-0.8894615;2.48684;0.3739569;-0.8835591;3.024764;0.2832632;-0.8783744;3.497261;0.201549;-0.749051;4.206668;0.3374876;-0.9448056;4.575317;0.360431;-1.307388;4.489457;0.3965051;-0.7610035;4.953885;-0.1900946;-1.153936;4.721299;0.640149;-0.4328977;4.482;0.3604305;-0.1754721;4.283116;0.3965047;-0.2950012;3.459269;0.881543;-0.556229;3.233808;-0.000905022;-1.201723;2.444121;0.3739731;-0.3155163;1.290029;0.2204591;0;0;0;-1.201723;2.444121;0.3739731;-0.3155163;1.290029;0.2204591;0;0;0
106846.2595;NotLabelled;16384;0.7100145;0.004155125;-0.4958449;0.5;0;0;0;2790;-2044;2025;65536;0.3310249;-0.333795;0.882503;0.01385042;0;0;0;2383;996;-3243;8192;0.1052632;-0.3753462;-0.7715291;-0.5027701;-1;0;-1;2050;3527;869;32768;0.7217941;-0.1191136;-0.04847645;-0.6800554;0;-1;0;3995;1053;-188;256;-0.1301939;0.0166205;-0.6260388;-0.7686669;1;1;0;709;3966;-709;128;0.4916897;-0.4238227;0.4639889;0.6027685;0;2;0;-841;4073;310;4;0.6818274;-0.6495845;-0.2908587;0.1689751;0;0;1;2519;3142;298;16;-0.4376731;0.234072;0.6236857;0.6038781;-1;-5;0;1001;3880;-630;2;-0.07617728;-0.04986149;-0.6495845;-0.7548184;0;0;0;719;4026;-611;8;-0.3393352;0.6149584;0.2645429;0.6608289;-1;0;0;527;3131;2557;-0.8950357;2.484875;0.3703235;-0.8891358;3.022545;0.2781364;-0.8839539;3.494814;0.1951105;-0.7546303;4.204222;0.3310494;-0.950385;4.572869;0.353993;-1.312967;4.48701;0.390067;-0.7663045;4.951439;-0.1962729;-1.159237;4.718852;0.6339705;-0.438477;4.479553;0.3539926;-0.1810515;4.28067;0.3900667;-0.3008113;3.456821;0.8750479;-0.562039;3.231361;-0.007400364;-1.207297;2.442158;0.3704678;-0.3187918;1.289893;0.2165049;0;0;0;-1.207297;2.442158;0.3704678;-0.3187918;1.289893;0.2165049;0;0;0
106866.328;NotLabelled;16384;0.7100145;0.004155125;-0.4958449;0.5;0;-2;0;2856;-2084;2033;65536;0.3310249;-0.333795;0.882503;0.01385042;0;0;0;2371;1046;-3267;8192;0.1052632;-0.3753462;-0.7715291;-0.5027701;-1;1;-1;2034;3485;831;32768;0.7217941;-0.1191136;-0.04847645;-0.6800554;0;0;0;3963;1063;-148;256;-0.1301939;0.0166205;-0.6260388;-0.7686669;1;0;0;735;3948;-691;128;0.4916897;-0.4238227;0.4639889;0.6027685;0;-1;0;-841;4075;412;4;0.6805052;-0.6509695;-0.2908587;0.1689751;0;0;0;2495;3210;404;16;-0.4390582;0.2354571;0.622189;0.6038781;-1;-6;0;973;3948;-596;2;-0.07617728;-0.04986149;-0.6495845;-0.7548184;0;1;0;809;4008;-557;8;-0.3393352;0.6149584;0.2645429;0.6608289;0;0;0;529;3123;2599;-0.8933232;2.485197;0.3679496;-0.8874235;3.022867;0.2757626;-0.8822413;3.495135;0.1927366;-0.7529178;4.204543;0.3286755;-0.9486725;4.573191;0.3516191;-1.311255;4.487331;0.3876931;-0.7645919;4.95176;-0.1986467;-1.157525;4.719173;0.6315966;-0.4367644;4.479875;0.3516188;-0.179339;4.280992;0.3876927;-0.2990987;3.457143;0.872674;-0.5603265;3.231683;-0.009774238;-1.205585;2.442479;0.368094;-0.3165013;1.28997;0.2193888;0;0;0;-1.205585;2.442479;0.368094;-0.3165013;1.28997;0.2193888;0;0;0
106886.6703;NotLabelled;16384;0.7100145;0.004155125;-0.4958449;0.5;0;-2;0;2922;-2068;2045;65536;0.3310249;-0.33518;0.8819779;0.01385042;0;1;0;2383;972;-3167;8192;0.1052632;-0.3753462;-0.7715291;-0.5027701;-1;1;0;2016;3467;879;32768;0.7216997;-0.1191136;-0.04986149;-0.6800554;0;0;0;3935;993;-160;256;-0.1301939;0.0166205;-0.6260388;-0.7686669;1;-1;0;749;3886;-731;128;0.4903047;-0.4238227;0.4639889;0.6038956;-2;-1;0;-765;4083;404;4;0.6818274;-0.6495845;-0.2908587;0.1689751;0;1;0;2413;3240;366;16;-0.4390582;0.2368421;0.6216632;0.6038781;0;-5;0;1023;3938;-620;2;-0.07617728;-0.04986149;-0.6509695;-0.7536243;0;2;0;791;4016;-491;8;-0.3393352;0.6149584;0.2645429;0.6608289;0;-1;0;481;3147;2597;-0.8899243;2.485735;0.372784;-0.8840219;3.023659;0.2820903;-0.8788373;3.496156;0.2003761;-0.7495138;4.205564;0.3363147;-0.9452686;4.574212;0.3592581;-1.307851;4.488352;0.3953322;-0.7614663;4.952779;-0.1912678;-1.15404;4.719338;0.638906;-0.4333605;4.480895;0.3592576;-0.1759349;4.282011;0.3953318;-0.2954642;3.458164;0.8803706;-0.5547916;3.230939;-0.002185553;-1.202186;2.443017;0.3728002;-0.3136806;1.290752;0.2188375;0;0;0;-1.202186;2.443017;0.3728002;-0.3136806;1.290752;0.2188375;0;0;0
106907.2944;NotLabelled;16384;0.7100213;0.002770083;-0.4958449;0.5;0;-1;1;2874;-1992;2011;65536;0.3310249;-0.33518;0.8819779;0.01385042;0;2;-1;2385;992;-3231;8192;0.1052632;-0.3753462;-0.7715291;-0.5027701;0;2;0;1990;3477;787;32768;0.7216997;-0.1191136;-0.04986149;-0.6800554;1;0;0;3951;943;-168;256;-0.1301939;0.0166205;-0.6260388;-0.7686669;1;-1;0;705;3876;-759;128;0.4903047;-0.4238227;0.4639889;0.6038956;-2;0;0;-799;4051;382;4;0.6818274;-0.6495845;-0.2908587;0.1689751;-1;0;0;2487;3280;382;16;-0.4404432;0.2368421;0.6206826;0.6038781;-1;-2;0;925;3962;-642;2;-0.07617728;-0.04986149;-0.6509695;-0.7536243;0;2;0;731;3980;-589;8;-0.3393352;0.6149584;0.2645429;0.6608289;0;-2;-1;517;3103;2663;-0.8904299;2.485024;0.3762251;-0.8845273;3.022948;0.2855314;-0.8793427;3.495445;0.2038172;-0.7500192;4.204852;0.3397561;-0.945774;4.573501;0.3626996;-1.308356;4.48764;0.3987738;-0.7604316;4.950247;-0.1878291;-1.153005;4.716805;0.6423442;-0.4338659;4.480184;0.3626992;-0.1764403;4.281301;0.3987732;-0.2962001;3.457453;0.8837543;-0.5555279;3.230228;0.001198366;-1.202692;2.442305;0.3762414;-0.3141861;1.290041;0.2222783;0;0;0;-1.202692;2.442305;0.3762414;-0.3141861;1.290041;0.2222783;0;0;0
106927.3151;NotLabelled;16384;0.7100213;0.002770083;-0.4958449;0.5;0;-2;0;2864;-1990;2043;65536;0.3310249;-0.33518;0.8819779;0.01385042;0;2;-1;2385;1020;-3207;8192;0.1052632;-0.3753462;-0.7715291;-0.5027701;0;1;0;1894;3497;815;32768;0.7216997;-0.1191136;-0.04986149;-0.6800554;0;0;0;4003;933;-136;256;-0.1301939;0.0166205;-0.6260388;-0.7686669;1;0;0;715;3968;-687;128;0.4903047;-0.4238227;0.4639889;0.6038956;-2;4;0;-843;4091;342;4;0.6821692;-0.6495845;-0.2908587;0.16759;-1;1;0;2425;3292;362;16;-0.4390582;0.2368421;0.6216632;0.6038781;-1;6;1;757;3962;-652;2;-0.07617728;-0.04986149;-0.6509695;-0.7536243;1;1;1;839;3970;-539;8;-0.3393352;0.6163435;0.2631579;0.6600911;0;-4;0;537;3115;2549;-0.8876257;2.487563;0.3723361;-0.8817231;3.025487;0.2816425;-0.8765385;3.497984;0.1999282;-0.747215;4.207392;0.3358671;-0.9429698;4.57604;0.3588107;-1.305552;4.49018;0.3948849;-0.7576274;4.952786;-0.1917181;-1.150201;4.719345;0.6384553;-0.4310617;4.482723;0.3588102;-0.1736361;4.28384;0.3948843;-0.2933959;3.459992;0.8798653;-0.5527237;3.232768;-0.002690583;-1.199887;2.444845;0.3723524;-0.3136806;1.290752;0.218838;0;0;0;-1.199887;2.444845;0.3723524;-0.3136806;1.290752;0.218838;0;0;0
106948.304;NotLabelled;16384;0.7100213;0.002770083;-0.4958449;0.5;0;-1;0;2818;-2028;2025;65536;0.3310249;-0.33518;0.8819779;0.01385042;0;1;0;2409;1004;-3185;8192;0.1052632;-0.3753462;-0.7715291;-0.5027701;0;1;0;1908;3487;909;32768;0.7219269;-0.1177285;-0.04986149;-0.6800554;1;0;0;3943;1003;-126;256;-0.1301939;0.0166205;-0.6260388;-0.7686669;1;1;0;691;3972;-685;128;0.4903047;-0.4252077;0.4626039;0.6039845;-1;5;0;-799;4041;310;4;0.6821692;-0.6495845;-0.2908587;0.16759;0;1;0;2421;3230;304;16;-0.4390582;0.2368421;0.6216632;0.6038781;0;6;1;911;3920;-726;2;-0.07756232;-0.04986149;-0.6495845;-0.7546774;2;2;0;771;3996;-629;8;-0.3407202;0.6163435;0.2631579;0.6593773;0;-5;0;541;3093;2615;-0.8877936;2.487563;0.3719164;-0.8818884;3.025723;0.2826375;-0.8767014;3.498434;0.202166;-0.7474392;4.207841;0.3381633;-0.9432043;4.576489;0.3610187;-1.305803;4.49063;0.3969293;-0.757366;4.951694;-0.1904098;-1.150314;4.718251;0.6395868;-0.4312963;4.483173;0.3612489;-0.173887;4.284289;0.3974389;-0.2940707;3.461719;0.8844801;-0.5513466;3.236339;0.0008510947;-1.200055;2.444845;0.3718113;-0.3137793;1.290752;0.2186964;0;0;0;-1.200055;2.444845;0.3718113;-0.3137793;1.290752;0.2186964;0;0;0
106969.181;NotLabelled;16384;0.709052;0.002770083;-0.4972299;0.5;0;-1;0;2840;-1992;2043;65536;0.3310249;-0.33518;0.8819779;0.01385042;0;1;0;2431;1000;-3189;8192;0.1052632;-0.3753462;-0.7715291;-0.5027701;0;0;0;1918;3463;899;32768;0.7219269;-0.1177285;-0.04986149;-0.6800554;0;1;0;3981;1059;-146;256;-0.1301939;0.01800554;-0.6260388;-0.7686356;1;1;0;697;4012;-687;128;0.4916897;-0.4252077;0.4626039;0.6028575;-1;5;0;-769;4035;276;4;0.6821692;-0.6495845;-0.2908587;0.16759;0;1;0;2383;3186;320;16;-0.4390582;0.2354571;0.6208417;0.6052631;0;6;2;987;4028;-688;2;-0.07756232;-0.04986149;-0.6495845;-0.7546774;1;1;0;731;3982;-473;8;-0.3407202;0.6163435;0.2631579;0.6593773;1;-1;0;405;3019;2615;-0.8863482;2.486906;0.3793985;-0.8804458;3.024816;0.2886256;-0.8752614;3.497302;0.2068418;-0.7471929;4.206944;0.3427373;-0.9435997;4.575247;0.3656609;-1.306029;4.488747;0.4017438;-0.7576798;4.952631;-0.1834514;-1.148476;4.71919;0.6475607;-0.4315273;4.482837;0.3656607;-0.1737496;4.284412;0.4017439;-0.2926999;3.460563;0.8869242;-0.5522642;3.235183;0.003964931;-1.19861;2.444187;0.3794216;-0.3127336;1.290095;0.2240107;0;0;0;-1.19861;2.444187;0.3794216;-0.3127336;1.290095;0.2240107;0;0;0
106989.1336;NotLabelled;16384;0.709052;0.002770083;-0.4972299;0.5;0;-1;0;2942;-1994;2047;65536;0.3310249;-0.33518;0.8819985;0.01246537;0;0;0;2393;912;-3165;8192;0.1052632;-0.3753462;-0.7715291;-0.5027701;0;0;0;1996;3481;921;32768;0.7219269;-0.1177285;-0.04986149;-0.6800554;0;1;0;3939;1021;-114;256;-0.1301939;0.01800554;-0.6260388;-0.7686356;0;1;-1;689;3912;-683;128;0.4916897;-0.4252077;0.4626039;0.6028575;0;3;0;-805;4059;346;4;0.6808476;-0.6509695;-0.2908587;0.16759;0;1;0;2395;3200;334;16;-0.4376731;0.2354571;0.6218189;0.6052631;0;4;1;829;3958;-648;2;-0.07756232;-0.04986149;-0.6495845;-0.7546774;1;0;1;807;4000;-469;8;-0.3407202;0.6163435;0.2631579;0.6593773;1;0;0;501;3135;2651;-0.8864242;2.487867;0.3707079;-0.8805218;3.025777;0.279935;-0.8753373;3.498263;0.1981512;-0.7472689;4.207906;0.3340467;-0.9436757;4.576209;0.3569703;-1.306105;4.489709;0.3930531;-0.758032;4.953593;-0.1924001;-1.14969;4.722466;0.6388523;-0.4316033;4.483799;0.3569701;-0.1738256;4.285374;0.3930534;-0.2925469;3.461525;0.8782899;-0.5521114;3.236145;-0.004669547;-1.198686;2.445149;0.370731;-0.3122252;1.290809;0.2205778;0;0;0;-1.198686;2.445149;0.370731;-0.3122252;1.290809;0.2205778;0;0;0
107009.1511;NotLabelled;16384;0.7090561;0.001385042;-0.4972299;0.5;1;0;-1;2888;-1970;2035;65536;0.3310249;-0.33518;0.8819985;0.01246537;0;-1;0;2439;922;-3169;8192;0.1052632;-0.3753462;-0.7715291;-0.5027701;-1;0;1;1996;3499;889;32768;0.7216997;-0.1191136;-0.04986149;-0.6800554;0;1;0;3951;1009;-100;256;-0.1301939;0.01800554;-0.6260388;-0.7686356;0;0;-1;633;3974;-721;128;0.4916897;-0.4265928;0.4626039;0.6018782;1;0;0;-791;4137;284;4;0.6808476;-0.6509695;-0.2908587;0.16759;0;0;0;2445;3262;322;16;-0.4376731;0.234072;0.6223416;0.6052631;1;0;1;985;3976;-684;2;-0.07756232;-0.04986149;-0.6495845;-0.7546774;0;0;1;857;4022;-555;8;-0.3421052;0.6163435;0.2631579;0.6586598;1;-2;-1;465;3199;2545;-0.8892428;2.487087;0.3712632;-0.8833405;3.024994;0.2804677;-0.8781561;3.497476;0.1986641;-0.7500876;4.207119;0.3345592;-0.9464946;4.575421;0.357483;-1.308924;4.488921;0.3935662;-0.7595873;4.950986;-0.1921427;-1.151245;4.719859;0.6391106;-0.4344219;4.483011;0.3574825;-0.1766441;4.284587;0.3935656;-0.2953683;3.460738;0.8788016;-0.556585;3.233514;-0.003197536;-1.201504;2.444369;0.3712882;-0.3150438;1.290029;0.2211344;0;0;0;-1.201504;2.444369;0.3712882;-0.3150438;1.290029;0.2211344;0;0;0
107030.1616;NotLabelled;16384;0.7090561;0.001385042;-0.4972299;0.5;2;0;-1;2918;-2014;2067;65536;0.3310249;-0.33518;0.8819985;0.01246537;0;-1;0;2441;952;-3239;8192;0.1052632;-0.3753462;-0.7715291;-0.5027701;0;-1;0;1882;3525;865;32768;0.7216997;-0.1191136;-0.04986149;-0.6800554;-1;0;0;4011;997;-136;256;-0.1301939;0.01800554;-0.6260388;-0.7686356;-1;0;0;699;4054;-691;128;0.4916897;-0.4265928;0.4626039;0.6018782;0;0;1;-835;4119;324;4;0.6808476;-0.6509695;-0.2908587;0.16759;0;1;0;2475;3216;374;16;-0.4376731;0.234072;0.6223416;0.6052631;0;0;1;999;3920;-622;2;-0.07894737;-0.04986149;-0.6495845;-0.7545337;2;0;2;847;4020;-605;8;-0.3421052;0.6177285;0.2631579;0.6573609;2;-2;0;467;3147;2491;-0.8892428;2.487087;0.3712632;-0.8833405;3.024994;0.2804677;-0.8781561;3.497476;0.1986641;-0.7500876;4.207119;0.3345592;-0.9464946;4.575421;0.357483;-1.308924;4.488921;0.3935662;-0.7595912;4.950986;-0.1921462;-1.151249;4.71986;0.6391069;-0.4344219;4.483011;0.3574825;-0.1766441;4.284587;0.3935656;-0.2953651;3.460738;0.8788026;-0.5565817;3.233514;-0.003196985;-1.201504;2.444369;0.3712882;-0.3150438;1.290029;0.2211344;0;0;0;-1.201504;2.444369;0.3712882;-0.3150438;1.290029;0.2211344;0;0;0
107050.2163;NotLabelled;16384;0.7090561;0.001385042;-0.4972299;0.5;1;1;0;2914;-2024;2057;65536;0.3310249;-0.33518;0.8819985;0.01246537;0;-2;0;2401;990;-3235;8192;0.1052632;-0.3753462;-0.7715291;-0.5027701;0;-2;1;1946;3497;889;32768;0.7216997;-0.1191136;-0.04986149;-0.6800554;-2;1;0;3991;969;-180;256;-0.1301939;0.01800554;-0.6260388;-0.7686356;-1;0;0;721;3996;-687;128;0.4916897;-0.4265928;0.4626039;0.6018782;0;2;0;-791;4051;374;4;0.6808476;-0.6509695;-0.2908587;0.16759;0;1;0;2453;3256;396;16;-0.4376731;0.234072;0.6209915;0.6066482;0;5;1;875;3952;-532;2;-0.07894737;-0.04986149;-0.6495845;-0.7545337;1;1;0;715;4092;-483;8;-0.3421052;0.6177285;0.2631579;0.6573609;1;-2;0;447;3157;2583;-0.8859499;2.487203;0.3752196;-0.8800477;3.025109;0.2844242;-0.8748633;3.497591;0.2026205;-0.7467946;4.207235;0.3385157;-0.9432016;4.575537;0.3614394;-1.305631;4.489037;0.3975227;-0.7562983;4.951101;-0.1881898;-1.147956;4.719975;0.6430633;-0.431129;4.483127;0.3614389;-0.1733513;4.284702;0.397522;-0.2920722;3.460854;0.882759;-0.5532888;3.233629;0.0007594526;-1.198212;2.444484;0.3752446;-0.3117509;1.290145;0.2250908;0;0;0;-1.198212;2.444484;0.3752446;-0.3117509;1.290145;0.2250908;0;0;0
107070.3112;NotLabelled;16384;0.7090561;0.001385042;-0.4972299;0.5;1;0;0;2908;-1992;2113;65536;0.3310249;-0.33518;0.8819985;0.01246537;0;-1;0;2445;962;-3213;8192;0.1052632;-0.3753462;-0.7715291;-0.5027701;0;-2;1;1988;3537;877;32768;0.7216997;-0.1191136;-0.04986149;-0.6800554;-1;1;0;4027;1009;-234;256;-0.1301939;0.01800554;-0.6260388;-0.7686356;-1;0;0;719;3998;-751;128;0.4930748;-0.4265928;0.4626039;0.6007441;2;2;0;-835;4099;406;4;0.6808476;-0.6509695;-0.2908587;0.16759;0;0;0;2471;3182;406;16;-0.4362881;0.232687;0.6224849;0.6066482;0;7;1;1021;3910;-612;2;-0.08033241;-0.04986149;-0.6495845;-0.7543876;0;-3;2;751;3998;-717;8;-0.3421052;0.6177285;0.2631579;0.6573609;2;1;0;475;3133;2495;-0.888249;2.487142;0.3722222;-0.8823494;3.024794;0.2799295;-0.8771675;3.497046;0.1968108;-0.7490989;4.20669;0.3327056;-0.9455057;4.574992;0.3556292;-1.307935;4.488492;0.3917124;-0.7583262;4.950557;-0.1937408;-1.149984;4.71943;0.6375123;-0.4334333;4.482582;0.3556286;-0.1756556;4.284156;0.3917117;-0.2946054;3.460309;0.8768928;-0.5558226;3.233084;-0.005105585;-1.200511;2.444424;0.3723756;-0.3140505;1.290084;0.2222224;0;0;0;-1.200511;2.444424;0.3723756;-0.3140505;1.290084;0.2222224;0;0;0
107091.2832;NotLabelled;16384;0.7100253;0.001385042;-0.4958449;0.5;0;1;0;2908;-1988;2057;65536;0.3310249;-0.333795;0.8825237;0.01246537;0;-1;1;2407;996;-3213;8192;0.1052632;-0.3753462;-0.7715291;-0.5027701;0;-1;0;2036;3493;917;32768;0.7216997;-0.1191136;-0.04986149;-0.6800554;0;1;0;3955;1045;-240;256;-0.1301939;0.01800554;-0.6260388;-0.7686356;-1;0;0;763;3986;-739;128;0.4930748;-0.4265928;0.4626039;0.6007441;2;1;0;-817;4045;392;4;0.6821692;-0.6495845;-0.2908587;0.16759;0;1;-1;2463;3196;340;16;-0.4362881;0.2313019;0.6230009;0.6066482;0;4;2;1081;3876;-612;2;-0.07894737;-0.04986149;-0.6495845;-0.7545337;0;-1;1;615;3958;-635;8;-0.3434903;0.6177285;0.2631579;0.6566383;0;-3;0;533;3253;2341;-0.8904791;2.48611;0.3780358;-0.8845795;3.023762;0.2857432;-0.8793977;3.496014;0.2026244;-0.7513289;4.205658;0.3385192;-0.9477357;4.57396;0.3614429;-1.310165;4.487461;0.3975261;-0.7622377;4.948244;-0.1905071;-1.154251;4.717974;0.6408161;-0.4356634;4.48155;0.3614423;-0.1778857;4.283124;0.3975254;-0.2966066;3.459277;0.8827624;-0.5578238;3.232052;0.0007637143;-1.202741;2.443392;0.3781893;-0.3168647;1.289299;0.2227783;0;0;0;-1.202741;2.443392;0.3781893;-0.3168647;1.289299;0.2227783;0;0;0
107111.2486;NotLabelled;16384;0.7109987;0.001385042;-0.4958449;0.4986149;0;0;0;2956;-1974;2043;65536;0.3310249;-0.333795;0.8825237;0.01246537;0;0;0;2399;1008;-3213;8192;0.1052632;-0.3753462;-0.7715291;-0.5027701;0;-1;0;1898;3489;869;32768;0.7216997;-0.1191136;-0.04986149;-0.6800554;0;1;0;3923;1017;-182;256;-0.1301939;0.01939058;-0.6260388;-0.768602;-1;0;0;733;3918;-737;128;0.4930748;-0.4265928;0.4626039;0.6007441;2;1;0;-847;4055;388;4;0.6821692;-0.6495845;-0.2908587;0.16759;0;0;0;2473;3196;380;16;-0.4362881;0.2299169;0.6221628;0.6080332;1;5;0;997;3998;-716;2;-0.07894737;-0.04986149;-0.6495845;-0.7545337;0;-1;0;547;3976;-677;8;-0.3434903;0.6177285;0.2631579;0.6566383;0;-4;0;497;3239;2365;-0.8891929;2.485435;0.3851337;-0.8832935;3.023086;0.2928411;-0.8781116;3.495338;0.2097223;-0.7512985;4.205215;0.3455741;-0.9483572;4.573171;0.3684779;-1.310632;4.486032;0.4045699;-0.7643484;4.945544;-0.1859822;-1.154581;4.715274;0.6461785;-0.4361217;4.481668;0.3684776;-0.1779925;4.283702;0.4045701;-0.2946351;3.459854;0.8903109;-0.5577393;3.232629;0.008873105;-1.201455;2.442717;0.3852871;-0.3159127;1.288624;0.2279804;0;0;0;-1.201455;2.442717;0.3852871;-0.3159127;1.288624;0.2279804;0;0;0
107132.2844;NotLabelled;16384;0.7109987;0.001385042;-0.4958449;0.4986149;0;0;0;2920;-2010;2039;65536;0.3310249;-0.333795;0.8825237;0.01246537;0;0;0;2373;962;-3225;8192;0.1052632;-0.3753462;-0.7715291;-0.5027701;0;-1;0;1908;3475;849;32768;0.7203921;-0.1191136;-0.04986149;-0.6814404;0;1;0;3909;979;-206;256;-0.1301939;0.01939058;-0.6260388;-0.768602;-1;0;0;693;3910;-763;128;0.4930748;-0.4265928;0.4626039;0.6007441;2;0;0;-839;4029;334;4;0.6821692;-0.6495845;-0.2908587;0.16759;0;-1;0;2459;3136;378;16;-0.4362881;0.2299169;0.6221628;0.6080332;0;0;-1;1085;3954;-748;2;-0.07756232;-0.04986149;-0.6495845;-0.7546774;0;-1;-2;635;4060;-499;8;-0.3434903;0.6177285;0.2631579;0.6566383;-1;2;1;405;3245;2503;-0.8891929;2.485435;0.3851337;-0.8832935;3.023086;0.2928411;-0.8781116;3.495338;0.2097223;-0.7512985;4.205215;0.3455741;-0.9483572;4.573171;0.3684779;-1.310632;4.486032;0.4045699;-0.7630855;4.945544;-0.1848117;-1.153319;4.715274;0.6473492;-0.4361217;4.481668;0.3684776;-0.1779925;4.283702;0.4045701;-0.2956746;3.459854;0.8900602;-0.5592069;3.232794;0.008707657;-1.201455;2.442717;0.3852871;-0.3159127;1.288624;0.2279804;0;0;0;-1.201455;2.442717;0.3852871;-0.3159127;1.288624;0.2279804;0;0;0
107152.2231;NotLabelled;16384;0.7109987;0.001385042;-0.4958449;0.4986149;0;0;0;2966;-2014;2045;65536;0.3310249;-0.333795;0.8825237;0.01246537;0;0;0;2417;948;-3207;8192;0.1052632;-0.3753462;-0.7715291;-0.5027701;0;-1;0;1906;3457;859;32768;0.7203921;-0.1191136;-0.04986149;-0.6814404;0;0;0;3937;993;-230;256;-0.1301939;0.01800554;-0.6274238;-0.7675055;0;-1;0;679;3966;-747;128;0.4944598;-0.4265928;0.4626039;0.5996047;3;0;0;-801;3989;438;4;0.6814376;-0.6509695;-0.2894737;0.16759;0;-1;0;2519;3126;430;16;-0.4362881;0.2299169;0.6235133;0.6066482;0;0;-1;1003;3878;-648;2;-0.07756232;-0.04986149;-0.6495845;-0.7546774;0;-1;0;741;4058;-605;8;-0.3434903;0.6177285;0.2631579;0.6566383;-1;2;0;497;3213;2619;-0.8910819;2.48737;0.3754591;-0.8851851;3.024762;0.281666;-0.8800059;3.496781;0.1972293;-0.7520994;4.206945;0.3305272;-0.9486209;4.575259;0.3522713;-1.310997;4.488761;0.3888924;-0.7620998;4.948273;-0.1992313;-1.153848;4.718003;0.6322168;-0.436516;4.483027;0.3522708;-0.1786457;4.284822;0.3888921;-0.2974411;3.460974;0.8741106;-0.5593669;3.233913;-0.0077205;-1.203343;2.444652;0.3757414;-0.3196039;1.28851;0.2234361;0;0;0;-1.203343;2.444652;0.3757414;-0.3196039;1.28851;0.2234361;0;0;0
107173.1887;NotLabelled;16384;0.7109987;0.001385042;-0.4958449;0.4986149;0;0;0;2892;-1988;2077;65536;0.3296399;-0.333795;0.8830419;0.01246537;0;0;0;2379;952;-3213;8192;0.1052632;-0.3753462;-0.7715291;-0.5027701;0;-1;0;1880;3471;841;32768;0.7216997;-0.1191136;-0.04986149;-0.6800554;0;0;0;3909;983;-214;256;-0.1288089;0.01800554;-0.6274238;-0.7677392;0;-1;0;735;3910;-767;128;0.4944598;-0.4265928;0.4626039;0.5996047;1;-1;0;-869;3991;374;4;0.6814376;-0.6509695;-0.2894737;0.16759;0;-2;0;2631;3112;432;16;-0.4362881;0.2299169;0.6221628;0.6080332;0;3;0;1115;3936;-684;2;-0.07756232;-0.05124654;-0.6495845;-0.7545846;1;-2;0;751;3956;-637;8;-0.3434903;0.6177285;0.2631579;0.6566383;-1;-2;0;465;3137;2547;-0.8885111;2.487484;0.3771895;-0.8826144;3.024876;0.2833963;-0.877435;3.496895;0.1989596;-0.7510351;4.207239;0.3327421;-0.9483317;4.575124;0.3547063;-1.31053;4.487842;0.391227;-0.7597191;4.947354;-0.1951054;-1.150728;4.717947;0.6369291;-0.4360344;4.483968;0.354706;-0.177753;4.286279;0.391227;-0.2981287;3.462431;0.8760558;-0.5579813;3.235207;-0.006346226;-1.200773;2.444767;0.3774716;-0.3167506;1.288624;0.2268149;0;0;0;-1.200773;2.444767;0.3774716;-0.3167506;1.288624;0.2268149;0;0;0
107194.1319;NotLabelled;16384;0.7109987;0.001385042;-0.4958449;0.4986149;0;0;1;2880;-1992;2019;65536;0.3296399;-0.333795;0.8830419;0.01246537;0;0;-1;2365;1012;-3259;8192;0.1052632;-0.3753462;-0.7715291;-0.5027701;0;0;0;1900;3453;883;32768;0.7216997;-0.1191136;-0.04986149;-0.6800554;0;0;0;3901;933;-176;256;-0.1288089;0.01800554;-0.6274238;-0.7677392;0;-2;0;673;3894;-739;128;0.4944598;-0.4265928;0.4626039;0.5996047;-1;0;0;-863;3981;446;4;0.682758;-0.6495845;-0.2894737;0.16759;0;-1;0;2663;3184;468;16;-0.434903;0.2299169;0.6231318;0.6080332;-1;1;0;1149;3880;-644;2;-0.07756232;-0.05124654;-0.6481994;-0.7557747;0;-1;0;657;4044;-597;8;-0.3434903;0.6177285;0.2631579;0.6566383;-1;0;0;527;3179;2491;-0.8873897;2.487962;0.3790312;-0.8814931;3.025353;0.285238;-0.8763138;3.497372;0.2008013;-0.7499138;4.207716;0.3345837;-0.9472104;4.575601;0.3565479;-1.309408;4.488318;0.3930689;-0.7596931;4.947831;-0.1942903;-1.150702;4.718424;0.6377445;-0.4349131;4.484446;0.3565473;-0.1766318;4.286757;0.393068;-0.2961022;3.462908;0.8781205;-0.5559555;3.235684;-0.004281446;-1.199651;2.445244;0.3793134;-0.316212;1.289353;0.2233989;0;0;0;-1.199651;2.445244;0.3793134;-0.316212;1.289353;0.2233989;0;0;0
107214.1604;NotLabelled;16384;0.7109987;0.001385042;-0.4958449;0.4986149;0;0;0;2828;-2002;2113;65536;0.3296399;-0.333795;0.8830419;0.01246537;-1;0;0;2387;1010;-3215;8192;0.1052632;-0.3753462;-0.7715291;-0.5027701;0;0;0;1890;3495;863;32768;0.7216997;-0.1191136;-0.04986149;-0.6800554;0;0;0;3869;945;-236;256;-0.1288089;0.01800554;-0.6274238;-0.7677392;0;-1;1;719;3950;-711;128;0.4944598;-0.4265928;0.4626039;0.5996047;-2;0;0;-831;4067;422;4;0.6821692;-0.6495845;-0.2908587;0.16759;0;1;0;2471;3214;372;16;-0.434903;0.2285319;0.623641;0.6080332;-1;4;0;975;3960;-618;2;-0.07617728;-0.05124654;-0.6495845;-0.7547257;0;0;0;735;4008;-613;8;-0.3434903;0.6177285;0.2631579;0.6566383;-2;1;0;543;3213;2497;-0.8928763;2.485374;0.3777087;-0.8869796;3.022766;0.2839156;-0.8818002;3.494785;0.1994789;-0.7554003;4.205129;0.3332614;-0.952697;4.573014;0.3552256;-1.314895;4.485732;0.3917463;-0.7651787;4.945243;-0.1956118;-1.156188;4.715837;0.6364224;-0.4403996;4.481858;0.3552253;-0.1821182;4.284169;0.3917463;-0.3015896;3.460321;0.8767986;-0.5614424;3.233097;-0.005603433;-1.205138;2.442657;0.3779909;-0.3190222;1.288564;0.2239494;0;0;0;-1.205138;2.442657;0.3779909;-0.3190222;1.288564;0.2239494;0;0;0
107235.1459;NotLabelled;16384;0.7109987;0.001385042;-0.4958449;0.4986149;0;0;1;2846;-2026;2057;65536;0.3310249;-0.333795;0.8825237;0.01246537;-1;1;0;2375;1044;-3263;8192;0.1052632;-0.3753462;-0.7715291;-0.5027701;0;0;-2;1854;3465;835;32768;0.7216997;-0.1191136;-0.04986149;-0.6800554;0;-2;0;3973;917;-264;256;-0.1288089;0.01800554;-0.6274238;-0.7677392;1;-1;0;703;3956;-731;128;0.4944598;-0.4265928;0.4626039;0.5996047;-1;1;0;-811;4077;396;4;0.6821692;-0.6495845;-0.2908587;0.16759;0;0;0;2383;3110;338;16;-0.433518;0.2285319;0.6246046;0.6080332;0;1;-1;959;3926;-658;2;-0.07617728;-0.05124654;-0.6495845;-0.7547257;0;-3;0;727;3950;-617;8;-0.3434903;0.6177285;0.2617728;0.6571916;-1;1;0;495;3201;2591;-0.89232;2.4861;0.3743004;-0.8864233;3.023492;0.2805072;-0.881244;3.495511;0.1960705;-0.754844;4.205854;0.3298529;-0.9521406;4.573739;0.3518171;-1.314339;4.486457;0.3883381;-0.7646233;4.94597;-0.1990211;-1.157921;4.715699;0.6316953;-0.4398433;4.482584;0.3518165;-0.181562;4.284895;0.3883373;-0.3010325;3.461046;0.8733898;-0.5608857;3.233823;-0.009012222;-1.204581;2.443382;0.3745826;-0.3184662;1.28929;0.2205406;0;0;0;-1.204581;2.443382;0.3745826;-0.3184662;1.28929;0.2205406;0;0;0
107277.1762;NotLabelled;16384;0.7109987;0.001385042;-0.4958449;0.4986149;0;-1;0;2878;-2044;2053;65536;0.3310249;-0.333795;0.8825237;0.01246537;-1;1;0;2417;1000;-3247;8192;0.1066482;-0.3753462;-0.7713388;-0.5027701;0;0;-2;1880;3479;925;32768;0.7217941;-0.1191136;-0.04847645;-0.6800554;0;-2;1;3969;1043;-194;256;-0.1288089;0.01800554;-0.6260388;-0.768869;1;0;0;655;4004;-759;128;0.4944598;-0.4265928;0.4612188;0.6006707;0;1;-1;-779;4089;330;4;0.6821692;-0.6495845;-0.2908587;0.16759;0;0;0;2385;3150;334;16;-0.433518;0.2285319;0.6246046;0.6080332;0;1;0;915;3888;-626;2;-0.07617728;-0.05124654;-0.6495845;-0.7547257;0;-3;0;733;3946;-535;8;-0.3434903;0.6177285;0.2617728;0.6571916;-1;0;0;421;3187;2551;-0.8924376;2.486101;0.3740432;-0.8865383;3.02374;0.2816805;-0.8813565;3.495982;0.1985003;-0.7547959;4.205803;0.3348791;-0.9519793;4.573677;0.3580225;-1.31423;4.486392;0.3940053;-0.7643296;4.945904;-0.1931802;-1.157889;4.715633;0.6374122;-0.4397137;4.482343;0.358022;-0.1815237;4.284437;0.3940049;-0.2992761;3.459769;0.8780847;-0.5607514;3.234309;-0.004290372;-1.204699;2.443383;0.3742026;-0.3185355;1.28929;0.2204401;0;0;0;-1.204699;2.443383;0.3742026;-0.3185355;1.28929;0.2204401;0;0;0
107297.8147;NotLabelled;16384;0.7100253;0.001385042;-0.4958449;0.5;-1;-1;1;2864;-2052;2099;65536;0.3310249;-0.333795;0.8825237;0.01246537;0;1;0;2339;1008;-3215;8192;0.1066482;-0.3753462;-0.7713388;-0.5027701;-1;0;-2;1964;3529;881;32768;0.7217941;-0.1191136;-0.04847645;-0.6800554;-1;-1;0;3975;1025;-114;256;-0.1288089;0.01800554;-0.6260388;-0.768869;1;0;0;655;3952;-735;128;0.4944598;-0.4265928;0.4612188;0.6006707;-1;1;0;-803;4049;318;4;0.6821692;-0.6495845;-0.2908587;0.16759;0;0;-1;2407;3182;356;16;-0.433518;0.2285319;0.6232533;0.6094183;0;3;0;977;3920;-580;2;-0.07617728;-0.05124654;-0.6481994;-0.7559156;0;0;0;831;4052;-611;8;-0.3434903;0.6177285;0.2617728;0.6571916;0;2;1;485;3191;2557;-0.889182;2.486213;0.3780326;-0.8832827;3.023852;0.2856699;-0.8781008;3.496094;0.2024897;-0.7515403;4.205915;0.3388685;-0.9487238;4.573789;0.362012;-1.310975;4.486504;0.3979947;-0.7619538;4.947287;-0.1890174;-1.155513;4.717017;0.6415744;-0.4364581;4.482455;0.3620114;-0.1782681;4.284549;0.3979944;-0.2960204;3.459881;0.8820742;-0.5574957;3.234421;-0.0003009588;-1.201444;2.443495;0.3781921;-0.3152799;1.289402;0.2244295;0;0;0;-1.201444;2.443495;0.3781921;-0.3152799;1.289402;0.2244295;0;0;0
107318.1315;NotLabelled;16384;0.7090561;0.001385042;-0.4972299;0.5;-1;-1;0;2836;-2018;2057;65536;0.3310249;-0.33518;0.8819985;0.01246537;-1;1;0;2369;926;-3187;8192;0.1066482;-0.3753462;-0.7713388;-0.5027701;-1;0;-2;1966;3471;945;32768;0.7217941;-0.1191136;-0.04847645;-0.6800554;-1;-1;0;3987;1015;-152;256;-0.1301939;0.01800554;-0.6260388;-0.7686356;1;-1;0;683;3992;-733;128;0.4944598;-0.4265928;0.4612188;0.6006707;-1;0;0;-849;4131;402;4;0.6821692;-0.6495845;-0.2908587;0.16759;0;0;0;2491;3224;382;16;-0.433518;0.2285319;0.6232533;0.6094183;0;2;0;1017;3900;-592;2;-0.07617728;-0.05124654;-0.6481994;-0.7559156;0;0;0;843;4038;-637;8;-0.3421052;0.6177285;0.2617728;0.6579137;-1;1;0;499;3167;2545;-0.8884761;2.486212;0.380268;-0.8825768;3.023851;0.2879054;-0.877395;3.496093;0.2047252;-0.7493263;4.205737;0.3406204;-0.9457332;4.574039;0.3635443;-1.308162;4.48754;0.3996276;-0.7588302;4.949604;-0.1860854;-1.150488;4.718477;0.6451678;-0.4336607;4.481629;0.3635436;-0.1758831;4.283204;0.3996266;-0.2927338;3.458537;0.8839247;-0.5558506;3.233076;0.002037734;-1.200738;2.443494;0.3804275;-0.3148618;1.289402;0.2250159;0;0;0;-1.200738;2.443494;0.3804275;-0.3148618;1.289402;0.2250159;0;0;0
107339.1564;NotLabelled;16384;0.7100253;0.001385042;-0.4958449;0.5;0;0;0;2894;-1972;2097;65536;0.3310249;-0.33518;0.8819985;0.01246537;-1;0;0;2411;976;-3189;8192;0.1066482;-0.3753462;-0.7713388;-0.5027701;-1;0;-2;1928;3509;901;32768;0.7230965;-0.1191136;-0.04847645;-0.6786703;-1;-1;0;3983;1017;-184;256;-0.1288089;0.01800554;-0.6260388;-0.768869;1;-1;0;643;3944;-703;128;0.4944598;-0.4279778;0.4612188;0.5996846;-2;0;0;-801;4099;354;4;0.6821692;-0.6495845;-0.2908587;0.16759;0;1;0;2465;3258;374;16;-0.432133;0.2285319;0.6242145;0.6094183;0;0;0;1041;3902;-600;2;-0.07617728;-0.05124654;-0.6481994;-0.7559156;0;0;0;845;4022;-487;8;-0.3421052;0.6163435;0.2617728;0.6592114;-1;1;0;509;3071;2557;-0.8886187;2.486937;0.374631;-0.8827193;3.024573;0.2822464;-0.8775377;3.496812;0.1990468;-0.7509772;4.206633;0.3354256;-0.9481606;4.574507;0.358569;-1.310412;4.487221;0.3945518;-0.7613906;4.948005;-0.1924605;-1.154595;4.716878;0.638062;-0.4358949;4.483173;0.3585686;-0.1777048;4.285266;0.3945516;-0.2954575;3.460598;0.8786315;-0.5565078;3.234971;-0.003826901;-1.20088;2.444219;0.3747923;-0.3147161;1.290127;0.2210298;0;0;0;-1.20088;2.444219;0.3747923;-0.3147161;1.290127;0.2210298;0;0;0
107359.285;NotLabelled;16384;0.7090561;0.001385042;-0.4972299;0.5;0;0;0;2900;-2046;2069;65536;0.3310249;-0.33518;0.8819985;0.01246537;0;0;0;2405;1002;-3203;8192;0.1066482;-0.3753462;-0.7713388;-0.5027701;-1;-1;-2;1922;3545;869;32768;0.722867;-0.1204986;-0.04847645;-0.6786703;-2;-1;0;4003;1029;-142;256;-0.1288089;0.01800554;-0.6260388;-0.768869;0;-1;0;687;4038;-679;128;0.4944598;-0.4279778;0.4612188;0.5996846;-1;0;0;-817;4031;266;4;0.6824166;-0.6495845;-0.2894737;0.1689751;0;1;0;2415;3230;404;16;-0.432133;0.2271468;0.6247198;0.6094183;0;3;0;907;3972;-586;2;-0.07617728;-0.05124654;-0.6481994;-0.7559156;0;0;0;749;3968;-565;8;-0.3421052;0.6163435;0.2617728;0.6592114;0;0;0;489;3107;2567;-0.8910502;2.486131;0.3775032;-0.8851508;3.023767;0.2851186;-0.8799691;3.496006;0.201919;-0.7534086;4.205826;0.3382978;-0.950592;4.5737;0.3614412;-1.312843;4.486414;0.397424;-0.7624211;4.948478;-0.1872649;-1.155625;4.717352;0.6432577;-0.4383263;4.482367;0.3614408;-0.1801363;4.28446;0.3974238;-0.297889;3.459792;0.8815036;-0.5605875;3.232319;8.702278E-06;-1.203312;2.443413;0.3776645;-0.3175234;1.289344;0.2215787;0;0;0;-1.203312;2.443413;0.3776645;-0.3175234;1.289344;0.2215787;0;0;0
107401.1212;NotLabelled;16384;0.7090561;0.001385042;-0.4972299;0.5;0;0;0;2940;-2016;2077;65536;0.3310249;-0.33518;0.8819985;0.01246537;-1;0;0;2397;1014;-3235;8192;0.1080332;-0.3753462;-0.7711461;-0.5027701;-1;-1;-1;1900;3491;791;32768;0.7229586;-0.1204986;-0.04709141;-0.6786703;-2;0;0;3925;987;-196;256;-0.1288089;0.01800554;-0.6260388;-0.768869;0;-2;0;705;3976;-717;128;0.4944598;-0.4279778;0.4612188;0.5996846;0;0;0;-809;4039;322;4;0.6824166;-0.6495845;-0.2894737;0.1689751;0;1;0;2387;3180;326;16;-0.432133;0.2271468;0.6247198;0.6094183;0;1;0;1059;3934;-572;2;-0.07617728;-0.05124654;-0.6495845;-0.7547257;0;-1;0;753;3950;-533;8;-0.3421052;0.6163435;0.2617728;0.6592114;0;1;0;473;3137;2511;-0.8910502;2.486131;0.3775032;-0.8851508;3.023767;0.2851186;-0.8799691;3.496006;0.201919;-0.7534086;4.205826;0.3382978;-0.950592;4.5737;0.3614412;-1.312843;4.486414;0.397424;-0.7624211;4.948478;-0.1872649;-1.155625;4.717352;0.6432577;-0.4383263;4.482367;0.3614408;-0.1801363;4.28446;0.3974238;-0.2960204;3.458975;0.8805614;-0.5606211;3.233263;-0.0008170754;-1.203312;2.443413;0.3776645;-0.3175234;1.289344;0.2215787;0;0;0;-1.203312;2.443413;0.3776645;-0.3175234;1.289344;0.2215787;0;0;0
107441.1331;NotLabelled;16384;0.7090561;0.001385042;-0.4972299;0.5;0;0;0;2816;-2032;2023;65536;0.3296399;-0.33518;0.8825172;0.01246537;-1;0;1;2387;956;-3195;8192;0.1080332;-0.3753462;-0.7711461;-0.5027701;0;-2;-1;1932;3417;841;32768;0.7229586;-0.1204986;-0.04709141;-0.6786703;-2;0;0;3943;953;-176;256;-0.1288089;0.01800554;-0.6260388;-0.768869;0;-1;0;681;3918;-675;128;0.4944598;-0.4279778;0.4612188;0.5996846;1;0;0;-797;4037;350;4;0.682758;-0.6495845;-0.2894737;0.16759;0;0;0;2397;3214;434;16;-0.432133;0.2271468;0.6247198;0.6094183;0;0;0;935;3908;-600;2;-0.07617728;-0.05124654;-0.6495845;-0.7547257;0;-2;0;753;3984;-633;8;-0.3421052;0.6163435;0.2617728;0.6592114;0;0;0;469;3135;2531;-0.8887504;2.487954;0.3770533;-0.8828511;3.025589;0.2846686;-0.8776693;3.497828;0.201469;-0.7511088;4.207649;0.3378478;-0.9482923;4.575523;0.3609912;-1.310543;4.488237;0.396974;-0.7601214;4.950301;-0.1877149;-1.151038;4.720043;0.6441274;-0.4360265;4.48419;0.3609908;-0.1778365;4.286283;0.3969738;-0.2937205;3.460798;0.8801115;-0.5583212;3.235085;-0.001267046;-1.201012;2.445236;0.3772145;-0.3175235;1.289344;0.2215788;0;0;0;-1.201012;2.445236;0.3772145;-0.3175235;1.289344;0.2215788;0;0;0
107461.1328;NotLabelled;16384;0.7100253;0.001385042;-0.4958449;0.5;-1;1;0;2886;-2050;2043;65536;0.3296399;-0.33518;0.8824965;0.01385042;-2;-1;1;2453;1010;-3177;8192;0.1080332;-0.3753462;-0.7711461;-0.5027701;0;-2;0;1926;3487;847;32768;0.7229586;-0.1204986;-0.04709141;-0.6786703;-1;0;0;3907;939;-146;256;-0.1288089;0.01800554;-0.6260388;-0.768869;-1;0;0;731;3980;-721;128;0.4944598;-0.4279778;0.4612188;0.5996846;2;0;0;-799;4079;334;4;0.682758;-0.6495845;-0.2894737;0.16759;0;0;0;2459;3228;390;16;-0.432133;0.2271468;0.6247198;0.6094183;0;3;0;1029;3956;-564;2;-0.07617728;-0.05124654;-0.6495845;-0.7547257;0;-1;0;777;3996;-561;8;-0.3421052;0.6163435;0.2617728;0.6592114;0;2;1;453;3093;2537;-0.8887504;2.487954;0.3770533;-0.8828511;3.025589;0.2846686;-0.8776693;3.497828;0.201469;-0.7511088;4.207649;0.3378478;-0.9482923;4.575523;0.3609912;-1.310543;4.488237;0.396974;-0.7615224;4.949021;-0.1900384;-1.151577;4.716445;0.6415648;-0.4360265;4.48419;0.3609908;-0.1778365;4.286283;0.3969738;-0.2937205;3.460798;0.8801115;-0.5583212;3.235085;-0.001267046;-1.201012;2.445236;0.3772145;-0.3175235;1.289344;0.2215788;0;0;0;-1.201012;2.445236;0.3772145;-0.3175235;1.289344;0.2215788;0;0;0
107482.2064;NotLabelled;16384;0.7100253;0.001385042;-0.4958449;0.5;-1;2;0;2872;-2010;2045;65536;0.3282548;-0.33518;0.8830126;0.01385042;-1;-1;1;2387;1016;-3191;8192;0.1080332;-0.3753462;-0.7711461;-0.5027701;0;-2;0;1928;3477;871;32768;0.7216558;-0.1204986;-0.04709141;-0.6800554;-2;1;0;3915;967;-122;256;-0.1288089;0.01800554;-0.6260388;-0.768869;-1;-1;1;703;3954;-703;128;0.4944598;-0.4265928;0.4612188;0.6006707;1;0;0;-777;4045;356;4;0.6824166;-0.6495845;-0.2894737;0.1689751;0;0;0;2447;3246;428;16;-0.432133;0.2271468;0.6233657;0.6108033;0;1;0;1053;3964;-576;2;-0.07617728;-0.05124654;-0.6495845;-0.7547257;0;0;0;721;3930;-575;8;-0.3421052;0.6163435;0.2617728;0.6592114;0;0;0;537;3133;2587;-0.8877994;2.486234;0.381506;-0.8819;3.023873;0.2891433;-0.8767182;3.496115;0.2059631;-0.7501577;4.205937;0.3423419;-0.9473411;4.57381;0.3654854;-1.309592;4.486525;0.4014681;-0.7605752;4.947308;-0.1855481;-1.14834;4.7156;0.6473666;-0.4350756;4.482477;0.3654849;-0.1768855;4.28457;0.4014677;-0.2927662;3.459086;0.8846064;-0.5577918;3.233547;0.003310844;-1.200061;2.443516;0.3816655;-0.3142724;1.289447;0.2255795;0;0;0;-1.200061;2.443516;0.3816655;-0.3142724;1.289447;0.2255795;0;0;0
107503.1388;NotLabelled;16384;0.7109946;0.002770083;-0.4958449;0.4986149;-1;2;0;2776;-2030;2013;65536;0.3282548;-0.33518;0.8830126;0.01385042;-1;-1;2;2363;1050;-3207;8192;0.1080332;-0.3753462;-0.7711461;-0.5027701;0;-3;0;1978;3499;811;32768;0.7217449;-0.1204986;-0.04570637;-0.6800554;-2;1;0;3981;991;-200;256;-0.1288089;0.0166205;-0.6260388;-0.7689002;0;0;0;697;3964;-707;128;0.4944598;-0.4265928;0.4612188;0.6006707;2;1;0;-839;4025;304;4;0.682758;-0.6495845;-0.2894737;0.16759;0;0;0;2457;3192;482;16;-0.432133;0.2271468;0.6233657;0.6108033;0;0;0;915;3960;-630;2;-0.07617728;-0.05124654;-0.6495845;-0.7547257;0;-1;0;761;4046;-585;8;-0.3421052;0.6163435;0.2617728;0.6592114;0;0;1;469;3171;2591;-0.8863127;2.488056;0.3784898;-0.8804134;3.025696;0.2861271;-0.8752315;3.497937;0.2029469;-0.7474163;4.207525;0.3393689;-0.9439486;4.575747;0.362532;-1.306354;4.4891;0.3985059;-0.7564542;4.950437;-0.1872478;-1.146002;4.718729;0.644834;-0.4318454;4.483506;0.3625316;-0.1740063;4.285141;0.3985057;-0.2909252;3.459657;0.8813939;-0.5559609;3.235883;-0.0003480166;-1.198574;2.445338;0.3786492;-0.3147546;1.289447;0.2249061;0;0;0;-1.198574;2.445338;0.3786492;-0.3147546;1.289447;0.2249061;0;0;0
107524.1312;NotLabelled;16384;0.7119586;0.002770083;-0.4944598;0.4986149;0;1;-1;2854;-2036;1985;65536;0.3282548;-0.33518;0.8830126;0.01385042;0;-2;1;2409;1078;-3131;8192;0.1080332;-0.3767313;-0.7704704;-0.5027701;0;-1;0;2028;3461;851;32768;0.7215123;-0.1218837;-0.04570637;-0.6800554;-1;0;0;3987;1057;-150;256;-0.1288089;0.01800554;-0.6260388;-0.768869;-1;0;0;721;3916;-667;128;0.4944598;-0.4265928;0.4626039;0.5996047;4;-1;0;-853;4141;352;4;0.6824166;-0.6495845;-0.2894737;0.1689751;0;0;0;2519;3200;390;16;-0.432133;0.2271468;0.6233657;0.6108033;0;2;0;993;3972;-580;2;-0.07617728;-0.05124654;-0.6495845;-0.7547257;0;-2;0;769;4036;-611;8;-0.3421052;0.6163435;0.2617728;0.6592114;0;1;1;515;3119;2621;-0.8877995;2.486233;0.3813835;-0.8819028;3.023625;0.2875904;-0.8767234;3.495644;0.2031538;-0.7501628;4.205465;0.3395326;-0.9473463;4.573339;0.3626761;-1.309597;4.486053;0.3986589;-0.7621034;4.946115;-0.1903422;-1.149868;4.714407;0.6425723;-0.4350807;4.482005;0.3626757;-0.1768907;4.284099;0.3986585;-0.2944472;3.45899;0.8820339;-0.5630202;3.233375;0.001832604;-1.200061;2.443516;0.3816658;-0.3142725;1.289447;0.2255796;0;0;0;-1.200061;2.443516;0.3816658;-0.3142725;1.289447;0.2255796;0;0;0
107545.285;NotLabelled;16384;0.7119586;0.002770083;-0.4944598;0.4986149;0;1;-1;2886;-2102;2025;65536;0.3282548;-0.333795;0.8835371;0.01385042;0;-2;1;2421;1008;-3259;8192;0.1094183;-0.3767313;-0.7711772;-0.501385;-1;-1;0;1878;3441;851;32768;0.7215123;-0.1218837;-0.04570637;-0.6800554;-2;0;0;3955;1029;-180;256;-0.1288089;0.01800554;-0.6274238;-0.7677392;-1;-3;0;695;3958;-733;128;0.4944598;-0.4252077;0.4626039;0.6005877;0;-3;0;-881;4087;392;4;0.6824166;-0.6495845;-0.2894737;0.1689751;0;0;0;2497;3196;368;16;-0.432133;0.2271468;0.6233657;0.6108033;0;0;0;1011;3896;-590;2;-0.07617728;-0.05124654;-0.6481994;-0.7559156;0;-1;1;775;4106;-651;8;-0.3421052;0.6163435;0.2617728;0.6592114;0;0;1;533;3229;2599;-0.8876794;2.486233;0.3817628;-0.8817825;3.023629;0.2879908;-0.8766033;3.495651;0.2035728;-0.7502034;4.205995;0.3373553;-0.9474999;4.57388;0.3593194;-1.309698;4.486598;0.3958401;-0.7626554;4.94666;-0.1935802;-1.150514;4.715798;0.6395259;-0.4352027;4.482724;0.3593191;-0.1769213;4.285035;0.39584;-0.2905562;3.460284;0.8807604;-0.5594062;3.234669;0.0006438345;-1.199941;2.443516;0.3820431;-0.3142014;1.289447;0.2256785;0;0;0;-1.199941;2.443516;0.3820431;-0.3142014;1.289447;0.2256785;0;0;0
107565.5536;NotLabelled;16384;0.7119586;0.002770083;-0.4944598;0.4986149;0;1;-1;2902;-2046;2081;65536;0.3282548;-0.333795;0.8835371;0.01385042;0;-1;1;2375;988;-3263;8192;0.1094183;-0.3767313;-0.7711772;-0.501385;-1;-2;0;1962;3521;871;32768;0.7215123;-0.1218837;-0.04570637;-0.6800554;-1;0;0;3967;975;-232;256;-0.1288089;0.01800554;-0.6274238;-0.7677392;-1;-3;1;677;3972;-725;128;0.4944598;-0.4252077;0.4626039;0.6005877;-1;-3;0;-839;4017;408;4;0.6824166;-0.6495845;-0.2894737;0.1689751;0;-1;-1;2479;3178;412;16;-0.432133;0.2271468;0.6233657;0.6108033;0;0;0;1021;3968;-732;2;-0.07479224;-0.05263158;-0.6481994;-0.7559587;0;-1;0;713;3990;-619;8;-0.3421052;0.6163435;0.2617728;0.6592114;-1;1;0;497;3143;2493;-0.8876787;2.486233;0.381763;-0.881782;3.023629;0.287991;-0.8766026;3.495651;0.203573;-0.7502027;4.205995;0.3373554;-0.9474992;4.57388;0.3593196;-1.309697;4.486598;0.3958403;-0.7626509;4.946659;-0.1935763;-1.150509;4.715799;0.6395298;-0.4352021;4.482724;0.359319;-0.1769208;4.285035;0.3958398;-0.2905587;3.460283;0.8807594;-0.5594088;3.234668;0.0006432235;-1.19994;2.443515;0.3820434;-0.3142012;1.289447;0.2256784;0;0;0;-1.19994;2.443515;0.3820434;-0.3142012;1.289447;0.2256784;0;0;0
107586.1323;NotLabelled;16384;0.7119586;0.002770083;-0.4944598;0.4986149;0;0;0;2876;-1988;2069;65536;0.3282548;-0.333795;0.8835371;0.01385042;0;0;0;2399;936;-3185;8192;0.1094183;-0.3781163;-0.7704991;-0.501385;0;-1;0;1986;3507;837;32768;0.7215123;-0.1218837;-0.04570637;-0.6800554;0;0;0;3947;947;-232;256;-0.1288089;0.0166205;-0.6274238;-0.7677704;-1;-3;1;717;3918;-719;128;0.4944598;-0.4252077;0.4626039;0.6005877;-1;0;0;-867;4017;392;4;0.682758;-0.6495845;-0.2894737;0.16759;0;0;-1;2451;3152;376;16;-0.432133;0.2271468;0.6233657;0.6108033;0;1;1;1013;3924;-732;2;-0.07479224;-0.05263158;-0.6481994;-0.7559587;0;0;0;689;3942;-553;8;-0.3421052;0.6163435;0.2617728;0.6592114;0;0;0;561;3175;2591;-0.886192;2.488056;0.3787504;-0.8802952;3.025451;0.2849784;-0.8751158;3.497473;0.2005604;-0.7474575;4.207584;0.3343853;-0.9441015;4.575818;0.3563688;-1.306454;4.489176;0.3928808;-0.7581488;4.949238;-0.195365;-1.147787;4.718377;0.63691;-0.4319668;4.483753;0.3563684;-0.1740368;4.285604;0.3928804;-0.2901685;3.461225;0.877843;-0.5571361;3.235611;-0.002846003;-1.198453;2.445338;0.3790309;-0.3146829;1.289447;0.2250061;0;0;0;-1.198453;2.445338;0.3790309;-0.3146829;1.289447;0.2250061;0;0;0
107607.1275;NotLabelled;16384;0.7119586;0.002770083;-0.4944598;0.4986149;0;0;0;2862;-2032;2075;65536;0.3282548;-0.333795;0.8835371;0.01385042;0;0;0;2397;1032;-3279;8192;0.1094183;-0.3781163;-0.7704991;-0.501385;0;0;0;1890;3547;757;32768;0.7215123;-0.1218837;-0.04570637;-0.6800554;0;0;0;3963;869;-222;256;-0.1288089;0.0166205;-0.6274238;-0.7677704;0;-1;0;751;3908;-741;128;0.4944598;-0.4252077;0.4626039;0.6005877;0;1;0;-823;4079;396;4;0.682758;-0.6495845;-0.2894737;0.16759;0;1;0;2515;3180;416;16;-0.432133;0.2257618;0.6238686;0.6108033;1;1;0;1005;3930;-570;2;-0.07479224;-0.05263158;-0.6481994;-0.7559587;0;0;0;731;3978;-601;8;-0.3421052;0.6163435;0.2617728;0.6592114;-1;1;0;495;3101;2571;-0.8890026;2.487272;0.3792949;-0.8831058;3.024667;0.2855229;-0.8779264;3.496689;0.2011049;-0.7502681;4.2068;0.3349298;-0.9469121;4.575034;0.3569132;-1.309264;4.488391;0.3934253;-0.7609592;4.948453;-0.1948205;-1.150598;4.717593;0.6374545;-0.4347773;4.482969;0.3569129;-0.1768474;4.28482;0.3934249;-0.292979;3.460441;0.8783875;-0.5599467;3.234827;-0.002301529;-1.201264;2.444554;0.3795754;-0.3174935;1.288663;0.2255505;0;0;0;-1.201264;2.444554;0.3795754;-0.3174935;1.288663;0.2255505;0;0;0
107628.1154;NotLabelled;16384;0.7119586;0.002770083;-0.4944598;0.4986149;0;0;0;2900;-2038;2115;65536;0.3282548;-0.333795;0.8835371;0.01385042;-1;0;0;2471;1006;-3251;8192;0.1094183;-0.3781163;-0.7704991;-0.501385;0;-1;0;1806;3467;807;32768;0.7215987;-0.1218837;-0.04432133;-0.6800554;0;1;0;3945;947;-194;256;-0.1288089;0.0166205;-0.6274238;-0.7677704;0;0;0;731;3994;-701;128;0.4944598;-0.4252077;0.4626039;0.6005877;2;0;0;-855;4035;312;4;0.682758;-0.6495845;-0.2894737;0.16759;0;0;0;2517;3214;458;16;-0.432133;0.2257618;0.6238686;0.6108033;0;1;0;1143;3928;-562;2;-0.07479224;-0.05263158;-0.6481994;-0.7559587;0;0;0;743;3922;-613;8;-0.3421052;0.6163435;0.2617728;0.6592114;0;0;0;583;3119;2571;-0.8890026;2.487272;0.3792949;-0.8831058;3.024667;0.2855229;-0.8779264;3.496689;0.2011049;-0.7502681;4.2068;0.3349298;-0.9469121;4.575034;0.3569132;-1.309264;4.488391;0.3934253;-0.7609592;4.948453;-0.1948205;-1.150598;4.717593;0.6374545;-0.4347773;4.482969;0.3569129;-0.1768474;4.28482;0.3934249;-0.292979;3.460441;0.8783875;-0.5618435;3.236591;-0.00217481;-1.201264;2.444554;0.3795754;-0.3174935;1.288663;0.2255505;0;0;0;-1.201264;2.444554;0.3795754;-0.3174935;1.288663;0.2255505;0;0;0
107648.4991;NotLabelled;16384;0.7119586;0.002770083;-0.4944598;0.4986149;0;1;0;2870;-2024;2053;65536;0.3282548;-0.333795;0.8835371;0.01385042;-1;0;0;2389;986;-3211;8192;0.1094183;-0.3781163;-0.7704991;-0.501385;0;-2;0;1884;3441;861;32768;0.7215987;-0.1218837;-0.04432133;-0.6800554;-1;0;0;3927;1003;-244;256;-0.1288089;0.0166205;-0.6274238;-0.7677704;0;-1;0;725;3914;-661;128;0.4944598;-0.4252077;0.4626039;0.6005877;1;0;0;-871;4001;314;4;0.682758;-0.6495845;-0.2894737;0.16759;-1;0;0;2455;3232;434;16;-0.432133;0.2257618;0.6238686;0.6108033;0;0;0;1015;3956;-598;2;-0.07479224;-0.05263158;-0.6481994;-0.7559587;0;0;0;735;3988;-629;8;-0.3421052;0.6163435;0.2617728;0.6592114;0;-1;0;525;3081;2561;-0.8890026;2.487272;0.3792949;-0.8831058;3.024667;0.2855229;-0.8779264;3.496689;0.2011049;-0.7502681;4.2068;0.3349298;-0.9469121;4.575034;0.3569132;-1.309264;4.488391;0.3934253;-0.7609592;4.948453;-0.1948205;-1.150598;4.717593;0.6374545;-0.4347773;4.482969;0.3569129;-0.1768474;4.28482;0.3934249;-0.292979;3.460441;0.8783875;-0.5618435;3.236591;-0.00217481;-1.201264;2.444554;0.3795754;-0.3174935;1.288663;0.2255505;0;0;0;-1.201264;2.444554;0.3795754;-0.3174935;1.288663;0.2255505;0;0;0
107669.2223;NotLabelled;16384;0.7119586;0.002770083;-0.4944598;0.4986149;0;1;0;2854;-2028;2077;65536;0.3282548;-0.333795;0.8835371;0.01385042;-1;-1;0;2393;986;-3213;8192;0.1108033;-0.3781163;-0.770301;-0.501385;0;-2;0;1926;3457;821;32768;0.7215987;-0.1218837;-0.04432133;-0.6800554;0;0;1;3935;969;-200;256;-0.1288089;0.0166205;-0.6274238;-0.7677704;-1;-2;1;681;3980;-665;128;0.4944598;-0.4252077;0.4626039;0.6005877;0;1;0;-859;4019;336;4;0.682758;-0.6495845;-0.2894737;0.16759;0;0;0;2443;3174;392;16;-0.432133;0.2257618;0.6238686;0.6108033;1;0;0;993;3902;-582;2;-0.07479224;-0.05263158;-0.6481994;-0.7559587;0;0;0;765;3996;-573;8;-0.3421052;0.6163435;0.2617728;0.6592114;0;0;0;571;3199;2567;-0.8890026;2.487272;0.3792949;-0.8831058;3.024667;0.2855229;-0.8779264;3.496689;0.2011049;-0.7502681;4.2068;0.3349298;-0.9469121;4.575034;0.3569132;-1.309264;4.488391;0.3934253;-0.7609592;4.948453;-0.1948205;-1.150598;4.717593;0.6374545;-0.4347773;4.482969;0.3569129;-0.1768474;4.28482;0.3934249;-0.2911158;3.459622;0.8774352;-0.5599805;3.235772;-0.003127337;-1.201264;2.444554;0.3795754;-0.3174935;1.288663;0.2255505;0;0;0;-1.201264;2.444554;0.3795754;-0.3174935;1.288663;0.2255505;0;0;0
107690.236;NotLabelled;16384;0.7129198;0.004155125;-0.4944598;0.4972299;0;1;0;2782;-1992;2067;65536;0.3282548;-0.33241;0.8840591;0.01385042;-1;-1;0;2325;1012;-3201;8192;0.1108033;-0.3781163;-0.770301;-0.501385;0;-2;-1;1870;3491;815;32768;0.7215987;-0.1218837;-0.04432133;-0.6800554;-2;0;2;3947;911;-156;256;-0.1288089;0.0166205;-0.6274238;-0.7677704;0;-2;1;711;3938;-657;128;0.4958449;-0.4252077;0.4626039;0.5994447;1;2;-1;-887;4035;298;4;0.682758;-0.6495845;-0.2894737;0.16759;0;-1;0;2437;3102;410;16;-0.432133;0.2257618;0.6238686;0.6108033;0;0;0;1063;3870;-620;2;-0.07479224;-0.05263158;-0.6481994;-0.7559587;0;-2;0;793;4034;-573;8;-0.3421052;0.6163435;0.2617728;0.6592114;0;0;0;487;3149;2595;-0.8890031;2.487271;0.3791652;-0.8831093;3.024401;0.2838885;-0.8779325;3.496185;0.1981488;-0.7502743;4.206296;0.3319737;-0.9469183;4.574529;0.3539572;-1.309271;4.487887;0.390469;-0.7613432;4.948514;-0.1976875;-1.151337;4.7185;0.6346563;-0.4347835;4.482465;0.353957;-0.1768535;4.284316;0.3904692;-0.2911222;3.459117;0.8744793;-0.5599865;3.235268;-0.006083176;-1.201265;2.444554;0.3795748;-0.3174938;1.288663;0.2255504;0;0;0;-1.201265;2.444554;0.3795748;-0.3174938;1.288663;0.2255504;0;0;0
107710.1274;NotLabelled;16384;0.7129198;0.004155125;-0.4944598;0.4972299;0;2;0;2786;-2050;2095;65536;0.3282548;-0.33241;0.8840364;0.01523546;-2;-2;1;2315;990;-3223;8192;0.1108033;-0.3781163;-0.770301;-0.501385;0;-2;-1;1928;3473;845;32768;0.7216824;-0.1218837;-0.04293629;-0.6800554;-2;0;1;3915;947;-218;256;-0.1288089;0.01523546;-0.6274238;-0.7677991;0;-1;1;703;3898;-755;128;0.4958449;-0.4252077;0.4626039;0.5994447;0;2;0;-853;4029;318;4;0.682758;-0.6495845;-0.2894737;0.16759;0;-1;0;2475;3216;366;16;-0.432133;0.2257618;0.6238686;0.6108033;0;-1;0;1057;3870;-532;2;-0.07479224;-0.05401662;-0.6481994;-0.755861;0;-3;0;813;3978;-673;8;-0.3421052;0.6163435;0.2617728;0.6592114;0;0;0;523;3125;2559;-0.8890028;2.48727;0.3791652;-0.883109;3.024401;0.2838886;-0.8779321;3.496185;0.198149;-0.7487301;4.20606;0.3317408;-0.9446734;4.57464;0.3541627;-1.3071;4.488639;0.3914408;-0.7596099;4.948328;-0.1978557;-1.148747;4.715995;0.6342443;-0.4327038;4.481668;0.3530676;-0.1750487;4.28306;0.38902;-0.2897505;3.458037;0.8732278;-0.5605113;3.235953;-0.007201031;-1.201264;2.444554;0.3795748;-0.3174937;1.288663;0.2255503;0;0;0;-1.201264;2.444554;0.3795748;-0.3174937;1.288663;0.2255503;0;0;0
107731.1434;NotLabelled;16384;0.7129198;0.004155125;-0.4944598;0.4972299;0;1;0;2872;-2022;2115;65536;0.3282548;-0.33241;0.8840364;0.01523546;-1;-1;0;2387;968;-3261;8192;0.1121884;-0.3795014;-0.769419;-0.501385;0;-2;-1;1920;3567;871;32768;0.7216824;-0.1218837;-0.04293629;-0.6800554;-1;0;2;3973;959;-228;256;-0.1288089;0.01523546;-0.6274238;-0.7677991;-1;-1;1;699;3942;-685;128;0.4958449;-0.4252077;0.4626039;0.5994447;1;0;0;-847;4093;394;4;0.682758;-0.6495845;-0.2894737;0.16759;0;0;0;2487;3200;398;16;-0.432133;0.2257618;0.6238686;0.6108033;0;0;0;937;3918;-610;2;-0.07479224;-0.05401662;-0.6481994;-0.755861;0;-1;0;735;3996;-591;8;-0.3421052;0.6163435;0.2617728;0.6592114;0;0;0;607;3103;2529;-0.8898121;2.487271;0.3765956;-0.8839182;3.024401;0.281319;-0.8787414;3.496185;0.1955792;-0.7498254;4.20606;0.3294471;-0.945816;4.57464;0.35145;-1.308322;4.48864;0.3879529;-0.7591383;4.949266;-0.1990306;-1.150055;4.716933;0.6322352;-0.4338454;4.481668;0.3514499;-0.1762677;4.28306;0.3879532;-0.2911708;3.457413;0.8710477;-0.5600477;3.235329;-0.009958103;-1.202074;2.444554;0.3770052;-0.3179756;1.288663;0.224871;0;0;0;-1.202074;2.444554;0.3770052;-0.3179756;1.288663;0.224871;0;0;0
107751.1471;NotLabelled;16384;0.7129198;0.004155125;-0.4944598;0.4972299;-1;1;0;2786;-2046;2101;65536;0.3282548;-0.33241;0.8840364;0.01523546;-2;0;1;2325;1008;-3235;8192;0.1121884;-0.3795014;-0.769419;-0.501385;0;-1;-1;1986;3509;823;32768;0.7217635;-0.1218837;-0.04155125;-0.6800554;-1;-1;1;3993;981;-174;256;-0.1288089;0.01523546;-0.6274238;-0.7677991;0;-1;1;737;3914;-683;128;0.4958449;-0.4238227;0.4626039;0.6004247;1;-1;0;-881;4081;338;4;0.682758;-0.6495845;-0.2894737;0.16759;0;-1;0;2455;3180;350;16;-0.432133;0.2257618;0.6238686;0.6108033;0;0;0;1005;3954;-628;2;-0.07479224;-0.05401662;-0.6481994;-0.755861;0;0;0;725;3984;-651;8;-0.3421052;0.6163435;0.2617728;0.6592114;0;0;0;505;3175;2525;-0.8898145;2.48727;0.37659;-0.8839207;3.024405;0.2813342;-0.8787438;3.496192;0.1956127;-0.7498286;4.206067;0.3294814;-0.9458194;4.574647;0.3514829;-1.308326;4.488647;0.3879837;-0.7591351;4.949251;-0.1990113;-1.150056;4.716917;0.632252;-0.4338489;4.481675;0.3514858;-0.1762713;4.283067;0.3879908;-0.2911801;3.457439;0.8711157;-0.5619477;3.237121;-0.009754136;-1.202076;2.444554;0.3769979;-0.317977;1.288663;0.224869;0;0;0;-1.202076;2.444554;0.3769979;-0.317977;1.288663;0.224869;0;0;0
107771.8996;NotLabelled;16384;0.7138838;0.004155125;-0.4944598;0.4958449;-1;1;0;2862;-2028;2081;65536;0.3268698;-0.33241;0.8845494;0.01523546;-1;0;0;2381;1010;-3243;8192;0.1121884;-0.3795014;-0.769419;-0.501385;0;-2;-1;1922;3535;863;32768;0.7217635;-0.1218837;-0.04155125;-0.6800554;-2;0;0;3951;973;-236;256;-0.1288089;0.01523546;-0.6274238;-0.7677991;0;0;1;781;3964;-713;128;0.4958449;-0.4238227;0.4626039;0.6004247;0;2;0;-799;4075;306;4;0.682758;-0.6495845;-0.2894737;0.16759;0;0;0;2451;3248;370;16;-0.432133;0.2257618;0.6238686;0.6108033;0;0;0;991;3944;-652;2;-0.07479224;-0.05401662;-0.6481994;-0.755861;0;0;0;739;3976;-595;8;-0.3421052;0.6163435;0.2617728;0.6592114;0;0;0;543;3165;2599;-0.8898118;2.48727;0.3765989;-0.8839179;3.024405;0.281343;-0.8787411;3.496192;0.1956216;-0.7498248;4.206067;0.3294892;-0.9458156;4.574647;0.3514923;-1.308321;4.488647;0.3879957;-0.7582628;4.94801;-0.1991581;-1.146887;4.716534;0.6334204;-0.4338449;4.481675;0.3514915;-0.1762673;4.283067;0.3879943;-0.2911693;3.45742;0.8710893;-0.5619432;3.237103;-0.009778813;-1.202073;2.444554;0.3770068;-0.3179753;1.288662;0.2248713;0;0;0;-1.202073;2.444554;0.3770068;-0.3179753;1.288662;0.2248713;0;0;0
107792.1419;NotLabelled;16384;0.7138838;0.004155125;-0.4944598;0.4958449;-1;0;0;2814;-2058;2051;65536;0.3268698;-0.33241;0.8845494;0.01523546;-1;0;0;2337;1022;-3273;8192;0.1121884;-0.3795014;-0.769419;-0.501385;0;-2;-1;1964;3509;805;32768;0.7217635;-0.1218837;-0.04155125;-0.6800554;-1;0;0;4003;927;-218;256;-0.1288089;0.01523546;-0.6274238;-0.7677991;0;0;0;695;3956;-681;128;0.4958449;-0.4238227;0.4626039;0.6004247;0;1;0;-847;4039;350;4;0.682758;-0.6495845;-0.2894737;0.16759;0;0;0;2415;3218;392;16;-0.432133;0.2257618;0.6238686;0.6108033;0;0;0;1041;3890;-644;2;-0.07479224;-0.05401662;-0.6481994;-0.755861;0;-1;0;735;4050;-547;8;-0.3421052;0.6163435;0.2617728;0.6592114;0;0;0;537;3133;2591;-0.8898118;2.48727;0.3765989;-0.8839179;3.024405;0.281343;-0.8787411;3.496192;0.1956216;-0.7498248;4.206067;0.3294892;-0.9458156;4.574647;0.3514923;-1.308321;4.488647;0.3879957;-0.7582628;4.94801;-0.1991581;-1.146887;4.716534;0.6334204;-0.4338449;4.481675;0.3514915;-0.1762673;4.283067;0.3879943;-0.2911693;3.45742;0.8710893;-0.5619432;3.237103;-0.009778813;-1.202073;2.444554;0.3770068;-0.3179753;1.288662;0.2248713;0;0;0;-1.202073;2.444554;0.3770068;-0.3179753;1.288662;0.2248713;0;0;0
107813.1356;NotLabelled;16384;0.7138838;0.004155125;-0.4944598;0.4958449;0;0;0;2798;-2014;2033;65536;0.3268698;-0.33241;0.8845245;0.0166205;-1;0;0;2343;1044;-3181;8192;0.1121884;-0.3795014;-0.769419;-0.501385;0;0;0;1982;3535;859;32768;0.7217635;-0.1218837;-0.04155125;-0.6800554;0;0;0;4019;1061;-180;256;-0.1288089;0.01523546;-0.6274238;-0.7677991;0;0;0;743;3948;-679;128;0.4958449;-0.4238227;0.4626039;0.6004247;0;0;0;-799;4015;328;4;0.682758;-0.6495845;-0.2894737;0.16759;0;0;0;2475;3178;372;16;-0.432133;0.2257618;0.6238686;0.6108033;0;-1;0;1029;3908;-582;2;-0.07479224;-0.05401662;-0.6481994;-0.755861;0;0;0;759;3992;-559;8;-0.3421052;0.6163435;0.2617728;0.6592114;-1;0;0;519;3199;2529;-0.889812;2.48727;0.3765979;-0.8839182;3.024405;0.2813421;-0.8787413;3.496192;0.1956206;-0.7498252;4.206067;0.3294885;-0.9458159;4.574647;0.3514915;-1.308322;4.488647;0.3879944;-0.7582608;4.94801;-0.1991577;-1.146031;4.714213;0.6331712;-0.4338452;4.481675;0.3514912;-0.1762675;4.283066;0.3879945;-0.2911711;3.45742;0.8710888;-0.5619441;3.237102;-0.009779751;-1.202074;2.444554;0.3770058;-0.3179754;1.288663;0.2248712;0;0;0;-1.202074;2.444554;0.3770058;-0.3179754;1.288663;0.2248712;0;0;0
107833.1362;NotLabelled;16384;0.7138838;0.004155125;-0.4944598;0.4958449;0;0;0;2836;-2038;2021;65536;0.3268698;-0.33241;0.8845245;0.0166205;-1;0;1;2413;1044;-3137;8192;0.1121884;-0.3795014;-0.769419;-0.501385;0;-1;0;1918;3521;833;32768;0.7215282;-0.1232687;-0.04155125;-0.6800554;-1;0;0;3907;907;-174;256;-0.1288089;0.01523546;-0.6274238;-0.7677991;0;0;0;719;3960;-667;128;0.4958449;-0.4238227;0.4626039;0.6004247;0;-1;0;-765;3999;346;4;0.682758;-0.6495845;-0.2894737;0.16759;0;0;0;2447;3148;378;16;-0.4307479;0.2257618;0.6248257;0.6108033;-1;0;0;997;3902;-602;2;-0.07479224;-0.05401662;-0.6481994;-0.755861;0;-1;0;699;3996;-631;8;-0.3421052;0.6163435;0.2617728;0.6592114;0;-1;0;525;3167;2681;-0.889222;2.488003;0.3732097;-0.8833282;3.025137;0.2779539;-0.8781513;3.496924;0.1922324;-0.7492351;4.2068;0.3261;-0.9452258;4.575379;0.3481031;-1.307732;4.489379;0.3846066;-0.757673;4.948742;-0.2025473;-1.145441;4.714946;0.6297819;-0.4332552;4.482408;0.3481022;-0.1756775;4.283799;0.3846052;-0.2905796;3.458153;0.8677002;-0.5630037;3.235996;-0.01219684;-1.201484;2.445286;0.3736176;-0.3173856;1.289395;0.2214822;0;0;0;-1.201484;2.445286;0.3736176;-0.3173856;1.289395;0.2214822;0;0;0
107854.1702;NotLabelled;16384;0.7129198;0.004155125;-0.4944598;0.4972299;0;0;0;2798;-2060;2025;65536;0.3268698;-0.33241;0.8845245;0.0166205;0;0;0;2399;998;-3191;8192;0.1121884;-0.3795014;-0.769419;-0.501385;0;-1;0;1954;3517;837;32768;0.7215282;-0.1232687;-0.04155125;-0.6800554;0;0;0;3967;943;-222;256;-0.1288089;0.01523546;-0.6274238;-0.7677991;0;-1;0;737;3936;-665;128;0.4958449;-0.4238227;0.4626039;0.6004247;0;-1;0;-821;4049;306;4;0.682758;-0.6495845;-0.2894737;0.16759;-1;-1;0;2455;3226;404;16;-0.4307479;0.2257618;0.6248257;0.6108033;0;0;0;995;3914;-652;2;-0.07479224;-0.05263158;-0.6481994;-0.7559587;0;0;0;739;3966;-607;8;-0.3421052;0.6163435;0.2617728;0.6592114;0;0;0;563;3079;2579;-0.8892226;2.488003;0.3732089;-0.8833288;3.025137;0.2779531;-0.8781519;3.496924;0.1922316;-0.7492358;4.2068;0.3260995;-0.9452266;4.575379;0.3481025;-1.307732;4.489379;0.3846054;-0.7585483;4.950006;-0.2023779;-1.146318;4.716209;0.6299511;-0.4332558;4.482407;0.3481022;-0.1756782;4.283799;0.3846055;-0.2905817;3.458152;0.8676998;-0.5630049;3.235995;-0.01219738;-1.201484;2.445286;0.3736168;-0.317386;1.289395;0.2214822;0;0;0;-1.201484;2.445286;0.3736168;-0.317386;1.289395;0.2214822;0;0;0
107876.1664;NotLabelled;16384;0.7129198;0.004155125;-0.4944598;0.4972299;0;0;0;2838;-2032;2001;65536;0.3268698;-0.33241;0.8845245;0.0166205;0;0;0;2381;1070;-3191;8192;0.1121884;-0.3795014;-0.769419;-0.501385;0;-1;0;1958;3495;821;32768;0.7215282;-0.1232687;-0.04155125;-0.6800554;0;0;0;3933;949;-184;256;-0.1301939;0.01523546;-0.6274238;-0.7675655;-1;0;0;721;3950;-689;128;0.4958449;-0.4238227;0.4626039;0.6004247;0;-1;0;-883;4089;242;4;0.682758;-0.6495845;-0.2894737;0.16759;0;-1;0;2481;3236;364;16;-0.4307479;0.2257618;0.6248257;0.6108033;0;-1;0;943;3904;-588;2;-0.07479224;-0.05401662;-0.6481994;-0.755861;0;-2;1;737;4008;-597;8;-0.3421052;0.6163435;0.2617728;0.6592114;0;-1;0;501;3135;2553;-0.8885233;2.488003;0.3754497;-0.8826294;3.025137;0.2801939;-0.8774526;3.496924;0.1944725;-0.7470295;4.206615;0.3278565;-0.9422432;4.575621;0.3496396;-1.304924;4.490406;0.3862429;-0.7579347;4.951032;-0.2027853;-1.14415;4.717236;0.6302652;-0.4304689;4.481573;0.3496394;-0.1733044;4.282449;0.3862428;-0.2864043;3.456802;0.8697625;-0.5604692;3.234645;-0.009624869;-1.200785;2.445286;0.3758575;-0.316972;1.289395;0.2220738;0;0;0;-1.200785;2.445286;0.3758575;-0.316972;1.289395;0.2220738;0;0;0
107897.308;NotLabelled;16384;0.7138838;0.004155125;-0.4944598;0.4958449;0;0;-1;2848;-2026;2111;65536;0.3282548;-0.33241;0.8840114;0.0166205;0;-1;1;2367;1026;-3223;8192;0.1121884;-0.3795014;-0.769419;-0.501385;0;0;1;1950;3517;839;32768;0.7215282;-0.1232687;-0.04155125;-0.6800554;0;0;1;3951;949;-122;256;-0.1301939;0.01523546;-0.6274238;-0.7675655;-1;0;0;709;3950;-687;128;0.4958449;-0.4238227;0.4639889;0.599355;0;-1;0;-817;4035;294;4;0.682758;-0.6495845;-0.2894737;0.16759;0;0;0;2425;3212;366;16;-0.4307479;0.2257618;0.6248257;0.6108033;0;0;0;951;3976;-632;2;-0.07479224;-0.05401662;-0.6481994;-0.755861;0;-3;0;779;3968;-633;8;-0.3421052;0.6163435;0.2603878;0.6597597;-1;-1;0;517;3119;2527;-0.8885233;2.488001;0.3753264;-0.8826323;3.024879;0.2786378;-0.877458;3.496437;0.191658;-0.747035;4.206128;0.3250419;-0.9422486;4.575134;0.346825;-1.30493;4.489918;0.3834284;-0.7556946;4.949281;-0.2044961;-1.144203;4.714628;0.6272473;-0.4304742;4.481086;0.3468248;-0.1733097;4.281961;0.3834282;-0.2875345;3.456314;0.8666838;-0.5615989;3.234158;-0.01270388;-1.200785;2.445286;0.3758574;-0.3169721;1.289394;0.2220737;0;0;0;-1.200785;2.445286;0.3758574;-0.3169721;1.289394;0.2220737;0;0;0
107918.137;NotLabelled;16384;0.7138838;0.004155125;-0.4944598;0.4958449;0;0;-1;2864;-2034;2089;65536;0.3268698;-0.33241;0.8845245;0.0166205;0;-1;0;2387;998;-3229;8192;0.1135734;-0.3808864;-0.7685309;-0.501385;0;0;0;1898;3515;869;32768;0.7215282;-0.1232687;-0.04155125;-0.6800554;0;0;0;4007;871;-166;256;-0.1301939;0.01523546;-0.6274238;-0.7675655;0;0;0;729;4004;-669;128;0.4958449;-0.4238227;0.4639889;0.599355;1;0;0;-849;4059;306;4;0.682758;-0.6495845;-0.2894737;0.16759;0;0;0;2443;3148;330;16;-0.4307479;0.2257618;0.6248257;0.6108033;0;0;0;919;3914;-576;2;-0.0734072;-0.05401662;-0.6481994;-0.7559968;0;0;0;797;4048;-635;8;-0.3421052;0.6163435;0.2603878;0.6597597;-1;0;1;591;3143;2625;-0.8885233;2.488001;0.3753264;-0.8826323;3.024879;0.2786378;-0.877458;3.496437;0.191658;-0.747035;4.206128;0.3250419;-0.9422486;4.575134;0.346825;-1.30493;4.489918;0.3834284;-0.7559662;4.949281;-0.2047494;-1.142182;4.715485;0.6283014;-0.4304742;4.481086;0.3468248;-0.1733097;4.281961;0.3834282;-0.2869189;3.455864;0.8660598;-0.5609836;3.233707;-0.01332781;-1.200785;2.445286;0.3758574;-0.3169721;1.289394;0.2220737;0;0;0;-1.200785;2.445286;0.3758574;-0.3169721;1.289394;0.2220737;0;0;0
107938.144;NotLabelled;16384;0.7138838;0.004155125;-0.4944598;0.4958449;0;0;0;2876;-2016;2097;65536;0.3268698;-0.33241;0.8845245;0.0166205;0;-1;1;2405;996;-3257;8192;0.1135734;-0.3808864;-0.7685309;-0.501385;0;-2;0;1926;3533;873;32768;0.7216067;-0.1232687;-0.0401662;-0.6800554;-1;0;0;3927;973;-136;256;-0.1301939;0.01523546;-0.6274238;-0.7675655;0;0;0;687;3994;-677;128;0.4958449;-0.4224377;0.4639889;0.6003321;1;0;0;-841;4065;344;4;0.6830965;-0.6495845;-0.2894737;0.166205;0;0;0;2443;3158;464;16;-0.4307479;0.2257618;0.6248257;0.6108033;0;-1;0;1083;3956;-602;2;-0.0734072;-0.05401662;-0.6481994;-0.7559968;0;0;0;791;4020;-575;8;-0.3421052;0.6163435;0.2603878;0.6597597;0;0;0;465;3163;2713;-0.8862221;2.489818;0.3748745;-0.880331;3.0267;0.2782066;-0.8751568;3.49826;0.1912449;-0.7447345;4.207951;0.3246297;-0.9399482;4.576957;0.3464116;-1.30263;4.491742;0.3830124;-0.7536587;4.951082;-0.2051761;-1.13988;4.717286;0.627872;-0.428174;4.482909;0.3464146;-0.1710099;4.283784;0.3830196;-0.2846253;3.457707;0.8656811;-0.5605785;3.237316;-0.01356;-1.198484;2.447103;0.3754036;-0.3169734;1.289395;0.2220714;0;0;0;-1.198484;2.447103;0.3754036;-0.3169734;1.289395;0.2220714;0;0;0
107959.1538;NotLabelled;16384;0.7138838;0.004155125;-0.4944598;0.4958449;0;0;0;2878;-1974;2109;65536;0.3268698;-0.3310249;0.8850437;0.0166205;0;0;0;2369;988;-3255;8192;0.1135734;-0.3808864;-0.7685309;-0.501385;0;-1;0;1970;3505;827;32768;0.7216067;-0.1232687;-0.0401662;-0.6800554;0;1;0;3949;1003;-136;256;-0.1301939;0.01523546;-0.6288089;-0.7664312;-1;0;0;753;3990;-697;128;0.4958449;-0.4224377;0.4639889;0.6003321;1;-1;0;-841;4069;264;4;0.682758;-0.6495845;-0.2894737;0.16759;0;0;0;2493;3154;392;16;-0.4307479;0.2257618;0.6248257;0.6108033;0;-2;0;1011;3948;-576;2;-0.0734072;-0.05401662;-0.6481994;-0.7559968;0;0;1;765;3960;-595;8;-0.3407202;0.6163435;0.2603878;0.6604761;0;1;0;473;3117;2569;-0.8884007;2.488001;0.3757194;-0.8825096;3.024884;0.2790515;-0.8773353;3.496444;0.1920899;-0.7470699;4.206648;0.3228693;-0.9423963;4.575662;0.3434701;-1.305024;4.490453;0.3806121;-0.7562525;4.949816;-0.2077444;-1.142556;4.716861;0.6255015;-0.4305897;4.48179;0.3434696;-0.173333;4.282884;0.3806116;-0.286785;3.456788;0.8632797;-0.5630301;3.236397;-0.01586978;-1.200662;2.445286;0.3762486;-0.3168997;1.289394;0.222177;0;0;0;-1.200662;2.445286;0.3762486;-0.3168997;1.289394;0.222177;0;0;0
107980.1587;NotLabelled;16384;0.7138838;0.004155125;-0.4944598;0.4958449;0;0;0;2836;-1992;2139;65536;0.3268698;-0.3310249;0.8850437;0.0166205;0;-1;0;2349;998;-3219;8192;0.1135734;-0.3808864;-0.7685309;-0.501385;0;0;1;2002;3483;829;32768;0.7216067;-0.1232687;-0.0401662;-0.6800554;0;1;0;3905;969;-198;256;-0.1301939;0.01523546;-0.6288089;-0.7664312;-1;0;0;677;3972;-683;128;0.4958449;-0.4224377;0.4639889;0.6003321;0;-1;0;-843;4051;322;4;0.682758;-0.6495845;-0.2894737;0.16759;0;0;0;2491;3250;394;16;-0.4307479;0.2257618;0.6248257;0.6108033;0;0;0;965;3966;-588;2;-0.0734072;-0.05401662;-0.6481994;-0.7559968;1;-1;0;813;3972;-625;8;-0.3421052;0.6163435;0.2603878;0.6597597;0;-2;0;535;3085;2499;-0.8884007;2.488001;0.3757194;-0.8825096;3.024884;0.2790515;-0.8773353;3.496444;0.1920899;-0.7470699;4.206648;0.3228693;-0.9423963;4.575662;0.3434701;-1.305024;4.490453;0.3806121;-0.7562525;4.949816;-0.2077444;-1.142556;4.716861;0.6255015;-0.4305897;4.48179;0.3434696;-0.173333;4.282884;0.3806116;-0.286785;3.456788;0.8632797;-0.5630301;3.236397;-0.01586978;-1.200662;2.445286;0.3762486;-0.3168997;1.289394;0.222177;0;0;0;-1.200662;2.445286;0.3762486;-0.3168997;1.289394;0.222177;0;0;0
108000.1556;NotLabelled;16384;0.7138838;0.004155125;-0.4944598;0.4958449;0;1;0;2840;-1970;2107;65536;0.3268698;-0.3310249;0.8850437;0.0166205;0;-1;0;2373;954;-3231;8192;0.1121884;-0.3808864;-0.7687343;-0.501385;0;0;0;1962;3513;791;32768;0.7216067;-0.1232687;-0.0401662;-0.6800554;0;1;0;3941;931;-148;256;-0.1301939;0.01523546;-0.6288089;-0.7664312;0;0;0;735;3978;-685;128;0.4944598;-0.4224377;0.4639889;0.6014734;0;-1;0;-857;4077;266;4;0.6830965;-0.6495845;-0.2894737;0.166205;0;0;0;2437;3250;426;16;-0.4307479;0.2257618;0.6248257;0.6108033;0;1;0;1047;3924;-586;2;-0.0734072;-0.05401662;-0.6481994;-0.7559968;0;0;0;735;3966;-591;8;-0.3421052;0.6163435;0.2603878;0.6597597;0;-1;0;529;3145;2517;-0.8860977;2.48982;0.3754019;-0.8802035;3.02697;0.2802386;-0.8750265;3.498773;0.1945983;-0.7447612;4.208977;0.3253778;-0.9400876;4.577991;0.3459785;-1.302716;4.492782;0.3831205;-0.7542279;4.952145;-0.2055012;-1.140531;4.71919;0.6277446;-0.428281;4.484118;0.3459782;-0.1710243;4.285213;0.3831204;-0.2860964;3.459939;0.8668096;-0.5623413;3.239548;-0.01234005;-1.198359;2.447103;0.3758018;-0.3168997;1.289395;0.2221767;0;0;0;-1.198359;2.447103;0.3758018;-0.3168997;1.289395;0.2221767;0;0;0
108020.155;NotLabelled;16384;0.7138838;0.004155125;-0.4944598;0.4958449;0;0;0;2762;-1984;2055;65536;0.3254848;-0.3310249;0.885554;0.0166205;0;-1;1;2419;960;-3199;8192;0.1121884;-0.3808864;-0.7687343;-0.501385;0;0;1;1956;3447;851;32768;0.7202989;-0.1232687;-0.0401662;-0.6814404;0;1;0;3853;881;-114;256;-0.1301939;0.01523546;-0.6288089;-0.7664312;-1;0;0;751;4004;-617;128;0.4958449;-0.4224377;0.4639889;0.6003321;1;-1;0;-889;4027;296;4;0.682508;-0.6495845;-0.2908587;0.166205;0;-1;0;2371;3164;390;16;-0.4307479;0.2257618;0.6248257;0.6108033;0;-1;0;1091;3912;-610;2;-0.0734072;-0.05540166;-0.6481994;-0.7558965;0;-1;0;697;4008;-623;8;-0.3421052;0.6163435;0.2603878;0.6597597;-1;1;0;601;3129;2597;-0.88876;2.489064;0.3665804;-0.8828689;3.025946;0.2699126;-0.8776945;3.497506;0.1829509;-0.7474253;4.208074;0.3117363;-0.942751;4.577144;0.3313093;-1.305378;4.492039;0.3687009;-0.7566239;4.949753;-0.2209569;-1.140604;4.719989;0.6142467;-0.4309446;4.483272;0.3315561;-0.1736866;4.284472;0.3692474;-0.2889773;3.460555;0.8551946;-0.5656648;3.237903;-0.0232458;-1.201022;2.446348;0.3671095;-0.316893;1.290012;0.2185737;0;0;0;-1.201022;2.446348;0.3671095;-0.316893;1.290012;0.2185737;0;0;0
108041.1343;NotLabelled;16384;0.7148412;0.004155125;-0.4930748;0.4958449;0;0;-1;2850;-2002;2143;65536;0.3254848;-0.3310249;0.885554;0.0166205;0;-1;2;2419;988;-3249;8192;0.1135734;-0.3822715;-0.7678429;-0.501385;0;-2;0;1932;3493;849;32768;0.7202989;-0.1232687;-0.0401662;-0.6814404;-1;1;0;3975;939;-174;256;-0.1301939;0.01523546;-0.6288089;-0.7664312;-1;0;0;673;3990;-667;128;0.4944598;-0.4210526;0.4639889;0.6024438;3;-1;0;-875;4073;282;4;0.682508;-0.6495845;-0.2908587;0.166205;0;0;0;2399;3198;452;16;-0.4307479;0.2257618;0.6248257;0.6108033;0;-1;0;963;3922;-612;2;-0.0734072;-0.05540166;-0.6481994;-0.7558965;0;-1;0;765;3970;-621;8;-0.3421052;0.6163435;0.2603878;0.6597597;0;-1;0;589;3161;2623;-0.888954;2.488027;0.3729376;-0.8830599;3.025182;0.2777955;-0.8778828;3.496987;0.192174;-0.7476816;4.207191;0.3230172;-0.9430181;4.576204;0.3435223;-1.305664;4.490996;0.3804866;-0.7574676;4.947415;-0.2106909;-1.141882;4.715313;0.6236656;-0.4312117;4.482333;0.3437727;-0.1739731;4.283427;0.3810408;-0.2895828;3.459077;0.8661768;-0.5658129;3.238887;-0.01302791;-1.201216;2.44531;0.3733357;-0.3170084;1.289395;0.2220216;0;0;0;-1.201216;2.44531;0.3733357;-0.3170084;1.289395;0.2220216;0;0;0
108061.134;NotLabelled;16384;0.7148318;0.005540166;-0.4930748;0.4958449;0;2;-1;2892;-2040;2151;65536;0.3254848;-0.3310249;0.885554;0.0166205;0;-2;1;2319;956;-3241;8192;0.1135734;-0.3822715;-0.7678429;-0.501385;0;-1;0;1938;3529;843;32768;0.7202989;-0.1232687;-0.0401662;-0.6814404;0;1;1;3971;965;-184;256;-0.1301939;0.0166205;-0.6288089;-0.7664024;-1;0;0;685;3998;-685;128;0.4958449;-0.4210526;0.4653739;0.600233;3;-2;0;-851;4067;330;4;0.682758;-0.6495845;-0.2894737;0.16759;0;-1;0;2479;3216;396;16;-0.4307479;0.2257618;0.6248257;0.6108033;0;0;0;1039;3948;-578;2;-0.0734072;-0.05540166;-0.6481994;-0.7558965;0;-1;0;719;4012;-603;8;-0.3421052;0.6163435;0.2603878;0.6597597;0;0;0;535;3101;2647;-0.8872403;2.488;0.3792803;-0.8813519;3.024625;0.2811967;-0.8761803;3.495955;0.1929916;-0.7470545;4.206397;0.3236078;-0.9430172;4.575064;0.3443724;-1.305458;4.489213;0.3818619;-0.7629511;4.952382;-0.2093145;-1.144394;4.720279;0.6264048;-0.4310448;4.482102;0.3438936;-0.1733997;4.283657;0.3808036;-0.2853919;3.455297;0.8599198;-0.5647496;3.235106;-0.01829579;-1.199502;2.445286;0.3799312;-0.3162161;1.289395;0.2231483;0;0;0;-1.199502;2.445286;0.3799312;-0.3162161;1.289395;0.2231483;0;0;0
108081.1486;NotLabelled;16384;0.7157906;0.005540166;-0.4930748;0.4944598;0;0;0;2804;-1980;2071;65536;0.3254848;-0.3296399;0.8860705;0.0166205;0;-1;1;2357;1030;-3259;8192;0.1135734;-0.3822715;-0.7678429;-0.501385;0;-3;0;1996;3527;919;32768;0.7202989;-0.1232687;-0.0401662;-0.6814404;-1;0;1;3977;951;-150;256;-0.1301939;0.01523546;-0.6301939;-0.7652928;-1;0;0;733;3946;-719;128;0.4958449;-0.4210526;0.4653739;0.600233;1;0;0;-837;4015;322;4;0.6821692;-0.6495845;-0.2908587;0.16759;0;0;0;2495;3232;460;16;-0.4307479;0.2257618;0.6248257;0.6108033;0;0;0;923;3912;-582;2;-0.0734072;-0.05540166;-0.6481994;-0.7558965;0;-2;0;725;3992;-695;8;-0.3407202;0.6163435;0.2603878;0.6604761;0;-1;0;565;3151;2579;-0.8909509;2.486201;0.374111;-0.8850626;3.022827;0.2760274;-0.8798907;3.494156;0.1878222;-0.7497855;4.204865;0.3159918;-0.9452261;4.573883;0.3354083;-1.3078;4.488683;0.3730893;-0.7610229;4.947358;-0.2176554;-1.145112;4.716093;0.6170831;-0.4333872;4.480187;0.3354079;-0.1760376;4.281504;0.3730888;-0.2907963;3.455778;0.8560833;-0.5677428;3.235587;-0.02289577;-1.203212;2.443488;0.3747618;-0.3168273;1.289395;0.2222801;0;0;0;-1.203212;2.443488;0.3747618;-0.3168273;1.289395;0.2222801;0;0;0
108102.1406;NotLabelled;16384;0.7157906;0.005540166;-0.4930748;0.4944598;0;0;0;2894;-1992;2147;65536;0.3254848;-0.3296399;0.8860705;0.0166205;0;-2;0;2409;1032;-3277;8192;0.1135734;-0.3836565;-0.7671518;-0.501385;0;-3;-1;1940;3485;861;32768;0.7202989;-0.1232687;-0.0401662;-0.6814404;-1;0;1;3975;949;-138;256;-0.1301939;0.01523546;-0.6301939;-0.7652928;-1;-1;1;771;4012;-681;128;0.4958449;-0.4196676;0.4653739;0.6012022;0;-6;-2;-873;4071;316;4;0.682758;-0.6495845;-0.2894737;0.16759;0;0;0;2497;3238;382;16;-0.4307479;0.2243767;0.6253244;0.6108033;0;2;0;1027;3970;-642;2;-0.0734072;-0.05540166;-0.6481994;-0.7558965;0;0;0;735;4094;-599;8;-0.3407202;0.6163435;0.2603878;0.6604761;0;1;0;529;3173;2637;-0.8910842;2.487214;0.3765275;-0.8851959;3.023843;0.2784636;-0.880024;3.495175;0.1902758;-0.7499197;4.205884;0.3184464;-0.9453603;4.574902;0.3378619;-1.307935;4.489701;0.3755407;-0.7611492;4.948356;-0.2152136;-1.145244;4.717091;0.6195225;-0.4335215;4.481206;0.3378645;-0.1761722;4.282522;0.3755469;-0.2924017;3.457189;0.8588589;-0.5693429;3.236999;-0.02012163;-1.203346;2.4445;0.3771767;-0.3196325;1.288608;0.2228227;0;0;0;-1.203346;2.4445;0.3771767;-0.3196325;1.288608;0.2228227;0;0;0
108124.1348;NotLabelled;16384;0.7157906;0.005540166;-0.4930748;0.4944598;0;1;0;2910;-2000;2145;65536;0.3254848;-0.3296399;0.8860705;0.0166205;-1;-2;0;2363;934;-3299;8192;0.1135734;-0.3836565;-0.7671518;-0.501385;0;-2;0;1972;3497;813;32768;0.7203748;-0.1232687;-0.03878116;-0.6814404;-2;0;1;4003;885;-188;256;-0.1301939;0.01385042;-0.6301939;-0.7653192;-1;-2;2;821;3956;-667;128;0.4944598;-0.4196676;0.4653739;0.6023419;0;-4;-1;-881;4075;318;4;0.682758;-0.6495845;-0.2894737;0.16759;-1;0;0;2491;3202;374;16;-0.4307479;0.2243767;0.6253244;0.6108033;0;4;0;897;3812;-476;2;-0.0734072;-0.05540166;-0.6481994;-0.7558965;0;1;0;789;4088;-643;8;-0.3407202;0.6163435;0.2603878;0.6604761;0;1;1;493;3137;2627;-0.8918836;2.487216;0.3740983;-0.8859923;3.024117;0.2775391;-0.8808178;3.495695;0.1906728;-0.7494477;4.206164;0.3188844;-0.9442304;4.575528;0.3383201;-1.306956;4.490971;0.3759925;-0.7589207;4.949647;-0.2135852;-1.144789;4.718382;0.6203327;-0.4325595;4.48092;0.3383196;-0.1755648;4.281775;0.3759919;-0.2928181;3.456425;0.8590268;-0.5697811;3.238006;-0.02038859;-1.204145;2.4445;0.3746181;-0.3201058;1.288609;0.2221427;0;0;0;-1.204145;2.4445;0.3746181;-0.3201058;1.288609;0.2221427;0;0;0
108145.1472;NotLabelled;16384;0.7157906;0.005540166;-0.4930748;0.4944598;0;1;0;2870;-1982;2125;65536;0.3254848;-0.3282548;0.8865846;0.0166205;0;-1;0;2283;918;-3325;8192;0.1149584;-0.3836565;-0.7669454;-0.501385;0;-2;0;1984;3553;707;32768;0.720448;-0.1232687;-0.03739612;-0.6814404;0;0;2;3977;849;-160;256;-0.1301939;0.01385042;-0.6301939;-0.7653192;-1;-3;1;765;3970;-659;128;0.4944598;-0.4182825;0.4653739;0.6033045;0;-1;0;-889;4049;334;4;0.6821692;-0.6495845;-0.2908587;0.16759;0;0;0;2405;3114;402;16;-0.4293629;0.2243767;0.6249224;0.6121883;0;4;0;709;3962;-688;2;-0.0734072;-0.05540166;-0.6481994;-0.7558965;-1;0;0;771;4048;-521;8;-0.3407202;0.6163435;0.2603878;0.6604761;0;3;0;431;3173;2581;-0.8907314;2.486249;0.3728533;-0.8848401;3.023155;0.2763147;-0.8796654;3.494736;0.1894666;-0.7482962;4.205205;0.317679;-0.9430791;4.574569;0.3371133;-1.305805;4.490013;0.3747833;-0.7577621;4.948666;-0.2148052;-1.14399;4.718239;0.6191782;-0.4314079;4.479961;0.3371162;-0.1744134;4.280817;0.3747903;-0.2898247;3.454659;0.8568876;-0.5686713;3.238011;-0.02237096;-1.202993;2.443534;0.3733713;-0.3162836;1.289441;0.2227848;0;0;0;-1.202993;2.443534;0.3733713;-0.3162836;1.289441;0.2227848;0;0;0
108165.3258;NotLabelled;16384;0.7167453;0.005540166;-0.4930748;0.4930748;0;1;0;2848;-1978;2175;65536;0.3240997;-0.3282548;0.8870918;0.0166205;-1;-1;0;2375;926;-3299;8192;0.1149584;-0.3836565;-0.7669454;-0.501385;0;-1;0;1958;3519;739;32768;0.720448;-0.1232687;-0.03739612;-0.6814404;-1;0;1;3985;855;-158;256;-0.1301939;0.01385042;-0.6301939;-0.7653192;0;0;2;763;4012;-647;128;0.4944598;-0.4182825;0.4653739;0.6033045;0;0;0;-883;4069;318;4;0.6821692;-0.6495845;-0.2908587;0.16759;0;0;0;2431;3152;362;16;-0.4293629;0.2229917;0.625418;0.6121883;0;5;0;961;3976;-626;2;-0.0734072;-0.05540166;-0.6481994;-0.7558965;-1;0;0;727;4098;-579;8;-0.3407202;0.6163435;0.2603878;0.6604761;0;3;1;469;3153;2589;-0.8935338;2.485465;0.373399;-0.8876424;3.02237;0.2768604;-0.8824679;3.493952;0.1900124;-0.7510979;4.204421;0.318224;-0.9458807;4.573785;0.3376595;-1.308607;4.489228;0.3753318;-0.759701;4.946647;-0.2144137;-1.143623;4.717066;0.6208668;-0.4342096;4.479177;0.3376591;-0.1772149;4.280033;0.3753316;-0.2926202;3.453856;0.8573981;-0.5714724;3.237207;-0.02185862;-1.205796;2.44275;0.373917;-0.3190871;1.288657;0.2233248;0;0;0;-1.205796;2.44275;0.373917;-0.3190871;1.288657;0.2233248;0;0;0
108186.2768;NotLabelled;16384;0.7167453;0.005540166;-0.4930748;0.4930748;-1;1;0;2856;-2036;2163;65536;0.3240997;-0.3282548;0.8870648;0.01800554;-2;-1;0;2323;1036;-3329;8192;0.1149584;-0.3850415;-0.766251;-0.501385;0;-1;0;1968;3513;685;32768;0.7206836;-0.1218837;-0.03739612;-0.6814404;0;0;2;3939;865;-148;256;-0.1315789;0.01385042;-0.6301939;-0.7650822;0;0;2;765;3984;-653;128;0.4958449;-0.4182825;0.4653739;0.6021667;1;0;0;-861;4075;322;4;0.6821692;-0.6495845;-0.2908587;0.16759;1;0;0;2485;3198;354;16;-0.4279778;0.2229917;0.6263666;0.6121883;0;5;0;993;3916;-638;2;-0.0734072;-0.05540166;-0.6481994;-0.7558965;-1;-1;0;755;4044;-597;8;-0.3393352;0.6163435;0.2617728;0.6606416;0;5;1;475;3167;2565;-0.8922209;2.486196;0.3721579;-0.8863328;3.022828;0.2741143;-0.8811609;3.494164;0.1859443;-0.7482882;4.204443;0.3136644;-0.942295;4.574226;0.332877;-1.305192;4.490454;0.3706509;-0.7571031;4.947873;-0.2198534;-1.138612;4.715964;0.6158898;-0.430823;4.478548;0.3328764;-0.1742409;4.278891;0.3706502;-0.2904464;3.453087;0.8531647;-0.5692985;3.238276;-0.02654219;-1.204483;2.443482;0.3728054;-0.3180587;1.289389;0.220549;0;0;0;-1.204483;2.443482;0.3728054;-0.3180587;1.289389;0.220549;0;0;0
108207.1472;NotLabelled;16384;0.7167333;0.006925208;-0.4930748;0.4930748;-1;2;0;2894;-2056;2089;65536;0.3240997;-0.3282548;0.8870648;0.01800554;-2;-1;0;2377;1014;-3273;8192;0.1149584;-0.3850415;-0.766251;-0.501385;1;-1;0;1978;3489;731;32768;0.7206836;-0.1218837;-0.03739612;-0.6814404;0;0;2;3971;993;-132;256;-0.1315789;0.01246537;-0.6301939;-0.765106;0;0;2;727;3944;-681;128;0.4944598;-0.4182825;0.4653739;0.6033045;1;-1;-1;-949;4091;352;4;0.6821692;-0.6495845;-0.2908587;0.16759;1;0;0;2483;3196;420;16;-0.4279778;0.2216066;0.6268579;0.6121883;0;9;1;1003;3910;-606;2;-0.0734072;-0.05540166;-0.6481994;-0.7558965;0;0;1;745;4030;-619;8;-0.3393352;0.6149584;0.2617728;0.6619311;0;4;1;497;3187;2635;-0.8958111;2.485411;0.3702543;-0.8899197;3.022316;0.2737157;-0.8847452;3.493898;0.1868676;-0.750608;4.20393;0.3146302;-0.9439555;4.574059;0.3338619;-1.307002;4.490931;0.3716268;-0.7594876;4.950189;-0.2179824;-1.142776;4.718281;0.616946;-0.432655;4.477469;0.3338615;-0.1764297;4.277353;0.3716267;-0.2931846;3.45155;0.8540092;-0.5701615;3.236738;-0.02628988;-1.208073;2.442696;0.3707723;-0.3213264;1.288603;0.2204061;0;0;0;-1.208073;2.442696;0.3707723;-0.3213264;1.288603;0.2204061;0;0;0
108227.7168;NotLabelled;16384;0.7167333;0.006925208;-0.4930748;0.4930748;0;2;0;2874;-2072;2149;65536;0.3240997;-0.3282548;0.8870648;0.01800554;-2;-1;0;2329;958;-3285;8192;0.1149584;-0.3850415;-0.766251;-0.501385;1;-1;0;1974;3533;775;32768;0.7194421;-0.1218837;-0.03601108;-0.6828254;0;0;2;3971;889;-166;256;-0.1315789;0.01246537;-0.6301939;-0.765106;0;0;2;811;3952;-643;128;0.4958449;-0.4182825;0.4653739;0.6021667;1;0;0;-881;4067;306;4;0.682508;-0.6495845;-0.2908587;0.166205;0;0;0;2513;3230;460;16;-0.4265928;0.2216066;0.6264477;0.6135734;0;8;0;1113;3980;-602;2;-0.0734072;-0.05540166;-0.6481994;-0.7558965;-1;0;1;839;3990;-673;8;-0.3379501;0.6149584;0.2617728;0.6626393;0;6;0;495;3131;2633;-0.8896777;2.488066;0.3703591;-0.8837893;3.024698;0.2723154;-0.8786174;3.496034;0.1841453;-0.7444801;4.206067;0.3119079;-0.9378277;4.576195;0.3311397;-1.300874;4.493068;0.3689046;-0.7527718;4.952326;-0.2201582;-1.136061;4.720417;0.6147704;-0.4265271;4.479605;0.3311393;-0.1703017;4.279489;0.3689045;-0.2875378;3.453686;0.8511704;-0.5668065;3.240854;-0.0288862;-1.201939;2.445352;0.3710065;-0.3174955;1.289436;0.2210814;0;0;0;-1.201939;2.445352;0.3710065;-0.3174955;1.289436;0.2210814;0;0;0
108248.3068;NotLabelled;16384;0.7167333;0.006925208;-0.4930748;0.4930748;-1;2;1;2844;-2056;2141;65536;0.3240997;-0.3282548;0.8870648;0.01800554;-2;-1;0;2375;1006;-3285;8192;0.1149584;-0.3850415;-0.765343;-0.5027701;1;-1;-1;1972;3577;715;32768;0.7194421;-0.1218837;-0.03601108;-0.6828254;0;0;2;3993;909;-176;256;-0.1315789;0.01108033;-0.6301939;-0.7651274;0;0;2;789;3936;-629;128;0.4944598;-0.4168975;0.466759;0.6031932;0;-1;-1;-895;4101;340;4;0.6821692;-0.6495845;-0.2908587;0.16759;0;0;0;2451;3202;448;16;-0.4265928;0.2202216;0.6255775;0.6149584;0;3;0;1155;3934;-592;2;-0.0734072;-0.05540166;-0.6495845;-0.7547066;-1;1;1;803;4038;-577;8;-0.3379501;0.6149584;0.2631579;0.6620905;0;2;0;589;3179;2521;-0.8923759;2.485547;0.3728299;-0.8864874;3.022195;0.2748702;-0.8813154;3.493545;0.1867738;-0.745914;4.20333;0.31458;-0.9386017;4.573801;0.3338316;-1.301796;4.491318;0.3715877;-0.75275;4.950577;-0.2165952;-1.137817;4.718668;0.6175145;-0.4274742;4.476299;0.333831;-0.1716063;4.275724;0.3715872;-0.291321;3.448765;0.8512558;-0.5687135;3.235935;-0.02939394;-1.204638;2.442833;0.3734701;-0.3175726;1.288741;0.2249933;0;0;0;-1.204638;2.442833;0.3734701;-0.3175726;1.288741;0.2249933;0;0;0
108269.1336;NotLabelled;16384;0.7167333;0.006925208;-0.4930748;0.4930748;-1;1;2;2824;-2028;2069;65536;0.3240997;-0.3282548;0.8870356;0.01939058;-3;-1;0;2321;1032;-3255;8192;0.1149584;-0.3850415;-0.765343;-0.5027701;0;0;-1;1908;3515;731;32768;0.7196754;-0.1204986;-0.03601108;-0.6828254;0;0;2;3959;895;-176;256;-0.1315789;0.01108033;-0.6301939;-0.7651274;0;1;3;827;3952;-659;128;0.4944598;-0.4168975;0.4653739;0.6042624;0;0;-1;-867;4101;306;4;0.682508;-0.6495845;-0.2908587;0.166205;0;2;0;2455;3156;472;16;-0.4265928;0.2188366;0.6260633;0.6149584;0;5;0;915;3934;-580;2;-0.0734072;-0.05540166;-0.6495845;-0.7547066;-1;1;0;735;4068;-639;8;-0.3379501;0.6135734;0.2631579;0.6633742;0;4;0;515;3171;2503;-0.8928738;2.486585;0.3730485;-0.8869824;3.023495;0.276531;-0.881808;3.495079;0.1897013;-0.7464066;4.204864;0.3175075;-0.9390943;4.575335;0.3367592;-1.302289;4.492853;0.3745153;-0.7535104;4.952111;-0.2139173;-1.137731;4.717875;0.6199324;-0.4279668;4.477834;0.3367586;-0.172099;4.277259;0.3745145;-0.2915952;3.4503;0.8542374;-0.5673297;3.239304;-0.02737382;-1.205135;2.44387;0.3735647;-0.3203742;1.287954;0.225524;0;0;0;-1.205135;2.44387;0.3735647;-0.3203742;1.287954;0.225524;0;0;0
108289.1394;NotLabelled;16384;0.7176694;0.008310249;-0.4930748;0.4916897;-1;2;1;2784;-1998;2109;65536;0.3240997;-0.3268698;0.8875469;0.01939058;-2;-1;0;2289;1018;-3223;8192;0.1149584;-0.3850415;-0.765343;-0.5027701;1;0;-1;1928;3533;743;32768;0.7196754;-0.1204986;-0.03601108;-0.6828254;1;0;3;3935;815;-152;256;-0.132964;0.01108033;-0.6301939;-0.7648879;0;1;2;793;3950;-657;128;0.4958449;-0.4168975;0.4653739;0.6031263;-1;2;-1;-875;4023;298;4;0.682508;-0.6495845;-0.2908587;0.166205;0;1;0;2455;3232;474;16;-0.4252077;0.2188366;0.6270049;0.6149584;0;3;0;1049;3924;-608;2;-0.0734072;-0.05540166;-0.6495845;-0.7547066;-2;1;0;721;4006;-661;8;-0.3365651;0.6135734;0.2645429;0.6635275;0;6;1;577;3165;2581;-0.891532;2.487327;0.3718283;-0.8856435;3.023963;0.2738049;-0.8804716;3.495302;0.1856526;-0.7435682;4.204888;0.3129625;-0.9354776;4.575775;0.331989;-1.298839;4.494079;0.3698475;-0.7509585;4.953923;-0.2189631;-1.133969;4.72052;0.6156758;-0.4245551;4.477203;0.3319885;-0.169103;4.276119;0.3698469;-0.2881737;3.44916;0.8496755;-0.5655653;3.238164;-0.03141588;-1.203794;2.444613;0.3724739;-0.3193123;1.288697;0.2227699;0;0;0;-1.203794;2.444613;0.3724739;-0.3193123;1.288697;0.2227699;0;0;0
108309.214;NotLabelled;16384;0.7176694;0.008310249;-0.4930748;0.4916897;0;1;2;2768;-2084;2013;65536;0.3240997;-0.3282548;0.8870042;0.02077562;-2;0;0;2287;1062;-3239;8192;0.1149584;-0.3850415;-0.765343;-0.5027701;1;0;-1;2012;3519;769;32768;0.7197434;-0.1204986;-0.03462604;-0.6828254;1;0;2;3885;923;-158;256;-0.134349;0.01108033;-0.6301939;-0.7646458;0;2;2;777;3882;-631;128;0.4958449;-0.4168975;0.4653739;0.6031263;0;0;-1;-907;4021;346;4;0.682508;-0.6495845;-0.2908587;0.166205;2;1;0;2485;3130;474;16;-0.4252077;0.2188366;0.6270049;0.6149584;0;0;0;1061;3886;-540;2;-0.0734072;-0.05540166;-0.6495845;-0.7547066;-1;2;0;737;3922;-713;8;-0.3365651;0.6135734;0.2645429;0.6635275;0;3;0;637;3087;2597;-0.8908285;2.487326;0.3740945;-0.8849401;3.023963;0.276071;-0.8797683;3.495302;0.1879186;-0.7413637;4.204686;0.3147266;-0.932494;4.575987;0.3335254;-1.296021;4.495077;0.3714872;-0.7474971;4.953374;-0.2200038;-1.129304;4.716811;0.6142972;-0.4227576;4.476347;0.3321213;-0.1677934;4.274755;0.3705634;-0.2891901;3.448373;0.8508043;-0.5684676;3.239154;-0.03011495;-1.203794;2.444613;0.3724739;-0.3193123;1.288697;0.2227699;0;0;0;-1.203794;2.444613;0.3724739;-0.3193123;1.288697;0.2227699;0;0;0
108329.1372;NotLabelled;16384;0.7176694;0.008310249;-0.4930748;0.4916897;0;1;2;2792;-2012;2045;65536;0.3240997;-0.3282548;0.8870042;0.02077562;-2;0;-1;2305;986;-3193;8192;0.1149584;-0.3850415;-0.765343;-0.5027701;2;0;-1;1928;3459;759;32768;0.7199739;-0.1191136;-0.03462604;-0.6828254;2;0;2;3931;943;-154;256;-0.134349;0.01108033;-0.6301939;-0.7646458;0;1;2;793;3924;-671;128;0.4958449;-0.4168975;0.4653739;0.6031263;0;0;-1;-891;4021;320;4;0.682508;-0.6495845;-0.2908587;0.166205;2;0;0;2533;3148;394;16;-0.4252077;0.2188366;0.6270049;0.6149584;0;2;0;987;3834;-550;2;-0.0734072;-0.05540166;-0.6495845;-0.7547066;0;1;0;701;3878;-639;8;-0.3365651;0.6135734;0.2645429;0.6635275;0;0;0;595;3085;2615;-0.8908285;2.487326;0.3740945;-0.8849401;3.023963;0.276071;-0.8797683;3.495302;0.1879186;-0.7413637;4.204686;0.3147266;-0.932494;4.575987;0.3335254;-1.296021;4.495077;0.3714872;-0.7495506;4.954922;-0.2186325;-1.129786;4.71836;0.6163861;-0.421779;4.476347;0.3335252;-0.166743;4.274754;0.3714869;-0.2846651;3.447795;0.8515995;-0.563946;3.240413;-0.02975327;-1.20309;2.444612;0.3747402;-0.3188921;1.288697;0.2233709;0;0;0;-1.20309;2.444612;0.3747402;-0.3188921;1.288697;0.2233709;0;0;0
108350.1448;NotLabelled;16384;0.7176521;0.009695291;-0.4930748;0.4916897;0;0;3;2804;-2022;2089;65536;0.3254848;-0.3282548;0.886497;0.02077562;-2;0;-1;2275;1058;-3147;8192;0.1149584;-0.3850415;-0.7644313;-0.5041551;1;0;-1;1938;3451;773;32768;0.7199739;-0.1191136;-0.03462604;-0.6828254;1;0;1;3903;893;-154;256;-0.134349;0.01108033;-0.6301939;-0.7646458;1;1;2;773;3882;-607;128;0.4958449;-0.4168975;0.4653739;0.6031263;0;0;-2;-859;3955;294;4;0.682508;-0.6495845;-0.2908587;0.166205;0;2;0;2495;3218;446;16;-0.4238227;0.2174515;0.6270645;0.6163435;0;0;0;1263;3828;-532;2;-0.07479224;-0.05540166;-0.6495845;-0.7545706;0;1;0;805;3986;-599;8;-0.3365651;0.6135734;0.2645429;0.6635275;0;2;0;571;3061;2531;-0.8897845;2.487367;0.3753447;-0.8838961;3.024004;0.2773212;-0.8787242;3.495343;0.1891688;-0.7403197;4.204727;0.3159768;-0.9314501;4.576027;0.3347756;-1.294977;4.495118;0.3727374;-0.7497518;4.956805;-0.2170959;-1.132289;4.7194;0.6166312;-0.420735;4.476388;0.3347753;-0.165699;4.274795;0.3727371;-0.2853379;3.446688;0.8504406;-0.5646186;3.239306;-0.03091216;-1.202046;2.444653;0.3759904;-0.3178481;1.288738;0.224621;0;0;0;-1.202046;2.444653;0.3759904;-0.3178481;1.288738;0.224621;0;0;0
108370.1494;NotLabelled;16384;0.7166985;0.009695291;-0.4944598;0.4916897;0;0;3;2734;-2052;2001;65536;0.3240997;-0.3282548;0.8870042;0.02077562;-1;0;-1;2267;1002;-3165;8192;0.1149584;-0.3850415;-0.7644313;-0.5041551;1;1;-1;1890;3471;719;32768;0.7202017;-0.1177285;-0.03462604;-0.6828254;1;0;2;3885;857;-156;256;-0.1357341;0.01108033;-0.6301939;-0.7644012;1;1;2;729;3932;-617;128;0.4958449;-0.4168975;0.4653739;0.6031263;-2;0;-1;-887;4005;332;4;0.682508;-0.6495845;-0.2908587;0.166205;0;2;0;2469;3258;426;16;-0.4252077;0.2174515;0.6261261;0.6163435;0;-1;-1;1063;3892;-580;2;-0.07479224;-0.05540166;-0.6495845;-0.7545706;-1;2;0;847;3988;-523;8;-0.3365651;0.6135734;0.2645429;0.6635275;0;2;0;501;3049;2581;-0.889707;2.486621;0.3809607;-0.8838186;3.023257;0.2829372;-0.8786467;3.494596;0.1947848;-0.7387421;4.203777;0.3210853;-0.9290934;4.575489;0.3396539;-1.292783;4.495365;0.3777201;-0.7472354;4.958297;-0.2108378;-1.125895;4.721735;0.6248963;-0.4185877;4.474782;0.3396537;-0.1639685;4.272683;0.3777204;-0.282706;3.444576;0.8556486;-0.561994;3.239032;-0.02613229;-1.201969;2.443907;0.3816063;-0.3180579;1.287991;0.2285697;0;0;0;-1.201969;2.443907;0.3816063;-0.3180579;1.287991;0.2285697;0;0;0
108391.1447;NotLabelled;16384;0.7166985;0.009695291;-0.4944598;0.4916897;0;0;3;2730;-2036;2031;65536;0.3254848;-0.3282548;0.8864634;0.02216066;0;0;-2;2257;1026;-3193;8192;0.1149584;-0.3850415;-0.763516;-0.5055401;1;1;-2;1942;3465;697;32768;0.7202017;-0.1177285;-0.03462604;-0.6828254;1;-1;2;3915;865;-128;256;-0.1357341;0.01108033;-0.6301939;-0.7644012;1;1;2;783;3930;-633;128;0.4958449;-0.4168975;0.4639889;0.6041926;-1;2;-1;-879;3983;242;4;0.6819161;-0.6495845;-0.2922437;0.166205;0;2;0;2461;3228;438;16;-0.4252077;0.2188366;0.6256434;0.6163435;0;0;-1;975;3894;-562;2;-0.07479224;-0.05540166;-0.6495845;-0.7545706;-1;3;0;787;4002;-555;8;-0.3365651;0.6135734;0.2645429;0.6635275;0;3;0;471;3129;2771;-0.8895791;2.485608;0.378652;-0.8836879;3.022505;0.2820673;-0.8785135;3.494079;0.1951787;-0.7386088;4.20326;0.3214791;-0.9289598;4.574971;0.3400478;-1.29265;4.494847;0.3781143;-0.7473954;4.95778;-0.2107157;-1.127516;4.71805;0.6234518;-0.4184544;4.474264;0.3400475;-0.1638352;4.272165;0.378114;-0.2840589;3.442919;0.8536894;-0.563347;3.237375;-0.02809125;-1.201841;2.442893;0.3791741;-0.3152591;1.288776;0.2280236;0;0;0;-1.201841;2.442893;0.3791741;-0.3152591;1.288776;0.2280236;0;0;0
108411.3518;NotLabelled;16384;0.7166784;0.01108033;-0.4944598;0.4916897;1;-1;2;2812;-2002;2087;65536;0.3254848;-0.3282548;0.8864634;0.02216066;0;0;-1;2309;1044;-3191;8192;0.1149584;-0.3850415;-0.763516;-0.5055401;1;0;-2;1914;3513;717;32768;0.7215123;-0.1177285;-0.03462604;-0.6814404;1;-1;2;3931;919;-130;256;-0.1371191;0.01108033;-0.6301939;-0.7641539;1;2;1;767;3936;-599;128;0.4958449;-0.4168975;0.4639889;0.6041926;-1;0;0;-819;3983;270;4;0.6835682;-0.6481994;-0.2922437;0.1648199;0;1;1;2401;3158;344;16;-0.4238227;0.2188366;0.6265825;0.6163435;0;0;-1;945;3956;-644;2;-0.07479224;-0.05401662;-0.6495845;-0.754671;0;2;0;753;3980;-599;8;-0.3365651;0.6135734;0.2645429;0.6635275;0;0;0;519;3151;2705;-0.8853657;2.487905;0.3823673;-0.8794745;3.024802;0.2857827;-0.8742999;3.496376;0.1988941;-0.7328961;4.20535;0.3246812;-0.9224675;4.577472;0.3430173;-1.286319;4.498135;0.3811896;-0.7431297;4.962906;-0.2081;-1.121672;4.723176;0.6267843;-0.4121735;4.475698;0.3430166;-0.157972;4.273094;0.3811889;-0.2775339;3.443848;0.8569313;-0.5581;3.238102;-0.02439702;-1.197627;2.445189;0.3828895;-0.3142028;1.289518;0.2252685;0;0;0;-1.197627;2.445189;0.3828895;-0.3142028;1.289518;0.2252685;0;0;0
108432.3876;NotLabelled;16384;0.7157208;0.01108033;-0.4958449;0.4916897;1;-1;1;2826;-2058;2129;65536;0.3254848;-0.3282548;0.8864634;0.02216066;0;0;-1;2293;1086;-3243;8192;0.1163435;-0.3850415;-0.7633062;-0.5055401;1;0;-1;1982;3479;739;32768;0.7215123;-0.1177285;-0.03462604;-0.6814404;0;0;1;3973;849;-112;256;-0.1371191;0.01108033;-0.6301939;-0.7641539;0;1;2;769;3940;-601;128;0.4958449;-0.4168975;0.4639889;0.6041926;0;0;0;-883;4081;266;4;0.6822522;-0.6495845;-0.2922437;0.1648199;1;0;0;2373;3146;352;16;-0.4238227;0.2188366;0.6265825;0.6163435;0;-1;0;1011;3846;-542;2;-0.07617728;-0.05401662;-0.6495845;-0.7545325;0;0;0;661;4032;-609;8;-0.3365651;0.6135734;0.2645429;0.6635275;0;-1;-1;475;3163;2525;-0.8859347;2.488174;0.3771182;-0.8800435;3.025071;0.2805336;-0.874869;3.496644;0.193645;-0.7334652;4.205619;0.3194321;-0.9230367;4.577741;0.3377682;-1.286888;4.498404;0.3759404;-0.7422656;4.964417;-0.2110404;-1.120809;4.724688;0.6238436;-0.4127426;4.475967;0.3377675;-0.1585411;4.273362;0.3759398;-0.2762718;3.443291;0.8506989;-0.5568379;3.237547;-0.03062932;-1.198196;2.445458;0.3776403;-0.3142028;1.289518;0.2252685;0;0;0;-1.198196;2.445458;0.3776403;-0.3142028;1.289518;0.2252685;0;0;0
108452.4148;NotLabelled;16384;0.7157409;0.009695291;-0.4958449;0.4916897;2;0;1;2856;-2098;2167;65536;0.3268698;-0.3282548;0.8859536;0.02216066;0;0;-2;2319;1030;-3291;8192;0.1163435;-0.3850415;-0.7633062;-0.5055401;0;0;-1;1990;3569;775;32768;0.7202669;-0.1177285;-0.033241;-0.6828254;0;0;2;4033;951;-176;256;-0.1371191;0.01108033;-0.6301939;-0.7641539;0;0;1;825;3968;-581;128;0.4958449;-0.4168975;0.4639889;0.6041926;0;0;0;-891;4079;276;4;0.6822522;-0.6495845;-0.2922437;0.1648199;1;-2;0;2437;3188;332;16;-0.4238227;0.2188366;0.6265825;0.6163435;-1;-1;0;983;3898;-474;2;-0.07617728;-0.05401662;-0.6495845;-0.7545325;0;0;0;817;3980;-529;8;-0.3365651;0.6135734;0.2645429;0.6635275;0;1;0;485;3177;2595;-0.8859347;2.488174;0.3771182;-0.8800435;3.025071;0.2805336;-0.874869;3.496644;0.193645;-0.7334652;4.205619;0.3194321;-0.9230367;4.577741;0.3377682;-1.286888;4.498404;0.3759404;-0.7410201;4.962581;-0.2113393;-1.121868;4.722011;0.6222548;-0.4127426;4.475967;0.3377675;-0.1585411;4.273362;0.3759398;-0.2762718;3.443291;0.8506989;-0.5591106;3.239526;-0.03036249;-1.198196;2.445458;0.3776403;-0.3142028;1.289518;0.2252685;0;0;0;-1.198196;2.445458;0.3776403;-0.3142028;1.289518;0.2252685;0;0;0
108473.2319;NotLabelled;16384;0.7157409;0.009695291;-0.4958449;0.4916897;2;0;1;2824;-2074;2189;65536;0.3268698;-0.3282548;0.8859536;0.02216066;0;-1;-2;2323;1054;-3299;8192;0.1163435;-0.3850415;-0.7633062;-0.5055401;0;0;-1;1958;3635;763;32768;0.7204919;-0.1163435;-0.033241;-0.6828254;1;0;0;4067;855;-160;256;-0.1371191;0.01108033;-0.6301939;-0.7641539;0;0;1;833;3952;-629;128;0.4958449;-0.4168975;0.4639889;0.6041926;0;0;0;-869;4085;262;4;0.6822522;-0.6495845;-0.2922437;0.1648199;0;0;0;2529;3286;420;16;-0.4238227;0.2188366;0.6265825;0.6163435;0;-3;-1;1111;3950;-530;2;-0.07617728;-0.05401662;-0.6495845;-0.7545325;0;1;0;817;4046;-467;8;-0.3365651;0.6135734;0.2645429;0.6635275;0;2;0;479;3149;2637;-0.8859347;2.488174;0.3771182;-0.8800435;3.025071;0.2805336;-0.874869;3.496644;0.193645;-0.7334652;4.205619;0.3194321;-0.9230367;4.577741;0.3377682;-1.286888;4.498404;0.3759404;-0.7410201;4.962581;-0.2113393;-1.121868;4.722011;0.6222548;-0.4127426;4.475967;0.3377675;-0.1585411;4.273362;0.3759398;-0.2762718;3.443291;0.8506989;-0.5574576;3.241367;-0.03131509;-1.198196;2.445458;0.3776403;-0.3142028;1.289518;0.2252685;0;0;0;-1.198196;2.445458;0.3776403;-0.3142028;1.289518;0.2252685;0;0;0
108494.4338;NotLabelled;16384;0.7157208;0.01108033;-0.4958449;0.4916897;2;0;2;2802;-2060;2159;65536;0.3268698;-0.3268698;0.8864655;0.02216066;0;0;-2;2229;1050;-3291;8192;0.1163435;-0.3850415;-0.7633062;-0.5055401;0;0;-1;1954;3605;773;32768;0.7204919;-0.1163435;-0.033241;-0.6828254;1;0;0;4001;851;-168;256;-0.1371191;0.009695291;-0.6301939;-0.7641727;0;0;1;785;3986;-673;128;0.4958449;-0.4168975;0.4639889;0.6041926;1;1;0;-891;4065;412;4;0.6822522;-0.6495845;-0.2922437;0.1648199;0;2;1;2561;3292;456;16;-0.4252077;0.2202216;0.6251572;0.6163435;0;-7;-1;1079;3988;-510;2;-0.07617728;-0.05401662;-0.6509695;-0.7533379;-1;2;0;847;4068;-585;8;-0.33518;0.6135734;0.2645429;0.6642282;1;1;0;511;3163;2689;-0.8845662;2.48821;0.3773686;-0.878675;3.025107;0.280784;-0.8735005;3.496681;0.1938954;-0.7308326;4.205394;0.3197276;-0.9197394;4.577853;0.3380839;-1.283732;4.499163;0.376247;-0.7378612;4.965178;-0.209573;-1.120851;4.725443;0.6232797;-0.409628;4.475168;0.3380835;-0.1557891;4.272108;0.3762465;-0.2745303;3.442037;0.850754;-0.5538371;3.240112;-0.03185676;-1.196828;2.445495;0.3778906;-0.3125117;1.289554;0.2274015;0;0;0;-1.196828;2.445495;0.3778906;-0.3125117;1.289554;0.2274015;0;0;0
108515.2835;NotLabelled;16384;0.7157101;0.01108033;-0.4972299;0.4903047;0;0;2;2784;-2012;2155;65536;0.3282548;-0.3268698;0.8859536;0.02216066;0;0;-1;2219;1092;-3289;8192;0.1163435;-0.3850415;-0.7633062;-0.5055401;0;0;-1;2008;3593;723;32768;0.7204919;-0.1163435;-0.033241;-0.6828254;1;0;0;4037;903;-168;256;-0.1371191;0.009695291;-0.6301939;-0.7641727;0;2;1;807;3990;-651;128;0.4958449;-0.4168975;0.4639889;0.6041926;0;1;0;-859;4093;376;4;0.6816572;-0.6495845;-0.2936288;0.1648199;0;1;0;2485;3214;398;16;-0.4252077;0.2216066;0.6260312;0.6149584;0;-7;0;1073;3868;-458;2;-0.07617728;-0.05401662;-0.6509695;-0.7533379;0;0;1;837;3992;-547;8;-0.33518;0.6149584;0.265928;0.6623917;1;0;0;489;3135;2625;-0.8876494;2.487113;0.370872;-0.8817581;3.02401;0.2742874;-0.8765836;3.495583;0.1873989;-0.7339157;4.204296;0.3132311;-0.9228225;4.576756;0.3315874;-1.286815;4.498065;0.3697504;-0.7386367;4.964063;-0.2139233;-1.123927;4.723494;0.6176262;-0.4127111;4.47407;0.3315869;-0.1588722;4.27101;0.36975;-0.2776134;3.440939;0.8442573;-0.5569201;3.239015;-0.03835329;-1.199911;2.444397;0.371394;-0.3129279;1.290257;0.2228042;0;0;0;-1.199911;2.444397;0.371394;-0.3129279;1.290257;0.2228042;0;0;0
108557.6528;NotLabelled;16384;0.7157101;0.01108033;-0.4972299;0.4903047;0;0;1;2806;-2028;2119;65536;0.3282548;-0.3268698;0.8859536;0.02216066;0;1;0;2225;1056;-3257;8192;0.1163435;-0.3850415;-0.7623871;-0.5069252;0;1;0;1942;3565;791;32768;0.7204919;-0.1163435;-0.033241;-0.6828254;2;0;0;4019;845;-196;256;-0.1385041;0.01108033;-0.6288089;-0.7650446;0;3;0;817;3952;-683;128;0.4958449;-0.4168975;0.4626039;0.6052536;-1;1;0;-893;3991;322;4;0.6816572;-0.6495845;-0.2936288;0.1648199;0;1;0;2475;3160;364;16;-0.4252077;0.2216066;0.6260312;0.6149584;0;-6;0;1045;3880;-538;2;-0.07617728;-0.05401662;-0.6509695;-0.7533379;0;2;1;759;4000;-575;8;-0.3365651;0.6149584;0.265928;0.6616891;0;0;-1;483;3163;2431;-0.8862814;2.487114;0.3753875;-0.8803873;3.024268;0.2802399;-0.8752105;3.496072;0.1946137;-0.732149;4.204338;0.3225017;-0.9208219;4.576868;0.3417905;-1.284887;4.498312;0.3795295;-0.7388506;4.96431;-0.206148;-1.121093;4.723739;0.6268069;-0.4107782;4.473848;0.3417902;-0.1570939;4.270516;0.3795294;-0.2758324;3.439314;0.8520552;-0.5583702;3.23739;-0.02952632;-1.198543;2.444397;0.375786;-0.31211;1.290257;0.2239488;0;0;0;-1.198543;2.444397;0.375786;-0.31211;1.290257;0.2239488;0;0;0
108578.1342;NotLabelled;16384;0.7157101;0.01108033;-0.4972299;0.4903047;0;-1;0;2718;-2066;2131;65536;0.3282548;-0.3268698;0.8859536;0.02216066;0;1;0;2265;1058;-3239;8192;0.1149584;-0.3836565;-0.7632949;-0.5069252;1;1;0;2002;3589;793;32768;0.7204267;-0.1163435;-0.03462604;-0.6828254;3;0;0;3963;959;-156;256;-0.1385041;0.01108033;-0.6288089;-0.7650446;0;2;0;799;3892;-641;128;0.4958449;-0.4182825;0.4626039;0.6042973;-1;1;0;-891;3975;354;4;0.6816572;-0.6495845;-0.2936288;0.1648199;0;0;0;2465;3146;352;16;-0.4265928;0.2216066;0.6250882;0.6149584;-1;-8;0;1075;3848;-452;2;-0.07756232;-0.05401662;-0.6509695;-0.7531965;0;2;0;715;3982;-537;8;-0.3365651;0.6149584;0.265928;0.6616891;0;0;0;453;3129;2489;-0.8868889;2.486379;0.3787444;-0.8809948;3.023529;0.2835749;-0.8758178;3.49533;0.1979292;-0.7327564;4.203596;0.325817;-0.9214293;4.576126;0.3451056;-1.285495;4.497569;0.3828448;-0.7394531;4.963567;-0.2028291;-1.121695;4.722997;0.6301259;-0.4113854;4.473106;0.3451052;-0.1577011;4.269774;0.3828445;-0.2767899;3.439013;0.8560559;-0.5574426;3.23531;-0.02571875;-1.19915;2.443663;0.3791449;-0.3127178;1.289521;0.2273078;0;0;0;-1.19915;2.443663;0.3791449;-0.3127178;1.289521;0.2273078;0;0;0
108598.2824;NotLabelled;16384;0.7157101;0.01108033;-0.4972299;0.4903047;0;-1;1;2802;-2046;2135;65536;0.3282548;-0.3268698;0.8859536;0.02216066;0;1;0;2263;1062;-3251;8192;0.1149584;-0.3836565;-0.7632949;-0.5069252;1;1;1;1962;3593;809;32768;0.720649;-0.1149584;-0.03462604;-0.6828254;2;1;-1;3965;919;-136;256;-0.1385041;0.01108033;-0.6288089;-0.7650446;1;0;0;775;3904;-647;128;0.4958449;-0.4182825;0.4626039;0.6042973;-1;2;0;-871;4005;310;4;0.6816572;-0.6495845;-0.2936288;0.1648199;-1;2;1;2435;3224;422;16;-0.4265928;0.2229917;0.6259561;0.6135734;0;0;-2;837;4076;-754;2;-0.07756232;-0.05401662;-0.6509695;-0.7531965;-2;1;0;695;3978;-527;8;-0.33518;0.6135734;0.265928;0.6636749;0;3;0;443;3163;2577;-0.8873263;2.487072;0.3741616;-0.8814322;3.024222;0.2789921;-0.8762552;3.496023;0.1933465;-0.7331937;4.204289;0.3212346;-0.9218666;4.576819;0.3405234;-1.285932;4.498262;0.3782624;-0.7398946;4.964261;-0.2074147;-1.122136;4.723691;0.6255402;-0.4118227;4.473799;0.340523;-0.1581385;4.270467;0.3782621;-0.2772239;3.439705;0.8514732;-0.5562225;3.237845;-0.0312494;-1.199588;2.444356;0.3745621;-0.3131552;1.290215;0.2227245;0;0;0;-1.199588;2.444356;0.3745621;-0.3131552;1.290215;0.2227245;0;0;0
108619.1756;NotLabelled;16384;0.7147593;0.01108033;-0.4972299;0.4916897;0;-2;0;2748;-2014;2083;65536;0.3282548;-0.3268698;0.8859536;0.02216066;0;2;0;2271;1122;-3231;8192;0.1149584;-0.3836565;-0.7632949;-0.5069252;0;3;1;1984;3537;797;32768;0.7205811;-0.1149584;-0.03601108;-0.6828254;2;0;0;3971;933;-132;256;-0.1385041;0.01108033;-0.6288089;-0.7650446;1;0;-1;751;3930;-645;128;0.4958449;-0.4182825;0.4626039;0.6042973;-1;1;0;-881;4041;322;4;0.6816572;-0.6495845;-0.2936288;0.1648199;0;0;2;2463;3180;348;16;-0.4265928;0.2243767;0.6254609;0.6135734;0;-4;-1;929;3892;-750;2;-0.07756232;-0.05263158;-0.6509695;-0.7532945;-1;0;0;567;4030;-641;8;-0.33518;0.6135734;0.265928;0.6636749;0;0;0;485;3227;2531;-0.8845243;2.487845;0.3736045;-0.8786302;3.024995;0.278435;-0.8734532;3.496796;0.1927894;-0.7303917;4.205062;0.3206775;-0.9190646;4.577592;0.3399664;-1.28313;4.499035;0.3777053;-0.737979;4.966291;-0.2077952;-1.120221;4.725721;0.6251599;-0.4090208;4.474572;0.3399659;-0.1553366;4.27124;0.3777051;-0.2744216;3.440478;0.8509166;-0.5515336;3.236841;-0.03199202;-1.196786;2.445129;0.374005;-0.3103532;1.290988;0.2221674;0;0;0;-1.196786;2.445129;0.374005;-0.3103532;1.290988;0.2221674;0;0;0
108640.2043;NotLabelled;16384;0.7147794;0.009695291;-0.4972299;0.4916897;0;-2;0;2768;-2050;2043;65536;0.3282548;-0.3282548;0.8854414;0.02216066;1;0;0;2323;1082;-3221;8192;0.1135734;-0.3836565;-0.7635022;-0.5069252;0;2;0;1914;3513;761;32768;0.7205811;-0.1149584;-0.03601108;-0.6828254;1;0;0;4035;955;-146;256;-0.1385041;0.01246537;-0.6288089;-0.7650233;1;1;-1;793;3984;-589;128;0.4958449;-0.4182825;0.4626039;0.6042973;0;0;0;-891;4123;242;4;0.6816572;-0.6495845;-0.2936288;0.1648199;1;-2;0;2437;3206;300;16;-0.4265928;0.2243767;0.6254609;0.6135734;-1;-3;-1;975;3878;-664;2;-0.07756232;-0.05263158;-0.6509695;-0.7532945;0;0;0;615;4028;-595;8;-0.33518;0.6135734;0.265928;0.6636749;-1;-1;0;483;3157;2603;-0.8845243;2.487845;0.3736045;-0.8786302;3.024995;0.278435;-0.8734532;3.496796;0.1927894;-0.7319259;4.205324;0.3209338;-0.9213032;4.577518;0.339798;-1.285307;4.498315;0.3767704;-0.7385012;4.964673;-0.2079018;-1.120373;4.723263;0.6249796;-0.4110776;4.475408;0.3408855;-0.1571118;4.272531;0.3791758;-0.2775542;3.442407;0.8531636;-0.5546662;3.23877;-0.02974522;-1.196786;2.445129;0.374005;-0.3103532;1.290988;0.2221674;0;0;0;-1.196786;2.445129;0.374005;-0.3103532;1.290988;0.2221674;0;0;0
108681.187;NotLabelled;16384;0.7147794;0.009695291;-0.4972299;0.4916897;1;-1;0;2786;-2056;2099;65536;0.3282548;-0.3268698;0.8859536;0.02216066;2;0;0;2317;1038;-3269;8192;0.1135734;-0.3836565;-0.7635022;-0.5069252;0;2;0;1962;3563;841;32768;0.7205811;-0.1149584;-0.03601108;-0.6828254;1;0;0;3941;957;-150;256;-0.1385041;0.01246537;-0.6288089;-0.7650233;1;0;0;757;3992;-673;128;0.4958449;-0.4182825;0.4626039;0.6042973;0;0;0;-855;4047;314;4;0.6816572;-0.6495845;-0.2936288;0.1648199;2;-2;1;2497;3110;388;16;-0.4265928;0.2243767;0.6254609;0.6135734;0;0;0;957;3912;-522;2;-0.07756232;-0.05263158;-0.6509695;-0.7532945;0;0;0;763;3988;-527;8;-0.33518;0.6135734;0.265928;0.6636749;0;0;0;451;3149;2561;-0.8837246;2.487845;0.3761552;-0.8778306;3.024995;0.2809857;-0.8726535;3.496796;0.19534;-0.7308534;4.205324;0.3231823;-0.9201899;4.577518;0.3424504;-1.284115;4.498315;0.3801989;-0.7389688;4.963737;-0.206766;-1.119434;4.723166;0.6270023;-0.4099632;4.475408;0.3424501;-0.1559163;4.272531;0.3801987;-0.275822;3.442592;0.8546458;-0.5548159;3.238955;-0.02767009;-1.195986;2.445129;0.3765556;-0.3098789;1.290988;0.2228285;0;0;0;-1.195986;2.445129;0.3765556;-0.3098789;1.290988;0.2228285;0;0;0
108702.1282;NotLabelled;16384;0.7138139;0.009695291;-0.4986149;0.4916897;1;-1;0;2772;-1998;2101;65536;0.3282548;-0.3268698;0.8859536;0.02216066;1;0;0;2291;1058;-3271;8192;0.1135734;-0.3836565;-0.7635022;-0.5069252;0;1;0;1926;3561;815;32768;0.7218207;-0.1149584;-0.03739612;-0.6814404;1;-1;-1;3993;925;-200;256;-0.1385041;0.01246537;-0.6288089;-0.7650233;1;0;0;743;4006;-675;128;0.4958449;-0.4182825;0.4626039;0.6042973;0;2;1;-837;4061;298;4;0.6813208;-0.6495845;-0.2936288;0.166205;0;-2;0;2479;3194;374;16;-0.4265928;0.2243767;0.6254609;0.6135734;-1;0;-1;1167;3966;-526;2;-0.07756232;-0.05263158;-0.6509695;-0.7532945;0;0;0;867;4054;-581;8;-0.33518;0.6135734;0.265928;0.6636749;0;1;0;529;3155;2633;-0.8860221;2.486016;0.3766172;-0.8801281;3.023166;0.2814476;-0.8749512;3.494967;0.195802;-0.733151;4.203495;0.3236443;-0.9224876;4.575689;0.3429123;-1.286412;4.496485;0.3806608;-0.7398385;4.963151;-0.2039836;-1.120304;4.722581;0.6297848;-0.4122608;4.473578;0.3429121;-0.1582138;4.270701;0.3806606;-0.2781195;3.440762;0.8551078;-0.5548391;3.23516;-0.02746901;-1.198284;2.443299;0.3770176;-0.3098789;1.290987;0.2228287;0;0;0;-1.198284;2.443299;0.3770176;-0.3098789;1.290987;0.2228287;0;0;0
108722.1567;NotLabelled;16384;0.7138139;0.009695291;-0.4986149;0.4916897;0;-2;0;2822;-2088;2127;65536;0.3282548;-0.3268698;0.8859536;0.02216066;1;1;0;2307;1082;-3319;8192;0.1135734;-0.3822715;-0.7641966;-0.5069252;-1;1;0;1906;3579;841;32768;0.7215987;-0.1163435;-0.03739612;-0.6814404;1;0;-2;3975;1021;-200;256;-0.1385041;0.01246537;-0.6288089;-0.7650233;2;1;-1;761;3934;-711;128;0.4958449;-0.4182825;0.4626039;0.6042973;0;0;0;-889;4041;392;4;0.6813208;-0.6495845;-0.2936288;0.166205;0;1;0;2501;3206;384;16;-0.4252077;0.2243767;0.6264034;0.6135734;-1;0;-1;909;3972;-614;2;-0.07894737;-0.05263158;-0.6509695;-0.7531507;-1;1;0;875;4054;-485;8;-0.33518;0.6135734;0.267313;0.6631182;0;0;0;461;3091;2631;-0.885419;2.486736;0.3732556;-0.879525;3.023886;0.2780861;-0.8743481;3.495687;0.1924405;-0.7325479;4.204215;0.3202828;-0.9218845;4.576409;0.3395508;-1.285809;4.497206;0.3772993;-0.7392356;4.963872;-0.2073451;-1.119701;4.723302;0.6264234;-0.4116577;4.474298;0.3395505;-0.1576108;4.271421;0.3772991;-0.2760389;3.441097;0.8514439;-0.5544075;3.23365;-0.03018166;-1.197681;2.44402;0.373656;-0.3092758;1.291708;0.2194671;0;0;0;-1.197681;2.44402;0.373656;-0.3092758;1.291708;0.2194671;0;0;0
108742.1319;NotLabelled;16384;0.7138139;0.009695291;-0.4986149;0.4916897;0;-3;0;2828;-2038;2201;65536;0.3296399;-0.3282548;0.8849267;0.02216066;0;1;0;2313;1012;-3319;8192;0.1135734;-0.3822715;-0.7651136;-0.5055401;-1;2;0;1964;3523;817;32768;0.7215987;-0.1163435;-0.03739612;-0.6814404;2;0;-2;3957;961;-192;256;-0.1371191;0.01246537;-0.6288089;-0.7652727;2;0;-1;805;3988;-735;128;0.4958449;-0.4196676;0.4626039;0.6033363;-2;-3;1;-835;4037;372;4;0.6810589;-0.6495845;-0.2950138;0.1648199;1;3;0;2417;3154;314;16;-0.4252077;0.2243767;0.6264034;0.6135734;-1;0;0;925;3908;-624;2;-0.07894737;-0.05263158;-0.6509695;-0.7531507;0;2;1;765;3988;-539;8;-0.33518;0.6135734;0.267313;0.6631182;1;1;0;477;3179;2525;-0.8857943;2.486775;0.3707975;-0.8799004;3.023921;0.2756062;-0.8747236;3.495719;0.1899415;-0.7341808;4.204457;0.3180078;-0.9242609;4.576241;0.3378547;-1.287952;4.496252;0.3761865;-0.7433789;4.964448;-0.2091012;-1.125777;4.722232;0.6233048;-0.4138226;4.475198;0.3368946;-0.1592866;4.272826;0.3740639;-0.2734191;3.443083;0.8502714;-0.5517882;3.235599;-0.03134559;-1.198056;2.444059;0.3711998;-0.3092763;1.291717;0.2194151;0;0;0;-1.198056;2.444059;0.3711998;-0.3092763;1.291717;0.2194151;0;0;0
108763.1504;NotLabelled;16384;0.7147968;0.008310249;-0.4972299;0.4916897;0;-2;0;2840;-2030;2151;65536;0.3296399;-0.3282548;0.8849602;0.02077562;0;2;0;2285;1014;-3263;8192;0.1135734;-0.3822715;-0.7651136;-0.5055401;-1;2;1;1962;3453;811;32768;0.7215987;-0.1163435;-0.03739612;-0.6814404;1;0;-2;3981;891;-112;256;-0.1371191;0.01246537;-0.6288089;-0.7652727;1;0;-1;783;3892;-667;128;0.4944598;-0.4196676;0.4626039;0.6044719;-3;-2;0;-879;4067;324;4;0.6810589;-0.6495845;-0.2950138;0.1648199;1;2;0;2347;3100;300;16;-0.4252077;0.2243767;0.6264034;0.6135734;0;0;0;877;3926;-524;2;-0.07894737;-0.05263158;-0.6509695;-0.7531507;0;3;1;727;4048;-557;8;-0.33518;0.6135734;0.267313;0.6631182;0;0;0;453;3183;2559;-0.8864926;2.486761;0.368763;-0.8805956;3.024172;0.275079;-0.8754162;3.496208;0.1907382;-0.7351155;4.204941;0.3190984;-0.9252326;4.576724;0.3386014;-1.288996;4.496734;0.3762431;-0.741807;4.960321;-0.2102718;-1.12662;4.720393;0.6216837;-0.4147934;4.475681;0.3386009;-0.1603282;4.273309;0.3762426;-0.2776768;3.444122;0.8526402;-0.5543809;3.236675;-0.02950945;-1.198754;2.444043;0.3690358;-0.3096895;1.291708;0.218883;0;0;0;-1.198754;2.444043;0.3690358;-0.3096895;1.291708;0.218883;0;0;0
108783.176;NotLabelled;16384;0.7147968;0.008310249;-0.4972299;0.4916897;-1;-2;0;2802;-2010;2087;65536;0.3296399;-0.3282548;0.8849602;0.02077562;0;3;1;2339;1026;-3285;8192;0.1135734;-0.3822715;-0.7651136;-0.5055401;-1;2;1;1950;3513;743;32768;0.7215256;-0.1163435;-0.03878116;-0.6814404;1;0;-2;4051;825;-214;256;-0.1371191;0.01246537;-0.6288089;-0.7652727;2;0;-1;765;3974;-643;128;0.4944598;-0.4196676;0.4626039;0.6044719;-1;0;0;-845;4005;300;4;0.6810589;-0.6495845;-0.2950138;0.1648199;1;0;0;2357;3238;340;16;-0.4252077;0.2243767;0.6264034;0.6135734;0;0;0;973;3884;-506;2;-0.07894737;-0.05263158;-0.6509695;-0.7531507;0;1;0;815;3932;-585;8;-0.33518;0.6135734;0.267313;0.6631182;0;0;0;455;3175;2509;-0.8864926;2.486761;0.368763;-0.8805956;3.024172;0.275079;-0.8754162;3.496208;0.1907382;-0.7351155;4.204941;0.3190984;-0.9252326;4.576724;0.3386014;-1.288996;4.496734;0.3762431;-0.7414993;4.960321;-0.2099847;-1.126313;4.720393;0.6219709;-0.4147934;4.475681;0.3386009;-0.1603282;4.273309;0.3762426;-0.2779268;3.444122;0.8525784;-0.5527394;3.234902;-0.02974375;-1.198754;2.444043;0.3690358;-0.3096895;1.291708;0.218883;0;0;0;-1.198754;2.444043;0.3690358;-0.3096895;1.291708;0.218883;0;0;0
108803.1912;NotLabelled;16384;0.7138422;0.008310249;-0.4972299;0.4930748;0;-3;-1;2786;-1970;2105;65536;0.3282548;-0.3282548;0.885475;0.02077562;0;3;1;2337;1044;-3211;8192;0.1121884;-0.3808864;-0.7660081;-0.5055401;-1;1;1;1926;3539;703;32768;0.7215256;-0.1163435;-0.03878116;-0.6814404;1;0;-2;3957;911;-126;256;-0.1371191;0.01385042;-0.6274238;-0.7663849;2;2;-1;767;3970;-629;128;0.4944598;-0.4196676;0.4626039;0.6044719;0;1;1;-839;4071;354;4;0.6797352;-0.6509695;-0.2950138;0.1648199;0;0;0;2437;3226;430;16;-0.4252077;0.2243767;0.6264034;0.6135734;0;-2;0;1063;3910;-486;2;-0.07894737;-0.05263158;-0.6509695;-0.7531507;0;1;0;745;3964;-555;8;-0.33518;0.6135734;0.267313;0.6631182;0;0;0;445;3101;2539;-0.8870562;2.487;0.3635007;-0.8811594;3.024411;0.2698167;-0.8759798;3.496447;0.1854759;-0.7370123;4.204927;0.3166505;-0.9277095;4.576369;0.3369778;-1.29145;4.49573;0.3734404;-0.7440565;4.963398;-0.2096337;-1.126568;4.724311;0.6236241;-0.4171275;4.476054;0.3378885;-0.1624663;4.273914;0.3754547;-0.280422;3.443343;0.8492826;-0.5552348;3.234122;-0.03303947;-1.199318;2.444282;0.3637736;-0.3096898;1.291708;0.2188831;0;0;0;-1.199318;2.444282;0.3637736;-0.3096898;1.291708;0.2188831;0;0;0
108824.2322;NotLabelled;16384;0.7138422;0.008310249;-0.4972299;0.4930748;0;-2;0;2806;-2078;2079;65536;0.3282548;-0.3296399;0.8849602;0.02077562;0;2;1;2333;1020;-3207;8192;0.1121884;-0.3808864;-0.7660081;-0.5055401;0;1;1;1992;3589;833;32768;0.7214498;-0.1163435;-0.0401662;-0.6814404;2;0;-2;3971;961;-108;256;-0.1371191;0.01385042;-0.6274238;-0.7663849;2;2;-1;765;3944;-653;128;0.4944598;-0.4210526;0.4626039;0.6035079;-1;2;1;-851;4055;320;4;0.6797352;-0.6509695;-0.2950138;0.1648199;-1;2;0;2569;3210;398;16;-0.4279778;0.2271468;0.6235119;0.6135734;-1;-11;0;1187;3868;-440;2;-0.08033241;-0.05124654;-0.6509695;-0.7530997;-1;1;0;749;4022;-403;8;-0.33518;0.6135734;0.267313;0.6631182;0;3;0;435;3047;2689;-0.8819788;2.487104;0.3711387;-0.8760821;3.024511;0.2774324;-0.8709026;3.496543;0.193072;-0.7317011;4.205029;0.3239691;-0.9223617;4.576472;0.3446213;-1.286036;4.495834;0.3817365;-0.7415172;4.96066;-0.2062812;-1.122174;4.720767;0.6275944;-0.4117791;4.476156;0.3446247;-0.1570511;4.274018;0.3817447;-0.2733136;3.445292;0.8592077;-0.5478088;3.234264;-0.02278236;-1.19424;2.444386;0.3714136;-0.3048724;1.291806;0.2249831;0;0;0;-1.19424;2.444386;0.3714136;-0.3048724;1.291806;0.2249831;0;0;0
108844.2679;NotLabelled;16384;0.7138422;0.008310249;-0.4972299;0.4930748;0;-2;0;2836;-2058;2121;65536;0.3282548;-0.3296399;0.8849602;0.02077562;0;2;0;2319;1016;-3237;8192;0.1108033;-0.3808864;-0.7662097;-0.5055401;0;2;2;2004;3507;789;32768;0.7214498;-0.1163435;-0.0401662;-0.6814404;2;0;-4;4017;975;-112;256;-0.1371191;0.01385042;-0.6274238;-0.7663849;1;1;-2;769;3950;-633;128;0.4944598;-0.4210526;0.4626039;0.6035079;-1;2;1;-801;4087;364;4;0.6810589;-0.6495845;-0.2950138;0.1648199;-3;2;0;2603;3262;438;16;-0.4293629;0.2271468;0.6225589;0.6135734;-2;-7;0;945;3952;-558;2;-0.08033241;-0.05124654;-0.6509695;-0.7530997;0;2;1;803;3942;-563;8;-0.33518;0.6135734;0.267313;0.6631182;0;-1;0;475;3149;2501;-0.8819756;2.486123;0.3798762;-0.8760787;3.02353;0.2861699;-0.8708993;3.495562;0.2018095;-0.7316978;4.204042;0.3327359;-0.9223585;4.575484;0.3534034;-1.286033;4.494845;0.390515;-0.740465;4.959695;-0.1965108;-1.121123;4.719768;0.6373549;-0.4117756;4.475169;0.3534031;-0.1570478;4.273029;0.3905149;-0.2760046;3.445105;0.8687055;-0.5504996;3.234113;-0.01329385;-1.194237;2.443405;0.3801509;-0.305442;1.29107;0.228412;0;0;0;-1.194237;2.443405;0.3801509;-0.305442;1.29107;0.228412;0;0;0
