SEP=;
index;label;RightUpperArm_boneIndex;RightUpperArm_quat9x_w;RightUpperArm_quat9x_x;RightUpperArm_quat9x_y;RightUpperArm_quat9x_z;RightUpperArm_gyroscope_x;RightUpperArm_gyroscope_y;RightUpperArm_gyroscope_z;RightUpperArm_accelerometer_x;RightUpperArm_accelerometer_y;RightUpperArm_accelerometer_z;RightLowerArm_boneIndex;RightLowerArm_quat9x_w;RightLowerArm_quat9x_x;RightLowerArm_quat9x_y;RightLowerArm_quat9x_z;RightLowerArm_gyroscope_x;RightLowerArm_gyroscope_y;RightLowerArm_gyroscope_z;RightLowerArm_accelerometer_x;RightLowerArm_accelerometer_y;RightLowerArm_accelerometer_z;LeftUpperArm_boneIndex;LeftUpperArm_quat9x_w;LeftUpperArm_quat9x_x;LeftUpperArm_quat9x_y;LeftUpperArm_quat9x_z;LeftUpperArm_gyroscope_x;LeftUpperArm_gyroscope_y;LeftUpperArm_gyroscope_z;LeftUpperArm_accelerometer_x;LeftUpperArm_accelerometer_y;LeftUpperArm_accelerometer_z;LeftLowerArm_boneIndex;LeftLowerArm_quat9x_w;LeftLowerArm_quat9x_x;LeftLowerArm_quat9x_y;LeftLowerArm_quat9x_z;LeftLowerArm_gyroscope_x;LeftLowerArm_gyroscope_y;LeftLowerArm_gyroscope_z;LeftLowerArm_accelerometer_x;LeftLowerArm_accelerometer_y;LeftLowerArm_accelerometer_z;Chest_boneIndex;Chest_quat9x_w;Chest_quat9x_x;Chest_quat9x_y;Chest_quat9x_z;Chest_gyroscope_x;Chest_gyroscope_y;Chest_gyroscope_z;Chest_accelerometer_x;Chest_accelerometer_y;Chest_accelerometer_z;Spine_boneIndex;Spine_quat9x_w;Spine_quat9x_x;Spine_quat9x_y;Spine_quat9x_z;Spine_gyroscope_x;Spine_gyroscope_y;Spine_gyroscope_z;Spine_accelerometer_x;Spine_accelerometer_y;Spine_accelerometer_z;RightUpperLeg_boneIndex;RightUpperLeg_quat9x_w;RightUpperLeg_quat9x_x;RightUpperLeg_quat9x_y;RightUpperLeg_quat9x_z;RightUpperLeg_gyroscope_x;RightUpperLeg_gyroscope_y;RightUpperLeg_gyroscope_z;RightUpperLeg_accelerometer_x;RightUpperLeg_accelerometer_y;RightUpperLeg_accelerometer_z;RightLowerLeg_boneIndex;RightLowerLeg_quat9x_w;RightLowerLeg_quat9x_x;RightLowerLeg_quat9x_y;RightLowerLeg_quat9x_z;RightLowerLeg_gyroscope_x;RightLowerLeg_gyroscope_y;RightLowerLeg_gyroscope_z;RightLowerLeg_accelerometer_x;RightLowerLeg_accelerometer_y;RightLowerLeg_accelerometer_z;LeftUpperLeg_boneIndex;LeftUpperLeg_quat9x_w;LeftUpperLeg_quat9x_x;LeftUpperLeg_quat9x_y;LeftUpperLeg_quat9x_z;LeftUpperLeg_gyroscope_x;LeftUpperLeg_gyroscope_y;LeftUpperLeg_gyroscope_z;LeftUpperLeg_accelerometer_x;LeftUpperLeg_accelerometer_y;LeftUpperLeg_accelerometer_z;LeftLowerLeg_boneIndex;LeftLowerLeg_quat9x_w;LeftLowerLeg_quat9x_x;LeftLowerLeg_quat9x_y;LeftLowerLeg_quat9x_z;LeftLowerLeg_gyroscope_x;LeftLowerLeg_gyroscope_y;LeftLowerLeg_gyroscope_z;LeftLowerLeg_accelerometer_x;LeftLowerLeg_accelerometer_y;LeftLowerLeg_accelerometer_z;pelvis_x;pelvis_y;pelvis_z;lowerSpine_x;lowerSpine_y;lowerSpine_z;middleSpine_x;middleSpine_y;middleSpine_z;upperSpine_x;upperSpine_y;upperSpine_z;rightClavicle_x;rightClavicle_y;rightClavicle_z;rightShoulder_x;rightShoulder_y;rightShoulder_z;rightElbow_x;rightElbow_y;rightElbow_z;rightWrist_x;rightWrist_y;rightWrist_z;leftClavicle_x;leftClavicle_y;leftClavicle_z;leftShoulder_x;leftShoulder_y;leftShoulder_z;leftElbow_x;leftElbow_y;leftElbow_z;leftWrist_x;leftWrist_y;leftWrist_z;rightHip_x;rightHip_y;rightHip_z;rightKnee_x;rightKnee_y;rightKnee_z;rightAnkle_x;rightAnkle_y;rightAnkle_z;leftHip_x;leftHip_y;leftHip_z;leftKnee_x;leftKnee_y;leftKnee_z;leftAnkle_x;leftAnkle_y;leftAnkle_z;
217489.1612;NotLabelled;16384;0.7337047;0.01108033;-0.4362881;0.5207756;0;0;-1;3074;-1950;1889;65536;0.2077562;-0.3393352;0.9159251;0.05263158;0;0;1;2541;914;-3167;8192;0.0166205;-0.3642659;-0.7737598;-0.5180055;-1;-1;-1;2282;3275;885;32768;-0.6759003;0.1094183;0.1246537;0.7180862;-1;-1;0;3881;1427;236;256;0.5207756;-0.6106871;0.3476454;0.4847645;0;1;-1;279;4038;-937;128;0.6233965;-0.6038781;0.2742382;0.4141274;3;-3;0;-749;4065;316;4;0.6815503;-0.6523545;-0.2783934;0.1800554;0;-2;0;2601;3184;298;16;-0.4459834;0.2451524;0.6228531;0.5941828;0;-1;0;861;3914;-688;2;-0.05955679;-0.02216066;-0.6495845;-0.7576292;0;0;0;611;4018;-659;8;0.3559557;-0.6428294;-0.2437673;-0.632964;0;-1;0;659;3113;2651;0.8004576;2.487934;1.162404;0.8063427;3.02425;1.062642;0.8115116;3.495301;0.9729625;0.8690391;4.209373;1.131881;0.6374115;4.555755;1.165283;0.2851173;4.433078;1.196561;-0.4323441;4.868739;0.8044161;0.4858613;4.643757;0.8682736;1.156075;4.513973;1.165283;1.431971;4.34069;1.19656;1.955269;3.55657;1.395535;1.095073;3.246738;1.644243;0.4881961;2.445222;1.1632;0.236789;1.290824;0.3000565;0;0;0;0.4881961;2.445222;1.1632;0.236789;1.290824;0.3000565;0;0;0
217510.1494;NotLabelled;16384;0.7337047;0.01108033;-0.4362881;0.5207756;0;0;-1;3152;-1962;1861;65536;0.2077562;-0.3393352;0.9159251;0.05263158;0;0;0;2465;952;-3205;8192;0.0166205;-0.3642659;-0.7737598;-0.5180055;-2;-2;-1;2182;3353;847;32768;-0.6759003;0.1108033;0.1246537;0.7178739;-2;-1;0;3835;1415;238;256;0.5207756;-0.6106871;0.3476454;0.4847645;0;-2;0;307;3954;-983;128;0.6227853;-0.6038781;0.2756233;0.4141274;5;-4;0;-781;4141;302;4;0.6815503;-0.6523545;-0.2783934;0.1800554;0;-2;0;2653;3306;302;16;-0.4459834;0.2451524;0.6228531;0.5941828;0;0;-1;965;3900;-668;2;-0.06094183;-0.02216066;-0.6495845;-0.757519;0;0;0;587;4128;-673;8;0.3559557;-0.6428294;-0.2437673;-0.632964;0;0;0;531;3129;2549;0.8004602;2.487933;1.162402;0.8063453;3.024246;1.062623;0.8115142;3.495294;0.9729288;0.8690419;4.209366;1.131847;0.6374143;4.555748;1.16525;0.2851202;4.433071;1.196528;-0.4323426;4.868745;0.8044006;0.4858632;4.643763;0.8682558;1.156078;4.513967;1.165249;1.431974;4.340683;1.196525;1.955272;3.556556;1.395473;1.096163;3.245001;1.645777;0.4881987;2.445221;1.163198;0.2367897;1.290823;0.300056;0;0;0;0.4881987;2.445221;1.163198;0.2367897;1.290823;0.300056;0;0;0
217530.2756;NotLabelled;16384;0.7337047;0.01108033;-0.4362881;0.5207756;0;0;0;3140;-1970;1829;65536;0.2077562;-0.3393352;0.9158446;0.05401662;0;0;0;2483;996;-3195;8192;0.01800554;-0.3642659;-0.7737289;-0.5180055;-2;-2;-1;2210;3287;783;32768;-0.6759003;0.1108033;0.1246537;0.7178739;-3;-2;0;3849;1309;172;256;0.5193906;-0.6118656;0.3476454;0.4847645;0;-3;0;301;4002;-865;128;0.6227853;-0.6038781;0.2756233;0.4141274;4;-2;0;-821;4093;328;4;0.6815503;-0.6523545;-0.2783934;0.1800554;-1;1;0;2477;3218;260;16;-0.4459834;0.2465374;0.6223062;0.5941828;0;-4;0;915;3914;-684;2;-0.06094183;-0.0235457;-0.6495845;-0.7574772;0;0;0;589;4132;-517;8;0.3559557;-0.6428294;-0.2437673;-0.632964;0;3;0;453;3175;2515;0.7995667;2.488722;1.159679;0.8054518;3.025035;1.0599;0.8106206;3.496082;0.9702058;0.8665625;4.209811;1.131218;0.6341764;4.555592;1.165575;0.2821419;4.43206;1.196412;-0.435299;4.867721;0.80423;0.4823686;4.640344;0.8673331;1.15293;4.514935;1.165575;1.429193;4.34216;1.196412;1.951803;3.557096;1.393467;1.09268;3.245541;1.643725;0.4873051;2.44601;1.160476;0.2359431;1.291611;0.2973192;0;0;0;0.4873051;2.44601;1.160476;0.2359431;1.291611;0.2973192;0;0;0
217550.2036;NotLabelled;16384;0.7337047;0.01108033;-0.4362881;0.5207756;0;0;0;3112;-1930;1879;65536;0.2063712;-0.3393352;0.9161576;0.05401662;0;0;0;2495;992;-3193;8192;0.01800554;-0.3642659;-0.7737289;-0.5180055;-1;0;-2;2218;3423;727;32768;-0.6772853;0.1108033;0.1232687;0.7168068;-2;-1;0;3871;1283;212;256;0.5193906;-0.6107656;0.3476454;0.4861496;0;-3;0;353;3958;-927;128;0.6241254;-0.602493;0.2756233;0.4141274;5;2;0;-751;4101;278;4;0.6815503;-0.6523545;-0.2783934;0.1800554;0;1;-1;2413;3142;318;16;-0.4459834;0.2465374;0.6236257;0.5927978;0;-1;0;925;3930;-688;2;-0.06094183;-0.0235457;-0.6495845;-0.7574772;-1;1;0;501;4042;-561;8;0.3559557;-0.6428294;-0.2437673;-0.632964;0;0;0;553;3139;2641;0.7931074;2.488504;1.16442;0.7989887;3.024476;1.062827;0.8041543;3.495217;0.9715403;0.8617113;4.208815;1.132567;0.6300979;4.555106;1.166992;0.2777984;4.432352;1.197906;-0.4376391;4.869344;0.8035498;0.4802532;4.642825;0.8664762;1.14876;4.513303;1.16687;1.424649;4.339916;1.197636;1.946254;3.554187;1.394695;1.08623;3.244474;1.64414;0.4808458;2.445795;1.165373;0.2316675;1.291396;0.3015832;0;0;0;0.4808458;2.445795;1.165373;0.2316675;1.291396;0.3015832;0;0;0
217571.7974;NotLabelled;16384;0.7337047;0.01108033;-0.4362881;0.5207756;0;-1;0;3030;-1948;1811;65536;0.2063712;-0.3393352;0.9162382;0.05263158;0;0;0;2493;932;-3119;8192;0.01939058;-0.3642659;-0.7736954;-0.5180055;0;-3;-2;2242;3317;755;32768;-0.6772853;0.1121884;0.1232687;0.7165914;-1;-1;0;3893;1349;250;256;0.5193906;-0.6107656;0.3476454;0.4861496;0;-1;0;371;4060;-881;128;0.6250421;-0.602493;0.2756233;0.4127424;4;8;1;-795;4083;314;4;0.6815503;-0.6523545;-0.2783934;0.1800554;0;1;-1;2515;3112;286;16;-0.4459834;0.2465374;0.6236257;0.5927978;0;-3;0;913;3892;-716;2;-0.06094183;-0.02216066;-0.6509695;-0.7563291;-1;1;0;483;4042;-501;8;0.3559557;-0.6428294;-0.2437673;-0.632964;0;0;0;531;3133;2635;0.792833;2.488502;1.164424;0.7987117;3.024234;1.061573;0.8038749;3.49476;0.96918;0.8613938;4.208357;1.130221;0.6297725;4.554648;1.164591;0.2774657;4.431894;1.195422;-0.4388238;4.867556;0.8011408;0.4795859;4.643433;0.8650867;1.148435;4.512845;1.16459;1.424316;4.339458;1.195421;1.945667;3.553455;1.392061;1.086671;3.242015;1.642894;0.4805715;2.445795;1.165485;0.2315965;1.291396;0.3016372;0;0;0;0.4805715;2.445795;1.165485;0.2315965;1.291396;0.3016372;0;0;0
217592.2875;NotLabelled;16384;0.7327197;0.01108033;-0.4362881;0.5221606;0;-1;0;3084;-1892;1845;65536;0.2077562;-0.3393352;0.9159251;0.05263158;0;0;0;2467;950;-3143;8192;0.01939058;-0.365651;-0.7730418;-0.5180055;0;-2;-1;2316;3305;807;32768;-0.6772853;0.1121884;0.1232687;0.7165914;-1;-1;0;3763;1441;228;256;0.5193906;-0.6099752;0.3490305;0.4861496;0;0;0;265;3966;-905;128;0.6250421;-0.602493;0.2756233;0.4127424;4;8;0;-681;4067;334;4;0.6815503;-0.6523545;-0.2783934;0.1800554;0;0;0;2523;3222;332;16;-0.4473684;0.2479224;0.6220827;0.5927978;0;-6;-1;977;3912;-754;2;-0.06094183;-0.02216066;-0.6509695;-0.7563291;0;1;0;507;3990;-613;8;0.3559557;-0.6428294;-0.2437673;-0.632964;0;-1;0;661;3123;2529;0.7931435;2.488627;1.162786;0.7990222;3.024359;1.059934;0.8041854;3.494885;0.9675418;0.8609136;4.208868;1.127147;0.6289017;4.554962;1.160862;0.2767405;4.431868;1.191995;-0.4385701;4.868629;0.797155;0.4793145;4.643647;0.8654776;1.147611;4.513752;1.160862;1.423696;4.340743;1.191995;1.945081;3.555349;1.390968;1.085573;3.24391;1.640042;0.480882;2.44592;1.163847;0.2336761;1.291522;0.2994911;0;0;0;0.480882;2.44592;1.163847;0.2336761;1.291522;0.2994911;0;0;0
217613.1516;NotLabelled;16384;0.7327197;0.01108033;-0.4362881;0.5221606;0;-1;0;3062;-1934;1819;65536;0.2077562;-0.3393352;0.9159251;0.05263158;0;0;0;2505;892;-3133;8192;0.01939058;-0.365651;-0.7730418;-0.5180055;0;-1;0;2312;3315;811;32768;-0.6772853;0.1135734;0.1232687;0.7163731;-2;0;-1;3745;1401;252;256;0.5193906;-0.6099752;0.3490305;0.4861496;-1;0;0;253;3984;-925;128;0.6259546;-0.602493;0.2756233;0.4113573;3;0;1;-667;3989;262;4;0.6815503;-0.6523545;-0.2783934;0.1800554;0;0;0;2543;3212;328;16;-0.4473684;0.2479224;0.6220827;0.5927978;0;-6;-1;959;3950;-720;2;-0.06094183;-0.02216066;-0.6495845;-0.757519;0;0;0;585;3976;-673;8;0.3559557;-0.6441903;-0.2437673;-0.6315789;0;-3;0;649;3069;2535;0.7931435;2.488624;1.162679;0.7990196;3.024113;1.058574;0.8041804;3.494423;0.9650804;0.8609085;4.208405;1.124686;0.6288967;4.5545;1.158401;0.2767355;4.431404;1.189534;-0.4385748;4.868167;0.7946941;0.4793096;4.643185;0.8630168;1.147606;4.513289;1.158401;1.423691;4.340281;1.189533;1.945076;3.554888;1.388505;1.086658;3.24172;1.63917;0.4808821;2.44592;1.163848;0.2336762;1.291521;0.2994917;0;0;0;0.4808821;2.44592;1.163848;0.2336762;1.291521;0.2994917;0;0;0
217633.3486;NotLabelled;16384;0.7327197;0.01108033;-0.4362881;0.5221606;0;0;0;3072;-1914;1823;65536;0.2077562;-0.3393352;0.9159251;0.05263158;0;0;0;2473;930;-3083;8192;0.01939058;-0.365651;-0.7739682;-0.5166205;-1;0;0;2344;3311;811;32768;-0.6759003;0.1135734;0.1232687;0.7176801;-1;0;-1;3825;1405;272;256;0.5193906;-0.6099752;0.3490305;0.4861496;0;-1;0;311;4008;-849;128;0.6259546;-0.602493;0.2756233;0.4113573;4;0;1;-717;4095;226;4;0.6815503;-0.6523545;-0.2783934;0.1800554;-1;1;0;2459;3248;330;16;-0.4473684;0.2479224;0.6233995;0.5914127;0;-5;0;877;3910;-718;2;-0.06094183;-0.0235457;-0.6495845;-0.7574772;1;-1;0;481;4008;-507;8;0.3573407;-0.643423;-0.2437673;-0.6315789;0;0;0;489;3189;2557;0.7896245;2.488401;1.166342;0.7955005;3.023891;1.062237;0.8006613;3.4942;0.9687436;0.8573895;4.208182;1.128349;0.6253777;4.554277;1.162064;0.2732165;4.431182;1.193197;-0.4420938;4.867944;0.7983572;0.4757906;4.642962;0.86668;1.144087;4.513067;1.162064;1.420171;4.340058;1.193197;1.943921;3.555795;1.390416;1.085674;3.242621;1.641659;0.477363;2.445698;1.167511;0.2301571;1.291299;0.3031548;0;0;0;0.477363;2.445698;1.167511;0.2301571;1.291299;0.3031548;0;0;0
217654.1583;NotLabelled;16384;0.7327197;0.01108033;-0.4362881;0.5221606;0;0;0;3062;-1902;1827;65536;0.2077562;-0.3393352;0.9159251;0.05263158;0;0;0;2499;946;-3145;8192;0.01800554;-0.365651;-0.7740016;-0.5166205;-1;0;0;2170;3257;787;32768;-0.6759003;0.1135734;0.1232687;0.7176801;-1;0;-1;3787;1365;228;256;0.5193906;-0.6091806;0.3504155;0.4861496;0;-1;0;269;4006;-889;128;0.6268626;-0.602493;0.2756233;0.4099723;3;1;0;-805;4063;256;4;0.6800188;-0.6537396;-0.2797784;0.1786704;0;-2;0;2431;3196;312;16;-0.4473684;0.2479224;0.6233995;0.5914127;0;4;0;827;3962;-768;2;-0.05955679;-0.0235457;-0.6495845;-0.7575874;0;-2;-1;489;4132;-533;8;0.3559557;-0.6441903;-0.2437673;-0.6315789;0;-2;0;505;3149;2553;0.7798615;2.488635;1.168953;0.7857348;3.02388;1.0636;0.7908933;3.49397;0.9690107;0.846835;4.208334;1.127176;0.6144353;4.554233;1.160234;0.2624192;4.430799;1.191669;-0.4520168;4.867562;0.7952502;0.4657251;4.642581;0.8654577;1.133191;4.513612;1.160234;1.409477;4.34098;1.191669;1.93346;3.557661;1.391994;1.0747;3.244487;1.641475;0.4676;2.445934;1.170229;0.229534;1.291298;0.3036266;0;0;0;0.4676;2.445934;1.170229;0.229534;1.291298;0.3036266;0;0;0
217674.2623;NotLabelled;16384;0.7327197;0.01108033;-0.4362881;0.5221606;1;0;-1;3086;-1914;1801;65536;0.2077562;-0.3393352;0.9159251;0.05263158;0;-2;0;2525;942;-3155;8192;0.01939058;-0.365651;-0.7739682;-0.5166205;0;-1;0;2234;3309;797;32768;-0.6759003;0.1135734;0.1232687;0.7176801;-1;0;0;3913;1323;184;256;0.5193906;-0.6091806;0.3504155;0.4861496;-1;-1;0;255;4002;-887;128;0.6268626;-0.602493;0.2756233;0.4099723;2;1;0;-809;4095;210;4;0.6802219;-0.6537396;-0.2783934;0.1800554;0;-1;0;2483;3192;344;16;-0.4473684;0.2479224;0.6233995;0.5914127;0;1;0;963;3946;-772;2;-0.05955679;-0.0235457;-0.6509695;-0.7563976;-1;-2;-1;519;4128;-491;8;0.3559557;-0.6441903;-0.2437673;-0.6315789;0;0;0;413;3183;2689;0.7820481;2.488619;1.16837;0.7879215;3.023865;1.063018;0.7930799;3.493955;0.968428;0.8490217;4.208319;1.126593;0.616622;4.554217;1.159652;0.2646058;4.430784;1.191087;-0.4498925;4.867547;0.7947791;0.4678498;4.642566;0.8649865;1.135378;4.513597;1.159651;1.411663;4.340964;1.191087;1.935007;3.556702;1.389381;1.076246;3.243527;1.638862;0.4697867;2.445919;1.169647;0.229534;1.291299;0.3036269;0;0;0;0.4697867;2.445919;1.169647;0.229534;1.291299;0.3036269;0;0;0
217696.169;NotLabelled;16384;0.7337047;0.01108033;-0.4362881;0.5207756;2;0;-1;3114;-1884;1833;65536;0.2077562;-0.3393352;0.9159251;0.05263158;0;-1;0;2463;896;-3247;8192;0.01939058;-0.365651;-0.7739682;-0.5166205;-1;-1;0;2248;3363;809;32768;-0.6759003;0.1149584;0.1232687;0.7174596;-2;0;0;3839;1385;200;256;0.5193906;-0.6091806;0.3504155;0.4861496;-1;-1;0;305;3970;-843;128;0.6281908;-0.601108;0.2756233;0.4099723;2;0;0;-757;3993;264;4;0.6796533;-0.6537396;-0.2797784;0.1800554;0;0;0;2513;3210;366;16;-0.4473684;0.2479224;0.6233995;0.5914127;0;-3;0;935;3908;-712;2;-0.05955679;-0.0235457;-0.6509695;-0.7563976;0;0;0;647;4042;-629;8;0.3559557;-0.6441903;-0.2437673;-0.6315789;0;1;0;551;3099;2655;0.7805257;2.486797;1.171052;0.7863951;3.021685;1.063893;0.79155;3.491452;0.9677167;0.8474917;4.205817;1.125882;0.615092;4.551715;1.15894;0.2630758;4.428283;1.190375;-0.4515657;4.863943;0.7931154;0.4661768;4.638962;0.8633229;1.133848;4.511094;1.15894;1.410134;4.338462;1.190376;1.933431;3.554199;1.388788;1.075766;3.239303;1.639861;0.4682643;2.444101;1.172484;0.229534;1.291299;0.3036267;0;0;0;0.4682643;2.444101;1.172484;0.229534;1.291299;0.3036267;0;0;0
217717.15;NotLabelled;16384;0.7337047;0.01108033;-0.4362881;0.5207756;2;1;0;3148;-1912;1883;65536;0.2077562;-0.3393352;0.9159251;0.05263158;0;-1;0;2441;892;-3221;8192;0.01939058;-0.365651;-0.7739682;-0.5166205;-1;-1;0;2242;3355;813;32768;-0.6759003;0.1149584;0.1232687;0.7174596;-2;0;0;3853;1407;182;256;0.5193906;-0.6091806;0.3504155;0.4861496;-1;-1;0;255;4036;-895;128;0.6284839;-0.601108;0.2770083;0.4085872;3;-1;0;-721;4069;280;4;0.6800188;-0.6537396;-0.2797784;0.1786704;-1;0;0;2473;3234;294;16;-0.4473684;0.2493075;0.6228469;0.5914127;0;-4;0;887;3942;-692;2;-0.05955679;-0.0235457;-0.6509695;-0.7563976;0;0;1;603;4030;-705;8;0.3559557;-0.6441903;-0.2437673;-0.6315789;0;-1;0;709;3103;2553;0.7790502;2.489415;1.165935;0.7849168;3.024049;1.057522;0.7900692;3.49359;0.9602446;0.846011;4.207954;1.118409;0.6136112;4.553852;1.151468;0.261595;4.43042;1.182903;-0.4530743;4.866081;0.7856928;0.464668;4.641099;0.8559002;1.132367;4.513232;1.151468;1.408653;4.340599;1.182903;1.931965;3.556338;1.38128;1.074299;3.241441;1.632352;0.4667888;2.446722;1.167476;0.2287227;1.292087;0.300873;0;0;0;0.4667888;2.446722;1.167476;0.2287227;1.292087;0.300873;0;0;0
217738.1488;NotLabelled;16384;0.7337244;0.009695291;-0.4362881;0.5207756;1;1;0;3062;-1850;1911;65536;0.2077562;-0.3379501;0.9164371;0.05263158;0;0;0;2419;956;-3197;8192;0.01939058;-0.365651;-0.7739682;-0.5166205;-2;0;-1;2262;3319;827;32768;-0.6759003;0.1149584;0.1218837;0.7176961;-3;0;0;3891;1357;192;256;0.5193906;-0.6091806;0.3504155;0.4861496;-1;-1;0;259;3964;-939;128;0.6284839;-0.601108;0.2770083;0.4085872;3;0;0;-765;4145;274;4;0.6800188;-0.6537396;-0.2797784;0.1786704;0;0;0;2497;3174;280;16;-0.4487534;0.2493075;0.6218498;0.5914127;0;-4;0;857;3908;-754;2;-0.05955679;-0.0235457;-0.6509695;-0.7563976;1;0;-1;527;3998;-587;8;0.3573407;-0.6439461;-0.2423823;-0.6315789;0;0;0;549;3139;2555;0.7825716;2.488757;1.166063;0.7884382;3.023391;1.05765;0.7935906;3.492932;0.9603724;0.8495324;4.207297;1.118537;0.6171327;4.553195;1.151596;0.2651165;4.429762;1.183031;-0.4500468;4.86354;0.7846515;0.4677912;4.639053;0.8551847;1.135889;4.512575;1.151596;1.412174;4.339942;1.183031;1.935517;3.55568;1.381326;1.07775;3.242612;1.634331;0.4703102;2.446064;1.167604;0.2322441;1.291429;0.3010009;0;0;0;0.4703102;2.446064;1.167604;0.2322441;1.291429;0.3010009;0;0;0
217758.2906;NotLabelled;16384;0.7337244;0.009695291;-0.4362881;0.5207756;1;0;0;3098;-1932;1863;65536;0.2077562;-0.3379501;0.9164371;0.05263158;0;0;0;2433;990;-3273;8192;0.01939058;-0.365651;-0.7739682;-0.5166205;-2;-1;-1;2248;3317;869;32768;-0.6759003;0.1149584;0.1218837;0.7176961;-3;-1;0;3881;1299;206;256;0.5193906;-0.609486;0.3518005;0.4847645;-1;0;0;279;4024;-845;128;0.6284839;-0.601108;0.2770083;0.4085872;1;0;0;-769;4121;224;4;0.6800188;-0.6537396;-0.2797784;0.1786704;0;1;-1;2475;3200;292;16;-0.4487534;0.2493075;0.6218498;0.5914127;0;0;0;899;3948;-654;2;-0.05955679;-0.0235457;-0.6509695;-0.7563976;0;0;-1;501;4052;-581;8;0.3559557;-0.6441903;-0.2437673;-0.6315789;0;1;0;503;3093;2653;0.7833926;2.488758;1.165733;0.7892593;3.023392;1.05732;0.7944117;3.492932;0.9600422;0.8479835;4.207803;1.116735;0.6144311;4.552988;1.149123;0.2628353;4.428441;1.180868;-0.4526083;4.862219;0.7829907;0.4652796;4.637732;0.8528788;1.13332;4.514106;1.149122;1.410188;4.342464;1.180867;1.93367;3.558202;1.378793;1.076081;3.245133;1.632401;0.4711311;2.446065;1.167273;0.2324556;1.29143;0.3008378;0;0;0;0.4711311;2.446065;1.167273;0.2324556;1.29143;0.3008378;0;0;0
217778.1556;NotLabelled;16384;0.7337244;0.009695291;-0.4362881;0.5207756;0;-1;0;3068;-1882;1859;65536;0.2063712;-0.3379501;0.91675;0.05263158;0;0;0;2513;1008;-3179;8192;0.02077562;-0.365651;-0.7739322;-0.5166205;-1;-3;-2;2208;3251;757;32768;-0.6772853;0.1163435;0.1218837;0.7161656;-3;-1;0;3805;1333;204;256;0.5193906;-0.609486;0.3518005;0.4847645;0;-1;0;329;4006;-897;128;0.6284839;-0.601108;0.2770083;0.4085872;1;1;0;-793;4073;204;4;0.6800188;-0.6537396;-0.2797784;0.1786704;0;3;0;2445;3142;328;16;-0.4487534;0.2493075;0.6218498;0.5914127;0;-1;0;869;4006;-676;2;-0.05955679;-0.0235457;-0.6509695;-0.7563976;0;-1;0;579;4032;-553;8;0.3559557;-0.6441903;-0.2437673;-0.6315789;0;1;0;533;3069;2617;0.7833926;2.488758;1.165733;0.7892593;3.023392;1.05732;0.7944117;3.492932;0.9600422;0.8479835;4.207803;1.116735;0.6144311;4.552988;1.149123;0.2628353;4.428441;1.180868;-0.4526083;4.862219;0.7829907;0.4656751;4.638587;0.8503814;1.13332;4.514106;1.149122;1.410188;4.342464;1.180867;1.932991;3.557261;1.376847;1.076331;3.242466;1.631459;0.4711311;2.446065;1.167273;0.2324556;1.29143;0.3008378;0;0;0;0.4711311;2.446065;1.167273;0.2324556;1.29143;0.3008378;0;0;0
217799.2932;NotLabelled;16384;0.7337244;0.009695291;-0.4362881;0.5207756;-1;-1;0;3084;-1922;1835;65536;0.2063712;-0.3379501;0.91675;0.05263158;0;0;0;2509;932;-3155;8192;0.02216066;-0.365651;-0.7738938;-0.5166205;0;-2;-1;2280;3249;739;32768;-0.6772853;0.1163435;0.1204986;0.7164;-2;0;0;3823;1329;274;256;0.5193906;-0.609486;0.3518005;0.4847645;0;-1;0;259;4012;-883;128;0.6284839;-0.601108;0.2770083;0.4085872;1;1;0;-683;4087;314;4;0.6800188;-0.6537396;-0.2797784;0.1786704;0;2;0;2463;3196;386;16;-0.4487534;0.2493075;0.6218498;0.5914127;0;0;0;953;3922;-736;2;-0.05955679;-0.0235457;-0.6509695;-0.7563976;0;1;0;479;4004;-603;8;0.3559557;-0.6441903;-0.2437673;-0.6315789;0;-2;0;645;3119;2499;0.7833926;2.488758;1.165733;0.7892593;3.023392;1.05732;0.7944117;3.492932;0.9600422;0.8479835;4.207803;1.116735;0.6144311;4.552988;1.149123;0.2628353;4.428441;1.180868;-0.4526083;4.862219;0.7829907;0.4656751;4.638587;0.8503814;1.13332;4.514106;1.149122;1.410188;4.342464;1.180867;1.932303;3.556321;1.374903;1.075552;3.243353;1.63145;0.4711311;2.446065;1.167273;0.2324556;1.29143;0.3008378;0;0;0;0.4711311;2.446065;1.167273;0.2324556;1.29143;0.3008378;0;0;0
217820.1983;NotLabelled;16384;0.7337244;0.009695291;-0.4362881;0.5207756;0;0;0;3142;-1874;1839;65536;0.2063712;-0.3379501;0.9168285;0.05124654;0;0;0;2511;882;-3101;8192;0.02216066;-0.367036;-0.7732378;-0.5166205;0;-1;-1;2258;3263;725;32768;-0.6772853;0.1163435;0.1204986;0.7164;-2;0;0;3807;1341;252;256;0.5193906;-0.609486;0.3518005;0.4847645;-1;0;0;307;4012;-869;128;0.6284839;-0.601108;0.2770083;0.4085872;1;0;0;-757;4135;278;4;0.6813476;-0.6523545;-0.2797784;0.1786704;0;2;0;2415;3220;328;16;-0.4487534;0.2493075;0.6218498;0.5914127;0;0;0;891;3932;-740;2;-0.05955679;-0.0235457;-0.6509695;-0.7563976;0;4;0;459;4018;-549;8;0.3573407;-0.643423;-0.2437673;-0.6315789;0;0;0;607;3145;2561;0.7885727;2.488538;1.164582;0.7944393;3.023172;1.056169;0.7995918;3.492713;0.9588912;0.8531637;4.207583;1.115584;0.6196113;4.552769;1.147972;0.2680154;4.428222;1.179716;-0.4474282;4.862;0.7818395;0.4713767;4.640766;0.8500329;1.1385;4.513886;1.147971;1.415368;4.342245;1.179716;1.937887;3.556705;1.375104;1.081136;3.243737;1.63165;0.4763112;2.445845;1.166122;0.2324557;1.291429;0.3008376;0;0;0;0.4763112;2.445845;1.166122;0.2324557;1.291429;0.3008376;0;0;0
217841.1387;NotLabelled;16384;0.7337244;0.009695291;-0.4362881;0.5207756;0;0;0;3134;-1824;1811;65536;0.2063712;-0.3379501;0.9168285;0.05124654;0;0;0;2455;880;-3115;8192;0.02216066;-0.367036;-0.7732378;-0.5166205;0;-2;-1;2272;3287;785;32768;-0.6772853;0.1177285;0.1204986;0.7161736;-2;0;0;3841;1355;216;256;0.5193906;-0.609486;0.3518005;0.4847645;0;0;0;299;3968;-867;128;0.6293822;-0.601108;0.2770083;0.4072022;1;1;0;-711;4065;248;4;0.6817093;-0.6523545;-0.2797784;0.1772853;-1;0;0;2451;3198;344;16;-0.4487534;0.2493075;0.6218498;0.5914127;0;-1;0;891;3950;-696;2;-0.05955679;-0.0235457;-0.6509695;-0.7563976;0;1;0;467;4018;-613;8;0.3559557;-0.6441903;-0.2437673;-0.6315789;0;3;0;565;3145;2513;0.7880784;2.490359;1.162153;0.7939423;3.02474;1.052504;0.7990922;3.494056;0.9541411;0.8526872;4.208926;1.110826;0.6191396;4.554111;1.143248;0.2675487;4.429564;1.175045;-0.4480014;4.864261;0.7783645;0.4708131;4.643026;0.8464226;1.138029;4.515228;1.143171;1.414901;4.343588;1.174875;1.937472;3.557598;1.368305;1.081867;3.242904;1.626559;0.4758171;2.447669;1.1638;0.2325;1.291429;0.3008032;0;0;0;0.4758171;2.447669;1.1638;0.2325;1.291429;0.3008032;0;0;0
217862.1616;NotLabelled;16384;0.7337244;0.009695291;-0.4362881;0.5207756;0;1;0;3132;-1866;1825;65536;0.2063712;-0.3379501;0.9168285;0.05124654;0;0;0;2461;936;-3091;8192;0.02216066;-0.367036;-0.7741614;-0.5152354;0;-1;0;2234;3313;799;32768;-0.6772853;0.1177285;0.1204986;0.7161736;-1;0;0;3839;1363;218;256;0.5193906;-0.609486;0.3518005;0.4847645;0;0;0;241;3960;-909;128;0.6293822;-0.601108;0.2770083;0.4072022;1;0;0;-783;4035;232;4;0.6817093;-0.6523545;-0.2797784;0.1772853;0;-1;0;2445;3166;364;16;-0.4487534;0.2493075;0.6218498;0.5914127;0;-1;0;943;3938;-718;2;-0.05955679;-0.0235457;-0.6509695;-0.7563976;0;-2;0;437;3996;-575;8;0.3573407;-0.6439461;-0.2423823;-0.6315789;-1;-4;0;511;3153;2573;0.7879075;2.490358;1.162224;0.7937714;3.02474;1.052575;0.7989213;3.494056;0.9542122;0.8524932;4.208926;1.110905;0.6189407;4.554111;1.143293;0.267345;4.429564;1.175038;-0.4480984;4.863342;0.7771609;0.4707063;4.642109;0.8453542;1.13783;4.515228;1.143292;1.414698;4.343587;1.175037;1.939573;3.559184;1.368669;1.08393;3.24449;1.626796;0.4756461;2.447669;1.163871;0.2324558;1.291429;0.3008378;0;0;0;0.4756461;2.447669;1.163871;0.2324558;1.291429;0.3008378;0;0;0
217882.3379;NotLabelled;16384;0.7337244;0.009695291;-0.4362881;0.5207756;0;0;0;3068;-1916;1833;65536;0.2063712;-0.3379501;0.9168285;0.05124654;0;-1;0;2471;978;-3145;8192;0.0235457;-0.367036;-0.7741205;-0.5152354;0;-1;0;2248;3261;861;32768;-0.6772853;0.1177285;0.1204986;0.7161736;0;0;0;3853;1383;220;256;0.5193906;-0.609486;0.3518005;0.4847645;-1;0;0;269;4004;-867;128;0.6299899;-0.601108;0.2756233;0.4072022;0;0;0;-755;4073;294;4;0.6813476;-0.6523545;-0.2797784;0.1786704;0;-2;0;2539;3150;352;16;-0.4487534;0.2493075;0.6218498;0.5914127;0;0;0;977;3948;-770;2;-0.05955679;-0.0235457;-0.6509695;-0.7563976;0;-2;0;495;4114;-553;8;0.3573407;-0.6439461;-0.2423823;-0.6315789;0;0;0;447;3131;2687;0.7885724;2.488534;1.164476;0.7944363;3.022919;1.054839;0.7995863;3.492236;0.9564869;0.8531582;4.207107;1.11318;0.6196058;4.552291;1.145567;0.2680099;4.427744;1.177312;-0.4474344;4.861522;0.7794368;0.4713705;4.64029;0.8476298;1.138495;4.513409;1.145567;1.415363;4.341768;1.177311;1.939544;3.556425;1.369;1.083901;3.24173;1.627127;0.476311;2.445845;1.166122;0.2324558;1.291429;0.3008375;0;0;0;0.476311;2.445845;1.166122;0.2324558;1.291429;0.3008375;0;0;0
217903.2692;NotLabelled;16384;0.7337244;0.009695291;-0.4362881;0.5207756;0;0;0;3088;-1874;1861;65536;0.2063712;-0.3379501;0.9168285;0.05124654;0;-1;0;2517;924;-3161;8192;0.0235457;-0.367036;-0.7741205;-0.5152354;0;-1;0;2210;3361;831;32768;-0.6772853;0.1177285;0.1204986;0.7161736;-1;0;0;3807;1315;160;256;0.5193906;-0.609486;0.3518005;0.4847645;-1;0;0;333;4064;-861;128;0.6299899;-0.601108;0.2756233;0.4072022;0;-1;0;-737;4037;236;4;0.6813476;-0.6523545;-0.2797784;0.1786704;0;0;1;2477;3214;336;16;-0.4487534;0.2493075;0.6218498;0.5914127;0;9;3;741;3990;-808;2;-0.05817174;-0.0235457;-0.6509695;-0.7565053;0;-3;0;593;4094;-691;8;0.3559557;-0.643353;-0.2423823;-0.632964;0;3;0;581;3097;2595;0.7885724;2.488534;1.164476;0.7944363;3.022919;1.054839;0.7995863;3.492236;0.9564869;0.8531582;4.207107;1.11318;0.6196058;4.552291;1.145567;0.2680099;4.427744;1.177312;-0.4474337;4.861523;0.7794352;0.4713714;4.64029;0.8476287;1.138495;4.513409;1.145567;1.415363;4.341768;1.177311;1.939544;3.556424;1.369001;1.0839;3.24173;1.627129;0.476311;2.445845;1.166122;0.2324558;1.291429;0.3008375;0;0;0;0.476311;2.445845;1.166122;0.2324558;1.291429;0.3008375;0;0;0
217923.1396;NotLabelled;16384;0.7337244;0.009695291;-0.4362881;0.5207756;1;1;0;3064;-1908;1875;65536;0.2063712;-0.3379501;0.9168285;0.05124654;0;-1;0;2497;948;-3175;8192;0.0235457;-0.367036;-0.7741205;-0.5152354;0;-1;0;2194;3355;803;32768;-0.6772853;0.1177285;0.1204986;0.7161736;-1;0;0;3823;1335;212;256;0.5193906;-0.609486;0.3518005;0.4847645;-1;0;0;253;3954;-905;128;0.6299899;-0.601108;0.2756233;0.4072022;0;-2;0;-831;4091;262;4;0.6813476;-0.6523545;-0.2797784;0.1786704;1;-3;0;2493;3154;274;16;-0.4473684;0.2479224;0.6220827;0.5927978;0;13;1;753;3910;-730;2;-0.05817174;-0.02493075;-0.6509695;-0.756461;0;-3;0;617;4076;-597;8;0.3559557;-0.6447127;-0.2423823;-0.6315789;0;-4;0;669;3207;2519;0.7893882;2.488627;1.163445;0.7952521;3.023011;1.053808;0.8004021;3.492328;0.9554561;0.853974;4.207199;1.112149;0.6204215;4.552383;1.144536;0.2688257;4.427836;1.176281;-0.4466178;4.861616;0.7784044;0.4721872;4.640382;0.8465979;1.139311;4.513501;1.144536;1.416178;4.34186;1.176281;1.94036;3.556516;1.36797;1.084716;3.241822;1.626098;0.4771268;2.445937;1.165091;0.2332716;1.291522;0.2998067;0;0;0;0.4771268;2.445937;1.165091;0.2332716;1.291522;0.2998067;0;0;0
217943.1512;NotLabelled;16384;0.7337244;0.009695291;-0.4362881;0.5207756;1;1;0;3098;-1860;1883;65536;0.2063712;-0.3379501;0.9168285;0.05124654;0;-1;0;2501;936;-3233;8192;0.0235457;-0.367036;-0.7741205;-0.5152354;0;-1;-1;2172;3373;865;32768;-0.6772853;0.1177285;0.1191136;0.7164053;-1;0;0;3881;1319;216;256;0.5193906;-0.609486;0.3518005;0.4847645;-1;-1;1;323;3998;-921;128;0.6298057;-0.599723;0.2770083;0.4085872;3;-2;-1;-763;4151;220;4;0.6800188;-0.6537396;-0.2797784;0.1786704;0;-1;0;2475;3190;240;16;-0.4459834;0.2465374;0.6236257;0.5927978;0;6;1;1031;3916;-666;2;-0.05817174;-0.02493075;-0.6495845;-0.7576507;0;-2;0;511;4054;-637;8;0.3573407;-0.6439461;-0.2423823;-0.6315789;0;-2;0;513;3107;2573;0.7815881;2.488719;1.167129;0.7874508;3.022985;1.056916;0.7925996;3.492196;0.9580573;0.8461822;4.207067;1.114746;0.6126321;4.552251;1.14715;0.2610387;4.427704;1.178919;-0.4544551;4.861911;0.7816015;0.4643542;4.640677;0.8497311;1.131521;4.513369;1.147114;1.408391;4.341727;1.178839;1.932596;3.556177;1.369615;1.076886;3.243311;1.629734;0.4693269;2.446031;1.168825;0.2305912;1.291397;0.3024065;0;0;0;0.4693269;2.446031;1.168825;0.2305912;1.291397;0.3024065;0;0;0
217964.1491;NotLabelled;16384;0.7337244;0.009695291;-0.4362881;0.5207756;0;0;0;3120;-1930;1901;65536;0.2063712;-0.3379501;0.9168285;0.05124654;0;-1;0;2525;942;-3237;8192;0.0235457;-0.367036;-0.7741205;-0.5152354;0;-2;-1;2146;3369;795;32768;-0.6772853;0.1177285;0.1191136;0.7164053;-2;0;1;3953;1303;184;256;0.5193906;-0.6083818;0.3518005;0.4861496;-1;-2;1;311;4000;-915;128;0.6298057;-0.599723;0.2770083;0.4085872;2;0;-1;-741;4113;206;4;0.6800188;-0.6537396;-0.2797784;0.1786704;0;0;0;2487;3230;316;16;-0.4459834;0.2465374;0.6223062;0.5941828;0;6;1;819;3976;-728;2;-0.05817174;-0.02493075;-0.6509695;-0.756461;-1;1;0;503;4066;-539;8;0.3559557;-0.6447127;-0.2423823;-0.6315789;0;2;1;563;3133;2669;0.7818222;2.488934;1.164809;0.7876849;3.0232;1.054595;0.7928337;3.49241;0.9557368;0.8479934;4.207154;1.112456;0.6152085;4.552855;1.144856;0.2633368;4.42909;1.176595;-0.4498973;4.862868;0.7747715;0.4687153;4.641634;0.8455026;1.13401;4.512821;1.144855;1.410495;4.340564;1.176595;1.933609;3.555219;1.371177;1.077166;3.242353;1.628873;0.469561;2.446246;1.166504;0.23328;1.291611;0.2994135;0;0;0;0.469561;2.446246;1.166504;0.23328;1.291611;0.2994135;0;0;0
217984.3083;NotLabelled;16384;0.7337244;0.009695291;-0.4362881;0.5207756;0;0;0;3042;-1924;1873;65536;0.2063712;-0.3379501;0.91675;0.05263158;-1;-1;0;2539;968;-3193;8192;0.02493075;-0.368421;-0.7724944;-0.5166205;0;-3;-2;2244;3305;787;32768;-0.6772853;0.1177285;0.1177285;0.7166342;-3;-1;1;3911;1365;252;256;0.5193906;-0.6083818;0.3518005;0.4861496;-1;0;1;257;4044;-877;128;0.6298057;-0.599723;0.2770083;0.4085872;2;2;0;-793;4093;214;4;0.6800188;-0.6537396;-0.2797784;0.1786704;0;2;0;2451;3166;284;16;-0.4432133;0.2423823;0.6245893;0.5955678;0;25;5;625;4058;-860;2;-0.05817174;-0.02493075;-0.6509695;-0.756461;-1;0;0;589;4164;-601;8;0.3559557;-0.6447127;-0.2423823;-0.6315789;0;2;0;509;3141;2607;0.780789;2.488118;1.169097;0.7866516;3.022384;1.058883;0.7918004;3.491596;0.9600249;0.8469602;4.206339;1.116744;0.6141753;4.55204;1.149144;0.2623036;4.428274;1.180883;-0.4520378;4.862053;0.7810314;0.4660555;4.63842;0.8509583;1.132977;4.512005;1.149144;1.409462;4.339748;1.180883;1.930457;3.552928;1.375189;1.07393;3.241891;1.634814;0.4685278;2.445431;1.170792;0.2322468;1.290796;0.3037016;0;0;0;0.4685278;2.445431;1.170792;0.2322468;1.290796;0.3037016;0;0;0
218005.1286;NotLabelled;16384;0.7337244;0.009695291;-0.4362881;0.5207756;0;0;0;3132;-1936;1899;65536;0.2063712;-0.3365651;0.9172594;0.05263158;0;-2;0;2535;1040;-3259;8192;0.02493075;-0.368421;-0.7724944;-0.5166205;0;-2;-2;2350;3313;773;32768;-0.6772853;0.1191136;0.1177285;0.7164053;-4;-1;1;3871;1429;300;256;0.5193906;-0.6075788;0.3531856;0.4861496;-1;-1;1;353;4084;-905;128;0.6298057;-0.599723;0.2770083;0.4085872;3;-3;-1;-795;4157;272;4;0.6800188;-0.6537396;-0.2797784;0.1786704;1;0;0;2511;3200;258;16;-0.4404432;0.2396122;0.62497;0.5983379;1;33;5;787;3996;-720;2;-0.05817174;-0.02493075;-0.6509695;-0.756461;-1;0;0;569;4140;-551;8;0.3559557;-0.643353;-0.2423823;-0.632964;1;0;0;635;3151;2533;0.7801603;2.488297;1.167928;0.786023;3.022563;1.057714;0.7911717;3.491775;0.9588554;0.8455539;4.206895;1.114124;0.6123863;4.552399;1.145862;0.2606585;4.428303;1.177906;-0.4528561;4.862082;0.7765799;0.4651853;4.638939;0.8487265;1.131233;4.512946;1.145862;1.407916;4.341063;1.177906;1.928509;3.554243;1.373288;1.072554;3.24148;1.632726;0.467899;2.44561;1.169623;0.2334091;1.290974;0.3020458;0;0;0;0.467899;2.44561;1.169623;0.2334091;1.290974;0.3020458;0;0;0
218026.1363;NotLabelled;16384;0.7337244;0.009695291;-0.4362881;0.5207756;1;2;0;3114;-1914;1939;65536;0.2063712;-0.3365651;0.9172594;0.05263158;0;-2;-1;2415;986;-3201;8192;0.02631579;-0.368421;-0.7724485;-0.5166205;-1;-4;-2;2176;3295;757;32768;-0.6772853;0.1191136;0.1163435;0.7166315;-3;0;2;3885;1343;250;256;0.5193906;-0.6075788;0.3531856;0.4861496;-2;-3;1;309;4022;-939;128;0.6311217;-0.5983379;0.2770083;0.4085872;2;-4;-1;-733;4093;220;4;0.6800188;-0.6537396;-0.2797784;0.1786704;0;0;0;2465;3242;298;16;-0.4390582;0.2368421;0.6256725;0.599723;1;21;5;1175;3860;-588;2;-0.05817174;-0.02493075;-0.6509695;-0.756461;-1;0;-1;549;4108;-581;8;0.3559557;-0.6447127;-0.2423823;-0.6315789;0;1;0;585;3155;2527;0.7821376;2.487588;1.169336;0.7879961;3.021479;1.057327;0.7931411;3.490356;0.9568906;0.8475574;4.205476;1.112148;0.6143968;4.550981;1.143937;0.2626759;4.426885;1.176058;-0.4509991;4.86201;0.7764797;0.4670578;4.638868;0.8484249;1.133243;4.511527;1.143823;1.409933;4.339644;1.175806;1.929905;3.551241;1.366392;1.073928;3.240307;1.627946;0.4698764;2.444906;1.171187;0.235196;1.290271;0.3036607;0;0;0;0.4698764;2.444906;1.171187;0.235196;1.290271;0.3036607;0;0;0
218047.1374;NotLabelled;16384;0.7347054;0.009695291;-0.4362881;0.5193906;2;3;1;3138;-1962;1893;65536;0.2063712;-0.3365651;0.9172594;0.05263158;-1;-2;-1;2419;972;-3165;8192;0.02631579;-0.368421;-0.7724485;-0.5166205;0;-5;0;2308;3311;715;32768;-0.6772853;0.1191136;0.1163435;0.7166315;-3;0;2;3847;1291;310;256;0.5193906;-0.6075788;0.3531856;0.4861496;-2;-2;2;305;3990;-839;128;0.6296122;-0.5983379;0.2783934;0.4099723;-1;-1;0;-809;4029;260;4;0.6805869;-0.6537396;-0.2783934;0.1786704;0;1;-1;2335;3256;348;16;-0.4390582;0.234072;0.6253858;0.601108;1;5;3;1195;3824;-532;2;-0.05817174;-0.02493075;-0.6509695;-0.756461;-2;1;0;589;4036;-539;8;0.3559557;-0.6428294;-0.2437673;-0.632964;1;4;0;611;3073;2617;0.7886238;2.487998;1.168596;0.7944852;3.022147;1.057814;0.7996328;3.491251;0.9584558;0.854015;4.206372;1.113725;0.6208475;4.551877;1.145463;0.2691195;4.42778;1.177506;-0.4446834;4.860455;0.775503;0.4733575;4.637313;0.8476497;1.139693;4.512423;1.145463;1.416377;4.34054;1.177506;1.936301;3.552782;1.370873;1.080266;3.241848;1.63224;0.4763625;2.445313;1.17034;0.2403389;1.288866;0.3055955;0;0;0;0.4763625;2.445313;1.17034;0.2403389;1.288866;0.3055955;0;0;0
218067.1535;NotLabelled;16384;0.7348595;0.009695291;-0.4376731;0.5180055;0;3;2;2958;-1894;1817;65536;0.2063712;-0.33518;0.9176859;0.05401662;-1;-1;-1;2367;976;-3117;8192;0.02770083;-0.3698061;-0.7717379;-0.5166205;1;-3;0;2224;3259;693;32768;-0.6759003;0.1191136;0.1135734;0.7183814;-1;1;1;3787;1317;262;256;0.5193906;-0.606468;0.3531856;0.4875346;-2;0;1;307;3882;-807;128;0.6296122;-0.5983379;0.2783934;0.4099723;0;1;-1;-757;3983;196;4;0.6805869;-0.6537396;-0.2783934;0.1786704;0;-1;0;2487;3156;382;16;-0.4390582;0.232687;0.6259025;0.601108;2;2;2;1039;3816;-548;2;-0.05817174;-0.0235457;-0.6509695;-0.7565053;0;0;-1;453;3980;-555;8;0.3559557;-0.6428294;-0.2437673;-0.632964;0;-1;0;607;3101;2541;0.7861722;2.487197;1.172651;0.7920334;3.021345;1.061869;0.797181;3.49045;0.9625111;0.8531574;4.205441;1.117807;0.6207608;4.551464;1.149558;0.2687571;4.428151;1.181595;-0.4422766;4.861037;0.7749393;0.4751335;4.635986;0.8491496;1.139518;4.510854;1.149557;1.415817;4.338353;1.181595;1.934871;3.550253;1.375902;1.07813;3.243017;1.639316;0.473911;2.444511;1.174395;0.2402799;1.288065;0.3090013;0;0;0;0.473911;2.444511;1.174395;0.2402799;1.288065;0.3090013;0;0;0
218088.3091;NotLabelled;16384;0.7348399;0.01108033;-0.4376731;0.5180055;0;1;1;2888;-1892;1777;65536;0.2063712;-0.33518;0.9176859;0.05401662;-1;-2;0;2371;1032;-3043;8192;0.02770083;-0.3711911;-0.7710727;-0.5166205;2;-3;0;2220;3201;693;32768;-0.6759003;0.1191136;0.1135734;0.7183814;0;1;1;3831;1363;228;256;0.5207756;-0.605279;0.3531856;0.4875346;-2;1;1;289;3890;-855;128;0.6302229;-0.5983379;0.2770083;0.4099723;0;3;-1;-745;3933;242;4;0.6805869;-0.6537396;-0.2783934;0.1786704;0;0;-1;2479;3236;402;16;-0.4390582;0.2313019;0.6264156;0.601108;2;-1;1;1155;3780;-540;2;-0.05817174;-0.0235457;-0.6509695;-0.7565053;0;0;-1;467;3978;-667;8;0.3559557;-0.6428294;-0.2437673;-0.632964;0;1;0;567;3109;2537;0.7870152;2.48639;1.175366;0.7928766;3.020541;1.064596;0.7980243;3.489649;0.9652486;0.8556073;4.204964;1.11845;0.6239789;4.551588;1.149246;0.2717125;4.429142;1.181722;-0.4389399;4.863905;0.7764027;0.478474;4.638854;0.8505689;1.142645;4.509837;1.149247;1.418572;4.336824;1.181724;1.938041;3.549326;1.377361;1.081312;3.242091;1.640817;0.474754;2.443705;1.17711;0.2410809;1.287258;0.3117269;0;0;0;0.474754;2.443705;1.17711;0.2410809;1.287258;0.3117269;0;0;0
218109.4338;NotLabelled;16384;0.7348399;0.01108033;-0.4376731;0.5180055;0;1;1;2926;-1950;1823;65536;0.2063712;-0.33518;0.9176033;0.05540166;0;-2;0;2411;1022;-3041;8192;0.02770083;-0.3711911;-0.7710727;-0.5166205;1;-2;0;2324;3225;735;32768;-0.6759003;0.1191136;0.1135734;0.7183814;0;1;2;3743;1335;238;256;0.5207756;-0.606392;0.3531856;0.4861496;-2;1;0;329;3978;-887;128;0.6311217;-0.5983379;0.2770083;0.4085872;-1;4;0;-701;4011;264;4;0.6805869;-0.6537396;-0.2783934;0.1786704;-1;0;-2;2397;3180;386;16;-0.4404432;0.232687;0.6249286;0.601108;2;-9;0;1113;3902;-684;2;-0.05817174;-0.0235457;-0.6509695;-0.7565053;0;1;0;521;4040;-671;8;0.3559557;-0.6428294;-0.2437673;-0.632964;0;0;0;643;3125;2543;0.7929552;2.486484;1.171425;0.7988137;3.020376;1.059415;0.8039588;3.489252;0.9589792;0.8599431;4.2047;1.112154;0.6275404;4.550806;1.142938;0.2755488;4.427574;1.17542;-0.4362023;4.862346;0.7720447;0.4808827;4.634895;0.8428759;1.146299;4.510216;1.142937;1.422612;4.337821;1.17542;1.942611;3.550318;1.369625;1.086614;3.243083;1.635451;0.4806939;2.443803;1.173275;0.2446273;1.287357;0.3085423;0;0;0;0.4806939;2.443803;1.173275;0.2446273;1.287357;0.3085423;0;0;0
218130.1611;NotLabelled;16384;0.7348399;0.01108033;-0.4376731;0.5180055;1;1;0;2942;-1998;1811;65536;0.2063712;-0.333795;0.9181081;0.05540166;0;-3;0;2443;1024;-3099;8192;0.02770083;-0.3711911;-0.7710727;-0.5166205;2;-1;0;2290;3291;773;32768;-0.6759003;0.1191136;0.1135734;0.7183814;0;1;2;3841;1337;234;256;0.5207756;-0.606392;0.3531856;0.4861496;-2;0;2;287;3940;-869;128;0.6317278;-0.5983379;0.2756233;0.4085872;0;0;-1;-725;4069;174;4;0.6811519;-0.6537396;-0.2770083;0.1786704;0;-1;-1;2495;3230;310;16;-0.4418283;0.232687;0.6252815;0.599723;2;-6;0;951;3942;-712;2;-0.05817174;-0.0235457;-0.6509695;-0.7565053;0;1;0;439;3996;-645;8;0.3559557;-0.6428294;-0.2437673;-0.632964;0;-3;0;637;3139;2591;0.7943432;2.487371;1.172448;0.8002017;3.021266;1.060449;0.8053468;3.490143;0.9600235;0.8613312;4.205589;1.113214;0.6289285;4.551693;1.144005;0.2769369;4.428462;1.176485;-0.4348142;4.863242;0.7731175;0.4823667;4.636278;0.8442737;1.147687;4.511103;1.144004;1.424;4.338708;1.176483;1.943999;3.551201;1.370671;1.088002;3.24396;1.63649;0.4820819;2.44469;1.174297;0.2444949;1.286457;0.312376;0;0;0;0.4820819;2.44469;1.174297;0.2444949;1.286457;0.312376;0;0;0
218150.304;NotLabelled;16384;0.7358144;0.01108033;-0.4376731;0.5166205;2;2;-1;2982;-1870;1891;65536;0.2063712;-0.333795;0.9181906;0.05401662;0;-3;0;2413;984;-3183;8192;0.02631579;-0.3725762;-0.770453;-0.5166205;1;0;0;2222;3327;775;32768;-0.6759003;0.1191136;0.1135734;0.7183814;0;1;2;3863;1345;236;256;0.5221606;-0.6051998;0.3531856;0.4861496;-2;0;1;331;3902;-865;128;0.6308298;-0.5983379;0.2756233;0.4099723;2;-3;-1;-841;4011;282;4;0.6811519;-0.6537396;-0.2770083;0.1786704;0;-2;0;2559;3160;414;16;-0.4418283;0.232687;0.6252815;0.599723;2;-4;0;1089;3960;-776;2;-0.05817174;-0.0235457;-0.6509695;-0.7565053;1;-1;0;387;4046;-729;8;0.3559557;-0.6428294;-0.2437673;-0.632964;0;-2;0;519;3173;2539;0.7944028;2.487401;1.172476;0.8002641;3.021555;1.061717;0.8054119;3.490664;0.9623802;0.8630027;4.206431;1.113454;0.6313674;4.553135;1.143281;0.2791138;4.430773;1.176203;-0.4329517;4.864439;0.7721914;0.4847623;4.639877;0.8440987;1.150036;4.511406;1.143281;1.425977;4.338501;1.176203;1.947121;3.552547;1.37359;1.091137;3.245312;1.639459;0.4821415;2.444716;1.174219;0.2445109;1.286464;0.312335;0;0;0;0.4821415;2.444716;1.174219;0.2445109;1.286464;0.312335;0;0;0
218172.1543;NotLabelled;16384;0.7358144;0.01108033;-0.4376731;0.5166205;2;2;0;3000;-1896;1857;65536;0.2063712;-0.333795;0.9181906;0.05401662;0;-3;0;2403;986;-3199;8192;0.02770083;-0.3725762;-0.7704044;-0.5166205;1;0;0;2234;3461;747;32768;-0.6759003;0.1177285;0.1135734;0.7186097;0;0;0;3883;1305;154;256;0.5221606;-0.6051998;0.3531856;0.4861496;-1;0;1;307;3924;-925;128;0.6302229;-0.5983379;0.2770083;0.4099723;0;-2;-1;-801;4073;282;4;0.6811519;-0.6537396;-0.2770083;0.1786704;0;-1;0;2611;3184;340;16;-0.4432133;0.234072;0.6237825;0.599723;1;-10;-1;1133;3862;-642;2;-0.05817174;-0.0235457;-0.6509695;-0.7565053;1;-4;0;407;4016;-599;8;0.3573407;-0.6425847;-0.2423823;-0.632964;0;-3;-1;615;3167;2527;0.7970999;2.487501;1.169929;0.8029612;3.021652;1.059159;0.8081089;3.490759;0.9598111;0.8656996;4.206526;1.110885;0.6340646;4.553229;1.140712;0.2818108;4.430867;1.173634;-0.430189;4.864533;0.7695078;0.4875246;4.639973;0.8414147;1.152733;4.511501;1.140712;1.428674;4.338595;1.173635;1.949083;3.551694;1.369176;1.09199;3.246184;1.633456;0.4848385;2.444815;1.171673;0.247208;1.286564;0.3097883;0;0;0;0.4848385;2.444815;1.171673;0.247208;1.286564;0.3097883;0;0;0
218193.1428;NotLabelled;16384;0.7350084;0.009695291;-0.4390582;0.5166205;2;0;0;3072;-1894;1907;65536;0.2077562;-0.33241;0.9183807;0.05401662;0;-1;0;2525;942;-3233;8192;0.02770083;-0.3725762;-0.7704044;-0.5166205;1;0;0;2216;3439;819;32768;-0.6759003;0.1191136;0.1121884;0.718599;0;1;1;3879;1283;180;256;0.5221606;-0.6051998;0.3531856;0.4861496;-2;0;1;343;4014;-895;128;0.6308298;-0.5983379;0.2756233;0.4099723;-1;0;-1;-819;4067;288;4;0.6821144;-0.6523545;-0.2770083;0.1800554;0;-2;0;2509;3102;298;16;-0.4459834;0.2368421;0.6234195;0.5969529;0;-6;-1;875;3960;-828;2;-0.0567867;-0.0235457;-0.6495845;-0.7578;0;-1;0;499;4114;-629;8;0.3559557;-0.643353;-0.2423823;-0.632964;-1;1;0;485;3193;2617;0.8011549;2.485291;1.173138;0.8070163;3.019444;1.062379;0.8121639;3.488555;0.9630418;0.8697547;4.204322;1.114116;0.6381195;4.551025;1.143943;0.2858658;4.428662;1.176865;-0.4247361;4.861752;0.7696707;0.4926658;4.63684;0.8444033;1.156788;4.509296;1.143943;1.432729;4.33639;1.176865;1.953138;3.549489;1.372406;1.097093;3.244093;1.640191;0.4888936;2.442606;1.17488;0.2454267;1.2864;0.3118785;0;0;0;0.4888936;2.442606;1.17488;0.2454267;1.2864;0.3118785;0;0;0
218214.1398;NotLabelled;16384;0.7359799;0.009695291;-0.4390582;0.5152354;1;1;0;3098;-1928;1987;65536;0.2077562;-0.33241;0.9182982;0.05540166;0;-2;0;2447;1030;-3221;8192;0.02770083;-0.3725762;-0.7704044;-0.5166205;1;-1;0;2186;3395;793;32768;-0.6759003;0.1191136;0.1121884;0.718599;-1;0;1;3857;1295;146;256;0.5235457;-0.604002;0.3531856;0.4861496;-2;0;1;363;4032;-861;128;0.6299275;-0.5983379;0.2756233;0.4113573;0;0;-1;-831;4109;286;4;0.6821144;-0.6523545;-0.2770083;0.1800554;0;-2;0;2579;3084;284;16;-0.4459834;0.2368421;0.6247429;0.5955678;-1;-2;-1;905;3966;-856;2;-0.0567867;-0.0235457;-0.6509695;-0.7566106;-1;0;0;581;4096;-637;8;0.3559557;-0.643353;-0.2423823;-0.632964;0;0;0;601;3179;2623;0.797438;2.485092;1.176914;0.8033022;3.019503;1.067401;0.8084524;3.488842;0.9691579;0.8676291;4.204919;1.118136;0.6367595;4.552217;1.146966;0.28424;4.430727;1.18027;-0.426506;4.861753;0.771142;0.4903593;4.634439;0.845191;1.155335;4.509347;1.147053;1.430898;4.335932;1.180461;1.951266;3.549488;1.377942;1.095191;3.244092;1.645628;0.4851766;2.442402;1.17855;0.2418087;1.286197;0.3155201;0;0;0;0.4851766;2.442402;1.17855;0.2418087;1.286197;0.3155201;0;0;0
218235.137;NotLabelled;16384;0.7359799;0.009695291;-0.4390582;0.5152354;1;2;0;3038;-1932;1967;65536;0.2077562;-0.3310249;0.9187984;0.05540166;-1;-2;0;2451;1018;-3255;8192;0.02770083;-0.3725762;-0.7694738;-0.5180055;1;-2;0;2184;3391;755;32768;-0.6759003;0.1177285;0.1121884;0.7188272;-1;0;2;3943;1269;184;256;0.5235457;-0.604002;0.3531856;0.4861496;-1;0;1;323;4016;-931;128;0.6299275;-0.5983379;0.2756233;0.4113573;0;-1;-1;-885;4155;274;4;0.6804193;-0.6537396;-0.2770083;0.1814404;0;0;1;2651;3252;258;16;-0.4445983;0.2368421;0.6257293;0.5955678;0;1;-1;783;3960;-776;2;-0.0567867;-0.0235457;-0.6509695;-0.7566106;-1;0;0;589;4084;-603;8;0.3559557;-0.643353;-0.2423823;-0.632964;0;0;0;581;3109;2631;0.7896004;2.48419;1.180057;0.7954646;3.0186;1.070544;0.8006147;3.48794;0.9723004;0.8598164;4.204017;1.121269;0.6289517;4.551315;1.150138;0.2764376;4.429824;1.1835;-0.4344131;4.861804;0.7755603;0.4825601;4.634982;0.849785;1.147527;4.508445;1.150137;1.423095;4.33503;1.1835;1.941149;3.54701;1.380784;1.08401;3.24334;1.647025;0.477339;2.4415;1.181692;0.2383515;1.286896;0.315302;0;0;0;0.477339;2.4415;1.181692;0.2383515;1.286896;0.315302;0;0;0
218255.1719;NotLabelled;16384;0.7359603;0.01108033;-0.4390582;0.5152354;0;1;0;3086;-1970;1937;65536;0.2077562;-0.3310249;0.9187984;0.05540166;-2;0;0;2499;1074;-3315;8192;0.02770083;-0.3725762;-0.7694738;-0.5180055;0;-1;-1;2142;3405;747;32768;-0.6759003;0.1177285;0.1108033;0.719042;-1;0;2;3947;1269;226;256;0.5235457;-0.6028846;0.3531856;0.4875346;-1;0;2;345;4040;-907;128;0.6305317;-0.5983379;0.2742382;0.4113573;2;1;-2;-791;4107;292;4;0.6804193;-0.6537396;-0.2770083;0.1814404;0;1;0;2549;3196;220;16;-0.4445983;0.2382271;0.6252033;0.5955678;0;-2;-1;911;3936;-760;2;-0.0567867;-0.0235457;-0.6509695;-0.7566106;0;0;0;527;4032;-583;8;0.3559557;-0.643353;-0.2423823;-0.632964;0;1;0;599;3127;2585;0.7855467;2.485004;1.178632;0.7914108;3.019417;1.069132;0.796561;3.488758;0.9708992;0.8573712;4.204695;1.119896;0.6272876;4.55251;1.148777;0.2745013;4.43181;1.182134;-0.4348009;4.865678;0.7735043;0.4819636;4.638857;0.8502617;1.145765;4.508474;1.148777;1.420943;4.334439;1.182133;1.93845;3.546419;1.380848;1.080519;3.244591;1.646632;0.4732853;2.442315;1.180267;0.2366922;1.28771;0.3132191;0;0;0;0.4732853;2.442315;1.180267;0.2366922;1.28771;0.3132191;0;0;0
218276.1435;NotLabelled;16384;0.736928;0.01108033;-0.4390582;0.5138504;0;1;1;2978;-1936;1905;65536;0.2077562;-0.3310249;0.9187984;0.05540166;0;0;0;2379;990;-3231;8192;0.02908587;-0.3739612;-0.7687505;-0.5180055;1;-2;-1;2194;3385;739;32768;-0.6759003;0.1177285;0.1108033;0.719042;-1;0;2;3877;1323;266;256;0.5235457;-0.6028846;0.3531856;0.4875346;-1;0;1;357;4018;-895;128;0.6327427;-0.5969529;0.2742382;0.4099723;4;2;-1;-757;4113;258;4;0.6804193;-0.6537396;-0.2770083;0.1814404;1;1;0;2527;3232;322;16;-0.4445983;0.2382271;0.6252033;0.5955678;0;0;0;915;3880;-682;2;-0.05817174;-0.0235457;-0.6509695;-0.7565053;0;2;0;593;4092;-585;8;0.3559557;-0.643353;-0.2423823;-0.632964;0;1;0;529;3163;2595;0.7860429;2.484995;1.178171;0.7919002;3.018776;1.065631;0.7970442;3.487551;0.9647298;0.8579172;4.203487;1.113701;0.6278456;4.551302;1.142679;0.2750735;4.430602;1.176184;-0.4347719;4.865683;0.7697923;0.4820248;4.638862;0.8461642;1.146323;4.507267;1.14246;1.421515;4.333231;1.175701;1.938868;3.543757;1.368966;1.081048;3.241927;1.63511;0.4737817;2.442315;1.180068;0.2368241;1.287711;0.3131198;0;0;0;0.4737817;2.442315;1.180068;0.2368241;1.287711;0.3131198;0;0;0
218297.1388;NotLabelled;16384;0.736928;0.01108033;-0.4390582;0.5138504;0;1;1;3008;-1984;1911;65536;0.2077562;-0.3310249;0.9187984;0.05540166;-1;0;0;2415;1110;-3211;8192;0.02908587;-0.3739612;-0.7687505;-0.5180055;0;-4;0;2270;3411;725;32768;-0.6759003;0.1177285;0.1108033;0.719042;-1;0;1;3857;1325;302;256;0.5235457;-0.6036938;0.3518005;0.4875346;0;2;0;379;3998;-861;128;0.6327427;-0.5969529;0.2742382;0.4099723;3;3;0;-767;4081;242;4;0.6804193;-0.6537396;-0.2770083;0.1814404;0;3;0;2395;3220;330;16;-0.4445983;0.2382271;0.6252033;0.5955678;0;0;0;959;3916;-606;2;-0.05817174;-0.0235457;-0.6509695;-0.7565053;-1;3;0;585;4144;-563;8;0.3559557;-0.6428294;-0.2437673;-0.632964;1;1;0;523;3161;2601;0.7879852;2.484994;1.177389;0.7938425;3.018775;1.064849;0.7989866;3.487551;0.9639477;0.8605617;4.203117;1.114396;0.6308574;4.551127;1.143939;0.2779322;4.430751;1.176992;-0.4324402;4.86351;0.7690463;0.4844812;4.636689;0.8439089;1.149286;4.506519;1.143939;1.424266;4.332113;1.176992;1.941874;3.543752;1.374079;1.084494;3.241924;1.641636;0.4757241;2.442315;1.179286;0.2373393;1.28771;0.3127293;0;0;0;0.4757241;2.442315;1.179286;0.2373393;1.28771;0.3127293;0;0;0
218317.2964;NotLabelled;16384;0.736928;0.01108033;-0.4390582;0.5138504;0;1;0;3036;-1984;1893;65536;0.2077562;-0.3310249;0.9187139;0.0567867;-1;0;0;2373;1034;-3151;8192;0.02908587;-0.3739612;-0.7687505;-0.5180055;1;-3;-2;2304;3411;775;32768;-0.6759003;0.1177285;0.1094183;0.7192541;-1;0;2;3923;1343;240;256;0.5235457;-0.6036938;0.3518005;0.4875346;-2;2;1;403;4004;-849;128;0.6327427;-0.5969529;0.2742382;0.4099723;3;4;0;-843;4089;230;4;0.6802219;-0.6537396;-0.2783934;0.1800554;0;5;0;2387;3220;364;16;-0.4445983;0.2382271;0.6252033;0.5955678;0;-1;0;987;3930;-672;2;-0.05817174;-0.0235457;-0.6509695;-0.7565053;0;4;0;517;4054;-561;8;0.3559557;-0.6428294;-0.2437673;-0.632964;0;2;0;543;3105;2603;0.7858081;2.485009;1.177965;0.7916654;3.01879;1.065425;0.7968094;3.487566;0.9645232;0.8583846;4.203133;1.114972;0.6286803;4.551143;1.144515;0.2757551;4.430766;1.177567;-0.4346172;4.863525;0.7696218;0.4817703;4.634302;0.8436998;1.147109;4.506535;1.144514;1.422088;4.332129;1.177567;1.939697;3.543767;1.374654;1.082269;3.243781;1.644122;0.473547;2.44233;1.179861;0.2373392;1.28771;0.3127293;0;0;0;0.473547;2.44233;1.179861;0.2373392;1.28771;0.3127293;0;0;0
218338.1332;NotLabelled;16384;0.7369059;0.01246537;-0.4390582;0.5138504;0;1;0;2986;-1996;1827;65536;0.2077562;-0.3310249;0.9187139;0.0567867;0;0;0;2419;1062;-3117;8192;0.02908587;-0.3739612;-0.7687505;-0.5180055;0;-2;0;2320;3423;713;32768;-0.6759003;0.1177285;0.1094183;0.7192541;0;0;1;3857;1347;198;256;0.5249307;-0.6036081;0.3518005;0.4861496;-1;2;0;295;3990;-853;128;0.633638;-0.5969529;0.2742382;0.4085872;1;5;0;-723;4015;214;4;0.6805869;-0.6537396;-0.2783934;0.1786704;0;3;0;2399;3188;292;16;-0.4445983;0.2382271;0.6252033;0.5955678;0;-5;-1;1033;3858;-710;2;-0.05955679;-0.02216066;-0.6509695;-0.7564394;0;3;0;503;4038;-483;8;0.3559557;-0.6428294;-0.2437673;-0.632964;0;1;0;551;3117;2563;0.7884715;2.486832;1.17426;0.7943259;3.02035;1.06048;0.7994674;3.48889;0.9584899;0.8610497;4.204904;1.106799;0.6313376;4.552989;1.135367;0.2784263;4.432697;1.168867;-0.4325909;4.867346;0.7640677;0.4840015;4.638122;0.8355623;1.149768;4.508404;1.135367;1.424764;4.334108;1.168867;1.942892;3.545747;1.364585;1.086227;3.245761;1.636468;0.4762104;2.444157;1.176263;0.2382199;1.28771;0.3120587;0;0;0;0.4762104;2.444157;1.176263;0.2382199;1.28771;0.3120587;0;0;0
218358.151;NotLabelled;16384;0.7369059;0.01246537;-0.4390582;0.5138504;1;0;0;2954;-1980;1837;65536;0.2077562;-0.3310249;0.9187139;0.0567867;0;-1;0;2431;1010;-3063;8192;0.02908587;-0.3739612;-0.7687505;-0.5180055;0;-1;0;2298;3337;737;32768;-0.6745152;0.1177285;0.1094183;0.7205532;0;1;0;3809;1367;312;256;0.5249307;-0.6036081;0.3518005;0.4861496;-2;1;0;331;3966;-841;128;0.633638;-0.5969529;0.2742382;0.4085872;3;2;0;-733;4041;236;4;0.6819147;-0.6523545;-0.2783934;0.1786704;0;1;0;2431;3200;312;16;-0.4459834;0.2396122;0.6250053;0.5941828;0;-14;-2;1139;3854;-644;2;-0.05955679;-0.02216066;-0.6509695;-0.7564394;-1;3;0;469;4006;-517;8;0.3559557;-0.6428294;-0.2437673;-0.632964;0;0;0;595;3093;2529;0.792797;2.486511;1.174166;0.7986515;3.020029;1.060386;0.8037928;3.488569;0.958396;0.8653752;4.204583;1.106705;0.635663;4.552669;1.135274;0.2827517;4.432376;1.168774;-0.428336;4.867025;0.7640981;0.4882566;4.637802;0.8355924;1.154093;4.508083;1.135273;1.429089;4.333787;1.168773;1.947251;3.545426;1.364401;1.090748;3.245481;1.636838;0.4805359;2.443836;1.176169;0.2373643;1.287614;0.3131077;0;0;0;0.4805359;2.443836;1.176169;0.2373643;1.287614;0.3131077;0;0;0
218379.168;NotLabelled;16384;0.7361011;0.01108033;-0.4404432;0.5138504;2;0;0;2960;-1912;1797;65536;0.2077562;-0.3310249;0.9187984;0.05540166;2;-1;0;2441;1032;-3101;8192;0.02908587;-0.3753462;-0.7680752;-0.5180055;0;0;2;2252;3313;703;32768;-0.6745152;0.1177285;0.1094183;0.7205532;0;3;0;3793;1343;298;256;0.5249307;-0.6036081;0.3518005;0.4861496;-3;1;0;323;3920;-921;128;0.633638;-0.5969529;0.2742382;0.4085872;0;2;0;-751;4043;270;4;0.6819147;-0.6523545;-0.2783934;0.1786704;-1;0;0;2351;3166;292;16;-0.4487534;0.2437673;0.6227268;0.5927978;-1;-15;-2;819;3936;-816;2;-0.06094183;-0.02216066;-0.6509695;-0.7563291;0;0;0;467;3976;-641;8;0.3559557;-0.6428294;-0.2437673;-0.632964;0;0;0;615;3149;2515;0.793878;2.487351;1.169859;0.7997324;3.020869;1.05608;0.8048738;3.489409;0.9540893;0.8664562;4.205422;1.102398;0.6367441;4.553508;1.130967;0.2838328;4.433215;1.164467;-0.4258612;4.867276;0.7567241;0.4912675;4.640455;0.8290018;1.155174;4.508923;1.130967;1.43017;4.334627;1.164467;1.948737;3.546872;1.361459;1.092233;3.246927;1.633896;0.4816169;2.444676;1.171863;0.2384453;1.288454;0.308801;0;0;0;0.4816169;2.444676;1.171863;0.2384453;1.288454;0.308801;0;0;0
218400.1571;NotLabelled;16384;0.7361011;0.01108033;-0.4404432;0.5138504;3;0;0;2968;-1954;1735;65536;0.2091413;-0.3310249;0.9184842;0.05540166;3;-1;0;2421;1028;-3095;8192;0.02908587;-0.3753462;-0.7680752;-0.5180055;1;0;3;2240;3355;797;32768;-0.6745152;0.1177285;0.1108033;0.7203415;0;4;-1;3867;1355;228;256;0.5263157;-0.6035159;0.3518005;0.4847645;-4;2;-1;269;3916;-855;128;0.6345289;-0.5969529;0.2742382;0.4072022;1;2;1;-711;4021;308;4;0.6819147;-0.6523545;-0.2783934;0.1786704;-1;-1;1;2461;3144;318;16;-0.4487534;0.2451524;0.6234996;0.5914127;-1;-5;-1;795;3988;-794;2;-0.06094183;-0.02216066;-0.6509695;-0.7563291;1;2;1;497;3982;-561;8;0.3559557;-0.6428294;-0.2437673;-0.632964;0;-2;-1;615;3041;2615;0.7928337;2.487928;1.169298;0.7986852;3.021182;1.054284;0.803824;3.489485;0.9512104;0.8654104;4.205938;1.097374;0.6356894;4.554098;1.124967;0.2827922;4.433888;1.158914;-0.4279752;4.867949;0.7530457;0.4889521;4.640292;0.825247;1.154122;4.509535;1.124966;1.429134;4.335353;1.158914;1.948219;3.547598;1.354537;1.092524;3.245805;1.627475;0.4805726;2.445258;1.171408;0.234975;1.289035;0.3090337;0;0;0;0.4805726;2.445258;1.171408;0.234975;1.289035;0.3090337;0;0;0
218420.1978;NotLabelled;16384;0.7361011;0.01108033;-0.4404432;0.5138504;4;0;-1;3000;-1930;1785;65536;0.2091413;-0.3310249;0.9184842;0.05540166;3;-3;0;2467;968;-3051;8192;0.02770083;-0.3753462;-0.7681264;-0.5180055;2;0;4;2224;3335;807;32768;-0.6731302;0.1177285;0.1108033;0.7216359;0;5;0;3827;1303;240;256;0.5263157;-0.6035159;0.3518005;0.4847645;-3;1;-1;367;3938;-845;128;0.6351258;-0.5969529;0.2728532;0.4072022;1;0;0;-741;4017;266;4;0.6815503;-0.6523545;-0.2783934;0.1800554;0;-4;2;2595;3116;226;16;-0.4487534;0.2451524;0.6234996;0.5914127;-1;-2;-1;883;3956;-790;2;-0.06094183;-0.02216066;-0.6509695;-0.7563291;0;0;2;543;3966;-521;8;0.3559557;-0.6441903;-0.2437673;-0.6315789;1;-5;-1;587;3039;2557;0.7934982;2.486105;1.171551;0.7993497;3.019361;1.056547;0.8044884;3.487665;0.9534823;0.8660749;4.204119;1.099647;0.6363537;4.552278;1.127239;0.2834564;4.432069;1.161186;-0.4273807;4.866121;0.7554303;0.4895469;4.638465;0.827633;1.154786;4.507716;1.127239;1.429799;4.333533;1.161187;1.949635;3.546734;1.358654;1.094104;3.244979;1.632147;0.4812371;2.443434;1.17366;0.2349748;1.289036;0.3090345;0;0;0;0.4812371;2.443434;1.17366;0.2349748;1.289036;0.3090345;0;0;0
218440.3404;NotLabelled;16384;0.7361206;0.009695291;-0.4404432;0.5138504;5;0;-1;3052;-1924;1801;65536;0.2091413;-0.3296399;0.9189821;0.05540166;4;-4;0;2443;1022;-3075;8192;0.02770083;-0.3753462;-0.7681264;-0.5180055;1;-1;5;2132;3331;757;32768;-0.6731302;0.1177285;0.1108033;0.7216359;0;5;0;3799;1255;276;256;0.5263157;-0.6027064;0.3531856;0.4847645;-4;0;0;347;3974;-861;128;0.6345289;-0.5969529;0.2742382;0.4072022;4;-1;0;-765;4047;214;4;0.6815503;-0.6523545;-0.2783934;0.1800554;0;-1;2;2607;3108;242;16;-0.4487534;0.2465374;0.6229532;0.5914127;-3;-3;-2;881;3984;-862;2;-0.06094183;-0.02216066;-0.6509695;-0.7563291;0;-1;1;473;3966;-689;8;0.3573407;-0.6439461;-0.2423823;-0.6315789;1;-4;-1;555;3155;2433;0.790262;2.486908;1.169793;0.7961136;3.020161;1.054779;0.8012524;3.488465;0.9517052;0.8620727;4.205278;1.096417;0.6319721;4.553239;1.123349;0.2792137;4.432709;1.1576;-0.4303612;4.864887;0.7476568;0.4865116;4.637728;0.8220853;1.150453;4.50925;1.123348;1.425664;4.33544;1.157598;1.944679;3.548632;1.357185;1.088584;3.246877;1.628907;0.4780008;2.444237;1.171903;0.233528;1.289839;0.3067694;0;0;0;0.4780008;2.444237;1.171903;0.233528;1.289839;0.3067694;0;0;0
218461.1802;NotLabelled;16384;0.7370855;0.009695291;-0.4404432;0.5124654;5;2;-2;2974;-1902;1871;65536;0.2091413;-0.3296399;0.9190646;0.05401662;4;-4;0;2487;1028;-3089;8192;0.02770083;-0.3767313;-0.767448;-0.5180055;2;0;5;2094;3391;807;32768;-0.6717451;0.1177285;0.1108033;0.7229254;-1;6;0;3831;1287;198;256;0.5277008;-0.6026077;0.3531856;0.4833795;-6;1;-1;379;3994;-833;128;0.6354157;-0.5969529;0.2742382;0.4058172;6;3;1;-781;4067;260;4;0.6811829;-0.6523545;-0.2783934;0.1814404;0;1;4;2573;3190;222;16;-0.4487534;0.2465374;0.6229532;0.5914127;-3;-1;-1;887;3962;-810;2;-0.06232687;-0.02216066;-0.6509695;-0.7562162;0;-2;1;525;3984;-721;8;0.3573407;-0.6439461;-0.2423823;-0.6315789;0;-3;0;549;3199;2445;0.7942122;2.485073;1.17059;0.8000609;3.01806;1.054348;0.8051971;3.486124;0.9501946;0.8660183;4.203369;1.092756;0.6359072;4.551396;1.118709;0.2831632;4.430951;1.153407;-0.4285633;4.862009;0.746021;0.489045;4.637251;0.8186574;1.154391;4.507433;1.118709;1.429619;4.333739;1.153407;1.949974;3.547549;1.351927;1.094809;3.245832;1.626604;0.4819511;2.442408;1.172806;0.234387;1.289839;0.3061136;0;0;0;0.4819511;2.442408;1.172806;0.234387;1.289839;0.3061136;0;0;0
218481.1399;NotLabelled;16384;0.7371024;0.008310249;-0.4404432;0.5124654;5;1;-3;3026;-1978;1875;65536;0.2091413;-0.3282548;0.9195601;0.05401662;4;-6;1;2465;1076;-3199;8192;0.02631579;-0.3767313;-0.7674968;-0.5180055;0;-3;3;2112;3317;823;32768;-0.6717451;0.1177285;0.1108033;0.7229254;-3;4;0;3881;1345;212;256;0.5277008;-0.6017938;0.3545706;0.4833795;-7;1;-1;395;4058;-861;128;0.636714;-0.5955678;0.2742382;0.4058172;8;-1;0;-771;4093;300;4;0.6806151;-0.6523545;-0.2797784;0.1814404;1;1;5;2605;3122;290;16;-0.4473684;0.2465374;0.6239486;0.5914127;-5;3;-1;853;3906;-860;2;-0.06232687;-0.02216066;-0.6509695;-0.7562162;0;0;0;491;4016;-473;8;0.3573407;-0.6453016;-0.2423823;-0.6301939;-1;-3;0;417;3205;2529;0.7870142;2.483912;1.174025;0.7928585;3.016507;1.055996;0.7979909;3.484219;0.9502749;0.8580843;4.201815;1.091365;0.6276023;4.549642;1.116712;0.2750052;4.428881;1.151799;-0.4356943;4.859418;0.742076;0.4818748;4.635159;0.8167207;1.146134;4.506247;1.116585;1.421566;4.332924;1.151519;1.941927;3.547023;1.351166;1.086259;3.245306;1.624272;0.4747533;2.441254;1.176396;0.2303018;1.290505;0.3064089;0;0;0;0.4747533;2.441254;1.176396;0.2303018;1.290505;0.3064089;0;0;0
218501.297;NotLabelled;16384;0.7380635;0.008310249;-0.4404432;0.5110803;7;2;-3;3112;-1976;1913;65536;0.2091413;-0.3268698;0.9201337;0.05263158;4;-7;1;2555;996;-3141;8192;0.02631579;-0.3781163;-0.7668154;-0.5180055;0;-3;3;2076;3353;835;32768;-0.6703601;0.1191136;0.1108033;0.7239833;-3;3;0;3821;1289;164;256;0.5277008;-0.6017938;0.3545706;0.4833795;-7;0;0;367;4006;-945;128;0.6361157;-0.5955678;0.2756233;0.4058172;7;-2;0;-823;4059;296;4;0.6796731;-0.6523545;-0.2811634;0.1828255;1;3;7;2567;3110;354;16;-0.4459834;0.2465374;0.6236257;0.5927978;-6;5;-2;921;3972;-798;2;-0.06094183;-0.02216066;-0.6509695;-0.7563291;0;2;0;369;4158;-543;8;0.3573407;-0.6439461;-0.2423823;-0.6315789;-2;2;1;383;3205;2587;0.7858682;2.48113;1.175428;0.7917124;3.013723;1.05739;0.7968446;3.481433;0.9516609;0.8569039;4.199031;1.092765;0.6264157;4.546857;1.118056;0.2738102;4.426096;1.153058;-0.4377825;4.854145;0.74228;0.4803832;4.632791;0.818246;1.144947;4.503462;1.118055;1.420371;4.33014;1.153057;1.94146;3.545527;1.35585;1.087008;3.242139;1.630902;0.4736072;2.438473;1.177799;0.2302421;1.291397;0.3026722;0;0;0;0.4736072;2.438473;1.177799;0.2302421;1.291397;0.3026722;0;0;0
218523.2856;NotLabelled;16384;0.7390349;0.006925208;-0.4404432;0.5096953;6;5;-3;3060;-1960;1913;65536;0.2091413;-0.3254848;0.9206245;0.05263158;3;-6;0;2403;956;-3273;8192;0.02631579;-0.3795014;-0.7661308;-0.5180055;0;-3;4;2268;3349;735;32768;-0.6703601;0.1191136;0.1094183;0.724194;-2;4;0;3909;1195;156;256;0.5290859;-0.6016886;0.3545706;0.4819945;-7;-1;0;341;3976;-1005;128;0.6374096;-0.5941828;0.2756233;0.4058172;3;-2;0;-883;4073;346;4;0.6794755;-0.6509695;-0.2839335;0.1842105;0;1;6;2805;3156;342;16;-0.4432133;0.2465374;0.6242821;0.5941828;-8;4;-3;935;3878;-820;2;-0.06094183;-0.02216066;-0.6509695;-0.7563291;-1;0;-2;391;4040;-603;8;0.3559557;-0.6447127;-0.2423823;-0.6315789;-8;-2;2;551;3305;2225;0.7884178;2.476895;1.176727;0.7942578;3.00909;1.056909;0.7993861;3.476444;0.9496152;0.8594427;4.194462;1.088563;0.6289425;4.542351;1.112874;0.276352;4.421676;1.148324;-0.4369286;4.846711;0.7373435;0.4815406;4.625856;0.8110605;1.147476;4.498982;1.112874;1.422918;4.32578;1.148324;1.944932;3.54179;1.351146;1.091213;3.240258;1.630483;0.476157;2.434246;1.179253;0.2276096;1.292934;0.2980673;0;0;0;0.476157;2.434246;1.179253;0.2276096;1.292934;0.2980673;0;0;0
218544.1384;NotLabelled;16384;0.7399882;0.006925208;-0.4404432;0.5083103;5;3;-2;3040;-1918;1975;65536;0.2091413;-0.3240997;0.921113;0.05263158;2;-5;1;2435;1014;-3325;8192;0.02631579;-0.3795014;-0.7661308;-0.5180055;0;-2;4;2196;3455;683;32768;-0.6703601;0.1191136;0.1094183;0.724194;-1;4;0;3937;1137;188;256;0.5290859;-0.6016886;0.3545706;0.4819945;-6;0;1;441;3974;-917;128;0.6365257;-0.5941828;0.2756233;0.4072022;4;0;0;-935;4073;366;4;0.6785177;-0.6509695;-0.2853186;0.1855956;1;0;6;2661;3124;380;16;-0.4418283;0.2465374;0.623944;0.5955678;-8;7;-3;825;3938;-682;2;-0.05955679;-0.02216066;-0.6509695;-0.7564394;-3;-5;-5;295;4028;-719;8;0.3559557;-0.6447127;-0.2423823;-0.6315789;-13;3;5;371;3455;2097;0.787564;2.47404;1.178071;0.793407;3.006509;1.059479;0.7985381;3.47411;0.9532627;0.8585946;4.192127;1.092211;0.6280946;4.540015;1.116522;0.275504;4.419341;1.151971;-0.4381036;4.843257;0.7404024;0.4804603;4.622903;0.814438;1.146628;4.496648;1.116521;1.42207;4.323444;1.151971;1.944134;3.539455;1.354667;1.090414;3.237924;1.634004;0.4753031;2.431385;1.180491;0.2276588;1.2938;0.294245;0;0;0;0.4753031;2.431385;1.180491;0.2276588;1.2938;0.294245;0;0;0
218564.1576;NotLabelled;16384;0.7399998;0.005540166;-0.4404432;0.5083103;3;2;-2;3112;-1932;1941;65536;0.2091413;-0.3240997;0.9211912;0.05124654;1;-4;1;2431;1036;-3285;8192;0.02631579;-0.3808864;-0.7654432;-0.5180055;3;-2;3;2146;3439;667;32768;-0.6689751;0.1191136;0.1080332;0.7256812;-1;5;1;3923;1217;276;256;0.5304709;-0.6004679;0.3545706;0.4819945;-6;4;0;473;4128;-859;128;0.638698;-0.5927978;0.2756233;0.4058172;4;5;0;-955;4143;158;4;0.6785177;-0.6509695;-0.2853186;0.1855956;2;0;6;2523;3118;316;16;-0.4404432;0.2465374;0.6235995;0.5969529;-9;13;-1;841;3980;-780;2;-0.05817174;-0.02077562;-0.6509695;-0.7565865;-2;-5;-12;117;3972;-683;8;0.3545706;-0.6446368;-0.2409972;-0.632964;-23;6;8;305;3541;1873;0.7876977;2.47488;1.173952;0.7935332;3.006671;1.052357;0.7986577;3.473665;0.9435034;0.8603349;4.191955;1.080316;0.6306098;4.540421;1.103656;0.2777625;4.420631;1.139549;-0.4360974;4.842648;0.7264684;0.4829836;4.624703;0.8012201;1.149046;4.495909;1.103656;1.424114;4.322204;1.139549;1.946512;3.538841;1.343797;1.092939;3.239216;1.625624;0.4754369;2.432239;1.176631;0.2277433;1.294654;0.2903994;0;0;0;0.4754369;2.432239;1.176631;0.2277433;1.294654;0.2903994;0;0;0
218605.167;NotLabelled;16384;0.7409494;0.005540166;-0.4404432;0.5069252;3;1;-1;3094;-2026;1935;65536;0.2091413;-0.3227147;0.9216772;0.05124654;2;-6;-1;2545;1020;-3123;8192;0.02631579;-0.3822715;-0.7647524;-0.5180055;4;-5;4;2218;3357;643;32768;-0.66759;0.1191136;0.1066482;0.72716;-2;8;2;3855;1253;414;256;0.533241;-0.5983011;0.3559557;0.4806094;-8;3;0;363;4066;-749;128;0.6408569;-0.5914127;0.2756233;0.4044321;10;8;0;-889;4045;102;4;0.6769652;-0.6509695;-0.2880886;0.1869806;1;0;6;2499;3096;436;16;-0.433518;0.2437673;0.6228731;0.6038781;-8;19;-3;1053;3854;-594;2;-0.04709141;-0.008310249;-0.6565097;-0.7528003;-22;19;-41;-465;4086;-259;8;0.3462604;-0.6439937;-0.232687;-0.6412742;-45;21;21;-59;3433;2675;0.7883375;2.47185;1.167418;0.7941655;3.002949;1.042832;0.7992831;3.469323;0.931352;0.8618264;4.188614;1.062387;0.6324918;4.537505;1.083103;0.2795411;4.418386;1.120192;-0.4350325;4.83928;0.7072006;0.4841987;4.621837;0.7815681;1.15088;4.492433;1.083103;1.425786;4.318723;1.120192;1.948835;3.535989;1.325184;1.095614;3.238285;1.610091;0.4760769;2.429225;1.170357;0.2302135;1.29727;0.27644;0;0;0;0.4760769;2.429225;1.170357;0.2302135;1.29727;0.27644;0;0;0
218625.3424;NotLabelled;16384;0.7409494;0.005540166;-0.4404432;0.5069252;5;4;-1;3152;-1966;1835;65536;0.2105263;-0.3213296;0.9218459;0.05124654;3;-7;-1;2483;976;-3065;8192;0.02493075;-0.3836565;-0.764105;-0.5180055;4;-6;5;2294;3367;623;32768;-0.666205;0.1191136;0.1066482;0.7284291;-2;8;2;3837;1265;324;256;0.533241;-0.5983011;0.3559557;0.4806094;-9;2;1;399;4006;-747;128;0.6417288;-0.5914127;0.2756233;0.4030471;3;12;0;-735;3935;134;4;0.6765811;-0.6509695;-0.2880886;0.1883656;0;0;6;2365;3054;468;16;-0.432133;0.2437673;0.6224911;0.6052631;-9;8;-7;1275;3988;-542;2;-0.04432133;-0.001385042;-0.6606648;-0.7493702;-22;10;-42;-129;4054;-643;8;-0.3393352;0.6426592;0.2313019;0.6467922;-47;26;19;143;3273;2777;0.7891757;2.470736;1.165642;0.7950004;3.001548;1.039843;0.8001153;3.467666;0.9272979;0.8626586;4.186958;1.058333;0.6333239;4.535848;1.079049;0.2803732;4.416729;1.116139;-0.4342001;4.837623;0.7031472;0.4847242;4.619869;0.7803409;1.151712;4.490777;1.079049;1.426618;4.317067;1.116138;1.950783;3.535943;1.3244;1.097723;3.238295;1.609851;0.4769151;2.428118;1.168686;0.2303904;1.298062;0.2725515;0;0;0;0.4769151;2.428118;1.168686;0.2303904;1.298062;0.2725515;0;0;0
218645.3148;NotLabelled;16384;0.741071;0.005540166;-0.4418283;0.5055401;7;6;0;3150;-1996;1865;65536;0.2105263;-0.3199446;0.9223275;0.05124654;5;-9;-3;2433;1006;-3087;8192;0.02493075;-0.3850415;-0.7624663;-0.5193906;4;-5;7;2342;3325;653;32768;-0.66482;0.1191136;0.1066482;0.7296935;-1;8;1;3863;1307;374;256;0.534626;-0.5981761;0.3559557;0.4792244;-9;1;1;343;3944;-769;128;0.6423219;-0.5914127;0.2742382;0.4030471;-1;2;-1;-651;3973;122;4;0.6759897;-0.6509695;-0.2894737;0.1883656;-1;-6;6;2449;3106;468;16;-0.4307479;0.2451524;0.6215581;0.6066482;-9;2;-8;1085;3884;-544;2;-0.0401662;0.002770083;-0.6620498;-0.7483776;-20;8;-38;25;4096;-477;8;-0.333795;0.6426592;0.2257618;0.6516146;-50;1;13;593;3101;2887;0.7901821;2.470341;1.16046;0.7960069;3.001155;1.034666;0.8011217;3.467273;0.9221251;0.863655;4.18696;1.05098;0.6343044;4.535897;1.070707;0.2813708;4.416868;1.108246;-0.4339106;4.837925;0.6966482;0.4853191;4.620677;0.7715974;1.152695;4.490857;1.070707;1.427622;4.317276;1.108247;1.951015;3.535709;1.316784;1.098916;3.238118;1.605149;0.4779216;2.427723;1.163503;0.230499;1.299556;0.2652377;0;0;0;0.4779216;2.427723;1.163503;0.230499;1.299556;0.2652377;0;0;0
218667.3024;NotLabelled;16384;0.742014;0.005540166;-0.4418283;0.5041551;10;6;0;3010;-1880;1853;65536;0.2119114;-0.3185596;0.9224896;0.05124654;6;-10;-4;2269;948;-3097;8192;0.0235457;-0.3864266;-0.7618094;-0.5193906;3;-3;7;2186;3275;627;32768;-0.6634349;0.1177285;0.1052632;0.731378;-1;8;1;3763;1229;334;256;0.5373961;-0.5948588;0.3573407;0.4792244;-10;0;1;385;3932;-701;128;0.6417288;-0.5914127;0.2756233;0.4030471;6;0;-1;-615;3897;190;4;0.6758038;-0.6509695;-0.2880886;0.1911357;-3;-14;7;2503;3158;466;16;-0.4293629;0.2451524;0.6225157;0.6066482;-9;2;-9;1109;3898;-520;2;-0.03739612;0.008310249;-0.66482;-0.7460207;-18;14;-36;-249;3886;-501;8;-0.3296399;0.6440443;0.2202216;0.6542529;-51;-19;9;563;2953;2817;0.7873818;2.469064;1.162774;0.7932066;2.999877;1.036975;0.7983214;3.465994;0.9244293;0.8633791;4.186471;1.047491;0.6352233;4.536328;1.064592;0.2819166;4.418799;1.103325;-0.431621;4.838734;0.6875761;0.4871464;4.621187;0.7671735;1.153459;4.489536;1.064591;1.427824;4.31533;1.103325;1.951328;3.535394;1.317613;1.097669;3.241436;1.605089;0.4751213;2.426446;1.165818;0.2265534;1.300206;0.2654534;0;0;0;0.4751213;2.426446;1.165818;0.2265534;1.300206;0.2654534;0;0;0
218688.2956;NotLabelled;16384;0.7430732;0.004155125;-0.4432133;0.501385;12;7;1;2784;-1790;1857;65536;0.2132964;-0.3157895;0.9231985;0.04986149;7;-9;-4;2049;924;-3077;8192;0.02216066;-0.3878116;-0.7611468;-0.5193906;3;-4;7;2164;3277;661;32768;-0.6634349;0.1177285;0.1052632;0.731378;-2;8;0;3661;1257;238;256;0.5373961;-0.5948588;0.3573407;0.4792244;-10;-2;0;367;3794;-745;128;0.6430025;-0.5900277;0.2756233;0.4030471;0;-4;0;-607;3743;240;4;0.6761358;-0.6495845;-0.2867036;0.1966759;-5;-14;12;2613;2962;302;16;-0.4265928;0.2479224;0.6219715;0.6080332;-13;-3;-13;1199;3922;-702;2;-0.03462604;0.01385042;-0.66759;-0.7435945;-19;12;-36;-307;3870;-169;8;-0.3268698;0.6468144;0.2119114;0.655653;-49;-24;7;671;2657;3019;0.7919073;2.465857;1.157695;0.7977275;2.996248;1.030131;0.8028382;3.461988;0.9160346;0.8678959;4.182465;1.039096;0.6397401;4.532322;1.056197;0.2864334;4.414793;1.09493;-0.4261228;4.831847;0.6746233;0.4929204;4.616937;0.7581106;1.157976;4.485529;1.056196;1.432341;4.311324;1.09493;1.956947;3.533035;1.312485;1.103288;3.239078;1.599961;0.4796469;2.423249;1.160892;0.2217067;1.30299;0.2557157;0;0;0;0.4796469;2.423249;1.160892;0.2217067;1.30299;0.2557157;0;0;0
218708.148;NotLabelled;16384;0.7431855;0.002770083;-0.4445983;0.5;12;6;0;2744;-1724;1899;65536;0.2132964;-0.3130194;0.9241414;0.04986149;8;-8;-3;2051;900;-3111;8192;0.02216066;-0.3891967;-0.7604395;-0.5193906;3;-4;8;2138;3251;741;32768;-0.6620498;0.1191136;0.1052632;0.7324081;-2;8;0;3693;1263;206;256;0.5387812;-0.5927687;0.3587258;0.4792244;-9;-4;0;307;3706;-725;128;0.641536;-0.5900277;0.2770083;0.4044321;0;-11;0;-777;3927;342;4;0.6753239;-0.6495845;-0.2867036;0.199446;-6;-16;17;2703;2896;184;16;-0.4252077;0.2506925;0.6204523;0.6094183;-15;-4;-15;963;3936;-734;2;-0.02493075;0.01939058;-0.6717451;-0.7401087;-11;-19;-24;331;3924;-437;8;-0.3199446;0.6509695;0.1980609;0.6592769;-36;-4;5;1063;2047;3377;0.7894319;2.464068;1.153654;0.7952552;2.994749;1.027296;0.8003688;3.460747;0.9142604;0.8663353;4.181754;1.033678;0.6386013;4.531963;1.049126;0.2851735;4.415048;1.088609;-0.4253672;4.830341;0.6631758;0.4936864;4.616461;0.7491603;1.156781;4.484557;1.049126;1.430958;4.310223;1.088609;1.955567;3.532592;1.3085;1.102608;3.237001;1.59638;0.4771713;2.421453;1.156746;0.2197793;1.305063;0.2466474;0;0;0;0.4771713;2.421453;1.156746;0.2197793;1.305063;0.2466474;0;0;0
218729.1656;NotLabelled;16384;0.7432862;0.002770083;-0.4459834;0.4986149;12;5;0;2636;-1638;1967;65536;0.2146814;-0.3116343;0.9243624;0.04847645;7;-8;-2;1953;848;-3173;8192;0.02216066;-0.3891967;-0.7613837;-0.5180055;2;-3;8;2112;3191;777;32768;-0.6606648;0.1191136;0.1052632;0.7336577;-2;7;-1;3587;1269;122;256;0.5387812;-0.5919283;0.3601108;0.4792244;-8;-4;0;237;3672;-743;128;0.6400601;-0.5900277;0.2783934;0.4058172;2;-22;1;-845;3859;386;4;0.673663;-0.6495845;-0.2867036;0.2049861;-8;-24;19;2909;2888;208;16;-0.4238227;0.2534626;0.6202745;0.6094183;-18;-6;-18;1215;3964;-814;2;-0.02077562;0.01800554;-0.6717451;-0.740272;-5;-22;-16;623;3984;-695;8;-0.3171745;0.6523545;0.1925208;0.6608855;-31;-1;3;1061;2159;3121;0.7845362;2.458205;1.157647;0.7903625;2.989173;1.032501;0.7954788;3.455428;0.9205285;0.8607166;4.176744;1.038466;0.632621;4.526746;1.053245;0.2793227;4.409544;1.093031;-0.428689;4.824975;0.6635365;0.4903294;4.613242;0.7550296;1.15085;4.47988;1.053245;1.425215;4.305912;1.093031;1.951712;3.529359;1.312215;1.098305;3.233831;1.598829;0.4722757;2.415584;1.160634;0.2142256;1.306998;0.2412295;0;0;0;0.4722757;2.415584;1.160634;0.2142256;1.306998;0.2412295;0;0;0
218750.2648;NotLabelled;16384;0.7442173;0.001385042;-0.4459834;0.4972299;11;5;0;2630;-1562;2057;65536;0.2146814;-0.3102493;0.9248282;0.04847645;6;-6;0;1975;926;-3201;8192;0.02077562;-0.3905817;-0.7607132;-0.5180055;1;-4;7;2014;3173;787;32768;-0.6606648;0.1191136;0.1052632;0.7336577;-3;5;-2;3561;1339;122;256;0.5387812;-0.5910835;0.3614958;0.4792244;-6;-3;0;195;3694;-713;128;0.6398517;-0.5886427;0.2797784;0.4072022;8;-16;2;-909;3841;344;4;0.6728537;-0.6481994;-0.2867036;0.2119114;-6;-27;24;3053;2706;240;16;-0.4224377;0.2576177;0.619507;0.6094183;-22;-4;-19;875;4038;-1064;2;-0.01939058;0.01800554;-0.6731302;-0.7390505;-2;-9;-11;777;4058;-393;8;-0.3144044;0.6537396;0.1869806;0.6624294;-26;-3;3;1233;2089;3231;0.7845508;2.450648;1.159567;0.7903758;2.981486;1.033875;0.7954909;3.447626;0.9214233;0.8600048;4.169249;1.037878;0.6315503;4.519044;1.051985;0.2783804;4.401559;1.092075;-0.4291915;4.813939;0.6589304;0.4897199;4.602726;0.7526749;1.149827;4.472713;1.051985;1.424379;4.299111;1.092075;1.951426;3.524221;1.315782;1.097413;3.228693;1.600587;0.4722902;2.40803;1.162602;0.2078794;1.309519;0.2329669;0;0;0;0.4722902;2.40803;1.162602;0.2078794;1.309519;0.2329669;0;0;0
218771.1408;NotLabelled;16384;0.7443113;0;-0.4473684;0.4958449;9;3;-1;2642;-1624;2105;65536;0.2146814;-0.3088643;0.9252917;0.04847645;5;-5;0;1967;920;-3273;8192;0.02077562;-0.3919668;-0.7609426;-0.5166205;-3;-4;2;2068;3195;767;32768;-0.6606648;0.1204986;0.1052632;0.7334315;-6;0;-1;3647;1303;110;256;0.5387812;-0.5910835;0.3614958;0.4792244;-5;-3;0;311;3846;-741;128;0.6390237;-0.5872576;0.2825485;0.4085872;6;-18;2;-553;3789;284;4;0.6710837;-0.6481994;-0.2867036;0.2174515;-7;-24;27;3145;2772;154;16;-0.4196676;0.2603878;0.6188672;0.6108033;-24;2;-19;667;4096;-840;2;-0.01800554;0.0166205;-0.6731302;-0.739118;-2;-15;-6;821;4108;-465;8;-0.3116343;0.6537396;0.1842105;0.6645111;-22;0;4;841;2125;3215;0.782375;2.445106;1.158242;0.7881986;2.975816;1.032007;0.7933124;3.441841;0.9190784;0.8578265;4.163462;1.035533;0.6293719;4.513258;1.04964;0.276202;4.395773;1.08973;-0.4301213;4.806368;0.6528686;0.488879;4.595677;0.7469165;1.147649;4.466927;1.04964;1.422201;4.293324;1.08973;1.952017;3.520181;1.312938;1.099134;3.222965;1.599365;0.4701144;2.40249;1.161324;0.2031731;1.311985;0.2230277;0;0;0;0.4701144;2.40249;1.161324;0.2031731;1.311985;0.2230277;0;0;0
218791.2476;NotLabelled;16384;0.7470627;0;-0.4473684;0.4916897;0;0;-4;2798;-1722;2291;65536;0.2146814;-0.3060942;0.9262832;0.04709141;2;-1;3;2039;852;-3365;8192;0.02216066;-0.3919668;-0.7609036;-0.5166205;-4;-5;0;2112;3303;757;32768;-0.6606648;0.1218837;0.1052632;0.7332026;-7;-2;-1;3751;1299;194;256;0.5373961;-0.5914955;0.3628809;0.4792244;-2;-2;-1;303;3812;-717;128;0.637521;-0.5872576;0.2839335;0.4099723;-2;-10;1;-913;3889;188;4;0.6700081;-0.6468144;-0.2880886;0.2229917;-2;-13;28;3231;2656;40;16;-0.4155124;0.2631579;0.6191307;0.6121883;-26;7;-20;677;4040;-878;2;-0.0166205;0.01385042;-0.6731302;-0.7392075;0;-10;-2;559;3936;-635;8;-0.3088643;0.6551247;0.1814404;0.6652021;-20;3;4;811;2383;3151;0.7778419;2.437732;1.159174;0.7836688;2.968731;1.034162;0.7887855;3.435015;0.9223077;0.8509253;4.156734;1.039447;0.6213248;4.505767;1.053864;0.2685385;4.387087;1.093814;-0.4375424;4.794235;0.6533484;0.4818977;4.587009;0.7507348;1.139751;4.461134;1.053864;1.414867;4.288393;1.093813;1.943566;3.514242;1.31617;1.091192;3.215337;1.602357;0.4655814;2.39511;1.162149;0.1947055;1.314914;0.2131174;0;0;0;0.4655814;2.39511;1.162149;0.1947055;1.314914;0.2131174;0;0;0
218811.171;NotLabelled;16384;0.7470614;-0.001385042;-0.4473684;0.4916897;0;0;-4;2860;-1672;2173;65536;0.2132964;-0.3060942;0.9266031;0.04709141;0;-1;4;2035;828;-3381;8192;0.0235457;-0.3919668;-0.7618005;-0.5152354;-6;-6;-1;2144;3241;745;32768;-0.6620498;0.1232687;0.1038781;0.7319182;-9;-4;-1;3783;1241;292;256;0.5373961;-0.5906435;0.3642659;0.4792244;-1;-3;-1;325;3920;-641;128;0.6372848;-0.5858725;0.2853186;0.4113573;3;-8;0;-825;3879;152;4;0.664882;-0.6454294;-0.2963989;0.2313019;2;7;30;3287;2666;116;16;-0.4072022;0.2686981;0.6149584;0.6195272;-31;20;-21;531;3826;-478;2;-0.0166205;0.01385042;-0.6731302;-0.7392075;-2;2;-1;207;4044;-441;8;-0.3047091;0.6551247;0.1772853;0.668232;-20;1;4;821;2577;3005;0.7707171;2.418162;1.154971;0.7765425;2.949037;1.029434;0.7816581;3.41521;0.9171185;0.8430809;4.137232;1.032764;0.6131264;4.486059;1.046504;0.2604684;4.367101;1.08676;-0.4449398;4.77233;0.6434578;0.4747344;4.56588;0.7402789;1.131598;4.441954;1.046504;1.406897;4.269578;1.08676;1.936762;3.495509;1.306615;1.084724;3.196723;1.593925;0.4584566;2.375543;1.157992;0.1908688;1.320374;0.1803035;0;0;0;0.4584566;2.375543;1.157992;0.1908688;1.320374;0.1803035;0;0;0
218832.3612;NotLabelled;16384;0.7478891;-0.001385042;-0.4459834;0.4916897;-2;0;-5;2824;-1690;2181;65536;0.2132964;-0.3060942;0.9266031;0.04709141;0;0;5;2087;894;-3355;8192;0.02493075;-0.3933518;-0.7610422;-0.5152354;-8;-7;-3;2232;3217;671;32768;-0.6620498;0.1246537;0.1024931;0.7318789;-10;-5;0;3761;1257;326;256;0.5373961;-0.5897871;0.365651;0.4792244;0;-4;-2;321;3870;-653;128;0.6372848;-0.5858725;0.2853186;0.4113573;8;-5;0;-847;3905;88;4;0.6633887;-0.6440443;-0.300554;0.234072;6;10;30;3023;2702;316;16;-0.4016621;0.2700831;0.6149584;0.6225343;-33;22;-21;765;3980;-378;2;-0.01800554;0.01523546;-0.6745152;-0.7378841;-5;8;-3;25;3952;-297;8;-0.301939;0.6551247;0.1745152;0.6702156;-23;2;5;517;2885;2793;0.7636405;2.409873;1.154541;0.7694659;2.940748;1.029003;0.7745814;3.406921;0.916688;0.8352925;4.129241;1.030835;0.6049869;4.477862;1.043897;0.2524567;4.35863;1.08446;-0.453871;4.762595;0.6414672;0.4655946;4.556145;0.740252;1.123503;4.434284;1.043896;1.398984;4.262269;1.084459;1.928096;3.48785;1.304887;1.076553;3.189255;1.593858;0.4513799;2.367253;1.157562;0.1848024;1.322843;0.1681161;0;0;0;0.4513799;2.367253;1.157562;0.1848024;1.322843;0.1681161;0;0;0
218854.1503;NotLabelled;16384;0.7487133;-0.001385042;-0.4445983;0.4916897;-3;-1;-4;2838;-1660;2143;65536;0.2119114;-0.3060942;0.9269209;0.04709141;0;1;6;2043;770;-3359;8192;0.02631579;-0.3933518;-0.7619315;-0.5138504;-8;-7;-5;2410;3191;577;32768;-0.6620498;0.1260388;0.101108;0.7318343;-9;-7;-1;3721;1245;390;256;0.5373961;-0.5897871;0.365651;0.4792244;0;-3;-2;313;3920;-647;128;0.6379346;-0.5844875;0.2867036;0.4113573;9;0;1;-753;3889;274;4;0.6623454;-0.6426592;-0.3047091;0.2354571;3;13;31;2859;2774;380;16;-0.3975069;0.2728532;0.6135734;0.6253536;-34;10;-23;933;4036;-336;2;-0.01800554;0.0166205;-0.6745152;-0.7378542;-4;6;-5;-151;3892;-531;8;-0.299169;0.6565097;0.1731302;0.6704617;-27;5;5;501;2911;2773;0.7603662;2.40341;1.148787;0.766187;2.933867;1.021496;0.7712983;3.399666;0.9076405;0.8320094;4.121986;1.021787;0.6017039;4.470607;1.034849;0.2491737;4.351376;1.075412;-0.4590124;4.754077;0.6342397;0.4608943;4.548402;0.7305021;1.12022;4.42703;1.034849;1.395701;4.255014;1.075411;1.926477;3.480685;1.292122;1.076054;3.182282;1.584567;0.4481057;2.360801;1.15196;0.1811789;1.325122;0.1534714;0;0;0;0.4481057;2.360801;1.15196;0.1811789;1.325122;0.1534714;0;0;0
218874.1514;NotLabelled;16384;0.7487133;-0.001385042;-0.4445983;0.4916897;-4;-2;-4;2848;-1668;2117;65536;0.2105263;-0.3060942;0.9273058;0.04570637;-1;2;5;2105;808;-3283;8192;0.02908587;-0.3947368;-0.7620473;-0.5124654;-7;-3;-4;2524;3093;457;32768;-0.6634349;0.1288089;0.09972299;0.7302861;-3;-6;-2;3677;1237;432;256;0.536011;-0.5910462;0.365651;0.4792244;1;-2;-3;301;3800;-721;128;0.6388256;-0.5844875;0.2867036;0.4099723;5;0;0;-777;3959;230;4;0.6621122;-0.6398892;-0.3088643;0.2382271;-1;8;30;2739;2854;532;16;-0.3919668;0.2756233;0.6121883;0.6289827;-33;5;-23;573;3930;-212;2;-0.01800554;0.01939058;-0.6759003;-0.7365179;-8;16;-9;-369;3854;-343;8;-0.2963989;0.6565097;0.1703601;0.6723988;-29;0;5;697;2533;3155;0.7617109;2.394733;1.141179;0.7675285;2.924893;1.012657;0.772637;3.390427;0.8977207;0.8316901;4.112539;1.014035;0.6005955;4.460599;1.028079;0.2483253;4.340452;1.068197;-0.4597641;4.743154;0.62687;0.4610331;4.540682;0.7213916;1.119208;4.418191;1.028078;1.395067;4.246678;1.068197;1.927141;3.472086;1.280752;1.078836;3.172084;1.577679;0.4494507;2.352131;1.14446;0.1767049;1.327626;0.1360667;0;0;0;0.4494507;2.352131;1.14446;0.1767049;1.327626;0.1360667;0;0;0
218895.2031;NotLabelled;16384;0.7486236;-0.001385042;-0.4432133;0.4930748;-5;-3;-3;2898;-1712;2075;65536;0.2105263;-0.3060942;0.9273058;0.04570637;-1;4;6;2079;892;-3313;8192;0.03047091;-0.3947368;-0.7619932;-0.5124654;-6;0;-4;2508;3081;459;32768;-0.66482;0.1288089;0.09972299;0.7290254;-2;-4;-2;3757;1207;408;256;0.534626;-0.590317;0.367036;0.4806094;2;-1;-2;307;3842;-647;128;0.6388256;-0.5844875;0.2867036;0.4099723;-2;1;0;-661;4035;128;4;0.6616513;-0.6385041;-0.3116343;0.2396122;0;6;27;2483;2892;310;16;-0.3878116;0.2797784;0.6108033;0.631067;-32;8;-22;357;3838;80;2;-0.01800554;0.02216066;-0.6759003;-0.7364398;-8;10;-9;-213;4018;-405;8;-0.2936288;0.6578947;0.166205;0.6732997;-32;-2;3;741;2485;3029;0.7574338;2.390331;1.131654;0.7632514;2.920491;1.003132;0.7683598;3.386025;0.8881953;0.8272907;4.108084;1.004902;0.595937;4.455911;1.02039;0.2439789;4.335391;1.062098;-0.4683213;4.737705;0.6272402;0.4524757;4.535232;0.7217617;1.114584;4.413996;1.017843;1.390795;4.242709;1.056466;1.923948;3.467424;1.263727;1.075488;3.167321;1.560105;0.4451735;2.347729;1.134934;0.1704809;1.329962;0.1202655;0;0;0;0.4451735;2.347729;1.134934;0.1704809;1.329962;0.1202655;0;0;0
218915.4372;NotLabelled;16384;0.7485288;-0.001385042;-0.4418283;0.4944598;-5;-4;-3;2940;-1712;1989;65536;0.2091413;-0.3074792;0.927161;0.04570637;-2;5;5;2227;868;-3245;8192;0.03047091;-0.3947368;-0.7619932;-0.5124654;-5;2;-3;2408;3173;489;32768;-0.66482;0.1288089;0.09972299;0.7290254;0;-3;-3;3767;1297;476;256;0.534626;-0.590317;0.367036;0.4806094;2;-2;-2;331;3884;-663;128;0.6375556;-0.5858725;0.2867036;0.4099723;-1;2;1;-693;3941;158;4;0.6594951;-0.6371191;-0.3157895;0.2437673;3;-8;25;2713;2686;166;16;-0.3795014;0.2880886;0.6066482;0.636366;-33;0;-24;641;4164;-106;2;-0.01800554;0.0235457;-0.6772853;-0.7351231;-5;3;-8;-93;3874;-435;8;-0.2922437;0.6592798;0.1620499;0.6735604;-34;-12;1;1021;2467;2943;0.7440866;2.380713;1.111942;0.7499087;2.911294;0.9851671;0.7550212;3.377203;0.8717645;0.8133785;4.099262;0.9887592;0.5819515;4.447089;1.003111;0.2297927;4.32657;1.04309;-0.479502;4.729017;0.6034698;0.4411772;4.526814;0.6996998;1.100605;4.405175;1.00311;1.376623;4.233888;1.04309;1.90699;3.458293;1.256258;1.057084;3.15819;1.548467;0.4318261;2.338101;1.115071;0.1610293;1.333788;0.08604897;0;0;0;0.4318261;2.338101;1.115071;0.1610293;1.333788;0.08604897;0;0;0
218936.2659;NotLabelled;16384;0.747612;-0.001385042;-0.4418283;0.4958449;-4;-3;-2;2948;-1634;1935;65536;0.2091413;-0.3088643;0.9267004;0.04570637;-1;5;5;2219;772;-3187;8192;0.03047091;-0.3947368;-0.7629228;-0.5110803;-3;3;0;2332;3165;567;32768;-0.66482;0.1301939;0.09972299;0.7287793;2;0;-3;3621;1191;436;256;0.533241;-0.5915685;0.367036;0.4806094;3;0;-2;303;3806;-689;128;0.6375556;-0.5858725;0.2867036;0.4099723;-1;1;1;-685;3843;204;4;0.6572777;-0.6371191;-0.3171745;0.2479224;4;-11;27;2763;2750;122;16;-0.3753462;0.2922437;0.6052631;0.6382518;-31;5;-25;333;4024;-92;2;-0.01523546;0.02770083;-0.6772853;-0.7350409;-2;0;-10;-367;3696;-329;8;-0.2880886;0.6620498;0.1523546;0.6748949;-37;-9;2;725;2339;3159;0.737389;2.373411;1.105071;0.7432112;2.903991;0.9782958;0.7483237;3.369901;0.8648935;0.8050234;4.09174;0.9840447;0.5728085;4.439;0.9993728;0.2209134;4.317566;1.03891;-0.4881571;4.721154;0.5999722;0.4324355;4.51844;0.695957;1.091555;4.398255;0.9993724;1.36795;4.227473;1.038909;1.900642;3.452988;1.250302;1.051876;3.151186;1.54407;0.4251285;2.330798;1.108199;0.1546014;1.335465;0.07041957;0;0;0;0.4251285;2.330798;1.108199;0.1546014;1.335465;0.07041957;0;0;0
218957.1402;NotLabelled;16384;0.7484288;-0.001385042;-0.4404432;0.4958449;-5;-3;-1;2902;-1622;1941;65536;0.2077562;-0.3088643;0.9270792;0.04432133;-1;5;3;2203;712;-3097;8192;0.03047091;-0.3947368;-0.7629228;-0.5110803;-1;2;2;2322;3183;677;32768;-0.66482;0.1301939;0.101108;0.7285885;3;0;-4;3577;1235;394;256;0.533241;-0.5915685;0.367036;0.4806094;2;-1;-2;251;3750;-691;128;0.6375556;-0.5858725;0.2867036;0.4099723;0;1;0;-727;3875;50;4;0.6548801;-0.6371191;-0.3199446;0.2506925;2;1;27;2727;2754;320;16;-0.3711911;0.2950138;0.6038781;0.6407146;-31;6;-25;575;3966;42;2;-0.01385042;0.02770083;-0.6786703;-0.7337897;-2;-3;-9;-303;3782;-515;8;-0.2839335;0.6634349;0.1468144;0.6765216;-37;-3;2;767;2137;3429;0.7307549;2.36546;1.100048;0.736577;2.896041;0.9732734;0.7416895;3.36195;0.859871;0.7983892;4.083789;0.9790223;0.5661743;4.431049;0.9943504;0.2142792;4.309617;1.033887;-0.496635;4.711927;0.5967658;0.4248422;4.512425;0.6909739;1.084921;4.390305;0.99435;1.361316;4.219523;1.033887;1.894008;3.445037;1.24528;1.045266;3.14136;1.537179;0.4184943;2.322848;1.103177;0.1507185;1.336588;0.05606299;0;0;0;0.4184943;2.322848;1.103177;0.1507185;1.336588;0.05606299;0;0;0
218977.1296;NotLabelled;16384;0.7483237;-0.001385042;-0.4390582;0.4972299;-3;-4;-2;2906;-1686;1937;65536;0.2077562;-0.3102493;0.9266166;0.04432133;-1;4;4;2285;720;-3145;8192;0.02908587;-0.3933518;-0.7636918;-0.5110803;0;3;0;2150;3087;719;32768;-0.66482;0.1315789;0.1024931;0.728146;1;0;-3;3673;1343;314;256;0.533241;-0.5915685;0.367036;0.4806094;3;-3;-2;233;3808;-671;128;0.6375556;-0.5858725;0.2867036;0.4099723;0;-4;0;-713;3961;84;4;0.654335;-0.6357341;-0.3227147;0.2520775;-2;3;25;2787;2774;434;16;-0.367036;0.299169;0.602493;0.6424832;-29;5;-24;493;3990;252;2;-0.01108033;0.02908587;-0.6786703;-0.7337832;0;-9;-7;-107;4026;-487;8;-0.2797784;0.66482;0.1426593;0.6777808;-36;-1;1;751;2373;3355;0.725845;2.359737;1.090662;0.7316673;2.890318;0.9638864;0.7367797;3.356227;0.8504841;0.7934794;4.078066;0.9696352;0.5612646;4.425326;0.9849635;0.2093695;4.303893;1.0245;-0.5031793;4.70606;0.5899144;0.4182179;4.506052;0.6838349;1.080011;4.384581;0.9849629;1.356406;4.213799;1.0245;1.889408;3.43968;1.236451;1.041858;3.132431;1.528077;0.4135845;2.317125;1.09379;0.1441454;1.337874;0.04054298;0;0;0;0.4135845;2.317125;1.09379;0.1441454;1.337874;0.04054298;0;0;0
218997.1531;NotLabelled;16384;0.7483237;-0.001385042;-0.4390582;0.4972299;-2;-2;-2;2940;-1718;2013;65536;0.2063712;-0.3102493;0.9269261;0.04432133;-1;2;4;2291;888;-3213;8192;0.02908587;-0.3933518;-0.764617;-0.5096953;-3;2;1;2080;3185;803;32768;-0.66482;0.1315789;0.1024931;0.728146;-1;-2;-1;3775;1323;336;256;0.5318559;-0.592814;0.367036;0.4806094;2;-5;-1;243;3936;-695;128;0.636931;-0.5858725;0.2880886;0.4099723;-1;-11;0;-715;4077;58;4;0.6539215;-0.634349;-0.3240997;0.2548476;-4;-3;24;2875;2770;260;16;-0.3628809;0.3033241;0.601108;0.6441903;-30;0;-25;689;4086;176;2;-0.009695291;0.02770083;-0.6772853;-0.7351348;1;-10;-6;-49;4110;-323;8;-0.2770083;0.666205;0.1385041;0.6784202;-36;-9;0;907;2413;3345;0.7232823;2.353748;1.080692;0.7291045;2.884328;0.9539123;0.734217;3.350236;0.8405055;0.7892636;4.071845;0.9618071;0.5562636;4.418533;0.9781096;0.204634;4.296192;1.017205;-0.5078931;4.69836;0.5825837;0.4139235;4.499139;0.674031;1.0751;4.378957;0.9781094;1.351871;4.208683;1.017205;1.887192;3.435682;1.227389;1.039628;3.128433;1.518973;0.4110218;2.311135;1.083821;0.1374826;1.338954;0.02509724;0;0;0;0.4110218;2.311135;1.083821;0.1374826;1.338954;0.02509724;0;0;0
219017.2352;NotLabelled;16384;0.7482135;-0.001385042;-0.4376731;0.4986149;-1;0;-4;3080;-1752;2119;65536;0.2063712;-0.3116343;0.9264613;0.04432133;0;0;3;2393;868;-3359;8192;0.03047091;-0.3933518;-0.764563;-0.5096953;-4;0;0;2066;3317;859;32768;-0.66482;0.1315789;0.1024931;0.728146;-4;-4;0;3845;1231;362;256;0.5304709;-0.5920709;0.368421;0.4819945;0;-8;0;295;4058;-655;128;0.6357854;-0.5844875;0.2894737;0.4127424;0;-8;0;-817;4083;20;4;0.6536838;-0.6301939;-0.3282548;0.2603878;-4;-3;25;2883;2690;410;16;-0.3559557;0.3116343;0.5969529;0.6479405;-28;-3;-26;459;4020;254;2;-0.008310249;0.02770083;-0.6786703;-0.7338734;-1;-8;-7;37;4192;-91;8;-0.2756233;0.6689751;0.132964;0.6773661;-36;-12;1;713;2205;3305;0.7199528;2.338072;1.063649;0.7257768;2.868822;0.9375846;0.730891;3.334883;0.824806;0.7852265;4.056434;0.9467694;0.5518916;4.402884;0.9633496;0.2003736;4.28017;1.002279;-0.5094255;4.681598;0.5625417;0.4118428;4.481874;0.6583108;1.070766;4.363806;0.9633941;1.347693;4.19376;1.002378;1.880209;3.420047;1.21702;1.031197;3.112798;1.50436;0.4076923;2.295455;1.066717;0.1283471;1.340083;-0.005704932;0;0;0;0.4076923;2.295455;1.066717;0.1283471;1.340083;-0.005704932;0;0;0
219038.159;NotLabelled;16384;0.7490219;-0.001385042;-0.4362881;0.4986149;-2;0;-3;3156;-1688;2123;65536;0.2049861;-0.3116343;0.926834;0.04293629;-2;0;4;2369;706;-3361;8192;0.03047091;-0.3919668;-0.765274;-0.5096953;-6;-2;-3;2022;3327;795;32768;-0.666205;0.132964;0.101108;0.7268209;-7;-5;0;3847;1205;278;256;0.5290859;-0.5924466;0.3698061;0.4819945;1;-8;0;281;3998;-671;128;0.6357854;-0.5844875;0.2894737;0.4127424;1;-9;0;-823;4005;82;4;0.6520134;-0.6301939;-0.3282548;0.2645429;-1;-12;25;2825;2550;376;16;-0.3518005;0.3157895;0.5955678;0.6494708;-27;4;-24;83;4068;230;2;-0.005540166;0.02770083;-0.6786703;-0.7338995;0;-9;-7;-35;4050;-459;8;-0.2714681;0.6703601;0.1288089;0.6784768;-38;-4;3;531;2479;3153;0.7124733;2.331487;1.055067;0.7182974;2.862236;0.9290021;0.7234114;3.328298;0.8162234;0.775396;4.049916;0.9388081;0.5409325;4.395589;0.9556919;0.1898175;4.271695;0.9945233;-0.5221242;4.67243;0.5576248;0.3998181;4.475926;0.6535716;1.059932;4.358204;0.9556917;1.337413;4.18903;0.9945233;1.869711;3.414404;1.206397;1.021053;3.107226;1.494858;0.4002127;2.28887;1.058134;0.121535;1.34057;-0.02071937;0;0;0;0.4002127;2.28887;1.058134;0.121535;1.34057;-0.02071937;0;0;0
219078.214;NotLabelled;16384;0.7490219;-0.001385042;-0.4362881;0.4986149;-3;1;-3;3108;-1702;2161;65536;0.2049861;-0.3116343;0.926834;0.04293629;-2;-1;4;2375;764;-3365;8192;0.03185596;-0.3919668;-0.7661383;-0.5083103;-6;-6;-4;2132;3341;757;32768;-0.666205;0.132964;0.09972299;0.7270123;-8;-6;0;3877;1209;346;256;0.5290859;-0.5913171;0.3698061;0.4833795;0;-7;0;267;3948;-653;128;0.6355243;-0.5831025;0.2908587;0.4141274;1;-8;0;-787;4021;82;4;0.6496111;-0.6301939;-0.3296399;0.2686981;0;-17;22;3001;2546;342;16;-0.3476454;0.3199446;0.5941828;0.6509416;-26;6;-24;123;3960;266;2;-0.002770083;0.02770083;-0.6786703;-0.7339152;-3;-3;-7;17;4152;-417;8;-0.2645429;0.6731302;0.1191136;0.6802388;-36;-1;4;611;2151;3437;0.7022128;2.32226;1.049288;0.7080355;2.85289;0.9227147;0.7131485;3.318842;0.8094897;0.7667976;4.040336;0.9320949;0.5331323;4.386548;0.9489885;0.1817324;4.263464;0.9878159;-0.5299466;4.664198;0.55049;0.39173;4.467695;0.6489549;1.052044;4.347965;0.9489877;1.329134;4.178149;0.9878148;1.862962;3.403663;1.196316;1.013479;3.098355;1.48433;0.3899523;2.279647;1.052399;0.1147211;1.340857;-0.03561761;0;0;0;0.3899523;2.279647;1.052399;0.1147211;1.340857;-0.03561761;0;0;0
219100.1812;NotLabelled;16384;0.7507462;-0.001385042;-0.434903;0.4972299;-4;3;-2;3096;-1630;2139;65536;0.2036011;-0.3116343;0.9271392;0.04293629;-4;-1;4;2329;792;-3375;8192;0.03601108;-0.3933518;-0.7652439;-0.5083103;-6;-8;-5;2254;3281;695;32768;-0.66759;0.134349;0.09695291;0.7258609;-11;-6;0;3835;1323;406;256;0.5277008;-0.5905526;0.3711911;0.4847645;0;-7;1;279;3960;-679;128;0.6355243;-0.5831025;0.2908587;0.4141274;2;-9;-1;-753;4081;72;4;0.6478768;-0.6301939;-0.3296399;0.2728532;-1;-19;22;3237;2464;94;16;-0.3434903;0.3227147;0.5941828;0.6517795;-26;4;-24;369;4040;268;2;-0.002770083;0.02770083;-0.6800554;-0.732632;-4;-1;-7;-53;4196;-187;8;-0.2603878;0.6745152;0.1149584;0.6811842;-34;-4;3;869;1905;3723;0.6907907;2.315377;1.046388;0.6966134;2.846006;0.9198149;0.7017264;3.311959;0.8065898;0.7546819;4.033395;0.9298303;0.5206865;4.37937;0.9470114;0.1694012;4.255919;0.9857079;-0.5421652;4.654251;0.5460106;0.3794609;4.458541;0.6465083;1.039635;4.341281;0.947011;1.316884;4.171695;0.9857077;1.84799;3.394854;1.192398;0.9980153;3.091474;1.480999;0.3785301;2.272763;1.049499;0.1071405;1.34118;-0.04565389;0;0;0;0.3785301;2.272763;1.049499;0.1071405;1.34118;-0.04565389;0;0;0
219122.1332;NotLabelled;16384;0.7507474;0;-0.434903;0.4972299;-5;3;-3;3104;-1660;2187;65536;0.2036011;-0.3102493;0.9275385;0.04432133;-5;-2;5;2315;832;-3419;8192;0.03739612;-0.3933518;-0.7660958;-0.5069252;-6;-9;-6;2290;3215;753;32768;-0.66759;0.1357341;0.09556787;0.7257869;-11;-6;1;3909;1323;408;256;0.5277008;-0.5905526;0.3711911;0.4847645;0;-8;1;303;4004;-681;128;0.6352541;-0.5817174;0.2922437;0.4155124;2;-9;-1;-819;4111;64;4;0.6467521;-0.6288089;-0.3310249;0.2770083;-1;-8;23;3245;2460;-48;16;-0.3393352;0.3268698;0.5914127;0.6543996;-27;2;-24;227;4152;326;2;-0.002770083;0.02908587;-0.6800554;-0.7325783;-5;0;-6;31;4282;-335;8;-0.2576177;0.6759003;0.1108033;0.681553;-34;0;4;617;2109;3541;0.6919293;2.305044;1.034978;0.6977507;2.835554;0.9079047;0.7028626;3.3014;0.7942407;0.755818;4.022837;0.9174809;0.5218228;4.368811;0.9346623;0.1705374;4.245359;0.9733589;-0.5406831;4.645618;0.5348535;0.380582;4.447976;0.6348802;1.040771;4.330722;0.9346618;1.31802;4.161136;0.9733586;1.850752;3.384445;1.176394;1.001902;3.081231;1.468461;0.3796688;2.262434;1.038132;0.1038738;1.340677;-0.06421086;0;0;0;0.3796688;2.262434;1.038132;0.1038738;1.340677;-0.06421086;0;0;0
219142.132;NotLabelled;16384;0.7523453;0;-0.432133;0.4972299;-8;5;-3;3132;-1810;2127;65536;0.200831;-0.3102493;0.9281422;0.04432133;-7;-2;7;2341;830;-3381;8192;0.0401662;-0.3947368;-0.7652427;-0.5069252;-5;-12;-6;2336;3255;755;32768;-0.6689751;0.1371191;0.09418282;0.724431;-11;-6;2;3867;1313;370;256;0.5263157;-0.5886329;0.3725762;0.4875346;0;-7;3;289;4082;-723;128;0.63342;-0.5803324;0.2950138;0.4182825;1;-9;0;-821;4175;92;4;0.644159;-0.6274238;-0.33518;0.2811634;1;0;21;3139;2544;186;16;-0.3310249;0.333795;0.5900277;0.6564074;-25;7;-23;169;3988;350;2;-0.001385042;0.02908587;-0.6814404;-0.7312941;-5;-5;-5;71;4242;-221;8;-0.2534626;0.6759003;0.1080332;0.6835527;-36;7;7;791;2465;3251;0.6771056;2.288369;1.02494;0.682929;2.819059;0.8986223;0.6880426;3.285066;0.7856219;0.7429281;4.006143;0.910117;0.5095472;4.352396;0.9298749;0.1583966;4.229332;0.9709592;-0.5592355;4.629017;0.5424898;0.362897;4.432817;0.6372241;1.028427;4.313601;0.9258378;1.305729;4.143548;0.9620329;1.837849;3.364305;1.156724;0.9899861;3.060707;1.451246;0.364845;2.245754;1.028028;0.08895952;1.340411;-0.08781274;0;0;0;0.364845;2.245754;1.028028;0.08895952;1.340411;-0.08781274;0;0;0
219162.9244;NotLabelled;16384;0.7523441;0.001385042;-0.432133;0.4972299;-8;5;-3;3068;-1812;2143;65536;0.199446;-0.3102493;0.9283736;0.04570637;-8;-2;7;2263;818;-3433;8192;0.04155125;-0.3947368;-0.7651687;-0.5069252;-5;-11;-6;2414;3235;653;32768;-0.6689751;0.1385041;0.09279778;0.7243463;-11;-6;3;3863;1275;402;256;0.5263157;-0.5886329;0.3725762;0.4875346;0;-7;3;307;4082;-691;128;0.63342;-0.5803324;0.2950138;0.4182825;2;-5;-2;-761;4175;118;4;0.6422188;-0.6274238;-0.3365651;0.2839335;6;-6;18;2993;2618;128;16;-0.3268698;0.3365651;0.5886427;0.658316;-24;6;-22;-135;3876;522;2;-0.001385042;0.02908587;-0.6814404;-0.7312941;-6;2;-9;-161;4104;-247;8;-0.2493075;0.6772853;0.1052632;0.6841418;-36;-1;6;961;2047;3581;0.6638628;2.281681;1.016944;0.6696862;2.812371;0.8906272;0.6747999;3.278378;0.7776268;0.7287364;3.999631;0.9015122;0.4952145;4.345912;0.9189856;0.1437576;4.222907;0.9575495;-0.5674534;4.622546;0.518462;0.353928;4.424839;0.6172829;1.01411;4.30711;0.9189854;1.291124;4.13711;0.9575496;1.820541;3.358069;1.160251;0.9715654;3.055051;1.452155;0.3516022;2.239066;1.020033;0.08548231;1.339566;-0.1028819;0;0;0;0.3516022;2.239066;1.020033;0.08548231;1.339566;-0.1028819;0;0;0
219183.1368;NotLabelled;16384;0.7531379;0.001385042;-0.4307479;0.4972299;-9;4;-4;3082;-1720;2145;65536;0.1980609;-0.3102493;0.9286009;0.04709141;-8;-1;7;2347;860;-3451;8192;0.04432133;-0.3961219;-0.7652138;-0.5055401;-5;-10;-6;2464;3271;639;32768;-0.6689751;0.1385041;0.0900277;0.7246958;-11;-6;2;3933;1273;448;256;0.5263157;-0.5866023;0.3739612;0.4889196;0;-6;3;345;4114;-653;128;0.6346861;-0.5789474;0.2950138;0.4182825;2;-5;-2;-823;4209;36;4;0.6416047;-0.6274238;-0.3365651;0.2853186;1;-8;16;3121;2700;446;16;-0.3213296;0.3393352;0.5886427;0.6596202;-23;8;-21;-45;4000;612;2;0;0.03047091;-0.6828254;-0.7299458;-9;3;-10;-215;4194;-409;8;-0.2465374;0.6772853;0.101108;0.6857704;-36;4;6;691;2031;3561;0.6508147;2.278623;1.007176;0.6566335;2.808897;0.8791285;0.661743;3.274534;0.7646084;0.7166727;3.99597;0.8869841;0.4836212;4.3426;0.9037735;0.1320049;4.220151;0.9426479;-0.5787815;4.618515;0.5017192;0.3421097;4.419165;0.6017987;1.002464;4.303099;0.903773;1.279254;4.132805;0.9426476;1.808907;3.353534;1.143844;0.9584523;3.054259;1.435304;0.3385542;2.236018;1.010415;0.07748104;1.339009;-0.1156728;0;0;0;0.3385542;2.236018;1.010415;0.07748104;1.339009;-0.1156728;0;0;0
219205.1296;NotLabelled;16384;0.7539246;0.002770083;-0.4293629;0.4972299;-8;3;-3;3108;-1740;2109;65536;0.1966759;-0.3102493;0.9288952;0.04709141;-8;-1;7;2349;784;-3373;8192;0.04570637;-0.3975069;-0.7644137;-0.5055401;-4;-9;-6;2456;3331;555;32768;-0.6703601;0.1398892;0.08864266;0.7233194;-10;-6;2;3973;1319;398;256;0.5249307;-0.5878421;0.3739612;0.4889196;0;-6;3;285;4102;-683;128;0.6331246;-0.5789474;0.2963989;0.4196676;1;-3;0;-803;4147;106;4;0.6409914;-0.6260388;-0.3379501;0.2880886;1;-6;18;3255;2642;46;16;-0.3185596;0.3421052;0.5872576;0.6607665;-23;5;-21;195;4048;614;2;0.002770083;0.033241;-0.6842105;-0.7285214;-4;-5;-8;-33;4168;-251;8;-0.2368421;0.6800554;0.09418282;0.68743;-34;1;5;943;1671;3627;0.6508147;2.278623;1.007176;0.6566335;2.808897;0.8791285;0.661743;3.274534;0.7646084;0.7166727;3.99597;0.8869841;0.4836212;4.3426;0.9037735;0.1320049;4.220151;0.9426479;-0.5787815;4.618515;0.5017192;0.3421097;4.419165;0.6017987;1.002464;4.303099;0.903773;1.279254;4.132805;0.9426476;1.808907;3.353534;1.143844;0.9584523;3.054259;1.435304;0.3385542;2.236018;1.010415;0.07748104;1.339009;-0.1156728;0;0;0;0.3385542;2.236018;1.010415;0.07748104;1.339009;-0.1156728;0;0;0
219225.2782;NotLabelled;16384;0.7547053;0.004155125;-0.4279778;0.4972299;-8;5;-2;3042;-1730;2061;65536;0.1952908;-0.3102493;0.9291162;0.04847645;-8;-1;6;2335;800;-3387;8192;0.04847645;-0.398892;-0.7635211;-0.5055401;-4;-8;-4;2494;3351;637;32768;-0.6703601;0.1426593;0.08587258;0.7231124;-7;-3;1;3811;1373;448;256;0.5249307;-0.5866874;0.3739612;0.4903047;0;-6;3;351;4052;-719;128;0.6331246;-0.5789474;0.2963989;0.4196676;0;-6;0;-767;4115;94;4;0.6390057;-0.6260388;-0.3393352;0.2908587;-3;0;18;3217;2522;218;16;-0.3144044;0.3448753;0.5858725;0.6625438;-23;4;-21;-27;4072;590;2;0.004155125;0.033241;-0.6855956;-0.7272115;-3;-3;-11;-53;3904;-247;8;-0.234072;0.6800554;0.0900277;0.6889339;-35;2;7;817;2021;3349;0.6455353;2.259151;0.9991382;0.6513575;2.789727;0.8723418;0.6564701;3.255632;0.7589205;0.7117437;3.976405;0.8849872;0.478751;4.322949;0.9042128;0.1272296;4.200306;0.9433334;-0.5877351;4.602321;0.5125909;0.3335777;4.401894;0.6064475;0.9975902;4.283433;0.9026784;1.274471;4.112926;0.9399409;1.803155;3.330832;1.132545;0.9560044;3.031168;1.433087;0.3332748;2.216539;1.002269;0.06979643;1.337391;-0.1372654;0;0;0;0.3332748;2.216539;1.002269;0.06979643;1.337391;-0.1372654;0;0;0
219247.144;NotLabelled;16384;0.7554688;0.006925208;-0.4265928;0.4972299;-7;4;0;2948;-1750;1901;65536;0.1925208;-0.3102493;0.9296209;0.04986149;-6;0;5;2265;872;-3241;8192;0.04986149;-0.400277;-0.7636228;-0.5041551;-3;-7;-3;2426;3361;623;32768;-0.6703601;0.1426593;0.08448754;0.7232755;-8;-3;1;3779;1303;446;256;0.5249307;-0.5855271;0.3739612;0.4916897;0;-7;3;329;4022;-689;128;0.6334699;-0.5775623;0.2963989;0.4210526;1;-5;0;-741;3983;60;4;0.6397288;-0.6246537;-0.3393352;0.2922437;-5;0;18;3115;2426;30;16;-0.3102493;0.3476454;0.5844875;0.6642758;-22;6;-20;-71;4078;536;2;0.005540166;0.03462604;-0.6855956;-0.7271376;-5;1;-15;-191;3874;-177;8;-0.2299169;0.6800554;0.08587258;0.6908609;-37;2;8;797;2099;3291;0.6413109;2.257573;0.9828107;0.6471318;2.788037;0.8555481;0.6522431;3.253843;0.7417177;0.7088574;3.974778;0.866256;0.4766234;4.321907;0.884041;0.1247115;4.200175;0.9224907;-0.5868001;4.602853;0.4866804;0.3343993;4.401789;0.5802867;0.995371;4.281179;0.8840097;1.271751;4.110116;0.9224222;1.800317;3.329645;1.121816;0.9515214;3.032562;1.420273;0.3290504;2.214963;0.9859816;0.06639618;1.335774;-0.1537103;0;0;0;0.3290504;2.214963;0.9859816;0.06639618;1.335774;-0.1537103;0;0;0
219267.8363;NotLabelled;16384;0.7562492;0.006925208;-0.4252077;0.4972299;-6;3;0;2888;-1778;1893;65536;0.1925208;-0.3102493;0.9296209;0.04986149;-5;-1;4;2231;910;-3185;8192;0.05124654;-0.400277;-0.7635311;-0.5041551;-4;-7;-3;2370;3277;621;32768;-0.6703601;0.1440443;0.08310249;0.7231615;-8;-2;1;3757;1259;478;256;0.5249307;-0.5834725;0.3753462;0.4930748;-1;-6;2;299;3956;-573;128;0.6340814;-0.5761772;0.2977839;0.4210526;1;-6;-1;-721;3927;-76;4;0.6376895;-0.6232687;-0.3421052;0.2963989;2;-8;15;3323;2298;28;16;-0.301939;0.3518005;0.5831025;0.6671287;-22;15;-17;-279;4100;506;2;0.005540166;0.03739612;-0.6869806;-0.7256917;-7;7;-16;-125;4070;-251;8;-0.2257618;0.6814404;0.08171745;0.6913702;-37;3;7;703;1503;3597;0.6291133;2.242322;0.9708145;0.6349295;2.772369;0.8418244;0.6400368;3.2378;0.726477;0.6976582;3.958915;0.8495044;0.465905;4.306401;0.8665894;0.1138299;4.185235;0.9053299;-0.5983394;4.586266;0.4690757;0.3223812;4.385202;0.5672782;0.9845958;4.264958;0.8665887;1.260744;4.093594;0.9053292;1.788049;3.312316;1.104902;0.9389228;3.015391;1.402573;0.3168529;2.199723;0.9741353;0.05812301;1.333375;-0.1762379;0;0;0;0.3168529;2.199723;0.9741353;0.05812301;1.333375;-0.1762379;0;0;0
219288.1387;NotLabelled;16384;0.7562352;0.008310249;-0.4252077;0.4972299;-3;3;-2;2840;-1828;1863;65536;0.1911357;-0.3102493;0.9298313;0.05124654;-3;-2;4;2223;876;-3057;8192;0.05263158;-0.4016621;-0.7627091;-0.5041551;-4;-7;-3;2320;3153;621;32768;-0.6703601;0.1454294;0.08171745;0.7230421;-8;-3;0;3733;1271;516;256;0.5249307;-0.5825793;0.3767313;0.4930748;-1;-7;2;277;3934;-533;128;0.6325063;-0.5761772;0.299169;0.4224377;4;-4;-1;-713;3939;-32;4;0.6376519;-0.6218836;-0.3434903;0.2977839;0;5;16;3263;2408;98;16;-0.2977839;0.3545706;0.5817174;0.6687371;-22;7;-18;79;3998;618;2;0.006925208;0.03878116;-0.6869806;-0.7256072;-8;0;-10;-101;4076;-141;8;-0.2202216;0.6814404;0.07756232;0.6936321;-35;7;5;723;1071;3993;0.6259389;2.2354;0.9612964;0.6317585;2.765751;0.833566;0.6368687;3.231456;0.7193246;0.6938284;3.952885;0.8408095;0.4617492;4.300187;0.857195;0.1097954;4.17877;0.8962526;-0.6011922;4.581741;0.4598592;0.319302;4.379033;0.5567929;0.9804792;4.259234;0.8571945;1.256796;4.088214;0.8962522;1.783315;3.306534;1.096325;0.9347007;3.009766;1.395608;0.3136784;2.192793;0.9645081;0.05434317;1.331692;-0.1896622;0;0;0;0.3136784;2.192793;0.9645081;0.05434317;1.331692;-0.1896622;0;0;0
219308.3452;NotLabelled;16384;0.7570123;0.008310249;-0.4238227;0.4972299;-1;3;-3;2888;-1678;1861;65536;0.1911357;-0.3102493;0.9298313;0.05124654;-2;-4;3;2255;808;-3109;8192;0.05401662;-0.4030471;-0.7627959;-0.5027701;-3;-8;-3;2298;3077;613;32768;-0.6703601;0.1468144;0.08033241;0.7229174;-8;-2;1;3749;1345;434;256;0.5235457;-0.5838242;0.3767313;0.4930748;-2;-6;1;245;3972;-581;128;0.6337652;-0.5747922;0.299169;0.4224377;-4;-17;-1;-699;3885;14;4;0.6355017;-0.6218836;-0.3462604;0.299169;-2;5;18;3087;2344;214;16;-0.2950138;0.3559557;0.5803324;0.6704302;-23;3;-18;53;4076;624;2;0.009695291;0.03878116;-0.6883656;-0.7242615;-2;-6;-8;-59;3962;-217;8;-0.2119114;0.6828254;0.07063711;0.6955957;-33;-3;7;979;1801;3381;0.6211627;2.226267;0.9581261;0.6269779;2.756201;0.8286773;0.632084;3.221533;0.712927;0.687349;3.942735;0.8365275;0.4544641;4.28945;0.853872;0.102783;4.167107;0.8924943;-0.6099073;4.568814;0.4577155;0.3105832;4.366105;0.554689;0.9732873;4.249696;0.8538718;1.24999;4.079203;0.8924945;1.778404;3.298257;1.090428;0.9309446;3.001646;1.39312;0.3089024;2.183671;0.9614868;0.05378674;1.330299;-0.1993456;0;0;0;0.3089024;2.183671;0.9614868;0.05378674;1.330299;-0.1993456;0;0;0
219329.2999;NotLabelled;16384;0.7569959;0.009695291;-0.4238227;0.4972299;0;3;-2;2886;-1598;1909;65536;0.1897507;-0.3102493;0.930115;0.05124654;0;-3;3;2201;780;-3183;8192;0.05540166;-0.4044321;-0.761963;-0.5027701;-3;-6;-2;2404;3091;567;32768;-0.6703601;0.1481994;0.07894737;0.7227874;-7;-1;1;3667;1251;554;256;0.5235457;-0.5817538;0.3781163;0.4944598;-2;-6;1;245;3862;-605;128;0.6321831;-0.5747922;0.300554;0.4238227;0;-12;1;-695;3885;52;4;0.6354459;-0.6204986;-0.3476454;0.300554;-1;0;19;3185;2304;60;16;-0.2908587;0.3587258;0.5789474;0.6719651;-22;6;-19;-209;3958;692;2;0.009695291;0.0401662;-0.6897507;-0.722867;-4;-1;-13;-147;3944;-99;8;-0.2105263;0.6828254;0.06648199;0.6964253;-34;-10;7;779;1733;3555;0.6152767;2.219055;0.9495034;0.6210951;2.749297;0.8213185;0.6262044;3.214904;0.7066782;0.6825013;3.936285;0.8287529;0.4501058;4.283362;0.8454059;0.09825981;4.161594;0.8843425;-0.6121005;4.565245;0.4475548;0.3083447;4.363322;0.5465755;0.9688727;4.242882;0.8454053;1.245342;4.072081;0.8843416;1.772438;3.290726;1.084171;0.9246564;2.994273;1.386114;0.3030163;2.176451;0.9527545;0.05061621;1.328379;-0.212547;0;0;0;0.3030163;2.176451;0.9527545;0.05061621;1.328379;-0.212547;0;0;0
219350.1598;NotLabelled;16384;0.7586766;0.009695291;-0.4224377;0.4958449;0;2;-1;2842;-1674;1987;65536;0.1883656;-0.3088643;0.9308571;0.05124654;0;-3;1;2151;808;-3201;8192;0.0567867;-0.4058172;-0.7620372;-0.501385;-3;-6;-1;2316;3143;573;32768;-0.6689751;0.1481994;0.07756232;0.7242191;-7;0;0;3673;1217;564;256;0.5235457;-0.5817538;0.3781163;0.4944598;-3;-5;1;297;3900;-539;128;0.6327807;-0.5734072;0.301939;0.4238227;3;-6;0;-787;3913;-62;4;0.6347209;-0.6191136;-0.3490305;0.3033241;0;0;20;3253;2304;152;16;-0.2867036;0.3614958;0.5789474;0.6722662;-23;10;-18;-293;3914;684;2;0.01246537;0.04155125;-0.6897507;-0.7227463;-7;-1;-16;-309;3908;-41;8;-0.2063712;0.6828254;0.06232687;0.6980513;-38;1;10;457;1787;3399;0.6110059;2.209702;0.9440176;0.6168197;2.739526;0.8141149;0.6219248;3.204759;0.6979659;0.6782483;3.926141;0.8200284;0.4458565;4.273217;0.836732;0.0940189;4.151449;0.8757451;-0.6184262;4.554178;0.4415093;0.3025458;4.353492;0.5381166;0.9646233;4.232737;0.8366185;1.241101;4.061936;0.8754945;1.770177;3.280676;1.070398;0.9225954;2.986298;1.374922;0.2987455;2.167109;0.9474179;0.04271552;1.326244;-0.2271132;0;0;0;0.2985728;2.170169;0.9404427;0.04271552;1.326244;-0.2271132;0;0;0
219371.1478;NotLabelled;16384;0.7586766;0.009695291;-0.4224377;0.4958449;0;1;-1;2846;-1654;1989;65536;0.1883656;-0.3088643;0.9308571;0.05124654;0;-1;1;2123;816;-3227;8192;0.0567867;-0.4058172;-0.7620372;-0.501385;-2;-7;0;2374;3105;481;32768;-0.6689751;0.1495845;0.07617728;0.7240814;-6;0;0;3725;1231;494;256;0.5249307;-0.5795998;0.3795014;0.4944598;-3;-4;0;323;3872;-587;128;0.6321179;-0.5734072;0.3033241;0.4238227;2;0;0;-731;3891;52;4;0.6318629;-0.6177285;-0.3518005;0.3088643;4;-6;20;3363;2364;-34;16;-0.2797784;0.365651;0.5761772;0.6753097;-23;12;-17;-353;4174;636;2;0.01246537;0.04432133;-0.6911357;-0.721257;-10;9;-19;-415;3756;-193;8;-0.2022161;0.6842105;0.05817174;0.6982698;-41;9;10;619;1603;3591;0.6058167;2.189898;0.9326627;0.6116304;2.719721;0.8027557;0.6167356;3.184952;0.6866032;0.6740887;3.906863;0.8050086;0.4421849;4.254344;0.819999;0.09018487;4.133266;0.8596892;-0.6211542;4.534585;0.4223455;0.2995878;4.333899;0.5211196;0.9608947;4.213139;0.8199984;1.237141;4.04215;0.8596883;1.765715;3.261526;1.058463;0.9185969;2.967314;1.364434;0.2935564;2.147305;0.9360633;0.03843337;1.32307;-0.245634;0;0;0;0.2935564;2.147305;0.9360633;0.03843337;1.32307;-0.245634;0;0;0
219392.1492;NotLabelled;16384;0.7586766;0.009695291;-0.4224377;0.4958449;0;0;-1;2864;-1672;1991;65536;0.1883656;-0.3088643;0.9308571;0.05124654;0;-1;1;2171;806;-3209;8192;0.05817174;-0.4072022;-0.7611935;-0.501385;-2;-5;0;2356;3033;509;32768;-0.6689751;0.1495845;0.07617728;0.7240814;-4;0;0;3695;1239;508;256;0.5249307;-0.5795998;0.3795014;0.4944598;-3;-2;0;275;3866;-593;128;0.6333715;-0.5720221;0.3033241;0.4238227;0;-3;-1;-713;3865;50;4;0.629632;-0.6177285;-0.3545706;0.3102493;2;8;21;3283;2356;116;16;-0.2742382;0.367036;0.5761772;0.6768292;-21;17;-15;-431;4046;690;2;0.01385042;0.04709141;-0.6925207;-0.7197261;-10;4;-19;-137;4028;-55;8;-0.1966759;0.6842105;0.05401662;0.7001834;-41;5;9;737;1137;3711;0.5959387;2.179839;0.9272891;0.6017479;2.709239;0.7956737;0.6068488;3.174094;0.6780211;0.6642019;3.896004;0.7964267;0.4322981;4.243485;0.8114173;0.08029827;4.122408;0.851107;-0.6309434;4.523726;0.413606;0.2897984;4.32304;0.5123801;0.9510078;4.202279;0.8114169;1.227254;4.031291;0.8511069;1.755363;3.250253;1.049486;0.9082457;2.95604;1.355456;0.2836787;2.137257;0.9308382;0.03294898;1.320996;-0.2573166;0;0;0;0.2836787;2.137257;0.9308382;0.03294898;1.320996;-0.2573166;0;0;0
219413.3478;NotLabelled;16384;0.7594626;0.008310249;-0.4210526;0.4958449;1;0;-1;3000;-1638;2039;65536;0.1883656;-0.3074792;0.9313156;0.05124654;0;-2;0;2155;800;-3211;8192;0.05817174;-0.4085872;-0.7604509;-0.501385;-1;-5;0;2424;3099;545;32768;-0.6689751;0.1509695;0.07617728;0.7237939;-3;0;0;3641;1259;470;256;0.5249307;-0.5786906;0.3808864;0.4944598;-3;-3;0;251;3838;-579;128;0.6324425;-0.5720221;0.3033241;0.4252077;2;-4;-1;-783;3951;-4;4;0.6287387;-0.6163435;-0.3573407;0.3116343;1;4;23;3213;2262;242;16;-0.2700831;0.368421;0.5747922;0.6789219;-21;14;-15;-279;3980;796;2;0.0166205;0.05124654;-0.6939058;-0.7180476;-9;2;-15;-119;4062;-35;8;-0.1869806;0.6855956;0.04432133;0.7021628;-39;-6;4;675;875;3825;0.5931951;2.169337;0.921364;0.5990078;2.699052;0.7910194;0.6041119;3.164187;0.6744825;0.6608238;3.886401;0.7913285;0.4286044;4.233703;0.8056127;0.07672221;4.112388;0.8456224;-0.6358722;4.510499;0.4073929;0.2847176;4.310263;0.5084682;0.9473515;4.192971;0.8056122;1.223761;4.022323;0.8456219;1.751833;3.241856;1.04634;0.9052216;2.945929;1.352058;0.280935;2.126747;0.9248025;0.03235155;1.318612;-0.2693421;0;0;0;0.280935;2.126747;0.9248025;0.03235155;1.318612;-0.2693421;0;0;0
219433.2712;NotLabelled;16384;0.7594626;0.008310249;-0.4210526;0.4958449;1;2;-1;2998;-1602;2049;65536;0.1869806;-0.3074792;0.9315947;0.05124654;0;-3;0;2217;674;-3257;8192;0.05817174;-0.4099723;-0.7606174;-0.5;0;-2;1;2268;3047;571;32768;-0.66759;0.1509695;0.07479224;0.7252157;-2;2;1;3613;1157;570;256;0.5249307;-0.5786906;0.3808864;0.4944598;-3;-4;1;281;3810;-571;128;0.6324425;-0.5720221;0.3033241;0.4252077;3;-6;0;-763;3899;-68;4;0.6278258;-0.6149584;-0.3601108;0.3130194;-2;11;24;3205;2272;104;16;-0.265928;0.3698061;0.5747922;0.6798086;-21;12;-15;-215;3974;906;2;0.01800554;0.05263158;-0.6952909;-0.7165726;-6;5;-16;-89;3958;-57;8;-0.1828255;0.6869806;0.03878116;0.7022311;-40;-9;3;755;1205;3713;0.5887127;2.159402;0.9177872;0.5945255;2.689118;0.7874426;0.5996294;3.154253;0.6709056;0.6563412;3.876467;0.7877518;0.4241218;4.223769;0.8020359;0.07223953;4.102454;0.8420454;-0.6402837;4.500565;0.4036994;0.2807472;4.301109;0.5022697;0.9428691;4.183037;0.8020355;1.219278;4.012388;0.8420453;1.749983;3.233636;1.04248;0.9035078;2.939804;1.350586;0.2764525;2.116812;0.9212258;0.02748571;1.316854;-0.2783327;0;0;0;0.2764525;2.116812;0.9212258;0.02748571;1.316854;-0.2783327;0;0;0
219455.2636;NotLabelled;16384;0.7603651;0.008310249;-0.4210526;0.4944598;0;3;0;2926;-1680;2061;65536;0.1869806;-0.3060942;0.9320506;0.05124654;0;-3;0;2167;766;-3287;8192;0.05817174;-0.4099723;-0.7606174;-0.5;0;-3;2;2214;3079;605;32768;-0.66759;0.1509695;0.07479224;0.7252157;-4;3;1;3641;1127;568;256;0.5249307;-0.5777766;0.3822715;0.4944598;-4;-4;1;277;3886;-467;128;0.6330277;-0.5706371;0.3047091;0.4252077;3;-6;0;-805;3947;-94;4;0.6268932;-0.6135734;-0.3628809;0.3144044;-1;6;25;3191;2202;342;16;-0.2617728;0.3711911;0.5734072;0.6818331;-21;12;-15;-333;3980;862;2;0.01800554;0.05540166;-0.6966759;-0.7150168;-8;6;-18;-295;3938;-127;8;-0.1800554;0.6869806;0.033241;0.7032302;-41;-13;3;949;1363;3671;0.5858577;2.148592;0.9116171;0.5916656;2.677884;0.7795643;0.5967655;3.142642;0.6615274;0.6528417;3.865157;0.7768096;0.4203097;4.212277;0.7903857;0.06854423;4.090729;0.830716;-0.6430826;4.487772;0.3899516;0.2777952;4.288763;0.4908273;0.9390936;4.172016;0.7903852;1.215664;4.001704;0.8307154;1.745886;3.222952;1.032425;0.8987379;2.929121;1.338677;0.2735975;2.106013;0.9152042;0.02695123;1.314283;-0.2902783;0;0;0;0.2735975;2.106013;0.9152042;0.02695123;1.314283;-0.2902783;0;0;0
219475.1428;NotLabelled;16384;0.761264;0.008310249;-0.4210526;0.4930748;1;4;0;2820;-1634;2041;65536;0.1869806;-0.3060942;0.9320506;0.05124654;0;-3;0;2139;722;-3239;8192;0.05817174;-0.4113573;-0.7598692;-0.5;0;-5;1;2154;3135;577;32768;-0.666205;0.1509695;0.0734072;0.7266296;-4;3;1;3747;1069;412;256;0.5249307;-0.5777766;0.3822715;0.4944598;-4;-3;2;343;3830;-531;128;0.6330277;-0.5706371;0.3047091;0.4252077;5;-3;0;-797;3857;-66;4;0.6242636;-0.6108033;-0.368421;0.3185596;3;-6;25;3227;2106;-64;16;-0.2534626;0.3739612;0.5720221;0.684617;-22;14;-15;-495;3766;1022;2;0.01939058;0.05817174;-0.6966759;-0.7147606;-9;9;-22;-441;3812;-107;8;-0.1772853;0.6883656;0.02770083;0.7028196;-42;-12;6;837;1411;3569;0.5806441;2.124564;0.9030973;0.5864521;2.653855;0.7710445;0.5915519;3.118613;0.6530075;0.6476282;3.841128;0.7682898;0.4150961;4.188248;0.7818659;0.06333069;4.066701;0.8221961;-0.6485503;4.462675;0.3808808;0.2723281;4.263665;0.4817567;0.9338801;4.147987;0.7818653;1.210451;3.977674;0.8221955;1.741032;3.199499;1.025177;0.8940198;2.90777;1.333806;0.2683839;2.081985;0.9066843;0.02094327;1.309613;-0.3111314;0;0;0;0.2683839;2.081985;0.9066843;0.02094327;1.309613;-0.3111314;0;0;0
219496.3872;NotLabelled;16384;0.761264;0.008310249;-0.4210526;0.4930748;1;2;0;2870;-1608;2017;65536;0.1883656;-0.3047091;0.9322256;0.05124654;0;-4;0;2095;816;-3163;8192;0.05817174;-0.4113573;-0.7598692;-0.5;1;-6;1;2220;3183;547;32768;-0.666205;0.1509695;0.07202215;0.7267681;-4;2;1;3703;1103;396;256;0.5263157;-0.5744017;0.3836565;0.4958449;-5;0;2;259;3866;-519;128;0.6351998;-0.5692521;0.3047091;0.4238227;5;7;-1;-763;3855;28;4;0.622021;-0.6108033;-0.3698061;0.3213296;3;-8;24;3393;2052;262;16;-0.2493075;0.3753462;0.5706371;0.6865379;-22;14;-15;-303;3730;870;2;0.02077562;0.06232687;-0.6980609;-0.713018;-10;7;-22;-555;3892;-213;8;-0.1745152;0.6897507;0.02077562;0.7023937;-43;-6;6;815;895;3917;0.5735831;2.113389;0.8977636;0.5793829;2.641932;0.7627426;0.5844755;3.10602;0.6420995;0.6434084;3.828887;0.7536876;0.4122171;4.176959;0.7656938;0.06002192;4.056965;0.8069139;-0.647808;4.455427;0.3613437;0.2722087;4.256092;0.4691894;0.930843;4.134713;0.7654881;1.206792;3.963549;0.8064604;1.735518;3.184233;1.00991;0.8871255;2.894392;1.316522;0.2613233;2.070832;0.9016087;0.02124567;1.306757;-0.3228957;0;0;0;0.2613233;2.070832;0.9016087;0.02124567;1.306757;-0.3228957;0;0;0
219516.1684;NotLabelled;16384;0.7612476;0.009695291;-0.4210526;0.4930748;2;3;0;2974;-1686;2083;65536;0.1869806;-0.3047091;0.9325044;0.05124654;0;-4;0;2217;780;-3215;8192;0.05817174;-0.4127424;-0.7591178;-0.5;1;-6;0;2290;3059;521;32768;-0.666205;0.1509695;0.07202215;0.7267681;-4;1;2;3629;1231;442;256;0.5263157;-0.5755944;0.3836565;0.4944598;-4;0;2;325;3902;-607;128;0.6358624;-0.5692521;0.3033241;0.4238227;5;7;-1;-709;3917;-4;4;0.6211166;-0.6094183;-0.3711911;0.3240997;1;0;25;3575;2024;258;16;-0.2451524;0.3767313;0.5692521;0.6884228;-22;10;-16;-193;3980;946;2;0.02216066;0.06509695;-0.699446;-0.7113696;-10;6;-18;-393;3934;131;8;-0.1689751;0.6897507;0.0166205;0.7038574;-43;1;8;799;837;3771;0.5776033;2.101988;0.8899673;0.5834032;2.630532;0.7549481;0.5884959;3.094619;0.6343066;0.6456637;3.817628;0.7458968;0.4136397;4.165149;0.7578018;0.06171494;4.044319;0.798887;-0.6501147;4.442246;0.3592487;0.2706079;4.243681;0.4623976;0.9323648;4.124137;0.7578014;1.208705;3.953632;0.798887;1.73973;3.176035;1.002927;0.8920701;2.886195;1.311558;0.2653435;2.059431;0.8938122;0.01933051;1.303801;-0.3347487;0;0;0;0.2653435;2.059431;0.8938122;0.01933051;1.303801;-0.3347487;0;0;0
219536.1488;NotLabelled;16384;0.762143;0.009695291;-0.4210526;0.4916897;3;4;0;2876;-1634;2047;65536;0.1883656;-0.3033241;0.9326771;0.05124654;1;-5;-1;2145;786;-3259;8192;0.05955679;-0.4141274;-0.7582555;-0.5;1;-4;0;2262;3039;533;32768;-0.66482;0.1523546;0.07063711;0.7278825;-3;1;3;3727;1189;504;256;0.5277008;-0.5743248;0.3836565;0.4944598;-4;-1;2;325;3864;-501;128;0.6367833;-0.5692521;0.3033241;0.4224377;2;2;-1;-673;3887;-76;4;0.6192499;-0.6080332;-0.3753462;0.3254848;-3;18;26;3547;1854;264;16;-0.2423823;0.3781163;0.567867;0.6897869;-23;0;-19;-71;3914;944;2;0.0235457;0.07063711;-0.700831;-0.7094307;-7;5;-15;-423;3948;-19;8;-0.1592798;0.6897507;0.005540166;0.7062884;-42;-5;7;973;627;3871;0.5744558;2.088291;0.8880423;0.580252;2.616509;0.75176;0.5853413;3.080308;0.6300093;0.6442355;3.803504;0.739471;0.413032;4.151603;0.7504131;0.06083405;4.03172;0.7919334;-0.6498746;4.428583;0.3495277;0.2704654;4.229696;0.4554322;0.9316594;4.109371;0.7504124;1.207607;3.938336;0.7919323;1.737616;3.160319;0.9970045;0.8912862;2.870888;1.309644;0.2621959;2.045742;0.8919972;0.01872817;1.301414;-0.3439472;0;0;0;0.2621959;2.045742;0.8919972;0.01872817;1.301414;-0.3439472;0;0;0
219557.3335;NotLabelled;16384;0.763051;0.008310249;-0.4210526;0.4903047;4;2;1;2804;-1564;2107;65536;0.1883656;-0.301939;0.9331264;0.05124654;1;-3;-2;2073;756;-3269;8192;0.05955679;-0.4155124;-0.7574975;-0.5;1;-5;0;2310;3113;505;32768;-0.66482;0.1509695;0.06925207;0.728304;-2;0;3;3677;1161;468;256;0.5277008;-0.5743248;0.3836565;0.4944598;-3;-1;2;349;3856;-511;128;0.6380187;-0.567867;0.3033241;0.4224377;5;-3;-1;-571;3801;-22;4;0.6179677;-0.6052631;-0.3795014;0.3282548;-2;10;27;3589;1778;254;16;-0.2396122;0.3822715;0.5650969;0.6907387;-24;-2;-20;-485;3730;1014;2;0.02493075;0.07202215;-0.700831;-0.7092441;-6;-1;-14;-557;3942;-297;8;-0.1565097;0.6897507;0;0.7069291;-42;-8;7;1095;819;3915;0.5736626;2.070117;0.8815701;0.579454;2.597896;0.7435933;0.5845391;3.0613;0.6203548;0.6434332;3.784496;0.7298163;0.4122297;4.132596;0.7407585;0.06003191;4.012713;0.7822789;-0.6511274;4.406551;0.3378999;0.2692764;4.208117;0.4440921;0.9308568;4.090364;0.7407578;1.206805;3.91933;0.7822776;1.737115;3.141893;0.9887697;0.8896405;2.856063;1.301618;0.2614031;2.027581;0.8856726;0.01547386;1.297578;-0.3583017;0;0;0;0.2614031;2.027581;0.8856726;0.01547386;1.297578;-0.3583017;0;0;0
219578.148;NotLabelled;16384;0.7631742;0.008310249;-0.4224377;0.4889196;3;0;2;2858;-1604;2123;65536;0.1883656;-0.300554;0.9335735;0.05124654;1;-2;-1;2035;816;-3315;8192;0.05955679;-0.4155124;-0.7574975;-0.5;1;-2;0;2418;3141;505;32768;-0.66482;0.1509695;0.06925207;0.728304;0;0;3;3739;1207;346;256;0.5290859;-0.5730491;0.3836565;0.4944598;-2;0;2;339;3902;-523;128;0.6373584;-0.567867;0.3047091;0.4224377;5;0;0;-865;4009;106;4;0.6182299;-0.602493;-0.3822715;0.3296399;2;11;26;3551;1762;-172;16;-0.2354571;0.3850415;0.5637119;0.69176;-25;6;-18;-641;3842;1038;2;0.02631579;0.07479224;-0.700831;-0.7089073;-5;7;-14;-619;3908;-151;8;-0.1537396;0.6911357;-0.005540166;0.7061621;-43;-12;6;1135;1153;3713;0.5739418;2.057814;0.8729734;0.5797333;2.585593;0.7349961;0.5848184;3.048998;0.6117572;0.6454432;3.77237;0.7190839;0.4150632;4.121044;0.7290606;0.06259383;4.002115;0.771016;-0.6470233;4.396127;0.3243324;0.2734491;4.198144;0.4307724;0.9335895;4.07759;0.7290601;1.209144;3.906029;0.7710155;1.739511;3.128593;0.9773656;0.8920486;2.842762;1.290251;0.2616822;2.015278;0.8770758;0.01106573;1.294031;-0.3710642;0;0;0;0.2616822;2.015278;0.8770758;0.01106573;1.294031;-0.3710642;0;0;0
