SEP=;
index;label;RightUpperArm_boneIndex;RightUpperArm_quat9x_w;RightUpperArm_quat9x_x;RightUpperArm_quat9x_y;RightUpperArm_quat9x_z;RightUpperArm_gyroscope_x;RightUpperArm_gyroscope_y;RightUpperArm_gyroscope_z;RightUpperArm_accelerometer_x;RightUpperArm_accelerometer_y;RightUpperArm_accelerometer_z;RightLowerArm_boneIndex;RightLowerArm_quat9x_w;RightLowerArm_quat9x_x;RightLowerArm_quat9x_y;RightLowerArm_quat9x_z;RightLowerArm_gyroscope_x;RightLowerArm_gyroscope_y;RightLowerArm_gyroscope_z;RightLowerArm_accelerometer_x;RightLowerArm_accelerometer_y;RightLowerArm_accelerometer_z;LeftUpperArm_boneIndex;LeftUpperArm_quat9x_w;LeftUpperArm_quat9x_x;LeftUpperArm_quat9x_y;LeftUpperArm_quat9x_z;LeftUpperArm_gyroscope_x;LeftUpperArm_gyroscope_y;LeftUpperArm_gyroscope_z;LeftUpperArm_accelerometer_x;LeftUpperArm_accelerometer_y;LeftUpperArm_accelerometer_z;LeftLowerArm_boneIndex;LeftLowerArm_quat9x_w;LeftLowerArm_quat9x_x;LeftLowerArm_quat9x_y;LeftLowerArm_quat9x_z;LeftLowerArm_gyroscope_x;LeftLowerArm_gyroscope_y;LeftLowerArm_gyroscope_z;LeftLowerArm_accelerometer_x;LeftLowerArm_accelerometer_y;LeftLowerArm_accelerometer_z;Chest_boneIndex;Chest_quat9x_w;Chest_quat9x_x;Chest_quat9x_y;Chest_quat9x_z;Chest_gyroscope_x;Chest_gyroscope_y;Chest_gyroscope_z;Chest_accelerometer_x;Chest_accelerometer_y;Chest_accelerometer_z;Spine_boneIndex;Spine_quat9x_w;Spine_quat9x_x;Spine_quat9x_y;Spine_quat9x_z;Spine_gyroscope_x;Spine_gyroscope_y;Spine_gyroscope_z;Spine_accelerometer_x;Spine_accelerometer_y;Spine_accelerometer_z;RightUpperLeg_boneIndex;RightUpperLeg_quat9x_w;RightUpperLeg_quat9x_x;RightUpperLeg_quat9x_y;RightUpperLeg_quat9x_z;RightUpperLeg_gyroscope_x;RightUpperLeg_gyroscope_y;RightUpperLeg_gyroscope_z;RightUpperLeg_accelerometer_x;RightUpperLeg_accelerometer_y;RightUpperLeg_accelerometer_z;RightLowerLeg_boneIndex;RightLowerLeg_quat9x_w;RightLowerLeg_quat9x_x;RightLowerLeg_quat9x_y;RightLowerLeg_quat9x_z;RightLowerLeg_gyroscope_x;RightLowerLeg_gyroscope_y;RightLowerLeg_gyroscope_z;RightLowerLeg_accelerometer_x;RightLowerLeg_accelerometer_y;RightLowerLeg_accelerometer_z;LeftUpperLeg_boneIndex;LeftUpperLeg_quat9x_w;LeftUpperLeg_quat9x_x;LeftUpperLeg_quat9x_y;LeftUpperLeg_quat9x_z;LeftUpperLeg_gyroscope_x;LeftUpperLeg_gyroscope_y;LeftUpperLeg_gyroscope_z;LeftUpperLeg_accelerometer_x;LeftUpperLeg_accelerometer_y;LeftUpperLeg_accelerometer_z;LeftLowerLeg_boneIndex;LeftLowerLeg_quat9x_w;LeftLowerLeg_quat9x_x;LeftLowerLeg_quat9x_y;LeftLowerLeg_quat9x_z;LeftLowerLeg_gyroscope_x;LeftLowerLeg_gyroscope_y;LeftLowerLeg_gyroscope_z;LeftLowerLeg_accelerometer_x;LeftLowerLeg_accelerometer_y;LeftLowerLeg_accelerometer_z;pelvis_x;pelvis_y;pelvis_z;lowerSpine_x;lowerSpine_y;lowerSpine_z;middleSpine_x;middleSpine_y;middleSpine_z;upperSpine_x;upperSpine_y;upperSpine_z;rightClavicle_x;rightClavicle_y;rightClavicle_z;rightShoulder_x;rightShoulder_y;rightShoulder_z;rightElbow_x;rightElbow_y;rightElbow_z;rightWrist_x;rightWrist_y;rightWrist_z;leftClavicle_x;leftClavicle_y;leftClavicle_z;leftShoulder_x;leftShoulder_y;leftShoulder_z;leftElbow_x;leftElbow_y;leftElbow_z;leftWrist_x;leftWrist_y;leftWrist_z;rightHip_x;rightHip_y;rightHip_z;rightKnee_x;rightKnee_y;rightKnee_z;rightAnkle_x;rightAnkle_y;rightAnkle_z;leftHip_x;leftHip_y;leftHip_z;leftKnee_x;leftKnee_y;leftKnee_z;leftAnkle_x;leftAnkle_y;leftAnkle_z;
349233.977;NotLabelled;16384;0.7335204;0.2119114;-0.3518005;0.5415512;2;-1;1;2618;-2798;1331;65536;0.08033241;-0.4653739;0.8739327;0.1149584;2;0;-1;3233;1112;-2297;8192;0.07617728;-0.3864266;-0.7630536;-0.5124654;0;0;-1;2140;3451;721;32768;-0.6495845;0.1218837;0.07617728;0.7465798;0;0;0;3927;1171;540;256;0.6398892;-0.6570048;0.1925208;0.3490305;0;1;0;801;3960;-401;128;0.6381766;-0.5872576;0.2783934;0.4127424;0;0;0;-751;4085;248;4;0.6725115;-0.6495845;-0.3047091;0.1814404;0;3;0;2555;3138;352;16;-0.4224377;0.2645429;0.6260158;0.599723;0;-2;0;667;3962;-612;2;-0.06648199;-0.05540166;-0.6495845;-0.7553481;0;3;0;863;4014;-541;8;0.3448753;-0.6398517;-0.2631579;-0.634349;0;1;0;453;3177;2589;1.209823;2.470961;0.8394957;1.215656;3.002543;0.7169867;1.220779;3.469349;0.6073302;1.362074;4.184959;0.6873289;1.171885;4.557209;0.6849766;0.80871;4.479822;0.7324571;0.1824574;5.120554;0.9682499;0.85855;4.859313;0.357964;1.682374;4.456418;0.684976;1.937488;4.256952;0.732456;2.446383;3.44665;0.6197118;1.848367;3.188788;1.30795;0.8975623;2.428325;0.8422543;0.2718521;1.311734;0.1333333;0;0;0;0.8975623;2.428325;0.8422543;0.2718521;1.311734;0.1333333;0;0;0
349255.0028;NotLabelled;16384;0.7335204;0.2119114;-0.3518005;0.5415512;2;-1;1;2618;-2798;1331;65536;0.08033241;-0.4653739;0.8739327;0.1149584;2;0;-1;3233;1112;-2297;8192;0.07617728;-0.3864266;-0.7630536;-0.5124654;0;0;-1;2140;3451;721;32768;-0.6495845;0.1218837;0.07617728;0.7465798;0;0;0;3927;1171;540;256;0.6398892;-0.6570048;0.1925208;0.3490305;0;1;0;801;3960;-401;128;0.6381766;-0.5872576;0.2783934;0.4127424;0;0;0;-751;4085;248;4;0.6725115;-0.6495845;-0.3047091;0.1814404;0;3;0;2555;3138;352;16;-0.4224377;0.2645429;0.6260158;0.599723;0;-2;0;667;3962;-612;2;-0.06648199;-0.05540166;-0.6495845;-0.7553481;0;3;0;863;4014;-541;8;0.3448753;-0.6398517;-0.2631579;-0.634349;0;1;0;453;3177;2589;1.209823;2.470961;0.8394957;1.215656;3.002543;0.7169867;1.220779;3.469349;0.6073302;1.362074;4.184959;0.6873289;1.171885;4.557209;0.6849766;0.80871;4.479822;0.7324571;0.1824574;5.120554;0.9682499;0.85855;4.859313;0.357964;1.682374;4.456418;0.684976;1.937488;4.256952;0.732456;2.446383;3.44665;0.6197118;1.848367;3.188788;1.30795;0.8975623;2.428325;0.8422543;0.2718521;1.311734;0.1333333;0;0;0;0.8975623;2.428325;0.8422543;0.2718521;1.311734;0.1333333;0;0;0
349275.2463;NotLabelled;16384;0.7335204;0.2119114;-0.3518005;0.5415512;2;-1;1;2618;-2798;1331;65536;0.08033241;-0.4653739;0.8739327;0.1149584;2;0;-1;3233;1112;-2297;8192;0.07617728;-0.3864266;-0.7630536;-0.5124654;0;0;-1;2140;3451;721;32768;-0.6495845;0.1218837;0.07617728;0.7465798;0;0;0;3927;1171;540;256;0.6398892;-0.6570048;0.1925208;0.3490305;0;1;0;801;3960;-401;128;0.6381766;-0.5872576;0.2783934;0.4127424;0;0;0;-751;4085;248;4;0.6725115;-0.6495845;-0.3047091;0.1814404;0;3;0;2555;3138;352;16;-0.4224377;0.2645429;0.6260158;0.599723;0;-2;0;667;3962;-612;2;-0.06648199;-0.05540166;-0.6495845;-0.7553481;0;3;0;863;4014;-541;8;0.3448753;-0.6398517;-0.2631579;-0.634349;0;1;0;453;3177;2589;1.209823;2.470961;0.8394957;1.215656;3.002543;0.7169867;1.220779;3.469349;0.6073302;1.362074;4.184959;0.6873289;1.171885;4.557209;0.6849766;0.80871;4.479822;0.7324571;0.1824574;5.120554;0.9682499;0.85855;4.859313;0.357964;1.682374;4.456418;0.684976;1.937488;4.256952;0.732456;2.446383;3.44665;0.6197118;1.848367;3.188788;1.30795;0.8975623;2.428325;0.8422543;0.2718521;1.311734;0.1333333;0;0;0;0.8975623;2.428325;0.8422543;0.2718521;1.311734;0.1333333;0;0;0
349296.6023;NotLabelled;16384;0.7335204;0.2119114;-0.3518005;0.5415512;2;-1;1;2618;-2798;1331;65536;0.08033241;-0.4653739;0.8739327;0.1149584;2;0;-1;3233;1112;-2297;8192;0.07617728;-0.3864266;-0.7630536;-0.5124654;0;0;-1;2140;3451;721;32768;-0.6495845;0.1218837;0.07617728;0.7465798;0;0;0;3927;1171;540;256;0.6398892;-0.6570048;0.1925208;0.3490305;0;1;0;801;3960;-401;128;0.6381766;-0.5872576;0.2783934;0.4127424;0;0;0;-751;4085;248;4;0.6725115;-0.6495845;-0.3047091;0.1814404;0;3;0;2555;3138;352;16;-0.4224377;0.2645429;0.6260158;0.599723;0;-2;0;667;3962;-612;2;-0.06648199;-0.05540166;-0.6495845;-0.7553481;0;3;0;863;4014;-541;8;0.3448753;-0.6398517;-0.2631579;-0.634349;0;1;0;453;3177;2589;1.209823;2.470961;0.8394957;1.215656;3.002543;0.7169867;1.220779;3.469349;0.6073302;1.362074;4.184959;0.6873289;1.171885;4.557209;0.6849766;0.80871;4.479822;0.7324571;0.1824574;5.120554;0.9682499;0.85855;4.859313;0.357964;1.682374;4.456418;0.684976;1.937488;4.256952;0.732456;2.446383;3.44665;0.6197118;1.848367;3.188788;1.30795;0.8975623;2.428325;0.8422543;0.2718521;1.311734;0.1333333;0;0;0;0.8975623;2.428325;0.8422543;0.2718521;1.311734;0.1333333;0;0;0
349317.0946;NotLabelled;16384;0.7335204;0.2119114;-0.3518005;0.5415512;2;-1;1;2618;-2798;1331;65536;0.08033241;-0.4653739;0.8739327;0.1149584;2;0;-1;3233;1112;-2297;8192;0.07617728;-0.3864266;-0.7630536;-0.5124654;0;0;-1;2140;3451;721;32768;-0.6495845;0.1218837;0.07617728;0.7465798;0;0;0;3927;1171;540;256;0.6398892;-0.6570048;0.1925208;0.3490305;0;1;0;801;3960;-401;128;0.6381766;-0.5872576;0.2783934;0.4127424;0;0;0;-751;4085;248;4;0.6725115;-0.6495845;-0.3047091;0.1814404;0;3;0;2555;3138;352;16;-0.4224377;0.2645429;0.6260158;0.599723;0;-2;0;667;3962;-612;2;-0.06648199;-0.05540166;-0.6495845;-0.7553481;0;3;0;863;4014;-541;8;0.3448753;-0.6398517;-0.2631579;-0.634349;0;1;0;453;3177;2589;1.209823;2.470961;0.8394957;1.215656;3.002543;0.7169867;1.220779;3.469349;0.6073302;1.362074;4.184959;0.6873289;1.171885;4.557209;0.6849766;0.80871;4.479822;0.7324571;0.1824574;5.120554;0.9682499;0.85855;4.859313;0.357964;1.682374;4.456418;0.684976;1.937488;4.256952;0.732456;2.446383;3.44665;0.6197118;1.848367;3.188788;1.30795;0.8975623;2.428325;0.8422543;0.2718521;1.311734;0.1333333;0;0;0;0.8975623;2.428325;0.8422543;0.2718521;1.311734;0.1333333;0;0;0
349337.2217;NotLabelled;16384;0.7335204;0.2119114;-0.3518005;0.5415512;2;-1;1;2618;-2798;1331;65536;0.08033241;-0.4653739;0.8739327;0.1149584;2;0;-1;3233;1112;-2297;8192;0.07617728;-0.3864266;-0.7630536;-0.5124654;0;0;-1;2140;3451;721;32768;-0.6495845;0.1218837;0.07617728;0.7465798;0;0;0;3927;1171;540;256;0.6398892;-0.6570048;0.1925208;0.3490305;0;1;0;801;3960;-401;128;0.6381766;-0.5872576;0.2783934;0.4127424;0;0;0;-751;4085;248;4;0.6725115;-0.6495845;-0.3047091;0.1814404;0;3;0;2555;3138;352;16;-0.4224377;0.2645429;0.6260158;0.599723;0;-2;0;667;3962;-612;2;-0.06648199;-0.05540166;-0.6495845;-0.7553481;0;3;0;863;4014;-541;8;0.3448753;-0.6398517;-0.2631579;-0.634349;0;1;0;453;3177;2589;1.209823;2.470961;0.8394957;1.215656;3.002543;0.7169867;1.220779;3.469349;0.6073302;1.362074;4.184959;0.6873289;1.171885;4.557209;0.6849766;0.80871;4.479822;0.7324571;0.1824574;5.120554;0.9682499;0.85855;4.859313;0.357964;1.682374;4.456418;0.684976;1.937488;4.256952;0.732456;2.446383;3.44665;0.6197118;1.848367;3.188788;1.30795;0.8975623;2.428325;0.8422543;0.2718521;1.311734;0.1333333;0;0;0;0.8975623;2.428325;0.8422543;0.2718521;1.311734;0.1333333;0;0;0
349358.1471;NotLabelled;16384;0.7335204;0.2119114;-0.3518005;0.5415512;2;-1;1;2618;-2798;1331;65536;0.08033241;-0.4653739;0.8739327;0.1149584;2;0;-1;3233;1112;-2297;8192;0.07617728;-0.3864266;-0.7630536;-0.5124654;0;0;-1;2140;3451;721;32768;-0.6495845;0.1218837;0.07617728;0.7465798;0;0;0;3927;1171;540;256;0.6398892;-0.6570048;0.1925208;0.3490305;0;1;0;801;3960;-401;128;0.6381766;-0.5872576;0.2783934;0.4127424;0;0;0;-751;4085;248;4;0.6725115;-0.6495845;-0.3047091;0.1814404;0;3;0;2555;3138;352;16;-0.4224377;0.2645429;0.6260158;0.599723;0;-2;0;667;3962;-612;2;-0.06648199;-0.05540166;-0.6495845;-0.7553481;0;3;0;863;4014;-541;8;0.3448753;-0.6398517;-0.2631579;-0.634349;0;1;0;453;3177;2589;1.209823;2.470961;0.8394957;1.215656;3.002543;0.7169867;1.220779;3.469349;0.6073302;1.362074;4.184959;0.6873289;1.171885;4.557209;0.6849766;0.80871;4.479822;0.7324571;0.1824574;5.120554;0.9682499;0.85855;4.859313;0.357964;1.682374;4.456418;0.684976;1.937488;4.256952;0.732456;2.446383;3.44665;0.6197118;1.848367;3.188788;1.30795;0.8975623;2.428325;0.8422543;0.2718521;1.311734;0.1333333;0;0;0;0.8975623;2.428325;0.8422543;0.2718521;1.311734;0.1333333;0;0;0
349380.3546;NotLabelled;16384;0.7335204;0.2119114;-0.3518005;0.5415512;2;-1;1;2618;-2798;1331;65536;0.08033241;-0.4653739;0.8739327;0.1149584;2;0;-1;3233;1112;-2297;8192;0.07617728;-0.3864266;-0.7630536;-0.5124654;0;0;-1;2140;3451;721;32768;-0.6495845;0.1218837;0.07617728;0.7465798;0;0;0;3927;1171;540;256;0.6398892;-0.6570048;0.1925208;0.3490305;0;1;0;801;3960;-401;128;0.6381766;-0.5872576;0.2783934;0.4127424;0;0;0;-751;4085;248;4;0.6725115;-0.6495845;-0.3047091;0.1814404;0;3;0;2555;3138;352;16;-0.4224377;0.2645429;0.6260158;0.599723;0;-2;0;667;3962;-612;2;-0.06648199;-0.05540166;-0.6495845;-0.7553481;0;3;0;863;4014;-541;8;0.3448753;-0.6398517;-0.2631579;-0.634349;0;1;0;453;3177;2589;1.209823;2.470961;0.8394957;1.215656;3.002543;0.7169867;1.220779;3.469349;0.6073302;1.362074;4.184959;0.6873289;1.171885;4.557209;0.6849766;0.80871;4.479822;0.7324571;0.1824574;5.120554;0.9682499;0.85855;4.859313;0.357964;1.682374;4.456418;0.684976;1.937488;4.256952;0.732456;2.446383;3.44665;0.6197118;1.848367;3.188788;1.30795;0.8975623;2.428325;0.8422543;0.2718521;1.311734;0.1333333;0;0;0;0.8975623;2.428325;0.8422543;0.2718521;1.311734;0.1333333;0;0;0
349400.9929;NotLabelled;16384;0.7335204;0.2119114;-0.3518005;0.5415512;2;-1;1;2618;-2798;1331;65536;0.08033241;-0.4653739;0.8739327;0.1149584;2;0;-1;3233;1112;-2297;8192;0.07617728;-0.3864266;-0.7630536;-0.5124654;0;0;-1;2140;3451;721;32768;-0.6495845;0.1218837;0.07617728;0.7465798;0;0;0;3927;1171;540;256;0.6398892;-0.6570048;0.1925208;0.3490305;0;1;0;801;3960;-401;128;0.6381766;-0.5872576;0.2783934;0.4127424;0;0;0;-751;4085;248;4;0.6725115;-0.6495845;-0.3047091;0.1814404;0;3;0;2555;3138;352;16;-0.4224377;0.2645429;0.6260158;0.599723;0;-2;0;667;3962;-612;2;-0.06648199;-0.05540166;-0.6495845;-0.7553481;0;3;0;863;4014;-541;8;0.3448753;-0.6398517;-0.2631579;-0.634349;0;1;0;453;3177;2589;1.209823;2.470961;0.8394957;1.215656;3.002543;0.7169867;1.220779;3.469349;0.6073302;1.362074;4.184959;0.6873289;1.171885;4.557209;0.6849766;0.80871;4.479822;0.7324571;0.1824574;5.120554;0.9682499;0.85855;4.859313;0.357964;1.682374;4.456418;0.684976;1.937488;4.256952;0.732456;2.446383;3.44665;0.6197118;1.848367;3.188788;1.30795;0.8975623;2.428325;0.8422543;0.2718521;1.311734;0.1333333;0;0;0;0.8975623;2.428325;0.8422543;0.2718521;1.311734;0.1333333;0;0;0
349421.0153;NotLabelled;16384;0.7335204;0.2119114;-0.3518005;0.5415512;2;-1;1;2618;-2798;1331;65536;0.08033241;-0.4653739;0.8739327;0.1149584;2;0;-1;3233;1112;-2297;8192;0.07617728;-0.3864266;-0.7630536;-0.5124654;0;0;-1;2140;3451;721;32768;-0.6495845;0.1218837;0.07617728;0.7465798;0;0;0;3927;1171;540;256;0.6398892;-0.6570048;0.1925208;0.3490305;0;1;0;801;3960;-401;128;0.6381766;-0.5872576;0.2783934;0.4127424;0;0;0;-751;4085;248;4;0.6725115;-0.6495845;-0.3047091;0.1814404;0;3;0;2555;3138;352;16;-0.4224377;0.2645429;0.6260158;0.599723;0;-2;0;667;3962;-612;2;-0.06648199;-0.05540166;-0.6495845;-0.7553481;0;3;0;863;4014;-541;8;0.3448753;-0.6398517;-0.2631579;-0.634349;0;1;0;453;3177;2589;1.209823;2.470961;0.8394957;1.215656;3.002543;0.7169867;1.220779;3.469349;0.6073302;1.362074;4.184959;0.6873289;1.171885;4.557209;0.6849766;0.80871;4.479822;0.7324571;0.1824574;5.120554;0.9682499;0.85855;4.859313;0.357964;1.682374;4.456418;0.684976;1.937488;4.256952;0.732456;2.446383;3.44665;0.6197118;1.848367;3.188788;1.30795;0.8975623;2.428325;0.8422543;0.2718521;1.311734;0.1333333;0;0;0;0.8975623;2.428325;0.8422543;0.2718521;1.311734;0.1333333;0;0;0
349441.1559;NotLabelled;16384;0.7335204;0.2119114;-0.3518005;0.5415512;2;-1;1;2618;-2798;1331;65536;0.08033241;-0.4653739;0.8739327;0.1149584;2;0;-1;3233;1112;-2297;8192;0.07617728;-0.3864266;-0.7630536;-0.5124654;0;0;-1;2140;3451;721;32768;-0.6495845;0.1218837;0.07617728;0.7465798;0;0;0;3927;1171;540;256;0.6398892;-0.6570048;0.1925208;0.3490305;0;1;0;801;3960;-401;128;0.6381766;-0.5872576;0.2783934;0.4127424;0;0;0;-751;4085;248;4;0.6725115;-0.6495845;-0.3047091;0.1814404;0;3;0;2555;3138;352;16;-0.4224377;0.2645429;0.6260158;0.599723;0;-2;0;667;3962;-612;2;-0.06648199;-0.05540166;-0.6495845;-0.7553481;0;3;0;863;4014;-541;8;0.3448753;-0.6398517;-0.2631579;-0.634349;0;1;0;453;3177;2589;1.209823;2.470961;0.8394957;1.215656;3.002543;0.7169867;1.220779;3.469349;0.6073302;1.362074;4.184959;0.6873289;1.171885;4.557209;0.6849766;0.80871;4.479822;0.7324571;0.1824574;5.120554;0.9682499;0.85855;4.859313;0.357964;1.682374;4.456418;0.684976;1.937488;4.256952;0.732456;2.446383;3.44665;0.6197118;1.848367;3.188788;1.30795;0.8975623;2.428325;0.8422543;0.2718521;1.311734;0.1333333;0;0;0;0.8975623;2.428325;0.8422543;0.2718521;1.311734;0.1333333;0;0;0
349462.0524;NotLabelled;16384;0.7335204;0.2119114;-0.3518005;0.5415512;2;-1;1;2618;-2798;1331;65536;0.08033241;-0.4653739;0.8739327;0.1149584;2;0;-1;3233;1112;-2297;8192;0.07617728;-0.3864266;-0.7630536;-0.5124654;0;0;-1;2140;3451;721;32768;-0.6495845;0.1218837;0.07617728;0.7465798;0;0;0;3927;1171;540;256;0.6398892;-0.6570048;0.1925208;0.3490305;0;1;0;801;3960;-401;128;0.6381766;-0.5872576;0.2783934;0.4127424;0;0;0;-751;4085;248;4;0.6725115;-0.6495845;-0.3047091;0.1814404;0;3;0;2555;3138;352;16;-0.4224377;0.2645429;0.6260158;0.599723;0;-2;0;667;3962;-612;2;-0.06648199;-0.05540166;-0.6495845;-0.7553481;0;3;0;863;4014;-541;8;0.3448753;-0.6398517;-0.2631579;-0.634349;0;1;0;453;3177;2589;1.209823;2.470961;0.8394957;1.215656;3.002543;0.7169867;1.220779;3.469349;0.6073302;1.362074;4.184959;0.6873289;1.171885;4.557209;0.6849766;0.80871;4.479822;0.7324571;0.1824574;5.120554;0.9682499;0.85855;4.859313;0.357964;1.682374;4.456418;0.684976;1.937488;4.256952;0.732456;2.446383;3.44665;0.6197118;1.848367;3.188788;1.30795;0.8975623;2.428325;0.8422543;0.2718521;1.311734;0.1333333;0;0;0;0.8975623;2.428325;0.8422543;0.2718521;1.311734;0.1333333;0;0;0
349482.1487;NotLabelled;16384;0.7335204;0.2119114;-0.3518005;0.5415512;2;-1;1;2618;-2798;1331;65536;0.08033241;-0.4653739;0.8739327;0.1149584;2;0;-1;3233;1112;-2297;8192;0.07617728;-0.3864266;-0.7630536;-0.5124654;0;0;-1;2140;3451;721;32768;-0.6495845;0.1218837;0.07617728;0.7465798;0;0;0;3927;1171;540;256;0.6398892;-0.6570048;0.1925208;0.3490305;0;1;0;801;3960;-401;128;0.6381766;-0.5872576;0.2783934;0.4127424;0;0;0;-751;4085;248;4;0.6725115;-0.6495845;-0.3047091;0.1814404;0;3;0;2555;3138;352;16;-0.4224377;0.2645429;0.6260158;0.599723;0;-2;0;667;3962;-612;2;-0.06648199;-0.05540166;-0.6495845;-0.7553481;0;3;0;863;4014;-541;8;0.3448753;-0.6398517;-0.2631579;-0.634349;0;1;0;453;3177;2589;1.209823;2.470961;0.8394957;1.215656;3.002543;0.7169867;1.220779;3.469349;0.6073302;1.362074;4.184959;0.6873289;1.171885;4.557209;0.6849766;0.80871;4.479822;0.7324571;0.1824574;5.120554;0.9682499;0.85855;4.859313;0.357964;1.682374;4.456418;0.684976;1.937488;4.256952;0.732456;2.446383;3.44665;0.6197118;1.848367;3.188788;1.30795;0.8975623;2.428325;0.8422543;0.2718521;1.311734;0.1333333;0;0;0;0.8975623;2.428325;0.8422543;0.2718521;1.311734;0.1333333;0;0;0
349501.9908;NotLabelled;16384;0.7335204;0.2119114;-0.3518005;0.5415512;2;-1;1;2618;-2798;1331;65536;0.08033241;-0.4653739;0.8739327;0.1149584;2;0;-1;3233;1112;-2297;8192;0.07617728;-0.3864266;-0.7630536;-0.5124654;0;0;-1;2140;3451;721;32768;-0.6495845;0.1218837;0.07617728;0.7465798;0;0;0;3927;1171;540;256;0.6398892;-0.6570048;0.1925208;0.3490305;0;1;0;801;3960;-401;128;0.6381766;-0.5872576;0.2783934;0.4127424;0;0;0;-751;4085;248;4;0.6725115;-0.6495845;-0.3047091;0.1814404;0;3;0;2555;3138;352;16;-0.4224377;0.2645429;0.6260158;0.599723;0;-2;0;667;3962;-612;2;-0.06648199;-0.05540166;-0.6495845;-0.7553481;0;3;0;863;4014;-541;8;0.3448753;-0.6398517;-0.2631579;-0.634349;0;1;0;453;3177;2589;1.209823;2.470961;0.8394957;1.215656;3.002543;0.7169867;1.220779;3.469349;0.6073302;1.362074;4.184959;0.6873289;1.171885;4.557209;0.6849766;0.80871;4.479822;0.7324571;0.1824574;5.120554;0.9682499;0.85855;4.859313;0.357964;1.682374;4.456418;0.684976;1.937488;4.256952;0.732456;2.446383;3.44665;0.6197118;1.848367;3.188788;1.30795;0.8975623;2.428325;0.8422543;0.2718521;1.311734;0.1333333;0;0;0;0.8975623;2.428325;0.8422543;0.2718521;1.311734;0.1333333;0;0;0
349524.1741;NotLabelled;16384;0.7335204;0.2119114;-0.3518005;0.5415512;2;-1;1;2618;-2798;1331;65536;0.08033241;-0.4653739;0.8739327;0.1149584;2;0;-1;3233;1112;-2297;8192;0.07617728;-0.3864266;-0.7630536;-0.5124654;0;0;-1;2140;3451;721;32768;-0.6495845;0.1218837;0.07617728;0.7465798;0;0;0;3927;1171;540;256;0.6398892;-0.6570048;0.1925208;0.3490305;0;1;0;801;3960;-401;128;0.6381766;-0.5872576;0.2783934;0.4127424;0;0;0;-751;4085;248;4;0.6725115;-0.6495845;-0.3047091;0.1814404;0;3;0;2555;3138;352;16;-0.4224377;0.2645429;0.6260158;0.599723;0;-2;0;667;3962;-612;2;-0.06648199;-0.05540166;-0.6495845;-0.7553481;0;3;0;863;4014;-541;8;0.3448753;-0.6398517;-0.2631579;-0.634349;0;1;0;453;3177;2589;1.209823;2.470961;0.8394957;1.215656;3.002543;0.7169867;1.220779;3.469349;0.6073302;1.362074;4.184959;0.6873289;1.171885;4.557209;0.6849766;0.80871;4.479822;0.7324571;0.1824574;5.120554;0.9682499;0.85855;4.859313;0.357964;1.682374;4.456418;0.684976;1.937488;4.256952;0.732456;2.446383;3.44665;0.6197118;1.848367;3.188788;1.30795;0.8975623;2.428325;0.8422543;0.2718521;1.311734;0.1333333;0;0;0;0.8975623;2.428325;0.8422543;0.2718521;1.311734;0.1333333;0;0;0
349544.4788;NotLabelled;16384;0.7335204;0.2119114;-0.3518005;0.5415512;2;-1;1;2618;-2798;1331;65536;0.08033241;-0.4653739;0.8739327;0.1149584;2;0;-1;3233;1112;-2297;8192;0.07617728;-0.3864266;-0.7630536;-0.5124654;0;0;-1;2140;3451;721;32768;-0.6495845;0.1218837;0.07617728;0.7465798;0;0;0;3927;1171;540;256;0.6398892;-0.6570048;0.1925208;0.3490305;0;1;0;801;3960;-401;128;0.6381766;-0.5872576;0.2783934;0.4127424;0;0;0;-751;4085;248;4;0.6725115;-0.6495845;-0.3047091;0.1814404;0;3;0;2555;3138;352;16;-0.4224377;0.2645429;0.6260158;0.599723;0;-2;0;667;3962;-612;2;-0.06648199;-0.05540166;-0.6495845;-0.7553481;0;3;0;863;4014;-541;8;0.3448753;-0.6398517;-0.2631579;-0.634349;0;1;0;453;3177;2589;1.209823;2.470961;0.8394957;1.215656;3.002543;0.7169867;1.220779;3.469349;0.6073302;1.362074;4.184959;0.6873289;1.171885;4.557209;0.6849766;0.80871;4.479822;0.7324571;0.1824574;5.120554;0.9682499;0.85855;4.859313;0.357964;1.682374;4.456418;0.684976;1.937488;4.256952;0.732456;2.446383;3.44665;0.6197118;1.848367;3.188788;1.30795;0.8975623;2.428325;0.8422543;0.2718521;1.311734;0.1333333;0;0;0;0.8975623;2.428325;0.8422543;0.2718521;1.311734;0.1333333;0;0;0
349565.0623;NotLabelled;16384;0.7335204;0.2119114;-0.3518005;0.5415512;2;-1;1;2618;-2798;1331;65536;0.08033241;-0.4653739;0.8739327;0.1149584;2;0;-1;3233;1112;-2297;8192;0.07617728;-0.3864266;-0.7630536;-0.5124654;0;0;-1;2140;3451;721;32768;-0.6495845;0.1218837;0.07617728;0.7465798;0;0;0;3927;1171;540;256;0.6398892;-0.6570048;0.1925208;0.3490305;0;1;0;801;3960;-401;128;0.6381766;-0.5872576;0.2783934;0.4127424;0;0;0;-751;4085;248;4;0.6725115;-0.6495845;-0.3047091;0.1814404;0;3;0;2555;3138;352;16;-0.4224377;0.2645429;0.6260158;0.599723;0;-2;0;667;3962;-612;2;-0.06648199;-0.05540166;-0.6495845;-0.7553481;0;3;0;863;4014;-541;8;0.3448753;-0.6398517;-0.2631579;-0.634349;0;1;0;453;3177;2589;1.209823;2.470961;0.8394957;1.215656;3.002543;0.7169867;1.220779;3.469349;0.6073302;1.362074;4.184959;0.6873289;1.171885;4.557209;0.6849766;0.80871;4.479822;0.7324571;0.1824574;5.120554;0.9682499;0.85855;4.859313;0.357964;1.682374;4.456418;0.684976;1.937488;4.256952;0.732456;2.446383;3.44665;0.6197118;1.848367;3.188788;1.30795;0.8975623;2.428325;0.8422543;0.2718521;1.311734;0.1333333;0;0;0;0.8975623;2.428325;0.8422543;0.2718521;1.311734;0.1333333;0;0;0
349586.0175;NotLabelled;16384;0.7335204;0.2119114;-0.3518005;0.5415512;2;-1;1;2618;-2798;1331;65536;0.08033241;-0.4653739;0.8739327;0.1149584;2;0;-1;3233;1112;-2297;8192;0.07617728;-0.3864266;-0.7630536;-0.5124654;0;0;-1;2140;3451;721;32768;-0.6495845;0.1218837;0.07617728;0.7465798;0;0;0;3927;1171;540;256;0.6398892;-0.6570048;0.1925208;0.3490305;0;1;0;801;3960;-401;128;0.6381766;-0.5872576;0.2783934;0.4127424;0;0;0;-751;4085;248;4;0.6725115;-0.6495845;-0.3047091;0.1814404;0;3;0;2555;3138;352;16;-0.4224377;0.2645429;0.6260158;0.599723;0;-2;0;667;3962;-612;2;-0.06648199;-0.05540166;-0.6495845;-0.7553481;0;3;0;863;4014;-541;8;0.3448753;-0.6398517;-0.2631579;-0.634349;0;1;0;453;3177;2589;1.209823;2.470961;0.8394957;1.215656;3.002543;0.7169867;1.220779;3.469349;0.6073302;1.362074;4.184959;0.6873289;1.171885;4.557209;0.6849766;0.80871;4.479822;0.7324571;0.1824574;5.120554;0.9682499;0.85855;4.859313;0.357964;1.682374;4.456418;0.684976;1.937488;4.256952;0.732456;2.446383;3.44665;0.6197118;1.848367;3.188788;1.30795;0.8975623;2.428325;0.8422543;0.2718521;1.311734;0.1333333;0;0;0;0.8975623;2.428325;0.8422543;0.2718521;1.311734;0.1333333;0;0;0
349607.0022;NotLabelled;16384;0.7335204;0.2119114;-0.3518005;0.5415512;2;-1;1;2618;-2798;1331;65536;0.08033241;-0.4653739;0.8739327;0.1149584;2;0;-1;3233;1112;-2297;8192;0.07617728;-0.3864266;-0.7630536;-0.5124654;0;0;-1;2140;3451;721;32768;-0.6495845;0.1218837;0.07617728;0.7465798;0;0;0;3927;1171;540;256;0.6398892;-0.6570048;0.1925208;0.3490305;0;1;0;801;3960;-401;128;0.6381766;-0.5872576;0.2783934;0.4127424;0;0;0;-751;4085;248;4;0.6725115;-0.6495845;-0.3047091;0.1814404;0;3;0;2555;3138;352;16;-0.4224377;0.2645429;0.6260158;0.599723;0;-2;0;667;3962;-612;2;-0.06648199;-0.05540166;-0.6495845;-0.7553481;0;3;0;863;4014;-541;8;0.3448753;-0.6398517;-0.2631579;-0.634349;0;1;0;453;3177;2589;1.209823;2.470961;0.8394957;1.215656;3.002543;0.7169867;1.220779;3.469349;0.6073302;1.362074;4.184959;0.6873289;1.171885;4.557209;0.6849766;0.80871;4.479822;0.7324571;0.1824574;5.120554;0.9682499;0.85855;4.859313;0.357964;1.682374;4.456418;0.684976;1.937488;4.256952;0.732456;2.446383;3.44665;0.6197118;1.848367;3.188788;1.30795;0.8975623;2.428325;0.8422543;0.2718521;1.311734;0.1333333;0;0;0;0.8975623;2.428325;0.8422543;0.2718521;1.311734;0.1333333;0;0;0
349627.9953;NotLabelled;16384;0.7335204;0.2119114;-0.3518005;0.5415512;2;-1;1;2618;-2798;1331;65536;0.08033241;-0.4653739;0.8739327;0.1149584;2;0;-1;3233;1112;-2297;8192;0.07617728;-0.3864266;-0.7630536;-0.5124654;0;0;-1;2140;3451;721;32768;-0.6495845;0.1218837;0.07617728;0.7465798;0;0;0;3927;1171;540;256;0.6398892;-0.6570048;0.1925208;0.3490305;0;1;0;801;3960;-401;128;0.6381766;-0.5872576;0.2783934;0.4127424;0;0;0;-751;4085;248;4;0.6725115;-0.6495845;-0.3047091;0.1814404;0;3;0;2555;3138;352;16;-0.4224377;0.2645429;0.6260158;0.599723;0;-2;0;667;3962;-612;2;-0.06648199;-0.05540166;-0.6495845;-0.7553481;0;3;0;863;4014;-541;8;0.3448753;-0.6398517;-0.2631579;-0.634349;0;1;0;453;3177;2589;1.209823;2.470961;0.8394957;1.215656;3.002543;0.7169867;1.220779;3.469349;0.6073302;1.362074;4.184959;0.6873289;1.171885;4.557209;0.6849766;0.80871;4.479822;0.7324571;0.1824574;5.120554;0.9682499;0.85855;4.859313;0.357964;1.682374;4.456418;0.684976;1.937488;4.256952;0.732456;2.446383;3.44665;0.6197118;1.848367;3.188788;1.30795;0.8975623;2.428325;0.8422543;0.2718521;1.311734;0.1333333;0;0;0;0.8975623;2.428325;0.8422543;0.2718521;1.311734;0.1333333;0;0;0
349648.9877;NotLabelled;16384;0.7335204;0.2119114;-0.3518005;0.5415512;2;-1;1;2618;-2798;1331;65536;0.08033241;-0.4653739;0.8739327;0.1149584;2;0;-1;3233;1112;-2297;8192;0.07617728;-0.3864266;-0.7630536;-0.5124654;0;0;-1;2140;3451;721;32768;-0.6495845;0.1218837;0.07617728;0.7465798;0;0;0;3927;1171;540;256;0.6398892;-0.6570048;0.1925208;0.3490305;0;1;0;801;3960;-401;128;0.6381766;-0.5872576;0.2783934;0.4127424;0;0;0;-751;4085;248;4;0.6725115;-0.6495845;-0.3047091;0.1814404;0;3;0;2555;3138;352;16;-0.4224377;0.2645429;0.6260158;0.599723;0;-2;0;667;3962;-612;2;-0.06648199;-0.05540166;-0.6495845;-0.7553481;0;3;0;863;4014;-541;8;0.3448753;-0.6398517;-0.2631579;-0.634349;0;1;0;453;3177;2589;1.209823;2.470961;0.8394957;1.215656;3.002543;0.7169867;1.220779;3.469349;0.6073302;1.362074;4.184959;0.6873289;1.171885;4.557209;0.6849766;0.80871;4.479822;0.7324571;0.1824574;5.120554;0.9682499;0.85855;4.859313;0.357964;1.682374;4.456418;0.684976;1.937488;4.256952;0.732456;2.446383;3.44665;0.6197118;1.848367;3.188788;1.30795;0.8975623;2.428325;0.8422543;0.2718521;1.311734;0.1333333;0;0;0;0.8975623;2.428325;0.8422543;0.2718521;1.311734;0.1333333;0;0;0
349669.0093;NotLabelled;16384;0.7335204;0.2119114;-0.3518005;0.5415512;2;-1;1;2618;-2798;1331;65536;0.08033241;-0.4653739;0.8739327;0.1149584;2;0;-1;3233;1112;-2297;8192;0.07617728;-0.3864266;-0.7630536;-0.5124654;0;0;-1;2140;3451;721;32768;-0.6495845;0.1218837;0.07617728;0.7465798;0;0;0;3927;1171;540;256;0.6398892;-0.6570048;0.1925208;0.3490305;0;1;0;801;3960;-401;128;0.6381766;-0.5872576;0.2783934;0.4127424;0;0;0;-751;4085;248;4;0.6725115;-0.6495845;-0.3047091;0.1814404;0;3;0;2555;3138;352;16;-0.4224377;0.2645429;0.6260158;0.599723;0;-2;0;667;3962;-612;2;-0.06648199;-0.05540166;-0.6495845;-0.7553481;0;3;0;863;4014;-541;8;0.3448753;-0.6398517;-0.2631579;-0.634349;0;1;0;453;3177;2589;1.209823;2.470961;0.8394957;1.215656;3.002543;0.7169867;1.220779;3.469349;0.6073302;1.362074;4.184959;0.6873289;1.171885;4.557209;0.6849766;0.80871;4.479822;0.7324571;0.1824574;5.120554;0.9682499;0.85855;4.859313;0.357964;1.682374;4.456418;0.684976;1.937488;4.256952;0.732456;2.446383;3.44665;0.6197118;1.848367;3.188788;1.30795;0.8975623;2.428325;0.8422543;0.2718521;1.311734;0.1333333;0;0;0;0.8975623;2.428325;0.8422543;0.2718521;1.311734;0.1333333;0;0;0
349691.136;NotLabelled;16384;0.7335204;0.2119114;-0.3518005;0.5415512;2;-1;1;2618;-2798;1331;65536;0.08033241;-0.4653739;0.8739327;0.1149584;2;0;-1;3233;1112;-2297;8192;0.07617728;-0.3864266;-0.7630536;-0.5124654;0;0;-1;2140;3451;721;32768;-0.6495845;0.1218837;0.07617728;0.7465798;0;0;0;3927;1171;540;256;0.6398892;-0.6570048;0.1925208;0.3490305;0;1;0;801;3960;-401;128;0.6381766;-0.5872576;0.2783934;0.4127424;0;0;0;-751;4085;248;4;0.6725115;-0.6495845;-0.3047091;0.1814404;0;3;0;2555;3138;352;16;-0.4224377;0.2645429;0.6260158;0.599723;0;-2;0;667;3962;-612;2;-0.06648199;-0.05540166;-0.6495845;-0.7553481;0;3;0;863;4014;-541;8;0.3448753;-0.6398517;-0.2631579;-0.634349;0;1;0;453;3177;2589;1.209823;2.470961;0.8394957;1.215656;3.002543;0.7169867;1.220779;3.469349;0.6073302;1.362074;4.184959;0.6873289;1.171885;4.557209;0.6849766;0.80871;4.479822;0.7324571;0.1824574;5.120554;0.9682499;0.85855;4.859313;0.357964;1.682374;4.456418;0.684976;1.937488;4.256952;0.732456;2.446383;3.44665;0.6197118;1.848367;3.188788;1.30795;0.8975623;2.428325;0.8422543;0.2718521;1.311734;0.1333333;0;0;0;0.8975623;2.428325;0.8422543;0.2718521;1.311734;0.1333333;0;0;0
349732.5453;NotLabelled;16384;0.7335204;0.2119114;-0.3518005;0.5415512;2;-1;1;2618;-2798;1331;65536;0.08033241;-0.4653739;0.8739327;0.1149584;2;0;-1;3233;1112;-2297;8192;0.07617728;-0.3864266;-0.7630536;-0.5124654;0;0;-1;2140;3451;721;32768;-0.6495845;0.1218837;0.07617728;0.7465798;0;0;0;3927;1171;540;256;0.6398892;-0.6570048;0.1925208;0.3490305;0;1;0;801;3960;-401;128;0.6381766;-0.5872576;0.2783934;0.4127424;0;0;0;-751;4085;248;4;0.6725115;-0.6495845;-0.3047091;0.1814404;0;3;0;2555;3138;352;16;-0.4224377;0.2645429;0.6260158;0.599723;0;-2;0;667;3962;-612;2;-0.06648199;-0.05540166;-0.6495845;-0.7553481;0;3;0;863;4014;-541;8;0.3448753;-0.6398517;-0.2631579;-0.634349;0;1;0;453;3177;2589;1.209823;2.470961;0.8394957;1.215656;3.002543;0.7169867;1.220779;3.469349;0.6073302;1.362074;4.184959;0.6873289;1.171885;4.557209;0.6849766;0.80871;4.479822;0.7324571;0.1824574;5.120554;0.9682499;0.85855;4.859313;0.357964;1.682374;4.456418;0.684976;1.937488;4.256952;0.732456;2.446383;3.44665;0.6197118;1.848367;3.188788;1.30795;0.8975623;2.428325;0.8422543;0.2718521;1.311734;0.1333333;0;0;0;0.8975623;2.428325;0.8422543;0.2718521;1.311734;0.1333333;0;0;0
349772.9853;NotLabelled;16384;0.7335204;0.2119114;-0.3518005;0.5415512;2;-1;1;2618;-2798;1331;65536;0.08033241;-0.4653739;0.8739327;0.1149584;2;0;-1;3233;1112;-2297;8192;0.07617728;-0.3864266;-0.7630536;-0.5124654;0;0;-1;2140;3451;721;32768;-0.6495845;0.1218837;0.07617728;0.7465798;0;0;0;3927;1171;540;256;0.6398892;-0.6570048;0.1925208;0.3490305;0;1;0;801;3960;-401;128;0.6381766;-0.5872576;0.2783934;0.4127424;0;0;0;-751;4085;248;4;0.6725115;-0.6495845;-0.3047091;0.1814404;0;3;0;2555;3138;352;16;-0.4224377;0.2645429;0.6260158;0.599723;0;-2;0;667;3962;-612;2;-0.06648199;-0.05540166;-0.6495845;-0.7553481;0;3;0;863;4014;-541;8;0.3448753;-0.6398517;-0.2631579;-0.634349;0;1;0;453;3177;2589;1.209823;2.470961;0.8394957;1.215656;3.002543;0.7169867;1.220779;3.469349;0.6073302;1.362074;4.184959;0.6873289;1.171885;4.557209;0.6849766;0.80871;4.479822;0.7324571;0.1824574;5.120554;0.9682499;0.85855;4.859313;0.357964;1.682374;4.456418;0.684976;1.937488;4.256952;0.732456;2.446383;3.44665;0.6197118;1.848367;3.188788;1.30795;0.8975623;2.428325;0.8422543;0.2718521;1.311734;0.1333333;0;0;0;0.8975623;2.428325;0.8422543;0.2718521;1.311734;0.1333333;0;0;0
349795.009;NotLabelled;16384;0.7335204;0.2119114;-0.3518005;0.5415512;2;-1;1;2618;-2798;1331;65536;0.08033241;-0.4653739;0.8739327;0.1149584;2;0;-1;3233;1112;-2297;8192;0.07617728;-0.3864266;-0.7630536;-0.5124654;0;0;-1;2140;3451;721;32768;-0.6495845;0.1218837;0.07617728;0.7465798;0;0;0;3927;1171;540;256;0.6398892;-0.6570048;0.1925208;0.3490305;0;1;0;801;3960;-401;128;0.6381766;-0.5872576;0.2783934;0.4127424;0;0;0;-751;4085;248;4;0.6725115;-0.6495845;-0.3047091;0.1814404;0;3;0;2555;3138;352;16;-0.4224377;0.2645429;0.6260158;0.599723;0;-2;0;667;3962;-612;2;-0.06648199;-0.05540166;-0.6495845;-0.7553481;0;3;0;863;4014;-541;8;0.3448753;-0.6398517;-0.2631579;-0.634349;0;1;0;453;3177;2589;1.209823;2.470961;0.8394957;1.215656;3.002543;0.7169867;1.220779;3.469349;0.6073302;1.362074;4.184959;0.6873289;1.171885;4.557209;0.6849766;0.80871;4.479822;0.7324571;0.1824574;5.120554;0.9682499;0.85855;4.859313;0.357964;1.682374;4.456418;0.684976;1.937488;4.256952;0.732456;2.446383;3.44665;0.6197118;1.848367;3.188788;1.30795;0.8975623;2.428325;0.8422543;0.2718521;1.311734;0.1333333;0;0;0;0.8975623;2.428325;0.8422543;0.2718521;1.311734;0.1333333;0;0;0
349814.9767;NotLabelled;16384;0.7335204;0.2119114;-0.3518005;0.5415512;2;-1;1;2618;-2798;1331;65536;0.08033241;-0.4653739;0.8739327;0.1149584;2;0;-1;3233;1112;-2297;8192;0.07617728;-0.3864266;-0.7630536;-0.5124654;0;0;-1;2140;3451;721;32768;-0.6495845;0.1218837;0.07617728;0.7465798;0;0;0;3927;1171;540;256;0.6398892;-0.6570048;0.1925208;0.3490305;0;1;0;801;3960;-401;128;0.6381766;-0.5872576;0.2783934;0.4127424;0;0;0;-751;4085;248;4;0.6725115;-0.6495845;-0.3047091;0.1814404;0;3;0;2555;3138;352;16;-0.4224377;0.2645429;0.6260158;0.599723;0;-2;0;667;3962;-612;2;-0.06648199;-0.05540166;-0.6495845;-0.7553481;0;3;0;863;4014;-541;8;0.3448753;-0.6398517;-0.2631579;-0.634349;0;1;0;453;3177;2589;1.209823;2.470961;0.8394957;1.215656;3.002543;0.7169867;1.220779;3.469349;0.6073302;1.362074;4.184959;0.6873289;1.171885;4.557209;0.6849766;0.80871;4.479822;0.7324571;0.1824574;5.120554;0.9682499;0.85855;4.859313;0.357964;1.682374;4.456418;0.684976;1.937488;4.256952;0.732456;2.446383;3.44665;0.6197118;1.848367;3.188788;1.30795;0.8975623;2.428325;0.8422543;0.2718521;1.311734;0.1333333;0;0;0;0.8975623;2.428325;0.8422543;0.2718521;1.311734;0.1333333;0;0;0
349836.0116;NotLabelled;16384;0.7335204;0.2119114;-0.3518005;0.5415512;2;-1;1;2618;-2798;1331;65536;0.08033241;-0.4653739;0.8739327;0.1149584;2;0;-1;3233;1112;-2297;8192;0.07617728;-0.3864266;-0.7630536;-0.5124654;0;0;-1;2140;3451;721;32768;-0.6495845;0.1218837;0.07617728;0.7465798;0;0;0;3927;1171;540;256;0.6398892;-0.6570048;0.1925208;0.3490305;0;1;0;801;3960;-401;128;0.6381766;-0.5872576;0.2783934;0.4127424;0;0;0;-751;4085;248;4;0.6725115;-0.6495845;-0.3047091;0.1814404;0;3;0;2555;3138;352;16;-0.4224377;0.2645429;0.6260158;0.599723;0;-2;0;667;3962;-612;2;-0.06648199;-0.05540166;-0.6495845;-0.7553481;0;3;0;863;4014;-541;8;0.3448753;-0.6398517;-0.2631579;-0.634349;0;1;0;453;3177;2589;1.209823;2.470961;0.8394957;1.215656;3.002543;0.7169867;1.220779;3.469349;0.6073302;1.362074;4.184959;0.6873289;1.171885;4.557209;0.6849766;0.80871;4.479822;0.7324571;0.1824574;5.120554;0.9682499;0.85855;4.859313;0.357964;1.682374;4.456418;0.684976;1.937488;4.256952;0.732456;2.446383;3.44665;0.6197118;1.848367;3.188788;1.30795;0.8975623;2.428325;0.8422543;0.2718521;1.311734;0.1333333;0;0;0;0.8975623;2.428325;0.8422543;0.2718521;1.311734;0.1333333;0;0;0
349857.0536;NotLabelled;16384;0.7335204;0.2119114;-0.3518005;0.5415512;2;-1;1;2618;-2798;1331;65536;0.08033241;-0.4653739;0.8739327;0.1149584;2;0;-1;3233;1112;-2297;8192;0.07617728;-0.3864266;-0.7630536;-0.5124654;0;0;-1;2140;3451;721;32768;-0.6495845;0.1218837;0.07617728;0.7465798;0;0;0;3927;1171;540;256;0.6398892;-0.6570048;0.1925208;0.3490305;0;1;0;801;3960;-401;128;0.6381766;-0.5872576;0.2783934;0.4127424;0;0;0;-751;4085;248;4;0.6725115;-0.6495845;-0.3047091;0.1814404;0;3;0;2555;3138;352;16;-0.4224377;0.2645429;0.6260158;0.599723;0;-2;0;667;3962;-612;2;-0.06648199;-0.05540166;-0.6495845;-0.7553481;0;3;0;863;4014;-541;8;0.3448753;-0.6398517;-0.2631579;-0.634349;0;1;0;453;3177;2589;1.209823;2.470961;0.8394957;1.215656;3.002543;0.7169867;1.220779;3.469349;0.6073302;1.362074;4.184959;0.6873289;1.171885;4.557209;0.6849766;0.80871;4.479822;0.7324571;0.1824574;5.120554;0.9682499;0.85855;4.859313;0.357964;1.682374;4.456418;0.684976;1.937488;4.256952;0.732456;2.446383;3.44665;0.6197118;1.848367;3.188788;1.30795;0.8975623;2.428325;0.8422543;0.2718521;1.311734;0.1333333;0;0;0;0.8975623;2.428325;0.8422543;0.2718521;1.311734;0.1333333;0;0;0
349897.0314;NotLabelled;16384;0.7335204;0.2119114;-0.3518005;0.5415512;2;-1;1;2618;-2798;1331;65536;0.08033241;-0.4653739;0.8739327;0.1149584;2;0;-1;3233;1112;-2297;8192;0.07617728;-0.3864266;-0.7630536;-0.5124654;0;0;-1;2140;3451;721;32768;-0.6495845;0.1218837;0.07617728;0.7465798;0;0;0;3927;1171;540;256;0.6398892;-0.6570048;0.1925208;0.3490305;0;1;0;801;3960;-401;128;0.6381766;-0.5872576;0.2783934;0.4127424;0;0;0;-751;4085;248;4;0.6725115;-0.6495845;-0.3047091;0.1814404;0;3;0;2555;3138;352;16;-0.4224377;0.2645429;0.6260158;0.599723;0;-2;0;667;3962;-612;2;-0.06648199;-0.05540166;-0.6495845;-0.7553481;0;3;0;863;4014;-541;8;0.3448753;-0.6398517;-0.2631579;-0.634349;0;1;0;453;3177;2589;1.209823;2.470961;0.8394957;1.215656;3.002543;0.7169867;1.220779;3.469349;0.6073302;1.362074;4.184959;0.6873289;1.171885;4.557209;0.6849766;0.80871;4.479822;0.7324571;0.1824574;5.120554;0.9682499;0.85855;4.859313;0.357964;1.682374;4.456418;0.684976;1.937488;4.256952;0.732456;2.446383;3.44665;0.6197118;1.848367;3.188788;1.30795;0.8975623;2.428325;0.8422543;0.2718521;1.311734;0.1333333;0;0;0;0.8975623;2.428325;0.8422543;0.2718521;1.311734;0.1333333;0;0;0
349917.9875;NotLabelled;16384;0.7328545;0.2119114;-0.3531856;0.5415512;3;-1;1;2550;-2772;1387;65536;0.08033241;-0.4653739;0.8739327;0.1149584;2;0;-1;3157;1144;-2275;8192;0.07617728;-0.3864266;-0.7630536;-0.5124654;0;0;0;2168;3511;711;32768;-0.6495845;0.1218837;0.07617728;0.7465798;0;0;0;3851;1153;606;256;0.6398892;-0.6570048;0.1925208;0.3490305;1;2;0;761;3926;-439;128;0.6381766;-0.5872576;0.2783934;0.4127424;2;1;0;-785;4033;184;4;0.6725115;-0.6495845;-0.3047091;0.1814404;0;0;-1;2523;3084;270;16;-0.4224377;0.2645429;0.6260158;0.599723;0;-2;0;705;3934;-572;2;-0.06786703;-0.05540166;-0.6509695;-0.7540314;-1;1;0;711;4052;-553;8;0.3448753;-0.6398517;-0.2631579;-0.634349;0;0;0;401;3161;2513;1.209823;2.470961;0.8394957;1.215656;3.002543;0.7169867;1.220779;3.469349;0.6073302;1.362074;4.184959;0.6873289;1.171885;4.557209;0.6849766;0.80871;4.479822;0.7324571;0.1827522;5.121683;0.9659513;0.8588446;4.860442;0.3556656;1.682374;4.456418;0.684976;1.937488;4.256952;0.732456;2.446383;3.44665;0.6197118;1.848367;3.188788;1.30795;0.8975623;2.428325;0.8422543;0.2718521;1.311734;0.1333333;0;0;0;0.8975623;2.428325;0.8422543;0.2718521;1.311734;0.1333333;0;0;0
349938.0128;NotLabelled;16384;0.7332536;0.2105263;-0.3531856;0.5415512;2;-1;0;2620;-2766;1331;65536;0.08171745;-0.4653739;0.8738043;0.1149584;2;0;-1;3207;1190;-2239;8192;0.07617728;-0.3864266;-0.7630536;-0.5124654;0;2;0;2182;3459;725;32768;-0.6495845;0.1204986;0.07756232;0.746662;1;0;0;3891;1129;632;256;0.6398892;-0.6570048;0.1925208;0.3490305;0;1;0;797;3966;-449;128;0.6381766;-0.5872576;0.2783934;0.4127424;4;1;1;-781;4043;160;4;0.6725115;-0.6495845;-0.3047091;0.1814404;0;0;0;2451;3114;246;16;-0.4238227;0.265928;0.6258181;0.5983379;0;-6;0;723;3940;-568;2;-0.06786703;-0.05540166;-0.6509695;-0.7540314;0;2;0;719;4008;-519;8;0.3448753;-0.6398517;-0.2631579;-0.634349;0;1;0;381;3165;2547;1.209481;2.470875;0.8410288;1.215314;3.002457;0.7185197;1.220437;3.469263;0.6088633;1.361732;4.184873;0.688862;1.171543;4.557123;0.6865097;0.8083679;4.479736;0.7339903;0.1804838;5.119871;0.9670511;0.8578522;4.857435;0.3586951;1.682031;4.456332;0.686509;1.937145;4.256866;0.7339891;2.446041;3.446564;0.6212449;1.845323;3.188435;1.307025;0.8972201;2.428239;0.8437875;0.2715099;1.311648;0.1348664;0;0;0;0.8972201;2.428239;0.8437875;0.2715099;1.311648;0.1348664;0;0;0
349959.0332;NotLabelled;16384;0.7325848;0.2105263;-0.3545706;0.5415512;2;-1;0;2586;-2786;1293;65536;0.08171745;-0.4653739;0.8738043;0.1149584;0;0;0;3227;1134;-2259;8192;0.07479224;-0.3864266;-0.7631906;-0.5124654;0;2;1;2128;3431;697;32768;-0.6495845;0.1204986;0.07756232;0.746662;2;1;0;3837;1137;600;256;0.6398892;-0.6570048;0.1925208;0.3490305;0;0;0;747;3910;-421;128;0.6384651;-0.5872576;0.2797784;0.4113573;3;3;0;-815;4047;108;4;0.6725115;-0.6495845;-0.3047091;0.1814404;0;2;0;2525;3138;292;16;-0.4238227;0.265928;0.6258181;0.5983379;0;-1;0;641;4010;-742;2;-0.06786703;-0.05540166;-0.6509695;-0.7540314;0;0;0;747;4052;-509;8;0.3448753;-0.6398517;-0.2631579;-0.634349;0;-1;0;405;3169;2495;1.209502;2.472844;0.8351903;1.215332;3.004137;0.7114326;1.220452;3.470683;0.6006796;1.361749;4.18648;0.6789932;1.17156;4.558723;0.6757712;0.8083865;4.481447;0.7234427;0.1808111;5.123252;0.9527121;0.8581638;4.859389;0.3449569;1.682049;4.457932;0.6759942;1.937164;4.258579;0.7239362;2.447741;3.448915;0.6142516;1.84704;3.192398;1.300652;0.8972417;2.430215;0.8380572;0.2715133;1.311961;0.1317774;0;0;0;0.8972417;2.430215;0.8380572;0.2715133;1.311961;0.1317774;0;0;0
349979.1844;NotLabelled;16384;0.7325848;0.2105263;-0.3545706;0.5415512;1;-1;0;2606;-2792;1413;65536;0.08171745;-0.4639889;0.8745405;0.1149584;0;0;0;3277;1188;-2267;8192;0.07479224;-0.3864266;-0.7631906;-0.5124654;0;3;2;2142;3433;691;32768;-0.6495845;0.1204986;0.07756232;0.746662;2;2;0;3811;1109;582;256;0.6398892;-0.6570048;0.1925208;0.3490305;0;0;0;799;3980;-399;128;0.6384651;-0.5872576;0.2797784;0.4113573;2;1;0;-745;4025;70;4;0.6725115;-0.6495845;-0.3047091;0.1814404;0;0;0;2569;3096;290;16;-0.4238227;0.265928;0.6258181;0.5983379;0;4;0;517;4076;-592;2;-0.06925207;-0.05401662;-0.6509695;-0.754006;-1;3;0;715;3956;-563;8;0.3448753;-0.6398517;-0.2631579;-0.634349;0;0;-1;407;3149;2613;1.209481;2.470869;0.8409207;1.215311;3.002161;0.7171628;1.22043;3.468708;0.60641;1.361726;4.184319;0.6864088;1.171536;4.556569;0.6840563;0.8083615;4.479181;0.7315367;0.1807802;5.120445;0.962297;0.8584377;4.858065;0.3542401;1.682025;4.455777;0.6840556;1.937139;4.256312;0.731536;2.447719;3.446908;0.6199623;1.847;3.188779;1.305742;0.89722;2.42824;0.8437876;0.27151;1.311649;0.1348665;0;0;0;0.89722;2.42824;0.8437876;0.27151;1.311649;0.1348665;0;0;0
350000.2433;NotLabelled;16384;0.7325848;0.2105263;-0.3545706;0.5415512;0;0;-1;2548;-2856;1315;65536;0.08171745;-0.4639889;0.8747215;0.1135734;0;0;1;3214;1140;-2329;8192;0.0734072;-0.3850415;-0.7640247;-0.5124654;1;2;3;2098;3465;675;32768;-0.6481994;0.1204986;0.07894737;0.7477198;3;4;-1;3893;1117;574;256;0.6398892;-0.6570048;0.1925208;0.3490305;0;1;0;749;3948;-417;128;0.6403957;-0.5844875;0.2811634;0.4113573;9;-1;1;-759;4119;16;4;0.6711709;-0.6509695;-0.3047091;0.1814404;0;-1;2;2623;3228;288;16;-0.4224377;0.265928;0.6267539;0.5983379;0;3;0;785;3970;-560;2;-0.06925207;-0.05401662;-0.6509695;-0.754006;0;2;0;631;3972;-573;8;0.3448753;-0.6404197;-0.2617728;-0.634349;0;-2;0;391;3081;2595;1.202222;2.471537;0.8452323;1.208043;3.002;0.7179621;1.213154;3.467803;0.6041248;1.35445;4.183414;0.6841232;1.16426;4.555664;0.6817707;0.8010855;4.478277;0.729251;0.1732202;5.119541;0.9592369;0.8521753;4.859415;0.351658;1.674749;4.454872;0.68177;1.929863;4.255407;0.7292502;2.441234;3.446398;0.6184316;1.839937;3.186468;1.303023;0.8899615;2.428928;0.848404;0.2683593;1.312164;0.1361482;0;0;0;0.8899615;2.428928;0.848404;0.2683593;1.312164;0.1361482;0;0;0
350020.9828;NotLabelled;16384;0.7332536;0.2105263;-0.3531856;0.5415512;0;0;-2;2544;-2766;1265;65536;0.08171745;-0.4639889;0.8747215;0.1135734;0;0;1;3202;1090;-2237;8192;0.07202215;-0.3850415;-0.7641565;-0.5124654;2;1;3;2170;3447;757;32768;-0.6481994;0.1204986;0.07894737;0.7477198;2;3;-2;3927;1121;610;256;0.6398892;-0.6570048;0.1925208;0.3490305;0;2;-1;687;3978;-315;128;0.6412833;-0.5844875;0.2811634;0.4099723;4;0;1;-803;4003;120;4;0.6711709;-0.6509695;-0.3047091;0.1814404;0;0;1;2469;3098;330;16;-0.4224377;0.265928;0.6267539;0.5983379;0;-1;0;821;4002;-554;2;-0.06925207;-0.05401662;-0.6509695;-0.754006;1;-3;0;769;3994;-597;8;0.3462604;-0.6410424;-0.2617728;-0.632964;0;-5;0;433;3161;2583;1.202222;2.471529;0.8451272;1.20804;3.001694;0.7166227;1.213148;3.467231;0.6017017;1.354444;4.182841;0.6817007;1.164254;4.555092;0.6793485;0.8010793;4.477704;0.7268289;0.1730945;5.117839;0.9596178;0.8520495;4.857715;0.3520387;1.674743;4.4543;0.6793478;1.929857;4.254835;0.726828;2.442814;3.446725;0.6167837;1.841518;3.186795;1.301376;0.8899617;2.428927;0.8484059;0.2683595;1.312164;0.1361493;0;0;0;0.8899617;2.428927;0.8484059;0.2683595;1.312164;0.1361493;0;0;0
350040.9868;NotLabelled;16384;0.7332536;0.2105263;-0.3531856;0.5415512;0;0;-2;2606;-2730;1305;65536;0.08171745;-0.4639889;0.8747215;0.1135734;1;0;1;3268;1166;-2229;8192;0.07063711;-0.3850415;-0.7642857;-0.5124654;1;2;2;2116;3537;779;32768;-0.6481994;0.1204986;0.08033241;0.7475722;1;1;-2;3811;1249;626;256;0.6398892;-0.6565974;0.1939058;0.3490305;-3;-15;-8;109;4398;-377;128;0.6406742;-0.5844875;0.2825485;0.4099723;3;-2;2;-809;4253;102;4;0.6711709;-0.6509695;-0.3047091;0.1814404;-1;-1;0;2581;3132;352;16;-0.4238227;0.265928;0.6258181;0.5983379;0;0;0;663;4006;-530;2;-0.06925207;-0.05401662;-0.6509695;-0.754006;0;-1;0;771;4068;-617;8;0.3462604;-0.6410424;-0.2617728;-0.632964;0;-1;0;235;3197;2583;1.203813;2.471014;0.8454829;1.209631;3.001178;0.7169743;1.214739;3.466714;0.6020494;1.354839;4.182652;0.6812207;1.164019;4.554576;0.6784957;0.8009865;4.476626;0.7261418;0.1726747;5.116761;0.958046;0.8527455;4.856636;0.3517169;1.674678;4.454649;0.6784953;1.93014;4.25567;0.7261416;2.444921;3.448462;0.6180129;1.841463;3.186592;1.299959;0.8915527;2.428412;0.8487621;0.2712615;1.311648;0.135365;0;0;0;0.8915527;2.428412;0.8487621;0.2712615;1.311648;0.135365;0;0;0
350061.0348;NotLabelled;16384;0.7336498;0.2091413;-0.3531856;0.5415512;1;0;-2;2646;-2802;1339;65536;0.08171745;-0.4639889;0.8747215;0.1135734;0;-2;2;3318;1100;-2241;8192;0.07063711;-0.3850415;-0.7642857;-0.5124654;0;3;2;2180;3365;753;32768;-0.6481994;0.1204986;0.08033241;0.7475722;1;2;-2;3871;1247;694;256;0.6398892;-0.6573318;0.1939058;0.3476454;0;0;-1;829;4004;-505;128;0.6419351;-0.5831025;0.2825485;0.4099723;5;-2;0;-731;4103;18;4;0.671798;-0.6509695;-0.3033241;0.1814404;0;-2;0;2639;3088;324;16;-0.4224377;0.265928;0.6267539;0.5983379;0;1;0;623;4036;-566;2;-0.06925207;-0.05401662;-0.6509695;-0.754006;0;-1;0;751;4106;-579;8;0.3462604;-0.6410424;-0.2617728;-0.632964;0;3;0;253;3223;2569;1.202912;2.473447;0.8412601;1.208725;3.003185;0.7110066;1.213829;3.46834;0.5945499;1.35243;4.184574;0.6736895;1.16083;4.556098;0.6709507;0.7979622;4.477389;0.7186033;0.1681355;5.115794;0.9511658;0.8467858;4.85567;0.3432462;1.671698;4.457241;0.6709498;1.927576;4.258799;0.7186021;2.442168;3.451592;0.6095759;1.840307;3.189721;1.292932;0.8906519;2.430857;0.8446907;0.2684277;1.312164;0.1360149;0;0;0;0.8906519;2.430857;0.8446907;0.2684277;1.312164;0.1360149;0;0;0
350082.0104;NotLabelled;16384;0.7336498;0.2091413;-0.3531856;0.5415512;1;1;-2;2716;-2860;1417;65536;0.08171745;-0.4639889;0.8747215;0.1135734;0;-3;1;3220;1142;-2399;8192;0.06925207;-0.3850415;-0.7644125;-0.5124654;0;3;3;2140;3419;765;32768;-0.6468144;0.1204986;0.08171745;0.748621;3;1;-2;3887;1231;612;256;0.6398892;-0.6565974;0.1939058;0.3490305;0;0;0;727;4056;-465;128;0.6413236;-0.5831025;0.2839335;0.4099723;8;-5;0;-795;4107;106;4;0.671798;-0.6509695;-0.3033241;0.1814404;1;-2;0;2599;3100;362;16;-0.4224377;0.265928;0.6267539;0.5983379;0;3;0;621;3984;-602;2;-0.06925207;-0.05401662;-0.6509695;-0.754006;0;0;0;723;4084;-521;8;0.3448753;-0.6417886;-0.2617728;-0.632964;0;1;0;433;3163;2587;1.200933;2.473448;0.8433391;1.206746;3.003185;0.7130819;1.21185;3.46834;0.5966218;1.351951;4.184277;0.6757929;1.161131;4.556202;0.6730683;0.798098;4.478252;0.7207146;0.167868;5.116658;0.9521798;0.8479387;4.856533;0.3458501;1.671789;4.456275;0.6730676;1.927251;4.257295;0.7207137;2.443697;3.450992;0.6137829;1.83968;3.187313;1.294536;0.8886729;2.430857;0.84677;0.2681086;1.312164;0.1366414;0;0;0;0.8886729;2.430857;0.84677;0.2681086;1.312164;0.1366414;0;0;0
350103.0055;NotLabelled;16384;0.7340433;0.2077562;-0.3531856;0.5415512;1;1;-3;2612;-2750;1353;65536;0.08171745;-0.4626039;0.8756333;0.1121884;0;0;1;3180;1112;-2359;8192;0.06786703;-0.3850415;-0.7645367;-0.5124654;0;5;7;2320;3479;601;32768;-0.6468144;0.1191136;0.08310249;0.7486902;8;5;-2;3933;1215;704;256;0.6398892;-0.6565974;0.1939058;0.3490305;0;-1;0;767;3954;-451;128;0.6419664;-0.5817174;0.2853186;0.4099723;6;-4;1;-833;4111;76;4;0.671798;-0.6509695;-0.3033241;0.1814404;0;-1;0;2543;3124;306;16;-0.4224377;0.2645429;0.6273398;0.5983379;0;3;0;759;4048;-632;2;-0.06925207;-0.05401662;-0.6509695;-0.754006;0;-1;1;727;3966;-559;8;0.3462604;-0.6410424;-0.2617728;-0.632964;0;-4;0;457;3163;2563;1.202944;2.472805;0.8452753;1.208752;3.00211;0.7132754;1.213852;3.466879;0.5952853;1.353953;4.182817;0.6744569;1.163132;4.554742;0.6717323;0.8000994;4.476791;0.7193783;0.1678165;5.113466;0.9500158;0.8494617;4.855657;0.3444653;1.673791;4.454815;0.6717318;1.929253;4.255835;0.719378;2.447423;3.450438;0.6139659;1.840733;3.186481;1.29223;0.8906837;2.430226;0.8488576;0.2701197;1.311532;0.1387281;0;0;0;0.8906837;2.430226;0.8488576;0.2701197;1.311532;0.1387281;0;0;0
350124.1074;NotLabelled;16384;0.7340433;0.2077562;-0.3531856;0.5415512;0;0;-3;2660;-2788;1437;65536;0.08171745;-0.4626039;0.8756333;0.1121884;0;-1;1;3196;1020;-2373;8192;0.06509695;-0.3850415;-0.7657038;-0.5110803;1;7;9;2416;3405;583;32768;-0.6454294;0.1191136;0.08448754;0.7497298;10;8;-3;3849;1099;730;256;0.6385041;-0.6579443;0.1939058;0.3490305;0;-2;0;725;3964;-403;128;0.6426026;-0.5803324;0.2867036;0.4099723;6;-4;0;-777;4025;110;4;0.671798;-0.6509695;-0.3033241;0.1814404;-1;-1;0;2671;3082;318;16;-0.4224377;0.2645429;0.6260158;0.599723;0;0;0;803;3978;-630;2;-0.06925207;-0.05401662;-0.6509695;-0.754006;0;0;0;693;3970;-619;8;0.3462604;-0.6410424;-0.2617728;-0.632964;0;-1;0;393;3153;2501;1.204697;2.472995;0.8399467;1.2105;3.001864;0.7062103;1.215596;3.466244;0.586695;1.354604;4.182109;0.6684068;1.163221;4.553751;0.6669785;0.8003026;4.475083;0.7143165;0.1682986;5.110995;0.9478037;0.8497519;4.853186;0.3420375;1.67403;4.454599;0.6666706;1.92979;4.255839;0.7136366;2.452313;3.453735;0.6046708;1.845293;3.18796;1.281928;0.8924373;2.430428;0.8436802;0.2716484;1.311734;0.133747;0;0;0;0.8924373;2.430428;0.8436802;0.2716484;1.311734;0.133747;0;0;0
350145.1717;NotLabelled;16384;0.7340433;0.2077562;-0.3531856;0.5415512;0;0;-1;2648;-2734;1417;65536;0.08171745;-0.4626039;0.8758096;0.1108033;0;0;1;3214;976;-2383;8192;0.06232687;-0.3864266;-0.7652364;-0.5110803;4;11;12;2396;3457;637;32768;-0.6440443;0.1177285;0.08725762;0.7508216;12;9;-4;3815;1023;864;256;0.6385041;-0.6575345;0.1952908;0.3490305;0;-2;0;767;3970;-405;128;0.6410962;-0.5803324;0.2880886;0.4113573;7;-3;1;-785;3995;136;4;0.671798;-0.6509695;-0.3033241;0.1814404;0;0;0;2607;3016;366;16;-0.4224377;0.2645429;0.6273398;0.5983379;0;0;0;651;4000;-584;2;-0.06786703;-0.05540166;-0.6509695;-0.7540314;0;-1;-1;777;4002;-607;8;0.3462604;-0.6410424;-0.2617728;-0.632964;0;0;0;487;3139;2595;1.20114;2.472801;0.8471195;1.206947;3.001979;0.7146086;1.212045;3.466634;0.5961695;1.349809;4.182825;0.6771324;1.157797;4.55414;0.6752143;0.7949947;4.474911;0.7225012;0.1624595;5.111585;0.9524462;0.8466707;4.856037;0.3488342;1.668774;4.455853;0.6752136;1.924852;4.25758;0.7225003;2.451915;3.457486;0.6208715;1.840065;3.189597;1.29293;0.8888797;2.430226;0.8507463;0.2698245;1.311532;0.1393009;0;0;0;0.8888797;2.430226;0.8507463;0.2698245;1.311532;0.1393009;0;0;0
350166.1366;NotLabelled;16384;0.7347081;0.2077562;-0.3518005;0.5415512;-2;1;-1;2712;-2764;1395;65536;0.08171745;-0.4626039;0.8758096;0.1108033;-1;0;1;3210;970;-2339;8192;0.05955679;-0.3850415;-0.7661546;-0.5110803;5;12;13;2258;3423;565;32768;-0.6426592;0.1163435;0.08864266;0.752061;13;10;-5;3819;1061;690;256;0.6385041;-0.6575345;0.1952908;0.3490305;0;-1;0;737;3888;-321;128;0.6423473;-0.5789474;0.2880886;0.4113573;4;-3;0;-809;4027;180;4;0.671798;-0.6509695;-0.3033241;0.1814404;0;0;0;2595;3078;446;16;-0.4224377;0.2645429;0.6273398;0.5983379;0;3;0;691;4010;-592;2;-0.06786703;-0.05540166;-0.6509695;-0.7540314;0;-1;0;759;3952;-619;8;0.3462604;-0.6410424;-0.2617728;-0.632964;0;-1;0;427;3129;2557;1.20114;2.472789;0.8469695;1.206942;3.001531;0.7127286;1.212036;3.465796;0.5927706;1.3498;4.181987;0.6737335;1.157788;4.553302;0.6718154;0.7949855;4.474073;0.7191023;0.1619153;5.109613;0.9507055;0.8461262;4.854065;0.3470939;1.668765;4.455016;0.6718147;1.924843;4.256742;0.7191014;2.454266;3.457959;0.6194482;1.840121;3.189887;1.289336;0.8888798;2.430226;0.8507466;0.2698245;1.311532;0.139301;0;0;0;0.8888798;2.430226;0.8507466;0.2698245;1.311532;0.139301;0;0;0
350187.2879;NotLabelled;16384;0.7347081;0.2077562;-0.3518005;0.5415512;-2;1;0;2688;-2776;1387;65536;0.08171745;-0.4626039;0.8758096;0.1108033;-3;0;1;3238;976;-2257;8192;0.0567867;-0.3850415;-0.7663649;-0.5110803;6;9;13;2158;3379;567;32768;-0.6426592;0.1149584;0.09141274;0.7519424;14;8;-5;3875;1111;566;256;0.6385041;-0.6575345;0.1952908;0.3490305;1;0;0;765;3884;-449;128;0.6417243;-0.5789474;0.2894737;0.4113573;3;-4;0;-785;4067;104;4;0.671798;-0.6509695;-0.3033241;0.1814404;0;-2;0;2629;3090;344;16;-0.4224377;0.2645429;0.6260158;0.599723;0;1;0;771;3942;-576;2;-0.06786703;-0.05540166;-0.6509695;-0.7540314;0;0;1;679;3938;-559;8;0.3448753;-0.6404197;-0.2617728;-0.634349;0;0;-1;459;3179;2593;1.202637;2.472991;0.8420771;1.208439;3.001732;0.7078347;1.213533;3.465997;0.587875;1.351297;4.182187;0.668838;1.159285;4.553503;0.6669199;0.7964824;4.474274;0.7142067;0.1635496;5.109813;0.9461859;0.8477607;4.854265;0.3425741;1.670262;4.455216;0.666919;1.926339;4.256943;0.7142059;2.458952;3.460011;0.6167443;1.841329;3.189699;1.282522;0.8903767;2.430428;0.8458545;0.2713217;1.311734;0.1344091;0;0;0;0.8903767;2.430428;0.8458545;0.2713217;1.311734;0.1344091;0;0;0
350208.0184;NotLabelled;16384;0.7347081;0.2077562;-0.3518005;0.5415512;-2;1;0;2644;-2804;1303;65536;0.08171745;-0.4626039;0.8758096;0.1108033;-3;0;0;3260;1108;-2317;8192;0.05124654;-0.3850415;-0.7658303;-0.5124654;6;13;12;2178;3359;675;32768;-0.6412742;0.1135734;0.09418282;0.7529927;13;8;-2;3851;1005;608;256;0.6385041;-0.6567975;0.1952908;0.3504155;2;1;0;789;3952;-469;128;0.6417243;-0.5789474;0.2894737;0.4113573;4;-3;0;-881;4085;82;4;0.6714224;-0.6509695;-0.3033241;0.1828255;0;-1;0;2641;3098;308;16;-0.4224377;0.2645429;0.6260158;0.599723;0;-3;0;735;3954;-582;2;-0.06786703;-0.05540166;-0.6509695;-0.7540314;0;0;1;687;3962;-653;8;0.3462604;-0.6410424;-0.2617728;-0.632964;0;-1;0;405;3239;2479;1.202243;2.471046;0.8458288;1.208045;2.999787;0.7115864;1.213139;3.464052;0.5916268;1.352403;4.179949;0.6726224;1.161169;4.551666;0.670719;0.7982007;4.473195;0.7179993;0.1647258;5.108734;0.948494;0.8503505;4.853187;0.3464879;1.671939;4.452309;0.6707183;1.9276;4.253498;0.7179986;2.465661;3.459175;0.6295784;1.843382;3.186714;1.290125;0.8899831;2.428483;0.8496063;0.2710055;1.311734;0.1350448;0;0;0;0.8899831;2.428483;0.8496063;0.2710055;1.311734;0.1350448;0;0;0
350228.2224;NotLabelled;16384;0.7347081;0.2077562;-0.3518005;0.5415512;-2;0;1;2750;-2888;1295;65536;0.08171745;-0.4626039;0.8756333;0.1121884;-1;0;0;3256;1206;-2393;8192;0.04709141;-0.3836565;-0.7667916;-0.5124654;7;14;10;2048;3377;749;32768;-0.6412742;0.1121884;0.09556787;0.7530259;11;6;-2;3933;1075;590;256;0.6385041;-0.6572077;0.1939058;0.3504155;3;2;1;793;4018;-355;128;0.6423458;-0.5775623;0.2908587;0.4113573;4;-2;0;-887;4111;46;4;0.6714224;-0.6509695;-0.3033241;0.1828255;-1;0;0;2563;3160;310;16;-0.4224377;0.2645429;0.6273398;0.5983379;0;-3;0;749;4020;-612;2;-0.06786703;-0.05540166;-0.6495845;-0.7552249;0;-1;0;757;4052;-625;8;0.3462604;-0.6410424;-0.2617728;-0.632964;0;-1;0;447;3213;2561;1.202819;2.470832;0.8483952;1.208616;2.999131;0.7124267;1.213707;3.463002;0.5909518;1.354213;4.178571;0.6726956;1.163607;4.550613;0.6712826;0.8005247;4.472703;0.7186155;0.1681802;5.107481;0.954253;0.8510504;4.849672;0.3500841;1.674208;4.450393;0.6709729;1.929551;4.251097;0.7179314;2.470954;3.459316;0.6271408;1.847692;3.186556;1.286636;0.8905594;2.428281;0.8523226;0.2698383;1.311532;0.139275;0;0;0;0.8905594;2.428281;0.8523226;0.2698383;1.311532;0.139275;0;0;0
350248.0813;NotLabelled;16384;0.734315;0.2091413;-0.3518005;0.5415512;-1;0;0;2644;-2932;1277;65536;0.08171745;-0.4626039;0.8756333;0.1121884;-1;1;0;3320;1164;-2303;8192;0.04570637;-0.3836565;-0.7668754;-0.5124654;6;11;7;1940;3351;811;32768;-0.6398892;0.1108033;0.09695291;0.7542311;8;3;0;3911;1073;526;256;0.6385041;-0.6579443;0.1939058;0.3490305;2;3;0;831;4026;-375;128;0.6435885;-0.5761772;0.2908587;0.4113573;3;-2;0;-855;4073;-20;4;0.6714224;-0.6509695;-0.3033241;0.1828255;0;0;0;2671;3108;278;16;-0.4224377;0.2645429;0.6273398;0.5983379;0;-2;0;677;4044;-638;2;-0.06786703;-0.05540166;-0.6495845;-0.7552249;-1;-1;0;743;3984;-619;8;0.3448753;-0.6417886;-0.2617728;-0.632964;0;1;0;399;3167;2539;1.204301;2.470819;0.8466944;1.210093;2.998673;0.7090065;1.215179;3.462146;0.5860217;1.354138;4.178011;0.6678171;1.162755;4.549653;0.6662736;0.7998083;4.470985;0.7133934;0.1690755;5.108259;0.9466032;0.8508931;4.850451;0.341247;1.673565;4.450501;0.6662731;1.929296;4.251741;0.713393;2.472401;3.460617;0.6271708;1.848042;3.187633;1.285535;0.8920412;2.428281;0.8507714;0.2700802;1.311532;0.1388049;0;0;0;0.8920412;2.428281;0.8507714;0.2700802;1.311532;0.1388049;0;0;0
350269.0633;NotLabelled;16384;0.734315;0.2091413;-0.3518005;0.5415512;-1;0;1;2664;-2876;1253;65536;0.08171745;-0.4626039;0.8756333;0.1121884;-1;1;0;3290;1136;-2237;8192;0.04432133;-0.3822715;-0.7667215;-0.5138504;5;7;4;1922;3479;773;32768;-0.6398892;0.1108033;0.09833795;0.7540518;5;1;0;3867;1145;552;256;0.6385041;-0.6583509;0.1925208;0.3490305;1;4;1;775;4050;-381;128;0.6435885;-0.5761772;0.2908587;0.4113573;0;0;0;-819;4053;-42;4;0.6714224;-0.6509695;-0.3033241;0.1828255;0;1;0;2667;3078;300;16;-0.4224377;0.2645429;0.6273398;0.5983379;0;2;0;641;3986;-682;2;-0.06786703;-0.05540166;-0.6509695;-0.7540314;-1;0;0;755;4026;-549;8;0.3448753;-0.6417886;-0.2617728;-0.632964;-1;0;0;413;3159;2547;1.205861;2.470819;0.8450553;1.211653;2.998673;0.7073675;1.216739;3.462146;0.5843828;1.356895;4.177682;0.6670057;1.166144;4.549651;0.6658348;0.8030538;4.471546;0.7127885;0.1733218;5.10882;0.9486879;0.8540269;4.851011;0.3420812;1.676784;4.449632;0.6658341;1.932167;4.250386;0.7127877;2.474281;3.45851;0.6272205;1.850307;3.183579;1.28514;0.8936015;2.428281;0.8491327;0.2703345;1.311532;0.138309;0;0;0;0.8936015;2.428281;0.8491327;0.2703345;1.311532;0.138309;0;0;0
350290.1189;NotLabelled;16384;0.734315;0.2091413;-0.3518005;0.5415512;-1;0;1;2702;-2842;1211;65536;0.08171745;-0.4639889;0.8749002;0.1121884;0;2;0;3248;1144;-2203;8192;0.04293629;-0.3808864;-0.7674893;-0.5138504;3;3;1;1972;3347;777;32768;-0.6412742;0.1094183;0.09833795;0.7530768;3;0;1;3851;1125;572;256;0.6385041;-0.6583509;0.1925208;0.3490305;1;5;0;805;3948;-393;128;0.6435885;-0.5761772;0.2908587;0.4113573;0;0;-1;-839;4015;22;4;0.6714224;-0.6509695;-0.3033241;0.1828255;1;0;0;2587;3072;268;16;-0.4224377;0.2645429;0.6273398;0.5983379;0;4;0;703;3978;-618;2;-0.06786703;-0.05540166;-0.6509695;-0.7540314;-1;0;-1;731;3996;-633;8;0.3448753;-0.6417886;-0.2617728;-0.632964;0;0;0;403;3195;2611;1.205861;2.470819;0.8450553;1.211653;2.998673;0.7073675;1.216739;3.462146;0.5843828;1.356895;4.177682;0.6670057;1.166144;4.549651;0.6658348;0.8030538;4.471546;0.7127885;0.1728897;5.10882;0.9475315;0.8533112;4.850953;0.3406314;1.676784;4.449632;0.6658341;1.932167;4.250386;0.7127877;2.475016;3.458877;0.628495;1.84893;3.18552;1.285062;0.8936015;2.428281;0.8491327;0.2703345;1.311532;0.138309;0;0;0;0.8936015;2.428281;0.8491327;0.2703345;1.311532;0.138309;0;0;0
350311.0412;NotLabelled;16384;0.7339191;0.2105263;-0.3518005;0.5415512;0;-1;1;2608;-2838;1165;65536;0.08310249;-0.4639889;0.8747697;0.1121884;2;1;-1;3230;1158;-2137;8192;0.04293629;-0.3808864;-0.7674893;-0.5138504;2;3;0;2066;3409;781;32768;-0.6412742;0.1094183;0.09833795;0.7530768;3;0;0;3739;1217;638;256;0.6385041;-0.6587543;0.1911357;0.3490305;0;4;1;739;3948;-437;128;0.6442126;-0.5761772;0.2894737;0.4113573;-1;0;0;-787;4055;-4;4;0.670795;-0.6509695;-0.3047091;0.1828255;0;2;1;2535;3106;338;16;-0.4210526;0.2645429;0.6282701;0.5983379;0;1;0;845;4028;-616;2;-0.06786703;-0.05401662;-0.6509695;-0.7541319;0;2;0;793;4012;-545;8;0.3448753;-0.6417886;-0.2617728;-0.632964;0;2;0;409;3109;2625;1.204001;2.469395;0.8479531;1.209794;2.99725;0.7102657;1.214879;3.460722;0.5872815;1.356234;4.175927;0.670727;1.166116;4.548222;0.6699265;0.8028839;4.470683;0.7167151;0.1755048;5.109688;0.954195;0.8560883;4.85063;0.3479832;1.676586;4.447334;0.6699259;1.93162;4.247601;0.7167143;2.474155;3.456093;0.630433;1.849274;3.182736;1.288146;0.8917415;2.426857;0.8520301;0.2674357;1.312045;0.1390823;0;0;0;0.8917415;2.426857;0.8520301;0.2674357;1.312045;0.1390823;0;0;0
350330.9872;NotLabelled;16384;0.7328951;0.2105263;-0.3518005;0.5429363;2;-1;0;2554;-2880;1201;65536;0.08448754;-0.4639889;0.874637;0.1121884;2;0;-2;3226;1192;-2251;8192;0.04155125;-0.3795014;-0.767323;-0.5152354;2;3;2;2242;3351;777;32768;-0.6398892;0.1094183;0.09972299;0.7540721;1;0;0;3859;1199;730;256;0.6385041;-0.6587543;0.1911357;0.3490305;0;1;0;745;4008;-403;128;0.6433262;-0.5761772;0.2894737;0.4127424;0;-1;0;-785;4113;44;4;0.6711709;-0.6509695;-0.3047091;0.1814404;0;0;0;2557;3164;282;16;-0.4224377;0.2645429;0.6273398;0.5983379;0;-2;-1;711;3988;-580;2;-0.06925207;-0.05401662;-0.6509695;-0.754006;-1;1;0;859;4016;-593;8;0.3448753;-0.6417886;-0.2617728;-0.632964;0;3;0;451;3163;2485;1.205549;2.470843;0.8451392;1.211345;2.999017;0.7086817;1.216434;3.462775;0.5867772;1.357789;4.17798;0.6702226;1.167671;4.550273;0.6694223;0.8044387;4.472735;0.7162107;0.1775696;5.112245;0.953679;0.8594215;4.851998;0.3494057;1.678141;4.449386;0.6694216;1.933174;4.249655;0.7162101;2.475191;3.457391;0.6336671;1.849836;3.182157;1.290147;0.8932897;2.428296;0.8491092;0.2705879;1.311532;0.1378138;0;0;0;0.8932897;2.428296;0.8491092;0.2705879;1.311532;0.1378138;0;0;0
350351.9719;NotLabelled;16384;0.7326255;0.2091413;-0.3531856;0.5429363;2;-1;1;2604;-2856;1285;65536;0.08448754;-0.4639889;0.8748136;0.1108033;3;1;-2;3244;1142;-2253;8192;0.0401662;-0.3795014;-0.7673968;-0.5152354;2;2;2;2292;3373;713;32768;-0.6398892;0.1080332;0.09972299;0.7542718;2;-2;0;3927;1161;622;256;0.6385041;-0.6587543;0.1911357;0.3490305;0;0;0;839;3944;-455;128;0.6427011;-0.5761772;0.2908587;0.4127424;0;-2;0;-837;4067;106;4;0.6711709;-0.6509695;-0.3047091;0.1814404;1;0;0;2561;3124;350;16;-0.4224377;0.2645429;0.6273398;0.5983379;0;-2;0;699;3952;-548;2;-0.06925207;-0.05540166;-0.6509695;-0.7539055;0;0;0;785;4036;-617;8;0.3448753;-0.6417886;-0.2617728;-0.632964;0;-1;0;477;3215;2523;1.205549;2.470844;0.8451384;1.211345;2.999017;0.7086798;1.216434;3.462775;0.5867744;1.357789;4.17798;0.6702197;1.167671;4.550273;0.6694193;0.8044385;4.472735;0.7162079;0.1758354;5.111652;0.9506694;0.8589754;4.853663;0.3468825;1.678141;4.449386;0.6694188;1.933174;4.249655;0.7162072;2.476797;3.458332;0.6352146;1.849683;3.18474;1.290701;0.8932894;2.428296;0.8491084;0.2705878;1.311533;0.1378131;0;0;0;0.8932894;2.428296;0.8491084;0.2705878;1.311533;0.1378131;0;0;0
350372.1173;NotLabelled;16384;0.7326255;0.2091413;-0.3531856;0.5429363;3;-1;0;2622;-2850;1251;65536;0.08587258;-0.4639889;0.8746787;0.1108033;2;1;-1;3214;1174;-2277;8192;0.0401662;-0.3795014;-0.7673968;-0.5152354;1;3;1;2218;3429;737;32768;-0.6412742;0.1080332;0.09972299;0.7530947;2;-4;0;3881;1183;552;256;0.6385041;-0.6583509;0.1925208;0.3490305;-6;-24;0;479;4080;-473;128;0.6427011;-0.5761772;0.2908587;0.4127424;-3;-2;0;-685;4195;-28;4;0.6711709;-0.6509695;-0.3047091;0.1814404;0;0;0;2529;3104;366;16;-0.4224377;0.2645429;0.6273398;0.5983379;0;-1;0;785;3992;-502;2;-0.06925207;-0.05401662;-0.6509695;-0.754006;0;2;0;745;4000;-543;8;0.3448753;-0.6417886;-0.2617728;-0.632964;0;1;-1;415;3175;2571;1.203992;2.470843;0.8467736;1.209788;2.999017;0.710315;1.214877;3.462775;0.5884095;1.355032;4.178311;0.6710322;1.164281;4.55028;0.6698615;0.8011914;4.472175;0.7168155;0.1717334;5.111092;0.9489718;0.8572381;4.851914;0.3483829;1.674922;4.45026;0.6698605;1.930305;4.251015;0.7168142;2.474221;3.459693;0.6378143;1.845557;3.186039;1.291789;0.8917322;2.428296;0.8507438;0.2703346;1.311532;0.1383087;0;0;0;0.8917322;2.428296;0.8507438;0.2703346;1.311532;0.1383087;0;0;0
350393.0034;NotLabelled;16384;0.7326255;0.2091413;-0.3531856;0.5429363;2;-2;0;2544;-2842;1327;65536;0.08587258;-0.4639889;0.8746787;0.1108033;2;0;-1;3234;1108;-2267;8192;0.0401662;-0.3795014;-0.7673968;-0.5152354;0;2;0;2220;3495;747;32768;-0.6412742;0.1094183;0.09972299;0.7528946;3;-4;0;3895;1305;544;256;0.6385041;-0.6583509;0.1925208;0.3490305;0;5;-1;545;4056;-311;128;0.6427011;-0.5761772;0.2908587;0.4127424;-3;-1;0;-759;4059;92;4;0.6711709;-0.6509695;-0.3047091;0.1814404;0;0;-1;2495;3126;302;16;-0.4224377;0.265928;0.6267539;0.5983379;0;-4;0;755;3976;-574;2;-0.06925207;-0.05401662;-0.6509695;-0.754006;0;2;0;731;3946;-553;8;0.3448753;-0.6412219;-0.2631579;-0.632964;0;0;0;441;3189;2571;1.201977;2.471474;0.844691;1.207773;2.999648;0.7082325;1.212862;3.463406;0.5863271;1.353018;4.178943;0.6689498;1.162266;4.550911;0.667779;0.7991764;4.472806;0.7147329;0.1701451;5.111723;0.9480417;0.8556504;4.852546;0.3474534;1.672907;4.450891;0.6677784;1.92829;4.251646;0.7147318;2.472061;3.460324;0.6347357;1.845152;3.185025;1.289705;0.8897174;2.428927;0.8486612;0.2683203;1.312164;0.1362261;0;0;0;0.8897174;2.428927;0.8486612;0.2683203;1.312164;0.1362261;0;0;0
350413.2107;NotLabelled;16384;0.7323505;0.2077562;-0.3545706;0.5429363;2;-2;0;2540;-2858;1295;65536;0.08725762;-0.4639889;0.8745416;0.1108033;2;1;0;3260;1232;-2273;8192;0.03878116;-0.3781163;-0.7681513;-0.5152354;0;3;1;2346;3359;735;32768;-0.6426592;0.1080332;0.101108;0.7517281;3;-4;0;3837;1261;766;256;0.6385041;-0.6583509;0.1925208;0.3490305;1;3;-1;679;3944;-385;128;0.6414567;-0.5775623;0.2908587;0.4127424;0;-1;1;-785;4055;88;4;0.671798;-0.6509695;-0.3033241;0.1814404;-1;0;0;2537;3170;260;16;-0.4238227;0.265928;0.6271394;0.5969529;0;-11;0;883;3946;-548;2;-0.06925207;-0.05401662;-0.6509695;-0.754006;0;0;0;715;4042;-523;8;0.3448753;-0.6412219;-0.2631579;-0.632964;0;0;0;419;3191;2509;1.203417;2.472692;0.8457224;1.209218;3.001307;0.7109844;1.214311;3.465459;0.5905898;1.354417;4.180996;0.6732966;1.163666;4.552963;0.6720106;0.8005481;4.474859;0.7187456;0.1696367;5.11393;0.9464931;0.8567564;4.853562;0.3482689;1.674307;4.452945;0.6723179;1.929662;4.2537;0.7194256;2.47409;3.462483;0.6429409;1.843862;3.186831;1.294568;0.8911571;2.430132;0.8495427;0.2699202;1.311438;0.140002;0;0;0;0.8911571;2.430132;0.8495427;0.2699202;1.311438;0.140002;0;0;0
350434.0146;NotLabelled;16384;0.7323505;0.2077562;-0.3545706;0.5429363;2;-2;-1;2568;-2796;1357;65536;0.08725762;-0.4639889;0.874716;0.1094183;3;1;0;3160;1230;-2269;8192;0.03739612;-0.3781163;-0.7682201;-0.5152354;0;6;1;2218;3315;777;32768;-0.6426592;0.1080332;0.1024931;0.7515405;3;-4;-1;3767;1159;634;256;0.6385041;-0.6583509;0.1925208;0.3490305;4;13;0;1653;3614;-341;128;0.6414567;-0.5775623;0.2908587;0.4127424;0;-3;1;-821;3967;322;4;0.671798;-0.6509695;-0.3033241;0.1814404;-1;0;-1;2501;3080;378;16;-0.4252077;0.267313;0.6256112;0.5969529;0;-17;-1;903;3962;-562;2;-0.06925207;-0.05401662;-0.6509695;-0.754006;0;-1;0;717;3988;-579;8;0.3448753;-0.6412219;-0.2631579;-0.632964;0;-2;0;415;3195;2513;1.205067;2.472813;0.8418071;1.210867;3.001428;0.7070693;1.215961;3.46558;0.5866747;1.356116;4.181117;0.6692972;1.165365;4.553085;0.6681262;0.8022752;4.47498;0.71508;0.1716319;5.113305;0.9456444;0.8596729;4.855196;0.3475003;1.676006;4.453066;0.6681254;1.931388;4.25382;0.7150793;2.477285;3.4638;0.6367123;1.846636;3.186212;1.287107;0.8928069;2.430253;0.8456277;0.2711424;1.311559;0.1364616;0;0;0;0.8928069;2.430253;0.8456277;0.2711424;1.311559;0.1364616;0;0;0
350455.0094;NotLabelled;16384;0.7323505;0.2077562;-0.3545706;0.5429363;1;-1;0;2576;-2882;1331;65536;0.08864266;-0.4653739;0.8738405;0.1094183;2;2;0;3188;1152;-2233;8192;0.03739612;-0.3767313;-0.7689002;-0.5152354;0;3;0;2128;3297;753;32768;-0.6440443;0.1080332;0.1024931;0.7503539;2;-3;-1;3769;1171;504;256;0.6385041;-0.6590834;0.1925208;0.3476454;1;2;-2;763;3924;-421;128;0.6414567;-0.5775623;0.2908587;0.4127424;1;0;1;-747;4001;14;4;0.671798;-0.6509695;-0.3033241;0.1814404;-2;-4;0;2609;3106;390;16;-0.4265928;0.2686981;0.625395;0.5955678;0;-19;-2;763;3998;-664;2;-0.06925207;-0.05401662;-0.6509695;-0.754006;0;0;0;737;3976;-573;8;0.3448753;-0.6412219;-0.2631579;-0.632964;0;0;0;447;3179;2529;1.206735;2.472721;0.8412147;1.212536;3.001335;0.7064768;1.217629;3.465488;0.5860823;1.35629;4.18132;0.6686713;1.164762;4.552888;0.6674852;0.801837;4.474028;0.714446;0.171736;5.112351;0.9464888;0.8593391;4.852975;0.3483898;1.675611;4.453936;0.6674844;1.93141;4.255227;0.7144448;2.476123;3.464622;0.633777;1.846643;3.18698;1.285281;0.8944753;2.430161;0.8450353;0.2711502;1.311467;0.1373284;0;0;0;0.8944753;2.430161;0.8450353;0.2711502;1.311467;0.1373284;0;0;0
350476.2505;NotLabelled;16384;0.7323505;0.2077562;-0.3545706;0.5429363;2;-2;-2;2566;-2842;1311;65536;0.08864266;-0.4653739;0.8738405;0.1094183;3;2;0;3202;1156;-2211;8192;0.03739612;-0.3767313;-0.7689002;-0.5152354;0;0;0;2076;3333;773;32768;-0.6440443;0.1080332;0.1024931;0.7503539;2;-3;-2;3785;1171;526;256;0.6385041;-0.6590834;0.1925208;0.3476454;0;2;-2;739;3908;-423;128;0.6414567;-0.5775623;0.2908587;0.4127424;0;0;1;-691;4043;18;4;0.6714224;-0.6509695;-0.3033241;0.1828255;-2;-1;1;2683;3066;240;16;-0.4279778;0.2728532;0.6252815;0.5927978;0;-7;-1;619;4012;-674;2;-0.06925207;-0.05401662;-0.6509695;-0.754006;0;1;0;719;3978;-517;8;0.3448753;-0.6417886;-0.2617728;-0.632964;0;-8;-1;609;3075;2481;1.202579;2.47172;0.8450834;1.20838;3.000334;0.7103455;1.213473;3.464488;0.589951;1.352135;4.180319;0.6725399;1.160606;4.551888;0.6713539;0.7976811;4.473027;0.7183146;0.1675801;5.111351;0.9503574;0.8551831;4.851974;0.3522584;1.671455;4.452935;0.671353;1.927254;4.254226;0.7183133;2.471967;3.463622;0.6376457;1.842487;3.185979;1.289149;0.8903195;2.42916;0.8489039;0.2653881;1.312411;0.1395438;0;0;0;0.8903195;2.42916;0.8489039;0.2653881;1.312411;0.1395438;0;0;0
350497.2577;NotLabelled;16384;0.732742;0.2063712;-0.3545706;0.5429363;1;-3;-3;2646;-2808;1265;65536;0.08864266;-0.4653739;0.8740128;0.1080332;3;1;0;3248;1140;-2211;8192;0.03739612;-0.3767313;-0.7689002;-0.5152354;0;2;1;2144;3407;657;32768;-0.6440443;0.1080332;0.1024931;0.7503539;1;-1;-2;3769;1243;588;256;0.6385041;-0.6590834;0.1925208;0.3476454;0;2;-2;739;3968;-403;128;0.6414567;-0.5775623;0.2908587;0.4127424;0;0;1;-721;4063;24;4;0.6720464;-0.6509695;-0.301939;0.1828255;-1;0;2;2691;3062;206;16;-0.4279778;0.2728532;0.6252815;0.5927978;-1;-2;-1;681;4040;-706;2;-0.06925207;-0.05401662;-0.6509695;-0.754006;1;-1;0;643;3866;-647;8;0.3462604;-0.6416063;-0.2603878;-0.632964;-1;-12;-1;463;3101;2527;1.202827;2.47365;0.8418174;1.208627;3.002264;0.7070796;1.213721;3.466418;0.5866851;1.352382;4.182249;0.669274;1.160854;4.553818;0.668088;0.7979285;4.474957;0.7150487;0.1659158;5.111549;0.9466478;0.8547999;4.854432;0.349048;1.671702;4.454865;0.6680871;1.927501;4.256156;0.7150476;2.472214;3.465552;0.6343797;1.842734;3.187909;1.285883;0.8905669;2.43109;0.8456381;0.2653883;1.312411;0.1395438;0;0;0;0.8905669;2.43109;0.8456381;0.2653883;1.312411;0.1395438;0;0;0
350518.9957;NotLabelled;16384;0.732742;0.2063712;-0.3545706;0.5429363;2;-2;-3;2612;-2756;1223;65536;0.08864266;-0.4653739;0.8740128;0.1080332;3;0;1;3248;1150;-2143;8192;0.03739612;-0.3767313;-0.7698265;-0.5138504;-1;3;0;2162;3329;851;32768;-0.6440443;0.1080332;0.1024931;0.7503539;1;0;-1;3707;1209;592;256;0.6385041;-0.6590834;0.1925208;0.3476454;0;0;-2;697;3930;-389;128;0.6423458;-0.5775623;0.2908587;0.4113573;1;0;1;-735;4035;4;4;0.6716681;-0.6509695;-0.301939;0.1842105;-1;-1;3;2671;3102;308;16;-0.4293629;0.2728532;0.6243312;0.5927978;-2;-4;-1;845;3984;-656;2;-0.06786703;-0.05401662;-0.6509695;-0.7541319;2;-3;0;579;3888;-585;8;0.3476454;-0.6427817;-0.2590028;-0.6315789;-1;-7;0;349;3263;2607;1.207585;2.471197;0.8420205;1.213382;2.999497;0.7060521;1.218472;3.463368;0.5845771;1.357133;4.179199;0.6671664;1.165605;4.550768;0.6659805;0.8026796;4.471908;0.7129411;0.170667;5.1085;0.9445404;0.8595512;4.851382;0.3469403;1.676454;4.451817;0.6659796;1.932253;4.253107;0.7129399;2.478192;3.463627;0.629588;1.848712;3.185984;1.281092;0.8953247;2.428646;0.8459481;0.2685404;1.311912;0.138201;0;0;0;0.8953247;2.428646;0.8459481;0.2685404;1.311912;0.138201;0;0;0
350541.1387;NotLabelled;16384;0.7321029;0.2049861;-0.3545706;0.5443213;3;0;-3;2624;-2820;1225;65536;0.08864266;-0.4653739;0.8741829;0.1066482;5;0;1;3262;1106;-2143;8192;0.03739612;-0.3767313;-0.7698265;-0.5138504;-1;-2;-1;2066;3409;841;32768;-0.6454294;0.1094183;0.1038781;0.748771;-3;-2;-3;3859;1185;464;256;0.6385041;-0.6598121;0.1925208;0.3462604;0;1;-3;695;4004;-403;128;0.6417168;-0.5775623;0.2922437;0.4113573;1;1;2;-741;3979;-2;4;0.6710437;-0.6509695;-0.3033241;0.1842105;-1;-3;4;2549;3152;366;16;-0.4293629;0.2742382;0.6250376;0.5914127;-2;-10;-1;723;3968;-624;2;-0.06786703;-0.05540166;-0.6509695;-0.7540314;2;-3;-1;699;4046;-607;8;0.3476454;-0.6427817;-0.2590028;-0.6315789;0;0;0;239;3225;2571;1.205901;2.469658;0.8460066;1.211698;2.997958;0.710037;1.216789;3.461829;0.5885609;1.353956;4.177952;0.6711169;1.161653;4.549119;0.669916;0.7988935;4.469504;0.7168829;0.1663576;5.104885;0.9503748;0.8551174;4.850027;0.3516653;1.672707;4.451234;0.6699154;1.928921;4.253061;0.7168826;2.474664;3.463581;0.6322544;1.847281;3.182303;1.284221;0.8936415;2.427107;0.8499343;0.2654438;1.31231;0.1403911;0;0;0;0.8936415;2.427107;0.8499343;0.2654438;1.31231;0.1403911;0;0;0
350562.8736;NotLabelled;16384;0.7324893;0.2036011;-0.3545706;0.5443213;5;-1;-5;2616;-2802;1275;65536;0.08864266;-0.4653739;0.8743507;0.1052632;5;0;1;3388;1072;-2229;8192;0.03878116;-0.3767313;-0.769758;-0.5138504;-1;-4;-3;2106;3415;795;32768;-0.6454294;0.1108033;0.1038781;0.7485672;-2;-2;-2;3925;1357;578;256;0.6371191;-0.6596085;0.1952908;0.3476454;-1;3;-4;507;4066;-309;128;0.6404676;-0.5789474;0.2922437;0.4113573;-4;-2;1;-825;4179;24;4;0.6712867;-0.6509695;-0.301939;0.1855956;-1;-4;3;2549;3096;414;16;-0.4293629;0.2756233;0.624428;0.5914127;-1;-10;-2;659;3980;-674;2;-0.06648199;-0.05540166;-0.6509695;-0.7541548;0;-3;0;921;4166;-457;8;0.3462604;-0.6435289;-0.2590028;-0.6315789;0;-1;0;425;3143;2631;1.200374;2.470287;0.8480622;1.206176;2.999027;0.7138156;1.21127;3.463291;0.5938525;1.346398;4.179688;0.6773985;1.153049;4.550313;0.6766433;0.7905032;4.469613;0.7234115;0.1547437;5.103259;0.952826;0.8485259;4.850661;0.358976;1.664377;4.453869;0.6766431;1.921136;4.256357;0.7234114;2.465793;3.465938;0.6405677;1.83607;3.183006;1.289557;0.888114;2.427724;0.8518397;0.2625348;1.312941;0.1399636;0;0;0;0.888114;2.427724;0.8518397;0.2625348;1.312941;0.1399636;0;0;0
350585.0126;NotLabelled;16384;0.7328728;0.2022161;-0.3545706;0.5443213;5;-1;-5;2722;-2876;1349;65536;0.08864266;-0.4653739;0.8743507;0.1052632;5;-2;2;3330;1136;-2323;8192;0.03878116;-0.3767313;-0.769758;-0.5138504;-1;-1;-2;2272;3369;773;32768;-0.6454294;0.1108033;0.1024931;0.7487581;-2;-2;-1;3863;1305;632;256;0.6371191;-0.6596085;0.1952908;0.3476454;0;0;-3;741;4040;-483;128;0.6404676;-0.5789474;0.2922437;0.4113573;3;-3;1;-829;4203;-10;4;0.6722434;-0.6495845;-0.301939;0.1869806;-2;1;0;2569;3118;272;16;-0.4307479;0.2783934;0.6235549;0.5900277;-1;-2;0;491;4018;-588;2;-0.06648199;-0.05540166;-0.6495845;-0.7553481;0;0;0;959;4116;-633;8;0.3476454;-0.6427817;-0.2590028;-0.6315789;0;-5;0;381;3185;2609;1.203772;2.468686;0.8457169;1.209574;2.997426;0.7114705;1.214668;3.46169;0.5915074;1.349795;4.178086;0.6750535;1.156447;4.548712;0.6742985;0.7939011;4.468012;0.7210665;0.1561161;5.099921;0.9496483;0.8498979;4.847323;0.3557979;1.667775;4.452269;0.6742977;1.924534;4.254756;0.721066;2.469238;3.464337;0.6385374;1.84033;3.183333;1.289151;0.8915118;2.426122;0.8494946;0.2602454;1.313466;0.1393147;0;0;0;0.8915118;2.426122;0.8494946;0.2602454;1.313466;0.1393147;0;0;0
350604.984;NotLabelled;16384;0.7332537;0.200831;-0.3545706;0.5443213;5;-1;-4;2770;-2788;1425;65536;0.08864266;-0.4653739;0.8745164;0.1038781;4;-2;1;3240;1088;-2429;8192;0.03878116;-0.3753462;-0.7704343;-0.5138504;-2;0;-1;2238;3381;817;32768;-0.6454294;0.1108033;0.1024931;0.7487581;-3;-1;0;3901;1263;646;256;0.6371191;-0.6596085;0.1952908;0.3476454;-1;-1;-3;721;4052;-481;128;0.6404676;-0.5789474;0.2922437;0.4113573;0;-1;1;-783;4119;144;4;0.6722434;-0.6495845;-0.301939;0.1869806;-2;-1;0;2585;3192;298;16;-0.4307479;0.2783934;0.6235549;0.5900277;0;0;0;557;3964;-592;2;-0.06648199;-0.05540166;-0.6509695;-0.7541548;0;-3;-1;689;4010;-563;8;0.3476454;-0.6427817;-0.2590028;-0.6315789;0;-2;0;423;3193;2509;1.203772;2.468686;0.8457169;1.209574;2.997426;0.7114705;1.214668;3.46169;0.5915074;1.349795;4.178086;0.6750535;1.156447;4.548712;0.6742985;0.7939011;4.468012;0.7210665;0.1542294;5.098181;0.9491796;0.8492737;4.847846;0.3558479;1.667775;4.452269;0.6742977;1.924534;4.254756;0.721066;2.468246;3.463762;0.6375139;1.839337;3.182757;1.288128;0.8915118;2.426122;0.8494946;0.2602454;1.313466;0.1393147;0;0;0;0.8915118;2.426122;0.8494946;0.2602454;1.313466;0.1393147;0;0;0
350626.1304;NotLabelled;16384;0.7336316;0.199446;-0.3545706;0.5443213;3;0;-4;2804;-2802;1393;65536;0.0900277;-0.4639889;0.8752739;0.1024931;4;-1;2;3342;1038;-2381;8192;0.0401662;-0.3753462;-0.7703633;-0.5138504;-2;-2;0;2242;3337;775;32768;-0.6454294;0.1121884;0.1024931;0.7485518;-3;-2;0;3825;1175;578;256;0.6371191;-0.6591969;0.1966759;0.3476454;0;-2;-2;769;3986;-443;128;0.6404676;-0.5789474;0.2922437;0.4113573;3;0;1;-777;4125;106;4;0.6722434;-0.6495845;-0.301939;0.1869806;-1;-2;0;2573;3134;276;16;-0.4307479;0.2783934;0.6235549;0.5900277;0;1;1;619;3970;-668;2;-0.06509695;-0.0567867;-0.6509695;-0.7541726;0;-5;-1;719;4058;-511;8;0.3476454;-0.6427817;-0.2590028;-0.6315789;-1;0;0;351;3213;2561;1.202207;2.468686;0.8473551;1.208009;2.997426;0.7131085;1.213104;3.46169;0.5931456;1.347034;4.178408;0.6758544;1.153058;4.548704;0.6747223;0.7906592;4.467443;0.7216586;0.1486896;5.095868;0.9481185;0.8475889;4.846696;0.3588396;1.664548;4.453127;0.674722;1.921652;4.256103;0.7216582;2.463952;3.464175;0.6377726;1.835601;3.181516;1.288208;0.8899474;2.426123;0.8511329;0.2599882;1.313465;0.1397932;0;0;0;0.8899474;2.426123;0.8511329;0.2599882;1.313465;0.1397932;0;0;0
350645.9867;NotLabelled;16384;0.7346742;0.1980609;-0.3531856;0.5443213;2;0;-3;2708;-2708;1443;65536;0.08864266;-0.4639889;0.8755763;0.101108;0;-1;2;3418;972;-2303;8192;0.04155125;-0.3767313;-0.7705364;-0.5124654;-1;-4;-1;2226;3457;693;32768;-0.6454294;0.1121884;0.101108;0.7487402;-3;0;-1;3907;1205;534;256;0.6371191;-0.658782;0.1980609;0.3476454;-1;-2;-2;715;4014;-481;128;0.6404676;-0.5789474;0.2922437;0.4113573;0;0;0;-779;4091;32;4;0.6722434;-0.6495845;-0.301939;0.1869806;0;-3;0;2617;2976;326;16;-0.4307479;0.2783934;0.6235549;0.5900277;0;1;0;511;4068;-570;2;-0.06509695;-0.0567867;-0.6509695;-0.7541726;0;-4;-1;775;4018;-649;8;0.3476454;-0.6427817;-0.2590028;-0.6315789;-1;0;0;373;3227;2593;1.200638;2.468686;0.8489927;1.20644;2.997426;0.7147461;1.211535;3.46169;0.5947829;1.344271;4.178726;0.6766499;1.149669;4.548694;0.6751387;0.7874179;4.466873;0.7222441;0.1428479;5.092401;0.9493408;0.8428448;4.846685;0.3599132;1.66132;4.453981;0.6751379;1.918766;4.257444;0.7222434;2.461881;3.466288;0.6363803;1.833146;3.185558;1.28728;0.8883785;2.426123;0.8527704;0.2597307;1.313465;0.1402716;0;0;0;0.8883785;2.426123;0.8527704;0.2597307;1.313465;0.1402716;0;0;0
350665.9808;NotLabelled;16384;0.7356983;0.1980609;-0.3531856;0.5429363;1;0;-3;2798;-2776;1413;65536;0.08864266;-0.4639889;0.8755763;0.101108;0;-3;2;3378;960;-2269;8192;0.04155125;-0.3767313;-0.7705364;-0.5124654;-1;-2;0;2278;3449;761;32768;-0.6454294;0.1135734;0.101108;0.7485313;-2;0;-2;3935;1191;606;256;0.6371191;-0.658782;0.1980609;0.3476454;-1;0;-2;685;4046;-457;128;0.6404676;-0.5789474;0.2922437;0.4113573;0;0;1;-781;4087;112;4;0.6718565;-0.6495845;-0.301939;0.1883656;0;-3;1;2691;3028;256;16;-0.4293629;0.2783934;0.6245094;0.5900277;0;5;1;713;3982;-762;2;-0.06509695;-0.0567867;-0.6495845;-0.7553659;0;0;-1;831;3976;-631;8;0.3476454;-0.6427817;-0.2590028;-0.6315789;0;-1;0;445;3185;2621;1.19906;2.467205;0.8519828;1.204862;2.995945;0.7177362;1.209956;3.460209;0.597773;1.342692;4.177245;0.67964;1.14809;4.547213;0.6781288;0.7858393;4.465392;0.7252342;0.1404546;5.090388;0.9514809;0.8404516;4.844672;0.3620531;1.659742;4.4525;0.678128;1.917188;4.255963;0.7252334;2.460302;3.464807;0.6393703;1.833323;3.182423;1.291247;0.8867998;2.424642;0.8557605;0.2565681;1.313944;0.1416063;0;0;0;0.8867998;2.424642;0.8557605;0.2565681;1.313944;0.1416063;0;0;0
350687.0914;NotLabelled;16384;0.7360698;0.1966759;-0.3531856;0.5429363;0;3;-3;2822;-2782;1427;65536;0.08864266;-0.4639889;0.8755763;0.101108;0;-3;3;3312;980;-2275;8192;0.04155125;-0.3767313;-0.7705364;-0.5124654;0;0;0;2336;3387;729;32768;-0.6454294;0.1135734;0.101108;0.7485313;-1;0;-1;3887;1197;682;256;0.6371191;-0.6590936;0.199446;0.3462604;-1;0;-1;647;4016;-473;128;0.6404676;-0.5789474;0.2922437;0.4113573;-2;0;0;-841;4121;192;4;0.6718565;-0.6495845;-0.301939;0.1883656;0;0;0;2599;3022;328;16;-0.4293629;0.2770083;0.6238148;0.5914127;0;12;2;321;4052;-722;2;-0.06509695;-0.0567867;-0.6495845;-0.7553659;0;-1;-1;807;4010;-603;8;0.3476454;-0.6427817;-0.2590028;-0.6315789;0;1;0;441;3167;2551;1.202916;2.466827;0.8487608;1.208718;2.995567;0.7145141;1.213812;3.459831;0.594551;1.343858;4.177461;0.6755403;1.147859;4.546687;0.6736338;0.7859299;4.463555;0.7209153;0.1387945;5.086798;0.9469982;0.8385007;4.841083;0.3572254;1.659864;4.453907;0.6736333;1.918061;4.258401;0.720915;2.461133;3.467243;0.6347844;1.834476;3.18486;1.286971;0.8906555;2.424264;0.8525383;0.2600718;1.313565;0.1386951;0;0;0;0.8906555;2.424264;0.8525383;0.2600718;1.313565;0.1386951;0;0;0
350707.0748;NotLabelled;16384;0.7367328;0.1966759;-0.3518005;0.5429363;0;4;-3;2768;-2720;1337;65536;0.08864266;-0.4626039;0.8763089;0.101108;0;-3;2;3230;1066;-2339;8192;0.04155125;-0.3767313;-0.7705364;-0.5124654;0;-1;1;2238;3335;779;32768;-0.6454294;0.1135734;0.101108;0.7485313;-1;1;-1;3823;1175;630;256;0.6371191;-0.6579428;0.200831;0.3476454;-5;-27;-6;-115;4316;-523;128;0.6404676;-0.5789474;0.2922437;0.4113573;0;2;0;-781;4145;50;4;0.6705146;-0.6509695;-0.301939;0.1883656;2;0;0;2645;3096;296;16;-0.4279778;0.2756233;0.6253781;0.5914127;0;7;1;693;3970;-656;2;-0.06509695;-0.0567867;-0.6495845;-0.7553659;0;0;0;775;4020;-747;8;0.3476454;-0.6427817;-0.2590028;-0.6315789;0;0;0;495;3173;2589;1.194065;2.466854;0.8592271;1.199867;2.995594;0.7249805;1.204962;3.459858;0.6050174;1.335316;4.177524;0.6851857;1.139468;4.546828;0.6829096;0.7775142;4.463896;0.7303559;0.1291293;5.085986;0.9560307;0.831566;4.840364;0.3694741;1.651435;4.453839;0.6829091;1.909562;4.25828;0.7303554;2.45299;3.467123;0.646499;1.823606;3.184739;1.296056;0.8818052;2.424291;0.8630047;0.2583282;1.313426;0.1432033;0;0;0;0.8818052;2.424291;0.8630047;0.2583282;1.313426;0.1432033;0;0;0
350728.1054;NotLabelled;16384;0.7367328;0.1966759;-0.3518005;0.5429363;1;4;-2;2742;-2762;1261;65536;0.08864266;-0.4626039;0.8764676;0.09972299;0;-2;2;3334;1010;-2291;8192;0.04155125;-0.3781163;-0.7698576;-0.5124654;0;-3;1;2172;3321;701;32768;-0.6454294;0.1149584;0.101108;0.7483199;-2;2;-1;3795;1233;596;256;0.6371191;-0.6579428;0.200831;0.3476454;-3;0;0;505;4040;-353;128;0.6404676;-0.5789474;0.2922437;0.4113573;-1;2;0;-785;4029;36;4;0.6705146;-0.6509695;-0.301939;0.1883656;1;1;0;2647;3026;340;16;-0.4265928;0.2742382;0.6256219;0.5927978;0;8;1;707;4050;-644;2;-0.06509695;-0.05540166;-0.6495845;-0.7554688;-1;1;-1;779;4024;-615;8;0.3476454;-0.6427817;-0.2590028;-0.6315789;0;2;0;417;3179;2597;1.194358;2.466957;0.8577502;1.20016;2.995697;0.7235036;1.205254;3.45996;0.6035406;1.335608;4.177626;0.6837089;1.13976;4.546931;0.6814327;0.7778068;4.463998;0.728879;0.1294219;5.086089;0.9545538;0.8330954;4.842736;0.3685336;1.651728;4.453942;0.6814322;1.909854;4.258382;0.7288786;2.454267;3.467794;0.6460526;1.826641;3.183756;1.296587;0.8820978;2.424393;0.8615279;0.2586208;1.313528;0.1417265;0;0;0;0.8820978;2.424393;0.8615279;0.2586208;1.313528;0.1417265;0;0;0
350749.6305;NotLabelled;16384;0.7384104;0.1966759;-0.3504155;0.5415512;0;3;-1;2772;-2772;1335;65536;0.08725762;-0.4626039;0.8766066;0.09972299;-1;-3;1;3322;1068;-2203;8192;0.04155125;-0.3781163;-0.7698576;-0.5124654;0;-1;0;2192;3277;713;32768;-0.6440443;0.1149584;0.101108;0.7495123;-2;0;0;3823;1175;564;256;0.6371191;-0.6579428;0.200831;0.3476454;-2;-1;0;725;3904;-375;128;0.6404676;-0.5789474;0.2922437;0.4113573;4;0;0;-787;4115;92;4;0.6705146;-0.6509695;-0.301939;0.1883656;0;2;0;2723;3056;352;16;-0.4265928;0.2728532;0.6262273;0.5927978;0;8;1;713;3982;-594;2;-0.06509695;-0.05540166;-0.6509695;-0.7542757;-1;1;-1;759;4030;-613;8;0.3462604;-0.6435289;-0.2590028;-0.6315789;0;3;0;435;3127;2619;1.196359;2.466332;0.8598572;1.202161;2.995072;0.7256106;1.207255;3.459336;0.6056476;1.33761;4.177001;0.6858157;1.141761;4.546306;0.6835396;0.779808;4.463374;0.730986;0.1303207;5.083781;0.9581189;0.8327602;4.841616;0.3701301;1.653729;4.453317;0.683539;1.911855;4.257758;0.7309855;2.456269;3.467169;0.6481595;1.829004;3.183206;1.299076;0.884099;2.423769;0.8636349;0.260622;1.312903;0.1438334;0;0;0;0.884099;2.423769;0.8636349;0.260622;1.312903;0.1438334;0;0;0
350769.2496;NotLabelled;16384;0.7384104;0.1966759;-0.3504155;0.5415512;0;5;-1;2706;-2820;1353;65536;0.08725762;-0.4612188;0.8773361;0.09972299;-1;-3;1;3296;1114;-2261;8192;0.04155125;-0.3781163;-0.7698576;-0.5124654;0;-2;-1;2150;3359;747;32768;-0.6440443;0.1149584;0.101108;0.7495123;-3;0;0;3909;1207;564;256;0.6371191;-0.6575185;0.2022161;0.3476454;-1;-1;0;713;3916;-377;128;0.641355;-0.5789474;0.2922437;0.4099723;0;2;0;-789;4075;104;4;0.6705146;-0.6509695;-0.301939;0.1883656;1;2;0;2639;3090;328;16;-0.4265928;0.2714681;0.6255162;0.5941828;0;6;1;749;3988;-522;2;-0.06509695;-0.05540166;-0.6509695;-0.7542757;0;1;-1;715;4070;-611;8;0.3462604;-0.6435289;-0.2590028;-0.6315789;0;1;0;495;3181;2521;1.198237;2.46593;0.858619;1.204035;2.994358;0.7231472;1.209127;3.458342;0.6021084;1.338294;4.176318;0.6814197;1.141825;4.54529;0.678758;0.7800216;4.461806;0.7263764;0.1300269;5.082213;0.9520533;0.8338158;4.840138;0.3656428;1.653948;4.453161;0.6787571;1.912412;4.258089;0.726375;2.457009;3.467501;0.6447692;1.828542;3.183537;1.294523;0.885977;2.423375;0.8625033;0.263833;1.31251;0.1415501;0;0;0;0.885977;2.423375;0.8625033;0.263833;1.31251;0.1415501;0;0;0
350789.9724;NotLabelled;16384;0.73804;0.1980609;-0.3504155;0.5415512;0;4;-2;2678;-2792;1335;65536;0.08725762;-0.4612188;0.8771775;0.101108;0;-3;1;3184;1116;-2299;8192;0.04155125;-0.3781163;-0.7698576;-0.5124654;0;-2;-1;2162;3393;723;32768;-0.6440443;0.1163435;0.09972299;0.7494841;-2;0;1;3885;1215;562;256;0.6371191;-0.6567843;0.2022161;0.3490305;-1;0;0;733;3994;-375;128;0.6419843;-0.5789474;0.2908587;0.4099723;0;2;0;-803;4105;134;4;0.6709022;-0.6509695;-0.301939;0.1869806;0;3;0;2557;3074;410;16;-0.4252077;0.2714681;0.6264585;0.5941828;0;2;0;819;3948;-564;2;-0.06509695;-0.05540166;-0.6509695;-0.7542757;-2;2;0;653;4028;-625;8;0.3462604;-0.6435289;-0.2590028;-0.6315789;0;0;0;469;3151;2563;1.19147;2.468387;0.8602841;1.197269;2.996815;0.7248135;1.20236;3.4608;0.6037757;1.333031;4.1785;0.6831173;1.137336;4.547884;0.6804692;0.7753578;4.465155;0.7280813;0.1262535;5.087323;0.951465;0.8301814;4.842977;0.3661635;1.649265;4.454681;0.6804683;1.907319;4.259066;0.7280805;2.452262;3.468478;0.6488124;1.824837;3.184796;1.299698;0.8792106;2.425832;0.8641685;0.2603289;1.313005;0.1434322;0;0;0;0.8792106;2.425832;0.8641685;0.2603289;1.313005;0.1434322;0;0;0
350811.1551;NotLabelled;16384;0.73804;0.1980609;-0.3504155;0.5415512;0;2;-1;2694;-2782;1189;65536;0.08725762;-0.4612188;0.8771775;0.101108;1;-1;0;3164;1122;-2333;8192;0.04293629;-0.3781163;-0.7697816;-0.5124654;0;-2;-1;2192;3349;777;32768;-0.6454294;0.1163435;0.09972299;0.7482917;-3;-1;1;3759;1265;534;256;0.6371191;-0.6567843;0.2022161;0.3490305;0;0;0;701;3984;-421;128;0.6419843;-0.5789474;0.2908587;0.4099723;3;3;0;-781;4037;76;4;0.6709022;-0.6509695;-0.301939;0.1869806;0;0;-1;2583;3018;366;16;-0.4265928;0.2728532;0.6249132;0.5941828;0;-4;0;683;4032;-594;2;-0.06648199;-0.05540166;-0.6509695;-0.7541548;-1;1;0;699;3974;-613;8;0.3462604;-0.6435289;-0.2590028;-0.6315789;0;2;0;419;3167;2477;1.192648;2.468518;0.8569013;1.198447;2.996946;0.7214308;1.203538;3.460931;0.6003929;1.334208;4.178631;0.6797345;1.138514;4.548015;0.6770865;0.7765357;4.465286;0.7246988;0.1279562;5.087454;0.9496018;0.8318834;4.843107;0.3643002;1.650443;4.454812;0.6770856;1.908497;4.259197;0.7246973;2.451692;3.467673;0.6428154;1.823908;3.183911;1.293319;0.8803884;2.425963;0.8607855;0.2615066;1.313137;0.1400497;0;0;0;0.8803884;2.425963;0.8607855;0.2615066;1.313137;0.1400497;0;0;0
350831.9879;NotLabelled;16384;0.73804;0.1980609;-0.3504155;0.5415512;2;1;-1;2652;-2804;1201;65536;0.08725762;-0.4612188;0.8773361;0.09972299;1;-1;0;3248;1074;-2205;8192;0.04293629;-0.3781163;-0.7688578;-0.5138504;0;-2;-1;2214;3335;721;32768;-0.6454294;0.1163435;0.09833795;0.748475;-3;0;0;3809;1177;560;256;0.6371191;-0.6567843;0.2022161;0.3490305;0;0;0;749;3926;-435;128;0.6419843;-0.5789474;0.2908587;0.4099723;2;3;0;-779;4037;78;4;0.6709022;-0.6509695;-0.301939;0.1869806;0;0;0;2673;3084;346;16;-0.4265928;0.2728532;0.6249132;0.5941828;0;-4;0;669;3980;-612;2;-0.06509695;-0.05401662;-0.6509695;-0.7543761;0;0;-1;535;3966;-607;8;0.3462604;-0.6435289;-0.2590028;-0.6315789;0;-2;0;467;3209;2505;1.192648;2.468518;0.8569013;1.198447;2.996946;0.7214308;1.203538;3.460931;0.6003929;1.334208;4.178631;0.6797345;1.138514;4.548015;0.6770865;0.7765357;4.465286;0.7246988;0.1279562;5.087454;0.9496018;0.8331152;4.845379;0.364839;1.650443;4.454812;0.6770856;1.908497;4.259197;0.7246973;2.450439;3.466543;0.6454844;1.823466;3.184711;1.297607;0.8803884;2.425963;0.8607855;0.2615066;1.313137;0.1400497;0;0;0;0.8803884;2.425963;0.8607855;0.2615066;1.313137;0.1400497;0;0;0
350853.1468;NotLabelled;16384;0.7384104;0.1966759;-0.3504155;0.5415512;3;0;0;2702;-2802;1235;65536;0.08725762;-0.4612188;0.8773361;0.09972299;3;-1;-1;3242;1108;-2203;8192;0.04293629;-0.3781163;-0.7688578;-0.5138504;0;-2;-2;2202;3391;705;32768;-0.6454294;0.1163435;0.09833795;0.748475;-2;0;0;3823;1241;500;256;0.6371191;-0.6567843;0.2022161;0.3490305;0;-1;0;769;3956;-429;128;0.6419843;-0.5789474;0.2908587;0.4099723;1;3;0;-751;4089;-6;4;0.6709022;-0.6509695;-0.301939;0.1869806;1;0;0;2663;3044;278;16;-0.4279778;0.2728532;0.6252815;0.5927978;0;-5;0;709;3994;-670;2;-0.06509695;-0.05401662;-0.6509695;-0.7543761;0;2;-1;585;4004;-597;8;0.3462604;-0.6435289;-0.2590028;-0.6315789;0;0;0;349;3157;2621;1.194332;2.467793;0.860497;1.200131;2.996222;0.7250264;1.205222;3.460207;0.6039885;1.335893;4.177906;0.6833301;1.140198;4.54729;0.6806821;0.77822;4.464561;0.7282943;0.1277864;5.084969;0.9527048;0.8329457;4.842895;0.3679417;1.652127;4.454087;0.6806812;1.910182;4.258472;0.728293;2.452123;3.465818;0.6490799;1.82515;3.183987;1.301203;0.8820726;2.425239;0.8643811;0.2631909;1.312412;0.1436453;0;0;0;0.8820726;2.425239;0.8643811;0.2631909;1.312412;0.1436453;0;0;0
350874.0044;NotLabelled;16384;0.7394241;0.1966759;-0.3504155;0.5401662;3;0;0;2696;-2804;1261;65536;0.08864266;-0.4598338;0.8779241;0.09972299;3;-1;-1;3252;1084;-2265;8192;0.04293629;-0.3781163;-0.7688578;-0.5138504;0;-3;0;2244;3435;663;32768;-0.6454294;0.1163435;0.09833795;0.748475;-2;0;-1;3805;1231;564;256;0.6371191;-0.6563563;0.2036011;0.3490305;-1;0;0;757;3968;-457;128;0.6419843;-0.5789474;0.2908587;0.4099723;0;2;-1;-709;4047;4;4;0.6709022;-0.6509695;-0.301939;0.1869806;0;0;0;2619;3086;274;16;-0.4279778;0.2742382;0.6246753;0.5927978;0;-7;-1;751;3944;-592;2;-0.06509695;-0.05401662;-0.6509695;-0.7543761;0;0;0;743;3998;-609;8;0.3462604;-0.6435289;-0.2590028;-0.6315789;-1;1;0;439;3115;2547;1.190738;2.468422;0.8600094;1.196537;2.99685;0.7245389;1.201628;3.460835;0.6035011;1.331115;4.178843;0.6819805;1.134803;4.547896;0.6789442;0.7729729;4.464619;0.7267292;0.1209179;5.084495;0.947878;0.8286456;4.841331;0.3666812;1.646887;4.455549;0.6789436;1.905278;4.260423;0.7267284;2.447509;3.467768;0.6495252;1.819329;3.185936;1.300485;0.8784784;2.425867;0.8638938;0.2609333;1.31304;0.1420118;0;0;0;0.8784784;2.425867;0.8638938;0.2609333;1.31304;0.1420118;0;0;0
350895.1234;NotLabelled;16384;0.7394241;0.1966759;-0.3504155;0.5401662;3;0;0;2584;-2830;1275;65536;0.08864266;-0.4598338;0.8779241;0.09972299;3;-1;-2;3216;1120;-2265;8192;0.04293629;-0.3795014;-0.7681751;-0.5138504;0;-1;0;2328;3409;705;32768;-0.6454294;0.1177285;0.09833795;0.7482584;-1;1;0;3887;1225;636;256;0.6371191;-0.6563563;0.2036011;0.3490305;-1;-1;-1;679;3968;-479;128;0.6428667;-0.5789474;0.2908587;0.4085872;2;1;0;-805;4057;38;4;0.6709022;-0.6509695;-0.301939;0.1869806;-1;0;0;2647;3092;328;16;-0.4293629;0.2742382;0.6250376;0.5914127;0;-10;-2;749;4046;-626;2;-0.06509695;-0.05401662;-0.6509695;-0.7543761;0;0;0;731;3936;-591;8;0.3462604;-0.6435289;-0.2590028;-0.6315789;0;-2;0;505;3115;2579;1.19243;2.467682;0.8634868;1.198225;2.995796;0.7267956;1.203313;3.4595;0.604686;1.3328;4.177508;0.6831654;1.136487;4.546562;0.6801292;0.774658;4.463284;0.7279139;0.123014;5.08316;0.9502717;0.8307419;4.839996;0.3690748;1.648571;4.454215;0.6801286;1.906962;4.259088;0.7279135;2.450033;3.467005;0.6507459;1.823611;3.183519;1.302681;0.8801701;2.425137;0.8674774;0.2626253;1.31231;0.1455958;0;0;0;0.8801701;2.425137;0.8674774;0.2626253;1.31231;0.1455958;0;0;0
350915.9765;NotLabelled;16384;0.7387662;0.1966759;-0.3518005;0.5401662;4;0;0;2702;-2798;1317;65536;0.0900277;-0.4598338;0.8777831;0.09972299;4;-1;-2;3144;1146;-2331;8192;0.04293629;-0.3795014;-0.7681751;-0.5138504;0;1;0;2298;3343;649;32768;-0.6454294;0.1177285;0.09833795;0.7482584;0;1;0;3857;1235;630;256;0.6371191;-0.655925;0.2049861;0.3490305;-1;0;-1;759;3966;-415;128;0.6428667;-0.5789474;0.2908587;0.4085872;2;2;0;-785;4097;92;4;0.6709022;-0.6509695;-0.301939;0.1869806;0;-2;1;2637;3146;344;16;-0.4279778;0.2742382;0.6259867;0.5914127;0;11;1;603;3966;-670;2;-0.06509695;-0.05401662;-0.6509695;-0.7543761;0;0;0;723;4028;-547;8;0.3462604;-0.6440846;-0.2576177;-0.6315789;0;-5;0;483;3101;2503;1.187638;2.468171;0.8663985;1.193433;2.996285;0.7297074;1.198521;3.459989;0.6075978;1.326827;4.178304;0.68521;1.129899;4.547025;0.6817834;0.7682185;4.463201;0.729742;0.1160718;5.084223;0.9473757;0.8260915;4.839878;0.3694794;1.642136;4.455532;0.6817828;1.900862;4.260893;0.7297415;2.444215;3.468809;0.6545901;1.816585;3.185324;1.305362;0.8753781;2.425626;0.8703889;0.2591744;1.312799;0.1473628;0;0;0;0.8753781;2.425626;0.8703889;0.2591744;1.312799;0.1473628;0;0;0
350936.0504;NotLabelled;16384;0.7391335;0.1952908;-0.3518005;0.5401662;5;0;0;2604;-2766;1263;65536;0.0900277;-0.4598338;0.8779394;0.09833795;5;-1;-2;3220;1098;-2237;8192;0.04293629;-0.3795014;-0.7681751;-0.5138504;0;0;0;2212;3407;745;32768;-0.6440443;0.1177285;0.09833795;0.7494509;0;1;-1;3791;1207;662;256;0.6371191;-0.655925;0.2049861;0.3490305;-2;0;-1;759;3996;-407;128;0.6428667;-0.5789474;0.2908587;0.4085872;3;2;1;-761;4031;158;4;0.6705146;-0.6509695;-0.301939;0.1883656;0;-1;1;2687;3088;258;16;-0.4279778;0.2742382;0.6246753;0.5927978;-1;9;0;609;4032;-612;2;-0.06509695;-0.05401662;-0.6509695;-0.7543761;0;0;0;683;4034;-621;8;0.3476454;-0.6446948;-0.2576177;-0.6301939;-1;-7;0;495;3165;2575;1.190701;2.466451;0.8632078;1.196496;2.994564;0.7265168;1.201584;3.458269;0.6044073;1.32989;4.176584;0.6820191;1.132962;4.545304;0.6785924;0.7712815;4.46148;0.7265509;0.1176959;5.080738;0.9448928;0.8289382;4.83867;0.3675423;1.645199;4.453812;0.6785918;1.903925;4.259172;0.7265504;2.447137;3.467089;0.6503913;1.819865;3.183691;1.301546;0.8784411;2.423905;0.8671982;0.2606693;1.31304;0.142495;0;0;0;0.8784411;2.423905;0.8671982;0.2606693;1.31304;0.142495;0;0;0
350957.3096;NotLabelled;16384;0.7394981;0.1939058;-0.3518005;0.5401662;5;0;0;2680;-2796;1329;65536;0.09141274;-0.4598338;0.8777963;0.09833795;5;-1;0;3236;1148;-2251;8192;0.04293629;-0.3795014;-0.7681751;-0.5138504;0;0;0;2202;3385;699;32768;-0.6440443;0.1177285;0.09833795;0.7494509;0;1;0;3835;1197;600;256;0.6371191;-0.6547512;0.2063712;0.3504155;-2;0;-1;705;3974;-427;128;0.6437449;-0.5789474;0.2908587;0.4072022;3;3;1;-751;4055;42;4;0.6705146;-0.6509695;-0.301939;0.1883656;0;0;1;2685;3078;264;16;-0.4265928;0.2728532;0.6262273;0.5927978;-2;12;0;705;4032;-636;2;-0.06509695;-0.05401662;-0.6509695;-0.7543761;0;0;0;703;4032;-627;8;0.3490305;-0.6444984;-0.2562327;-0.6301939;-1;-6;-1;445;3163;2523;1.185847;2.466305;0.8701697;1.191638;2.994102;0.7322635;1.196723;3.457524;0.6090871;1.32536;4.175871;0.6858557;1.128593;4.544674;0.6820499;0.766886;4.461063;0.7301772;0.1104712;5.078555;0.9450073;0.8253317;4.835305;0.3726429;1.64079;4.452956;0.6820494;1.89944;4.258258;0.7301768;2.442997;3.466174;0.6565088;1.812997;3.182776;1.305025;0.873587;2.423769;0.8742659;0.2588629;1.312903;0.1469753;0;0;0;0.873587;2.423769;0.8742659;0.2588629;1.312903;0.1469753;0;0;0
350977.9961;NotLabelled;16384;0.7388376;0.1939058;-0.3531856;0.5401662;5;0;-1;2628;-2842;1317;65536;0.09141274;-0.4584487;0.8786743;0.09695291;4;-1;0;3220;1126;-2237;8192;0.04293629;-0.3795014;-0.7681751;-0.5138504;0;2;1;2286;3437;753;32768;-0.6440443;0.1177285;0.09833795;0.7494509;0;1;-2;3901;1253;608;256;0.6371191;-0.6554906;0.2063712;0.3490305;-2;0;-2;731;4046;-391;128;0.6437449;-0.5789474;0.2908587;0.4072022;3;4;1;-745;4103;24;4;0.6705146;-0.6509695;-0.301939;0.1883656;0;-1;1;2625;3054;266;16;-0.4252077;0.2728532;0.6258565;0.5941828;-2;7;0;671;3980;-556;2;-0.06509695;-0.05401662;-0.6509695;-0.7543761;2;0;0;721;3960;-579;8;0.3490305;-0.6463976;-0.2548476;-0.6288089;0;-18;-1;587;3085;2453;1.18623;2.467029;0.8645079;1.192021;2.994827;0.7266018;1.197107;3.458249;0.6034254;1.324233;4.176867;0.6801655;1.126691;4.545257;0.6763465;0.765161;4.460887;0.7244799;0.1096595;5.079527;0.9387925;0.8246543;4.83866;0.3655885;1.63908;4.454616;0.6763458;1.89814;4.260463;0.7244788;2.441493;3.46838;0.649329;1.813012;3.184982;1.299317;0.8739703;2.424493;0.8686042;0.2575463;1.313628;0.1427535;0;0;0;0.8739703;2.424493;0.8686042;0.2575463;1.313628;0.1427535;0;0;0
350998.6017;NotLabelled;16384;0.7391997;0.1925208;-0.3531856;0.5401662;5;-1;-2;2648;-2710;1303;65536;0.09141274;-0.4584487;0.8786743;0.09695291;6;-1;0;3164;1100;-2331;8192;0.04293629;-0.3795014;-0.7681751;-0.5138504;0;2;1;2316;3403;773;32768;-0.6440443;0.1177285;0.09833795;0.7494509;0;2;-1;3829;1315;608;256;0.6371191;-0.6554906;0.2063712;0.3490305;-2;1;-3;695;3988;-427;128;0.644619;-0.5789474;0.2908587;0.4058172;3;5;1;-737;4085;68;4;0.6705146;-0.6509695;-0.301939;0.1883656;0;2;2;2633;3082;208;16;-0.4252077;0.2728532;0.6258565;0.5941828;-3;4;0;651;3964;-654;2;-0.06509695;-0.05401662;-0.6509695;-0.7543761;2;-1;0;655;3954;-601;8;0.3518005;-0.6473273;-0.2520775;-0.6274238;0;-23;-2;805;3117;2565;1.186229;2.467021;0.8644007;1.192017;2.9945;0.7252849;1.197099;3.457639;0.6010464;1.324226;4.176258;0.6777859;1.126683;4.544646;0.6739669;0.7651533;4.460276;0.7221001;0.1077399;5.077149;0.9356494;0.8227344;4.836282;0.3624458;1.639072;4.454006;0.6739663;1.898131;4.259853;0.7220992;2.441513;3.467769;0.6471574;1.813032;3.184372;1.297145;0.8739694;2.424494;0.8686023;0.2575459;1.313628;0.1427523;0;0;0;0.8739694;2.424494;0.8686023;0.2575459;1.313628;0.1427523;0;0;0
351018.9952;NotLabelled;16384;0.7391997;0.1925208;-0.3531856;0.5401662;6;-1;-2;2654;-2786;1295;65536;0.09279778;-0.4584487;0.8786809;0.09556787;6;0;0;3282;996;-2257;8192;0.04293629;-0.3795014;-0.7681751;-0.5138504;0;2;2;2182;3393;809;32768;-0.6426592;0.1177285;0.09972299;0.7504562;0;3;-2;3827;1259;656;256;0.6385041;-0.6548786;0.2063712;0.3476454;-3;1;-4;671;3970;-399;128;0.645734;-0.5803324;0.2894737;0.4030471;0;10;2;-709;4037;38;4;0.6698892;-0.6509695;-0.3033241;0.1883656;0;4;2;2667;3030;184;16;-0.4238227;0.2728532;0.6254794;0.5955678;-3;3;0;559;4044;-640;2;-0.06509695;-0.05540166;-0.6495845;-0.7554688;3;-1;0;651;3902;-685;8;0.3545706;-0.6482291;-0.2493075;-0.6260388;0;-20;-1;501;3107;2473;1.184273;2.466891;0.8608201;1.190059;2.994191;0.7210227;1.195139;3.457169;0.5961857;1.321721;4.176222;0.6696825;1.123984;4.544477;0.6636909;0.7624077;4.46014;0.7115302;0.1043217;5.077677;0.9210544;0.821717;4.837174;0.3507044;1.636422;4.454124;0.6651264;1.895494;4.260352;0.7147052;2.439427;3.468218;0.6444586;1.810515;3.183811;1.293588;0.8720133;2.42437;0.8650811;0.2559004;1.314519;0.1374185;0;0;0;0.8720133;2.42437;0.8650811;0.2559004;1.314519;0.1374185;0;0;0
351039.4776;NotLabelled;16384;0.739559;0.1911357;-0.3531856;0.5401662;6;-2;-1;2662;-2684;1303;65536;0.09279778;-0.4584487;0.8786809;0.09556787;7;0;0;3258;1024;-2223;8192;0.04293629;-0.3795014;-0.7681751;-0.5138504;0;1;4;2168;3351;787;32768;-0.6426592;0.1191136;0.09972299;0.7502375;0;3;-3;3817;1301;626;256;0.6385041;-0.6551744;0.2077562;0.3462604;-3;0;-4;655;3956;-431;128;0.6465964;-0.5803324;0.2894737;0.4016621;1;12;1;-709;4053;-56;4;0.6692603;-0.6509695;-0.3047091;0.1883656;1;2;3;2519;3038;294;16;-0.4224377;0.2714681;0.6270171;0.5955678;-2;7;0;611;4052;-670;2;-0.06509695;-0.05401662;-0.6495845;-0.755569;4;-1;-1;685;3898;-631;8;0.3559557;-0.6493364;-0.2479224;-0.6246537;-1;-17;-1;435;3097;2495;1.185718;2.463673;0.8674844;1.191501;2.990655;0.726492;1.196578;3.453348;0.6006057;1.320688;4.172868;0.673757;1.121551;4.540378;0.6684173;0.7604465;4.454679;0.7173911;0.1021513;5.069291;0.9347106;0.8175995;4.829526;0.3616112;1.634326;4.451951;0.6682289;1.89428;4.259151;0.7169753;2.437326;3.467244;0.637852;1.812393;3.180353;1.289726;0.8734588;2.421162;0.8718495;0.2551907;1.314213;0.141598;0;0;0;0.8734588;2.421162;0.8718495;0.2551907;1.314213;0.141598;0;0;0
351060.9968;NotLabelled;16384;0.739559;0.1911357;-0.3531856;0.5401662;6;-3;-1;2660;-2628;1283;65536;0.09418282;-0.4584487;0.8786831;0.09418282;7;-2;0;3278;1000;-2183;8192;0.04155125;-0.3795014;-0.7691758;-0.5124654;1;0;4;2172;3419;791;32768;-0.6426592;0.1191136;0.09972299;0.7502375;0;4;-3;3799;1303;592;256;0.6385041;-0.6551744;0.2077562;0.3462604;-2;3;-4;563;3940;-361;128;0.6480722;-0.5803324;0.2880886;0.400277;1;9;1;-769;4059;-70;4;0.6692603;-0.6509695;-0.3047091;0.1883656;1;0;4;2525;3072;316;16;-0.4224377;0.2714681;0.6256986;0.5969529;-2;6;0;633;3996;-546;2;-0.06371191;-0.05540166;-0.6495845;-0.7555869;1;-3;-2;817;4336;-529;8;0.3559557;-0.6498635;-0.2465374;-0.6246537;0;-2;0;91;3257;2799;1.186926;2.463882;0.8628263;1.192705;2.990544;0.7206426;1.197779;3.452951;0.5937103;1.321862;4.17247;0.666907;1.122727;4.539981;0.6614943;0.7616046;4.454282;0.710336;0.1030235;5.069385;0.9253907;0.8210874;4.830721;0.3551094;1.635502;4.451554;0.6614937;1.895438;4.258754;0.7103351;2.441401;3.468738;0.632398;1.81623;3.181846;1.284043;0.8746664;2.421381;0.8672951;0.2566659;1.314432;0.1368173;0;0;0;0.8746664;2.421381;0.8672951;0.2566659;1.314432;0.1368173;0;0;0
351081.24;NotLabelled;16384;0.7406166;0.1883656;-0.3545706;0.5387812;7;0;-3;2814;-2808;1451;65536;0.09418282;-0.4570637;0.8795516;0.09279778;6;-6;-1;3412;1120;-2425;8192;0.04155125;-0.3795014;-0.7691758;-0.5124654;0;0;2;2188;3361;819;32768;-0.6412742;0.1191136;0.101108;0.7512367;-1;2;-2;3889;1301;702;256;0.6385041;-0.6554642;0.2091413;0.3448753;-3;2;-5;609;4002;-403;128;0.6480722;-0.5803324;0.2880886;0.400277;2;5;1;-793;4221;-6;4;0.6692603;-0.6509695;-0.3047091;0.1883656;0;0;3;2521;3122;376;16;-0.4210526;0.2714681;0.6266314;0.5969529;-3;6;0;701;4050;-616;2;-0.06371191;-0.05540166;-0.6495845;-0.7555869;0;0;0;921;4326;-447;8;0.3559557;-0.6493364;-0.2479224;-0.6246537;0;5;0;235;3349;2763;1.184154;2.464369;0.8636498;1.189933;2.99103;0.7214661;1.195007;3.453438;0.594534;1.316401;4.173508;0.6668246;1.115884;4.54026;0.6610043;0.7550969;4.453264;0.7100269;0.09259811;5.065413;0.921446;0.8118562;4.829152;0.3516701;1.628989;4.453761;0.6610039;1.889657;4.261999;0.7100261;2.435556;3.471983;0.6316409;1.810248;3.183243;1.282338;0.8718947;2.421868;0.8681186;0.2535616;1.314919;0.1379222;0;0;0;0.8718947;2.421868;0.8681186;0.2535616;1.314919;0.1379222;0;0;0
351103.5986;NotLabelled;16384;0.7409675;0.1869806;-0.3545706;0.5387812;9;0;-3;2852;-2840;1455;65536;0.09556787;-0.4556787;0.8802656;0.09141274;6;-6;0;3402;968;-2401;8192;0.0401662;-0.3808864;-0.7685645;-0.5124654;0;0;2;2134;3393;725;32768;-0.6412742;0.1191136;0.101108;0.7512367;-1;3;0;3931;1293;588;256;0.6385041;-0.6554642;0.2091413;0.3448753;-3;-11;1;695;4126;-393;128;0.6480722;-0.5803324;0.2880886;0.400277;-2;4;0;-795;4303;-174;4;0.668628;-0.6509695;-0.3060942;0.1883656;1;-2;2;2545;3122;276;16;-0.4210526;0.2700831;0.6259086;0.5983379;-1;6;0;415;4088;-520;2;-0.06371191;-0.05540166;-0.6495845;-0.7555869;-3;3;0;789;4214;-617;8;0.3559557;-0.6493364;-0.2479224;-0.6246537;0;1;0;533;3255;2629;1.18734;2.462003;0.8641502;1.19312;2.988665;0.7219665;1.198194;3.451072;0.5950344;1.319587;4.171142;0.6673249;1.119071;4.537895;0.6615046;0.7582832;4.450899;0.7105271;0.09397924;5.061267;0.9214268;0.8158801;4.826241;0.3544892;1.632175;4.451395;0.6615043;1.892843;4.259633;0.7105268;2.441272;3.471138;0.6345227;1.815964;3.182399;1.285219;0.8750812;2.419502;0.8686191;0.2570852;1.314521;0.1351635;0;0;0;0.8750812;2.419502;0.8686191;0.2570852;1.314521;0.1351635;0;0;0
351123.9933;NotLabelled;16384;0.7413156;0.1855956;-0.3545706;0.5387812;9;1;-3;2860;-2782;1449;65536;0.09556787;-0.4542936;0.8809811;0.09141274;5;-6;-1;3342;908;-2469;8192;0.04155125;-0.3808864;-0.7684909;-0.5124654;0;-3;2;2188;3425;745;32768;-0.6398892;0.1204986;0.101108;0.7521962;-3;0;0;4013;1151;702;256;0.6385041;-0.6538423;0.2119114;0.3462604;-4;5;-1;1473;3952;93;128;0.6489256;-0.5803324;0.2880886;0.398892;0;5;1;-829;4221;18;4;0.6682363;-0.6509695;-0.3060942;0.1897507;0;-1;0;2633;3150;366;16;-0.4196676;0.2700831;0.626838;0.5983379;-1;1;0;921;3974;-392;2;-0.06509695;-0.05401662;-0.6495845;-0.755569;-3;2;1;681;4028;-631;8;0.3545706;-0.6500937;-0.2479224;-0.6246537;0;3;0;431;3101;2487;1.18043;2.460496;0.8722138;1.186206;2.986836;0.7288448;1.191277;3.448957;0.6008718;1.31184;4.16934;0.6714123;1.110884;4.535839;0.6648054;0.7502201;4.448529;0.7141771;0.08277947;5.057115;0.9202704;0.8083618;4.822216;0.3579992;1.624091;4.449951;0.6648049;1.885008;4.258615;0.7141763;2.432372;3.469175;0.640345;1.805253;3.178885;1.288605;0.868171;2.418005;0.8767862;0.2530872;1.315011;0.1379123;0;0;0;0.868171;2.418005;0.8767862;0.2530872;1.315011;0.1379123;0;0;0
351144.3059;NotLabelled;16384;0.7426652;0.1842105;-0.3545706;0.5373961;8;1;-2;2932;-2686;1481;65536;0.09695291;-0.4542936;0.8809724;0.0900277;4;-5;-1;3310;830;-2485;8192;0.04155125;-0.3808864;-0.7684909;-0.5124654;-2;-2;1;2198;3539;703;32768;-0.6398892;0.1204986;0.101108;0.7521962;-4;1;0;3879;1189;640;256;0.6385041;-0.6529381;0.2146814;0.3462604;-5;-2;-1;695;4004;-437;128;0.6489256;-0.5803324;0.2880886;0.398892;0;1;1;-737;4101;134;4;0.668869;-0.6509695;-0.3047091;0.1897507;-1;-1;-1;2695;3170;394;16;-0.4210526;0.2700831;0.6259086;0.5983379;0;-7;0;855;3992;-414;2;-0.06509695;-0.05401662;-0.6509695;-0.7543761;-2;2;0;691;3944;-555;8;0.3545706;-0.6495638;-0.2493075;-0.6246537;0;9;1;545;3153;2503;1.180673;2.46198;0.8710429;1.186448;2.98832;0.7276739;1.191519;3.450441;0.5997012;1.309748;4.171384;0.668446;1.107589;4.537204;0.6610321;0.7472329;4.448834;0.7107614;0.0765397;5.055066;0.9132029;0.8065828;4.821288;0.3562631;1.621075;4.453;0.6610317;1.882637;4.262642;0.7107611;2.43025;3.4732;0.6387964;1.800697;3.18291;1.284693;0.8684136;2.419489;0.8756152;0.2557433;1.314521;0.1376862;0;0;0;0.8684136;2.419489;0.8756152;0.2557433;1.314521;0.1376862;0;0;0
351165.057;NotLabelled;16384;0.7426652;0.1842105;-0.3545706;0.5373961;7;3;-1;2892;-2692;1499;65536;0.09695291;-0.4529086;0.8818256;0.08864266;3;-5;-1;3246;868;-2507;8192;0.04155125;-0.3808864;-0.7694128;-0.5110803;0;-3;1;2194;3437;701;32768;-0.6398892;0.1204986;0.09972299;0.752381;-3;1;0;3867;1211;526;256;0.6385041;-0.6529381;0.2146814;0.3462604;-6;-1;-1;611;4002;-457;128;0.649775;-0.5803324;0.2880886;0.3975069;3;4;1;-689;4065;86;4;0.6692603;-0.6509695;-0.3047091;0.1883656;-1;2;-1;2635;3056;334;16;-0.4210526;0.2714681;0.6253091;0.5983379;0;-7;0;655;3998;-436;2;-0.06509695;-0.05401662;-0.6509695;-0.7543761;0;-1;0;789;3920;-737;8;0.3531856;-0.6489847;-0.2493075;-0.6260388;0;3;0;661;3109;2487;1.177152;2.464555;0.8671121;1.182924;2.990572;0.7225635;1.187992;3.452405;0.593555;1.306221;4.173347;0.6622999;1.104062;4.539168;0.6548858;0.7437057;4.450797;0.7046153;0.07301232;5.057029;0.9070562;0.8044716;4.825674;0.3509639;1.617548;4.454964;0.6548854;1.87911;4.264606;0.704615;2.427999;3.476297;0.6299978;1.799223;3.187947;1.277518;0.864893;2.422074;0.8717871;0.2537729;1.315125;0.1355435;0;0;0;0.864893;2.422074;0.8717871;0.2537729;1.315125;0.1355435;0;0;0
351186.1076;NotLabelled;16384;0.7433456;0.1828255;-0.3559557;0.536011;5;2;1;2706;-2688;1439;65536;0.09695291;-0.4515235;0.8825356;0.08864266;2;-3;0;3198;1008;-2379;8192;0.04155125;-0.3822715;-0.7687255;-0.5110803;0;-1;2;2292;3339;681;32768;-0.6398892;0.1204986;0.09972299;0.752381;-1;3;-1;3707;1273;630;256;0.6398892;-0.6511227;0.2160665;0.3462604;-5;1;-2;613;3940;-435;128;0.6485353;-0.5817174;0.2880886;0.3975069;3;5;1;-717;4085;28;4;0.668628;-0.6509695;-0.3060942;0.1883656;0;3;-1;2619;2940;414;16;-0.4210526;0.2714681;0.6253091;0.5983379;0;-6;0;661;4048;-588;2;-0.06509695;-0.05401662;-0.6509695;-0.7543761;-1;1;0;619;3896;-637;8;0.3531856;-0.6489847;-0.2493075;-0.6260388;0;-4;0;745;3063;2575;1.176752;2.459723;0.8784728;1.182529;2.986211;0.7356485;1.187602;3.448463;0.6081537;1.30594;4.169516;0.6755487;1.103737;4.53531;0.6680779;0.743507;4.446987;0.7188007;0.07105148;5.052252;0.9182679;0.8027763;4.822854;0.361714;1.617227;4.451143;0.6669721;1.878922;4.260877;0.7163566;2.428659;3.473077;0.6426318;1.799861;3.182607;1.289182;0.8644928;2.417226;0.8829976;0.253768;1.314674;0.1398603;0;0;0;0.8644928;2.417226;0.8829976;0.253768;1.314674;0.1398603;0;0;0
351207.0118;NotLabelled;16384;0.7440175;0.1814404;-0.3573407;0.534626;5;3;0;2656;-2606;1383;65536;0.09695291;-0.4515235;0.8825356;0.08864266;3;-3;-1;3110;1024;-2367;8192;0.0401662;-0.3836565;-0.7681089;-0.5110803;1;0;4;2312;3259;749;32768;-0.6385041;0.1204986;0.101108;0.7533723;0;5;-1;3719;1289;680;256;0.6398892;-0.6518574;0.2160665;0.3448753;-6;2;-1;649;3980;-411;128;0.6493822;-0.5817174;0.2880886;0.3961219;3;6;0;-727;4017;52;4;0.6699737;-0.6495845;-0.3060942;0.1883656;-1;4;-1;2641;2968;286;16;-0.4224377;0.2714681;0.6243742;0.5983379;0;-1;0;621;3946;-622;2;-0.06509695;-0.05401662;-0.6509695;-0.7543761;0;1;1;621;3844;-733;8;0.3545706;-0.6482291;-0.2493075;-0.6260388;0;-5;0;453;3087;2511;1.184716;2.461946;0.8653951;1.19049;2.988114;0.7213951;1.195559;3.450081;0.5928683;1.312265;4.171601;0.6580692;1.109301;4.53694;0.6490633;0.7491776;4.448022;0.6994982;0.0742425;5.051816;0.8950059;0.8055761;4.820597;0.3386927;1.62297;4.453857;0.6490626;1.884985;4.26431;0.699497;2.437296;3.47811;0.6279573;1.808535;3.187911;1.274667;0.8724567;2.419461;0.8700224;0.257036;1.314632;0.1341762;0;0;0;0.8724567;2.419461;0.8700224;0.257036;1.314632;0.1341762;0;0;0
351228.1592;NotLabelled;16384;0.7440175;0.1814404;-0.3573407;0.534626;4;2;0;2604;-2640;1409;65536;0.09833795;-0.4501385;0.8830897;0.08864266;3;-2;-1;3048;1034;-2389;8192;0.0401662;-0.3836565;-0.7681089;-0.5110803;2;0;4;2192;3257;759;32768;-0.6385041;0.1204986;0.101108;0.7533723;0;5;-1;3771;1207;604;256;0.6398892;-0.6518574;0.2160665;0.3448753;-5;1;-1;647;3948;-409;128;0.6508369;-0.5817174;0.2867036;0.3947368;4;5;1;-695;4017;36;4;0.6703616;-0.6495845;-0.3060942;0.1869806;0;4;0;2725;2996;292;16;-0.4210526;0.2714681;0.6253091;0.5983379;0;12;1;819;4022;-706;2;-0.06509695;-0.05401662;-0.6509695;-0.7543761;0;1;0;641;3934;-563;8;0.3545706;-0.64876;-0.2479224;-0.6260388;0;-3;0;589;3069;2435;1.179995;2.464407;0.8648093;1.185765;2.990253;0.7196367;1.190831;3.451932;0.5900804;1.307537;4.173451;0.6552813;1.104574;4.538791;0.6462755;0.7444499;4.449873;0.6967103;0.06944913;5.053667;0.8919914;0.8022028;4.821427;0.3379762;1.618242;4.455708;0.6462746;1.880258;4.266161;0.6967092;2.432592;3.479961;0.6253551;1.803832;3.189762;1.272064;0.8677357;2.421932;0.869539;0.2538633;1.315125;0.1353744;0;0;0;0.8677357;2.421932;0.869539;0.2538633;1.315125;0.1353744;0;0;0
351248.0847;NotLabelled;16384;0.7440175;0.1814404;-0.3573407;0.534626;4;1;0;2558;-2656;1365;65536;0.09833795;-0.4501385;0.8832276;0.08725762;4;0;-1;3066;1034;-2337;8192;0.0401662;-0.3836565;-0.7681089;-0.5110803;2;0;4;2208;3289;757;32768;-0.6371191;0.1204986;0.101108;0.7545439;0;4;-2;3749;1307;586;256;0.6412742;-0.6507662;0.2174515;0.3434903;-4;0;-2;669;3892;-403;128;0.6514615;-0.5803324;0.2880886;0.3947368;6;1;1;-709;4055;-14;4;0.6697274;-0.6495845;-0.3074792;0.1869806;0;2;2;2857;3060;374;16;-0.4196676;0.2686981;0.6261092;0.599723;-3;6;0;769;3964;-548;2;-0.06509695;-0.05401662;-0.6509695;-0.7543761;1;2;0;617;3902;-599;8;0.3559557;-0.6480011;-0.2479224;-0.6260388;0;-11;-1;619;3115;2473;1.182544;2.46191;0.8679513;1.188308;2.987278;0.721059;1.19337;3.448531;0.5899928;1.308552;4.170608;0.6516415;1.104785;4.535456;0.6410407;0.7448947;4.445998;0.6921806;0.06999093;5.049792;0.8877983;0.8035432;4.819847;0.3338822;1.618633;4.453493;0.6410403;1.8811;4.264761;0.6921802;2.433399;3.478561;0.6205508;1.80542;3.188455;1.26806;0.8702847;2.419451;0.872831;0.2563088;1.314607;0.1358008;0;0;0;0.8702847;2.419451;0.872831;0.2563088;1.314607;0.1358008;0;0;0
351269.1595;NotLabelled;16384;0.7436874;0.1800554;-0.3587258;0.534626;4;0;0;2578;-2692;1375;65536;0.09972299;-0.4501385;0.8830724;0.08725762;5;0;-1;3152;1080;-2313;8192;0.03878116;-0.3836565;-0.7681801;-0.5110803;0;2;3;2190;3311;729;32768;-0.6371191;0.1218837;0.101108;0.7543214;0;4;-1;3709;1293;542;256;0.6412742;-0.6507662;0.2174515;0.3434903;-3;0;-3;633;3884;-357;128;0.6522987;-0.5803324;0.2880886;0.3933518;6;3;1;-733;4039;76;4;0.6693392;-0.6495845;-0.3074792;0.1883656;0;5;2;2793;2954;328;16;-0.4196676;0.2686981;0.6247796;0.601108;-4;3;-1;709;4020;-648;2;-0.06509695;-0.05401662;-0.6495845;-0.755569;1;-1;0;671;3916;-605;8;0.3559557;-0.6485294;-0.2465374;-0.6260388;-1;-9;0;589;3133;2515;1.185685;2.460098;0.8646507;1.191447;2.985139;0.7165945;1.196505;3.4461;0.5845065;1.311687;4.168177;0.6461552;1.10792;4.533026;0.6355546;0.7480296;4.443567;0.6866943;0.07175246;5.046713;0.8795484;0.8064742;4.815612;0.3276674;1.621768;4.451063;0.6355541;1.884235;4.262331;0.686694;2.438055;3.477086;0.6163396;1.811852;3.18535;1.264835;0.8734264;2.417649;0.8696321;0.2579027;1.31479;0.1309234;0;0;0;0.8734264;2.417649;0.8696321;0.2579027;1.31479;0.1309234;0;0;0
351290.1363;NotLabelled;16384;0.7443461;0.1786704;-0.3601108;0.533241;7;0;-1;2660;-2704;1361;65536;0.101108;-0.4487534;0.8837553;0.08587258;7;-1;-1;3164;1064;-2253;8192;0.03878116;-0.3836565;-0.7681801;-0.5110803;0;1;1;2220;3333;817;32768;-0.6371191;0.1218837;0.1024931;0.7541345;-1;0;-2;3791;1277;584;256;0.6412742;-0.6503017;0.2188366;0.3434903;-3;0;-3;643;3946;-315;128;0.6522987;-0.5803324;0.2880886;0.3933518;1;3;0;-751;4059;138;4;0.6690898;-0.6495845;-0.3088643;0.1869806;0;8;2;2697;2914;352;16;-0.4182825;0.2686981;0.6257077;0.601108;-4;2;-1;659;3986;-712;2;-0.06648199;-0.05401662;-0.6495845;-0.7554485;0;1;0;663;3998;-611;8;0.3559557;-0.6490542;-0.2451524;-0.6260388;-2;2;2;543;3191;2467;1.178924;2.460612;0.8690594;1.184685;2.985653;0.7210032;1.189743;3.446614;0.5889152;1.303767;4.168953;0.6496502;1.099408;4.533458;0.6386395;0.739673;4.44348;0.6899609;0.0609493;5.045381;0.8780503;0.7992729;4.81557;0.3304539;1.613388;4.452327;0.6386387;1.876171;4.264083;0.6899599;2.4301;3.478839;0.6204751;1.801899;3.185159;1.266155;0.8666649;2.418163;0.8740407;0.2544832;1.31529;0.1325811;0;0;0;0.8666649;2.418163;0.8740407;0.2544832;1.31529;0.1325811;0;0;0
351311.5106;NotLabelled;16384;0.7446772;0.1772853;-0.3601108;0.533241;8;-2;-1;2694;-2682;1343;65536;0.101108;-0.4487534;0.8837553;0.08587258;6;0;-1;3172;1088;-2305;8192;0.03878116;-0.3836565;-0.7681801;-0.5110803;-1;0;0;2208;3393;711;32768;-0.6371191;0.1232687;0.1024931;0.7539093;0;0;-2;3819;1281;562;256;0.6412742;-0.6503017;0.2188366;0.3434903;-3;0;-3;625;3962;-353;128;0.6522987;-0.5803324;0.2880886;0.3933518;1;3;1;-711;4069;148;4;0.6697919;-0.6481994;-0.3102493;0.1869806;1;7;2;2715;3002;292;16;-0.4168975;0.2686981;0.6266314;0.601108;-5;5;-1;625;3992;-646;2;-0.06648199;-0.05401662;-0.6495845;-0.7554485;1;2;1;545;3928;-653;8;0.3545706;-0.6498119;-0.2451524;-0.6260388;-5;2;1;421;3153;2371;1.179532;2.458967;0.870259;1.185293;2.984008;0.7222028;1.190352;3.444969;0.5901149;1.304376;4.167308;0.65085;1.100016;4.531813;0.6398392;0.7402815;4.441834;0.6911606;0.05981109;5.041933;0.8786969;0.7981346;4.812122;0.3311006;1.613997;4.450682;0.6398385;1.876779;4.262438;0.6911595;2.430708;3.477194;0.6216748;1.804285;3.181885;1.268339;0.8672733;2.416518;0.8752404;0.2513128;1.315783;0.1337334;0;0;0;0.8672733;2.416518;0.8752404;0.2513128;1.315783;0.1337334;0;0;0
351332.2759;NotLabelled;16384;0.7450056;0.1759003;-0.3601108;0.533241;9;-3;-2;2630;-2688;1359;65536;0.1024931;-0.4487534;0.8837292;0.08448754;8;0;-2;3142;1108;-2419;8192;0.03878116;-0.3836565;-0.7681801;-0.5110803;-1;1;0;2268;3369;755;32768;-0.6371191;0.1232687;0.1024931;0.7539093;0;0;-2;3871;1339;614;256;0.6412742;-0.6510314;0.2188366;0.3421052;-2;0;-4;611;4032;-357;128;0.6537411;-0.5803324;0.2867036;0.3919668;0;4;1;-689;4043;126;4;0.6691486;-0.6481994;-0.3116343;0.1869806;1;4;2;2783;2954;276;16;-0.4168975;0.2686981;0.6252999;0.602493;-6;9;-1;641;3990;-684;2;-0.06648199;-0.05263158;-0.6495845;-0.7555462;0;4;-1;559;3938;-487;8;0.3545706;-0.6498119;-0.2451524;-0.6260388;-6;-6;0;651;3255;2455;1.180753;2.459084;0.8631837;1.186511;2.983795;0.713965;1.191566;3.444463;0.5808563;1.303919;4.167176;0.6402272;1.098812;4.53122;0.627933;0.7391528;4.440593;0.6786381;0.05525011;5.037852;0.8627217;0.7958595;4.807981;0.3182459;1.612962;4.451183;0.629283;1.876025;4.263614;0.6816244;2.431777;3.479395;0.6151637;1.805369;3.18552;1.262495;0.8684944;2.416646;0.8682668;0.252932;1.316242;0.1259373;0;0;0;0.8684944;2.416646;0.8682668;0.252932;1.316242;0.1259373;0;0;0
351353.1892;NotLabelled;16384;0.7436668;0.1745152;-0.3614958;0.534626;8;-5;-2;2642;-2696;1445;65536;0.1038781;-0.4487534;0.8836989;0.08310249;9;0;-1;3198;1038;-2393;8192;0.03878116;-0.3836565;-0.7690997;-0.5096953;-1;2;0;2282;3361;787;32768;-0.6371191;0.1232687;0.1024931;0.7539093;0;0;-2;3817;1289;642;256;0.6412742;-0.6512907;0.2202216;0.3407202;-2;0;-5;687;4054;-417;128;0.653339;-0.5817174;0.2867036;0.3905817;-1;9;1;-713;4119;-104;4;0.6691486;-0.6481994;-0.3116343;0.1869806;2;6;2;2825;3016;240;16;-0.4141274;0.267313;0.6263973;0.6038781;-7;14;0;667;4026;-666;2;-0.06648199;-0.05124654;-0.6495845;-0.7556414;-2;6;-1;633;4044;-713;8;0.3559557;-0.6495757;-0.2437673;-0.6260388;-5;-8;0;501;3063;2577;1.180359;2.457728;0.8657946;1.186119;2.9826;0.717142;1.191175;3.443411;0.5845303;1.300977;4.166483;0.6443076;1.094484;4.529769;0.632867;0.735292;4.437752;0.6843781;0.0530062;5.035998;0.8712363;0.7944453;4.80848;0.3269016;1.60893;4.451652;0.632866;1.872821;4.265018;0.684377;2.427814;3.48091;0.6106572;1.803143;3.185602;1.259014;0.8681005;2.415284;0.8708284;0.2505426;1.316527;0.1277177;0;0;0;0.8681005;2.415284;0.8708284;0.2505426;1.316527;0.1277177;0;0;0
351373.0037;NotLabelled;16384;0.7439904;0.1731302;-0.3614958;0.534626;7;-5;-2;2728;-2642;1401;65536;0.1038781;-0.4487534;0.8836989;0.08310249;9;0;-2;3238;1028;-2397;8192;0.03878116;-0.3836565;-0.7690997;-0.5096953;-1;1;0;2220;3371;787;32768;-0.6371191;0.1232687;0.1024931;0.7539093;0;0;-2;3775;1281;726;256;0.6412742;-0.6508207;0.2216066;0.3407202;-2;0;-4;599;4008;-329;128;0.6535372;-0.5831025;0.2853186;0.3891967;0;9;1;-687;4055;-22;4;0.6675843;-0.6481994;-0.3157895;0.1855956;1;15;6;2883;2942;270;16;-0.4113573;0.265928;0.6261353;0.6066482;-11;11;-1;737;4068;-760;2;-0.06786703;-0.05124654;-0.6495845;-0.7555183;1;6;-2;709;3990;-651;8;0.3559557;-0.6500937;-0.2423823;-0.6260388;-6;-5;0;543;3111;2521;1.174768;2.454489;0.8702576;1.18053;2.979522;0.7221756;1.185588;3.440477;0.5900646;1.294234;4.163799;0.6489193;1.087152;4.526738;0.6370646;0.728119;4.434205;0.6887585;0.04374644;5.030646;0.8737479;0.7862231;4.803127;0.3308297;1.601724;4.44945;0.637064;1.865925;4.263307;0.6887578;2.421057;3.479199;0.6160979;1.79515;3.183891;1.263261;0.8625095;2.41204;0.8752414;0.2492339;1.317244;0.122797;0;0;0;0.8625095;2.41204;0.8752414;0.2492339;1.317244;0.122797;0;0;0
