SEP=;
index;label;RightUpperArm_boneIndex;RightUpperArm_quat9x_w;RightUpperArm_quat9x_x;RightUpperArm_quat9x_y;RightUpperArm_quat9x_z;RightUpperArm_gyroscope_x;RightUpperArm_gyroscope_y;RightUpperArm_gyroscope_z;RightUpperArm_accelerometer_x;RightUpperArm_accelerometer_y;RightUpperArm_accelerometer_z;RightLowerArm_boneIndex;RightLowerArm_quat9x_w;RightLowerArm_quat9x_x;RightLowerArm_quat9x_y;RightLowerArm_quat9x_z;RightLowerArm_gyroscope_x;RightLowerArm_gyroscope_y;RightLowerArm_gyroscope_z;RightLowerArm_accelerometer_x;RightLowerArm_accelerometer_y;RightLowerArm_accelerometer_z;LeftUpperArm_boneIndex;LeftUpperArm_quat9x_w;LeftUpperArm_quat9x_x;LeftUpperArm_quat9x_y;LeftUpperArm_quat9x_z;LeftUpperArm_gyroscope_x;LeftUpperArm_gyroscope_y;LeftUpperArm_gyroscope_z;LeftUpperArm_accelerometer_x;LeftUpperArm_accelerometer_y;LeftUpperArm_accelerometer_z;LeftLowerArm_boneIndex;LeftLowerArm_quat9x_w;LeftLowerArm_quat9x_x;LeftLowerArm_quat9x_y;LeftLowerArm_quat9x_z;LeftLowerArm_gyroscope_x;LeftLowerArm_gyroscope_y;LeftLowerArm_gyroscope_z;LeftLowerArm_accelerometer_x;LeftLowerArm_accelerometer_y;LeftLowerArm_accelerometer_z;Chest_boneIndex;Chest_quat9x_w;Chest_quat9x_x;Chest_quat9x_y;Chest_quat9x_z;Chest_gyroscope_x;Chest_gyroscope_y;Chest_gyroscope_z;Chest_accelerometer_x;Chest_accelerometer_y;Chest_accelerometer_z;Spine_boneIndex;Spine_quat9x_w;Spine_quat9x_x;Spine_quat9x_y;Spine_quat9x_z;Spine_gyroscope_x;Spine_gyroscope_y;Spine_gyroscope_z;Spine_accelerometer_x;Spine_accelerometer_y;Spine_accelerometer_z;RightUpperLeg_boneIndex;RightUpperLeg_quat9x_w;RightUpperLeg_quat9x_x;RightUpperLeg_quat9x_y;RightUpperLeg_quat9x_z;RightUpperLeg_gyroscope_x;RightUpperLeg_gyroscope_y;RightUpperLeg_gyroscope_z;RightUpperLeg_accelerometer_x;RightUpperLeg_accelerometer_y;RightUpperLeg_accelerometer_z;RightLowerLeg_boneIndex;RightLowerLeg_quat9x_w;RightLowerLeg_quat9x_x;RightLowerLeg_quat9x_y;RightLowerLeg_quat9x_z;RightLowerLeg_gyroscope_x;RightLowerLeg_gyroscope_y;RightLowerLeg_gyroscope_z;RightLowerLeg_accelerometer_x;RightLowerLeg_accelerometer_y;RightLowerLeg_accelerometer_z;LeftUpperLeg_boneIndex;LeftUpperLeg_quat9x_w;LeftUpperLeg_quat9x_x;LeftUpperLeg_quat9x_y;LeftUpperLeg_quat9x_z;LeftUpperLeg_gyroscope_x;LeftUpperLeg_gyroscope_y;LeftUpperLeg_gyroscope_z;LeftUpperLeg_accelerometer_x;LeftUpperLeg_accelerometer_y;LeftUpperLeg_accelerometer_z;LeftLowerLeg_boneIndex;LeftLowerLeg_quat9x_w;LeftLowerLeg_quat9x_x;LeftLowerLeg_quat9x_y;LeftLowerLeg_quat9x_z;LeftLowerLeg_gyroscope_x;LeftLowerLeg_gyroscope_y;LeftLowerLeg_gyroscope_z;LeftLowerLeg_accelerometer_x;LeftLowerLeg_accelerometer_y;LeftLowerLeg_accelerometer_z;pelvis_x;pelvis_y;pelvis_z;lowerSpine_x;lowerSpine_y;lowerSpine_z;middleSpine_x;middleSpine_y;middleSpine_z;upperSpine_x;upperSpine_y;upperSpine_z;rightClavicle_x;rightClavicle_y;rightClavicle_z;rightShoulder_x;rightShoulder_y;rightShoulder_z;rightElbow_x;rightElbow_y;rightElbow_z;rightWrist_x;rightWrist_y;rightWrist_z;leftClavicle_x;leftClavicle_y;leftClavicle_z;leftShoulder_x;leftShoulder_y;leftShoulder_z;leftElbow_x;leftElbow_y;leftElbow_z;leftWrist_x;leftWrist_y;leftWrist_z;rightHip_x;rightHip_y;rightHip_z;rightKnee_x;rightKnee_y;rightKnee_z;rightAnkle_x;rightAnkle_y;rightAnkle_z;leftHip_x;leftHip_y;leftHip_z;leftKnee_x;leftKnee_y;leftKnee_z;leftAnkle_x;leftAnkle_y;leftAnkle_z;
56369.3451;NotLabelled;16384;-0.1135734;0.3199446;-0.6762848;-0.6537396;0;2;0;-1210;3932;-259;65536;0.134349;-0.2160665;0.6745152;0.6930331;1;5;2;520;4035;250;8192;0.6467551;-0.602493;0.2119114;0.4168975;0;-7;0;1116;3849;-451;32768;0.5775623;-0.6082998;0.3102493;0.4473684;-2;-11;0;-443;4039;566;256;0.6412742;-0.07617728;-0.7622336;-0.04432133;-1;0;0;261;708;3951;128;-0.6204986;0.08448754;0.7745875;0.08864266;1;0;-1;-145;1103;-4012;4;0.3144044;0.368421;-0.5318559;-0.6946546;0;-1;0;-3399;1982;-936;16;0.232687;-0.7136648;-0.06094183;0.6578947;-2;-1;0;-1747;876;3614;2;0.5401662;-0.7006654;-0.3642659;0.2908587;0;4;-1;3569;2204;-557;8;0.02770083;-0.71184;0.1786704;0.6786703;0;6;0;825;1067;3891;0.6409407;1.630388;1.55618;0.6408631;1.623339;1.010678;0.6407727;1.61512;0.5312089;0.6479748;1.736393;-0.1924645;0.3907062;1.768088;-0.520422;0.05231678;1.827311;-0.3716793;-0.01557996;0.9408617;-0.1110508;0;0;0;0.9101348;1.737238;-0.5204254;1.200862;1.759098;-0.371685;1.411656;0.8386052;-0.1805468;1.503983;-0.09018576;-0.01741862;0.329108;1.626743;1.601778;0.7698097;0.8845577;2.783219;0.9516885;0.5453966;4.073266;0.329108;1.626743;1.601778;0.7698097;0.8845577;2.783219;0.9516885;0.5453966;4.073266
56389.5087;NotLabelled;16384;-0.1135734;0.3199446;-0.6762848;-0.6537396;0;2;0;-1210;3932;-259;65536;0.134349;-0.2160665;0.6745152;0.6930331;1;5;2;520;4035;250;8192;0.6467551;-0.602493;0.2119114;0.4168975;0;-7;0;1116;3849;-451;32768;0.5775623;-0.6082998;0.3102493;0.4473684;-2;-11;0;-443;4039;566;256;0.6412742;-0.07617728;-0.7622336;-0.04432133;-1;0;0;261;708;3951;128;-0.6204986;0.08448754;0.7745875;0.08864266;1;0;-1;-145;1103;-4012;4;0.3144044;0.368421;-0.5318559;-0.6946546;0;-1;0;-3399;1982;-936;16;0.232687;-0.7136648;-0.06094183;0.6578947;-2;-1;0;-1747;876;3614;2;0.5401662;-0.7006654;-0.3642659;0.2908587;0;4;-1;3569;2204;-557;8;0.02770083;-0.71184;0.1786704;0.6786703;0;6;0;825;1067;3891;0.6409407;1.630388;1.55618;0.6408631;1.623339;1.010678;0.6407727;1.61512;0.5312089;0.6479748;1.736393;-0.1924645;0.3907062;1.768088;-0.520422;0.05231678;1.827311;-0.3716793;-0.01557996;0.9408617;-0.1110508;0;0;0;0.9101348;1.737238;-0.5204254;1.200862;1.759098;-0.371685;1.411656;0.8386052;-0.1805468;1.503983;-0.09018576;-0.01741862;0.329108;1.626743;1.601778;0.7698097;0.8845577;2.783219;0.9516885;0.5453966;4.073266;0.329108;1.626743;1.601778;0.7698097;0.8845577;2.783219;0.9516885;0.5453966;4.073266
56409.3465;NotLabelled;16384;-0.1135734;0.3199446;-0.6762848;-0.6537396;0;2;0;-1210;3932;-259;65536;0.134349;-0.2160665;0.6745152;0.6930331;1;5;2;520;4035;250;8192;0.6467551;-0.602493;0.2119114;0.4168975;0;-7;0;1116;3849;-451;32768;0.5775623;-0.6082998;0.3102493;0.4473684;-2;-11;0;-443;4039;566;256;0.6412742;-0.07617728;-0.7622336;-0.04432133;-1;0;0;261;708;3951;128;-0.6204986;0.08448754;0.7745875;0.08864266;1;0;-1;-145;1103;-4012;4;0.3144044;0.368421;-0.5318559;-0.6946546;0;-1;0;-3399;1982;-936;16;0.232687;-0.7136648;-0.06094183;0.6578947;-2;-1;0;-1747;876;3614;2;0.5401662;-0.7006654;-0.3642659;0.2908587;0;4;-1;3569;2204;-557;8;0.02770083;-0.71184;0.1786704;0.6786703;0;6;0;825;1067;3891;0.6409407;1.630388;1.55618;0.6408631;1.623339;1.010678;0.6407727;1.61512;0.5312089;0.6479748;1.736393;-0.1924645;0.3907062;1.768088;-0.520422;0.05231678;1.827311;-0.3716793;-0.01557996;0.9408617;-0.1110508;0;0;0;0.9101348;1.737238;-0.5204254;1.200862;1.759098;-0.371685;1.411656;0.8386052;-0.1805468;1.503983;-0.09018576;-0.01741862;0.329108;1.626743;1.601778;0.7698097;0.8845577;2.783219;0.9516885;0.5453966;4.073266;0.329108;1.626743;1.601778;0.7698097;0.8845577;2.783219;0.9516885;0.5453966;4.073266
56429.4652;NotLabelled;16384;-0.1135734;0.3199446;-0.6762848;-0.6537396;0;2;0;-1210;3932;-259;65536;0.134349;-0.2160665;0.6745152;0.6930331;1;5;2;520;4035;250;8192;0.6467551;-0.602493;0.2119114;0.4168975;0;-7;0;1116;3849;-451;32768;0.5775623;-0.6082998;0.3102493;0.4473684;-2;-11;0;-443;4039;566;256;0.6412742;-0.07617728;-0.7622336;-0.04432133;-1;0;0;261;708;3951;128;-0.6204986;0.08448754;0.7745875;0.08864266;1;0;-1;-145;1103;-4012;4;0.3144044;0.368421;-0.5318559;-0.6946546;0;-1;0;-3399;1982;-936;16;0.232687;-0.7136648;-0.06094183;0.6578947;-2;-1;0;-1747;876;3614;2;0.5401662;-0.7006654;-0.3642659;0.2908587;0;4;-1;3569;2204;-557;8;0.02770083;-0.71184;0.1786704;0.6786703;0;6;0;825;1067;3891;0.6409407;1.630388;1.55618;0.6408631;1.623339;1.010678;0.6407727;1.61512;0.5312089;0.6479748;1.736393;-0.1924645;0.3907062;1.768088;-0.520422;0.05231678;1.827311;-0.3716793;-0.01557996;0.9408617;-0.1110508;0;0;0;0.9101348;1.737238;-0.5204254;1.200862;1.759098;-0.371685;1.411656;0.8386052;-0.1805468;1.503983;-0.09018576;-0.01741862;0.329108;1.626743;1.601778;0.7698097;0.8845577;2.783219;0.9516885;0.5453966;4.073266;0.329108;1.626743;1.601778;0.7698097;0.8845577;2.783219;0.9516885;0.5453966;4.073266
56449.5081;NotLabelled;16384;-0.1135734;0.3199446;-0.6762848;-0.6537396;0;2;0;-1210;3932;-259;65536;0.134349;-0.2160665;0.6745152;0.6930331;1;5;2;520;4035;250;8192;0.6467551;-0.602493;0.2119114;0.4168975;0;-7;0;1116;3849;-451;32768;0.5775623;-0.6082998;0.3102493;0.4473684;-2;-11;0;-443;4039;566;256;0.6412742;-0.07617728;-0.7622336;-0.04432133;-1;0;0;261;708;3951;128;-0.6204986;0.08448754;0.7745875;0.08864266;1;0;-1;-145;1103;-4012;4;0.3144044;0.368421;-0.5318559;-0.6946546;0;-1;0;-3399;1982;-936;16;0.232687;-0.7136648;-0.06094183;0.6578947;-2;-1;0;-1747;876;3614;2;0.5401662;-0.7006654;-0.3642659;0.2908587;0;4;-1;3569;2204;-557;8;0.02770083;-0.71184;0.1786704;0.6786703;0;6;0;825;1067;3891;0.6409407;1.630388;1.55618;0.6408631;1.623339;1.010678;0.6407727;1.61512;0.5312089;0.6479748;1.736393;-0.1924645;0.3907062;1.768088;-0.520422;0.05231678;1.827311;-0.3716793;-0.01557996;0.9408617;-0.1110508;0;0;0;0.9101348;1.737238;-0.5204254;1.200862;1.759098;-0.371685;1.411656;0.8386052;-0.1805468;1.503983;-0.09018576;-0.01741862;0.329108;1.626743;1.601778;0.7698097;0.8845577;2.783219;0.9516885;0.5453966;4.073266;0.329108;1.626743;1.601778;0.7698097;0.8845577;2.783219;0.9516885;0.5453966;4.073266
56491.3922;NotLabelled;16384;-0.1135734;0.3199446;-0.6762848;-0.6537396;0;2;0;-1210;3932;-259;65536;0.134349;-0.2160665;0.6745152;0.6930331;1;5;2;520;4035;250;8192;0.6467551;-0.602493;0.2119114;0.4168975;0;-7;0;1116;3849;-451;32768;0.5775623;-0.6082998;0.3102493;0.4473684;-2;-11;0;-443;4039;566;256;0.6412742;-0.07617728;-0.7622336;-0.04432133;-1;0;0;261;708;3951;128;-0.6204986;0.08448754;0.7745875;0.08864266;1;0;-1;-145;1103;-4012;4;0.3144044;0.368421;-0.5318559;-0.6946546;0;-1;0;-3399;1982;-936;16;0.232687;-0.7136648;-0.06094183;0.6578947;-2;-1;0;-1747;876;3614;2;0.5401662;-0.7006654;-0.3642659;0.2908587;0;4;-1;3569;2204;-557;8;0.02770083;-0.71184;0.1786704;0.6786703;0;6;0;825;1067;3891;0.6409407;1.630388;1.55618;0.6408631;1.623339;1.010678;0.6407727;1.61512;0.5312089;0.6479748;1.736393;-0.1924645;0.3907062;1.768088;-0.520422;0.05231678;1.827311;-0.3716793;-0.01557996;0.9408617;-0.1110508;0;0;0;0.9101348;1.737238;-0.5204254;1.200862;1.759098;-0.371685;1.411656;0.8386052;-0.1805468;1.503983;-0.09018576;-0.01741862;0.329108;1.626743;1.601778;0.7698097;0.8845577;2.783219;0.9516885;0.5453966;4.073266;0.329108;1.626743;1.601778;0.7698097;0.8845577;2.783219;0.9516885;0.5453966;4.073266
56511.5092;NotLabelled;16384;-0.1135734;0.3199446;-0.6762848;-0.6537396;0;2;0;-1210;3932;-259;65536;0.134349;-0.2160665;0.6745152;0.6930331;1;5;2;520;4035;250;8192;0.6467551;-0.602493;0.2119114;0.4168975;0;-7;0;1116;3849;-451;32768;0.5775623;-0.6082998;0.3102493;0.4473684;-2;-11;0;-443;4039;566;256;0.6412742;-0.07617728;-0.7622336;-0.04432133;-1;0;0;261;708;3951;128;-0.6204986;0.08448754;0.7745875;0.08864266;1;0;-1;-145;1103;-4012;4;0.3144044;0.368421;-0.5318559;-0.6946546;0;-1;0;-3399;1982;-936;16;0.232687;-0.7136648;-0.06094183;0.6578947;-2;-1;0;-1747;876;3614;2;0.5401662;-0.7006654;-0.3642659;0.2908587;0;4;-1;3569;2204;-557;8;0.02770083;-0.71184;0.1786704;0.6786703;0;6;0;825;1067;3891;0.6409407;1.630388;1.55618;0.6408631;1.623339;1.010678;0.6407727;1.61512;0.5312089;0.6479748;1.736393;-0.1924645;0.3907062;1.768088;-0.520422;0.05231678;1.827311;-0.3716793;-0.01557996;0.9408617;-0.1110508;0;0;0;0.9101348;1.737238;-0.5204254;1.200862;1.759098;-0.371685;1.411656;0.8386052;-0.1805468;1.503983;-0.09018576;-0.01741862;0.329108;1.626743;1.601778;0.7698097;0.8845577;2.783219;0.9516885;0.5453966;4.073266;0.329108;1.626743;1.601778;0.7698097;0.8845577;2.783219;0.9516885;0.5453966;4.073266
56532.5747;NotLabelled;16384;-0.1135734;0.3199446;-0.6762848;-0.6537396;0;2;0;-1210;3932;-259;65536;0.134349;-0.2160665;0.6745152;0.6930331;1;5;2;520;4035;250;8192;0.6467551;-0.602493;0.2119114;0.4168975;0;-7;0;1116;3849;-451;32768;0.5775623;-0.6082998;0.3102493;0.4473684;-2;-11;0;-443;4039;566;256;0.6412742;-0.07617728;-0.7622336;-0.04432133;-1;0;0;261;708;3951;128;-0.6204986;0.08448754;0.7745875;0.08864266;1;0;-1;-145;1103;-4012;4;0.3144044;0.368421;-0.5318559;-0.6946546;0;-1;0;-3399;1982;-936;16;0.232687;-0.7136648;-0.06094183;0.6578947;-2;-1;0;-1747;876;3614;2;0.5401662;-0.7006654;-0.3642659;0.2908587;0;4;-1;3569;2204;-557;8;0.02770083;-0.71184;0.1786704;0.6786703;0;6;0;825;1067;3891;0.6409407;1.630388;1.55618;0.6408631;1.623339;1.010678;0.6407727;1.61512;0.5312089;0.6479748;1.736393;-0.1924645;0.3907062;1.768088;-0.520422;0.05231678;1.827311;-0.3716793;-0.01557996;0.9408617;-0.1110508;0;0;0;0.9101348;1.737238;-0.5204254;1.200862;1.759098;-0.371685;1.411656;0.8386052;-0.1805468;1.503983;-0.09018576;-0.01741862;0.329108;1.626743;1.601778;0.7698097;0.8845577;2.783219;0.9516885;0.5453966;4.073266;0.329108;1.626743;1.601778;0.7698097;0.8845577;2.783219;0.9516885;0.5453966;4.073266
56552.3773;NotLabelled;16384;-0.1135734;0.3199446;-0.6762848;-0.6537396;0;2;0;-1210;3932;-259;65536;0.134349;-0.2160665;0.6745152;0.6930331;1;5;2;520;4035;250;8192;0.6467551;-0.602493;0.2119114;0.4168975;0;-7;0;1116;3849;-451;32768;0.5775623;-0.6082998;0.3102493;0.4473684;-2;-11;0;-443;4039;566;256;0.6412742;-0.07617728;-0.7622336;-0.04432133;-1;0;0;261;708;3951;128;-0.6204986;0.08448754;0.7745875;0.08864266;1;0;-1;-145;1103;-4012;4;0.3144044;0.368421;-0.5318559;-0.6946546;0;-1;0;-3399;1982;-936;16;0.232687;-0.7136648;-0.06094183;0.6578947;-2;-1;0;-1747;876;3614;2;0.5401662;-0.7006654;-0.3642659;0.2908587;0;4;-1;3569;2204;-557;8;0.02770083;-0.71184;0.1786704;0.6786703;0;6;0;825;1067;3891;0.6409407;1.630388;1.55618;0.6408631;1.623339;1.010678;0.6407727;1.61512;0.5312089;0.6479748;1.736393;-0.1924645;0.3907062;1.768088;-0.520422;0.05231678;1.827311;-0.3716793;-0.01557996;0.9408617;-0.1110508;0;0;0;0.9101348;1.737238;-0.5204254;1.200862;1.759098;-0.371685;1.411656;0.8386052;-0.1805468;1.503983;-0.09018576;-0.01741862;0.329108;1.626743;1.601778;0.7698097;0.8845577;2.783219;0.9516885;0.5453966;4.073266;0.329108;1.626743;1.601778;0.7698097;0.8845577;2.783219;0.9516885;0.5453966;4.073266
56592.7068;NotLabelled;16384;-0.1135734;0.3199446;-0.6762848;-0.6537396;0;2;0;-1210;3932;-259;65536;0.134349;-0.2160665;0.6745152;0.6930331;1;5;2;520;4035;250;8192;0.6467551;-0.602493;0.2119114;0.4168975;0;-7;0;1116;3849;-451;32768;0.5775623;-0.6082998;0.3102493;0.4473684;-2;-11;0;-443;4039;566;256;0.6412742;-0.07617728;-0.7622336;-0.04432133;-1;0;0;261;708;3951;128;-0.6204986;0.08448754;0.7745875;0.08864266;1;0;-1;-145;1103;-4012;4;0.3144044;0.368421;-0.5318559;-0.6946546;0;-1;0;-3399;1982;-936;16;0.232687;-0.7136648;-0.06094183;0.6578947;-2;-1;0;-1747;876;3614;2;0.5401662;-0.7006654;-0.3642659;0.2908587;0;4;-1;3569;2204;-557;8;0.02770083;-0.71184;0.1786704;0.6786703;0;6;0;825;1067;3891;0.6409407;1.630388;1.55618;0.6408631;1.623339;1.010678;0.6407727;1.61512;0.5312089;0.6479748;1.736393;-0.1924645;0.3907062;1.768088;-0.520422;0.05231678;1.827311;-0.3716793;-0.01557996;0.9408617;-0.1110508;0;0;0;0.9101348;1.737238;-0.5204254;1.200862;1.759098;-0.371685;1.411656;0.8386052;-0.1805468;1.503983;-0.09018576;-0.01741862;0.329108;1.626743;1.601778;0.7698097;0.8845577;2.783219;0.9516885;0.5453966;4.073266;0.329108;1.626743;1.601778;0.7698097;0.8845577;2.783219;0.9516885;0.5453966;4.073266
56612.6944;NotLabelled;16384;-0.1135734;0.3199446;-0.6762848;-0.6537396;0;2;0;-1210;3932;-259;65536;0.134349;-0.2160665;0.6745152;0.6930331;1;5;2;520;4035;250;8192;0.6467551;-0.602493;0.2119114;0.4168975;0;-7;0;1116;3849;-451;32768;0.5775623;-0.6082998;0.3102493;0.4473684;-2;-11;0;-443;4039;566;256;0.6412742;-0.07617728;-0.7622336;-0.04432133;-1;0;0;261;708;3951;128;-0.6204986;0.08448754;0.7745875;0.08864266;1;0;-1;-145;1103;-4012;4;0.3144044;0.368421;-0.5318559;-0.6946546;0;-1;0;-3399;1982;-936;16;0.232687;-0.7136648;-0.06094183;0.6578947;-2;-1;0;-1747;876;3614;2;0.5401662;-0.7006654;-0.3642659;0.2908587;0;4;-1;3569;2204;-557;8;0.02770083;-0.71184;0.1786704;0.6786703;0;6;0;825;1067;3891;0.6409407;1.630388;1.55618;0.6408631;1.623339;1.010678;0.6407727;1.61512;0.5312089;0.6479748;1.736393;-0.1924645;0.3907062;1.768088;-0.520422;0.05231678;1.827311;-0.3716793;-0.01557996;0.9408617;-0.1110508;0;0;0;0.9101348;1.737238;-0.5204254;1.200862;1.759098;-0.371685;1.411656;0.8386052;-0.1805468;1.503983;-0.09018576;-0.01741862;0.329108;1.626743;1.601778;0.7698097;0.8845577;2.783219;0.9516885;0.5453966;4.073266;0.329108;1.626743;1.601778;0.7698097;0.8845577;2.783219;0.9516885;0.5453966;4.073266
56633.4805;NotLabelled;16384;-0.1135734;0.3199446;-0.6762848;-0.6537396;0;2;0;-1210;3932;-259;65536;0.134349;-0.2160665;0.6745152;0.6930331;1;5;2;520;4035;250;8192;0.6467551;-0.602493;0.2119114;0.4168975;0;-7;0;1116;3849;-451;32768;0.5775623;-0.6082998;0.3102493;0.4473684;-2;-11;0;-443;4039;566;256;0.6412742;-0.07617728;-0.7622336;-0.04432133;-1;0;0;261;708;3951;128;-0.6204986;0.08448754;0.7745875;0.08864266;1;0;-1;-145;1103;-4012;4;0.3144044;0.368421;-0.5318559;-0.6946546;0;-1;0;-3399;1982;-936;16;0.232687;-0.7136648;-0.06094183;0.6578947;-2;-1;0;-1747;876;3614;2;0.5401662;-0.7006654;-0.3642659;0.2908587;0;4;-1;3569;2204;-557;8;0.02770083;-0.71184;0.1786704;0.6786703;0;6;0;825;1067;3891;0.6409407;1.630388;1.55618;0.6408631;1.623339;1.010678;0.6407727;1.61512;0.5312089;0.6479748;1.736393;-0.1924645;0.3907062;1.768088;-0.520422;0.05231678;1.827311;-0.3716793;-0.01557996;0.9408617;-0.1110508;0;0;0;0.9101348;1.737238;-0.5204254;1.200862;1.759098;-0.371685;1.411656;0.8386052;-0.1805468;1.503983;-0.09018576;-0.01741862;0.329108;1.626743;1.601778;0.7698097;0.8845577;2.783219;0.9516885;0.5453966;4.073266;0.329108;1.626743;1.601778;0.7698097;0.8845577;2.783219;0.9516885;0.5453966;4.073266
56653.4545;NotLabelled;16384;-0.1135734;0.3199446;-0.6762848;-0.6537396;0;2;0;-1210;3932;-259;65536;0.134349;-0.2160665;0.6745152;0.6930331;1;5;2;520;4035;250;8192;0.6467551;-0.602493;0.2119114;0.4168975;0;-7;0;1116;3849;-451;32768;0.5775623;-0.6082998;0.3102493;0.4473684;-2;-11;0;-443;4039;566;256;0.6412742;-0.07617728;-0.7622336;-0.04432133;-1;0;0;261;708;3951;128;-0.6204986;0.08448754;0.7745875;0.08864266;1;0;-1;-145;1103;-4012;4;0.3144044;0.368421;-0.5318559;-0.6946546;0;-1;0;-3399;1982;-936;16;0.232687;-0.7136648;-0.06094183;0.6578947;-2;-1;0;-1747;876;3614;2;0.5401662;-0.7006654;-0.3642659;0.2908587;0;4;-1;3569;2204;-557;8;0.02770083;-0.71184;0.1786704;0.6786703;0;6;0;825;1067;3891;0.6409407;1.630388;1.55618;0.6408631;1.623339;1.010678;0.6407727;1.61512;0.5312089;0.6479748;1.736393;-0.1924645;0.3907062;1.768088;-0.520422;0.05231678;1.827311;-0.3716793;-0.01557996;0.9408617;-0.1110508;0;0;0;0.9101348;1.737238;-0.5204254;1.200862;1.759098;-0.371685;1.411656;0.8386052;-0.1805468;1.503983;-0.09018576;-0.01741862;0.329108;1.626743;1.601778;0.7698097;0.8845577;2.783219;0.9516885;0.5453966;4.073266;0.329108;1.626743;1.601778;0.7698097;0.8845577;2.783219;0.9516885;0.5453966;4.073266
56674.3992;NotLabelled;16384;-0.1135734;0.3199446;-0.6762848;-0.6537396;0;2;0;-1210;3932;-259;65536;0.134349;-0.2160665;0.6745152;0.6930331;1;5;2;520;4035;250;8192;0.6467551;-0.602493;0.2119114;0.4168975;0;-7;0;1116;3849;-451;32768;0.5775623;-0.6082998;0.3102493;0.4473684;-2;-11;0;-443;4039;566;256;0.6412742;-0.07617728;-0.7622336;-0.04432133;-1;0;0;261;708;3951;128;-0.6204986;0.08448754;0.7745875;0.08864266;1;0;-1;-145;1103;-4012;4;0.3144044;0.368421;-0.5318559;-0.6946546;0;-1;0;-3399;1982;-936;16;0.232687;-0.7136648;-0.06094183;0.6578947;-2;-1;0;-1747;876;3614;2;0.5401662;-0.7006654;-0.3642659;0.2908587;0;4;-1;3569;2204;-557;8;0.02770083;-0.71184;0.1786704;0.6786703;0;6;0;825;1067;3891;0.6409407;1.630388;1.55618;0.6408631;1.623339;1.010678;0.6407727;1.61512;0.5312089;0.6479748;1.736393;-0.1924645;0.3907062;1.768088;-0.520422;0.05231678;1.827311;-0.3716793;-0.01557996;0.9408617;-0.1110508;0;0;0;0.9101348;1.737238;-0.5204254;1.200862;1.759098;-0.371685;1.411656;0.8386052;-0.1805468;1.503983;-0.09018576;-0.01741862;0.329108;1.626743;1.601778;0.7698097;0.8845577;2.783219;0.9516885;0.5453966;4.073266;0.329108;1.626743;1.601778;0.7698097;0.8845577;2.783219;0.9516885;0.5453966;4.073266
56694.7076;NotLabelled;16384;-0.1135734;0.3199446;-0.6762848;-0.6537396;0;2;0;-1210;3932;-259;65536;0.134349;-0.2160665;0.6745152;0.6930331;1;5;2;520;4035;250;8192;0.6467551;-0.602493;0.2119114;0.4168975;0;-7;0;1116;3849;-451;32768;0.5775623;-0.6082998;0.3102493;0.4473684;-2;-11;0;-443;4039;566;256;0.6412742;-0.07617728;-0.7622336;-0.04432133;-1;0;0;261;708;3951;128;-0.6204986;0.08448754;0.7745875;0.08864266;1;0;-1;-145;1103;-4012;4;0.3144044;0.368421;-0.5318559;-0.6946546;0;-1;0;-3399;1982;-936;16;0.232687;-0.7136648;-0.06094183;0.6578947;-2;-1;0;-1747;876;3614;2;0.5401662;-0.7006654;-0.3642659;0.2908587;0;4;-1;3569;2204;-557;8;0.02770083;-0.71184;0.1786704;0.6786703;0;6;0;825;1067;3891;0.6409407;1.630388;1.55618;0.6408631;1.623339;1.010678;0.6407727;1.61512;0.5312089;0.6479748;1.736393;-0.1924645;0.3907062;1.768088;-0.520422;0.05231678;1.827311;-0.3716793;-0.01557996;0.9408617;-0.1110508;0;0;0;0.9101348;1.737238;-0.5204254;1.200862;1.759098;-0.371685;1.411656;0.8386052;-0.1805468;1.503983;-0.09018576;-0.01741862;0.329108;1.626743;1.601778;0.7698097;0.8845577;2.783219;0.9516885;0.5453966;4.073266;0.329108;1.626743;1.601778;0.7698097;0.8845577;2.783219;0.9516885;0.5453966;4.073266
56715.4189;NotLabelled;16384;-0.1135734;0.3199446;-0.6762848;-0.6537396;0;2;0;-1210;3932;-259;65536;0.134349;-0.2160665;0.6745152;0.6930331;1;5;2;520;4035;250;8192;0.6467551;-0.602493;0.2119114;0.4168975;0;-7;0;1116;3849;-451;32768;0.5775623;-0.6082998;0.3102493;0.4473684;-2;-11;0;-443;4039;566;256;0.6412742;-0.07617728;-0.7622336;-0.04432133;-1;0;0;261;708;3951;128;-0.6204986;0.08448754;0.7745875;0.08864266;1;0;-1;-145;1103;-4012;4;0.3144044;0.368421;-0.5318559;-0.6946546;0;-1;0;-3399;1982;-936;16;0.232687;-0.7136648;-0.06094183;0.6578947;-2;-1;0;-1747;876;3614;2;0.5401662;-0.7006654;-0.3642659;0.2908587;0;4;-1;3569;2204;-557;8;0.02770083;-0.71184;0.1786704;0.6786703;0;6;0;825;1067;3891;0.6409407;1.630388;1.55618;0.6408631;1.623339;1.010678;0.6407727;1.61512;0.5312089;0.6479748;1.736393;-0.1924645;0.3907062;1.768088;-0.520422;0.05231678;1.827311;-0.3716793;-0.01557996;0.9408617;-0.1110508;0;0;0;0.9101348;1.737238;-0.5204254;1.200862;1.759098;-0.371685;1.411656;0.8386052;-0.1805468;1.503983;-0.09018576;-0.01741862;0.329108;1.626743;1.601778;0.7698097;0.8845577;2.783219;0.9516885;0.5453966;4.073266;0.329108;1.626743;1.601778;0.7698097;0.8845577;2.783219;0.9516885;0.5453966;4.073266
56735.4537;NotLabelled;16384;-0.1135734;0.3199446;-0.6762848;-0.6537396;0;2;0;-1210;3932;-259;65536;0.134349;-0.2160665;0.6745152;0.6930331;1;5;2;520;4035;250;8192;0.6467551;-0.602493;0.2119114;0.4168975;0;-7;0;1116;3849;-451;32768;0.5775623;-0.6082998;0.3102493;0.4473684;-2;-11;0;-443;4039;566;256;0.6412742;-0.07617728;-0.7622336;-0.04432133;-1;0;0;261;708;3951;128;-0.6204986;0.08448754;0.7745875;0.08864266;1;0;-1;-145;1103;-4012;4;0.3144044;0.368421;-0.5318559;-0.6946546;0;-1;0;-3399;1982;-936;16;0.232687;-0.7136648;-0.06094183;0.6578947;-2;-1;0;-1747;876;3614;2;0.5401662;-0.7006654;-0.3642659;0.2908587;0;4;-1;3569;2204;-557;8;0.02770083;-0.71184;0.1786704;0.6786703;0;6;0;825;1067;3891;0.6409407;1.630388;1.55618;0.6408631;1.623339;1.010678;0.6407727;1.61512;0.5312089;0.6479748;1.736393;-0.1924645;0.3907062;1.768088;-0.520422;0.05231678;1.827311;-0.3716793;-0.01557996;0.9408617;-0.1110508;0;0;0;0.9101348;1.737238;-0.5204254;1.200862;1.759098;-0.371685;1.411656;0.8386052;-0.1805468;1.503983;-0.09018576;-0.01741862;0.329108;1.626743;1.601778;0.7698097;0.8845577;2.783219;0.9516885;0.5453966;4.073266;0.329108;1.626743;1.601778;0.7698097;0.8845577;2.783219;0.9516885;0.5453966;4.073266
56755.3822;NotLabelled;16384;-0.1135734;0.3199446;-0.6762848;-0.6537396;0;2;0;-1210;3932;-259;65536;0.134349;-0.2160665;0.6745152;0.6930331;1;5;2;520;4035;250;8192;0.6467551;-0.602493;0.2119114;0.4168975;0;-7;0;1116;3849;-451;32768;0.5775623;-0.6082998;0.3102493;0.4473684;-2;-11;0;-443;4039;566;256;0.6412742;-0.07617728;-0.7622336;-0.04432133;-1;0;0;261;708;3951;128;-0.6204986;0.08448754;0.7745875;0.08864266;1;0;-1;-145;1103;-4012;4;0.3144044;0.368421;-0.5318559;-0.6946546;0;-1;0;-3399;1982;-936;16;0.232687;-0.7136648;-0.06094183;0.6578947;-2;-1;0;-1747;876;3614;2;0.5401662;-0.7006654;-0.3642659;0.2908587;0;4;-1;3569;2204;-557;8;0.02770083;-0.71184;0.1786704;0.6786703;0;6;0;825;1067;3891;0.6409407;1.630388;1.55618;0.6408631;1.623339;1.010678;0.6407727;1.61512;0.5312089;0.6479748;1.736393;-0.1924645;0.3907062;1.768088;-0.520422;0.05231678;1.827311;-0.3716793;-0.01557996;0.9408617;-0.1110508;0;0;0;0.9101348;1.737238;-0.5204254;1.200862;1.759098;-0.371685;1.411656;0.8386052;-0.1805468;1.503983;-0.09018576;-0.01741862;0.329108;1.626743;1.601778;0.7698097;0.8845577;2.783219;0.9516885;0.5453966;4.073266;0.329108;1.626743;1.601778;0.7698097;0.8845577;2.783219;0.9516885;0.5453966;4.073266
56776.8402;NotLabelled;16384;-0.1135734;0.3199446;-0.6762848;-0.6537396;0;2;0;-1210;3932;-259;65536;0.134349;-0.2160665;0.6745152;0.6930331;1;5;2;520;4035;250;8192;0.6467551;-0.602493;0.2119114;0.4168975;0;-7;0;1116;3849;-451;32768;0.5775623;-0.6082998;0.3102493;0.4473684;-2;-11;0;-443;4039;566;256;0.6412742;-0.07617728;-0.7622336;-0.04432133;-1;0;0;261;708;3951;128;-0.6204986;0.08448754;0.7745875;0.08864266;1;0;-1;-145;1103;-4012;4;0.3144044;0.368421;-0.5318559;-0.6946546;0;-1;0;-3399;1982;-936;16;0.232687;-0.7136648;-0.06094183;0.6578947;-2;-1;0;-1747;876;3614;2;0.5401662;-0.7006654;-0.3642659;0.2908587;0;4;-1;3569;2204;-557;8;0.02770083;-0.71184;0.1786704;0.6786703;0;6;0;825;1067;3891;0.6409407;1.630388;1.55618;0.6408631;1.623339;1.010678;0.6407727;1.61512;0.5312089;0.6479748;1.736393;-0.1924645;0.3907062;1.768088;-0.520422;0.05231678;1.827311;-0.3716793;-0.01557996;0.9408617;-0.1110508;0;0;0;0.9101348;1.737238;-0.5204254;1.200862;1.759098;-0.371685;1.411656;0.8386052;-0.1805468;1.503983;-0.09018576;-0.01741862;0.329108;1.626743;1.601778;0.7698097;0.8845577;2.783219;0.9516885;0.5453966;4.073266;0.329108;1.626743;1.601778;0.7698097;0.8845577;2.783219;0.9516885;0.5453966;4.073266
56796.4658;NotLabelled;16384;-0.1135734;0.3199446;-0.6762848;-0.6537396;0;2;0;-1210;3932;-259;65536;0.134349;-0.2160665;0.6745152;0.6930331;1;5;2;520;4035;250;8192;0.6467551;-0.602493;0.2119114;0.4168975;0;-7;0;1116;3849;-451;32768;0.5775623;-0.6082998;0.3102493;0.4473684;-2;-11;0;-443;4039;566;256;0.6412742;-0.07617728;-0.7622336;-0.04432133;-1;0;0;261;708;3951;128;-0.6204986;0.08448754;0.7745875;0.08864266;1;0;-1;-145;1103;-4012;4;0.3144044;0.368421;-0.5318559;-0.6946546;0;-1;0;-3399;1982;-936;16;0.232687;-0.7136648;-0.06094183;0.6578947;-2;-1;0;-1747;876;3614;2;0.5401662;-0.7006654;-0.3642659;0.2908587;0;4;-1;3569;2204;-557;8;0.02770083;-0.71184;0.1786704;0.6786703;0;6;0;825;1067;3891;0.6409407;1.630388;1.55618;0.6408631;1.623339;1.010678;0.6407727;1.61512;0.5312089;0.6479748;1.736393;-0.1924645;0.3907062;1.768088;-0.520422;0.05231678;1.827311;-0.3716793;-0.01557996;0.9408617;-0.1110508;0;0;0;0.9101348;1.737238;-0.5204254;1.200862;1.759098;-0.371685;1.411656;0.8386052;-0.1805468;1.503983;-0.09018576;-0.01741862;0.329108;1.626743;1.601778;0.7698097;0.8845577;2.783219;0.9516885;0.5453966;4.073266;0.329108;1.626743;1.601778;0.7698097;0.8845577;2.783219;0.9516885;0.5453966;4.073266
56817.3594;NotLabelled;16384;-0.1135734;0.3199446;-0.6762848;-0.6537396;0;2;0;-1210;3932;-259;65536;0.134349;-0.2160665;0.6745152;0.6930331;1;5;2;520;4035;250;8192;0.6467551;-0.602493;0.2119114;0.4168975;0;-7;0;1116;3849;-451;32768;0.5775623;-0.6082998;0.3102493;0.4473684;-2;-11;0;-443;4039;566;256;0.6412742;-0.07617728;-0.7622336;-0.04432133;-1;0;0;261;708;3951;128;-0.6204986;0.08448754;0.7745875;0.08864266;1;0;-1;-145;1103;-4012;4;0.3144044;0.368421;-0.5318559;-0.6946546;0;-1;0;-3399;1982;-936;16;0.232687;-0.7136648;-0.06094183;0.6578947;-2;-1;0;-1747;876;3614;2;0.5401662;-0.7006654;-0.3642659;0.2908587;0;4;-1;3569;2204;-557;8;0.02770083;-0.71184;0.1786704;0.6786703;0;6;0;825;1067;3891;0.6409407;1.630388;1.55618;0.6408631;1.623339;1.010678;0.6407727;1.61512;0.5312089;0.6479748;1.736393;-0.1924645;0.3907062;1.768088;-0.520422;0.05231678;1.827311;-0.3716793;-0.01557996;0.9408617;-0.1110508;0;0;0;0.9101348;1.737238;-0.5204254;1.200862;1.759098;-0.371685;1.411656;0.8386052;-0.1805468;1.503983;-0.09018576;-0.01741862;0.329108;1.626743;1.601778;0.7698097;0.8845577;2.783219;0.9516885;0.5453966;4.073266;0.329108;1.626743;1.601778;0.7698097;0.8845577;2.783219;0.9516885;0.5453966;4.073266
56837.4088;NotLabelled;16384;-0.1135734;0.3199446;-0.6762848;-0.6537396;0;2;0;-1210;3932;-259;65536;0.134349;-0.2160665;0.6745152;0.6930331;1;5;2;520;4035;250;8192;0.6467551;-0.602493;0.2119114;0.4168975;0;-7;0;1116;3849;-451;32768;0.5775623;-0.6082998;0.3102493;0.4473684;-2;-11;0;-443;4039;566;256;0.6412742;-0.07617728;-0.7622336;-0.04432133;-1;0;0;261;708;3951;128;-0.6204986;0.08448754;0.7745875;0.08864266;1;0;-1;-145;1103;-4012;4;0.3144044;0.368421;-0.5318559;-0.6946546;0;-1;0;-3399;1982;-936;16;0.232687;-0.7136648;-0.06094183;0.6578947;-2;-1;0;-1747;876;3614;2;0.5401662;-0.7006654;-0.3642659;0.2908587;0;4;-1;3569;2204;-557;8;0.02770083;-0.71184;0.1786704;0.6786703;0;6;0;825;1067;3891;0.6409407;1.630388;1.55618;0.6408631;1.623339;1.010678;0.6407727;1.61512;0.5312089;0.6479748;1.736393;-0.1924645;0.3907062;1.768088;-0.520422;0.05231678;1.827311;-0.3716793;-0.01557996;0.9408617;-0.1110508;0;0;0;0.9101348;1.737238;-0.5204254;1.200862;1.759098;-0.371685;1.411656;0.8386052;-0.1805468;1.503983;-0.09018576;-0.01741862;0.329108;1.626743;1.601778;0.7698097;0.8845577;2.783219;0.9516885;0.5453966;4.073266;0.329108;1.626743;1.601778;0.7698097;0.8845577;2.783219;0.9516885;0.5453966;4.073266
56858.3445;NotLabelled;16384;-0.1135734;0.3199446;-0.6762848;-0.6537396;0;2;0;-1210;3932;-259;65536;0.134349;-0.2160665;0.6745152;0.6930331;1;5;2;520;4035;250;8192;0.6467551;-0.602493;0.2119114;0.4168975;0;-7;0;1116;3849;-451;32768;0.5775623;-0.6082998;0.3102493;0.4473684;-2;-11;0;-443;4039;566;256;0.6412742;-0.07617728;-0.7622336;-0.04432133;-1;0;0;261;708;3951;128;-0.6204986;0.08448754;0.7745875;0.08864266;1;0;-1;-145;1103;-4012;4;0.3144044;0.368421;-0.5318559;-0.6946546;0;-1;0;-3399;1982;-936;16;0.232687;-0.7136648;-0.06094183;0.6578947;-2;-1;0;-1747;876;3614;2;0.5401662;-0.7006654;-0.3642659;0.2908587;0;4;-1;3569;2204;-557;8;0.02770083;-0.71184;0.1786704;0.6786703;0;6;0;825;1067;3891;0.6409407;1.630388;1.55618;0.6408631;1.623339;1.010678;0.6407727;1.61512;0.5312089;0.6479748;1.736393;-0.1924645;0.3907062;1.768088;-0.520422;0.05231678;1.827311;-0.3716793;-0.01557996;0.9408617;-0.1110508;0;0;0;0.9101348;1.737238;-0.5204254;1.200862;1.759098;-0.371685;1.411656;0.8386052;-0.1805468;1.503983;-0.09018576;-0.01741862;0.329108;1.626743;1.601778;0.7698097;0.8845577;2.783219;0.9516885;0.5453966;4.073266;0.329108;1.626743;1.601778;0.7698097;0.8845577;2.783219;0.9516885;0.5453966;4.073266
56878.4047;NotLabelled;16384;-0.1135734;0.3199446;-0.6762848;-0.6537396;0;2;0;-1210;3932;-259;65536;0.134349;-0.2160665;0.6745152;0.6930331;1;5;2;520;4035;250;8192;0.6467551;-0.602493;0.2119114;0.4168975;0;-7;0;1116;3849;-451;32768;0.5775623;-0.6082998;0.3102493;0.4473684;-2;-11;0;-443;4039;566;256;0.6412742;-0.07617728;-0.7622336;-0.04432133;-1;0;0;261;708;3951;128;-0.6204986;0.08448754;0.7745875;0.08864266;1;0;-1;-145;1103;-4012;4;0.3144044;0.368421;-0.5318559;-0.6946546;0;-1;0;-3399;1982;-936;16;0.232687;-0.7136648;-0.06094183;0.6578947;-2;-1;0;-1747;876;3614;2;0.5401662;-0.7006654;-0.3642659;0.2908587;0;4;-1;3569;2204;-557;8;0.02770083;-0.71184;0.1786704;0.6786703;0;6;0;825;1067;3891;0.6409407;1.630388;1.55618;0.6408631;1.623339;1.010678;0.6407727;1.61512;0.5312089;0.6479748;1.736393;-0.1924645;0.3907062;1.768088;-0.520422;0.05231678;1.827311;-0.3716793;-0.01557996;0.9408617;-0.1110508;0;0;0;0.9101348;1.737238;-0.5204254;1.200862;1.759098;-0.371685;1.411656;0.8386052;-0.1805468;1.503983;-0.09018576;-0.01741862;0.329108;1.626743;1.601778;0.7698097;0.8845577;2.783219;0.9516885;0.5453966;4.073266;0.329108;1.626743;1.601778;0.7698097;0.8845577;2.783219;0.9516885;0.5453966;4.073266
56899.4335;NotLabelled;16384;-0.1135734;0.3199446;-0.6762848;-0.6537396;0;2;0;-1210;3932;-259;65536;0.134349;-0.2160665;0.6745152;0.6930331;1;5;2;520;4035;250;8192;0.6467551;-0.602493;0.2119114;0.4168975;0;-7;0;1116;3849;-451;32768;0.5775623;-0.6082998;0.3102493;0.4473684;-2;-11;0;-443;4039;566;256;0.6412742;-0.07617728;-0.7622336;-0.04432133;-1;0;0;261;708;3951;128;-0.6204986;0.08448754;0.7745875;0.08864266;1;0;-1;-145;1103;-4012;4;0.3144044;0.368421;-0.5318559;-0.6946546;0;-1;0;-3399;1982;-936;16;0.232687;-0.7136648;-0.06094183;0.6578947;-2;-1;0;-1747;876;3614;2;0.5401662;-0.7006654;-0.3642659;0.2908587;0;4;-1;3569;2204;-557;8;0.02770083;-0.71184;0.1786704;0.6786703;0;6;0;825;1067;3891;0.6409407;1.630388;1.55618;0.6408631;1.623339;1.010678;0.6407727;1.61512;0.5312089;0.6479748;1.736393;-0.1924645;0.3907062;1.768088;-0.520422;0.05231678;1.827311;-0.3716793;-0.01557996;0.9408617;-0.1110508;0;0;0;0.9101348;1.737238;-0.5204254;1.200862;1.759098;-0.371685;1.411656;0.8386052;-0.1805468;1.503983;-0.09018576;-0.01741862;0.329108;1.626743;1.601778;0.7698097;0.8845577;2.783219;0.9516885;0.5453966;4.073266;0.329108;1.626743;1.601778;0.7698097;0.8845577;2.783219;0.9516885;0.5453966;4.073266
56919.3599;NotLabelled;16384;-0.1135734;0.3199446;-0.6762848;-0.6537396;0;2;0;-1210;3932;-259;65536;0.134349;-0.2160665;0.6745152;0.6930331;1;5;2;520;4035;250;8192;0.6467551;-0.602493;0.2119114;0.4168975;0;-7;0;1116;3849;-451;32768;0.5775623;-0.6082998;0.3102493;0.4473684;-2;-11;0;-443;4039;566;256;0.6412742;-0.07617728;-0.7622336;-0.04432133;-1;0;0;261;708;3951;128;-0.6204986;0.08448754;0.7745875;0.08864266;1;0;-1;-145;1103;-4012;4;0.3144044;0.368421;-0.5318559;-0.6946546;0;-1;0;-3399;1982;-936;16;0.232687;-0.7136648;-0.06094183;0.6578947;-2;-1;0;-1747;876;3614;2;0.5401662;-0.7006654;-0.3642659;0.2908587;0;4;-1;3569;2204;-557;8;0.02770083;-0.71184;0.1786704;0.6786703;0;6;0;825;1067;3891;0.6409407;1.630388;1.55618;0.6408631;1.623339;1.010678;0.6407727;1.61512;0.5312089;0.6479748;1.736393;-0.1924645;0.3907062;1.768088;-0.520422;0.05231678;1.827311;-0.3716793;-0.01557996;0.9408617;-0.1110508;0;0;0;0.9101348;1.737238;-0.5204254;1.200862;1.759098;-0.371685;1.411656;0.8386052;-0.1805468;1.503983;-0.09018576;-0.01741862;0.329108;1.626743;1.601778;0.7698097;0.8845577;2.783219;0.9516885;0.5453966;4.073266;0.329108;1.626743;1.601778;0.7698097;0.8845577;2.783219;0.9516885;0.5453966;4.073266
56939.5755;NotLabelled;16384;-0.1135734;0.3199446;-0.6762848;-0.6537396;0;2;0;-1210;3932;-259;65536;0.134349;-0.2160665;0.6745152;0.6930331;1;5;2;520;4035;250;8192;0.6467551;-0.602493;0.2119114;0.4168975;0;-7;0;1116;3849;-451;32768;0.5775623;-0.6082998;0.3102493;0.4473684;-2;-11;0;-443;4039;566;256;0.6412742;-0.07617728;-0.7622336;-0.04432133;-1;0;0;261;708;3951;128;-0.6204986;0.08448754;0.7745875;0.08864266;1;0;-1;-145;1103;-4012;4;0.3144044;0.368421;-0.5318559;-0.6946546;0;-1;0;-3399;1982;-936;16;0.232687;-0.7136648;-0.06094183;0.6578947;-2;-1;0;-1747;876;3614;2;0.5401662;-0.7006654;-0.3642659;0.2908587;0;4;-1;3569;2204;-557;8;0.02770083;-0.71184;0.1786704;0.6786703;0;6;0;825;1067;3891;0.6409407;1.630388;1.55618;0.6408631;1.623339;1.010678;0.6407727;1.61512;0.5312089;0.6479748;1.736393;-0.1924645;0.3907062;1.768088;-0.520422;0.05231678;1.827311;-0.3716793;-0.01557996;0.9408617;-0.1110508;0;0;0;0.9101348;1.737238;-0.5204254;1.200862;1.759098;-0.371685;1.411656;0.8386052;-0.1805468;1.503983;-0.09018576;-0.01741862;0.329108;1.626743;1.601778;0.7698097;0.8845577;2.783219;0.9516885;0.5453966;4.073266;0.329108;1.626743;1.601778;0.7698097;0.8845577;2.783219;0.9516885;0.5453966;4.073266
56961.5304;NotLabelled;16384;-0.1135734;0.3199446;-0.6762848;-0.6537396;0;2;0;-1210;3932;-259;65536;0.134349;-0.2160665;0.6745152;0.6930331;1;5;2;520;4035;250;8192;0.6467551;-0.602493;0.2119114;0.4168975;0;-7;0;1116;3849;-451;32768;0.5775623;-0.6082998;0.3102493;0.4473684;-2;-11;0;-443;4039;566;256;0.6412742;-0.07617728;-0.7622336;-0.04432133;-1;0;0;261;708;3951;128;-0.6204986;0.08448754;0.7745875;0.08864266;1;0;-1;-145;1103;-4012;4;0.3144044;0.368421;-0.5318559;-0.6946546;0;-1;0;-3399;1982;-936;16;0.232687;-0.7136648;-0.06094183;0.6578947;-2;-1;0;-1747;876;3614;2;0.5401662;-0.7006654;-0.3642659;0.2908587;0;4;-1;3569;2204;-557;8;0.02770083;-0.71184;0.1786704;0.6786703;0;6;0;825;1067;3891;0.6409407;1.630388;1.55618;0.6408631;1.623339;1.010678;0.6407727;1.61512;0.5312089;0.6479748;1.736393;-0.1924645;0.3907062;1.768088;-0.520422;0.05231678;1.827311;-0.3716793;-0.01557996;0.9408617;-0.1110508;0;0;0;0.9101348;1.737238;-0.5204254;1.200862;1.759098;-0.371685;1.411656;0.8386052;-0.1805468;1.503983;-0.09018576;-0.01741862;0.329108;1.626743;1.601778;0.7698097;0.8845577;2.783219;0.9516885;0.5453966;4.073266;0.329108;1.626743;1.601778;0.7698097;0.8845577;2.783219;0.9516885;0.5453966;4.073266
56982.4439;NotLabelled;16384;-0.1135734;0.3199446;-0.6762848;-0.6537396;0;2;0;-1210;3932;-259;65536;0.134349;-0.2160665;0.6745152;0.6930331;1;5;2;520;4035;250;8192;0.6467551;-0.602493;0.2119114;0.4168975;0;-7;0;1116;3849;-451;32768;0.5775623;-0.6082998;0.3102493;0.4473684;-2;-11;0;-443;4039;566;256;0.6412742;-0.07617728;-0.7622336;-0.04432133;-1;0;0;261;708;3951;128;-0.6204986;0.08448754;0.7745875;0.08864266;1;0;-1;-145;1103;-4012;4;0.3144044;0.368421;-0.5318559;-0.6946546;0;-1;0;-3399;1982;-936;16;0.232687;-0.7136648;-0.06094183;0.6578947;-2;-1;0;-1747;876;3614;2;0.5401662;-0.7006654;-0.3642659;0.2908587;0;4;-1;3569;2204;-557;8;0.02770083;-0.71184;0.1786704;0.6786703;0;6;0;825;1067;3891;0.6409407;1.630388;1.55618;0.6408631;1.623339;1.010678;0.6407727;1.61512;0.5312089;0.6479748;1.736393;-0.1924645;0.3907062;1.768088;-0.520422;0.05231678;1.827311;-0.3716793;-0.01557996;0.9408617;-0.1110508;0;0;0;0.9101348;1.737238;-0.5204254;1.200862;1.759098;-0.371685;1.411656;0.8386052;-0.1805468;1.503983;-0.09018576;-0.01741862;0.329108;1.626743;1.601778;0.7698097;0.8845577;2.783219;0.9516885;0.5453966;4.073266;0.329108;1.626743;1.601778;0.7698097;0.8845577;2.783219;0.9516885;0.5453966;4.073266
57002.4665;NotLabelled;16384;-0.1135734;0.3199446;-0.6762848;-0.6537396;0;2;0;-1210;3932;-259;65536;0.134349;-0.2160665;0.6745152;0.6930331;1;5;2;520;4035;250;8192;0.6467551;-0.602493;0.2119114;0.4168975;0;-7;0;1116;3849;-451;32768;0.5775623;-0.6082998;0.3102493;0.4473684;-2;-11;0;-443;4039;566;256;0.6412742;-0.07617728;-0.7622336;-0.04432133;-1;0;0;261;708;3951;128;-0.6204986;0.08448754;0.7745875;0.08864266;1;0;-1;-145;1103;-4012;4;0.3144044;0.368421;-0.5318559;-0.6946546;0;-1;0;-3399;1982;-936;16;0.232687;-0.7136648;-0.06094183;0.6578947;-2;-1;0;-1747;876;3614;2;0.5401662;-0.7006654;-0.3642659;0.2908587;0;4;-1;3569;2204;-557;8;0.02770083;-0.71184;0.1786704;0.6786703;0;6;0;825;1067;3891;0.6409407;1.630388;1.55618;0.6408631;1.623339;1.010678;0.6407727;1.61512;0.5312089;0.6479748;1.736393;-0.1924645;0.3907062;1.768088;-0.520422;0.05231678;1.827311;-0.3716793;-0.01557996;0.9408617;-0.1110508;0;0;0;0.9101348;1.737238;-0.5204254;1.200862;1.759098;-0.371685;1.411656;0.8386052;-0.1805468;1.503983;-0.09018576;-0.01741862;0.329108;1.626743;1.601778;0.7698097;0.8845577;2.783219;0.9516885;0.5453966;4.073266;0.329108;1.626743;1.601778;0.7698097;0.8845577;2.783219;0.9516885;0.5453966;4.073266
57022.3588;NotLabelled;16384;-0.1135734;0.3199446;-0.6762848;-0.6537396;0;2;0;-1210;3932;-259;65536;0.134349;-0.2160665;0.6745152;0.6930331;1;5;2;520;4035;250;8192;0.6467551;-0.602493;0.2119114;0.4168975;0;-7;0;1116;3849;-451;32768;0.5775623;-0.6082998;0.3102493;0.4473684;-2;-11;0;-443;4039;566;256;0.6412742;-0.07617728;-0.7622336;-0.04432133;-1;0;0;261;708;3951;128;-0.6204986;0.08448754;0.7745875;0.08864266;1;0;-1;-145;1103;-4012;4;0.3144044;0.368421;-0.5318559;-0.6946546;0;-1;0;-3399;1982;-936;16;0.232687;-0.7136648;-0.06094183;0.6578947;-2;-1;0;-1747;876;3614;2;0.5401662;-0.7006654;-0.3642659;0.2908587;0;4;-1;3569;2204;-557;8;0.02770083;-0.71184;0.1786704;0.6786703;0;6;0;825;1067;3891;0.6409407;1.630388;1.55618;0.6408631;1.623339;1.010678;0.6407727;1.61512;0.5312089;0.6479748;1.736393;-0.1924645;0.3907062;1.768088;-0.520422;0.05231678;1.827311;-0.3716793;-0.01557996;0.9408617;-0.1110508;0;0;0;0.9101348;1.737238;-0.5204254;1.200862;1.759098;-0.371685;1.411656;0.8386052;-0.1805468;1.503983;-0.09018576;-0.01741862;0.329108;1.626743;1.601778;0.7698097;0.8845577;2.783219;0.9516885;0.5453966;4.073266;0.329108;1.626743;1.601778;0.7698097;0.8845577;2.783219;0.9516885;0.5453966;4.073266
57043.4566;NotLabelled;16384;-0.1135734;0.3199446;-0.6762848;-0.6537396;0;2;0;-1210;3932;-259;65536;0.134349;-0.2160665;0.6745152;0.6930331;1;5;2;520;4035;250;8192;0.6467551;-0.602493;0.2119114;0.4168975;0;-7;0;1116;3849;-451;32768;0.5775623;-0.6082998;0.3102493;0.4473684;-2;-11;0;-443;4039;566;256;0.6412742;-0.07617728;-0.7622336;-0.04432133;-1;0;0;261;708;3951;128;-0.6204986;0.08448754;0.7745875;0.08864266;1;0;-1;-145;1103;-4012;4;0.3144044;0.368421;-0.5318559;-0.6946546;0;-1;0;-3399;1982;-936;16;0.232687;-0.7136648;-0.06094183;0.6578947;-2;-1;0;-1747;876;3614;2;0.5401662;-0.7006654;-0.3642659;0.2908587;0;4;-1;3569;2204;-557;8;0.02770083;-0.71184;0.1786704;0.6786703;0;6;0;825;1067;3891;0.6409407;1.630388;1.55618;0.6408631;1.623339;1.010678;0.6407727;1.61512;0.5312089;0.6479748;1.736393;-0.1924645;0.3907062;1.768088;-0.520422;0.05231678;1.827311;-0.3716793;-0.01557996;0.9408617;-0.1110508;0;0;0;0.9101348;1.737238;-0.5204254;1.200862;1.759098;-0.371685;1.411656;0.8386052;-0.1805468;1.503983;-0.09018576;-0.01741862;0.329108;1.626743;1.601778;0.7698097;0.8845577;2.783219;0.9516885;0.5453966;4.073266;0.329108;1.626743;1.601778;0.7698097;0.8845577;2.783219;0.9516885;0.5453966;4.073266
57063.9445;NotLabelled;16384;-0.1135734;0.3199446;-0.6762848;-0.6537396;0;2;0;-1210;3932;-259;65536;0.134349;-0.2160665;0.6745152;0.6930331;1;5;2;520;4035;250;8192;0.6467551;-0.602493;0.2119114;0.4168975;0;-7;0;1116;3849;-451;32768;0.5775623;-0.6082998;0.3102493;0.4473684;-2;-11;0;-443;4039;566;256;0.6412742;-0.07617728;-0.7622336;-0.04432133;-1;0;0;261;708;3951;128;-0.6204986;0.08448754;0.7745875;0.08864266;1;0;-1;-145;1103;-4012;4;0.3144044;0.368421;-0.5318559;-0.6946546;0;-1;0;-3399;1982;-936;16;0.232687;-0.7136648;-0.06094183;0.6578947;-2;-1;0;-1747;876;3614;2;0.5401662;-0.7006654;-0.3642659;0.2908587;0;4;-1;3569;2204;-557;8;0.02770083;-0.71184;0.1786704;0.6786703;0;6;0;825;1067;3891;0.6409407;1.630388;1.55618;0.6408631;1.623339;1.010678;0.6407727;1.61512;0.5312089;0.6479748;1.736393;-0.1924645;0.3907062;1.768088;-0.520422;0.05231678;1.827311;-0.3716793;-0.01557996;0.9408617;-0.1110508;0;0;0;0.9101348;1.737238;-0.5204254;1.200862;1.759098;-0.371685;1.411656;0.8386052;-0.1805468;1.503983;-0.09018576;-0.01741862;0.329108;1.626743;1.601778;0.7698097;0.8845577;2.783219;0.9516885;0.5453966;4.073266;0.329108;1.626743;1.601778;0.7698097;0.8845577;2.783219;0.9516885;0.5453966;4.073266
57084.484;NotLabelled;16384;-0.1135734;0.3199446;-0.6762848;-0.6537396;0;2;0;-1210;3932;-259;65536;0.134349;-0.2160665;0.6745152;0.6930331;1;5;2;520;4035;250;8192;0.6467551;-0.602493;0.2119114;0.4168975;0;-7;0;1116;3849;-451;32768;0.5775623;-0.6082998;0.3102493;0.4473684;-2;-11;0;-443;4039;566;256;0.6412742;-0.07617728;-0.7622336;-0.04432133;-1;0;0;261;708;3951;128;-0.6204986;0.08448754;0.7745875;0.08864266;1;0;-1;-145;1103;-4012;4;0.3144044;0.368421;-0.5318559;-0.6946546;0;-1;0;-3399;1982;-936;16;0.232687;-0.7136648;-0.06094183;0.6578947;-2;-1;0;-1747;876;3614;2;0.5401662;-0.7006654;-0.3642659;0.2908587;0;4;-1;3569;2204;-557;8;0.02770083;-0.71184;0.1786704;0.6786703;0;6;0;825;1067;3891;0.6409407;1.630388;1.55618;0.6408631;1.623339;1.010678;0.6407727;1.61512;0.5312089;0.6479748;1.736393;-0.1924645;0.3907062;1.768088;-0.520422;0.05231678;1.827311;-0.3716793;-0.01557996;0.9408617;-0.1110508;0;0;0;0.9101348;1.737238;-0.5204254;1.200862;1.759098;-0.371685;1.411656;0.8386052;-0.1805468;1.503983;-0.09018576;-0.01741862;0.329108;1.626743;1.601778;0.7698097;0.8845577;2.783219;0.9516885;0.5453966;4.073266;0.329108;1.626743;1.601778;0.7698097;0.8845577;2.783219;0.9516885;0.5453966;4.073266
57104.4949;NotLabelled;16384;-0.1135734;0.3199446;-0.6762848;-0.6537396;0;2;0;-1210;3932;-259;65536;0.134349;-0.2160665;0.6745152;0.6930331;1;5;2;520;4035;250;8192;0.6467551;-0.602493;0.2119114;0.4168975;0;-7;0;1116;3849;-451;32768;0.5775623;-0.6082998;0.3102493;0.4473684;-2;-11;0;-443;4039;566;256;0.6412742;-0.07617728;-0.7622336;-0.04432133;-1;0;0;261;708;3951;128;-0.6204986;0.08448754;0.7745875;0.08864266;1;0;-1;-145;1103;-4012;4;0.3144044;0.368421;-0.5318559;-0.6946546;0;-1;0;-3399;1982;-936;16;0.232687;-0.7136648;-0.06094183;0.6578947;-2;-1;0;-1747;876;3614;2;0.5401662;-0.7006654;-0.3642659;0.2908587;0;4;-1;3569;2204;-557;8;0.02770083;-0.71184;0.1786704;0.6786703;0;6;0;825;1067;3891;0.6409407;1.630388;1.55618;0.6408631;1.623339;1.010678;0.6407727;1.61512;0.5312089;0.6479748;1.736393;-0.1924645;0.3907062;1.768088;-0.520422;0.05231678;1.827311;-0.3716793;-0.01557996;0.9408617;-0.1110508;0;0;0;0.9101348;1.737238;-0.5204254;1.200862;1.759098;-0.371685;1.411656;0.8386052;-0.1805468;1.503983;-0.09018576;-0.01741862;0.329108;1.626743;1.601778;0.7698097;0.8845577;2.783219;0.9516885;0.5453966;4.073266;0.329108;1.626743;1.601778;0.7698097;0.8845577;2.783219;0.9516885;0.5453966;4.073266
57125.4981;NotLabelled;16384;-0.1135734;0.3199446;-0.6762848;-0.6537396;0;2;0;-1210;3932;-259;65536;0.134349;-0.2160665;0.6745152;0.6930331;1;5;2;520;4035;250;8192;0.6467551;-0.602493;0.2119114;0.4168975;0;-7;0;1116;3849;-451;32768;0.5775623;-0.6082998;0.3102493;0.4473684;-2;-11;0;-443;4039;566;256;0.6412742;-0.07617728;-0.7622336;-0.04432133;-1;0;0;261;708;3951;128;-0.6204986;0.08448754;0.7745875;0.08864266;1;0;-1;-145;1103;-4012;4;0.3144044;0.368421;-0.5318559;-0.6946546;0;-1;0;-3399;1982;-936;16;0.232687;-0.7136648;-0.06094183;0.6578947;-2;-1;0;-1747;876;3614;2;0.5401662;-0.7006654;-0.3642659;0.2908587;0;4;-1;3569;2204;-557;8;0.02770083;-0.71184;0.1786704;0.6786703;0;6;0;825;1067;3891;0.6409407;1.630388;1.55618;0.6408631;1.623339;1.010678;0.6407727;1.61512;0.5312089;0.6479748;1.736393;-0.1924645;0.3907062;1.768088;-0.520422;0.05231678;1.827311;-0.3716793;-0.01557996;0.9408617;-0.1110508;0;0;0;0.9101348;1.737238;-0.5204254;1.200862;1.759098;-0.371685;1.411656;0.8386052;-0.1805468;1.503983;-0.09018576;-0.01741862;0.329108;1.626743;1.601778;0.7698097;0.8845577;2.783219;0.9516885;0.5453966;4.073266;0.329108;1.626743;1.601778;0.7698097;0.8845577;2.783219;0.9516885;0.5453966;4.073266
57146.5383;NotLabelled;16384;-0.1135734;0.3199446;-0.6762848;-0.6537396;0;2;0;-1210;3932;-259;65536;0.134349;-0.2160665;0.6745152;0.6930331;1;5;2;520;4035;250;8192;0.6467551;-0.602493;0.2119114;0.4168975;0;-7;0;1116;3849;-451;32768;0.5775623;-0.6082998;0.3102493;0.4473684;-2;-11;0;-443;4039;566;256;0.6412742;-0.07617728;-0.7622336;-0.04432133;-1;0;0;261;708;3951;128;-0.6204986;0.08448754;0.7745875;0.08864266;1;0;-1;-145;1103;-4012;4;0.3144044;0.368421;-0.5318559;-0.6946546;0;-1;0;-3399;1982;-936;16;0.232687;-0.7136648;-0.06094183;0.6578947;-2;-1;0;-1747;876;3614;2;0.5401662;-0.7006654;-0.3642659;0.2908587;0;4;-1;3569;2204;-557;8;0.02770083;-0.71184;0.1786704;0.6786703;0;6;0;825;1067;3891;0.6409407;1.630388;1.55618;0.6408631;1.623339;1.010678;0.6407727;1.61512;0.5312089;0.6479748;1.736393;-0.1924645;0.3907062;1.768088;-0.520422;0.05231678;1.827311;-0.3716793;-0.01557996;0.9408617;-0.1110508;0;0;0;0.9101348;1.737238;-0.5204254;1.200862;1.759098;-0.371685;1.411656;0.8386052;-0.1805468;1.503983;-0.09018576;-0.01741862;0.329108;1.626743;1.601778;0.7698097;0.8845577;2.783219;0.9516885;0.5453966;4.073266;0.329108;1.626743;1.601778;0.7698097;0.8845577;2.783219;0.9516885;0.5453966;4.073266
57167.3489;NotLabelled;16384;-0.1135734;0.3199446;-0.6762848;-0.6537396;0;0;-1;-1222;3894;-197;65536;0.1357341;-0.2174515;0.6745152;0.6923296;1;13;4;290;4185;240;8192;0.6467551;-0.602493;0.2119114;0.4168975;1;-4;0;1134;3867;-307;32768;0.5761772;-0.608593;0.3102493;0.4487534;-4;-12;0;-553;4035;514;256;0.6398892;-0.07479224;-0.7636127;-0.04293629;-3;1;1;243;658;4045;128;-0.6204986;0.08310249;0.7747374;0.08864266;2;2;-1;-33;1037;-4086;4;0.3130194;0.368421;-0.5318559;-0.6952798;0;0;0;-3431;2028;-940;16;0.232687;-0.7136648;-0.06094183;0.6578947;-1;0;0;-1709;926;3614;2;0.5401662;-0.7005176;-0.365651;0.2894737;-1;5;0;3493;2250;-663;8;0.02908587;-0.712131;0.1772853;0.6786703;0;4;0;833;1079;3839;0.6408637;1.635858;1.556701;0.6407758;1.627852;1.011213;0.6406763;1.618792;0.5317585;0.6477044;1.737147;-0.1923994;0.3903572;1.767517;-0.5204207;0.05200277;1.827336;-0.3718373;-0.01486518;0.9408869;-0.1109434;0;0;0;0.909786;1.736673;-0.5204237;1.200549;1.759135;-0.3718423;1.412095;0.8386415;-0.1815366;1.504865;-0.08968723;-0.01604557;0.3290319;1.632293;1.602311;0.7742399;0.8876411;2.780506;0.9613165;0.5484809;4.069808;0.3290319;1.632293;1.602311;0.7742399;0.8876411;2.780506;0.9613165;0.5484809;4.069808
57188.4421;NotLabelled;16384;-0.1135734;0.3213296;-0.6756278;-0.6537396;0;4;0;-1104;4044;-267;65536;0.1371191;-0.2202216;0.6731302;0.6925291;0;16;5;188;3951;194;8192;0.6462997;-0.602493;0.2132964;0.4168975;0;-4;-1;1106;3971;-329;32768;0.5747922;-0.6081721;0.3116343;0.4501385;-4;-16;-1;-597;4143;584;256;0.6398892;-0.07479224;-0.7636127;-0.04293629;-3;1;1;273;782;4063;128;-0.6204986;0.08310249;0.7747374;0.08864266;3;3;0;-67;1047;-4068;4;0.3130194;0.368421;-0.5318559;-0.6952798;0;4;0;-3531;2048;-1028;16;0.232687;-0.7135451;-0.06232687;0.6578947;-1;6;0;-1715;982;3718;2;0.5401662;-0.7005176;-0.365651;0.2894737;-1;5;0;3499;2218;-663;8;0.02908587;-0.712131;0.1772853;0.6786703;0;3;0;861;1003;3899;0.6389195;1.63508;1.552841;0.6388316;1.627074;1.007353;0.6387321;1.618014;0.527899;0.6457602;1.736369;-0.196259;0.388413;1.766739;-0.5242803;0.05005853;1.826558;-0.3756969;-0.01647863;0.9406146;-0.1130065;0;0;0;0.9078418;1.735895;-0.5242833;1.198604;1.758356;-0.3757018;1.408795;0.8372771;-0.186736;1.501007;-0.09099114;-0.02059686;0.3270876;1.631515;1.598452;0.7722957;0.8868629;2.776646;0.959484;0.5502309;4.066595;0.3270876;1.631515;1.598452;0.7722957;0.8868629;2.776646;0.959484;0.5502309;4.066595
57209.4347;NotLabelled;16384;-0.1149584;0.3213296;-0.6767314;-0.6523545;0;9;0;-1212;3812;-227;65536;0.1385041;-0.2229917;0.6731302;0.6913661;2;19;4;820;4237;250;8192;0.6454042;-0.602493;0.2132964;0.4182825;0;-8;0;1126;3971;-219;32768;0.5734072;-0.6067099;0.3130194;0.4529086;-6;-16;-1;-623;3947;648;256;0.6398892;-0.07479224;-0.7636127;-0.04293629;-3;1;0;377;710;3987;128;-0.6204986;0.08171745;0.7748846;0.08864266;3;5;0;-41;1059;-4026;4;0.3130194;0.3698061;-0.5318559;-0.6945441;0;0;0;-3467;2060;-912;16;0.232687;-0.7134228;-0.06371191;0.6578947;0;4;1;-1601;956;3720;2;0.5401662;-0.6997929;-0.367036;0.2894737;0;0;0;3331;2192;-571;8;0.02908587;-0.7124743;0.1759003;0.6786703;0;1;0;879;1019;3905;0.644199;1.637126;1.553338;0.6441005;1.628163;1.007865;0.6439918;1.618262;0.5284271;0.6510198;1.736618;-0.1957311;0.3936726;1.766987;-0.5237522;0.05531815;1.826806;-0.3751687;-0.01442035;0.940436;-0.114759;0;0;0;0.9131015;1.736143;-0.5237552;1.203864;1.758605;-0.3751734;1.414399;0.8380064;-0.1842604;1.508525;-0.08990133;-0.01718318;0.3323678;1.633641;1.598961;0.7749718;0.8914021;2.779657;0.9622711;0.5573;4.070247;0.3323678;1.633641;1.598961;0.7749718;0.8914021;2.779657;0.9622711;0.5573;4.070247
57230.3564;NotLabelled;16384;-0.1163435;0.3240997;-0.6751719;-0.6523545;-1;5;0;-1490;3906;-235;65536;0.1412742;-0.2271468;0.6731302;0.6894503;3;11;1;590;4035;258;8192;0.6440443;-0.602493;0.2146814;0.4196676;1;-8;0;1234;3831;-407;32768;0.5706371;-0.6065312;0.3144044;0.4556787;0;-11;1;-857;3953;676;256;0.6398892;-0.0734072;-0.7637472;-0.04293629;-4;1;0;145;662;3931;128;-0.6204986;0.08171745;0.7748846;0.08864266;3;5;0;-31;1025;-3976;4;0.3130194;0.3698061;-0.5318559;-0.6945441;0;1;0;-3579;2096;-1006;16;0.232687;-0.7134228;-0.06371191;0.6578947;0;0;0;-1657;974;3738;2;0.5401662;-0.6997929;-0.367036;0.2894737;0;1;-1;3421;2238;-543;8;0.02908587;-0.7124743;0.1759003;0.6786703;0;-1;0;845;1121;3887;0.6469729;1.639366;1.550133;0.6468748;1.630403;1.004659;0.6467664;1.620503;0.5252219;0.6534711;1.737565;-0.1991494;0.3960267;1.766804;-0.5271968;0.05756286;1.82618;-0.3786855;-0.01115795;0.940275;-0.1164278;0;0;0;0.9155191;1.737049;-0.5272003;1.206249;1.76039;-0.378691;1.415827;0.8396873;-0.187223;1.509345;-0.08768153;-0.01684308;0.335142;1.635881;1.595755;0.7782134;0.8936424;2.776276;0.9660239;0.55954;4.066791;0.335142;1.635881;1.595755;0.7782134;0.8936424;2.776276;0.9660239;0.55954;4.066791
57250.3913;NotLabelled;16384;-0.1163435;0.3240997;-0.6751719;-0.6523545;0;1;0;-1332;3788;-343;65536;0.1426593;-0.2285319;0.6731302;0.688707;3;12;1;626;4051;150;8192;0.6440443;-0.602493;0.2146814;0.4196676;0;-6;1;1258;3833;-333;32768;0.5706371;-0.604767;0.3157895;0.4570637;-1;-10;1;-465;4045;844;256;0.6398892;-0.0734072;-0.7638237;-0.04155125;-6;0;0;133;724;3923;128;-0.6204986;0.08033241;0.7750295;0.08864266;2;4;0;-57;1043;-4074;4;0.3130194;0.3698061;-0.5304709;-0.6956026;0;1;0;-3563;2058;-1004;16;0.232687;-0.7121431;-0.06371191;0.6592798;0;-1;0;-1621;982;3596;2;0.5415512;-0.6987215;-0.367036;0.2894737;-1;2;-1;3457;2252;-695;8;0.02908587;-0.7124743;0.1759003;0.6786703;0;0;0;775;1127;3931;0.6479791;1.642047;1.550535;0.6478705;1.632129;1.005078;0.6477528;1.621389;0.525659;0.6545759;1.736905;-0.1989596;0.3971431;1.765907;-0.5270374;0.05880448;1.826202;-0.3786107;-0.009933759;0.9402974;-0.1163579;0;0;0;0.9165815;1.735224;-0.5270409;1.207372;1.758359;-0.3786163;1.416937;0.8376575;-0.1871346;1.512573;-0.08982825;-0.01857746;0.3361489;1.638643;1.59617;0.7834635;0.8975763;2.775827;0.9762036;0.564513;4.065884;0.3361489;1.638643;1.59617;0.7834635;0.8975763;2.775827;0.9762036;0.564513;4.065884
57271.3476;NotLabelled;16384;-0.1163435;0.3240997;-0.6751719;-0.6523545;-1;2;0;-1198;3850;-251;65536;0.1440443;-0.2285319;0.6731302;0.6884186;4;15;0;198;4167;168;8192;0.6431397;-0.602493;0.2146814;0.4210526;1;-3;2;1282;3913;-383;32768;0.5692521;-0.6053472;0.3171745;0.4570637;-3;-15;0;-491;3933;534;256;0.6398892;-0.07202215;-0.7640296;-0.0401662;-6;1;0;225;718;3965;128;-0.6204986;0.07894737;0.7751718;0.08864266;6;2;0;-99;1141;-4016;4;0.3130194;0.3698061;-0.5304709;-0.6956026;0;0;0;-3501;2046;-1040;16;0.232687;-0.7121431;-0.06371191;0.6592798;0;0;0;-1641;964;3572;2;0.5415512;-0.6987215;-0.367036;0.2894737;0;0;0;3447;2286;-647;8;0.02908587;-0.7128149;0.1745152;0.6786703;0;4;0;821;1041;3937;0.6483414;1.648263;1.554457;0.6482219;1.637391;1.009018;0.6480947;1.625812;0.5296187;0.6546545;1.738486;-0.1954492;0.3971098;1.76612;-0.5235571;0.05879876;1.826892;-0.3752621;-0.009666694;0.9405296;-0.1144887;0;0;0;0.9165579;1.735602;-0.5236036;1.207387;1.75941;-0.3753624;1.417499;0.8388586;-0.1837578;1.510243;-0.08886552;-0.01489687;0.3365121;1.644938;1.600104;0.7844034;0.9038713;2.779541;0.9777744;0.5708082;4.069504;0.3365121;1.644938;1.600104;0.7844034;0.9038713;2.779541;0.9777744;0.5708082;4.069504
57291.3483;NotLabelled;16384;-0.1163435;0.3254848;-0.6745053;-0.6523545;0;5;0;-1176;4002;-235;65536;0.1454294;-0.2299169;0.6731302;0.6876659;4;14;1;478;4041;216;8192;0.6431397;-0.602493;0.2146814;0.4210526;0;-3;3;968;3911;-269;32768;0.566482;-0.6051205;0.3185596;0.4598338;-6;-15;0;-517;4003;672;256;0.6398892;-0.07202215;-0.7640296;-0.0401662;-5;0;0;103;718;3989;128;-0.6204986;0.07894737;0.7751718;0.08864266;3;1;0;9;1059;-4024;4;0.3130194;0.3698061;-0.5304709;-0.6956026;0;0;1;-3571;2044;-982;16;0.232687;-0.7121431;-0.06371191;0.6592798;0;2;0;-1649;944;3674;2;0.5415512;-0.6992937;-0.367036;0.2880886;0;2;0;3383;2168;-579;8;0.02908587;-0.7128149;0.1745152;0.6786703;0;3;0;889;1039;3899;0.6493446;1.647319;1.551278;0.6492252;1.636446;1.00584;0.6490982;1.624867;0.5264398;0.6557182;1.737541;-0.1986279;0.3982009;1.765176;-0.5267571;0.05987745;1.825948;-0.3784902;-0.008422314;0.9405508;-0.1144122;0;0;0;0.917649;1.734657;-0.5267602;1.208466;1.758465;-0.3784949;1.418472;0.8382506;-0.185163;1.51061;-0.08892441;-0.01298642;0.3375153;1.643994;1.596925;0.7853086;0.9029272;2.776399;0.9785721;0.5698645;4.06638;0.3375153;1.643994;1.596925;0.7853086;0.9029272;2.776399;0.9785721;0.5698645;4.06638
57312.53;NotLabelled;16384;-0.1177285;0.3254848;-0.6756022;-0.6509695;-1;5;0;-1178;3876;-225;65536;0.1468144;-0.232687;0.6731302;0.6864387;3;15;2;436;4129;232;8192;0.6444344;-0.601108;0.2146814;0.4210526;0;-10;0;1064;4005;-265;32768;0.5650969;-0.6053615;0.3185596;0.4612188;-5;-14;-1;-595;3971;676;256;0.6398892;-0.07063711;-0.764159;-0.0401662;-4;0;0;273;692;4001;128;-0.6204986;0.07894737;0.7751718;0.08864266;4;0;0;-15;1039;-4012;4;0.3130194;0.3698061;-0.5318559;-0.6945441;0;0;0;-3453;2076;-1018;16;0.232687;-0.7121431;-0.06371191;0.6592798;0;-2;1;-1651;940;3706;2;0.5415512;-0.6992937;-0.367036;0.2880886;0;1;0;3315;2284;-593;8;0.02908587;-0.7128149;0.1745152;0.6786703;1;0;0;821;1123;3805;0.6550686;1.650427;1.552147;0.6549494;1.639555;1.006708;0.6548222;1.627976;0.5273082;0.661131;1.739357;-0.1979617;0.4035223;1.765858;-0.5261133;0.06508715;1.826186;-0.3779198;-0.006296699;0.9403598;-0.116108;0;0;0;0.9230335;1.736431;-0.5261165;1.213815;1.761118;-0.3779254;1.426775;0.8411098;-0.1868571;1.518886;-0.08557057;-0.012025;0.3432393;1.647102;1.597793;0.7872614;0.9048641;2.777957;0.9810174;0.5718009;4.067863;0.3432393;1.647102;1.597793;0.7872614;0.9048641;2.777957;0.9810174;0.5718009;4.067863
57333.3765;NotLabelled;16384;-0.1191136;0.3268698;-0.6746901;-0.6509695;0;6;0;-1402;3842;-227;65536;0.1495845;-0.2354571;0.6717451;0.6862528;2;11;0;518;4025;208;8192;0.6421517;-0.601108;0.2160665;0.4238227;2;-6;3;1254;3981;-383;32768;0.5623268;-0.6050936;0.3199446;0.4639889;-4;-12;0;-549;4081;758;256;0.6398892;-0.07063711;-0.764159;-0.0401662;-2;0;0;261;712;4049;128;-0.6204986;0.07756232;0.7753116;0.08864266;4;0;0;-49;1003;-4040;4;0.3130194;0.3698061;-0.5318559;-0.6945441;0;-1;0;-3435;2038;-930;16;0.232687;-0.7121431;-0.06371191;0.6592798;0;-1;0;-1637;994;3608;2;0.5415512;-0.6992937;-0.367036;0.2880886;0;0;0;3317;2282;-657;8;0.02908587;-0.7128149;0.1745152;0.6786703;0;-2;0;923;1143;3833;0.6533676;1.652227;1.551888;0.6532378;1.640401;1.006469;0.6531016;1.627984;0.5270898;0.6594102;1.739365;-0.1981806;0.4018017;1.765866;-0.526332;0.06336649;1.826194;-0.3781384;-0.007417403;0.9403279;-0.1162985;0;0;0;0.9213128;1.736439;-0.526335;1.212094;1.761126;-0.3781437;1.424349;0.8415017;-0.1844573;1.515953;-0.08460546;-0.006351829;0.3415393;1.648982;1.597546;0.7855616;0.9067435;2.777709;0.9793171;0.5736802;4.067614;0.3415393;1.648982;1.597546;0.7855616;0.9067435;2.777709;0.9793171;0.5736802;4.067614
57353.4886;NotLabelled;16384;-0.1191136;0.3268698;-0.6746901;-0.6509695;-1;1;1;-1316;3926;-127;65536;0.1495845;-0.2354571;0.6717451;0.6862528;1;4;0;580;4069;276;8192;0.6412354;-0.601108;0.2160665;0.4252077;0;-7;3;1204;3855;-365;32768;0.5609418;-0.6045814;0.3213296;0.4653739;-2;-5;0;-641;4043;642;256;0.6398892;-0.07063711;-0.7642305;-0.03878116;-1;0;0;323;626;3953;128;-0.6204986;0.07756232;0.7754687;0.08725762;3;1;0;-91;1037;-3996;4;0.3130194;0.3698061;-0.5318559;-0.6945441;0;-1;0;-3493;2104;-972;16;0.232687;-0.7121431;-0.06371191;0.6592798;1;0;0;-1665;968;3534;2;0.5415512;-0.6992937;-0.367036;0.2880886;-1;-2;0;3335;2286;-621;8;0.02908587;-0.7128149;0.1745152;0.6786703;0;-2;0;817;1055;3809;0.6531489;1.655323;1.55218;0.653006;1.64231;1.006788;0.6528581;1.62885;0.527437;0.6592764;1.738681;-0.1980685;0.401675;1.764948;-0.5262445;0.06336628;1.826193;-0.3781389;-0.007419525;0.9403272;-0.1162988;0;0;0;0.9211328;1.734592;-0.5262474;1.211976;1.759074;-0.3781438;1.424578;0.8399448;-0.1824992;1.51577;-0.08609092;-0.003811002;0.3413215;1.652177;1.597852;0.7853641;0.9099381;2.778008;0.9791421;0.5768757;4.067911;0.3413215;1.652177;1.597852;0.7853641;0.9099381;2.778008;0.9791421;0.5768757;4.067911
57374.5344;NotLabelled;16384;-0.1191136;0.3268698;-0.6746901;-0.6509695;0;0;1;-1128;3888;-251;65536;0.1495845;-0.2368421;0.6717451;0.6857761;0;1;0;596;4047;282;8192;0.6412354;-0.601108;0.2160665;0.4252077;2;-4;0;1314;3953;-439;32768;0.5609418;-0.6045814;0.3213296;0.4653739;0;-6;0;-639;3933;482;256;0.6398892;-0.07063711;-0.7642305;-0.03878116;-1;0;0;271;704;4007;128;-0.6204986;0.07756232;0.7754687;0.08725762;3;1;0;-115;1031;-4022;4;0.3144044;0.3698061;-0.5318559;-0.6939183;-1;-1;1;-3465;2034;-974;16;0.232687;-0.7121431;-0.06371191;0.6592798;1;0;0;-1579;942;3588;2;0.5415512;-0.6992937;-0.367036;0.2880886;0;0;0;3351;2230;-637;8;0.02770083;-0.7115489;0.1745152;0.6800554;0;-3;0;801;1063;3845;0.6540714;1.655109;1.550396;0.6539284;1.642096;1.005004;0.6537807;1.628636;0.5256537;0.6601988;1.738467;-0.1998518;0.4025975;1.764734;-0.5280279;0.06428878;1.825979;-0.3799222;-0.006469807;0.9401135;-0.118075;0;0;0;0.9220553;1.734378;-0.5280306;1.212899;1.75886;-0.3799272;1.425521;0.839731;-0.184305;1.516712;-0.08630443;-0.005617619;0.342244;1.651963;1.596069;0.7865399;0.9121976;2.777682;0.980318;0.5791345;4.067585;0.342244;1.651963;1.596069;0.7865399;0.9121976;2.777682;0.980318;0.5791345;4.067585
57395.6974;NotLabelled;16384;-0.1191136;0.3268698;-0.6746901;-0.6509695;1;1;2;-1070;3850;-285;65536;0.1495845;-0.2368421;0.6717451;0.6857761;0;-2;0;416;4055;170;8192;0.6412354;-0.601108;0.2160665;0.4252077;-1;-3;0;1060;3929;-175;32768;0.5609418;-0.6035127;0.3213296;0.466759;0;-11;-1;-475;4147;592;256;0.6398892;-0.07063711;-0.7642305;-0.03878116;-4;0;0;371;628;3951;128;-0.6204986;0.07617728;0.775606;0.08725762;5;0;0;-117;985;-3950;4;0.3144044;0.3698061;-0.5318559;-0.6939183;0;-1;1;-3521;2026;-928;16;0.232687;-0.7121431;-0.06371191;0.6592798;0;-1;0;-1617;910;3668;2;0.5415512;-0.700019;-0.365651;0.2880886;0;0;0;3413;2270;-663;8;0.02770083;-0.7112077;0.1759003;0.6800554;0;-1;0;811;1113;3875;0.6541179;1.657355;1.551838;0.6539647;1.643389;1.00647;0.6538078;1.629092;0.5271436;0.6601658;1.738924;-0.1983623;0.4025373;1.76519;-0.5265169;0.06424099;1.826436;-0.3783831;-0.006479514;0.9401137;-0.1180745;0;0;0;0.921995;1.734835;-0.526563;1.212851;1.759317;-0.3784832;1.425501;0.839847;-0.1844983;1.519229;-0.08589578;-0.00560534;0.3422914;1.654289;1.597522;0.7866855;0.9145235;2.779097;0.9805705;0.5814606;4.068984;0.3422914;1.654289;1.597522;0.7866855;0.9145235;2.779097;0.9805705;0.5814606;4.068984
57436.5469;NotLabelled;16384;-0.1191136;0.3268698;-0.6746901;-0.6509695;0;0;0;-1210;3910;-139;65536;0.1481994;-0.2354571;0.6717451;0.6865532;-2;-6;0;584;4045;164;8192;0.6412354;-0.601108;0.2160665;0.4252077;0;-4;0;1306;4069;-401;32768;0.5595568;-0.6029864;0.3227147;0.468144;0;-5;0;-597;4009;764;256;0.6398892;-0.06925207;-0.7643572;-0.03878116;-2;0;0;361;688;3803;128;-0.6191136;0.07617728;0.7768663;0.08587258;5;1;0;-101;1029;-3904;4;0.3144044;0.368421;-0.5318559;-0.6946546;0;-2;0;-3397;2100;-942;16;0.232687;-0.7121431;-0.06371191;0.6592798;0;1;0;-1701;952;3608;2;0.5415512;-0.700019;-0.365651;0.2880886;0;-2;0;3311;2230;-645;8;0.02770083;-0.7112077;0.1759003;0.6800554;0;-1;-1;883;1097;3841;0.6532046;1.661999;1.55046;0.6530381;1.646836;1.005124;0.6528696;1.631485;0.5258297;0.6589832;1.740023;-0.1998729;0.401294;1.765156;-0.5280684;0.06287234;1.825957;-0.3800375;-0.007788749;0.9400918;-0.1181647;0;0;0;0.9208144;1.735894;-0.5280713;1.211621;1.761254;-0.3800423;1.424315;0.8421247;-0.1844995;1.517699;-0.08354831;-0.005066514;0.3413793;1.659033;1.596158;0.7887167;0.9168472;2.775102;0.9829754;0.5837846;4.064931;0.3413793;1.659033;1.596158;0.7887167;0.9168472;2.775102;0.9829754;0.5837846;4.064931
57479.3815;NotLabelled;16384;-0.1191136;0.3254848;-0.6753594;-0.6509695;0;0;1;-1230;3966;-181;65536;0.1468144;-0.234072;0.6717451;0.687324;-1;-5;0;506;4067;258;8192;0.6412354;-0.601108;0.2160665;0.4252077;0;-5;-1;1264;3631;-559;32768;0.5595568;-0.6029864;0.3227147;0.468144;1;1;0;-629;3961;756;256;0.6398892;-0.06925207;-0.7643572;-0.03878116;-2;0;0;199;684;3909;128;-0.6191136;0.07617728;0.7768663;0.08587258;4;2;1;-31;1051;-3924;4;0.3144044;0.368421;-0.533241;-0.693592;0;-1;0;-3445;2150;-994;16;0.232687;-0.7121431;-0.06371191;0.6592798;1;0;0;-1543;974;3688;2;0.5415512;-0.700019;-0.365651;0.2880886;0;0;0;3319;2208;-703;8;0.02770083;-0.7115489;0.1745152;0.6800554;0;-1;0;873;1105;3829;0.6522502;1.66248;1.552166;0.6520838;1.647316;1.006829;0.6519151;1.631966;0.5275354;0.6580288;1.740504;-0.1981672;0.4003396;1.765637;-0.5263628;0.06191792;1.826438;-0.3783319;-0.009054854;0.9400697;-0.118251;0;0;0;0.91986;1.736375;-0.5263657;1.210666;1.761734;-0.3783367;1.423361;0.8426056;-0.182794;1.516745;-0.08306742;-0.003360987;0.3404249;1.659514;1.597864;0.7835317;0.9161708;2.777676;0.9777905;0.5831084;4.067505;0.3404249;1.659514;1.597864;0.7835317;0.9161708;2.777676;0.9777905;0.5831084;4.067505
57521.4407;NotLabelled;16384;-0.1191136;0.3254848;-0.6753594;-0.6509695;1;-1;1;-1272;3856;-287;65536;0.1468144;-0.234072;0.6717451;0.687324;-1;-5;-1;638;4071;226;8192;0.6412354;-0.601108;0.2160665;0.4252077;0;0;-1;1156;4099;-241;32768;0.5595568;-0.6022431;0.3240997;0.468144;3;-1;0;-553;4115;638;256;0.6398892;-0.06925207;-0.7644263;-0.03739612;-3;-1;1;197;594;4001;128;-0.6191136;0.07479224;0.7770009;0.08587258;1;1;0;-63;961;-4006;4;0.3144044;0.368421;-0.533241;-0.693592;0;-1;0;-3425;2080;-954;16;0.232687;-0.7121431;-0.06371191;0.6592798;1;-2;0;-1589;946;3676;2;0.5415512;-0.700019;-0.365651;0.2880886;0;0;0;3387;2330;-569;8;0.02631579;-0.7112603;0.1759003;0.6800554;0;-2;-1;963;1139;3797;0.652027;1.665134;1.552449;0.6518502;1.64902;1.00714;0.6516724;1.632835;0.5278732;0.6578895;1.739823;-0.1980588;0.4002047;1.76472;-0.5262764;0.06191046;1.826439;-0.3783336;-0.009057242;0.9400704;-0.1182513;0;0;0;0.9196721;1.73453;-0.5262794;1.210542;1.759685;-0.3783398;1.42324;0.8405557;-0.1828014;1.516263;-0.08555794;-0.005466342;0.3402026;1.662248;1.598158;0.7833321;0.9189053;2.777962;0.9776155;0.5858421;4.067788;0.3402026;1.662248;1.598158;0.7833321;0.9189053;2.777962;0.9776155;0.5858421;4.067788
57542.4308;NotLabelled;16384;-0.1191136;0.3254848;-0.6753594;-0.6509695;0;0;0;-1160;3862;-265;65536;0.1454294;-0.232687;0.6717451;0.6880884;-1;-7;-1;418;4099;244;8192;0.6412354;-0.601108;0.2160665;0.4252077;-1;3;-1;1150;3815;-387;32768;0.5609418;-0.6009533;0.3240997;0.468144;4;4;-1;-561;4019;684;256;0.6398892;-0.06925207;-0.7644263;-0.03739612;-3;0;0;285;726;3879;128;-0.6191136;0.07479224;0.7770009;0.08587258;1;0;0;-73;1031;-3992;4;0.3144044;0.368421;-0.533241;-0.693592;0;-1;0;-3337;2048;-980;16;0.2313019;-0.7125942;-0.06371191;0.6592798;0;0;0;-1693;978;3600;2;0.5415512;-0.700019;-0.365651;0.2880886;0;0;0;3379;2262;-651;8;0.02631579;-0.7112603;0.1759003;0.6800554;0;-1;-1;831;1099;3839;0.6507688;1.66511;1.552368;0.6505919;1.648996;1.007059;0.6504141;1.632811;0.5277928;0.6566312;1.739799;-0.1981394;0.3989464;1.764696;-0.5263569;0.06065213;1.826415;-0.3784141;-0.01031559;0.9400463;-0.1183319;0;0;0;0.9184138;1.734506;-0.5263601;1.209283;1.759661;-0.3784205;1.421982;0.8405316;-0.182882;1.517558;-0.08579183;-0.00801754;0.3389443;1.662224;1.598078;0.7820737;0.9188812;2.777881;0.9747493;0.5881927;4.06856;0.3389443;1.662224;1.598078;0.7820737;0.9188812;2.777881;0.9747493;0.5881927;4.06856
57562.6199;NotLabelled;16384;-0.1191136;0.3254848;-0.6753594;-0.6509695;0;-4;0;-1294;3930;-163;65536;0.1454294;-0.232687;0.6717451;0.6880884;-1;-7;-2;478;4137;208;8192;0.6421517;-0.601108;0.2160665;0.4238227;0;-1;-1;1052;3929;-297;32768;0.5609418;-0.6016982;0.3227147;0.468144;3;1;-1;-639;3989;608;256;0.6398892;-0.06925207;-0.7644263;-0.03739612;-4;0;0;147;732;4013;128;-0.6191136;0.07479224;0.7770009;0.08587258;4;-1;0;-57;1065;-4054;4;0.3144044;0.368421;-0.533241;-0.693592;0;-2;0;-3393;2084;-906;16;0.232687;-0.7121431;-0.06371191;0.6592798;0;3;0;-1635;968;3528;2;0.5415512;-0.700019;-0.365651;0.2880886;0;2;0;3329;2266;-703;8;0.02631579;-0.7112603;0.1759003;0.6800554;0;3;0;879;1133;3749;0.6507688;1.66511;1.552368;0.6505919;1.648996;1.007059;0.6504141;1.632811;0.5277928;0.6566312;1.739799;-0.1981394;0.3989464;1.764696;-0.5263569;0.06065213;1.826415;-0.3784141;-0.01031559;0.9400463;-0.1183319;0;0;0;0.9184138;1.734506;-0.5263601;1.209283;1.759661;-0.3784205;1.421633;0.8400371;-0.1848373;1.517576;-0.08584917;-0.007871628;0.3389443;1.662224;1.598078;0.7820737;0.9188812;2.777881;0.9763573;0.5858181;4.067708;0.3389443;1.662224;1.598078;0.7820737;0.9188812;2.777881;0.9763573;0.5858181;4.067708
57582.4772;NotLabelled;16384;-0.1177285;0.3254848;-0.6756022;-0.6509695;1;-6;0;-1156;3970;-223;65536;0.1440443;-0.2313019;0.6717451;0.6888462;-2;-7;-2;532;4071;218;8192;0.6421517;-0.601108;0.2160665;0.4238227;-1;-5;1;1154;3897;-177;32768;0.5623268;-0.5996574;0.3240997;0.468144;3;-1;0;-591;4037;630;256;0.6398892;-0.06786703;-0.764617;-0.03601108;-4;0;0;339;732;4033;128;-0.6191136;0.07479224;0.7771527;0.08448754;2;0;0;-121;1021;-3990;4;0.3144044;0.367036;-0.533241;-0.6943259;-1;0;0;-3413;2080;-966;16;0.232687;-0.7121431;-0.06371191;0.6592798;0;0;0;-1531;992;3618;2;0.5415512;-0.700019;-0.365651;0.2880886;0;0;0;3297;2278;-669;8;0.02631579;-0.7112603;0.1759003;0.6800554;0;0;0;947;1077;3761;0.6499074;1.671086;1.552887;0.6497175;1.653784;1.007614;0.6495284;1.636555;0.5283843;0.6554738;1.740699;-0.1979635;0.3976738;1.764227;-0.526191;0.05940826;1.826417;-0.3783807;-0.01162252;0.9400227;-0.1184024;0;0;0;0.9171508;1.734203;-0.526247;1.20806;1.76003;-0.3785019;1.420592;0.8399873;-0.1871228;1.518812;-0.08653283;-0.01478279;0.338084;1.668299;1.59861;0.7843713;0.9225368;2.775693;0.9792784;0.589474;4.065424;0.338084;1.668299;1.59861;0.7843713;0.9225368;2.775693;0.9792784;0.589474;4.065424
57622.5069;NotLabelled;16384;-0.1191136;0.3254848;-0.6753594;-0.6509695;0;0;0;-1234;3854;-227;65536;0.1426593;-0.2299169;0.6717451;0.6895977;-3;-14;-2;532;4169;378;8192;0.6412354;-0.601108;0.2160665;0.4252077;0;-2;2;1344;3973;-299;32768;0.5623268;-0.5996574;0.3240997;0.468144;5;1;0;-731;4027;678;256;0.6398892;-0.06786703;-0.764617;-0.03601108;-5;0;0;343;712;4017;128;-0.6191136;0.07479224;0.7771527;0.08448754;2;1;0;-93;1021;-4038;4;0.3144044;0.368421;-0.533241;-0.693592;0;0;0;-3445;2122;-864;16;0.232687;-0.7121431;-0.06371191;0.6592798;0;-3;0;-1557;1058;3580;2;0.5415512;-0.700019;-0.365651;0.2880886;-1;1;-1;3403;2272;-579;8;0.02631579;-0.7112603;0.1759003;0.6800554;0;-3;0;841;1165;3807;0.6484245;1.671034;1.552744;0.6482346;1.653733;1.007471;0.6480454;1.636503;0.5282414;0.6540641;1.740647;-0.1981061;0.3962972;1.764176;-0.5263591;0.05801673;1.826366;-0.3785832;-0.01285152;0.9399972;-0.1184736;0;0;0;0.9157742;1.734152;-0.5263627;1.206669;1.759979;-0.3785887;1.419443;0.8408499;-0.1831311;1.517646;-0.08567047;-0.01078105;0.3366011;1.668248;1.598467;0.7801815;0.9249046;2.778101;0.9749584;0.5918417;4.067852;0.3366011;1.668248;1.598467;0.7801815;0.9249046;2.778101;0.9749584;0.5918417;4.067852
57643.5152;NotLabelled;16384;-0.1177285;0.3240997;-0.6762677;-0.6509695;2;-8;0;-1308;3918;-293;65536;0.1412742;-0.2271468;0.6717451;0.6907998;-3;-16;-3;496;4079;304;8192;0.6417004;-0.601108;0.2146814;0.4252077;0;4;1;1142;4043;-507;32768;0.5637119;-0.6005126;0.3240997;0.4653739;8;11;1;-521;4019;724;256;0.6398892;-0.06786703;-0.764617;-0.03601108;-4;0;0;149;582;3955;128;-0.6191136;0.07479224;0.7771527;0.08448754;2;1;0;-33;979;-3958;4;0.3144044;0.368421;-0.533241;-0.693592;0;0;0;-3403;2148;-936;16;0.232687;-0.7121431;-0.06371191;0.6592798;0;1;0;-1713;998;3576;2;0.5415512;-0.7005874;-0.365651;0.2867036;0;2;0;3341;2268;-699;8;0.02631579;-0.7112603;0.1759003;0.6800554;0;-2;0;881;1077;3871;0.6469111;1.67118;1.554508;0.6467213;1.653878;1.009235;0.6465321;1.636648;0.5300055;0.6525509;1.740793;-0.1963419;0.3947839;1.764321;-0.524595;0.05650346;1.826511;-0.3768191;-0.01498497;0.9401832;-0.1167401;0;0;0;0.9142609;1.734297;-0.5245986;1.205156;1.760124;-0.3768245;1.419314;0.8415935;-0.1800711;1.515043;-0.08571267;-0.01058209;0.3350878;1.668393;1.600231;0.7786683;0.9250498;2.779865;0.9734449;0.5919869;4.069617;0.3350878;1.668393;1.600231;0.7786683;0.9250498;2.779865;0.9734449;0.5919869;4.069617
57665.4058;NotLabelled;16384;-0.1163435;0.3240997;-0.6751719;-0.6523545;4;-7;0;-1166;3772;-337;65536;0.1398892;-0.2257618;0.6717451;0.6915354;-2;-6;-2;358;4127;184;8192;0.6417004;-0.601108;0.2146814;0.4252077;-1;2;2;1012;3729;-263;32768;0.5650969;-0.6002825;0.3240997;0.4639889;4;4;0;-481;3853;496;256;0.6398892;-0.06786703;-0.764617;-0.03601108;-2;0;0;253;708;3855;128;-0.6191136;0.0734072;0.7772848;0.08448754;3;1;0;-75;1049;-3940;4;0.3144044;0.368421;-0.533241;-0.693592;0;0;0;-3441;2094;-956;16;0.232687;-0.7121431;-0.06371191;0.6592798;0;4;0;-1701;1004;3616;2;0.5415512;-0.7005874;-0.365651;0.2867036;0;0;0;3363;2260;-667;8;0.02631579;-0.7112603;0.1759003;0.6800554;0;0;0;839;1129;3833;0.6425493;1.672513;1.552109;0.6423489;1.654262;1.006867;0.6421506;1.636198;0.5276681;0.6481694;1.740342;-0.1986791;0.3904025;1.763871;-0.5269326;0.052122;1.826061;-0.3791562;-0.01620141;0.940156;-0.1167954;0;0;0;0.9098796;1.733847;-0.5269362;1.200774;1.759674;-0.3791618;1.414917;0.8411431;-0.1823913;1.510708;-0.0866425;-0.01558185;0.3307268;1.669806;1.597843;0.7743073;0.9264629;2.777476;0.9690839;0.5933998;4.067227;0.3307268;1.669806;1.597843;0.7743073;0.9264629;2.777476;0.9690839;0.5933998;4.067227
57706.351;NotLabelled;16384;-0.1163435;0.3227147;-0.675835;-0.6523545;2;-1;-1;-1108;3898;-131;65536;0.1398892;-0.2257618;0.6717451;0.6915354;-4;-3;-1;540;4111;200;8192;0.6429951;-0.599723;0.2146814;0.4252077;-2;-5;3;1362;4121;-69;32768;0.5650969;-0.6002825;0.3240997;0.4639889;2;2;3;-787;4049;588;256;0.6398892;-0.06786703;-0.764617;-0.03601108;-5;0;0;121;762;3925;128;-0.6191136;0.0734072;0.7772848;0.08448754;2;-2;0;13;1105;-3930;4;0.3144044;0.368421;-0.533241;-0.693592;0;0;0;-3431;2118;-982;16;0.232687;-0.7121431;-0.06371191;0.6592798;0;2;0;-1581;946;3646;2;0.5415512;-0.700019;-0.365651;0.2880886;0;0;0;3371;2294;-573;8;0.02631579;-0.7099335;0.1759003;0.6814404;0;3;0;821;1121;3853;0.6428397;1.673018;1.553893;0.6426393;1.654767;1.008651;0.642441;1.636703;0.5294523;0.6484598;1.740846;-0.1968948;0.3906928;1.764375;-0.5251484;0.05241236;1.826565;-0.3773722;-0.01620159;0.9401561;-0.1167962;0;0;0;0.9101698;1.734351;-0.5251518;1.201065;1.760178;-0.3773781;1.418093;0.8418537;-0.1828189;1.513884;-0.08593214;-0.01600945;0.3310172;1.670311;1.599627;0.7745976;0.9269677;2.779261;0.9693744;0.5939046;4.069012;0.3310172;1.670311;1.599627;0.7745976;0.9269677;2.779261;0.9693744;0.5939046;4.069012
57748.498;NotLabelled;16384;-0.1163435;0.3227147;-0.675835;-0.6523545;0;0;0;-1112;3944;-133;65536;0.1385041;-0.2243767;0.6717451;0.6922645;-5;-7;-1;552;4127;236;8192;0.6442841;-0.5983379;0.2146814;0.4252077;-4;0;6;1348;3859;-185;32768;0.566482;-0.5989756;0.3240997;0.4639889;0;2;3;-601;4085;658;256;0.6398892;-0.06648199;-0.7648026;-0.03462604;-4;0;-1;293;680;3943;128;-0.6191136;0.07479224;0.7771527;0.08448754;1;0;0;-39;1019;-4014;4;0.3144044;0.368421;-0.533241;-0.693592;0;0;0;-3497;2100;-1000;16;0.232687;-0.7120178;-0.06509695;0.6592798;0;2;0;-1657;1034;3598;2;0.5415512;-0.700019;-0.365651;0.2880886;0;1;0;3353;2314;-631;8;0.02631579;-0.7102752;0.1745152;0.6814404;-1;3;0;867;1075;3827;0.6417347;1.674951;1.554489;0.6415449;1.657649;1.009216;0.6413558;1.640419;0.5299862;0.6471778;1.741718;-0.1967649;0.3893297;1.763877;-0.5250496;0.05106239;1.826537;-0.3774424;-0.01745392;0.9401283;-0.1168402;0;0;0;0.9088162;1.73402;-0.525053;1.199736;1.76052;-0.3774471;1.419699;0.8424141;-0.185163;1.518134;-0.08554411;-0.02087176;0.3299115;1.672164;1.600212;0.7739338;0.9288211;2.779679;0.9693055;0.598295;4.069994;0.3299115;1.672164;1.600212;0.7739338;0.9288211;2.779679;0.9693055;0.598295;4.069994
57770.3314;NotLabelled;16384;-0.1163435;0.3227147;-0.675835;-0.6523545;0;-2;0;-1206;3976;-139;65536;0.1385041;-0.2243767;0.6717451;0.6922645;-4;-3;-1;342;4079;144;8192;0.6447439;-0.5983379;0.2132964;0.4252077;-6;2;4;1088;3839;-317;32768;0.566482;-0.600046;0.3240997;0.4626039;0;4;3;-489;3973;576;256;0.6398892;-0.06648199;-0.7648026;-0.03462604;-5;1;0;139;628;4129;128;-0.6191136;0.07479224;0.7771527;0.08448754;1;0;0;-69;1005;-4070;4;0.3144044;0.368421;-0.534626;-0.692525;0;0;0;-3425;2068;-908;16;0.232687;-0.7120178;-0.06509695;0.6592798;0;-2;0;-1635;1094;3622;2;0.5415512;-0.700019;-0.365651;0.2880886;0;0;0;3227;2226;-633;8;0.02631579;-0.7102752;0.1745152;0.6814404;0;-1;0;917;1187;3763;0.6417347;1.674951;1.554489;0.6415449;1.657649;1.009216;0.6413558;1.640419;0.5299862;0.6471778;1.741718;-0.1967649;0.3893297;1.763877;-0.5250496;0.05106239;1.826537;-0.3774424;-0.01745392;0.9401283;-0.1168402;0;0;0;0.9088162;1.73402;-0.525053;1.199736;1.76052;-0.3774471;1.42108;0.8430212;-0.1838546;1.517009;-0.08523583;-0.01976752;0.3299115;1.672164;1.600212;0.7696919;0.9276793;2.780548;0.965063;0.5971534;4.070862;0.3299115;1.672164;1.600212;0.7696919;0.9276793;2.780548;0.965063;0.5971534;4.070862
57791.3337;NotLabelled;16384;-0.1149584;0.3227147;-0.6774057;-0.6509695;0;-3;-4;-1182;4028;-391;65536;0.1385041;-0.2229917;0.6703601;0.6940523;0;1;-1;478;4063;412;8192;0.6452005;-0.5983379;0.2119114;0.4252077;0;0;1;1280;3803;-535;32768;0.566482;-0.6018559;0.3227147;0.4612188;2;4;0;-605;4001;772;256;0.6398892;-0.06509695;-0.7649217;-0.03462604;-2;1;1;191;580;3957;128;-0.6177285;0.0734072;0.7783859;0.08448754;1;2;0;-71;993;-4030;4;0.3144044;0.368421;-0.534626;-0.692525;0;0;0;-3397;2080;-962;16;0.232687;-0.7120178;-0.06509695;0.6592798;0;1;0;-1701;1026;3548;2;0.5415512;-0.700019;-0.365651;0.2880886;0;0;0;3379;2324;-573;8;0.02631579;-0.7116014;0.1745152;0.6800554;-1;0;0;751;1089;3817;0.6413123;1.67951;1.556416;0.641112;1.66125;1.011175;0.6409136;1.643178;0.531976;0.6463936;1.743182;-0.1949567;0.3884411;1.764208;-0.5232347;0.0500687;1.826421;-0.3756787;-0.02200922;0.9402187;-0.1153326;0;0;0;0.9079894;1.735445;-0.5232779;1.198879;1.762823;-0.3757722;1.421759;0.8455939;-0.1826644;1.515628;-0.08254504;-0.01672804;0.3294898;1.676804;1.60215;0.7697747;0.9323189;2.782298;0.9656972;0.6017931;4.072528;0.3294898;1.676804;1.60215;0.7697747;0.9323189;2.782298;0.9656972;0.6017931;4.072528
57832.462;NotLabelled;16384;-0.1135734;0.3240997;-0.6756434;-0.6523545;2;3;-1;-1208;3896;-157;65536;0.1371191;-0.2229917;0.6703601;0.6943273;-1;-1;0;440;4273;162;8192;0.6456537;-0.5983379;0.2105263;0.4252077;-1;1;6;1268;4005;-159;32768;0.567867;-0.6016105;0.3227147;0.4598338;0;-2;4;-627;4099;530;256;0.6398892;-0.06509695;-0.7649217;-0.03462604;-4;0;0;307;716;3969;128;-0.6191136;0.0734072;0.7772848;0.08448754;2;0;0;-71;993;-4002;4;0.3144044;0.368421;-0.534626;-0.692525;0;0;0;-3399;2084;-940;16;0.232687;-0.7120178;-0.06509695;0.6592798;-1;0;0;-1671;986;3612;2;0.5415512;-0.7005874;-0.365651;0.2867036;-1;0;0;3367;2248;-637;8;0.02631579;-0.7116014;0.1745152;0.6800554;-1;2;0;925;1145;3853;0.6375393;1.677866;1.549025;0.6373392;1.659615;1.003784;0.6371412;1.64155;0.5245844;0.6426769;1.741554;-0.2023482;0.3847497;1.762579;-0.5306454;0.04636597;1.824792;-0.3831155;-0.02232451;0.9399821;-0.117182;0;0;0;0.9042979;1.733817;-0.5306489;1.195176;1.761195;-0.383121;1.41933;0.8449215;-0.1869745;1.513281;-0.08368564;-0.02372849;0.3257168;1.675159;1.594759;0.765911;0.930674;2.774941;0.9617345;0.6001486;4.065186;0.3257168;1.675159;1.594759;0.765911;0.930674;2.774941;0.9617345;0.6001486;4.065186
57852.8408;NotLabelled;16384;-0.1135734;0.3240997;-0.6756434;-0.6523545;0;-3;0;-1344;4046;-31;65536;0.1371191;-0.2229917;0.6703601;0.6943273;-3;3;2;278;4035;252;8192;0.6469345;-0.5969529;0.2105263;0.4252077;-3;-3;4;1208;4089;-59;32768;0.566482;-0.6021714;0.3240997;0.4598338;-1;-6;4;-621;3947;488;256;0.6398892;-0.06371191;-0.7650998;-0.033241;-2;1;0;155;522;4049;128;-0.6177285;0.0734072;0.7783859;0.08448754;0;0;0;13;917;-4164;4;0.3144044;0.368421;-0.534626;-0.692525;0;0;0;-3481;2146;-920;16;0.232687;-0.7107329;-0.06509695;0.6606648;0;-1;0;-1615;974;3636;2;0.5415512;-0.7005874;-0.365651;0.2867036;0;3;0;3371;2302;-599;8;0.02631579;-0.7119397;0.1731302;0.6800554;-1;1;0;833;1053;3861;0.6376568;1.681632;1.549591;0.6374563;1.663371;1.004349;0.6372579;1.645299;0.5251505;0.6426048;1.742456;-0.2021697;0.3846003;1.762112;-0.5304911;0.04622809;1.824793;-0.3831328;-0.02236669;0.9399824;-0.1171742;0;0;0;0.9041579;1.733518;-0.5304943;1.195059;1.761567;-0.3831379;1.422139;0.8455336;-0.189252;1.51319;-0.08330393;-0.02567232;0.3258343;1.678925;1.595325;0.7664522;0.9344404;2.775349;0.9676509;0.6049626;4.065035;0.3258343;1.678925;1.595325;0.7664522;0.9344404;2.775349;0.9676509;0.6049626;4.065035
57874.3775;NotLabelled;16384;-0.1135734;0.3227147;-0.6776393;-0.6509695;-2;-5;0;-1094;3884;-137;65536;0.1385041;-0.2243767;0.6703601;0.6936058;-2;5;1;442;4115;374;8192;0.6482099;-0.5955678;0.2105263;0.4252077;-4;-3;2;1120;3947;-287;32768;0.566482;-0.6021714;0.3240997;0.4598338;-3;-1;2;-559;4111;678;256;0.6398892;-0.06371191;-0.7650998;-0.033241;-3;0;1;207;608;3995;128;-0.6177285;0.0734072;0.7783859;0.08448754;2;2;0;3;947;-4094;4;0.3144044;0.368421;-0.534626;-0.692525;0;-1;0;-3459;2042;-996;16;0.232687;-0.7107329;-0.06509695;0.6606648;0;-1;-1;-1665;1010;3600;2;0.5415512;-0.7005874;-0.365651;0.2867036;0;2;0;3287;2242;-613;8;0.02631579;-0.7119397;0.1731302;0.6800554;-1;0;0;847;1093;3837;0.6426555;1.682049;1.551927;0.642455;1.663788;1.006685;0.6422566;1.645716;0.5274866;0.6476036;1.742873;-0.1998336;0.3895989;1.762529;-0.528155;0.05122674;1.82521;-0.3807967;-0.02116776;0.9400141;-0.1171372;0;0;0;0.9091566;1.733935;-0.5281582;1.200057;1.761984;-0.3808018;1.429986;0.8462031;-0.1890928;1.521038;-0.08263433;-0.02551341;0.3308329;1.679342;1.597661;0.7714509;0.9348574;2.777685;0.9726499;0.6053796;4.067371;0.3308329;1.679342;1.597661;0.7714509;0.9348574;2.777685;0.9726499;0.6053796;4.067371
57894.7649;NotLabelled;16384;-0.1135734;0.3240997;-0.6769779;-0.6509695;1;3;-1;-1242;3896;-467;65536;0.1385041;-0.2257618;0.6689751;0.6944931;0;0;1;486;4017;206;8192;0.6469345;-0.5969529;0.2105263;0.4252077;3;0;0;1198;3827;-589;32768;0.566482;-0.6021714;0.3240997;0.4598338;0;5;0;-667;3923;642;256;0.6398892;-0.06371191;-0.7650998;-0.033241;-3;0;1;175;656;3935;128;-0.6177285;0.07202215;0.7785153;0.08448754;1;0;0;-9;1059;-3946;4;0.3144044;0.368421;-0.534626;-0.692525;0;0;1;-3483;2102;-962;16;0.232687;-0.7107329;-0.06509695;0.6606648;0;0;-1;-1631;876;3596;2;0.5415512;-0.7005874;-0.365651;0.2867036;0;-1;-1;3357;2206;-563;8;0.02631579;-0.712275;0.1717452;0.6800554;-2;2;0;889;1037;3831;0.6396438;1.683448;1.549442;0.6394333;1.664241;1.004233;0.639226;1.645336;0.5250664;0.6445171;1.742493;-0.2022544;0.3864874;1.762149;-0.5305555;0.04812647;1.82483;-0.3831715;-0.02391939;0.9396818;-0.1192563;0;0;0;0.9060449;1.733555;-0.5305991;1.196957;1.761605;-0.3832648;1.424063;0.8452351;-0.1910012;1.515128;-0.08360243;-0.02742803;0.3278221;1.680821;1.595186;0.7685308;0.9363363;2.775177;0.9698284;0.6068585;4.064848;0.3278221;1.680821;1.595186;0.7685308;0.9363363;2.775177;0.9698284;0.6068585;4.064848
57915.4212;NotLabelled;16384;-0.1135734;0.3254848;-0.6763132;-0.6509695;0;-1;0;-1446;4032;-171;65536;0.1371191;-0.2257618;0.6689751;0.6947678;0;1;1;492;4183;392;8192;0.6472992;-0.5955678;0.2105263;0.4265928;-1;0;1;1610;4267;-215;32768;0.5650969;-0.6034714;0.3240997;0.4598338;0;0;1;-523;4151;680;256;0.6398892;-0.06232687;-0.7652727;-0.03185596;-6;0;0;253;470;4179;128;-0.6163435;0.0734072;0.7794831;0.08448754;-3;-1;0;-91;823;-4068;4;0.3144044;0.368421;-0.534626;-0.692525;-1;-3;0;-3543;2164;-934;16;0.2313019;-0.7111848;-0.06509695;0.6606648;0;-2;0;-1651;1002;3700;2;0.5415512;-0.7005874;-0.365651;0.2867036;0;0;0;3433;2318;-581;8;0.02493075;-0.7123249;0.1717452;0.6800554;-1;-2;0;903;1013;3893;0.6390594;1.684223;1.54494;0.638859;1.665953;0.9996986;0.6386606;1.647872;0.5205;0.6438193;1.742182;-0.2071956;0.3857376;1.760468;-0.5355363;0.04737673;1.823615;-0.3883511;-0.02427782;0.9394386;-0.1210942;0;0;0;0.9053046;1.732043;-0.53554;1.196228;1.760764;-0.3883573;1.426587;0.8454757;-0.1948181;1.515115;-0.08317327;-0.02880251;0.327237;1.681518;1.590673;0.7682717;0.9370327;2.770542;0.9683188;0.6099234;4.06101;0.327237;1.681518;1.590673;0.7682717;0.9370327;2.770542;0.9683188;0.6099234;4.06101
57936.3787;NotLabelled;16384;-0.1121884;0.3240997;-0.6772088;-0.6509695;0;-3;0;-1194;3930;-257;65536;0.1371191;-0.2257618;0.6689751;0.6947678;0;0;1;500;3873;228;8192;0.647748;-0.5955678;0.2091413;0.4265928;-2;0;1;1076;3767;-521;32768;0.5650969;-0.6034714;0.3240997;0.4598338;0;0;0;-525;3807;438;256;0.6398892;-0.06232687;-0.7653291;-0.03047091;-3;1;0;347;458;3945;128;-0.6163435;0.0734072;0.7794831;0.08448754;0;0;0;-105;963;-4092;4;0.3144044;0.368421;-0.534626;-0.692525;0;-2;0;-3489;2046;-1008;16;0.2313019;-0.7098957;-0.06509695;0.6620498;0;-4;0;-1685;880;3688;2;0.5415512;-0.7005874;-0.365651;0.2867036;0;0;0;3485;2310;-639;8;0.02493075;-0.7119895;0.1731302;0.6800554;0;-2;0;873;1035;3917;0.6394575;1.685054;1.545267;0.6392569;1.666785;1.000026;0.6390585;1.648704;0.5208272;0.6442984;1.74146;-0.2070678;0.3862105;1.75951;-0.5354162;0.04798027;1.823572;-0.3883263;-0.02427964;0.9394372;-0.1210938;0;0;0;0.9057258;1.730158;-0.5354195;1.196718;1.758673;-0.3883322;1.428428;0.8440111;-0.1934522;1.516959;-0.08463812;-0.02743733;0.3276349;1.682349;1.591001;0.7686893;0.9378641;2.770862;0.9736776;0.6118002;4.06082;0.3276349;1.682349;1.591001;0.7686893;0.9378641;2.770862;0.9736776;0.6118002;4.06082
57956.6466;NotLabelled;16384;-0.1135734;0.3240997;-0.6769779;-0.6509695;1;4;0;-1134;3678;-257;65536;0.1371191;-0.2257618;0.6689751;0.6947678;0;2;1;400;4227;286;8192;0.6472992;-0.5955678;0.2105263;0.4265928;0;-5;-1;1156;3941;-339;32768;0.5650969;-0.6034714;0.3240997;0.4598338;0;0;0;-495;4127;668;256;0.6398892;-0.06094183;-0.7654407;-0.03047091;-4;0;1;191;502;4015;128;-0.6163435;0.07202215;0.7796123;0.08448754;0;0;0;5;959;-3944;4;0.3144044;0.368421;-0.534626;-0.692525;0;0;1;-3531;2034;-928;16;0.2313019;-0.7098957;-0.06509695;0.6620498;0;2;0;-1719;946;3570;2;0.5415512;-0.7005874;-0.365651;0.2867036;0;-2;0;3563;2210;-629;8;0.02493075;-0.711;0.1717452;0.6814404;0;2;0;769;1083;3905;0.6395494;1.690263;1.547209;0.6393389;1.671048;1.002001;0.6391315;1.652137;0.5228339;0.6441055;1.743597;-0.2052271;0.3859484;1.760513;-0.5335814;0.04759794;1.824126;-0.3865727;-0.0243192;0.9394372;-0.1210854;0;0;0;0.9055245;1.732258;-0.5335839;1.19647;1.76165;-0.3865771;1.426866;0.8463624;-0.1930822;1.515451;-0.0822866;-0.02709627;0.3277278;1.687637;1.592953;0.7691665;0.9431512;2.772671;0.974575;0.6170881;4.062562;0.3277278;1.687637;1.592953;0.7691665;0.9431512;2.772671;0.974575;0.6170881;4.062562
57977.337;NotLabelled;16384;-0.1135734;0.3254848;-0.6763132;-0.6509695;0;1;0;-1270;3876;-317;65536;0.1371191;-0.2271468;0.6689751;0.6943163;0;1;0;512;3995;254;8192;0.646022;-0.5969529;0.2105263;0.4265928;0;-5;0;1146;3781;-337;32768;0.5650969;-0.6034714;0.3240997;0.4598338;0;-3;-1;-541;3941;410;256;0.6398892;-0.06094183;-0.7654946;-0.02908587;-3;0;0;163;518;3943;128;-0.6163435;0.07202215;0.7796123;0.08448754;3;-1;0;-1;997;-4010;4;0.3144044;0.368421;-0.534626;-0.692525;0;-1;1;-3549;2032;-956;16;0.2313019;-0.7098957;-0.06509695;0.6620498;0;1;0;-1609;808;3700;2;0.5415512;-0.7005874;-0.365651;0.2867036;0;0;0;3437;2266;-627;8;0.02493075;-0.711;0.1717452;0.6814404;0;6;0;793;975;3839;0.6398976;1.690415;1.543902;0.6396866;1.6712;0.9986936;0.639479;1.652289;0.5195271;0.6445294;1.742196;-0.2087269;0.3863639;1.758875;-0.537087;0.04814468;1.823402;-0.3901747;-0.0234338;0.9392257;-0.1228974;0;0;0;0.9058889;1.729695;-0.5370895;1.196903;1.75888;-0.3901787;1.424471;0.8433437;-0.1945217;1.513059;-0.08530545;-0.02853692;0.3280759;1.687789;1.589647;0.7695346;0.9433038;2.769357;0.9749646;0.61724;4.059245;0.3280759;1.687789;1.589647;0.7695346;0.9433038;2.769357;0.9749646;0.61724;4.059245
57997.7281;NotLabelled;16384;-0.1135734;0.3254848;-0.6763132;-0.6509695;1;4;0;-1274;3716;-265;65536;0.1371191;-0.2271468;0.6689751;0.6943163;0;2;0;470;4111;264;8192;0.6451053;-0.5969529;0.2105263;0.4279778;0;-6;-2;1386;4149;-151;32768;0.5650969;-0.6024135;0.3240997;0.4612188;0;-3;-1;-507;4129;662;256;0.6398892;-0.05955679;-0.7656036;-0.02908587;-5;0;0;199;552;3945;128;-0.6149584;0.07202215;0.780854;0.08310249;3;-1;0;-73;927;-3976;4;0.3144044;0.368421;-0.534626;-0.692525;-1;-1;0;-3479;2078;-910;16;0.2313019;-0.7098957;-0.06509695;0.6620498;0;0;0;-1569;1070;3702;2;0.5415512;-0.7005874;-0.365651;0.2867036;0;0;0;3455;2312;-651;8;0.02493075;-0.7126574;0.1703601;0.6800554;1;-1;0;923;1015;3937;0.640246;1.695551;1.544045;0.6400222;1.675136;0.9988806;0.6398033;1.655169;0.5197568;0.6445927;1.74378;-0.2086577;0.3863603;1.759325;-0.5370208;0.04802016;1.823402;-0.3901902;-0.02347287;0.9392252;-0.1228897;0;0;0;0.9059457;1.731241;-0.5370235;1.196913;1.761304;-0.390195;1.424892;0.8462706;-0.1926758;1.516029;-0.08209562;-0.02649164;0.3284254;1.693025;1.589803;0.7702614;0.9485402;2.769372;0.9761045;0.6224768;4.059193;0.3284254;1.693025;1.589803;0.7702614;0.9485402;2.769372;0.9761045;0.6224768;4.059193
58018.6078;NotLabelled;16384;-0.1135734;0.3254848;-0.6763132;-0.6509695;1;0;0;-1258;4066;-187;65536;0.1371191;-0.2271468;0.6689751;0.6943163;0;0;0;586;4007;256;8192;0.6463842;-0.5955678;0.2105263;0.4279778;0;0;0;1304;3785;-445;32768;0.5650969;-0.6024135;0.3240997;0.4612188;0;1;0;-621;3937;726;256;0.6398892;-0.05955679;-0.7656036;-0.02908587;-2;0;0;453;464;3985;128;-0.6149584;0.07202215;0.780854;0.08310249;0;1;0;-183;917;-4010;4;0.3157895;0.368421;-0.534626;-0.6918945;0;-2;-1;-3415;2082;-1000;16;0.2313019;-0.7098957;-0.06509695;0.6620498;0;0;0;-1663;980;3734;2;0.5415512;-0.7005874;-0.365651;0.2867036;0;3;0;3329;2282;-587;8;0.02493075;-0.7123249;0.1717452;0.6800554;1;-2;0;809;1023;3921;0.6402457;1.695551;1.544045;0.640022;1.675135;0.9988803;0.639803;1.655169;0.5197566;0.6445925;1.74378;-0.2086579;0.3863601;1.759325;-0.5370209;0.04801995;1.823402;-0.3901904;-0.02347306;0.9392251;-0.1228898;0;0;0;0.9059454;1.731241;-0.5370239;1.196912;1.761304;-0.3901951;1.427737;0.8465143;-0.1948646;1.518874;-0.08185244;-0.02868032;0.3284253;1.693025;1.589803;0.7705204;0.9510201;2.770836;0.9763633;0.6249565;4.060658;0.3284253;1.693025;1.589803;0.7705204;0.9510201;2.770836;0.9763633;0.6249565;4.060658
58039.719;NotLabelled;16384;-0.1135734;0.3254848;-0.6763132;-0.6509695;0;0;0;-1230;3892;-229;65536;0.1371191;-0.2271468;0.6689751;0.6943163;0;0;0;448;4087;234;8192;0.6451053;-0.5969529;0.2105263;0.4279778;-1;0;0;1110;3729;-419;32768;0.5650969;-0.6024135;0.3240997;0.4612188;0;0;0;-595;4043;596;256;0.6398892;-0.05955679;-0.7656549;-0.02770083;-3;0;0;189;544;3939;128;-0.6149584;0.07202215;0.780854;0.08310249;1;0;0;-29;967;-4068;4;0.3157895;0.368421;-0.534626;-0.6918945;0;0;-1;-3431;2108;-910;16;0.2313019;-0.7098957;-0.06509695;0.6620498;0;0;0;-1711;896;3652;2;0.5415512;-0.7005874;-0.365651;0.2867036;0;4;1;3321;2214;-565;8;0.02493075;-0.711;0.1717452;0.6814404;0;0;0;819;1155;3791;0.6415851;1.695729;1.542461;0.6413613;1.675314;0.997296;0.6411424;1.655348;0.5181721;0.6460159;1.742405;-0.2104292;0.3877784;1.757713;-0.5387995;0.0495678;1.822704;-0.392072;-0.02347291;0.939225;-0.1228891;0;0;0;0.9073132;1.728703;-0.538793;1.198348;1.75856;-0.3920572;1.424717;0.8435423;-0.1926193;1.515854;-0.08482456;-0.02643514;0.3297645;1.693204;1.588218;0.7718597;0.9511991;2.769252;0.9777026;0.6251354;4.059073;0.3297645;1.693204;1.588218;0.7718597;0.9511991;2.769252;0.9777026;0.6251354;4.059073
58060.4024;NotLabelled;16384;-0.1135734;0.3254848;-0.6763132;-0.6509695;0;0;0;-1180;4010;-187;65536;0.1371191;-0.2271468;0.6689751;0.6943163;0;1;2;430;4067;370;8192;0.6463842;-0.5955678;0.2105263;0.4279778;0;1;0;1342;4101;-259;32768;0.5650969;-0.6024135;0.3240997;0.4612188;1;-1;-1;-389;4125;696;256;0.6385041;-0.05955679;-0.7668104;-0.02770083;-1;0;0;255;448;4015;128;-0.6149584;0.07202215;0.780854;0.08310249;1;0;0;-59;939;-4008;4;0.3157895;0.368421;-0.534626;-0.6918945;0;-1;0;-3369;2068;-860;16;0.2313019;-0.7086014;-0.06509695;0.6634349;0;-1;0;-1603;974;3530;2;0.5415512;-0.7004285;-0.367036;0.2853186;0;0;0;3367;2276;-607;8;0.02631579;-0.7112833;0.1703601;0.6814404;0;3;0;823;1029;3829;0.6386082;1.696391;1.544175;0.6383841;1.675976;0.9990103;0.638165;1.65601;0.5198866;0.6430411;1.742993;-0.2087235;0.3847997;1.758324;-0.5370892;0.04660641;1.823402;-0.390361;-0.0239182;0.9392252;-0.1228035;0;0;0;0.9043282;1.729203;-0.5370917;1.195372;1.759011;-0.390365;1.426903;0.8442209;-0.1958716;1.518642;-0.08414578;-0.03001904;0.3267877;1.693866;1.589933;0.773157;0.9518602;2.769357;0.9885939;0.6268456;4.057876;0.3267877;1.693866;1.589933;0.773157;0.9518602;2.769357;0.9885939;0.6268456;4.057876
58082.1097;NotLabelled;16384;-0.1135734;0.3254848;-0.6763132;-0.6509695;1;4;1;-1314;3802;-375;65536;0.1371191;-0.2271468;0.6689751;0.6943163;0;-1;0;552;4031;334;8192;0.6451053;-0.5969529;0.2105263;0.4279778;0;-4;-1;1206;3833;-301;32768;0.5650969;-0.6024135;0.3240997;0.4612188;0;0;-1;-625;3925;482;256;0.6385041;-0.05817174;-0.7669167;-0.02770083;-1;0;0;149;546;3899;128;-0.6149584;0.07202215;0.780854;0.08310249;2;0;0;-47;1005;-3968;4;0.3157895;0.368421;-0.534626;-0.6918945;0;0;1;-3461;2028;-970;16;0.2313019;-0.7098957;-0.06509695;0.6620498;0;2;0;-1601;986;3654;2;0.5415512;-0.6998628;-0.367036;0.2867036;-1;0;0;3363;2242;-635;8;0.02631579;-0.7112833;0.1703601;0.6814404;0;4;0;869;1069;3839;0.6388439;1.699272;1.544378;0.6386201;1.678857;0.9992126;0.6384012;1.658891;0.5200886;0.6430227;1.74458;-0.2086766;0.3847175;1.758777;-0.5370433;0.04640144;1.823402;-0.3903977;-0.02395645;0.9392253;-0.1227961;0;0;0;0.9043063;1.730755;-0.5370463;1.195301;1.761441;-0.3904024;1.424118;0.8464075;-0.1938527;1.515907;-0.08195889;-0.02802777;0.3270234;1.696746;1.590135;0.7737603;0.9547416;2.769421;0.9846746;0.628678;4.058423;0.3270234;1.696746;1.590135;0.7737603;0.9547416;2.769421;0.9846746;0.628678;4.058423
58103.357;NotLabelled;16384;-0.1135734;0.3268698;-0.6743076;-0.6523545;1;-1;0;-1340;3846;-219;65536;0.1371191;-0.2271468;0.6689751;0.6943163;0;-4;0;544;4065;266;8192;0.6446517;-0.5969529;0.2119114;0.4279778;-1;0;-1;1430;4007;-247;32768;0.5650969;-0.6024135;0.3240997;0.4612188;0;0;0;-533;4081;594;256;0.6385041;-0.05817174;-0.7669167;-0.02770083;-2;0;1;167;524;4041;128;-0.6149584;0.07202215;0.780854;0.08310249;1;0;0;-153;937;-4002;4;0.3157895;0.367036;-0.534626;-0.6926302;0;-1;1;-3469;2108;-928;16;0.2313019;-0.7086014;-0.06509695;0.6634349;0;-1;0;-1555;988;3646;2;0.5429363;-0.6995146;-0.365651;0.2867036;0;0;0;3307;2234;-651;8;0.02493075;-0.7113332;0.1703601;0.6814404;0;-5;-1;917;1075;3825;0.6351147;1.698873;1.54211;0.6348907;1.678457;0.9969453;0.6346718;1.658491;0.5178213;0.6392933;1.74418;-0.2109439;0.3809882;1.758378;-0.5393106;0.04267211;1.823002;-0.3926648;-0.02395657;0.9392259;-0.122796;0;0;0;0.900577;1.730355;-0.5393134;1.191572;1.761041;-0.3926697;1.418952;0.8453853;-0.1973581;1.510742;-0.08298159;-0.03153312;0.3232941;1.696347;1.587868;0.7726055;0.951911;2.764641;0.9884436;0.6268964;4.053093;0.3232941;1.696347;1.587868;0.7726055;0.951911;2.764641;0.9884436;0.6268964;4.053093
58123.3479;NotLabelled;16384;-0.1135734;0.3254848;-0.6749773;-0.6523545;0;-3;0;-1252;3870;-287;65536;0.1371191;-0.2271468;0.6689751;0.6943163;0;-1;0;380;4077;310;8192;0.6451053;-0.5969529;0.2105263;0.4279778;0;2;1;1460;3837;-367;32768;0.5650969;-0.6024135;0.3240997;0.4612188;1;0;0;-505;4037;718;256;0.6385041;-0.05817174;-0.7669654;-0.02631579;-2;0;0;289;458;3997;128;-0.6135734;0.07202215;0.7819428;0.08310249;0;0;0;-15;883;-3984;4;0.3171745;0.367036;-0.534626;-0.6919971;0;-1;0;-3463;2114;-846;16;0.2313019;-0.7086014;-0.06509695;0.6634349;0;-2;0;-1599;942;3652;2;0.5429363;-0.6995146;-0.365651;0.2867036;0;0;0;3311;2304;-551;8;0.02493075;-0.7113332;0.1703601;0.6814404;0;-2;0;803;1021;3867;0.635245;1.700293;1.544174;0.6350211;1.679868;0.9990094;0.634802;1.659893;0.519886;0.6394892;1.744024;-0.2090599;0.3811707;1.757983;-0.5374262;0.04298746;1.823521;-0.3908797;-0.02395896;0.939225;-0.122796;0;0;0;0.900709;1.729038;-0.5374296;1.191775;1.759518;-0.3908848;1.420534;0.8444848;-0.194267;1.512327;-0.08388162;-0.02844405;0.3234246;1.697768;1.589932;0.7730219;0.9558105;2.768159;0.9888828;0.6307962;4.056607;0.3234246;1.697768;1.589932;0.7730219;0.9558105;2.768159;0.9888828;0.6307962;4.056607
58144.5419;NotLabelled;16384;-0.1135734;0.3254848;-0.6763132;-0.6509695;-2;5;1;-1184;3910;-183;65536;0.1385041;-0.2285319;0.6689751;0.6935865;0;2;0;506;4109;312;8192;0.6451053;-0.5969529;0.2105263;0.4279778;0;-4;0;1242;4073;-211;32768;0.5650969;-0.6016663;0.3254848;0.4612188;0;-3;0;-535;4103;636;256;0.6385041;-0.05817174;-0.7669654;-0.02631579;-1;-1;0;217;520;4001;128;-0.6135734;0.07202215;0.7819428;0.08310249;0;-1;0;-23;977;-4014;4;0.3171745;0.367036;-0.534626;-0.6919971;0;-1;0;-3435;2096;-958;16;0.2313019;-0.7086014;-0.06509695;0.6634349;0;-1;0;-1681;996;3654;2;0.5415512;-0.7005874;-0.365651;0.2867036;0;0;0;3393;2198;-603;8;0.02493075;-0.7113332;0.1703601;0.6814404;0;0;0;927;1041;3865;0.639957;1.700208;1.544709;0.6397331;1.679783;0.9995446;0.639514;1.659808;0.520421;0.6442012;1.74394;-0.2085248;0.3858827;1.757898;-0.5368911;0.04769947;1.823436;-0.3903446;-0.02273707;0.9392595;-0.1227636;0;0;0;0.9054209;1.728953;-0.5368944;1.196487;1.759433;-0.3903497;1.425246;0.8444002;-0.1937327;1.516658;-0.08437693;-0.03001237;0.3281366;1.697683;1.590467;0.7777339;0.9557257;2.768694;0.9935952;0.6307108;4.057142;0.3281366;1.697683;1.590467;0.7777339;0.9557257;2.768694;0.9935952;0.6307108;4.057142
58165.4121;NotLabelled;16384;-0.1135734;0.3268698;-0.6756448;-0.6509695;0;-1;0;-1286;3828;-373;65536;0.1371191;-0.2285319;0.6689751;0.6938616;0;-1;-1;484;4125;300;8192;0.646022;-0.5969529;0.2105263;0.4265928;0;2;-2;1102;3903;-433;32768;0.5650969;-0.6016663;0.3254848;0.4612188;0;3;-1;-523;3963;700;256;0.6385041;-0.05817174;-0.7669654;-0.02631579;0;0;0;275;554;3913;128;-0.6135734;0.0734072;0.781814;0.08310249;0;0;0;-121;969;-3976;4;0.3171745;0.367036;-0.534626;-0.6919971;0;0;0;-3397;2060;-910;16;0.2313019;-0.7086014;-0.06509695;0.6634349;0;1;0;-1631;980;3598;2;0.5415512;-0.7005874;-0.365651;0.2867036;0;0;0;3327;2318;-617;8;0.02493075;-0.7100037;0.1703601;0.6828254;0;-2;0;873;1085;3847;0.6392602;1.697674;1.541145;0.6390466;1.67819;0.9959458;0.6388366;1.659042;0.5167888;0.6435238;1.743174;-0.212157;0.3852054;1.757132;-0.5405238;0.04702213;1.82267;-0.3939765;-0.0230715;0.939009;-0.1246083;0;0;0;0.9047436;1.728187;-0.5405265;1.19581;1.758667;-0.3939819;1.424226;0.8431311;-0.1993166;1.515638;-0.08564544;-0.03559649;0.3274388;1.69507;1.586892;0.7770362;0.9531116;2.765119;0.9928976;0.6280973;4.053567;0.3274388;1.69507;1.586892;0.7770362;0.9531116;2.765119;0.9928976;0.6280973;4.053567
58185.4877;NotLabelled;16384;-0.1149584;0.3268698;-0.6754105;-0.6509695;-1;-1;0;-1356;3956;-75;65536;0.1385041;-0.2285319;0.6689751;0.6935865;-1;3;0;486;4175;262;8192;0.6456537;-0.5983379;0.2105263;0.4252077;0;0;-4;1302;4039;-209;32768;0.566482;-0.6011112;0.3240997;0.4612188;-1;0;-3;-505;4127;620;256;0.6398892;-0.05817174;-0.7658103;-0.02631579;2;1;0;187;464;4041;128;-0.6135734;0.0734072;0.781814;0.08310249;-3;0;0;-55;945;-3976;4;0.3171745;0.367036;-0.536011;-0.6909248;0;1;0;-3419;2076;-910;16;0.2299169;-0.709052;-0.06509695;0.6634349;0;-1;-1;-1593;974;3556;2;0.5415512;-0.7005874;-0.365651;0.2867036;-1;2;0;3417;2212;-601;8;0.02493075;-0.7100037;0.1703601;0.6828254;0;3;0;841;1039;3879;0.641739;1.698514;1.545172;0.6415251;1.679029;0.9999726;0.641315;1.659881;0.5208155;0.6459889;1.744087;-0.2081222;0.3876695;1.758024;-0.5364883;0.04947171;1.823478;-0.3899369;-0.02229432;0.93926;-0.1228444;0;0;0;0.9072136;1.729187;-0.5364913;1.198273;1.759713;-0.3899417;1.42206;0.8434403;-0.1933763;1.515831;-0.08510971;-0.02970099;0.3299176;1.69591;1.590919;0.7710148;0.9528296;2.771649;0.9806338;0.6301785;4.06172;0.3299176;1.69591;1.590919;0.7710148;0.9528296;2.771649;0.9806338;0.6301785;4.06172
58205.7763;NotLabelled;16384;-0.1149584;0.3268698;-0.6754105;-0.6509695;1;2;0;-1218;3814;-221;65536;0.1398892;-0.2299169;0.66759;0.694185;-1;5;-1;494;3977;140;8192;0.6452005;-0.5983379;0.2119114;0.4252077;-2;-4;-4;1258;3857;-399;32768;0.566482;-0.600046;0.3240997;0.4626039;-1;-3;-3;-711;3977;700;256;0.6385041;-0.05955679;-0.7668104;-0.02770083;4;1;0;169;604;3899;128;-0.6135734;0.0734072;0.781814;0.08310249;0;2;0;-109;1065;-3996;4;0.3171745;0.367036;-0.534626;-0.6919971;0;1;0;-3323;1992;-1020;16;0.2313019;-0.7086014;-0.06509695;0.6634349;0;1;0;-1625;946;3618;2;0.5415512;-0.7005874;-0.365651;0.2867036;0;1;0;3421;2202;-543;8;0.02493075;-0.7100037;0.1703601;0.6828254;0;0;0;783;1107;3809;0.6368216;1.694622;1.543981;0.6366078;1.675138;0.9987822;0.6363975;1.655989;0.5196248;0.6412737;1.742972;-0.2089851;0.3830324;1.758303;-0.5373511;0.04483896;1.823381;-0.3906228;-0.02508753;0.9391637;-0.123043;0;0;0;0.9025608;1.729182;-0.5373537;1.193605;1.758991;-0.390627;1.417365;0.8421025;-0.1969173;1.514173;-0.08615363;-0.03334761;0.3250003;1.692018;1.589728;0.7742095;0.9500604;2.768104;0.9896465;0.6250453;4.056623;0.3250003;1.692018;1.589728;0.7742095;0.9500604;2.768104;0.9896465;0.6250453;4.056623
58226.3631;NotLabelled;16384;-0.1135734;0.3268698;-0.6756448;-0.6509695;2;-2;-3;-1286;3742;-201;65536;0.1398892;-0.2299169;0.66759;0.694185;-3;7;-1;498;4123;174;8192;0.6452005;-0.5983379;0.2119114;0.4252077;0;0;2;1472;3919;-347;32768;0.566482;-0.5989756;0.3240997;0.4639889;2;0;1;-601;3995;562;256;0.6385041;-0.05955679;-0.7667591;-0.02908587;2;1;0;397;624;4025;128;-0.6135734;0.0734072;0.7816655;0.08448754;-3;2;0;-129;1003;-4058;4;0.3171745;0.367036;-0.534626;-0.6919971;1;3;0;-3359;2050;-882;16;0.2313019;-0.7086014;-0.06509695;0.6634349;0;0;0;-1697;1022;3652;2;0.5415512;-0.7004285;-0.367036;0.2853186;0;3;0;3345;2276;-567;8;0.02493075;-0.7100037;0.1703601;0.6828254;0;2;0;761;1067;3855;0.6372731;1.690938;1.542016;0.6370724;1.672648;0.9967754;0.6368737;1.65455;0.5175772;0.6416785;1.74309;-0.2108455;0.3834477;1.758659;-0.5392085;0.04512247;1.822824;-0.3923823;-0.02508533;0.9391632;-0.1230429;0;0;0;0.9030271;1.730462;-0.5392118;1.194001;1.760475;-0.3923877;1.417758;0.8435874;-0.1986747;1.517069;-0.08437109;-0.03491223;0.3254505;1.688235;1.58775;0.7746403;0.9462764;2.766133;0.9900555;0.6212616;4.054655;0.3254505;1.688235;1.58775;0.7746403;0.9462764;2.766133;0.9900555;0.6212616;4.054655
58246.6233;NotLabelled;16384;-0.1121884;0.3282548;-0.6765372;-0.6495845;0;2;-6;-1306;4034;-241;65536;0.1412742;-0.2313019;0.666205;0.6947747;-2;5;-3;416;4127;482;8192;0.6469345;-0.5969529;0.2105263;0.4252077;-1;1;1;1280;3909;-197;32768;0.566482;-0.5989756;0.3240997;0.4639889;1;-1;1;-521;4033;616;256;0.6385041;-0.05955679;-0.7667591;-0.02908587;1;1;1;103;630;4005;128;-0.6121883;0.0734072;0.7826;0.08587258;-2;0;-2;-47;985;-4042;4;0.3157895;0.367036;-0.534626;-0.6926302;0;2;0;-3467;2130;-976;16;0.2313019;-0.7086014;-0.06509695;0.6634349;-1;5;0;-1651;990;3650;2;0.5415512;-0.7004285;-0.367036;0.2853186;0;2;0;3305;2278;-591;8;0.02493075;-0.7090006;0.1689751;0.6842105;0;4;0;837;1093;3823;0.6382737;1.686804;1.536923;0.638086;1.669699;0.9916445;0.6378988;1.652642;0.5124084;0.6427721;1.741181;-0.2160142;0.3845724;1.756751;-0.5444015;0.04623327;1.820916;-0.3976073;-0.02745173;0.9390596;-0.123327;0;0;0;0.9041517;1.728553;-0.5443558;1.195112;1.758567;-0.3975046;1.423056;0.8429548;-0.2026453;1.522352;-0.08500421;-0.03887343;0.3264502;1.684001;1.582644;0.7752647;0.9395643;2.759606;0.990559;0.6145502;4.048148;0.3264502;1.684001;1.582644;0.7752647;0.9395643;2.759606;0.990559;0.6145502;4.048148
58267.748;NotLabelled;16384;-0.1121884;0.3282548;-0.6765372;-0.6495845;0;-2;-3;-1296;3846;-475;65536;0.1412742;-0.2313019;0.66482;0.6961002;0;-1;-1;456;4117;502;8192;0.6469345;-0.5969529;0.2105263;0.4252077;0;0;1;1184;3931;-345;32768;0.566482;-0.5989756;0.3240997;0.4639889;1;-1;0;-569;4125;702;256;0.6385041;-0.05955679;-0.7667053;-0.03047091;2;1;1;255;552;4057;128;-0.6121883;0.07479224;0.7824688;0.08587258;-4;1;0;-69;947;-4000;4;0.3157895;0.367036;-0.533241;-0.6936971;1;3;0;-3481;2112;-968;16;0.2313019;-0.7084728;-0.06648199;0.6634349;-1;1;0;-1591;1006;3586;2;0.5429363;-0.6993555;-0.367036;0.2853186;0;1;0;3277;2272;-585;8;0.02493075;-0.7090006;0.1689751;0.6842105;0;0;0;827;1097;3813;0.6348593;1.684597;1.538223;0.6346822;1.668432;0.992915;0.6345043;1.652202;0.51365;0.639233;1.742297;-0.2145828;0.3810117;1.758105;-0.5429414;0.04255645;1.821356;-0.3960181;-0.03106827;0.9389056;-0.12364;0;0;0;0.9006404;1.730831;-0.5429448;1.191544;1.76105;-0.3960238;1.419531;0.8450161;-0.2032058;1.51884;-0.08294249;-0.0394417;0.3230349;1.681715;1.583932;0.7761749;0.9384216;2.759958;0.9916803;0.615961;4.049107;0.3230349;1.681715;1.583932;0.7761749;0.9384216;2.759958;0.9916803;0.615961;4.049107
58288.3721;NotLabelled;16384;-0.1108033;0.3282548;-0.6767654;-0.6495845;2;-6;-1;-1118;3840;-591;65536;0.1412742;-0.2299169;0.66482;0.6965588;1;-4;0;378;4083;356;8192;0.6469345;-0.5969529;0.2105263;0.4252077;2;0;0;1234;3823;-343;32768;0.5650969;-0.5995327;0.3254848;0.4639889;1;-1;1;-575;3917;570;256;0.6385041;-0.06094183;-0.7665964;-0.03047091;2;0;0;197;598;3959;128;-0.6121883;0.07479224;0.7823156;0.08725762;-4;1;0;-9;1025;-3962;4;0.3157895;0.367036;-0.533241;-0.6936971;0;2;0;-3461;2064;-942;16;0.2313019;-0.7084728;-0.06648199;0.6634349;0;0;0;-1615;1002;3642;2;0.5429363;-0.6993555;-0.367036;0.2853186;0;0;0;3285;2256;-591;8;0.02493075;-0.7090006;0.1689751;0.6842105;0;0;0;913;1083;3911;0.6338934;1.679111;1.538114;0.6337291;1.664142;0.9927727;0.6335626;1.648962;0.5134732;0.6385531;1.740351;-0.2145966;0.3803978;1.757292;-0.5429511;0.04206258;1.820996;-0.3959469;-0.03193154;0.9391131;-0.121834;0;0;0;0.8999677;1.72892;-0.5429543;1.19092;1.758261;-0.395952;1.418832;0.8422272;-0.2030445;1.51514;-0.08597302;-0.03886175;0.3220676;1.676128;1.58381;0.7748324;0.9328349;2.759981;0.9899261;0.6103742;4.049199;0.3220676;1.676128;1.58381;0.7748324;0.9328349;2.759981;0.9899261;0.6103742;4.049199
58308.3481;NotLabelled;16384;-0.1108033;0.3282548;-0.6754333;-0.6509695;3;-3;0;-1100;3954;-343;65536;0.1412742;-0.2299169;0.666205;0.6952343;1;-1;0;376;4169;188;8192;0.6469345;-0.5969529;0.2105263;0.4252077;1;-4;1;1184;3839;-163;32768;0.5650969;-0.5995327;0.3254848;0.4639889;0;-1;1;-665;4139;618;256;0.6385041;-0.06094183;-0.7665401;-0.03185596;1;0;0;119;648;3859;128;-0.6121883;0.07479224;0.7823156;0.08725762;-1;0;0;29;1107;-3922;4;0.3157895;0.368421;-0.533241;-0.6929625;0;0;0;-3479;2110;-852;16;0.2313019;-0.7084728;-0.06648199;0.6634349;0;-1;0;-1669;960;3646;2;0.5429363;-0.6993555;-0.367036;0.2853186;0;0;1;3225;2218;-551;8;0.02493075;-0.7090006;0.1689751;0.6842105;-1;0;0;843;1033;3845;0.6342266;1.678514;1.537623;0.6340625;1.663546;0.992281;0.6338961;1.648366;0.5129817;0.6388056;1.74131;-0.2148919;0.3806577;1.758491;-0.5432395;0.04219326;1.82128;-0.3961392;-0.02832298;0.9392695;-0.1215218;0;0;0;0.9002771;1.731043;-0.5432423;1.191161;1.760589;-0.3961445;1.419069;0.8445544;-0.2032328;1.515375;-0.0836463;-0.03904855;0.3224009;1.675532;1.583318;0.7725698;0.934665;2.762013;0.9876413;0.6122043;4.051235;0.3224009;1.675532;1.583318;0.7725698;0.934665;2.762013;0.9876413;0.6122043;4.051235
58329.4823;NotLabelled;16384;-0.1108033;0.3282548;-0.6754333;-0.6509695;3;0;0;-1238;3966;-151;65536;0.1412742;-0.2299169;0.666205;0.6952343;0;-1;-2;600;3991;258;8192;0.6473836;-0.5969529;0.2091413;0.4252077;1;4;1;1254;3957;-311;32768;0.5650969;-0.600602;0.3254848;0.4626039;-1;3;2;-573;3865;456;256;0.6385041;-0.06094183;-0.7665401;-0.03185596;3;0;0;231;618;3841;128;-0.6121883;0.07479224;0.7823156;0.08725762;-1;-1;0;-33;1053;-3844;4;0.3157895;0.368421;-0.533241;-0.6929625;0;-1;-1;-3451;2082;-956;16;0.2313019;-0.7084728;-0.06648199;0.6634349;0;0;0;-1693;1028;3666;2;0.5429363;-0.6993555;-0.367036;0.2853186;1;0;0;3275;2204;-577;8;0.02493075;-0.7090006;0.1689751;0.6842105;0;-2;0;835;1029;3835;0.6342263;1.678514;1.537624;0.6340623;1.663546;0.9922817;0.6338959;1.648366;0.5129825;0.6388055;1.74131;-0.2148911;0.3806575;1.758491;-0.5432387;0.04219309;1.82128;-0.3961384;-0.02832317;0.9392695;-0.1215216;0;0;0;0.9002769;1.731043;-0.5432415;1.19116;1.760589;-0.3961437;1.420437;0.845175;-0.2019119;1.514235;-0.08331597;-0.03792238;0.3224008;1.675532;1.583319;0.7725697;0.934665;2.762014;0.987641;0.6122043;4.051236;0.3224008;1.675532;1.583319;0.7725697;0.934665;2.762014;0.987641;0.6122043;4.051236
58350.3553;NotLabelled;16384;-0.1094183;0.3282548;-0.675659;-0.6509695;0;-3;-5;-1286;3790;-159;65536;0.1426593;-0.2299169;0.666205;0.6949514;0;0;-2;412;4059;390;8192;0.6473836;-0.5969529;0.2091413;0.4252077;0;-1;1;1030;3863;-267;32768;0.5650969;-0.600602;0.3254848;0.4626039;-2;0;3;-713;4131;564;256;0.6385041;-0.06232687;-0.7663699;-0.033241;3;0;0;143;634;4053;128;-0.6108033;0.07617728;0.7831085;0.08864266;-3;-2;0;1;1005;-3954;4;0.3171745;0.368421;-0.533241;-0.6923296;0;-1;-1;-3293;2082;-946;16;0.2313019;-0.7084728;-0.06648199;0.6634349;-1;0;0;-1601;982;3578;2;0.5429363;-0.6993555;-0.367036;0.2853186;0;0;2;3345;2248;-561;8;0.0235457;-0.709048;0.1689751;0.6842105;-1;0;1;823;1131;3831;0.635072;1.669468;1.546931;0.6349313;1.656626;1.001535;0.6347854;1.643315;0.5221804;0.6396582;1.741942;-0.2049452;0.3814852;1.761774;-0.5331236;0.04305544;1.823525;-0.3855049;-0.02798568;0.939976;-0.116017;0;0;0;0.9010955;1.734153;-0.5333911;1.192003;1.762451;-0.3860946;1.42099;0.8454716;-0.199044;1.514782;-0.0836525;-0.03867173;0.3232445;1.666308;1.592602;0.7736256;0.9233253;2.769884;0.9886419;0.5958407;4.057847;0.3232445;1.666308;1.592602;0.7736256;0.9233253;2.769884;0.9886419;0.5958407;4.057847
58371.4808;NotLabelled;16384;-0.1080332;0.3282548;-0.6758819;-0.6509695;0;-3;-4;-1202;3960;-361;65536;0.1426593;-0.2299169;0.66482;0.6962765;1;-7;-3;490;4075;382;8192;0.6473836;-0.5969529;0.2091413;0.4252077;0;-1;3;1420;4005;-183;32768;0.5650969;-0.600602;0.3254848;0.4626039;0;1;4;-527;3971;690;256;0.6385041;-0.06232687;-0.7663699;-0.033241;4;0;0;295;516;3991;128;-0.6108033;0.07617728;0.7831085;0.08864266;-3;-1;0;-55;951;-3974;4;0.3171745;0.368421;-0.533241;-0.6923296;0;0;-1;-3335;2014;-998;16;0.2313019;-0.7084728;-0.06648199;0.6634349;-1;0;0;-1691;960;3476;2;0.5415512;-0.7004285;-0.367036;0.2853186;0;-1;2;3197;2262;-605;8;0.0235457;-0.709048;0.1689751;0.6842105;-2;1;0;779;1139;3809;0.6313031;1.669711;1.53519;0.6311622;1.656868;0.9897938;0.6310161;1.643558;0.5104388;0.6361079;1.739349;-0.217064;0.3780338;1.757902;-0.545395;0.03955976;1.820228;-0.3981203;-0.03155646;0.9393615;-0.120007;0;0;0;0.897644;1.73028;-0.5453984;1.188507;1.759152;-0.3981259;1.417716;0.8437387;-0.2038152;1.511459;-0.08475339;-0.03979266;0.3194756;1.66655;1.58086;0.7695014;0.9281634;2.761166;0.9841293;0.605702;4.050461;0.3194756;1.66655;1.58086;0.7695014;0.9281634;2.761166;0.9841293;0.605702;4.050461
58391.4392;NotLabelled;16384;-0.1080332;0.3282548;-0.6758819;-0.6509695;2;-4;-2;-1136;3794;-383;65536;0.1412742;-0.2271468;0.666205;0.6961443;1;-13;-3;528;4027;282;8192;0.6469182;-0.5969529;0.2077562;0.4265928;2;5;5;1400;3781;-461;32768;0.5650969;-0.6016663;0.3254848;0.4612188;1;6;6;-691;4021;614;256;0.6385041;-0.06232687;-0.7663086;-0.03462604;3;0;0;277;618;3841;128;-0.6108033;0.07617728;0.7831085;0.08864266;-1;0;0;-87;1001;-3892;4;0.3157895;0.368421;-0.533241;-0.6929625;0;0;-1;-3323;2062;-938;16;0.2313019;-0.7084728;-0.06648199;0.6634349;-2;2;0;-1647;940;3518;2;0.5415512;-0.7004285;-0.367036;0.2853186;0;-1;1;3181;2260;-517;8;0.0235457;-0.709048;0.1689751;0.6842105;-2;-1;1;837;1055;3789;0.633019;1.669148;1.536988;0.6328781;1.656305;0.9915922;0.6327319;1.642995;0.5122374;0.6377331;1.740341;-0.2150596;0.3796624;1.759132;-0.5433795;0.04106187;1.820542;-0.3960113;-0.03006408;0.9396768;-0.1179001;0;0;0;0.899321;1.732434;-0.5433829;1.190115;1.761511;-0.3960167;1.421034;0.8472259;-0.198445;1.512273;-0.08155155;-0.03462756;0.3211915;1.665987;1.582659;0.7709351;0.9251201;2.761517;0.9855409;0.6026592;4.050815;0.3211915;1.665987;1.582659;0.7709351;0.9251201;2.761517;0.9855409;0.6026592;4.050815
58411.3537;NotLabelled;16384;-0.1066482;0.3282548;-0.6761018;-0.6509695;4;-7;-4;-1324;3836;-281;65536;0.1398892;-0.2257618;0.666205;0.6968741;0;-11;-5;478;3947;160;8192;0.6473614;-0.5969529;0.2063712;0.4265928;3;5;7;1322;3785;-329;32768;0.5650969;-0.6027255;0.3254848;0.4598338;3;3;8;-589;4069;626;256;0.6385041;-0.06371191;-0.7661947;-0.03462604;3;0;0;205;678;3863;128;-0.6108033;0.07756232;0.7829725;0.08864266;0;0;0;-75;1123;-3790;4;0.3171745;0.368421;-0.533241;-0.6923296;0;0;-2;-3321;2084;-844;16;0.2313019;-0.7071732;-0.06648199;0.66482;-2;-1;-1;-1501;1006;3616;2;0.5415512;-0.7004285;-0.367036;0.2853186;1;-1;1;3273;2192;-529;8;0.02216066;-0.7090927;0.1689751;0.6842105;-2;-3;0;819;1041;3817;0.6316749;1.663889;1.534994;0.6315442;1.651985;0.9895769;0.6314071;1.6395;0.5101999;0.6366838;1.738138;-0.2169213;0.378685;1.758062;-0.5452311;0.04020074;1.819923;-0.3977839;-0.03123599;0.939635;-0.1179299;0;0;0;0.898286;1.730268;-0.545234;1.189127;1.758466;-0.3977884;1.42135;0.8448119;-0.1988319;1.510038;-0.08424473;-0.03520298;0.3198466;1.66065;1.580653;0.7694557;0.9222629;2.761117;0.9885602;0.6008594;4.049924;0.3198466;1.66065;1.580653;0.7694557;0.9222629;2.761117;0.9885602;0.6008594;4.049924
58431.5118;NotLabelled;16384;-0.1038781;0.3282548;-0.6765329;-0.6509695;3;-8;-5;-1480;3918;-105;65536;0.1398892;-0.2243767;0.666205;0.6973213;0;-6;-8;562;4183;204;8192;0.6468871;-0.5969529;0.2049861;0.4279778;4;2;10;1502;3795;-375;32768;0.5650969;-0.603031;0.3268698;0.4584487;7;1;15;-737;4011;712;256;0.6398892;-0.06371191;-0.7650384;-0.03462604;3;-1;0;137;680;3775;128;-0.6108033;0.07756232;0.7828144;0.0900277;-1;-1;0;45;1053;-3738;4;0.3171745;0.368421;-0.533241;-0.6923296;0;0;-2;-3341;2076;-922;16;0.2299169;-0.7076247;-0.06648199;0.66482;-3;-2;-1;-1651;870;3636;2;0.5415512;-0.6998628;-0.367036;0.2867036;0;-2;3;3267;2234;-627;8;0.02216066;-0.7090927;0.1689751;0.6842105;-3;-1;1;857;1003;3897;0.6327137;1.660727;1.533474;0.632596;1.650022;0.988032;0.6324702;1.63859;0.5086287;0.6377259;1.737298;-0.2184827;0.3797237;1.757191;-0.5467923;0.04122366;1.818955;-0.3993406;-0.03169088;0.9398324;-0.1162225;0;0;0;0.8993314;1.729523;-0.5467954;1.190165;1.757778;-0.3993458;1.423361;0.8452735;-0.1962954;1.508601;-0.08446014;-0.0346874;0.3208843;1.657388;1.579119;0.7662368;0.9190013;2.761195;0.9790989;0.5999556;4.051633;0.3208843;1.657388;1.579119;0.7662368;0.9190013;2.761195;0.9790989;0.5999556;4.051633
58452.3398;NotLabelled;16384;-0.101108;0.3282548;-0.6769524;-0.6509695;0;-10;-8;-1524;3682;-467;65536;0.1398892;-0.2188366;0.666205;0.6990798;2;-25;-21;768;4059;524;8192;0.6479805;-0.5955678;0.1966759;0.432133;13;11;26;1860;3205;-753;32768;0.566482;-0.6044084;0.3296399;0.4529086;17;15;29;-813;3967;918;256;0.6398892;-0.06648199;-0.7647386;-0.03601108;6;-6;-3;73;688;3585;128;-0.6108033;0.07894737;0.782676;0.0900277;0;-6;0;77;1147;-3586;4;0.3171745;0.3698061;-0.533241;-0.6915908;-1;-1;-3;-3499;2100;-958;16;0.2299169;-0.7074932;-0.06786703;0.66482;-3;1;0;-1651;898;3542;2;0.5415512;-0.6998628;-0.367036;0.2867036;1;0;4;3173;2166;-555;8;0.02077562;-0.7094632;0.16759;0.6842105;-4;0;1;863;1003;3805;0.6292771;1.651911;1.536455;0.6291699;1.642145;0.9909958;0.6290535;1.631539;0.5115733;0.6347809;1.734388;-0.2149608;0.3769326;1.756784;-0.5432295;0.03853655;1.818527;-0.3955303;-0.03505468;0.9405839;-0.1089492;0;0;0;0.8964716;1.727854;-0.5432321;1.187326;1.754559;-0.3955349;1.432142;0.8478377;-0.1806005;1.509218;-0.08390427;-0.02663934;0.3174468;1.648493;1.582088;0.7593575;0.912545;2.766974;0.9714094;0.5960593;4.058175;0.3174468;1.648493;1.582088;0.7593575;0.912545;2.766974;0.9714094;0.5960593;4.058175
58472.3793;NotLabelled;16384;-0.09695291;0.3296399;-0.6768873;-0.6509695;6;-16;-13;-1702;3478;-807;65536;0.1385041;-0.2132964;0.66759;0.6997463;6;-30;-29;802;3999;476;8192;0.647785;-0.5955678;0.1911357;0.434903;13;10;30;1486;3447;-301;32768;0.567867;-0.6057162;0.33241;0.4473684;17;0;32;-307;3953;406;256;0.6398892;-0.06786703;-0.764617;-0.03601108;7;-5;-3;-49;810;3429;128;-0.6094183;0.07894737;0.7837549;0.0900277;3;-4;0;53;1145;-3546;4;0.3185596;0.3698061;-0.533241;-0.690954;-2;-6;-4;-3401;2022;-1010;16;0.2285319;-0.7079418;-0.06786703;0.66482;-3;-2;-1;-1549;900;3600;2;0.5401662;-0.7009323;-0.367036;0.2867036;1;0;4;3173;2162;-569;8;0.02077562;-0.7094632;0.16759;0.6842105;-5;0;2;889;927;3793;0.6292018;1.647352;1.534918;0.6290943;1.637573;0.9894583;0.6289777;1.626955;0.5100363;0.6349964;1.731099;-0.216311;0.3772296;1.754627;-0.5445646;0.03894906;1.816817;-0.3967882;-0.03505811;0.9412335;-0.103182;0;0;0;0.8967065;1.724604;-0.5445678;1.187601;1.750431;-0.3967942;1.43815;0.8475565;-0.1724772;1.507229;-0.08606803;-0.02632093;0.3173715;1.643936;1.580551;0.7591133;0.9104804;2.767044;0.9691153;0.5963572;4.059156;0.3173715;1.643936;1.580551;0.7591133;0.9104804;2.767044;0.9691153;0.5963572;4.059156
58494.3726;NotLabelled;16384;-0.09141274;0.3296399;-0.6776577;-0.6509695;10;-26;-19;-1842;3442;-527;65536;0.1385041;-0.2077562;0.6689751;0.7000902;7;-34;-31;-14;3841;208;8192;0.6493364;-0.5941828;0.1869806;0.4362881;6;3;30;1262;3739;-125;32768;0.567867;-0.6064758;0.3365651;0.4432133;18;0;32;-455;4109;432;256;0.6398892;-0.06925207;-0.7644928;-0.03601108;6;-4;-1;25;704;3597;128;-0.6094183;0.07894737;0.7839127;0.08864266;1;-5;-1;-65;1063;-3518;4;0.3199446;0.3698061;-0.533241;-0.6903137;-1;-9;-6;-3395;1974;-980;16;0.2285319;-0.7066386;-0.06786703;0.666205;-4;-4;-1;-1629;850;3712;2;0.5387812;-0.7007037;-0.368421;0.2880886;1;-4;7;3055;2110;-517;8;0.01800554;-0.7095389;0.16759;0.6842105;-5;-9;2;857;993;3833;0.6301426;1.645755;1.53705;0.630022;1.634777;0.9916133;0.629894;1.623104;0.5122157;0.6361318;1.728542;-0.2139427;0.3784149;1.753204;-0.5421526;0.04026608;1.81584;-0.3942636;-0.03462935;0.9420531;-0.09557253;0;0;0;0.8978276;1.722087;-0.542212;1.188776;1.747036;-0.394393;1.446165;0.8466039;-0.1680125;1.50682;-0.08871102;-0.02910769;0.3183134;1.642439;1.582698;0.760003;0.9114816;2.770751;0.9746151;0.5984135;4.062362;0.3183134;1.642439;1.582698;0.760003;0.9114816;2.770751;0.9746151;0.5984135;4.062362
58536.6444;NotLabelled;16384;-0.08587258;0.3282548;-0.6790533;-0.6509695;4;-40;-24;-1462;3734;-195;65536;0.1385041;-0.200831;0.6703601;0.7007859;6;-31;-31;202;4321;162;8192;0.6499181;-0.5927978;0.1828255;0.4390582;6;9;31;1546;3759;-417;32768;0.567867;-0.6071776;0.3407202;0.4390582;22;10;33;-411;3987;572;256;0.6398892;-0.07063711;-0.7642995;-0.03739612;9;-5;-2;271;630;3589;128;-0.6094183;0.08033241;0.783772;0.08864266;-2;-6;0;-45;899;-3582;4;0.3213296;0.3698061;-0.534626;-0.688597;-1;-11;-7;-3263;1930;-892;16;0.2271468;-0.7070851;-0.06786703;0.666205;-5;-5;0;-1669;944;3594;2;0.5387812;-0.7001327;-0.368421;0.2894737;2;-5;8;3017;2206;-455;8;0.0166205;-0.7095727;0.16759;0.6842105;-6;-10;2;779;963;3825;0.6305574;1.638576;1.538776;0.6304471;1.628536;0.9933214;0.6303279;1.617688;0.5139045;0.636849;1.72597;-0.211833;0.3792529;1.752;-0.5400319;0.04107314;1.814164;-0.392014;-0.03480925;0.9429569;-0.08612368;0;0;0;0.8986555;1.720718;-0.540035;1.189561;1.744994;-0.3920197;1.454126;0.8486648;-0.1577699;1.506382;-0.08821321;-0.02617836;0.3187274;1.635181;1.584412;0.755836;0.9056098;2.77501;0.9682237;0.5949044;4.067558;0.3187274;1.635181;1.584412;0.755836;0.9056098;2.77501;0.9682237;0.5949044;4.067558
58557.3464;NotLabelled;16384;-0.07894737;0.3268698;-0.6805602;-0.6509695;4;-32;-22;-966;4054;-317;65536;0.1398892;-0.1939058;0.6703601;0.7024592;8;-28;-32;314;4187;386;8192;0.6505156;-0.5927978;0.1772853;0.4404432;13;18;31;1468;3477;-621;32768;0.5692521;-0.6082998;0.3434903;0.433518;22;14;31;-539;3907;604;256;0.6398892;-0.07202215;-0.7641012;-0.03878116;11;-5;-3;191;586;3681;128;-0.6094183;0.08171745;0.7836288;0.08864266;-3;-6;0;-39;965;-3562;4;0.3227147;0.3698061;-0.534626;-0.6879489;-1;-9;-9;-3129;1934;-858;16;0.2257618;-0.7075285;-0.06786703;0.666205;-6;-4;-1;-1637;870;3490;2;0.5373961;-0.700623;-0.368421;0.2908587;2;-4;10;3033;2096;-575;8;0.01385042;-0.7096322;0.16759;0.6842105;-8;-4;3;771;931;3785;0.6279671;1.631293;1.54218;0.6278669;1.622192;0.9967091;0.6277567;1.61217;0.5172741;0.6344843;1.723295;-0.2080315;0.3769743;1.750693;-0.5361863;0.03877915;1.812383;-0.3880059;-0.03811082;0.9437742;-0.0750616;0;0;0;0.8963671;1.719247;-0.5361897;1.187245;1.742851;-0.3880118;1.456921;0.850071;-0.1461527;1.501443;-0.08831048;-0.02268171;0.3161362;1.62782;1.587805;0.753021;0.9007609;2.78002;0.9633222;0.592423;4.073475;0.3161362;1.62782;1.587805;0.753021;0.9007609;2.78002;0.9633222;0.592423;4.073475
