SEP=;
index;label;RightUpperArm_boneIndex;RightUpperArm_quat9x_w;RightUpperArm_quat9x_x;RightUpperArm_quat9x_y;RightUpperArm_quat9x_z;RightUpperArm_gyroscope_x;RightUpperArm_gyroscope_y;RightUpperArm_gyroscope_z;RightUpperArm_accelerometer_x;RightUpperArm_accelerometer_y;RightUpperArm_accelerometer_z;RightLowerArm_boneIndex;RightLowerArm_quat9x_w;RightLowerArm_quat9x_x;RightLowerArm_quat9x_y;RightLowerArm_quat9x_z;RightLowerArm_gyroscope_x;RightLowerArm_gyroscope_y;RightLowerArm_gyroscope_z;RightLowerArm_accelerometer_x;RightLowerArm_accelerometer_y;RightLowerArm_accelerometer_z;LeftUpperArm_boneIndex;LeftUpperArm_quat9x_w;LeftUpperArm_quat9x_x;LeftUpperArm_quat9x_y;LeftUpperArm_quat9x_z;LeftUpperArm_gyroscope_x;LeftUpperArm_gyroscope_y;LeftUpperArm_gyroscope_z;LeftUpperArm_accelerometer_x;LeftUpperArm_accelerometer_y;LeftUpperArm_accelerometer_z;LeftLowerArm_boneIndex;LeftLowerArm_quat9x_w;LeftLowerArm_quat9x_x;LeftLowerArm_quat9x_y;LeftLowerArm_quat9x_z;LeftLowerArm_gyroscope_x;LeftLowerArm_gyroscope_y;LeftLowerArm_gyroscope_z;LeftLowerArm_accelerometer_x;LeftLowerArm_accelerometer_y;LeftLowerArm_accelerometer_z;Chest_boneIndex;Chest_quat9x_w;Chest_quat9x_x;Chest_quat9x_y;Chest_quat9x_z;Chest_gyroscope_x;Chest_gyroscope_y;Chest_gyroscope_z;Chest_accelerometer_x;Chest_accelerometer_y;Chest_accelerometer_z;Spine_boneIndex;Spine_quat9x_w;Spine_quat9x_x;Spine_quat9x_y;Spine_quat9x_z;Spine_gyroscope_x;Spine_gyroscope_y;Spine_gyroscope_z;Spine_accelerometer_x;Spine_accelerometer_y;Spine_accelerometer_z;RightUpperLeg_boneIndex;RightUpperLeg_quat9x_w;RightUpperLeg_quat9x_x;RightUpperLeg_quat9x_y;RightUpperLeg_quat9x_z;RightUpperLeg_gyroscope_x;RightUpperLeg_gyroscope_y;RightUpperLeg_gyroscope_z;RightUpperLeg_accelerometer_x;RightUpperLeg_accelerometer_y;RightUpperLeg_accelerometer_z;RightLowerLeg_boneIndex;RightLowerLeg_quat9x_w;RightLowerLeg_quat9x_x;RightLowerLeg_quat9x_y;RightLowerLeg_quat9x_z;RightLowerLeg_gyroscope_x;RightLowerLeg_gyroscope_y;RightLowerLeg_gyroscope_z;RightLowerLeg_accelerometer_x;RightLowerLeg_accelerometer_y;RightLowerLeg_accelerometer_z;LeftUpperLeg_boneIndex;LeftUpperLeg_quat9x_w;LeftUpperLeg_quat9x_x;LeftUpperLeg_quat9x_y;LeftUpperLeg_quat9x_z;LeftUpperLeg_gyroscope_x;LeftUpperLeg_gyroscope_y;LeftUpperLeg_gyroscope_z;LeftUpperLeg_accelerometer_x;LeftUpperLeg_accelerometer_y;LeftUpperLeg_accelerometer_z;LeftLowerLeg_boneIndex;LeftLowerLeg_quat9x_w;LeftLowerLeg_quat9x_x;LeftLowerLeg_quat9x_y;LeftLowerLeg_quat9x_z;LeftLowerLeg_gyroscope_x;LeftLowerLeg_gyroscope_y;LeftLowerLeg_gyroscope_z;LeftLowerLeg_accelerometer_x;LeftLowerLeg_accelerometer_y;LeftLowerLeg_accelerometer_z;pelvis_x;pelvis_y;pelvis_z;lowerSpine_x;lowerSpine_y;lowerSpine_z;middleSpine_x;middleSpine_y;middleSpine_z;upperSpine_x;upperSpine_y;upperSpine_z;rightClavicle_x;rightClavicle_y;rightClavicle_z;rightShoulder_x;rightShoulder_y;rightShoulder_z;rightElbow_x;rightElbow_y;rightElbow_z;rightWrist_x;rightWrist_y;rightWrist_z;leftClavicle_x;leftClavicle_y;leftClavicle_z;leftShoulder_x;leftShoulder_y;leftShoulder_z;leftElbow_x;leftElbow_y;leftElbow_z;leftWrist_x;leftWrist_y;leftWrist_z;rightHip_x;rightHip_y;rightHip_z;rightKnee_x;rightKnee_y;rightKnee_z;rightAnkle_x;rightAnkle_y;rightAnkle_z;leftHip_x;leftHip_y;leftHip_z;leftKnee_x;leftKnee_y;leftKnee_z;leftAnkle_x;leftAnkle_y;leftAnkle_z;
189344.1608;NotLabelled;16384;-0.1246537;0.3185596;-0.6695756;-0.6592798;0;1;1;-1148;3978;-213;65536;0.06509695;-0.1315789;0.6759003;0.7222245;-1;3;0;429;4147;263;8192;0.6557525;-0.6440443;0.1745152;0.3531856;-1;0;-2;880;4023;-333;32768;0.6108033;-0.6598063;0.265928;0.3476454;0;0;-2;-381;4009;434;256;0.6509695;-0.07479224;-0.7531672;-0.05817174;4;-1;-1;215;838;3863;128;-0.5955678;0.06925207;0.7898806;0.1288089;1;0;0;191;1259;-3816;4;0.3254848;0.367036;-0.5193906;-0.6996983;0;-1;0;-3475;2036;-1024;16;0.16759;-0.7048991;-0.07063711;0.6855956;0;-1;-1;-1307;578;3884;2;0.5429363;-0.700686;-0.3698061;0.2783934;1;0;1;3377;2358;-629;8;-0.01108033;-0.70153;0.1495845;0.6966759;0;0;0;905;809;3925;0.5875989;1.584344;1.589331;0.5877947;1.602197;1.044076;0.5879447;1.615869;0.5647315;0.5929616;1.751622;-0.1563845;0.335289;1.784061;-0.4839521;-0.004450861;1.832733;-0.3344632;-0.06221932;0.9412924;-0.08884981;0;0;0;0.855278;1.764846;-0.4839545;1.145334;1.790246;-0.3344669;1.279139;0.8582395;-0.1301776;1.285732;-0.0806644;-0.002883673;0.2757434;1.578625;1.634559;0.7286524;0.8647398;2.828754;0.9121389;0.6770614;4.149147;0.2757434;1.578625;1.634559;0.7286524;0.8647398;2.828754;0.9121389;0.6770614;4.149147
189364.3191;NotLabelled;16384;-0.1246537;0.3185596;-0.6695756;-0.6592798;-2;0;1;-1042;3958;-287;65536;0.06509695;-0.1315789;0.6759003;0.7222245;-1;3;1;327;4061;405;8192;0.6553823;-0.6440443;0.1759003;0.3531856;-3;-6;-1;840;3939;-175;32768;0.6108033;-0.6598063;0.265928;0.3476454;-2;-8;-2;-245;3993;234;256;0.6509695;-0.07617728;-0.7530284;-0.05817174;6;-1;-1;171;834;3801;128;-0.5955678;0.06925207;0.7898806;0.1288089;1;1;0;189;1247;-3886;4;0.3254848;0.367036;-0.5180055;-0.7007242;0;0;-1;-3537;2030;-994;16;0.16759;-0.7048991;-0.07063711;0.6855956;0;-1;-1;-1331;610;3832;2;0.5429363;-0.700686;-0.3698061;0.2783934;0;-1;1;3395;2310;-491;8;-0.01108033;-0.70153;0.1495845;0.6966759;0;-1;0;995;771;3917;0.5872205;1.581472;1.588969;0.5874165;1.599325;1.043714;0.5875664;1.612996;0.5643694;0.5929152;1.750062;-0.156496;0.3353334;1.783633;-0.4840209;-0.004315645;1.832732;-0.3344654;-0.06218245;0.9412924;-0.08887529;0;0;0;0.8552816;1.763343;-0.4840236;1.145378;1.78787;-0.3344699;1.277956;0.8553773;-0.1316004;1.284495;-0.08352649;-0.004303336;0.2753651;1.575753;1.634197;0.7319149;0.8631488;2.82777;0.9148587;0.6754702;4.148238;0.2753651;1.575753;1.634197;0.7319149;0.8631488;2.82777;0.9148587;0.6754702;4.148238
189384.3232;NotLabelled;16384;-0.1246537;0.3185596;-0.6695756;-0.6592798;-1;-2;1;-1096;3992;-341;65536;0.06509695;-0.1315789;0.6759003;0.7222245;0;0;0;355;4147;457;8192;0.656368;-0.6426592;0.1772853;0.3531856;-5;-9;-1;870;4113;-111;32768;0.6094183;-0.6603555;0.265928;0.3490305;-4;-9;-2;-395;4191;394;256;0.6509695;-0.07756232;-0.7527787;-0.05955679;5;0;-1;165;804;3991;128;-0.5955678;0.06925207;0.7898806;0.1288089;0;0;1;225;1205;-3982;4;0.3254848;0.367036;-0.5193906;-0.6996983;0;-4;-2;-3545;2076;-1088;16;0.16759;-0.7048991;-0.07063711;0.6855956;0;0;0;-1377;558;3862;2;0.5429363;-0.700686;-0.3698061;0.2783934;0;0;1;3367;2260;-491;8;-0.01108033;-0.70153;0.1495845;0.6966759;0;-3;0;1023;829;3867;0.5872772;1.577794;1.588212;0.587473;1.595647;1.042957;0.587623;1.609318;0.5636122;0.5931158;1.749216;-0.1567079;0.3355926;1.784138;-0.4841371;-0.004067499;1.832733;-0.3344419;-0.06214464;0.941292;-0.08890177;0;0;0;0.8555357;1.763722;-0.4841408;1.145616;1.787589;-0.3344475;1.280069;0.8546686;-0.1348069;1.285587;-0.0838356;-0.004548788;0.2754217;1.572076;1.63344;0.7273282;0.8581901;2.828014;0.9097066;0.670512;4.148561;0.2754217;1.572076;1.63344;0.7273282;0.8581901;2.828014;0.9097066;0.670512;4.148561
189405.1566;NotLabelled;16384;-0.1246537;0.3185596;-0.6695756;-0.6592798;3;-2;3;-1008;3910;-509;65536;0.06509695;-0.1315789;0.6759003;0.7222245;0;-7;0;441;4059;381;8192;0.6573464;-0.6412742;0.1786704;0.3531856;-4;-2;0;1044;4027;-315;32768;0.6094183;-0.6596216;0.265928;0.3504155;-3;-4;-3;-281;4081;566;256;0.6509695;-0.07756232;-0.7526678;-0.06094183;5;-1;-2;197;862;3881;128;-0.5955678;0.06925207;0.7898806;0.1288089;1;1;1;197;1253;-3952;4;0.3254848;0.367036;-0.5193906;-0.6996983;0;-3;-1;-3461;2018;-1066;16;0.16759;-0.7048991;-0.07063711;0.6855956;0;-1;-1;-1295;622;3836;2;0.5429363;-0.700686;-0.3698061;0.2783934;0;-2;0;3281;2292;-523;8;-0.01246537;-0.70121;0.1509695;0.6966759;0;-5;0;931;807;3851;0.5875101;1.576989;1.587765;0.587706;1.594842;1.042511;0.5878561;1.608514;0.5631658;0.593151;1.749932;-0.1568589;0.3355906;1.785072;-0.4842353;-0.004169401;1.832733;-0.3344665;-0.06214373;0.9412925;-0.08890206;0;0;0;0.85557;1.765602;-0.4842387;1.145594;1.789684;-0.3344716;1.282165;0.8563495;-0.1382312;1.289674;-0.08200502;-0.006998062;0.2756546;1.571271;1.632993;0.7275482;0.8573852;2.827572;0.9099128;0.6697068;4.14812;0.2756546;1.571271;1.632993;0.7275482;0.8573852;2.827572;0.9099128;0.6697068;4.14812
189425.1544;NotLabelled;16384;-0.1246537;0.3185596;-0.668209;-0.6606648;3;-3;2;-1108;3828;-409;65536;0.06371191;-0.1315789;0.6759003;0.722348;0;-3;0;375;4169;309;8192;0.6552448;-0.6426592;0.1786704;0.3545706;2;-6;-4;1004;3803;-431;32768;0.6094183;-0.6588839;0.265928;0.3518005;0;0;-3;-367;4081;486;256;0.6509695;-0.07894737;-0.7525238;-0.06094183;2;0;-2;89;832;3943;128;-0.5955678;0.06786703;0.7900008;0.1288089;2;1;0;187;1205;-4004;4;0.3254848;0.367036;-0.5193906;-0.6996983;0;0;0;-3353;2036;-1090;16;0.16759;-0.7050365;-0.06925207;0.6855956;0;-4;0;-1329;610;3796;2;0.5429363;-0.7001341;-0.3698061;0.2797784;0;-2;0;3365;2294;-627;8;-0.01246537;-0.70121;0.1509695;0.6966759;0;-3;0;913;813;3923;0.5833889;1.57568;1.585011;0.5835749;1.592627;1.039727;0.5837161;1.605502;0.5603606;0.5893546;1.74823;-0.1594026;0.3318908;1.784502;-0.4867319;-0.007780883;1.832589;-0.3368993;-0.06235897;0.9411055;-0.09071527;0;0;0;0.8518289;1.76396;-0.4867356;1.141891;1.787168;-0.3369049;1.275458;0.854225;-0.1367724;1.28491;-0.0839746;-0.004566908;0.2715342;1.570037;1.630254;0.7229187;0.8561515;2.825026;0.9046688;0.6658541;4.145284;0.2715342;1.570037;1.630254;0.7229187;0.8561515;2.825026;0.9046688;0.6658541;4.145284
189445.1272;NotLabelled;16384;-0.1246537;0.3171745;-0.6688676;-0.6606648;0;-3;0;-1162;3966;-191;65536;0.06371191;-0.1315789;0.6759003;0.722348;-1;0;-1;333;4077;303;8192;0.6548655;-0.6426592;0.1800554;0.3545706;1;-5;-2;1194;3899;-269;32768;0.6094183;-0.6588839;0.265928;0.3518005;0;-1;-1;-395;4079;454;256;0.6509695;-0.07894737;-0.7525238;-0.06094183;0;0;0;43;830;3969;128;-0.5955678;0.06786703;0.7900008;0.1288089;2;0;0;241;1191;-3994;4;0.3254848;0.367036;-0.5193906;-0.6996983;0;1;0;-3423;2076;-1046;16;0.166205;-0.7053643;-0.06925207;0.6855956;0;0;0;-1379;672;3800;2;0.5429363;-0.7001341;-0.3698061;0.2797784;0;0;1;3461;2368;-531;8;-0.01246537;-0.70121;0.1509695;0.6966759;0;2;0;923;797;3875;0.5836353;1.576167;1.586838;0.5838213;1.593114;1.041554;0.5839624;1.605989;0.5621876;0.589601;1.748717;-0.1575755;0.3321371;1.784989;-0.4849048;-0.007534534;1.833076;-0.3350722;-0.06235901;0.9411049;-0.09071516;0;0;0;0.8520752;1.764447;-0.4849085;1.142138;1.787655;-0.3350778;1.274547;0.8542333;-0.1364151;1.283999;-0.08396721;-0.004208803;0.2717806;1.570524;1.632082;0.723165;0.8566384;2.826853;0.9037308;0.6688232;4.147629;0.2717806;1.570524;1.632082;0.723165;0.8566384;2.826853;0.9037308;0.6688232;4.147629
189465.6224;NotLabelled;16384;-0.1246537;0.3171745;-0.6688676;-0.6606648;0;-1;0;-1072;3892;-225;65536;0.06371191;-0.1301939;0.6759003;0.7225989;-1;2;0;363;4137;301;8192;0.6548655;-0.6426592;0.1800554;0.3545706;-1;0;0;1236;3989;-223;32768;0.6094183;-0.6594413;0.2645429;0.3518005;0;0;0;-443;4055;458;256;0.6509695;-0.07894737;-0.7525238;-0.06094183;0;0;0;217;828;3931;128;-0.5955678;0.06786703;0.7900008;0.1288089;1;0;0;95;1175;-3954;4;0.3254848;0.367036;-0.5193906;-0.6996983;0;1;0;-3465;1972;-952;16;0.16759;-0.7050365;-0.06925207;0.6855956;0;1;0;-1409;540;3780;2;0.5429363;-0.7001341;-0.3698061;0.2797784;0;0;1;3351;2286;-533;8;-0.01246537;-0.70121;0.1509695;0.6966759;0;3;0;989;787;3909;0.583212;1.576322;1.588751;0.583398;1.593269;1.043467;0.5835391;1.606144;0.5641;0.5891777;1.748871;-0.1556631;0.3317139;1.785143;-0.4829924;-0.007957805;1.833231;-0.3331598;-0.06278227;0.9412595;-0.08880271;0;0;0;0.851652;1.764601;-0.4829961;1.141714;1.787809;-0.3331653;1.274124;0.8543879;-0.1345026;1.283852;-0.08353293;-0.0003452301;0.2713573;1.570678;1.633994;0.7227417;0.856793;2.828765;0.9044915;0.6664957;4.149023;0.2713573;1.570678;1.633994;0.7227417;0.856793;2.828765;0.9044915;0.6664957;4.149023
189486.1512;NotLabelled;16384;-0.1232687;0.3171745;-0.6691242;-0.6606648;-2;0;-1;-972;3930;-337;65536;0.06509695;-0.1301939;0.6759003;0.7224754;-1;1;0;317;4087;521;8192;0.6566003;-0.6412742;0.1786704;0.3545706;-2;4;2;1022;4053;-199;32768;0.6094183;-0.6594413;0.2645429;0.3518005;0;0;1;-325;4123;538;256;0.6509695;-0.07894737;-0.7525238;-0.06094183;1;0;0;271;856;4033;128;-0.5955678;0.06786703;0.7900008;0.1288089;0;0;0;105;1219;-3922;4;0.3254848;0.367036;-0.5193906;-0.6996983;0;0;0;-3515;2036;-1044;16;0.16759;-0.7048991;-0.07063711;0.6855956;0;1;0;-1321;676;3826;2;0.5429363;-0.7001341;-0.3698061;0.2797784;0;0;1;3323;2246;-561;8;-0.01246537;-0.70121;0.1509695;0.6966759;0;0;0;985;805;3851;0.5838617;1.576005;1.588808;0.5840477;1.592952;1.043524;0.5841888;1.605827;0.564157;0.5898274;1.748554;-0.1556062;0.3323635;1.784826;-0.4829355;-0.007308122;1.832914;-0.3331029;-0.06252927;0.9414423;-0.0870162;0;0;0;0.8523016;1.764284;-0.4829392;1.142364;1.787492;-0.3331084;1.279135;0.8546114;-0.1348593;1.288862;-0.0833087;-0.0007021427;0.272007;1.570361;1.634051;0.7233915;0.8564758;2.828822;0.9051933;0.6687973;4.149448;0.272007;1.570361;1.634051;0.7233915;0.8564758;2.828822;0.9051933;0.6687973;4.149448
189507.348;NotLabelled;16384;-0.1232687;0.3171745;-0.6691242;-0.6606648;0;-2;-1;-1076;3988;-451;65536;0.06371191;-0.1301939;0.6759003;0.7225989;0;-3;0;345;4071;431;8192;0.6566003;-0.6412742;0.1786704;0.3545706;0;0;2;898;3913;-309;32768;0.6094183;-0.6594413;0.2645429;0.3518005;0;-2;1;-293;3987;518;256;0.6509695;-0.07894737;-0.7524104;-0.06232687;0;0;0;111;896;3935;128;-0.5955678;0.06786703;0.7900008;0.1288089;1;0;0;253;1231;-4024;4;0.3254848;0.367036;-0.5193906;-0.6996983;0;1;0;-3525;2036;-1064;16;0.16759;-0.7035493;-0.07063711;0.6869806;0;0;0;-1341;548;3814;2;0.5429363;-0.7001341;-0.3698061;0.2797784;0;1;0;3321;2258;-527;8;-0.01246537;-0.70121;0.1509695;0.6966759;0;0;0;975;759;3849;0.5839564;1.575019;1.586593;0.5841423;1.591966;1.041309;0.5842834;1.604841;0.561942;0.589719;1.749088;-0.1575199;0.3322155;1.785578;-0.484794;-0.007555064;1.832731;-0.3348889;-0.06278145;0.9412599;-0.08880359;0;0;0;0.8521903;1.765983;-0.4847968;1.142198;1.789405;-0.3348941;1.278964;0.8565245;-0.1366422;1.288691;-0.08139622;-0.002484798;0.2721017;1.569376;1.631836;0.7234737;0.8554904;2.826612;0.9103481;0.6686842;4.146653;0.2721017;1.569376;1.631836;0.7234737;0.8554904;2.826612;0.9103481;0.6686842;4.146653
189528.152;NotLabelled;16384;-0.1232687;0.3157895;-0.669779;-0.6606648;1;-2;0;-932;3830;-493;65536;0.06371191;-0.1301939;0.6759003;0.7225989;1;-1;1;293;4097;285;8192;0.6554716;-0.6412742;0.1800554;0.3559557;0;0;0;1104;4127;-319;32768;0.6094183;-0.6594413;0.2645429;0.3518005;-2;1;0;-245;4075;570;256;0.6509695;-0.07894737;-0.7524104;-0.06232687;-3;0;0;101;860;4047;128;-0.5955678;0.06786703;0.7900008;0.1288089;0;1;0;161;1241;-4042;4;0.3254848;0.367036;-0.5193906;-0.6996983;0;0;0;-3505;2060;-1012;16;0.16759;-0.7048991;-0.07063711;0.6855956;0;-1;0;-1333;574;3784;2;0.5429363;-0.7001341;-0.3698061;0.2797784;0;0;0;3383;2316;-543;8;-0.01246537;-0.70121;0.1509695;0.6966759;0;-2;0;965;835;3867;0.5842116;1.575505;1.588419;0.5843976;1.592452;1.043136;0.5845387;1.605327;0.5637689;0.5899743;1.749574;-0.1556931;0.3324707;1.786063;-0.4829671;-0.007299833;1.833217;-0.3330619;-0.06278129;0.9412593;-0.08880373;0;0;0;0.8524455;1.766469;-0.4829699;1.142453;1.789891;-0.3330672;1.278338;0.8569845;-0.1343297;1.288065;-0.08093584;-0.0001726151;0.2723569;1.569862;1.633663;0.7237289;0.8559762;2.828439;0.9055167;0.6682979;4.149067;0.2723569;1.569862;1.633663;0.7237289;0.8559762;2.828439;0.9055167;0.6682979;4.149067
189548.3628;NotLabelled;16384;-0.1232687;0.3157895;-0.669779;-0.6606648;-1;1;0;-1160;4064;-247;65536;0.06371191;-0.1315789;0.6759003;0.722348;0;0;1;397;4025;407;8192;0.6554716;-0.6412742;0.1800554;0.3559557;0;1;0;1086;3875;-405;32768;0.6094183;-0.6594413;0.2645429;0.3518005;0;0;0;-367;4061;536;256;0.6509695;-0.07894737;-0.7524104;-0.06232687;-2;1;0;105;810;3971;128;-0.5955678;0.06786703;0.7900008;0.1288089;0;0;0;209;1143;-3980;4;0.3254848;0.367036;-0.5193906;-0.6996983;0;0;0;-3475;2066;-1012;16;0.16759;-0.7048991;-0.07063711;0.6855956;0;-1;0;-1367;604;3700;2;0.5429363;-0.7001341;-0.3698061;0.2797784;0;0;0;3355;2282;-501;8;-0.01246537;-0.70121;0.1509695;0.6966759;0;1;0;879;795;3951;0.5846353;1.575351;1.586507;0.5848211;1.592298;1.041223;0.5849624;1.605173;0.5618562;0.590398;1.74942;-0.1576058;0.3328944;1.785909;-0.4848799;-0.006876152;1.833063;-0.3349747;-0.0623576;0.9411051;-0.09071648;0;0;0;0.8528692;1.766315;-0.4848826;1.142877;1.789737;-0.3349799;1.278762;0.8568304;-0.1362424;1.288488;-0.08108997;-0.002085328;0.2727806;1.569707;1.63175;0.7241526;0.8558221;2.826526;0.9059404;0.6681437;4.147154;0.2727806;1.569707;1.63175;0.7241526;0.8558221;2.826526;0.9059404;0.6681437;4.147154
189569.1542;NotLabelled;16384;-0.1232687;0.3157895;-0.669779;-0.6606648;0;-1;0;-1158;3834;-439;65536;0.06371191;-0.1301939;0.6759003;0.7225989;1;0;0;385;4103;431;8192;0.6554716;-0.6412742;0.1800554;0.3559557;0;-1;0;1004;3915;-277;32768;0.6094183;-0.6594413;0.2645429;0.3518005;-1;-2;1;-339;4053;474;256;0.6509695;-0.07756232;-0.7525544;-0.06232687;-1;0;0;97;854;3961;128;-0.5955678;0.06786703;0.7900008;0.1288089;1;-1;-1;221;1167;-3946;4;0.3254848;0.367036;-0.5193906;-0.6996983;0;0;0;-3451;2028;-1068;16;0.16759;-0.7048991;-0.07063711;0.6855956;0;1;0;-1421;592;3802;2;0.5429363;-0.7001341;-0.3698061;0.2797784;0;0;0;3439;2278;-513;8;-0.01246537;-0.70121;0.1509695;0.6966759;0;3;0;925;817;3877;0.5845965;1.578373;1.588799;0.5847824;1.595321;1.043515;0.5849236;1.608196;0.5641482;0.5900147;1.751133;-0.1555777;0.332415;1.786489;-0.4829004;-0.007442415;1.833218;-0.3330586;-0.06281939;0.9412596;-0.08877651;0;0;0;0.8524292;1.767968;-0.4829036;1.142398;1.792264;-0.3330637;1.278368;0.8593574;-0.1343845;1.288151;-0.07856297;-0.0002316236;0.2727418;1.57273;1.634042;0.7246245;0.8588448;2.828625;0.9069764;0.6711659;4.149175;0.2727418;1.57273;1.634042;0.7246245;0.8588448;2.828625;0.9069764;0.6711659;4.149175
189590.1431;NotLabelled;16384;-0.1232687;0.3157895;-0.669779;-0.6606648;1;-1;-1;-1036;3918;-433;65536;0.06371191;-0.1315789;0.6759003;0.722348;0;1;1;361;4039;259;8192;0.6554716;-0.6412742;0.1800554;0.3559557;0;-1;1;1038;4031;-195;32768;0.6080332;-0.6607186;0.2645429;0.3518005;-1;-3;1;-335;4091;458;256;0.6509695;-0.07756232;-0.7525544;-0.06232687;-1;2;0;111;832;4033;128;-0.5955678;0.06786703;0.7900008;0.1288089;0;1;0;171;1267;-4016;4;0.3254848;0.367036;-0.5193906;-0.6996983;0;0;0;-3515;2012;-1096;16;0.16759;-0.7048991;-0.07063711;0.6855956;0;3;0;-1377;578;3802;2;0.5429363;-0.7001341;-0.3698061;0.2797784;1;-2;0;3417;2282;-515;8;-0.01246537;-0.70121;0.1509695;0.6966759;0;0;1;993;805;3889;0.5850194;1.578219;1.586886;0.5852052;1.595167;1.041602;0.5853465;1.608042;0.5622352;0.5904375;1.750979;-0.1574907;0.3328378;1.786335;-0.4848134;-0.007019576;1.833064;-0.3349716;-0.06239656;0.9411056;-0.09068956;0;0;0;0.852852;1.767814;-0.4848166;1.14282;1.792109;-0.3349767;1.27879;0.8592033;-0.1362976;1.285628;-0.07845783;-0.0001648664;0.2731646;1.572576;1.632129;0.7250472;0.8586907;2.826712;0.9073995;0.6710119;4.147262;0.2731646;1.572576;1.632129;0.7250472;0.8586907;2.826712;0.9073995;0.6710119;4.147262
189610.1576;NotLabelled;16384;-0.1232687;0.3171745;-0.6691242;-0.6606648;0;2;-1;-926;3974;-259;65536;0.06371191;-0.1315789;0.6759003;0.722348;0;0;2;289;4145;279;8192;0.6558505;-0.6412742;0.1786704;0.3559557;-1;-1;1;1072;3989;-379;32768;0.6080332;-0.6607186;0.2645429;0.3518005;-1;-2;2;-387;4113;516;256;0.6509695;-0.07756232;-0.7525544;-0.06232687;-2;2;0;187;810;3925;128;-0.5955678;0.06648199;0.7901186;0.1288089;0;2;0;195;1189;-3946;4;0.3254848;0.367036;-0.5193906;-0.6996983;0;1;0;-3525;2096;-1128;16;0.16759;-0.7048991;-0.07063711;0.6855956;0;-1;0;-1343;558;3876;2;0.5429363;-0.7001341;-0.3698061;0.2797784;0;0;0;3401;2310;-525;8;-0.01246537;-0.7025834;0.1509695;0.6952909;0;-3;1;929;809;3911;0.58479;1.579433;1.585109;0.5849661;1.595475;1.039798;0.5850984;1.607555;0.5604102;0.5901895;1.750491;-0.159316;0.3325899;1.785848;-0.4866387;-0.00726752;1.832576;-0.3367966;-0.06239656;0.941105;-0.09068956;0;0;0;0.852604;1.767326;-0.4866414;1.142572;1.791622;-0.336802;1.279702;0.8592001;-0.1366522;1.286539;-0.07846153;-0.0005197525;0.272936;1.573865;1.630367;0.7248188;0.85998;2.82495;0.9071709;0.6723012;4.145501;0.272936;1.573865;1.630367;0.7248188;0.85998;2.82495;0.9071709;0.6723012;4.145501
189630.1575;NotLabelled;16384;-0.1232687;0.3171745;-0.6691242;-0.6606648;0;1;0;-1082;4142;-221;65536;0.06371191;-0.1315789;0.6759003;0.722348;0;0;3;319;4071;353;8192;0.6558505;-0.6412742;0.1786704;0.3559557;1;2;1;914;3969;-397;32768;0.6080332;-0.6607186;0.2645429;0.3518005;0;0;2;-331;4013;572;256;0.6509695;-0.07617728;-0.7526959;-0.06232687;-2;1;1;83;866;3929;128;-0.5955678;0.06648199;0.7901186;0.1288089;1;0;0;255;1247;-3976;4;0.3254848;0.367036;-0.5193906;-0.6996983;0;0;0;-3489;1964;-984;16;0.16759;-0.7050365;-0.06925207;0.6855956;0;0;0;-1421;526;3844;2;0.5429363;-0.7001341;-0.3698061;0.2797784;0;0;0;3411;2308;-499;8;-0.01246537;-0.7025834;0.1509695;0.6952909;0;-1;0;889;793;3947;0.5851567;1.582303;1.585482;0.5853326;1.598345;1.040171;0.5854653;1.610424;0.5607832;0.5902168;1.752051;-0.1592038;0.3325245;1.786276;-0.4865736;-0.007419437;1.832577;-0.336796;-0.06243455;0.9411051;-0.09066357;0;0;0;0.8525757;1.768827;-0.4865773;1.142503;1.793996;-0.3368011;1.279724;0.8615744;-0.1367152;1.286619;-0.07608664;-0.000585556;0.2733028;1.576735;1.63074;0.7256874;0.8628497;2.825133;0.9085424;0.6725519;4.145238;0.2733028;1.576735;1.63074;0.7256874;0.8628497;2.825133;0.9085424;0.6725519;4.145238
189650.1736;NotLabelled;16384;-0.1232687;0.3157895;-0.669779;-0.6606648;-1;-1;0;-950;3874;-369;65536;0.06371191;-0.1315789;0.6759003;0.722348;1;1;2;359;4097;357;8192;0.6558505;-0.6412742;0.1786704;0.3559557;1;0;0;888;4035;-309;32768;0.6080332;-0.6601623;0.265928;0.3518005;0;0;1;-327;4075;516;256;0.6495845;-0.07617728;-0.7538915;-0.06232687;-2;0;2;113;902;3971;128;-0.5941828;0.06648199;0.7911607;0.1288089;1;0;-1;211;1233;-3966;4;0.3254848;0.367036;-0.5193906;-0.6996983;0;1;0;-3531;2070;-1024;16;0.16759;-0.7048991;-0.07063711;0.6855956;0;2;0;-1389;538;3808;2;0.5429363;-0.700686;-0.3698061;0.2783934;0;1;0;3437;2234;-487;8;-0.01246537;-0.70121;0.1509695;0.6966759;0;2;0;907;755;4003;0.5832248;1.582531;1.587081;0.5834013;1.598617;1.041771;0.5835342;1.610735;0.5623841;0.5883364;1.752316;-0.1576117;0.3306564;1.786612;-0.4849842;-0.009271007;1.833043;-0.3352087;-0.06276424;0.9411048;-0.0904354;0;0;0;0.8507015;1.768979;-0.4849859;1.140637;1.794055;-0.3352115;1.279313;0.8616487;-0.136055;1.286419;-0.07629526;-0.001897216;0.2713707;1.576959;1.632338;0.7281014;0.8630737;2.825076;0.9158155;0.6753954;4.144874;0.2713707;1.576959;1.632338;0.7281014;0.8630737;2.825076;0.9158155;0.6753954;4.144874
189671.1396;NotLabelled;16384;-0.1232687;0.3171745;-0.6691242;-0.6606648;0;2;-1;-1064;3926;-343;65536;0.06371191;-0.132964;0.6759003;0.7220943;1;0;2;349;4153;325;8192;0.6558505;-0.6412742;0.1786704;0.3559557;1;0;0;908;3957;-233;32768;0.6080332;-0.6601623;0.265928;0.3518005;-1;0;1;-305;4027;448;256;0.6495845;-0.07617728;-0.7538915;-0.06232687;-1;0;1;167;808;3919;128;-0.5941828;0.06648199;0.7911607;0.1288089;2;1;-1;201;1209;-3964;4;0.3254848;0.367036;-0.5180055;-0.7007242;-1;2;0;-3507;2044;-1034;16;0.16759;-0.7048991;-0.07063711;0.6855956;0;3;0;-1427;568;3842;2;0.5429363;-0.6999532;-0.3711911;0.2783934;0;1;0;3381;2278;-577;8;-0.01246537;-0.70121;0.1509695;0.6966759;0;1;0;975;767;3825;0.5842741;1.581907;1.583608;0.5844503;1.597993;1.038298;0.584583;1.610111;0.5589116;0.5893835;1.751692;-0.1610842;0.3317027;1.785988;-0.4884561;-0.008224394;1.832419;-0.3386799;-0.06234225;0.9409473;-0.09234875;0;0;0;0.8517479;1.768355;-0.4884587;1.141684;1.793431;-0.3386848;1.279633;0.8610082;-0.1391008;1.28674;-0.07693541;-0.004942656;0.2724202;1.576335;1.628866;0.7332827;0.8637302;2.82078;0.9210003;0.6760514;4.140578;0.2724202;1.576335;1.628866;0.7332827;0.8637302;2.82078;0.9210003;0.6760514;4.140578
189691.1363;NotLabelled;16384;-0.1246537;0.3171745;-0.6688676;-0.6606648;-1;1;0;-1054;4048;-275;65536;0.06371191;-0.132964;0.6759003;0.7220943;2;0;3;409;4103;377;8192;0.6558505;-0.6412742;0.1786704;0.3559557;0;-3;0;986;4027;-277;32768;0.6066482;-0.6614353;0.265928;0.3518005;-2;-1;1;-313;4105;422;256;0.6495845;-0.07617728;-0.7538915;-0.06232687;-1;0;1;69;854;3933;128;-0.5941828;0.06648199;0.7911607;0.1288089;2;1;0;275;1197;-3970;4;0.3254848;0.367036;-0.5180055;-0.7007242;0;0;0;-3571;2028;-1120;16;0.16759;-0.7048991;-0.07063711;0.6855956;0;1;0;-1339;548;3908;2;0.5429363;-0.6999532;-0.3711911;0.2783934;0;2;0;3347;2280;-523;8;-0.01108033;-0.7026066;0.1509695;0.6952909;0;0;1;997;821;3867;0.5838853;1.582406;1.585339;0.5840615;1.598492;1.04003;0.5841942;1.61061;0.5606431;0.5889946;1.752192;-0.1593528;0.3313139;1.786487;-0.4867247;-0.008613262;1.832918;-0.3369485;-0.06234232;0.9409468;-0.09234886;0;0;0;0.851359;1.768855;-0.4867273;1.141295;1.79393;-0.3369534;1.279245;0.8615077;-0.1373694;1.283419;-0.07616687;-0.001220465;0.2720314;1.576834;1.630597;0.7328939;0.8642297;2.822511;0.9206113;0.6765509;4.142309;0.2720314;1.576834;1.630597;0.7328939;0.8642297;2.822511;0.9206113;0.6765509;4.142309
189712.1704;NotLabelled;16384;-0.1246537;0.3171745;-0.6688676;-0.6606648;0;0;0;-1118;3958;-351;65536;0.06232687;-0.132964;0.6759003;0.7222152;2;-1;2;433;4111;399;8192;0.6544934;-0.6426592;0.1786704;0.3559557;1;0;0;998;4007;-357;32768;0.6066482;-0.6614353;0.265928;0.3518005;-1;0;0;-315;4045;572;256;0.6495845;-0.07617728;-0.7538915;-0.06232687;-1;0;1;123;818;3917;128;-0.5941828;0.06509695;0.7912759;0.1288089;1;1;-1;249;1135;-3944;4;0.3254848;0.367036;-0.5180055;-0.7007242;0;0;-1;-3519;1998;-1078;16;0.16759;-0.7048991;-0.07063711;0.6855956;0;-1;0;-1291;588;3854;2;0.5429363;-0.6999532;-0.3711911;0.2783934;0;0;0;3247;2188;-445;8;-0.01246537;-0.7025834;0.1509695;0.6952909;0;-3;1;1081;773;3903;0.5836527;1.583908;1.583602;0.5838192;1.599092;1.038266;0.5839431;1.610416;0.5588605;0.5887435;1.751997;-0.1611356;0.3310628;1.786293;-0.4885072;-0.008864325;1.832724;-0.3387311;-0.06260294;0.940753;-0.09413356;0;0;0;0.8511078;1.768661;-0.48851;1.141044;1.793736;-0.3387362;1.2758;0.8612561;-0.1372503;1.279976;-0.07641888;-0.001101255;0.2717997;1.578411;1.628875;0.7326624;0.8658068;2.820788;0.92038;0.678128;4.140586;0.2717997;1.578411;1.628875;0.7326624;0.8658068;2.820788;0.92038;0.678128;4.140586
189732.2163;NotLabelled;16384;-0.1246537;0.3185596;-0.668209;-0.6606648;0;1;0;-1074;3868;-409;65536;0.06232687;-0.134349;0.6772853;0.7206596;2;2;1;385;4081;293;8192;0.6544934;-0.6426592;0.1786704;0.3559557;1;0;0;964;3879;-445;32768;0.6066482;-0.6614353;0.265928;0.3518005;-1;-1;1;-309;4011;496;256;0.6495845;-0.07479224;-0.7541434;-0.06094183;-2;0;0;99;900;3927;128;-0.5941828;0.06509695;0.7915001;0.1274238;2;1;0;253;1185;-3958;4;0.3254848;0.367036;-0.5180055;-0.7007242;0;-2;-1;-3441;1968;-1054;16;0.16759;-0.7048991;-0.07063711;0.6855956;0;-3;0;-1323;546;3838;2;0.5429363;-0.6999532;-0.3711911;0.2783934;0;1;0;3331;2256;-521;8;-0.01246537;-0.7025834;0.1509695;0.6952909;1;-2;1;947;793;3929;0.5873672;1.590022;1.582635;0.58752;1.603978;1.037267;0.5876321;1.614223;0.5578364;0.5922644;1.752975;-0.1627116;0.3345149;1.785919;-0.4901679;-0.005396452;1.832853;-0.3405127;-0.05863324;0.9408159;-0.09604271;0;0;0;0.8545644;1.768417;-0.4901977;1.144522;1.794153;-0.3405772;1.27947;0.8612223;-0.1413206;1.28371;-0.07645273;-0.005174279;0.2755152;1.584627;1.627928;0.7369419;0.8720214;2.819624;0.925284;0.6843421;4.139333;0.2755152;1.584627;1.627928;0.7369419;0.8720214;2.819624;0.925284;0.6843421;4.139333
189753.1456;NotLabelled;16384;-0.1246537;0.3185596;-0.668209;-0.6606648;0;3;-1;-1122;3908;-271;65536;0.06371191;-0.134349;0.6772853;0.7205385;0;2;1;353;4093;277;8192;0.6548699;-0.6426592;0.1772853;0.3559557;1;-2;0;1090;3965;-325;32768;0.6066482;-0.6614353;0.265928;0.3518005;0;-1;2;-363;3989;420;256;0.6495845;-0.07479224;-0.7541434;-0.06094183;-2;0;0;125;756;3901;128;-0.5941828;0.06509695;0.7915001;0.1274238;1;-2;0;279;1097;-3962;4;0.3254848;0.367036;-0.5193906;-0.6996983;-2;0;0;-3355;2026;-1008;16;0.16759;-0.7050365;-0.06925207;0.6855956;0;0;1;-1397;528;3722;2;0.5429363;-0.6999532;-0.3711911;0.2783934;1;0;0;3385;2248;-501;8;-0.01246537;-0.7025834;0.1509695;0.6952909;1;-1;0;829;809;3981;0.5877094;1.589667;1.58247;0.5878627;1.603623;1.037102;0.5879753;1.613868;0.5576715;0.5926448;1.752619;-0.162876;0.3349122;1.785564;-0.4903455;-0.005006868;1.832497;-0.3407082;-0.05836579;0.9410136;-0.09425671;0;0;0;0.8549615;1.768061;-0.4903488;1.144911;1.793798;-0.3407134;1.280927;0.861804;-0.1378295;1.285159;-0.07587039;-0.001682401;0.2758574;1.584272;1.627762;0.7330939;0.8703861;2.820307;0.921314;0.680089;4.139658;0.2758574;1.584272;1.627762;0.7330939;0.8703861;2.820307;0.921314;0.680089;4.139658
189773.1428;NotLabelled;16384;-0.1246537;0.3199446;-0.6689149;-0.6592798;-1;0;-2;-1164;3940;-271;65536;0.06371191;-0.1357341;0.6772853;0.7202789;1;1;0;379;4111;369;8192;0.6548699;-0.6426592;0.1772853;0.3559557;-1;-1;1;936;3933;-251;32768;0.6066482;-0.6608768;0.267313;0.3518005;-1;-3;2;-423;4167;432;256;0.6495845;-0.07479224;-0.7541434;-0.06094183;-2;0;0;67;752;3959;128;-0.5941828;0.06509695;0.7915001;0.1274238;1;-4;0;165;1141;-4026;4;0.3254848;0.367036;-0.5193906;-0.6996983;-2;0;1;-3465;1924;-1090;16;0.16759;-0.7048991;-0.07063711;0.6855956;0;4;1;-1413;544;3748;2;0.5429363;-0.6999532;-0.3711911;0.2783934;1;0;0;3379;2222;-463;8;-0.01108033;-0.7026066;0.1509695;0.6952909;0;2;1;921;751;3829;0.5913956;1.588968;1.579366;0.591549;1.602924;1.033997;0.5916616;1.613169;0.5545672;0.5963311;1.75192;-0.1659802;0.3385985;1.784865;-0.4934497;-0.001320601;1.831799;-0.3438124;-0.05792899;0.9408472;-0.09616505;0;0;0;0.8586478;1.767363;-0.493453;1.148597;1.7931;-0.3438176;1.284613;0.8611052;-0.1409338;1.288561;-0.07685089;-0.006730318;0.2795437;1.583573;1.624658;0.7367802;0.8696873;2.817202;0.9250543;0.682009;4.136921;0.2795437;1.583573;1.624658;0.7367802;0.8696873;2.817202;0.9250543;0.682009;4.136921
189794.152;NotLabelled;16384;-0.1246537;0.3199446;-0.6689149;-0.6592798;0;0;-1;-1096;3948;-421;65536;0.06371191;-0.1357341;0.6772853;0.7202789;2;1;0;423;4121;395;8192;0.6548699;-0.6426592;0.1772853;0.3559557;0;0;1;940;4123;-395;32768;0.6052631;-0.6621456;0.267313;0.3518005;0;-3;1;-233;4075;668;256;0.6495845;-0.07479224;-0.7541434;-0.06094183;-2;0;0;181;742;4045;128;-0.5941828;0.06509695;0.7917218;0.1260388;0;0;0;93;1081;-3954;4;0.3254848;0.367036;-0.5193906;-0.6996983;-1;0;0;-3547;1940;-1046;16;0.16759;-0.7048991;-0.07063711;0.6855956;0;3;1;-1385;510;3872;2;0.5429363;-0.6999532;-0.3711911;0.2783934;1;0;0;3257;2240;-471;8;-0.01108033;-0.7026066;0.1509695;0.6952909;0;-3;0;933;687;3847;0.5914444;1.591829;1.581391;0.5915837;1.604558;1.035993;0.591684;1.613725;0.5565407;0.5963163;1.752476;-0.1640072;0.3385668;1.78542;-0.4914637;-0.001344614;1.832354;-0.3418086;-0.05793388;0.9408472;-0.09616196;0;0;0;0.8586162;1.767918;-0.4914937;1.148574;1.793654;-0.3418729;1.284605;0.8612065;-0.1410972;1.285637;-0.07647038;-0.004901409;0.2795935;1.586536;1.626704;0.7368913;0.8726506;2.819224;0.925233;0.684972;4.138934;0.2795935;1.586536;1.626704;0.7368913;0.8726506;2.819224;0.925233;0.684972;4.138934
189814.325;NotLabelled;16384;-0.1246537;0.3199446;-0.6689149;-0.6592798;0;0;-1;-1094;3894;-415;65536;0.06371191;-0.1357341;0.6772853;0.7202789;1;0;1;327;4045;247;8192;0.6541151;-0.6426592;0.1772853;0.3573407;2;-3;0;960;3883;-555;32768;0.6052631;-0.6621456;0.267313;0.3518005;1;-3;0;-131;4077;518;256;0.6495845;-0.07479224;-0.7541434;-0.06094183;0;1;0;197;824;3873;128;-0.5927978;0.06509695;0.7927594;0.1260388;1;2;0;165;1143;-3894;4;0.3254848;0.368421;-0.5193906;-0.69897;0;0;-1;-3515;1866;-1080;16;0.16759;-0.7048991;-0.07063711;0.6855956;0;-2;0;-1331;484;3840;2;0.5429363;-0.6999532;-0.3711911;0.2783934;0;-1;0;3411;2200;-501;8;-0.01246537;-0.7039514;0.1509695;0.6939058;0;-5;0;881;779;3983;0.5914199;1.591174;1.579348;0.59156;1.603946;1.033951;0.591661;1.61315;0.5544994;0.5963322;1.751901;-0.1660483;0.3386003;1.784846;-0.4935187;-0.001319055;1.831779;-0.3438817;-0.05792844;0.9408467;-0.09616524;0;0;0;0.8586498;1.767343;-0.4935202;1.148599;1.79308;-0.3438841;1.284907;0.8615718;-0.1389735;1.285932;-0.07610464;-0.002777815;0.279569;1.585878;1.62466;0.7341505;0.8744183;2.819666;0.9224209;0.6867394;4.139385;0.279569;1.585878;1.62466;0.7341505;0.8744183;2.819666;0.9224209;0.6867394;4.139385
189835.154;NotLabelled;16384;-0.1246537;0.3199446;-0.6689149;-0.6592798;-1;1;0;-1086;3940;-287;65536;0.06371191;-0.1357341;0.6772853;0.7202789;1;0;0;415;4125;275;8192;0.6541151;-0.6426592;0.1772853;0.3573407;2;-5;0;908;4013;-397;32768;0.6052631;-0.6615847;0.2686981;0.3518005;0;-1;1;-387;4081;402;256;0.6495845;-0.07479224;-0.7541434;-0.06094183;0;0;0;97;690;3901;128;-0.5927978;0.06509695;0.7927594;0.1260388;0;-3;0;243;1129;-3924;4;0.3254848;0.367036;-0.5193906;-0.6996983;0;-1;-1;-3437;2090;-1030;16;0.16759;-0.7062436;-0.07063711;0.6842105;0;-5;0;-1377;506;3870;2;0.5429363;-0.6999532;-0.3711911;0.2783934;0;0;0;3399;2244;-575;8;-0.01246537;-0.7039514;0.1509695;0.6939058;0;-2;0;877;793;3963;0.5914202;1.591194;1.579416;0.5915605;1.603966;1.034018;0.5916617;1.61317;0.5545673;0.5963312;1.751921;-0.1659803;0.3385985;1.784865;-0.49345;-0.001320455;1.831799;-0.3438122;-0.05792887;0.9408474;-0.09616506;0;0;0;0.8586479;1.767363;-0.4934531;1.148597;1.7931;-0.3438177;1.284907;0.8615758;-0.1389802;1.285647;-0.07638049;-0.004726291;0.2795692;1.585898;1.624727;0.7368058;0.8720121;2.817271;0.9200032;0.6834636;4.13758;0.2795692;1.585898;1.624727;0.7368058;0.8720121;2.817271;0.9200032;0.6834636;4.13758
189855.138;NotLabelled;16384;-0.1246537;0.3199446;-0.6689149;-0.6592798;-1;-1;0;-1196;4082;-243;65536;0.06371191;-0.1357341;0.6772853;0.7202789;1;-1;0;413;4081;367;8192;0.6541151;-0.6426592;0.1772853;0.3573407;0;4;-1;1068;3947;-351;32768;0.6052631;-0.6615847;0.2686981;0.3518005;0;0;1;-269;4045;496;256;0.6495845;-0.07479224;-0.7541434;-0.06094183;3;0;0;221;832;3923;128;-0.5927978;0.06509695;0.7927594;0.1260388;0;0;0;139;1217;-3910;4;0.3254848;0.367036;-0.5193906;-0.6996983;-1;2;0;-3439;1910;-1038;16;0.16759;-0.7062436;-0.07063711;0.6842105;0;2;0;-1473;568;3712;2;0.5429363;-0.6999532;-0.3711911;0.2783934;1;0;1;3445;2304;-545;8;-0.01246537;-0.7039514;0.1509695;0.6939058;0;3;0;837;751;3951;0.5914202;1.591194;1.579416;0.5915605;1.603966;1.034018;0.5916617;1.61317;0.5545673;0.5963312;1.751921;-0.1659803;0.3385985;1.784865;-0.49345;-0.001320455;1.831799;-0.3438122;-0.05792887;0.9408474;-0.09616506;0;0;0;0.8586479;1.767363;-0.4934531;1.148597;1.7931;-0.3438177;1.284907;0.8615758;-0.1389802;1.285647;-0.07638049;-0.004726291;0.2795692;1.585898;1.624727;0.7368058;0.8720121;2.817271;0.9200032;0.6834636;4.13758;0.2795692;1.585898;1.624727;0.7368058;0.8720121;2.817271;0.9200032;0.6834636;4.13758
189875.136;NotLabelled;16384;-0.1246537;0.3199446;-0.6689149;-0.6592798;1;0;0;-1060;3878;-357;65536;0.06232687;-0.1357341;0.6786703;0.7190954;2;0;1;365;4035;247;8192;0.6527514;-0.6440443;0.1772853;0.3573407;0;0;0;846;3991;-367;32768;0.6052631;-0.6615847;0.2686981;0.3518005;0;-1;1;-279;4017;534;256;0.6495845;-0.07479224;-0.7541434;-0.06094183;2;0;0;207;912;3877;128;-0.5927978;0.06509695;0.7927594;0.1260388;0;0;0;171;1253;-3910;4;0.3254848;0.368421;-0.5180055;-0.6999971;0;0;-1;-3457;1904;-1092;16;0.16759;-0.7062436;-0.07063711;0.6842105;0;3;0;-1389;588;3758;2;0.5429363;-0.6999532;-0.3711911;0.2783934;2;1;2;3335;2294;-525;8;-0.01108033;-0.7039746;0.1509695;0.6939058;0;3;1;893;769;3887;0.5947516;1.591206;1.577604;0.5948919;1.603978;1.032207;0.594993;1.613182;0.5527557;0.5996625;1.751933;-0.1677919;0.3419299;1.784877;-0.4952616;0.002010863;1.831811;-0.3456238;-0.05459756;0.9408592;-0.09797666;0;0;0;0.8619792;1.767375;-0.4952648;1.151929;1.793111;-0.3456293;1.285046;0.8615462;-0.138891;1.285787;-0.07641065;-0.004637003;0.2829006;1.58591;1.622916;0.7416145;0.8757261;2.817102;0.9248118;0.6871775;4.137411;0.2829006;1.58591;1.622916;0.7416145;0.8757261;2.817102;0.9248118;0.6871775;4.137411
189895.224;NotLabelled;16384;-0.1246537;0.3199446;-0.6689149;-0.6592798;0;1;0;-1168;3954;-245;65536;0.06232687;-0.1357341;0.6786703;0.7190954;1;-1;0;501;4117;271;8192;0.6527514;-0.6440443;0.1772853;0.3573407;0;-4;0;1048;3983;-395;32768;0.6052631;-0.6615847;0.2686981;0.3518005;-1;-3;1;-265;4055;536;256;0.6495845;-0.07617728;-0.7540047;-0.06094183;2;0;0;177;900;3939;128;-0.5927978;0.06509695;0.7927594;0.1260388;0;0;0;151;1175;-3894;4;0.3254848;0.368421;-0.5180055;-0.6999971;0;-1;-1;-3473;1982;-1050;16;0.16759;-0.7062436;-0.07063711;0.6842105;0;-2;0;-1307;546;3860;2;0.5429363;-0.699217;-0.3725762;0.2783934;0;0;0;3289;2292;-475;8;-0.01246537;-0.7039514;0.1509695;0.6939058;0;-4;1;975;857;3891;0.5943818;1.588337;1.577241;0.5945218;1.601109;1.031843;0.5946227;1.610312;0.5523916;0.5996265;1.750371;-0.1679006;0.341984;1.784448;-0.4953252;0.002153095;1.831812;-0.3456231;-0.05455718;0.9408593;-0.09799882;0;0;0;0.8619961;1.76587;-0.4953284;1.151989;1.790733;-0.3456283;1.28502;0.8591673;-0.1388347;1.285706;-0.07878947;-0.00458014;0.2825308;1.583041;1.622552;0.7407521;0.8728571;2.816927;0.9234053;0.6843085;4.137312;0.2825308;1.583041;1.622552;0.7407521;0.8728571;2.816927;0.9234053;0.6843085;4.137312
189915.3494;NotLabelled;16384;-0.1246537;0.3199446;-0.6689149;-0.6592798;-1;0;0;-1188;4000;-245;65536;0.06232687;-0.1357341;0.6786703;0.7190954;1;-4;0;435;4045;331;8192;0.6523737;-0.6440443;0.1786704;0.3573407;0;-2;0;1062;3991;-451;32768;0.6052631;-0.6615847;0.2686981;0.3518005;0;2;2;-293;4057;580;256;0.6495845;-0.07617728;-0.7538915;-0.06232687;2;0;0;129;784;3925;128;-0.5927978;0.06509695;0.7927594;0.1260388;0;0;0;243;1103;-3982;4;0.3268698;0.367036;-0.5180055;-0.7000793;0;-3;-1;-3371;2070;-996;16;0.16759;-0.7062436;-0.07063711;0.6842105;0;-3;0;-1357;580;3806;2;0.5429363;-0.699217;-0.3725762;0.2783934;0;0;0;3295;2290;-557;8;-0.01246537;-0.7039514;0.1509695;0.6939058;0;-3;0;851;813;3835;0.5947233;1.587528;1.576817;0.5948632;1.600299;1.031419;0.5949639;1.609503;0.551968;0.5997643;1.751084;-0.1680279;0.3420836;1.78538;-0.4953994;0.00215647;1.831811;-0.3456235;-0.05455627;0.9408593;-0.09800005;0;0;0;0.8621287;1.767748;-0.4954026;1.152065;1.792822;-0.3456289;1.28393;0.8607702;-0.1402891;1.284614;-0.07718658;-0.006034851;0.2828724;1.582231;1.622128;0.7439385;0.8720918;2.815434;0.9265792;0.683543;4.135821;0.2828724;1.582231;1.622128;0.7439385;0.8720918;2.815434;0.9265792;0.683543;4.135821
189937.145;NotLabelled;16384;-0.1232687;0.3199446;-0.6705332;-0.6578947;-1;-3;0;-1196;3906;-403;65536;0.06232687;-0.134349;0.6786703;0.7193555;2;-1;-1;407;4037;323;8192;0.6527514;-0.6440443;0.1772853;0.3573407;1;3;0;1036;3919;-479;32768;0.6052631;-0.6623193;0.2686981;0.3504155;0;4;2;-299;4047;558;256;0.6495845;-0.07617728;-0.7538915;-0.06232687;3;0;0;79;770;3903;128;-0.5927978;0.06509695;0.7927594;0.1260388;-1;0;0;247;1121;-3874;4;0.3268698;0.367036;-0.5180055;-0.7000793;0;0;0;-3401;1990;-996;16;0.166205;-0.7065708;-0.07063711;0.6842105;0;-1;0;-1393;596;3748;2;0.5429363;-0.699217;-0.3725762;0.2783934;0;0;0;3345;2208;-577;8;-0.01246537;-0.7039514;0.1509695;0.6939058;0;0;0;859;769;3921;0.5981825;1.587135;1.577622;0.5983223;1.599907;1.032224;0.5984229;1.609111;0.5527729;0.6032234;1.750692;-0.167223;0.3455428;1.784988;-0.4945944;0.005615555;1.831419;-0.3448186;-0.05499439;0.9410303;-0.09609482;0;0;0;0.8655878;1.767355;-0.4945977;1.155524;1.79243;-0.344824;1.288554;0.8608651;-0.1380291;1.287234;-0.07722938;-0.004744172;0.2863316;1.581839;1.622933;0.7473975;0.8716996;2.816239;0.9288557;0.685638;4.137141;0.2863316;1.581839;1.622933;0.7473975;0.8716996;2.816239;0.9288557;0.685638;4.137141
189958.1775;NotLabelled;16384;-0.1232687;0.3213296;-0.6698706;-0.6578947;1;0;-1;-1084;3916;-417;65536;0.06232687;-0.134349;0.6786703;0.7193555;1;0;-1;405;4089;229;8192;0.6527514;-0.6440443;0.1772853;0.3573407;1;-2;0;964;4029;-225;32768;0.6052631;-0.6623193;0.2686981;0.3504155;0;-1;1;-271;4013;424;256;0.6495845;-0.07756232;-0.7536345;-0.06371191;3;-1;0;177;842;3909;128;-0.5927978;0.06509695;0.7925379;0.1274238;-3;-2;0;215;1201;-3936;4;0.3268698;0.368421;-0.5193906;-0.6983234;0;0;-1;-3461;2028;-1012;16;0.16759;-0.7062436;-0.07063711;0.6842105;-1;3;0;-1347;516;3790;2;0.5415512;-0.7002902;-0.3725762;0.2783934;0;0;1;3335;2196;-629;8;-0.01246537;-0.7039514;0.1509695;0.6939058;-1;2;0;983;773;3911;0.5979511;1.580092;1.573004;0.5981045;1.594093;1.027637;0.5982172;1.604377;0.5482071;0.6031874;1.748787;-0.1712255;0.3455763;1.784435;-0.4985076;0.00563274;1.83036;-0.3486136;-0.05494829;0.9410312;-0.0961213;0;0;0;0.865617;1.766672;-0.4984834;1.155532;1.791086;-0.3485585;1.288366;0.8599887;-0.1395414;1.286982;-0.07810569;-0.006257176;0.2860988;1.574694;1.618296;0.7398064;0.8657105;2.815104;0.9218109;0.6771615;4.135578;0.2860988;1.574694;1.618296;0.7398064;0.8657105;2.815104;0.9218109;0.6771615;4.135578
189978.1416;NotLabelled;16384;-0.1232687;0.3213296;-0.6698706;-0.6578947;-1;-3;-1;-1264;3988;-197;65536;0.06232687;-0.132964;0.6786703;0.7196128;0;-4;-3;451;3927;307;8192;0.6527514;-0.6440443;0.1772853;0.3573407;0;-3;1;1002;4039;-229;32768;0.6052631;-0.6623193;0.2686981;0.3504155;0;0;4;-535;3971;492;256;0.6495845;-0.07756232;-0.7536345;-0.06371191;3;0;0;137;836;3959;128;-0.5927978;0.06648199;0.792423;0.1274238;-4;-1;0;225;1201;-3884;4;0.3268698;0.368421;-0.5180055;-0.6993514;0;-2;-2;-3507;1982;-1046;16;0.16759;-0.7062436;-0.07063711;0.6842105;0;0;0;-1271;544;3854;2;0.5415512;-0.7002902;-0.3725762;0.2783934;1;-1;1;3249;2188;-481;8;-0.01246537;-0.7039514;0.1509695;0.6939058;-1;-1;0;1033;867;3813;0.5974044;1.579133;1.576811;0.5975679;1.594034;1.031467;0.5976894;1.60511;0.5520553;0.6026219;1.74952;-0.1673775;0.3449937;1.785168;-0.4946461;0.005058106;1.831094;-0.3447343;-0.05538496;0.9411979;-0.09421311;0;0;0;0.8650344;1.767405;-0.4946492;1.154957;1.791819;-0.3447391;1.287905;0.8602533;-0.1378931;1.286528;-0.07784104;-0.00460887;0.2855515;1.573659;1.622088;0.743451;0.865948;2.818053;0.9255242;0.6773989;4.138517;0.2855515;1.573659;1.622088;0.743451;0.865948;2.818053;0.9255242;0.6773989;4.138517
189998.308;NotLabelled;16384;-0.1232687;0.3213296;-0.6698706;-0.6578947;-1;-6;-1;-1042;3930;-305;65536;0.06232687;-0.132964;0.6786703;0.7196128;1;-4;-2;363;4185;277;8192;0.6527514;-0.6440443;0.1772853;0.3573407;-4;0;4;1084;3983;-285;32768;0.6038781;-0.6630199;0.2700831;0.3504155;-2;-1;5;-281;4223;572;256;0.6495845;-0.07756232;-0.7536345;-0.06371191;3;0;0;129;894;3921;128;-0.5927978;0.06648199;0.792423;0.1274238;-3;-1;0;173;1199;-3972;4;0.3268698;0.368421;-0.5180055;-0.6993514;0;-1;-2;-3397;1988;-1026;16;0.166205;-0.7065708;-0.07063711;0.6842105;0;-4;0;-1289;516;3848;2;0.5415512;-0.7002902;-0.3725762;0.2783934;1;-1;2;3309;2296;-543;8;-0.01385042;-0.7039255;0.1509695;0.6939058;0;-2;1;943;801;3897;0.5974144;1.579132;1.576813;0.5975779;1.594034;1.031469;0.5976994;1.60511;0.5520574;0.602632;1.74952;-0.1673753;0.3450038;1.785167;-0.4946439;0.005068138;1.831093;-0.3447322;-0.05538438;0.9411976;-0.09421307;0;0;0;0.8650445;1.767405;-0.494647;1.154967;1.791819;-0.3447371;1.287908;0.8602529;-0.137886;1.28333;-0.07782412;-0.004554152;0.2855616;1.573659;1.62209;0.743461;0.8659477;2.818055;0.9243517;0.6798859;4.139034;0.2855616;1.573659;1.62209;0.743461;0.8659477;2.818055;0.9243517;0.6798859;4.139034
190019.1356;NotLabelled;16384;-0.1218837;0.3213296;-0.670124;-0.6578947;0;-5;-1;-1084;4008;-325;65536;0.06232687;-0.132964;0.6786703;0.7196128;1;0;-2;267;4087;289;8192;0.654489;-0.6426592;0.1759003;0.3573407;-1;4;3;994;4033;-569;32768;0.6038781;-0.6637501;0.2700831;0.3490305;0;3;5;-255;4067;668;256;0.6495845;-0.07894737;-0.7533723;-0.06509695;4;-1;-1;243;856;3949;128;-0.5927978;0.06786703;0.7920815;0.1288089;-4;0;0;107;1215;-3858;4;0.3268698;0.368421;-0.5180055;-0.6993514;0;-1;-1;-3385;2048;-1044;16;0.166205;-0.7065708;-0.07063711;0.6842105;-1;-3;0;-1379;576;3762;2;0.5415512;-0.7002902;-0.3725762;0.2783934;0;-1;1;3357;2338;-549;8;-0.01385042;-0.7039255;0.1509695;0.6939058;-1;0;1;915;795;3941;0.5977272;1.570942;1.574155;0.597914;1.587973;1.028874;0.598056;1.600921;0.5495092;0.6031212;1.748158;-0.1693496;0.3455459;1.785156;-0.4965101;0.005601265;1.830577;-0.3464642;-0.05534356;0.9411968;-0.09423722;0;0;0;0.8655822;1.767266;-0.4965134;1.15549;1.791018;-0.3464695;1.292693;0.8599876;-0.1399932;1.286059;-0.07821739;-0.007644176;0.2858723;1.565291;1.619397;0.7432495;0.8575805;2.815562;0.9235632;0.6715187;4.13662;0.2858723;1.565291;1.619397;0.7432495;0.8575805;2.815562;0.9235632;0.6715187;4.13662
190039.615;NotLabelled;16384;-0.1218837;0.3199446;-0.6707864;-0.6578947;0;-2;-2;-960;3938;-239;65536;0.06371191;-0.132964;0.6800554;0.7181824;0;-2;-2;411;3959;181;8192;0.654489;-0.6426592;0.1759003;0.3573407;0;1;2;850;3831;-541;32768;0.6038781;-0.6637501;0.2700831;0.3490305;0;0;2;-101;4161;484;256;0.6495845;-0.07894737;-0.7533723;-0.06509695;5;0;-1;99;916;3865;128;-0.5927978;0.06786703;0.7920815;0.1288089;-4;0;0;155;1263;-4008;4;0.3268698;0.368421;-0.5193906;-0.6983234;0;1;0;-3385;2000;-962;16;0.166205;-0.7065708;-0.07063711;0.6842105;-1;0;0;-1415;624;3800;2;0.5401662;-0.7013591;-0.3725762;0.2783934;1;-1;0;3387;2266;-639;8;-0.01385042;-0.7039255;0.1509695;0.6939058;-1;0;1;893;845;3867;0.6018517;1.571833;1.577748;0.6020385;1.588864;1.032466;0.6021805;1.601812;0.5531014;0.6072457;1.74905;-0.1657573;0.3496705;1.786048;-0.4929177;0.009725828;1.831468;-0.3428719;-0.05148238;0.9415923;-0.09246458;0;0;0;0.8697067;1.768157;-0.492921;1.159615;1.791909;-0.3428771;1.296817;0.8608788;-0.1364008;1.290184;-0.07732618;-0.004051924;0.2899969;1.566182;1.62299;0.7432443;0.8571993;2.819973;0.923558;0.6711379;4.141032;0.2899969;1.566182;1.62299;0.7432443;0.8571993;2.819973;0.923558;0.6711379;4.141032
190060.1466;NotLabelled;16384;-0.1204986;0.3199446;-0.6710365;-0.6578947;0;0;-1;-1140;3942;-239;65536;0.06371191;-0.1315789;0.6800554;0.7184375;0;0;0;297;4261;277;8192;0.6531261;-0.6440443;0.1759003;0.3573407;0;2;1;1006;4015;-207;32768;0.6038781;-0.6639119;0.2714681;0.3476454;0;3;2;-291;4007;496;256;0.6495845;-0.08033241;-0.7531048;-0.06648199;4;0;-1;157;892;3977;128;-0.5914127;0.06925207;0.7927703;0.1301939;-4;-2;0;201;1223;-3978;4;0.3268698;0.368421;-0.5180055;-0.6993514;-1;0;0;-3511;2072;-1042;16;0.166205;-0.7065708;-0.07063711;0.6842105;-1;1;0;-1321;622;3788;2;0.5401662;-0.7013591;-0.3725762;0.2783934;0;-2;1;3361;2322;-549;8;-0.01385042;-0.7039255;0.1509695;0.6939058;-1;0;1;943;843;3901;0.6018051;1.56272;1.573508;0.6020157;1.581922;1.028299;0.6021786;1.596779;0.5489898;0.607446;1.746842;-0.1692828;0.3499554;1.78519;-0.4963546;0.009987235;1.830103;-0.3462091;-0.0518591;0.9417546;-0.09059039;0;0;0;0.8699872;1.767172;-0.4963083;1.159866;1.790263;-0.3461056;1.293656;0.8600259;-0.1338919;1.284681;-0.07856727;-0.00447166;0.2899483;1.55689;1.618714;0.7466798;0.8491786;2.815125;0.9262807;0.6631169;4.136281;0.2899483;1.55689;1.618714;0.7466798;0.8491786;2.815125;0.9262807;0.6631169;4.136281
190081.3142;NotLabelled;16384;-0.1204986;0.3199446;-0.6710365;-0.6578947;0;-5;0;-1056;3892;-287;65536;0.06232687;-0.1315789;0.6800554;0.718559;1;-2;0;385;4171;291;8192;0.6534975;-0.6440443;0.1745152;0.3573407;-3;0;2;956;3933;-183;32768;0.6038781;-0.6639119;0.2714681;0.3476454;-2;-4;1;-369;4245;362;256;0.6495845;-0.08171745;-0.7529558;-0.06648199;5;-1;0;115;886;3901;128;-0.5927978;0.06925207;0.7917351;0.1301939;-2;-2;0;199;1263;-4020;4;0.3268698;0.368421;-0.5193906;-0.6983234;0;-1;-1;-3545;1978;-1018;16;0.166205;-0.7065708;-0.07063711;0.6842105;-1;0;0;-1377;606;3840;2;0.5401662;-0.7013591;-0.3725762;0.2783934;0;0;1;3399;2342;-585;8;-0.01385042;-0.7039255;0.1509695;0.6939058;0;0;1;935;793;3977;0.6010813;1.560756;1.574779;0.6012917;1.579917;1.029568;0.6014545;1.594738;0.5502573;0.6070117;1.746107;-0.1677392;0.3495919;1.785586;-0.4947321;0.009721205;1.830924;-0.3444938;-0.0520868;0.9415652;-0.09240484;0;0;0;0.8695856;1.766495;-0.4947348;1.159516;1.788712;-0.3444993;1.294487;0.858133;-0.1345464;1.285466;-0.08046055;-0.005129576;0.2892244;1.554929;1.619985;0.7414085;0.8459455;2.81737;0.9205487;0.6598839;4.138589;0.2892244;1.554929;1.619985;0.7414085;0.8459455;2.81737;0.9205487;0.6598839;4.138589
190101.2352;NotLabelled;16384;-0.1204986;0.3199446;-0.6710365;-0.6578947;1;0;-1;-1020;3892;-369;65536;0.06232687;-0.1315789;0.6800554;0.718559;0;1;0;365;3927;181;8192;0.654489;-0.6426592;0.1759003;0.3573407;0;-2;1;906;4119;-235;32768;0.602493;-0.6644433;0.2714681;0.3490305;-2;-2;1;-259;3967;506;256;0.6495845;-0.08171745;-0.7528322;-0.06786703;4;0;0;177;986;3935;128;-0.5927978;0.07063711;0.7916127;0.1301939;-1;1;0;57;1353;-3890;4;0.3282548;0.368421;-0.5193906;-0.6976734;0;0;-1;-3499;1954;-1046;16;0.166205;-0.7065708;-0.07063711;0.6842105;-1;0;0;-1403;574;3852;2;0.5401662;-0.7013591;-0.3725762;0.2783934;1;0;2;3329;2328;-581;8;-0.01385042;-0.7039255;0.1509695;0.6939058;-1;-1;0;977;833;3861;0.6014152;1.557838;1.572822;0.6016353;1.577902;1.027644;0.6018065;1.593517;0.5483586;0.6071693;1.746404;-0.1693177;0.349715;1.786101;-0.4962569;0.009745341;1.830505;-0.3459638;-0.05208259;0.9415643;-0.09240769;0;0;0;0.8697425;1.767957;-0.4962391;1.159615;1.790386;-0.3459234;1.296617;0.8596988;-0.137773;1.286667;-0.07847095;-0.005387664;0.2895576;1.551937;1.618012;0.741883;0.8454347;2.81681;0.9209583;0.6593728;4.138038;0.2895576;1.551937;1.618012;0.741883;0.8454347;2.81681;0.9209583;0.6593728;4.138038
190143.1515;NotLabelled;16384;-0.1191136;0.3199446;-0.6712838;-0.6578947;0;1;-2;-1202;3880;-121;65536;0.06371191;-0.1315789;0.6800554;0.7184375;-1;4;0;139;4059;115;8192;0.6548597;-0.6426592;0.1745152;0.3573407;-2;0;2;1038;3863;-347;32768;0.602493;-0.6644433;0.2714681;0.3490305;-1;-2;1;-277;4117;546;256;0.6495845;-0.08310249;-0.7526805;-0.06786703;2;1;0;265;992;3881;128;-0.5927978;0.07063711;0.7913837;0.1315789;-1;1;0;97;1327;-4048;4;0.3282548;0.368421;-0.5193906;-0.6976734;0;0;0;-3425;2024;-1040;16;0.166205;-0.7065708;-0.07063711;0.6842105;-1;-1;0;-1351;524;3800;2;0.5387812;-0.7024236;-0.3725762;0.2783934;0;-1;1;3359;2362;-541;8;-0.01385042;-0.7039255;0.1509695;0.6939058;0;0;0;907;847;3923;0.6016383;1.552757;1.573851;0.6018717;1.574049;1.028719;0.6020547;1.590744;0.5494699;0.6077524;1.744936;-0.1679245;0.3503895;1.785763;-0.4947962;0.01050792;1.830593;-0.34443;-0.05178583;0.9417536;-0.09063233;0;0;0;0.8703786;1.766548;-0.4947997;1.160292;1.788104;-0.3444358;1.298365;0.8575697;-0.1363059;1.28836;-0.0806011;-0.003924847;0.2897797;1.546754;1.61902;0.7416128;0.8402517;2.818004;0.9201456;0.6541903;4.139305;0.2897797;1.546754;1.61902;0.7416128;0.8402517;2.818004;0.9201456;0.6541903;4.139305
190164.1295;NotLabelled;16384;-0.1191136;0.3199446;-0.6726384;-0.6565097;-3;-2;-1;-1156;4110;-63;65536;0.06371191;-0.132964;0.6786703;0.7194914;-1;1;1;393;4269;387;8192;0.6548597;-0.6426592;0.1745152;0.3573407;0;0;0;944;3977;-509;32768;0.602493;-0.6644433;0.2714681;0.3490305;-1;2;0;-283;4085;642;256;0.6495845;-0.08310249;-0.7526805;-0.06786703;1;0;0;163;978;4075;128;-0.5927978;0.07063711;0.7913837;0.1315789;-2;0;0;201;1185;-4104;4;0.3268698;0.368421;-0.5193906;-0.6983234;0;0;0;-3527;2184;-966;16;0.1648199;-0.7068952;-0.07063711;0.6842105;0;-1;0;-1333;604;3798;2;0.5387812;-0.7024236;-0.3725762;0.2783934;0;0;0;3425;2306;-665;8;-0.01385042;-0.7039255;0.1509695;0.6939058;-1;1;0;951;739;3905;0.6019639;1.552322;1.572593;0.6021972;1.573614;1.027461;0.6023802;1.590308;0.5482121;0.6080779;1.7445;-0.1691824;0.350715;1.785328;-0.4960541;0.01083338;1.830157;-0.3456879;-0.05495849;0.9413908;-0.09251836;0;0;0;0.8707041;1.766112;-0.4960575;1.160618;1.787668;-0.3456936;1.298691;0.8571341;-0.1375638;1.288686;-0.08103669;-0.005182862;0.2901052;1.546318;1.617762;0.7417384;0.8373351;2.815356;0.9190963;0.6537645;4.137163;0.2901052;1.546318;1.617762;0.7417384;0.8373351;2.815356;0.9190963;0.6537645;4.137163
190206.4443;NotLabelled;16384;-0.1191136;0.3185596;-0.6732955;-0.6565097;-3;-3;-1;-1062;4108;-315;65536;0.06371191;-0.132964;0.6786703;0.7194914;0;-1;1;361;4103;519;8192;0.6548597;-0.6426592;0.1745152;0.3573407;0;-1;0;966;3979;-445;32768;0.602493;-0.6644433;0.2714681;0.3490305;-1;0;0;-263;4169;542;256;0.6495845;-0.08310249;-0.7525544;-0.06925207;0;0;1;137;1036;3989;128;-0.5927978;0.07063711;0.7913837;0.1315789;2;0;0;57;1323;-4104;4;0.3268698;0.368421;-0.5193906;-0.6983234;0;0;0;-3593;2052;-1070;16;0.1648199;-0.7068952;-0.07063711;0.6842105;0;0;0;-1389;526;3762;2;0.5387812;-0.7024236;-0.3725762;0.2783934;0;0;0;3461;2322;-627;8;-0.01385042;-0.7039255;0.1509695;0.6939058;0;0;0;953;779;3889;0.6025962;1.552016;1.573945;0.6028297;1.573308;1.028814;0.6030129;1.590003;0.5495647;0.608483;1.745712;-0.1675038;0.3510704;1.786757;-0.4943094;0.01109659;1.830651;-0.3438758;-0.05495761;0.9413908;-0.09251911;0;0;0;0.8710934;1.768489;-0.4943122;1.160956;1.790257;-0.3438805;1.299027;0.8597233;-0.1357498;1.289021;-0.07844639;-0.003368855;0.2907375;1.546013;1.619115;0.742359;0.8370295;2.816712;0.9197041;0.6534588;4.138521;0.2907375;1.546013;1.619115;0.742359;0.8370295;2.816712;0.9197041;0.6534588;4.138521
190227.1252;NotLabelled;16384;-0.1191136;0.3185596;-0.6732955;-0.6565097;2;0;-1;-936;3780;-493;65536;0.06232687;-0.132964;0.6786703;0.7196128;1;1;3;201;4179;293;8192;0.6548597;-0.6426592;0.1745152;0.3573407;0;2;1;1120;4103;-263;32768;0.601108;-0.6656966;0.2714681;0.3490305;-1;0;0;-203;4093;624;256;0.6495845;-0.08310249;-0.7525544;-0.06925207;0;1;0;357;962;4021;128;-0.5927978;0.07063711;0.7913837;0.1315789;0;2;0;71;1209;-3982;4;0.3268698;0.368421;-0.5193906;-0.6983234;0;0;0;-3579;1990;-1036;16;0.1648199;-0.7067554;-0.07202215;0.6842105;0;0;0;-1301;564;3914;2;0.5387812;-0.7024236;-0.3725762;0.2783934;1;0;0;3403;2210;-605;8;-0.01385042;-0.7039255;0.1509695;0.6939058;0;0;0;989;809;3931;0.6023383;1.551823;1.572152;0.6025718;1.573115;1.02702;0.602755;1.58981;0.5477713;0.608225;1.745519;-0.1692972;0.3508125;1.786565;-0.4961028;0.01083871;1.830458;-0.3456692;-0.05521547;0.9411979;-0.09431252;0;0;0;0.8708355;1.768296;-0.4961057;1.160698;1.790064;-0.345674;1.298769;0.8595304;-0.1375432;1.285856;-0.07832336;-0.003186703;0.2904796;1.54582;1.617321;0.7421011;0.8368366;2.814919;0.9194973;0.6558795;4.137081;0.2904796;1.54582;1.617321;0.7421011;0.8368366;2.814919;0.9194973;0.6558795;4.137081
190268.1736;NotLabelled;16384;-0.1191136;0.3199446;-0.6712838;-0.6578947;0;-3;0;-1202;4014;-145;65536;0.06232687;-0.132964;0.6800554;0.718304;-1;2;4;363;4053;215;8192;0.6552272;-0.6426592;0.1731302;0.3573407;2;1;0;898;3957;-451;32768;0.601108;-0.6656966;0.2714681;0.3490305;-2;1;0;-245;3961;406;256;0.6495845;-0.08310249;-0.7525544;-0.06925207;0;1;0;11;882;3959;128;-0.5927978;0.07063711;0.7913837;0.1315789;2;4;0;213;1229;-3948;4;0.3268698;0.368421;-0.5193906;-0.6983234;0;-1;0;-3595;2004;-1016;16;0.1648199;-0.7068952;-0.07063711;0.6842105;0;-2;-1;-1359;530;3890;2;0.5387812;-0.7024236;-0.3725762;0.2783934;0;0;0;3421;2312;-483;8;-0.01523546;-0.7038969;0.1509695;0.6939058;0;-1;0;1043;723;3937;0.6021807;1.551604;1.569692;0.6024143;1.572896;1.024561;0.6025973;1.58959;0.5453119;0.6080674;1.745299;-0.1717566;0.3506549;1.786345;-0.4985622;0.01068107;1.830239;-0.3481286;-0.05161537;0.9413996;-0.09433158;0;0;0;0.8706779;1.768076;-0.498565;1.160541;1.789844;-0.3481333;1.299753;0.8598113;-0.1385295;1.28684;-0.07804227;-0.00417304;0.2903219;1.5456;1.614862;0.7419434;0.8366168;2.812459;0.9192888;0.6530461;4.134268;0.2903219;1.5456;1.614862;0.7419434;0.8366168;2.812459;0.9192888;0.6530461;4.134268
190288.1368;NotLabelled;16384;-0.1191136;0.3199446;-0.6726384;-0.6565097;0;0;0;-1124;3932;-159;65536;0.06232687;-0.134349;0.6786703;0.7193555;-1;6;4;375;4167;305;8192;0.6534975;-0.6440443;0.1745152;0.3573407;0;0;-1;822;3905;-355;32768;0.601108;-0.6656966;0.2714681;0.3490305;-3;0;-1;-309;4173;496;256;0.6495845;-0.08310249;-0.7525544;-0.06925207;-3;1;1;33;928;3921;128;-0.5914127;0.06925207;0.7925416;0.1315789;2;0;0;233;1225;-4070;4;0.3268698;0.368421;-0.5193906;-0.6983234;0;-2;0;-3597;1964;-978;16;0.1648199;-0.7068952;-0.07063711;0.6842105;0;-3;0;-1281;520;3828;2;0.5387812;-0.7024236;-0.3725762;0.2783934;-1;-1;0;3451;2144;-675;8;-0.01523546;-0.7038969;0.1509695;0.6939058;0;0;0;1015;773;3957;0.602541;1.552776;1.568496;0.6027651;1.573208;1.023331;0.6029399;1.589147;0.5440568;0.6084101;1.744857;-0.1730117;0.3509975;1.785902;-0.499817;0.01102362;1.829796;-0.3493836;-0.05478037;0.9410297;-0.09621741;0;0;0;0.8710206;1.767633;-0.4998206;1.160883;1.789401;-0.349389;1.295748;0.858822;-0.1393682;1.282835;-0.07903147;-0.005011201;0.2906831;1.546844;1.61368;0.7423043;0.8378609;2.811278;0.9196497;0.6542903;4.133087;0.2906831;1.546844;1.61368;0.7423043;0.8378609;2.811278;0.9196497;0.6542903;4.133087
190308.3515;NotLabelled;16384;-0.1191136;0.3199446;-0.6726384;-0.6565097;-1;5;0;-1150;3954;-305;65536;0.06232687;-0.1357341;0.6786703;0.7190954;0;0;3;479;4081;475;8192;0.6538658;-0.6440443;0.1731302;0.3573407;0;1;0;1124;4069;-317;32768;0.601108;-0.6656966;0.2714681;0.3490305;-2;0;-1;-209;3985;626;256;0.6495845;-0.08171745;-0.7528322;-0.06786703;-6;1;1;231;792;3995;128;-0.5914127;0.06925207;0.7925416;0.1315789;0;-1;0;203;1113;-3976;4;0.3282548;0.368421;-0.5193906;-0.6976734;0;-1;0;-3573;2004;-954;16;0.1648199;-0.7068952;-0.07063711;0.6842105;0;-1;0;-1361;504;3872;2;0.5387812;-0.7024236;-0.3725762;0.2783934;0;0;0;3501;2204;-675;8;-0.01523546;-0.7038969;0.1509695;0.6939058;0;0;0;1035;701;3881;0.6029918;1.556267;1.567443;0.6032163;1.576699;1.022279;0.6033913;1.592638;0.5430037;0.6087257;1.745525;-0.1746728;0.3512585;1.785222;-0.5016018;0.01129479;1.829626;-0.3512952;-0.05438316;0.9408598;-0.09809615;0;0;0;0.8712859;1.767078;-0.5016044;1.161164;1.789508;-0.3513001;1.297275;0.859427;-0.1398777;1.284423;-0.07842636;-0.005515099;0.2911339;1.550335;1.612627;0.7435068;0.8438327;2.811407;0.9214603;0.6602621;4.133134;0.2911339;1.550335;1.612627;0.7435068;0.8438327;2.811407;0.9214603;0.6602621;4.133134
190329.2172;NotLabelled;16384;-0.1204986;0.3199446;-0.6723917;-0.6565097;0;2;0;-1188;3902;-525;65536;0.06094183;-0.1357341;0.6786703;0.7192141;1;-1;2;431;4035;311;8192;0.6538658;-0.6440443;0.1731302;0.3573407;0;-4;0;998;3997;-373;32768;0.601108;-0.6662597;0.2700831;0.3490305;-1;-1;0;-297;4179;596;256;0.6495845;-0.08171745;-0.7528322;-0.06786703;-2;1;0;163;814;4053;128;-0.5914127;0.06925207;0.7925416;0.1315789;3;0;0;161;1221;-4072;4;0.3282548;0.368421;-0.5193906;-0.6976734;0;0;1;-3519;1908;-978;16;0.1648199;-0.7068952;-0.07063711;0.6842105;0;-1;0;-1319;448;3856;2;0.5387812;-0.7018731;-0.3725762;0.2797784;0;0;0;3467;2266;-541;8;-0.01523546;-0.7038969;0.1509695;0.6939058;0;-1;0;969;733;3951;0.6023641;1.556585;1.567391;0.6025887;1.577017;1.022227;0.6027636;1.592955;0.5429518;0.608098;1.745843;-0.1747248;0.3506308;1.785539;-0.5016537;0.01066715;1.829944;-0.3513471;-0.05464189;0.9406562;-0.09988885;0;0;0;0.8706583;1.767395;-0.5016563;1.160537;1.789825;-0.3513521;1.296648;0.8597445;-0.1399297;1.284074;-0.07783449;-0.003636837;0.2905062;1.550652;1.612575;0.742879;0.8441503;2.811355;0.9208323;0.6605797;4.133082;0.2905062;1.550652;1.612575;0.742879;0.8441503;2.811355;0.9208323;0.6605797;4.133082
190350.1847;NotLabelled;16384;-0.1204986;0.3213296;-0.6717309;-0.6565097;3;0;0;-1204;3810;-469;65536;0.06094183;-0.1357341;0.6786703;0.7192141;0;2;3;253;3987;57;8192;0.6534975;-0.6440443;0.1745152;0.3573407;0;0;0;1086;3995;-361;32768;0.601108;-0.6655323;0.2700831;0.3504155;-1;0;0;-223;4045;606;256;0.6509695;-0.08033241;-0.7519079;-0.06648199;-7;0;0;297;814;4027;128;-0.5914127;0.06925207;0.7927703;0.1301939;1;-1;0;187;1151;-4042;4;0.3282548;0.368421;-0.5193906;-0.6976734;0;0;0;-3565;1942;-1036;16;0.1634349;-0.7072167;-0.07063711;0.6842105;1;0;0;-1291;530;3832;2;0.5387812;-0.7024236;-0.3725762;0.2783934;0;0;0;3445;2224;-505;8;-0.01523546;-0.7038969;0.1509695;0.6939058;0;2;0;949;753;3935;0.6035341;1.562232;1.566525;0.6037447;1.581434;1.021316;0.6039078;1.596291;0.5420068;0.6090522;1.746401;-0.1762571;0.3515171;1.784672;-0.5033026;0.01154578;1.829448;-0.3531233;-0.05432335;0.9406562;-0.100063;0;0;0;0.8715557;1.76685;-0.5033054;1.16144;1.79004;-0.3531282;1.295727;0.8594613;-0.1427376;1.284714;-0.07799721;-0.00548923;0.2916773;1.556402;1.611731;0.7402231;0.8499002;2.811948;0.9127924;0.6688242;4.134732;0.2916773;1.556402;1.611731;0.7402231;0.8499002;2.811948;0.9127924;0.6688242;4.134732
190371.1931;NotLabelled;16384;-0.1204986;0.3213296;-0.6717309;-0.6565097;-2;3;1;-1206;4258;-179;65536;0.06094183;-0.1371191;0.6786703;0.7189513;0;1;2;481;4081;455;8192;0.6534975;-0.6440443;0.1745152;0.3573407;0;-1;0;1036;3889;-497;32768;0.599723;-0.6667807;0.2700831;0.3504155;-1;1;0;-133;4113;528;256;0.6509695;-0.08033241;-0.7519079;-0.06648199;-7;1;0;75;808;4021;128;-0.5914127;0.06925207;0.7927703;0.1301939;2;-2;0;221;1173;-4042;4;0.3282548;0.368421;-0.5193906;-0.6976734;0;0;1;-3605;1978;-982;16;0.1634349;-0.708554;-0.07063711;0.6828254;0;1;0;-1355;532;3846;2;0.5387812;-0.7024236;-0.3725762;0.2783934;0;0;0;3467;2274;-591;8;-0.01523546;-0.7038969;0.1509695;0.6939058;1;0;0;975;755;3863;0.6039765;1.562054;1.564621;0.6041871;1.581256;1.019412;0.6043501;1.596113;0.5401022;0.6094947;1.746222;-0.1781617;0.3519594;1.784494;-0.5052071;0.01198819;1.829269;-0.3550279;-0.05386769;0.9404781;-0.1019643;0;0;0;0.8719981;1.766672;-0.50521;1.161882;1.789862;-0.3550328;1.296181;0.859283;-0.1446496;1.282262;-0.07784748;-0.005437493;0.2921197;1.556224;1.609826;0.7406656;0.8497221;2.810043;0.9081618;0.6677942;4.133363;0.2921197;1.556224;1.609826;0.7406656;0.8497221;2.810043;0.9081618;0.6677942;4.133363
190391.3854;NotLabelled;16384;-0.1204986;0.3213296;-0.6717309;-0.6565097;0;1;0;-1250;3786;-463;65536;0.06094183;-0.1371191;0.6786703;0.7189513;0;1;0;407;3889;225;8192;0.6538658;-0.6440443;0.1731302;0.3573407;0;0;0;958;4061;-385;32768;0.599723;-0.6667807;0.2700831;0.3504155;-1;-1;-1;-183;4053;520;256;0.6509695;-0.07894737;-0.7521758;-0.06509695;-6;0;0;69;808;3977;128;-0.5914127;0.06925207;0.7929965;0.1288089;3;0;0;141;1251;-3938;4;0.3282548;0.367036;-0.5193906;-0.698403;0;0;1;-3601;1946;-1038;16;0.1648199;-0.7082331;-0.07063711;0.6828254;0;1;0;-1313;534;3902;2;0.5387812;-0.7024236;-0.3725762;0.2783934;0;0;0;3453;2264;-561;8;-0.01523546;-0.7038969;0.1509695;0.6939058;1;-3;0;913;713;3905;0.6040326;1.56803;1.565524;0.6042298;1.586001;1.020273;0.6043808;1.599778;0.540931;0.6093935;1.747061;-0.1779187;0.3518055;1.783984;-0.5050777;0.0118437;1.82927;-0.3550296;-0.05391299;0.9404781;-0.1019403;0;0;0;0.8718483;1.766286;-0.5050805;1.161747;1.790136;-0.3550342;1.297266;0.8600554;-0.143232;1.283408;-0.07707572;-0.004014611;0.2921769;1.562302;1.61075;0.7439215;0.8533602;2.808326;0.9131724;0.668932;4.131077;0.2921769;1.562302;1.61075;0.7439215;0.8533602;2.808326;0.9131724;0.668932;4.131077
190413.1358;NotLabelled;16384;-0.1204986;0.3227147;-0.6710666;-0.6565097;3;5;0;-1158;3766;-317;65536;0.06094183;-0.1385041;0.6786703;0.7186857;0;0;0;577;4163;251;8192;0.6534975;-0.6440443;0.1745152;0.3573407;0;-2;0;902;3989;-457;32768;0.599723;-0.666218;0.2714681;0.3504155;0;-4;-1;-179;4101;620;256;0.6509695;-0.07894737;-0.7521758;-0.06509695;-7;2;0;333;938;3955;128;-0.5914127;0.06786703;0.7931162;0.1288089;3;2;0;55;1175;-3936;4;0.3282548;0.367036;-0.5193906;-0.698403;-1;0;1;-3539;1918;-966;16;0.1634349;-0.708554;-0.07063711;0.6828254;1;-2;0;-1289;398;3892;2;0.5387812;-0.7024236;-0.3725762;0.2783934;0;0;-1;3429;2260;-517;8;-0.01523546;-0.7038969;0.1509695;0.6939058;2;0;0;981;731;3973;0.6042583;1.569458;1.563296;0.6044456;1.58653;1.018016;0.6045881;1.599515;0.5386527;0.6095735;1.746799;-0.1801974;0.3519731;1.783721;-0.5073462;0.012017;1.829007;-0.3572856;-0.05345561;0.9402962;-0.1038391;0;0;0;0.8720158;1.766023;-0.5073688;1.16192;1.789873;-0.3573339;1.296325;0.8589482;-0.1485542;1.2822;-0.07846284;-0.0112642;0.2924034;1.563804;1.608538;0.7441935;0.8548632;2.806096;0.9123281;0.6729355;4.129334;0.2924034;1.563804;1.608538;0.7441935;0.8548632;2.806096;0.9123281;0.6729355;4.129334
190433.4686;NotLabelled;16384;-0.1218837;0.3227147;-0.6708164;-0.6565097;1;2;0;-1170;4076;-123;65536;0.06094183;-0.1371191;0.6786703;0.7189513;0;0;0;379;3955;297;8192;0.6527383;-0.6440443;0.1745152;0.3587258;0;-6;1;1030;3941;-363;32768;0.599723;-0.6654876;0.2714681;0.3518005;0;-4;0;-355;3941;452;256;0.6509695;-0.07756232;-0.7524384;-0.06371191;-7;1;0;277;886;3863;128;-0.5914127;0.06786703;0.7931162;0.1288089;4;0;1;139;1223;-3888;4;0.3282548;0.367036;-0.5193906;-0.698403;0;0;0;-3563;2018;-936;16;0.1634349;-0.7072167;-0.07063711;0.6842105;1;-3;0;-1365;556;3904;2;0.5387812;-0.7024236;-0.3725762;0.2783934;0;1;0;3517;2266;-551;8;-0.01523546;-0.7038969;0.1509695;0.6939058;2;1;0;997;697;3997;0.6033087;1.573412;1.566273;0.603496;1.590484;1.020993;0.6036384;1.60347;0.5416293;0.6085197;1.747926;-0.1777948;0.3508791;1.783499;-0.5050616;0.01092645;1.829294;-0.3551473;-0.05395763;0.9404778;-0.101917;0;0;0;0.8709261;1.765926;-0.5050651;1.160839;1.790435;-0.3551533;1.295701;0.8603413;-0.1429914;1.283633;-0.07695222;-0.004705667;0.2914539;1.567759;1.611514;0.7437224;0.8588173;2.808892;0.9174585;0.6777418;4.131525;0.2914539;1.567759;1.611514;0.7437224;0.8588173;2.808892;0.9174585;0.6777418;4.131525
190454.1736;NotLabelled;16384;-0.1204986;0.3227147;-0.6710666;-0.6565097;1;-4;0;-1212;3944;-181;65536;0.06094183;-0.1385041;0.6786703;0.7186857;-1;4;0;401;4205;207;8192;0.6527383;-0.6440443;0.1745152;0.3587258;0;4;1;1078;4089;-341;32768;0.599723;-0.666218;0.2714681;0.3504155;0;2;0;-151;4033;632;256;0.6509695;-0.07617728;-0.7526959;-0.06232687;-7;0;0;141;836;3861;128;-0.5927978;0.06786703;0.7923055;0.1274238;4;0;0;157;1161;-3842;4;0.3296399;0.367036;-0.5193906;-0.6977503;0;0;0;-3545;1938;-1010;16;0.1634349;-0.7072167;-0.07063711;0.6842105;2;1;0;-1445;442;3890;2;0.5387812;-0.7024236;-0.3725762;0.2783934;0;1;0;3473;2208;-595;8;-0.01523546;-0.7038969;0.1509695;0.6939058;2;1;0;925;691;3909;0.6043063;1.578764;1.563529;0.6044797;1.594566;1.018211;0.60461;1.606435;0.5388187;0.6093614;1.748062;-0.1811683;0.3516692;1.782287;-0.5085381;0.0117253;1.828588;-0.3587606;-0.05354147;0.9402962;-0.1037953;0;0;0;0.8717204;1.764838;-0.5085416;1.161647;1.790007;-0.358766;1.296508;0.8599136;-0.146603;1.282496;-0.07749784;-0.009301305;0.2924526;1.573215;1.608792;0.7454323;0.8667536;2.807366;0.9197361;0.6856775;4.129923;0.2924526;1.573215;1.608792;0.7454323;0.8667536;2.807366;0.9197361;0.6856775;4.129923
190475.1394;NotLabelled;16384;-0.1218837;0.3227147;-0.6708164;-0.6565097;0;5;-2;-1048;3928;-441;65536;0.06232687;-0.1385041;0.6786703;0.718567;0;2;-1;499;4061;343;8192;0.6527383;-0.6440443;0.1745152;0.3587258;1;0;0;722;3897;-427;32768;0.599723;-0.6654876;0.2714681;0.3518005;0;-3;-1;-293;4001;408;256;0.6509695;-0.07479224;-0.7528347;-0.06232687;-5;1;0;131;822;3871;128;-0.5927978;0.06648199;0.7926444;0.1260388;5;0;0;229;1157;-3920;4;0.3296399;0.367036;-0.5193906;-0.6977503;-1;-2;0;-3525;1900;-916;16;0.1648199;-0.7082331;-0.07063711;0.6828254;1;0;0;-1213;432;3840;2;0.5387812;-0.7016873;-0.3739612;0.2783934;0;1;0;3459;2176;-539;8;-0.01523546;-0.7025288;0.1509695;0.6952909;2;1;0;1011;595;3867;0.6045876;1.586372;1.567524;0.6047378;1.600045;1.022148;0.6048476;1.610041;0.5427129;0.6092648;1.750357;-0.1775331;0.3514834;1.783449;-0.5049493;0.01145325;1.829323;-0.3552354;-0.05332834;0.9405069;-0.101979;0;0;0;0.8715695;1.767076;-0.5049527;1.161453;1.793117;-0.3552413;1.2964;0.863024;-0.1431339;1.284449;-0.07426989;-0.00483799;0.2927358;1.581;1.612821;0.7462114;0.8745387;2.811208;0.9171555;0.6901109;4.13374;0.2927358;1.581;1.612821;0.7462114;0.8745387;2.811208;0.9171555;0.6901109;4.13374
190495.1436;NotLabelled;16384;-0.1218837;0.3240997;-0.6701483;-0.6565097;2;3;-2;-1302;3762;-403;65536;0.06232687;-0.1385041;0.6786703;0.718567;0;0;-3;419;4091;311;8192;0.6527383;-0.6440443;0.1745152;0.3587258;0;-8;1;790;3907;-381;32768;0.599723;-0.6654876;0.2714681;0.3518005;0;-6;-1;-291;4173;514;256;0.6509695;-0.07479224;-0.7529481;-0.06094183;-6;1;0;137;792;3891;128;-0.5927978;0.06648199;0.7926444;0.1260388;4;-2;0;147;1065;-3824;4;0.3296399;0.367036;-0.5207756;-0.6967172;0;-3;0;-3383;2028;-912;16;0.1648199;-0.7082331;-0.07063711;0.6828254;2;-1;0;-1291;576;3806;2;0.5387812;-0.7016873;-0.3739612;0.2783934;0;2;0;3353;2206;-573;8;-0.01523546;-0.7025288;0.1509695;0.6952909;2;-1;0;967;867;3841;0.6039895;1.586675;1.566125;0.6041396;1.600348;1.020749;0.6042492;1.610344;0.5413135;0.608871;1.74914;-0.1792258;0.3511272;1.782014;-0.5066936;0.01119177;1.828821;-0.3570536;-0.05332903;0.9405062;-0.1019783;0;0;0;0.8711827;1.764693;-0.5066978;1.161123;1.790521;-0.3570603;1.296073;0.8604279;-0.1449541;1.284123;-0.07686615;-0.006658435;0.2921377;1.581303;1.611422;0.7414827;0.8735881;2.810624;0.9124389;0.6891606;4.133156;0.2921377;1.581303;1.611422;0.7414827;0.8735881;2.810624;0.9124389;0.6891606;4.133156
190516.3107;NotLabelled;16384;-0.1204986;0.3240997;-0.6703988;-0.6565097;2;-1;-2;-1206;3928;-279;65536;0.06232687;-0.1385041;0.6786703;0.718567;-1;0;-2;323;4083;225;8192;0.6516029;-0.6440443;0.1759003;0.3601108;-1;-9;2;1336;4039;-397;32768;0.599723;-0.6647536;0.2714681;0.3531856;0;-4;0;-287;3967;538;256;0.6509695;-0.07479224;-0.7529481;-0.06094183;-3;0;0;197;748;3853;128;-0.5927978;0.06648199;0.7928634;0.1246537;2;-4;1;147;1085;-3938;4;0.3296399;0.367036;-0.5207756;-0.6967172;0;-2;0;-3361;1992;-910;16;0.1648199;-0.7070322;-0.06925207;0.6842105;1;-1;0;-1377;530;3800;2;0.5387812;-0.7016873;-0.3739612;0.2783934;0;2;0;3189;2250;-521;8;-0.01523546;-0.7022297;0.1523546;0.6952909;1;-1;0;901;701;3861;0.6044077;1.588455;1.564444;0.6045442;1.6009;1.019039;0.6046419;1.609817;0.5395819;0.6092638;1.748613;-0.1809573;0.3515199;1.781487;-0.5084249;0.01158452;1.828293;-0.3587852;-0.05332854;0.9405067;-0.1019782;0;0;0;0.8715755;1.764165;-0.5084291;1.161516;1.789994;-0.3587915;1.295596;0.8598888;-0.1461842;1.285656;-0.07728302;-0.006906986;0.2925569;1.583186;1.60976;0.7419018;0.8754709;2.808963;0.9178785;0.6892884;4.130589;0.2925569;1.583186;1.60976;0.7419018;0.8754709;2.808963;0.9178785;0.6892884;4.130589
190537.137;NotLabelled;16384;-0.1204986;0.3240997;-0.6703988;-0.6565097;1;-1;-1;-1168;3966;-171;65536;0.06371191;-0.1385041;0.6786703;0.7184455;-1;2;-2;457;4141;253;8192;0.6525751;-0.6426592;0.1745152;0.3614958;-1;-2;4;1242;3813;-575;32768;0.5983379;-0.6654343;0.2728532;0.3531856;2;0;1;-355;4151;640;256;0.6523545;-0.0734072;-0.751885;-0.06094183;-5;0;0;129;750;3943;128;-0.5927978;0.06648199;0.7928634;0.1246537;2;-2;0;237;1059;-3852;4;0.3296399;0.365651;-0.5207756;-0.6974451;0;-1;0;-3345;1984;-974;16;0.1648199;-0.7070322;-0.06925207;0.6842105;0;0;0;-1355;580;3738;2;0.5387812;-0.7016873;-0.3739612;0.2783934;0;-4;1;3101;2244;-581;8;-0.01523546;-0.7022297;0.1523546;0.6952909;0;-2;0;935;753;3793;0.6063834;1.591689;1.566629;0.6065198;1.604134;1.021224;0.6066175;1.613051;0.5417672;0.6108658;1.750578;-0.1790177;0.3530259;1.782249;-0.5065283;0.0129866;1.828501;-0.3569518;-0.05274708;0.940714;-0.1003548;0;0;0;0.8731216;1.766182;-0.5065312;1.163007;1.792976;-0.3569573;1.301033;0.8639003;-0.1423806;1.287471;-0.07322574;-0.003100753;0.2945329;1.58642;1.611946;0.7426423;0.8762587;2.810164;0.9143294;0.6900758;4.132355;0.2945329;1.58642;1.611946;0.7426423;0.8762587;2.810164;0.9143294;0.6900758;4.132355
190558.1316;NotLabelled;16384;-0.1204986;0.3254848;-0.6697274;-0.6565097;0;1;0;-1132;3994;-261;65536;0.06371191;-0.1385041;0.6772853;0.7197513;0;0;-3;581;4053;423;8192;0.6518059;-0.6426592;0.1745152;0.3628809;1;-2;4;866;3935;-395;32768;0.599723;-0.6641863;0.2728532;0.3531856;2;-2;1;-265;4017;456;256;0.6523545;-0.0734072;-0.751996;-0.05955679;-4;0;0;63;758;3907;128;-0.5927978;0.06786703;0.7929626;0.1232687;1;-4;0;187;1171;-3886;4;0.3310249;0.365651;-0.5207756;-0.6967888;0;-2;0;-3405;1944;-960;16;0.1648199;-0.7070322;-0.06925207;0.6842105;0;-1;0;-1323;596;3716;2;0.5387812;-0.7024236;-0.3725762;0.2783934;0;-4;1;3159;2192;-539;8;-0.01523546;-0.7022297;0.1523546;0.6952909;0;-1;-1;941;755;3843;0.6022096;1.592538;1.565742;0.6023426;1.604658;1.020329;0.6024371;1.613288;0.5408671;0.6068777;1.749297;-0.1802046;0.3490693;1.780751;-0.5077613;0.0091272;1.827938;-0.3582555;-0.05634447;0.9405048;-0.1003676;0;0;0;0.869135;1.763736;-0.5077707;1.159081;1.790314;-0.3582754;1.297395;0.8616052;-0.1423019;1.286735;-0.07584906;-0.004992485;0.2903593;1.587296;1.611063;0.7386885;0.8796175;2.810668;0.910403;0.6934345;4.132855;0.2903593;1.587296;1.611063;0.7386885;0.8796175;2.810668;0.910403;0.6934345;4.132855
190578.1444;NotLabelled;16384;-0.1191136;0.3254848;-0.6699751;-0.6565097;4;-2;-4;-1284;3720;-477;65536;0.06371191;-0.1357341;0.6772853;0.7202789;0;-3;-8;447;3963;249;8192;0.6518059;-0.6426592;0.1745152;0.3628809;0;-1;4;1018;3911;-285;32768;0.599723;-0.6643509;0.2742382;0.3518005;3;-1;3;-315;4159;550;256;0.6523545;-0.0734072;-0.751996;-0.05955679;-2;0;0;145;760;3781;128;-0.5927978;0.06786703;0.7929626;0.1232687;0;0;1;83;1181;-3732;4;0.3310249;0.365651;-0.5207756;-0.6967888;0;-5;-1;-3351;1964;-976;16;0.1648199;-0.7070322;-0.06925207;0.6842105;0;-1;-1;-1395;574;3822;2;0.5387812;-0.7018731;-0.3725762;0.2797784;0;-2;2;3215;2202;-483;8;-0.01523546;-0.7022297;0.1523546;0.6952909;-1;-2;0;983;791;3875;0.6016619;1.592192;1.567296;0.6017949;1.604311;1.021883;0.6018896;1.612942;0.5424216;0.6063392;1.74895;-0.17865;0.3485349;1.780405;-0.5062097;0.008590892;1.827591;-0.3567084;-0.05726599;0.9408472;-0.09656082;0;0;0;0.8686005;1.76339;-0.5062131;1.158545;1.789968;-0.3567142;1.296852;0.861388;-0.1401829;1.283915;-0.07646036;-0.005794883;0.2898116;1.58695;1.612618;0.7381258;0.8792713;2.812227;0.9098237;0.6930885;4.134417;0.2898116;1.58695;1.612618;0.7381258;0.8792713;2.812227;0.9098237;0.6930885;4.134417
190598.53;NotLabelled;16384;-0.1163435;0.3268698;-0.6697876;-0.6565097;3;-5;-6;-1320;3846;-233;65536;0.06509695;-0.1357341;0.6772853;0.720155;0;-2;-10;409;4093;243;8192;0.6514027;-0.6426592;0.1731302;0.3642659;2;0;7;1230;3841;-491;32768;0.599723;-0.6643509;0.2742382;0.3518005;7;1;8;-393;3993;708;256;0.6537396;-0.0734072;-0.7507922;-0.05955679;0;-1;-1;165;828;3707;128;-0.5927978;0.06786703;0.7929626;0.1232687;0;-1;1;127;1177;-3668;4;0.33241;0.365651;-0.5207756;-0.6961291;1;-3;-2;-3213;1920;-978;16;0.1648199;-0.7070322;-0.06925207;0.6842105;-1;-1;-1;-1359;616;3790;2;0.5373961;-0.7029341;-0.3725762;0.2797784;0;-3;2;3173;2230;-541;8;-0.0166205;-0.7021983;0.1523546;0.6952909;-1;-5;0;983;753;3843;0.6037825;1.590937;1.563833;0.6039156;1.603056;1.018421;0.6040103;1.611687;0.5389585;0.6084153;1.74774;-0.1821051;0.3506011;1.779126;-0.5096635;0.01064057;1.826187;-0.3601602;-0.05666897;0.9410446;-0.09497668;0;0;0;0.8706726;1.762288;-0.5096662;1.160607;1.788956;-0.3601651;1.299524;0.8613935;-0.1396992;1.286096;-0.07645547;-0.005359769;0.2919323;1.585694;1.609155;0.7360464;0.8805034;2.811788;0.9029086;0.6943207;4.134596;0.2919323;1.585694;1.609155;0.7360464;0.8805034;2.811788;0.9029086;0.6943207;4.134596
190619.838;NotLabelled;16384;-0.1149584;0.3268698;-0.6700267;-0.6565097;2;-9;-8;-1390;3886;-289;65536;0.06509695;-0.134349;0.6772853;0.7204147;-2;-3;-13;459;4019;285;8192;0.651357;-0.6426592;0.1703601;0.365651;6;3;14;1384;3593;-563;32768;0.601108;-0.6645602;0.2742382;0.3490305;12;2;14;-521;4031;698;256;0.6537396;-0.0734072;-0.7507922;-0.05955679;0;-4;-2;85;892;3539;128;-0.5941828;0.06925207;0.7918054;0.1232687;1;-6;1;175;1215;-3570;4;0.33241;0.365651;-0.5207756;-0.6961291;0;-1;-2;-3261;1948;-888;16;0.1634349;-0.7073537;-0.06925207;0.6842105;-1;-1;-1;-1437;576;3756;2;0.5373961;-0.7023813;-0.3725762;0.2811634;0;-3;3;3233;2182;-575;8;-0.0166205;-0.7018964;0.1537396;0.6952909;-2;-6;0;921;797;3829;0.6036561;1.588489;1.562581;0.6037989;1.601478;1.017188;0.6039021;1.610874;0.5377407;0.6083317;1.746926;-0.1833225;0.3505286;1.778312;-0.5108898;0.01056294;1.825373;-0.3613982;-0.05712293;0.9412065;-0.09307578;0;0;0;0.8706;1.761474;-0.5108753;1.16053;1.788143;-0.3613642;1.301944;0.8625007;-0.1345072;1.287441;-0.07589138;-0.004129052;0.2918049;1.583174;1.607888;0.7358781;0.8779833;2.810537;0.9015275;0.6942952;4.133846;0.2918049;1.583174;1.607888;0.7358781;0.8779833;2.810537;0.9015275;0.6942952;4.133846
190640.1482;NotLabelled;16384;-0.1121884;0.3268698;-0.670496;-0.6565097;5;-11;-13;-1476;3746;-505;65536;0.06648199;-0.132964;0.6772853;0.7205452;-1;-3;-17;575;3997;319;8192;0.6505141;-0.6426592;0.16759;0.368421;9;5;20;1496;3505;-611;32768;0.601108;-0.6641372;0.2770083;0.3476454;14;0;22;-487;3895;672;256;0.6537396;-0.07479224;-0.7507641;-0.05817174;1;-7;-2;17;930;3535;128;-0.5941828;0.06925207;0.7918054;0.1232687;3;-6;1;271;1317;-3506;4;0.33241;0.365651;-0.5207756;-0.6961291;0;-2;-3;-3307;1954;-988;16;0.1634349;-0.7073537;-0.06925207;0.6842105;-2;0;-1;-1357;576;3700;2;0.5373961;-0.7018253;-0.3725762;0.2825485;1;-1;5;3177;2228;-523;8;-0.01800554;-0.7004874;0.1537396;0.6966759;-3;-2;0;925;793;3885;0.6034813;1.586076;1.564254;0.6036238;1.599065;1.018861;0.6037269;1.60846;0.5394134;0.6086539;1.744313;-0.1816846;0.3509605;1.776619;-0.5092489;0.01118708;1.825039;-0.359754;-0.05729635;0.9415529;-0.08939996;0;0;0;0.8709625;1.757758;-0.5092519;1.161;1.783337;-0.3597596;1.305086;0.8594575;-0.1274627;1.28803;-0.07955766;-0.001975656;0.2916303;1.580761;1.609561;0.7352683;0.8755703;2.81237;0.9004385;0.6918821;4.135739;0.2916303;1.580761;1.609561;0.7352683;0.8755703;2.81237;0.9004385;0.6918821;4.135739
190660.1336;NotLabelled;16384;-0.1080332;0.3282548;-0.6705018;-0.6565097;5;-16;-18;-1478;3560;-507;65536;0.06925207;-0.1301939;0.6772853;0.72079;0;0;-22;527;4063;371;8192;0.6526222;-0.6398892;0.1606648;0.3725762;2;8;25;988;4067;-277;32768;0.602493;-0.6634248;0.2825485;0.3421052;10;3;18;-243;3937;310;256;0.6551247;-0.07479224;-0.7495558;-0.05817174;2;-6;-3;13;974;3505;128;-0.5941828;0.07063711;0.7918975;0.1218837;3;-5;1;203;1295;-3636;4;0.33241;0.365651;-0.5221606;-0.6950908;0;-4;-3;-3335;1978;-982;16;0.1634349;-0.7072167;-0.07063711;0.6842105;-2;1;-1;-1325;562;3742;2;0.5373961;-0.7018253;-0.3725762;0.2825485;0;-3;7;3113;2250;-483;8;-0.01939058;-0.7004505;0.1537396;0.6966759;-4;-3;0;1063;865;3853;0.6052456;1.585234;1.564688;0.6053848;1.597904;1.019288;0.605485;1.607018;0.539835;0.6103677;1.742919;-0.181254;0.3526643;1.775159;-0.5088168;0.01287383;1.823453;-0.3593203;-0.05738875;0.9422019;-0.08221351;0;0;0;0.8726728;1.756477;-0.5088195;1.162701;1.782144;-0.3593251;1.318504;0.8627839;-0.1168864;1.29505;-0.07784593;-0.005292773;0.2933947;1.579946;1.610001;0.7284644;0.8735201;2.815213;0.8888333;0.6924441;4.139532;0.2933947;1.579946;1.610001;0.7284644;0.8735201;2.815213;0.8888333;0.6924441;4.139532
190680.1984;NotLabelled;16384;-0.1024931;0.3282548;-0.671371;-0.6565097;5;-18;-24;-1458;3750;-443;65536;0.07063711;-0.1274238;0.6759003;0.7224489;0;-1;-29;411;4047;343;8192;0.6546516;-0.6385041;0.1578947;0.3725762;0;12;19;630;4097;-287;32768;0.602493;-0.6642556;0.2839335;0.3393352;8;8;14;99;4367;296;256;0.6551247;-0.07756232;-0.7492742;-0.05817174;5;-3;-1;159;784;3787;128;-0.5941828;0.07063711;0.7918975;0.1218837;-1;-2;0;19;1139;-3658;4;0.333795;0.365651;-0.5221606;-0.6944268;0;-4;-6;-3119;1940;-974;16;0.1634349;-0.7072167;-0.07063711;0.6842105;-4;-1;-2;-1305;624;3794;2;0.536011;-0.7023253;-0.3725762;0.2839335;0;-4;7;3027;2206;-555;8;-0.02077562;-0.7004107;0.1537396;0.6966759;-4;-6;1;1019;821;3777;0.6015644;1.577372;1.562603;0.6017032;1.590041;1.017203;0.6018031;1.599156;0.5377498;0.6073506;1.737697;-0.1828322;0.3498301;1.772204;-0.5103076;0.01021904;1.821343;-0.3606785;-0.06153781;0.9424055;-0.07669171;0;0;0;0.8697573;1.751384;-0.5103108;1.159867;1.775307;-0.360684;1.320768;0.8571727;-0.1169302;1.293086;-0.08381391;-0.009383678;0.2897136;1.572084;1.607916;0.7239641;0.8681548;2.814883;0.883233;0.6870787;4.139335;0.2897136;1.572084;1.607916;0.7239641;0.8681548;2.814883;0.883233;0.6870787;4.139335
190700.2342;NotLabelled;16384;-0.09141274;0.3310249;-0.671611;-0.6565097;10;-17;-32;-1380;3546;-447;65536;0.07756232;-0.1191136;0.6759003;0.7231562;4;-4;-36;129;4017;439;8192;0.6553135;-0.6385041;0.1551246;0.3725762;2;16;17;870;4183;-363;32768;0.6038781;-0.6638137;0.2853186;0.3365651;7;6;11;77;3991;366;256;0.6551247;-0.07894737;-0.7490207;-0.05955679;11;-3;0;121;872;3613;128;-0.5941828;0.07202215;0.7917727;0.1218837;1;0;0;45;1201;-3668;4;0.33518;0.365651;-0.5207756;-0.6947996;1;-4;-5;-3117;1852;-928;16;0.1620499;-0.7075354;-0.07063711;0.6842105;-5;-4;-1;-1355;598;3650;2;0.536011;-0.7023253;-0.3725762;0.2839335;2;-5;7;3079;2130;-545;8;-0.02216066;-0.7003683;0.1537396;0.6966759;-6;-7;1;925;751;3673;0.6021031;1.566876;1.563339;0.6022521;1.580452;1.017962;0.6023608;1.590364;0.5385242;0.6080887;1.731737;-0.1815058;0.3506439;1.767589;-0.5088962;0.01101264;1.816215;-0.3591456;-0.06275513;0.943763;-0.0563003;0;0;0;0.8705664;1.746655;-0.5088738;1.16065;1.769924;-0.359094;1.323383;0.8533807;-0.1106167;1.294483;-0.08823681;-0.009081602;0.2902514;1.561512;1.608638;0.7282565;0.8613112;2.816416;0.8857197;0.6827338;4.141423;0.2902514;1.561512;1.608638;0.7282565;0.8613112;2.816416;0.8857197;0.6827338;4.141423
190721.135;NotLabelled;16384;-0.08587258;0.333795;-0.6709708;-0.6565097;11;-13;-33;-1476;3696;-41;65536;0.08033241;-0.1149584;0.6759003;0.7235261;3;-7;-38;293;3953;179;8192;0.6559631;-0.6385041;0.1523546;0.3725762;2;8;22;1104;3699;-387;32768;0.602493;-0.6651748;0.2867036;0.33518;6;-4;15;-463;3917;650;256;0.6551247;-0.08171745;-0.748612;-0.06094183;14;-5;-3;263;912;3783;128;-0.5941828;0.07202215;0.7917727;0.1218837;-1;-6;1;133;1189;-3694;4;0.3365651;0.367036;-0.5207756;-0.6933984;0;-2;-5;-3169;1880;-828;16;0.1606648;-0.7078512;-0.07063711;0.6842105;-7;-1;-2;-1279;540;3610;2;0.534626;-0.7028196;-0.3725762;0.2853186;2;-7;6;3209;2112;-577;8;-0.0235457;-0.700323;0.1537396;0.6966759;-7;-7;1;873;825;3719;0.6036291;1.559194;1.566811;0.603778;1.57277;1.021433;0.6038867;1.582682;0.5419961;0.6094401;1.728205;-0.1772082;0.351852;1.766535;-0.5042049;0.01243545;1.815064;-0.3539368;-0.06340106;0.9442304;-0.04697346;0;0;0;0.8717254;1.74442;-0.5046688;1.161964;1.766164;-0.3549607;1.324954;0.8486007;-0.1104469;1.290949;-0.09295964;-0.009969592;0.2917774;1.553831;1.61211;0.7273391;0.8586112;2.823644;0.8837148;0.6825358;4.149114;0.2917774;1.553831;1.61211;0.7273391;0.8586112;2.823644;0.8837148;0.6825358;4.149114
190741.1411;NotLabelled;16384;-0.07894737;0.333795;-0.6731715;-0.6551247;8;-22;-32;-1492;3862;-343;65536;0.08310249;-0.1094183;0.6759003;0.7240721;6;-11;-37;321;4357;429;8192;0.6566821;-0.6371191;0.1481994;0.3753462;3;-6;26;1476;3511;-467;32768;0.602493;-0.6646714;0.2894737;0.333795;11;-10;18;-65;4261;502;256;0.6551247;-0.08310249;-0.7483456;-0.06232687;16;-4;-5;307;932;3799;128;-0.5941828;0.0734072;0.7916455;0.1218837;-4;-4;2;53;1155;-3768;4;0.3365651;0.367036;-0.5207756;-0.6933984;0;0;-5;-3177;2058;-986;16;0.1606648;-0.7063698;-0.07202215;0.6855956;-7;0;-3;-1327;582;3624;2;0.533241;-0.7027418;-0.3725762;0.2880886;1;-1;7;3267;2316;-549;8;-0.02493075;-0.7005778;0.1523546;0.6966759;-8;0;2;921;821;3863;0.6048751;1.549313;1.564678;0.6050342;1.563797;1.019323;0.6051519;1.574506;0.5399028;0.6114944;1.722857;-0.1787169;0.3542593;1.762531;-0.5058314;0.01469488;1.810542;-0.3557314;-0.06426327;0.9446613;-0.03581704;0;0;0;0.8741283;1.740303;-0.5058349;1.164214;1.761395;-0.3557366;1.335499;0.8487073;-0.09895265;1.298949;-0.09327829;-0.003480554;0.2930225;1.543874;1.609961;0.726954;0.8486544;2.822081;0.8866781;0.6760403;4.147607;0.2930225;1.543874;1.609961;0.726954;0.8486544;2.822081;0.8866781;0.6760403;4.147607
190762.162;NotLabelled;16384;-0.07202215;0.333795;-0.6739476;-0.6551247;10;-36;-32;-1254;3784;-595;65536;0.08587258;-0.1038781;0.6759003;0.7245647;6;-22;-36;-19;4071;489;8192;0.6542295;-0.6357341;0.1398892;0.3850415;15;3;37;1958;3217;-1235;32768;0.6052631;-0.6631587;0.2950138;0.3268698;32;15;29;-375;4045;890;256;0.6551247;-0.08587258;-0.747916;-0.06371191;17;-5;-6;267;896;3637;128;-0.5955678;0.07479224;0.7904742;0.1218837;-5;-1;2;41;1213;-3802;4;0.3365651;0.367036;-0.5207756;-0.6933984;1;1;-7;-3213;2064;-1026;16;0.1592798;-0.7065409;-0.0734072;0.6855956;-9;0;-2;-1333;686;3666;2;0.533241;-0.7027418;-0.3725762;0.2880886;1;-1;8;3355;2298;-535;8;-0.02631579;-0.7005271;0.1523546;0.6966759;-8;0;3;973;823;3895;0.6044531;1.538096;1.56596;0.6046216;1.553464;1.020629;0.6047475;1.56495;0.541227;0.6116127;1.717446;-0.1765199;0.3545531;1.759594;-0.5034627;0.01505885;1.807503;-0.3531711;-0.06504757;0.9449649;-0.02462865;0;0;0;0.8743706;1.736192;-0.5034657;1.164464;1.755758;-0.353176;1.346246;0.8512919;-0.07538009;1.305068;-0.09208179;0.002961636;0.2925998;1.532584;1.611229;0.7254013;0.8373644;2.823752;0.8827875;0.6698673;4.150214;0.2925998;1.532584;1.611229;0.7254013;0.8373644;2.823752;0.8827875;0.6698673;4.150214
190783.1596;NotLabelled;16384;-0.06509695;0.333795;-0.673304;-0.6565097;15;-35;-35;-1136;3572;-389;65536;0.08587258;-0.09695291;0.6772853;0.7242311;7;-23;-36;7;3999;255;8192;0.6523869;-0.6357341;0.132964;0.3905817;24;20;41;1850;3041;-1017;32768;0.6080332;-0.6620933;0.2977839;0.3213296;39;12;30;-9;4183;720;256;0.6565097;-0.08864266;-0.7462572;-0.06509695;18;-2;-5;201;946;3631;128;-0.5955678;0.07479224;0.7902594;0.1232687;-1;6;1;-167;1373;-3680;4;0.3365651;0.368421;-0.5207756;-0.6926634;1;1;-8;-3225;1868;-970;16;0.1592798;-0.7065409;-0.0734072;0.6855956;-9;0;-3;-1407;578;3790;2;0.533241;-0.7014357;-0.3739612;0.2894737;0;0;8;3377;2282;-567;8;-0.02631579;-0.7008269;0.1509695;0.6966759;-9;1;3;955;775;3953;0.6062481;1.525697;1.563483;0.60643;1.542287;1.018188;0.6065676;1.554847;0.5388129;0.6139705;1.711549;-0.1780223;0.3571058;1.756096;-0.5048;0.01764768;1.803751;-0.3543463;-0.06282393;0.9453114;-0.01532514;0;0;0;0.8768789;1.73173;-0.5047619;1.166955;1.749873;-0.3542601;1.351596;0.8520924;-0.05732095;1.308106;-0.09212637;0.008621097;0.2943938;1.520083;1.608732;0.7187681;0.8273476;2.825648;0.8699046;0.6598502;4.152837;0.2943938;1.520083;1.608732;0.7187681;0.8273476;2.825648;0.8699046;0.6598502;4.152837
190803.15;NotLabelled;16384;-0.04847645;0.3365651;-0.6733268;-0.6565097;15;-32;-52;-1422;3554;-339;65536;0.09141274;-0.08448754;0.6786703;0.7238178;8;-13;-43;-201;3993;289;8192;0.6531965;-0.6357341;0.1246537;0.3919668;29;31;44;1894;3175;-697;32768;0.6108033;-0.6616166;0.300554;0.3144044;42;19;31;329;3979;134;256;0.6551247;-0.09279778;-0.7465952;-0.06925207;20;-1;4;201;1184;3263;128;-0.5955678;0.07202215;0.7902995;0.1246537;4;15;-1;-53;1367;-3372;4;0.3379501;0.3711911;-0.5180055;-0.6925873;4;2;-10;-3391;1826;-758;16;0.1578947;-0.7065585;-0.07617728;0.6855956;-11;3;-2;-1433;474;3770;2;0.5318559;-0.7024865;-0.3739612;0.2894737;-2;1;8;3441;2170;-677;8;-0.02770083;-0.7010705;0.1495845;0.6966759;-9;0;3;975;633;3889;0.6059973;1.506731;1.56241;0.6061728;1.522726;1.017097;0.6063049;1.534763;0.5377086;0.61421;1.699864;-0.177233;0.3575475;1.748505;-0.5035861;0.01806459;1.794729;-0.3527428;-0.06052511;0.9455415;0.009240892;0;0;0;0.8772959;1.723617;-0.5035893;1.167317;1.7397;-0.3527483;1.359544;0.8462116;-0.04778755;1.312559;-0.09867382;0.004858017;0.2941434;1.501166;1.607669;0.7242473;0.8183945;2.828198;0.8772867;0.6586379;4.156123;0.2941434;1.501166;1.607669;0.7242473;0.8183945;2.828198;0.8772867;0.6586379;4.156123
190823.1472;NotLabelled;16384;-0.03878116;0.3393352;-0.6739135;-0.6551247;14;-25;-60;-1482;3352;-149;65536;0.09418282;-0.07894737;0.6786703;0.7240881;7;-7;-46;-109;4019;173;8192;0.653035;-0.6371191;0.1135734;0.3933518;32;42;44;1590;3521;-613;32768;0.6149584;-0.6597554;0.3033241;0.3074792;44;28;34;-369;3879;294;256;0.6537396;-0.09418282;-0.7473734;-0.07202215;17;1;7;29;1178;3269;128;-0.5941828;0.07063711;0.7914661;0.1246537;8;8;-3;221;1359;-3464;4;0.3393352;0.3725762;-0.5180055;-0.6911649;4;5;-11;-3423;1870;-796;16;0.1565097;-0.7065626;-0.07894737;0.6855956;-11;3;-4;-1337;322;3778;2;0.5318559;-0.7011745;-0.3753462;0.2908587;-2;5;8;3387;2074;-755;8;-0.02908587;-0.7013085;0.1481994;0.6966759;-10;0;2;961;605;3825;0.6077508;1.496737;1.557202;0.6079167;1.511857;1.011864;0.6080403;1.523126;0.5324571;0.6159426;1.692485;-0.1814879;0.3593116;1.742752;-0.5076189;0.01973089;1.787667;-0.3566001;-0.06077854;0.9453437;0.02067998;0;0;0;0.8790898;1.718497;-0.5076227;1.169049;1.734036;-0.3566059;1.365967;0.8471062;-0.03589666;1.318664;-0.09849072;0.001469731;0.2958978;1.491245;1.602475;0.7272573;0.8135092;2.825366;0.8834021;0.6614993;4.153839;0.2958978;1.491245;1.602475;0.7272573;0.8135092;2.825366;0.8834021;0.6614993;4.153839
190844.1648;NotLabelled;16384;-0.02908587;0.3434903;-0.6736416;-0.6537396;16;-20;-63;-1648;3360;-317;65536;0.09833795;-0.0734072;0.6786703;0.7241185;7;-4;-47;385;4047;267;8192;0.6535151;-0.6385041;0.1024931;0.3933518;32;57;48;1302;3551;-317;32768;0.6191136;-0.6584092;0.3060942;0.299169;41;25;35;189;3971;468;256;0.6523545;-0.09556787;-0.7482725;-0.0734072;10;2;8;109;1256;3377;128;-0.5941828;0.06925207;0.7915885;0.1246537;7;0;-3;297;1287;-3506;4;0.3393352;0.3739612;-0.5166205;-0.6914535;2;3;-13;-3497;1910;-800;16;0.1551246;-0.7067119;-0.08033241;0.6855956;-10;3;-5;-1267;412;3804;2;0.5318559;-0.6998546;-0.3767313;0.2922437;-3;11;11;3305;1978;-709;8;-0.03047091;-0.7015409;0.1468144;0.6966759;-10;1;2;1073;625;3837;0.6088399;1.486327;1.552565;0.6089956;1.500541;1.007203;0.6091104;1.511014;0.5277777;0.617251;1.683123;-0.1855063;0.3607117;1.734813;-0.5114872;0.02113191;1.77936;-0.3603569;-0.06060763;0.9449728;0.03390926;0;0;0;0.8804743;1.710228;-0.5114907;1.170416;1.724999;-0.3603626;1.371417;0.8441639;-0.02569437;1.322197;-0.1018438;-0.004849076;0.2969876;1.480911;1.597853;0.7335526;0.8069143;2.820964;0.8927695;0.6600335;4.149649;0.2969876;1.480911;1.597853;0.7335526;0.8069143;2.820964;0.8927695;0.6600335;4.149649
190865.3428;NotLabelled;16384;-0.01939058;0.3476454;-0.6732014;-0.6523545;17;-30;-58;-1856;3598;-615;65536;0.1038781;-0.06648199;0.6800554;0.7227131;9;-8;-46;-383;4197;287;8192;0.6547688;-0.6385041;0.08171745;0.3961219;26;22;49;1230;4135;-153;32768;0.6232687;-0.6555082;0.3144044;0.2880886;26;-8;31;3;4215;4;256;0.6523545;-0.09556787;-0.7481353;-0.07479224;3;6;7;-61;1138;3389;128;-0.5941828;0.06925207;0.7915885;0.1246537;3;-2;-2;91;1073;-3754;4;0.3407202;0.3753462;-0.5152354;-0.6910553;2;-1;-15;-3573;1844;-868;16;0.1551246;-0.7052065;-0.08171745;0.6869806;-10;3;-4;-1231;348;3922;2;0.5318559;-0.6970201;-0.3808864;0.2936288;0;4;14;2857;1968;-643;8;-0.033241;-0.7019893;0.1440443;0.6966759;-13;-2;2;1287;639;3755;0.6137571;1.477771;1.553824;0.6139129;1.491985;1.008462;0.6140276;1.502458;0.5290371;0.6219121;1.676073;-0.1838848;0.3653057;1.727973;-0.5097793;0.02563205;1.771581;-0.358586;-0.0566591;0.9444704;0.05061468;0;0;0;0.8851126;1.704343;-0.5097886;1.175014;1.71933;-0.3586044;1.388646;0.8519487;0.002347469;1.333286;-0.09392881;-0.003870964;0.3019049;1.472354;1.599113;0.7400076;0.8046579;2.825125;0.904355;0.6612673;4.153566;0.3019049;1.472354;1.599113;0.7400076;0.8046579;2.825125;0.904355;0.6612673;4.153566
190886.3835;NotLabelled;16384;-0.009695291;0.3490305;-0.6740344;-0.6509695;17;-32;-56;-1860;3858;-425;65536;0.1066482;-0.05955679;0.6800554;0.7229134;10;-15;-44;-571;4169;235;8192;0.6554203;-0.6371191;0.0734072;0.398892;14;31;53;1726;4585;-303;32768;0.6246537;-0.6539949;0.3185596;0.2839335;30;8;28;219;4347;498;256;0.6509695;-0.09556787;-0.7493408;-0.07479224;0;5;6;155;882;3945;128;-0.5941828;0.06925207;0.7915885;0.1246537;1;6;-1;-19;917;-3834;4;0.3434903;0.3753462;-0.5138504;-0.6907151;3;-4;-16;-3399;1798;-926;16;0.1537396;-0.705348;-0.08310249;0.6869806;-10;0;-5;-1211;472;3912;2;0.5304709;-0.6967323;-0.3822715;0.2950138;0;-1;13;2941;2014;-665;8;-0.03601108;-0.7018526;0.1440443;0.6966759;-14;-7;3;1153;625;3637;0.6144651;1.468839;1.551598;0.6146212;1.483054;1.006236;0.614736;1.493526;0.5268107;0.6227022;1.667079;-0.1861259;0.3661212;1.719066;-0.5120267;0.02646549;1.762834;-0.3608398;-0.05636315;0.9436786;0.06395711;0;0;0;0.8859179;1.695208;-0.5120293;1.175825;1.710079;-0.360845;1.39809;0.8499839;0.01212764;1.339916;-0.09558463;-0.005337119;0.3026128;1.463423;1.596886;0.7496289;0.8020816;2.823126;0.9177365;0.6638241;4.151641;0.3026128;1.463423;1.596886;0.7496289;0.8020816;2.823126;0.9177365;0.6638241;4.151641
190907.7128;NotLabelled;16384;0.009695291;0.3531856;-0.6758676;-0.6468144;15;-25;-58;-2096;3414;-55;65536;0.1149584;-0.04847645;0.6800554;0.7224675;7;-2;-44;-155;4381;129;8192;0.6569332;-0.6357341;0.06371191;0.400277;21;38;53;1626;3503;-857;32768;0.6274238;-0.6523678;0.3213296;0.2783934;33;12;24;1021;4033;-112;256;0.6495845;-0.09695291;-0.7500828;-0.07756232;17;0;0;379;946;3829;128;-0.5927978;0.06786703;0.7927461;0.1246537;0;-2;-1;269;1013;-3848;4;0.3462604;0.3781163;-0.5124654;-0.6888476;4;-2;-14;-3265;1832;-688;16;0.1495845;-0.7047263;-0.08448754;0.6883656;-13;-6;-5;-1081;450;3608;2;0.5290859;-0.6971975;-0.3822715;0.2963989;2;-5;13;3125;1970;-653;8;-0.03878116;-0.701705;0.1440443;0.6966759;-15;-7;4;1069;677;3657;0.6211685;1.448931;1.549708;0.621315;1.462278;1.004324;0.6214215;1.471988;0.524883;0.6293356;1.649798;-0.1870039;0.372763;1.703426;-0.5126452;0.03302402;1.745894;-0.3612752;-0.05484392;0.9416292;0.09013008;0;0;0;0.8925872;1.680177;-0.5126767;1.182444;1.694487;-0.3613422;1.413322;0.8409717;0.02138519;1.354011;-0.1042131;-0.008558393;0.3093171;1.443586;1.59501;0.7591268;0.7936947;2.826339;0.9332871;0.666456;4.155176;0.3093171;1.443586;1.59501;0.7591268;0.7936947;2.826339;0.9332871;0.666456;4.155176
190927.3899;NotLabelled;16384;0.01939058;0.3559557;-0.6755298;-0.6454294;11;-28;-60;-2178;3202;31;65536;0.1191136;-0.04432133;0.6800554;0.7220611;5;0;-44;-859;3811;129;8192;0.6557261;-0.6371191;0.05263158;0.4016621;38;33;48;1546;2905;-1413;32768;0.6301939;-0.649391;0.3254848;0.2742382;35;4;23;205;3943;-122;256;0.6495845;-0.09833795;-0.7496108;-0.08033241;15;5;0;19;970;3779;128;-0.5927978;0.06786703;0.7927461;0.1246537;0;-8;-2;331;1231;-3844;4;0.3476454;0.3795014;-0.5124654;-0.6873868;2;0;-12;-3431;1970;-746;16;0.1468144;-0.7053086;-0.08448754;0.6883656;-14;-2;-5;-1161;510;3638;2;0.5277008;-0.6968961;-0.3836565;0.2977839;2;-5;14;3303;1954;-665;8;-0.0401662;-0.70191;0.1426593;0.6966759;-17;-2;4;1049;643;3791;0.6245329;1.434142;1.543544;0.6246793;1.447489;0.9981605;0.6247859;1.457199;0.5187194;0.6326365;1.639324;-0.1920768;0.3760799;1.694506;-0.5174713;0.03622518;1.735509;-0.3659569;-0.05410618;0.940549;0.1011698;0;0;0;0.895941;1.672097;-0.5174746;1.185727;1.68596;-0.3659623;1.416529;0.8412274;0.03582466;1.35764;-0.1034564;-0.007670879;0.3126816;1.428798;1.588847;0.7591424;0.7840387;2.824086;0.9303635;0.6618258;4.153776;0.3126816;1.428798;1.588847;0.7591424;0.7840387;2.824086;0.9303635;0.6618258;4.153776
190948.1344;NotLabelled;16384;0.03047091;0.3573407;-0.677029;-0.6426592;7;-45;-59;-2138;3536;-495;65536;0.1232687;-0.03878116;0.6800554;0.7216824;6;-2;-43;-521;4163;207;8192;0.6546369;-0.6371191;0.04432133;0.4044321;37;25;47;1968;3537;-283;32768;0.6315789;-0.6482646;0.3296399;0.2686981;33;0;27;-275;4175;122;256;0.6495845;-0.09833795;-0.7494611;-0.08171745;9;0;1;67;1108;3713;128;-0.5927978;0.06925207;0.7928429;0.1232687;-1;-5;-2;143;1297;-3942;4;0.3490305;0.3795014;-0.5110803;-0.687716;0;0;-12;-3499;1890;-1016;16;0.1454294;-0.7054282;-0.08587258;0.6883656;-15;0;-5;-1177;410;3730;2;0.5263157;-0.6967544;-0.3836565;0.300554;2;-5;13;3337;2018;-605;8;-0.04293629;-0.7023035;0.1398892;0.6966759;-18;0;6;1135;639;3755;0.6295382;1.423761;1.54204;0.6296811;1.436783;0.9966486;0.6297843;1.446207;0.5172017;0.6373502;1.629837;-0.1932101;0.3807155;1.685232;-0.5185064;0.04077585;1.725295;-0.3669309;-0.05319562;0.9391171;0.1141318;0;0;0;0.9006166;1.663775;-0.5185189;1.190366;1.67785;-0.3669568;1.424593;0.8404354;0.04795063;1.361528;-0.103305;-0.00831151;0.317687;1.418443;1.587348;0.7684075;0.7775153;2.823034;0.9386201;0.6604527;4.153316;0.317687;1.418443;1.587348;0.7684075;0.7775153;2.823034;0.9386201;0.6604527;4.153316
190969.2422;NotLabelled;16384;0.04155125;0.3587258;-0.6783297;-0.6398892;13;-45;-61;-2038;3494;-765;65536;0.1274238;-0.033241;0.6800554;0.721237;11;-14;-44;-367;4361;533;8192;0.6536618;-0.6357341;0.02216066;0.4099723;31;42;64;2264;3469;-715;32768;0.6357341;-0.644022;0.3365651;0.2603878;33;7;25;683;3719;-514;256;0.6495845;-0.09972299;-0.7492781;-0.08171745;1;0;0;257;1122;3481;128;-0.5927978;0.06925207;0.7926263;0.1246537;-2;2;-1;5;1235;-3754;4;0.3504155;0.3808864;-0.5110803;-0.6862444;1;-2;-12;-3661;1678;-1040;16;0.1426593;-0.7044703;-0.08725762;0.6897507;-15;-1;-5;-1203;342;3838;2;0.5235457;-0.6968769;-0.3850415;0.3033241;1;-3;13;3465;2088;-593;8;-0.04847645;-0.70386;0.1371191;0.6952909;-17;-4;6;1159;405;3951;0.6335055;1.40623;1.538012;0.6336616;1.42048;0.9926508;0.6337765;1.430984;0.5132263;0.641839;1.615913;-0.1968433;0.3853735;1.672433;-0.5220796;0.04549044;1.71291;-0.3704871;-0.05225138;0.9375116;0.1270397;0;0;0;0.9052299;1.649914;-0.5220448;1.194982;1.663117;-0.3704085;1.439356;0.8469955;0.07959163;1.374792;-0.09496522;4.017353E-05;0.3216532;1.400811;1.583299;0.768976;0.7650429;2.82288;0.9414097;0.6565014;4.153599;0.3216532;1.400811;1.583299;0.768976;0.7650429;2.82288;0.9414097;0.6565014;4.153599
190990.1572;NotLabelled;16384;0.05401662;0.3601108;-0.6780228;-0.6385041;21;-42;-64;-1850;3104;-573;65536;0.1301939;-0.02631579;0.6800554;0.7210283;14;-16;-42;-965;3841;323;8192;0.6521987;-0.6357341;0.01108033;0.4127424;34;36;58;1848;3871;-879;32768;0.6385041;-0.6407551;0.3407202;0.2562327;29;1;19;281;4303;-248;256;0.6495845;-0.09972299;-0.7492781;-0.08171745;0;0;0;233;1174;3317;128;-0.5927978;0.07063711;0.7927207;0.1232687;5;-2;-1;29;1315;-3540;4;0.3518005;0.3822715;-0.5096953;-0.6857956;0;-6;-13;-3587;1674;-964;16;0.1412742;-0.7045765;-0.08864266;0.6897507;-16;-5;-5;-1269;206;3816;2;0.5221606;-0.6965451;-0.3864266;0.3047091;1;-1;15;3611;1924;-549;8;-0.05124654;-0.7039323;0.1357341;0.6952909;-16;-2;6;993;357;4107;0.6330909;1.395928;1.536803;0.6332434;1.409854;0.9914341;0.6333554;1.420073;0.5120032;0.6413529;1.605002;-0.198067;0.3848577;1.661522;-0.52328;0.04498839;1.701999;-0.3716566;-0.05123612;0.9357086;0.1400754;0;0;0;0.9047141;1.639004;-0.5232927;1.19448;1.652207;-0.3716828;1.442194;0.8453206;0.09291041;1.378385;-0.09543657;-0.0003190041;0.3212388;1.390535;1.582096;0.770108;0.7611877;2.824392;0.9416691;0.6578053;4.155634;0.3212388;1.390535;1.582096;0.770108;0.7611877;2.824392;0.9416691;0.6578053;4.155634
191012.2214;NotLabelled;16384;0.07617728;0.365651;-0.6755283;-0.6357341;19;-21;-68;-2052;3726;417;65536;0.1385041;-0.0166205;0.6814404;0.7184562;7;4;-35;-747;4155;-213;8192;0.6514143;-0.6357341;0;0.4141274;28;41;53;1598;4317;-237;32768;0.642301;-0.6371191;0.3434903;0.2520775;26;0;18;801;4163;-574;256;0.6495845;-0.09972299;-0.7491257;-0.08310249;1;8;0;279;1218;3377;128;-0.5927978;0.06925207;0.7928429;0.1232687;5;-2;-1;-85;1181;-3438;4;0.3559557;0.3850415;-0.5096953;-0.6820918;2;-9;-19;-3467;1610;-866;16;0.1357341;-0.7037729;-0.09279778;0.6911357;-17;-3;-5;-1475;82;3982;2;0.5221606;-0.6943923;-0.3891967;0.3060942;1;2;18;3625;1924;-577;8;-0.05263158;-0.7057232;0.132964;0.6939058;-16;0;6;1011;387;4145;0.6364362;1.371896;1.528842;0.6365793;1.384918;0.9834503;0.6366829;1.394343;0.5040031;0.6443808;1.580776;-0.2056769;0.3878004;1.637509;-0.5307853;0.04784925;1.677045;-0.3790977;-0.04514694;0.9321513;0.1638705;0;0;0;0.9076972;1.615943;-0.5308151;1.19743;1.629358;-0.3791608;1.447473;0.8317516;0.09998143;1.387107;-0.1078312;-0.006445169;0.324585;1.366579;1.574149;0.7683524;0.750289;2.824795;0.9411308;0.6657729;4.157211;0.324585;1.366579;1.574149;0.7683524;0.750289;2.824795;0.9411308;0.6657729;4.157211
191032.304;NotLabelled;16384;0.08587258;0.368421;-0.6754616;-0.632964;11;-26;-67;-2378;3758;191;65536;0.1426593;-0.01246537;0.6814404;0.7177269;2;4;-32;-1155;4097;-145;8192;0.6527103;-0.634349;-0.008310249;0.4141274;28;35;56;1742;3397;-383;32768;0.6440101;-0.6357341;0.3448753;0.2493075;21;3;17;261;3733;-200;256;0.6481994;-0.09556787;-0.7507104;-0.08448754;-4;13;0;261;1016;3565;128;-0.5927978;0.07063711;0.7929348;0.1218837;0;4;1;3;1223;-3644;4;0.3587258;0.3864266;-0.5083103;-0.6808899;3;-4;-21;-3321;1588;-938;16;0.132964;-0.7041176;-0.09418282;0.6911357;-16;-1;-5;-1481;136;3946;2;0.5207756;-0.6940427;-0.3905817;0.3074792;1;3;20;3537;1982;-595;8;-0.05540166;-0.7057708;0.1315789;0.6939058;-15;-3;5;985;351;3975;0.6367143;1.366959;1.525359;0.6368535;1.379658;0.9799598;0.6369537;1.388799;0.5005073;0.6431953;1.572796;-0.2098229;0.38617;1.626465;-0.5351003;0.04594474;1.663984;-0.3835145;-0.04295911;0.930217;0.1750649;0;0;0;0.9062138;1.608795;-0.5351107;1.19585;1.624913;-0.3835362;1.455431;0.834599;0.1025676;1.395069;-0.1042094;-0.01049423;0.3248634;1.361668;1.570672;0.7766917;0.7545063;2.822896;0.9544715;0.6776929;4.15512;0.3248634;1.361668;1.570672;0.7766917;0.7545063;2.822896;0.9544715;0.6776929;4.15512
191053.5174;NotLabelled;16384;0.09695291;0.3698061;-0.6783679;-0.6274238;-1;-37;-70;-2492;3568;227;65536;0.1468144;-0.01108033;0.6814404;0.7169113;-4;6;-29;-593;3789;-171;8192;0.652056;-0.632964;-0.01939058;0.4168975;28;33;65;1952;3353;-493;32768;0.6449522;-0.634349;0.3476454;0.2465374;19;0;13;949;4331;-540;256;0.6481994;-0.09418282;-0.7507283;-0.08587258;-2;9;0;99;1248;3873;128;-0.5927978;0.06925207;0.7928429;0.1232687;3;4;0;187;1171;-3702;4;0.3601108;0.3878116;-0.5055401;-0.6814334;5;0;-22;-3299;1624;-940;16;0.1315789;-0.7041912;-0.09556787;0.6911357;-17;-4;-6;-1443;112;3896;2;0.5193906;-0.6929002;-0.3933518;0.3088643;0;6;21;3491;1966;-569;8;-0.0567867;-0.7059175;0.1301939;0.6939058;-17;-4;5;997;353;3959;0.6485109;1.355037;1.518642;0.6486536;1.36806;0.9732506;0.6487569;1.377484;0.4938036;0.65431;1.561691;-0.2164772;0.3970898;1.614451;-0.5417495;0.05671663;1.650611;-0.3901659;-0.04190335;0.9288769;0.1822874;0;0;0;0.9171981;1.598795;-0.5417463;1.206765;1.615994;-0.3901573;1.469303;0.8377764;0.113554;1.407453;-0.09995866;-0.00734055;0.3366598;1.34972;1.56395;0.7944851;0.750299;2.817724;0.9719768;0.6786628;4.150275;0.3366598;1.34972;1.56395;0.7944851;0.750299;2.817724;0.9719768;0.6786628;4.150275
191073.36;NotLabelled;16384;0.1080332;0.3711911;-0.6797662;-0.6232687;-4;-45;-68;-2690;3328;-457;65536;0.1509695;-0.008310249;0.6800554;0.7174007;-2;6;-26;-977;4221;205;8192;0.6479731;-0.6315789;-0.0401662;0.4238227;29;21;61;2484;2751;-599;32768;0.6475851;-0.6301939;0.3531856;0.2423823;24;-2;17;-237;3711;170;256;0.6468144;-0.09418282;-0.7517624;-0.08725762;0;11;0;51;1146;3645;128;-0.5927978;0.06925207;0.793057;0.1218837;2;0;0;121;1093;-3826;4;0.3628809;0.3905817;-0.5041551;-0.6794049;5;2;-22;-3267;1694;-938;16;0.1288089;-0.7043219;-0.09833795;0.6911357;-17;-2;-6;-1459;160;3734;2;0.5180055;-0.6911163;-0.3961219;0.3116343;0;7;21;3385;1898;-523;8;-0.05955679;-0.7059433;0.1288089;0.6939058;-17;-5;5;919;471;3819;0.6467395;1.344553;1.515205;0.6468691;1.356349;0.9697856;0.6469607;1.364695;0.4903189;0.6522681;1.55037;-0.2195821;0.3949785;1.603448;-0.5447472;0.05455547;1.638834;-0.393093;-0.04359845;0.9269211;0.1916071;0;0;0;0.9151075;1.5885;-0.5447717;1.20465;1.605781;-0.3931448;1.476442;0.8500657;0.1391121;1.414473;-0.08554351;0.002794743;0.3348894;1.339338;1.560532;0.7959723;0.7517569;2.818709;0.9765073;0.6904824;4.151368;0.3348894;1.339338;1.560532;0.7959723;0.7517569;2.818709;0.9765073;0.6904824;4.151368
191105.6942;NotLabelled;16384;0.1191136;0.3739612;-0.6801936;-0.6191136;1;-46;-67;-2742;3030;-547;65536;0.1537396;-0.006925208;0.6786703;0.7181384;0;-1;-26;-987;4115;171;8192;0.6479567;-0.6288089;-0.05263158;0.4265928;24;50;75;2340;2447;-795;32768;0.6489552;-0.6288089;0.3559557;0.2382271;30;12;14;537;4027;116;256;0.6468144;-0.09279778;-0.7519347;-0.08725762;-3;1;0;115;1008;3657;128;-0.5927978;0.06786703;0.7931767;0.1218837;4;6;0;251;1077;-3832;4;0.3642659;0.3919668;-0.501385;-0.6799158;5;4;-20;-3433;1658;-896;16;0.1274238;-0.7030174;-0.09972299;0.6925207;-18;1;-6;-1421;284;3622;2;0.5166205;-0.6884995;-0.400277;0.3144044;0;7;19;3287;1984;-531;8;-0.06371191;-0.7063264;0.1246537;0.6939058;-20;-3;5;945;505;3717;0.6488785;1.334499;1.50614;0.6489981;1.345391;0.9607016;0.649081;1.352943;0.4812216;0.6539831;1.537326;-0.2290191;0.3965741;1.589278;-0.5542714;0.0560844;1.624244;-0.4026695;-0.04633376;0.9256272;0.1971415;0;0;0;0.9167328;1.575397;-0.5542889;1.206244;1.59355;-0.4027046;1.483487;0.8520777;0.1465032;1.419588;-0.08193469;0.0004736185;0.3370292;1.329359;1.551481;0.804023;0.7495949;2.811104;0.9894289;0.6943433;4.143358;0.3370292;1.329359;1.551481;0.804023;0.7495949;2.811104;0.9894289;0.6943433;4.143358
191125.1396;NotLabelled;16384;0.1426593;0.3781163;-0.6821185;-0.6094183;0;-41;-67;-3184;2986;-173;65536;0.1606648;-0.001385042;0.6786703;0.716653;1;9;-24;-1443;4305;281;8192;0.6473925;-0.6260388;-0.06786703;0.4293629;29;54;79;2768;2859;-1117;32768;0.6522972;-0.6274238;0.3559557;0.232687;33;27;11;1067;4357;-658;256;0.6481994;-0.09279778;-0.7507411;-0.08725762;-5;0;0;-93;1182;3591;128;-0.5927978;0.06648199;0.793294;0.1218837;7;-1;-2;433;1235;-3850;4;0.365651;0.3947368;-0.5;-0.6785884;5;5;-19;-3555;1688;-954;16;0.1260388;-0.7028687;-0.1024931;0.6925207;-19;2;-7;-1355;334;3656;2;0.5166205;-0.6870574;-0.4016621;0.3157895;0;5;19;3157;1852;-507;8;-0.06648199;-0.7063142;0.1232687;0.6939058;-22;-3;6;1035;491;3749;0.6595818;1.304474;1.492203;0.6596914;1.314464;0.9467469;0.6597655;1.321223;0.4672549;0.6646016;1.505639;-0.2429769;0.4071774;1.557488;-0.5682344;0.06666743;1.59229;-0.4166394;-0.04479599;0.9221218;0.2132648;0;0;0;0.9273425;1.543848;-0.5682372;1.216841;1.562129;-0.4166447;1.497684;0.838609;0.1542507;1.436232;-0.09393752;-0.001851201;0.3477333;1.299409;1.537558;0.8084714;0.7288964;2.803692;0.9881139;0.6814828;4.137037;0.3477333;1.299409;1.537558;0.8084714;0.7288964;2.803692;0.9881139;0.6814828;4.137037
191145.3572;NotLabelled;16384;0.1523546;0.3795014;-0.6829519;-0.6052631;0;-36;-59;-2538;3098;237;65536;0.1634349;0;0.6772853;0.7173379;-2;-2;-24;-495;3687;29;8192;0.6460325;-0.6246537;-0.08310249;0.4307479;39;58;69;2898;3337;-1343;32768;0.6558416;-0.6260388;0.3545706;0.2285319;31;18;7;709;3515;-704;256;0.6481994;-0.08864266;-0.7512431;-0.08725762;-12;2;-2;-83;1208;3875;128;-0.5927978;0.06786703;0.7935974;0.1191136;0;-18;0;275;1103;-3972;4;0.368421;0.3975069;-0.4972299;-0.6775076;2;-4;-19;-3905;1690;-1132;16;0.1218837;-0.7016162;-0.1066482;0.6939058;-20;-3;-8;-1211;230;3810;2;0.5152354;-0.6866482;-0.4030471;0.3171745;0;2;20;3191;1822;-451;8;-0.06925207;-0.7076465;0.1218837;0.6925207;-22;-6;7;1105;377;3857;0.6603261;1.302993;1.487421;0.6604186;1.311431;0.9419388;0.6604778;1.316826;0.4624295;0.6641003;1.497355;-0.2488077;0.4063259;1.545828;-0.574308;0.06562504;1.579368;-0.4228583;-0.04727837;0.9206982;0.2188079;0;0;0;0.9265649;1.535388;-0.5743116;1.215963;1.556283;-0.4228637;1.499308;0.8489728;0.1667993;1.441828;-0.08266473;0.003902316;0.3484791;1.298056;1.5328;0.8135298;0.7408028;2.803255;0.9976203;0.7098081;4.136476;0.3484791;1.298056;1.5328;0.8135298;0.7408028;2.803255;0.9976203;0.7098081;4.136476
191167.2039;NotLabelled;16384;0.1620499;0.3808864;-0.6848341;-0.599723;-6;-29;-65;-2934;3000;249;65536;0.166205;0.001385042;0.6772853;0.7166998;-4;8;-22;-1477;4353;-55;8192;0.6454398;-0.6232687;-0.09695291;0.4307479;38;53;64;2170;3197;-617;32768;0.6584063;-0.6232687;0.3573407;0.2243767;26;7;9;787;4283;-818;256;0.6481994;-0.08725762;-0.7517217;-0.08448754;-15;-5;0;63;1030;4143;128;-0.5927978;0.06925207;0.7934778;0.1191136;-3;-11;2;245;1055;-4052;4;0.3711911;0.398892;-0.4958449;-0.6761954;2;-11;-19;-3897;1664;-1110;16;0.1177285;-0.7021137;-0.1080332;0.6939058;-20;-6;-8;-1221;200;3836;2;0.5138504;-0.6854123;-0.4058172;0.3185596;1;-2;20;3151;1874;-439;8;-0.07202215;-0.7078416;0.1191136;0.6925207;-23;-3;8;1033;407;3821;0.6653829;1.29122;1.481793;0.6654854;1.300563;0.9363254;0.6655533;1.306752;0.4568257;0.6693828;1.482969;-0.2554911;0.411649;1.529883;-0.5812524;0.07101928;1.564882;-0.4299724;-0.04638469;0.9194431;0.2242094;0;0;0;0.9318708;1.518613;-0.5812464;1.221318;1.539963;-0.4299581;1.506031;0.8475952;0.1765403;1.449633;-0.08201551;0.002094388;0.3535351;1.286209;1.527158;0.8205243;0.7383316;2.800976;1.002627;0.7176161;4.134669;0.3535351;1.286209;1.527158;0.8205243;0.7383316;2.800976;1.002627;0.7176161;4.134669
191188.33;NotLabelled;16384;0.1703601;0.3836565;-0.6860991;-0.5941828;-5;-37;-65;-2664;3198;-41;65536;0.1689751;0.002770083;0.6759003;0.7173553;-4;-3;-20;-967;3923;155;8192;0.6416017;-0.6204986;-0.1191136;0.434903;32;38;74;2880;3541;-317;32768;0.6628723;-0.6204986;0.3573407;0.2188366;19;14;8;543;3643;-852;256;0.6495845;-0.08725762;-0.7506797;-0.08310249;-5;-6;-1;-27;806;4089;128;-0.5927978;0.07063711;0.7933556;0.1191136;-2;-2;3;191;1177;-4082;4;0.3739612;0.400277;-0.4958449;-0.6738465;0;-16;-19;-3799;1452;-1022;16;0.1108033;-0.7016558;-0.1094183;0.6952909;-21;-17;-9;-1323;12;3766;2;0.5124654;-0.6851562;-0.4058172;0.3213296;3;-8;21;3319;1936;-459;8;-0.07617728;-0.7076383;0.1177285;0.6925207;-24;-8;7;1125;317;3685;0.6697665;1.277749;1.478107;0.669879;1.287996;0.9326563;0.6699555;1.294981;0.4531676;0.6739828;1.46972;-0.2595122;0.4162931;1.516317;-0.5853535;0.07572186;1.5521;-0.4341257;-0.04999523;0.9179511;0.2294856;0;0;0;0.9364988;1.504327;-0.5853568;1.225986;1.52559;-0.4341304;1.509706;0.8596323;0.2016988;1.458893;-0.06802225;0.01552105;0.3579179;1.272662;1.523458;0.8176616;0.7329433;2.803379;0.9958797;0.7284517;4.137751;0.3579179;1.272662;1.523458;0.8176616;0.7329433;2.803379;0.9958797;0.7284517;4.137751
191209.1439;NotLabelled;16384;0.1800554;0.3850415;-0.6864331;-0.5900277;-8;-51;-68;-2988;3128;-807;65536;0.1703601;0.005540166;0.6745152;0.7183147;-1;-6;-15;-1379;4059;297;8192;0.6396673;-0.6177285;-0.132964;0.4376731;21;40;72;3528;3159;-693;32768;0.6638743;-0.6191136;0.3587258;0.2174515;9;-6;4;201;4009;-552;256;0.6495845;-0.08864266;-0.7505175;-0.08310249;2;-9;-3;129;1194;3943;128;-0.5941828;0.07063711;0.7923189;0.1191136;4;-2;3;73;1283;-4020;4;0.3767313;0.400277;-0.4958449;-0.6723018;1;-16;-16;-3657;1368;-978;16;0.1066482;-0.7007079;-0.1108033;0.6966759;-22;-14;-9;-1383;-70;3804;2;0.5083103;-0.6848089;-0.4072022;0.3268698;2;-14;19;3745;1728;-643;8;-0.08587258;-0.7083374;0.1149584;0.6911357;-26;-19;7;1119;123;4065;0.6679183;1.261124;1.471965;0.6680304;1.271344;0.9265132;0.6681069;1.278305;0.4470242;0.6725256;1.454345;-0.265333;0.4149472;1.502069;-0.591099;0.07444307;1.538272;-0.43982;-0.0528568;0.916393;0.2350054;0;0;0;0.9351271;1.489012;-0.5911024;1.22465;1.509402;-0.4398251;1.510351;0.8615031;0.2135328;1.460339;-0.06522083;0.02256262;0.3560698;1.25604;1.517316;0.8155024;0.7218063;2.799648;0.9958049;0.7284434;4.13373;0.3560698;1.25604;1.517316;0.8155024;0.7218063;2.799648;0.9958049;0.7284434;4.13373
191230.1412;NotLabelled;16384;0.200831;0.3891967;-0.6877593;-0.5789474;4;-32;-69;-3070;2488;5;65536;0.1731302;0.009695291;0.6731302;0.7189074;1;7;-15;-1643;4045;29;8192;0.6393659;-0.6135734;-0.1440443;0.4404432;14;37;63;3286;3293;-215;32768;0.6635766;-0.6191136;0.3601108;0.2160665;4;-1;6;889;4211;-876;256;0.6509695;-0.0900277;-0.7493036;-0.08171745;0;-6;-5;305;1292;3675;128;-0.5941828;0.07063711;0.7925259;0.1177285;4;0;2;-47;1141;-3936;4;0.3795014;0.4016621;-0.4958449;-0.6699135;2;-13;-15;-3633;1404;-872;16;0.1038781;-0.7006805;-0.1135734;0.6966759;-23;-3;-8;-1479;-68;3888;2;0.5069252;-0.6845077;-0.4072022;0.3296399;0;-11;19;3865;1656;-733;8;-0.0900277;-0.7078213;0.1149584;0.6911357;-25;-16;6;923;149;4097;0.6756029;1.231589;1.458861;0.6757016;1.240585;0.9133883;0.6757661;1.24647;0.4338848;0.6807568;1.422342;-0.2785102;0.423329;1.470881;-0.6042749;0.0829581;1.508286;-0.4529881;-0.05600847;0.913871;0.2439254;0;0;0;0.9434611;1.456038;-0.6042988;1.233059;1.475465;-0.4530387;1.519035;0.8416598;0.2138817;1.467504;-0.08434033;0.0198313;0.3637555;1.226606;1.504232;0.815261;0.7006214;2.792775;0.9885412;0.7176876;4.127694;0.3637555;1.226606;1.504232;0.815261;0.7006214;2.792775;0.9885412;0.7176876;4.127694
191250.1343;NotLabelled;16384;0.2105263;0.3919668;-0.6867712;-0.5747922;0;-33;-69;-3322;2580;117;65536;0.1759003;0.01108033;0.6731302;0.7182145;-1;3;-15;-631;3819;233;8192;0.6397918;-0.6094183;-0.1551246;0.4418283;6;46;66;3298;2661;181;32768;0.6641141;-0.6177285;0.3614958;0.2160665;5;2;7;615;3657;-638;256;0.6509695;-0.0900277;-0.7493036;-0.08171745;-8;0;-4;465;1174;3793;128;-0.5941828;0.07063711;0.7925259;0.1177285;2;-2;2;137;1171;-3738;4;0.3836565;0.4030471;-0.4944598;-0.6677352;1;-7;-18;-3885;1476;-924;16;0.09972299;-0.6989837;-0.1191136;0.6980609;-19;0;-9;-1313;-160;4092;2;0.5041551;-0.6843886;-0.4085872;0.33241;1;-7;22;3891;1704;-591;8;-0.09418282;-0.7077251;0.1121884;0.6911357;-24;-7;5;1037;93;4173;0.6733617;1.214207;1.450328;0.6734604;1.223203;0.9048553;0.6735249;1.229088;0.4253519;0.6785437;1.40496;-0.2870428;0.4211286;1.453499;-0.6128176;0.08075184;1.490904;-0.461544;-0.05522685;0.9124749;0.2492712;0;0;0;0.9412608;1.438656;-0.6128206;1.230853;1.458083;-0.4615497;1.524489;0.840198;0.2168823;1.47394;-0.08525681;0.01999354;0.3615142;1.209224;1.495699;0.8143443;0.6955457;2.788733;0.9904194;0.7317424;4.122905;0.3615142;1.209224;1.495699;0.8143443;0.6955457;2.788733;0.9904194;0.7317424;4.122905
191271.1304;NotLabelled;16384;0.2216066;0.3947368;-0.6874593;-0.567867;-5;-41;-70;-3286;2560;353;65536;0.1786704;0.01108033;0.6731302;0.7175305;0;2;-14;-1123;4087;233;8192;0.6422578;-0.6038781;-0.166205;0.4418283;6;55;76;2612;2551;-365;32768;0.6638078;-0.6177285;0.3628809;0.2146814;0;-7;8;863;4175;-554;256;0.6537396;-0.08587258;-0.7476749;-0.07894737;-13;-3;-6;-259;736;3985;128;-0.5955678;0.0734072;0.7916406;0.1149584;1;-8;2;85;1017;-4040;4;0.3864266;0.4044321;-0.4930748;-0.6663231;3;-9;-21;-3943;1324;-1018;16;0.09695291;-0.6966759;-0.1204986;0.7005162;-19;-9;-9;-1201;-266;4040;2;0.501385;-0.6842442;-0.4099723;0.33518;3;-5;23;3799;1730;-571;8;-0.09695291;-0.7075692;0.1108033;0.6911357;-24;-1;5;1171;25;4045;0.6817479;1.207765;1.443718;0.6818395;1.216111;0.8982347;0.6818978;1.221425;0.4187246;0.6861563;1.390442;-0.2953326;0.4285015;1.43498;-0.6214892;0.08803843;1.472705;-0.4704897;-0.05622027;0.9115453;0.2524334;0;0;0;0.9486803;1.421874;-0.6214921;1.238242;1.443725;-0.4704948;1.535178;0.8391981;0.2184556;1.483481;-0.08551335;0.0183965;0.3699011;1.202836;1.489099;0.8163589;0.698735;2.788105;0.9923273;0.7441475;4.122009;0.3699011;1.202836;1.489099;0.8163589;0.698735;2.788105;0.9923273;0.7441475;4.122009
191291.2846;NotLabelled;16384;0.2423823;0.3975069;-0.6879154;-0.5567867;-6;-42;-72;-3432;2402;161;65536;0.1800554;0.01523546;0.6717451;0.7184055;0;-6;-12;-1221;3881;159;8192;0.6397903;-0.5858725;-0.199446;0.4556787;-2;34;81;3560;2547;-521;32768;0.6602974;-0.6177285;0.368421;0.2160665;-4;-5;7;885;4145;-536;256;0.6551247;-0.08448754;-0.7469074;-0.07617728;-11;-11;-3;-23;892;3657;128;-0.5955678;0.07202215;0.7919677;0.1135734;6;0;1;111;1029;-4020;4;0.3933518;0.4072022;-0.4903047;-0.6626176;4;-7;-20;-3743;1270;-858;16;0.0900277;-0.6966759;-0.1232687;0.7009583;-20;-5;-7;-1181;-198;3820;2;0.4986149;-0.6818626;-0.4127424;0.3407202;0;-2;20;3921;1576;-629;8;-0.1038781;-0.7087828;0.1052632;0.6897507;-22;-4;6;1323;-105;3885;0.6832111;1.184089;1.430889;0.6832793;1.190303;0.8853772;0.6833171;1.193743;0.40585;0.6876673;1.358477;-0.3092068;0.4300151;1.401374;-0.6355851;0.08962168;1.440414;-0.4847629;-0.05942986;0.9093292;0.2595897;0;0;0;0.9501774;1.387638;-0.6355882;1.23979;1.410042;-0.484768;1.557266;0.8641953;0.242924;1.498222;-0.05962801;0.04080641;0.3713663;1.179338;1.476302;0.8160673;0.6973391;2.784268;0.9858979;0.7611127;4.118217;0.3713663;1.179338;1.476302;0.8160673;0.6973391;2.784268;0.9858979;0.7611127;4.118217
191312.3748;NotLabelled;16384;0.265928;0.4030471;-0.687063;-0.5429363;0;-18;-81;-3224;2066;299;65536;0.1814404;0.01939058;0.6703601;0.7192501;1;-4;-12;-1149;3937;163;8192;0.642801;-0.5775623;-0.2105263;0.4570637;-7;59;78;3694;2445;-711;32768;0.6595227;-0.6177285;0.3698061;0.2160665;-1;2;4;841;4175;-616;256;0.6565097;-0.08448754;-0.7458304;-0.07479224;-15;0;-3;57;954;3745;128;-0.5955678;0.07063711;0.7920924;0.1135734;6;-2;1;57;1105;-3884;4;0.3947368;0.4085872;-0.4889196;-0.6619644;1;-7;-20;-3693;1356;-828;16;0.08725762;-0.6952909;-0.1246537;0.7024373;-19;0;-7;-1193;-248;3840;2;0.4944598;-0.6802698;-0.4168975;0.3448753;2;2;21;3917;1514;-625;8;-0.1080332;-0.7087665;0.101108;0.6897507;-21;4;8;1183;-77;3943;0.6880128;1.147196;1.414884;0.6880711;1.152499;0.8693624;0.6881;1.155138;0.38983;0.6926245;1.318408;-0.3255616;0.435006;1.361008;-0.6520058;0.09468143;1.40084;-0.5012354;-0.06273354;0.9070477;0.2666957;0;0;0;0.9551484;1.346529;-0.6520232;1.244805;1.368828;-0.5012727;1.567885;0.8388915;0.2356551;1.507505;-0.08459234;0.03238225;0.3761688;1.14252;1.46031;0.8170595;0.6673918;2.772075;0.986225;0.7397976;4.105667;0.3761688;1.14252;1.46031;0.8170595;0.6673918;2.772075;0.986225;0.7397976;4.105667
191333.4468;NotLabelled;16384;0.2756233;0.4072022;-0.6851449;-0.5373961;1;-18;-79;-3852;2264;415;65536;0.1828255;0.02077562;0.6703601;0.7188606;2;-6;-11;-1493;4061;-7;8192;0.6433142;-0.5706371;-0.2243767;0.4584487;2;59;77;3444;1857;-671;32768;0.6582227;-0.6191136;0.3698061;0.2160665;0;2;6;477;3847;-336;256;0.6565097;-0.08171745;-0.7462766;-0.0734072;-16;9;-4;251;1016;4013;128;-0.5955678;0.07063711;0.7922898;0.1121884;5;-2;3;-109;1045;-3890;4;0.3975069;0.4099723;-0.4889196;-0.6594456;0;-6;-20;-3659;1312;-826;16;0.08448754;-0.6952909;-0.1274238;0.7022789;-20;0;-6;-1133;-254;3924;2;0.4930748;-0.6788668;-0.4196676;0.3462604;2;4;21;3857;1540;-539;8;-0.1108033;-0.7100739;0.09833795;0.6883656;-20;3;7;1255;-103;3983;0.6852196;1.137101;1.407804;0.6852643;1.141184;0.8622725;0.6852814;1.142749;0.3827354;0.6893299;1.301882;-0.3335902;0.4315663;1.342012;-0.6602327;0.09117648;1.381955;-0.5096391;-0.06192908;0.9060221;0.2703449;0;0;0;0.9517398;1.328701;-0.6602535;1.241369;1.35252;-0.5096824;1.573744;0.8429151;0.2373813;1.510139;-0.08077431;0.03603637;0.3733767;1.132528;1.453249;0.8126424;0.665926;2.768615;0.9811032;0.7487016;4.101693;0.3733767;1.132528;1.453249;0.8126424;0.665926;2.768615;0.9811032;0.7487016;4.101693
191354.1558;NotLabelled;16384;0.2963989;0.4141274;-0.6830418;-0.5235457;-6;-29;-80;-3552;2000;769;65536;0.1842105;0.0235457;0.6703601;0.7184215;-2;-5;-9;-1561;4109;113;8192;0.6421666;-0.5581717;-0.2465374;0.4639889;0;27;76;3460;2385;285;32768;0.6575053;-0.6177285;0.3725762;0.2174515;-6;-9;7;603;3949;-622;256;0.6592798;-0.07617728;-0.7448164;-0.06925207;-15;5;-4;183;768;4127;128;-0.5983379;0.06786703;0.790638;0.1108033;5;3;4;71;885;-4040;4;0.4030471;0.4168975;-0.4833795;-0.6558154;4;3;-22;-3689;1172;-788;16;0.07756232;-0.6939058;-0.134349;0.7031566;-21;3;-4;-1255;-238;3766;2;0.4903047;-0.6768703;-0.4238227;0.3490305;0;5;23;3683;1588;-663;8;-0.1149584;-0.7101591;0.09279778;0.6883656;-19;4;8;1119;-85;3885;0.6934794;1.114648;1.393914;0.6934903;1.115644;0.8483673;0.6934777;1.114497;0.3688291;0.69679;1.263902;-0.3495925;0.4388033;1.298713;-0.6766688;0.09831905;1.339533;-0.5265244;-0.06256163;0.9044433;0.2754379;0;0;0;0.9590192;1.287179;-0.6766714;1.248605;1.314032;-0.5265291;1.585511;0.844959;0.2446653;1.522169;-0.07827544;0.04116249;0.3816392;1.110332;1.439402;0.8137401;0.6743715;2.767592;0.9747675;0.7838137;4.099665;0.3816392;1.110332;1.439402;0.8137401;0.6743715;2.767592;0.9747675;0.7838137;4.099665
191374.1563;NotLabelled;16384;0.3074792;0.4168975;-0.6817304;-0.5166205;-8;-33;-80;-3410;2198;637;65536;0.1842105;0.02493075;0.6689751;0.7196648;-4;-3;-7;-1405;3803;-35;8192;0.6430442;-0.5415512;-0.267313;0.4709141;-13;43;82;3676;1945;-267;32768;0.6533082;-0.6204986;0.3753462;0.2174515;-7;-1;5;599;3969;-492;256;0.6592798;-0.0734072;-0.7450944;-0.06925207;-16;11;-3;-17;804;3891;128;-0.5983379;0.06648199;0.7907556;0.1108033;4;3;3;75;865;-3874;4;0.4044321;0.4182825;-0.4819945;-0.6550997;4;3;-20;-3805;1224;-732;16;0.07617728;-0.6939058;-0.1371191;0.7027732;-22;4;-4;-1163;-362;3748;2;0.4889196;-0.6746944;-0.4265928;0.3518005;1;2;22;3671;1520;-679;8;-0.1163435;-0.7116297;0.0900277;0.6869806;-20;5;8;1087;-185;3699;0.6904747;1.101228;1.385814;0.6904759;1.101312;0.8402674;0.6904548;1.099363;0.3607318;0.6931087;1.246115;-0.3582389;0.4349601;1.278659;-0.6854209;0.09432194;1.318643;-0.5354009;-0.06552324;0.9036498;0.2773466;0;0;0;0.9552189;1.269252;-0.6854237;1.244703;1.297843;-0.5354056;1.598993;0.8705015;0.2520796;1.525214;-0.05239058;0.05054998;0.3786355;1.096988;1.431316;0.8126072;0.6680236;2.761172;0.9726444;0.7851558;4.092711;0.3786355;1.096988;1.431316;0.8126072;0.6680236;2.761172;0.9726444;0.7851558;4.092711
