SEP=;
index;label;RightUpperArm_boneIndex;RightUpperArm_quat9x_w;RightUpperArm_quat9x_x;RightUpperArm_quat9x_y;RightUpperArm_quat9x_z;RightUpperArm_gyroscope_x;RightUpperArm_gyroscope_y;RightUpperArm_gyroscope_z;RightUpperArm_accelerometer_x;RightUpperArm_accelerometer_y;RightUpperArm_accelerometer_z;RightLowerArm_boneIndex;RightLowerArm_quat9x_w;RightLowerArm_quat9x_x;RightLowerArm_quat9x_y;RightLowerArm_quat9x_z;RightLowerArm_gyroscope_x;RightLowerArm_gyroscope_y;RightLowerArm_gyroscope_z;RightLowerArm_accelerometer_x;RightLowerArm_accelerometer_y;RightLowerArm_accelerometer_z;LeftUpperArm_boneIndex;LeftUpperArm_quat9x_w;LeftUpperArm_quat9x_x;LeftUpperArm_quat9x_y;LeftUpperArm_quat9x_z;LeftUpperArm_gyroscope_x;LeftUpperArm_gyroscope_y;LeftUpperArm_gyroscope_z;LeftUpperArm_accelerometer_x;LeftUpperArm_accelerometer_y;LeftUpperArm_accelerometer_z;LeftLowerArm_boneIndex;LeftLowerArm_quat9x_w;LeftLowerArm_quat9x_x;LeftLowerArm_quat9x_y;LeftLowerArm_quat9x_z;LeftLowerArm_gyroscope_x;LeftLowerArm_gyroscope_y;LeftLowerArm_gyroscope_z;LeftLowerArm_accelerometer_x;LeftLowerArm_accelerometer_y;LeftLowerArm_accelerometer_z;Chest_boneIndex;Chest_quat9x_w;Chest_quat9x_x;Chest_quat9x_y;Chest_quat9x_z;Chest_gyroscope_x;Chest_gyroscope_y;Chest_gyroscope_z;Chest_accelerometer_x;Chest_accelerometer_y;Chest_accelerometer_z;Spine_boneIndex;Spine_quat9x_w;Spine_quat9x_x;Spine_quat9x_y;Spine_quat9x_z;Spine_gyroscope_x;Spine_gyroscope_y;Spine_gyroscope_z;Spine_accelerometer_x;Spine_accelerometer_y;Spine_accelerometer_z;RightUpperLeg_boneIndex;RightUpperLeg_quat9x_w;RightUpperLeg_quat9x_x;RightUpperLeg_quat9x_y;RightUpperLeg_quat9x_z;RightUpperLeg_gyroscope_x;RightUpperLeg_gyroscope_y;RightUpperLeg_gyroscope_z;RightUpperLeg_accelerometer_x;RightUpperLeg_accelerometer_y;RightUpperLeg_accelerometer_z;RightLowerLeg_boneIndex;RightLowerLeg_quat9x_w;RightLowerLeg_quat9x_x;RightLowerLeg_quat9x_y;RightLowerLeg_quat9x_z;RightLowerLeg_gyroscope_x;RightLowerLeg_gyroscope_y;RightLowerLeg_gyroscope_z;RightLowerLeg_accelerometer_x;RightLowerLeg_accelerometer_y;RightLowerLeg_accelerometer_z;LeftUpperLeg_boneIndex;LeftUpperLeg_quat9x_w;LeftUpperLeg_quat9x_x;LeftUpperLeg_quat9x_y;LeftUpperLeg_quat9x_z;LeftUpperLeg_gyroscope_x;LeftUpperLeg_gyroscope_y;LeftUpperLeg_gyroscope_z;LeftUpperLeg_accelerometer_x;LeftUpperLeg_accelerometer_y;LeftUpperLeg_accelerometer_z;LeftLowerLeg_boneIndex;LeftLowerLeg_quat9x_w;LeftLowerLeg_quat9x_x;LeftLowerLeg_quat9x_y;LeftLowerLeg_quat9x_z;LeftLowerLeg_gyroscope_x;LeftLowerLeg_gyroscope_y;LeftLowerLeg_gyroscope_z;LeftLowerLeg_accelerometer_x;LeftLowerLeg_accelerometer_y;LeftLowerLeg_accelerometer_z;pelvis_x;pelvis_y;pelvis_z;lowerSpine_x;lowerSpine_y;lowerSpine_z;middleSpine_x;middleSpine_y;middleSpine_z;upperSpine_x;upperSpine_y;upperSpine_z;rightClavicle_x;rightClavicle_y;rightClavicle_z;rightShoulder_x;rightShoulder_y;rightShoulder_z;rightElbow_x;rightElbow_y;rightElbow_z;rightWrist_x;rightWrist_y;rightWrist_z;leftClavicle_x;leftClavicle_y;leftClavicle_z;leftShoulder_x;leftShoulder_y;leftShoulder_z;leftElbow_x;leftElbow_y;leftElbow_z;leftWrist_x;leftWrist_y;leftWrist_z;rightHip_x;rightHip_y;rightHip_z;rightKnee_x;rightKnee_y;rightKnee_z;rightAnkle_x;rightAnkle_y;rightAnkle_z;leftHip_x;leftHip_y;leftHip_z;leftKnee_x;leftKnee_y;leftKnee_z;leftAnkle_x;leftAnkle_y;leftAnkle_z;
196985.4673;NotLabelled;16384;-0.1177285;0.3711911;-0.6691142;-0.632964;0;-2;1;-1382;3942;-101;65536;0.1772853;-0.2797784;0.6412742;0.6921425;-1;2;1;482;4045;361;8192;0.6326927;-0.5789474;0.2036011;0.4722992;0;3;-2;1330;3905;-307;32768;0.5041551;-0.5868508;0.3725762;0.5124654;1;1;0;-339;4117;824;256;0.6578947;-0.05540166;-0.7502708;-0.03462604;3;0;2;103;574;4053;128;-0.5941828;0.04432133;0.7970647;0.09833795;-1;1;-1;237;919;-4028;4;0.2977839;0.3905817;-0.5401662;-0.6833675;0;4;0;-3431;2152;-996;16;0.2479224;-0.7078105;-0.1094183;0.6523545;-1;8;1;-2105;836;3454;2;0.5595568;-0.6913328;-0.3698061;0.2686981;0;4;1;3375;2364;-545;8;0.01385042;-0.7020713;0.132964;0.699446;-1;2;1;667;847;3875;0.6752402;1.688081;1.477724;0.6749629;1.662802;0.9327633;0.6746968;1.638561;0.4538369;0.6781414;1.730179;-0.2742131;0.4197384;1.742809;-0.6025668;0.08036977;1.800731;-0.4555525;-0.03919724;0.9351041;-0.1477806;0;0;0;0.9397148;1.723259;-0.6025697;1.230127;1.757501;-0.4555579;1.501005;0.867229;-0.2059263;1.560072;-0.05525029;0.002233744;0.3634242;1.685964;1.523533;0.6855815;0.9461188;2.744067;0.819833;0.6658275;4.05393;0.3634242;1.685964;1.523533;0.6855815;0.9461188;2.744067;0.819833;0.6658275;4.05393
197006.0131;NotLabelled;16384;-0.1177285;0.3711911;-0.6691142;-0.632964;0;-2;1;-1382;3942;-101;65536;0.1772853;-0.2797784;0.6412742;0.6921425;-1;2;1;482;4045;361;8192;0.6326927;-0.5789474;0.2036011;0.4722992;0;3;-2;1330;3905;-307;32768;0.5041551;-0.5868508;0.3725762;0.5124654;1;1;0;-339;4117;824;256;0.6578947;-0.05540166;-0.7502708;-0.03462604;3;0;2;103;574;4053;128;-0.5941828;0.04432133;0.7970647;0.09833795;-1;1;-1;237;919;-4028;4;0.2977839;0.3905817;-0.5401662;-0.6833675;0;4;0;-3431;2152;-996;16;0.2479224;-0.7078105;-0.1094183;0.6523545;-1;8;1;-2105;836;3454;2;0.5595568;-0.6913328;-0.3698061;0.2686981;0;4;1;3375;2364;-545;8;0.01385042;-0.7020713;0.132964;0.699446;-1;2;1;667;847;3875;0.6752402;1.688081;1.477724;0.6749629;1.662802;0.9327633;0.6746968;1.638561;0.4538369;0.6781414;1.730179;-0.2742131;0.4197384;1.742809;-0.6025668;0.08036977;1.800731;-0.4555525;-0.03919724;0.9351041;-0.1477806;0;0;0;0.9397148;1.723258;-0.6025697;1.230127;1.757501;-0.4555579;1.501005;0.867229;-0.2059263;1.560072;-0.05525029;0.002233744;0.3634242;1.685964;1.523533;0.6855815;0.9461188;2.744067;0.819833;0.6658275;4.05393;0.3634242;1.685964;1.523533;0.6855815;0.9461188;2.744067;0.819833;0.6658275;4.05393
197027.4242;NotLabelled;16384;-0.1177285;0.3711911;-0.6691142;-0.632964;0;-2;1;-1382;3942;-101;65536;0.1772853;-0.2797784;0.6412742;0.6921425;-1;2;1;482;4045;361;8192;0.6326927;-0.5789474;0.2036011;0.4722992;0;3;-2;1330;3905;-307;32768;0.5041551;-0.5868508;0.3725762;0.5124654;1;1;0;-339;4117;824;256;0.6578947;-0.05540166;-0.7502708;-0.03462604;3;0;2;103;574;4053;128;-0.5941828;0.04432133;0.7970647;0.09833795;-1;1;-1;237;919;-4028;4;0.2977839;0.3905817;-0.5401662;-0.6833675;0;4;0;-3431;2152;-996;16;0.2479224;-0.7078105;-0.1094183;0.6523545;-1;8;1;-2105;836;3454;2;0.5595568;-0.6913328;-0.3698061;0.2686981;0;4;1;3375;2364;-545;8;0.01385042;-0.7020713;0.132964;0.699446;-1;2;1;667;847;3875;0.6752402;1.688081;1.477724;0.6749629;1.662802;0.9327633;0.6746968;1.638561;0.4538369;0.6781414;1.730179;-0.2742131;0.4197384;1.742809;-0.6025668;0.08036977;1.800731;-0.4555525;-0.03919724;0.9351041;-0.1477806;0;0;0;0.9397148;1.723259;-0.6025697;1.230127;1.757501;-0.4555579;1.501005;0.867229;-0.2059263;1.560072;-0.05525029;0.002233744;0.3634242;1.685964;1.523533;0.6855815;0.9461188;2.744067;0.819833;0.6658275;4.05393;0.3634242;1.685964;1.523533;0.6855815;0.9461188;2.744067;0.819833;0.6658275;4.05393
197048.1033;NotLabelled;16384;-0.1177285;0.3711911;-0.6691142;-0.632964;0;-2;1;-1382;3942;-101;65536;0.1772853;-0.2797784;0.6412742;0.6921425;-1;2;1;482;4045;361;8192;0.6326927;-0.5789474;0.2036011;0.4722992;0;3;-2;1330;3905;-307;32768;0.5041551;-0.5868508;0.3725762;0.5124654;1;1;0;-339;4117;824;256;0.6578947;-0.05540166;-0.7502708;-0.03462604;3;0;2;103;574;4053;128;-0.5941828;0.04432133;0.7970647;0.09833795;-1;1;-1;237;919;-4028;4;0.2977839;0.3905817;-0.5401662;-0.6833675;0;4;0;-3431;2152;-996;16;0.2479224;-0.7078105;-0.1094183;0.6523545;-1;8;1;-2105;836;3454;2;0.5595568;-0.6913328;-0.3698061;0.2686981;0;4;1;3375;2364;-545;8;0.01385042;-0.7020713;0.132964;0.699446;-1;2;1;667;847;3875;0.6752402;1.688081;1.477724;0.6749629;1.662802;0.9327633;0.6746968;1.638561;0.4538369;0.6781414;1.730179;-0.2742131;0.4197384;1.742809;-0.6025668;0.08036977;1.800731;-0.4555525;-0.03919724;0.9351041;-0.1477806;0;0;0;0.9397148;1.723259;-0.6025697;1.230127;1.757501;-0.4555579;1.501005;0.867229;-0.2059263;1.560072;-0.05525029;0.002233744;0.3634242;1.685964;1.523533;0.6855815;0.9461188;2.744067;0.819833;0.6658275;4.05393;0.3634242;1.685964;1.523533;0.6855815;0.9461188;2.744067;0.819833;0.6658275;4.05393
197069.0434;NotLabelled;16384;-0.1177285;0.3711911;-0.6691142;-0.632964;0;-2;1;-1382;3942;-101;65536;0.1772853;-0.2797784;0.6412742;0.6921425;-1;2;1;482;4045;361;8192;0.6326927;-0.5789474;0.2036011;0.4722992;0;3;-2;1330;3905;-307;32768;0.5041551;-0.5868508;0.3725762;0.5124654;1;1;0;-339;4117;824;256;0.6578947;-0.05540166;-0.7502708;-0.03462604;3;0;2;103;574;4053;128;-0.5941828;0.04432133;0.7970647;0.09833795;-1;1;-1;237;919;-4028;4;0.2977839;0.3905817;-0.5401662;-0.6833675;0;4;0;-3431;2152;-996;16;0.2479224;-0.7078105;-0.1094183;0.6523545;-1;8;1;-2105;836;3454;2;0.5595568;-0.6913328;-0.3698061;0.2686981;0;4;1;3375;2364;-545;8;0.01385042;-0.7020713;0.132964;0.699446;-1;2;1;667;847;3875;0.6752402;1.688081;1.477724;0.6749629;1.662802;0.9327633;0.6746968;1.638561;0.4538369;0.6781414;1.730179;-0.2742131;0.4197384;1.742809;-0.6025668;0.08036977;1.800731;-0.4555525;-0.03919724;0.9351041;-0.1477806;0;0;0;0.9397148;1.723258;-0.6025697;1.230127;1.757501;-0.4555579;1.501005;0.867229;-0.2059263;1.560072;-0.05525029;0.002233744;0.3634242;1.685964;1.523533;0.6855815;0.9461188;2.744067;0.819833;0.6658275;4.05393;0.3634242;1.685964;1.523533;0.6855815;0.9461188;2.744067;0.819833;0.6658275;4.05393
197090.0388;NotLabelled;16384;-0.1177285;0.3711911;-0.6691142;-0.632964;0;-2;1;-1382;3942;-101;65536;0.1772853;-0.2797784;0.6412742;0.6921425;-1;2;1;482;4045;361;8192;0.6326927;-0.5789474;0.2036011;0.4722992;0;3;-2;1330;3905;-307;32768;0.5041551;-0.5868508;0.3725762;0.5124654;1;1;0;-339;4117;824;256;0.6578947;-0.05540166;-0.7502708;-0.03462604;3;0;2;103;574;4053;128;-0.5941828;0.04432133;0.7970647;0.09833795;-1;1;-1;237;919;-4028;4;0.2977839;0.3905817;-0.5401662;-0.6833675;0;4;0;-3431;2152;-996;16;0.2479224;-0.7078105;-0.1094183;0.6523545;-1;8;1;-2105;836;3454;2;0.5595568;-0.6913328;-0.3698061;0.2686981;0;4;1;3375;2364;-545;8;0.01385042;-0.7020713;0.132964;0.699446;-1;2;1;667;847;3875;0.6752402;1.688081;1.477724;0.6749629;1.662802;0.9327633;0.6746968;1.638561;0.4538369;0.6781414;1.730179;-0.2742131;0.4197384;1.742809;-0.6025668;0.08036977;1.800731;-0.4555525;-0.03919724;0.9351041;-0.1477806;0;0;0;0.9397148;1.723258;-0.6025697;1.230127;1.757501;-0.4555579;1.501005;0.867229;-0.2059263;1.560072;-0.05525029;0.002233744;0.3634242;1.685964;1.523533;0.6855815;0.9461188;2.744067;0.819833;0.6658275;4.05393;0.3634242;1.685964;1.523533;0.6855815;0.9461188;2.744067;0.819833;0.6658275;4.05393
197111.4211;NotLabelled;16384;-0.1177285;0.3711911;-0.6691142;-0.632964;0;-2;1;-1382;3942;-101;65536;0.1772853;-0.2797784;0.6412742;0.6921425;-1;2;1;482;4045;361;8192;0.6326927;-0.5789474;0.2036011;0.4722992;0;3;-2;1330;3905;-307;32768;0.5041551;-0.5868508;0.3725762;0.5124654;1;1;0;-339;4117;824;256;0.6578947;-0.05540166;-0.7502708;-0.03462604;3;0;2;103;574;4053;128;-0.5941828;0.04432133;0.7970647;0.09833795;-1;1;-1;237;919;-4028;4;0.2977839;0.3905817;-0.5401662;-0.6833675;0;4;0;-3431;2152;-996;16;0.2479224;-0.7078105;-0.1094183;0.6523545;-1;8;1;-2105;836;3454;2;0.5595568;-0.6913328;-0.3698061;0.2686981;0;4;1;3375;2364;-545;8;0.01385042;-0.7020713;0.132964;0.699446;-1;2;1;667;847;3875;0.6752402;1.688081;1.477724;0.6749629;1.662802;0.9327633;0.6746968;1.638561;0.4538369;0.6781414;1.730179;-0.2742131;0.4197384;1.742809;-0.6025668;0.08036977;1.800731;-0.4555525;-0.03919724;0.9351041;-0.1477806;0;0;0;0.9397148;1.723259;-0.6025697;1.230127;1.757501;-0.4555579;1.501005;0.867229;-0.2059263;1.560072;-0.05525029;0.002233744;0.3634242;1.685964;1.523533;0.6855815;0.9461188;2.744067;0.819833;0.6658275;4.05393;0.3634242;1.685964;1.523533;0.6855815;0.9461188;2.744067;0.819833;0.6658275;4.05393
197132.6456;NotLabelled;16384;-0.1177285;0.3711911;-0.6691142;-0.632964;0;-2;1;-1382;3942;-101;65536;0.1772853;-0.2797784;0.6412742;0.6921425;-1;2;1;482;4045;361;8192;0.6326927;-0.5789474;0.2036011;0.4722992;0;3;-2;1330;3905;-307;32768;0.5041551;-0.5868508;0.3725762;0.5124654;1;1;0;-339;4117;824;256;0.6578947;-0.05540166;-0.7502708;-0.03462604;3;0;2;103;574;4053;128;-0.5941828;0.04432133;0.7970647;0.09833795;-1;1;-1;237;919;-4028;4;0.2977839;0.3905817;-0.5401662;-0.6833675;0;4;0;-3431;2152;-996;16;0.2479224;-0.7078105;-0.1094183;0.6523545;-1;8;1;-2105;836;3454;2;0.5595568;-0.6913328;-0.3698061;0.2686981;0;4;1;3375;2364;-545;8;0.01385042;-0.7020713;0.132964;0.699446;-1;2;1;667;847;3875;0.6752402;1.688081;1.477724;0.6749629;1.662802;0.9327633;0.6746968;1.638561;0.4538369;0.6781414;1.730179;-0.2742131;0.4197384;1.742809;-0.6025668;0.08036977;1.800731;-0.4555525;-0.03919724;0.9351041;-0.1477806;0;0;0;0.9397148;1.723259;-0.6025697;1.230127;1.757501;-0.4555579;1.501005;0.867229;-0.2059263;1.560072;-0.05525029;0.002233744;0.3634242;1.685964;1.523533;0.6855815;0.9461188;2.744067;0.819833;0.6658275;4.05393;0.3634242;1.685964;1.523533;0.6855815;0.9461188;2.744067;0.819833;0.6658275;4.05393
197153.2457;NotLabelled;16384;-0.1177285;0.3711911;-0.6691142;-0.632964;0;-2;1;-1382;3942;-101;65536;0.1772853;-0.2797784;0.6412742;0.6921425;-1;2;1;482;4045;361;8192;0.6326927;-0.5789474;0.2036011;0.4722992;0;3;-2;1330;3905;-307;32768;0.5041551;-0.5868508;0.3725762;0.5124654;1;1;0;-339;4117;824;256;0.6578947;-0.05540166;-0.7502708;-0.03462604;3;0;2;103;574;4053;128;-0.5941828;0.04432133;0.7970647;0.09833795;-1;1;-1;237;919;-4028;4;0.2977839;0.3905817;-0.5401662;-0.6833675;0;4;0;-3431;2152;-996;16;0.2479224;-0.7078105;-0.1094183;0.6523545;-1;8;1;-2105;836;3454;2;0.5595568;-0.6913328;-0.3698061;0.2686981;0;4;1;3375;2364;-545;8;0.01385042;-0.7020713;0.132964;0.699446;-1;2;1;667;847;3875;0.6752402;1.688081;1.477724;0.6749629;1.662802;0.9327633;0.6746968;1.638561;0.4538369;0.6781414;1.730179;-0.2742131;0.4197384;1.742809;-0.6025668;0.08036977;1.800731;-0.4555525;-0.03919724;0.9351041;-0.1477806;0;0;0;0.9397148;1.723259;-0.6025697;1.230127;1.757501;-0.4555579;1.501005;0.867229;-0.2059263;1.560072;-0.05525029;0.002233744;0.3634242;1.685964;1.523533;0.6855815;0.9461188;2.744067;0.819833;0.6658275;4.05393;0.3634242;1.685964;1.523533;0.6855815;0.9461188;2.744067;0.819833;0.6658275;4.05393
197173.2566;NotLabelled;16384;-0.1177285;0.3711911;-0.6691142;-0.632964;0;-2;1;-1382;3942;-101;65536;0.1772853;-0.2797784;0.6412742;0.6921425;-1;2;1;482;4045;361;8192;0.6326927;-0.5789474;0.2036011;0.4722992;0;3;-2;1330;3905;-307;32768;0.5041551;-0.5868508;0.3725762;0.5124654;1;1;0;-339;4117;824;256;0.6578947;-0.05540166;-0.7502708;-0.03462604;3;0;2;103;574;4053;128;-0.5941828;0.04432133;0.7970647;0.09833795;-1;1;-1;237;919;-4028;4;0.2977839;0.3905817;-0.5401662;-0.6833675;0;4;0;-3431;2152;-996;16;0.2479224;-0.7078105;-0.1094183;0.6523545;-1;8;1;-2105;836;3454;2;0.5595568;-0.6913328;-0.3698061;0.2686981;0;4;1;3375;2364;-545;8;0.01385042;-0.7020713;0.132964;0.699446;-1;2;1;667;847;3875;0.6752402;1.688081;1.477724;0.6749629;1.662802;0.9327633;0.6746968;1.638561;0.4538369;0.6781414;1.730179;-0.2742131;0.4197384;1.742809;-0.6025668;0.08036977;1.800731;-0.4555525;-0.03919724;0.9351041;-0.1477806;0;0;0;0.9397148;1.723259;-0.6025697;1.230127;1.757501;-0.4555579;1.501005;0.867229;-0.2059263;1.560072;-0.05525029;0.002233744;0.3634242;1.685964;1.523533;0.6855815;0.9461188;2.744067;0.819833;0.6658275;4.05393;0.3634242;1.685964;1.523533;0.6855815;0.9461188;2.744067;0.819833;0.6658275;4.05393
197194.8527;NotLabelled;16384;-0.1177285;0.3711911;-0.6691142;-0.632964;0;-2;1;-1382;3942;-101;65536;0.1772853;-0.2797784;0.6412742;0.6921425;-1;2;1;482;4045;361;8192;0.6326927;-0.5789474;0.2036011;0.4722992;0;3;-2;1330;3905;-307;32768;0.5041551;-0.5868508;0.3725762;0.5124654;1;1;0;-339;4117;824;256;0.6578947;-0.05540166;-0.7502708;-0.03462604;3;0;2;103;574;4053;128;-0.5941828;0.04432133;0.7970647;0.09833795;-1;1;-1;237;919;-4028;4;0.2977839;0.3905817;-0.5401662;-0.6833675;0;4;0;-3431;2152;-996;16;0.2479224;-0.7078105;-0.1094183;0.6523545;-1;8;1;-2105;836;3454;2;0.5595568;-0.6913328;-0.3698061;0.2686981;0;4;1;3375;2364;-545;8;0.01385042;-0.7020713;0.132964;0.699446;-1;2;1;667;847;3875;0.6752402;1.688081;1.477724;0.6749629;1.662802;0.9327633;0.6746968;1.638561;0.4538369;0.6781414;1.730179;-0.2742131;0.4197384;1.742809;-0.6025668;0.08036977;1.800731;-0.4555525;-0.03919724;0.9351041;-0.1477806;0;0;0;0.9397148;1.723259;-0.6025697;1.230127;1.757501;-0.4555579;1.501005;0.867229;-0.2059263;1.560072;-0.05525029;0.002233744;0.3634242;1.685964;1.523533;0.6855815;0.9461188;2.744067;0.819833;0.6658275;4.05393;0.3634242;1.685964;1.523533;0.6855815;0.9461188;2.744067;0.819833;0.6658275;4.05393
197215.9926;NotLabelled;16384;-0.1177285;0.3711911;-0.6691142;-0.632964;0;-2;1;-1382;3942;-101;65536;0.1772853;-0.2797784;0.6412742;0.6921425;-1;2;1;482;4045;361;8192;0.6326927;-0.5789474;0.2036011;0.4722992;0;3;-2;1330;3905;-307;32768;0.5041551;-0.5868508;0.3725762;0.5124654;1;1;0;-339;4117;824;256;0.6578947;-0.05540166;-0.7502708;-0.03462604;3;0;2;103;574;4053;128;-0.5941828;0.04432133;0.7970647;0.09833795;-1;1;-1;237;919;-4028;4;0.2977839;0.3905817;-0.5401662;-0.6833675;0;4;0;-3431;2152;-996;16;0.2479224;-0.7078105;-0.1094183;0.6523545;-1;8;1;-2105;836;3454;2;0.5595568;-0.6913328;-0.3698061;0.2686981;0;4;1;3375;2364;-545;8;0.01385042;-0.7020713;0.132964;0.699446;-1;2;1;667;847;3875;0.6752402;1.688081;1.477724;0.6749629;1.662802;0.9327633;0.6746968;1.638561;0.4538369;0.6781414;1.730179;-0.2742131;0.4197384;1.742809;-0.6025668;0.08036977;1.800731;-0.4555525;-0.03919724;0.9351041;-0.1477806;0;0;0;0.9397148;1.723258;-0.6025697;1.230127;1.757501;-0.4555579;1.501005;0.867229;-0.2059263;1.560072;-0.05525029;0.002233744;0.3634242;1.685964;1.523533;0.6855815;0.9461188;2.744067;0.819833;0.6658275;4.05393;0.3634242;1.685964;1.523533;0.6855815;0.9461188;2.744067;0.819833;0.6658275;4.05393
197236.0226;NotLabelled;16384;-0.1177285;0.3711911;-0.6691142;-0.632964;0;-2;1;-1382;3942;-101;65536;0.1772853;-0.2797784;0.6412742;0.6921425;-1;2;1;482;4045;361;8192;0.6326927;-0.5789474;0.2036011;0.4722992;0;3;-2;1330;3905;-307;32768;0.5041551;-0.5868508;0.3725762;0.5124654;1;1;0;-339;4117;824;256;0.6578947;-0.05540166;-0.7502708;-0.03462604;3;0;2;103;574;4053;128;-0.5941828;0.04432133;0.7970647;0.09833795;-1;1;-1;237;919;-4028;4;0.2977839;0.3905817;-0.5401662;-0.6833675;0;4;0;-3431;2152;-996;16;0.2479224;-0.7078105;-0.1094183;0.6523545;-1;8;1;-2105;836;3454;2;0.5595568;-0.6913328;-0.3698061;0.2686981;0;4;1;3375;2364;-545;8;0.01385042;-0.7020713;0.132964;0.699446;-1;2;1;667;847;3875;0.6752402;1.688081;1.477724;0.6749629;1.662802;0.9327633;0.6746968;1.638561;0.4538369;0.6781414;1.730179;-0.2742131;0.4197384;1.742809;-0.6025668;0.08036977;1.800731;-0.4555525;-0.03919724;0.9351041;-0.1477806;0;0;0;0.9397148;1.723259;-0.6025697;1.230127;1.757501;-0.4555579;1.501005;0.867229;-0.2059263;1.560072;-0.05525029;0.002233744;0.3634242;1.685964;1.523533;0.6855815;0.9461188;2.744067;0.819833;0.6658275;4.05393;0.3634242;1.685964;1.523533;0.6855815;0.9461188;2.744067;0.819833;0.6658275;4.05393
197257.017;NotLabelled;16384;-0.1177285;0.3711911;-0.6691142;-0.632964;0;-2;1;-1382;3942;-101;65536;0.1772853;-0.2797784;0.6412742;0.6921425;-1;2;1;482;4045;361;8192;0.6326927;-0.5789474;0.2036011;0.4722992;0;3;-2;1330;3905;-307;32768;0.5041551;-0.5868508;0.3725762;0.5124654;1;1;0;-339;4117;824;256;0.6578947;-0.05540166;-0.7502708;-0.03462604;3;0;2;103;574;4053;128;-0.5941828;0.04432133;0.7970647;0.09833795;-1;1;-1;237;919;-4028;4;0.2977839;0.3905817;-0.5401662;-0.6833675;0;4;0;-3431;2152;-996;16;0.2479224;-0.7078105;-0.1094183;0.6523545;-1;8;1;-2105;836;3454;2;0.5595568;-0.6913328;-0.3698061;0.2686981;0;4;1;3375;2364;-545;8;0.01385042;-0.7020713;0.132964;0.699446;-1;2;1;667;847;3875;0.6752402;1.688081;1.477724;0.6749629;1.662802;0.9327633;0.6746968;1.638561;0.4538369;0.6781414;1.730179;-0.2742131;0.4197384;1.742809;-0.6025668;0.08036977;1.800731;-0.4555525;-0.03919724;0.9351041;-0.1477806;0;0;0;0.9397148;1.723259;-0.6025697;1.230127;1.757501;-0.4555579;1.501005;0.867229;-0.2059263;1.560072;-0.05525029;0.002233744;0.3634242;1.685964;1.523533;0.6855815;0.9461188;2.744067;0.819833;0.6658275;4.05393;0.3634242;1.685964;1.523533;0.6855815;0.9461188;2.744067;0.819833;0.6658275;4.05393
197278.2476;NotLabelled;16384;-0.1177285;0.3711911;-0.6691142;-0.632964;0;-2;1;-1382;3942;-101;65536;0.1772853;-0.2797784;0.6412742;0.6921425;-1;2;1;482;4045;361;8192;0.6326927;-0.5789474;0.2036011;0.4722992;0;3;-2;1330;3905;-307;32768;0.5041551;-0.5868508;0.3725762;0.5124654;1;1;0;-339;4117;824;256;0.6578947;-0.05540166;-0.7502708;-0.03462604;3;0;2;103;574;4053;128;-0.5941828;0.04432133;0.7970647;0.09833795;-1;1;-1;237;919;-4028;4;0.2977839;0.3905817;-0.5401662;-0.6833675;0;4;0;-3431;2152;-996;16;0.2479224;-0.7078105;-0.1094183;0.6523545;-1;8;1;-2105;836;3454;2;0.5595568;-0.6913328;-0.3698061;0.2686981;0;4;1;3375;2364;-545;8;0.01385042;-0.7020713;0.132964;0.699446;-1;2;1;667;847;3875;0.6752402;1.688081;1.477724;0.6749629;1.662802;0.9327633;0.6746968;1.638561;0.4538369;0.6781414;1.730179;-0.2742131;0.4197384;1.742809;-0.6025668;0.08036977;1.800731;-0.4555525;-0.03919724;0.9351041;-0.1477806;0;0;0;0.9397148;1.723259;-0.6025697;1.230127;1.757501;-0.4555579;1.501005;0.867229;-0.2059263;1.560072;-0.05525029;0.002233744;0.3634242;1.685964;1.523533;0.6855815;0.9461188;2.744067;0.819833;0.6658275;4.05393;0.3634242;1.685964;1.523533;0.6855815;0.9461188;2.744067;0.819833;0.6658275;4.05393
197298.9597;NotLabelled;16384;-0.1177285;0.3711911;-0.6691142;-0.632964;0;-2;1;-1382;3942;-101;65536;0.1772853;-0.2797784;0.6412742;0.6921425;-1;2;1;482;4045;361;8192;0.6326927;-0.5789474;0.2036011;0.4722992;0;3;-2;1330;3905;-307;32768;0.5041551;-0.5868508;0.3725762;0.5124654;1;1;0;-339;4117;824;256;0.6578947;-0.05540166;-0.7502708;-0.03462604;3;0;2;103;574;4053;128;-0.5941828;0.04432133;0.7970647;0.09833795;-1;1;-1;237;919;-4028;4;0.2977839;0.3905817;-0.5401662;-0.6833675;0;4;0;-3431;2152;-996;16;0.2479224;-0.7078105;-0.1094183;0.6523545;-1;8;1;-2105;836;3454;2;0.5595568;-0.6913328;-0.3698061;0.2686981;0;4;1;3375;2364;-545;8;0.01385042;-0.7020713;0.132964;0.699446;-1;2;1;667;847;3875;0.6752402;1.688081;1.477724;0.6749629;1.662802;0.9327633;0.6746968;1.638561;0.4538369;0.6781414;1.730179;-0.2742131;0.4197384;1.742809;-0.6025668;0.08036977;1.800731;-0.4555525;-0.03919724;0.9351041;-0.1477806;0;0;0;0.9397148;1.723258;-0.6025697;1.230127;1.757501;-0.4555579;1.501005;0.867229;-0.2059263;1.560072;-0.05525029;0.002233744;0.3634242;1.685964;1.523533;0.6855815;0.9461188;2.744067;0.819833;0.6658275;4.05393;0.3634242;1.685964;1.523533;0.6855815;0.9461188;2.744067;0.819833;0.6658275;4.05393
197319.0067;NotLabelled;16384;-0.1177285;0.3711911;-0.6691142;-0.632964;0;-2;1;-1382;3942;-101;65536;0.1772853;-0.2797784;0.6412742;0.6921425;-1;2;1;482;4045;361;8192;0.6326927;-0.5789474;0.2036011;0.4722992;0;3;-2;1330;3905;-307;32768;0.5041551;-0.5868508;0.3725762;0.5124654;1;1;0;-339;4117;824;256;0.6578947;-0.05540166;-0.7502708;-0.03462604;3;0;2;103;574;4053;128;-0.5941828;0.04432133;0.7970647;0.09833795;-1;1;-1;237;919;-4028;4;0.2977839;0.3905817;-0.5401662;-0.6833675;0;4;0;-3431;2152;-996;16;0.2479224;-0.7078105;-0.1094183;0.6523545;-1;8;1;-2105;836;3454;2;0.5595568;-0.6913328;-0.3698061;0.2686981;0;4;1;3375;2364;-545;8;0.01385042;-0.7020713;0.132964;0.699446;-1;2;1;667;847;3875;0.6752402;1.688081;1.477724;0.6749629;1.662802;0.9327633;0.6746968;1.638561;0.4538369;0.6781414;1.730179;-0.2742131;0.4197384;1.742809;-0.6025668;0.08036977;1.800731;-0.4555525;-0.03919724;0.9351041;-0.1477806;0;0;0;0.9397148;1.723258;-0.6025697;1.230127;1.757501;-0.4555579;1.501005;0.867229;-0.2059263;1.560072;-0.05525029;0.002233744;0.3634242;1.685964;1.523533;0.6855815;0.9461188;2.744067;0.819833;0.6658275;4.05393;0.3634242;1.685964;1.523533;0.6855815;0.9461188;2.744067;0.819833;0.6658275;4.05393
197339.9975;NotLabelled;16384;-0.1177285;0.3711911;-0.6691142;-0.632964;0;-2;1;-1382;3942;-101;65536;0.1772853;-0.2797784;0.6412742;0.6921425;-1;2;1;482;4045;361;8192;0.6326927;-0.5789474;0.2036011;0.4722992;0;3;-2;1330;3905;-307;32768;0.5041551;-0.5868508;0.3725762;0.5124654;1;1;0;-339;4117;824;256;0.6578947;-0.05540166;-0.7502708;-0.03462604;3;0;2;103;574;4053;128;-0.5941828;0.04432133;0.7970647;0.09833795;-1;1;-1;237;919;-4028;4;0.2977839;0.3905817;-0.5401662;-0.6833675;0;4;0;-3431;2152;-996;16;0.2479224;-0.7078105;-0.1094183;0.6523545;-1;8;1;-2105;836;3454;2;0.5595568;-0.6913328;-0.3698061;0.2686981;0;4;1;3375;2364;-545;8;0.01385042;-0.7020713;0.132964;0.699446;-1;2;1;667;847;3875;0.6752402;1.688081;1.477724;0.6749629;1.662802;0.9327633;0.6746968;1.638561;0.4538369;0.6781414;1.730179;-0.2742131;0.4197384;1.742809;-0.6025668;0.08036977;1.800731;-0.4555525;-0.03919724;0.9351041;-0.1477806;0;0;0;0.9397148;1.723259;-0.6025697;1.230127;1.757501;-0.4555579;1.501005;0.867229;-0.2059263;1.560072;-0.05525029;0.002233744;0.3634242;1.685964;1.523533;0.6855815;0.9461188;2.744067;0.819833;0.6658275;4.05393;0.3634242;1.685964;1.523533;0.6855815;0.9461188;2.744067;0.819833;0.6658275;4.05393
197360.2274;NotLabelled;16384;-0.1177285;0.3711911;-0.6691142;-0.632964;0;-2;1;-1382;3942;-101;65536;0.1772853;-0.2797784;0.6412742;0.6921425;-1;2;1;482;4045;361;8192;0.6326927;-0.5789474;0.2036011;0.4722992;0;3;-2;1330;3905;-307;32768;0.5041551;-0.5868508;0.3725762;0.5124654;1;1;0;-339;4117;824;256;0.6578947;-0.05540166;-0.7502708;-0.03462604;3;0;2;103;574;4053;128;-0.5941828;0.04432133;0.7970647;0.09833795;-1;1;-1;237;919;-4028;4;0.2977839;0.3905817;-0.5401662;-0.6833675;0;4;0;-3431;2152;-996;16;0.2479224;-0.7078105;-0.1094183;0.6523545;-1;8;1;-2105;836;3454;2;0.5595568;-0.6913328;-0.3698061;0.2686981;0;4;1;3375;2364;-545;8;0.01385042;-0.7020713;0.132964;0.699446;-1;2;1;667;847;3875;0.6752402;1.688081;1.477724;0.6749629;1.662802;0.9327633;0.6746968;1.638561;0.4538369;0.6781414;1.730179;-0.2742131;0.4197384;1.742809;-0.6025668;0.08036977;1.800731;-0.4555525;-0.03919724;0.9351041;-0.1477806;0;0;0;0.9397148;1.723258;-0.6025697;1.230127;1.757501;-0.4555579;1.501005;0.867229;-0.2059263;1.560072;-0.05525029;0.002233744;0.3634242;1.685964;1.523533;0.6855815;0.9461188;2.744067;0.819833;0.6658275;4.05393;0.3634242;1.685964;1.523533;0.6855815;0.9461188;2.744067;0.819833;0.6658275;4.05393
197382.0203;NotLabelled;16384;-0.1177285;0.3711911;-0.6691142;-0.632964;0;-2;1;-1382;3942;-101;65536;0.1772853;-0.2797784;0.6412742;0.6921425;-1;2;1;482;4045;361;8192;0.6326927;-0.5789474;0.2036011;0.4722992;0;3;-2;1330;3905;-307;32768;0.5041551;-0.5868508;0.3725762;0.5124654;1;1;0;-339;4117;824;256;0.6578947;-0.05540166;-0.7502708;-0.03462604;3;0;2;103;574;4053;128;-0.5941828;0.04432133;0.7970647;0.09833795;-1;1;-1;237;919;-4028;4;0.2977839;0.3905817;-0.5401662;-0.6833675;0;4;0;-3431;2152;-996;16;0.2479224;-0.7078105;-0.1094183;0.6523545;-1;8;1;-2105;836;3454;2;0.5595568;-0.6913328;-0.3698061;0.2686981;0;4;1;3375;2364;-545;8;0.01385042;-0.7020713;0.132964;0.699446;-1;2;1;667;847;3875;0.6752402;1.688081;1.477724;0.6749629;1.662802;0.9327633;0.6746968;1.638561;0.4538369;0.6781414;1.730179;-0.2742131;0.4197384;1.742809;-0.6025668;0.08036977;1.800731;-0.4555525;-0.03919724;0.9351041;-0.1477806;0;0;0;0.9397148;1.723259;-0.6025697;1.230127;1.757501;-0.4555579;1.501005;0.867229;-0.2059263;1.560072;-0.05525029;0.002233744;0.3634242;1.685964;1.523533;0.6855815;0.9461188;2.744067;0.819833;0.6658275;4.05393;0.3634242;1.685964;1.523533;0.6855815;0.9461188;2.744067;0.819833;0.6658275;4.05393
197404.0464;NotLabelled;16384;-0.1177285;0.3711911;-0.6691142;-0.632964;0;-2;1;-1382;3942;-101;65536;0.1772853;-0.2797784;0.6412742;0.6921425;-1;2;1;482;4045;361;8192;0.6326927;-0.5789474;0.2036011;0.4722992;0;3;-2;1330;3905;-307;32768;0.5041551;-0.5868508;0.3725762;0.5124654;1;1;0;-339;4117;824;256;0.6578947;-0.05540166;-0.7502708;-0.03462604;3;0;2;103;574;4053;128;-0.5941828;0.04432133;0.7970647;0.09833795;-1;1;-1;237;919;-4028;4;0.2977839;0.3905817;-0.5401662;-0.6833675;0;4;0;-3431;2152;-996;16;0.2479224;-0.7078105;-0.1094183;0.6523545;-1;8;1;-2105;836;3454;2;0.5595568;-0.6913328;-0.3698061;0.2686981;0;4;1;3375;2364;-545;8;0.01385042;-0.7020713;0.132964;0.699446;-1;2;1;667;847;3875;0.6752402;1.688081;1.477724;0.6749629;1.662802;0.9327633;0.6746968;1.638561;0.4538369;0.6781414;1.730179;-0.2742131;0.4197384;1.742809;-0.6025668;0.08036977;1.800731;-0.4555525;-0.03919724;0.9351041;-0.1477806;0;0;0;0.9397148;1.723259;-0.6025697;1.230127;1.757501;-0.4555579;1.501005;0.867229;-0.2059263;1.560072;-0.05525029;0.002233744;0.3634242;1.685964;1.523533;0.6855815;0.9461188;2.744067;0.819833;0.6658275;4.05393;0.3634242;1.685964;1.523533;0.6855815;0.9461188;2.744067;0.819833;0.6658275;4.05393
197425.0943;NotLabelled;16384;-0.1177285;0.3711911;-0.6691142;-0.632964;0;-2;1;-1382;3942;-101;65536;0.1772853;-0.2797784;0.6412742;0.6921425;-1;2;1;482;4045;361;8192;0.6326927;-0.5789474;0.2036011;0.4722992;0;3;-2;1330;3905;-307;32768;0.5041551;-0.5868508;0.3725762;0.5124654;1;1;0;-339;4117;824;256;0.6578947;-0.05540166;-0.7502708;-0.03462604;3;0;2;103;574;4053;128;-0.5941828;0.04432133;0.7970647;0.09833795;-1;1;-1;237;919;-4028;4;0.2977839;0.3905817;-0.5401662;-0.6833675;0;4;0;-3431;2152;-996;16;0.2479224;-0.7078105;-0.1094183;0.6523545;-1;8;1;-2105;836;3454;2;0.5595568;-0.6913328;-0.3698061;0.2686981;0;4;1;3375;2364;-545;8;0.01385042;-0.7020713;0.132964;0.699446;-1;2;1;667;847;3875;0.6752402;1.688081;1.477724;0.6749629;1.662802;0.9327633;0.6746968;1.638561;0.4538369;0.6781414;1.730179;-0.2742131;0.4197384;1.742809;-0.6025668;0.08036977;1.800731;-0.4555525;-0.03919724;0.9351041;-0.1477806;0;0;0;0.9397148;1.723259;-0.6025697;1.230127;1.757501;-0.4555579;1.501005;0.867229;-0.2059263;1.560072;-0.05525029;0.002233744;0.3634242;1.685964;1.523533;0.6855815;0.9461188;2.744067;0.819833;0.6658275;4.05393;0.3634242;1.685964;1.523533;0.6855815;0.9461188;2.744067;0.819833;0.6658275;4.05393
197446.2575;NotLabelled;16384;-0.1177285;0.3711911;-0.6691142;-0.632964;0;-2;1;-1382;3942;-101;65536;0.1772853;-0.2797784;0.6412742;0.6921425;-1;2;1;482;4045;361;8192;0.6326927;-0.5789474;0.2036011;0.4722992;0;3;-2;1330;3905;-307;32768;0.5041551;-0.5868508;0.3725762;0.5124654;1;1;0;-339;4117;824;256;0.6578947;-0.05540166;-0.7502708;-0.03462604;3;0;2;103;574;4053;128;-0.5941828;0.04432133;0.7970647;0.09833795;-1;1;-1;237;919;-4028;4;0.2977839;0.3905817;-0.5401662;-0.6833675;0;4;0;-3431;2152;-996;16;0.2479224;-0.7078105;-0.1094183;0.6523545;-1;8;1;-2105;836;3454;2;0.5595568;-0.6913328;-0.3698061;0.2686981;0;4;1;3375;2364;-545;8;0.01385042;-0.7020713;0.132964;0.699446;-1;2;1;667;847;3875;0.6752402;1.688081;1.477724;0.6749629;1.662802;0.9327633;0.6746968;1.638561;0.4538369;0.6781414;1.730179;-0.2742131;0.4197384;1.742809;-0.6025668;0.08036977;1.800731;-0.4555525;-0.03919724;0.9351041;-0.1477806;0;0;0;0.9397148;1.723258;-0.6025697;1.230127;1.757501;-0.4555579;1.501005;0.867229;-0.2059263;1.560072;-0.05525029;0.002233744;0.3634242;1.685964;1.523533;0.6855815;0.9461188;2.744067;0.819833;0.6658275;4.05393;0.3634242;1.685964;1.523533;0.6855815;0.9461188;2.744067;0.819833;0.6658275;4.05393
197468.0097;NotLabelled;16384;-0.1177285;0.3711911;-0.6691142;-0.632964;0;-2;1;-1382;3942;-101;65536;0.1772853;-0.2797784;0.6412742;0.6921425;-1;2;1;482;4045;361;8192;0.6326927;-0.5789474;0.2036011;0.4722992;0;3;-2;1330;3905;-307;32768;0.5041551;-0.5868508;0.3725762;0.5124654;1;1;0;-339;4117;824;256;0.6578947;-0.05540166;-0.7502708;-0.03462604;3;0;2;103;574;4053;128;-0.5941828;0.04432133;0.7970647;0.09833795;-1;1;-1;237;919;-4028;4;0.2977839;0.3905817;-0.5401662;-0.6833675;0;4;0;-3431;2152;-996;16;0.2479224;-0.7078105;-0.1094183;0.6523545;-1;8;1;-2105;836;3454;2;0.5595568;-0.6913328;-0.3698061;0.2686981;0;4;1;3375;2364;-545;8;0.01385042;-0.7020713;0.132964;0.699446;-1;2;1;667;847;3875;0.6752402;1.688081;1.477724;0.6749629;1.662802;0.9327633;0.6746968;1.638561;0.4538369;0.6781414;1.730179;-0.2742131;0.4197384;1.742809;-0.6025668;0.08036977;1.800731;-0.4555525;-0.03919724;0.9351041;-0.1477806;0;0;0;0.9397148;1.723258;-0.6025697;1.230127;1.757501;-0.4555579;1.501005;0.867229;-0.2059263;1.560072;-0.05525029;0.002233744;0.3634242;1.685964;1.523533;0.6855815;0.9461188;2.744067;0.819833;0.6658275;4.05393;0.3634242;1.685964;1.523533;0.6855815;0.9461188;2.744067;0.819833;0.6658275;4.05393
197490.0028;NotLabelled;16384;-0.1177285;0.3711911;-0.6691142;-0.632964;0;-2;1;-1382;3942;-101;65536;0.1772853;-0.2797784;0.6412742;0.6921425;-1;2;1;482;4045;361;8192;0.6326927;-0.5789474;0.2036011;0.4722992;0;3;-2;1330;3905;-307;32768;0.5041551;-0.5868508;0.3725762;0.5124654;1;1;0;-339;4117;824;256;0.6578947;-0.05540166;-0.7502708;-0.03462604;3;0;2;103;574;4053;128;-0.5941828;0.04432133;0.7970647;0.09833795;-1;1;-1;237;919;-4028;4;0.2977839;0.3905817;-0.5401662;-0.6833675;0;4;0;-3431;2152;-996;16;0.2479224;-0.7078105;-0.1094183;0.6523545;-1;8;1;-2105;836;3454;2;0.5595568;-0.6913328;-0.3698061;0.2686981;0;4;1;3375;2364;-545;8;0.01385042;-0.7020713;0.132964;0.699446;-1;2;1;667;847;3875;0.6752402;1.688081;1.477724;0.6749629;1.662802;0.9327633;0.6746968;1.638561;0.4538369;0.6781414;1.730179;-0.2742131;0.4197384;1.742809;-0.6025668;0.08036977;1.800731;-0.4555525;-0.03919724;0.9351041;-0.1477806;0;0;0;0.9397148;1.723259;-0.6025697;1.230127;1.757501;-0.4555579;1.501005;0.867229;-0.2059263;1.560072;-0.05525029;0.002233744;0.3634242;1.685964;1.523533;0.6855815;0.9461188;2.744067;0.819833;0.6658275;4.05393;0.3634242;1.685964;1.523533;0.6855815;0.9461188;2.744067;0.819833;0.6658275;4.05393
197509.9839;NotLabelled;16384;-0.1177285;0.3711911;-0.6691142;-0.632964;0;-2;1;-1382;3942;-101;65536;0.1772853;-0.2797784;0.6412742;0.6921425;-1;2;1;482;4045;361;8192;0.6326927;-0.5789474;0.2036011;0.4722992;0;3;-2;1330;3905;-307;32768;0.5041551;-0.5868508;0.3725762;0.5124654;1;1;0;-339;4117;824;256;0.6578947;-0.05540166;-0.7502708;-0.03462604;3;0;2;103;574;4053;128;-0.5941828;0.04432133;0.7970647;0.09833795;-1;1;-1;237;919;-4028;4;0.2977839;0.3905817;-0.5401662;-0.6833675;0;4;0;-3431;2152;-996;16;0.2479224;-0.7078105;-0.1094183;0.6523545;-1;8;1;-2105;836;3454;2;0.5595568;-0.6913328;-0.3698061;0.2686981;0;4;1;3375;2364;-545;8;0.01385042;-0.7020713;0.132964;0.699446;-1;2;1;667;847;3875;0.6752402;1.688081;1.477724;0.6749629;1.662802;0.9327633;0.6746968;1.638561;0.4538369;0.6781414;1.730179;-0.2742131;0.4197384;1.742809;-0.6025668;0.08036977;1.800731;-0.4555525;-0.03919724;0.9351041;-0.1477806;0;0;0;0.9397148;1.723259;-0.6025697;1.230127;1.757501;-0.4555579;1.501005;0.867229;-0.2059263;1.560072;-0.05525029;0.002233744;0.3634242;1.685964;1.523533;0.6855815;0.9461188;2.744067;0.819833;0.6658275;4.05393;0.3634242;1.685964;1.523533;0.6855815;0.9461188;2.744067;0.819833;0.6658275;4.05393
197530.1693;NotLabelled;16384;-0.1177285;0.3711911;-0.6691142;-0.632964;0;-2;1;-1382;3942;-101;65536;0.1772853;-0.2797784;0.6412742;0.6921425;-1;2;1;482;4045;361;8192;0.6326927;-0.5789474;0.2036011;0.4722992;0;3;-2;1330;3905;-307;32768;0.5041551;-0.5868508;0.3725762;0.5124654;1;1;0;-339;4117;824;256;0.6578947;-0.05540166;-0.7502708;-0.03462604;3;0;2;103;574;4053;128;-0.5941828;0.04432133;0.7970647;0.09833795;-1;1;-1;237;919;-4028;4;0.2977839;0.3905817;-0.5401662;-0.6833675;0;4;0;-3431;2152;-996;16;0.2479224;-0.7078105;-0.1094183;0.6523545;-1;8;1;-2105;836;3454;2;0.5595568;-0.6913328;-0.3698061;0.2686981;0;4;1;3375;2364;-545;8;0.01385042;-0.7020713;0.132964;0.699446;-1;2;1;667;847;3875;0.6752402;1.688081;1.477724;0.6749629;1.662802;0.9327633;0.6746968;1.638561;0.4538369;0.6781414;1.730179;-0.2742131;0.4197384;1.742809;-0.6025668;0.08036977;1.800731;-0.4555525;-0.03919724;0.9351041;-0.1477806;0;0;0;0.9397148;1.723258;-0.6025697;1.230127;1.757501;-0.4555579;1.501005;0.867229;-0.2059263;1.560072;-0.05525029;0.002233744;0.3634242;1.685964;1.523533;0.6855815;0.9461188;2.744067;0.819833;0.6658275;4.05393;0.3634242;1.685964;1.523533;0.6855815;0.9461188;2.744067;0.819833;0.6658275;4.05393
197551.9979;NotLabelled;16384;-0.1177285;0.3711911;-0.6691142;-0.632964;0;-2;1;-1382;3942;-101;65536;0.1772853;-0.2797784;0.6412742;0.6921425;-1;2;1;482;4045;361;8192;0.6326927;-0.5789474;0.2036011;0.4722992;0;3;-2;1330;3905;-307;32768;0.5041551;-0.5868508;0.3725762;0.5124654;1;1;0;-339;4117;824;256;0.6578947;-0.05540166;-0.7502708;-0.03462604;3;0;2;103;574;4053;128;-0.5941828;0.04432133;0.7970647;0.09833795;-1;1;-1;237;919;-4028;4;0.2977839;0.3905817;-0.5401662;-0.6833675;0;4;0;-3431;2152;-996;16;0.2479224;-0.7078105;-0.1094183;0.6523545;-1;8;1;-2105;836;3454;2;0.5595568;-0.6913328;-0.3698061;0.2686981;0;4;1;3375;2364;-545;8;0.01385042;-0.7020713;0.132964;0.699446;-1;2;1;667;847;3875;0.6752402;1.688081;1.477724;0.6749629;1.662802;0.9327633;0.6746968;1.638561;0.4538369;0.6781414;1.730179;-0.2742131;0.4197384;1.742809;-0.6025668;0.08036977;1.800731;-0.4555525;-0.03919724;0.9351041;-0.1477806;0;0;0;0.9397148;1.723259;-0.6025697;1.230127;1.757501;-0.4555579;1.501005;0.867229;-0.2059263;1.560072;-0.05525029;0.002233744;0.3634242;1.685964;1.523533;0.6855815;0.9461188;2.744067;0.819833;0.6658275;4.05393;0.3634242;1.685964;1.523533;0.6855815;0.9461188;2.744067;0.819833;0.6658275;4.05393
197573.0796;NotLabelled;16384;-0.1177285;0.3711911;-0.6691142;-0.632964;0;-2;1;-1382;3942;-101;65536;0.1772853;-0.2797784;0.6412742;0.6921425;-1;2;1;482;4045;361;8192;0.6326927;-0.5789474;0.2036011;0.4722992;0;3;-2;1330;3905;-307;32768;0.5041551;-0.5868508;0.3725762;0.5124654;1;1;0;-339;4117;824;256;0.6578947;-0.05540166;-0.7502708;-0.03462604;3;0;2;103;574;4053;128;-0.5941828;0.04432133;0.7970647;0.09833795;-1;1;-1;237;919;-4028;4;0.2977839;0.3905817;-0.5401662;-0.6833675;0;4;0;-3431;2152;-996;16;0.2479224;-0.7078105;-0.1094183;0.6523545;-1;8;1;-2105;836;3454;2;0.5595568;-0.6913328;-0.3698061;0.2686981;0;4;1;3375;2364;-545;8;0.01385042;-0.7020713;0.132964;0.699446;-1;2;1;667;847;3875;0.6752402;1.688081;1.477724;0.6749629;1.662802;0.9327633;0.6746968;1.638561;0.4538369;0.6781414;1.730179;-0.2742131;0.4197384;1.742809;-0.6025668;0.08036977;1.800731;-0.4555525;-0.03919724;0.9351041;-0.1477806;0;0;0;0.9397148;1.723258;-0.6025697;1.230127;1.757501;-0.4555579;1.501005;0.867229;-0.2059263;1.560072;-0.05525029;0.002233744;0.3634242;1.685964;1.523533;0.6855815;0.9461188;2.744067;0.819833;0.6658275;4.05393;0.3634242;1.685964;1.523533;0.6855815;0.9461188;2.744067;0.819833;0.6658275;4.05393
197593.9942;NotLabelled;16384;-0.1177285;0.3711911;-0.6691142;-0.632964;0;-2;1;-1382;3942;-101;65536;0.1772853;-0.2797784;0.6412742;0.6921425;-1;2;1;482;4045;361;8192;0.6326927;-0.5789474;0.2036011;0.4722992;0;3;-2;1330;3905;-307;32768;0.5041551;-0.5868508;0.3725762;0.5124654;1;1;0;-339;4117;824;256;0.6578947;-0.05540166;-0.7502708;-0.03462604;3;0;2;103;574;4053;128;-0.5941828;0.04432133;0.7970647;0.09833795;-1;1;-1;237;919;-4028;4;0.2977839;0.3905817;-0.5401662;-0.6833675;0;4;0;-3431;2152;-996;16;0.2479224;-0.7078105;-0.1094183;0.6523545;-1;8;1;-2105;836;3454;2;0.5595568;-0.6913328;-0.3698061;0.2686981;0;4;1;3375;2364;-545;8;0.01385042;-0.7020713;0.132964;0.699446;-1;2;1;667;847;3875;0.6752402;1.688081;1.477724;0.6749629;1.662802;0.9327633;0.6746968;1.638561;0.4538369;0.6781414;1.730179;-0.2742131;0.4197384;1.742809;-0.6025668;0.08036977;1.800731;-0.4555525;-0.03919724;0.9351041;-0.1477806;0;0;0;0.9397148;1.723259;-0.6025697;1.230127;1.757501;-0.4555579;1.501005;0.867229;-0.2059263;1.560072;-0.05525029;0.002233744;0.3634242;1.685964;1.523533;0.6855815;0.9461188;2.744067;0.819833;0.6658275;4.05393;0.3634242;1.685964;1.523533;0.6855815;0.9461188;2.744067;0.819833;0.6658275;4.05393
197615.3608;NotLabelled;16384;-0.1177285;0.3698061;-0.6698806;-0.632964;-3;0;0;-1272;3964;-199;65536;0.1772853;-0.2797784;0.6412742;0.6921425;-1;4;1;396;4159;543;8192;0.6337243;-0.5789474;0.2036011;0.4709141;0;7;0;1414;3831;-151;32768;0.5041551;-0.5868508;0.3725762;0.5124654;0;1;0;-235;3913;852;256;0.6565097;-0.05540166;-0.7514179;-0.03601108;2;0;2;53;644;3995;128;-0.5941828;0.04432133;0.7970647;0.09833795;0;-2;-1;215;1031;-3918;4;0.2977839;0.3905817;-0.5387812;-0.68446;0;3;-1;-3439;2044;-964;16;0.2493075;-0.7073238;-0.1094183;0.6523545;-1;5;1;-1899;838;3440;2;0.5595568;-0.6913328;-0.3698061;0.2686981;0;4;0;3289;2296;-333;8;0.01385042;-0.7020713;0.132964;0.699446;0;0;1;625;871;3867;0.6739954;1.687796;1.478926;0.6737181;1.662517;0.9339646;0.6734523;1.638276;0.455038;0.6768038;1.731368;-0.2728255;0.418405;1.744248;-0.6011726;0.07893357;1.80133;-0.4540676;-0.03973919;0.9351051;-0.1476358;0;0;0;0.938412;1.725527;-0.6011755;1.228758;1.759936;-0.4540727;1.500285;0.8690462;-0.2073672;1.560115;-0.05343246;0.0005750656;0.3621794;1.685679;1.524734;0.6931499;0.9468818;2.743543;0.8339822;0.664278;4.052218;0.3621794;1.685679;1.524734;0.6931499;0.9468818;2.743543;0.8339822;0.664278;4.052218
197636.1443;NotLabelled;16384;-0.1177285;0.3711911;-0.6691142;-0.632964;0;5;0;-1412;3744;-439;65536;0.1772853;-0.2811634;0.6412742;0.6915811;1;1;0;616;3947;601;8192;0.6332776;-0.5789474;0.2049861;0.4709141;-2;-5;0;1488;3741;-499;32768;0.5041551;-0.5868508;0.3725762;0.5124654;0;-4;0;-373;4017;930;256;0.6565097;-0.0567867;-0.7513145;-0.03601108;4;-1;1;53;682;3833;128;-0.5927978;0.04432133;0.7982647;0.09695291;2;-5;-2;245;1049;-3948;4;0.2977839;0.3905817;-0.5387812;-0.68446;0;1;0;-3471;2020;-952;16;0.2493075;-0.7071082;-0.1108033;0.6523545;-1;2;0;-1967;766;3472;2;0.5609418;-0.6902094;-0.3698061;0.2686981;-1;-1;0;3343;2304;-337;8;0.01523546;-0.7020426;0.132964;0.699446;0;2;0;691;885;3921;0.6747811;1.686299;1.475103;0.6744907;1.65984;0.9301982;0.6742133;1.634561;0.4513254;0.677808;1.728981;-0.2763659;0.4194592;1.742999;-0.6047058;0.08009656;1.800514;-0.4575185;-0.0384343;0.9348878;-0.1493462;0;0;0;0.9394262;1.723201;-0.6047088;1.229832;1.756739;-0.4575239;1.500013;0.8650881;-0.2120925;1.559781;-0.05739081;-0.004132152;0.3629662;1.684282;1.520924;0.6935676;0.945484;2.739833;0.8340759;0.6654578;4.049097;0.3629662;1.684282;1.520924;0.6935676;0.945484;2.739833;0.8340759;0.6654578;4.049097
197656.0218;NotLabelled;16384;-0.1177285;0.3725762;-0.668344;-0.632964;0;-2;1;-1632;3818;-315;65536;0.1772853;-0.2811634;0.6412742;0.6915811;0;0;1;402;4155;365;8192;0.6332776;-0.5789474;0.2049861;0.4709141;0;1;0;1672;3841;-513;32768;0.5041551;-0.5868508;0.3725762;0.5124654;0;0;1;-345;3993;988;256;0.6565097;-0.0567867;-0.7513145;-0.03601108;2;-2;0;203;660;4019;128;-0.5927978;0.04570637;0.7981866;0.09695291;1;-2;-1;125;961;-4076;4;0.2977839;0.3905817;-0.5387812;-0.68446;0;0;0;-3459;2142;-1090;16;0.2506925;-0.7076763;-0.1121884;0.6509695;0;4;0;-2015;900;3502;2;0.5595568;-0.6911274;-0.3711911;0.267313;0;4;0;3199;2386;-395;8;0.01523546;-0.7034197;0.132964;0.6980609;-1;1;1;731;965;3861;0.6745147;1.684013;1.473404;0.6742338;1.65845;0.9284567;0.6739647;1.633959;0.4495431;0.6775597;1.72838;-0.2781478;0.419211;1.742396;-0.6064885;0.07984833;1.799911;-0.459301;-0.03843451;0.9348881;-0.1493462;0;0;0;0.9391782;1.722599;-0.6064916;1.229584;1.756136;-0.4593062;1.499776;0.8644855;-0.2138863;1.559543;-0.05799341;-0.005926132;0.3626989;1.68192;1.519216;0.6932995;0.9431224;2.738126;0.8307993;0.6620893;4.047493;0.3626989;1.68192;1.519216;0.6932995;0.9431224;2.738126;0.8307993;0.6620893;4.047493
197676.0142;NotLabelled;16384;-0.1177285;0.3711911;-0.6691142;-0.632964;0;-6;1;-1466;4080;-125;65536;0.1772853;-0.2811634;0.6412742;0.6915811;0;0;0;534;3987;413;8192;0.6337243;-0.5789474;0.2036011;0.4709141;0;4;2;1608;3715;-689;32768;0.5041551;-0.5859692;0.3739612;0.5124654;2;0;1;-373;4047;862;256;0.6565097;-0.0567867;-0.7512469;-0.03739612;1;-1;0;5;432;4101;128;-0.5927978;0.04570637;0.7981866;0.09695291;-2;0;0;201;879;-4100;4;0.2963989;0.3905817;-0.5387812;-0.6850609;0;0;0;-3363;2100;-1016;16;0.2506925;-0.7063997;-0.1121884;0.6523545;0;-1;0;-1917;876;3430;2;0.5609418;-0.6900038;-0.3711911;0.267313;0;0;0;3213;2382;-349;8;0.01523546;-0.7034197;0.132964;0.6980609;0;-3;0;615;963;3913;0.6750001;1.683808;1.474887;0.6747195;1.658244;0.9299394;0.6744508;1.633753;0.4510256;0.6779282;1.729697;-0.2764667;0.4195793;1.743927;-0.6047975;0.08010082;1.800515;-0.4575178;-0.03843299;0.9348881;-0.1493463;0;0;0;0.9395817;1.725079;-0.6048005;1.229915;1.758841;-0.4575226;1.501365;0.8679512;-0.2107323;1.560843;-0.0550313;-0.004931808;0.3631842;1.681715;1.520699;0.6935769;0.9403863;2.738127;0.8359349;0.660634;4.047249;0.3631842;1.681715;1.520699;0.6935769;0.9403863;2.738127;0.8359349;0.660634;4.047249
197696.1843;NotLabelled;16384;-0.1177285;0.3711911;-0.6704217;-0.6315789;-1;0;0;-1500;3732;-181;65536;0.1772853;-0.2811634;0.6412742;0.6915811;0;0;-1;558;4059;521;8192;0.6337243;-0.5789474;0.2036011;0.4709141;0;1;0;1432;3843;-505;32768;0.5041551;-0.5859692;0.3739612;0.5124654;0;0;1;-265;4019;764;256;0.6565097;-0.05817174;-0.7511409;-0.03739612;1;0;1;27;590;4065;128;-0.5927978;0.04570637;0.7981866;0.09695291;0;-3;-1;251;947;-4038;4;0.2963989;0.3905817;-0.5387812;-0.6850609;0;1;0;-3359;2084;-1004;16;0.2493075;-0.7071082;-0.1108033;0.6523545;-1;-3;0;-1971;824;3396;2;0.5595568;-0.6911274;-0.3711911;0.267313;0;-2;0;3335;2428;-303;8;0.01523546;-0.7034197;0.132964;0.6980609;0;0;0;641;843;3949;0.6782076;1.680723;1.475482;0.6779268;1.65516;0.9305342;0.6776579;1.630669;0.4516205;0.6813854;1.727941;-0.2756942;0.4230895;1.743309;-0.6040156;0.08371863;1.800329;-0.4566547;-0.03838674;0.9348876;-0.1493585;0;0;0;0.9430519;1.723385;-0.6040184;1.233444;1.756274;-0.4566596;1.50474;0.8653846;-0.2097001;1.564155;-0.05759788;-0.003881216;0.3663918;1.67863;1.521294;0.6964054;0.9373024;2.738825;0.8364935;0.6572754;4.048133;0.3663918;1.67863;1.521294;0.6964054;0.9373024;2.738825;0.8364935;0.6572754;4.048133
197717.2314;NotLabelled;16384;-0.1177285;0.3711911;-0.6704217;-0.6315789;1;1;-2;-1420;3788;-441;65536;0.1772853;-0.2811634;0.6412742;0.6915811;1;0;-1;508;4049;473;8192;0.6337243;-0.5789474;0.2036011;0.4709141;0;1;-1;1224;3965;-459;32768;0.5041551;-0.5859692;0.3739612;0.5124654;0;0;0;-225;4057;864;256;0.6551247;-0.05817174;-0.7523491;-0.03739612;1;0;1;143;688;3997;128;-0.5927978;0.04570637;0.7981866;0.09695291;-1;0;-1;191;967;-3964;4;0.2963989;0.3905817;-0.5387812;-0.6850609;0;-1;0;-3465;2022;-996;16;0.2493075;-0.7071082;-0.1108033;0.6523545;-1;0;0;-2171;768;3394;2;0.5595568;-0.6911274;-0.3711911;0.267313;0;-1;0;3405;2378;-351;8;0.01523546;-0.7034197;0.132964;0.6980609;-1;1;0;683;873;3961;0.6760737;1.68059;1.478018;0.6757929;1.655027;0.9330696;0.6755241;1.630536;0.4541559;0.6819424;1.727756;-0.273147;0.4248561;1.743164;-0.6024139;0.08496101;1.800278;-0.4563032;-0.03838632;0.9348876;-0.1493588;0;0;0;0.9448101;1.723113;-0.600509;1.234668;1.755942;-0.4520887;1.504916;0.8650036;-0.2041582;1.564331;-0.05797935;0.001660705;0.364258;1.678497;1.523829;0.6942717;0.9371693;2.741361;0.8343596;0.6571424;4.050669;0.364258;1.678497;1.523829;0.6942717;0.9371693;2.741361;0.8343596;0.6571424;4.050669
197738.0428;NotLabelled;16384;-0.1177285;0.3711911;-0.6704217;-0.6315789;0;1;-1;-1332;3750;-411;65536;0.1772853;-0.2797784;0.6412742;0.6921425;0;-1;0;468;4073;391;8192;0.6337243;-0.5789474;0.2036011;0.4709141;3;0;-1;1504;3773;-481;32768;0.5041551;-0.5859692;0.3739612;0.5124654;0;0;-1;-413;3909;838;256;0.6551247;-0.05817174;-0.7523491;-0.03739612;2;-1;0;249;638;3899;128;-0.5927978;0.04570637;0.7980171;0.09833795;1;1;0;191;1025;-4026;4;0.2963989;0.3919668;-0.5387812;-0.6842694;0;0;0;-3507;1974;-1114;16;0.2506925;-0.7063997;-0.1121884;0.6523545;-1;3;0;-2107;858;3406;2;0.5595568;-0.6911274;-0.3711911;0.267313;0;-2;0;3381;2326;-329;8;0.01523546;-0.7034197;0.132964;0.6980609;0;0;1;695;841;3953;0.6751178;1.678561;1.476963;0.6748503;1.65422;0.9319587;0.674593;1.630804;0.452991;0.6783415;1.728025;-0.2743306;0.4200481;1.743433;-0.6026522;0.08069161;1.800546;-0.455294;-0.04018886;0.9351046;-0.147514;0;0;0;0.9400055;1.723382;-0.6026553;1.230407;1.756211;-0.4552997;1.502684;0.8653207;-0.2094229;1.562854;-0.05766153;-0.003823757;0.3633008;1.676365;1.522762;0.6948911;0.9374862;2.741354;0.8416461;0.6577334;4.04999;0.3633008;1.676365;1.522762;0.6948911;0.9374862;2.741354;0.8416461;0.6577334;4.04999
197758.9811;NotLabelled;16384;-0.1177285;0.3711911;-0.6691142;-0.632964;0;-3;2;-1354;3936;-203;65536;0.1772853;-0.2811634;0.6412742;0.6915811;0;-1;1;590;4025;503;8192;0.6324561;-0.5803324;0.2036011;0.4709141;0;-1;1;1492;3597;-381;32768;0.5041551;-0.5859692;0.3739612;0.5124654;-2;0;0;-383;3931;790;256;0.6551247;-0.05817174;-0.752279;-0.03878116;4;0;0;101;634;3993;128;-0.5927978;0.04570637;0.7980171;0.09833795;2;-1;0;233;919;-3892;4;0.2963989;0.3919668;-0.5387812;-0.6842694;0;-2;0;-3479;2092;-1026;16;0.2506925;-0.7063997;-0.1121884;0.6523545;0;-1;0;-2037;818;3520;2;0.5595568;-0.6911274;-0.3711911;0.267313;0;-1;0;3359;2404;-453;8;0.01523546;-0.7034197;0.132964;0.6980609;0;2;0;645;885;3977;0.6732353;1.677716;1.474165;0.672968;1.653375;0.9291614;0.6727107;1.629959;0.4501939;0.6763378;1.728706;-0.2769225;0.4180421;1.744327;-0.6052318;0.0785706;1.800514;-0.4577824;-0.03893311;0.9348873;-0.1492171;0;0;0;0.9380352;1.725225;-0.6052355;1.228364;1.758276;-0.4577879;1.497807;0.867123;-0.2097528;1.557975;-0.05585897;-0.004152536;0.3614185;1.67552;1.519965;0.6929969;0.9366409;2.738559;0.8397393;0.6568886;4.047197;0.3614185;1.67552;1.519965;0.6929969;0.9366409;2.738559;0.8397393;0.6568886;4.047197
197780.0341;NotLabelled;16384;-0.1177285;0.3698061;-0.6698806;-0.632964;2;1;0;-1440;3808;-273;65536;0.1772853;-0.2811634;0.6412742;0.6915811;0;2;0;542;3915;317;8192;0.6337243;-0.5789474;0.2036011;0.4709141;-2;-2;1;1602;3955;-283;32768;0.5027701;-0.587158;0.3739612;0.5124654;-2;-5;1;-371;4005;804;256;0.6551247;-0.05955679;-0.7521706;-0.03878116;3;0;0;111;632;3877;128;-0.5927978;0.04709141;0.7981061;0.09695291;-2;-3;0;139;943;-4028;4;0.2963989;0.3919668;-0.5387812;-0.6842694;-1;-1;-1;-3481;2086;-1030;16;0.2493075;-0.7068897;-0.1121884;0.6523545;0;-2;0;-2113;794;3434;2;0.5595568;-0.6909164;-0.3725762;0.265928;1;1;1;3343;2316;-299;8;0.01523546;-0.7036802;0.1315789;0.6980609;0;1;0;697;893;3993;0.6732109;1.676032;1.475663;0.6729399;1.651365;0.9306741;0.6726795;1.627663;0.4517208;0.6765629;1.727734;-0.2752129;0.4183235;1.744494;-0.6035104;0.07895876;1.801113;-0.4559813;-0.03888589;0.9348881;-0.1492296;0;0;0;0.9382759;1.724314;-0.6035137;1.228662;1.756492;-0.4559869;1.500855;0.8656023;-0.2100161;1.558626;-0.05697417;-0.001924396;0.3613943;1.673864;1.521466;0.6925845;0.9349854;2.740165;0.8371217;0.6575382;4.049539;0.3613943;1.673864;1.521466;0.6925845;0.9349854;2.740165;0.8371217;0.6575382;4.049539
197801.0077;NotLabelled;16384;-0.1177285;0.3711911;-0.6704217;-0.6315789;0;2;-2;-1456;3714;-237;65536;0.1772853;-0.2811634;0.6412742;0.6915811;-2;5;0;480;4111;313;8192;0.6337243;-0.5789474;0.2036011;0.4709141;-3;2;2;1582;3919;-401;32768;0.5027701;-0.5859463;0.3739612;0.5138504;-1;-5;1;-309;4037;886;256;0.6551247;-0.05955679;-0.752098;-0.0401662;2;0;0;295;698;3971;128;-0.5927978;0.04709141;0.7979367;0.09833795;-1;0;0;109;917;-4012;4;0.2963989;0.3919668;-0.5387812;-0.6842694;0;-4;-2;-3407;1962;-1092;16;0.2493075;-0.7068897;-0.1121884;0.6523545;-1;-1;0;-2111;890;3406;2;0.5595568;-0.6909164;-0.3725762;0.265928;0;0;1;3289;2374;-273;8;0.01523546;-0.7036802;0.1315789;0.6980609;0;-1;0;609;881;3941;0.676554;1.672139;1.474459;0.6762967;1.648695;0.929416;0.6760483;1.626067;0.4504106;0.6798058;1.727664;-0.2763122;0.4215617;1.744638;-0.6045955;0.08208276;1.800329;-0.4569758;-0.03888398;0.934888;-0.1492295;0;0;0;0.94155;1.725406;-0.6045983;1.231866;1.757807;-0.4569809;1.504074;0.866917;-0.2110274;1.564561;-0.05548668;-0.002939939;0.3647362;1.669868;1.520249;0.695914;0.9309889;2.738953;0.8404384;0.6535417;4.048328;0.3647362;1.669868;1.520249;0.695914;0.9309889;2.738953;0.8404384;0.6535417;4.048328
197822.0091;NotLabelled;16384;-0.1177285;0.3711911;-0.6704217;-0.6315789;-1;1;0;-1550;4028;-253;65536;0.1772853;-0.2811634;0.6412742;0.6915811;-1;3;0;496;4057;587;8192;0.6337243;-0.5789474;0.2036011;0.4709141;-1;3;1;1444;3729;-653;32768;0.501385;-0.5862474;0.3753462;0.5138504;0;-2;0;-191;4051;928;256;0.6551247;-0.06094183;-0.751987;-0.0401662;2;0;0;43;572;4005;128;-0.5927978;0.04709141;0.7979367;0.09833795;-1;0;1;245;911;-4022;4;0.2977839;0.3919668;-0.5387812;-0.6836678;1;-2;-1;-3395;2028;-990;16;0.2506925;-0.7063997;-0.1121884;0.6523545;0;0;0;-2023;840;3414;2;0.5595568;-0.6909164;-0.3725762;0.265928;0;0;2;3249;2360;-409;8;0.01523546;-0.7036802;0.1315789;0.6980609;-1;-1;0;569;843;3809;0.6762943;1.669244;1.474213;0.6760366;1.645801;0.9291693;0.6757879;1.623173;0.4501639;0.6798079;1.726094;-0.2763715;0.4216232;1.744205;-0.6046404;0.08224961;1.800329;-0.456942;-0.03883547;0.9348881;-0.1492425;0;0;0;0.9415706;1.723897;-0.6046432;1.231942;1.755425;-0.4569466;1.504056;0.8645349;-0.2108887;1.561858;-0.05796623;-0.002468944;0.3644765;1.666973;1.520003;0.6954572;0.9306316;2.740294;0.8413427;0.6508789;4.049028;0.3644765;1.666973;1.520003;0.6954572;0.9306316;2.740294;0.8413427;0.6508789;4.049028
197842.1302;NotLabelled;16384;-0.1177285;0.3711911;-0.6704217;-0.6315789;-1;-3;0;-1500;3848;-489;65536;0.1772853;-0.2811634;0.6412742;0.6915811;0;0;-1;548;4095;563;8192;0.6337243;-0.5789474;0.2036011;0.4709141;2;-6;1;1558;3723;-441;32768;0.501385;-0.5862474;0.3753462;0.5138504;2;-3;0;-403;3955;796;256;0.6551247;-0.06094183;-0.751987;-0.0401662;2;-1;0;-7;554;4021;128;-0.5914127;0.04709141;0.7989637;0.09833795;0;-2;0;275;867;-4068;4;0.2977839;0.3919668;-0.5387812;-0.6836678;0;0;0;-3383;2082;-872;16;0.2493075;-0.7068897;-0.1121884;0.6523545;0;-3;0;-1945;794;3394;2;0.5581717;-0.6920359;-0.3725762;0.265928;0;-1;0;3329;2322;-309;8;0.01523546;-0.7036802;0.1315789;0.6980609;0;-4;0;685;889;3911;0.6762931;1.669173;1.474215;0.6760358;1.645767;0.9291703;0.6757876;1.623173;0.4501635;0.6798076;1.726094;-0.2763718;0.4216228;1.744205;-0.6046407;0.08224928;1.800329;-0.4569423;-0.03883532;0.9348878;-0.1492427;0;0;0;0.9415703;1.723897;-0.6046436;1.231942;1.755424;-0.4569472;1.504056;0.864535;-0.2108891;1.561858;-0.05796587;-0.002469659;0.3644754;1.666898;1.520005;0.6954563;0.9305569;2.740297;0.8395532;0.6531097;4.049719;0.3644754;1.666898;1.520005;0.6954563;0.9305569;2.740297;0.8395532;0.6531097;4.049719
197862.1733;NotLabelled;16384;-0.1163435;0.3711911;-0.6706634;-0.6315789;0;0;0;-1526;3850;-315;65536;0.1772853;-0.2811634;0.6412742;0.6915811;0;0;0;488;4149;451;8192;0.6337243;-0.5789474;0.2036011;0.4709141;0;1;0;1730;3805;-427;32768;0.501385;-0.5862474;0.3753462;0.5138504;3;-2;1;-303;4059;878;256;0.6551247;-0.06094183;-0.7519118;-0.04155125;2;-1;0;201;604;4029;128;-0.5927978;0.04847645;0.7978537;0.09833795;-2;-2;0;203;907;-4120;4;0.2977839;0.3919668;-0.5387812;-0.6836678;0;0;0;-3395;2046;-1060;16;0.2493075;-0.705609;-0.1121884;0.6537396;0;2;-1;-2121;896;3422;2;0.5581717;-0.6920359;-0.3725762;0.265928;0;-3;0;3371;2338;-333;8;0.01523546;-0.7034197;0.132964;0.6980609;-1;0;-1;615;889;3935;0.6753409;1.666233;1.476608;0.6750932;1.643686;0.9315267;0.6748532;1.621847;0.4524846;0.6787475;1.727436;-0.2736684;0.4205581;1.746278;-0.6018922;0.08107011;1.801241;-0.4540208;-0.03883285;0.935122;-0.1477696;0;0;0;0.9405419;1.726919;-0.6019222;1.230843;1.758436;-0.454084;1.504561;0.8671486;-0.2112668;1.56236;-0.05567944;-0.00429976;0.3635224;1.663887;1.522388;0.6944821;0.9256234;2.741524;0.8434342;0.6473918;4.050237;0.3635224;1.663887;1.522388;0.6944821;0.9256234;2.741524;0.8434342;0.6473918;4.050237
197882.4941;NotLabelled;16384;-0.1163435;0.3711911;-0.6706634;-0.6315789;0;-5;0;-1456;4022;-193;65536;0.1772853;-0.2811634;0.6412742;0.6915811;1;-1;0;494;4027;433;8192;0.6337243;-0.5789474;0.2036011;0.4709141;0;4;0;1564;3937;-471;32768;0.501385;-0.5853583;0.3767313;0.5138504;2;-2;0;-177;4061;956;256;0.6551247;-0.06094183;-0.7519118;-0.04155125;4;-1;-1;123;542;3919;128;-0.5927978;0.04986149;0.7977684;0.09833795;-2;-1;0;179;901;-3994;4;0.2977839;0.3919668;-0.5387812;-0.6836678;0;0;0;-3405;2004;-1022;16;0.2493075;-0.705609;-0.1121884;0.6537396;-1;1;0;-1977;724;3468;2;0.5581717;-0.6920359;-0.3725762;0.265928;1;0;1;3181;2344;-365;8;0.01523546;-0.7036802;0.1315789;0.6980609;-2;-1;0;759;799;3983;0.6768836;1.664391;1.472302;0.6766458;1.642743;0.9271848;0.6764145;1.621693;0.4481072;0.6803027;1.726138;-0.2782111;0.4221106;1.744464;-0.6064625;0.08262385;1.799659;-0.4586743;-0.0388342;0.9348879;-0.149243;0;0;0;0.9420943;1.725103;-0.6064657;1.232397;1.756853;-0.4586802;1.504508;0.8659639;-0.21262;1.562015;-0.05704141;-0.006361842;0.3650641;1.661969;1.518073;0.696034;0.9256277;2.738368;0.8449973;0.6494584;4.047516;0.3650641;1.661969;1.518073;0.696034;0.9256277;2.738368;0.8449973;0.6494584;4.047516
197903.0989;NotLabelled;16384;-0.1163435;0.3711911;-0.6706634;-0.6315789;0;0;0;-1400;3780;-235;65536;0.1772853;-0.2811634;0.6412742;0.6915811;0;1;0;496;4005;379;8192;0.6337243;-0.5789474;0.2036011;0.4709141;0;-1;0;1298;3793;-533;32768;0.501385;-0.5853583;0.3767313;0.5138504;1;-4;0;-525;3933;752;256;0.6551247;-0.06232687;-0.7517982;-0.04155125;2;0;0;107;680;3879;128;-0.5927978;0.04847645;0.7978537;0.09833795;0;4;1;165;973;-4002;4;0.2977839;0.3919668;-0.5387812;-0.6836678;0;0;0;-3463;1998;-990;16;0.2493075;-0.7053874;-0.1135734;0.6537396;-1;-1;0;-1961;796;3556;2;0.5581717;-0.6920359;-0.3725762;0.265928;0;-2;0;3357;2318;-337;8;0.01385042;-0.7037088;0.1315789;0.6980609;-2;-3;0;793;839;3929;0.6766334;1.663186;1.471977;0.6763862;1.640639;0.926896;0.6761468;1.6188;0.4478539;0.680304;1.72457;-0.2782713;0.4221742;1.744032;-0.6065061;0.08279176;1.799659;-0.4586403;-0.03878418;0.9348879;-0.1492559;0;0;0;0.9421167;1.723596;-0.6065093;1.232473;1.754473;-0.4586454;1.504491;0.8635833;-0.2124813;1.561929;-0.05942178;-0.006203651;0.3648148;1.66084;1.517757;0.6953762;0.9244978;2.738163;0.8439735;0.6509154;4.047895;0.3648148;1.66084;1.517757;0.6953762;0.9244978;2.738163;0.8439735;0.6509154;4.047895
197923.1367;NotLabelled;16384;-0.1163435;0.3711911;-0.6706634;-0.6315789;0;2;-1;-1482;3830;-167;65536;0.1786704;-0.2811634;0.6412742;0.6912246;-1;4;0;454;4035;391;8192;0.6337243;-0.5789474;0.2036011;0.4709141;0;-3;1;1502;3573;-595;32768;0.501385;-0.5853583;0.3767313;0.5138504;1;0;1;-375;4077;934;256;0.6551247;-0.06232687;-0.7517204;-0.04293629;0;0;0;167;670;4071;128;-0.5927978;0.04847645;0.7978537;0.09833795;-1;0;1;205;955;-4022;4;0.2977839;0.3919668;-0.5387812;-0.6836678;0;-1;0;-3441;2088;-934;16;0.2493075;-0.7053874;-0.1135734;0.6537396;-2;-1;0;-1983;818;3442;2;0.5581717;-0.691502;-0.3725762;0.267313;0;-5;0;3279;2256;-451;8;0.01246537;-0.7034743;0.132964;0.6980609;-2;-4;0;755;845;3901;0.6771331;1.662682;1.473497;0.6768858;1.640136;0.9284156;0.6766464;1.618296;0.4493738;0.680667;1.725589;-0.276529;0.4225279;1.745265;-0.6047434;0.08303282;1.799964;-0.4567897;-0.03853144;0.9351926;-0.1474002;0;0;0;0.9425067;1.725779;-0.6047464;1.232795;1.756877;-0.456795;1.504822;0.8659875;-0.2106407;1.562258;-0.05701745;-0.004362583;0.3653145;1.660336;1.519277;0.6958645;0.9239945;2.739686;0.8444494;0.6504121;4.04942;0.3653145;1.660336;1.519277;0.6958645;0.9239945;2.739686;0.8444494;0.6504121;4.04942
197964.205;NotLabelled;16384;-0.1163435;0.3711911;-0.6706634;-0.6315789;-1;-1;-2;-1486;3848;-309;65536;0.1786704;-0.2811634;0.6412742;0.6912246;0;0;-1;516;4017;553;8192;0.6331367;-0.5789474;0.2022161;0.4722992;-1;-1;2;1452;3845;-437;32768;0.5;-0.5856499;0.3781163;0.5138504;-2;-6;1;-283;3929;870;256;0.6551247;-0.06232687;-0.7517204;-0.04293629;2;0;-1;207;578;3971;128;-0.5927978;0.04986149;0.7975964;0.09972299;-3;-1;0;191;941;-4006;4;0.2977839;0.3919668;-0.5387812;-0.6836678;0;0;0;-3471;2128;-1034;16;0.2479224;-0.7058754;-0.1135734;0.6537396;-1;-1;0;-2009;838;3448;2;0.5581717;-0.691502;-0.3725762;0.267313;0;-2;0;3443;2376;-257;8;0.01246537;-0.7034743;0.132964;0.6980609;-1;-2;0;629;857;4013;0.6770893;1.658697;1.473662;0.6768655;1.638272;0.9284971;0.6766464;1.618297;0.4493738;0.6806671;1.72559;-0.2765286;0.4225279;1.745265;-0.6047432;0.08303291;1.799965;-0.4567893;-0.03853159;0.9351933;-0.1474005;0;0;0;0.9425067;1.72578;-0.6047465;1.232795;1.756878;-0.4567949;1.506358;0.8673735;-0.2073548;1.561184;-0.05572057;-0.0007640123;0.3652688;1.656172;1.519419;0.6958191;0.9198303;2.739828;0.8426248;0.6485527;4.050241;0.3652688;1.656172;1.519419;0.6958191;0.9198303;2.739828;0.8426248;0.6485527;4.050241
197985.0054;NotLabelled;16384;-0.1163435;0.3711911;-0.6706634;-0.6315789;0;-1;0;-1398;3720;-477;65536;0.1772853;-0.2811634;0.6412742;0.6915811;1;-2;0;372;3973;565;8192;0.6331367;-0.5789474;0.2022161;0.4722992;0;-3;1;1394;3775;-565;32768;0.5;-0.5856499;0.3781163;0.5138504;-1;-1;2;-367;4031;878;256;0.6551247;-0.06232687;-0.7517204;-0.04293629;2;-1;-1;97;584;3965;128;-0.5927978;0.04986149;0.7975964;0.09972299;-2;-1;0;115;935;-3990;4;0.2977839;0.3919668;-0.5387812;-0.6836678;0;0;-1;-3517;2034;-966;16;0.2479224;-0.7058754;-0.1135734;0.6537396;-2;2;0;-2119;810;3512;2;0.5581717;-0.691502;-0.3725762;0.267313;0;-1;0;3453;2388;-469;8;0.01246537;-0.7034743;0.132964;0.6980609;-1;1;0;749;813;3993;0.6768383;1.658392;1.471806;0.6766144;1.637966;0.9266415;0.6763954;1.617991;0.4475182;0.680416;1.725284;-0.2783842;0.4222769;1.74496;-0.6065989;0.08278188;1.799659;-0.458645;-0.03878261;0.9348881;-0.1492562;0;0;0;0.9422556;1.725474;-0.6066022;1.232544;1.756572;-0.4586505;1.506107;0.8670683;-0.2092105;1.560933;-0.05602574;-0.002619743;0.3650178;1.655867;1.517564;0.6955681;0.9195251;2.737972;0.8423737;0.6482475;4.048386;0.3650178;1.655867;1.517564;0.6955681;0.9195251;2.737972;0.8423737;0.6482475;4.048386
198006.0839;NotLabelled;16384;-0.1163435;0.3711911;-0.6706634;-0.6315789;0;-1;0;-1446;3844;-237;65536;0.1786704;-0.2811634;0.6412742;0.6912246;0;0;0;574;4037;325;8192;0.6331367;-0.5789474;0.2022161;0.4722992;0;-1;1;1538;3761;-545;32768;0.5;-0.5856499;0.3781163;0.5138504;0;-1;2;-213;4017;928;256;0.6551247;-0.06371191;-0.7516043;-0.04293629;3;-1;-1;155;654;3947;128;-0.5927978;0.04986149;0.7975964;0.09972299;-2;2;2;135;897;-3992;4;0.2977839;0.3919668;-0.5387812;-0.6836678;0;0;-1;-3473;2038;-968;16;0.2479224;-0.7058754;-0.1135734;0.6537396;-1;0;0;-1967;776;3492;2;0.5567867;-0.6926177;-0.3725762;0.267313;1;1;1;3355;2330;-395;8;0.01246537;-0.7037347;0.1315789;0.6980609;0;-1;0;745;817;3907;0.6769089;1.655805;1.473438;0.6766847;1.635379;0.9282736;0.6764655;1.615404;0.4491501;0.6807611;1.724022;-0.2765536;0.4226871;1.744834;-0.6047494;0.08329512;1.799963;-0.4567189;-0.03848097;0.9351926;-0.1474128;0;0;0;0.9426245;1.724272;-0.6047523;1.232966;1.754498;-0.4567239;1.506358;0.8649936;-0.2070963;1.561114;-0.05810022;-0.0004873276;0.3650883;1.65328;1.519196;0.6952211;0.9169381;2.739717;0.8415785;0.6456602;4.050181;0.3650883;1.65328;1.519196;0.6952211;0.9169381;2.739717;0.8415785;0.6456602;4.050181
198027.0369;NotLabelled;16384;-0.1149584;0.3711911;-0.6709022;-0.6315789;-2;-1;-1;-1500;3844;-3;65536;0.1786704;-0.2811634;0.6412742;0.6912246;-1;2;0;400;4121;297;8192;0.6344004;-0.5775623;0.2022161;0.4722992;0;0;1;1662;3745;-499;32768;0.5;-0.5856499;0.3781163;0.5138504;0;-2;2;-237;3851;860;256;0.6551247;-0.06371191;-0.7515239;-0.04432133;1;-1;0;119;656;4157;128;-0.5941828;0.04986149;0.7963905;0.101108;-3;-1;0;215;937;-4270;4;0.2977839;0.3919668;-0.5387812;-0.6836678;0;0;-1;-3435;2062;-1028;16;0.2479224;-0.7045901;-0.1135734;0.6551247;-1;-3;0;-1903;824;3482;2;0.5567867;-0.6920816;-0.3725762;0.2686981;0;0;1;3325;2338;-385;8;0.01108033;-0.7034975;0.132964;0.6980609;-2;-3;0;767;895;3863;0.6773989;1.651417;1.469576;0.6771879;1.632178;0.924368;0.6769801;1.613245;0.4452024;0.6811767;1.723385;-0.2802729;0.4231101;1.744412;-0.6084606;0.08359776;1.798612;-0.4603631;-0.03847126;0.9351931;-0.1474162;0;0;0;0.9430842;1.724799;-0.6084331;1.233349;1.755246;-0.460301;1.509625;0.8665557;-0.2109498;1.564367;-0.05653811;-0.004336715;0.3655773;1.648793;1.51532;0.695627;0.9124517;2.735864;0.8467817;0.6424558;4.046048;0.3655773;1.648793;1.51532;0.695627;0.9124517;2.735864;0.8467817;0.6424558;4.046048
198048.7915;NotLabelled;16384;-0.1149584;0.3711911;-0.6722034;-0.6301939;-4;-3;-1;-1434;3970;-241;65536;0.1786704;-0.2811634;0.6412742;0.6912246;0;2;0;500;4089;671;8192;0.6348403;-0.5775623;0.200831;0.4722992;0;3;0;1492;3731;-617;32768;0.4986149;-0.5859348;0.3795014;0.5138504;1;0;1;-327;4105;924;256;0.6551247;-0.06371191;-0.7515239;-0.04432133;3;0;0;89;538;4003;128;-0.5927978;0.05124654;0.7973342;0.101108;-3;-4;0;171;903;-4024;4;0.2977839;0.3919668;-0.5387812;-0.6836678;0;0;-1;-3445;2194;-946;16;0.2479224;-0.7045901;-0.1135734;0.6551247;-1;-2;0;-1979;920;3452;2;0.5567867;-0.6920816;-0.3725762;0.2686981;0;0;0;3369;2368;-413;8;0.01108033;-0.7034975;0.132964;0.6980609;-1;-3;0;695;883;3889;0.6807524;1.650136;1.472254;0.6805514;1.631833;0.9270141;0.6803524;1.613723;0.4478166;0.6845059;1.723863;-0.2776585;0.4264199;1.744889;-0.6058307;0.08691628;1.79909;-0.4577134;-0.03847955;0.9351925;-0.1474131;0;0;0;0.9463939;1.725277;-0.6058347;1.236668;1.755724;-0.4577197;1.514241;0.8672663;-0.2089808;1.566393;-0.05590832;-0.00205946;0.3689299;1.647434;1.517988;0.6990525;0.9110919;2.738513;0.8502851;0.641096;4.048687;0.3689299;1.647434;1.517988;0.6990525;0.9110919;2.738513;0.8502851;0.641096;4.048687
198069.0357;NotLabelled;16384;-0.1149584;0.3698061;-0.6729663;-0.6301939;0;-2;-2;-1236;3820;-519;65536;0.1786704;-0.2811634;0.6412742;0.6912246;1;0;0;470;4043;621;8192;0.6335774;-0.5789474;0.200831;0.4722992;0;-3;0;1442;3721;-513;32768;0.4986149;-0.5859348;0.3795014;0.5138504;1;-2;0;-261;4099;884;256;0.6551247;-0.06371191;-0.7515239;-0.04432133;2;0;0;85;654;3883;128;-0.5927978;0.05124654;0.7973342;0.101108;0;1;0;97;939;-4058;4;0.2977839;0.3919668;-0.5387812;-0.6836678;0;0;0;-3437;2060;-958;16;0.2465374;-0.7050759;-0.1135734;0.6551247;-1;0;0;-2063;798;3446;2;0.5567867;-0.6920816;-0.3725762;0.2686981;0;-3;0;3393;2346;-455;8;0.01108033;-0.7034975;0.132964;0.6980609;0;-1;0;713;817;3907;0.681003;1.650733;1.474025;0.680802;1.63243;0.9287851;0.6806033;1.614319;0.4495875;0.6847576;1.72446;-0.2758875;0.4266719;1.745487;-0.6040604;0.08716817;1.799687;-0.4559432;-0.03847956;0.9351923;-0.1474131;0;0;0;0.9466461;1.725875;-0.6040636;1.23692;1.756321;-0.4559481;1.511655;0.8675878;-0.2050518;1.563806;-0.05558681;0.001869798;0.3691805;1.648031;1.519759;0.6993015;0.911689;2.740284;0.8487634;0.6439979;4.051135;0.3691805;1.648031;1.519759;0.6993015;0.911689;2.740284;0.8487634;0.6439979;4.051135
198089.0529;NotLabelled;16384;-0.1149584;0.3711911;-0.6709022;-0.6315789;2;4;0;-1362;3660;-471;65536;0.1786704;-0.2811634;0.6412742;0.6912246;1;0;2;358;4167;345;8192;0.6325426;-0.5789474;0.200831;0.4736842;0;-1;0;1526;3899;-413;32768;0.4986149;-0.5850354;0.3808864;0.5138504;0;0;1;-337;3991;866;256;0.6551247;-0.06371191;-0.7515239;-0.04432133;0;0;0;233;740;4021;128;-0.5927978;0.05124654;0.7973342;0.101108;0;6;1;125;987;-4086;4;0.2977839;0.3919668;-0.5387812;-0.6836678;0;1;0;-3493;2062;-982;16;0.2465374;-0.7050759;-0.1135734;0.6551247;-1;1;0;-1999;854;3476;2;0.5567867;-0.6920816;-0.3725762;0.2686981;0;-1;0;3389;2242;-495;8;0.01108033;-0.7034975;0.132964;0.6980609;-1;0;0;721;825;4031;0.6773925;1.650337;1.471474;0.6771916;1.632033;0.9262344;0.6769928;1.613923;0.4470367;0.6811472;1.724063;-0.2784382;0.4230614;1.74509;-0.6066111;0.0835577;1.79929;-0.4584939;-0.03847985;0.9351926;-0.1474136;0;0;0;0.9430355;1.725478;-0.6066144;1.233309;1.755924;-0.4584989;1.508312;0.8678205;-0.2056752;1.560172;-0.05585337;-0.0009188652;0.3655699;1.647634;1.517208;0.695691;0.9112923;2.737733;0.8451527;0.6436012;4.048584;0.3655699;1.647634;1.517208;0.695691;0.9112923;2.737733;0.8451527;0.6436012;4.048584
198110.9824;NotLabelled;16384;-0.1149584;0.3698061;-0.6729663;-0.6301939;-2;-6;0;-1388;3916;-53;65536;0.1772853;-0.2811634;0.6412742;0.6915811;0;0;1;582;4085;399;8192;0.6335774;-0.5789474;0.200831;0.4722992;0;0;0;1514;3803;-323;32768;0.4986149;-0.5850354;0.3808864;0.5138504;-2;0;1;-229;4015;760;256;0.6565097;-0.06509695;-0.7501953;-0.04432133;1;0;0;57;666;4097;128;-0.5927978;0.04986149;0.797422;0.101108;-2;0;0;171;971;-4060;4;0.2977839;0.3933518;-0.5387812;-0.6828718;0;0;0;-3545;2122;-1026;16;0.2465374;-0.7050759;-0.1135734;0.6551247;0;0;0;-2033;816;3578;2;0.5567867;-0.6920816;-0.3725762;0.2686981;0;2;0;3441;2310;-353;8;0.01108033;-0.7034975;0.132964;0.6980609;-1;0;0;807;803;4023;0.6822094;1.649327;1.472147;0.6819986;1.630125;0.9269376;0.6817911;1.611226;0.4477707;0.6861968;1.722743;-0.2774925;0.4281736;1.744858;-0.605643;0.0887562;1.799383;-0.4574473;-0.03813038;0.9348876;-0.1494242;0;0;0;0.948112;1.724316;-0.6056464;1.238428;1.753961;-0.4574524;1.512154;0.8652287;-0.205454;1.56319;-0.05844462;-0.0004907846;0.3703876;1.6467;1.517891;0.6926854;0.9128199;2.741984;0.8368781;0.6451285;4.053425;0.3703876;1.6467;1.517891;0.6926854;0.9128199;2.741984;0.8368781;0.6451285;4.053425
198133.0518;NotLabelled;16384;-0.1149584;0.3698061;-0.6729663;-0.6301939;0;1;0;-1404;3764;-331;65536;0.1786704;-0.2825485;0.6412742;0.6906596;0;2;1;396;4049;487;8192;0.6335774;-0.5789474;0.200831;0.4722992;-3;2;-1;1498;3953;-525;32768;0.4986149;-0.5850354;0.3808864;0.5138504;-1;-1;1;-209;4085;904;256;0.6565097;-0.06509695;-0.7501122;-0.04570637;1;2;1;141;694;3897;128;-0.5927978;0.05124654;0.7971573;0.1024931;-1;0;-1;89;969;-4092;4;0.2977839;0.3933518;-0.5387812;-0.6828718;0;-1;-1;-3471;2142;-966;16;0.2465374;-0.7050759;-0.1135734;0.6551247;-1;1;0;-2019;860;3560;2;0.5554016;-0.6931936;-0.3725762;0.2686981;1;-3;1;3455;2390;-533;8;0.009695291;-0.7048895;0.132964;0.6966759;0;0;0;745;831;3975;0.6839241;1.644626;1.472096;0.6837368;1.627547;0.9268164;0.6835499;1.610513;0.4475793;0.6878082;1.72355;-0.2774495;0.4297708;1.745876;-0.6055745;0.09024243;1.79947;-0.4572931;-0.03661434;0.9349751;-0.1492582;0;0;0;0.9497457;1.726287;-0.6055781;1.239996;1.756153;-0.4572985;1.513745;0.8674207;-0.2053267;1.56478;-0.05625319;-0.0003629923;0.3721004;1.641821;1.517816;0.6943871;0.9079413;2.741912;0.8385683;0.64025;4.053355;0.3721004;1.641821;1.517816;0.6943871;0.9079413;2.741912;0.8385683;0.64025;4.053355
198153.9876;NotLabelled;16384;-0.1149584;0.3698061;-0.6729663;-0.6301939;1;5;0;-1500;3724;-361;65536;0.1786704;-0.2825485;0.6412742;0.6906596;0;1;2;560;3953;273;8192;0.6335774;-0.5789474;0.200831;0.4722992;0;5;-1;1484;3843;-729;32768;0.4986149;-0.5850354;0.3808864;0.5138504;0;1;1;-375;3979;880;256;0.6565097;-0.06509695;-0.7501122;-0.04570637;-1;0;0;259;788;3935;128;-0.5927978;0.05124654;0.7971573;0.1024931;0;6;0;99;1043;-4094;4;0.2977839;0.3933518;-0.5387812;-0.6828718;0;0;0;-3507;2104;-998;16;0.2465374;-0.7050759;-0.1135734;0.6551247;-1;1;0;-1993;822;3448;2;0.5554016;-0.6931936;-0.3725762;0.2686981;0;-3;0;3459;2310;-421;8;0.009695291;-0.7048895;0.132964;0.6966759;0;0;0;793;857;3897;0.6839563;1.644626;1.472109;0.6837689;1.627547;0.9268296;0.6835822;1.610513;0.4475926;0.6878405;1.723549;-0.2774363;0.429803;1.745875;-0.6055613;0.09027463;1.799469;-0.4572799;-0.03661459;0.9349747;-0.1492583;0;0;0;0.9497779;1.726286;-0.6055648;1.240028;1.756153;-0.4572853;1.513751;0.86742;-0.205285;1.564785;-0.05625319;-0.0003211498;0.3721326;1.641821;1.51783;0.6944194;0.9079409;2.741926;0.8386002;0.6402495;4.053368;0.3721326;1.641821;1.51783;0.6944194;0.9079409;2.741926;0.8386002;0.6402495;4.053368
198175.1607;NotLabelled;16384;-0.1163435;0.3711911;-0.6719651;-0.6301939;0;2;0;-1556;3676;-303;65536;0.1772853;-0.2825485;0.6426592;0.6897285;0;-3;1;536;4187;417;8192;0.6335774;-0.5789474;0.200831;0.4722992;4;-1;0;1632;3797;-465;32768;0.4986149;-0.5850354;0.3808864;0.5138504;1;0;1;-211;4047;844;256;0.6565097;-0.06509695;-0.7501122;-0.04570637;-2;0;0;163;668;4101;128;-0.5927978;0.05124654;0.7971573;0.1024931;1;0;0;209;1011;-4050;4;0.2977839;0.3919668;-0.5387812;-0.6836678;0;1;0;-3379;2142;-992;16;0.2465374;-0.7048514;-0.1149584;0.6551247;0;2;0;-1945;944;3466;2;0.5554016;-0.6931936;-0.3725762;0.2686981;1;0;0;3493;2400;-349;8;0.009695291;-0.7048895;0.132964;0.6966759;0;-2;1;719;869;3893;0.6866042;1.644641;1.47093;0.6864169;1.627562;0.92565;0.6862299;1.610528;0.4464129;0.6904883;1.723564;-0.2786159;0.4324509;1.74589;-0.6067409;0.09292249;1.799484;-0.4584595;-0.03336622;0.9349124;-0.150408;0;0;0;0.9524258;1.726301;-0.6067445;1.242676;1.756168;-0.458465;1.516399;0.867435;-0.2064646;1.567433;-0.05623817;-0.001500726;0.3747805;1.641836;1.51665;0.6999831;0.9054942;2.738494;0.8442321;0.6403944;4.050455;0.3747805;1.641836;1.51665;0.6999831;0.9054942;2.738494;0.8442321;0.6403944;4.050455
198195.4452;NotLabelled;16384;-0.1149584;0.3711911;-0.6722034;-0.6301939;0;-7;0;-1618;3982;-293;65536;0.1772853;-0.2825485;0.6426592;0.6897285;1;-1;1;484;4007;611;8192;0.6335774;-0.5789474;0.200831;0.4722992;2;0;0;1420;3879;-281;32768;0.4986149;-0.5850354;0.3808864;0.5138504;0;0;2;-327;3871;662;256;0.6565097;-0.06509695;-0.7501122;-0.04570637;0;-2;0;37;552;4081;128;-0.5927978;0.05124654;0.7971573;0.1024931;0;-4;0;229;941;-4104;4;0.2977839;0.3919668;-0.5387812;-0.6836678;-1;3;0;-3475;2186;-958;16;0.2479224;-0.7056512;-0.1149584;0.6537396;0;1;1;-2021;824;3442;2;0.5554016;-0.6931936;-0.3725762;0.2686981;0;3;0;3479;2360;-395;8;0.009695291;-0.7048895;0.132964;0.6966759;0;3;1;665;811;4027;0.6869746;1.643966;1.469194;0.6867874;1.626887;0.9239141;0.6866005;1.609853;0.4446771;0.6908588;1.72289;-0.2803518;0.4328213;1.745216;-0.6084768;0.09329301;1.79881;-0.4601954;-0.03336628;0.9349121;-0.1504084;0;0;0;0.9527963;1.725626;-0.6084803;1.243047;1.755493;-0.4602008;1.516769;0.8667604;-0.2082005;1.567804;-0.05691278;-0.003236651;0.375151;1.641161;1.514914;0.7003537;0.9048196;2.736758;0.8414884;0.6361293;4.048328;0.375151;1.641161;1.514914;0.7003537;0.9048196;2.736758;0.8414884;0.6361293;4.048328
198216.0213;NotLabelled;16384;-0.1163435;0.3711911;-0.6719651;-0.6301939;0;9;-1;-1364;3822;-113;65536;0.1786704;-0.2839335;0.6426592;0.6888017;0;4;1;508;4125;487;8192;0.6335774;-0.5789474;0.200831;0.4722992;-3;-1;0;1288;3943;-339;32768;0.4986149;-0.5841314;0.3822715;0.5138504;-2;-2;1;-285;4181;864;256;0.6565097;-0.06509695;-0.7501953;-0.04432133;-2;0;0;169;686;3989;128;-0.5927978;0.05124654;0.7971573;0.1024931;1;0;-1;151;1019;-4262;4;0.2977839;0.3933518;-0.5387812;-0.6828718;-1;0;0;-3533;2028;-1040;16;0.2479224;-0.7056512;-0.1149584;0.6537396;0;0;1;-2017;846;3478;2;0.5554016;-0.6924474;-0.3739612;0.2686981;1;2;0;3335;2324;-457;8;0.01108033;-0.7048691;0.132964;0.6966759;0;4;0;785;901;3911;0.687851;1.645523;1.471453;0.6876635;1.628444;0.9261735;0.6874765;1.61141;0.4469365;0.6918823;1.722927;-0.2783267;0.4338591;1.745041;-0.6064773;0.09444164;1.799565;-0.4582814;-0.03184433;0.934994;-0.150229;0;0;0;0.9537974;1.7245;-0.6064804;1.244114;1.754145;-0.4582865;1.517839;0.8654118;-0.2062881;1.568592;-0.05875659;-0.003496408;0.3760275;1.642718;1.517174;0.6983254;0.908838;2.741266;0.8394715;0.6401474;4.052835;0.3760275;1.642718;1.517174;0.6983254;0.908838;2.741266;0.8394715;0.6401474;4.052835
198237.2056;NotLabelled;16384;-0.1163435;0.3711911;-0.6719651;-0.6301939;0;1;-2;-1552;4034;-139;65536;0.1786704;-0.2839335;0.6426592;0.6888017;0;1;0;560;4017;487;8192;0.6346076;-0.5789474;0.200831;0.4709141;0;3;0;1538;4023;-437;32768;0.4972299;-0.5853108;0.3822715;0.5138504;0;0;1;-277;3945;964;256;0.6565097;-0.06371191;-0.7503142;-0.04432133;-5;2;0;129;684;3965;128;-0.5927978;0.05124654;0.7971573;0.1024931;2;4;0;69;977;-4026;4;0.2977839;0.3933518;-0.5387812;-0.6828718;0;0;0;-3441;2022;-1040;16;0.2479224;-0.7056512;-0.1149584;0.6537396;0;0;1;-2021;760;3470;2;0.5554016;-0.6929833;-0.3739612;0.267313;-1;0;0;3503;2366;-377;8;0.01108033;-0.7048691;0.132964;0.6966759;1;0;1;625;801;3943;0.6880322;1.648415;1.471678;0.6878448;1.631336;0.9263982;0.6876578;1.614301;0.4471613;0.6917832;1.724492;-0.2783061;0.4336925;1.74547;-0.606478;0.09417339;1.799565;-0.4583581;-0.03189692;0.9349942;-0.1502174;0;0;0;0.9536719;1.726001;-0.6064812;1.243937;1.756518;-0.4583631;1.517577;0.8671618;-0.2084835;1.566089;-0.0565846;-0.003235459;0.3762087;1.645609;1.517398;0.6989347;0.9117301;2.741378;0.8405397;0.6430392;4.052896;0.3762087;1.645609;1.517398;0.6989347;0.9117301;2.741378;0.8405397;0.6430392;4.052896
198258.0858;NotLabelled;16384;-0.1163435;0.3711911;-0.6719651;-0.6301939;0;0;-2;-1488;3652;-445;65536;0.1786704;-0.2839335;0.6426592;0.6888017;1;0;0;462;4069;555;8192;0.6346076;-0.5789474;0.200831;0.4709141;0;2;0;1512;3513;-775;32768;0.4972299;-0.5853108;0.3822715;0.5138504;1;1;0;-259;4099;944;256;0.6565097;-0.06371191;-0.7503142;-0.04432133;-4;0;0;147;772;3885;128;-0.5927978;0.04986149;0.7972451;0.1024931;5;0;0;175;995;-3958;4;0.2977839;0.3919668;-0.5387812;-0.6836678;-1;-1;0;-3429;2078;-900;16;0.2479224;-0.7056512;-0.1149584;0.6537396;0;-1;1;-2045;812;3452;2;0.5554016;-0.6929833;-0.3739612;0.267313;0;4;0;3411;2320;-433;8;0.01108033;-0.7048691;0.132964;0.6966759;0;2;0;655;863;4017;0.6881586;1.650102;1.471664;0.6879613;1.632125;0.9264131;0.6877657;1.614302;0.4472049;0.6918912;1.724493;-0.2782626;0.4338003;1.74547;-0.6064345;0.09428133;1.799566;-0.4583144;-0.0318969;0.9349942;-0.1502178;0;0;0;0.9537799;1.726002;-0.6064378;1.244045;1.756519;-0.45832;1.517598;0.867162;-0.2083439;1.566109;-0.05658484;-0.003095984;0.3763359;1.647372;1.517394;0.7019769;0.911031;2.739122;0.8435818;0.6423404;4.050641;0.3763359;1.647372;1.517394;0.7019769;0.911031;2.739122;0.8435818;0.6423404;4.050641
198279.0264;NotLabelled;16384;-0.1163435;0.3711911;-0.6719651;-0.6301939;3;-1;0;-1386;3846;-343;65536;0.1786704;-0.2839335;0.6426592;0.6888017;1;3;2;504;4009;461;8192;0.6327473;-0.5803324;0.199446;0.4722992;4;-3;1;1440;3605;-663;32768;0.4972299;-0.5853108;0.3822715;0.5138504;0;0;0;-261;3851;786;256;0.6565097;-0.06232687;-0.7505111;-0.04293629;-6;0;0;165;566;4067;128;-0.5927978;0.04847645;0.7975074;0.101108;2;1;0;103;851;-3942;4;0.2977839;0.3919668;-0.5401662;-0.682574;0;0;0;-3469;2054;-954;16;0.2479224;-0.7056512;-0.1149584;0.6537396;0;0;1;-2105;810;3508;2;0.5554016;-0.6929833;-0.3739612;0.267313;0;2;0;3347;2288;-477;8;0.01108033;-0.7048691;0.132964;0.6966759;1;2;0;707;823;3989;0.6882486;1.657783;1.47213;0.6880281;1.637685;0.926953;0.687812;1.617997;0.4478177;0.6918057;1.72534;-0.2780775;0.433662;1.744969;-0.6062913;0.09415188;1.799566;-0.4583347;-0.03194976;0.9349945;-0.1502067;0;0;0;0.9536462;1.725623;-0.6062944;1.243926;1.756789;-0.4583398;1.516209;0.8685668;-0.2030042;1.564793;-0.05517995;0.00222671;0.3764278;1.655232;1.517884;0.6981556;0.9178479;2.740019;0.8402211;0.6491573;4.051488;0.3764278;1.655232;1.517884;0.6981556;0.9178479;2.740019;0.8402211;0.6491573;4.051488
198300.0249;NotLabelled;16384;-0.1163435;0.3725762;-0.6711981;-0.6301939;2;4;0;-1372;3790;-223;65536;0.1786704;-0.2853186;0.6426592;0.6882291;0;1;0;518;4073;287;8192;0.6327473;-0.5803324;0.199446;0.4722992;0;1;2;1682;3967;-359;32768;0.4972299;-0.5853108;0.3822715;0.5138504;1;0;2;-355;4029;930;256;0.6551247;-0.06232687;-0.7517204;-0.04293629;-3;0;1;275;534;4025;128;-0.5927978;0.04847645;0.7975074;0.101108;0;4;0;79;827;-3944;4;0.2977839;0.3933518;-0.5401662;-0.6817768;-1;1;0;-3401;2012;-1024;16;0.2479224;-0.7056512;-0.1149584;0.6537396;0;3;1;-2095;800;3422;2;0.5554016;-0.6929833;-0.3739612;0.267313;0;2;1;3317;2308;-447;8;0.01108033;-0.7048691;0.132964;0.6966759;2;1;0;737;817;3969;0.6875296;1.656858;1.468333;0.6873093;1.636759;0.9231567;0.6870934;1.617071;0.4440215;0.6911141;1.724364;-0.2818807;0.4329749;1.74404;-0.6100954;0.09347992;1.798739;-0.4621417;-0.03122069;0.9347658;-0.151773;0;0;0;0.9529538;1.724554;-0.6100987;1.243242;1.755653;-0.4621469;1.516487;0.867429;-0.2078398;1.565824;-0.05631733;-0.002788782;0.3757088;1.654306;1.514087;0.6990122;0.919389;2.737293;0.8458888;0.6506989;4.048232;0.3757088;1.654306;1.514087;0.6990122;0.919389;2.737293;0.8458888;0.6506989;4.048232
198321.1252;NotLabelled;16384;-0.1163435;0.3739612;-0.6717266;-0.6288089;-1;-2;-2;-1702;3710;-89;65536;0.1786704;-0.2853186;0.6426592;0.6882291;-2;3;-1;562;4101;409;8192;0.6327473;-0.5803324;0.199446;0.4722992;0;5;1;1494;3609;-481;32768;0.4972299;-0.5853108;0.3822715;0.5138504;0;0;2;-163;3953;868;256;0.6551247;-0.06232687;-0.7517982;-0.04155125;-1;0;0;175;596;3819;128;-0.5914127;0.04847645;0.798535;0.101108;4;3;0;203;941;-3916;4;0.2977839;0.3933518;-0.5401662;-0.6817768;0;0;0;-3347;2074;-938;16;0.2493075;-0.7049358;-0.1163435;0.6537396;0;3;1;-1943;796;3430;2;0.5554016;-0.692234;-0.3753462;0.267313;0;3;1;3343;2288;-347;8;0.01246537;-0.704846;0.132964;0.6966759;1;2;0;669;763;3951;0.6919447;1.655867;1.466007;0.6917247;1.635808;0.9208281;0.6915092;1.616154;0.4416915;0.6956738;1.721976;-0.2844259;0.4375474;1.741462;-0.612662;0.09816341;1.797078;-0.4647959;-0.0312206;0.9347765;-0.1517059;0;0;0;0.9574898;1.721025;-0.6126615;1.247845;1.751892;-0.4647925;1.519486;0.8636861;-0.2087132;1.568823;-0.06007493;-0.003727794;0.3801238;1.653313;1.51176;0.7034265;0.9183087;2.734913;0.8521531;0.6498113;4.045683;0.3801238;1.653313;1.51176;0.7034265;0.9183087;2.734913;0.8521531;0.6498113;4.045683
198341.2298;NotLabelled;16384;-0.1163435;0.3739612;-0.6717266;-0.6288089;0;-1;-2;-1462;3924;-375;65536;0.1786704;-0.2853186;0.6412742;0.6895198;-1;1;0;406;4015;537;8192;0.6327473;-0.5803324;0.199446;0.4722992;0;0;0;1380;3825;-629;32768;0.4972299;-0.5844039;0.3836565;0.5138504;0;0;2;-287;4039;812;256;0.6551247;-0.06094183;-0.7519118;-0.04155125;-5;0;1;93;662;3985;128;-0.5914127;0.04709141;0.7986179;0.101108;5;-2;0;193;973;-3948;4;0.2977839;0.3933518;-0.5401662;-0.6817768;0;0;-1;-3403;2206;-916;16;0.2493075;-0.7062178;-0.1163435;0.6523545;0;0;0;-1901;888;3410;2;0.5554016;-0.692234;-0.3753462;0.267313;0;1;1;3091;2238;-403;8;0.01246537;-0.7051059;0.1315789;0.6966759;0;2;0;739;921;3767;0.6872003;1.661122;1.46718;0.6869701;1.640168;0.9220348;0.6867456;1.619727;0.4429309;0.6906337;1.724172;-0.2833877;0.4324417;1.742498;-0.6116389;0.09295487;1.797693;-0.4638508;-0.03476881;0.9345272;-0.152466;0;0;0;0.9524253;1.723139;-0.6116422;1.242728;1.754887;-0.4638565;1.51606;0.8666646;-0.2096432;1.565174;-0.05757618;-0.006777287;0.3753802;1.658642;1.512943;0.6991047;0.9237258;2.736037;0.843406;0.6540277;4.047056;0.3753802;1.658642;1.512943;0.6991047;0.9237258;2.736037;0.843406;0.6540277;4.047056
198362.0049;NotLabelled;16384;-0.1163435;0.3739612;-0.6717266;-0.6288089;0;0;0;-1210;3736;-409;65536;0.1800554;-0.2853186;0.6412742;0.6891595;0;0;1;368;4037;377;8192;0.6331822;-0.5803324;0.1980609;0.4722992;-1;0;1;1346;3817;-431;32768;0.4958449;-0.5855795;0.3836565;0.5138504;-1;-2;0;-27;4097;806;256;0.6551247;-0.06094183;-0.7519118;-0.04155125;0;-1;0;213;520;4111;128;-0.5914127;0.04709141;0.7986179;0.101108;0;3;0;107;899;-4130;4;0.2977839;0.3933518;-0.5401662;-0.6817768;0;0;0;-3439;2096;-898;16;0.2493075;-0.7064446;-0.1149584;0.6523545;0;-1;0;-1957;794;3356;2;0.5554016;-0.6927673;-0.3753462;0.265928;1;-4;0;3161;2350;-405;8;0.01246537;-0.704846;0.132964;0.6966759;-1;0;0;651;899;3891;0.6874523;1.661434;1.46904;0.6872222;1.640479;0.9238954;0.6869976;1.620038;0.4447916;0.6908857;1.724484;-0.2815272;0.4326937;1.742809;-0.6097784;0.09320688;1.798005;-0.4619902;-0.03451679;0.9348388;-0.1506055;0;0;0;0.9526774;1.72345;-0.6097816;1.24298;1.755199;-0.461996;1.517559;0.8677528;-0.2064179;1.564378;-0.05605853;-0.001070023;0.3756322;1.658954;1.514803;0.6993566;0.9240375;2.737898;0.8435866;0.6517544;4.048389;0.3756322;1.658954;1.514803;0.6993566;0.9240375;2.737898;0.8435866;0.6517544;4.048389
198383.0354;NotLabelled;16384;-0.1163435;0.3739612;-0.6717266;-0.6288089;0;4;2;-1470;3838;-365;65536;0.1786704;-0.2853186;0.6412742;0.6895198;0;-4;1;542;4093;437;8192;0.6327473;-0.5803324;0.199446;0.4722992;0;-1;0;1396;3983;-549;32768;0.4958449;-0.5855795;0.3836565;0.5138504;-1;-1;-1;-205;4095;946;256;0.6551247;-0.06094183;-0.7519118;-0.04155125;0;-1;0;243;618;4015;128;-0.5914127;0.04709141;0.7986179;0.101108;2;0;0;197;949;-4096;4;0.2963989;0.3933518;-0.5401662;-0.6823801;-1;0;0;-3357;2018;-994;16;0.2493075;-0.7064446;-0.1149584;0.6523545;0;-1;0;-2009;856;3342;2;0.5554016;-0.6927673;-0.3753462;0.265928;0;-3;0;3327;2338;-389;8;0.01246537;-0.704846;0.132964;0.6966759;-1;0;0;585;847;3865;0.6872004;1.661123;1.467179;0.6869702;1.640168;0.9220344;0.6867458;1.619727;0.4429307;0.6906339;1.724173;-0.283388;0.4324418;1.742498;-0.6116392;0.09295502;1.797694;-0.463851;-0.03476864;0.9345276;-0.1524663;0;0;0;0.9524255;1.723139;-0.6116424;1.242728;1.754888;-0.4638568;1.51606;0.8666654;-0.209643;1.56288;-0.05714631;-0.00429523;0.3753804;1.658642;1.512943;0.6989039;0.9211781;2.734556;0.8431335;0.6488955;4.045047;0.3753804;1.658642;1.512943;0.6989039;0.9211781;2.734556;0.8431335;0.6488955;4.045047
198404.1659;NotLabelled;16384;-0.1163435;0.3739612;-0.6717266;-0.6288089;1;-2;0;-1708;3898;-259;65536;0.1786704;-0.2853186;0.6412742;0.6895198;0;-1;0;616;3995;539;8192;0.6329428;-0.5817174;0.1980609;0.4709141;1;0;0;1604;3541;-579;32768;0.4972299;-0.5844039;0.3836565;0.5138504;-1;-1;0;-341;3783;744;256;0.6551247;-0.06094183;-0.7519118;-0.04155125;-1;-1;0;-39;670;3807;128;-0.5914127;0.04709141;0.7987921;0.09972299;5;-2;0;227;1027;-3920;4;0.2963989;0.3933518;-0.5401662;-0.6823801;-1;-2;1;-3507;1976;-890;16;0.2493075;-0.7051631;-0.1149584;0.6537396;-1;-1;0;-2023;774;3440;2;0.5540166;-0.6938754;-0.3753462;0.265928;0;-2;-1;3367;2234;-467;8;0.01246537;-0.7051059;0.1315789;0.6966759;-2;0;0;653;797;3945;0.6872258;1.663425;1.467083;0.6869822;1.641245;0.9219868;0.6867459;1.619727;0.4429302;0.690634;1.724173;-0.2833883;0.4324419;1.742498;-0.6116397;0.0929552;1.797694;-0.4638518;-0.03476849;0.9345281;-0.1524666;0;0;0;0.9524257;1.723139;-0.6116429;1.242728;1.754888;-0.4638571;1.514199;0.8665481;-0.2080631;1.563312;-0.05769229;-0.005196571;0.3754069;1.661048;1.512859;0.6989303;0.9235842;2.734473;0.8480377;0.65259;4.044685;0.3754069;1.661048;1.512859;0.6989303;0.9235842;2.734473;0.8480377;0.65259;4.044685
198424.1666;NotLabelled;16384;-0.1149584;0.3725762;-0.672734;-0.6288089;0;2;0;-1356;3758;-141;65536;0.1786704;-0.2867036;0.6412742;0.6889451;-1;2;0;474;4101;377;8192;0.6331822;-0.5803324;0.1980609;0.4722992;-2;-4;0;1616;3803;-321;32768;0.4958449;-0.5855795;0.3836565;0.5138504;-2;-6;1;-215;4163;882;256;0.6551247;-0.06094183;-0.7519118;-0.04155125;-5;0;0;85;648;4135;128;-0.5914127;0.04709141;0.7987921;0.09972299;1;1;-1;85;923;-4094;4;0.2977839;0.3933518;-0.5401662;-0.6817768;0;-4;0;-3499;1996;-982;16;0.2479224;-0.7056512;-0.1149584;0.6537396;-1;-1;-1;-2015;726;3528;2;0.5540166;-0.6938754;-0.3753462;0.265928;2;-2;0;3305;2316;-403;8;0.01246537;-0.7051059;0.1315789;0.6966759;-1;-1;0;651;969;3959;0.6891127;1.663115;1.465422;0.6888691;1.640935;0.9203264;0.6886326;1.619417;0.4412697;0.6925209;1.723862;-0.2850487;0.4343287;1.742187;-0.6133001;0.09484202;1.797384;-0.4655122;-0.0334819;0.9342979;-0.154152;0;0;0;0.9543125;1.722828;-0.6133034;1.244615;1.754578;-0.4655174;1.519194;0.8671316;-0.2099398;1.566014;-0.05668008;-0.004591584;0.3772937;1.660738;1.511199;0.7010181;0.9258217;2.734293;0.8483458;0.6571316;4.045182;0.3772937;1.660738;1.511199;0.7010181;0.9258217;2.734293;0.8483458;0.6571316;4.045182
198445.1375;NotLabelled;16384;-0.1163435;0.3725762;-0.6724958;-0.6288089;0;0;-1;-1422;4006;-223;65536;0.1786704;-0.2867036;0.6412742;0.6889451;-1;0;0;654;3913;465;8192;0.634213;-0.5803324;0.1980609;0.4709141;-2;5;1;1664;3945;-453;32768;0.4958449;-0.5855795;0.3836565;0.5138504;0;0;0;-147;4085;1016;256;0.6551247;-0.06094183;-0.751987;-0.0401662;0;0;0;343;516;4025;128;-0.5927978;0.04709141;0.7977647;0.09972299;-1;1;0;77;801;-3984;4;0.2977839;0.3919668;-0.5415512;-0.6814756;1;0;0;-3373;2102;-992;16;0.2479224;-0.7043655;-0.1149584;0.6551247;-1;0;0;-2161;720;3480;2;0.5540166;-0.6938754;-0.3753462;0.265928;0;-2;0;3411;2470;-333;8;0.01108033;-0.705129;0.1315789;0.6966759;-1;0;0;669;727;4037;0.688496;1.664679;1.467481;0.6882519;1.642459;0.922387;0.688015;1.620906;0.4433318;0.692035;1.723827;-0.2832035;0.4338502;1.741938;-0.6114724;0.09447666;1.798062;-0.463774;-0.03348323;0.9342978;-0.1541515;0;0;0;0.9537977;1.72163;-0.611475;1.244169;1.753158;-0.4637785;1.518482;0.8650768;-0.2101259;1.565303;-0.05873489;-0.004778266;0.3766771;1.662305;1.513259;0.6989663;0.9238951;2.734627;0.8511914;0.656492;4.045219;0.3766771;1.662305;1.513259;0.6989663;0.9238951;2.734627;0.8511914;0.656492;4.045219
198466.1319;NotLabelled;16384;-0.1163435;0.3739612;-0.6717266;-0.6288089;1;0;0;-1538;3570;-429;65536;0.1786704;-0.2867036;0.6412742;0.6889451;0;0;0;442;4101;483;8192;0.6346439;-0.5803324;0.1966759;0.4709141;0;5;2;1328;3639;-713;32768;0.4958449;-0.5855795;0.3836565;0.5138504;0;2;0;-233;3851;832;256;0.6551247;-0.06094183;-0.751987;-0.0401662;1;0;0;195;584;3839;128;-0.5927978;0.04709141;0.7977647;0.09972299;3;4;0;103;953;-3984;4;0.2977839;0.3919668;-0.5415512;-0.6814756;0;2;0;-3413;2022;-964;16;0.2479224;-0.7054241;-0.1163435;0.6537396;0;1;0;-2067;840;3474;2;0.5540166;-0.6946229;-0.3739612;0.265928;0;-1;0;3389;2262;-503;8;0.01108033;-0.705129;0.1315789;0.6966759;-1;-4;0;685;885;3911;0.6882567;1.664081;1.465717;0.6880125;1.641861;0.9206228;0.6877757;1.620309;0.4415676;0.6917956;1.72323;-0.2849677;0.4336109;1.74134;-0.6132365;0.09423734;1.797464;-0.4655382;-0.03348355;0.9342985;-0.1541517;0;0;0;0.9535583;1.721032;-0.6132392;1.24393;1.75256;-0.4655427;1.519483;0.8652561;-0.2105193;1.566305;-0.05855536;-0.005171418;0.3764378;1.661707;1.511494;0.698727;0.9232972;2.732862;0.8461368;0.6571965;4.04427;0.3764378;1.661707;1.511494;0.698727;0.9232972;2.732862;0.8461368;0.6571965;4.04427
198486.1313;NotLabelled;16384;-0.1149584;0.3739612;-0.671965;-0.6288089;0;-1;-1;-1402;3798;-123;65536;0.1800554;-0.2867036;0.6412742;0.6885844;-2;4;0;504;4169;375;8192;0.6346439;-0.5803324;0.1966759;0.4709141;-2;2;0;1432;3793;-631;32768;0.4958449;-0.5855795;0.3836565;0.5138504;-2;-1;1;-511;3999;836;256;0.6551247;-0.05955679;-0.752098;-0.0401662;-1;0;0;169;452;4255;128;-0.5914127;0.04570637;0.7988725;0.09972299;-2;-1;0;215;809;-4074;4;0.2977839;0.3933518;-0.5401662;-0.6817768;0;-1;0;-3425;2116;-966;16;0.2479224;-0.704138;-0.1163435;0.6551247;0;-1;0;-2093;786;3402;2;0.5540166;-0.6938754;-0.3753462;0.265928;-1;2;1;3401;2352;-471;8;0.009695291;-0.7051494;0.1315789;0.6966759;-1;0;0;683;813;4001;0.6890721;1.668703;1.467303;0.6888191;1.645628;0.9222438;0.6885745;1.623324;0.4432233;0.6923023;1.72492;-0.2835001;0.4340451;1.741894;-0.6117724;0.0945721;1.797586;-0.4641391;-0.03328696;0.934612;-0.1522775;0;0;0;0.9540335;1.722663;-0.6117966;1.244355;1.755063;-0.4641911;1.520091;0.8673604;-0.2107576;1.566988;-0.0564512;-0.005426884;0.377254;1.666401;1.513089;0.7014383;0.9314847;2.736061;0.8542149;0.6666765;4.047116;0.377254;1.666401;1.513089;0.7014383;0.9314847;2.736061;0.8542149;0.6666765;4.047116
198507.0463;NotLabelled;16384;-0.1149584;0.3739612;-0.671965;-0.6288089;0;0;1;-1346;3700;-421;65536;0.1786704;-0.2880886;0.6398892;0.6896548;-1;-1;1;534;4043;473;8192;0.6346439;-0.5803324;0.1966759;0.4709141;-3;2;2;1550;3693;-511;32768;0.4944598;-0.5867495;0.3836565;0.5138504;-1;0;1;-111;4111;940;256;0.6551247;-0.05955679;-0.752098;-0.0401662;0;1;0;107;556;4025;128;-0.5927978;0.04570637;0.7978453;0.09972299;0;-1;0;201;869;-4300;4;0.2977839;0.3933518;-0.5401662;-0.6817768;1;1;0;-3483;2136;-1064;16;0.2479224;-0.7054241;-0.1163435;0.6537396;-1;3;0;-2075;854;3434;2;0.5540166;-0.6938754;-0.3753462;0.265928;0;-1;1;3349;2346;-439;8;0.01108033;-0.705129;0.1315789;0.6966759;0;3;0;635;889;3915;0.6867163;1.667498;1.461766;0.6864626;1.644381;0.9167092;0.6862174;1.62204;0.4376904;0.6899747;1.723637;-0.2890326;0.4317307;1.74061;-0.6173157;0.09225173;1.796302;-0.4696961;-0.03572962;0.9338186;-0.1565313;0;0;0;0.9517191;1.721379;-0.617319;1.242035;1.75378;-0.4697013;1.517671;0.8664756;-0.2147677;1.562273;-0.05689549;-0.006958008;0.3748983;1.665199;1.507553;0.6990329;0.9302824;2.730538;0.8468708;0.6641819;4.041898;0.3748983;1.665199;1.507553;0.6990329;0.9302824;2.730538;0.8468708;0.6641819;4.041898
198548.1536;NotLabelled;16384;-0.1163435;0.3739612;-0.6717266;-0.6288089;1;4;0;-1632;3782;-331;65536;0.1800554;-0.2880886;0.6398892;0.6892945;-1;4;0;580;4121;453;8192;0.6346439;-0.5803324;0.1966759;0.4709141;0;0;3;1674;3859;-557;32768;0.4944598;-0.5867495;0.3836565;0.5138504;0;-4;0;-247;3907;884;256;0.6551247;-0.05955679;-0.7521706;-0.03878116;-5;0;0;135;648;3959;128;-0.5927978;0.04570637;0.7978453;0.09972299;1;5;1;187;991;-4006;4;0.2977839;0.3933518;-0.5401662;-0.6817768;0;0;0;-3453;2030;-1008;16;0.2479224;-0.704138;-0.1163435;0.6551247;0;-1;0;-2001;796;3514;2;0.5540166;-0.693343;-0.3753462;0.267313;0;0;0;3367;2252;-313;8;0.01108033;-0.705129;0.1315789;0.6966759;0;2;0;673;773;3955;0.686358;1.669311;1.465677;0.6861041;1.646194;0.9206197;0.6858587;1.623854;0.441601;0.6897421;1.723925;-0.2853332;0.4315026;1.740685;-0.6136305;0.0921379;1.797304;-0.4661012;-0.03547819;0.9341382;-0.1546716;0;0;0;0.951455;1.720505;-0.6136341;1.241841;1.752683;-0.4661068;1.517481;0.8653792;-0.211176;1.562084;-0.05799139;-0.003366947;0.37454;1.667012;1.511463;0.698687;0.9320959;2.734446;0.851423;0.6672877;4.045505;0.37454;1.667012;1.511463;0.698687;0.9320959;2.734446;0.851423;0.6672877;4.045505
198570.0253;NotLabelled;16384;-0.1163435;0.3753462;-0.6709536;-0.6288089;0;2;-1;-1652;3826;-217;65536;0.1800554;-0.2880886;0.6398892;0.6892945;-1;0;-2;562;3933;435;8192;0.6336138;-0.5803324;0.1966759;0.4722992;0;-2;3;1466;3711;-611;32768;0.4944598;-0.5867495;0.3836565;0.5138504;0;-1;0;-225;4131;900;256;0.6551247;-0.05955679;-0.7521706;-0.03878116;-5;0;0;145;652;4019;128;-0.5927978;0.04432133;0.7979234;0.09972299;3;0;0;195;927;-4040;4;0.2977839;0.3933518;-0.5401662;-0.6817768;0;0;0;-3539;2188;-928;16;0.2479224;-0.704138;-0.1163435;0.6551247;0;-1;0;-2021;838;3506;2;0.5540166;-0.693343;-0.3753462;0.267313;-1;0;0;3413;2378;-417;8;0.01108033;-0.705129;0.1315789;0.6966759;0;0;0;745;899;3927;0.6861376;1.670391;1.463837;0.6858739;1.646379;0.9188182;0.6856197;1.623251;0.4398367;0.6895032;1.723323;-0.2870973;0.4312637;1.740082;-0.6153949;0.09189905;1.796701;-0.4678653;-0.03547825;0.9341388;-0.1546718;0;0;0;0.951216;1.719901;-0.6153985;1.241603;1.75208;-0.4678712;1.517511;0.8654139;-0.2110198;1.562114;-0.05795705;-0.003211379;0.3743205;1.668168;1.509632;0.6984673;0.9332516;2.732615;0.8512037;0.6684439;4.043674;0.3743205;1.668168;1.509632;0.6984673;0.9332516;2.732615;0.8512037;0.6684439;4.043674
198591.0364;NotLabelled;16384;-0.1149584;0.3753462;-0.6724873;-0.6274238;-1;-4;-2;-1660;3712;-317;65536;0.1800554;-0.2880886;0.6398892;0.6892945;0;0;-2;536;4019;529;8192;0.6336138;-0.5803324;0.1966759;0.4722992;2;-2;0;1540;3827;-517;32768;0.4944598;-0.5867495;0.3836565;0.5138504;0;1;0;-347;3851;936;256;0.6551247;-0.05817174;-0.752279;-0.03878116;-3;-1;0;103;482;3991;128;-0.5927978;0.04432133;0.7979234;0.09972299;1;0;0;201;883;-3962;4;0.2977839;0.3933518;-0.5401662;-0.6817768;0;0;0;-3609;2228;-1012;16;0.2479224;-0.704138;-0.1163435;0.6551247;0;1;0;-2051;830;3504;2;0.5540166;-0.693343;-0.3753462;0.267313;0;-2;0;3331;2338;-447;8;0.009695291;-0.7051494;0.1315789;0.6966759;0;-5;0;735;813;3911;0.6901314;1.672386;1.463139;0.6898676;1.648373;0.9181206;0.6896135;1.625245;0.4391389;0.6932406;1.723992;-0.2879775;0.434945;1.739614;-0.6162875;0.09547357;1.7958;-0.4688374;-0.03552756;0.9341383;-0.1546604;0;0;0;0.9549381;1.720511;-0.6162902;1.245267;1.753562;-0.4688433;1.521257;0.8668962;-0.2120798;1.565926;-0.05647528;-0.004285455;0.3783143;1.670163;1.508935;0.7028507;0.9352465;2.731814;0.8560048;0.6704376;4.042824;0.3783143;1.670163;1.508935;0.7028507;0.9352465;2.731814;0.8560048;0.6704376;4.042824
198612.1326;NotLabelled;16384;-0.1149584;0.3753462;-0.6711923;-0.6288089;2;-2;0;-1354;3782;-371;65536;0.1800554;-0.2880886;0.6398892;0.6892945;0;-1;0;392;4111;447;8192;0.634042;-0.5803324;0.1952908;0.4722992;0;2;2;1362;3869;-505;32768;0.4944598;-0.5867495;0.3836565;0.5138504;0;-3;0;-305;4041;876;256;0.6551247;-0.05817174;-0.7523491;-0.03739612;-5;-1;-1;185;588;3959;128;-0.5927978;0.04432133;0.7979234;0.09972299;2;-2;0;167;917;-4036;4;0.2977839;0.3933518;-0.5401662;-0.6817768;-1;-2;0;-3579;2042;-976;16;0.2479224;-0.704138;-0.1163435;0.6551247;0;-2;0;-2001;790;3520;2;0.5540166;-0.6938754;-0.3753462;0.265928;0;0;0;3305;2318;-373;8;0.009695291;-0.7051494;0.1315789;0.6966759;0;-2;0;721;859;3911;0.6865265;1.673414;1.462654;0.6862626;1.649401;0.9176354;0.6860085;1.626274;0.4386539;0.6897569;1.723494;-0.2886679;0.4314637;1.738902;-0.6169896;0.09210712;1.796015;-0.4696312;-0.03552904;0.9341385;-0.1546602;0;0;0;0.9514212;1.718851;-0.6169925;1.241822;1.75168;-0.4696373;1.519049;0.8657975;-0.2115035;1.563721;-0.0575732;-0.003709435;0.3747093;1.671191;1.50845;0.6992573;0.9362741;2.731326;0.852424;0.6714654;4.042335;0.3747093;1.671191;1.50845;0.6992573;0.9362741;2.731326;0.852424;0.6714654;4.042335
198632.127;NotLabelled;16384;-0.1149584;0.3753462;-0.6711923;-0.6288089;2;0;0;-1240;3908;-295;65536;0.1800554;-0.2880886;0.6398892;0.6892945;-2;1;0;366;3969;293;8192;0.634042;-0.5803324;0.1952908;0.4722992;0;-5;3;1390;3825;-433;32768;0.4944598;-0.5855336;0.3836565;0.5152354;-1;-5;0;-167;4037;880;256;0.6551247;-0.05817174;-0.7523491;-0.03739612;-5;0;-1;167;582;3979;128;-0.5927978;0.04432133;0.7979234;0.09972299;0;-1;1;157;901;-3994;4;0.2977839;0.3933518;-0.5415512;-0.6806772;-1;-4;0;-3457;2052;-1010;16;0.2479224;-0.704138;-0.1163435;0.6551247;0;-4;0;-2003;768;3540;2;0.5540166;-0.6938754;-0.3753462;0.265928;0;-1;0;3325;2334;-401;8;0.009695291;-0.7051494;0.1315789;0.6966759;0;-1;0;735;759;3979;0.6865263;1.673414;1.462654;0.6862624;1.649401;0.9176354;0.6860084;1.626274;0.4386539;0.6897568;1.723494;-0.2886678;0.4314635;1.738902;-0.6169896;0.09210694;1.796015;-0.4696312;-0.03552921;0.9341385;-0.1546602;0;0;0;0.951421;1.718852;-0.6169925;1.241822;1.75168;-0.4696373;1.519048;0.8657978;-0.2115035;1.566444;-0.05744052;-0.003724217;0.3747092;1.671191;1.50845;0.694905;0.9352534;2.731859;0.8480719;0.6704452;4.042869;0.3747092;1.671191;1.50845;0.694905;0.9352534;2.731859;0.8480719;0.6704452;4.042869
198653.1802;NotLabelled;16384;-0.1149584;0.3753462;-0.6711923;-0.6288089;0;1;-1;-1560;3920;-319;65536;0.1800554;-0.2880886;0.6398892;0.6892945;-1;2;0;544;3905;477;8192;0.6338469;-0.5789474;0.1966759;0.4736842;0;-5;2;1632;3759;-561;32768;0.4930748;-0.5867004;0.3836565;0.5152354;0;0;2;-409;3959;994;256;0.6551247;-0.05817174;-0.7524167;-0.03601108;-2;-1;0;151;522;4015;128;-0.5927978;0.04432133;0.7980953;0.09833795;3;1;0;181;933;-3958;4;0.299169;0.3933518;-0.5415512;-0.6800695;0;-5;0;-3375;1992;-980;16;0.2465374;-0.7048514;-0.1149584;0.6551247;0;-2;0;-2057;770;3434;2;0.5526316;-0.6949791;-0.3753462;0.265928;0;-2;0;3333;2320;-325;8;0.009695291;-0.7051494;0.1315789;0.6966759;0;0;0;683;721;4003;0.6863331;1.676526;1.462858;0.686056;1.65129;0.9178951;0.6857903;1.627087;0.438967;0.6896552;1.722782;-0.2885562;0.4313631;1.737975;-0.6168885;0.09212363;1.796015;-0.4696231;-0.03553057;0.9341385;-0.1546599;0;0;0;0.951283;1.716977;-0.6168915;1.241755;1.749583;-0.469628;1.520833;0.8638232;-0.2130729;1.565953;-0.0589689;-0.002818227;0.3745171;1.674406;1.508667;0.6949259;0.9410262;2.733555;0.8462647;0.6759269;4.044717;0.3745171;1.674406;1.508667;0.6949259;0.9410262;2.733555;0.8462647;0.6759269;4.044717
198674.0499;NotLabelled;16384;-0.1149584;0.3753462;-0.6724873;-0.6274238;0;0;-2;-1490;3538;-365;65536;0.1814404;-0.2894737;0.6385041;0.6896353;0;2;0;624;4061;475;8192;0.6328095;-0.5789474;0.1966759;0.4750692;0;0;2;1732;3583;-617;32768;0.4930748;-0.5867004;0.3836565;0.5152354;0;0;3;-279;3949;906;256;0.6551247;-0.05817174;-0.7524167;-0.03601108;0;-1;0;105;640;3831;128;-0.5927978;0.04432133;0.7980953;0.09833795;3;0;0;187;939;-3932;4;0.299169;0.3919668;-0.5415512;-0.6808687;0;-4;0;-3391;2040;-904;16;0.2465374;-0.7035616;-0.1149584;0.6565097;0;0;0;-2079;736;3440;2;0.5526316;-0.6951943;-0.3739612;0.267313;0;-4;0;3351;2208;-483;8;0.009695291;-0.7051494;0.1315789;0.6966759;0;1;0;681;797;3995;0.6877444;1.676147;1.463104;0.6874673;1.65091;0.9181409;0.6872017;1.626707;0.4392127;0.6910666;1.722402;-0.2883103;0.4327744;1.737596;-0.6166426;0.09353498;1.795635;-0.4693773;-0.03745964;0.933974;-0.1551975;0;0;0;0.9526945;1.716597;-0.6166458;1.243167;1.749203;-0.4693822;1.522532;0.8640866;-0.2109265;1.567651;-0.05870533;-0.0006712675;0.3759283;1.674027;1.508912;0.6992429;0.9381673;2.731548;0.8554752;0.6743534;4.042396;0.3759283;1.674027;1.508912;0.6992429;0.9381673;2.731548;0.8554752;0.6743534;4.042396
198694.1232;NotLabelled;16384;-0.1149584;0.3767313;-0.6717123;-0.6274238;2;2;-2;-1550;3866;-469;65536;0.1814404;-0.2894737;0.6385041;0.6896353;0;-1;-1;494;4071;551;8192;0.6332383;-0.5789474;0.1952908;0.4750692;0;1;3;1654;3641;-607;32768;0.4930748;-0.5870077;0.3850415;0.5138504;1;0;3;-283;4091;950;256;0.6551247;-0.0567867;-0.7525225;-0.03601108;-2;0;0;109;410;3935;128;-0.5927978;0.04432133;0.7980953;0.09833795;0;-3;0;113;777;-3910;4;0.299169;0.3919668;-0.5415512;-0.6808687;0;-2;0;-3365;2044;-924;16;0.2465374;-0.7035616;-0.1149584;0.6565097;0;0;0;-2021;784;3472;2;0.5526316;-0.6944475;-0.3753462;0.267313;0;1;1;3293;2306;-399;8;0.009695291;-0.7051494;0.1315789;0.6966759;0;-1;0;657;713;3949;0.6877721;1.678437;1.46158;0.6874952;1.6532;0.9166169;0.6872295;1.628997;0.4376886;0.6908455;1.723366;-0.2900088;0.4324996;1.737422;-0.6183496;0.09315079;1.795028;-0.4711659;-0.03750784;0.9339739;-0.1551864;0;0;0;0.952462;1.717501;-0.6183521;1.242876;1.750979;-0.4711699;1.523555;0.8666552;-0.2114308;1.56572;-0.05676591;-0.00333631;0.375956;1.676316;1.507388;0.6996492;0.940457;2.729924;0.8562874;0.676643;4.040722;0.375956;1.676316;1.507388;0.6996492;0.940457;2.729924;0.8562874;0.676643;4.040722
198715.3899;NotLabelled;16384;-0.1149584;0.3767313;-0.6704159;-0.6288089;2;-2;-2;-1508;3800;-285;65536;0.1814404;-0.2880886;0.6385041;0.690215;-1;3;0;322;3871;237;8192;0.6338877;-0.5775623;0.1939058;0.4764543;0;0;3;1500;3739;-435;32768;0.4930748;-0.5870077;0.3850415;0.5138504;0;-2;4;-279;3951;752;256;0.6551247;-0.0567867;-0.7525225;-0.03601108;-1;-1;0;171;456;4017;128;-0.5927978;0.04432133;0.7982647;0.09695291;1;1;0;221;891;-4082;4;0.299169;0.3919668;-0.5415512;-0.6808687;0;0;-1;-3373;2016;-980;16;0.2465374;-0.7035616;-0.1149584;0.6565097;-1;0;0;-2037;668;3484;2;0.5526316;-0.6944475;-0.3753462;0.267313;0;-1;2;3191;2220;-441;8;0.009695291;-0.7051494;0.1315789;0.6966759;0;0;0;713;833;3925;0.6831541;1.681172;1.462364;0.6828638;1.654713;0.9174597;0.6825864;1.629434;0.438587;0.6862023;1.723803;-0.2891107;0.4278565;1.737859;-0.6174513;0.0885077;1.795465;-0.4702675;-0.03880812;0.9341993;-0.1535008;0;0;0;0.9478189;1.717938;-0.6174541;1.238233;1.751417;-0.4702717;1.523215;0.8688128;-0.2093683;1.565381;-0.05460882;-0.001273751;0.3713393;1.679155;1.508185;0.6950324;0.9432964;2.730721;0.8516706;0.679482;4.04152;0.3713393;1.679155;1.508185;0.6950324;0.9432964;2.730721;0.8516706;0.679482;4.04152
198736.0207;NotLabelled;16384;-0.1135734;0.3767313;-0.6719479;-0.6274238;-3;-1;-1;-1460;3778;-147;65536;0.1814404;-0.2894737;0.6385041;0.6896353;-2;5;-1;566;4229;535;8192;0.6334623;-0.5775623;0.1952908;0.4764543;-2;-5;4;1464;3841;-437;32768;0.4916897;-0.5872593;0.3864266;0.5138504;-1;-3;4;-227;4171;938;256;0.6551247;-0.0567867;-0.7525876;-0.03462604;-2;0;0;83;500;4131;128;-0.5927978;0.04432133;0.7982647;0.09695291;-2;-2;0;247;789;-3928;4;0.299169;0.3919668;-0.5415512;-0.6808687;0;-2;-1;-3319;2020;-968;16;0.2465374;-0.7035616;-0.1149584;0.6565097;-1;0;0;-1973;878;3382;2;0.5526316;-0.6939127;-0.3753462;0.2686981;0;-1;2;3173;2218;-443;8;0.009695291;-0.7051494;0.1315789;0.6966759;-1;-1;0;773;823;3875;0.6879189;1.680857;1.460025;0.6876287;1.654397;0.9151201;0.6873515;1.629119;0.4362476;0.6910776;1.721961;-0.2916458;0.4327298;1.735803;-0.6199945;0.09349915;1.794335;-0.4729034;-0.0375096;0.933974;-0.155185;0;0;0;0.952655;1.714933;-0.6199977;1.243143;1.74819;-0.4729092;1.526916;0.8647859;-0.2134017;1.566518;-0.05867839;-0.004992723;0.3761038;1.67884;1.505846;0.6998104;0.9429808;2.728378;0.8564636;0.6791666;4.039175;0.3761038;1.67884;1.505846;0.6998104;0.9429808;2.728378;0.8564636;0.6791666;4.039175
198778.1487;NotLabelled;16384;-0.1135734;0.3767313;-0.6719479;-0.6274238;0;-2;-4;-1542;3600;-539;65536;0.1814404;-0.2880886;0.6385041;0.690215;0;0;-3;584;3979;425;8192;0.6347225;-0.5761772;0.1952908;0.4764543;-1;0;4;1602;3905;-385;32768;0.4916897;-0.5872593;0.3864266;0.5138504;0;-3;3;-133;3969;916;256;0.6551247;-0.0567867;-0.7525225;-0.03601108;2;-1;0;103;500;3959;128;-0.5927978;0.04432133;0.7980953;0.09833795;0;-1;0;205;931;-3974;4;0.299169;0.3933518;-0.5415512;-0.6800695;0;0;-1;-3271;2002;-1038;16;0.2465374;-0.7035616;-0.1149584;0.6565097;-2;0;0;-1973;778;3400;2;0.5526316;-0.6939127;-0.3753462;0.2686981;1;-1;1;3291;2308;-229;8;0.008310249;-0.7051671;0.1315789;0.6966759;-2;0;0;715;755;3819;0.6868255;1.677969;1.461528;0.6865485;1.652733;0.916565;0.6862829;1.62853;0.4376366;0.6898989;1.722899;-0.2900608;0.4315529;1.736954;-0.6184015;0.09220421;1.79456;-0.4712178;-0.03880803;0.9341996;-0.1535008;0;0;0;0.9515155;1.717034;-0.6184042;1.24193;1.750512;-0.4712219;1.528516;0.8673894;-0.2138559;1.568116;-0.05607414;-0.005446196;0.3750094;1.675849;1.507336;0.6957977;0.9424689;2.732125;0.8524358;0.6786551;4.042924;0.3750094;1.675849;1.507336;0.6957977;0.9424689;2.732125;0.8524358;0.6786551;4.042924
198820.1711;NotLabelled;16384;-0.1121884;0.3781163;-0.6714024;-0.6274238;4;-2;-3;-1500;3676;-349;65536;0.1828255;-0.2880886;0.6385041;0.6898494;0;-1;-3;448;4089;467;8192;0.635147;-0.5761772;0.1939058;0.4764543;0;5;3;1542;3645;-689;32768;0.4916897;-0.5872593;0.3864266;0.5138504;0;0;3;-163;3947;864;256;0.6551247;-0.0567867;-0.7525225;-0.03601108;2;-1;0;133;564;3797;128;-0.5927978;0.04432133;0.7980953;0.09833795;1;0;0;217;911;-3980;4;0.299169;0.3933518;-0.5415512;-0.6800695;0;1;0;-3367;2038;-954;16;0.2465374;-0.7033339;-0.1163435;0.6565097;-2;-1;0;-2019;876;3418;2;0.5526316;-0.6939127;-0.3753462;0.2686981;0;-3;0;3327;2308;-347;8;0.008310249;-0.7065328;0.1315789;0.6952909;-2;0;1;735;875;3957;0.687187;1.676968;1.459892;0.6869101;1.651732;0.9149289;0.6866444;1.627529;0.4360006;0.6902604;1.721898;-0.2916968;0.4319144;1.735953;-0.6200377;0.09256576;1.793559;-0.4728539;-0.03855411;0.9345133;-0.1516432;0;0;0;0.9518769;1.716033;-0.6200402;1.242291;1.749511;-0.4728581;1.530105;0.8671913;-0.2141128;1.569705;-0.05627227;-0.005703092;0.3753709;1.674848;1.5057;0.6961592;0.941468;2.730489;0.8528675;0.680253;4.0418;0.3753709;1.674848;1.5057;0.6961592;0.941468;2.730489;0.8528675;0.680253;4.0418
198841.0074;NotLabelled;16384;-0.1121884;0.3781163;-0.6714024;-0.6274238;2;-4;-3;-1530;3904;-241;65536;0.1828255;-0.2867036;0.6385041;0.6904262;0;0;-2;392;4013;353;8192;0.6355681;-0.5761772;0.1925208;0.4764543;3;3;5;1422;3669;-665;32768;0.4916897;-0.5875565;0.3878116;0.5124654;0;-1;4;-331;4015;908;256;0.6551247;-0.05817174;-0.7524167;-0.03601108;1;0;-1;95;642;3859;128;-0.5927978;0.04432133;0.7980953;0.09833795;0;-1;0;145;891;-3856;4;0.299169;0.3933518;-0.5415512;-0.6800695;-1;1;0;-3505;2102;-908;16;0.2465374;-0.7033339;-0.1163435;0.6565097;-3;2;0;-2047;772;3546;2;0.5526316;-0.6946602;-0.3739612;0.2686981;0;-2;2;3259;2348;-559;8;0.008310249;-0.7065328;0.1315789;0.6952909;-2;1;1;681;769;3913;0.6856282;1.674288;1.461344;0.6853512;1.649052;0.9163812;0.6850856;1.624849;0.4374529;0.6889515;1.720544;-0.2900704;0.4306597;1.735737;-0.6184028;0.09142005;1.793777;-0.4711378;-0.03979986;0.934731;-0.1499676;0;0;0;0.9505795;1.714738;-0.6184055;1.241052;1.747345;-0.4711416;1.530006;0.8658304;-0.2109227;1.566529;-0.05824137;-0.004657388;0.3738121;1.672168;1.507152;0.6942195;0.9387882;2.732041;0.8505204;0.6775737;4.043402;0.3738121;1.672168;1.507152;0.6942195;0.9387882;2.732041;0.8505204;0.6775737;4.043402
198861.0049;NotLabelled;16384;-0.1108033;0.3767313;-0.6724102;-0.6274238;0;-8;-3;-1520;3884;-95;65536;0.1828255;-0.2867036;0.6385041;0.6904262;0;3;-3;482;3999;399;8192;0.634946;-0.5761772;0.1911357;0.4778393;1;0;7;1738;3793;-409;32768;0.4903047;-0.587798;0.3891967;0.5124654;0;-4;5;-247;4007;844;256;0.6551247;-0.05817174;-0.7523491;-0.03739612;5;0;0;11;572;3851;128;-0.5927978;0.04432133;0.7980953;0.09833795;0;0;0;279;959;-3804;4;0.299169;0.3933518;-0.5415512;-0.6800695;-1;-1;-2;-3403;2058;-942;16;0.2451524;-0.7035875;-0.1177285;0.6565097;-2;0;0;-1913;810;3576;2;0.5512465;-0.6950135;-0.3753462;0.2686981;0;0;2;3251;2228;-369;8;0.006925208;-0.7068042;0.1301939;0.6952909;-3;0;1;783;837;3995;0.6864456;1.673393;1.461057;0.6861684;1.648157;0.9160938;0.6859024;1.623954;0.4371654;0.6896509;1.721174;-0.2901563;0.4313576;1.736581;-0.6184776;0.09200104;1.793695;-0.4711194;-0.03979892;0.9347308;-0.1499679;0;0;0;0.951315;1.716531;-0.6184812;1.241716;1.749359;-0.4711257;1.532149;0.8693111;-0.2076151;1.566111;-0.05478811;-0.001035571;0.3746295;1.671273;1.506866;0.6950274;0.9378927;2.731757;0.8496264;0.6815813;4.044286;0.3746295;1.671273;1.506866;0.6950274;0.9378927;2.731757;0.8496264;0.6815813;4.044286
198882.0022;NotLabelled;16384;-0.1108033;0.3767313;-0.6724102;-0.6274238;0;-4;-4;-1432;3826;-201;65536;0.1842105;-0.2867036;0.6371191;0.6913369;-1;3;-5;562;4027;517;8192;0.6351575;-0.5747922;0.1911357;0.4792244;-1;0;6;1746;3853;-347;32768;0.4889196;-0.5889506;0.3891967;0.5124654;-3;-9;5;-439;3841;850;256;0.6551247;-0.05955679;-0.7521706;-0.03878116;9;0;0;123;674;3787;128;-0.5927978;0.04432133;0.7980953;0.09833795;0;0;0;119;937;-3764;4;0.300554;0.3933518;-0.5415512;-0.6794586;0;-1;-3;-3409;2044;-1014;16;0.2451524;-0.7035875;-0.1177285;0.6565097;-3;2;0;-1947;794;3598;2;0.5512465;-0.6950135;-0.3753462;0.2686981;0;-2;3;3259;2254;-483;8;0.006925208;-0.7068042;0.1301939;0.6952909;-3;-1;2;847;701;3983;0.6831961;1.669725;1.461645;0.6829188;1.644488;0.9166824;0.6826531;1.620285;0.4377539;0.6865363;1.720357;-0.2891802;0.4282969;1.737116;-0.6174777;0.08893228;1.793735;-0.469948;-0.04297308;0.9347711;-0.1488394;0;0;0;0.9482493;1.716936;-0.6174812;1.238636;1.749114;-0.4699537;1.532058;0.8700168;-0.2065811;1.563695;-0.05360723;0.002476811;0.3713801;1.667604;1.507454;0.6915766;0.9367869;2.733929;0.8457445;0.6804757;4.046508;0.3713801;1.667604;1.507454;0.6915766;0.9367869;2.733929;0.8457445;0.6804757;4.046508
198902.0086;NotLabelled;16384;-0.1080332;0.3767313;-0.6741497;-0.6260388;-4;-5;-4;-1432;3706;-217;65536;0.1855956;-0.2880886;0.6371191;0.6903901;-2;2;-2;522;4233;539;8192;0.6351575;-0.5747922;0.1911357;0.4792244;-3;0;4;1508;3653;-441;32768;0.4875346;-0.5879743;0.3905817;0.5138504;-2;-6;7;-167;4103;958;256;0.6551247;-0.05955679;-0.752098;-0.0401662;8;1;0;193;578;3957;128;-0.5927978;0.04432133;0.7980953;0.09833795;-1;2;0;107;829;-4140;4;0.300554;0.3933518;-0.5415512;-0.6794586;0;-3;-4;-3329;1996;-984;16;0.2451524;-0.7033544;-0.1191136;0.6565097;-5;1;-1;-2051;674;3474;2;0.5512465;-0.6944765;-0.3753462;0.2700831;2;-2;4;3177;2280;-407;8;0.005540166;-0.7068164;0.1301939;0.6952909;-4;-3;2;783;895;3949;0.6890018;1.667369;1.4588;0.6887248;1.642133;0.9138368;0.6884592;1.61793;0.4349084;0.6922165;1.719526;-0.2918147;0.4339725;1.7365;-0.6200976;0.09449355;1.792192;-0.4724779;-0.04142614;0.9348679;-0.1486712;0;0;0;0.9539609;1.717269;-0.6201009;1.244277;1.749669;-0.4724829;1.537697;0.8705709;-0.209108;1.569506;-0.0529753;0.0002659559;0.3771858;1.665249;1.504608;0.6973701;0.9344318;2.731086;0.8515923;0.6807227;4.044164;0.3771858;1.665249;1.504608;0.6973701;0.9344318;2.731086;0.8515923;0.6807227;4.044164
198943.9932;NotLabelled;16384;-0.1080332;0.3767313;-0.6741497;-0.6260388;-2;-7;-4;-1414;4048;-375;65536;0.1855956;-0.2880886;0.6357341;0.6916657;-2;2;0;466;3955;629;8192;0.6368225;-0.5734072;0.1897507;0.4792244;-2;-1;5;1712;3719;-621;32768;0.4861496;-0.5891199;0.3905817;0.5138504;-2;-4;7;-225;3881;1002;256;0.6551247;-0.05955679;-0.752098;-0.0401662;5;0;0;59;588;4003;128;-0.5927978;0.04432133;0.7980953;0.09833795;-4;0;0;189;775;-4038;4;0.300554;0.3947368;-0.5415512;-0.6786548;0;1;-3;-3241;2104;-968;16;0.2451524;-0.7044091;-0.1204986;0.6551247;-5;8;0;-2131;812;3298;2;0.5498615;-0.6955736;-0.3753462;0.2700831;2;0;4;3309;2372;-235;8;0.004155125;-0.706826;0.1301939;0.6952909;-7;-2;3;691;813;4017;0.6855319;1.667094;1.458076;0.6852548;1.641858;0.9131134;0.6849892;1.617654;0.434185;0.6887465;1.71925;-0.2925382;0.4305025;1.736224;-0.6208211;0.09102356;1.791916;-0.4732013;-0.04489607;0.9345922;-0.1493947;0;0;0;0.9504908;1.716993;-0.6208243;1.240807;1.749394;-0.4732064;1.538236;0.8714223;-0.2105709;1.567802;-0.05163646;0.001268744;0.3737158;1.664974;1.503885;0.6909807;0.9366479;2.732601;0.8403766;0.6842413;4.046488;0.3737158;1.664974;1.503885;0.6909807;0.9366479;2.732601;0.8403766;0.6842413;4.046488
198964.0114;NotLabelled;16384;-0.1066482;0.3753462;-0.675142;-0.6260388;-1;-4;-4;-1374;3642;-369;65536;0.1855956;-0.2880886;0.6357341;0.6916657;0;1;-3;400;4207;503;8192;0.6357778;-0.5734072;0.1897507;0.4806094;-3;3;5;1764;3753;-603;32768;0.4847645;-0.5905461;0.3919668;0.5124654;0;-7;6;27;4149;860;256;0.6551247;-0.06094183;-0.7519118;-0.04155125;5;1;0;89;608;4099;128;-0.5927978;0.04570637;0.7980171;0.09833795;-1;-1;-1;145;851;-4086;4;0.300554;0.3947368;-0.5415512;-0.6786548;0;5;-2;-3337;2058;-948;16;0.2451524;-0.7041707;-0.1218837;0.6551247;-5;10;0;-2051;878;3374;2;0.5498615;-0.6955736;-0.3753462;0.2700831;1;-5;2;3367;2350;-479;8;0.004155125;-0.708439;0.1288089;0.6939058;-8;4;4;539;797;3949;0.6860374;1.661618;1.457576;0.6857701;1.637278;0.9125721;0.685513;1.613862;0.4336045;0.689401;1.718307;-0.292714;0.431209;1.736632;-0.6209651;0.09172224;1.791827;-0.4731774;-0.04484575;0.9345922;-0.1494093;0;0;0;0.9511927;1.717273;-0.6209686;1.241495;1.749022;-0.4731829;1.539112;0.8717098;-0.2085661;1.563357;-0.05143309;0.003582835;0.3742205;1.659423;1.503376;0.6910733;0.9310966;2.732198;0.8400952;0.6812911;4.046625;0.3742205;1.659423;1.503376;0.6910733;0.9310966;2.732198;0.8400952;0.6812911;4.046625
199005.1306;NotLabelled;16384;-0.1052632;0.3767313;-0.6745878;-0.6260388;2;2;-7;-1724;3838;-367;65536;0.1869806;-0.2880886;0.6357341;0.6912925;0;4;-4;452;3981;483;8192;0.6351409;-0.5734072;0.1883656;0.4819945;5;3;3;1786;3637;-737;32768;0.4847645;-0.5908254;0.3933518;0.5110803;5;2;8;-221;4015;962;256;0.6551247;-0.06094183;-0.7518339;-0.04293629;8;1;0;185;638;3975;128;-0.5927978;0.04570637;0.7978453;0.09972299;-2;0;-1;155;941;-3944;4;0.300554;0.3947368;-0.5415512;-0.6786548;0;4;-1;-3445;2096;-902;16;0.2465374;-0.7034457;-0.1232687;0.6551247;-5;6;0;-2063;794;3462;2;0.5498615;-0.6950342;-0.3753462;0.2714681;3;-6;3;3415;2366;-551;8;0.004155125;-0.7086895;0.1274238;0.6939058;-6;8;4;623;865;3881;0.6866145;1.657479;1.455727;0.6863605;1.634362;0.9106699;0.6861152;1.612022;0.4316509;0.6898667;1.71799;-0.2944478;0.4316661;1.736529;-0.62268;0.09206817;1.790797;-0.4748036;-0.04459301;0.9348991;-0.1475543;0;0;0;0.9516841;1.71812;-0.6226831;1.241917;1.75009;-0.4748088;1.540984;0.8742747;-0.2068877;1.562222;-0.04943848;0.0030936;0.3747964;1.65518;1.501514;0.6916376;0.9268548;2.73034;0.8424764;0.6773469;4.044616;0.3747964;1.65518;1.501514;0.6916376;0.9268548;2.73034;0.8424764;0.6773469;4.044616
199025.25;NotLabelled;16384;-0.1052632;0.3781163;-0.6750966;-0.6246537;0;-2;-11;-1704;3726;-133;65536;0.1883656;-0.2880886;0.634349;0.6921883;-2;10;-6;546;3993;331;8192;0.63555;-0.5734072;0.1869806;0.4819945;6;4;9;1680;3569;-295;32768;0.4847645;-0.5910981;0.3947368;0.5096953;3;-4;13;-269;4003;856;256;0.6537396;-0.06371191;-0.7525608;-0.04709141;18;0;1;103;844;3569;128;-0.5914127;0.04570637;0.7988725;0.09972299;2;2;-1;111;1095;-3734;4;0.299169;0.3961219;-0.5401662;-0.679563;0;4;-1;-3547;2008;-962;16;0.2465374;-0.7032016;-0.1246537;0.6551247;-4;5;0;-2079;734;3504;2;0.5484765;-0.6953791;-0.3767313;0.2714681;-1;6;3;3469;2262;-469;8;0.004155125;-0.7091819;0.1246537;0.6939058;-5;3;2;709;747;4011;0.6849885;1.648231;1.45402;0.6847352;1.625156;0.9089612;0.6844904;1.602853;0.4299405;0.6883749;1.71599;-0.295075;0.4302656;1.737498;-0.6231983;0.09056059;1.789943;-0.4749112;-0.04823764;0.9349173;-0.1462855;0;0;0;0.950303;1.719637;-0.623202;1.240452;1.750451;-0.4749184;1.541506;0.8754724;-0.206491;1.560361;-0.0487963;0.001258731;0.3731705;1.64593;1.499806;0.6948706;0.9185318;2.727918;0.8496673;0.6716295;4.042227;0.3731705;1.64593;1.499806;0.6948706;0.9185318;2.727918;0.8496673;0.6716295;4.042227
199045.9956;NotLabelled;16384;-0.09972299;0.3795014;-0.6777129;-0.6218836;-4;-5;-19;-1626;3642;207;65536;0.1939058;-0.2894737;0.6315789;0.6926136;-7;25;-7;20;3789;377;8192;0.6365544;-0.5720221;0.1842105;0.4833795;4;-6;17;1698;3439;127;32768;0.4833795;-0.5913057;0.3961219;0.5096953;-2;-6;13;119;3817;720;256;0.6523545;-0.06509695;-0.7535556;-0.04847645;14;0;1;-7;872;3483;128;-0.5914127;0.04570637;0.7988725;0.09972299;2;0;0;199;1085;-3534;4;0.300554;0.3961219;-0.5401662;-0.6789516;0;0;-4;-3541;2072;-1030;16;0.2465374;-0.7029546;-0.1260388;0.6551247;-3;5;0;-2151;732;3556;2;0.5484765;-0.6953791;-0.3767313;0.2714681;0;5;4;3275;2232;-543;8;0.004155125;-0.709424;0.1232687;0.6939058;-4;3;1;765;731;3925;0.6861831;1.640753;1.450117;0.6859301;1.617677;0.9050582;0.6856856;1.595374;0.4260376;0.6897296;1.711309;-0.2985348;0.4316766;1.734222;-0.6266072;0.09197962;1.786277;-0.4781646;-0.05329276;0.9353266;-0.1418497;0;0;0;0.9517042;1.716081;-0.6266102;1.241849;1.746167;-0.4781698;1.549226;0.8738639;-0.208203;1.566245;-0.05038166;-0.0001915693;0.374365;1.638451;1.495903;0.7003195;0.913625;2.724415;0.8595155;0.6693299;4.038683;0.374365;1.638451;1.495903;0.7003195;0.913625;2.724415;0.8595155;0.6693299;4.038683
199066.5027;NotLabelled;16384;-0.09833795;0.3795014;-0.6791832;-0.6204986;-7;-6;-18;-1206;3724;59;65536;0.1966759;-0.2922437;0.6301939;0.6919305;-9;25;-5;712;4011;327;8192;0.6371433;-0.5706371;0.1828255;0.4847645;0;-1;19;1332;3743;15;32768;0.4806094;-0.5917014;0.398892;0.5096953;-8;-18;15;-243;3915;574;256;0.6523545;-0.06648199;-0.7533442;-0.04986149;11;0;2;35;862;3437;128;-0.5900277;0.04570637;0.799896;0.09972299;4;4;0;139;1003;-3664;4;0.301939;0.3975069;-0.5401662;-0.6775261;0;-3;-9;-3299;1860;-992;16;0.2451524;-0.7031893;-0.1274238;0.6551247;-4;-1;0;-2043;610;3422;2;0.5484765;-0.694627;-0.3781163;0.2714681;0;5;6;3189;2112;-339;8;0.004155125;-0.710776;0.1232687;0.6925207;-4;1;1;783;539;3941;0.689579;1.635848;1.448043;0.6893262;1.612814;0.9029827;0.6890818;1.590547;0.4239603;0.6932567;1.709324;-0.3001511;0.4352555;1.73359;-0.6281667;0.09555082;1.785149;-0.4795683;-0.05355949;0.935245;-0.1422874;0;0;0;0.9552785;1.715319;-0.6281683;1.24541;1.744748;-0.4795705;1.556818;0.8743229;-0.2081671;1.568741;-0.04985476;0.0004981756;0.3777609;1.633543;1.493829;0.7005366;0.9138002;2.726162;0.8575515;0.6744142;4.041597;0.3777609;1.633543;1.493829;0.7005366;0.9138002;2.726162;0.8575515;0.6744142;4.041597
199086.9961;NotLabelled;16384;-0.09695291;0.3808864;-0.6798706;-0.6191136;-6;9;-19;-1106;3708;-191;65536;0.199446;-0.2936288;0.6274238;0.6930676;-9;28;-8;256;4037;589;8192;0.6385612;-0.567867;0.1828255;0.4861496;-4;-12;20;1272;3907;113;32768;0.4778393;-0.5908757;0.4016621;0.5110803;-12;-28;18;173;4067;840;256;0.6523545;-0.06786703;-0.7531278;-0.05124654;7;-3;1;193;782;3755;128;-0.5900277;0.04570637;0.799896;0.09972299;4;0;0;237;943;-3688;4;0.3033241;0.3975069;-0.5387812;-0.67801;0;-3;-8;-3251;1874;-842;16;0.2437673;-0.7036706;-0.1274238;0.6551247;-4;-1;-2;-1997;668;3372;2;0.5484765;-0.6933278;-0.3795014;0.2728532;0;1;8;3091;1996;-425;8;0.002770083;-0.7110216;0.1218837;0.6925207;-6;1;1;701;733;3859;0.6880463;1.631567;1.448231;0.6877932;1.608533;0.9031709;0.6875485;1.586266;0.4241486;0.6915808;1.707884;-0.2994918;0.4335076;1.733502;-0.6273479;0.09385133;1.784562;-0.4784667;-0.05859952;0.9350219;-0.1417637;0;0;0;0.9535259;1.7151;-0.627546;1.243701;1.743873;-0.4789033;1.56086;0.8736513;-0.2135758;1.570502;-0.0504024;-0.004246235;0.3762282;1.629261;1.494017;0.70355;0.9131124;2.727245;0.8588156;0.676033;4.043305;0.3762282;1.629261;1.494017;0.70355;0.9131124;2.727245;0.8588156;0.676033;4.043305
199108.28;NotLabelled;16384;-0.09695291;0.3850415;-0.680047;-0.6163435;-6;22;-21;-1950;3814;-7;65536;0.2036011;-0.2963989;0.6246537;0.6931826;-13;41;-7;142;4055;447;8192;0.6385057;-0.5650969;0.1842105;0.4889196;-5;-30;22;1634;3725;-145;32768;0.4722992;-0.5922393;0.4044321;0.5124654;-15;-31;18;-107;3749;1088;256;0.6523545;-0.06925207;-0.7530017;-0.05124654;7;-3;0;123;780;3661;128;-0.5900277;0.04570637;0.799896;0.09972299;2;-5;0;193;895;-3624;4;0.3047091;0.398892;-0.5387812;-0.676574;0;-3;-8;-3277;1964;-830;16;0.2437673;-0.7034184;-0.1288089;0.6551247;-6;-1;-2;-1953;742;3342;2;0.5470914;-0.6936625;-0.3808864;0.2728532;1;2;9;3051;2064;-369;8;0.002770083;-0.7110216;0.1218837;0.6925207;-7;0;2;729;695;3913;0.6899415;1.624731;1.441934;0.6896889;1.601697;0.896874;0.6894444;1.57943;0.4178516;0.6940495;1.702365;-0.3055625;0.4361753;1.729117;-0.6334853;0.09655944;1.780608;-0.48466;-0.06191069;0.9349;-0.1411562;0;0;0;0.9561545;1.709639;-0.6334881;1.246322;1.737539;-0.4846649;1.568303;0.8696334;-0.2175634;1.571215;-0.05318236;-0.002642751;0.3781235;1.622425;1.48772;0.7017798;0.9113863;2.724866;0.8561253;0.6769159;4.041502;0.3781235;1.622425;1.48772;0.7017798;0.9113863;2.724866;0.8561253;0.6769159;4.041502
