SEP=;
index;label;RightUpperArm_boneIndex;RightUpperArm_quat9x_w;RightUpperArm_quat9x_x;RightUpperArm_quat9x_y;RightUpperArm_quat9x_z;RightUpperArm_gyroscope_x;RightUpperArm_gyroscope_y;RightUpperArm_gyroscope_z;RightUpperArm_accelerometer_x;RightUpperArm_accelerometer_y;RightUpperArm_accelerometer_z;RightLowerArm_boneIndex;RightLowerArm_quat9x_w;RightLowerArm_quat9x_x;RightLowerArm_quat9x_y;RightLowerArm_quat9x_z;RightLowerArm_gyroscope_x;RightLowerArm_gyroscope_y;RightLowerArm_gyroscope_z;RightLowerArm_accelerometer_x;RightLowerArm_accelerometer_y;RightLowerArm_accelerometer_z;LeftUpperArm_boneIndex;LeftUpperArm_quat9x_w;LeftUpperArm_quat9x_x;LeftUpperArm_quat9x_y;LeftUpperArm_quat9x_z;LeftUpperArm_gyroscope_x;LeftUpperArm_gyroscope_y;LeftUpperArm_gyroscope_z;LeftUpperArm_accelerometer_x;LeftUpperArm_accelerometer_y;LeftUpperArm_accelerometer_z;LeftLowerArm_boneIndex;LeftLowerArm_quat9x_w;LeftLowerArm_quat9x_x;LeftLowerArm_quat9x_y;LeftLowerArm_quat9x_z;LeftLowerArm_gyroscope_x;LeftLowerArm_gyroscope_y;LeftLowerArm_gyroscope_z;LeftLowerArm_accelerometer_x;LeftLowerArm_accelerometer_y;LeftLowerArm_accelerometer_z;Chest_boneIndex;Chest_quat9x_w;Chest_quat9x_x;Chest_quat9x_y;Chest_quat9x_z;Chest_gyroscope_x;Chest_gyroscope_y;Chest_gyroscope_z;Chest_accelerometer_x;Chest_accelerometer_y;Chest_accelerometer_z;Spine_boneIndex;Spine_quat9x_w;Spine_quat9x_x;Spine_quat9x_y;Spine_quat9x_z;Spine_gyroscope_x;Spine_gyroscope_y;Spine_gyroscope_z;Spine_accelerometer_x;Spine_accelerometer_y;Spine_accelerometer_z;RightUpperLeg_boneIndex;RightUpperLeg_quat9x_w;RightUpperLeg_quat9x_x;RightUpperLeg_quat9x_y;RightUpperLeg_quat9x_z;RightUpperLeg_gyroscope_x;RightUpperLeg_gyroscope_y;RightUpperLeg_gyroscope_z;RightUpperLeg_accelerometer_x;RightUpperLeg_accelerometer_y;RightUpperLeg_accelerometer_z;RightLowerLeg_boneIndex;RightLowerLeg_quat9x_w;RightLowerLeg_quat9x_x;RightLowerLeg_quat9x_y;RightLowerLeg_quat9x_z;RightLowerLeg_gyroscope_x;RightLowerLeg_gyroscope_y;RightLowerLeg_gyroscope_z;RightLowerLeg_accelerometer_x;RightLowerLeg_accelerometer_y;RightLowerLeg_accelerometer_z;LeftUpperLeg_boneIndex;LeftUpperLeg_quat9x_w;LeftUpperLeg_quat9x_x;LeftUpperLeg_quat9x_y;LeftUpperLeg_quat9x_z;LeftUpperLeg_gyroscope_x;LeftUpperLeg_gyroscope_y;LeftUpperLeg_gyroscope_z;LeftUpperLeg_accelerometer_x;LeftUpperLeg_accelerometer_y;LeftUpperLeg_accelerometer_z;LeftLowerLeg_boneIndex;LeftLowerLeg_quat9x_w;LeftLowerLeg_quat9x_x;LeftLowerLeg_quat9x_y;LeftLowerLeg_quat9x_z;LeftLowerLeg_gyroscope_x;LeftLowerLeg_gyroscope_y;LeftLowerLeg_gyroscope_z;LeftLowerLeg_accelerometer_x;LeftLowerLeg_accelerometer_y;LeftLowerLeg_accelerometer_z;pelvis_x;pelvis_y;pelvis_z;lowerSpine_x;lowerSpine_y;lowerSpine_z;middleSpine_x;middleSpine_y;middleSpine_z;upperSpine_x;upperSpine_y;upperSpine_z;rightClavicle_x;rightClavicle_y;rightClavicle_z;rightShoulder_x;rightShoulder_y;rightShoulder_z;rightElbow_x;rightElbow_y;rightElbow_z;rightWrist_x;rightWrist_y;rightWrist_z;leftClavicle_x;leftClavicle_y;leftClavicle_z;leftShoulder_x;leftShoulder_y;leftShoulder_z;leftElbow_x;leftElbow_y;leftElbow_z;leftWrist_x;leftWrist_y;leftWrist_z;rightHip_x;rightHip_y;rightHip_z;rightKnee_x;rightKnee_y;rightKnee_z;rightAnkle_x;rightAnkle_y;rightAnkle_z;leftHip_x;leftHip_y;leftHip_z;leftKnee_x;leftKnee_y;leftKnee_z;leftAnkle_x;leftAnkle_y;leftAnkle_z;
156167.3714;NotLabelled;16384;-0.2479224;-0.468144;-0.7982335;0.2867036;-8;4;-2;2460;-2880;1595;65536;0.5793945;0.5083103;0.5207756;-0.367036;9;4;1;-359;-3902;-849;8192;0.8807841;0.3601108;0.09556787;-0.2922437;-7;-6;7;-1626;-2821;2239;32768;0.7217197;0.4293629;0.3698061;-0.3975069;10;-1;-2;1063;-3759;-1150;256;0.4418283;-0.5899578;-0.3642659;-0.5692521;0;5;0;-427;3842;-1437;128;-0.4584487;0.5096953;0.534364;0.4944598;2;2;0;-371;4087;112;4;-0.0166205;0;-0.7144922;-0.699446;0;1;0;39;4076;60;16;0.5041551;-0.6589699;0.3711911;0.4168975;-1;2;0;323;4000;890;2;0.7036011;-0.7068464;0.04570637;-0.0567867;0;2;0;-555;4114;59;8;0.4085872;-0.468144;0.4653739;0.630337;0;1;0;-247;3947;969;0.5535031;2.816143;-0.1846145;0.5593045;3.344836;-0.3190486;0.5643985;3.809057;-0.4391763;0.5139711;4.495922;-0.185925;0.232594;4.79539;-0.1091578;-0.09656318;4.617412;-0.09828784;-0.7442626;5.256181;-0.2737541;-0.7811971;6.176502;-0.49611;0.751541;4.833493;-0.1091579;1.050917;4.701661;-0.09828776;1.743422;5.364022;0.001660943;2.097039;6.229794;-0.1505978;0.2412432;2.773581;-0.1808203;0.2136496;1.311149;-0.2181057;0;0;0;0.2412432;2.773581;-0.1808203;0.2136496;1.311149;-0.2181057;0;0;0
156188.2675;NotLabelled;16384;-0.2465374;-0.468144;-0.7981638;0.2880886;-7;1;-3;2334;-2880;1545;65536;0.5772949;0.5096953;0.5207756;-0.368421;8;1;0;-303;-3870;-749;8192;0.880052;0.3614958;0.09279778;-0.2936288;-6;-2;8;-1906;-2881;2269;32768;0.7200085;0.432133;0.368421;-0.398892;8;-1;0;1105;-3811;-1130;256;0.4418283;-0.5899578;-0.3642659;-0.5692521;0;4;0;-391;3842;-1471;128;-0.4584487;0.5083103;0.5369569;0.4930748;2;1;-1;-331;4129;50;4;-0.0166205;0;-0.7144922;-0.699446;0;2;-1;63;4062;106;16;0.5041551;-0.6597481;0.3698061;0.4168975;0;1;0;275;3964;910;2;0.7036011;-0.7068464;0.04570637;-0.0567867;0;1;0;-511;4150;33;8;0.4099723;-0.468144;0.4639889;0.6304587;0;2;0;-291;4017;961;0.5538281;2.815623;-0.1875013;0.5596212;3.343557;-0.3248825;0.5647078;3.807101;-0.447598;0.5141612;4.493967;-0.1943708;0.2327479;4.793435;-0.1177362;-0.09641444;4.615457;-0.1070212;-0.7440645;5.255987;-0.2761298;-0.7839376;6.177166;-0.4943803;0.7516947;4.831538;-0.117492;1.051066;4.699706;-0.1064806;1.742007;5.361999;0.004167557;2.09257;6.230082;-0.1418647;0.2415685;2.773082;-0.1834507;0.2139924;1.31065;-0.2207485;0;0;0;0.2415685;2.773082;-0.1834507;0.2139924;1.31065;-0.2207485;0;0;0
156208.176;NotLabelled;16384;-0.2465374;-0.468144;-0.7981638;0.2880886;-5;1;-6;2428;-2832;1491;65536;0.577657;0.5096953;0.5193906;-0.3698061;8;-1;0;-363;-3886;-709;8192;0.8801969;0.3614958;0.09141274;-0.2936288;-7;-4;7;-1906;-2785;2205;32768;0.7191754;0.433518;0.368421;-0.398892;9;-4;-1;1005;-3803;-1128;256;0.4418283;-0.5891004;-0.365651;-0.5692521;-1;4;0;-385;3834;-1307;128;-0.4584487;0.5083103;0.5369569;0.4930748;2;0;-1;-357;4145;-16;4;-0.0166205;0;-0.7144922;-0.699446;0;3;-1;97;4100;116;16;0.5041551;-0.6597481;0.3698061;0.4168975;0;1;0;281;4046;912;2;0.7036011;-0.7068464;0.04570637;-0.0567867;-2;1;0;-561;4070;-55;8;0.4099723;-0.468144;0.4639889;0.6304587;0;1;0;-269;3975;1005;0.5533665;2.815623;-0.1881077;0.5591596;3.343557;-0.325489;0.5642463;3.807101;-0.4482045;0.5144726;4.494567;-0.1964597;0.233386;4.794487;-0.120391;-0.09595254;4.616864;-0.1091857;-0.7444708;5.256444;-0.2785684;-0.7823832;6.178371;-0.4939993;0.7523711;4.832065;-0.1203909;1.051612;4.699955;-0.1091853;1.743387;5.36217;-0.00338757;2.091181;6.231457;-0.14887;0.2411069;2.773082;-0.1840571;0.2134373;1.31065;-0.2212855;0;0;0;0.2411069;2.773082;-0.1840571;0.2134373;1.31065;-0.2212855;0;0;0
156229.1323;NotLabelled;16384;-0.2437673;-0.4695291;-0.798201;0.2880886;-3;-6;-3;2454;-2766;1595;65536;0.5767879;0.5110803;0.5180055;-0.3711911;8;-2;0;-387;-3992;-747;8192;0.8799102;0.3628809;0.08864266;-0.2936288;-6;0;4;-1764;-2791;2233;32768;0.7182773;0.434903;0.367036;-0.400277;8;0;-1;1207;-3723;-1002;256;0.4404432;-0.5887975;-0.365651;-0.5706371;3;2;0;-339;3816;-1419;128;-0.4584487;0.5083103;0.5369569;0.4930748;5;0;0;-319;4111;20;4;-0.0166205;0.001385042;-0.7144909;-0.699446;0;1;-1;17;4136;134;16;0.5041551;-0.6597481;0.3698061;0.4168975;0;0;-1;299;3988;908;2;0.7036011;-0.7068464;0.04570637;-0.0567867;1;4;0;-637;4078;-29;8;0.4099723;-0.468144;0.4639889;0.6304587;0;1;0;-323;3961;933;0.5530117;2.815687;-0.1916984;0.5588048;3.343622;-0.3290796;0.5638914;3.807166;-0.4517952;0.5142585;4.493982;-0.1982547;0.2332269;4.793741;-0.1213536;-0.09613366;4.616134;-0.110548;-0.7477457;5.253958;-0.274596;-0.7866806;6.176948;-0.4852359;0.7522171;4.831249;-0.1213535;1.051443;4.699069;-0.1105477;1.741927;5.361871;-9.393692E-05;2.088526;6.232223;-0.1420239;0.240752;2.773147;-0.1876478;0.212733;1.31065;-0.2219625;0;0;0;0.240752;2.773147;-0.1876478;0.212733;1.31065;-0.2219625;0;0;0
156249.1756;NotLabelled;16384;-0.2437673;-0.4709141;-0.7973847;0.2880886;-1;-7;0;2520;-2912;1555;65536;0.5755677;0.5138504;0.5166205;-0.3711911;9;-6;0;-411;-4028;-635;8192;0.8794763;0.3642659;0.08725762;-0.2936288;-5;1;3;-1904;-2839;2191;32768;0.71737;0.4362881;0.365651;-0.4016621;7;2;0;1079;-3783;-1018;256;0.4404432;-0.5887975;-0.365651;-0.5706371;0;2;0;-329;3744;-1465;128;-0.4598338;0.5083103;0.5370426;0.4916897;4;0;-1;-359;4113;100;4;-0.0166205;0.001385042;-0.7144909;-0.699446;0;1;-1;39;4088;44;16;0.5041551;-0.6597481;0.3698061;0.4168975;0;0;0;287;3912;898;2;0.7036011;-0.7068464;0.04570637;-0.0567867;0;0;0;-601;4040;45;8;0.4099723;-0.468144;0.4639889;0.6304587;0;0;0;-321;4013;927;0.5530115;2.815676;-0.1918246;0.5588005;3.343232;-0.3306518;0.5638833;3.806438;-0.454637;0.5142505;4.493254;-0.2010967;0.2332189;4.793013;-0.1241955;-0.09614164;4.615407;-0.1133899;-0.7478806;5.253421;-0.2761864;-0.789851;6.177277;-0.4824028;0.7522091;4.830521;-0.1241956;1.051435;4.698341;-0.1133897;1.740226;5.362411;-1.382828E-05;2.086078;6.233807;-0.1372796;0.240752;2.773147;-0.1876481;0.212733;1.31065;-0.2219625;0;0;0;0.240752;2.773147;-0.1876481;0.212733;1.31065;-0.2219625;0;0;0
156270.2279;NotLabelled;16384;-0.2437673;-0.4722992;-0.7965651;0.2880886;-1;-5;-1;2598;-2782;1591;65536;0.5746754;0.5152354;0.5152354;-0.3725762;7;-3;0;-435;-4166;-605;8192;0.8785739;0.365651;0.08587258;-0.2950138;-4;0;3;-1924;-2839;2173;32768;0.7157476;0.4376731;0.365651;-0.4030471;5;1;0;1061;-3781;-978;256;0.4390582;-0.589831;-0.365651;-0.5706371;0;1;0;-307;3908;-1407;128;-0.4598338;0.5069252;0.5383502;0.4916897;1;1;0;-373;4183;-32;4;-0.0166205;0.002770083;-0.7144868;-0.699446;0;1;-1;75;4084;-2;16;0.5041551;-0.6597481;0.3698061;0.4168975;0;0;0;275;3998;922;2;0.7036011;-0.7068464;0.04570637;-0.0567867;0;0;0;-607;4078;51;8;0.4099723;-0.468144;0.4639889;0.6304587;0;1;0;-329;4007;925;0.5532402;2.815723;-0.1947834;0.5590248;3.342885;-0.3351007;0.5641038;3.805739;-0.4603942;0.516125;4.492024;-0.2051041;0.23581;4.792244;-0.1273916;-0.09396376;4.615383;-0.1169762;-0.7457576;5.253587;-0.278808;-0.7881072;6.178462;-0.4803301;0.7548866;4.828537;-0.1273915;1.053803;4.69563;-0.1169757;1.74075;5.360866;0.0006638765;2.084043;6.233759;-0.1334776;0.2409808;2.773206;-0.1904772;0.2127301;1.31065;-0.2219656;0;0;0;0.2409808;2.773206;-0.1904772;0.2127301;1.31065;-0.2219656;0;0;0
156291.1412;NotLabelled;16384;-0.2437673;-0.4722992;-0.7965651;0.2880886;-2;-2;-1;2496;-2820;1599;65536;0.5746721;0.5166205;0.5138504;-0.3725762;6;-2;0;-387;-4144;-565;8192;0.8787082;0.365651;0.08448754;-0.2950138;-3;-1;2;-1930;-2799;2239;32768;0.7148237;0.4390582;0.3642659;-0.4044321;4;0;0;1063;-3739;-952;256;0.4390582;-0.589831;-0.365651;-0.5706371;0;0;0;-299;3860;-1377;128;-0.4598338;0.5069252;0.5383502;0.4916897;0;0;0;-377;4079;58;4;-0.01800554;0.002770083;-0.7144533;-0.699446;0;0;-1;61;4038;-14;16;0.5041551;-0.6606213;0.3698061;0.4155124;0;-1;0;313;3986;930;2;0.7036011;-0.7069345;0.04432133;-0.0567867;0;2;0;-531;4038;33;8;0.4099723;-0.468144;0.4639889;0.6304587;0;1;0;-373;4015;967;0.555837;2.815472;-0.1901786;0.5616217;3.342633;-0.3304959;0.5667007;3.805488;-0.4557894;0.5187218;4.491773;-0.2004993;0.2384068;4.791993;-0.1227868;-0.09136695;4.615132;-0.1123714;-0.7431607;5.253336;-0.2742032;-0.7857203;6.178737;-0.4732447;0.7574835;4.828285;-0.1227866;1.0564;4.695378;-0.1123708;1.743611;5.359921;0.007625222;2.086135;6.233823;-0.1218368;0.2435776;2.772954;-0.1858723;0.2157029;1.310456;-0.2202337;0;0;0;0.2435776;2.772954;-0.1858723;0.2157029;1.310456;-0.2202337;0;0;0
156311.3954;NotLabelled;16384;-0.2437673;-0.4736842;-0.7957423;0.2880886;-1;-5;0;2420;-2850;1565;65536;0.5746621;0.5180055;0.5124654;-0.3725762;4;-2;0;-389;-4048;-585;8192;0.8787082;0.365651;0.08448754;-0.2950138;-2;-2;2;-1874;-2817;2173;32768;0.7148237;0.4390582;0.3642659;-0.4044321;2;0;0;997;-3809;-954;256;0.4390582;-0.5884879;-0.365651;-0.5720221;0;2;0;-331;3846;-1427;128;-0.4598338;0.5083103;0.5370426;0.4916897;0;1;0;-403;4133;40;4;-0.01800554;0.002770083;-0.7130947;-0.700831;0;0;-1;93;4036;32;16;0.5041551;-0.6597481;0.3698061;0.4168975;0;-1;0;213;3984;828;2;0.7036011;-0.7068219;0.04432133;-0.05817174;0;3;0;-551;4100;9;8;0.4099723;-0.468144;0.4639889;0.6304587;-1;2;0;-343;4001;949;0.5465725;2.815787;-0.1931244;0.5523614;3.343343;-0.3319517;0.5574443;3.806549;-0.4559369;0.5080141;4.492713;-0.2005952;0.2270567;4.79231;-0.1227982;-0.102324;4.614721;-0.1123143;-0.7552983;5.252663;-0.2703788;-0.7987523;6.178584;-0.4667872;0.7460521;4.829746;-0.1229199;1.045264;4.697498;-0.1125832;1.733274;5.36237;0.0008301735;2.075354;6.236271;-0.1297977;0.2343129;2.773258;-0.188948;0.211973;1.310651;-0.2226885;0;0;0;0.2343129;2.773258;-0.188948;0.211973;1.310651;-0.2226885;0;0;0
156332.1588;NotLabelled;16384;-0.2437673;-0.4736842;-0.7952394;0.2894737;-1;-4;0;2452;-2802;1499;65536;0.5737618;0.5180055;0.5124654;-0.3739612;4;-3;-1;-375;-4014;-523;8192;0.8787082;0.365651;0.08448754;-0.2950138;-2;0;1;-1826;-2781;2145;32768;0.7148237;0.4390582;0.3642659;-0.4044321;2;0;0;985;-3799;-912;256;0.4390582;-0.5884879;-0.365651;-0.5720221;0;1;0;-307;3796;-1415;128;-0.4598338;0.5069252;0.5383502;0.4916897;-1;0;0;-319;4083;-42;4;-0.0166205;0.002770083;-0.7131283;-0.700831;0;0;-1;87;4104;52;16;0.5041551;-0.6597481;0.3698061;0.4168975;0;0;0;263;3994;866;2;0.7036011;-0.7068219;0.04432133;-0.05817174;-1;1;0;-591;4080;55;8;0.4099723;-0.468144;0.4639889;0.6304587;0;0;0;-341;3995;1001;0.5469828;2.815833;-0.1960669;0.5527675;3.342994;-0.3363841;0.5578465;3.805849;-0.4616776;0.5083563;4.492012;-0.2063471;0.2273806;4.791609;-0.128616;-0.1020025;4.61402;-0.1182096;-0.7530659;5.254186;-0.2751598;-0.7966491;6.18057;-0.4693512;0.7463761;4.829045;-0.1286159;1.045585;4.696797;-0.1182089;1.733201;5.361339;-0.0005536079;2.075312;6.235241;-0.1311004;0.2347235;2.773315;-0.1917606;0.2120251;1.31065;-0.2226381;0;0;0;0.2347235;2.773315;-0.1917606;0.2120251;1.31065;-0.2226381;0;0;0
156352.1456;NotLabelled;16384;-0.2437673;-0.4750692;-0.7949162;0.2880886;2;-4;0;2492;-2822;1519;65536;0.5737216;0.5207756;0.5096953;-0.3739612;2;-7;-4;-425;-3926;-523;8192;0.878242;0.365651;0.08448754;-0.2963989;-1;1;0;-1790;-2891;2177;32768;0.7139711;0.4404432;0.3642659;-0.4044321;0;3;1;1009;-3805;-886;256;0.4390582;-0.5884879;-0.365651;-0.5720221;0;2;0;-383;3836;-1463;128;-0.4598338;0.5069252;0.5383502;0.4916897;0;0;0;-325;4107;-30;4;-0.0166205;0.004155125;-0.7131216;-0.700831;0;0;-1;79;4082;8;16;0.5041551;-0.6597481;0.3698061;0.4168975;0;0;0;253;3968;850;2;0.7036011;-0.7068219;0.04432133;-0.05817174;0;0;0;-631;4028;85;8;0.4099723;-0.4695291;0.4639889;0.6294279;0;0;0;-287;3999;975;0.5472056;2.815887;-0.1989004;0.5529903;3.343048;-0.3392177;0.5580692;3.805902;-0.4645111;0.508579;4.492065;-0.209181;0.2276034;4.791663;-0.13145;-0.1017798;4.614075;-0.1210435;-0.7542561;5.252652;-0.2785934;-0.7983186;6.180046;-0.4677939;0.7465988;4.829099;-0.1314498;1.045808;4.69685;-0.1210429;1.733313;5.361294;-0.002187967;2.072994;6.236361;-0.1312716;0.2349462;2.773369;-0.1945941;0.2120252;1.310651;-0.2226388;0;0;0;0.2349462;2.773369;-0.1945941;0.2120252;1.310651;-0.2226388;0;0;0
156373.1296;NotLabelled;16384;-0.2437673;-0.4750692;-0.7949162;0.2880886;2;-7;0;2472;-2792;1559;65536;0.5749491;0.5207756;0.5083103;-0.3739612;1;-4;-4;-481;-4102;-523;8192;0.8776389;0.365651;0.08587258;-0.2977839;0;5;-1;-1954;-2819;2163;32768;0.7124757;0.4404432;0.365651;-0.4058172;-1;3;0;1069;-3855;-968;256;0.4390582;-0.587625;-0.367036;-0.5720221;-1;1;0;-333;3854;-1367;128;-0.4598338;0.5069252;0.5383502;0.4916897;-3;0;0;-345;4089;-26;4;-0.0166205;0.002770083;-0.7131283;-0.700831;0;0;0;93;4020;50;16;0.5041551;-0.6597481;0.3698061;0.4168975;0;0;0;367;3968;880;2;0.7036011;-0.7068219;0.04432133;-0.05817174;0;0;0;-651;4058;19;8;0.4099723;-0.4695291;0.4639889;0.6294279;0;-1;0;-325;3999;913;0.5465901;2.815833;-0.1965467;0.5523748;3.342994;-0.3368641;0.5574539;3.805849;-0.4621576;0.5086097;4.492618;-0.2083384;0.2279214;4.792665;-0.1313082;-0.1016407;4.61543;-0.120565;-0.7544381;5.254008;-0.2767787;-0.7962483;6.181631;-0.4653619;0.746954;4.829583;-0.1313078;1.046029;4.697059;-0.1205639;1.733419;5.362102;-0.004428029;2.070901;6.237942;-0.1340353;0.2343307;2.773315;-0.1922405;0.2115692;1.31065;-0.2230716;0;0;0;0.2343307;2.773315;-0.1922405;0.2115692;1.31065;-0.2230716;0;0;0
156393.3454;NotLabelled;16384;-0.2437673;-0.4764543;-0.7940868;0.2880886;1;-4;2;2524;-2714;1677;65536;0.5736915;0.5221606;0.5083103;-0.3739612;0;-3;-2;-519;-4098;-521;8192;0.8776389;0.365651;0.08587258;-0.2977839;1;4;-1;-2000;-2897;2233;32768;0.7124757;0.4404432;0.365651;-0.4058172;-2;1;0;1105;-3801;-1100;256;0.4390582;-0.587625;-0.367036;-0.5720221;0;1;1;-365;3840;-1459;128;-0.4584487;0.5083103;0.5382254;0.4916897;-3;-1;0;-373;4123;-42;4;-0.0166205;0.002770083;-0.7131283;-0.700831;0;0;0;83;4116;108;16;0.5041551;-0.6606213;0.3698061;0.4155124;0;0;0;279;3964;884;2;0.7036011;-0.7068219;0.04432133;-0.05817174;0;-3;0;-631;4106;-13;8;0.4099723;-0.4695291;0.4639889;0.6294279;0;0;0;-329;3967;969;0.5495721;2.815651;-0.194702;0.5553612;3.343207;-0.3335293;0.560444;3.806413;-0.4575145;0.5115998;4.493183;-0.2036957;0.2309116;4.79323;-0.1266656;-0.09865051;4.615994;-0.1159224;-0.7514961;5.254756;-0.2711789;-0.7962031;6.182644;-0.4577848;0.7499442;4.830148;-0.1266654;1.049019;4.697624;-0.1159214;1.736382;5.362667;0.0003730059;2.073864;6.238507;-0.1292347;0.2373126;2.773122;-0.1905257;0.214551;1.310457;-0.221356;0;0;0;0.2373126;2.773122;-0.1905257;0.214551;1.310457;-0.221356;0;0;0
156414.3143;NotLabelled;16384;-0.2451524;-0.4764543;-0.7941616;0.2867036;0;-5;1;2594;-2820;1583;65536;0.5749158;0.5221606;0.5069252;-0.3739612;-1;-5;-3;-423;-4060;-581;8192;0.8776389;0.365651;0.08587258;-0.2977839;0;1;0;-1906;-2899;2239;32768;0.71333;0.4390582;0.365651;-0.4058172;-1;0;0;1053;-3879;-1162;256;0.4390582;-0.587625;-0.367036;-0.5720221;0;0;0;-325;3816;-1423;128;-0.4584487;0.5083103;0.5369569;0.4930748;-2;-1;0;-363;4147;30;4;-0.0166205;0.002770083;-0.7131283;-0.700831;0;0;0;121;4056;44;16;0.5041551;-0.6606213;0.3698061;0.4155124;0;0;0;337;4006;870;2;0.7036011;-0.7068219;0.04432133;-0.05817174;0;-3;0;-581;4070;-49;8;0.4085872;-0.4695291;0.4639889;0.6303279;-1;0;0;-307;3959;919;0.5495722;2.815662;-0.1945758;0.5553654;3.343597;-0.331957;0.560452;3.807141;-0.4546725;0.5116078;4.493911;-0.2008536;0.2309196;4.793958;-0.1238235;-0.09864247;4.616722;-0.1130803;-0.7514548;5.254707;-0.2716342;-0.7935301;6.182825;-0.4577081;0.7499521;4.830875;-0.1238232;1.049027;4.698352;-0.1130792;1.736391;5.363395;0.003210187;2.0763;6.238075;-0.1278737;0.2373126;2.773122;-0.1905254;0.2145511;1.310457;-0.2213559;0;0;0;0.2373126;2.773122;-0.1905254;0.2145511;1.310457;-0.2213559;0;0;0
156435.1276;NotLabelled;16384;-0.2451524;-0.4764543;-0.7941616;0.2867036;0;-2;0;2632;-2878;1597;65536;0.5749158;0.5221606;0.5069252;-0.3739612;-3;-2;-4;-463;-4056;-619;8192;0.8776389;0.365651;0.08587258;-0.2977839;1;1;0;-1980;-2843;2243;32768;0.71333;0.4390582;0.365651;-0.4058172;-2;0;-1;971;-3797;-1120;256;0.4390582;-0.587625;-0.367036;-0.5720221;0;-1;0;-347;3816;-1451;128;-0.4584487;0.5083103;0.5369569;0.4930748;-1;-1;0;-381;4185;32;4;-0.0166205;0.002770083;-0.7131283;-0.700831;0;-1;0;139;4082;90;16;0.5041551;-0.6606213;0.3698061;0.4155124;0;0;0;283;3966;890;2;0.7036011;-0.7068464;0.04570637;-0.0567867;1;-2;0;-523;4074;81;8;0.4085872;-0.4695291;0.4639889;0.6303279;0;-2;1;-317;3917;947;0.5495722;2.815662;-0.1945758;0.5553654;3.343597;-0.331957;0.560452;3.807141;-0.4546725;0.5116078;4.493911;-0.2008536;0.2309196;4.793958;-0.1238235;-0.09864247;4.616722;-0.1130803;-0.7514904;5.254707;-0.2714871;-0.7935655;6.182825;-0.4575613;0.7499521;4.830875;-0.1238232;1.049027;4.698352;-0.1130792;1.736417;5.363395;0.003055573;2.076327;6.238075;-0.1280282;0.2373126;2.773122;-0.1905254;0.2145511;1.310457;-0.2213559;0;0;0;0.2373126;2.773122;-0.1905254;0.2145511;1.310457;-0.2213559;0;0;0
156455.1355;NotLabelled;16384;-0.2451524;-0.4764543;-0.7941616;0.2867036;0;1;1;2512;-2740;1493;65536;0.578281;0.5207756;0.5055401;-0.3725762;-3;0;-1;-367;-4042;-661;8192;0.8776389;0.365651;0.08587258;-0.2977839;1;0;0;-2008;-2699;2335;32768;0.71333;0.4390582;0.365651;-0.4058172;-2;-1;-2;1083;-3809;-1160;256;0.4390582;-0.587625;-0.367036;-0.5720221;0;-1;0;-409;3820;-1535;128;-0.4584487;0.5083103;0.5369569;0.4930748;-1;0;0;-373;4167;134;4;-0.0166205;0.002770083;-0.7131283;-0.700831;0;-1;0;99;4100;78;16;0.5041551;-0.6606213;0.3698061;0.4155124;0;0;0;277;3984;890;2;0.7036011;-0.7068464;0.04570637;-0.0567867;1;-2;0;-565;4080;19;8;0.4085872;-0.4695291;0.4639889;0.6303279;-1;-1;0;-433;3989;977;0.5495722;2.815662;-0.1945758;0.5553654;3.343597;-0.331957;0.560452;3.807141;-0.4546725;0.5116078;4.493911;-0.2008536;0.2309196;4.793958;-0.1238235;-0.09864247;4.616722;-0.1130803;-0.7514904;5.254707;-0.2714871;-0.7878761;6.182329;-0.4612006;0.7499521;4.830875;-0.1238232;1.049027;4.698352;-0.1130792;1.736417;5.363395;0.003055573;2.076327;6.238075;-0.1280282;0.2373126;2.773122;-0.1905254;0.2145511;1.310457;-0.2213559;0;0;0;0.2373126;2.773122;-0.1905254;0.2145511;1.310457;-0.2213559;0;0;0
156475.3543;NotLabelled;16384;-0.2451524;-0.4764543;-0.7936602;0.2880886;0;0;1;2588;-2830;1527;65536;0.578281;0.5207756;0.5055401;-0.3725762;-2;-1;0;-279;-4000;-719;8192;0.8776389;0.365651;0.08587258;-0.2977839;1;0;0;-1784;-2927;2155;32768;0.71333;0.4390582;0.365651;-0.4058172;-1;0;1;1135;-3719;-1128;256;0.4390582;-0.5884879;-0.365651;-0.5720221;0;-2;1;-373;3806;-1443;128;-0.4584487;0.5083103;0.5369569;0.4930748;-3;-2;1;-365;4089;72;4;-0.0166205;0.002770083;-0.7131283;-0.700831;-1;0;0;57;4104;78;16;0.5041551;-0.6606213;0.3698061;0.4155124;0;0;0;313;4026;890;2;0.7036011;-0.7068464;0.04570637;-0.0567867;0;-1;0;-633;4104;-15;8;0.4085872;-0.4695291;0.4639889;0.6303279;0;0;0;-283;3969;1007;0.5499616;2.815662;-0.19409;0.5557547;3.343597;-0.3314713;0.5608414;3.807141;-0.4541868;0.5113511;4.493304;-0.1988565;0.2303755;4.792901;-0.1211256;-0.0990077;4.615313;-0.1107191;-0.7498494;5.25507;-0.2702327;-0.7858469;6.182691;-0.4600199;0.7493708;4.830338;-0.1211255;1.04858;4.698089;-0.1107186;1.735489;5.363132;0.008228183;2.075665;6.237813;-0.1221594;0.237702;2.773122;-0.1900395;0.2150036;1.310457;-0.2209164;0;0;0;0.237702;2.773122;-0.1900395;0.2150036;1.310457;-0.2209164;0;0;0
156495.3895;NotLabelled;16384;-0.2451524;-0.4764543;-0.7936602;0.2880886;1;2;0;2606;-2890;1527;65536;0.578281;0.5207756;0.5055401;-0.3725762;-2;-1;-1;-379;-4014;-743;8192;0.8777733;0.365651;0.08448754;-0.2977839;2;-1;1;-1944;-2755;2241;32768;0.71333;0.4390582;0.365651;-0.4058172;-2;-2;0;999;-3767;-1136;256;0.4404432;-0.587452;-0.365651;-0.5720221;-2;-2;0;-325;3830;-1419;128;-0.4584487;0.5096953;0.5356424;0.4930748;-4;-2;0;-369;4123;78;4;-0.0166205;0.002770083;-0.7131283;-0.700831;0;-1;0;1;4038;30;16;0.5041551;-0.6597481;0.3698061;0.4168975;0;-1;0;255;3966;928;2;0.7036011;-0.7068464;0.04570637;-0.0567867;0;0;0;-513;4054;-7;8;0.4085872;-0.4695291;0.4639889;0.6303279;0;0;0;-325;3975;1025;0.5469859;2.815867;-0.1956779;0.5527833;3.344188;-0.3315632;0.5578736;3.808079;-0.4529652;0.5067242;4.494768;-0.1993834;0.2250311;4.7939;-0.1224631;-0.103936;4.615566;-0.1116669;-0.7550625;5.255323;-0.2700139;-0.7910572;6.182944;-0.4598014;0.7439372;4.832555;-0.122463;1.043454;4.701037;-0.1116664;1.730846;5.365379;0.008403063;2.071025;6.240059;-0.1219798;0.2347261;2.773316;-0.1917576;0.2120281;1.31065;-0.2226354;0;0;0;0.2347261;2.773316;-0.1917576;0.2120281;1.31065;-0.2226354;0;0;0
156517.7022;NotLabelled;16384;-0.2451524;-0.4764543;-0.7936602;0.2880886;0;2;0;2476;-2818;1573;65536;0.578281;0.5207756;0.5055401;-0.3725762;-2;0;-1;-463;-4074;-695;8192;0.878349;0.3642659;0.08448754;-0.2977839;1;-4;0;-1960;-2737;2289;32768;0.7148237;0.4390582;0.3642659;-0.4044321;-3;-3;0;1011;-3795;-1136;256;0.4404432;-0.5887975;-0.365651;-0.5706371;0;-1;0;-333;3820;-1403;128;-0.4584487;0.5096953;0.5356424;0.4930748;-3;-1;0;-353;4115;-6;4;-0.0166205;0.002770083;-0.7131283;-0.700831;0;-2;0;59;4050;102;16;0.5041551;-0.6597481;0.3698061;0.4168975;0;0;0;289;3998;954;2;0.7036011;-0.7068464;0.04570637;-0.0567867;0;-1;0;-573;4018;11;8;0.4072022;-0.4695291;0.4639889;0.6312235;0;0;0;-301;3947;995;0.5475927;2.815867;-0.1949329;0.55339;3.344188;-0.3308182;0.5584804;3.808078;-0.4522202;0.5088477;4.494895;-0.1986795;0.227816;4.794653;-0.1217782;-0.1015446;4.617046;-0.1109727;-0.7516929;5.256804;-0.2732887;-0.7870857;6.184425;-0.4631895;0.7468063;4.832161;-0.1217782;1.046032;4.699982;-0.1109725;1.734686;5.362377;0.01256633;2.077211;6.236278;-0.1168905;0.2353329;2.773315;-0.1910125;0.212733;1.31065;-0.2219622;0;0;0;0.2353329;2.773315;-0.1910125;0.212733;1.31065;-0.2219622;0;0;0
156537.1808;NotLabelled;16384;-0.2451524;-0.4750692;-0.7944901;0.2880886;0;1;0;2496;-2768;1565;65536;0.578281;0.5207756;0.5055401;-0.3725762;-3;0;-2;-439;-4064;-615;8192;0.878349;0.3642659;0.08448754;-0.2977839;1;-2;0;-1810;-2797;2325;32768;0.7148237;0.4390582;0.3642659;-0.4044321;-2;0;-1;1045;-3787;-1172;256;0.4404432;-0.5887975;-0.365651;-0.5706371;1;0;0;-337;3812;-1473;128;-0.4584487;0.5110803;0.534321;0.4930748;-2;-3;0;-417;4159;76;4;-0.01523546;0.002770083;-0.7131593;-0.700831;-1;-4;0;83;4096;76;16;0.5041551;-0.6597481;0.3698061;0.4168975;0;-1;0;275;3954;924;2;0.7036011;-0.7068464;0.04570637;-0.0567867;1;-2;0;-595;4036;-19;8;0.4072022;-0.4695291;0.4639889;0.6312235;0;-1;0;-275;3987;981;0.5479113;2.81593;-0.1977266;0.553713;3.344635;-0.3321104;0.558807;3.808868;-0.4521942;0.5092342;4.495685;-0.1986417;0.2282208;4.795443;-0.121674;-0.1011372;4.617837;-0.1107906;-0.7517884;5.256946;-0.2736436;-0.7872264;6.184568;-0.4635363;0.747211;4.832951;-0.1217966;1.046439;4.700772;-0.1110616;1.735543;5.363508;0.008063793;2.078037;6.23741;-0.1214745;0.2356515;2.773368;-0.1939368;0.2126805;1.31065;-0.2220123;0;0;0;0.2356515;2.773368;-0.1939368;0.2126805;1.31065;-0.2220123;0;0;0
156558.1584;NotLabelled;16384;-0.2451524;-0.4750692;-0.7944901;0.2880886;0;0;2;2520;-2752;1581;65536;0.5795253;0.5193906;0.5055401;-0.3725762;-3;0;-1;-367;-3982;-675;8192;0.8788173;0.3642659;0.08448754;-0.2963989;1;2;0;-1836;-2753;2273;32768;0.7149659;0.4376731;0.365651;-0.4044321;-3;3;-1;1065;-3705;-1182;256;0.4404432;-0.5887975;-0.365651;-0.5706371;0;-1;0;-321;3764;-1535;128;-0.4584487;0.5110803;0.534321;0.4930748;-1;-4;0;-385;4055;126;4;-0.01523546;0.002770083;-0.7131593;-0.700831;0;-4;0;51;4098;90;16;0.5041551;-0.6597481;0.3698061;0.4168975;0;-2;0;319;3946;924;2;0.7036011;-0.7069563;0.04570637;-0.05540166;0;-5;2;-657;4080;31;8;0.4072022;-0.4695291;0.4639889;0.6312235;0;-2;0;-341;3969;1011;0.5479572;2.815931;-0.1976708;0.5537588;3.344635;-0.3320548;0.5588529;3.808868;-0.4521386;0.5092201;4.495685;-0.1985978;0.2281885;4.795443;-0.1216964;-0.1011721;4.617837;-0.110891;-0.7517416;5.257407;-0.2722558;-0.7842362;6.184734;-0.4640968;0.7471787;4.832952;-0.1216964;1.046404;4.700772;-0.1108908;1.735533;5.363267;0.009429336;2.07869;6.236472;-0.1230229;0.2356974;2.773368;-0.1938811;0.2127331;1.31065;-0.2219619;0;0;0;0.2356974;2.773368;-0.1938811;0.2127331;1.31065;-0.2219619;0;0;0
156578.1451;NotLabelled;16384;-0.2451524;-0.4750692;-0.7944901;0.2880886;0;0;2;2494;-2830;1543;65536;0.5795253;0.5193906;0.5055401;-0.3725762;-2;0;-1;-295;-3998;-781;8192;0.878349;0.3642659;0.08448754;-0.2977839;2;0;-1;-2038;-2805;2245;32768;0.7141807;0.4376731;0.365651;-0.4058172;-1;1;0;1075;-3813;-1206;256;0.4404432;-0.5887975;-0.365651;-0.5706371;0;-1;0;-351;3772;-1417;128;-0.4584487;0.5110803;0.534321;0.4930748;-2;-3;0;-389;4159;116;4;-0.01523546;0.001385042;-0.7131633;-0.700831;0;-2;0;59;4050;72;16;0.5041551;-0.6597481;0.3698061;0.4168975;0;-1;0;237;3988;914;2;0.7036011;-0.7068654;0.04709141;-0.05540166;1;-5;0;-591;4046;-49;8;0.4072022;-0.4695291;0.4639889;0.6312235;0;-1;0;-305;3973;981;0.5477254;2.815877;-0.1948396;0.553527;3.344582;-0.3292235;0.5586211;3.808815;-0.4493073;0.5089883;4.495631;-0.1957665;0.2279567;4.79539;-0.1188652;-0.1014039;4.617784;-0.1080597;-0.7519734;5.257353;-0.2694245;-0.7844681;6.184681;-0.4612656;0.7469469;4.832898;-0.1188652;1.046172;4.700718;-0.1080595;1.735216;5.363114;0.01329517;2.078235;6.236627;-0.1174698;0.2354656;2.773314;-0.1910498;0.212733;1.310651;-0.2219619;0;0;0;0.2354656;2.773314;-0.1910498;0.212733;1.310651;-0.2219619;0;0;0
156598.7864;NotLabelled;16384;-0.2451524;-0.4750692;-0.7944901;0.2880886;1;0;1;2498;-2796;1541;65536;0.5795253;0.5193906;0.5055401;-0.3725762;-2;0;-2;-391;-3980;-777;8192;0.878349;0.3642659;0.08448754;-0.2977839;3;0;0;-1878;-2835;2239;32768;0.7150276;0.4362881;0.365651;-0.4058172;-2;2;-1;1085;-3821;-1138;256;0.4404432;-0.5896553;-0.3642659;-0.5706371;1;-2;0;-343;3838;-1459;128;-0.4584487;0.5124654;0.5329928;0.4930748;-4;-1;0;-377;4153;78;4;-0.01523546;0.001385042;-0.7145218;-0.699446;0;-2;0;121;4070;84;16;0.5041551;-0.6597481;0.3698061;0.4168975;0;-1;0;325;3962;866;2;0.7036011;-0.7068789;0.04847645;-0.05401662;0;-3;0;-479;4134;-21;8;0.4058172;-0.4695291;0.4639889;0.6321149;0;-2;0;-363;3963;969;0.5537651;2.815778;-0.1936888;0.5595708;3.344863;-0.3265662;0.5646687;3.809436;-0.4453271;0.5143837;4.495647;-0.1902806;0.2330621;4.794953;-0.1126809;-0.0961174;4.616992;-0.1022112;-0.7463175;5.256561;-0.2650596;-0.7784206;6.183889;-0.4569669;0.7520144;4.832985;-0.1126809;1.051375;4.701085;-0.1022107;1.740139;5.363479;0.02071464;2.085848;6.235818;-0.1108049;0.241505;2.773204;-0.19003;0.2131855;1.31065;-0.2215281;0;0;0;0.241505;2.773204;-0.19003;0.2131855;1.31065;-0.2215281;0;0;0
156620.1792;NotLabelled;16384;-0.2451524;-0.4750692;-0.7944901;0.2880886;0;1;0;2494;-2802;1567;65536;0.5807636;0.5180055;0.5055401;-0.3725762;-3;2;-1;-351;-3982;-739;8192;0.8787879;0.3628809;0.08587258;-0.2977839;2;1;-1;-1850;-2745;2285;32768;0.7150276;0.4362881;0.365651;-0.4058172;-3;1;0;1127;-3749;-1178;256;0.4404432;-0.5896553;-0.3642659;-0.5706371;0;-1;0;-345;3816;-1467;128;-0.4584487;0.5124654;0.5317081;0.4944598;-2;-1;0;-373;4151;60;4;-0.01385042;0;-0.7145513;-0.699446;0;-3;0;119;4064;78;16;0.5027701;-0.6600272;0.3711911;0.4168975;0;-1;0;293;3968;912;2;0.7036011;-0.7069834;0.04847645;-0.05263158;0;-3;0;-535;4096;-49;8;0.4058172;-0.4695291;0.4639889;0.6321149;0;-2;0;-337;4005;1033;0.5576141;2.815258;-0.193115;0.5634239;3.344707;-0.32454;0.5685253;3.809604;-0.4420255;0.5182403;4.495814;-0.1869786;0.2369188;4.79512;-0.1093789;-0.09226076;4.617159;-0.09890926;-0.7424999;5.256729;-0.2616012;-0.7717088;6.183752;-0.4554371;0.7558709;4.833152;-0.1093789;1.055231;4.701252;-0.09890872;1.745766;5.362397;0.02077067;2.091475;6.234736;-0.1107485;0.245354;2.772675;-0.1895825;0.216912;1.310122;-0.2210315;0;0;0;0.245354;2.772675;-0.1895825;0.216912;1.310122;-0.2210315;0;0;0
156640.1628;NotLabelled;16384;-0.2451524;-0.4750692;-0.7944901;0.2880886;0;1;0;2474;-2818;1609;65536;0.5807636;0.5180055;0.5055401;-0.3725762;-2;2;-1;-325;-4010;-759;8192;0.8787879;0.3628809;0.08587258;-0.2977839;1;2;0;-1900;-2773;2291;32768;0.7150276;0.4362881;0.365651;-0.4058172;-3;0;0;1133;-3747;-1130;256;0.4404432;-0.5896553;-0.3642659;-0.5706371;0;-1;1;-365;3822;-1491;128;-0.4584487;0.5138504;0.5316576;0.4930748;-2;-1;0;-389;4119;88;4;-0.01385042;0;-0.7145513;-0.699446;0;-1;0;101;4084;62;16;0.5027701;-0.6600272;0.3711911;0.4168975;0;-1;0;241;3990;848;2;0.7036011;-0.7069834;0.04847645;-0.05263158;0;-1;0;-543;4106;-41;8;0.4058172;-0.4695291;0.4639889;0.6321149;0;0;1;-337;3999;1017;0.5576141;2.815259;-0.19311;0.5634241;3.344721;-0.3244759;0.5685257;3.809632;-0.4419095;0.5182406;4.495842;-0.1868625;0.2369191;4.795149;-0.1092629;-0.09226038;4.617188;-0.0987932;-0.7424979;5.256757;-0.2614913;-0.7717068;6.183781;-0.4553266;0.7558713;4.83318;-0.1092627;1.055232;4.70128;-0.09879261;1.745765;5.362426;0.0208931;2.091474;6.234764;-0.1106261;0.245354;2.772676;-0.1895826;0.216912;1.310122;-0.2210317;0;0;0;0.245354;2.772676;-0.1895826;0.216912;1.310122;-0.2210317;0;0;0
156661.2451;NotLabelled;16384;-0.2451524;-0.4736842;-0.7953166;0.2880886;0;1;0;2486;-2790;1593;65536;0.5807636;0.5180055;0.5055401;-0.3725762;-2;3;0;-303;-4036;-809;8192;0.8787879;0.3628809;0.08587258;-0.2977839;2;1;-1;-1892;-2825;2227;32768;0.7158709;0.434903;0.365651;-0.4058172;-3;0;0;1143;-3767;-1140;256;0.4404432;-0.5896553;-0.3642659;-0.5706371;0;-1;0;-281;3794;-1411;128;-0.4584487;0.5138504;0.5303697;0.4944598;-4;-2;0;-423;4125;92;4;-0.01385042;0;-0.7145513;-0.699446;0;0;0;141;4062;86;16;0.5027701;-0.6600272;0.3711911;0.4168975;0;0;0;257;3992;866;2;0.7036011;-0.7069834;0.04847645;-0.05263158;0;0;0;-547;4080;-25;8;0.4058172;-0.4695291;0.4639889;0.6321149;0;0;0;-295;3959;1023;0.5575703;2.815268;-0.1930417;0.5633841;3.345089;-0.3229541;0.5684893;3.81032;-0.4391114;0.5182632;4.496531;-0.1840533;0.2369597;4.795838;-0.1063886;-0.0922174;4.617876;-0.09584274;-0.7424449;5.256805;-0.2610785;-0.7716987;6.183827;-0.4549077;0.7559118;4.833869;-0.1065086;1.055274;4.701969;-0.0961076;1.745867;5.36344;0.02141619;2.093962;6.234596;-0.1116364;0.24531;2.772675;-0.1896406;0.2168608;1.310122;-0.2210824;0;0;0;0.24531;2.772675;-0.1896406;0.2168608;1.310122;-0.2210824;0;0;0
156682.3723;NotLabelled;16384;-0.2451524;-0.4736842;-0.7953166;0.2880886;0;1;0;2462;-2830;1509;65536;0.5819961;0.5166205;0.5055401;-0.3725762;-1;1;-1;-389;-3970;-763;8192;0.8787879;0.3628809;0.08587258;-0.2977839;2;0;0;-1950;-2809;2217;32768;0.7158709;0.434903;0.365651;-0.4058172;-3;0;0;1065;-3787;-1162;256;0.4404432;-0.5896553;-0.3642659;-0.5706371;0;-1;0;-295;3828;-1459;128;-0.4570637;0.5138504;0.5315638;0.4944598;-4;-1;0;-375;4135;156;4;-0.01385042;0;-0.7145513;-0.699446;0;0;0;67;4092;88;16;0.5027701;-0.6600272;0.3711911;0.4168975;0;0;0;281;3990;882;2;0.7036011;-0.7070851;0.04847645;-0.05124654;0;0;0;-545;4058;5;8;0.4058172;-0.4695291;0.4639889;0.6321149;0;0;0;-265;3955;963;0.5576141;2.815268;-0.1929849;0.5634279;3.34509;-0.322895;0.568533;3.810321;-0.4390503;0.5182481;4.496533;-0.1840038;0.2369267;4.795839;-0.1064041;-0.09225286;4.617877;-0.09593416;-0.7423995;5.257257;-0.2597384;-0.7687213;6.183961;-0.4554986;0.7558788;4.83387;-0.1064042;1.055239;4.70197;-0.09593421;1.745774;5.363115;0.02374136;2.093899;6.234273;-0.1092315;0.245354;2.772675;-0.189584;0.2169119;1.310122;-0.2210324;0;0;0;0.245354;2.772675;-0.189584;0.2169119;1.310122;-0.2210324;0;0;0
156704.149;NotLabelled;16384;-0.2451524;-0.4736842;-0.7953166;0.2880886;0;0;0;2408;-2858;1549;65536;0.5819961;0.5166205;0.5055401;-0.3725762;0;0;-2;-387;-3936;-705;8192;0.8793585;0.3614958;0.08587258;-0.2977839;3;0;-2;-1948;-2767;2289;32768;0.715946;0.434903;0.367036;-0.4044321;-3;2;0;1059;-3783;-1196;256;0.4404432;-0.5896553;-0.3642659;-0.5706371;0;0;1;-337;3822;-1453;128;-0.4570637;0.5152354;0.5302214;0.4944598;-3;0;0;-365;4095;106;4;-0.01385042;0;-0.7145513;-0.699446;0;0;0;131;4056;66;16;0.5027701;-0.6600272;0.3711911;0.4168975;0;0;0;297;3974;914;2;0.7036011;-0.7070851;0.04847645;-0.05124654;0;-1;0;-531;4052;-7;8;0.4058172;-0.4695291;0.4639889;0.6321149;0;0;0;-329;3961;1003;0.5576144;2.815278;-0.1928517;0.5634323;3.345469;-0.3212438;0.568541;3.811031;-0.4360663;0.5182561;4.497242;-0.1810193;0.2369346;4.796548;-0.1034196;-0.09224498;4.618587;-0.09294999;-0.7423917;5.257967;-0.2567517;-0.7687141;6.184672;-0.4525115;0.7558868;4.83458;-0.1034195;1.055247;4.70268;-0.09294939;1.747774;5.361869;0.02600443;2.094239;6.23319;-0.1101903;0.2453541;2.772675;-0.1895826;0.2169121;1.310122;-0.2210317;0;0;0;0.2453541;2.772675;-0.1895826;0.2169121;1.310122;-0.2210317;0;0;0
156724.1386;NotLabelled;16384;-0.2451524;-0.4736842;-0.7948136;0.2894737;0;0;0;2510;-2816;1553;65536;0.5819961;0.5166205;0.5055401;-0.3725762;-1;0;-2;-289;-4024;-663;8192;0.8792222;0.3614958;0.08725762;-0.2977839;2;1;-2;-1826;-2853;2243;32768;0.7167854;0.433518;0.367036;-0.4044321;-4;4;1;1129;-3793;-1194;256;0.4404432;-0.5896553;-0.3642659;-0.5706371;1;0;0;-299;3768;-1523;128;-0.4570637;0.5152354;0.5302214;0.4944598;-3;0;0;-383;4147;170;4;-0.01385042;0;-0.7145513;-0.699446;0;0;0;21;4088;114;16;0.5027701;-0.6600272;0.3711911;0.4168975;0;-1;0;293;3984;882;2;0.7036011;-0.7070851;0.04847645;-0.05124654;0;1;0;-639;4094;-49;8;0.4058172;-0.4695291;0.4639889;0.6321149;0;0;0;-275;3943;1025;0.5576144;2.815278;-0.1928517;0.5634323;3.345469;-0.3212438;0.568541;3.811031;-0.4360663;0.5182561;4.497242;-0.1810193;0.2369346;4.796548;-0.1034196;-0.09224498;4.618587;-0.09294999;-0.7410365;5.25974;-0.2551888;-0.7673588;6.186445;-0.4509485;0.7558868;4.83458;-0.1034195;1.055247;4.70268;-0.09294939;1.747508;5.36257;0.02364576;2.096382;6.2327;-0.1139975;0.2453541;2.772675;-0.1895826;0.2169121;1.310122;-0.2210317;0;0;0;0.2453541;2.772675;-0.1895826;0.2169121;1.310122;-0.2210317;0;0;0
156745.1432;NotLabelled;16384;-0.2437673;-0.4736842;-0.7952394;0.2894737;0;0;0;2556;-2812;1577;65536;0.5819961;0.5166205;0.5055401;-0.3725762;-1;0;0;-333;-4062;-611;8192;0.8791818;0.3601108;0.08864266;-0.299169;4;4;-2;-1914;-2767;2275;32768;0.7169112;0.432133;0.368421;-0.4044321;-3;2;1;1151;-3721;-1232;256;0.4390582;-0.5915393;-0.3628809;-0.5706371;0;0;1;-357;3856;-1465;128;-0.4556787;0.5166205;0.5300658;0.4944598;-3;0;-1;-391;4133;144;4;-0.01385042;0;-0.7145513;-0.699446;0;0;0;29;4088;84;16;0.5027701;-0.6600272;0.3711911;0.4168975;0;0;0;291;3970;890;2;0.7036011;-0.7069834;0.04847645;-0.05263158;0;1;0;-531;4108;-27;8;0.4058172;-0.4695291;0.4639889;0.6321149;0;-1;0;-309;3975;1027;0.5579516;2.815287;-0.1922823;0.5637734;3.345846;-0.319148;0.5688858;3.811737;-0.4326302;0.519654;4.496803;-0.1743215;0.2387728;4.79611;-0.09514733;-0.09063527;4.618536;-0.08532447;-0.7402588;5.258233;-0.2499614;-0.7662325;6.184937;-0.4457679;0.7577746;4.833458;-0.09527117;1.056966;4.701115;-0.08559787;1.750446;5.359989;0.02949047;2.100164;6.229403;-0.1105223;0.2456911;2.772676;-0.1891456;0.2173051;1.310123;-0.2206453;0;0;0;0.2456911;2.772676;-0.1891456;0.2173051;1.310123;-0.2206453;0;0;0
156765.3498;NotLabelled;16384;-0.2437673;-0.4736842;-0.7952394;0.2894737;0;0;0;2584;-2828;1553;65536;0.5819961;0.5166205;0.5055401;-0.3725762;-2;1;0;-395;-4008;-685;8192;0.8790411;0.3601108;0.0900277;-0.299169;3;2;-3;-2036;-2829;2289;32768;0.7169112;0.432133;0.368421;-0.4044321;-3;4;1;1101;-3779;-1300;256;0.4390582;-0.5915393;-0.3628809;-0.5706371;0;0;1;-349;3876;-1489;128;-0.4556787;0.5166205;0.5287704;0.4958449;-3;-1;-1;-369;4151;100;4;-0.01385042;0;-0.7145513;-0.699446;0;-1;0;67;4076;110;16;0.5027701;-0.6600272;0.3711911;0.4168975;-1;0;0;331;3956;872;2;0.7036011;-0.7069834;0.04847645;-0.05263158;0;0;0;-551;4102;-3;8;0.4058172;-0.4695291;0.4639889;0.6321149;0;0;0;-291;3939;971;0.5579966;2.815296;-0.192097;0.5638224;3.346202;-0.3175029;0.568938;3.812402;-0.4297032;0.5196447;4.497468;-0.1714064;0.2387446;4.796776;-0.09229914;-0.09066581;4.619201;-0.08255478;-0.7405005;5.259366;-0.2445175;-0.7664278;6.186071;-0.4403301;0.7577464;4.834124;-0.0922991;1.056936;4.70178;-0.08255452;1.750285;5.361028;0.03118145;2.100036;6.230441;-0.108748;0.2457361;2.772675;-0.1890869;0.2173577;1.310123;-0.2205934;0;0;0;0.2457361;2.772675;-0.1890869;0.2173577;1.310123;-0.2205934;0;0;0
156786.1514;NotLabelled;16384;-0.2437673;-0.4736842;-0.7952394;0.2894737;0;2;0;2562;-2802;1515;65536;0.5832226;0.5152354;0.5055401;-0.3725762;-3;2;0;-303;-4076;-687;8192;0.8788981;0.3601108;0.09141274;-0.299169;3;3;-3;-1934;-2743;2311;32768;0.7162487;0.4307479;0.3698061;-0.4058172;-4;3;0;1153;-3777;-1226;256;0.4390582;-0.5915393;-0.3628809;-0.5706371;0;0;1;-305;3854;-1445;128;-0.4556787;0.5166205;0.5287704;0.4958449;-2;-1;-1;-363;4215;56;4;-0.01385042;0;-0.7145513;-0.699446;0;-1;0;77;4086;86;16;0.5027701;-0.6600272;0.3711911;0.4168975;0;0;0;317;3958;990;2;0.7036011;-0.7069834;0.04847645;-0.05263158;0;-3;0;-587;4034;-37;8;0.4058172;-0.4695291;0.4639889;0.6321149;0;0;0;-299;3971;1003;0.5579966;2.815296;-0.192097;0.5638224;3.346202;-0.3175029;0.568938;3.812402;-0.4297032;0.5196447;4.497468;-0.1714064;0.2387446;4.796776;-0.09229914;-0.09066581;4.619201;-0.08255478;-0.7405375;5.259366;-0.244369;-0.7635819;6.18574;-0.4420948;0.7577464;4.834124;-0.0922991;1.056936;4.70178;-0.08255452;1.750027;5.361727;0.02866578;2.10022;6.230751;-0.1125795;0.2457361;2.772675;-0.1890869;0.2173577;1.310123;-0.2205934;0;0;0;0.2457361;2.772675;-0.1890869;0.2173577;1.310123;-0.2205934;0;0;0
156807.1392;NotLabelled;16384;-0.2437673;-0.4736842;-0.7952394;0.2894737;0;2;0;2474;-2802;1487;65536;0.5832226;0.5152354;0.5055401;-0.3725762;-2;2;1;-251;-4000;-689;8192;0.878992;0.3587258;0.09141274;-0.300554;1;3;-3;-1958;-2775;2365;32768;0.7162487;0.4307479;0.3698061;-0.4058172;-3;2;1;1125;-3733;-1282;256;0.4390582;-0.5915393;-0.3628809;-0.5706371;2;0;1;-331;3844;-1463;128;-0.4556787;0.5180055;0.5287123;0.4944598;0;-3;-1;-391;4151;92;4;-0.01385042;0;-0.7145513;-0.699446;0;0;0;47;4062;136;16;0.501385;-0.6602045;0.3711911;0.4182825;0;0;0;295;4000;964;2;0.7036011;-0.7070851;0.04847645;-0.05124654;0;-1;0;-627;4090;-39;8;0.4058172;-0.4695291;0.4639889;0.6321149;0;0;0;-297;3983;951;0.558971;2.814483;-0.1957064;0.564797;3.345406;-0.3210433;0.5699128;3.811621;-0.4331828;0.5206192;4.496653;-0.174797;0.2397189;4.79595;-0.09565121;-0.08969157;4.618374;-0.08593047;-0.7395631;5.25856;-0.2476624;-0.762607;6.184961;-0.4452676;0.7587208;4.833298;-0.09564555;1.05791;4.700954;-0.08591783;1.752892;5.358845;0.02568412;2.103085;6.227888;-0.1154474;0.2467106;2.771863;-0.1927023;0.2183321;1.309314;-0.2243991;0;0;0;0.2467106;2.771863;-0.1927023;0.2183321;1.309314;-0.2243991;0;0;0
156828.269;NotLabelled;16384;-0.2437673;-0.4736842;-0.7952394;0.2894737;1;0;0;2482;-2858;1529;65536;0.5832226;0.5152354;0.5055401;-0.3725762;-2;0;1;-241;-3970;-747;8192;0.8788468;0.3587258;0.09279778;-0.300554;3;1;-3;-1970;-2759;2255;32768;0.7163638;0.4293629;0.3711911;-0.4058172;-3;2;3;1071;-3763;-1206;256;0.4390582;-0.5906874;-0.3642659;-0.5706371;-2;0;1;-269;3814;-1463;128;-0.4556787;0.5180055;0.5287123;0.4944598;0;-1;-1;-395;4131;148;4;-0.01246537;0;-0.7145768;-0.699446;0;0;0;11;4050;56;16;0.501385;-0.6602045;0.3711911;0.4182825;0;-2;0;303;3988;912;2;0.7036011;-0.7070851;0.04847645;-0.05124654;0;2;0;-567;4058;-27;8;0.4058172;-0.4695291;0.4639889;0.6321149;-1;0;0;-301;3935;991;0.558926;2.814511;-0.1994446;0.564752;3.345433;-0.3247814;0.5698678;3.811648;-0.436921;0.5212339;4.497325;-0.1801248;0.2406272;4.797091;-0.1017139;-0.08896569;4.619873;-0.09163426;-0.7391646;5.260038;-0.2521275;-0.7626112;6.186414;-0.4498059;0.7596668;4.833909;-0.1017138;1.05872;4.701283;-0.09163404;1.75363;5.35989;0.01611137;2.104099;6.228193;-0.1288347;0.2466656;2.77189;-0.1964406;0.2178748;1.309285;-0.225013;0;0;0;0.2466656;2.77189;-0.1964406;0.2178748;1.309285;-0.225013;0;0;0
156869.1328;NotLabelled;16384;-0.2437673;-0.4722992;-0.7960628;0.2894737;0;2;-1;2476;-2832;1547;65536;0.5844433;0.5138504;0.5055401;-0.3725762;-2;1;1;-391;-4028;-731;8192;0.8786995;0.3587258;0.09418282;-0.300554;3;0;-3;-1924;-2731;2263;32768;0.7156444;0.4293629;0.3725762;-0.4058172;-3;2;2;1067;-3771;-1272;256;0.4390582;-0.5920222;-0.3642659;-0.5692521;0;0;2;-303;3808;-1503;128;-0.4556787;0.5180055;0.5287123;0.4944598;0;0;0;-465;4111;106;4;-0.01246537;0;-0.7145768;-0.699446;0;0;0;101;4090;18;16;0.501385;-0.6602045;0.3711911;0.4182825;0;-1;0;363;3924;880;2;0.7036011;-0.7070851;0.04847645;-0.05124654;0;0;0;-567;4062;-49;8;0.4058172;-0.4695291;0.4639889;0.6321149;-1;0;0;-303;3991;983;0.5595464;2.81451;-0.1986632;0.5653723;3.345433;-0.324;0.5704883;3.811648;-0.4361396;0.5233578;4.497445;-0.1793827;0.2434091;4.79783;-0.1009901;-0.08657188;4.621337;-0.09090178;-0.7361642;5.261317;-0.2545606;-0.7561079;6.18735;-0.4542168;0.7625283;4.833509;-0.1009898;1.061289;4.700227;-0.09090137;1.755559;5.359537;0.01668477;2.10466;6.22832;-0.1286883;0.2472859;2.77189;-0.1956592;0.2185857;1.309285;-0.2243226;0;0;0;0.2472859;2.77189;-0.1956592;0.2185857;1.309285;-0.2243226;0;0;0
156910.2656;NotLabelled;16384;-0.2437673;-0.4722992;-0.7960628;0.2894737;1;1;0;2450;-2836;1511;65536;0.5841248;0.5138504;0.5069252;-0.3711911;-2;0;0;-295;-4026;-745;8192;0.8791142;0.3573407;0.09556787;-0.300554;2;0;-3;-1888;-2793;2321;32768;0.7165352;0.4279778;0.3739612;-0.4044321;-4;1;2;1081;-3727;-1208;256;0.4376731;-0.5930469;-0.3642659;-0.5692521;0;0;0;-227;3830;-1467;128;-0.4556787;0.5180055;0.5287123;0.4944598;0;0;0;-405;4125;124;4;-0.01246537;0;-0.7145768;-0.699446;0;0;0;31;4094;54;16;0.501385;-0.6593249;0.3711911;0.4196676;0;-2;0;291;4040;906;2;0.7036011;-0.7069834;0.04847645;-0.05263158;0;0;-2;-497;4116;5;8;0.4044321;-0.4695291;0.4639889;0.6330019;-2;0;0;-389;3929;977;0.5565578;2.814707;-0.2004002;0.5623838;3.34563;-0.325737;0.5674997;3.811845;-0.4378766;0.5220097;4.497097;-0.1793741;0.2427746;4.797933;-0.1001715;-0.08761489;4.622183;-0.09047309;-0.7372094;5.262164;-0.254123;-0.7595799;6.187534;-0.456577;0.7619754;4.832403;-0.1001714;1.060427;4.698401;-0.09047276;1.756368;5.356448;0.01400936;2.106163;6.224156;-0.1360238;0.2442973;2.772087;-0.1973962;0.2155968;1.309482;-0.2260592;0;0;0;0.2442973;2.772087;-0.1973962;0.2155968;1.309482;-0.2260592;0;0;0
156931.1402;NotLabelled;16384;-0.2437673;-0.4722992;-0.7960628;0.2894737;1;0;0;2536;-2890;1527;65536;0.5841248;0.5138504;0.5069252;-0.3711911;-2;0;1;-283;-4012;-747;8192;0.8793705;0.3559557;0.09833795;-0.300554;2;0;-2;-1954;-2703;2299;32768;0.7165352;0.4279778;0.3739612;-0.4044321;-4;0;2;1005;-3761;-1260;256;0.4376731;-0.5930469;-0.3642659;-0.5692521;-2;0;0;-265;3816;-1479;128;-0.4556787;0.5193906;0.5273518;0.4944598;0;1;0;-383;4133;154;4;-0.01246537;0;-0.7145768;-0.699446;0;0;0;69;4088;74;16;0.501385;-0.6585432;0.3725762;0.4196676;0;-2;0;299;3954;878;2;0.7036011;-0.7069834;0.04847645;-0.05263158;-2;-1;-2;-575;4118;-29;8;0.4044321;-0.4695291;0.4639889;0.6330019;-1;2;0;-321;3971;1019;0.5563191;2.815226;-0.1975248;0.562149;3.346507;-0.3213276;0.5672685;3.813045;-0.43212;0.5217784;4.498297;-0.1736175;0.2425433;4.799133;-0.09441502;-0.08784617;4.623384;-0.08471669;-0.7374406;5.263364;-0.2483664;-0.7598114;6.188733;-0.45082;0.7617441;4.833603;-0.09441489;1.060196;4.699601;-0.0847162;1.757474;5.357075;0.01430964;2.107269;6.224785;-0.1357238;0.2440585;2.772596;-0.1946537;0.215358;1.309992;-0.2233168;0;0;0;0.2440585;2.772596;-0.1946537;0.215358;1.309992;-0.2233168;0;0;0
156952.2256;NotLabelled;16384;-0.2437673;-0.4709141;-0.7968829;0.2894737;2;0;0;2510;-2828;1637;65536;0.5841248;0.5138504;0.5069252;-0.3711911;-2;1;1;-327;-4020;-773;8192;0.8793705;0.3559557;0.09833795;-0.300554;2;0;-3;-1918;-2779;2335;32768;0.7166369;0.4265928;0.3753462;-0.4044321;-4;0;2;1107;-3723;-1288;256;0.4390582;-0.5920222;-0.3642659;-0.5692521;-2;0;1;-245;3864;-1483;128;-0.4556787;0.5193906;0.5273518;0.4944598;0;1;0;-443;4091;158;4;-0.01246537;0;-0.7132185;-0.700831;0;1;0;131;4092;-12;16;0.5;-0.6595954;0.3725762;0.4196676;0;-3;0;249;3960;918;2;0.7036011;-0.7069834;0.04847645;-0.05263158;-1;0;-2;-549;4082;-29;8;0.4044321;-0.4709141;0.4626039;0.6329867;-2;3;0;-307;3955;973;0.5546161;2.814297;-0.2003077;0.560446;3.345579;-0.3241104;0.5655654;3.812116;-0.4349028;0.518435;4.497913;-0.178146;0.2384863;4.798298;-0.09975323;-0.09149472;4.621805;-0.08966506;-0.7409912;5.261598;-0.2544317;-0.7633593;6.186967;-0.4568859;0.7576054;4.833977;-0.09975314;1.056367;4.700695;-0.08966464;1.753643;5.358169;0.009370804;2.103977;6.225142;-0.1436369;0.2423555;2.771668;-0.1974368;0.2193051;1.308952;-0.2255585;0;0;0;0.2423555;2.771668;-0.1974368;0.2193051;1.308952;-0.2255585;0;0;0
156974.2436;NotLabelled;16384;-0.2437673;-0.4709141;-0.7973847;0.2880886;2;1;0;2446;-2848;1591;65536;0.5841248;0.5138504;0.5069252;-0.3711911;-2;-1;0;-315;-3956;-827;8192;0.8798427;0.3559557;0.09833795;-0.299169;2;0;-3;-1866;-2785;2345;32768;0.7174168;0.4265928;0.3753462;-0.4030471;-4;1;2;1049;-3723;-1326;256;0.4390582;-0.5933509;-0.3642659;-0.567867;-1;0;1;-237;3846;-1457;128;-0.4556787;0.5193906;0.5273518;0.4944598;0;1;0;-429;4121;138;4;-0.01385042;0;-0.7131929;-0.700831;0;0;0;85;4082;22;16;0.5;-0.6595954;0.3725762;0.4196676;0;-2;0;265;3938;936;2;0.7036011;-0.7068789;0.04847645;-0.05401662;0;6;-3;-485;4110;83;8;0.4058172;-0.4709141;0.4626039;0.6320997;-2;3;1;-317;3941;1011;0.554872;2.814244;-0.1966732;0.5607019;3.345527;-0.320476;0.5658213;3.812064;-0.4312685;0.5201914;4.497976;-0.1745496;0.2409007;4.798978;-0.09617454;-0.089466;4.623208;-0.08607777;-0.7392502;5.261222;-0.2565078;-0.7609792;6.186592;-0.4590315;0.7600968;4.83352;-0.09617442;1.058565;4.699585;-0.08607733;1.7553;5.357117;0.01633298;2.106266;6.223735;-0.1372359;0.2426114;2.771615;-0.1938023;0.2200159;1.308952;-0.2248651;0;0;0;0.2426114;2.771615;-0.1938023;0.2200159;1.308952;-0.2248651;0;0;0
156995.1183;NotLabelled;16384;-0.2437673;-0.4709141;-0.7973847;0.2880886;2;0;0;2394;-2778;1621;65536;0.5850027;0.5138504;0.5069252;-0.3698061;-2;-1;0;-345;-3970;-739;8192;0.8802459;0.3545706;0.09972299;-0.299169;2;0;-2;-1842;-2803;2349;32768;0.7175131;0.4252077;0.3767313;-0.4030471;-3;0;1;1021;-3749;-1302;256;0.4390582;-0.5933509;-0.3642659;-0.567867;0;0;0;-247;3852;-1473;128;-0.4542936;0.5193906;0.5285454;0.4944598;0;2;0;-439;4083;120;4;-0.01246537;0;-0.7132185;-0.700831;0;0;1;19;4092;62;16;0.5;-0.6587121;0.3725762;0.4210526;-1;-6;0;345;3946;894;2;0.7036011;-0.7068789;0.04847645;-0.05401662;0;5;-3;-509;4096;37;8;0.4058172;-0.4709141;0.4626039;0.6320997;-1;4;1;-377;4023;995;0.5522465;2.814497;-0.2012759;0.5580764;3.34578;-0.3250744;0.5631958;3.812318;-0.4358631;0.5175658;4.498231;-0.1791443;0.2382751;4.799232;-0.1007692;-0.09209154;4.623463;-0.09067249;-0.7424105;5.261477;-0.2590508;-0.7639419;6.186371;-0.4637578;0.7574711;4.833775;-0.1007691;1.05594;4.69984;-0.09067202;1.754637;5.356091;0.006445765;2.106134;6.221961;-0.1500968;0.2399858;2.771868;-0.1984053;0.2170243;1.309152;-0.2265995;0;0;0;0.2399858;2.771868;-0.1984053;0.2170243;1.309152;-0.2265995;0;0;0
157015.2427;NotLabelled;16384;-0.2437673;-0.4709141;-0.7973847;0.2880886;1;0;0;2504;-2808;1583;65536;0.5850027;0.5138504;0.5069252;-0.3698061;-2;0;0;-315;-4050;-791;8192;0.8800879;0.3545706;0.101108;-0.299169;3;0;-2;-1834;-2741;2321;32768;0.7175131;0.4252077;0.3767313;-0.4030471;-3;0;1;957;-3693;-1342;256;0.4390582;-0.5920222;-0.3642659;-0.5692521;0;0;0;-307;3840;-1451;128;-0.4542936;0.5180055;0.5299029;0.4944598;0;3;0;-349;4131;134;4;-0.01246537;0;-0.7132185;-0.700831;0;-2;0;39;4114;26;16;0.5;-0.6579268;0.3739612;0.4210526;0;-10;-1;391;3974;906;2;0.7049862;-0.7053901;0.04847645;-0.05540166;-2;2;-3;-537;4152;21;8;0.4058172;-0.4722992;0.4612188;0.6320784;-2;6;1;-329;3963;1015;0.5513801;2.815001;-0.1994207;0.557206;3.345924;-0.3247539;0.562322;3.812141;-0.4368904;0.5151915;4.497937;-0.1801335;0.2352428;4.798322;-0.1017409;-0.09473817;4.621829;-0.0916526;-0.7456238;5.259844;-0.2578275;-0.7678015;6.184738;-0.4624654;0.754362;4.834002;-0.1017407;1.053123;4.70072;-0.0916521;1.751812;5.357661;0.0007380247;2.102812;6.223533;-0.1569133;0.2391196;2.772381;-0.196417;0.2160691;1.309665;-0.2245387;0;0;0;0.2391196;2.772381;-0.196417;0.2160691;1.309665;-0.2245387;0;0;0
157035.192;NotLabelled;16384;-0.2437673;-0.4709141;-0.7973847;0.2880886;1;1;0;2432;-2818;1621;65536;0.5850027;0.5138504;0.5069252;-0.3698061;-2;0;0;-375;-3992;-695;8192;0.8800879;0.3545706;0.101108;-0.299169;2;0;-1;-1810;-2743;2269;32768;0.7175611;0.4252077;0.3781163;-0.4016621;-4;0;2;1023;-3665;-1374;256;0.4390582;-0.5933509;-0.3642659;-0.567867;0;0;0;-303;3766;-1517;128;-0.4542936;0.5180055;0.5299029;0.4944598;1;4;0;-399;4103;150;4;-0.01385042;0;-0.7131929;-0.700831;0;0;0;175;4052;46;16;0.4986149;-0.6564089;0.3753462;0.4238227;-1;-5;0;249;3974;894;2;0.7067717;-0.7036011;0.04847645;-0.05540166;-1;5;-3;-545;4026;49;8;0.4058172;-0.4736842;0.4598338;0.6320511;-2;2;1;-343;3995;1057;0.5493096;2.814827;-0.1987273;0.5551356;3.34575;-0.3240606;0.5602514;3.811966;-0.4361971;0.5146214;4.497879;-0.1794782;0.2353308;4.798881;-0.1011032;-0.09503585;4.623111;-0.09100647;-0.745355;5.261125;-0.2593845;-0.7668865;6.186018;-0.4640914;0.7545268;4.833423;-0.101103;1.052995;4.699488;-0.09100604;1.751367;5.35643;0.003750205;2.101163;6.222405;-0.155992;0.2370491;2.772207;-0.1957236;0.2144535;1.309544;-0.2267864;0;0;0;0.2370491;2.772207;-0.1957236;0.2144535;1.309544;-0.2267864;0;0;0
157076.2764;NotLabelled;16384;-0.2437673;-0.4695291;-0.798201;0.2880886;1;1;0;2504;-2764;1567;65536;0.5850027;0.5138504;0.5069252;-0.3698061;-2;0;0;-339;-3932;-747;8192;0.8805575;0.3545706;0.101108;-0.2977839;1;-1;-1;-1862;-2799;2333;32768;0.7175611;0.4252077;0.3781163;-0.4016621;-3;0;1;985;-3709;-1394;256;0.4390582;-0.5933509;-0.3642659;-0.567867;-1;0;0;-323;3786;-1473;128;-0.4542936;0.5180055;0.5299029;0.4944598;1;6;0;-393;4101;196;4;-0.01385042;0;-0.7131929;-0.700831;0;-1;0;85;4024;4;16;0.4972299;-0.6574587;0.3753462;0.4238227;-1;-2;0;301;4008;924;2;0.7066618;-0.7036011;0.04847645;-0.0567867;-2;4;-3;-559;4030;-9;8;0.4072022;-0.4750692;0.4598338;0.6301178;-1;2;1;-295;3911;1065;0.5532416;2.813785;-0.2009806;0.5590675;3.344708;-0.3263139;0.5641834;3.810924;-0.4384504;0.5185534;4.496837;-0.1817315;0.2392628;4.797838;-0.1033565;-0.09110387;4.622068;-0.09325978;-0.7413241;5.259892;-0.2627403;-0.7628555;6.184786;-0.4674472;0.7584588;4.83238;-0.1033564;1.056927;4.698446;-0.09325939;1.755392;5.355435;0.0004732609;2.105188;6.22141;-0.1592689;0.240981;2.771164;-0.1979769;0.2183855;1.308501;-0.2290397;0;0;0;0.240981;2.771164;-0.1979769;0.2183855;1.308501;-0.2290397;0;0;0
157096.5644;NotLabelled;16384;-0.2437673;-0.4695291;-0.798201;0.2880886;2;0;0;2374;-2858;1547;65536;0.5850027;0.5138504;0.5069252;-0.3698061;-3;0;0;-347;-4002;-721;8192;0.8811139;0.3531856;0.101108;-0.2977839;2;-1;-1;-1916;-2827;2343;32768;0.7176493;0.4238227;0.3795014;-0.4016621;-3;0;1;1009;-3831;-1328;256;0.4390582;-0.5933509;-0.3642659;-0.567867;-3;0;0;-287;3854;-1491;128;-0.4542936;0.5166205;0.5312533;0.4944598;0;4;0;-353;4201;80;4;-0.01385042;0;-0.7131929;-0.700831;0;0;0;105;4086;66;16;0.4972299;-0.6574587;0.3753462;0.4238227;-1;-3;0;315;3990;908;2;0.7066427;-0.7036011;0.04709141;-0.05817174;-3;3;-3;-623;4038;41;8;0.4072022;-0.4750692;0.4598338;0.6301178;-1;4;1;-315;3993;1069;0.5532415;2.813776;-0.2011135;0.5590635;3.344336;-0.3279763;0.5641758;3.810227;-0.4414557;0.5185459;4.49614;-0.1847369;0.2392551;4.797141;-0.1063618;-0.09111151;4.621371;-0.09626504;-0.7413316;5.259194;-0.2657457;-0.7628634;6.184088;-0.4704523;0.7584512;4.831684;-0.1063618;1.05692;4.697748;-0.09626466;1.757339;5.352758;-0.003262877;2.107644;6.217975;-0.1659727;0.2409811;2.771164;-0.1979772;0.2183855;1.308501;-0.2290398;0;0;0;0.2409811;2.771164;-0.1979772;0.2183855;1.308501;-0.2290398;0;0;0
157117.9092;NotLabelled;16384;-0.2437673;-0.4695291;-0.798201;0.2880886;1;1;0;2604;-2770;1619;65536;0.5870878;0.5124654;0.5069252;-0.368421;-3;0;0;-393;-4108;-709;8192;0.8809539;0.3531856;0.1024931;-0.2977839;2;-2;-1;-1848;-2765;2371;32768;0.7176493;0.4238227;0.3795014;-0.4016621;-3;0;1;1137;-3731;-1328;256;0.4390582;-0.5933509;-0.3642659;-0.567867;-2;0;0;-291;3858;-1469;128;-0.4542936;0.5166205;0.5299608;0.4958449;0;3;0;-445;4159;88;4;-0.01385042;0;-0.7131929;-0.700831;0;-1;1;109;4178;68;16;0.4972299;-0.656666;0.3767313;0.4238227;-1;-5;0;333;3948;878;2;0.7066427;-0.7036011;0.04709141;-0.05817174;-2;5;-3;-561;4084;-37;8;0.4072022;-0.4764543;0.4584487;0.6300813;-1;5;1;-233;3965;1071;0.5529995;2.814831;-0.1906055;0.5588253;3.345737;-0.3160079;0.563941;3.811939;-0.4282049;0.5183033;4.497142;-0.1696013;0.2390102;4.797927;-0.09040683;-0.09135677;4.62213;-0.0808036;-0.7415718;5.260417;-0.2485484;-0.7600262;6.18504;-0.4547718;0.7582062;4.832469;-0.09029603;1.056674;4.698507;-0.08055848;1.756758;5.353953;0.0119046;2.107067;6.219613;-0.1484135;0.240739;2.77221;-0.1875958;0.2181444;1.309638;-0.2226833;0;0;0;0.240739;2.77221;-0.1875958;0.2181444;1.309638;-0.2226833;0;0;0
157138.161;NotLabelled;16384;-0.2437673;-0.4695291;-0.7986996;0.2867036;2;1;0;2500;-2816;1585;65536;0.5870878;0.5124654;0.5069252;-0.368421;-2;0;1;-327;-4182;-695;8192;0.8809539;0.3531856;0.1024931;-0.2977839;1;-3;0;-1840;-2763;2423;32768;0.7176895;0.4238227;0.3808864;-0.400277;-4;-1;1;1075;-3781;-1340;256;0.4390582;-0.5924984;-0.365651;-0.567867;-2;1;0;-267;3782;-1443;128;-0.4529086;0.5166205;0.531145;0.4958449;0;4;0;-423;4151;134;4;-0.01385042;0;-0.7131929;-0.700831;0;0;1;129;4136;64;16;0.4972299;-0.6557701;0.3767313;0.4252077;-1;-6;-1;303;4002;910;2;0.7065274;-0.7036011;0.04709141;-0.05955679;-1;6;-3;-547;4080;83;8;0.4072022;-0.4764543;0.4584487;0.6300813;-1;4;1;-307;3961;1043;0.5495661;2.814509;-0.2004252;0.5553919;3.345417;-0.3258243;0.5605077;3.811619;-0.4380185;0.5155423;4.498137;-0.1828038;0.2365483;4.799594;-0.1051265;-0.09399936;4.624184;-0.09469415;-0.7459064;5.260223;-0.2644021;-0.7647927;6.184276;-0.4731299;0.7557795;4.833606;-0.1051262;1.054109;4.699388;-0.09469348;1.754379;5.355085;-0.005483031;2.102629;6.220388;-0.1720954;0.2373056;2.771889;-0.1974158;0.2146467;1.309226;-0.2284324;0;0;0;0.2373056;2.771889;-0.1974158;0.2146467;1.309226;-0.2284324;0;0;0
157159.4496;NotLabelled;16384;-0.2437673;-0.4695291;-0.7986996;0.2867036;3;-1;1;2514;-2844;1667;65536;0.5858759;0.5138504;0.5069252;-0.368421;-3;-2;0;-425;-4034;-709;8192;0.8819746;0.3518005;0.1024931;-0.2963989;1;-3;0;-1848;-2727;2447;32768;0.7185056;0.4224377;0.3808864;-0.400277;-4;-2;1;1061;-3771;-1378;256;0.4390582;-0.5924984;-0.365651;-0.567867;-1;1;0;-271;3842;-1489;128;-0.4529086;0.5166205;0.531145;0.4958449;0;5;0;-421;4133;194;4;-0.01523546;0;-0.7131646;-0.700831;0;0;1;89;4068;56;16;0.4958449;-0.6559192;0.3767313;0.4265928;-1;0;0;301;3970;864;2;0.7077861;-0.702216;0.04709141;-0.06094183;-2;3;-2;-597;4090;41;8;0.4085872;-0.4778393;0.4570637;0.6291413;-1;6;1;-289;3923;989;0.5500729;2.81361;-0.201517;0.5558987;3.344517;-0.3269161;0.5610144;3.810719;-0.4391103;0.516049;4.497238;-0.1838956;0.237055;4.798694;-0.1062183;-0.09349261;4.623284;-0.09578596;-0.7453998;5.259323;-0.2654936;-0.7671567;6.183737;-0.4723351;0.7562862;4.832706;-0.106218;1.054616;4.698488;-0.09578526;1.756922;5.352241;-0.008328676;2.107528;6.216313;-0.1763796;0.2378123;2.770989;-0.1985076;0.2155246;1.308385;-0.2323921;0;0;0;0.2378123;2.770989;-0.1985076;0.2155246;1.308385;-0.2323921;0;0;0
157180.1624;NotLabelled;16384;-0.2437673;-0.4695291;-0.7986996;0.2867036;2;2;0;2536;-2846;1613;65536;0.5870878;0.5124654;0.5069252;-0.368421;-4;0;0;-469;-4038;-699;8192;0.8818126;0.3518005;0.1038781;-0.2963989;0;-2;-2;-1886;-2755;2361;32768;0.7192755;0.4224377;0.3808864;-0.398892;-4;-2;0;905;-3725;-1462;256;0.4390582;-0.5924984;-0.365651;-0.567867;0;2;0;-263;3798;-1437;128;-0.4529086;0.5152354;0.5311955;0.4972299;0;4;0;-353;4111;130;4;-0.01523546;0;-0.7131646;-0.700831;0;1;1;79;4076;102;16;0.4958449;-0.6559192;0.3767313;0.4265928;-2;0;0;273;3944;932;2;0.7077563;-0.702216;0.04570637;-0.06232687;-1;4;-1;-565;4060;3;8;0.4085872;-0.4792244;0.4570637;0.628087;-1;5;1;-263;3985;991;0.5500729;2.81361;-0.2015222;0.5558985;3.344503;-0.3269821;0.5610142;3.810692;-0.4392297;0.5160488;4.49721;-0.184015;0.2370548;4.798667;-0.1063376;-0.09349284;4.623258;-0.09590553;-0.7454016;5.259295;-0.2656073;-0.7642876;6.183348;-0.4743351;0.7562859;4.832678;-0.1063375;1.054616;4.698461;-0.09590471;1.756577;5.352896;-0.01081896;2.10733;6.216585;-0.1805273;0.2378124;2.77099;-0.1985076;0.2155247;1.308384;-0.2323921;0;0;0;0.2378124;2.77099;-0.1985076;0.2155247;1.308384;-0.2323921;0;0;0
157200.6491;NotLabelled;16384;-0.2437673;-0.4695291;-0.7986996;0.2867036;2;2;0;2430;-2834;1577;65536;0.5879547;0.5124654;0.5069252;-0.367036;-3;0;0;-319;-3974;-797;8192;0.8818126;0.3518005;0.1038781;-0.2963989;1;-1;-2;-1852;-2753;2317;32768;0.7192755;0.4224377;0.3808864;-0.398892;-3;-1;-1;963;-3735;-1404;256;0.4390582;-0.5924984;-0.365651;-0.567867;-1;1;0;-293;3810;-1475;128;-0.4515235;0.5152354;0.5323733;0.4972299;0;6;1;-409;4135;152;4;-0.01523546;0;-0.7131646;-0.700831;-1;1;1;59;4052;108;16;0.4958449;-0.6559192;0.3767313;0.4265928;-1;0;0;373;3926;912;2;0.7076329;-0.702216;0.04570637;-0.06371191;-2;3;-2;-649;4050;-51;8;0.4085872;-0.4792244;0.4556787;0.6290926;-1;3;1;-323;3971;1025;0.5500728;2.81361;-0.2015235;0.5558985;3.344504;-0.3269796;0.5610142;3.810693;-0.4392239;0.5160488;4.497211;-0.1840096;0.2370548;4.798668;-0.1063324;-0.09349289;4.623259;-0.09590013;-0.7454;5.259297;-0.2656084;-0.7640944;6.182861;-0.4765062;0.7562859;4.83268;-0.1063322;1.054616;4.698462;-0.09589934;1.756576;5.352898;-0.01080739;2.107329;6.216587;-0.1805168;0.2378123;2.770989;-0.1985092;0.2155246;1.308384;-0.2323928;0;0;0;0.2378123;2.770989;-0.1985092;0.2155246;1.308384;-0.2323928;0;0;0
157222.148;NotLabelled;16384;-0.2451524;-0.468144;-0.7990885;0.2867036;2;0;1;2538;-2800;1591;65536;0.5879547;0.5124654;0.5069252;-0.367036;-2;-1;0;-277;-3990;-775;8192;0.882277;0.3518005;0.1038781;-0.2950138;2;-3;0;-1828;-2761;2357;32768;0.7200418;0.4224377;0.3808864;-0.3975069;-1;0;1;1039;-3749;-1410;256;0.4390582;-0.5911678;-0.365651;-0.5692521;-2;1;0;-273;3842;-1481;128;-0.4515235;0.5138504;0.5324166;0.4986149;0;5;1;-375;4093;156;4;-0.01523546;0;-0.7131646;-0.700831;-1;0;1;49;4100;72;16;0.4944598;-0.6569639;0.3767313;0.4265928;-1;0;0;333;3996;918;2;0.7076329;-0.702216;0.04570637;-0.06371191;-2;3;-2;-633;4086;-19;8;0.4085872;-0.4792244;0.4556787;0.6290926;-1;4;1;-311;3987;969;0.5533456;2.812554;-0.2045589;0.5591711;3.343435;-0.330068;0.5642866;3.809615;-0.4423587;0.517816;4.496018;-0.1871067;0.2381616;4.796858;-0.1094121;-0.09200034;4.620723;-0.09898814;-0.7429388;5.257544;-0.269482;-0.7622987;6.181106;-0.4803189;0.7573168;4.832009;-0.109412;1.055941;4.698446;-0.09898752;1.758254;5.352915;-0.01712978;2.10861;6.216218;-0.1895999;0.2410851;2.769934;-0.20154;0.2186905;1.307329;-0.2353541;0;0;0;0.2410851;2.769934;-0.20154;0.2186905;1.307329;-0.2353541;0;0;0
157242.3064;NotLabelled;16384;-0.2451524;-0.468144;-0.7990885;0.2867036;2;0;1;2480;-2826;1567;65536;0.5900066;0.5124654;0.5055401;-0.365651;-2;-2;0;-371;-3964;-763;8192;0.882277;0.3518005;0.1038781;-0.2950138;0;-2;0;-1780;-2733;2371;32768;0.7208526;0.4210526;0.3808864;-0.3975069;-2;-2;0;985;-3743;-1380;256;0.4390582;-0.5911678;-0.365651;-0.5692521;-4;1;0;-333;3804;-1445;128;-0.4501385;0.5138504;0.5335881;0.4986149;0;7;0;-395;4129;104;4;-0.01523546;0;-0.7131646;-0.700831;0;0;1;125;4056;4;16;0.4944598;-0.6569639;0.3767313;0.4265928;-1;0;0;273;3974;918;2;0.7075068;-0.702216;0.04570637;-0.06509695;-2;5;-3;-695;4108;3;8;0.4085872;-0.4806094;0.4556787;0.6280351;-1;0;1;-269;3959;977;0.5533456;2.812554;-0.2045586;0.5591711;3.343437;-0.3300644;0.5642866;3.809616;-0.4423522;0.5178161;4.49602;-0.1871002;0.2381617;4.796859;-0.1094055;-0.09200029;4.620725;-0.09898159;-0.7429389;5.257545;-0.2694757;-0.7595012;6.18081;-0.4818491;0.7573169;4.83201;-0.1094054;1.055941;4.698448;-0.09898102;1.758254;5.352916;-0.01712286;2.110954;6.214976;-0.1910287;0.2410851;2.769935;-0.20154;0.2186905;1.307329;-0.2353541;0;0;0;0.2410851;2.769935;-0.20154;0.2186905;1.307329;-0.2353541;0;0;0
157263.1778;NotLabelled;16384;-0.2451524;-0.468144;-0.7995842;0.2853186;3;1;0;2502;-2832;1657;65536;0.5900066;0.5124654;0.5055401;-0.365651;-2;-1;0;-341;-3964;-731;8192;0.882277;0.3518005;0.1038781;-0.2950138;0;-2;0;-1854;-2777;2355;32768;0.7208526;0.4210526;0.3808864;-0.3975069;0;-3;0;1013;-3681;-1358;256;0.4390582;-0.5903089;-0.367036;-0.5692521;-4;1;0;-343;3828;-1425;128;-0.4501385;0.5124654;0.5349185;0.4986149;0;5;0;-399;4153;104;4;-0.0166205;0;-0.7131337;-0.700831;0;2;0;159;4056;112;16;0.4944598;-0.6569639;0.3767313;0.4265928;-1;2;0;289;3968;924;2;0.7075068;-0.702216;0.04570637;-0.06509695;-1;5;-3;-633;3994;85;8;0.4085872;-0.4806094;0.4556787;0.6280351;-1;0;0;-279;3971;1081;0.552565;2.812482;-0.2023152;0.5583865;3.343003;-0.3293378;0.5634985;3.80886;-0.4429577;0.5176836;4.495868;-0.1892157;0.2383217;4.797158;-0.112221;-0.09201939;4.62138;-0.1014605;-0.744687;5.256411;-0.2720194;-0.7616842;6.179676;-0.4843584;0.7575122;4.831785;-0.1122208;1.055999;4.697944;-0.10146;1.758497;5.352413;-0.02119565;2.11084;6.214472;-0.1958231;0.2403046;2.769871;-0.199165;0.2182084;1.307329;-0.2358013;0;0;0;0.2403046;2.769871;-0.199165;0.2182084;1.307329;-0.2358013;0;0;0
157283.5774;NotLabelled;16384;-0.2451524;-0.468144;-0.7995842;0.2853186;3;1;0;2430;-2728;1647;65536;0.5900066;0.5124654;0.5055401;-0.365651;-3;-1;0;-363;-3974;-781;8192;0.8827388;0.3518005;0.1038781;-0.2936288;0;-3;0;-1776;-2813;2409;32768;0.7216147;0.4210526;0.3808864;-0.3961219;-1;-2;0;953;-3715;-1310;256;0.4404432;-0.5892762;-0.367036;-0.5692521;-2;2;0;-321;3816;-1473;128;-0.4487534;0.5124654;0.5347893;0.5;0;4;0;-413;4139;160;4;-0.0166205;0.001385042;-0.7144909;-0.699446;0;2;1;133;4080;50;16;0.4944598;-0.6577563;0.3753462;0.4265928;-1;1;0;363;3902;982;2;0.708707;-0.700831;0.04432133;-0.06786703;0;5;-4;-681;4058;-67;8;0.4085872;-0.4806094;0.4556787;0.6280351;-1;3;1;-299;3965;1031;0.5586349;2.811909;-0.2072734;0.5644602;3.342782;-0.3328201;0.5695756;3.808952;-0.4451439;0.5221648;4.496492;-0.193143;0.2421021;4.797323;-0.1168981;-0.08782618;4.6208;-0.1056741;-0.740533;5.255353;-0.2778496;-0.7575742;6.178619;-0.4901853;0.7612101;4.833165;-0.1170135;1.06001;4.70005;-0.1059288;1.762611;5.354769;-0.02866256;2.115055;6.216437;-0.205013;0.2463743;2.769289;-0.2042511;0.218386;1.306793;-0.2385914;0;0;0;0.2463743;2.769289;-0.2042511;0.218386;1.306793;-0.2385914;0;0;0
157304.2082;NotLabelled;16384;-0.2451524;-0.468144;-0.7995842;0.2853186;2;0;0;2486;-2798;1695;65536;0.5908628;0.5124654;0.5055401;-0.3642659;-3;-1;0;-343;-4028;-825;8192;0.8827388;0.3518005;0.1038781;-0.2936288;0;-2;0;-1788;-2803;2389;32768;0.7208047;0.4224377;0.3808864;-0.3961219;-1;-1;0;1005;-3845;-1382;256;0.4404432;-0.5892762;-0.367036;-0.5692521;-3;2;0;-301;3812;-1453;128;-0.4487534;0.5110803;0.534818;0.501385;0;4;0;-315;4143;192;4;-0.0166205;0;-0.7144922;-0.699446;0;1;1;193;4116;40;16;0.4944598;-0.6577563;0.3753462;0.4265928;-2;1;0;327;3952;946;2;0.708573;-0.700831;0.04432133;-0.06925207;-1;1;-3;-671;4098;21;8;0.4085872;-0.4819945;0.4542936;0.627977;-1;2;1;-231;3951;1061;0.558446;2.811844;-0.2043961;0.5642713;3.342708;-0.3299793;0.5693866;3.808872;-0.4423352;0.5219197;4.496411;-0.1903448;0.24184;4.797242;-0.1141623;-0.0880908;4.620719;-0.1030118;-0.7407185;5.255749;-0.2737242;-0.7575334;6.178519;-0.4882214;0.7609481;4.833084;-0.114162;1.059746;4.699969;-0.1030109;1.76231;5.35447;-0.02359939;2.112452;6.217384;-0.1984359;0.2461855;2.769225;-0.2013708;0.2184391;1.306793;-0.2385428;0;0;0;0.2461855;2.769225;-0.2013708;0.2184391;1.306793;-0.2385428;0;0;0
157324.3102;NotLabelled;16384;-0.2465374;-0.466759;-0.8004606;0.2839335;3;0;0;2488;-2782;1645;65536;0.5908628;0.5124654;0.5055401;-0.3642659;-3;-2;0;-427;-3974;-817;8192;0.8833601;0.3518005;0.1024931;-0.2922437;-1;-4;0;-1848;-2731;2411;32768;0.7208047;0.4224377;0.3808864;-0.3961219;-1;-4;0;981;-3761;-1384;256;0.4404432;-0.5884113;-0.368421;-0.5692521;-2;2;-1;-299;3874;-1435;128;-0.4487534;0.5110803;0.534818;0.501385;-1;3;0;-371;4125;134;4;-0.01800554;0;-0.7144586;-0.699446;0;1;1;131;4134;72;16;0.4944598;-0.6577563;0.3753462;0.4265928;-2;1;0;339;3924;914;2;0.708573;-0.700831;0.04432133;-0.06925207;-1;3;-2;-677;4052;49;8;0.4085872;-0.4819945;0.4542936;0.627977;-1;1;1;-297;3921;1037;0.5576583;2.811776;-0.2020283;0.5634836;3.34264;-0.3276114;0.568599;3.808803;-0.4399673;0.5217804;4.496941;-0.1894925;0.2419895;4.798217;-0.1140123;-0.08811872;4.622047;-0.1025246;-0.7409396;5.256053;-0.2762787;-0.7581953;6.178823;-0.4907408;0.761133;4.833541;-0.1140121;1.059796;4.700153;-0.1025239;1.762968;5.354013;-0.02320743;2.112749;6.216928;-0.1987631;0.2453979;2.769156;-0.199003;0.2179486;1.306793;-0.2389912;0;0;0;0.2453979;2.769156;-0.199003;0.2179486;1.306793;-0.2389912;0;0;0
157345.1296;NotLabelled;16384;-0.2465374;-0.466759;-0.8004606;0.2839335;3;0;0;2490;-2796;1667;65536;0.5917144;0.5124654;0.5055401;-0.3628809;-2;0;0;-403;-3988;-879;8192;0.8833601;0.3518005;0.1024931;-0.2922437;-1;-3;0;-1852;-2729;2409;32768;0.7215641;0.4224377;0.3808864;-0.3947368;-1;-3;0;1065;-3719;-1388;256;0.4404432;-0.5884113;-0.368421;-0.5692521;-1;1;0;-351;3858;-1455;128;-0.4487534;0.5110803;0.534818;0.501385;0;2;0;-371;4133;126;4;-0.01800554;0;-0.7144586;-0.699446;0;0;0;145;4096;108;16;0.4944598;-0.6577563;0.3753462;0.4265928;-2;1;0;339;3950;926;2;0.708573;-0.700831;0.04432133;-0.06925207;-1;3;-1;-631;4068;19;8;0.4085872;-0.4819945;0.4542936;0.627977;-1;0;0;-287;3927;1063;0.5576583;2.811776;-0.2020283;0.5634836;3.34264;-0.3276114;0.568599;3.808803;-0.4399673;0.5217804;4.496941;-0.1894925;0.2419895;4.798217;-0.1140123;-0.08811872;4.622047;-0.1025246;-0.7409396;5.256053;-0.2762787;-0.7580206;6.178324;-0.4928949;0.761133;4.833541;-0.1140121;1.059796;4.700153;-0.1025239;1.762968;5.354013;-0.02320743;2.112884;6.216536;-0.2004139;0.2453979;2.769156;-0.199003;0.2179486;1.306793;-0.2389912;0;0;0;0.2453979;2.769156;-0.199003;0.2179486;1.306793;-0.2389912;0;0;0
157365.5186;NotLabelled;16384;-0.2465374;-0.466759;-0.8004606;0.2839335;2;0;1;2496;-2704;1655;65536;0.5917144;0.5124654;0.5055401;-0.3628809;-2;0;1;-355;-4038;-927;8192;0.8833601;0.3518005;0.1024931;-0.2922437;0;-1;0;-1832;-2769;2321;32768;0.7215641;0.4224377;0.3808864;-0.3947368;0;0;0;1031;-3717;-1398;256;0.4404432;-0.5884113;-0.368421;-0.5692521;-1;2;0;-327;3826;-1425;128;-0.4487534;0.5110803;0.534818;0.501385;0;2;0;-415;4103;122;4;-0.01800554;0;-0.7144586;-0.699446;0;1;1;45;4030;96;16;0.4944598;-0.6577563;0.3753462;0.4265928;-2;0;0;355;3922;916;2;0.708573;-0.700831;0.04432133;-0.06925207;-1;3;-2;-615;4058;21;8;0.4085872;-0.4819945;0.4542936;0.627977;-1;0;0;-295;3949;1097;0.5576583;2.811776;-0.2020283;0.5634836;3.34264;-0.3276114;0.568599;3.808803;-0.4399673;0.5217804;4.496941;-0.1894925;0.2419895;4.798217;-0.1140123;-0.08811872;4.622047;-0.1025246;-0.7409396;5.256053;-0.2762787;-0.7580206;6.178324;-0.4928949;0.761133;4.833541;-0.1140121;1.059796;4.700153;-0.1025239;1.762968;5.354013;-0.02320743;2.112884;6.216536;-0.2004139;0.2453979;2.769156;-0.199003;0.2179486;1.306793;-0.2389912;0;0;0;0.2453979;2.769156;-0.199003;0.2179486;1.306793;-0.2389912;0;0;0
157386.1494;NotLabelled;16384;-0.2465374;-0.466759;-0.8004606;0.2839335;2;0;1;2468;-2758;1711;65536;0.5917144;0.5124654;0.5055401;-0.3628809;-1;-1;1;-375;-3944;-937;8192;0.8833601;0.3518005;0.1024931;-0.2922437;0;-1;0;-1872;-2799;2329;32768;0.7215641;0.4224377;0.3808864;-0.3947368;0;0;1;1025;-3695;-1364;256;0.4404432;-0.5870681;-0.368421;-0.5706371;-1;2;0;-313;3876;-1445;128;-0.4473684;0.5110803;0.5359771;0.501385;0;3;0;-405;4149;148;4;-0.01939058;0;-0.7144224;-0.699446;-1;1;1;105;4074;66;16;0.4930748;-0.6586845;0.3739612;0.4279778;-2;0;0;239;3962;920;2;0.7084363;-0.700831;0.04432133;-0.07063711;-2;3;-1;-753;4054;5;8;0.4085872;-0.4833795;0.4542936;0.6269115;-1;2;0;-245;3961;1011;0.5576707;2.810285;-0.2066319;0.563496;3.34115;-0.3322115;0.5686114;3.807314;-0.4445642;0.5202696;4.495332;-0.1940511;0.2398124;4.795984;-0.1185532;-0.08990485;4.619083;-0.1070739;-0.7432719;5.253089;-0.2787626;-0.7610385;6.175359;-0.4953234;0.7588764;4.832458;-0.118553;1.057834;4.699731;-0.1070733;1.761253;5.353592;-0.02998102;2.110606;6.216113;-0.2082936;0.2454102;2.767666;-0.2036068;0.2182096;1.305377;-0.2463813;0;0;0;0.2454102;2.767666;-0.2036068;0.2182096;1.305377;-0.2463813;0;0;0
157406.2403;NotLabelled;16384;-0.2465374;-0.466759;-0.8004606;0.2839335;2;0;0;2444;-2850;1729;65536;0.5925615;0.5124654;0.5055401;-0.3614958;-1;-2;0;-359;-3904;-973;8192;0.8833601;0.3518005;0.1024931;-0.2922437;-1;-2;0;-1810;-2813;2323;32768;0.7215641;0.4224377;0.3808864;-0.3947368;0;0;1;999;-3753;-1324;256;0.4404432;-0.5861967;-0.3698061;-0.5706371;-2;1;0;-325;3850;-1439;128;-0.4473684;0.5110803;0.5346781;0.5027701;0;2;0;-369;4107;176;4;-0.01939058;0.001385042;-0.714421;-0.699446;0;2;1;87;4086;24;16;0.4930748;-0.6586845;0.3739612;0.4279778;-2;2;-1;215;3968;942;2;0.7082968;-0.700831;0.04432133;-0.07202215;0;1;-2;-697;4058;-35;8;0.4085872;-0.4833795;0.4529086;0.6279129;-1;1;1;-297;3945;1043;0.5574179;2.810369;-0.2098907;0.5632471;3.341582;-0.3339891;0.5683659;3.808058;-0.4450411;0.5207189;4.496673;-0.1960388;0.240563;4.797766;-0.1211829;-0.08932735;4.621215;-0.1092918;-0.7434814;5.254744;-0.2797403;-0.7615802;6.176509;-0.4984105;0.7596625;4.833728;-0.1212988;1.058491;4.700733;-0.109548;1.762252;5.354802;-0.03751683;2.111197;6.217323;-0.2166271;0.2451574;2.767741;-0.2069941;0.2176461;1.305377;-0.2468794;0;0;0;0.2451574;2.767741;-0.2069941;0.2176461;1.305377;-0.2468794;0;0;0
157428.1466;NotLabelled;16384;-0.2479224;-0.466759;-0.8005229;0.2825485;0;0;-1;2434;-2770;1633;65536;0.5925615;0.5124654;0.5055401;-0.3614958;-1;0;0;-319;-4014;-919;8192;0.8833601;0.3518005;0.1024931;-0.2922437;0;-2;0;-1796;-2811;2365;32768;0.7215641;0.4224377;0.3808864;-0.3947368;-1;-2;1;977;-3757;-1288;256;0.4404432;-0.5861967;-0.3698061;-0.5706371;-2;1;0;-325;3822;-1477;128;-0.4473684;0.5096953;0.5359986;0.5027701;1;3;0;-383;4147;96;4;-0.01939058;0.001385042;-0.714421;-0.699446;-1;3;2;133;4082;78;16;0.4930748;-0.6594689;0.3725762;0.4279778;-2;2;-1;299;3902;888;2;0.7082968;-0.700831;0.04432133;-0.07202215;0;1;-2;-725;4038;17;8;0.4085872;-0.4847645;0.4529086;0.6268442;-1;0;0;-279;3971;1023;0.5577188;2.809806;-0.2126469;0.563544;3.340664;-0.3382547;0.5686592;3.806822;-0.4506321;0.5208998;4.495437;-0.2016515;0.2407101;4.79653;-0.1269221;-0.08918554;4.619979;-0.1151799;-0.7427559;5.253651;-0.2873259;-0.7607561;6.175417;-0.5060048;0.7598097;4.832493;-0.1268038;1.058632;4.699498;-0.114918;1.762171;5.35314;-0.03707623;2.111197;6.215662;-0.2160293;0.2454582;2.767187;-0.2096193;0.2179649;1.304822;-0.2495164;0;0;0;0.2454582;2.767187;-0.2096193;0.2179649;1.304822;-0.2495164;0;0;0
157448.3478;NotLabelled;16384;-0.2465374;-0.466759;-0.8009505;0.2825485;0;0;-1;2496;-2796;1659;65536;0.5925615;0.5124654;0.5055401;-0.3614958;0;0;0;-379;-4004;-951;8192;0.8832646;0.3531856;0.1024931;-0.2908587;0;-1;0;-1814;-2763;2301;32768;0.7223201;0.4224377;0.3808864;-0.3933518;0;0;0;1087;-3683;-1342;256;0.4404432;-0.5861967;-0.3698061;-0.5706371;-2;0;0;-269;3852;-1401;128;-0.4473684;0.5096953;0.5359986;0.5027701;2;1;0;-383;4119;128;4;-0.02077562;0.001385042;-0.7143821;-0.699446;-1;4;3;163;4088;72;16;0.4930748;-0.6594689;0.3725762;0.4279778;-2;0;-2;327;3972;926;2;0.7082968;-0.700831;0.04432133;-0.07202215;-1;3;-3;-583;4082;49;8;0.4085872;-0.4847645;0.4529086;0.6268442;-3;2;0;-345;3897;1013;0.5572904;2.809732;-0.2098304;0.5631156;3.34059;-0.335438;0.5682308;3.806748;-0.4478155;0.5205281;4.495363;-0.1988241;0.2403555;4.796456;-0.1240309;-0.08953745;4.619905;-0.1122134;-0.744598;5.252112;-0.2840821;-0.7626479;6.173878;-0.5027568;0.7594551;4.832419;-0.1240309;1.058281;4.699424;-0.1122131;1.760001;5.355309;-0.03684592;2.10911;6.217435;-0.217528;0.2450298;2.767112;-0.2068028;0.217908;1.304822;-0.2495663;0;0;0;0.2450298;2.767112;-0.2068028;0.217908;1.304822;-0.2495663;0;0;0
157469.1592;NotLabelled;16384;-0.2465374;-0.4653739;-0.8017561;0.2825485;0;1;0;2464;-2738;1673;65536;0.5925615;0.5124654;0.5055401;-0.3614958;0;0;0;-409;-4002;-913;8192;0.8838171;0.3518005;0.1024931;-0.2908587;0;-2;0;-1768;-2749;2341;32768;0.7223201;0.4224377;0.3808864;-0.3933518;0;0;1;1051;-3701;-1310;256;0.4404432;-0.5875418;-0.3698061;-0.5692521;-3;0;0;-235;3850;-1447;128;-0.4473684;0.5096953;0.5359986;0.5027701;3;2;0;-387;4155;88;4;-0.02216066;0.001385042;-0.7143405;-0.699446;0;3;2;71;4104;108;16;0.4930748;-0.6594689;0.3725762;0.4279778;-2;1;-1;327;3910;1002;2;0.7095227;-0.699446;0.04432133;-0.0734072;-1;6;-3;-635;4072;73;8;0.4072022;-0.4847645;0.4529086;0.6277448;-3;0;1;-269;3949;1017;0.5575427;2.809652;-0.2061844;0.5633679;3.34051;-0.331792;0.5684832;3.806668;-0.4441694;0.5223085;4.495401;-0.1952159;0.2428047;4.79712;-0.1204403;-0.08747955;4.621303;-0.1086145;-0.7419084;5.253297;-0.2836426;-0.759267;6.175063;-0.5023734;0.7619829;4.83193;-0.1204401;1.060512;4.698273;-0.1086138;1.763927;5.352166;-0.03176343;2.113607;6.214294;-0.2113405;0.2452822;2.767033;-0.2031569;0.2186965;1.304822;-0.2488759;0;0;0;0.2452822;2.767033;-0.2031569;0.2186965;1.304822;-0.2488759;0;0;0
157490.5308;NotLabelled;16384;-0.2465374;-0.4653739;-0.8017561;0.2825485;1;0;0;2458;-2752;1641;65536;0.5925615;0.5124654;0.5055401;-0.3614958;0;-1;0;-345;-3954;-837;8192;0.8838171;0.3518005;0.1024931;-0.2908587;0;-3;0;-1798;-2699;2333;32768;0.7223201;0.4224377;0.3808864;-0.3933518;0;0;1;927;-3699;-1232;256;0.4404432;-0.5875418;-0.3698061;-0.5692521;-3;0;0;-277;3848;-1427;128;-0.4473684;0.5083103;0.5386049;0.501385;3;2;0;-401;4113;98;4;-0.02216066;0.001385042;-0.7143405;-0.699446;-2;1;2;99;4032;8;16;0.4930748;-0.6602495;0.3711911;0.4279778;0;-1;-1;219;3924;1058;2;0.7094632;-0.699446;0.04293629;-0.07479224;-2;6;-3;-643;4048;-49;8;0.4072022;-0.4847645;0.4515235;0.6287417;-2;1;1;-273;3979;1127;0.5577577;2.809075;-0.2091717;0.5635751;3.339218;-0.3377635;0.5686834;3.804737;-0.4527614;0.5225086;4.493469;-0.2038075;0.2430048;4.795187;-0.1290317;-0.08727933;4.61937;-0.117206;-0.741785;5.251365;-0.2919466;-0.7591432;6.173131;-0.510677;0.762183;4.829998;-0.1290315;1.060712;4.696341;-0.1172053;1.764161;5.350234;-0.04066324;2.11384;6.212361;-0.2202398;0.2454974;2.766473;-0.2058853;0.2189116;1.304262;-0.2516051;0;0;0;0.2454974;2.766473;-0.2058853;0.2189116;1.304262;-0.2516051;0;0;0
157512.2248;NotLabelled;16384;-0.2465374;-0.4653739;-0.8017561;0.2825485;0;0;-1;2422;-2832;1625;65536;0.5934043;0.5124654;0.5055401;-0.3601108;-1;-1;0;-415;-4014;-831;8192;0.8838171;0.3518005;0.1024931;-0.2908587;0;-2;-1;-1836;-2781;2365;32768;0.7223201;0.4224377;0.3808864;-0.3933518;-2;0;0;913;-3783;-1258;256;0.4404432;-0.5866677;-0.3711911;-0.5692521;-3;0;1;-289;3890;-1345;128;-0.4473684;0.5083103;0.5386049;0.501385;3;0;0;-417;4109;152;4;-0.02216066;0.001385042;-0.715694;-0.6980609;0;1;1;37;4038;48;16;0.4930748;-0.6602495;0.3711911;0.4279778;0;-1;0;209;3916;1086;2;0.7091656;-0.699446;0.04293629;-0.07756232;-1;7;-3;-725;4060;83;8;0.4072022;-0.4861496;0.4515235;0.6276714;-2;0;0;-225;3899;1133;0.5629715;2.808944;-0.209153;0.5687889;3.339087;-0.3377449;0.5738971;3.804606;-0.4527427;0.5283619;4.493931;-0.2053146;0.2491433;4.796087;-0.1312454;-0.08131478;4.620621;-0.1190808;-0.7361045;5.252615;-0.2927543;-0.7537503;6.173873;-0.5135942;0.7683554;4.830388;-0.1312455;1.066752;4.696465;-0.1190807;1.770324;5.350358;-0.04368532;2.119632;6.212485;-0.223985;0.2507113;2.766343;-0.2058665;0.2183906;1.304262;-0.2520575;0;0;0;0.2507113;2.766343;-0.2058665;0.2183906;1.304262;-0.2520575;0;0;0
157532.2315;NotLabelled;16384;-0.2465374;-0.4653739;-0.8022428;0.2811634;1;2;-2;2488;-2758;1745;65536;0.5925615;0.5124654;0.5055401;-0.3614958;-1;1;0;-375;-4036;-853;8192;0.8842717;0.3518005;0.1024931;-0.2894737;1;0;-1;-1918;-2765;2385;32768;0.7223201;0.4224377;0.3808864;-0.3933518;-2;0;0;985;-3803;-1310;256;0.4404432;-0.5866677;-0.3711911;-0.5692521;-3;1;0;-329;3892;-1415;128;-0.4473684;0.5083103;0.5386049;0.501385;3;0;0;-385;4207;78;4;-0.02216066;0.001385042;-0.715694;-0.6980609;0;1;0;33;4022;52;16;0.4930748;-0.6593497;0.3711911;0.4293629;0;-2;-1;273;3966;1074;2;0.7092481;-0.699446;0.04155125;-0.07756232;-2;2;-2;-751;4022;21;8;0.4072022;-0.4861496;0.4515235;0.6276714;-2;0;0;-235;3937;1009;0.5598925;2.809134;-0.2108152;0.5657098;3.339277;-0.3394071;0.5708181;3.804796;-0.4544049;0.5252829;4.494121;-0.2069768;0.2460643;4.796277;-0.1329076;-0.08439384;4.62081;-0.120743;-0.7405159;5.250999;-0.2959396;-0.7583266;6.172766;-0.5146336;0.7652763;4.830578;-0.1329076;1.063673;4.696654;-0.1207429;1.767324;5.350579;-0.046363;2.116631;6.212706;-0.226663;0.2476322;2.766532;-0.2075287;0.2153115;1.304452;-0.2537197;0;0;0;0.2476322;2.766532;-0.2075287;0.2153115;1.304452;-0.2537197;0;0;0
157552.2008;NotLabelled;16384;-0.2465374;-0.4653739;-0.8022428;0.2811634;0;1;0;2540;-2734;1721;65536;0.5937565;0.5110803;0.5055401;-0.3614958;-1;0;0;-441;-4044;-779;8192;0.8842717;0.3518005;0.1024931;-0.2894737;2;-3;-1;-1862;-2721;2341;32768;0.7223201;0.4224377;0.3808864;-0.3933518;-2;0;0;1211;-3769;-1328;256;0.4418283;-0.5856254;-0.3711911;-0.5692521;-2;0;0;-287;3850;-1389;128;-0.4487534;0.5083103;0.5374515;0.501385;4;2;0;-399;4185;16;4;-0.02216066;0.001385042;-0.715694;-0.6980609;0;1;0;87;4178;150;16;0.4930748;-0.6593497;0.3711911;0.4293629;0;-4;0;343;3958;980;2;0.7090128;-0.699446;0.04293629;-0.07894737;0;0;-1;-749;4054;71;8;0.4072022;-0.4861496;0.4515235;0.6276714;-2;-1;0;-247;3979;1055;0.5598952;2.809134;-0.2108122;0.5657126;3.339276;-0.3394068;0.5708208;3.804794;-0.4544071;0.5236187;4.494636;-0.2087372;0.2436762;4.79632;-0.1354822;-0.08636983;4.620107;-0.1229279;-0.7424899;5.250297;-0.2981328;-0.7574593;6.171665;-0.5187088;0.7628059;4.831845;-0.1354821;1.061515;4.698656;-0.122927;1.765166;5.35258;-0.04853845;2.114475;6.214707;-0.2288336;0.2476348;2.766532;-0.2075255;0.2153148;1.304452;-0.2537169;0;0;0;0.2476348;2.766532;-0.2075255;0.2153148;1.304452;-0.2537169;0;0;0
157573.1412;NotLabelled;16384;-0.2465374;-0.4653739;-0.8022428;0.2811634;0;1;0;2508;-2716;1719;65536;0.5937565;0.5110803;0.5055401;-0.3614958;-3;2;0;-423;-3990;-773;8192;0.8842717;0.3518005;0.1024931;-0.2894737;1;-1;-2;-1846;-2721;2429;32768;0.7230726;0.4224377;0.3808864;-0.3919668;-2;-1;0;949;-3745;-1322;256;0.4418283;-0.5847451;-0.3725762;-0.5692521;-3;0;0;-335;3860;-1423;128;-0.4487534;0.5069252;0.5387581;0.501385;3;6;0;-343;4165;8;4;-0.02216066;0.001385042;-0.715694;-0.6980609;0;0;1;35;4106;76;16;0.4916897;-0.6596027;0.3725762;0.4293629;0;-3;0;225;3954;908;2;0.7090128;-0.699446;0.04293629;-0.07894737;0;1;-2;-741;4090;99;8;0.4058172;-0.4875346;0.4501385;0.6284885;-2;-1;0;-335;3949;1069;0.5631601;2.808602;-0.2109704;0.5689734;3.338379;-0.3410629;0.5740781;3.80357;-0.4573784;0.5274535;4.493998;-0.2132504;0.2477765;4.796114;-0.1407663;-0.08244478;4.620249;-0.1279458;-0.7392013;5.250927;-0.2989548;-0.7545795;6.172296;-0.5195031;0.7669404;4.831136;-0.140651;1.065515;4.697686;-0.1276906;1.769438;5.351401;-0.05404234;2.118536;6.213131;-0.2366323;0.2508998;2.76601;-0.2075537;0.2184942;1.303929;-0.253685;0;0;0;0.2508998;2.76601;-0.2075537;0.2184942;1.303929;-0.253685;0;0;0
157593.1852;NotLabelled;16384;-0.2465374;-0.4653739;-0.8022428;0.2811634;0;3;0;2454;-2726;1701;65536;0.5934172;0.5110803;0.5069252;-0.3601108;-4;2;0;-349;-3954;-751;8192;0.8841102;0.3518005;0.1038781;-0.2894737;1;-1;-1;-1844;-2817;2339;32768;0.7231495;0.4210526;0.3822715;-0.3919668;-2;0;0;999;-3791;-1342;256;0.4418283;-0.5847451;-0.3725762;-0.5692521;-4;0;0;-337;3928;-1325;128;-0.4473684;0.5055401;0.5412058;0.501385;5;14;0;-329;4105;30;4;-0.02216066;0.001385042;-0.7143405;-0.699446;0;-4;2;59;4028;46;16;0.4916897;-0.658699;0.3725762;0.4307479;0;0;-1;237;3936;912;2;0.7103765;-0.6980609;0.04293629;-0.07894737;0;0;-2;-787;4092;107;8;0.4058172;-0.4875346;0.4501385;0.6284885;-2;-1;1;-265;3939;1161;0.5544252;2.808915;-0.2132634;0.5602345;3.338325;-0.3448464;0.5653356;3.803186;-0.4624708;0.5187114;4.493614;-0.2183427;0.2390344;4.795731;-0.1458582;-0.09118684;4.619865;-0.1330372;-0.7475873;5.250542;-0.3054153;-0.7654235;6.1712;-0.5287284;0.7581984;4.830752;-0.1457437;1.056773;4.697302;-0.1327838;1.760167;5.351689;-0.06004858;2.109696;6.212611;-0.2455974;0.2421651;2.766333;-0.2097171;0.2154007;1.304122;-0.2553325;0;0;0;0.2421651;2.766333;-0.2097171;0.2154007;1.304122;-0.2553325;0;0;0
157613.1559;NotLabelled;16384;-0.2465374;-0.4639889;-0.8030447;0.2811634;1;3;0;2388;-2774;1707;65536;0.5925745;0.5110803;0.5069252;-0.3614958;-4;1;0;-355;-3934;-823;8192;0.88466;0.3504155;0.1038781;-0.2894737;2;-1;-1;-1764;-2875;2343;32768;0.7231495;0.4210526;0.3822715;-0.3919668;-3;0;0;865;-3801;-1278;256;0.4418283;-0.5860903;-0.3725762;-0.567867;-3;-1;1;-277;3842;-1391;128;-0.4473684;0.5041551;0.5424963;0.501385;3;8;0;-375;4149;194;4;-0.02216066;0;-0.7156954;-0.6980609;-2;-7;2;193;4090;84;16;0.4916897;-0.658699;0.3725762;0.4307479;0;-1;-1;281;3980;974;2;0.7102212;-0.6980609;0.04293629;-0.08033241;-1;0;-2;-675;4062;55;8;0.4058172;-0.4875346;0.4501385;0.6284885;-1;0;0;-285;3895;1139;0.5604597;2.808688;-0.2093278;0.566265;3.337725;-0.3423988;0.5713623;3.802254;-0.4613296;0.5263317;4.492797;-0.2172273;0.2473452;4.795541;-0.1446978;-0.08326479;4.620413;-0.131796;-0.7391496;5.250386;-0.3086512;-0.7564974;6.171558;-0.5298712;0.7665861;4.829404;-0.1446979;1.064866;4.695289;-0.1317958;1.770011;5.347881;-0.05990195;2.120084;6.208803;-0.2444243;0.2481998;2.766116;-0.2056523;0.216149;1.304122;-0.2546995;0;0;0;0.2481998;2.766116;-0.2056523;0.216149;1.304122;-0.2546995;0;0;0
157634.1782;NotLabelled;16384;-0.2465374;-0.4639889;-0.8030447;0.2811634;1;3;0;2540;-2806;1697;65536;0.5937663;0.5096953;0.5069252;-0.3614958;-4;1;0;-359;-4106;-843;8192;0.885112;0.3504155;0.1038781;-0.2880886;3;-2;0;-1796;-2813;2321;32768;0.7231495;0.4210526;0.3822715;-0.3919668;-3;0;0;1003;-3769;-1404;256;0.4432133;-0.5850435;-0.3725762;-0.567867;-3;-2;1;-319;3850;-1407;128;-0.4473684;0.5041551;0.5412129;0.5027701;-1;-1;0;-381;4125;126;4;-0.02077562;0;-0.7157369;-0.6980609;0;-6;2;129;4062;112;16;0.4916897;-0.658699;0.3725762;0.4307479;-1;-1;-1;261;3948;946;2;0.7102914;-0.6980609;0.04432133;-0.07894737;-2;-3;-2;-681;4066;81;8;0.4058172;-0.4875346;0.4501385;0.6284885;-1;0;0;-261;3953;1119;0.5608608;2.808783;-0.2120735;0.5666701;3.33819;-0.3436667;0.5717711;3.803049;-0.4612999;0.5250703;4.494102;-0.2189629;0.2453583;4.796371;-0.1472504;-0.08484013;4.620497;-0.1339581;-0.740646;5.25047;-0.3111066;-0.7551577;6.171237;-0.5342066;0.7645178;4.831458;-0.1472501;1.06311;4.69808;-0.1339571;1.768304;5.350697;-0.06276202;2.11838;6.211618;-0.2472805;0.2486007;2.766201;-0.2085265;0.2161522;1.304122;-0.2546974;0;0;0;0.2486007;2.766201;-0.2085265;0.2161522;1.304122;-0.2546974;0;0;0
157655.1088;NotLabelled;16384;-0.2465374;-0.4626039;-0.8038433;0.2811634;1;4;-1;2498;-2688;1715;65536;0.5946105;0.5083103;0.5083103;-0.3601108;-6;3;0;-411;-4054;-879;8192;0.8849483;0.3504155;0.1052632;-0.2880886;2;0;-2;-1762;-2715;2367;32768;0.7231495;0.4210526;0.3822715;-0.3919668;-3;1;0;1005;-3779;-1354;256;0.4432133;-0.5850435;-0.3725762;-0.567867;-3;-3;1;-377;3854;-1357;128;-0.4473684;0.5041551;0.5424963;0.501385;0;-3;0;-391;4181;-18;4;-0.02077562;0;-0.7157369;-0.6980609;0;-5;2;77;4152;80;16;0.4916897;-0.658699;0.3725762;0.4307479;-1;1;-1;247;3980;914;2;0.7102914;-0.6980609;0.04432133;-0.07894737;0;-1;-1;-621;4004;15;8;0.4044321;-0.4875346;0.4501385;0.6293806;-1;-1;0;-259;3929;1091;0.5608607;2.808773;-0.2122006;0.566666;3.33781;-0.3452717;0.5717634;3.802339;-0.4642026;0.5250626;4.493392;-0.2218653;0.2453505;4.79566;-0.1501527;-0.08484785;4.619788;-0.1368604;-0.7406481;5.249542;-0.3148025;-0.7547916;6.169178;-0.5425421;0.76451;4.830749;-0.1501524;1.063103;4.69737;-0.1368594;1.76795;5.350646;-0.06834209;2.118026;6.211568;-0.2528597;0.2486007;2.766201;-0.2085252;0.2161522;1.304122;-0.2546968;0;0;0;0.2486007;2.766201;-0.2085252;0.2161522;1.304122;-0.2546968;0;0;0
157675.2116;NotLabelled;16384;-0.2465374;-0.4612188;-0.8046389;0.2811634;0;6;0;2548;-2720;1673;65536;0.5934237;0.5083103;0.5096953;-0.3601108;-6;5;2;-353;-3982;-921;8192;0.8849483;0.3504155;0.1052632;-0.2880886;2;0;-2;-1838;-2767;2365;32768;0.7232212;0.4196676;0.3836565;-0.3919668;-3;2;1;1087;-3693;-1362;256;0.4432133;-0.5855024;-0.3739612;-0.566482;-4;-2;2;-313;3842;-1389;128;-0.4473684;0.5041551;0.5424963;0.501385;3;-3;0;-379;4123;-22;4;-0.02077562;-0.001385042;-0.7157356;-0.6980609;0;-5;2;213;4128;72;16;0.4916897;-0.658699;0.3725762;0.4307479;-1;0;0;303;3928;938;2;0.7102914;-0.6980609;0.04432133;-0.07894737;-1;-2;-1;-695;4012;17;8;0.4044321;-0.4875346;0.4501385;0.6293806;-1;-2;0;-215;3887;1129;0.5608596;2.808686;-0.2091157;0.5666648;3.337723;-0.3421867;0.5717622;3.802252;-0.4611175;0.5272368;4.493999;-0.2203518;0.2484826;4.797321;-0.149366;-0.08227858;4.622535;-0.1357261;-0.7377656;5.25207;-0.3155892;-0.7542979;6.171509;-0.5439667;0.7677517;4.830748;-0.149366;1.065914;4.696445;-0.1357258;1.770674;5.349722;-0.06630504;2.121375;6.209832;-0.2534049;0.2485996;2.766114;-0.2054402;0.2164227;1.304122;-0.2544668;0;0;0;0.2485996;2.766114;-0.2054402;0.2164227;1.304122;-0.2544668;0;0;0
157695.1308;NotLabelled;16384;-0.2451524;-0.4612188;-0.8050619;0.2811634;0;5;0;2500;-2712;1731;65536;0.5946073;0.5069252;0.5096953;-0.3601108;-4;3;1;-377;-3930;-903;8192;0.8853298;0.3490305;0.1066482;-0.2880886;2;-1;-2;-1866;-2709;2327;32768;0.7232212;0.4196676;0.3836565;-0.3919668;-3;0;1;1015;-3721;-1306;256;0.4445983;-0.5844514;-0.3739612;-0.566482;-4;-3;2;-277;3856;-1403;128;-0.4473684;0.5041551;0.5424963;0.501385;3;-3;0;-441;4095;70;4;-0.02077562;-0.001385042;-0.7157356;-0.6980609;-1;-6;2;229;4064;74;16;0.4916897;-0.6594806;0.3711911;0.4307479;0;0;0;269;3958;974;2;0.7102914;-0.6980609;0.04432133;-0.07894737;0;0;-1;-715;4050;41;8;0.4044321;-0.4875346;0.4501385;0.6293806;-1;-3;0;-227;3975;1167;0.5610778;2.808114;-0.2118442;0.5668831;3.337151;-0.3449152;0.5719805;3.801681;-0.4638461;0.5257816;4.493931;-0.2248519;0.2463003;4.796775;-0.1546853;-0.08404979;4.621244;-0.1406542;-0.7409404;5.249816;-0.3187572;-0.754649;6.168834;-0.5490075;0.765489;4.831427;-0.1546851;1.063965;4.697865;-0.1406537;1.770264;5.349798;-0.07432508;2.120969;6.209907;-0.2614211;0.2488178;2.765542;-0.2081686;0.2166416;1.303551;-0.2571957;0;0;0;0.2488178;2.765542;-0.2081686;0.2166416;1.303551;-0.2571957;0;0;0
157715.1384;NotLabelled;16384;-0.2451524;-0.4598338;-0.8058538;0.2811634;0;5;0;2496;-2812;1639;65536;0.5946073;0.5069252;0.5096953;-0.3601108;-4;2;0;-347;-3908;-891;8192;0.8853298;0.3490305;0.1066482;-0.2880886;3;-2;-2;-1774;-2909;2353;32768;0.7239701;0.4196676;0.3836565;-0.3905817;-3;1;1;911;-3793;-1278;256;0.4445983;-0.5857908;-0.3739612;-0.5650969;-4;-3;2;-307;3866;-1347;128;-0.4487534;0.5041551;0.5426306;0.5;3;-2;0;-333;4157;64;4;-0.02077562;-0.004155125;-0.7157248;-0.6980609;-1;-4;2;191;4000;0;16;0.4916897;-0.6594806;0.3711911;0.4307479;0;2;0;223;3966;1012;2;0.7102914;-0.6980609;0.04432133;-0.07894737;0;-1;-1;-711;4032;111;8;0.4030471;-0.4875346;0.4501385;0.6302685;-1;-4;0;-309;3955;1169;0.5612672;2.807913;-0.205551;0.5670683;3.336577;-0.3400962;0.5721622;3.800773;-0.4603216;0.5275119;4.493138;-0.2213624;0.2487089;4.79661;-0.1512122;-0.08203332;4.62182;-0.1371735;-0.7383115;5.250174;-0.3182766;-0.7512975;6.169192;-0.5485688;0.7679738;4.830101;-0.151212;1.06615;4.695871;-0.1371726;1.772252;5.347804;-0.06877542;2.123677;6.207502;-0.2564093;0.2490073;2.765352;-0.2017474;0.217448;1.30355;-0.2565141;0;0;0;0.2490073;2.765352;-0.2017474;0.217448;1.30355;-0.2565141;0;0;0
157736.2204;NotLabelled;16384;-0.2451524;-0.4598338;-0.8058538;0.2811634;1;5;0;2500;-2796;1679;65536;0.5945976;0.5055401;0.5110803;-0.3601108;-4;3;0;-369;-3986;-895;8192;0.8857793;0.3490305;0.1066482;-0.2867036;3;0;-2;-1738;-2833;2375;32768;0.7239701;0.4196676;0.3836565;-0.3905817;-4;3;1;983;-3791;-1284;256;0.4459834;-0.5860723;-0.3739612;-0.5637119;-7;-2;2;-305;3958;-1373;128;-0.4501385;0.5055401;0.5414681;0.4986149;1;-3;-1;-429;4165;-14;4;-0.02077562;-0.004155125;-0.7157248;-0.6980609;0;-2;2;211;4056;46;16;0.4916897;-0.6602582;0.3698061;0.4307479;0;2;0;177;4006;948;2;0.7102036;-0.6980609;0.04570637;-0.07894737;0;-2;-2;-693;4114;19;8;0.4030471;-0.4875346;0.4501385;0.6302685;0;0;0;-255;3969;1173;0.5621323;2.807337;-0.207493;0.5679334;3.336005;-0.3420218;0.5730273;3.800205;-0.4622328;0.5282547;4.493183;-0.225086;0.2494038;4.796804;-0.1557728;-0.08131983;4.622011;-0.1413335;-0.7364079;5.25036;-0.3267154;-0.7484801;6.168753;-0.5595371;0.7686647;4.830357;-0.155774;1.066855;4.6962;-0.1413357;1.772588;5.34815;-0.06938434;2.1246;6.207848;-0.2559133;0.2498724;2.764775;-0.2036907;0.2184854;1.302974;-0.2585557;0;0;0;0.2498724;2.764775;-0.2036907;0.2184854;1.302974;-0.2585557;0;0;0
157756.6947;NotLabelled;16384;-0.2437673;-0.4584487;-0.8070622;0.2811634;0;6;0;2520;-2760;1733;65536;0.5942426;0.5055401;0.5124654;-0.3587258;-3;2;0;-365;-4086;-931;8192;0.886156;0.3476454;0.1080332;-0.2867036;4;-3;-3;-1764;-2781;2427;32768;0.7232875;0.4182825;0.3850415;-0.3919668;-6;1;2;1019;-3721;-1320;256;0.4473684;-0.5841281;-0.3753462;-0.5637119;-7;-1;3;-275;3922;-1339;128;-0.4501385;0.5055401;0.5414681;0.4986149;-1;-2;-1;-401;4139;184;4;-0.02077562;-0.005540166;-0.7157155;-0.6980609;0;-1;2;171;4064;54;16;0.4930748;-0.6592245;0.3698061;0.4307479;0;1;0;291;3928;1006;2;0.7101131;-0.6980609;0.04709141;-0.07894737;-1;-3;-2;-629;4160;83;8;0.4030471;-0.4875346;0.4501385;0.6302685;0;-1;0;-233;3965;1255;0.5576008;2.808323;-0.2029266;0.5634021;3.336991;-0.3374555;0.5684959;3.801191;-0.4576667;0.5226781;4.495231;-0.2238443;0.2433804;4.798788;-0.156068;-0.08710274;4.623602;-0.1408973;-0.7444675;5.250779;-0.3221417;-0.7594892;6.168431;-0.5576941;0.7625938;4.833068;-0.1560679;1.060967;4.699399;-0.1408965;1.768605;5.349993;-0.07570374;2.120521;6.209286;-0.2642729;0.2453409;2.765761;-0.1991244;0.2140745;1.304064;-0.2567437;0;0;0;0.2453409;2.765761;-0.1991244;0.2140745;1.304064;-0.2567437;0;0;0
157777.2374;NotLabelled;16384;-0.2437673;-0.4570637;-0.8078474;0.2811634;0;2;1;2446;-2788;1811;65536;0.5954181;0.5041551;0.5124654;-0.3587258;-3;1;0;-447;-4012;-871;8192;0.8866029;0.3476454;0.1080332;-0.2853186;4;-2;-3;-1678;-2767;2401;32768;0.7240973;0.4168975;0.3864266;-0.3905817;-7;0;3;959;-3781;-1368;256;0.4473684;-0.5854616;-0.3753462;-0.5623268;-5;-1;2;-273;3846;-1325;128;-0.4501385;0.5069252;0.5401716;0.4986149;-9;-11;0;-401;4107;-36;4;-0.02077562;-0.005540166;-0.7157155;-0.6980609;0;-3;1;151;4134;30;16;0.4916897;-0.6602582;0.3698061;0.4307479;0;-1;-1;215;3960;1032;2;0.7101131;-0.6980609;0.04709141;-0.07894737;0;1;-1;-557;4082;151;8;0.4030471;-0.4875346;0.4501385;0.6302685;1;0;0;-321;3887;1183;0.5621023;2.807244;-0.2042822;0.5679076;3.336288;-0.3373204;0.5730051;3.800826;-0.4562226;0.5287448;4.494977;-0.2224344;0.2501292;4.799164;-0.1546736;-0.0807465;4.624722;-0.1394953;-0.7374114;5.25168;-0.3240018;-0.7488781;6.168897;-0.5614471;0.7694183;4.832278;-0.1546737;1.06749;4.697941;-0.139495;1.774996;5.348543;-0.07294953;2.128061;6.206591;-0.2650017;0.2498423;2.764672;-0.2006095;0.218756;1.302973;-0.2583262;0;0;0;0.2498423;2.764672;-0.2006095;0.218756;1.302973;-0.2583262;0;0;0
157798.493;NotLabelled;16384;-0.2437673;-0.4570637;-0.8078474;0.2811634;0;4;1;2538;-2666;1727;65536;0.5954181;0.5041551;0.5124654;-0.3587258;-4;4;0;-509;-4012;-883;8192;0.8864331;0.3476454;0.1094183;-0.2853186;4;-1;-3;-1822;-2643;2517;32768;0.7240973;0.4168975;0.3864266;-0.3905817;-7;0;1;895;-3675;-1404;256;0.4487534;-0.5844006;-0.3753462;-0.5623268;-5;-2;2;-343;3888;-1307;128;-0.4501385;0.5083103;0.5388684;0.4986149;-11;-17;-1;-373;4147;162;4;-0.02077562;-0.005540166;-0.7157155;-0.6980609;0;-5;0;141;4066;52;16;0.4916897;-0.6602582;0.3698061;0.4307479;0;-1;0;227;3938;1084;2;0.7101131;-0.6980609;0.04709141;-0.07894737;0;1;0;-581;4050;67;8;0.4030471;-0.4875346;0.4501385;0.6302685;1;0;0;-223;3947;1189;0.5621052;2.807254;-0.2041489;0.5679146;3.336673;-0.335691;0.5730157;3.801544;-0.4532795;0.5270784;4.496187;-0.221281;0.2477345;4.799889;-0.1543468;-0.08273131;4.624706;-0.1387749;-0.7394325;5.251665;-0.3231516;-0.7508957;6.16888;-0.5605972;0.7669441;4.834228;-0.1543467;1.06533;4.700633;-0.1387745;1.77247;5.351884;-0.07474446;2.125539;6.209932;-0.2667917;0.2498451;2.764672;-0.2006062;0.2187595;1.302974;-0.2583233;0;0;0;0.2498451;2.764672;-0.2006062;0.2187595;1.302974;-0.2583233;0;0;0
157819.1414;NotLabelled;16384;-0.2437673;-0.4570637;-0.8078474;0.2811634;0;5;1;2432;-2770;1761;65536;0.5942233;0.5041551;0.5138504;-0.3587258;-4;5;0;-425;-3944;-1007;8192;0.886975;0.3462604;0.1094183;-0.2853186;4;0;-4;-1758;-2771;2535;32768;0.7248983;0.4155124;0.3878116;-0.3891967;-7;1;0;871;-3691;-1520;256;0.4487534;-0.5848403;-0.3767313;-0.5609418;-3;0;3;-303;3826;-1375;128;-0.4501385;0.5110803;0.5362419;0.4986149;-7;-11;-1;-431;4155;528;4;-0.01800554;-0.006925208;-0.7157784;-0.6980609;0;-2;-1;235;4122;100;16;0.4916897;-0.6593525;0.3698061;0.432133;1;0;0;245;3926;1016;2;0.7102036;-0.6980609;0.04570637;-0.07894737;0;2;1;-683;4020;77;8;0.4030471;-0.4875346;0.4501385;0.6302685;0;0;0;-233;3965;1165;0.5597972;2.807554;-0.2082474;0.5656148;3.337711;-0.3367817;0.5707232;3.803243;-0.4517289;0.5269759;4.498552;-0.22131;0.2485958;4.803297;-0.1551052;-0.08243117;4.629208;-0.1391862;-0.7388668;5.256167;-0.3245059;-0.7527381;6.173182;-0.5625948;0.7679125;4.835974;-0.1551052;1.065867;4.701462;-0.139186;1.774827;5.3507;-0.07485199;2.128644;6.207486;-0.2711147;0.2475369;2.764952;-0.204966;0.2159387;1.303154;-0.2597842;0;0;0;0.2475369;2.764952;-0.204966;0.2159387;1.303154;-0.2597842;0;0;0
157840.3444;NotLabelled;16384;-0.2437673;-0.4556787;-0.8081465;0.2825485;0;4;1;2404;-2758;1707;65536;0.5953956;0.5027701;0.5138504;-0.3587258;-5;4;0;-401;-3944;-997;8192;0.8872475;0.3462604;0.1108033;-0.2839335;5;1;-4;-1678;-2747;2455;32768;0.7249485;0.4141274;0.3891967;-0.3891967;-7;2;0;855;-3765;-1618;256;0.4487534;-0.5848403;-0.3767313;-0.5609418;0;-1;2;-255;3806;-1375;128;-0.4501385;0.5124654;0.5349185;0.4986149;-7;-8;-1;-425;4125;262;4;-0.01800554;-0.006925208;-0.7157784;-0.6980609;0;-1;-1;199;4094;66;16;0.4916897;-0.6593525;0.3698061;0.432133;1;0;0;275;3950;968;2;0.7102036;-0.6980609;0.04570637;-0.07894737;0;2;2;-713;4060;-1;8;0.4030471;-0.4875346;0.4501385;0.6302685;1;-1;0;-263;3977;1103;0.5597974;2.807563;-0.2081163;0.5656189;3.338084;-0.3351389;0.5707308;3.803941;-0.4487588;0.5269837;4.499251;-0.2183398;0.2486035;4.803996;-0.1521351;-0.08242343;4.629907;-0.1362161;-0.7374861;5.258471;-0.3209596;-0.7485433;6.175044;-0.5608941;0.7679203;4.836674;-0.1521351;1.065875;4.70216;-0.1362159;1.774555;5.352045;-0.0754118;2.128767;6.207989;-0.2746125;0.247537;2.764952;-0.2049661;0.2159387;1.303154;-0.2597843;0;0;0;0.247537;2.764952;-0.2049661;0.2159387;1.303154;-0.2597843;0;0;0
157860.1676;NotLabelled;16384;-0.2437673;-0.4542936;-0.8089259;0.2825485;-1;2;1;2442;-2684;1749;65536;0.5953665;0.501385;0.5152354;-0.3587258;-2;4;0;-341;-3900;-1075;8192;0.8876128;0.3448753;0.1121884;-0.2839335;3;0;-2;-1752;-2705;2483;32768;0.725738;0.4127424;0.3891967;-0.3891967;-4;1;0;1043;-3643;-1656;256;0.4487534;-0.5848403;-0.3767313;-0.5609418;0;-1;1;-341;3888;-1431;128;-0.4487534;0.5138504;0.5347534;0.4986149;-4;-3;0;-371;4153;176;4;-0.01800554;-0.008310249;-0.7157637;-0.6980609;-1;-1;-1;225;4108;128;16;0.4916897;-0.6593525;0.3698061;0.432133;1;0;0;295;4010;1022;2;0.7102914;-0.6980609;0.04432133;-0.07894737;0;3;2;-849;4012;85;8;0.4030471;-0.4875346;0.4501385;0.6302685;1;1;0;-325;3979;1081;0.5595088;2.807469;-0.2052199;0.5653344;3.338352;-0.3307219;0.5704499;3.804532;-0.4430064;0.5267515;4.499843;-0.2125786;0.2483853;4.804587;-0.1463151;-0.0826383;4.630498;-0.1303262;-0.7377315;5.258308;-0.3175063;-0.7486898;6.174232;-0.559911;0.767702;4.837264;-0.1464248;1.06566;4.702752;-0.1305686;1.775894;5.351423;-0.07518399;2.132365;6.206081;-0.2758691;0.2472483;2.764849;-0.2022018;0.2158839;1.303153;-0.2598304;0;0;0;0.2472483;2.764849;-0.2022018;0.2158839;1.303153;-0.2598304;0;0;0
157880.1986;NotLabelled;16384;-0.2437673;-0.4542936;-0.8089259;0.2825485;-2;3;1;2534;-2700;1705;65536;0.5965302;0.5;0.5152354;-0.3587258;0;2;0;-323;-3860;-1159;8192;0.8876128;0.3448753;0.1121884;-0.2839335;3;0;-1;-1726;-2723;2457;32768;0.7257354;0.4127424;0.3905817;-0.3878116;-3;1;0;975;-3679;-1744;256;0.4487534;-0.5857301;-0.3753462;-0.5609418;-1;-1;1;-291;3900;-1357;128;-0.4501385;0.5152354;0.5322508;0.4986149;-2;-4;0;-371;4101;122;4;-0.0166205;-0.008310249;-0.7157972;-0.6980609;-1;-1;-1;177;4108;84;16;0.4916897;-0.6593525;0.3698061;0.432133;1;-1;0;181;4036;928;2;0.7102914;-0.6980609;0.04432133;-0.07894737;0;0;1;-893;4004;97;8;0.4030471;-0.4875346;0.4501385;0.6302685;1;-1;0;-205;3953;1083;0.560374;2.807579;-0.2073915;0.5662035;3.338819;-0.3313749;0.5713225;3.805318;-0.4423259;0.5269446;4.500074;-0.2103616;0.2482833;4.804406;-0.1434433;-0.0825752;4.629967;-0.127864;-0.7371922;5.258311;-0.314918;-0.7447867;6.173774;-0.5591825;0.7675686;4.837579;-0.1434432;1.065653;4.703315;-0.1278633;1.775739;5.351826;-0.06880498;2.130901;6.206478;-0.2718222;0.2481134;2.764951;-0.204505;0.2164841;1.303154;-0.2593305;0;0;0;0.2481134;2.764951;-0.204505;0.2164841;1.303154;-0.2593305;0;0;0
157900.152;NotLabelled;16384;-0.2437673;-0.4542936;-0.8084408;0.2839335;-2;5;0;2440;-2796;1781;65536;0.5965302;0.5;0.5152354;-0.3587258;0;4;0;-397;-3898;-1123;8192;0.8881497;0.3434903;0.1121884;-0.2839335;1;-1;0;-1702;-2737;2507;32768;0.7265213;0.4113573;0.3905817;-0.3878116;-1;0;-1;1001;-3691;-1730;256;0.4487534;-0.5861655;-0.3767313;-0.5595568;-2;-1;2;-303;3874;-1361;128;-0.4501385;0.5152354;0.5322508;0.4986149;0;-7;0;-345;4133;56;4;-0.0166205;-0.008310249;-0.7157972;-0.6980609;-1;0;-1;197;4086;60;16;0.4916897;-0.6593525;0.3698061;0.432133;0;1;1;185;3958;976;2;0.7102914;-0.6980609;0.04432133;-0.07894737;0;-3;1;-807;4044;35;8;0.4030471;-0.4875346;0.4501385;0.6302685;1;-2;0;-219;3963;1111;0.560374;2.807579;-0.2073915;0.5662035;3.338819;-0.3313749;0.5713225;3.805318;-0.4423259;0.5293688;4.500736;-0.211897;0.2517403;4.806108;-0.1454271;-0.07966052;4.632764;-0.1291669;-0.7310972;5.264596;-0.3155737;-0.738692;6.180059;-0.5598384;0.7711289;4.837619;-0.1459509;1.068796;4.702437;-0.1303247;1.782895;5.346776;-0.07405317;2.140353;6.200135;-0.2784709;0.2481134;2.764951;-0.204505;0.2164841;1.303154;-0.2593305;0;0;0;0.2481134;2.764951;-0.204505;0.2164841;1.303154;-0.2593305;0;0;0
157921.1264;NotLabelled;16384;-0.2437673;-0.4542936;-0.8084408;0.2839335;-3;4;0;2384;-2792;1753;65536;0.5944943;0.5;0.5166205;-0.3601108;1;3;-1;-351;-3914;-1059;8192;0.8881497;0.3434903;0.1121884;-0.2839335;0;-1;-1;-1756;-2683;2501;32768;0.7265213;0.4113573;0.3905817;-0.3878116;0;0;-2;875;-3655;-1688;256;0.4487534;-0.5861655;-0.3767313;-0.5595568;-3;0;2;-317;3904;-1361;128;-0.4501385;0.5166205;0.532204;0.4972299;1;-8;-1;-401;4107;186;4;-0.0166205;-0.008310249;-0.7157972;-0.6980609;0;-1;0;165;4032;134;16;0.4916897;-0.6594806;0.3711911;0.4307479;0;-1;0;299;4014;934;2;0.7103562;-0.6980609;0.04570637;-0.07756232;0;-6;1;-715;4030;53;8;0.4030471;-0.4861496;0.4515235;0.6303476;1;-1;0;-253;3973;1127;0.5634114;2.807976;-0.2027179;0.5692408;3.33923;-0.326644;0.57436;3.805741;-0.4375448;0.5321739;4.501158;-0.2071578;0.2544786;4.80653;-0.1409676;-0.07693855;4.633186;-0.1250417;-0.7300434;5.263352;-0.31125;-0.7402464;6.179184;-0.5540328;0.7738675;4.838041;-0.1409678;1.071519;4.70286;-0.1250417;1.783445;5.349349;-0.06596744;2.141108;6.20271;-0.2700241;0.2511507;2.765348;-0.1998361;0.2195768;1.30355;-0.2546943;0;0;0;0.2511507;2.765348;-0.1998361;0.2195768;1.30355;-0.2546943;0;0;0
157941.1652;NotLabelled;16384;-0.2423823;-0.4529086;-0.8096335;0.2839335;-4;3;-1;2346;-2722;1777;65536;0.5944943;0.5;0.5166205;-0.3601108;1;2;0;-293;-3926;-1019;8192;0.8885913;0.3434903;0.1121884;-0.2825485;0;0;0;-1684;-2753;2455;32768;0.7265213;0.4113573;0.3905817;-0.3878116;1;2;-1;849;-3661;-1666;256;0.4501385;-0.5864241;-0.3767313;-0.5581717;-3;-1;2;-249;3822;-1321;128;-0.4515235;0.5166205;0.5310294;0.4972299;0;-10;-1;-307;4141;198;4;-0.0166205;-0.008310249;-0.7157972;-0.6980609;-1;-2;0;129;4098;62;16;0.4916897;-0.6585738;0.3711911;0.432133;0;0;0;233;3970;938;2;0.7105061;-0.6980609;0.04570637;-0.07617728;0;-7;1;-695;4030;43;8;0.4030471;-0.4861496;0.4515235;0.6303476;1;-1;0;-293;3967;1087;0.5609598;2.80816;-0.2036345;0.5667893;3.339412;-0.3275645;0.5719085;3.805923;-0.4384686;0.5296104;4.501937;-0.209911;0.2518715;4.807451;-0.1445652;-0.07952931;4.634113;-0.1282378;-0.7333717;5.263117;-0.3157832;-0.7428178;6.178948;-0.5585971;0.771257;4.839019;-0.1445654;1.068921;4.703912;-0.1282378;1.780754;5.35039;-0.06795013;2.139052;6.203751;-0.2708921;0.2486992;2.765532;-0.2007524;0.2172963;1.303734;-0.2557079;0;0;0;0.2486992;2.765532;-0.2007524;0.2172963;1.303734;-0.2557079;0;0;0
157961.556;NotLabelled;16384;-0.2423823;-0.4529086;-0.8091465;0.2853186;-3;2;0;2382;-2804;1769;65536;0.594817;0.4986149;0.5166205;-0.3614958;2;1;0;-307;-3992;-1001;8192;0.8881497;0.3434903;0.1121884;-0.2839335;0;1;1;-1792;-2659;2427;32768;0.7272642;0.4113573;0.3891967;-0.3878116;3;2;0;1025;-3669;-1550;256;0.4501385;-0.5864241;-0.3767313;-0.5581717;-2;-3;1;-311;3818;-1325;128;-0.4529086;0.5193906;0.5284365;0.4958449;0;-10;0;-413;4111;244;4;-0.0166205;-0.008310249;-0.7157972;-0.6980609;-1;-4;0;175;4078;56;16;0.4916897;-0.6585738;0.3711911;0.432133;0;0;0;323;3964;934;2;0.7105628;-0.6980609;0.04709141;-0.07479224;0;-3;1;-629;4114;59;8;0.4030471;-0.4861496;0.4515235;0.6303476;0;-1;0;-251;3951;1007;0.5609599;2.808169;-0.2034944;0.5667935;3.339792;-0.325827;0.5719162;3.806633;-0.4353285;0.5296181;4.502646;-0.2067704;0.2518793;4.808161;-0.1414246;-0.07952147;4.634823;-0.1250973;-0.7319989;5.265649;-0.3112716;-0.7388401;6.181581;-0.5537934;0.7712648;4.839728;-0.1414247;1.068928;4.704622;-0.1250973;1.780653;5.35111;-0.0636574;2.140862;6.204032;-0.2650551;0.2486992;2.765532;-0.2007508;0.2172963;1.303734;-0.2557071;0;0;0;0.2486992;2.765532;-0.2007508;0.2172963;1.303734;-0.2557071;0;0;0
157983.2528;NotLabelled;16384;-0.2423823;-0.4529086;-0.8091465;0.2853186;-3;3;-1;2362;-2830;1833;65536;0.594817;0.4986149;0.5166205;-0.3614958;1;3;0;-385;-3974;-923;8192;0.8881497;0.3434903;0.1121884;-0.2839335;-1;0;0;-1768;-2759;2523;32768;0.7265239;0.4113573;0.3891967;-0.3891967;3;3;-1;1015;-3731;-1526;256;0.4515235;-0.5866759;-0.3767313;-0.5567867;-3;-4;2;-321;3862;-1273;128;-0.4529086;0.5193906;0.5297327;0.4944598;0;-8;0;-447;4121;196;4;-0.01523546;-0.009695291;-0.7158106;-0.6980609;-1;-6;0;213;4044;96;16;0.4916897;-0.6585738;0.3711911;0.432133;0;0;0;245;3966;974;2;0.7105628;-0.6980609;0.04709141;-0.07479224;0;0;1;-675;4014;19;8;0.4030471;-0.4861496;0.4515235;0.6303476;0;-2;0;-253;3949;1057;0.5617182;2.80816;-0.202905;0.5675482;3.339444;-0.3266994;0.5726677;3.805983;-0.4374846;0.5302594;4.50259;-0.2107613;0.2524777;4.808245;-0.1462622;-0.07890742;4.634916;-0.129533;-0.7308434;5.265741;-0.3175948;-0.7369307;6.181674;-0.5601367;0.7718598;4.839867;-0.146262;1.069535;4.704836;-0.1295323;1.78108;5.351324;-0.06603289;2.141757;6.204691;-0.2646915;0.2494576;2.765531;-0.2000349;0.2180903;1.303734;-0.2550302;0;0;0;0.2494576;2.765531;-0.2000349;0.2180903;1.303734;-0.2550302;0;0;0
158004.3062;NotLabelled;16384;-0.2409972;-0.4529086;-0.8090706;0.2867036;-3;3;-3;2430;-2748;1777;65536;0.594817;0.4986149;0.5166205;-0.3614958;0;6;0;-345;-4022;-1003;8192;0.8881497;0.3434903;0.1121884;-0.2839335;-1;2;0;-1686;-2693;2535;32768;0.7265239;0.4113573;0.3891967;-0.3891967;3;2;-2;995;-3755;-1560;256;0.4515235;-0.5866759;-0.3767313;-0.5567867;-1;-3;2;-269;3940;-1247;128;-0.4542936;0.5207756;0.5271808;0.4944598;0;-8;0;-429;4121;154;4;-0.01523546;-0.009695291;-0.7158106;-0.6980609;-1;-4;0;255;4134;64;16;0.4916897;-0.6585738;0.3711911;0.432133;0;-2;0;237;3954;978;2;0.7105628;-0.6980609;0.04709141;-0.07479224;2;1;0;-745;4078;-3;8;0.4030471;-0.4861496;0.4515235;0.6303476;0;0;0;-281;3945;1047;0.5617185;2.808168;-0.2027711;0.5675523;3.339808;-0.3250302;0.5726753;3.806665;-0.4344672;0.530267;4.503272;-0.2077436;0.2524853;4.808927;-0.1432444;-0.07889979;4.635597;-0.1265153;-0.7308882;5.267297;-0.3114325;-0.7369751;6.183231;-0.5539742;0.7718674;4.840549;-0.1432443;1.069543;4.705518;-0.1265145;1.781074;5.352006;-0.06286705;2.141751;6.205372;-0.2615253;0.2494577;2.765531;-0.2000339;0.2180905;1.303734;-0.2550297;0;0;0;0.2494577;2.765531;-0.2000339;0.2180905;1.303734;-0.2550297;0;0;0
158024.4887;NotLabelled;16384;-0.2409972;-0.4529086;-0.8090706;0.2867036;-5;4;-3;2450;-2824;1819;65536;0.593973;0.4986149;0.5166205;-0.3628809;1;6;0;-301;-3988;-969;8192;0.8881497;0.3434903;0.1121884;-0.2839335;-1;2;0;-1790;-2677;2551;32768;0.7265239;0.4113573;0.3891967;-0.3891967;2;2;-1;1067;-3675;-1472;256;0.4515235;-0.5866759;-0.3767313;-0.5567867;-2;-2;2;-263;3876;-1259;128;-0.4542936;0.5207756;0.5284764;0.4930748;0;-6;0;-457;4109;100;4;-0.01523546;-0.009695291;-0.7158106;-0.6980609;-1;-1;0;211;4072;90;16;0.4916897;-0.6585738;0.3711911;0.432133;0;-2;0;305;3984;1028;2;0.7105628;-0.6980609;0.04709141;-0.07479224;1;-1;0;-787;4030;71;8;0.4030471;-0.4861496;0.4515235;0.6303476;0;0;0;-197;3965;1161;0.5617183;2.808161;-0.2028984;0.5675485;3.339463;-0.3266151;0.5726681;3.806018;-0.4373319;0.5302598;4.502625;-0.2106087;0.2524782;4.80828;-0.1461096;-0.0789069;4.634951;-0.1293804;-0.7309698;5.266651;-0.3140343;-0.7372627;6.183143;-0.5544514;0.7718603;4.839902;-0.1461095;1.069536;4.704871;-0.1293796;1.781093;5.351359;-0.06602061;2.14177;6.204725;-0.2646792;0.2494577;2.765531;-0.200035;0.2180904;1.303734;-0.2550303;0;0;0;0.2494577;2.765531;-0.200035;0.2180904;1.303734;-0.2550303;0;0;0
158045.1468;NotLabelled;16384;-0.2396122;-0.4515235;-0.8097638;0.2880886;-5;3;-1;2404;-2818;1747;65536;0.5927655;0.4986149;0.5180055;-0.3628809;2;4;0;-269;-3978;-959;8192;0.8881497;0.3434903;0.1121884;-0.2839335;-1;0;0;-1668;-2699;2485;32768;0.7257802;0.4113573;0.3891967;-0.3905817;2;1;0;1127;-3761;-1456;256;0.4515235;-0.5866759;-0.3767313;-0.5567867;0;-3;2;-219;3886;-1291;128;-0.4556787;0.5221606;0.5259111;0.4930748;1;-7;0;-453;4113;112;4;-0.0166205;-0.009695291;-0.7171279;-0.6966759;-1;2;0;231;4126;96;16;0.4916897;-0.6585738;0.3711911;0.432133;0;1;0;195;3974;962;2;0.7105628;-0.6980609;0.04709141;-0.07479224;1;-1;0;-777;4046;69;8;0.4030471;-0.4861496;0.4515235;0.6303476;0;-2;0;-295;3917;1151;0.5668938;2.807914;-0.199374;0.5727278;3.339572;-0.321551;0.5778508;3.806446;-0.4309159;0.5354899;4.503053;-0.2041838;0.2577217;4.808708;-0.1396266;-0.07365996;4.635378;-0.1228282;-0.7257419;5.267217;-0.3069428;-0.7347525;6.183519;-0.5479912;0.7771038;4.84033;-0.139735;1.074783;4.705298;-0.1230674;1.786355;5.351969;-0.06176007;2.146834;6.205776;-0.2588736;0.2546331;2.765276;-0.1966438;0.2180372;1.303734;-0.2550758;0;0;0;0.2546331;2.765276;-0.1966438;0.2180372;1.303734;-0.2550758;0;0;0
158065.5672;NotLabelled;16384;-0.2382271;-0.4515235;-0.8101724;0.2880886;-3;0;-1;2392;-2848;1617;65536;0.5931246;0.4986149;0.5166205;-0.3642659;2;1;0;-251;-3932;-855;8192;0.8881497;0.3434903;0.1121884;-0.2839335;0;0;0;-1746;-2663;2411;32768;0.7257802;0.4113573;0.3891967;-0.3905817;0;2;0;999;-3681;-1330;256;0.4515235;-0.5879873;-0.3767313;-0.5554016;-1;-1;1;-213;3890;-1263;128;-0.4556787;0.5221606;0.5272062;0.4916897;1;-5;0;-443;4195;138;4;-0.0166205;-0.009695291;-0.7171279;-0.6966759;0;2;1;169;4020;102;16;0.4916897;-0.6585738;0.3711911;0.432133;-1;0;0;295;3910;890;2;0.7105628;-0.6980609;0.04709141;-0.07479224;0;-1;0;-725;4130;111;8;0.4016621;-0.4847645;0.4515235;0.6322954;0;-1;0;-297;3929;1157;0.5675405;2.807906;-0.1986592;0.5733709;3.339228;-0.3222895;0.5784907;3.805801;-0.4329304;0.5376444;4.502512;-0.2062376;0.2605489;4.808792;-0.1417524;-0.07122429;4.636207;-0.1250165;-0.7240667;5.267635;-0.307838;-0.7298301;6.184681;-0.5461445;0.7800006;4.839249;-0.1417524;1.077372;4.703551;-0.1250161;1.788717;5.350039;-0.05931926;2.149844;6.203848;-0.2552433;0.2552799;2.765276;-0.1958032;0.2188769;1.303734;-0.2543555;0;0;0;0.2552799;2.765276;-0.1958032;0.2188769;1.303734;-0.2543555;0;0;0
158086.1559;NotLabelled;16384;-0.2382271;-0.4529086;-0.8089046;0.2894737;-2;0;-1;2442;-2840;1663;65536;0.5931246;0.4986149;0.5166205;-0.3642659;2;0;-1;-275;-3978;-829;8192;0.8881497;0.3434903;0.1121884;-0.2839335;1;0;0;-1680;-2725;2415;32768;0.7250332;0.4113573;0.3891967;-0.3919668;0;2;0;1063;-3693;-1222;256;0.4529086;-0.5869211;-0.3767313;-0.5554016;-3;0;1;-287;3890;-1189;128;-0.4570637;0.5235457;0.5246274;0.4916897;0;-3;0;-385;4167;56;4;-0.0166205;-0.009695291;-0.7171279;-0.6966759;0;3;1;171;4066;132;16;0.4916897;-0.6585738;0.3711911;0.432133;-1;0;0;269;3924;926;2;0.7107072;-0.6980609;0.04709141;-0.0734072;0;-4;0;-555;4076;47;8;0.4016621;-0.4847645;0.4515235;0.6322954;0;1;0;-321;4001;1115;0.5675433;2.807914;-0.198522;0.5733775;3.339593;-0.3206085;0.5785009;3.806486;-0.4298938;0.5359845;4.503683;-0.205011;0.2581612;4.809477;-0.1413607;-0.07320886;4.636158;-0.1242284;-0.7247813;5.2696;-0.3046003;-0.7305409;6.186647;-0.5429066;0.77754;4.841154;-0.1413607;1.075227;4.706197;-0.1242281;1.786557;5.352685;-0.05837333;2.147524;6.206933;-0.25267;0.2552826;2.765276;-0.1957997;0.2188804;1.303734;-0.2543525;0;0;0;0.2552826;2.765276;-0.1957997;0.2188804;1.303734;-0.2543525;0;0;0
158127.3191;NotLabelled;16384;-0.2382271;-0.4529086;-0.8089046;0.2894737;-1;1;-1;2366;-2810;1721;65536;0.5922717;0.4986149;0.5166205;-0.365651;1;0;-1;-307;-4066;-711;8192;0.8881497;0.3434903;0.1121884;-0.2839335;1;0;0;-1832;-2671;2459;32768;0.7250332;0.4113573;0.3891967;-0.3919668;0;2;0;1041;-3707;-1296;256;0.4529086;-0.5873393;-0.3781163;-0.5540166;-5;0;1;-257;3960;-1199;128;0.4570637;-0.5246274;-0.5235457;-0.4916897;0;-2;0;-401;4125;34;4;-0.0166205;-0.008310249;-0.7171453;-0.6966759;0;0;1;117;4088;140;16;0.4916897;-0.6585738;0.3711911;0.432133;-1;0;0;265;3950;946;2;0.7107072;-0.6980609;0.04709141;-0.0734072;0;-3;0;-637;4062;63;8;0.4030471;-0.4861496;0.4515235;0.6303476;0;0;1;-287;3901;1005;0.5680163;2.808023;-0.2009794;0.5738536;3.339979;-0.3218532;0.5789796;3.80712;-0.4300736;0.538667;4.504955;-0.2067707;0.261816;4.81178;-0.1438489;-0.07010957;4.639563;-0.126371;-0.7215445;5.273004;-0.3072386;-0.7272885;6.1906;-0.5434185;0.7812936;4.841793;-0.143849;1.078544;4.705924;-0.1263711;1.789824;5.352412;-0.05997574;2.150979;6.206659;-0.2539225;0.2557555;2.765379;-0.1983621;0.2191269;1.303734;-0.2541409;0;0;0;0.2557555;2.765379;-0.1983621;0.2191269;1.303734;-0.2541409;0;0;0
158148.3858;NotLabelled;16384;-0.2382271;-0.4529086;-0.8089046;0.2894737;0;0;0;2370;-2770;1729;65536;0.593477;0.4986149;0.5152354;-0.365651;0;1;0;-285;-4114;-731;8192;0.8881497;0.3434903;0.1121884;-0.2839335;2;-1;0;-1782;-2713;2437;32768;0.7250332;0.4113573;0.3891967;-0.3919668;-2;2;1;1033;-3721;-1330;256;0.4529086;-0.5873393;-0.3781163;-0.5540166;-5;0;1;-275;3906;-1197;128;-0.4570637;0.5235457;0.5259221;0.4903047;2;0;0;-397;4151;-20;4;-0.01800554;-0.009695291;-0.7170945;-0.6966759;-1;0;1;109;4074;112;16;0.4916897;-0.6585738;0.3711911;0.432133;-1;0;0;249;3906;922;2;0.7107558;-0.6980609;0.04847645;-0.07202215;0;-2;0;-737;4058;59;8;0.4030471;-0.4861496;0.4515235;0.6303476;-1;1;2;-345;3959;1019;0.5673681;2.8078;-0.1954364;0.5731987;3.339144;-0.3189724;0.5783187;3.805736;-0.4295307;0.5379292;4.503572;-0.2062414;0.2610567;4.810397;-0.1434147;-0.07087491;4.638179;-0.1260512;-0.7221766;5.272519;-0.3042289;-0.7251829;6.190295;-0.5397615;0.7805342;4.840409;-0.1432361;1.077779;4.70454;-0.1256558;1.789008;5.350687;-0.05549514;2.15023;6.204933;-0.2493175;0.2551075;2.765169;-0.1925884;0.2192144;1.303734;-0.2540649;0;0;0;0.2551075;2.765169;-0.1925884;0.2192144;1.303734;-0.2540649;0;0;0
158190.2108;NotLabelled;16384;-0.2382271;-0.4529086;-0.8089046;0.2894737;-1;1;0;2476;-2742;1643;65536;0.5926214;0.4986149;0.5152354;-0.367036;-1;1;0;-323;-4038;-579;8192;0.8886842;0.3421052;0.1121884;-0.2839335;2;-1;-1;-1812;-2697;2467;32768;0.724288;0.4113573;0.3905817;-0.3919668;-3;0;1;1107;-3691;-1316;256;0.4542936;-0.5862687;-0.3781163;-0.5540166;-5;0;0;-195;3862;-1197;128;-0.4570637;0.5221606;0.5272972;0.4903047;3;3;0;-429;4115;12;4;-0.01800554;-0.009695291;-0.7170945;-0.6966759;-1;2;3;171;4026;94;16;0.4916897;-0.6585738;0.3711911;0.432133;-3;2;0;261;3928;934;2;0.7107558;-0.6980609;0.04847645;-0.07202215;1;0;-2;-759;4024;61;8;0.4030471;-0.4861496;0.4515235;0.6303476;-2;1;1;-257;3919;1055;0.5673043;2.807791;-0.1956559;0.5731308;3.338773;-0.3207392;0.5782472;3.805042;-0.4326562;0.5362613;4.503356;-0.2111699;0.2586809;4.809693;-0.1490854;-0.07284206;4.636742;-0.1312106;-0.7242745;5.270184;-0.3120874;-0.7275736;6.188503;-0.5454861;0.7780865;4.840926;-0.1490855;1.075653;4.705801;-0.1312108;1.788831;5.350263;-0.06549144;2.148089;6.204957;-0.2609833;0.2550437;2.765169;-0.1926737;0.2191304;1.303734;-0.2541376;0;0;0;0.2550437;2.765169;-0.1926737;0.2191304;1.303734;-0.2541376;0;0;0
158211.2846;NotLabelled;16384;-0.2368421;-0.4515235;-0.8100848;0.2894737;1;4;0;2426;-2828;1607;65536;0.5914145;0.4986149;0.5166205;-0.367036;-5;2;-1;-237;-4002;-633;8192;0.8886842;0.3421052;0.1121884;-0.2839335;3;0;-1;-1788;-2677;2471;32768;0.724288;0.4113573;0.3905817;-0.3919668;-4;0;0;1055;-3797;-1280;256;0.4542936;-0.5866808;-0.3795014;-0.5526316;-7;0;0;-309;3954;-1169;128;-0.4570637;0.5221606;0.5272972;0.4903047;4;4;0;-327;4113;-28;4;-0.01800554;-0.009695291;-0.7170945;-0.6966759;-1;0;5;91;3984;90;16;0.4916897;-0.6593525;0.3698061;0.432133;-4;2;0;321;3950;836;2;0.7106141;-0.6980609;0.04847645;-0.0734072;1;2;-3;-681;4040;21;8;0.4016621;-0.4861496;0.4515235;0.6312311;-3;0;1;-267;3927;1059;0.5677658;2.80721;-0.1981377;0.5735924;3.338192;-0.3232211;0.5787088;3.804461;-0.435138;0.5389297;4.503406;-0.2152355;0.2623233;4.810769;-0.1538811;-0.06975382;4.63892;-0.1356607;-0.7221373;5.271223;-0.3170931;-0.7278708;6.189365;-0.5511411;0.7818263;4.840339;-0.1538813;1.078956;4.704302;-0.1356608;1.792007;5.348765;-0.06858003;2.151452;6.20346;-0.2637289;0.2555053;2.764588;-0.1951556;0.2196506;1.303154;-0.2566538;0;0;0;0.2555053;2.764588;-0.1951556;0.2196506;1.303154;-0.2566538;0;0;0
158252.1488;NotLabelled;16384;-0.2368421;-0.4515235;-0.8100848;0.2894737;3;6;0;2462;-2716;1647;65536;0.593784;0.4972299;0.5152354;-0.367036;-6;0;-1;-187;-3992;-653;8192;0.8885082;0.3421052;0.1135734;-0.2839335;4;-2;-2;-1824;-2745;2367;32768;0.7250729;0.4099723;0.3905817;-0.3919668;-5;1;1;1099;-3671;-1340;256;0.4556787;-0.5869097;-0.3795014;-0.5512465;-8;-2;1;-295;3932;-1155;128;-0.4570637;0.5207756;0.5286651;0.4903047;2;1;0;-343;4117;12;4;-0.01939058;-0.01108033;-0.7170383;-0.6966759;-1;-2;7;139;4050;110;16;0.4916897;-0.6593525;0.3698061;0.432133;-4;1;0;255;3960;886;2;0.7103738;-0.6980609;0.04986149;-0.07479224;-1;-4;-6;-631;4084;33;8;0.4016621;-0.4875346;0.4515235;0.6301619;-4;0;2;-313;3925;1123;0.5676171;2.806969;-0.1918016;0.5734397;3.337585;-0.3184275;0.5785525;3.803527;-0.431699;0.5386741;4.503046;-0.2136475;0.2620292;4.810543;-0.1531458;-0.07003442;4.638712;-0.1345221;-0.7220309;5.271015;-0.3173403;-0.7215702;6.188875;-0.5525637;0.7815294;4.840162;-0.153146;1.078669;4.704203;-0.1345218;1.791221;5.349308;-0.06831276;2.153577;6.202712;-0.2637289;0.2553567;2.764356;-0.1886857;0.22044;1.303154;-0.2559752;0;0;0;0.2553567;2.764356;-0.1886857;0.22044;1.303154;-0.2559752;0;0;0
158273.151;NotLabelled;16384;-0.2382271;-0.4501385;-0.8104494;0.2894737;5;5;1;2380;-2774;1667;65536;0.593784;0.4972299;0.5152354;-0.367036;-7;0;0;-205;-3990;-619;8192;0.8894814;0.3407202;0.1135734;-0.2825485;5;-4;-2;-1820;-2771;2355;32768;0.7251073;0.4085872;0.3919668;-0.3919668;-6;-1;1;1093;-3735;-1278;256;0.4570637;-0.5849321;-0.3808864;-0.5512465;-9;-2;0;-287;3862;-1173;128;-0.4570637;0.5193906;0.5300259;0.4903047;4;0;0;-389;4071;18;4;-0.01939058;-0.01246537;-0.7183587;-0.6952909;-1;-6;9;137;4092;154;16;0.4916897;-0.6601275;0.368421;0.432133;-5;4;-1;261;3918;940;2;0.7103738;-0.6980609;0.04986149;-0.07479224;0;-2;-8;-585;4038;7;8;0.400277;-0.4875346;0.4515235;0.6310427;-5;-1;2;-275;3915;1063;0.5728184;2.806076;-0.1917853;0.5786369;3.336323;-0.319948;0.5837463;3.801935;-0.4345691;0.5428205;4.50244;-0.2199069;0.2657253;4.809836;-0.1609661;-0.06610096;4.637629;-0.1416048;-0.7170014;5.270673;-0.3257564;-0.7170377;6.188533;-0.5609807;0.7851833;4.840188;-0.160966;1.082509;4.704739;-0.1416042;1.797208;5.347798;-0.07871866;2.159546;6.200356;-0.2778325;0.2605581;2.763472;-0.1885362;0.2201785;1.302568;-0.2591614;0;0;0;0.2605581;2.763472;-0.1885362;0.2201785;1.302568;-0.2591614;0;0;0
158294.1854;NotLabelled;16384;-0.2382271;-0.4501385;-0.8104494;0.2894737;5;4;0;2390;-2804;1647;65536;0.593784;0.4972299;0.5152354;-0.367036;-10;0;-2;-253;-3920;-745;8192;0.8899202;0.3407202;0.1135734;-0.2811634;6;-4;-2;-1692;-2709;2445;32768;0.7251073;0.4085872;0.3919668;-0.3919668;-7;0;2;1067;-3763;-1292;256;0.4584487;-0.5851518;-0.3808864;-0.5498615;-9;-3;0;-327;3902;-1183;128;-0.4584487;0.5193906;0.5301092;0.4889196;4;0;0;-449;4083;0;4;-0.01939058;-0.01246537;-0.7183587;-0.6952909;-3;-7;11;45;4078;138;16;0.4903047;-0.6611568;0.368421;0.432133;-6;1;-2;309;3952;1006;2;0.710128;-0.6980609;0.05124654;-0.07617728;0;0;-9;-585;4016;51;8;0.400277;-0.4889196;0.4501385;0.6309606;-6;-1;2;-293;3879;1057;0.5773085;2.804964;-0.1932818;0.5831232;3.33486;-0.3228902;0.5882289;3.800157;-0.4387807;0.5472072;4.501225;-0.2259815;0.2700755;4.808751;-0.1678981;-0.06173842;4.636565;-0.1481317;-0.712068;5.26961;-0.3342891;-0.7113811;6.187469;-0.5695123;0.7895306;4.839149;-0.1678983;1.086866;4.703779;-0.1481318;1.801474;5.34682;-0.08403265;2.164422;6.199376;-0.2820325;0.2650483;2.762369;-0.1899069;0.2248859;1.301465;-0.2606557;0;0;0;0.2650483;2.762369;-0.1899069;0.2248859;1.301465;-0.2606557;0;0;0
