SEP=;
index;label;RightUpperArm_boneIndex;RightUpperArm_quat9x_w;RightUpperArm_quat9x_x;RightUpperArm_quat9x_y;RightUpperArm_quat9x_z;RightUpperArm_gyroscope_x;RightUpperArm_gyroscope_y;RightUpperArm_gyroscope_z;RightUpperArm_accelerometer_x;RightUpperArm_accelerometer_y;RightUpperArm_accelerometer_z;RightLowerArm_boneIndex;RightLowerArm_quat9x_w;RightLowerArm_quat9x_x;RightLowerArm_quat9x_y;RightLowerArm_quat9x_z;RightLowerArm_gyroscope_x;RightLowerArm_gyroscope_y;RightLowerArm_gyroscope_z;RightLowerArm_accelerometer_x;RightLowerArm_accelerometer_y;RightLowerArm_accelerometer_z;LeftUpperArm_boneIndex;LeftUpperArm_quat9x_w;LeftUpperArm_quat9x_x;LeftUpperArm_quat9x_y;LeftUpperArm_quat9x_z;LeftUpperArm_gyroscope_x;LeftUpperArm_gyroscope_y;LeftUpperArm_gyroscope_z;LeftUpperArm_accelerometer_x;LeftUpperArm_accelerometer_y;LeftUpperArm_accelerometer_z;LeftLowerArm_boneIndex;LeftLowerArm_quat9x_w;LeftLowerArm_quat9x_x;LeftLowerArm_quat9x_y;LeftLowerArm_quat9x_z;LeftLowerArm_gyroscope_x;LeftLowerArm_gyroscope_y;LeftLowerArm_gyroscope_z;LeftLowerArm_accelerometer_x;LeftLowerArm_accelerometer_y;LeftLowerArm_accelerometer_z;Chest_boneIndex;Chest_quat9x_w;Chest_quat9x_x;Chest_quat9x_y;Chest_quat9x_z;Chest_gyroscope_x;Chest_gyroscope_y;Chest_gyroscope_z;Chest_accelerometer_x;Chest_accelerometer_y;Chest_accelerometer_z;Spine_boneIndex;Spine_quat9x_w;Spine_quat9x_x;Spine_quat9x_y;Spine_quat9x_z;Spine_gyroscope_x;Spine_gyroscope_y;Spine_gyroscope_z;Spine_accelerometer_x;Spine_accelerometer_y;Spine_accelerometer_z;RightUpperLeg_boneIndex;RightUpperLeg_quat9x_w;RightUpperLeg_quat9x_x;RightUpperLeg_quat9x_y;RightUpperLeg_quat9x_z;RightUpperLeg_gyroscope_x;RightUpperLeg_gyroscope_y;RightUpperLeg_gyroscope_z;RightUpperLeg_accelerometer_x;RightUpperLeg_accelerometer_y;RightUpperLeg_accelerometer_z;RightLowerLeg_boneIndex;RightLowerLeg_quat9x_w;RightLowerLeg_quat9x_x;RightLowerLeg_quat9x_y;RightLowerLeg_quat9x_z;RightLowerLeg_gyroscope_x;RightLowerLeg_gyroscope_y;RightLowerLeg_gyroscope_z;RightLowerLeg_accelerometer_x;RightLowerLeg_accelerometer_y;RightLowerLeg_accelerometer_z;LeftUpperLeg_boneIndex;LeftUpperLeg_quat9x_w;LeftUpperLeg_quat9x_x;LeftUpperLeg_quat9x_y;LeftUpperLeg_quat9x_z;LeftUpperLeg_gyroscope_x;LeftUpperLeg_gyroscope_y;LeftUpperLeg_gyroscope_z;LeftUpperLeg_accelerometer_x;LeftUpperLeg_accelerometer_y;LeftUpperLeg_accelerometer_z;LeftLowerLeg_boneIndex;LeftLowerLeg_quat9x_w;LeftLowerLeg_quat9x_x;LeftLowerLeg_quat9x_y;LeftLowerLeg_quat9x_z;LeftLowerLeg_gyroscope_x;LeftLowerLeg_gyroscope_y;LeftLowerLeg_gyroscope_z;LeftLowerLeg_accelerometer_x;LeftLowerLeg_accelerometer_y;LeftLowerLeg_accelerometer_z;pelvis_x;pelvis_y;pelvis_z;lowerSpine_x;lowerSpine_y;lowerSpine_z;middleSpine_x;middleSpine_y;middleSpine_z;upperSpine_x;upperSpine_y;upperSpine_z;rightClavicle_x;rightClavicle_y;rightClavicle_z;rightShoulder_x;rightShoulder_y;rightShoulder_z;rightElbow_x;rightElbow_y;rightElbow_z;rightWrist_x;rightWrist_y;rightWrist_z;leftClavicle_x;leftClavicle_y;leftClavicle_z;leftShoulder_x;leftShoulder_y;leftShoulder_z;leftElbow_x;leftElbow_y;leftElbow_z;leftWrist_x;leftWrist_y;leftWrist_z;rightHip_x;rightHip_y;rightHip_z;rightKnee_x;rightKnee_y;rightKnee_z;rightAnkle_x;rightAnkle_y;rightAnkle_z;leftHip_x;leftHip_y;leftHip_z;leftKnee_x;leftKnee_y;leftKnee_z;leftAnkle_x;leftAnkle_y;leftAnkle_z;
304270.7934;NotLabelled;16384;-0.2188366;-0.4376731;-0.8264683;0.2783934;-5;-6;0;2786;-2712;1919;65536;0.5878959;0.4875346;0.5290859;-0.3698061;8;-1;4;-501;-4075;-1065;8192;0.8880299;0.3462604;0.1246537;-0.2756233;-5;5;-1;-1914;-2649;2529;32768;0.6990098;0.4252077;0.4459834;-0.3628809;6;5;0;681;-3909;-1740;256;0.433518;-0.5775623;-0.3642659;-0.5880427;-1;1;-1;-443;3732;-1565;128;-0.4639889;0.5110803;0.522983;0.5;-11;-2;1;-275;4031;12;4;-0.05955679;-0.02770083;-0.6925207;-0.7184015;-2;-9;-6;301;4102;-20;16;0.5221606;-0.6497056;0.3407202;0.434903;-2;-18;6;91;3924;1260;2;0.7133718;-0.6939058;0.07063711;-0.06786703;5;-13;6;-517;3694;235;8;0.4376731;-0.4833795;0.4542936;0.6069628;0;-10;5;23;3963;791;0.3619809;2.806043;-0.1039588;0.3678022;3.336548;-0.2310477;0.372914;3.802391;-0.3447258;0.3120824;4.484221;-0.08039333;0.02613503;4.777902;0.001661023;-0.3001297;4.594553;0.01024559;-0.9892869;5.197182;-0.1319877;-1.012102;6.111101;-0.3810391;0.5444099;4.824258;0.001369298;0.8458647;4.697052;0.00960052;1.551528;5.353019;0.004944801;1.792082;6.222932;-0.2834518;0.0497205;2.763432;-0.1008027;0.1147934;1.312385;-0.2771179;0;0;0;0.0497205;2.763432;-0.1008027;0.1147934;1.312385;-0.2771179;0;0;0
304290.9171;NotLabelled;16384;-0.2188366;-0.4390582;-0.8257334;0.2783934;-4;-3;0;2586;-2728;1839;65536;0.5867445;0.4889196;0.5290859;-0.3698061;11;-1;4;-317;-3949;-1105;8192;0.8875988;0.3462604;0.1246537;-0.2770083;-5;10;-4;-2008;-2789;2431;32768;0.698289;0.4252077;0.4459834;-0.3642659;8;9;-1;595;-3931;-1598;256;0.433518;-0.5775623;-0.3642659;-0.5880427;1;0;0;-437;3790;-1469;128;-0.4639889;0.5110803;0.522983;0.5;-8;-3;1;-311;4175;-22;4;-0.0567867;-0.02770083;-0.6939058;-0.7172884;-3;-3;-9;601;3940;-54;16;0.5180055;-0.6491739;0.3462604;0.4362881;-1;-14;7;-3;3988;928;2;0.7121525;-0.6952909;0.07063711;-0.06648199;4;-8;7;-659;3638;147;8;0.434903;-0.4833795;0.4570637;0.6068743;0;-15;6;-117;4073;717;0.376177;2.806687;-0.1066793;0.3819983;3.337193;-0.2337682;0.3871101;3.803036;-0.3474462;0.3261296;4.484865;-0.08314812;0.04013617;4.778546;-0.001254715;-0.2861333;4.595198;0.007146001;-0.9751661;5.1988;-0.1315153;-1.000493;6.113196;-0.3785673;0.558411;4.824903;-0.001254499;0.859861;4.697697;0.007146478;1.565482;5.353725;0.008022428;1.806124;6.224227;-0.2785151;0.06391655;2.764077;-0.1035233;0.1232381;1.312154;-0.2745759;0;0;0;0.06391655;2.764077;-0.1035233;0.1232381;1.312154;-0.2745759;0;0;0
304310.6328;NotLabelled;16384;-0.2188366;-0.4404432;-0.8245268;0.2797784;-4;-2;-2;2188;-2726;1803;65536;0.5847992;0.4916897;0.5277008;-0.3711911;9;-2;3;-185;-3851;-845;8192;0.8852485;0.3490305;0.1274238;-0.2797784;-7;3;-1;-1560;-2799;2205;32768;0.6959899;0.4265928;0.4459834;-0.367036;5;3;1;397;-3605;-1282;256;0.432133;-0.5775623;-0.3628809;-0.5899155;8;-1;0;-343;3836;-1501;128;-0.4639889;0.5124654;0.5202947;0.501385;-7;-10;1;-309;4103;128;4;-0.05540166;-0.02493075;-0.6952909;-0.7161562;-4;8;-4;469;4100;12;16;0.5152354;-0.6489626;0.3490305;0.4376731;0;-14;8;-51;4028;902;2;0.7110513;-0.6966759;0.07063711;-0.06371191;8;0;6;-805;4050;-115;8;0.432133;-0.4833795;0.4584487;0.6078076;-1;0;6;-437;3999;777;0.3859549;2.80729;-0.1155688;0.391784;3.338501;-0.2396741;0.3969027;3.804976;-0.3507322;0.33495;4.485433;-0.08314493;0.04852423;4.778262;0.0002766624;-0.2774486;4.594354;0.007938713;-0.9654775;5.200014;-0.1266769;-0.9940447;6.116092;-0.3670524;0.5667244;4.825445;0.000276804;0.8683807;4.698682;0.007939398;1.568997;5.360051;0.006066799;1.806506;6.23287;-0.2760057;0.07369426;2.764662;-0.1126716;0.1270585;1.311575;-0.2756007;0;0;0;0.07369426;2.764662;-0.1126716;0.1270585;1.311575;-0.2756007;0;0;0
304330.6232;NotLabelled;16384;-0.2160665;-0.4404432;-0.8247862;0.2811634;-3;2;-7;2370;-2728;1907;65536;0.5814915;0.4930748;0.5290859;-0.3725762;1;6;2;-397;-3985;-811;8192;0.88327;0.3518005;0.1274238;-0.2825485;-3;7;0;-1624;-2893;2225;32768;0.6935145;0.4279778;0.4473684;-0.368421;5;4;3;423;-3761;-1184;256;0.433518;-0.5789474;-0.3614958;-0.5883901;-5;-4;2;-455;3720;-1461;128;0.4653739;-0.5176481;-0.5152354;-0.5;0;-9;0;-345;4161;162;4;-0.05401662;-0.0235457;-0.6966759;-0.7149619;-4;-7;-5;77;4058;26;16;0.5110803;-0.6475495;0.3559557;0.4390582;1;-30;6;145;3958;1014;2;0.708707;-0.699446;0.06925207;-0.06094183;12;-5;6;-739;4164;-163;8;0.4307479;-0.4833795;0.4598338;0.6077446;0;-11;5;-257;4009;921;0.4002643;2.808383;-0.1148611;0.406104;3.340561;-0.2347517;0.4112323;3.807901;-0.3421086;0.3486483;4.488404;-0.07478738;0.06195213;4.781004;0.008510742;-0.2638529;4.596802;0.01623262;-0.9520419;5.202452;-0.1176018;-0.984795;6.119338;-0.3543378;0.5801089;4.82866;0.008510888;0.8818806;4.702176;0.01623309;1.578589;5.367633;0.02253544;1.812991;6.242408;-0.2560518;0.08800354;2.765734;-0.112329;0.1365862;1.311858;-0.2696296;0;0;0;0.08800354;2.765734;-0.112329;0.1365862;1.311858;-0.2696296;0;0;0
304350.7908;NotLabelled;16384;-0.2132964;-0.4404432;-0.8255069;0.2811634;-4;2;-4;2452;-2748;1783;65536;0.5805126;0.4916897;0.5304709;-0.3739612;-1;8;1;-457;-4069;-915;8192;0.8823791;0.3518005;0.1274238;-0.2853186;-1;2;0;-1824;-2795;2433;32768;0.6911774;0.4293629;0.4473684;-0.3711911;3;5;1;691;-3935;-1254;256;0.433518;-0.5803324;-0.3614958;-0.587024;6;-5;1;-323;3790;-1487;128;0.4653739;-0.5203537;-0.5138504;-0.4986149;-1;-7;0;-401;4127;200;4;-0.04570637;-0.02631579;-0.6980609;-0.7140934;-2;-20;-6;427;4098;126;16;0.5041551;-0.6437852;0.365651;0.4445983;1;-19;4;173;3938;998;2;0.7047916;-0.7036011;0.07063711;-0.0567867;7;-9;4;-625;4076;-165;8;0.4265928;-0.4833795;0.4626039;0.6085725;0;-6;3;-243;4067;859;0.4128965;2.809447;-0.1235048;0.4187399;3.341966;-0.2418693;0.4238716;3.809612;-0.3478862;0.3627793;4.490273;-0.08061823;0.07672539;4.783507;0.002655014;-0.2494832;4.600021;0.01038878;-0.9397089;5.203786;-0.1214632;-0.9718847;6.120605;-0.3585423;0.5949857;4.830027;0.002655268;0.896479;4.702881;0.01038969;1.593062;5.368421;0.02064109;1.825853;6.245462;-0.2521069;0.1006355;2.766791;-0.1211048;0.1431271;1.311589;-0.2675345;0;0;0;0.1006355;2.766791;-0.1211048;0.1431271;1.311589;-0.2675345;0;0;0
304371.6183;NotLabelled;16384;-0.2119114;-0.4404432;-0.8253907;0.2825485;-4;0;-3;2484;-2770;1813;65536;0.5805126;0.4916897;0.5304709;-0.3739612;0;5;0;-449;-4145;-903;8192;0.8823791;0.3518005;0.1274238;-0.2853186;0;4;-1;-1752;-2707;2461;32768;0.6895685;0.4307479;0.4473684;-0.3725762;0;4;0;631;-3823;-1194;256;0.433518;-0.5803324;-0.3614958;-0.587024;4;-4;1;-327;3814;-1535;128;0.4653739;-0.5216774;-0.5138504;-0.4972299;-1;-7;0;-469;4207;178;4;-0.04293629;-0.02770083;-0.699446;-0.7128566;-3;-16;-5;485;4114;218;16;0.5027701;-0.6432889;0.368421;0.4445983;1;-9;4;109;4038;1044;2;0.702216;-0.7062816;0.07063711;-0.05540166;8;-12;5;-543;4106;-7;8;0.4252077;-0.4833795;0.4639889;0.6084874;1;-8;3;-321;4075;893;0.4225082;2.810092;-0.1227363;0.4283518;3.342613;-0.2410968;0.4334834;3.81026;-0.3471102;0.3723912;4.49092;-0.07984215;0.08633718;4.784154;0.003431059;-0.2398714;4.600668;0.01116475;-0.9299452;5.205361;-0.1171799;-0.962121;6.122179;-0.3542593;0.6045976;4.830673;0.003431261;0.9060907;4.703528;0.01116562;1.602677;5.369066;0.02121663;1.833042;6.247786;-0.2481788;0.1102473;2.767436;-0.1203368;0.1467295;1.311833;-0.2643712;0;0;0;0.1102473;2.767436;-0.1203368;0.1467295;1.311833;-0.2643712;0;0;0
304392.6168;NotLabelled;16384;-0.2105263;-0.4404432;-0.825745;0.2825485;-4;0;-2;2620;-2852;1821;65536;0.579618;0.4916897;0.5304709;-0.3753462;2;3;0;-445;-4173;-947;8192;0.8823791;0.3518005;0.1274238;-0.2853186;0;5;-2;-1764;-2703;2387;32768;0.6904318;0.4293629;0.4473684;-0.3725762;-2;4;0;697;-3777;-1180;256;0.433518;-0.5817174;-0.3601108;-0.5865042;4;-3;2;-257;3848;-1583;128;0.466759;-0.5218024;-0.5124654;-0.4972299;-2;-10;-2;-495;4247;194;4;-0.04155125;-0.02770083;-0.699446;-0.7129387;-4;-10;-4;461;4164;126;16;0.5027701;-0.6432889;0.368421;0.4445983;2;-7;4;127;3948;1004;2;0.702216;-0.7064934;0.07063711;-0.05263158;9;-13;5;-629;4174;-37;8;0.4252077;-0.4819945;0.4653739;0.6085284;1;-8;3;-363;3997;1003;0.4230467;2.810373;-0.1251929;0.4288905;3.342924;-0.2434182;0.4340224;3.810597;-0.3493126;0.3728732;4.49067;-0.08056834;0.08678858;4.783679;0.003391013;-0.2393891;4.600124;0.01079296;-0.9302318;5.203873;-0.1178643;-0.9617562;6.121249;-0.3528597;0.6050413;4.830281;0.003391266;0.9065564;4.703168;0.01079369;1.603106;5.368707;0.02309847;1.836687;6.246316;-0.2471384;0.1107858;2.767716;-0.1228049;0.1475845;1.311832;-0.2638955;0;0;0;0.1107858;2.767716;-0.1228049;0.1475845;1.311832;-0.2638955;0;0;0
304413.738;NotLabelled;16384;-0.2105263;-0.4404432;-0.8252698;0.2839335;-2;0;0;2568;-2816;1823;65536;0.5787187;0.4916897;0.5304709;-0.3767313;3;1;0;-333;-4123;-955;8192;0.8817288;0.3518005;0.1288089;-0.2867036;1;4;-3;-1748;-2745;2387;32768;0.6896826;0.4293629;0.4473684;-0.3739612;-3;2;1;619;-3709;-1262;256;0.432133;-0.5831025;-0.3601108;-0.5861509;0;-2;3;-175;3850;-1545;128;0.466759;-0.5257779;-0.5110803;-0.4944598;-3;-11;-3;-571;4165;18;4;-0.0401662;-0.02770083;-0.700831;-0.7116567;-7;-3;-4;463;4116;104;16;0.501385;-0.6435751;0.3698061;0.4445983;3;-8;3;221;3970;1024;2;0.700831;-0.7078294;0.07202215;-0.05124654;6;-9;4;-621;4188;-13;8;0.4238227;-0.4819945;0.4653739;0.6094939;1;-4;3;-375;4037;933;0.4326595;2.810398;-0.1271159;0.438507;3.343285;-0.2438172;0.4436422;3.811259;-0.3483734;0.3846258;4.490842;-0.07791588;0.09944546;4.784481;0.006912537;-0.2272668;4.601868;0.01402399;-0.9165942;5.20712;-0.1156952;-0.9481094;6.125051;-0.3485159;0.617833;4.82956;0.006767333;0.9189767;4.701543;0.01370341;1.614897;5.367782;0.02352858;1.848529;6.245955;-0.2448226;0.1203986;2.767735;-0.1248597;0.1514577;1.311479;-0.2634622;0;0;0;0.1203986;2.767735;-0.1248597;0.1514577;1.311479;-0.2634622;0;0;0
304434.7855;NotLabelled;16384;-0.2105263;-0.4404432;-0.824792;0.2853186;-3;1;0;2482;-2846;1807;65536;0.5787187;0.4916897;0.5304709;-0.3767313;3;3;0;-441;-4073;-937;8192;0.8817288;0.3518005;0.1288089;-0.2867036;1;2;-2;-1784;-2771;2381;32768;0.6896826;0.4293629;0.4473684;-0.3739612;-4;4;1;435;-3731;-1320;256;0.432133;-0.5831025;-0.3601108;-0.5861509;1;0;5;-163;3904;-1511;128;0.466759;-0.5270771;-0.5110803;-0.4930748;-1;-10;-3;-483;4149;-30;4;-0.03878116;-0.02770083;-0.702216;-0.710367;-6;0;-5;375;4006;28;16;0.5;-0.6438552;0.3711911;0.4445983;3;-10;3;241;4028;1004;2;0.700831;-0.708118;0.07202215;-0.04709141;2;-7;4;-489;4084;-55;8;0.4224377;-0.4819945;0.466759;0.6093963;2;-5;2;-265;3987;777;0.4422437;2.81038;-0.12921;0.4480911;3.343267;-0.2459064;0.4532264;3.811243;-0.3504584;0.3941341;4.490826;-0.08001757;0.1089301;4.784465;0.00473088;-0.2177842;4.601851;0.01175086;-0.9057547;5.209337;-0.114688;-0.9372048;6.127268;-0.3475175;0.6273176;4.829544;0.004731059;0.9284593;4.701527;0.01175159;1.624382;5.367735;0.02332461;1.858089;6.24591;-0.244961;0.1299827;2.767716;-0.1269542;0.1552524;1.311113;-0.2630696;0;0;0;0.1299827;2.767716;-0.1269542;0.1552524;1.311113;-0.2630696;0;0;0
304455.6144;NotLabelled;16384;-0.2091413;-0.4404432;-0.8251442;0.2853186;-4;2;1;2402;-2800;1827;65536;0.5765401;0.4916897;0.5318559;-0.3781163;2;5;-2;-513;-4033;-941;8192;0.8820769;0.3504155;0.1301939;-0.2867036;4;2;-1;-1782;-2733;2391;32768;0.6896436;0.4279778;0.4487534;-0.3739612;-4;4;-1;573;-3731;-1438;256;0.432133;-0.5852977;-0.3614958;-0.5831025;0;-1;5;-175;3812;-1473;128;0.466759;-0.5284165;-0.5096953;-0.4930748;-3;-15;-3;-417;4127;-188;4;-0.03739612;-0.02770083;-0.7036011;-0.7090696;-4;-1;-4;391;4030;44;16;0.4986149;-0.6415584;0.3753462;0.4459834;2;-11;3;89;3984;822;2;0.700831;-0.7082088;0.07202215;-0.04570637;3;-2;4;-605;4028;-167;8;0.4224377;-0.4819945;0.468144;0.6083329;1;-2;1;-217;4005;703;0.4488803;2.811595;-0.1263055;0.4547314;3.344812;-0.2414889;0.4598699;3.813082;-0.3447121;0.4047081;4.493631;-0.07587624;0.1212129;4.789134;0.008125909;-0.2065668;4.608455;0.01550712;-0.8950388;5.214995;-0.1127239;-0.9281935;6.133282;-0.3439121;0.6398557;4.831176;0.00812614;0.9402409;4.701414;0.01550788;1.637452;5.366262;0.0276953;1.872592;6.243576;-0.2421486;0.1366192;2.768926;-0.1241806;0.156734;1.312002;-0.2577038;0;0;0;0.1366192;2.768926;-0.1241806;0.156734;1.312002;-0.2577038;0;0;0
304475.5974;NotLabelled;16384;-0.2091413;-0.4404432;-0.8246641;0.2867036;-5;4;0;2442;-2786;1757;65536;0.5777184;0.4903047;0.5318559;-0.3781163;0;4;-4;-379;-4025;-851;8192;0.8821747;0.3490305;0.1301939;-0.2880886;3;0;-2;-1848;-2721;2369;32768;0.6896436;0.4279778;0.4487534;-0.3739612;-3;5;-3;493;-3763;-1338;256;0.4307479;-0.587692;-0.3614958;-0.5817174;-3;-1;4;-217;3910;-1547;128;0.468144;-0.5297671;-0.5096953;-0.4903047;-1;-17;-3;-449;4075;-32;4;-0.03739612;-0.02770083;-0.7036011;-0.7090696;-4;-2;-3;419;3974;66;16;0.4986149;-0.6407461;0.3767313;0.4459834;1;-4;3;67;3916;802;2;0.699446;-0.7095767;0.07202215;-0.04570637;5;2;3;-673;4006;-175;8;0.4224377;-0.4819945;0.468144;0.6083329;0;-3;2;-225;4015;687;0.449131;2.812162;-0.123123;0.4549789;3.345079;-0.2396875;0.4601144;3.81308;-0.3441235;0.408041;4.493218;-0.07363659;0.1258907;4.789804;0.01107483;-0.2027085;4.610601;0.01800726;-0.8889396;5.219338;-0.1118203;-0.9185889;6.137205;-0.3451368;0.6447195;4.829483;0.01119256;0.9445106;4.698338;0.01826799;1.643463;5.3612;0.03707135;1.879532;6.238514;-0.2319604;0.13687;2.769498;-0.1208788;0.157445;1.312575;-0.2543323;0;0;0;0.13687;2.769498;-0.1208788;0.157445;1.312575;-0.2543323;0;0;0
304495.6099;NotLabelled;16384;-0.2077562;-0.4404432;-0.8245314;0.2880886;-6;4;1;2398;-2694;1729;65536;0.5768095;0.4903047;0.5318559;-0.3795014;0;5;-4;-363;-4081;-807;8192;0.8821747;0.3490305;0.1301939;-0.2880886;4;0;-2;-1838;-2759;2459;32768;0.6897494;0.4265928;0.4487534;-0.3753462;-3;6;-3;613;-3735;-1316;256;0.4307479;-0.5868377;-0.3628809;-0.5817174;-4;0;5;-249;3772;-1647;128;0.4695291;-0.5311504;-0.5083103;-0.4889196;-2;-10;-4;-453;4141;240;4;-0.03601108;-0.02770083;-0.7036011;-0.7091413;-3;-3;-2;347;4076;86;16;0.4986149;-0.6407461;0.3767313;0.4459834;1;-2;2;169;3960;792;2;0.699446;-0.7097159;0.07063711;-0.04570637;5;1;1;-653;4052;-93;8;0.4224377;-0.4819945;0.4695291;0.6072646;0;-4;2;-281;4001;681;0.4490296;2.812423;-0.1262603;0.4548777;3.345366;-0.2427063;0.4600134;3.81339;-0.3470383;0.4086443;4.49417;-0.0780369;0.1267994;4.791225;0.006042168;-0.2019804;4.612371;0.01338631;-0.8887397;5.221692;-0.1107848;-0.9190463;6.140111;-0.3418345;0.645668;4.830381;0.006042421;0.9453267;4.698947;0.01338685;1.644371;5.361851;0.02648568;1.882071;6.238617;-0.2428931;0.1367686;2.769758;-0.1240261;0.1568728;1.312575;-0.2546851;0;0;0;0.1367686;2.769758;-0.1240261;0.1568728;1.312575;-0.2546851;0;0;0
304516.6398;NotLabelled;16384;-0.2077562;-0.4390582;-0.8242975;0.2908587;-4;4;4;2386;-2808;1703;65536;0.5783457;0.4889196;0.5304709;-0.3808864;0;3;-5;-269;-3951;-875;8192;0.882516;0.3476454;0.1315789;-0.2880886;5;1;0;-1696;-2683;2377;32768;0.690604;0.4252077;0.4487534;-0.3753462;-5;5;-2;629;-3681;-1324;256;0.4307479;-0.5882075;-0.3628809;-0.5803324;-7;-1;5;-223;3808;-1563;128;0.4695291;-0.5311504;-0.5083103;-0.4889196;0;-11;-2;-431;4069;104;4;-0.03601108;-0.02770083;-0.7049862;-0.7077643;-2;-3;0;389;4044;14;16;0.4986149;-0.6399297;0.3781163;0.4459834;0;-1;1;285;3952;796;2;0.6980609;-0.7110782;0.07063711;-0.04570637;2;2;-1;-771;4128;-67;8;0.4210526;-0.4806094;0.4695291;0.6093207;0;-5;2;-243;3953;819;0.4549453;2.813024;-0.1225892;0.4607933;3.345966;-0.2390352;0.465929;3.81399;-0.3433672;0.416052;4.494899;-0.07440957;0.134859;4.792577;0.009649172;-0.1943124;4.614445;0.01700313;-0.8778091;5.227339;-0.1075784;-0.9020392;6.146064;-0.3381296;0.6538122;4.830594;0.009649336;0.9531819;4.698505;0.0170036;1.653533;5.360044;0.02920842;1.89444;6.235689;-0.24097;0.1426843;2.77036;-0.120355;0.1575138;1.313143;-0.2513439;0;0;0;0.1426843;2.77036;-0.120355;0.1575138;1.313143;-0.2513439;0;0;0
304538.3218;NotLabelled;16384;-0.2091413;-0.4376731;-0.824194;0.2922437;-3;5;4;2386;-2856;1665;65536;0.5774311;0.4889196;0.5304709;-0.3822715;-1;3;-6;-217;-4029;-841;8192;0.8830604;0.3462604;0.1315789;-0.2880886;6;0;0;-1680;-2687;2375;32768;0.6914549;0.4238227;0.4487534;-0.3753462;-6;4;-3;605;-3745;-1356;256;0.432133;-0.5868394;-0.365651;-0.5789474;-5;-1;5;-193;3794;-1469;128;0.4709141;-0.5350422;-0.5069252;-0.4847645;2;-11;-4;-417;4093;172;4;-0.03601108;-0.02770083;-0.7049862;-0.7077643;-3;-3;0;341;4084;110;16;0.4986149;-0.6399297;0.3781163;0.4459834;0;-3;1;311;4012;824;2;0.6980609;-0.7109879;0.07063711;-0.04709141;1;0;-1;-663;4100;-9;8;0.4210526;-0.4806094;0.4695291;0.6093207;0;-2;2;-325;4033;851;0.4548444;2.813024;-0.1226979;0.4606929;3.345993;-0.2390233;0.4658289;3.814041;-0.3432494;0.417081;4.496893;-0.0790554;0.1363986;4.795669;0.002789363;-0.1931061;4.618202;0.01121321;-0.8740389;5.233746;-0.1143435;-0.8985993;6.153016;-0.3426759;0.6554213;4.832724;0.002789915;0.9545419;4.700135;0.01121438;1.6568;5.359674;0.02205694;1.899811;6.23419;-0.249889;0.1425834;2.770359;-0.1204744;0.1573033;1.313142;-0.2514756;0;0;0;0.1425834;2.770359;-0.1204744;0.1573033;1.313142;-0.2514756;0;0;0
304557.7736;NotLabelled;16384;-0.2091413;-0.4376731;-0.824194;0.2922437;-2;7;3;2382;-2824;1705;65536;0.578601;0.4875346;0.5304709;-0.3822715;-2;4;-7;-193;-3957;-755;8192;0.8830604;0.3462604;0.1315789;-0.2880886;7;0;0;-1778;-2689;2385;32768;0.6897994;0.4238227;0.4501385;-0.3767313;-7;2;-3;585;-3799;-1298;256;0.432133;-0.5882025;-0.365651;-0.5775623;-4;-2;6;-191;3816;-1487;128;0.4709141;-0.5362938;-0.5069252;-0.4833795;0;-11;-4;-485;4139;154;4;-0.03601108;-0.02908587;-0.7077088;-0.7049862;-3;-1;2;413;4072;114;16;0.4972299;-0.6401874;0.3795014;0.4459834;0;-6;0;227;4022;864;2;0.6980609;-0.7109879;0.07063711;-0.04709141;1;0;-1;-719;4076;25;8;0.4210526;-0.4819945;0.4695291;0.6082257;0;-1;2;-227;4015;851;0.4701961;2.812385;-0.1181954;0.4760445;3.345355;-0.2345156;0.4811805;3.813404;-0.3387372;0.4339338;4.496378;-0.0745841;0.153909;4.795774;0.007242054;-0.1759853;4.619032;0.01567551;-0.856101;5.234575;-0.1142393;-0.8772287;6.153411;-0.3446558;0.673012;4.831689;0.007241786;0.9718402;4.698442;0.01567519;1.674014;5.357982;0.03100216;1.915495;6.233335;-0.2396102;0.1579351;2.76972;-0.1159721;0.1618058;1.312764;-0.2505918;0;0;0;0.1579351;2.76972;-0.1159721;0.1618058;1.312764;-0.2505918;0;0;0
304577.7844;NotLabelled;16384;-0.2091413;-0.4362881;-0.824436;0.2936288;-2;9;2;2338;-2920;1703;65536;0.5801159;0.4861496;0.5290859;-0.3836565;-5;4;-8;-125;-4031;-791;8192;0.8845917;0.3434903;0.1315789;-0.2867036;7;-1;0;-1798;-2669;2417;32768;0.6914937;0.4210526;0.4501385;-0.3767313;-10;0;-4;725;-3731;-1368;256;0.432133;-0.5886981;-0.367036;-0.5761772;-4;-3;5;-213;3890;-1535;128;0.4722992;-0.5363224;-0.5069252;-0.4819945;2;-10;-3;-429;4149;110;4;-0.03601108;-0.02908587;-0.7077088;-0.7049862;-1;-7;2;401;3980;-38;16;0.4972299;-0.6401874;0.3795014;0.4459834;0;-3;0;143;3964;950;2;0.6980609;-0.7109879;0.07063711;-0.04709141;1;1;0;-795;4050;-141;8;0.4196676;-0.4819945;0.4695291;0.6091822;-1;-1;1;-275;4017;845;0.4703304;2.812379;-0.1181334;0.4761755;3.345042;-0.2358525;0.4813085;3.812816;-0.3413025;0.4362063;4.496532;-0.07869896;0.157128;4.797007;0.002407134;-0.173331;4.621339;0.01118763;-0.8522576;5.238595;-0.1168136;-0.8678118;6.157692;-0.3466264;0.6763432;4.83126;0.002407491;0.9747426;4.697079;0.01118863;1.680796;5.352547;0.02235997;1.927243;6.22563;-0.2510917;0.1580695;2.76972;-0.1157894;0.1620961;1.312764;-0.2504044;0;0;0;0.1580695;2.76972;-0.1157894;0.1620961;1.312764;-0.2504044;0;0;0
304598.6432;NotLabelled;16384;-0.2077562;-0.434903;-0.8250234;0.2950138;-2;7;3;2378;-2864;1771;65536;0.5790915;0.4847645;0.5304709;-0.3850415;-5;5;-6;-121;-4111;-833;8192;0.8851283;0.3421052;0.1315789;-0.2867036;8;-2;0;-1814;-2723;2511;32768;0.6931729;0.4182825;0.4501385;-0.3767313;-11;0;-2;877;-3821;-1466;256;0.433518;-0.5890337;-0.367036;-0.5747922;-7;-3;5;-141;3826;-1545;128;0.4722992;-0.5388666;-0.5055401;-0.4806094;1;-9;-3;-441;4139;258;4;-0.03462604;-0.03047091;-0.7077196;-0.7049862;-2;-4;1;337;4016;32;16;0.4972299;-0.6393644;0.3808864;0.4459834;0;-6;0;285;3950;886;2;0.6966759;-0.7122521;0.07063711;-0.04847645;1;-1;0;-839;4070;-147;8;0.4196676;-0.4819945;0.4695291;0.6091822;0;-1;1;-251;4025;813;0.4707878;2.812947;-0.1146518;0.4766365;3.34594;-0.2308643;0.4817727;3.81401;-0.3349912;0.4365243;4.498391;-0.07414895;0.1573875;4.799031;0.006139696;-0.1730469;4.623337;0.01531467;-0.8512261;5.241375;-0.1128665;-0.8662605;6.160408;-0.3429716;0.6765976;4.833362;0.006139696;0.9750155;4.699248;0.01531518;1.682904;5.352702;0.02827251;1.934859;6.223485;-0.2474818;0.1585268;2.770282;-0.1124378;0.1626983;1.313325;-0.2470487;0;0;0;0.1585268;2.770282;-0.1124378;0.1626983;1.313325;-0.2470487;0;0;0
304619.798;NotLabelled;16384;-0.2077562;-0.433518;-0.8252558;0.2963989;-1;5;5;2428;-2806;1767;65536;0.5793267;0.4833795;0.5304709;-0.3864266;-5;3;-4;-135;-4051;-763;8192;0.8856623;0.3407202;0.1315789;-0.2867036;9;-1;0;-1818;-2665;2455;32768;0.6940067;0.4168975;0.4501385;-0.3767313;-11;1;-3;941;-3815;-1470;256;0.433518;-0.5895187;-0.368421;-0.5734072;-10;-3;5;-163;3882;-1545;128;0.4736842;-0.5388845;-0.5055401;-0.4792244;1;-11;-3;-465;4145;180;4;-0.03462604;-0.03047091;-0.7077196;-0.7049862;-1;-4;1;321;4052;66;16;0.4958449;-0.6394724;0.3808864;0.4473684;0;-7;0;177;3990;884;2;0.6966759;-0.7122521;0.07063711;-0.04847645;1;-4;0;-773;4002;-59;8;0.4196676;-0.4819945;0.4695291;0.6091822;-1;0;0;-299;4017;739;0.4715658;2.812121;-0.1184906;0.4774111;3.344807;-0.2361065;0.4825442;3.8126;-0.3414659;0.4394469;4.497709;-0.08217493;0.1612612;4.79942;-0.002606452;-0.1697343;4.624804;0.006915852;-0.8463277;5.244555;-0.12138;-0.8585683;6.163677;-0.351299;0.6805784;4.832091;-0.00260663;0.9785647;4.697045;0.006915748;1.688316;5.348479;0.01961422;1.942892;6.218102;-0.257394;0.1593049;2.769462;-0.1161552;0.1636289;1.312505;-0.2507619;0;0;0;0.1593049;2.769462;-0.1161552;0.1636289;1.312505;-0.2507619;0;0;0
304640.2146;NotLabelled;16384;-0.2091413;-0.432133;-0.8251338;0.2977839;0;6;5;2344;-2828;1785;65536;0.5804796;0.4819945;0.5304709;-0.3864266;-6;3;-3;-87;-3941;-875;8192;0.8866408;0.3393352;0.1315789;-0.2853186;8;-1;-1;-1872;-2597;2567;32768;0.695586;0.4155124;0.4501385;-0.3753462;-13;1;-3;829;-3787;-1536;256;0.434903;-0.5903187;-0.3698061;-0.5706371;-10;-2;5;-205;3808;-1427;128;0.4736842;-0.541406;-0.5041551;-0.4778393;-2;-10;-3;-461;4109;342;4;-0.03462604;-0.03047091;-0.7090967;-0.7036011;-2;-3;1;317;4038;106;16;0.4958449;-0.6394724;0.3808864;0.4473684;0;-2;0;171;3970;906;2;0.6966759;-0.7122064;0.07202215;-0.04709141;1;-3;-1;-783;4104;-69;8;0.4196676;-0.4819945;0.4695291;0.6091822;-1;-2;1;-187;4009;825;0.4777557;2.812094;-0.1172282;0.4836046;3.34511;-0.233341;0.488741;3.813199;-0.3373805;0.44766;4.499679;-0.0814099;0.1703735;4.802616;-0.003381923;-0.1611561;4.62906;0.006881863;-0.834424;5.251437;-0.1261091;-0.8429856;6.170091;-0.3580546;0.689788;4.833703;-0.003381789;0.9873579;4.697796;0.00688231;1.698989;5.347143;0.02114546;1.957189;6.215007;-0.2580174;0.1654947;2.769428;-0.1150229;0.1647055;1.312506;-0.250056;0;0;0;0.1654947;2.769428;-0.1150229;0.1647055;1.312506;-0.250056;0;0;0
304660.6376;NotLabelled;16384;-0.2091413;-0.4307479;-0.825357;0.299169;0;6;5;2278;-2852;1729;65536;0.5816268;0.4806094;0.5304709;-0.3864266;-7;2;-4;-19;-3849;-867;8192;0.8869631;0.3379501;0.132964;-0.2853186;8;-1;-3;-1868;-2633;2601;32768;0.6972333;0.4127424;0.4501385;-0.3753462;-13;3;-3;947;-3665;-1600;256;0.4362881;-0.5884243;-0.3711911;-0.5706371;-6;-1;5;-217;3808;-1385;128;0.4736842;-0.5439089;-0.5027701;-0.4764543;-2;-9;-3;-457;4119;234;4;-0.033241;-0.03185596;-0.7091021;-0.7036011;-1;-6;1;411;4006;28;16;0.4958449;-0.6394724;0.3808864;0.4473684;0;0;0;177;3996;924;2;0.6966759;-0.7121134;0.07202215;-0.04847645;0;-2;-2;-683;4062;-53;8;0.4182825;-0.4819945;0.4695291;0.610134;0;-1;0;-259;3989;947;0.4777716;2.8121;-0.1174735;0.483624;3.34544;-0.2320857;0.4887637;3.81382;-0.3348074;0.4467306;4.501447;-0.08209041;0.1690272;4.804375;-0.00551863;-0.162268;4.63042;0.005539402;-0.8346552;5.25413;-0.1256455;-0.8410629;6.172306;-0.3595482;0.688399;4.836165;-0.005623698;0.9861519;4.700712;0.005306959;1.699156;5.348681;0.01123893;1.961309;6.214181;-0.2715548;0.1655105;2.769428;-0.115398;0.1641404;1.312506;-0.2504275;0;0;0;0.1655105;2.769428;-0.115398;0.1641404;1.312506;-0.2504275;0;0;0
304681.6179;NotLabelled;16384;-0.2091413;-0.4293629;-0.8260783;0.299169;2;6;5;2280;-2794;1745;65536;0.5818477;0.4792244;0.5304709;-0.3878116;-7;2;-3;69;-3843;-953;8192;0.887281;0.3365651;0.134349;-0.2853186;9;0;-4;-1774;-2681;2447;32768;0.6978864;0.4085872;0.4529086;-0.3753462;-13;10;-1;775;-3713;-1658;256;0.4362881;-0.5888903;-0.3725762;-0.5692521;-5;-2;5;-209;3836;-1455;128;0.4736842;-0.5439089;-0.5027701;-0.4764543;-1;-10;-3;-439;4131;196;4;-0.03185596;-0.033241;-0.7091021;-0.7036011;-1;-5;0;429;4078;68;16;0.4958449;-0.6386454;0.3822715;0.4473684;1;-2;0;155;3974;964;2;0.6966759;-0.711972;0.0734072;-0.04847645;1;-1;0;-639;4062;-117;8;0.4182825;-0.4819945;0.4695291;0.610134;0;0;0;-251;3975;921;0.4779735;2.812665;-0.1144249;0.4838259;3.346004;-0.2290371;0.4889656;3.814384;-0.3317587;0.4490429;4.502712;-0.08061266;0.1722822;4.806697;-0.004821315;-0.1595702;4.633825;0.006517202;-0.8314085;5.257769;-0.1263615;-0.8350034;6.176011;-0.3600631;0.6917529;4.836829;-0.004821241;0.9890683;4.700452;0.006517529;1.703357;5.346992;0.01370037;1.96813;6.209477;-0.2757832;0.1657124;2.769992;-0.1123493;0.1642518;1.31307;-0.2473779;0;0;0;0.1657124;2.769992;-0.1123493;0.1642518;1.31307;-0.2473779;0;0;0
304722.6227;NotLabelled;16384;-0.2105263;-0.4279778;-0.8259425;0.300554;2;3;4;2156;-2798;1725;65536;0.5829858;0.4778393;0.5304709;-0.3878116;-7;1;-2;-33;-3863;-957;8192;0.8882491;0.33518;0.134349;-0.2839335;8;-1;-4;-1730;-2641;2511;32768;0.6978562;0.4058172;0.4542936;-0.3767313;-10;13;0;715;-3607;-1776;256;0.4362881;-0.590226;-0.3725762;-0.567867;-5;-2;4;-185;3884;-1495;128;0.4750692;-0.5451894;-0.501385;-0.4750692;0;-9;-2;-383;4111;304;4;-0.03185596;-0.03462604;-0.7090358;-0.7036011;-1;-2;0;431;4032;66;16;0.4958449;-0.6386454;0.3822715;0.4473684;0;-1;0;263;3966;924;2;0.6966759;-0.7120649;0.0734072;-0.04709141;1;-3;0;-611;4084;-31;8;0.4182825;-0.4819945;0.4695291;0.610134;0;0;0;-241;4005;825;0.4781051;2.812399;-0.1110592;0.4839578;3.345756;-0.2255896;0.4890975;3.814152;-0.3282393;0.4506963;4.502577;-0.07712439;0.1746079;4.807177;-0.001344785;-0.1576251;4.635039;0.01000419;-0.8258682;5.261567;-0.1287107;-0.8260562;6.179311;-0.3643834;0.6941439;4.836162;-0.001350105;0.9911575;4.699129;0.009992719;1.707321;5.343557;0.01982152;1.975101;6.204533;-0.2713844;0.1658441;2.769727;-0.1089906;0.1650288;1.31307;-0.2468601;0;0;0;0.1658441;2.769727;-0.1089906;0.1650288;1.31307;-0.2468601;0;0;0
304743.6012;NotLabelled;16384;-0.2105263;-0.4279778;-0.8259425;0.300554;3;4;3;2318;-2750;1823;65536;0.5841182;0.4764543;0.5304709;-0.3878116;-8;2;-2;-139;-3847;-1023;8192;0.88856;0.333795;0.1357341;-0.2839335;8;1;-5;-1760;-2641;2573;32768;0.6977572;0.4044321;0.4556787;-0.3767313;-8;12;0;769;-3643;-1746;256;0.4362881;-0.5915554;-0.3725762;-0.566482;-7;-2;5;-193;3820;-1511;128;0.4750692;-0.5463933;-0.501385;-0.4736842;0;-8;-3;-393;4069;308;4;-0.03047091;-0.03462604;-0.7090967;-0.7036011;0;-2;-1;447;4026;62;16;0.4958449;-0.6386454;0.3822715;0.4473684;0;-4;0;225;4012;828;2;0.6966759;-0.7120649;0.0734072;-0.04709141;0;-1;0;-687;4062;-45;8;0.4182825;-0.4819945;0.4695291;0.610134;0;0;0;-209;4099;895;0.4781051;2.812399;-0.1110592;0.4839578;3.345756;-0.2255896;0.4890975;3.814152;-0.3282393;0.4506963;4.502577;-0.07712439;0.1746079;4.807177;-0.001344785;-0.1576251;4.635039;0.01000419;-0.8258682;5.261567;-0.1287107;-0.8260562;6.179311;-0.3643834;0.6941439;4.836162;-0.001350105;0.9911575;4.699129;0.009992719;1.707321;5.343557;0.01982152;1.975101;6.204533;-0.2713844;0.1658441;2.769727;-0.1089906;0.1650288;1.31307;-0.2468601;0;0;0;0.1658441;2.769727;-0.1089906;0.1650288;1.31307;-0.2468601;0;0;0
304764.6642;NotLabelled;16384;-0.2119114;-0.4252077;-0.8270183;0.300554;2;4;2;2266;-2786;1847;65536;0.5860265;0.4736842;0.5318559;-0.3864266;-7;4;0;-57;-3875;-1243;8192;0.8888665;0.33241;0.1371191;-0.2839335;8;3;-5;-1750;-2589;2547;32768;0.6986076;0.4016621;0.4556787;-0.3781163;-7;8;0;759;-3689;-1780;256;0.4376731;-0.5896553;-0.3739612;-0.566482;-7;-2;4;-197;3786;-1451;128;0.4750692;-0.5476609;-0.5;-0.4736842;1;-7;-2;-433;4019;360;4;-0.03047091;-0.03462604;-0.7090967;-0.7036011;-1;0;0;399;4040;136;16;0.4958449;-0.6386454;0.3822715;0.4473684;0;-4;0;163;4026;798;2;0.6966759;-0.7120649;0.0734072;-0.04709141;0;0;1;-711;4018;-47;8;0.4182825;-0.4819945;0.4695291;0.610134;0;0;0;-307;3981;839;0.4787009;2.81267;-0.1135896;0.4845571;3.346347;-0.2266257;0.4897001;3.815028;-0.3279632;0.4518148;4.504681;-0.08015946;0.1759645;4.809873;-0.005916461;-0.1564178;4.638073;0.006164566;-0.8235176;5.26523;-0.1351876;-0.8180611;6.180735;-0.3793545;0.6955248;4.838417;-0.005916297;0.9924189;4.701188;0.006165385;1.711195;5.342772;0.008509874;1.983594;6.201011;-0.286472;0.1664398;2.769992;-0.1116502;0.1652968;1.31307;-0.2466809;0;0;0;0.1664398;2.769992;-0.1116502;0.1652968;1.31307;-0.2466809;0;0;0
304785.8608;NotLabelled;16384;-0.2119114;-0.4252077;-0.8270183;0.300554;1;4;2;2224;-2798;1851;65536;0.5858857;0.4722992;0.533241;-0.3864266;-6;3;0;-105;-3871;-1233;8192;0.8886517;0.33241;0.1385041;-0.2839335;6;2;-5;-1758;-2677;2641;32768;0.6984978;0.400277;0.4570637;-0.3781163;-7;5;1;815;-3709;-1880;256;0.4376731;-0.5909829;-0.3739612;-0.5650969;-2;-3;3;-155;3802;-1453;128;0.4750692;-0.5488558;-0.5;-0.4722992;0;-6;-1;-459;4161;268;4;-0.03185596;-0.03462604;-0.7104076;-0.702216;-2;-1;1;427;4040;50;16;0.4958449;-0.6378143;0.3836565;0.4473684;0;0;0;153;3980;808;2;0.6966759;-0.7120649;0.0734072;-0.04709141;0;2;0;-755;4038;-17;8;0.4182825;-0.4819945;0.4695291;0.610134;0;1;0;-247;4007;795;0.4840111;2.812909;-0.1069339;0.4898673;3.346586;-0.2199635;0.4950102;3.815269;-0.3212952;0.4586477;4.505014;-0.07352093;0.183472;4.810818;0.0007085949;-0.149289;4.639753;0.01279625;-0.8159682;5.266911;-0.1305261;-0.8098603;6.181766;-0.3771021;0.7030941;4.838215;0.0007086396;0.9996843;4.700331;0.01279664;1.717906;5.342537;0.01489484;1.991163;6.19985;-0.2819763;0.1717499;2.770231;-0.1049951;0.1658374;1.313629;-0.2433201;0;0;0;0.1717499;2.770231;-0.1049951;0.1658374;1.313629;-0.2433201;0;0;0
304806.5934;NotLabelled;16384;-0.2119114;-0.4238227;-0.8272247;0.301939;1;2;1;2232;-2904;1827;65536;0.5869996;0.4709141;0.533241;-0.3864266;-3;1;-1;-57;-3807;-1329;8192;0.8894663;0.3296399;0.1398892;-0.2839335;4;0;-4;-1750;-2585;2693;32768;0.6991305;0.398892;0.4584487;-0.3767313;-4;0;2;747;-3703;-1838;256;0.4376731;-0.5914274;-0.3753462;-0.5637119;-2;-3;2;-157;3836;-1441;128;0.4764543;-0.5501039;-0.4986149;-0.4709141;1;-4;-2;-429;4197;260;4;-0.03047091;-0.03601108;-0.7103994;-0.702216;-2;-5;1;469;4030;12;16;0.4958449;-0.6378143;0.3836565;0.4473684;0;-3;-1;171;3964;852;2;0.6966759;-0.7121134;0.07202215;-0.04847645;0;1;-1;-773;4090;-99;8;0.4182825;-0.4819945;0.4695291;0.610134;-1;0;0;-263;4025;801;0.4843752;2.812909;-0.1067617;0.4902316;3.346601;-0.2197221;0.4953747;3.815296;-0.3209931;0.4611831;4.505713;-0.07478413;0.1869752;4.81256;-0.001279682;-0.1463306;4.642584;0.01115529;-0.8113394;5.271436;-0.1325039;-0.8023296;6.185748;-0.3810012;0.7066819;4.838301;-0.001279473;1.00283;4.699499;0.0111559;1.724152;5.338223;0.01014185;1.99778;6.193969;-0.2908767;0.1721141;2.770231;-0.1048289;0.1660912;1.313628;-0.2431471;0;0;0;0.1721141;2.770231;-0.1048289;0.1660912;1.313628;-0.2431471;0;0;0
304826.6016;NotLabelled;16384;-0.2119114;-0.4238227;-0.8272247;0.301939;1;3;0;2206;-2886;1799;65536;0.5869996;0.4709141;0.533241;-0.3864266;-1;2;0;-61;-3839;-1325;8192;0.8899072;0.3296399;0.1398892;-0.2825485;3;0;-4;-1696;-2567;2645;32768;0.699919;0.3975069;0.4584487;-0.3767313;-2;0;2;765;-3639;-1834;256;0.4376731;-0.5914274;-0.3753462;-0.5637119;-2;-3;2;-179;3866;-1459;128;0.4764543;-0.5501039;-0.4986149;-0.4709141;0;-4;-1;-479;4147;178;4;-0.03047091;-0.03739612;-0.7103279;-0.702216;-1;-2;2;405;4046;18;16;0.4958449;-0.6368405;0.3836565;0.4487534;0;-4;-1;159;3952;928;2;0.6966759;-0.711972;0.0734072;-0.04847645;-1;0;-2;-761;4006;-31;8;0.4182825;-0.4819945;0.4695291;0.610134;-2;1;0;-227;4039;727;0.4809091;2.812769;-0.105406;0.4867655;3.346462;-0.2183664;0.4919086;3.815157;-0.3196374;0.457717;4.505574;-0.07342842;0.1835091;4.81242;7.604063E-05;-0.1497967;4.642445;0.01251101;-0.8148066;5.271297;-0.1311433;-0.8057965;6.185607;-0.3796403;0.7032158;4.838161;7.623434E-05;0.9993638;4.69936;0.01251161;1.72077;5.337987;0.01050687;1.996619;6.192492;-0.2920067;0.168648;2.770091;-0.1034732;0.1628603;1.31376;-0.2446215;0;0;0;0.168648;2.770091;-0.1034732;0.1628603;1.31376;-0.2446215;0;0;0
304867.804;NotLabelled;16384;-0.2119114;-0.4224377;-0.8279329;0.301939;0;2;0;2210;-2766;1841;65536;0.5868492;0.4695291;0.534626;-0.3864266;0;1;0;-111;-3833;-1277;8192;0.8902004;0.3282548;0.1412742;-0.2825485;3;3;-4;-1790;-2583;2635;32768;0.6990098;0.3975069;0.4598338;-0.3767313;1;3;2;809;-3609;-1898;256;0.4390582;-0.5917192;-0.3753462;-0.5623268;-4;-1;2;-189;3846;-1409;128;0.4764543;-0.5512866;-0.4986149;-0.4695291;2;-2;-1;-419;4073;196;4;-0.03047091;-0.03739612;-0.7103279;-0.702216;-2;-2;1;333;4042;96;16;0.4944598;-0.6379166;0.3836565;0.4487534;0;-6;-1;279;4006;948;2;0.6966759;-0.7118763;0.0734072;-0.04986149;-1;-1;-2;-783;4032;-21;8;0.4182825;-0.4819945;0.4695291;0.610134;-2;-1;0;-223;4005;797;0.4851468;2.811827;-0.1072799;0.4910032;3.34552;-0.2202334;0.4961463;3.814218;-0.3214983;0.4618361;4.505261;-0.07707208;0.18758;4.812262;-0.004392773;-0.145706;4.642277;0.008437335;-0.8101726;5.270979;-0.1383485;-0.8005109;6.184629;-0.3892384;0.7072835;4.838068;-0.004392684;1.003447;4.699337;0.008437753;1.726124;5.336522;0.005579114;2.000609;6.191331;-0.2973161;0.1728857;2.769149;-0.1053476;0.1675404;1.312817;-0.2465134;0;0;0;0.1728857;2.769149;-0.1053476;0.1675404;1.312817;-0.2465134;0;0;0
304888.68;NotLabelled;16384;-0.2119114;-0.4224377;-0.8279329;0.301939;0;2;-1;2248;-2820;1863;65536;0.5868492;0.4695291;0.534626;-0.3864266;1;0;0;-9;-3799;-1137;8192;0.8902004;0.3282548;0.1412742;-0.2825485;2;1;-5;-1786;-2617;2551;32768;0.6990098;0.3975069;0.4598338;-0.3767313;2;3;3;757;-3719;-1782;256;0.4390582;-0.5917192;-0.3753462;-0.5623268;-4;-1;1;-101;3830;-1481;128;0.4764543;-0.5512866;-0.4986149;-0.4695291;3;-2;0;-537;4053;218;4;-0.03047091;-0.03878116;-0.7102537;-0.702216;-1;-1;1;381;3988;68;16;0.4944598;-0.6379166;0.3836565;0.4487534;-1;-6;-1;211;3966;874;2;0.6966759;-0.7118763;0.0734072;-0.04986149;-1;0;-3;-845;4064;7;8;0.4182825;-0.4819945;0.4695291;0.610134;-3;-2;0;-253;3959;761;0.4849028;2.811551;-0.1044511;0.4907592;3.345245;-0.2174046;0.4959023;3.813941;-0.3186695;0.4615921;4.504985;-0.07424328;0.187336;4.811985;-0.001563996;-0.14595;4.642;0.01126614;-0.8104165;5.270702;-0.1355197;-0.8007549;6.184353;-0.3864096;0.7070396;4.837791;-0.001563847;1.003203;4.69906;0.01126653;1.72588;5.336246;0.008407831;2.000365;6.191054;-0.2944874;0.1726417;2.768873;-0.1025188;0.1675403;1.312817;-0.2465135;0;0;0;0.1726417;2.768873;-0.1025188;0.1675403;1.312817;-0.2465135;0;0;0
304908.6304;NotLabelled;16384;-0.2119114;-0.4224377;-0.8279329;0.301939;0;1;-1;2092;-2840;1825;65536;0.5879547;0.468144;0.534626;-0.3864266;0;1;0;-75;-3751;-1097;8192;0.8899795;0.3282548;0.1426593;-0.2825485;2;0;-3;-1744;-2633;2645;32768;0.6990098;0.3975069;0.4598338;-0.3767313;2;2;4;783;-3761;-1774;256;0.4390582;-0.5930324;-0.3753462;-0.5609418;-2;-1;0;-213;3832;-1361;128;0.4778393;-0.5512657;-0.4986149;-0.468144;1;-4;0;-321;4125;126;4;-0.02908587;-0.03878116;-0.7116783;-0.700831;0;-3;1;397;4034;80;16;0.4944598;-0.6361036;0.3850415;0.4501385;-1;-2;-1;179;3998;810;2;0.6980609;-0.7102752;0.07479224;-0.05124654;-2;3;-4;-789;4008;7;8;0.4168975;-0.4819945;0.4695291;0.6110812;-4;-1;1;-291;4043;867;0.4878987;2.812441;-0.1050529;0.4937517;3.345832;-0.2194264;0.4988918;3.814259;-0.3219383;0.4661049;4.505385;-0.07753831;0.1925262;4.812993;-0.004871011;-0.1411337;4.643743;0.007965013;-0.8051625;5.272445;-0.1407886;-0.7920778;6.185535;-0.3935542;0.7122853;4.837653;-0.00487107;1.008143;4.698269;0.007965028;1.730275;5.33607;0.004870057;2.005704;6.190879;-0.297168;0.1756376;2.769769;-0.1029979;0.1648213;1.313513;-0.2446326;0;0;0;0.1756376;2.769769;-0.1029979;0.1648213;1.313513;-0.2446326;0;0;0
304929.64;NotLabelled;16384;-0.2119114;-0.4224377;-0.8279329;0.301939;1;1;-3;2226;-2788;1869;65536;0.587042;0.468144;0.534626;-0.3878116;0;1;0;39;-3833;-1085;8192;0.8904891;0.3268698;0.1426593;-0.2825485;0;-1;-3;-1706;-2671;2625;32768;0.6973475;0.3975069;0.4612188;-0.3781163;1;4;3;697;-3667;-1790;256;0.4404432;-0.5920045;-0.3753462;-0.5609418;-5;-3;0;-221;3876;-1319;128;0.4778393;-0.5512657;-0.4986149;-0.468144;0;-5;0;-469;4167;128;4;-0.02908587;-0.0401662;-0.7116014;-0.700831;-1;-4;1;525;4072;64;16;0.4944598;-0.6369399;0.3836565;0.4501385;-1;0;-2;129;4060;860;2;0.6980609;-0.7101739;0.07479224;-0.05263158;-2;0;-2;-769;4086;-11;8;0.4168975;-0.4833795;0.468144;0.6110498;-3;0;0;-223;3989;861;0.4879018;2.811601;-0.1050745;0.4937549;3.344992;-0.2194479;0.498895;3.813419;-0.3219599;0.4644681;4.505086;-0.07932207;0.1901648;4.812239;-0.007470354;-0.1431019;4.642246;0.005755559;-0.8071061;5.270948;-0.1431077;-0.7942104;6.184633;-0.3937284;0.7098652;4.838109;-0.007470191;1.006045;4.699449;0.005756199;1.72999;5.335187;0.00204587;2.002954;6.190943;-0.2995462;0.1756408;2.768928;-0.1030196;0.1650781;1.312948;-0.247477;0;0;0;0.1756408;2.768928;-0.1030196;0.1650781;1.312948;-0.247477;0;0;0
304950.6204;NotLabelled;16384;-0.2105263;-0.4210526;-0.8289911;0.301939;1;2;-5;2172;-2862;1857;65536;0.587042;0.468144;0.534626;-0.3878116;-1;4;0;-99;-3861;-1131;8192;0.8902661;0.3268698;0.1440443;-0.2825485;0;1;-4;-1602;-2641;2597;32768;0.6973475;0.3975069;0.4612188;-0.3781163;3;3;2;793;-3659;-1764;256;0.4404432;-0.5911241;-0.3767313;-0.5609418;-4;-3;0;-179;3906;-1415;128;0.4792244;-0.5513145;-0.4972299;-0.468144;0;-3;1;-411;4101;318;4;-0.02908587;-0.0401662;-0.7116014;-0.700831;-2;-1;3;439;4084;-22;16;0.4944598;-0.6369399;0.3836565;0.4501385;-1;0;-2;211;3954;844;2;0.6980609;-0.7101739;0.07479224;-0.05263158;-1;-1;-2;-791;4066;-3;8;0.4168975;-0.4833795;0.468144;0.6110498;-2;0;0;-223;3995;903;0.4876854;2.811601;-0.1054386;0.4935385;3.345003;-0.2197613;0.4986788;3.813439;-0.3222286;0.464902;4.505678;-0.08113307;0.1908913;4.813258;-0.009994701;-0.1425428;4.64362;0.003572375;-0.8080198;5.271289;-0.1430598;-0.7956497;6.184973;-0.3937068;0.7106167;4.83862;-0.009994686;1.006659;4.699699;0.003572464;1.730034;5.336052;-0.004029512;2.002366;6.19181;-0.3061936;0.1754243;2.768928;-0.103388;0.1645585;1.312947;-0.247823;0;0;0;0.1754243;2.768928;-0.103388;0.1645585;1.312947;-0.247823;0;0;0
304971.6384;NotLabelled;16384;-0.2105263;-0.4210526;-0.8289911;0.301939;2;-1;-3;2178;-2838;1903;65536;0.5881439;0.466759;0.534626;-0.3878116;0;3;1;-73;-3957;-1107;8192;0.8900409;0.3268698;0.1454294;-0.2825485;1;3;-4;-1720;-2725;2559;32768;0.6972182;0.3961219;0.4626039;-0.3781163;2;3;3;823;-3653;-1696;256;0.4404432;-0.5911241;-0.3767313;-0.5609418;-3;-4;0;-179;3834;-1345;128;0.4792244;-0.5513145;-0.4972299;-0.468144;-1;-5;2;-441;4091;246;4;-0.02908587;-0.04155125;-0.7115219;-0.700831;-1;0;3;365;4080;20;16;0.4944598;-0.6359589;0.3836565;0.4515235;-3;2;-3;203;3996;830;2;0.6980609;-0.7101739;0.07479224;-0.05263158;-1;1;-1;-747;4004;-51;8;0.4168975;-0.4847645;0.468144;0.6099517;-1;1;0;-257;3973;937;0.484192;2.811444;-0.1040859;0.4900451;3.344846;-0.2184086;0.4951853;3.813282;-0.3208759;0.4614086;4.505521;-0.07978037;0.1873979;4.813101;-0.008642033;-0.1460362;4.643464;0.004925057;-0.811514;5.271133;-0.1417035;-0.796514;6.184251;-0.3942633;0.7071234;4.838463;-0.008642018;1.003165;4.699543;0.004925132;1.725971;5.33651;-0.005056024;1.998198;6.19133;-0.3099493;0.1719309;2.768772;-0.1020354;0.1613115;1.313072;-0.2492934;0;0;0;0.1719309;2.768772;-0.1020354;0.1613115;1.313072;-0.2492934;0;0;0
304991.5928;NotLabelled;16384;-0.2105263;-0.4210526;-0.8294942;0.300554;2;-2;-4;2184;-2772;2015;65536;0.5868819;0.466759;0.536011;-0.3878116;-2;1;2;-135;-3959;-1135;8192;0.8898135;0.3268698;0.1468144;-0.2825485;0;2;-4;-1636;-2565;2693;32768;0.6964653;0.3961219;0.4626039;-0.3795014;1;1;4;805;-3727;-1678;256;0.4418283;-0.591403;-0.3767313;-0.5595568;-2;-5;0;-153;3810;-1367;128;0.4792244;-0.5537309;-0.4958449;-0.466759;0;-6;2;-455;4111;184;4;-0.03047091;-0.04155125;-0.7114639;-0.700831;-1;-2;5;385;4028;60;16;0.4944598;-0.6359589;0.3836565;0.4515235;-3;1;-3;209;3994;716;2;0.6980609;-0.7101739;0.07479224;-0.05263158;-1;-1;0;-751;3994;15;8;0.4168975;-0.4847645;0.466759;0.6110122;-2;2;0;-317;3925;919;0.4840098;2.811163;-0.1005754;0.4898664;3.34488;-0.2134152;0.4950098;3.813599;-0.3145802;0.4611195;4.506455;-0.07527894;0.187063;4.814184;-0.004970357;-0.1463525;4.644543;0.008993022;-0.8127681;5.270363;-0.1412328;-0.7997556;6.183384;-0.3942584;0.7067854;4.839609;-0.004970372;1.002842;4.70076;0.008993328;1.725109;5.338339;-0.0009878874;1.998132;6.19381;-0.3033377;0.1717487;2.768484;-0.09865298;0.1620885;1.313072;-0.2487887;0;0;0;0.1717487;2.768484;-0.09865298;0.1620885;1.313072;-0.2487887;0;0;0
305012.7078;NotLabelled;16384;-0.2105263;-0.4224377;-0.8287897;0.300554;1;-3;-4;2194;-2824;1859;65536;0.5879808;0.4653739;0.536011;-0.3878116;-2;2;1;-149;-3965;-1125;8192;0.8898135;0.3268698;0.1468144;-0.2825485;0;4;-3;-1708;-2559;2757;32768;0.6964653;0.3961219;0.4626039;-0.3795014;0;0;2;751;-3735;-1666;256;0.4418283;-0.5922831;-0.3753462;-0.5595568;0;-5;0;-171;3834;-1335;128;0.4806094;-0.5525292;-0.4958449;-0.466759;-2;-7;2;-461;4067;250;4;-0.02908587;-0.04293629;-0.7114397;-0.700831;0;-11;6;477;3984;-6;16;0.4944598;-0.6367924;0.3822715;0.4515235;-4;3;-3;61;3980;744;2;0.6980609;-0.7101739;0.07479224;-0.05263158;-2;1;0;-865;4042;-17;8;0.4168975;-0.4847645;0.466759;0.6110122;-1;3;0;-287;3975;901;0.4847244;2.810584;-0.1032053;0.4905777;3.343997;-0.2174793;0.495718;3.812441;-0.3199039;0.4611763;4.504731;-0.07905993;0.1868266;4.812035;-0.008038044;-0.1464211;4.642036;0.005584419;-0.8126655;5.268006;-0.1447795;-0.7964892;6.180454;-0.3996766;0.7065238;4.837968;-0.008037984;1.002718;4.699378;0.005585015;1.725001;5.336957;-0.003118277;1.998658;6.192427;-0.3048937;0.1724633;2.767911;-0.101159;0.1628738;1.312498;-0.2512925;0;0;0;0.1724633;2.767911;-0.101159;0.1628738;1.312498;-0.2512925;0;0;0
305032.723;NotLabelled;16384;-0.2105263;-0.4224377;-0.8287897;0.300554;1;-2;-3;2190;-2948;1921;65536;0.5867151;0.4653739;0.5373961;-0.3878116;-3;2;0;-99;-4017;-1177;8192;0.8891428;0.3268698;0.1481994;-0.2839335;-1;1;-3;-1818;-2595;2605;32768;0.6955433;0.3961219;0.4639889;-0.3795014;0;0;1;701;-3685;-1616;256;0.4432133;-0.5934301;-0.3739612;-0.5581717;1;-10;0;-151;3908;-1355;128;0.4819945;-0.5549646;-0.4930748;-0.4653739;-1;-11;3;-559;4133;138;4;-0.02908587;-0.04847645;-0.7110837;-0.700831;0;-14;7;415;4028;198;16;0.4944598;-0.6384471;0.3795014;0.4515235;-5;11;-3;141;3984;884;2;0.699446;-0.7087056;0.07479224;-0.05401662;-2;0;1;-903;3968;-109;8;0.4168975;-0.4847645;0.466759;0.6110122;0;-3;0;-125;4025;979;0.4842084;2.808483;-0.08964512;0.4900652;3.342216;-0.2024108;0.4952087;3.810949;-0.3035107;0.461142;4.502607;-0.06079441;0.1868218;4.80943;0.01239425;-0.1461627;4.639024;0.02731705;-0.813843;5.264613;-0.1181848;-0.8004408;6.177681;-0.3710148;0.7064829;4.835946;0.009779334;1.002897;4.697654;0.02153558;1.723748;5.336796;0.009405017;1.995086;6.193424;-0.2911795;0.1719473;2.765804;-0.08772918;0.1634069;1.312055;-0.2532556;0;0;0;0.1719473;2.765804;-0.08772918;0.1634069;1.312055;-0.2532556;0;0;0
305053.6763;NotLabelled;16384;-0.2091413;-0.4224377;-0.8291403;0.300554;0;0;-3;2194;-2894;1845;65536;0.5878111;0.4639889;0.5373961;-0.3878116;-3;3;0;-45;-3963;-1107;8192;0.8894189;0.3254848;0.1495845;-0.2839335;2;4;-3;-1878;-2563;2569;32768;0.6939943;0.3975069;0.4639889;-0.3808864;1;5;1;725;-3557;-1440;256;0.4445983;-0.5936952;-0.3739612;-0.5567867;-1;-10;0;-77;3930;-1335;128;0.4833795;-0.5561473;-0.4916897;-0.4639889;-1;-11;3;-611;4153;100;4;-0.02770083;-0.04986149;-0.7124057;-0.699446;0;-13;7;487;4080;228;16;0.4958449;-0.6381946;0.3781163;0.4515235;-3;8;-4;265;4032;952;2;0.699446;-0.7088099;0.07479224;-0.05263158;-2;-10;2;-921;4036;-135;8;0.4141274;-0.4833795;0.468144;0.6129306;0;-10;-2;-233;4049;827;0.4872218;2.808492;-0.09607205;0.4930787;3.342231;-0.2088097;0.4982223;3.810969;-0.309885;0.4627974;4.50393;-0.07110983;0.1880613;4.811108;-0.001044542;-0.1449805;4.640744;0.01303488;-0.8111976;5.265824;-0.1411021;-0.7930387;6.177598;-0.3982701;0.7077264;4.837677;-0.001044452;1.004088;4.69949;0.01303542;1.727021;5.336353;0.00595808;1.998446;6.194004;-0.2916137;0.1749607;2.765813;-0.09415846;0.1618684;1.311694;-0.2560978;0;0;0;0.1749607;2.765813;-0.09415846;0.1618684;1.311694;-0.2560978;0;0;0
305073.663;NotLabelled;16384;-0.2091413;-0.4224377;-0.8291403;0.300554;0;1;-2;2212;-2964;1843;65536;0.5878111;0.4639889;0.5373961;-0.3878116;-3;1;0;-77;-3925;-1197;8192;0.8887414;0.3254848;0.1509695;-0.2853186;4;2;-2;-1808;-2571;2619;32768;0.6947858;0.3961219;0.4639889;-0.3808864;0;4;1;765;-3679;-1392;256;0.4445983;-0.5958593;-0.3725762;-0.5554016;-5;-10;0;7;3910;-1351;128;0.4833795;-0.5573687;-0.4903047;-0.4639889;-2;-15;2;-623;4119;114;4;-0.02770083;-0.05263158;-0.7122064;-0.699446;1;-14;6;435;4020;86;16;0.4958449;-0.6380323;0.3767313;0.4529086;-3;6;-6;185;3996;1084;2;0.699446;-0.7087638;0.07617728;-0.05124654;-2;-18;3;-875;4100;-253;8;0.4141274;-0.4819945;0.468144;0.6140203;0;-10;-3;-205;4051;837;0.4841819;2.807369;-0.09378177;0.4900421;3.341414;-0.2050588;0.4951887;3.810427;-0.3048514;0.4606221;4.502911;-0.06457138;0.1862629;4.810266;0.006189823;-0.1469818;4.640272;0.01993705;-0.8123925;5.265352;-0.1376441;-0.7929027;6.177126;-0.3947147;0.7059595;4.836211;0.006189823;1.002156;4.697639;0.01993722;1.724455;5.335241;0.01520085;1.999667;6.191666;-0.282428;0.1719207;2.764685;-0.09199423;0.1602637;1.311198;-0.2596211;0;0;0;0.1719207;2.764685;-0.09199423;0.1602637;1.311198;-0.2596211;0;0;0
305094.6708;NotLabelled;16384;-0.2091413;-0.4210526;-0.8298445;0.300554;0;4;-2;2090;-3092;1807;65536;0.589987;0.4612188;0.5373961;-0.3878116;-4;2;-4;-41;-3997;-1055;8192;0.8892474;0.3240997;0.1509695;-0.2853186;6;0;-2;-1784;-2581;2669;32768;0.6940247;0.3961219;0.4639889;-0.3822715;-2;1;0;829;-3651;-1438;256;0.4459834;-0.5961136;-0.3725762;-0.5540166;-5;-11;0;57;3932;-1339;128;0.4847645;-0.5585325;-0.4889196;-0.4626039;-1;-11;2;-735;4147;158;4;-0.02631579;-0.05540166;-0.7120488;-0.699446;2;-10;5;537;4020;268;16;0.4958449;-0.6388481;0.3753462;0.4529086;-4;8;-5;171;3880;992;2;0.699446;-0.7087124;0.07756232;-0.04986149;-2;-21;2;-769;4082;-229;8;0.4127424;-0.4819945;0.468144;0.6149523;0;-7;-3;-241;4073;891;0.4846916;2.806446;-0.09329626;0.4905519;3.340495;-0.2045581;0.4956986;3.809511;-0.3043373;0.4610219;4.502615;-0.06586844;0.1866186;4.810122;0.004055202;-0.1466086;4.640126;0.01820219;-0.8114156;5.26506;-0.1424749;-0.7858402;6.175651;-0.4031829;0.7063122;4.836126;0.004055321;1.002523;4.697624;0.01820272;1.726647;5.333163;0.01498652;2.002593;6.190233;-0.2800906;0.1724304;2.763762;-0.09151018;0.1613756;1.310598;-0.2619509;0;0;0;0.1724304;2.763762;-0.09151018;0.1613756;1.310598;-0.2619509;0;0;0
305114.6988;NotLabelled;16384;-0.2091413;-0.4210526;-0.8298445;0.300554;0;3;-2;2140;-2954;1869;65536;0.5890743;0.4612188;0.5373961;-0.3891967;-5;4;-4;81;-4079;-1069;8192;0.8895148;0.3227147;0.1523546;-0.2853186;6;0;-1;-1832;-2519;2651;32768;0.6940247;0.3961219;0.4639889;-0.3822715;-6;2;0;853;-3695;-1422;256;0.4473684;-0.5963613;-0.3725762;-0.5526316;-5;-10;0;87;3932;-1369;128;0.4847645;-0.5585325;-0.4889196;-0.4626039;-1;-9;3;-791;4089;200;4;-0.02631579;-0.0567867;-0.7119397;-0.699446;4;-10;5;505;3918;266;16;0.4972299;-0.6395639;0.3739612;0.4515235;-2;10;-4;175;3960;1010;2;0.699446;-0.7085933;0.08033241;-0.04709141;-3;-18;1;-679;4056;-213;8;0.4127424;-0.4806094;0.468144;0.6160353;0;0;-3;-245;4021;955;0.4842109;2.806373;-0.08894044;0.4900711;3.340422;-0.2002023;0.4952177;3.809438;-0.2999814;0.4604331;4.503159;-0.0633294;0.1859864;4.810818;0.005754516;-0.1472237;4.640822;0.02030236;-0.8115312;5.265757;-0.1424271;-0.7853901;6.17696;-0.400928;0.7056773;4.83688;0.005754471;1.001902;4.698447;0.02030253;1.727292;5.332534;0.01622784;2.004149;6.189605;-0.2779957;0.1719497;2.763689;-0.08715416;0.1617372;1.310855;-0.260437;0;0;0;0.1719497;2.763689;-0.08715416;0.1617372;1.310855;-0.260437;0;0;0
305135.8107;NotLabelled;16384;-0.2091413;-0.4196676;-0.8305458;0.300554;0;3;-1;2264;-2994;1853;65536;0.5901561;0.4598338;0.5373961;-0.3891967;-5;4;-4;23;-4053;-1085;8192;0.8900161;0.3213296;0.1523546;-0.2853186;7;0;-2;-1822;-2423;2671;32768;0.6938865;0.3947368;0.4653739;-0.3822715;-8;0;0;911;-3615;-1502;256;0.4487534;-0.5966026;-0.3725762;-0.5512465;-5;-9;0;129;3922;-1375;128;0.4861496;-0.5620232;-0.4861496;-0.4598338;1;-11;3;-745;4139;296;4;-0.02631579;-0.05817174;-0.7104642;-0.700831;4;-8;4;527;4036;294;16;0.4972299;-0.6403717;0.3725762;0.4515235;-1;8;-5;169;3976;1048;2;0.700831;-0.7072438;0.08171745;-0.04432133;-5;-17;1;-641;4088;-149;8;0.4141274;-0.4806094;0.468144;0.6151051;-1;4;-3;-195;4027;787;0.4788122;2.805529;-0.08884281;0.4846758;3.339881;-0.1986413;0.4898254;3.809168;-0.2971355;0.4549741;4.503503;-0.06230015;0.1804966;4.811312;0.00598757;-0.1526945;4.641318;0.02099269;-0.8159205;5.265651;-0.1483315;-0.7863812;6.17625;-0.4085869;0.7001846;4.83743;0.005900383;0.9964244;4.699068;0.02080017;1.723636;5.331075;0.01849973;2.001298;6.187223;-0.2776423;0.166551;2.76284;-0.08718293;0.1628206;1.310253;-0.262782;0;0;0;0.166551;2.76284;-0.08718293;0.1628206;1.310253;-0.262782;0;0;0
305157.8064;NotLabelled;16384;-0.2091413;-0.4196676;-0.8300433;0.301939;1;2;0;2218;-2954;1855;65536;0.5890548;0.4584487;0.5387812;-0.3905817;-6;4;-3;39;-4011;-1073;8192;0.8912159;0.3185596;0.1537396;-0.2839335;8;-1;-3;-1878;-2397;2731;32768;0.695455;0.3919668;0.4653739;-0.3822715;-9;1;-1;933;-3601;-1696;256;0.4501385;-0.5968372;-0.3725762;-0.5498615;-4;-8;0;77;3832;-1351;128;0.4875346;-0.5608221;-0.4861496;-0.4598338;2;-10;2;-759;4077;188;4;-0.02493075;-0.06094183;-0.710282;-0.700831;6;-7;1;525;3922;188;16;0.4986149;-0.6409002;0.3698061;0.4515235;0;6;-5;79;3844;1058;2;0.700831;-0.7072506;0.08310249;-0.04155125;-6;-11;0;-639;4044;-161;8;0.4141274;-0.4806094;0.468144;0.6151051;-4;-7;-5;-193;4057;801;0.4756344;2.804914;-0.08902374;0.4814947;3.338964;-0.2002791;0.4866413;3.807981;-0.3000528;0.4516466;4.502926;-0.0670515;0.1771162;4.810884;0.0003455877;-0.1560616;4.640896;0.01569718;-0.817848;5.267535;-0.1507097;-0.7878483;6.178064;-0.4111584;0.6968015;4.837057;0.0003457069;0.9930514;4.698767;0.01569742;1.723423;5.327103;0.0106324;2.006544;6.180774;-0.2874875;0.1633732;2.76223;-0.08723813;0.1603344;1.309983;-0.2656414;0;0;0;0.1633732;2.76223;-0.08723813;0.1603344;1.309983;-0.2656414;0;0;0
305177.6051;NotLabelled;16384;-0.2091413;-0.4196676;-0.8300433;0.301939;1;3;1;2296;-2964;1783;65536;0.5901301;0.4570637;0.5387812;-0.3905817;-6;3;-3;41;-4073;-1015;8192;0.8917097;0.3171745;0.1537396;-0.2839335;8;-1;-2;-1902;-2449;2731;32768;0.6953061;0.3905817;0.466759;-0.3822715;-8;2;0;897;-3611;-1742;256;0.4515235;-0.5970653;-0.3725762;-0.5484765;-4;-8;0;113;3890;-1357;128;0.4875346;-0.5619549;-0.4861496;-0.4584487;1;-6;3;-727;4099;-10;4;-0.0235457;-0.06232687;-0.710209;-0.700831;8;-3;0;585;3916;88;16;0.5;-0.6414133;0.367036;0.4515235;0;16;-3;-5;3810;952;2;0.702216;-0.705711;0.08448754;-0.04155125;-7;-6;-1;-783;4122;-85;8;0.4127424;-0.4792244;0.466759;0.6181616;-4;-1;-5;-339;4099;945;0.472764;2.804629;-0.09194314;0.4786243;3.33868;-0.2031919;0.4837709;3.807698;-0.3029596;0.4486742;4.50325;-0.07179224;0.1741034;4.811357;-0.005241841;-0.1590589;4.641376;0.01051302;-0.8198117;5.268012;-0.1599593;-0.7863708;6.177926;-0.4221314;0.693786;4.837583;-0.005242169;0.9900479;4.699364;0.01051247;1.722224;5.325616;0.009233832;2.006195;6.178354;-0.290741;0.1605028;2.761945;-0.09015807;0.1578113;1.309696;-0.2685506;0;0;0;0.1605028;2.761945;-0.09015807;0.1578113;1.309696;-0.2685506;0;0;0
305198.7712;NotLabelled;16384;-0.2091413;-0.4182825;-0.8307421;0.301939;0;5;1;2266;-3052;1715;65536;0.5912003;0.4556787;0.5387812;-0.3905817;-6;3;-4;139;-3991;-1061;8192;0.8919614;0.3157895;0.1551246;-0.2839335;8;-2;-3;-1816;-2489;2673;32768;0.6968411;0.3891967;0.466759;-0.3808864;-7;1;-2;787;-3573;-1804;256;0.4515235;-0.5983347;-0.3725762;-0.5470914;-2;-8;0;95;3916;-1395;128;0.4889196;-0.5607503;-0.4861496;-0.4584487;3;5;4;-657;4205;2;4;-0.02493075;-0.06232687;-0.7087923;-0.702216;9;1;0;639;3802;-122;16;0.501385;-0.6428832;0.3642659;0.4501385;1;35;0;-181;3806;984;2;0.7036011;-0.7042429;0.08587258;-0.0401662;-9;-6;-2;-835;4204;69;8;0.4127424;-0.4792244;0.466759;0.6181616;-3;3;-5;-351;4291;1049;0.4666744;2.803988;-0.09109634;0.4725313;3.337734;-0.2038048;0.4776749;3.806478;-0.3048545;0.4441074;4.502113;-0.07371226;0.1702148;4.810826;-0.007173657;-0.1633206;4.641578;0.008586407;-0.8239756;5.268069;-0.1627946;-0.7870956;6.17736;-0.4266682;0.6899537;4.835909;-0.007173538;0.985911;4.697039;0.008586705;1.719334;5.321815;0.004098177;2.006668;6.172636;-0.298112;0.1544132;2.761309;-0.08918524;0.1584786;1.309346;-0.2698609;0;0;0;0.1544132;2.761309;-0.08918524;0.1584786;1.309346;-0.2698609;0;0;0
305219.6411;NotLabelled;16384;-0.2091413;-0.4168975;-0.8309337;0.3033241;1;11;-1;2398;-2866;1843;65536;0.5924109;0.4529086;0.5387812;-0.3919668;-7;4;-2;143;-4021;-899;8192;0.8924505;0.3144044;0.1551246;-0.2839335;7;-3;-2;-1752;-2709;2513;32768;0.6976129;0.3878116;0.466759;-0.3808864;-6;3;-1;823;-3661;-1832;256;0.4529086;-0.5981488;-0.3711911;-0.5470914;-2;-9;0;45;4008;-1337;128;0.4875346;-0.5607538;-0.4875346;-0.4584487;6;19;4;-615;4159;132;4;-0.02493075;-0.06232687;-0.7074174;-0.7036011;8;8;3;701;3814;-270;16;0.5041551;-0.6449879;0.3601108;0.4473684;1;37;-1;139;3732;960;2;0.7054541;-0.702216;0.08725762;-0.0401662;-10;-12;-2;-827;4280;151;8;0.4141274;-0.4792244;0.4653739;0.6182796;-1;3;-4;-369;4469;1275;0.4604737;2.80396;-0.092098;0.4663307;3.337708;-0.2047947;0.4714743;3.806455;-0.305834;0.4355963;4.50207;-0.07498047;0.1606804;4.8099;-0.008574679;-0.1722924;4.639555;0.007249206;-0.830684;5.267746;-0.1666048;-0.7882555;6.176385;-0.4318804;0.6803334;4.836706;-0.008575559;0.9767492;4.698825;0.007247806;1.711959;5.32151;0.005260229;2.002161;6.171068;-0.2977582;0.1482126;2.761281;-0.09018788;0.1583288;1.309276;-0.2702879;0;0;0;0.1482126;2.761281;-0.09018788;0.1583288;1.309276;-0.2702879;0;0;0
305240.6879;NotLabelled;16384;-0.2091413;-0.4155124;-0.8316272;0.3033241;5;12;-1;2436;-2846;1997;65536;0.5934673;0.4515235;0.5387812;-0.3919668;-9;1;-1;83;-4127;-945;8192;0.8926483;0.3144044;0.1565097;-0.2825485;8;-5;-3;-1564;-2827;2529;32768;0.6983811;0.3864266;0.466759;-0.3808864;-3;3;0;611;-3639;-1794;256;0.4529086;-0.5994127;-0.3711911;-0.5457063;-5;-9;0;-117;4034;-1287;128;0.4875346;-0.5571932;-0.4903047;-0.4598338;8;19;3;-489;4037;366;4;-0.02770083;-0.06094183;-0.7049862;-0.7060547;9;7;5;489;3906;-22;16;0.5069252;-0.6455037;0.3587258;0.4445983;2;15;-3;215;4078;800;2;0.7066346;-0.700831;0.0900277;-0.03739612;-11;-31;-3;-729;4588;187;8;0.4141274;-0.4792244;0.4653739;0.6182796;0;-2;0;-505;4497;1165;0.4483601;2.804783;-0.08532929;0.4542102;3.337908;-0.2009378;0.4593478;3.806095;-0.3045344;0.4249964;4.501798;-0.07370639;0.1507568;4.810233;-0.007313006;-0.1825893;4.640619;0.008515984;-0.8406817;5.268666;-0.1669834;-0.7948195;6.176654;-0.4339123;0.6704674;4.835897;-0.007312655;0.9665796;4.697367;0.008516848;1.70139;5.320509;0.003884673;1.994745;6.168798;-0.2996517;0.1360991;2.762115;-0.08316767;0.1576262;1.310447;-0.2649724;0;0;0;0.1360991;2.762115;-0.08316767;0.1576262;1.310447;-0.2649724;0;0;0
305262.6807;NotLabelled;16384;-0.2077562;-0.4141274;-0.8331679;0.301939;7;10;-2;2486;-2786;2169;65536;0.5932604;0.4501385;0.5401662;-0.3919668;-12;3;0;-219;-4165;-979;8192;0.8937629;0.3130194;0.1578947;-0.2797784;10;0;-4;-1370;-3029;2695;32768;0.6957625;0.3864266;0.4695291;-0.3822715;-2;9;6;573;-4091;-1736;256;0.4570637;-0.5987739;-0.3711911;-0.5429363;-12;-7;1;-551;3984;-1313;128;0.4861496;-0.5548851;-0.4916897;-0.4626039;0;12;0;19;4631;388;4;-0.02908587;-0.06232687;-0.7036011;-0.7072588;5;-3;4;403;4442;-86;16;0.5083103;-0.6451827;0.3573407;0.4445983;3;0;-3;115;4052;1124;2;0.7089722;-0.6980609;0.09418282;-0.03462604;-11;-50;-2;-489;4746;65;8;0.4113573;-0.4778393;0.466759;0.6201538;0;-41;0;-657;4251;851;0.4391895;2.804346;-0.08011714;0.4450396;3.337467;-0.1957432;0.450177;3.805651;-0.2993552;0.4140064;4.503071;-0.07405499;0.1389759;4.81134;-0.01021262;-0.1939554;4.64103;0.006827593;-0.8524082;5.266209;-0.1773466;-0.8050564;6.173491;-0.4464063;0.6586212;4.838294;-0.01021159;0.9550692;4.700627;0.006830215;1.691426;5.321959;0.006237984;1.981804;6.171562;-0.2964838;0.1269285;2.761678;-0.07795394;0.1555146;1.310757;-0.2646874;0;0;0;0.1269285;2.761678;-0.07795394;0.1555146;1.310757;-0.2646874;0;0;0
305282.796;NotLabelled;16384;-0.2063712;-0.4113573;-0.8358791;0.299169;4;12;-4;2638;-2276;2187;65536;0.5933816;0.4473684;0.5443213;-0.3891967;-18;15;5;-803;-3893;-1165;8192;0.8941857;0.3116343;0.1606648;-0.2783934;3;1;-7;-1618;-2839;2777;32768;0.695415;0.3850415;0.4722992;-0.3808864;-7;0;3;535;-3967;-1820;256;0.4598338;-0.5987642;-0.3698061;-0.5415512;-1;-4;2;-813;4158;-1331;128;0.4847645;-0.5501354;-0.4944598;-0.466759;-1;21;0;193;4135;296;4;-0.02770083;-0.06371191;-0.702216;-0.7085662;0;-7;-3;397;4338;-254;16;0.5083103;-0.644226;0.3573407;0.4459834;2;1;-2;21;4074;998;2;0.7122481;-0.6939058;0.1024931;-0.02631579;-7;9;-6;-301;3616;439;8;0.4030471;-0.4736842;0.4722992;0.6245877;-11;-20;1;-33;3521;875;0.4313197;2.804323;-0.0818857;0.4371662;3.337117;-0.1990072;0.4423005;3.805009;-0.3039324;0.4037172;4.503001;-0.08081561;0.1276279;4.810531;-0.01797979;-0.2047245;4.639142;-0.0004613549;-0.8671395;5.259415;-0.1870022;-0.8209073;6.163914;-0.4654625;0.6471784;4.839253;-0.01797974;0.9440905;4.702651;-0.0004609227;1.681311;5.322906;-0.008347392;1.9711;6.171199;-0.3152856;0.1190587;2.761662;-0.07959324;0.1537597;1.31078;-0.2655955;0;0;0;0.1190587;2.761662;-0.07959324;0.1537597;1.31078;-0.2655955;0;0;0
305304.6112;NotLabelled;16384;-0.2049861;-0.4099723;-0.8378849;0.2963989;0;6;0;2544;-2114;1845;65536;0.5921648;0.4445983;0.5498615;-0.3864266;-10;6;5;-645;-3539;-1311;8192;0.8939357;0.3116343;0.1620499;-0.2783934;1;0;-8;-1498;-2949;2541;32768;0.6944724;0.3850415;0.4736842;-0.3808864;-6;0;2;333;-3901;-1716;256;0.4598338;-0.5987642;-0.3698061;-0.5415512;1;-2;1;-747;3768;-1223;128;0.4833795;-0.5501772;-0.4944598;-0.468144;-4;16;0;295;3855;180;4;-0.02631579;-0.06371191;-0.702216;-0.7086191;1;-8;-1;503;4072;-296;16;0.5096953;-0.6431307;0.3573407;0.4459834;1;11;-2;-41;4004;800;2;0.7122805;-0.6939058;0.101108;-0.03047091;-9;25;-7;-685;3428;351;8;0.400277;-0.4736842;0.4709141;0.6274086;-12;-6;4;-301;3603;979;0.4275873;2.805595;-0.08248037;0.4334373;3.338704;-0.1981651;0.4385746;3.806877;-0.3018287;0.3999914;4.504868;-0.07871196;0.1239021;4.812397;-0.01587608;-0.2084503;4.641009;0.001642421;-0.8746583;5.256507;-0.1871889;-0.8338562;6.158064;-0.4758495;0.6434526;4.84112;-0.01587611;0.9403647;4.704518;0.001642704;1.677059;5.325368;-0.00838542;1.964527;6.173972;-0.3166412;0.1153263;2.762928;-0.08031213;0.1496299;1.31168;-0.2635059;0;0;0;0.1153263;2.762928;-0.08031213;0.1496299;1.31168;-0.2635059;0;0;0
305324.724;NotLabelled;16384;-0.2049861;-0.4099723;-0.8378849;0.2963989;2;1;1;2514;-2200;1713;65536;0.5919153;0.4432133;0.5512465;-0.3864266;-3;0;3;-559;-3369;-1357;8192;0.8931993;0.3130194;0.1634349;-0.2783934;0;-1;-7;-1434;-2971;2341;32768;0.6942845;0.3850415;0.4750692;-0.3795014;-6;0;1;215;-3811;-1656;256;0.4598338;-0.5983637;-0.368421;-0.5429363;2;0;0;-777;3540;-1241;128;0.4819945;-0.5490271;-0.4944598;-0.4709141;-5;17;1;373;3799;130;4;-0.02493075;-0.06509695;-0.702216;-0.7085432;0;-4;1;539;3884;-304;16;0.5110803;-0.6437583;0.3559557;0.4445983;0;10;-3;81;4006;734;2;0.7136984;-0.6925207;0.09972299;-0.033241;-5;20;-8;-1019;3384;495;8;0.398892;-0.4750692;0.4695291;0.6282809;-8;6;4;-183;3609;1189;0.4274737;2.806076;-0.07387537;0.433327;3.339492;-0.1881323;0.4384674;3.807941;-0.2905419;0.397438;4.504706;-0.06405449;0.1203024;4.811031;4.402548E-05;-0.2115085;4.638486;0.01643993;-0.8795782;5.252743;-0.1698393;-0.8389987;6.154327;-0.4584494;0.6397571;4.841432;0.0006312132;0.9370946;4.705706;0.01773852;1.669472;5.331669;0.009498477;1.954857;6.180718;-0.2994634;0.1152126;2.763402;-0.07183055;0.1490062;1.312649;-0.2589928;0;0;0;0.1152126;2.763402;-0.07183055;0.1490062;1.312649;-0.2589928;0;0;0
305345.6212;NotLabelled;16384;-0.2049861;-0.4099723;-0.8383736;0.2950138;4;-2;2;2528;-2184;1741;65536;0.590486;0.4445983;0.5526316;-0.3850415;3;-5;2;-503;-3335;-1397;8192;0.892572;0.3157895;0.166205;-0.2756233;0;-3;-8;-1146;-2915;2171;32768;0.694091;0.3850415;0.4764543;-0.3781163;-2;0;2;127;-3557;-1610;256;0.4612188;-0.5981488;-0.367036;-0.5429363;-1;0;-2;-861;3542;-1209;128;0.4819945;-0.5465828;-0.4958449;-0.4722992;2;13;1;395;3867;94;4;-0.02493075;-0.06648199;-0.700831;-0.7097848;0;-2;7;459;3952;-380;16;0.5110803;-0.6445222;0.3545706;0.4445983;-2;-5;-4;-199;4004;706;2;0.713564;-0.6925207;0.09972299;-0.03601108;-6;5;-5;-1019;3514;461;8;0.400277;-0.4764543;0.468144;0.6273841;-2;19;5;-233;3403;1215;0.4224335;2.804834;-0.08181089;0.4282833;3.337933;-0.1975428;0.4334206;3.806096;-0.3012476;0.3902846;4.503433;-0.07691969;0.1121912;4.809036;-0.01352548;-0.2190282;4.635442;0.003728196;-0.8864183;5.249055;-0.1870524;-0.8506596;6.149777;-0.4789754;0.6315422;4.841166;-0.01352537;0.9293457;4.706483;0.003728569;1.659371;5.335022;-0.01291966;1.943005;6.182845;-0.3268201;0.1101725;2.762167;-0.07963853;0.1496978;1.311344;-0.2651322;0;0;0;0.1101725;2.762167;-0.07963853;0.1496978;1.311344;-0.2651322;0;0;0
305366.0875;NotLabelled;16384;-0.2049861;-0.4113573;-0.8381813;0.2936288;5;-1;0;2472;-2132;1811;65536;0.5894406;0.4459834;0.5526316;-0.3850415;6;-6;2;-517;-3401;-1351;8192;0.8918216;0.3171745;0.16759;-0.2756233;-1;0;-7;-1090;-2831;2181;32768;0.6948438;0.3850415;0.4764543;-0.3767313;-2;2;4;161;-3473;-1634;256;0.4653739;-0.5945089;-0.365651;-0.5443213;-8;-1;-1;-961;3568;-1181;128;0.4833795;-0.5429469;-0.4958449;-0.4750692;2;2;1;345;3945;192;4;-0.02631579;-0.06786703;-0.700831;-0.7096037;0;-7;5;429;4094;-304;16;0.5110803;-0.6435646;0.3545706;0.4459834;-2;-12;-4;-47;4010;962;2;0.7137561;-0.6925207;0.09833795;-0.03601108;2;-1;8;-397;3390;321;8;0.4058172;-0.4819945;0.4639889;0.6226621;0;27;0;-269;3541;1025;0.4189911;2.804085;-0.07804188;0.4248374;3.336868;-0.1952195;0.4299715;3.804748;-0.3001941;0.3796734;4.502886;-0.07988586;0.09846899;4.806011;-0.01834451;-0.23098;4.629167;-0.0002126396;-0.9000079;5.241051;-0.190814;-0.8671209;6.142438;-0.4810134;0.6174675;4.843406;-0.01834464;0.9166144;4.711853;-0.0002126694;1.644275;5.343059;-0.01928973;1.927865;6.19018;-0.3351182;0.1067301;2.761424;-0.07574449;0.1463473;1.311348;-0.2669744;0;0;0;0.1067301;2.761424;-0.07574449;0.1463473;1.311348;-0.2669744;0;0;0
305386.5988;NotLabelled;16384;-0.2049861;-0.4113573;-0.8386652;0.2922437;4;-2;-1;2340;-2074;1999;65536;0.5905899;0.4473684;0.5512465;-0.3836565;7;-6;4;-475;-3581;-1289;8192;0.8914935;0.3185596;0.1689751;-0.2742382;-1;-1;-5;-1138;-2849;2135;32768;0.6931217;0.3864266;0.4778393;-0.3767313;0;2;6;143;-3421;-1588;256;0.466759;-0.5934221;-0.365651;-0.5443213;-6;0;-1;-755;3526;-1233;128;0.4819945;-0.5429646;-0.4958449;-0.4764543;0;10;1;233;3871;530;4;-0.02493075;-0.06925207;-0.700831;-0.7095199;-4;-12;1;525;4130;-380;16;0.5096953;-0.6419709;0.3559557;0.4487534;-2;-18;-2;-115;3962;1106;2;0.7140142;-0.6925207;0.09695291;-0.03462604;3;8;11;-449;3426;459;8;0.4085872;-0.4819945;0.4639889;0.6208479;8;10;-5;-601;3941;515;0.4170248;2.803825;-0.0804947;0.4228746;3.33692;-0.1962413;0.4280119;3.80508;-0.299959;0.3760586;4.503683;-0.08151364;0.094143;4.806319;-0.02083055;-0.2349005;4.628764;-0.002292648;-0.9051499;5.238758;-0.1946532;-0.8717343;6.140209;-0.484593;0.6130537;4.844912;-0.02083069;0.9124999;4.714098;-0.002292454;1.637945;5.347773;-0.02374351;1.916957;6.196448;-0.3394839;0.1047638;2.761157;-0.07832111;0.143838;1.311079;-0.2696464;0;0;0;0.1047638;2.761157;-0.07832111;0.143838;1.311079;-0.2696464;0;0;0
305406.7412;NotLabelled;16384;-0.2049861;-0.4113573;-0.8396254;0.2894737;1;-2;-3;2318;-2328;2159;65536;0.5880835;0.4501385;0.5526316;-0.3822715;3;0;4;-581;-3719;-1251;8192;0.8909974;0.3199446;0.1689751;-0.2742382;0;-1;-3;-1252;-2971;2293;32768;0.6929168;0.3864266;0.4792244;-0.3753462;0;0;7;155;-3601;-1568;256;0.466759;-0.5942732;-0.3642659;-0.5443213;-3;-1;-3;-727;3530;-1273;128;0.4819945;-0.5417461;-0.4958449;-0.4778393;3;18;2;131;3919;332;4;-0.0235457;-0.06925207;-0.699446;-0.7109326;-3;-7;-3;663;4096;-394;16;0.5083103;-0.6413296;0.3573407;0.4501385;0;-16;-1;-59;4030;1142;2;0.7143849;-0.6925207;0.09418282;-0.03462604;1;14;11;-735;3690;437;8;0.4127424;-0.4819945;0.4626039;0.6191306;19;31;-10;-857;4277;33;0.4125347;2.803855;-0.08468348;0.4183845;3.336949;-0.2004346;0.4235217;3.805109;-0.3041564;0.3708867;4.503188;-0.08420594;0.0886705;4.805404;-0.02282945;-0.2401875;4.627472;-0.004619688;-0.9126838;5.233673;-0.2010806;-0.8864739;6.135644;-0.4901469;0.6075413;4.84453;-0.02282947;0.9071245;4.713984;-0.00461936;1.630802;5.349741;-0.02410102;1.908354;6.197995;-0.3422438;0.1002736;2.761188;-0.08250954;0.1449819;1.310814;-0.2703236;0;0;0;0.1002736;2.761188;-0.08250954;0.1449819;1.310814;-0.2703236;0;0;0
305426.6723;NotLabelled;16384;-0.2036011;-0.4113573;-0.8399624;0.2894737;0;-1;-6;2324;-2464;2307;65536;0.5880835;0.4501385;0.5526316;-0.3822715;1;0;3;-389;-4033;-1301;8192;0.8906603;0.3213296;0.1703601;-0.2728532;0;-5;-4;-1284;-3031;2517;32768;0.6911815;0.3878116;0.4806094;-0.3753462;0;1;7;81;-3807;-1574;256;0.468144;-0.5919089;-0.3642659;-0.5457063;-3;0;-3;-695;3800;-1249;128;0.4806094;-0.5392509;-0.4972299;-0.4806094;0;15;1;-45;4123;256;4;-0.0235457;-0.06925207;-0.699446;-0.7109326;-3;2;-6;685;4064;-390;16;0.5069252;-0.6406787;0.3587258;0.4515235;0;-15;1;-231;4094;1004;2;0.7131526;-0.6939058;0.09279778;-0.03601108;4;18;10;-1109;3978;537;8;0.4196676;-0.4819945;0.4612188;0.6154979;21;33;-8;-249;4633;475;0.4128509;2.803591;-0.08596271;0.4187005;3.336674;-0.2017634;0.4238375;3.804824;-0.3055288;0.3679879;4.503228;-0.08740719;0.08438964;4.804318;-0.02687318;-0.2436609;4.624941;-0.008264482;-0.9180684;5.230269;-0.2008337;-0.8927282;6.132239;-0.4899774;0.6030774;4.8458;-0.02687347;0.9032464;4.716663;-0.00826484;1.624613;5.354871;-0.03265738;1.896595;6.204654;-0.3515296;0.1005898;2.760924;-0.0837843;0.1447326;1.31055;-0.2717321;0;0;0;0.1005898;2.760924;-0.0837843;0.1447326;1.31055;-0.2717321;0;0;0
305447.6646;NotLabelled;16384;-0.2036011;-0.4127424;-0.8397591;0.2880886;0;-2;-6;2564;-2800;2219;65536;0.5889816;0.4501385;0.5526316;-0.3808864;0;0;1;-479;-4275;-1387;8192;0.8908176;0.3213296;0.1717452;-0.2714681;1;-2;-2;-1472;-3015;2947;32768;0.689969;0.3891967;0.4833795;-0.3725762;-4;0;8;429;-3975;-1824;256;0.468144;-0.5919089;-0.3642659;-0.5457063;1;0;-2;-463;4090;-1269;128;0.4806094;-0.5392509;-0.4972299;-0.4806094;0;4;0;-311;4369;352;4;-0.0235457;-0.06786703;-0.699446;-0.7110661;-2;15;-7;761;4008;-442;16;0.5069252;-0.6406787;0.3587258;0.4515235;0;-9;3;-309;4006;892;2;0.7136097;-0.6939058;0.08864266;-0.03739612;8;21;8;-1431;4462;531;8;0.4238227;-0.4833795;0.4598338;0.6125941;4;42;1;65;4383;1123;0.4126988;2.80396;-0.0888674;0.4185484;3.337043;-0.2046681;0.4236856;3.805193;-0.3084335;0.3678358;4.503596;-0.09031191;0.08423762;4.804686;-0.02977789;-0.2438129;4.62531;-0.01116921;-0.9196512;5.228896;-0.2041894;-0.8940151;6.130182;-0.4954342;0.6029253;4.846168;-0.02977815;0.9030944;4.717031;-0.01116949;1.624016;5.355606;-0.03893149;1.889467;6.205741;-0.3623347;0.1004378;2.761293;-0.08668901;0.1447327;1.31055;-0.271732;0;0;0;0.1004378;2.761293;-0.08668901;0.1447327;1.31055;-0.271732;0;0;0
305468.8563;NotLabelled;16384;-0.2022161;-0.4127424;-0.8405674;0.2867036;1;-2;-6;2670;-2940;2331;65536;0.5889816;0.4501385;0.5526316;-0.3808864;0;2;0;-595;-4475;-1423;8192;0.8912385;0.3213296;0.1717452;-0.2700831;0;-2;0;-1610;-2759;2911;32768;0.6897438;0.3891967;0.4847645;-0.3711911;-6;-6;6;561;-3899;-2052;256;0.466759;-0.5925745;-0.3628809;-0.5470914;6;0;-1;-371;4398;-1305;128;0.4792244;-0.5392475;-0.4972299;-0.4819945;-4;1;0;-459;4621;250;4;-0.02770083;-0.06232687;-0.699446;-0.7114235;0;20;-3;593;4088;-274;16;0.5069252;-0.6399012;0.3601108;0.4515235;-2;0;6;-75;4032;724;2;0.7125255;-0.6952909;0.08587258;-0.03878116;8;19;1;-1473;4846;387;8;0.4265928;-0.4861496;0.4570637;0.6105489;-4;20;0;-223;4407;1041;0.4105374;2.804944;-0.08926064;0.4163904;3.338334;-0.2036379;0.4215305;3.806759;-0.3061531;0.3651099;4.504044;-0.08462584;0.08125239;4.80457;-0.02252263;-0.246622;4.624796;-0.004656941;-0.9252101;5.225595;-0.1967198;-0.8998695;6.126881;-0.487991;0.599901;4.846539;-0.02252281;0.9001985;4.717597;-0.004656613;1.621238;5.35597;-0.03395081;1.884207;6.205646;-0.3605756;0.09827627;2.762271;-0.0872054;0.1440642;1.311172;-0.2690711;0;0;0;0.09827627;2.762271;-0.0872054;0.1440642;1.311172;-0.2690711;0;0;0
305488.8084;NotLabelled;16384;-0.200831;-0.4141274;-0.8402181;0.2867036;-5;-1;2;2646;-2598;2131;65536;0.5844006;0.4515235;0.5554016;-0.3822715;8;-2;7;-503;-4083;-1395;8192;0.8910038;0.3227147;0.1703601;-0.2700831;-5;2;-3;-1588;-2589;2573;32768;0.6910331;0.3878116;0.4861496;-0.368421;2;-2;1;523;-3557;-2178;256;0.466759;-0.5912927;-0.3628809;-0.5484765;0;1;0;-355;3766;-1311;128;0.4792244;-0.539283;-0.4958449;-0.4833795;-8;-4;0;-233;3973;144;4;-0.03047091;-0.05817174;-0.699446;-0.7116621;-2;1;0;349;4052;6;16;0.5041551;-0.6413072;0.3614958;0.4515235;-1;-11;3;279;3948;1038;2;0.7111807;-0.6966759;0.08448754;-0.04155125;4;-1;2;-623;3802;299;8;0.4279778;-0.4875346;0.4542936;0.6105426;-1;-10;1;-95;4075;1025;0.4170298;2.804123;-0.09401387;0.4228862;3.337826;-0.2069231;0.4280294;3.806532;-0.3081491;0.3700546;4.503675;-0.08658101;0.08552787;4.803564;-0.02445886;-0.2419447;4.623059;-0.006602004;-0.9225476;5.223129;-0.1937505;-0.9067335;6.125498;-0.4823271;0.6040814;4.84669;-0.024459;0.904666;4.718417;-0.006602108;1.624392;5.358309;-0.03504241;1.886674;6.205544;-0.3684886;0.1047686;2.761445;-0.09208537;0.1510552;1.309993;-0.270979;0;0;0;0.1047686;2.761445;-0.09208537;0.1510552;1.309993;-0.270979;0;0;0
305509.6555;NotLabelled;16384;-0.200831;-0.4155124;-0.839534;0.2867036;-5;0;5;2564;-2696;1891;65536;0.5833278;0.4529086;0.5554016;-0.3822715;10;-4;5;-321;-3883;-1329;8192;0.8903167;0.3227147;0.1717452;-0.2714681;-5;6;-4;-1562;-2629;2497;32768;0.6902928;0.3878116;0.4861496;-0.3698061;6;7;-1;283;-3479;-1940;256;0.466759;-0.5912927;-0.3628809;-0.5484765;-3;0;1;-321;3792;-1301;128;0.4792244;-0.5417886;-0.4944598;-0.4819945;-3;-7;-1;-265;3901;50;4;-0.02908587;-0.05817174;-0.700831;-0.7103562;-4;-5;-2;337;3970;84;16;0.5027701;-0.6416122;0.3628809;0.4515235;-2;-16;2;219;3922;1036;2;0.7112603;-0.6966759;0.08448754;-0.0401662;2;-7;5;-659;3684;221;8;0.4252077;-0.4861496;0.4556787;0.6125471;0;-22;0;-119;3861;859;0.4267258;2.804275;-0.0953967;0.4325857;3.338288;-0.2068311;0.4377319;3.807271;-0.3067619;0.3798147;4.504415;-0.08517873;0.09530407;4.804304;-0.02298272;-0.2321638;4.623799;-0.005040765;-0.9130511;5.223506;-0.1923158;-0.8999527;6.126488;-0.4791045;0.6138576;4.847431;-0.02311766;0.9144469;4.719157;-0.005338728;1.633418;5.359718;-0.03754592;1.895383;6.207687;-0.3693765;0.1144646;2.761592;-0.09359558;0.1546841;1.309697;-0.270356;0;0;0;0.1144646;2.761592;-0.09359558;0.1546841;1.309697;-0.270356;0;0;0
305529.8626;NotLabelled;16384;-0.2022161;-0.4141274;-0.8389351;0.2894737;-4;0;3;2040;-2770;1833;65536;0.582487;0.4556787;0.5540166;-0.3822715;9;-5;-1;-277;-3645;-1227;8192;0.8886949;0.3240997;0.1731302;-0.2742382;-1;4;1;-1288;-2649;2635;32768;0.6872682;0.3891967;0.4861496;-0.3739612;5;3;-5;267;-3571;-1500;256;0.4653739;-0.592814;-0.3642659;-0.5470914;2;0;1;-155;3916;-1219;128;0.4792244;-0.5442755;-0.4930748;-0.4806094;-1;-7;-1;-433;4095;236;4;-0.02493075;-0.05955679;-0.702216;-0.7090304;-4;-8;-5;609;4098;-2;16;0.4986149;-0.6387535;0.368421;0.4556787;-2;-11;2;7;3920;978;2;0.7100523;-0.6980609;0.08448754;-0.03739612;7;-5;6;-771;4016;-57;8;0.4238227;-0.4861496;0.4584487;0.611439;0;-1;3;-457;4023;957;0.4348184;2.804882;-0.1001536;0.4406817;3.3392;-0.2101152;0.4458309;3.808457;-0.3087526;0.3917497;4.505813;-0.08686611;0.1089006;4.807254;-0.02459736;-0.2195721;4.628569;-0.006810084;-0.8961046;5.233328;-0.1936206;-0.8850961;6.137644;-0.4762676;0.6276866;4.847489;-0.02459741;0.9275522;4.717536;-0.00680989;1.643877;5.361209;-0.03574967;1.9033;6.212587;-0.3607782;0.1225572;2.762194;-0.09847959;0.1561008;1.309539;-0.270312;0;0;0;0.1225572;2.762194;-0.09847959;0.1561008;1.309539;-0.270312;0;0;0
305550.6543;NotLabelled;16384;-0.2022161;-0.4141274;-0.8384559;0.2908587;-3;-1;2;1906;-2732;1967;65536;0.5818065;0.4570637;0.5526316;-0.3836565;7;-2;-4;-333;-3699;-1149;8192;0.8886949;0.3240997;0.1731302;-0.2742382;-1;2;5;-1348;-2639;2703;32768;0.6872682;0.3891967;0.4861496;-0.3739612;1;-2;-5;373;-3563;-1556;256;0.4653739;-0.592814;-0.3642659;-0.5470914;1;0;0;-157;3818;-1281;128;0.4792244;-0.5442755;-0.4930748;-0.4806094;0;-9;0;-483;4013;284;4;-0.0235457;-0.05955679;-0.7036011;-0.7077034;-3;-5;-5;723;4112;108;16;0.4972299;-0.6390327;0.3698061;0.4556787;-1;-9;3;-13;3948;984;2;0.7089235;-0.699446;0.08310249;-0.03601108;6;0;5;-609;4218;-53;8;0.4224377;-0.4861496;0.4584487;0.6123967;0;-6;2;-209;4027;1035;0.4445299;2.804956;-0.1016861;0.4503931;3.339273;-0.2116478;0.4555424;3.808531;-0.3102852;0.4014611;4.505886;-0.08839832;0.1186121;4.807327;-0.02612951;-0.2098606;4.628642;-0.008342251;-0.8851343;5.235298;-0.1935533;-0.8742275;6.141;-0.4717275;0.6373979;4.847564;-0.02612948;0.9372637;4.717609;-0.008341968;1.653581;5.361283;-0.03745639;1.913004;6.212661;-0.3624842;0.1322686;2.762268;-0.1000122;0.1597609;1.30923;-0.2696684;0;0;0;0.1322686;2.762268;-0.1000122;0.1597609;1.30923;-0.2696684;0;0;0
305570.6631;NotLabelled;16384;-0.2022161;-0.4155124;-0.8372883;0.2922437;-4;-2;0;2176;-2748;1943;65536;0.5835136;0.4570637;0.5498615;-0.3850415;3;0;-8;-145;-3879;-1075;8192;0.8886949;0.3240997;0.1731302;-0.2742382;-1;0;7;-1488;-2681;2587;32768;0.6882458;0.3891967;0.4847645;-0.3739612;0;-3;-4;443;-3563;-1658;256;0.4653739;-0.5915328;-0.3642659;-0.5484765;1;0;0;-273;3796;-1279;128;0.4806094;-0.5455271;-0.4916897;-0.4792244;0;-12;-1;-429;4019;236;4;-0.0235457;-0.05955679;-0.7036011;-0.7077034;-4;2;-3;633;4060;94;16;0.4958449;-0.6391198;0.3698061;0.4570637;-1;-9;2;199;3968;938;2;0.7076234;-0.700831;0.08310249;-0.03462604;4;1;5;-551;4066;-47;8;0.4210526;-0.4847645;0.4598338;0.6134093;0;-12;1;-181;4021;915;0.4450369;2.804068;-0.1058811;0.4509002;3.338393;-0.2158062;0.4560496;3.807657;-0.3144116;0.4004161;4.504878;-0.09248558;0.1168964;4.805684;-0.03019698;-0.2111769;4.626266;-0.01241629;-0.8863801;5.23495;-0.191115;-0.8709171;6.141561;-0.4660966;0.6355913;4.847077;-0.0302003;0.9357462;4.717791;-0.01242316;1.651872;5.361462;-0.04595792;1.912706;6.212579;-0.3705389;0.1327757;2.76138;-0.1042103;0.1597495;1.308342;-0.2739498;0;0;0;0.1327757;2.76138;-0.1042103;0.1597495;1.308342;-0.2739498;0;0;0
305591.6048;NotLabelled;16384;-0.2022161;-0.4155124;-0.8368036;0.2936288;-5;0;0;2268;-2744;1975;65536;0.5835136;0.4570637;0.5498615;-0.3850415;2;2;-7;-231;-4021;-1095;8192;0.8894674;0.3227147;0.1717452;-0.2742382;0;-1;8;-1608;-2691;2583;32768;0.6882458;0.3891967;0.4847645;-0.3739612;0;-3;-5;619;-3609;-1662;256;0.4639889;-0.5926198;-0.3642659;-0.5484765;0;1;0;-239;3854;-1199;128;0.4819945;-0.54552;-0.4916897;-0.4778393;1;-13;-2;-451;4125;186;4;-0.0235457;-0.05817174;-0.7036011;-0.7078186;-3;5;-1;629;4044;162;16;0.4958449;-0.6383164;0.3711911;0.4570637;-2;-9;1;219;3982;914;2;0.7077847;-0.700831;0.08171745;-0.03462604;3;0;2;-659;4024;-93;8;0.4196676;-0.4847645;0.4612188;0.6133186;-1;-9;2;-363;4013;763;0.4445636;2.805028;-0.1060818;0.4504236;3.339057;-0.217438;0.4555701;3.808055;-0.3173002;0.4015974;4.504813;-0.09352028;0.1187883;4.80611;-0.03037865;-0.2096967;4.627407;-0.01300521;-0.8830314;5.237989;-0.1922752;-0.8675734;6.144601;-0.4672571;0.6375778;4.846301;-0.03037852;0.9374355;4.716272;-0.01300472;1.65609;5.357314;-0.04259169;1.916918;6.208431;-0.3671775;0.1323024;2.762344;-0.1042875;0.1593661;1.308974;-0.2711404;0;0;0;0.1323024;2.762344;-0.1042875;0.1593661;1.308974;-0.2711404;0;0;0
305612.6408;NotLabelled;16384;-0.2022161;-0.4155124;-0.8368036;0.2936288;-4;0;0;2418;-2798;1945;65536;0.5839014;0.4570637;0.5484765;-0.3864266;2;0;-6;-37;-4061;-1155;8192;0.889807;0.3213296;0.1703601;-0.2756233;2;0;5;-1584;-2615;2615;32768;0.688466;0.3891967;0.4833795;-0.3753462;1;1;-4;809;-3573;-1726;256;0.4639889;-0.5938987;-0.3642659;-0.5470914;0;1;2;-211;3926;-1207;128;0.4819945;-0.5467302;-0.4916897;-0.4764543;1;-11;-3;-457;4115;124;4;-0.02493075;-0.05817174;-0.7063916;-0.7049862;-4;7;0;585;4040;218;16;0.4944598;-0.6385838;0.3725762;0.4570637;-2;-6;1;137;3952;914;2;0.7064106;-0.702216;0.08171745;-0.03462604;2;-2;0;-657;3984;-157;8;0.4196676;-0.4847645;0.4612188;0.6133186;-2;2;3;-383;3999;793;0.459577;2.804397;-0.100925;0.4654371;3.338428;-0.2122758;0.4705835;3.807426;-0.3121333;0.4181593;4.504315;-0.08839116;0.1360205;4.806244;-0.02526698;-0.1928611;4.628272;-0.007885247;-0.8656463;5.238854;-0.1892073;-0.8468119;6.146231;-0.4614415;0.654898;4.84528;-0.02526689;0.9544659;4.714586;-0.00788486;1.67548;5.353182;-0.03256214;1.939455;6.204748;-0.3534032;0.1473158;2.761714;-0.0991312;0.1638327;1.308654;-0.2700202;0;0;0;0.1473158;2.761714;-0.0991312;0.1638327;1.308654;-0.2700202;0;0;0
305633.8168;NotLabelled;16384;-0.2022161;-0.4155124;-0.8368036;0.2936288;-3;-1;1;2386;-2766;1949;65536;0.5842824;0.4570637;0.5470914;-0.3878116;4;-2;-4;-47;-4073;-1145;8192;0.889807;0.3213296;0.1703601;-0.2756233;2;2;4;-1630;-2535;2601;32768;0.688491;0.3878116;0.4833795;-0.3767313;1;2;-2;875;-3659;-1682;256;0.4639889;-0.5938987;-0.3642659;-0.5470914;1;3;2;-225;3930;-1219;128;0.4819945;-0.5491738;-0.4903047;-0.4750692;1;-8;-3;-477;4161;174;4;-0.02631579;-0.0567867;-0.7078335;-0.7036011;-2;5;0;395;4034;168;16;0.4930748;-0.6396539;0.3725762;0.4570637;-2;-2;0;153;3928;1034;2;0.7064106;-0.702216;0.08171745;-0.03462604;2;2;-1;-665;4094;-31;8;0.4196676;-0.4847645;0.4598338;0.6143577;-3;4;3;-231;4049;807;0.4690362;2.803418;-0.1023761;0.4748996;3.337751;-0.2122618;0.4800491;3.807023;-0.3108325;0.4276777;4.503911;-0.08707803;0.1455538;4.80584;-0.02388723;-0.1833236;4.627868;-0.00642775;-0.8562003;5.237952;-0.1890851;-0.8348998;6.146079;-0.4586167;0.6644314;4.844877;-0.02400976;0.9640034;4.714182;-0.00669831;1.685005;5.352706;-0.03348994;1.950923;6.203753;-0.3541063;0.1567749;2.76073;-0.1007088;0.1677858;1.307693;-0.2722386;0;0;0;0.1567749;2.76073;-0.1007088;0.1677858;1.307693;-0.2722386;0;0;0
305654.706;NotLabelled;16384;-0.2022161;-0.4168975;-0.8356267;0.2950138;-3;-2;4;2490;-2722;1917;65536;0.5842824;0.4570637;0.5470914;-0.3878116;6;-5;-3;-109;-4071;-1059;8192;0.8901401;0.3199446;0.1689751;-0.2770083;1;0;3;-1738;-2519;2731;32768;0.688491;0.3878116;0.4833795;-0.3767313;0;0;-2;949;-3681;-1638;256;0.4626039;-0.594128;-0.365651;-0.5470914;0;3;3;-209;3942;-1267;128;0.4819945;-0.5515579;-0.4903047;-0.4722992;2;-4;-5;-503;4127;126;4;-0.02631579;-0.05540166;-0.7079433;-0.7036011;-3;3;0;375;4106;176;16;0.4930748;-0.6386619;0.3725762;0.4584487;-2;-4;0;171;3900;1032;2;0.7064106;-0.702216;0.08171745;-0.03462604;4;2;-2;-637;4080;5;8;0.4182825;-0.4861496;0.4598338;0.6142078;-3;-3;2;-141;3943;995;0.4660051;2.803823;-0.1070915;0.4718684;3.338159;-0.2169649;0.4770179;3.807432;-0.3155247;0.4269277;4.504382;-0.09143689;0.1458004;4.80722;-0.02815308;-0.1836726;4.630338;-0.01084685;-0.8556412;5.242946;-0.1883238;-0.8348379;6.151073;-0.4578945;0.6648054;4.844523;-0.0281533;0.9639361;4.712822;-0.01084691;1.687162;5.348958;-0.03431749;1.952488;6.200004;-0.3554236;0.1537438;2.761134;-0.1054251;0.1640562;1.307765;-0.2741567;0;0;0;0.1537438;2.761134;-0.1054251;0.1640562;1.307765;-0.2741567;0;0;0
305676.756;NotLabelled;16384;-0.2036011;-0.4168975;-0.8347998;0.2963989;0;-2;4;2300;-2822;1881;65536;0.5848632;0.4584487;0.5443213;-0.3891967;2;-4;-4;3;-4003;-1013;8192;0.8901401;0.3199446;0.1689751;-0.2770083;1;-2;2;-1782;-2553;2765;32768;0.6887028;0.3878116;0.4819945;-0.3781163;-1;-2;-2;789;-3745;-1542;256;0.4626039;-0.5932733;-0.367036;-0.5470914;0;4;3;-179;3964;-1285;128;0.4819945;-0.5503235;-0.4916897;-0.4722992;2;-4;-5;-501;4183;140;4;-0.02770083;-0.05540166;-0.7092644;-0.702216;-3;6;1;325;4094;116;16;0.4916897;-0.6397288;0.3725762;0.4584487;-2;-6;-1;185;3980;958;2;0.7036011;-0.7049617;0.08171745;-0.03601108;2;2;-2;-785;4122;1;8;0.4168975;-0.4861496;0.4612188;0.6141109;-3;-5;1;-317;3965;1069;0.4748521;2.80247;-0.1062776;0.4807123;3.336504;-0.2176109;0.4858588;3.805506;-0.3174529;0.436446;4.502987;-0.09487444;0.1556184;4.806247;-0.03228685;-0.1740377;4.629739;-0.01465084;-0.8437738;5.245109;-0.1910095;-0.8208492;6.154669;-0.4555345;0.6746611;4.843022;-0.03228664;0.9736546;4.711052;-0.01464999;1.696824;5.347188;-0.03977275;1.963651;6.198667;-0.3584815;0.1625909;2.759787;-0.1044854;0.1674887;1.306796;-0.276691;0;0;0;0.1625909;2.759787;-0.1044854;0.1674887;1.306796;-0.276691;0;0;0
305697.9106;NotLabelled;16384;-0.2049861;-0.4168975;-0.8344609;0.2963989;0;0;3;2260;-2898;1917;65536;0.5839392;0.4584487;0.5443213;-0.3905817;0;0;-4;-21;-3967;-955;8192;0.8908983;0.3185596;0.16759;-0.2770083;0;-3;3;-1666;-2619;2691;32768;0.6894809;0.3864266;0.4819945;-0.3781163;-3;-3;-2;801;-3665;-1506;256;0.4612188;-0.5943507;-0.367036;-0.5470914;0;4;4;-123;3932;-1329;128;0.4819945;-0.5515093;-0.4916897;-0.4709141;4;-2;-5;-531;4143;134;4;-0.02770083;-0.05401662;-0.7093712;-0.702216;-3;8;1;365;4080;34;16;0.4916897;-0.6397288;0.3725762;0.4584487;-2;-4;-1;97;3958;990;2;0.7036011;-0.7049617;0.08171745;-0.03601108;1;4;-2;-675;4114;-25;8;0.4168975;-0.4861496;0.4612188;0.6141109;-3;-1;1;-331;4015;979;0.4752251;2.802802;-0.1090932;0.4810852;3.336837;-0.2204204;0.4862317;3.805841;-0.320257;0.4384721;4.502845;-0.09583205;0.1583577;4.806586;-0.03239286;-0.1717024;4.630795;-0.01516043;-0.8400963;5.247049;-0.1935126;-0.8174631;6.157234;-0.4559005;0.6774842;4.842161;-0.03239298;0.9761748;4.709455;-0.0151602;1.701737;5.342933;-0.03840995;1.970797;6.193172;-0.358544;0.1629639;2.760118;-0.1073014;0.1674825;1.306797;-0.2766947;0;0;0;0.1629639;2.760118;-0.1073014;0.1674825;1.306797;-0.2766947;0;0;0
305718.5955;NotLabelled;16384;-0.2049861;-0.4168975;-0.8344609;0.2963989;-1;1;3;2252;-2912;1889;65536;0.5863096;0.4570637;0.5429363;-0.3905817;-2;0;-4;57;-3977;-957;8192;0.8913277;0.3185596;0.16759;-0.2756233;2;-3;3;-1718;-2641;2583;32768;0.6902387;0.3864266;0.4819945;-0.3767313;-4;-2;-1;779;-3573;-1586;256;0.4598338;-0.5945669;-0.368421;-0.5470914;0;5;3;-157;3972;-1287;128;0.4819945;-0.5514536;-0.4930748;-0.4695291;3;-2;-4;-521;4227;110;4;-0.02908587;-0.05401662;-0.7093158;-0.702216;-3;9;3;379;4062;104;16;0.4916897;-0.638734;0.3725762;0.4598338;-2;-1;0;83;3944;956;2;0.7036011;-0.7048896;0.08171745;-0.03739612;1;3;-3;-645;4144;-75;8;0.4155124;-0.4861496;0.4612188;0.6150489;-3;-1;1;-287;3981;881;0.4711537;2.802536;-0.1083333;0.4770104;3.336266;-0.221118;0.4821539;3.804995;-0.3222348;0.4367214;4.502049;-0.09748161;0.1576217;4.806693;-0.03389119;-0.1730213;4.631993;-0.01673043;-0.8417867;5.248247;-0.1936855;-0.8142379;6.157926;-0.4573506;0.6768636;4.840539;-0.0338912;0.9751114;4.706831;-0.01673025;1.700752;5.340122;-0.04246688;1.969365;6.189652;-0.364854;0.1588925;2.759858;-0.1064156;0.1636592;1.306869;-0.2786338;0;0;0;0.1588925;2.759858;-0.1064156;0.1636592;1.306869;-0.2786338;0;0;0
305738.6128;NotLabelled;16384;-0.2063712;-0.4168975;-0.8336259;0.2977839;0;1;3;2252;-2842;1791;65536;0.5853845;0.4570637;0.5429363;-0.3919668;-3;0;-4;-29;-3853;-915;8192;0.8920808;0.3171745;0.166205;-0.2756233;4;-3;3;-1740;-2567;2477;32768;0.6919762;0.3850415;0.4806094;-0.3767313;-4;-1;0;781;-3629;-1570;256;0.4598338;-0.5937064;-0.3698061;-0.5470914;-2;4;3;-175;3990;-1293;128;0.4833795;-0.5514188;-0.4930748;-0.468144;6;-2;-4;-481;4145;162;4;-0.03047091;-0.05263158;-0.7107301;-0.700831;-1;2;7;309;4016;98;16;0.4903047;-0.6397978;0.3725762;0.4598338;-3;-2;-2;151;3962;890;2;0.702216;-0.7062694;0.08171745;-0.03739612;1;2;-4;-613;4094;-89;8;0.4155124;-0.4861496;0.4612188;0.6150489;-4;-1;1;-279;4005;837;0.4803187;2.801484;-0.110362;0.4861721;3.334908;-0.224581;0.4913126;3.803364;-0.3269573;0.4465549;4.500949;-0.1037226;0.167755;4.806012;-0.04083222;-0.1630672;4.631685;-0.02333955;-0.829579;5.25069;-0.1991878;-0.8028533;6.160995;-0.4607755;0.6870309;4.839333;-0.0408324;0.9851406;4.70536;-0.02333927;1.7131;5.335988;-0.04900301;1.985654;6.183985;-0.3721169;0.1680577;2.758811;-0.1083204;0.1670591;1.305891;-0.2811879;0;0;0;0.1680577;2.758811;-0.1083204;0.1670591;1.305891;-0.2811879;0;0;0
305759.6232;NotLabelled;16384;-0.2063712;-0.4155124;-0.8343171;0.2977839;0;2;4;2264;-2836;1769;65536;0.5853845;0.4570637;0.5429363;-0.3919668;-4;-2;-5;45;-3897;-879;8192;0.892572;0.3157895;0.166205;-0.2756233;6;-4;3;-1676;-2551;2571;32768;0.6919762;0.3850415;0.4806094;-0.3767313;-4;0;0;765;-3669;-1560;256;0.4598338;-0.5941167;-0.3711911;-0.5457063;-7;4;4;-161;3908;-1253;128;0.4833795;-0.5513527;-0.4944598;-0.466759;7;0;-3;-495;4063;110;4;-0.03185596;-0.05263158;-0.7106694;-0.700831;-2;-2;8;337;4048;174;16;0.4903047;-0.6397978;0.3725762;0.4598338;-3;0;-2;99;3900;894;2;0.702216;-0.7061947;0.08171745;-0.03878116;1;6;-6;-613;4034;-19;8;0.4141274;-0.4875346;0.4598338;0.6159232;-5;-1;2;-355;3947;857;0.4798009;2.80114;-0.1075087;0.4856508;3.334249;-0.2231881;0.4907882;3.802423;-0.326847;0.4482533;4.500644;-0.1051664;0.1704316;4.806744;-0.04299254;-0.1609541;4.633525;-0.02516025;-0.8271644;5.252381;-0.2026691;-0.8001882;6.162685;-0.4642314;0.6898124;4.838387;-0.04299259;0.9874856;4.703492;-0.02516013;1.717251;5.332031;-0.05079055;1.990114;6.180028;-0.373643;0.1675398;2.758472;-0.1053409;0.1673286;1.305891;-0.2810276;0;0;0;0.1675398;2.758472;-0.1053409;0.1673286;1.305891;-0.2810276;0;0;0
305779.7584;NotLabelled;16384;-0.2077562;-0.4155124;-0.8339733;0.2977839;2;2;3;2204;-2856;1725;65536;0.5877425;0.4556787;0.5415512;-0.3919668;-5;-1;-6;-29;-3881;-823;8192;0.8928288;0.3157895;0.1648199;-0.2756233;5;-4;2;-1728;-2521;2603;32768;0.6910122;0.3850415;0.4819945;-0.3767313;-5;0;0;781;-3695;-1464;256;0.4598338;-0.5932491;-0.3725762;-0.5457063;-6;0;3;-171;3854;-1233;128;0.4833795;-0.5512797;-0.4958449;-0.4653739;9;1;-3;-467;4089;34;4;-0.03185596;-0.05540166;-0.7104588;-0.700831;-4;-8;10;351;3958;64;16;0.4903047;-0.6397978;0.3725762;0.4598338;-4;1;-3;201;3896;896;2;0.702216;-0.7059543;0.08171745;-0.04293629;0;11;-12;-757;4092;87;8;0.4141274;-0.4889196;0.4598338;0.6148244;-8;2;3;-337;3939;833;0.4788806;2.800444;-0.102337;0.4847271;3.333233;-0.2194805;0.4898613;3.80112;-0.3244249;0.4479538;4.499864;-0.1042804;0.1704186;4.806377;-0.04286466;-0.1611464;4.633529;-0.02476341;-0.8266745;5.25375;-0.2000561;-0.7947506;6.163525;-0.462899;0.6898308;4.8375;-0.04276383;0.987363;4.702347;-0.02453989;1.717624;5.330369;-0.0486474;1.987488;6.178651;-0.3732661;0.1666197;2.757782;-0.1000425;0.1667958;1.305891;-0.2813441;0;0;0;0.1666197;2.757782;-0.1000425;0.1667958;1.305891;-0.2813441;0;0;0
305799.6196;NotLabelled;16384;-0.2077562;-0.4141274;-0.8341665;0.299169;4;7;2;2244;-2772;1717;65536;0.5900846;0.4542936;0.5401662;-0.3919668;-8;-1;-6;79;-3867;-823;8192;0.8937436;0.3144044;0.1648199;-0.2742382;5;-4;2;-1732;-2585;2621;32768;0.6917822;0.3836565;0.4819945;-0.3767313;-7;-2;0;815;-3653;-1508;256;0.4598338;-0.5936499;-0.3739612;-0.5443213;-8;3;3;-159;3890;-1227;128;0.4847645;-0.5499819;-0.4972299;-0.4639889;10;2;-3;-479;4079;98;4;-0.03185596;-0.0567867;-0.7117133;-0.699446;-3;-7;14;411;4006;174;16;0.4903047;-0.6396059;0.3711911;0.4612188;-5;0;-4;273;3940;918;2;0.702216;-0.7057803;0.08171745;-0.04570637;-5;12;-16;-731;4040;249;8;0.4127424;-0.4889196;0.4584487;0.6167869;-11;0;4;-307;3961;789;0.4812357;2.798813;-0.1186392;0.4870751;3.330955;-0.2386909;0.4922029;3.798262;-0.3461893;0.4527802;4.498809;-0.1313813;0.176299;4.806679;-0.07203586;-0.1558013;4.635047;-0.05226091;-0.8177314;5.257249;-0.2340321;-0.7804502;6.165015;-0.5030495;0.6958086;4.836126;-0.07271451;0.9929231;4.700156;-0.05376142;1.727102;5.323248;-0.08557379;1.9991;6.168483;-0.4163041;0.168975;2.756165;-0.1160932;0.1638218;1.303727;-0.2928908;0;0;0;0.168975;2.756165;-0.1160932;0.1638218;1.303727;-0.2928908;0;0;0
305819.6064;NotLabelled;16384;-0.2091413;-0.4127424;-0.8345068;0.299169;6;6;3;2216;-2808;1759;65536;0.5911484;0.4529086;0.5401662;-0.3919668;-9;-3;-7;103;-3923;-835;8192;0.8949073;0.3130194;0.1634349;-0.2728532;9;-7;2;-1760;-2545;2507;32768;0.6933001;0.3822715;0.4819945;-0.3753462;-8;-2;5;877;-3603;-1416;256;0.4598338;-0.5927752;-0.3753462;-0.5443213;-10;2;3;-137;3938;-1247;128;0.4847645;-0.5498947;-0.4986149;-0.4626039;12;3;-3;-419;4125;-28;4;-0.033241;-0.05955679;-0.7127826;-0.6980609;-9;-6;18;423;4080;168;16;0.4903047;-0.6396059;0.3711911;0.4612188;-7;0;-6;291;3920;844;2;0.702216;-0.7054337;0.08310249;-0.04847645;0;14;-19;-677;3952;-29;8;0.4113573;-0.4903047;0.4584487;0.6166127;-14;-1;5;-339;4009;723;0.4854224;2.798199;-0.09486917;0.4912581;3.330007;-0.2163911;0.4963827;3.797015;-0.3251807;0.4574074;4.496895;-0.108127;0.1811626;4.804842;-0.04808494;-0.1511284;4.633474;-0.02924418;-0.8136699;5.255636;-0.2089174;-0.7740515;6.16422;-0.4748154;0.7007012;4.833778;-0.04808491;0.9976606;4.697453;-0.02924335;1.732287;5.32027;-0.05568898;2.006343;6.165317;-0.3851978;0.1731616;2.755558;-0.09219587;0.163506;1.305307;-0.2859473;0;0;0;0.1731616;2.755558;-0.09219587;0.163506;1.305307;-0.2859473;0;0;0
305840.6312;NotLabelled;16384;-0.2091413;-0.4113573;-0.8351904;0.299169;8;7;3;2212;-2760;1773;65536;0.5924109;0.4529086;0.5387812;-0.3919668;-12;-4;-6;109;-3913;-773;8192;0.8953905;0.3116343;0.1634349;-0.2728532;9;-10;2;-1634;-2601;2491;32768;0.6923352;0.3822715;0.4833795;-0.3753462;-10;-3;8;883;-3577;-1390;256;0.4612188;-0.5920904;-0.3767313;-0.5429363;-13;1;3;-135;3910;-1201;128;0.4861496;-0.5485761;-0.5;-0.4612188;12;3;-2;-407;4105;4;4;-0.03462604;-0.06232687;-0.7138341;-0.6966759;-12;-10;22;433;3980;78;16;0.4903047;-0.6394079;0.3698061;0.4626039;-9;3;-7;267;3950;742;2;0.700831;-0.7065125;0.08310249;-0.05263158;2;12;-23;-773;3986;-19;8;0.4099723;-0.4916897;0.4570637;0.6174599;-16;-2;8;-349;3919;739;0.486863;2.796314;-0.09031692;0.4926913;3.327447;-0.2147543;0.4978093;3.793852;-0.326104;0.4594046;4.494814;-0.1124668;0.1834204;4.803297;-0.05399803;-0.1490293;4.63232;-0.03441377;-0.8112401;5.254323;-0.2158485;-0.7685986;6.162962;-0.4810901;0.7029849;4.831766;-0.05399799;0.9998167;4.695269;-0.0344134;1.736228;5.31598;-0.0607022;2.008197;6.161313;-0.3912051;0.1746024;2.753688;-0.08739097;0.1608577;1.304705;-0.2901667;0;0;0;0.1746024;2.753688;-0.08739097;0.1608577;1.304705;-0.2901667;0;0;0
305860.7806;NotLabelled;16384;-0.2105263;-0.4113573;-0.8353374;0.2977839;10;8;2;2220;-2780;1683;65536;0.5934673;0.4515235;0.5387812;-0.3919668;-14;-3;-7;45;-3627;-679;8192;0.8965435;0.3102493;0.1620499;-0.2714681;11;-10;1;-1684;-2539;2385;32768;0.6930843;0.3822715;0.4833795;-0.3739612;-10;0;9;711;-3625;-1272;256;0.4639889;-0.5897968;-0.3808864;-0.5401662;-20;0;3;-215;3852;-1097;128;0.4889196;-0.5446191;-0.5041551;-0.4584487;19;0;-1;-349;3993;-174;4;-0.03601108;-0.07202215;-0.7142035;-0.6952909;-8;-18;28;611;4014;26;16;0.4889196;-0.6418499;0.365651;0.4639889;-13;7;-10;119;3950;954;2;0.702216;-0.7046487;0.08448754;-0.0567867;-6;12;-27;-873;4018;253;8;0.4085872;-0.4930748;0.4556787;0.6182966;-19;0;8;-395;3931;817;0.4910621;2.789871;-0.08026582;0.4968709;3.319235;-0.2120311;0.5019715;3.784056;-0.3298154;0.4653572;4.487626;-0.1246023;0.190184;4.79754;-0.07000776;-0.1427456;4.62772;-0.0485978;-0.8052121;5.248715;-0.2325338;-0.7600332;6.156704;-0.499579;0.7098245;4.824585;-0.07000816;1.006269;4.687521;-0.04859805;1.745089;5.305359;-0.07496142;2.017166;6.149966;-0.4072261;0.178802;2.74729;-0.07670366;0.1625138;1.301723;-0.3023785;0;0;0;0.178802;2.74729;-0.07670366;0.1625138;1.301723;-0.3023785;0;0;0
305881.6828;NotLabelled;16384;-0.2105263;-0.4085872;-0.8366958;0.2977839;12;11;0;2150;-2826;1617;65536;0.5966797;0.4501385;0.5373961;-0.3905817;-17;-4;-10;113;-3547;-639;8192;0.8974396;0.3088643;0.1620499;-0.2700831;12;-10;0;-1704;-2471;2425;32768;0.6921163;0.3822715;0.4847645;-0.3739612;-12;0;8;669;-3653;-1204;256;0.4653739;-0.589076;-0.3822715;-0.5387812;-24;0;4;-273;3786;-1039;128;0.4903047;-0.5432525;-0.5055401;-0.4570637;23;0;-1;-311;3995;-210;4;-0.03739612;-0.07756232;-0.7148989;-0.6939058;-12;-20;32;677;3892;58;16;0.4889196;-0.642419;0.3628809;0.4653739;-15;7;-11;55;3900;904;2;0.702216;-0.7039637;0.08725762;-0.06094183;-7;16;-32;-945;3976;191;8;0.4058172;-0.4958449;0.4542936;0.6189246;-20;-1;9;-283;3859;915;0.4920674;2.786112;-0.07300839;0.4978682;3.314737;-0.2077032;0.5029615;3.7789;-0.3280599;0.466913;4.483497;-0.126301;0.1919982;4.793916;-0.07329352;-0.1410855;4.624495;-0.05113766;-0.8029687;5.245156;-0.2382702;-0.7519069;6.151887;-0.5085068;0.7116622;4.820506;-0.07329369;1.00798;4.683289;-0.05113775;1.748709;5.298824;-0.07780278;2.018676;6.143711;-0.4110749;0.1798076;2.743551;-0.06919163;0.1602014;1.300365;-0.3093751;0;0;0;0.1798076;2.743551;-0.06919163;0.1602014;1.300365;-0.3093751;0;0;0
305902.0451;NotLabelled;16384;-0.2105263;-0.4058172;-0.839022;0.2950138;18;11;-4;2056;-2540;1741;65536;0.6026109;0.4445983;0.5373961;-0.3878116;-25;-3;-13;101;-3637;-605;8192;0.8983305;0.3074792;0.1620499;-0.2686981;14;-12;-1;-1798;-2559;2539;32768;0.6918917;0.3822715;0.4861496;-0.3725762;-14;0;7;569;-3787;-1188;256;0.468144;-0.5863357;-0.3850415;-0.5373961;-29;0;4;-381;3790;-1033;128;0.4930748;-0.5417762;-0.5069252;-0.4542936;23;0;-1;-349;3977;-130;4;-0.03878116;-0.08310249;-0.7155453;-0.6925207;-10;-23;37;635;3854;78;16;0.4889196;-0.6429726;0.3601108;0.466759;-15;10;-12;9;3912;920;2;0.700831;-0.7038056;0.0900277;-0.0734072;-2;11;-36;-883;3886;225;8;0.4016621;-0.5;0.4515235;0.6203178;-22;0;11;-205;3951;1035;0.4928974;2.782149;-0.06629917;0.4986857;3.309639;-0.2053747;0.5037678;3.772786;-0.3295778;0.4672418;4.479303;-0.134737;0.1921347;4.790078;-0.08490542;-0.1408698;4.620703;-0.06126051;-0.8055384;5.237256;-0.2520643;-0.7439302;6.139898;-0.5335568;0.7117844;4.816946;-0.08490556;1.008164;4.680111;-0.06126058;1.750696;5.293337;-0.09084654;2.018038;6.137768;-0.4273772;0.1806379;2.739621;-0.06210111;0.1572068;1.298966;-0.3167022;0;0;0;0.1806379;2.739621;-0.06210111;0.1572068;1.298966;-0.3167022;0;0;0
305922.6003;NotLabelled;16384;-0.2105263;-0.4030471;-0.8413236;0.2922437;20;12;-5;2166;-2640;1765;65536;0.6046448;0.4418283;0.5373961;-0.3878116;-29;-1;-12;179;-3781;-757;8192;0.9005049;0.3047091;0.1620499;-0.2645429;16;-18;-3;-1694;-2373;2503;32768;0.69295;0.3795014;0.4889196;-0.3698061;-21;-4;10;897;-3591;-1226;256;0.4695291;-0.5859349;-0.3878116;-0.534626;-29;-2;3;-231;3822;-1021;128;0.4944598;-0.5390677;-0.5096953;-0.4529086;23;1;0;-397;3945;-352;4;-0.0401662;-0.0900277;-0.71597;-0.6911357;-10;-24;39;627;3876;82;16;0.4889196;-0.643511;0.3573407;0.468144;-16;12;-12;-131;3928;994;2;0.7041939;-0.699446;0.09418282;-0.07756232;-12;-7;-38;-919;3898;451;8;0.398892;-0.5027701;0.4515235;0.6198661;-23;-7;11;-79;3943;901;0.4935222;2.77748;-0.05634233;0.4992975;3.303782;-0.1998499;0.5043681;3.765869;-0.3279444;0.4706416;4.473909;-0.1381965;0.1967803;4.786146;-0.09070035;-0.1369166;4.618296;-0.06596321;-0.8036829;5.230705;-0.2627039;-0.736472;6.131887;-0.5475741;0.7165347;4.810907;-0.09070057;1.012349;4.673045;-0.06596339;1.758734;5.281433;-0.09837556;2.026612;6.122381;-0.4430987;0.1812631;2.734989;-0.05175786;0.1551291;1.297526;-0.3235557;0;0;0;0.1812631;2.734989;-0.05175786;0.1551291;1.297526;-0.3235557;0;0;0
305942.6058;NotLabelled;16384;-0.2105263;-0.4016621;-0.842942;0.2894737;19;15;-3;2334;-2344;1997;65536;0.6084212;0.4390582;0.5373961;-0.3850415;-32;-1;-4;-89;-3937;-835;8192;0.9026466;0.301939;0.1620499;-0.2603878;16;-20;-5;-1742;-2247;2659;32768;0.6942002;0.3781163;0.4903047;-0.367036;-23;-6;10;1025;-3549;-1482;256;0.4722992;-0.5831239;-0.3905817;-0.533241;-30;-1;2;-159;3740;-949;128;0.4958449;-0.5376441;-0.5110803;-0.4515235;18;10;0;-333;3869;6;4;-0.04293629;-0.09695291;-0.7175719;-0.6883656;-10;-13;41;645;3866;-2;16;0.4889196;-0.644034;0.3545706;0.4695291;-17;15;-12;-93;3926;1060;2;0.7058645;-0.6966759;0.09972299;-0.08033241;-13;-17;-40;-831;3956;239;8;0.3947368;-0.5041551;0.4515235;0.6213992;-24;-17;11;-109;3811;1113;0.4988753;2.771537;-0.05858645;0.5046417;3.297028;-0.2050398;0.5097042;3.758389;-0.3357205;0.4752237;4.469255;-0.1569922;0.2010946;4.78202;-0.1148087;-0.1325468;4.614367;-0.08807171;-0.8017362;5.219193;-0.299492;-0.728911;6.11587;-0.5969222;0.7208335;4.807098;-0.1142727;1.016685;4.669817;-0.08688623;1.766562;5.273157;-0.1309406;2.034599;6.109601;-0.4863321;0.1866165;2.729073;-0.05374491;0.1524969;1.294173;-0.337918;0;0;0;0.1866165;2.729073;-0.05374491;0.1524969;1.294173;-0.337918;0;0;0
305963.6035;NotLabelled;16384;-0.2119114;-0.398892;-0.844855;0.2867036;18;17;1;2402;-2340;2083;65536;0.6088356;0.4362881;0.5401662;-0.3836565;-34;4;0;-61;-3993;-1051;8192;0.9036534;0.300554;0.1634349;-0.2576177;14;-22;-7;-1678;-2165;2711;32768;0.6947044;0.3767313;0.4916897;-0.365651;-26;-8;9;1005;-3671;-1662;256;0.4750692;-0.5815361;-0.3933518;-0.5304709;-28;-1;1;-185;3720;-977;128;0.4972299;-0.5337103;-0.5138504;-0.4515235;20;18;1;-379;3887;14;4;-0.04986149;-0.1052632;-0.7186044;-0.6855956;-9;-4;38;471;3882;190;16;0.4903047;-0.6464866;0.3462604;0.4709141;-19;12;-13;89;3902;1068;2;0.7061458;-0.6952909;0.1038781;-0.08448754;-7;4;-41;-839;3834;-253;8;0.3891967;-0.5055401;0.4501385;0.6247643;-24;-17;14;-283;3927;1329;0.498994;2.761255;-0.02808046;0.5047464;3.285486;-0.1789789;0.5097967;3.745726;-0.3135622;0.4766505;4.457412;-0.1378707;0.2030788;4.770812;-0.09680979;-0.1308195;4.603834;-0.06907553;-0.8011028;5.208878;-0.2763711;-0.7283896;6.104958;-0.5756203;0.7228591;4.795024;-0.09681016;1.018503;4.657368;-0.06907594;1.770028;5.258859;-0.1102339;2.038106;6.095492;-0.4651524;0.1867356;2.718834;-0.02285042;0.1474193;1.29247;-0.3465767;0;0;0;0.1867356;2.718834;-0.02285042;0.1474193;1.29247;-0.3465767;0;0;0
305983.7579;NotLabelled;16384;-0.2119114;-0.3961219;-0.8466253;0.2853186;16;21;2;2478;-2452;2159;65536;0.6113182;0.433518;0.5415512;-0.3808864;-34;3;2;-169;-3891;-1209;8192;0.9048976;0.299169;0.1634349;-0.2548476;11;-21;-10;-1810;-2365;2789;32768;0.6966442;0.3753462;0.4930748;-0.3614958;-26;-9;8;719;-3657;-1812;256;0.4792244;-0.5787601;-0.3961219;-0.5277008;-21;-2;2;-269;3780;-1091;128;0.5;-0.5294248;-0.5180055;-0.4487534;28;4;0;-333;4041;-84;4;-0.05124654;-0.1108033;-0.7176734;-0.6855956;-7;-19;40;753;3852;-188;16;0.4889196;-0.6487334;0.3421052;0.4722992;-19;11;-14;-17;3940;1050;2;0.7047984;-0.6952909;0.1094183;-0.08864266;-4;0;-42;-931;3810;-215;8;0.3850415;-0.5069252;0.4501385;0.626215;-25;-9;15;-457;3853;1237;0.4985133;2.754606;-0.02664042;0.5042418;3.276645;-0.1849566;0.5092706;3.73493;-0.3260521;0.4755014;4.448756;-0.1593934;0.2016771;4.76245;-0.1224599;-0.1321162;4.59559;-0.09281304;-0.8032034;5.19831;-0.3042344;-0.7272356;6.091397;-0.6115146;0.7214395;4.787041;-0.1224602;1.017167;4.649965;-0.09281343;1.770663;5.248877;-0.1355214;2.039647;6.082143;-0.4976019;0.1862559;2.712263;-0.02076101;0.149631;1.289024;-0.3582647;0;0;0;0.1862559;2.712263;-0.02076101;0.149631;1.289024;-0.3582647;0;0;0
306004.6828;NotLabelled;16384;-0.2119114;-0.3891967;-0.850756;0.2825485;12;28;6;2292;-2398;1955;65536;0.613439;0.4265928;0.5484765;-0.3753462;-31;6;8;-123;-3549;-1455;8192;0.9062629;0.2977839;0.1648199;-0.2506925;10;-21;-9;-1808;-2457;2655;32768;0.6968549;0.3739612;0.4958449;-0.3587258;-23;-5;8;647;-3549;-1918;256;0.4819945;-0.576768;-0.3975069;-0.5263157;-24;-3;1;-257;3902;-1053;128;0.501385;-0.5290986;-0.5193906;-0.4459834;28;0;0;-381;4121;-192;4;-0.05401662;-0.1177285;-0.7190074;-0.6828254;-9;-13;43;891;3864;298;16;0.4889196;-0.6491783;0.3393352;0.4736842;-21;12;-14;-35;3930;1076;2;0.7078024;-0.6897507;0.1177285;-0.09695291;-14;9;-42;-987;3902;371;8;0.3781163;-0.5124654;0.4473684;0.6279083;-25;-16;15;-15;3851;1319;0.5035781;2.747755;-0.01365995;0.5092966;3.268884;-0.1749449;0.5143166;3.726359;-0.3186464;0.4793644;4.441394;-0.1575029;0.2050343;4.754931;-0.1230862;-0.1285078;4.587781;-0.09227676;-0.8012814;5.185592;-0.3121095;-0.725515;6.071609;-0.6392624;0.7247574;4.78034;-0.1230866;1.020689;4.64396;-0.09227717;1.775707;5.240588;-0.139806;2.042642;6.071469;-0.5088165;0.1913211;2.705446;-0.007520109;0.1472608;1.287353;-0.3651899;0;0;0;0.1913211;2.705446;-0.007520109;0.1472608;1.287353;-0.3651899;0;0;0
306024.758;NotLabelled;16384;-0.2119114;-0.3850415;-0.8526447;0.2825485;12;28;8;2152;-2452;1751;65536;0.6145638;0.4238227;0.5512465;-0.3725762;-26;0;7;-87;-3349;-1489;8192;0.9070246;0.2977839;0.1648199;-0.2479224;10;-20;-11;-1652;-2433;2521;32768;0.6987669;0.3711911;0.4972299;-0.3559557;-18;-3;6;453;-3395;-1946;256;0.4833795;-0.576214;-0.400277;-0.5235457;-32;-3;1;-251;3880;-1057;128;0.5055401;-0.5247279;-0.5221606;-0.4432133;31;-5;1;-393;4013;-120;4;-0.05817174;-0.1218837;-0.7193048;-0.6814404;-11;8;46;955;3810;236;16;0.4889196;-0.6503239;0.33518;0.4750692;-24;13;-16;187;3896;924;2;0.7090114;-0.6869806;0.1218837;-0.1024931;-15;6;-45;-1189;3902;261;8;0.3725762;-0.5138504;0.4473684;0.6300843;-24;-18;15;-125;3895;1325;0.5032564;2.740662;-0.006779313;0.5089492;3.259446;-0.1754563;0.5139464;3.714831;-0.3256468;0.4817856;4.431158;-0.1697445;0.2086934;4.746027;-0.1377177;-0.125521;4.580433;-0.1058072;-0.7975326;5.177598;-0.329689;-0.7214806;6.060375;-0.6654243;0.7285135;4.769368;-0.1377178;1.02389;4.632043;-0.1058069;1.77923;5.228223;-0.1538268;2.048951;6.055121;-0.529693;0.1910003;2.698445;9.745359E-06;0.1454897;1.284811;-0.3747256;0;0;0;0.1910003;2.698445;9.745359E-06;0.1454897;1.284811;-0.3747256;0;0;0
306046.8072;NotLabelled;16384;-0.2119114;-0.3795014;-0.855125;0.2825485;14;25;9;1938;-2350;1747;65536;0.615945;0.4224377;0.5526316;-0.3698061;-23;-2;4;-97;-3147;-1503;8192;0.9088353;0.2963989;0.16759;-0.2409972;10;-18;-12;-1412;-2175;2505;32768;0.6996613;0.368421;0.5;-0.3531856;-12;3;1;225;-3175;-1804;256;0.4875346;-0.5732851;-0.4030471;-0.5207756;-40;-4;2;-261;3642;-1001;128;-0.5083103;0.5207756;0.5257597;0.4404432;33;-11;1;-303;3771;-130;4;-0.06371191;-0.1274238;-0.7204933;-0.6786703;-10;-1;49;997;3738;208;16;0.4875346;-0.6514615;0.3310249;0.4778393;-25;12;-17;-5;3820;1056;2;0.7074607;-0.6869806;0.1260388;-0.1080332;-3;1;-46;-1269;3810;-221;8;0.367036;-0.5152354;0.4473684;0.6322013;-23;-14;15;119;3687;1555;0.5076098;2.730311;0.002418369;0.5132775;3.246814;-0.1731195;0.5182523;3.700169;-0.3293323;0.4854163;4.418404;-0.1826199;0.2120488;4.733432;-0.1547783;-0.122049;4.567984;-0.1209447;-0.793417;5.164268;-0.3490654;-0.7167497;6.044615;-0.6909865;0.7318496;4.757199;-0.1547787;1.027319;4.620536;-0.1209453;1.783821;5.214398;-0.1784459;2.053815;6.037498;-0.5623704;0.1953547;2.688188;0.009811878;0.1442908;1.281034;-0.3878913;0;0;0;0.1953547;2.688188;0.009811878;0.1442908;1.281034;-0.3878913;0;0;0
306067.2607;NotLabelled;16384;-0.2132964;-0.3711911;-0.8588765;0.2811634;14;29;5;1862;-2412;1941;65536;0.6178249;0.4196676;0.5554016;-0.365651;-19;-1;1;-135;-3259;-1453;8192;0.9108373;0.2950138;0.1689751;-0.234072;8;-24;-7;-1268;-2219;2495;32768;0.7008201;0.365651;0.501385;-0.3518005;-13;-2;1;449;-3065;-1594;256;0.5;-0.5653159;-0.4113573;-0.5110803;-42;-5;2;-37;3592;-759;128;-0.5193906;0.5138504;0.5308849;0.4293629;40;-2;1;-447;3679;-178;4;-0.08033241;-0.1454294;-0.7231973;-0.6703601;-16;2;58;1217;3666;46;16;0.4847645;-0.6546194;0.3185596;0.4847645;-26;11;-18;-101;3782;1198;2;0.7070689;-0.6842105;0.134349;-0.1177285;-8;-7;-44;-1323;3686;231;8;0.3587258;-0.5193906;0.4473684;0.6335698;-24;-23;15;-3;3925;1237;0.5179126;2.696552;0.03683284;0.5235117;3.20681;-0.1561117;0.5284255;3.65461;-0.3276019;0.4951252;4.377983;-0.2089159;0.2216197;4.693758;-0.1937988;-0.1124914;4.529629;-0.1541662;-0.781746;5.123356;-0.3948214;-0.7027695;5.999531;-0.746784;0.7414129;4.717689;-0.1937994;1.03686;4.582544;-0.1541668;1.795378;5.173491;-0.2150519;2.069892;5.993331;-0.6027265;0.2056605;2.654706;0.04576591;0.1411097;1.270199;-0.4230955;0;0;0;0.2056605;2.654706;0.04576591;0.1411097;1.270199;-0.4230955;0;0;0
306108.614;NotLabelled;16384;-0.2146814;-0.3628809;-0.8625273;0.2797784;12;23;6;1734;-2336;2031;65536;0.6205759;0.4155124;0.5581717;-0.3614958;-20;-1;2;-65;-3319;-1339;8192;0.911895;0.2950138;0.1689751;-0.2299169;9;-27;-5;-1056;-2223;2451;32768;0.7012429;0.3642659;0.5027701;-0.3504155;-14;-6;2;467;-3043;-1584;256;0.5041551;-0.5620915;-0.4141274;-0.5083103;-44;-2;0;-7;3530;-705;128;-0.5221606;0.5110803;0.5330701;0.4265928;39;4;3;-521;3635;-226;4;-0.08587258;-0.1523546;-0.7236971;-0.66759;-4;-20;57;1107;3786;-186;16;0.4847645;-0.6556004;0.3144044;0.4861496;-25;8;-19;-165;3782;1372;2;0.707927;-0.6814404;0.1412742;-0.1204986;-10;-13;-48;-1285;3470;511;8;0.3531856;-0.5207756;0.4473684;0.6355425;-26;-22;15;195;3649;1437;0.5202337;2.684501;0.05211946;0.5258102;3.192698;-0.1461894;0.5307039;3.638668;-0.322387;0.4966147;4.363496;-0.2131854;0.2227874;4.679168;-0.2023609;-0.1111854;4.515238;-0.1607875;-0.7787983;5.106295;-0.412331;-0.6969864;5.977294;-0.7762867;0.7425567;4.703616;-0.2023617;1.038113;4.569297;-0.1607885;1.797193;5.159486;-0.2220303;2.071996;5.977381;-0.6135865;0.2079827;2.642752;0.06152885;0.1392714;1.267228;-0.4325078;0;0;0;0.2079827;2.642752;0.06152885;0.1392714;1.267228;-0.4325078;0;0;0
306128.6208;NotLabelled;16384;-0.2146814;-0.3601108;-0.8636875;0.2797784;11;22;4;1788;-2198;2011;65536;0.6210595;0.4141274;0.5595568;-0.3601108;-20;1;1;-117;-3335;-1305;8192;0.9129326;0.2950138;0.1689751;-0.2257618;10;-29;-5;-1010;-2061;2561;32768;0.7026203;0.3642659;0.5027701;-0.3476454;-15;-5;3;489;-2981;-1460;256;0.5083103;-0.5590063;-0.4182825;-0.5041551;-46;-1;0;-33;3496;-547;128;-0.5263157;0.5069252;0.5351569;0.4238227;40;5;2;-409;3567;-462;4;-0.08864266;-0.1606648;-0.7228417;-0.666205;-7;-12;56;1299;3726;6;16;0.4833795;-0.6565419;0.3102493;0.4889196;-26;9;-19;-389;3798;1428;2;0.7076817;-0.6772853;0.1509695;-0.132964;-3;17;-53;-1511;3520;-565;8;0.3421052;-0.5235457;0.4473684;0.6393164;-27;-18;17;77;3629;1495;0.5192571;2.672036;0.06031248;0.5248043;3.177551;-0.1447366;0.5296719;3.621139;-0.326849;0.4970272;4.347641;-0.228919;0.2238553;4.664015;-0.2231881;-0.1104895;4.501447;-0.1793226;-0.7776453;5.092001;-0.4332466;-0.6954437;5.961231;-0.8013209;0.7436745;4.687375;-0.2231888;1.03892;4.553099;-0.1793233;1.798427;5.142519;-0.2426318;2.074275;5.958726;-0.6369667;0.2070076;2.630416;0.0703216;0.1380981;1.262884;-0.445398;0;0;0;0.2070076;2.630416;0.0703216;0.1380981;1.262884;-0.445398;0;0;0
306169.9027;NotLabelled;16384;-0.2160665;-0.3559557;-0.8655102;0.2783934;11;24;5;1900;-2400;2013;65536;0.6235764;0.4127424;0.5595568;-0.3573407;-20;0;0;23;-3301;-1329;8192;0.9151363;0.2936288;0.1703601;-0.2174515;11;-26;-7;-1084;-2161;2633;32768;0.7048147;0.3601108;0.5055401;-0.3434903;-22;-6;4;621;-3167;-1510;256;0.5110803;-0.5558385;-0.4224377;-0.501385;-48;1;0;-175;3514;-451;128;-0.5290859;0.5027701;0.5385212;0.4210526;40;8;1;-397;3635;-432;4;-0.09556787;-0.166205;-0.7219813;-0.66482;-11;3;54;1371;3574;388;16;0.4819945;-0.6580843;0.3047091;0.4916897;-27;10;-19;-325;3768;1368;2;0.7054445;-0.6772853;0.1551246;-0.1398892;1;23;-49;-1493;3532;243;8;0.3379501;-0.5263157;0.4473684;0.6392519;-29;-12;18;25;3851;1433;0.516026;2.657023;0.06828621;0.5215427;3.159779;-0.1434409;0.5263833;3.600914;-0.3314129;0.4951475;4.328672;-0.2427715;0.2226099;4.64564;-0.2412307;-0.1120853;4.484314;-0.1954878;-0.7788984;5.07285;-0.4549403;-0.6942675;5.93948;-0.8285519;0.742475;4.667956;-0.2412317;1.037425;4.533658;-0.1954888;1.798728;5.119745;-0.2675588;2.076008;5.929761;-0.6734848;0.2037779;2.61554;0.07889122;0.1359246;1.257417;-0.4612531;0;0;0;0.2037779;2.61554;0.07889122;0.1359246;1.257417;-0.4612531;0;0;0
306190.8442;NotLabelled;16384;-0.2160665;-0.3518005;-0.8672075;0.2783934;13;24;5;1786;-2318;2039;65536;0.6249501;0.4099723;0.5609418;-0.3559557;-20;-1;0;-33;-3351;-1269;8192;0.9168776;0.2922437;0.1703601;-0.2119114;12;-32;-7;-1090;-2321;2651;32768;0.7048732;0.3587258;0.5083103;-0.3407202;-24;-10;6;451;-3163;-1552;256;0.5152354;-0.5523712;-0.4252077;-0.4986149;-47;3;0;-219;3632;-383;128;-0.5318559;0.4986149;0.5418045;0.4182825;40;9;1;-325;3731;-552;4;-0.101108;-0.1731302;-0.7234122;-0.6606648;-13;-10;55;1479;3420;412;16;0.4806094;-0.658932;0.300554;0.4944598;-27;9;-16;-693;3750;1486;2;0.7031293;-0.6772853;0.1578947;-0.1481994;3;30;-50;-1705;3496;403;8;0.33241;-0.5290859;0.4459834;0.6408358;-30;-11;18;193;3755;1595;0.5234812;2.641508;0.08000383;0.528967;3.141432;-0.1383248;0.5337801;3.580055;-0.3320892;0.5016346;4.308889;-0.2531569;0.2287228;4.625525;-0.2559895;-0.1058089;4.464427;-0.2082953;-0.7721916;5.052171;-0.4706289;-0.6850207;5.91606;-0.8499604;0.7485611;4.648457;-0.2559901;1.043642;4.515129;-0.2082958;1.807096;5.097922;-0.2842294;2.082249;5.905263;-0.6968767;0.2112347;2.600168;0.09119904;0.1343676;1.252801;-0.4740912;0;0;0;0.2112347;2.600168;0.09119904;0.1343676;1.252801;-0.4740912;0;0;0
306210.6604;NotLabelled;16384;-0.2160665;-0.3476454;-0.8688815;0.2783934;14;21;6;1716;-2304;2069;65536;0.6253996;0.4085872;0.5623268;-0.3545706;-20;-3;0;-39;-3337;-1199;8192;0.9181405;0.2922437;0.1703601;-0.2063712;12;-34;-7;-1112;-2209;2617;32768;0.7059094;0.3573407;0.5096953;-0.3379501;-26;-9;7;491;-3011;-1656;256;0.5193906;-0.5477397;-0.4293629;-0.4958449;-46;2;0;-161;3682;-269;128;-0.533241;0.4944598;0.5453073;0.4168975;37;12;1;-361;3725;-518;4;-0.1108033;-0.1869806;-0.7223268;-0.6565097;-5;-14;59;1707;3288;496;16;0.4792244;-0.6611568;0.2908587;0.4986149;-28;11;-18;-149;3756;1376;2;0.7017228;-0.6759003;0.1606648;-0.1578947;-3;29;-52;-1923;3410;305;8;0.3282548;-0.5318559;0.4445983;0.6416466;-29;-12;19;55;3757;1523;0.5231842;2.61186;0.1000146;0.528644;3.109411;-0.1236706;0.5334342;3.545929;-0.3221345;0.5007606;4.275896;-0.254732;0.2276456;4.592268;-0.2627491;-0.1068152;4.431722;-0.2127523;-0.7730376;5.018663;-0.4772804;-0.6866913;5.880718;-0.8609485;0.7474689;4.61554;-0.2627497;1.042603;4.483174;-0.2127527;1.806484;5.064855;-0.2928163;2.080974;5.869265;-0.7115813;0.2109391;2.570643;0.1116897;0.1295009;1.243561;-0.4991123;0;0;0;0.2109391;2.570643;0.1116897;0.1295009;1.243561;-0.4991123;0;0;0
306231.6492;NotLabelled;16384;-0.2188366;-0.3407202;-0.8718097;0.2756233;19;20;9;1766;-2282;2237;65536;0.6278182;0.4058172;0.5650969;-0.3490305;-25;-7;1;-25;-3395;-1153;8192;0.9198074;0.2908587;0.1703601;-0.200831;13;-32;-10;-942;-2189;2579;32768;0.7075828;0.3559557;0.5110803;-0.333795;-26;-6;8;341;-3131;-1642;256;0.5263157;-0.5394769;-0.4376731;-0.4903047;-46;2;0;-277;3570;-179;128;-0.5387812;0.4875346;0.5492436;0.4127424;34;5;1;-307;3647;-638;4;-0.1149584;-0.1966759;-0.7203574;-0.6551247;1;-34;59;1911;3410;-280;16;0.4778393;-0.6618789;0.2867036;0.501385;-28;4;-19;-311;3680;1600;2;0.7001711;-0.6745152;0.1648199;-0.166205;-9;19;-56;-2159;3414;79;8;0.3240997;-0.534626;0.4432133;0.6424145;-29;-6;19;129;3621;1699;0.5204134;2.594393;0.1116491;0.5258209;3.087175;-0.1223572;0.5305645;3.51946;-0.3298756;0.4984287;4.251101;-0.2836984;0.2255946;4.567333;-0.3012351;-0.1090667;4.408575;-0.2470405;-0.7756414;4.991522;-0.5193971;-0.6906422;5.848082;-0.9154739;0.7454371;4.590168;-0.3012356;1.040394;4.459068;-0.2470412;1.805994;5.037399;-0.3345846;2.079183;5.837948;-0.7615212;0.2081711;2.553429;0.1242521;0.1255675;1.238584;-0.5123169;0;0;0;0.2081711;2.553429;0.1242521;0.1255675;1.238584;-0.5123169;0;0;0
306252.591;NotLabelled;16384;-0.2202216;-0.3365651;-0.8735101;0.2742382;21;20;11;1702;-2278;2263;65536;0.6311278;0.4030471;0.5650969;-0.3462604;-29;-6;1;-153;-3343;-1255;8192;0.9204474;0.2908587;0.1717452;-0.1966759;15;-28;-13;-864;-2313;2737;32768;0.7082656;0.3531856;0.5138504;-0.3310249;-28;0;8;441;-3175;-1664;256;0.5304709;-0.5345076;-0.4418283;-0.4875346;-47;2;1;-261;3702;-143;128;-0.5401662;0.4847645;0.5524007;0.4099723;34;5;1;-317;3753;-760;4;-0.1177285;-0.2077562;-0.7180543;-0.6537396;0;-37;60;1993;3246;340;16;0.4764543;-0.6625597;0.2825485;0.5041551;-29;4;-21;-311;3760;1566;2;0.6956577;-0.6731302;0.1703601;-0.1842105;1;29;-53;-1913;3346;19;8;0.3144044;-0.5401662;0.4404432;0.6444999;-29;-14;19;397;3671;1713;0.518113;2.577696;0.09828642;0.523494;3.068064;-0.1407365;0.5282141;3.49821;-0.3526555;0.495223;4.230777;-0.3258282;0.2221144;4.546143;-0.3523597;-0.1125215;4.388507;-0.2948393;-0.7781423;4.960997;-0.5906978;-0.6879614;5.809667;-1.002309;0.741932;4.569531;-0.3516673;1.036884;4.440219;-0.2933074;1.802005;5.016278;-0.398289;2.074589;5.808144;-0.8414959;0.2058721;2.536862;0.1113418;0.1232741;1.228067;-0.5375721;0;0;0;0.2058721;2.536862;0.1113418;0.1232741;1.228067;-0.5375721;0;0;0
306272.6212;NotLabelled;16384;-0.2216066;-0.33241;-0.875183;0.2728532;22;21;12;1702;-2340;2393;65536;0.6339089;0.400277;0.566482;-0.3421052;-33;-5;1;-109;-3443;-1271;8192;0.9228151;0.2880886;0.1745152;-0.1869806;17;-26;-16;-1030;-2247;2827;32768;0.7105439;0.3476454;0.5180055;-0.3254848;-32;-4;8;467;-3129;-1872;256;0.5373498;-0.5290859;-0.4445983;-0.4833795;-47;0;1;-209;3720;-135;128;-0.5429363;0.4806094;0.5553568;0.4072022;31;6;1;-307;3799;-620;4;-0.1232687;-0.2160665;-0.7159286;-0.6523545;-8;-6;59;2077;3406;334;16;0.4736842;-0.664768;0.2770083;0.5069252;-29;8;-21;-489;3658;1626;2;0.6944433;-0.6717451;0.1731302;-0.1911357;-7;4;-54;-1987;3410;247;8;0.3088643;-0.5429363;0.4390582;0.6457949;-30;-10;19;-1;3801;1547;0.5176343;2.555342;0.1327039;0.5229811;3.042599;-0.1125993;0.527671;3.469989;-0.3300273;0.4917091;4.202636;-0.3100618;0.2172908;4.516621;-0.3393101;-0.1166478;4.358169;-0.2800047;-0.781697;4.936678;-0.5652513;-0.6883852;5.784747;-0.977402;0.7370089;4.542134;-0.3393109;1.032538;4.414581;-0.2800058;1.800939;4.986601;-0.3830956;2.075438;5.77418;-0.8327125;0.2053953;2.51468;0.1463267;0.1259278;1.225908;-0.5418661;0;0;0;0.2053953;2.51468;0.1463267;0.1259278;1.225908;-0.5418661;0;0;0
306293.8539;NotLabelled;16384;-0.2229917;-0.3282548;-0.8772563;0.2700831;23;20;12;1602;-2190;2539;65536;0.6353976;0.3975069;0.5692521;-0.3379501;-37;0;3;-177;-3255;-1485;8192;0.9240885;0.2867036;0.1759003;-0.1814404;17;-29;-16;-906;-2201;2889;32768;0.7117591;0.3448753;0.5207756;-0.3213296;-34;-7;7;379;-3185;-1860;256;0.539098;-0.5263157;-0.4487534;-0.4806094;-44;0;1;-243;3784;-129;128;-0.5457063;0.4778393;0.5560455;0.4058172;32;4;0;-233;3781;-740;4;-0.1301939;-0.2216066;-0.7167828;-0.6481994;-7;0;57;1983;3266;122;16;0.4722992;-0.6653536;0.2728532;0.5096953;-28;11;-21;-537;3636;1624;2;0.6951419;-0.66759;0.1800554;-0.1966759;-15;-2;-57;-1955;3208;95;8;0.3047091;-0.5457063;0.4376731;0.6463739;-28;3;21;263;3479;1985;0.5230649;2.536292;0.1433641;0.5283909;3.021644;-0.1056864;0.5330623;3.447345;-0.3264012;0.499445;4.180281;-0.314657;0.2260522;4.494798;-0.3475685;-0.1084243;4.338092;-0.286677;-0.7746837;4.912278;-0.5777735;-0.6826706;5.755454;-1.000129;0.7458494;4.518642;-0.3475693;1.040936;4.390815;-0.2866778;1.810609;4.959686;-0.3974205;2.083617;5.741937;-0.857133;0.2108271;2.495736;0.1573261;0.1223939;1.220538;-0.5546485;0;0;0;0.2108271;2.495736;0.1573261;0.1223939;1.220538;-0.5546485;0;0;0
306313.754;NotLabelled;16384;-0.2257618;-0.3240997;-0.8785172;0.2686981;22;24;13;1698;-2222;2537;65536;0.6373464;0.3947368;0.5706371;-0.33518;-41;-1;3;-103;-3355;-1629;8192;0.9247919;0.2853186;0.1786704;-0.1772853;17;-27;-18;-790;-2347;2891;32768;0.7123087;0.3421052;0.5235457;-0.3185596;-36;-2;9;301;-3097;-1968;256;0.5432718;-0.5221606;-0.4515235;-0.4778393;-40;0;1;-325;3730;-13;128;-0.5470914;0.4750692;0.5590646;0.4030471;32;7;0;-259;3797;-686;4;-0.1398892;-0.2354571;-0.7142814;-0.6440443;0;-8;53;2073;3462;272;16;0.4695291;-0.6658782;0.2631579;0.5166205;-29;6;-21;-621;3644;1794;2;0.6943066;-0.66482;0.1842105;-0.2049861;-9;25;-56;-2083;3252;-207;8;0.301939;-0.5498615;0.434903;0.6460221;-28;0;21;505;3617;2001;0.5169101;2.498064;0.1575933;0.5222082;2.980881;-0.09633735;0.5268549;3.404335;-0.3213323;0.4918842;4.137301;-0.3198889;0.2179366;4.45082;-0.3573835;-0.1162923;4.294367;-0.2945154;-0.7805125;4.866873;-0.5934744;-0.6861662;5.706063;-1.023191;0.7376891;4.475622;-0.3573845;1.032969;4.349205;-0.2945166;1.803366;4.915527;-0.4130144;2.075725;5.693338;-0.880582;0.2046738;2.457651;0.171998;0.1143043;1.20784;-0.5834252;0;0;0;0.2046738;2.457651;0.171998;0.1143043;1.20784;-0.5834252;0;0;0
