SEP=;
index;label;RightUpperArm_boneIndex;RightUpperArm_quat9x_w;RightUpperArm_quat9x_x;RightUpperArm_quat9x_y;RightUpperArm_quat9x_z;RightUpperArm_gyroscope_x;RightUpperArm_gyroscope_y;RightUpperArm_gyroscope_z;RightUpperArm_accelerometer_x;RightUpperArm_accelerometer_y;RightUpperArm_accelerometer_z;RightLowerArm_boneIndex;RightLowerArm_quat9x_w;RightLowerArm_quat9x_x;RightLowerArm_quat9x_y;RightLowerArm_quat9x_z;RightLowerArm_gyroscope_x;RightLowerArm_gyroscope_y;RightLowerArm_gyroscope_z;RightLowerArm_accelerometer_x;RightLowerArm_accelerometer_y;RightLowerArm_accelerometer_z;LeftUpperArm_boneIndex;LeftUpperArm_quat9x_w;LeftUpperArm_quat9x_x;LeftUpperArm_quat9x_y;LeftUpperArm_quat9x_z;LeftUpperArm_gyroscope_x;LeftUpperArm_gyroscope_y;LeftUpperArm_gyroscope_z;LeftUpperArm_accelerometer_x;LeftUpperArm_accelerometer_y;LeftUpperArm_accelerometer_z;LeftLowerArm_boneIndex;LeftLowerArm_quat9x_w;LeftLowerArm_quat9x_x;LeftLowerArm_quat9x_y;LeftLowerArm_quat9x_z;LeftLowerArm_gyroscope_x;LeftLowerArm_gyroscope_y;LeftLowerArm_gyroscope_z;LeftLowerArm_accelerometer_x;LeftLowerArm_accelerometer_y;LeftLowerArm_accelerometer_z;Chest_boneIndex;Chest_quat9x_w;Chest_quat9x_x;Chest_quat9x_y;Chest_quat9x_z;Chest_gyroscope_x;Chest_gyroscope_y;Chest_gyroscope_z;Chest_accelerometer_x;Chest_accelerometer_y;Chest_accelerometer_z;Spine_boneIndex;Spine_quat9x_w;Spine_quat9x_x;Spine_quat9x_y;Spine_quat9x_z;Spine_gyroscope_x;Spine_gyroscope_y;Spine_gyroscope_z;Spine_accelerometer_x;Spine_accelerometer_y;Spine_accelerometer_z;RightUpperLeg_boneIndex;RightUpperLeg_quat9x_w;RightUpperLeg_quat9x_x;RightUpperLeg_quat9x_y;RightUpperLeg_quat9x_z;RightUpperLeg_gyroscope_x;RightUpperLeg_gyroscope_y;RightUpperLeg_gyroscope_z;RightUpperLeg_accelerometer_x;RightUpperLeg_accelerometer_y;RightUpperLeg_accelerometer_z;RightLowerLeg_boneIndex;RightLowerLeg_quat9x_w;RightLowerLeg_quat9x_x;RightLowerLeg_quat9x_y;RightLowerLeg_quat9x_z;RightLowerLeg_gyroscope_x;RightLowerLeg_gyroscope_y;RightLowerLeg_gyroscope_z;RightLowerLeg_accelerometer_x;RightLowerLeg_accelerometer_y;RightLowerLeg_accelerometer_z;LeftUpperLeg_boneIndex;LeftUpperLeg_quat9x_w;LeftUpperLeg_quat9x_x;LeftUpperLeg_quat9x_y;LeftUpperLeg_quat9x_z;LeftUpperLeg_gyroscope_x;LeftUpperLeg_gyroscope_y;LeftUpperLeg_gyroscope_z;LeftUpperLeg_accelerometer_x;LeftUpperLeg_accelerometer_y;LeftUpperLeg_accelerometer_z;LeftLowerLeg_boneIndex;LeftLowerLeg_quat9x_w;LeftLowerLeg_quat9x_x;LeftLowerLeg_quat9x_y;LeftLowerLeg_quat9x_z;LeftLowerLeg_gyroscope_x;LeftLowerLeg_gyroscope_y;LeftLowerLeg_gyroscope_z;LeftLowerLeg_accelerometer_x;LeftLowerLeg_accelerometer_y;LeftLowerLeg_accelerometer_z;pelvis_x;pelvis_y;pelvis_z;lowerSpine_x;lowerSpine_y;lowerSpine_z;middleSpine_x;middleSpine_y;middleSpine_z;upperSpine_x;upperSpine_y;upperSpine_z;rightClavicle_x;rightClavicle_y;rightClavicle_z;rightShoulder_x;rightShoulder_y;rightShoulder_z;rightElbow_x;rightElbow_y;rightElbow_z;rightWrist_x;rightWrist_y;rightWrist_z;leftClavicle_x;leftClavicle_y;leftClavicle_z;leftShoulder_x;leftShoulder_y;leftShoulder_z;leftElbow_x;leftElbow_y;leftElbow_z;leftWrist_x;leftWrist_y;leftWrist_z;rightHip_x;rightHip_y;rightHip_z;rightKnee_x;rightKnee_y;rightKnee_z;rightAnkle_x;rightAnkle_y;rightAnkle_z;leftHip_x;leftHip_y;leftHip_z;leftKnee_x;leftKnee_y;leftKnee_z;leftAnkle_x;leftAnkle_y;leftAnkle_z;
271938.0663;NotLabelled;16384;-0.2216066;-0.4362881;-0.8296653;0.2686981;-1;0;1;2520;-2584;1953;65536;0.5790982;0.4598338;0.5443213;-0.3961219;0;1;0;-178;-3949;-1013;8192;0.9020215;0.3185596;0.09833795;-0.2742382;0;0;1;-1724;-2537;2701;32768;0.732992;0.4155124;0.4113573;-0.3476454;0;0;0;719;-3571;-1774;256;0.4044321;-0.5803324;-0.3642659;-0.6057717;1;0;0;-285;3732;-1651;128;0.4709141;-0.5359932;-0.5124654;-0.4778393;-3;0;0;-417;4077;228;4;-0.06232687;0.004155125;-0.7146613;-0.6966759;0;-1;0;351;4080;102;16;0.4833795;-0.6534021;0.3781163;0.4432133;0;0;0;261;3944;1004;2;0.700831;-0.7084471;0.06094183;-0.0567867;0;1;1;-761;4058;29;8;0.4307479;-0.4529086;0.4861496;0.610728;0;0;0;-389;4031;635;0.5320787;2.801986;-0.1683313;0.5379124;3.333605;-0.2906748;0.5430351;3.800445;-0.4001859;0.4980265;4.468742;-0.1004924;0.2188652;4.76393;-0.002101317;-0.111335;4.587558;-0.00173296;-0.8131855;5.179391;-0.1261069;-0.827688;6.092605;-0.3783472;0.7380328;4.798898;-0.002100766;1.036633;4.664877;-0.001731753;1.788267;5.267631;-0.004929781;2.088218;6.115765;-0.3023908;0.2198181;2.759349;-0.1655868;0.1884219;1.301606;-0.2874837;0;0;0;0.2198181;2.759349;-0.1655868;0.1884219;1.301606;-0.2874837;0;0;0
271960.0023;NotLabelled;16384;-0.2216066;-0.4362881;-0.8296653;0.2686981;-1;0;1;2520;-2584;1953;65536;0.5790982;0.4598338;0.5443213;-0.3961219;0;1;0;-178;-3949;-1013;8192;0.9020215;0.3185596;0.09833795;-0.2742382;0;0;1;-1724;-2537;2701;32768;0.732992;0.4155124;0.4113573;-0.3476454;0;0;0;719;-3571;-1774;256;0.4044321;-0.5803324;-0.3642659;-0.6057717;1;0;0;-285;3732;-1651;128;0.4709141;-0.5359932;-0.5124654;-0.4778393;-3;0;0;-417;4077;228;4;-0.06232687;0.004155125;-0.7146613;-0.6966759;0;-1;0;351;4080;102;16;0.4833795;-0.6534021;0.3781163;0.4432133;0;0;0;261;3944;1004;2;0.700831;-0.7084471;0.06094183;-0.0567867;0;1;1;-761;4058;29;8;0.4307479;-0.4529086;0.4861496;0.610728;0;0;0;-389;4031;635;0.5320787;2.801986;-0.1683313;0.5379124;3.333605;-0.2906748;0.5430351;3.800445;-0.4001859;0.4980265;4.468742;-0.1004924;0.2188652;4.76393;-0.002101317;-0.111335;4.587558;-0.00173296;-0.8131855;5.179391;-0.1261069;-0.827688;6.092605;-0.3783472;0.7380328;4.798898;-0.002100766;1.036633;4.664877;-0.001731753;1.788267;5.267631;-0.004929781;2.088218;6.115765;-0.3023908;0.2198181;2.759349;-0.1655868;0.1884219;1.301606;-0.2874837;0;0;0;0.2198181;2.759349;-0.1655868;0.1884219;1.301606;-0.2874837;0;0;0
271980.2082;NotLabelled;16384;-0.2216066;-0.4362881;-0.8296653;0.2686981;-1;0;1;2520;-2584;1953;65536;0.5790982;0.4598338;0.5443213;-0.3961219;0;1;0;-178;-3949;-1013;8192;0.9020215;0.3185596;0.09833795;-0.2742382;0;0;1;-1724;-2537;2701;32768;0.732992;0.4155124;0.4113573;-0.3476454;0;0;0;719;-3571;-1774;256;0.4044321;-0.5803324;-0.3642659;-0.6057717;1;0;0;-285;3732;-1651;128;0.4709141;-0.5359932;-0.5124654;-0.4778393;-3;0;0;-417;4077;228;4;-0.06232687;0.004155125;-0.7146613;-0.6966759;0;-1;0;351;4080;102;16;0.4833795;-0.6534021;0.3781163;0.4432133;0;0;0;261;3944;1004;2;0.700831;-0.7084471;0.06094183;-0.0567867;0;1;1;-761;4058;29;8;0.4307479;-0.4529086;0.4861496;0.610728;0;0;0;-389;4031;635;0.5320787;2.801986;-0.1683313;0.5379124;3.333605;-0.2906748;0.5430351;3.800445;-0.4001859;0.4980265;4.468742;-0.1004924;0.2188652;4.76393;-0.002101317;-0.111335;4.587558;-0.00173296;-0.8131855;5.179391;-0.1261069;-0.827688;6.092605;-0.3783472;0.7380328;4.798898;-0.002100766;1.036633;4.664877;-0.001731753;1.788267;5.267631;-0.004929781;2.088218;6.115765;-0.3023908;0.2198181;2.759349;-0.1655868;0.1884219;1.301606;-0.2874837;0;0;0;0.2198181;2.759349;-0.1655868;0.1884219;1.301606;-0.2874837;0;0;0
272000.9756;NotLabelled;16384;-0.2216066;-0.4362881;-0.8296653;0.2686981;-1;0;1;2520;-2584;1953;65536;0.5790982;0.4598338;0.5443213;-0.3961219;0;1;0;-178;-3949;-1013;8192;0.9020215;0.3185596;0.09833795;-0.2742382;0;0;1;-1724;-2537;2701;32768;0.732992;0.4155124;0.4113573;-0.3476454;0;0;0;719;-3571;-1774;256;0.4044321;-0.5803324;-0.3642659;-0.6057717;1;0;0;-285;3732;-1651;128;0.4709141;-0.5359932;-0.5124654;-0.4778393;-3;0;0;-417;4077;228;4;-0.06232687;0.004155125;-0.7146613;-0.6966759;0;-1;0;351;4080;102;16;0.4833795;-0.6534021;0.3781163;0.4432133;0;0;0;261;3944;1004;2;0.700831;-0.7084471;0.06094183;-0.0567867;0;1;1;-761;4058;29;8;0.4307479;-0.4529086;0.4861496;0.610728;0;0;0;-389;4031;635;0.5320787;2.801986;-0.1683313;0.5379124;3.333605;-0.2906748;0.5430351;3.800445;-0.4001859;0.4980265;4.468742;-0.1004924;0.2188652;4.76393;-0.002101317;-0.111335;4.587558;-0.00173296;-0.8131855;5.179391;-0.1261069;-0.827688;6.092605;-0.3783472;0.7380328;4.798898;-0.002100766;1.036633;4.664877;-0.001731753;1.788267;5.267631;-0.004929781;2.088218;6.115765;-0.3023908;0.2198181;2.759349;-0.1655868;0.1884219;1.301606;-0.2874837;0;0;0;0.2198181;2.759349;-0.1655868;0.1884219;1.301606;-0.2874837;0;0;0
272021.1033;NotLabelled;16384;-0.2216066;-0.4362881;-0.8296653;0.2686981;-1;0;1;2520;-2584;1953;65536;0.5790982;0.4598338;0.5443213;-0.3961219;0;1;0;-178;-3949;-1013;8192;0.9020215;0.3185596;0.09833795;-0.2742382;0;0;1;-1724;-2537;2701;32768;0.732992;0.4155124;0.4113573;-0.3476454;0;0;0;719;-3571;-1774;256;0.4044321;-0.5803324;-0.3642659;-0.6057717;1;0;0;-285;3732;-1651;128;0.4709141;-0.5359932;-0.5124654;-0.4778393;-3;0;0;-417;4077;228;4;-0.06232687;0.004155125;-0.7146613;-0.6966759;0;-1;0;351;4080;102;16;0.4833795;-0.6534021;0.3781163;0.4432133;0;0;0;261;3944;1004;2;0.700831;-0.7084471;0.06094183;-0.0567867;0;1;1;-761;4058;29;8;0.4307479;-0.4529086;0.4861496;0.610728;0;0;0;-389;4031;635;0.5320787;2.801986;-0.1683313;0.5379124;3.333605;-0.2906748;0.5430351;3.800445;-0.4001859;0.4980265;4.468742;-0.1004924;0.2188652;4.76393;-0.002101317;-0.111335;4.587558;-0.00173296;-0.8131855;5.179391;-0.1261069;-0.827688;6.092605;-0.3783472;0.7380328;4.798898;-0.002100766;1.036633;4.664877;-0.001731753;1.788267;5.267631;-0.004929781;2.088218;6.115765;-0.3023908;0.2198181;2.759349;-0.1655868;0.1884219;1.301606;-0.2874837;0;0;0;0.2198181;2.759349;-0.1655868;0.1884219;1.301606;-0.2874837;0;0;0
272041.1555;NotLabelled;16384;-0.2216066;-0.4362881;-0.8296653;0.2686981;-1;0;1;2520;-2584;1953;65536;0.5790982;0.4598338;0.5443213;-0.3961219;0;1;0;-178;-3949;-1013;8192;0.9020215;0.3185596;0.09833795;-0.2742382;0;0;1;-1724;-2537;2701;32768;0.732992;0.4155124;0.4113573;-0.3476454;0;0;0;719;-3571;-1774;256;0.4044321;-0.5803324;-0.3642659;-0.6057717;1;0;0;-285;3732;-1651;128;0.4709141;-0.5359932;-0.5124654;-0.4778393;-3;0;0;-417;4077;228;4;-0.06232687;0.004155125;-0.7146613;-0.6966759;0;-1;0;351;4080;102;16;0.4833795;-0.6534021;0.3781163;0.4432133;0;0;0;261;3944;1004;2;0.700831;-0.7084471;0.06094183;-0.0567867;0;1;1;-761;4058;29;8;0.4307479;-0.4529086;0.4861496;0.610728;0;0;0;-389;4031;635;0.5320787;2.801986;-0.1683313;0.5379124;3.333605;-0.2906748;0.5430351;3.800445;-0.4001859;0.4980265;4.468742;-0.1004924;0.2188652;4.76393;-0.002101317;-0.111335;4.587558;-0.00173296;-0.8131855;5.179391;-0.1261069;-0.827688;6.092605;-0.3783472;0.7380328;4.798898;-0.002100766;1.036633;4.664877;-0.001731753;1.788267;5.267631;-0.004929781;2.088218;6.115765;-0.3023908;0.2198181;2.759349;-0.1655868;0.1884219;1.301606;-0.2874837;0;0;0;0.2198181;2.759349;-0.1655868;0.1884219;1.301606;-0.2874837;0;0;0
272061.9818;NotLabelled;16384;-0.2216066;-0.4362881;-0.8296653;0.2686981;-1;0;1;2520;-2584;1953;65536;0.5790982;0.4598338;0.5443213;-0.3961219;0;1;0;-178;-3949;-1013;8192;0.9020215;0.3185596;0.09833795;-0.2742382;0;0;1;-1724;-2537;2701;32768;0.732992;0.4155124;0.4113573;-0.3476454;0;0;0;719;-3571;-1774;256;0.4044321;-0.5803324;-0.3642659;-0.6057717;1;0;0;-285;3732;-1651;128;0.4709141;-0.5359932;-0.5124654;-0.4778393;-3;0;0;-417;4077;228;4;-0.06232687;0.004155125;-0.7146613;-0.6966759;0;-1;0;351;4080;102;16;0.4833795;-0.6534021;0.3781163;0.4432133;0;0;0;261;3944;1004;2;0.700831;-0.7084471;0.06094183;-0.0567867;0;1;1;-761;4058;29;8;0.4307479;-0.4529086;0.4861496;0.610728;0;0;0;-389;4031;635;0.5320787;2.801986;-0.1683313;0.5379124;3.333605;-0.2906748;0.5430351;3.800445;-0.4001859;0.4980265;4.468742;-0.1004924;0.2188652;4.76393;-0.002101317;-0.111335;4.587558;-0.00173296;-0.8131855;5.179391;-0.1261069;-0.827688;6.092605;-0.3783472;0.7380328;4.798898;-0.002100766;1.036633;4.664877;-0.001731753;1.788267;5.267631;-0.004929781;2.088218;6.115765;-0.3023908;0.2198181;2.759349;-0.1655868;0.1884219;1.301606;-0.2874837;0;0;0;0.2198181;2.759349;-0.1655868;0.1884219;1.301606;-0.2874837;0;0;0
272083.0025;NotLabelled;16384;-0.2216066;-0.4362881;-0.8296653;0.2686981;-1;0;1;2520;-2584;1953;65536;0.5790982;0.4598338;0.5443213;-0.3961219;0;1;0;-178;-3949;-1013;8192;0.9020215;0.3185596;0.09833795;-0.2742382;0;0;1;-1724;-2537;2701;32768;0.732992;0.4155124;0.4113573;-0.3476454;0;0;0;719;-3571;-1774;256;0.4044321;-0.5803324;-0.3642659;-0.6057717;1;0;0;-285;3732;-1651;128;0.4709141;-0.5359932;-0.5124654;-0.4778393;-3;0;0;-417;4077;228;4;-0.06232687;0.004155125;-0.7146613;-0.6966759;0;-1;0;351;4080;102;16;0.4833795;-0.6534021;0.3781163;0.4432133;0;0;0;261;3944;1004;2;0.700831;-0.7084471;0.06094183;-0.0567867;0;1;1;-761;4058;29;8;0.4307479;-0.4529086;0.4861496;0.610728;0;0;0;-389;4031;635;0.5320787;2.801986;-0.1683313;0.5379124;3.333605;-0.2906748;0.5430351;3.800445;-0.4001859;0.4980265;4.468742;-0.1004924;0.2188652;4.76393;-0.002101317;-0.111335;4.587558;-0.00173296;-0.8131855;5.179391;-0.1261069;-0.827688;6.092605;-0.3783472;0.7380328;4.798898;-0.002100766;1.036633;4.664877;-0.001731753;1.788267;5.267631;-0.004929781;2.088218;6.115765;-0.3023908;0.2198181;2.759349;-0.1655868;0.1884219;1.301606;-0.2874837;0;0;0;0.2198181;2.759349;-0.1655868;0.1884219;1.301606;-0.2874837;0;0;0
272102.9892;NotLabelled;16384;-0.2216066;-0.4362881;-0.8296653;0.2686981;-1;0;1;2520;-2584;1953;65536;0.5790982;0.4598338;0.5443213;-0.3961219;0;1;0;-178;-3949;-1013;8192;0.9020215;0.3185596;0.09833795;-0.2742382;0;0;1;-1724;-2537;2701;32768;0.732992;0.4155124;0.4113573;-0.3476454;0;0;0;719;-3571;-1774;256;0.4044321;-0.5803324;-0.3642659;-0.6057717;1;0;0;-285;3732;-1651;128;0.4709141;-0.5359932;-0.5124654;-0.4778393;-3;0;0;-417;4077;228;4;-0.06232687;0.004155125;-0.7146613;-0.6966759;0;-1;0;351;4080;102;16;0.4833795;-0.6534021;0.3781163;0.4432133;0;0;0;261;3944;1004;2;0.700831;-0.7084471;0.06094183;-0.0567867;0;1;1;-761;4058;29;8;0.4307479;-0.4529086;0.4861496;0.610728;0;0;0;-389;4031;635;0.5320787;2.801986;-0.1683313;0.5379124;3.333605;-0.2906748;0.5430351;3.800445;-0.4001859;0.4980265;4.468742;-0.1004924;0.2188652;4.76393;-0.002101317;-0.111335;4.587558;-0.00173296;-0.8131855;5.179391;-0.1261069;-0.827688;6.092605;-0.3783472;0.7380328;4.798898;-0.002100766;1.036633;4.664877;-0.001731753;1.788267;5.267631;-0.004929781;2.088218;6.115765;-0.3023908;0.2198181;2.759349;-0.1655868;0.1884219;1.301606;-0.2874837;0;0;0;0.2198181;2.759349;-0.1655868;0.1884219;1.301606;-0.2874837;0;0;0
272123.1542;NotLabelled;16384;-0.2216066;-0.4362881;-0.8296653;0.2686981;-1;0;1;2520;-2584;1953;65536;0.5790982;0.4598338;0.5443213;-0.3961219;0;1;0;-178;-3949;-1013;8192;0.9020215;0.3185596;0.09833795;-0.2742382;0;0;1;-1724;-2537;2701;32768;0.732992;0.4155124;0.4113573;-0.3476454;0;0;0;719;-3571;-1774;256;0.4044321;-0.5803324;-0.3642659;-0.6057717;1;0;0;-285;3732;-1651;128;0.4709141;-0.5359932;-0.5124654;-0.4778393;-3;0;0;-417;4077;228;4;-0.06232687;0.004155125;-0.7146613;-0.6966759;0;-1;0;351;4080;102;16;0.4833795;-0.6534021;0.3781163;0.4432133;0;0;0;261;3944;1004;2;0.700831;-0.7084471;0.06094183;-0.0567867;0;1;1;-761;4058;29;8;0.4307479;-0.4529086;0.4861496;0.610728;0;0;0;-389;4031;635;0.5320787;2.801986;-0.1683313;0.5379124;3.333605;-0.2906748;0.5430351;3.800445;-0.4001859;0.4980265;4.468742;-0.1004924;0.2188652;4.76393;-0.002101317;-0.111335;4.587558;-0.00173296;-0.8131855;5.179391;-0.1261069;-0.827688;6.092605;-0.3783472;0.7380328;4.798898;-0.002100766;1.036633;4.664877;-0.001731753;1.788267;5.267631;-0.004929781;2.088218;6.115765;-0.3023908;0.2198181;2.759349;-0.1655868;0.1884219;1.301606;-0.2874837;0;0;0;0.2198181;2.759349;-0.1655868;0.1884219;1.301606;-0.2874837;0;0;0
272142.991;NotLabelled;16384;-0.2216066;-0.4362881;-0.8296653;0.2686981;-1;0;1;2520;-2584;1953;65536;0.5790982;0.4598338;0.5443213;-0.3961219;0;1;0;-178;-3949;-1013;8192;0.9020215;0.3185596;0.09833795;-0.2742382;0;0;1;-1724;-2537;2701;32768;0.732992;0.4155124;0.4113573;-0.3476454;0;0;0;719;-3571;-1774;256;0.4044321;-0.5803324;-0.3642659;-0.6057717;1;0;0;-285;3732;-1651;128;0.4709141;-0.5359932;-0.5124654;-0.4778393;-3;0;0;-417;4077;228;4;-0.06232687;0.004155125;-0.7146613;-0.6966759;0;-1;0;351;4080;102;16;0.4833795;-0.6534021;0.3781163;0.4432133;0;0;0;261;3944;1004;2;0.700831;-0.7084471;0.06094183;-0.0567867;0;1;1;-761;4058;29;8;0.4307479;-0.4529086;0.4861496;0.610728;0;0;0;-389;4031;635;0.5320787;2.801986;-0.1683313;0.5379124;3.333605;-0.2906748;0.5430351;3.800445;-0.4001859;0.4980265;4.468742;-0.1004924;0.2188652;4.76393;-0.002101317;-0.111335;4.587558;-0.00173296;-0.8131855;5.179391;-0.1261069;-0.827688;6.092605;-0.3783472;0.7380328;4.798898;-0.002100766;1.036633;4.664877;-0.001731753;1.788267;5.267631;-0.004929781;2.088218;6.115765;-0.3023908;0.2198181;2.759349;-0.1655868;0.1884219;1.301606;-0.2874837;0;0;0;0.2198181;2.759349;-0.1655868;0.1884219;1.301606;-0.2874837;0;0;0
272163.1585;NotLabelled;16384;-0.2216066;-0.4362881;-0.8296653;0.2686981;-1;0;1;2520;-2584;1953;65536;0.5790982;0.4598338;0.5443213;-0.3961219;0;1;0;-178;-3949;-1013;8192;0.9020215;0.3185596;0.09833795;-0.2742382;0;0;1;-1724;-2537;2701;32768;0.732992;0.4155124;0.4113573;-0.3476454;0;0;0;719;-3571;-1774;256;0.4044321;-0.5803324;-0.3642659;-0.6057717;1;0;0;-285;3732;-1651;128;0.4709141;-0.5359932;-0.5124654;-0.4778393;-3;0;0;-417;4077;228;4;-0.06232687;0.004155125;-0.7146613;-0.6966759;0;-1;0;351;4080;102;16;0.4833795;-0.6534021;0.3781163;0.4432133;0;0;0;261;3944;1004;2;0.700831;-0.7084471;0.06094183;-0.0567867;0;1;1;-761;4058;29;8;0.4307479;-0.4529086;0.4861496;0.610728;0;0;0;-389;4031;635;0.5320787;2.801986;-0.1683313;0.5379124;3.333605;-0.2906748;0.5430351;3.800445;-0.4001859;0.4980265;4.468742;-0.1004924;0.2188652;4.76393;-0.002101317;-0.111335;4.587558;-0.00173296;-0.8131855;5.179391;-0.1261069;-0.827688;6.092605;-0.3783472;0.7380328;4.798898;-0.002100766;1.036633;4.664877;-0.001731753;1.788267;5.267631;-0.004929781;2.088218;6.115765;-0.3023908;0.2198181;2.759349;-0.1655868;0.1884219;1.301606;-0.2874837;0;0;0;0.2198181;2.759349;-0.1655868;0.1884219;1.301606;-0.2874837;0;0;0
272183.9873;NotLabelled;16384;-0.2216066;-0.4362881;-0.8296653;0.2686981;-1;0;1;2520;-2584;1953;65536;0.5790982;0.4598338;0.5443213;-0.3961219;0;1;0;-178;-3949;-1013;8192;0.9020215;0.3185596;0.09833795;-0.2742382;0;0;1;-1724;-2537;2701;32768;0.732992;0.4155124;0.4113573;-0.3476454;0;0;0;719;-3571;-1774;256;0.4044321;-0.5803324;-0.3642659;-0.6057717;1;0;0;-285;3732;-1651;128;0.4709141;-0.5359932;-0.5124654;-0.4778393;-3;0;0;-417;4077;228;4;-0.06232687;0.004155125;-0.7146613;-0.6966759;0;-1;0;351;4080;102;16;0.4833795;-0.6534021;0.3781163;0.4432133;0;0;0;261;3944;1004;2;0.700831;-0.7084471;0.06094183;-0.0567867;0;1;1;-761;4058;29;8;0.4307479;-0.4529086;0.4861496;0.610728;0;0;0;-389;4031;635;0.5320787;2.801986;-0.1683313;0.5379124;3.333605;-0.2906748;0.5430351;3.800445;-0.4001859;0.4980265;4.468742;-0.1004924;0.2188652;4.76393;-0.002101317;-0.111335;4.587558;-0.00173296;-0.8131855;5.179391;-0.1261069;-0.827688;6.092605;-0.3783472;0.7380328;4.798898;-0.002100766;1.036633;4.664877;-0.001731753;1.788267;5.267631;-0.004929781;2.088218;6.115765;-0.3023908;0.2198181;2.759349;-0.1655868;0.1884219;1.301606;-0.2874837;0;0;0;0.2198181;2.759349;-0.1655868;0.1884219;1.301606;-0.2874837;0;0;0
272204.1589;NotLabelled;16384;-0.2216066;-0.4362881;-0.8296653;0.2686981;-1;0;1;2520;-2584;1953;65536;0.5790982;0.4598338;0.5443213;-0.3961219;0;1;0;-178;-3949;-1013;8192;0.9020215;0.3185596;0.09833795;-0.2742382;0;0;1;-1724;-2537;2701;32768;0.732992;0.4155124;0.4113573;-0.3476454;0;0;0;719;-3571;-1774;256;0.4044321;-0.5803324;-0.3642659;-0.6057717;1;0;0;-285;3732;-1651;128;0.4709141;-0.5359932;-0.5124654;-0.4778393;-3;0;0;-417;4077;228;4;-0.06232687;0.004155125;-0.7146613;-0.6966759;0;-1;0;351;4080;102;16;0.4833795;-0.6534021;0.3781163;0.4432133;0;0;0;261;3944;1004;2;0.700831;-0.7084471;0.06094183;-0.0567867;0;1;1;-761;4058;29;8;0.4307479;-0.4529086;0.4861496;0.610728;0;0;0;-389;4031;635;0.5320787;2.801986;-0.1683313;0.5379124;3.333605;-0.2906748;0.5430351;3.800445;-0.4001859;0.4980265;4.468742;-0.1004924;0.2188652;4.76393;-0.002101317;-0.111335;4.587558;-0.00173296;-0.8131855;5.179391;-0.1261069;-0.827688;6.092605;-0.3783472;0.7380328;4.798898;-0.002100766;1.036633;4.664877;-0.001731753;1.788267;5.267631;-0.004929781;2.088218;6.115765;-0.3023908;0.2198181;2.759349;-0.1655868;0.1884219;1.301606;-0.2874837;0;0;0;0.2198181;2.759349;-0.1655868;0.1884219;1.301606;-0.2874837;0;0;0
272224.9794;NotLabelled;16384;-0.2216066;-0.4362881;-0.8296653;0.2686981;-1;0;1;2520;-2584;1953;65536;0.5790982;0.4598338;0.5443213;-0.3961219;0;1;0;-178;-3949;-1013;8192;0.9020215;0.3185596;0.09833795;-0.2742382;0;0;1;-1724;-2537;2701;32768;0.732992;0.4155124;0.4113573;-0.3476454;0;0;0;719;-3571;-1774;256;0.4044321;-0.5803324;-0.3642659;-0.6057717;1;0;0;-285;3732;-1651;128;0.4709141;-0.5359932;-0.5124654;-0.4778393;-3;0;0;-417;4077;228;4;-0.06232687;0.004155125;-0.7146613;-0.6966759;0;-1;0;351;4080;102;16;0.4833795;-0.6534021;0.3781163;0.4432133;0;0;0;261;3944;1004;2;0.700831;-0.7084471;0.06094183;-0.0567867;0;1;1;-761;4058;29;8;0.4307479;-0.4529086;0.4861496;0.610728;0;0;0;-389;4031;635;0.5320787;2.801986;-0.1683313;0.5379124;3.333605;-0.2906748;0.5430351;3.800445;-0.4001859;0.4980265;4.468742;-0.1004924;0.2188652;4.76393;-0.002101317;-0.111335;4.587558;-0.00173296;-0.8131855;5.179391;-0.1261069;-0.827688;6.092605;-0.3783472;0.7380328;4.798898;-0.002100766;1.036633;4.664877;-0.001731753;1.788267;5.267631;-0.004929781;2.088218;6.115765;-0.3023908;0.2198181;2.759349;-0.1655868;0.1884219;1.301606;-0.2874837;0;0;0;0.2198181;2.759349;-0.1655868;0.1884219;1.301606;-0.2874837;0;0;0
272264.9978;NotLabelled;16384;-0.2216066;-0.4362881;-0.8296653;0.2686981;-1;0;1;2520;-2584;1953;65536;0.5790982;0.4598338;0.5443213;-0.3961219;0;1;0;-178;-3949;-1013;8192;0.9020215;0.3185596;0.09833795;-0.2742382;0;0;1;-1724;-2537;2701;32768;0.732992;0.4155124;0.4113573;-0.3476454;0;0;0;719;-3571;-1774;256;0.4044321;-0.5803324;-0.3642659;-0.6057717;1;0;0;-285;3732;-1651;128;0.4709141;-0.5359932;-0.5124654;-0.4778393;-3;0;0;-417;4077;228;4;-0.06232687;0.004155125;-0.7146613;-0.6966759;0;-1;0;351;4080;102;16;0.4833795;-0.6534021;0.3781163;0.4432133;0;0;0;261;3944;1004;2;0.700831;-0.7084471;0.06094183;-0.0567867;0;1;1;-761;4058;29;8;0.4307479;-0.4529086;0.4861496;0.610728;0;0;0;-389;4031;635;0.5320787;2.801986;-0.1683313;0.5379124;3.333605;-0.2906748;0.5430351;3.800445;-0.4001859;0.4980265;4.468742;-0.1004924;0.2188652;4.76393;-0.002101317;-0.111335;4.587558;-0.00173296;-0.8131855;5.179391;-0.1261069;-0.827688;6.092605;-0.3783472;0.7380328;4.798898;-0.002100766;1.036633;4.664877;-0.001731753;1.788267;5.267631;-0.004929781;2.088218;6.115765;-0.3023908;0.2198181;2.759349;-0.1655868;0.1884219;1.301606;-0.2874837;0;0;0;0.2198181;2.759349;-0.1655868;0.1884219;1.301606;-0.2874837;0;0;0
272286.0471;NotLabelled;16384;-0.2216066;-0.4362881;-0.8296653;0.2686981;-1;0;1;2520;-2584;1953;65536;0.5790982;0.4598338;0.5443213;-0.3961219;0;1;0;-178;-3949;-1013;8192;0.9020215;0.3185596;0.09833795;-0.2742382;0;0;1;-1724;-2537;2701;32768;0.732992;0.4155124;0.4113573;-0.3476454;0;0;0;719;-3571;-1774;256;0.4044321;-0.5803324;-0.3642659;-0.6057717;1;0;0;-285;3732;-1651;128;0.4709141;-0.5359932;-0.5124654;-0.4778393;-3;0;0;-417;4077;228;4;-0.06232687;0.004155125;-0.7146613;-0.6966759;0;-1;0;351;4080;102;16;0.4833795;-0.6534021;0.3781163;0.4432133;0;0;0;261;3944;1004;2;0.700831;-0.7084471;0.06094183;-0.0567867;0;1;1;-761;4058;29;8;0.4307479;-0.4529086;0.4861496;0.610728;0;0;0;-389;4031;635;0.5320787;2.801986;-0.1683313;0.5379124;3.333605;-0.2906748;0.5430351;3.800445;-0.4001859;0.4980265;4.468742;-0.1004924;0.2188652;4.76393;-0.002101317;-0.111335;4.587558;-0.00173296;-0.8131855;5.179391;-0.1261069;-0.827688;6.092605;-0.3783472;0.7380328;4.798898;-0.002100766;1.036633;4.664877;-0.001731753;1.788267;5.267631;-0.004929781;2.088218;6.115765;-0.3023908;0.2198181;2.759349;-0.1655868;0.1884219;1.301606;-0.2874837;0;0;0;0.2198181;2.759349;-0.1655868;0.1884219;1.301606;-0.2874837;0;0;0
272305.9765;NotLabelled;16384;-0.2216066;-0.4362881;-0.8296653;0.2686981;-1;0;1;2520;-2584;1953;65536;0.5790982;0.4598338;0.5443213;-0.3961219;0;1;0;-178;-3949;-1013;8192;0.9020215;0.3185596;0.09833795;-0.2742382;0;0;1;-1724;-2537;2701;32768;0.732992;0.4155124;0.4113573;-0.3476454;0;0;0;719;-3571;-1774;256;0.4044321;-0.5803324;-0.3642659;-0.6057717;1;0;0;-285;3732;-1651;128;0.4709141;-0.5359932;-0.5124654;-0.4778393;-3;0;0;-417;4077;228;4;-0.06232687;0.004155125;-0.7146613;-0.6966759;0;-1;0;351;4080;102;16;0.4833795;-0.6534021;0.3781163;0.4432133;0;0;0;261;3944;1004;2;0.700831;-0.7084471;0.06094183;-0.0567867;0;1;1;-761;4058;29;8;0.4307479;-0.4529086;0.4861496;0.610728;0;0;0;-389;4031;635;0.5320787;2.801986;-0.1683313;0.5379124;3.333605;-0.2906748;0.5430351;3.800445;-0.4001859;0.4980265;4.468742;-0.1004924;0.2188652;4.76393;-0.002101317;-0.111335;4.587558;-0.00173296;-0.8131855;5.179391;-0.1261069;-0.827688;6.092605;-0.3783472;0.7380328;4.798898;-0.002100766;1.036633;4.664877;-0.001731753;1.788267;5.267631;-0.004929781;2.088218;6.115765;-0.3023908;0.2198181;2.759349;-0.1655868;0.1884219;1.301606;-0.2874837;0;0;0;0.2198181;2.759349;-0.1655868;0.1884219;1.301606;-0.2874837;0;0;0
272327.1716;NotLabelled;16384;-0.2216066;-0.4362881;-0.8296653;0.2686981;-1;0;1;2520;-2584;1953;65536;0.5790982;0.4598338;0.5443213;-0.3961219;0;1;0;-178;-3949;-1013;8192;0.9020215;0.3185596;0.09833795;-0.2742382;0;0;1;-1724;-2537;2701;32768;0.732992;0.4155124;0.4113573;-0.3476454;0;0;0;719;-3571;-1774;256;0.4044321;-0.5803324;-0.3642659;-0.6057717;1;0;0;-285;3732;-1651;128;0.4709141;-0.5359932;-0.5124654;-0.4778393;-3;0;0;-417;4077;228;4;-0.06232687;0.004155125;-0.7146613;-0.6966759;0;-1;0;351;4080;102;16;0.4833795;-0.6534021;0.3781163;0.4432133;0;0;0;261;3944;1004;2;0.700831;-0.7084471;0.06094183;-0.0567867;0;1;1;-761;4058;29;8;0.4307479;-0.4529086;0.4861496;0.610728;0;0;0;-389;4031;635;0.5320787;2.801986;-0.1683313;0.5379124;3.333605;-0.2906748;0.5430351;3.800445;-0.4001859;0.4980265;4.468742;-0.1004924;0.2188652;4.76393;-0.002101317;-0.111335;4.587558;-0.00173296;-0.8131855;5.179391;-0.1261069;-0.827688;6.092605;-0.3783472;0.7380328;4.798898;-0.002100766;1.036633;4.664877;-0.001731753;1.788267;5.267631;-0.004929781;2.088218;6.115765;-0.3023908;0.2198181;2.759349;-0.1655868;0.1884219;1.301606;-0.2874837;0;0;0;0.2198181;2.759349;-0.1655868;0.1884219;1.301606;-0.2874837;0;0;0
272349.1372;NotLabelled;16384;-0.2216066;-0.4362881;-0.8296653;0.2686981;-1;0;1;2520;-2584;1953;65536;0.5790982;0.4598338;0.5443213;-0.3961219;0;1;0;-178;-3949;-1013;8192;0.9020215;0.3185596;0.09833795;-0.2742382;0;0;1;-1724;-2537;2701;32768;0.732992;0.4155124;0.4113573;-0.3476454;0;0;0;719;-3571;-1774;256;0.4044321;-0.5803324;-0.3642659;-0.6057717;1;0;0;-285;3732;-1651;128;0.4709141;-0.5359932;-0.5124654;-0.4778393;-3;0;0;-417;4077;228;4;-0.06232687;0.004155125;-0.7146613;-0.6966759;0;-1;0;351;4080;102;16;0.4833795;-0.6534021;0.3781163;0.4432133;0;0;0;261;3944;1004;2;0.700831;-0.7084471;0.06094183;-0.0567867;0;1;1;-761;4058;29;8;0.4307479;-0.4529086;0.4861496;0.610728;0;0;0;-389;4031;635;0.5320787;2.801986;-0.1683313;0.5379124;3.333605;-0.2906748;0.5430351;3.800445;-0.4001859;0.4980265;4.468742;-0.1004924;0.2188652;4.76393;-0.002101317;-0.111335;4.587558;-0.00173296;-0.8131855;5.179391;-0.1261069;-0.827688;6.092605;-0.3783472;0.7380328;4.798898;-0.002100766;1.036633;4.664877;-0.001731753;1.788267;5.267631;-0.004929781;2.088218;6.115765;-0.3023908;0.2198181;2.759349;-0.1655868;0.1884219;1.301606;-0.2874837;0;0;0;0.2198181;2.759349;-0.1655868;0.1884219;1.301606;-0.2874837;0;0;0
272370.1537;NotLabelled;16384;-0.2216066;-0.4362881;-0.8296653;0.2686981;-1;0;1;2520;-2584;1953;65536;0.5790982;0.4598338;0.5443213;-0.3961219;0;1;0;-178;-3949;-1013;8192;0.9020215;0.3185596;0.09833795;-0.2742382;0;0;1;-1724;-2537;2701;32768;0.732992;0.4155124;0.4113573;-0.3476454;0;0;0;719;-3571;-1774;256;0.4044321;-0.5803324;-0.3642659;-0.6057717;1;0;0;-285;3732;-1651;128;0.4709141;-0.5359932;-0.5124654;-0.4778393;-3;0;0;-417;4077;228;4;-0.06232687;0.004155125;-0.7146613;-0.6966759;0;-1;0;351;4080;102;16;0.4833795;-0.6534021;0.3781163;0.4432133;0;0;0;261;3944;1004;2;0.700831;-0.7084471;0.06094183;-0.0567867;0;1;1;-761;4058;29;8;0.4307479;-0.4529086;0.4861496;0.610728;0;0;0;-389;4031;635;0.5320787;2.801986;-0.1683313;0.5379124;3.333605;-0.2906748;0.5430351;3.800445;-0.4001859;0.4980265;4.468742;-0.1004924;0.2188652;4.76393;-0.002101317;-0.111335;4.587558;-0.00173296;-0.8131855;5.179391;-0.1261069;-0.827688;6.092605;-0.3783472;0.7380328;4.798898;-0.002100766;1.036633;4.664877;-0.001731753;1.788267;5.267631;-0.004929781;2.088218;6.115765;-0.3023908;0.2198181;2.759349;-0.1655868;0.1884219;1.301606;-0.2874837;0;0;0;0.2198181;2.759349;-0.1655868;0.1884219;1.301606;-0.2874837;0;0;0
272391.0053;NotLabelled;16384;-0.2216066;-0.4362881;-0.8296653;0.2686981;-1;0;1;2520;-2584;1953;65536;0.5790982;0.4598338;0.5443213;-0.3961219;0;1;0;-178;-3949;-1013;8192;0.9020215;0.3185596;0.09833795;-0.2742382;0;0;1;-1724;-2537;2701;32768;0.732992;0.4155124;0.4113573;-0.3476454;0;0;0;719;-3571;-1774;256;0.4044321;-0.5803324;-0.3642659;-0.6057717;1;0;0;-285;3732;-1651;128;0.4709141;-0.5359932;-0.5124654;-0.4778393;-3;0;0;-417;4077;228;4;-0.06232687;0.004155125;-0.7146613;-0.6966759;0;-1;0;351;4080;102;16;0.4833795;-0.6534021;0.3781163;0.4432133;0;0;0;261;3944;1004;2;0.700831;-0.7084471;0.06094183;-0.0567867;0;1;1;-761;4058;29;8;0.4307479;-0.4529086;0.4861496;0.610728;0;0;0;-389;4031;635;0.5320787;2.801986;-0.1683313;0.5379124;3.333605;-0.2906748;0.5430351;3.800445;-0.4001859;0.4980265;4.468742;-0.1004924;0.2188652;4.76393;-0.002101317;-0.111335;4.587558;-0.00173296;-0.8131855;5.179391;-0.1261069;-0.827688;6.092605;-0.3783472;0.7380328;4.798898;-0.002100766;1.036633;4.664877;-0.001731753;1.788267;5.267631;-0.004929781;2.088218;6.115765;-0.3023908;0.2198181;2.759349;-0.1655868;0.1884219;1.301606;-0.2874837;0;0;0;0.2198181;2.759349;-0.1655868;0.1884219;1.301606;-0.2874837;0;0;0
272413.008;NotLabelled;16384;-0.2216066;-0.4362881;-0.8296653;0.2686981;-1;0;1;2520;-2584;1953;65536;0.5790982;0.4598338;0.5443213;-0.3961219;0;1;0;-178;-3949;-1013;8192;0.9020215;0.3185596;0.09833795;-0.2742382;0;0;1;-1724;-2537;2701;32768;0.732992;0.4155124;0.4113573;-0.3476454;0;0;0;719;-3571;-1774;256;0.4044321;-0.5803324;-0.3642659;-0.6057717;1;0;0;-285;3732;-1651;128;0.4709141;-0.5359932;-0.5124654;-0.4778393;-3;0;0;-417;4077;228;4;-0.06232687;0.004155125;-0.7146613;-0.6966759;0;-1;0;351;4080;102;16;0.4833795;-0.6534021;0.3781163;0.4432133;0;0;0;261;3944;1004;2;0.700831;-0.7084471;0.06094183;-0.0567867;0;1;1;-761;4058;29;8;0.4307479;-0.4529086;0.4861496;0.610728;0;0;0;-389;4031;635;0.5320787;2.801986;-0.1683313;0.5379124;3.333605;-0.2906748;0.5430351;3.800445;-0.4001859;0.4980265;4.468742;-0.1004924;0.2188652;4.76393;-0.002101317;-0.111335;4.587558;-0.00173296;-0.8131855;5.179391;-0.1261069;-0.827688;6.092605;-0.3783472;0.7380328;4.798898;-0.002100766;1.036633;4.664877;-0.001731753;1.788267;5.267631;-0.004929781;2.088218;6.115765;-0.3023908;0.2198181;2.759349;-0.1655868;0.1884219;1.301606;-0.2874837;0;0;0;0.2198181;2.759349;-0.1655868;0.1884219;1.301606;-0.2874837;0;0;0
272433.9804;NotLabelled;16384;-0.2216066;-0.4362881;-0.8296653;0.2686981;-1;0;1;2520;-2584;1953;65536;0.5790982;0.4598338;0.5443213;-0.3961219;0;1;0;-178;-3949;-1013;8192;0.9020215;0.3185596;0.09833795;-0.2742382;0;0;1;-1724;-2537;2701;32768;0.732992;0.4155124;0.4113573;-0.3476454;0;0;0;719;-3571;-1774;256;0.4044321;-0.5803324;-0.3642659;-0.6057717;1;0;0;-285;3732;-1651;128;0.4709141;-0.5359932;-0.5124654;-0.4778393;-3;0;0;-417;4077;228;4;-0.06232687;0.004155125;-0.7146613;-0.6966759;0;-1;0;351;4080;102;16;0.4833795;-0.6534021;0.3781163;0.4432133;0;0;0;261;3944;1004;2;0.700831;-0.7084471;0.06094183;-0.0567867;0;1;1;-761;4058;29;8;0.4307479;-0.4529086;0.4861496;0.610728;0;0;0;-389;4031;635;0.5320787;2.801986;-0.1683313;0.5379124;3.333605;-0.2906748;0.5430351;3.800445;-0.4001859;0.4980265;4.468742;-0.1004924;0.2188652;4.76393;-0.002101317;-0.111335;4.587558;-0.00173296;-0.8131855;5.179391;-0.1261069;-0.827688;6.092605;-0.3783472;0.7380328;4.798898;-0.002100766;1.036633;4.664877;-0.001731753;1.788267;5.267631;-0.004929781;2.088218;6.115765;-0.3023908;0.2198181;2.759349;-0.1655868;0.1884219;1.301606;-0.2874837;0;0;0;0.2198181;2.759349;-0.1655868;0.1884219;1.301606;-0.2874837;0;0;0
272475.2847;NotLabelled;16384;-0.2216066;-0.4362881;-0.8296653;0.2686981;-1;0;1;2520;-2584;1953;65536;0.5790982;0.4598338;0.5443213;-0.3961219;0;1;0;-178;-3949;-1013;8192;0.9020215;0.3185596;0.09833795;-0.2742382;0;0;1;-1724;-2537;2701;32768;0.732992;0.4155124;0.4113573;-0.3476454;0;0;0;719;-3571;-1774;256;0.4044321;-0.5803324;-0.3642659;-0.6057717;1;0;0;-285;3732;-1651;128;0.4709141;-0.5359932;-0.5124654;-0.4778393;-3;0;0;-417;4077;228;4;-0.06232687;0.004155125;-0.7146613;-0.6966759;0;-1;0;351;4080;102;16;0.4833795;-0.6534021;0.3781163;0.4432133;0;0;0;261;3944;1004;2;0.700831;-0.7084471;0.06094183;-0.0567867;0;1;1;-761;4058;29;8;0.4307479;-0.4529086;0.4861496;0.610728;0;0;0;-389;4031;635;0.5320787;2.801986;-0.1683313;0.5379124;3.333605;-0.2906748;0.5430351;3.800445;-0.4001859;0.4980265;4.468742;-0.1004924;0.2188652;4.76393;-0.002101317;-0.111335;4.587558;-0.00173296;-0.8131855;5.179391;-0.1261069;-0.827688;6.092605;-0.3783472;0.7380328;4.798898;-0.002100766;1.036633;4.664877;-0.001731753;1.788267;5.267631;-0.004929781;2.088218;6.115765;-0.3023908;0.2198181;2.759349;-0.1655868;0.1884219;1.301606;-0.2874837;0;0;0;0.2198181;2.759349;-0.1655868;0.1884219;1.301606;-0.2874837;0;0;0
272496.0225;NotLabelled;16384;-0.2216066;-0.4362881;-0.8296653;0.2686981;-1;0;1;2520;-2584;1953;65536;0.5790982;0.4598338;0.5443213;-0.3961219;0;1;0;-178;-3949;-1013;8192;0.9020215;0.3185596;0.09833795;-0.2742382;0;0;1;-1724;-2537;2701;32768;0.732992;0.4155124;0.4113573;-0.3476454;0;0;0;719;-3571;-1774;256;0.4044321;-0.5803324;-0.3642659;-0.6057717;1;0;0;-285;3732;-1651;128;0.4709141;-0.5359932;-0.5124654;-0.4778393;-3;0;0;-417;4077;228;4;-0.06232687;0.004155125;-0.7146613;-0.6966759;0;-1;0;351;4080;102;16;0.4833795;-0.6534021;0.3781163;0.4432133;0;0;0;261;3944;1004;2;0.700831;-0.7084471;0.06094183;-0.0567867;0;1;1;-761;4058;29;8;0.4307479;-0.4529086;0.4861496;0.610728;0;0;0;-389;4031;635;0.5320787;2.801986;-0.1683313;0.5379124;3.333605;-0.2906748;0.5430351;3.800445;-0.4001859;0.4980265;4.468742;-0.1004924;0.2188652;4.76393;-0.002101317;-0.111335;4.587558;-0.00173296;-0.8131855;5.179391;-0.1261069;-0.827688;6.092605;-0.3783472;0.7380328;4.798898;-0.002100766;1.036633;4.664877;-0.001731753;1.788267;5.267631;-0.004929781;2.088218;6.115765;-0.3023908;0.2198181;2.759349;-0.1655868;0.1884219;1.301606;-0.2874837;0;0;0;0.2198181;2.759349;-0.1655868;0.1884219;1.301606;-0.2874837;0;0;0
272517.2167;NotLabelled;16384;-0.2216066;-0.4362881;-0.8296653;0.2686981;-1;0;1;2520;-2584;1953;65536;0.5790982;0.4598338;0.5443213;-0.3961219;0;1;0;-178;-3949;-1013;8192;0.9020215;0.3185596;0.09833795;-0.2742382;0;0;1;-1724;-2537;2701;32768;0.732992;0.4155124;0.4113573;-0.3476454;0;0;0;719;-3571;-1774;256;0.4044321;-0.5803324;-0.3642659;-0.6057717;1;0;0;-285;3732;-1651;128;0.4709141;-0.5359932;-0.5124654;-0.4778393;-3;0;0;-417;4077;228;4;-0.06232687;0.004155125;-0.7146613;-0.6966759;0;-1;0;351;4080;102;16;0.4833795;-0.6534021;0.3781163;0.4432133;0;0;0;261;3944;1004;2;0.700831;-0.7084471;0.06094183;-0.0567867;0;1;1;-761;4058;29;8;0.4307479;-0.4529086;0.4861496;0.610728;0;0;0;-389;4031;635;0.5320787;2.801986;-0.1683313;0.5379124;3.333605;-0.2906748;0.5430351;3.800445;-0.4001859;0.4980265;4.468742;-0.1004924;0.2188652;4.76393;-0.002101317;-0.111335;4.587558;-0.00173296;-0.8131855;5.179391;-0.1261069;-0.827688;6.092605;-0.3783472;0.7380328;4.798898;-0.002100766;1.036633;4.664877;-0.001731753;1.788267;5.267631;-0.004929781;2.088218;6.115765;-0.3023908;0.2198181;2.759349;-0.1655868;0.1884219;1.301606;-0.2874837;0;0;0;0.2198181;2.759349;-0.1655868;0.1884219;1.301606;-0.2874837;0;0;0
272538.999;NotLabelled;16384;-0.2216066;-0.4362881;-0.8296653;0.2686981;-1;0;1;2520;-2584;1953;65536;0.5790982;0.4598338;0.5443213;-0.3961219;0;1;0;-178;-3949;-1013;8192;0.9020215;0.3185596;0.09833795;-0.2742382;0;0;1;-1724;-2537;2701;32768;0.732992;0.4155124;0.4113573;-0.3476454;0;0;0;719;-3571;-1774;256;0.4044321;-0.5803324;-0.3642659;-0.6057717;1;0;0;-285;3732;-1651;128;0.4709141;-0.5359932;-0.5124654;-0.4778393;-3;0;0;-417;4077;228;4;-0.06232687;0.004155125;-0.7146613;-0.6966759;0;-1;0;351;4080;102;16;0.4833795;-0.6534021;0.3781163;0.4432133;0;0;0;261;3944;1004;2;0.700831;-0.7084471;0.06094183;-0.0567867;0;1;1;-761;4058;29;8;0.4307479;-0.4529086;0.4861496;0.610728;0;0;0;-389;4031;635;0.5320787;2.801986;-0.1683313;0.5379124;3.333605;-0.2906748;0.5430351;3.800445;-0.4001859;0.4980265;4.468742;-0.1004924;0.2188652;4.76393;-0.002101317;-0.111335;4.587558;-0.00173296;-0.8131855;5.179391;-0.1261069;-0.827688;6.092605;-0.3783472;0.7380328;4.798898;-0.002100766;1.036633;4.664877;-0.001731753;1.788267;5.267631;-0.004929781;2.088218;6.115765;-0.3023908;0.2198181;2.759349;-0.1655868;0.1884219;1.301606;-0.2874837;0;0;0;0.2198181;2.759349;-0.1655868;0.1884219;1.301606;-0.2874837;0;0;0
272558.9768;NotLabelled;16384;-0.2216066;-0.4362881;-0.8296653;0.2686981;-1;0;1;2520;-2584;1953;65536;0.5790982;0.4598338;0.5443213;-0.3961219;0;1;0;-178;-3949;-1013;8192;0.9020215;0.3185596;0.09833795;-0.2742382;0;0;1;-1724;-2537;2701;32768;0.732992;0.4155124;0.4113573;-0.3476454;0;0;0;719;-3571;-1774;256;0.4044321;-0.5803324;-0.3642659;-0.6057717;1;0;0;-285;3732;-1651;128;0.4709141;-0.5359932;-0.5124654;-0.4778393;-3;0;0;-417;4077;228;4;-0.06232687;0.004155125;-0.7146613;-0.6966759;0;-1;0;351;4080;102;16;0.4833795;-0.6534021;0.3781163;0.4432133;0;0;0;261;3944;1004;2;0.700831;-0.7084471;0.06094183;-0.0567867;0;1;1;-761;4058;29;8;0.4307479;-0.4529086;0.4861496;0.610728;0;0;0;-389;4031;635;0.5320787;2.801986;-0.1683313;0.5379124;3.333605;-0.2906748;0.5430351;3.800445;-0.4001859;0.4980265;4.468742;-0.1004924;0.2188652;4.76393;-0.002101317;-0.111335;4.587558;-0.00173296;-0.8131855;5.179391;-0.1261069;-0.827688;6.092605;-0.3783472;0.7380328;4.798898;-0.002100766;1.036633;4.664877;-0.001731753;1.788267;5.267631;-0.004929781;2.088218;6.115765;-0.3023908;0.2198181;2.759349;-0.1655868;0.1884219;1.301606;-0.2874837;0;0;0;0.2198181;2.759349;-0.1655868;0.1884219;1.301606;-0.2874837;0;0;0
272579.3655;NotLabelled;16384;-0.2216066;-0.4362881;-0.8296653;0.2686981;-1;0;1;2520;-2584;1953;65536;0.5790982;0.4598338;0.5443213;-0.3961219;0;1;0;-178;-3949;-1013;8192;0.9020215;0.3185596;0.09833795;-0.2742382;0;0;1;-1724;-2537;2701;32768;0.732992;0.4155124;0.4113573;-0.3476454;0;0;0;719;-3571;-1774;256;0.4044321;-0.5803324;-0.3642659;-0.6057717;1;0;0;-285;3732;-1651;128;0.4709141;-0.5359932;-0.5124654;-0.4778393;-3;0;0;-417;4077;228;4;-0.06232687;0.004155125;-0.7146613;-0.6966759;0;-1;0;351;4080;102;16;0.4833795;-0.6534021;0.3781163;0.4432133;0;0;0;261;3944;1004;2;0.700831;-0.7084471;0.06094183;-0.0567867;0;1;1;-761;4058;29;8;0.4307479;-0.4529086;0.4861496;0.610728;0;0;0;-389;4031;635;0.5320787;2.801986;-0.1683313;0.5379124;3.333605;-0.2906748;0.5430351;3.800445;-0.4001859;0.4980265;4.468742;-0.1004924;0.2188652;4.76393;-0.002101317;-0.111335;4.587558;-0.00173296;-0.8131855;5.179391;-0.1261069;-0.827688;6.092605;-0.3783472;0.7380328;4.798898;-0.002100766;1.036633;4.664877;-0.001731753;1.788267;5.267631;-0.004929781;2.088218;6.115765;-0.3023908;0.2198181;2.759349;-0.1655868;0.1884219;1.301606;-0.2874837;0;0;0;0.2198181;2.759349;-0.1655868;0.1884219;1.301606;-0.2874837;0;0;0
272599.9958;NotLabelled;16384;-0.2216066;-0.4362881;-0.8296653;0.2686981;-1;0;1;2520;-2584;1953;65536;0.5790982;0.4598338;0.5443213;-0.3961219;0;1;0;-178;-3949;-1013;8192;0.9020215;0.3185596;0.09833795;-0.2742382;0;0;1;-1724;-2537;2701;32768;0.732992;0.4155124;0.4113573;-0.3476454;0;0;0;719;-3571;-1774;256;0.4044321;-0.5803324;-0.3642659;-0.6057717;1;0;0;-285;3732;-1651;128;0.4709141;-0.5359932;-0.5124654;-0.4778393;-3;0;0;-417;4077;228;4;-0.06232687;0.004155125;-0.7146613;-0.6966759;0;-1;0;351;4080;102;16;0.4833795;-0.6534021;0.3781163;0.4432133;0;0;0;261;3944;1004;2;0.700831;-0.7084471;0.06094183;-0.0567867;0;1;1;-761;4058;29;8;0.4307479;-0.4529086;0.4861496;0.610728;0;0;0;-389;4031;635;0.5320787;2.801986;-0.1683313;0.5379124;3.333605;-0.2906748;0.5430351;3.800445;-0.4001859;0.4980265;4.468742;-0.1004924;0.2188652;4.76393;-0.002101317;-0.111335;4.587558;-0.00173296;-0.8131855;5.179391;-0.1261069;-0.827688;6.092605;-0.3783472;0.7380328;4.798898;-0.002100766;1.036633;4.664877;-0.001731753;1.788267;5.267631;-0.004929781;2.088218;6.115765;-0.3023908;0.2198181;2.759349;-0.1655868;0.1884219;1.301606;-0.2874837;0;0;0;0.2198181;2.759349;-0.1655868;0.1884219;1.301606;-0.2874837;0;0;0
272620.9974;NotLabelled;16384;-0.2216066;-0.4362881;-0.8296653;0.2686981;-1;0;1;2520;-2584;1953;65536;0.5790982;0.4598338;0.5443213;-0.3961219;0;1;0;-178;-3949;-1013;8192;0.9020215;0.3185596;0.09833795;-0.2742382;0;0;1;-1724;-2537;2701;32768;0.732992;0.4155124;0.4113573;-0.3476454;0;0;0;719;-3571;-1774;256;0.4044321;-0.5803324;-0.3642659;-0.6057717;1;0;0;-285;3732;-1651;128;0.4709141;-0.5359932;-0.5124654;-0.4778393;-3;0;0;-417;4077;228;4;-0.06232687;0.004155125;-0.7146613;-0.6966759;0;-1;0;351;4080;102;16;0.4833795;-0.6534021;0.3781163;0.4432133;0;0;0;261;3944;1004;2;0.700831;-0.7084471;0.06094183;-0.0567867;0;1;1;-761;4058;29;8;0.4307479;-0.4529086;0.4861496;0.610728;0;0;0;-389;4031;635;0.5320787;2.801986;-0.1683313;0.5379124;3.333605;-0.2906748;0.5430351;3.800445;-0.4001859;0.4980265;4.468742;-0.1004924;0.2188652;4.76393;-0.002101317;-0.111335;4.587558;-0.00173296;-0.8131855;5.179391;-0.1261069;-0.827688;6.092605;-0.3783472;0.7380328;4.798898;-0.002100766;1.036633;4.664877;-0.001731753;1.788267;5.267631;-0.004929781;2.088218;6.115765;-0.3023908;0.2198181;2.759349;-0.1655868;0.1884219;1.301606;-0.2874837;0;0;0;0.2198181;2.759349;-0.1655868;0.1884219;1.301606;-0.2874837;0;0;0
272641.0923;NotLabelled;16384;-0.2216066;-0.4362881;-0.8296653;0.2686981;-1;0;1;2520;-2584;1953;65536;0.5790982;0.4598338;0.5443213;-0.3961219;0;1;0;-178;-3949;-1013;8192;0.9020215;0.3185596;0.09833795;-0.2742382;0;0;1;-1724;-2537;2701;32768;0.732992;0.4155124;0.4113573;-0.3476454;0;0;0;719;-3571;-1774;256;0.4044321;-0.5803324;-0.3642659;-0.6057717;1;0;0;-285;3732;-1651;128;0.4709141;-0.5359932;-0.5124654;-0.4778393;-3;0;0;-417;4077;228;4;-0.06232687;0.004155125;-0.7146613;-0.6966759;0;-1;0;351;4080;102;16;0.4833795;-0.6534021;0.3781163;0.4432133;0;0;0;261;3944;1004;2;0.700831;-0.7084471;0.06094183;-0.0567867;0;1;1;-761;4058;29;8;0.4307479;-0.4529086;0.4861496;0.610728;0;0;0;-389;4031;635;0.5320787;2.801986;-0.1683313;0.5379124;3.333605;-0.2906748;0.5430351;3.800445;-0.4001859;0.4980265;4.468742;-0.1004924;0.2188652;4.76393;-0.002101317;-0.111335;4.587558;-0.00173296;-0.8131855;5.179391;-0.1261069;-0.827688;6.092605;-0.3783472;0.7380328;4.798898;-0.002100766;1.036633;4.664877;-0.001731753;1.788267;5.267631;-0.004929781;2.088218;6.115765;-0.3023908;0.2198181;2.759349;-0.1655868;0.1884219;1.301606;-0.2874837;0;0;0;0.2198181;2.759349;-0.1655868;0.1884219;1.301606;-0.2874837;0;0;0
272661.9833;NotLabelled;16384;-0.2216066;-0.4362881;-0.8296653;0.2686981;-1;0;1;2520;-2584;1953;65536;0.5790982;0.4598338;0.5443213;-0.3961219;0;1;0;-178;-3949;-1013;8192;0.9020215;0.3185596;0.09833795;-0.2742382;0;0;1;-1724;-2537;2701;32768;0.732992;0.4155124;0.4113573;-0.3476454;0;0;0;719;-3571;-1774;256;0.4044321;-0.5803324;-0.3642659;-0.6057717;1;0;0;-285;3732;-1651;128;0.4709141;-0.5359932;-0.5124654;-0.4778393;-3;0;0;-417;4077;228;4;-0.06232687;0.004155125;-0.7146613;-0.6966759;0;-1;0;351;4080;102;16;0.4833795;-0.6534021;0.3781163;0.4432133;0;0;0;261;3944;1004;2;0.700831;-0.7084471;0.06094183;-0.0567867;0;1;1;-761;4058;29;8;0.4307479;-0.4529086;0.4861496;0.610728;0;0;0;-389;4031;635;0.5320787;2.801986;-0.1683313;0.5379124;3.333605;-0.2906748;0.5430351;3.800445;-0.4001859;0.4980265;4.468742;-0.1004924;0.2188652;4.76393;-0.002101317;-0.111335;4.587558;-0.00173296;-0.8131855;5.179391;-0.1261069;-0.827688;6.092605;-0.3783472;0.7380328;4.798898;-0.002100766;1.036633;4.664877;-0.001731753;1.788267;5.267631;-0.004929781;2.088218;6.115765;-0.3023908;0.2198181;2.759349;-0.1655868;0.1884219;1.301606;-0.2874837;0;0;0;0.2198181;2.759349;-0.1655868;0.1884219;1.301606;-0.2874837;0;0;0
272683.0821;NotLabelled;16384;-0.2216066;-0.4362881;-0.8296653;0.2686981;-1;0;1;2520;-2584;1953;65536;0.5790982;0.4598338;0.5443213;-0.3961219;0;1;0;-178;-3949;-1013;8192;0.9020215;0.3185596;0.09833795;-0.2742382;0;0;1;-1724;-2537;2701;32768;0.732992;0.4155124;0.4113573;-0.3476454;0;0;0;719;-3571;-1774;256;0.4044321;-0.5803324;-0.3642659;-0.6057717;1;0;0;-285;3732;-1651;128;0.4709141;-0.5359932;-0.5124654;-0.4778393;-3;0;0;-417;4077;228;4;-0.06232687;0.004155125;-0.7146613;-0.6966759;0;-1;0;351;4080;102;16;0.4833795;-0.6534021;0.3781163;0.4432133;0;0;0;261;3944;1004;2;0.700831;-0.7084471;0.06094183;-0.0567867;0;1;1;-761;4058;29;8;0.4307479;-0.4529086;0.4861496;0.610728;0;0;0;-389;4031;635;0.5320787;2.801986;-0.1683313;0.5379124;3.333605;-0.2906748;0.5430351;3.800445;-0.4001859;0.4980265;4.468742;-0.1004924;0.2188652;4.76393;-0.002101317;-0.111335;4.587558;-0.00173296;-0.8131855;5.179391;-0.1261069;-0.827688;6.092605;-0.3783472;0.7380328;4.798898;-0.002100766;1.036633;4.664877;-0.001731753;1.788267;5.267631;-0.004929781;2.088218;6.115765;-0.3023908;0.2198181;2.759349;-0.1655868;0.1884219;1.301606;-0.2874837;0;0;0;0.2198181;2.759349;-0.1655868;0.1884219;1.301606;-0.2874837;0;0;0
272703.9947;NotLabelled;16384;-0.2216066;-0.4362881;-0.8296653;0.2686981;-1;0;1;2520;-2584;1953;65536;0.5790982;0.4598338;0.5443213;-0.3961219;0;1;0;-178;-3949;-1013;8192;0.9020215;0.3185596;0.09833795;-0.2742382;0;0;1;-1724;-2537;2701;32768;0.732992;0.4155124;0.4113573;-0.3476454;0;0;0;719;-3571;-1774;256;0.4044321;-0.5803324;-0.3642659;-0.6057717;1;0;0;-285;3732;-1651;128;0.4709141;-0.5359932;-0.5124654;-0.4778393;-3;0;0;-417;4077;228;4;-0.06232687;0.004155125;-0.7146613;-0.6966759;0;-1;0;351;4080;102;16;0.4833795;-0.6534021;0.3781163;0.4432133;0;0;0;261;3944;1004;2;0.700831;-0.7084471;0.06094183;-0.0567867;0;1;1;-761;4058;29;8;0.4307479;-0.4529086;0.4861496;0.610728;0;0;0;-389;4031;635;0.5320787;2.801986;-0.1683313;0.5379124;3.333605;-0.2906748;0.5430351;3.800445;-0.4001859;0.4980265;4.468742;-0.1004924;0.2188652;4.76393;-0.002101317;-0.111335;4.587558;-0.00173296;-0.8131855;5.179391;-0.1261069;-0.827688;6.092605;-0.3783472;0.7380328;4.798898;-0.002100766;1.036633;4.664877;-0.001731753;1.788267;5.267631;-0.004929781;2.088218;6.115765;-0.3023908;0.2198181;2.759349;-0.1655868;0.1884219;1.301606;-0.2874837;0;0;0;0.2198181;2.759349;-0.1655868;0.1884219;1.301606;-0.2874837;0;0;0
272724.9966;NotLabelled;16384;-0.2216066;-0.4362881;-0.8296653;0.2686981;-2;0;1;2444;-2658;1951;65536;0.5790982;0.4598338;0.5443213;-0.3961219;0;2;0;-214;-3911;-1049;8192;0.9021714;0.3185596;0.09695291;-0.2742382;0;0;2;-1662;-2587;2609;32768;0.732992;0.4155124;0.4113573;-0.3476454;0;-1;0;683;-3625;-1692;256;0.4044321;-0.5817174;-0.3642659;-0.6044418;1;-1;0;-245;3678;-1657;128;0.4709141;-0.537314;-0.5110803;-0.4778393;-3;0;-1;-369;4093;160;4;-0.06232687;0.004155125;-0.7146613;-0.6966759;0;0;0;393;4080;138;16;0.4833795;-0.6534021;0.3781163;0.4432133;0;1;0;193;3942;1006;2;0.700831;-0.7084471;0.06094183;-0.0567867;0;0;1;-805;4024;-27;8;0.4307479;-0.4529086;0.4861496;0.610728;0;1;0;-347;4061;647;0.5326118;2.801993;-0.1674891;0.5384491;3.33396;-0.2883169;0.5435753;3.801109;-0.3964969;0.499962;4.469517;-0.09684458;0.2214177;4.765294;0.001527429;-0.1091503;4.589613;0.001905441;-0.8105686;5.181445;-0.1248833;-0.8242573;6.094659;-0.3771688;0.7406572;4.799178;0.001527607;1.038977;4.664533;0.001906157;1.79113;5.266645;0.003681421;2.092038;6.114781;-0.2928104;0.220351;2.759348;-0.1648758;0.1893481;1.301606;-0.2868739;0;0;0;0.220351;2.759348;-0.1648758;0.1893481;1.301606;-0.2868739;0;0;0
272745.9899;NotLabelled;16384;-0.2216066;-0.4362881;-0.8296653;0.2686981;-2;0;0;2398;-2644;1861;65536;0.5790982;0.4598338;0.5443213;-0.3961219;0;2;-2;-180;-3917;-997;8192;0.9021714;0.3185596;0.09695291;-0.2742382;0;1;0;-1694;-2563;2769;32768;0.732992;0.4155124;0.4113573;-0.3476454;0;-1;-2;671;-3651;-1694;256;0.4044321;-0.5817174;-0.3642659;-0.6044418;2;-1;0;-287;3750;-1669;128;0.4695291;-0.5385247;-0.5110803;-0.4778393;-3;-1;-1;-417;4117;136;4;-0.06232687;0.005540166;-0.7146519;-0.6966759;0;1;0;285;4068;102;16;0.4833795;-0.6534021;0.3781163;0.4432133;0;0;0;249;3956;966;2;0.700831;-0.7084471;0.06094183;-0.0567867;-1;0;0;-825;4056;-119;8;0.4307479;-0.4529086;0.4861496;0.610728;0;0;0;-299;4027;645;0.5326118;2.801993;-0.1674891;0.5384491;3.33396;-0.2883169;0.5435753;3.801109;-0.3964969;0.499962;4.469517;-0.09684458;0.2214177;4.765294;0.001527429;-0.1091503;4.589613;0.001905441;-0.8105686;5.181445;-0.1248833;-0.8242573;6.094659;-0.3771688;0.7406572;4.799178;0.001527607;1.038977;4.664533;0.001906157;1.79113;5.266645;0.003681421;2.092038;6.114781;-0.2928104;0.220351;2.759348;-0.1648758;0.1893481;1.301606;-0.2868739;0;0;0;0.220351;2.759348;-0.1648758;0.1893481;1.301606;-0.2868739;0;0;0
272766.6553;NotLabelled;16384;-0.2216066;-0.4362881;-0.8292155;0.2700831;-1;0;0;2382;-2640;1895;65536;0.5792472;0.4584487;0.5443213;-0.3975069;0;2;-1;-112;-3959;-1073;8192;0.9021714;0.3185596;0.09695291;-0.2742382;0;2;0;-1748;-2587;2717;32768;0.732992;0.4155124;0.4113573;-0.3476454;0;0;-1;657;-3677;-1716;256;0.4044321;-0.5817174;-0.3628809;-0.6052743;1;0;1;-293;3738;-1721;128;0.4695291;-0.5385247;-0.5110803;-0.4778393;-1;-1;0;-427;4147;130;4;-0.06232687;0.005540166;-0.7146519;-0.6966759;0;1;0;291;4036;108;16;0.4833795;-0.6534021;0.3781163;0.4432133;0;0;0;293;3942;962;2;0.700831;-0.7083347;0.06094183;-0.05817174;0;-2;0;-735;4032;-121;8;0.4307479;-0.4529086;0.4861496;0.610728;0;-2;0;-389;4057;609;0.5325885;2.802233;-0.1702387;0.5384294;3.334516;-0.2896673;0.5435587;3.801948;-0.3966186;0.4985232;4.469571;-0.09542996;0.2193379;4.764484;0.003713831;-0.1108269;4.588047;0.003809117;-0.8109522;5.181453;-0.1227702;-0.8222822;6.094706;-0.3750343;0.7384984;4.799556;0.003607094;1.037126;4.665596;0.003573179;1.789279;5.267709;0.003271222;2.090126;6.115844;-0.2932823;0.2203276;2.759583;-0.1677466;0.1892892;1.301606;-0.2869131;0;0;0;0.2203276;2.759583;-0.1677466;0.1892892;1.301606;-0.2869131;0;0;0
272787.9861;NotLabelled;16384;-0.2216066;-0.4362881;-0.8292155;0.2700831;-1;0;0;2488;-2606;1843;65536;0.5792472;0.4584487;0.5443213;-0.3975069;0;0;0;-98;-4051;-1085;8192;0.9017493;0.3185596;0.09695291;-0.2756233;0;0;2;-1772;-2567;2617;32768;0.732992;0.4155124;0.4113573;-0.3476454;0;0;0;677;-3619;-1758;256;0.4030471;-0.5817174;-0.3628809;-0.6061974;3;0;1;-267;3758;-1707;128;0.4695291;-0.5385247;-0.5110803;-0.4778393;-2;-2;0;-381;4123;176;4;-0.06232687;0.005540166;-0.7146519;-0.6966759;0;0;0;283;4090;164;16;0.4833795;-0.6534021;0.3781163;0.4432133;0;0;0;193;3940;960;2;0.700831;-0.7084471;0.06094183;-0.0567867;0;-6;0;-707;4082;-21;8;0.4307479;-0.4529086;0.4861496;0.610728;0;-3;0;-401;4001;609;0.5322466;2.802233;-0.1706865;0.5380875;3.334515;-0.2901151;0.5432167;3.801948;-0.3970665;0.4987919;4.46888;-0.09426105;0.219878;4.763813;0.005586013;-0.1104515;4.587684;0.005239241;-0.8108004;5.181421;-0.1185187;-0.8226438;6.094675;-0.3707589;0.7390711;4.798399;0.005586445;1.037573;4.66416;0.005240321;1.789725;5.266273;0.006085277;2.089968;6.11441;-0.29108;0.2199858;2.759582;-0.1681944;0.1887048;1.301606;-0.2872975;0;0;0;0.2199858;2.759582;-0.1681944;0.1887048;1.301606;-0.2872975;0;0;0
272807.9895;NotLabelled;16384;-0.2202216;-0.4362881;-0.8295844;0.2700831;-1;0;1;2428;-2616;1885;65536;0.5792472;0.4584487;0.5443213;-0.3975069;1;-1;-1;-108;-3997;-1101;8192;0.9017493;0.3185596;0.09695291;-0.2756233;0;1;2;-1702;-2527;2535;32768;0.732992;0.4155124;0.4113573;-0.3476454;1;0;-1;725;-3609;-1744;256;0.4030471;-0.5831025;-0.3628809;-0.6048653;2;0;0;-307;3750;-1711;128;0.4695291;-0.5385247;-0.5110803;-0.4778393;-2;-2;-1;-429;4127;190;4;-0.06232687;0.005540166;-0.7146519;-0.6966759;0;-2;0;263;4102;192;16;0.4833795;-0.6534021;0.3781163;0.4432133;-1;0;0;289;3948;972;2;0.700831;-0.7083266;0.06232687;-0.0567867;0;-6;0;-641;4036;-45;8;0.4307479;-0.4529086;0.4861496;0.610728;0;-1;0;-339;4083;617;0.5327892;2.802233;-0.1699745;0.53863;3.334516;-0.2894031;0.5437593;3.801948;-0.3963544;0.5007228;4.46899;-0.09359038;0.2224237;4.76451;0.006237328;-0.1082721;4.589069;0.005900145;-0.8093612;5.181871;-0.1181487;-0.8203895;6.095124;-0.3704261;0.7416877;4.798014;0.006237626;1.039909;4.663153;0.005900979;1.792055;5.265267;0.009177685;2.093256;6.113403;-0.2870153;0.2205283;2.759583;-0.1674824;0.1896326;1.301606;-0.2866859;0;0;0;0.2205283;2.759583;-0.1674824;0.1896326;1.301606;-0.2866859;0;0;0
272829.0016;NotLabelled;16384;-0.2202216;-0.4376731;-0.8288545;0.2700831;0;-1;0;2504;-2614;1873;65536;0.5805456;0.4584487;0.5429363;-0.3975069;0;0;-1;-110;-4003;-1089;8192;0.9022374;0.3171745;0.09695291;-0.2756233;0;2;0;-1738;-2495;2627;32768;0.7337675;0.4155124;0.4099723;-0.3476454;2;1;-1;657;-3689;-1706;256;0.4030471;-0.5831025;-0.3628809;-0.6048653;1;1;1;-287;3754;-1729;128;0.4695291;-0.5398359;-0.5096953;-0.4778393;-2;-3;-2;-393;4123;186;4;-0.06232687;0.005540166;-0.7146519;-0.6966759;-1;0;0;295;4046;136;16;0.4833795;-0.6534021;0.3781163;0.4432133;0;0;0;291;3974;980;2;0.700831;-0.7084363;0.06232687;-0.05540166;0;-3;0;-683;4024;-85;8;0.4293629;-0.4515235;0.4861496;0.6127256;0;0;0;-421;4063;625;0.5327533;2.80224;-0.1698907;0.5385979;3.33486;-0.2878051;0.5437304;3.802594;-0.3934265;0.500759;4.469636;-0.09065318;0.2224812;4.765156;0.009234175;-0.1082146;4.589715;0.008967958;-0.809365;5.182367;-0.1154546;-0.8175945;6.095704;-0.3675318;0.7417453;4.798661;0.009123147;1.039967;4.663799;0.008722425;1.793805;5.263803;0.009127259;2.097093;6.111636;-0.2857988;0.2204924;2.759582;-0.1675296;0.189571;1.301605;-0.2867265;0;0;0;0.2204924;2.759582;-0.1675296;0.189571;1.301605;-0.2867265;0;0;0
272850.0018;NotLabelled;16384;-0.2202216;-0.4376731;-0.8288545;0.2700831;-1;0;0;2484;-2638;1891;65536;0.5794492;0.4598338;0.5429363;-0.3975069;1;-1;-2;-142;-3955;-1041;8192;0.901961;0.3171745;0.09556787;-0.2770083;0;5;1;-1758;-2599;2645;32768;0.7323334;0.4155124;0.4113573;-0.3490305;0;1;-1;779;-3719;-1640;256;0.4030471;-0.5831025;-0.3628809;-0.6048653;0;1;1;-237;3742;-1773;128;0.4695291;-0.5398359;-0.5096953;-0.4778393;-2;-6;-2;-435;4099;108;4;-0.06232687;0.005540166;-0.7146519;-0.6966759;0;0;0;331;3986;150;16;0.4833795;-0.6534021;0.3781163;0.4432133;0;0;0;257;3948;964;2;0.700831;-0.7084363;0.06232687;-0.05540166;0;0;0;-631;4050;-1;8;0.4293629;-0.4515235;0.4861496;0.6127256;0;0;0;-309;3997;643;0.5327892;2.80224;-0.1698435;0.5386338;3.33486;-0.2877579;0.5437663;3.802595;-0.3933793;0.5007299;4.469636;-0.09061512;0.2224307;4.765156;0.009212554;-0.108265;4.589715;0.008875407;-0.8093587;5.182719;-0.114184;-0.8199548;6.096624;-0.3641033;0.7416948;4.798661;0.00921303;1.039916;4.663799;0.008876324;1.79425;5.263151;0.0146358;2.095445;6.111848;-0.2799538;0.2205283;2.759582;-0.1674824;0.1896325;1.301606;-0.286686;0;0;0;0.2205283;2.759582;-0.1674824;0.1896325;1.301606;-0.286686;0;0;0
272869.999;NotLabelled;16384;-0.2202216;-0.4376731;-0.8288545;0.2700831;0;-1;1;2400;-2628;1917;65536;0.5807438;0.4598338;0.5415512;-0.3975069;0;0;-1;-148;-3963;-1003;8192;0.901961;0.3171745;0.09556787;-0.2770083;0;2;1;-1902;-2537;2673;32768;0.7331097;0.4155124;0.4099723;-0.3490305;0;-1;-1;691;-3703;-1584;256;0.4016621;-0.5831025;-0.3628809;-0.6057859;0;0;1;-185;3772;-1729;128;0.4695291;-0.5423601;-0.5083103;-0.4764543;-1;-4;-1;-369;4107;180;4;-0.06232687;0.005540166;-0.7146519;-0.6966759;1;2;0;373;4062;96;16;0.4833795;-0.6524605;0.3781163;0.4445983;0;0;0;305;3972;1010;2;0.700831;-0.7084363;0.06232687;-0.05540166;0;0;0;-699;4108;-41;8;0.4293629;-0.4515235;0.4861496;0.6127256;-1;-2;0;-393;4047;631;0.5291073;2.802431;-0.1715243;0.5349555;3.335384;-0.2879213;0.5400914;3.803418;-0.3922103;0.4977274;4.469766;-0.08782566;0.2197209;4.765303;0.01276059;-0.1111394;4.590174;0.01205037;-0.81248;5.183178;-0.1095917;-0.8207883;6.097169;-0.3592874;0.7390161;4.798321;0.01276094;1.037111;4.663181;0.01205111;1.791455;5.262532;0.01628518;2.094143;6.110925;-0.2776519;0.2168463;2.759766;-0.1692944;0.1856844;1.30179;-0.2884279;0;0;0;0.2168463;2.759766;-0.1692944;0.1856844;1.30179;-0.2884279;0;0;0
272891.9846;NotLabelled;16384;-0.2216066;-0.4376731;-0.8280325;0.2714681;0;-1;1;2390;-2642;1953;65536;0.5807438;0.4598338;0.5415512;-0.3975069;0;0;-1;-162;-3951;-1009;8192;0.901961;0.3171745;0.09556787;-0.2770083;0;0;1;-1726;-2521;2667;32768;0.7331097;0.4155124;0.4099723;-0.3490305;0;-1;-1;685;-3667;-1572;256;0.4016621;-0.5831025;-0.3628809;-0.6057859;1;0;1;-229;3724;-1741;128;0.4695291;-0.5423601;-0.5083103;-0.4764543;-2;-3;-1;-477;4101;200;4;-0.06232687;0.005540166;-0.7146519;-0.6966759;0;1;0;307;4096;112;16;0.4833795;-0.6534021;0.3781163;0.4432133;0;1;0;263;3980;952;2;0.700831;-0.7084363;0.06232687;-0.05540166;0;-2;0;-745;4074;-67;8;0.4293629;-0.4515235;0.4861496;0.6127256;-1;-1;0;-357;4035;701;0.5324145;2.802247;-0.170206;0.5382627;3.3352;-0.2866029;0.5433985;3.803234;-0.3908919;0.5010345;4.469581;-0.08650729;0.223028;4.765118;0.01407896;-0.1078322;4.58999;0.01336873;-0.8066742;5.185832;-0.1087847;-0.8149825;6.099823;-0.3584802;0.7423233;4.798136;0.01407927;1.040418;4.662997;0.01336944;1.794763;5.262349;0.01744354;2.09745;6.11074;-0.2764932;0.2201535;2.759582;-0.1679761;0.1889915;1.301606;-0.2871096;0;0;0;0.2201535;2.759582;-0.1679761;0.1889915;1.301606;-0.2871096;0;0;0
272913.3786;NotLabelled;16384;-0.2216066;-0.4376731;-0.8280325;0.2714681;0;-1;0;2446;-2608;1855;65536;0.5807438;0.4598338;0.5415512;-0.3975069;-1;2;-1;-136;-4021;-1031;8192;0.901961;0.3171745;0.09556787;-0.2770083;0;3;1;-1710;-2565;2567;32768;0.7331097;0.4155124;0.4099723;-0.3490305;0;0;-1;687;-3637;-1606;256;0.4016621;-0.5844875;-0.3628809;-0.6044497;2;0;2;-273;3716;-1691;128;0.4695291;-0.5423601;-0.5083103;-0.4764543;-4;-3;-1;-451;4107;208;4;-0.06232687;0.005540166;-0.7146519;-0.6966759;0;0;0;287;4092;150;16;0.4833795;-0.6534021;0.3781163;0.4432133;0;2;0;279;3992;984;2;0.700831;-0.7084363;0.06232687;-0.05540166;0;-1;0;-719;4056;-61;8;0.4293629;-0.4515235;0.4861496;0.6127256;0;-1;0;-291;4065;667;0.5329577;2.802246;-0.1694914;0.538806;3.335199;-0.2858884;0.5439417;3.803234;-0.3901774;0.5029646;4.469685;-0.08583233;0.2255738;4.765807;0.01473537;-0.1056505;4.591368;0.01403436;-0.804093;5.187209;-0.1103826;-0.8115921;6.1012;-0.3601041;0.7449367;4.797744;0.0147357;1.04275;4.661983;0.01403511;1.797077;5.261335;0.02055299;2.100716;6.109727;-0.2724017;0.2206967;2.759582;-0.1672616;0.1899209;1.301605;-0.2864956;0;0;0;0.2206967;2.759582;-0.1672616;0.1899209;1.301605;-0.2864956;0;0;0
272934.0179;NotLabelled;16384;-0.2216066;-0.4376731;-0.8280325;0.2714681;-1;0;0;2422;-2652;1875;65536;0.5818378;0.4584487;0.5415512;-0.3975069;-1;1;-2;-104;-3969;-1047;8192;0.9015344;0.3171745;0.09556787;-0.2783934;2;3;1;-1840;-2545;2669;32768;0.7331097;0.4155124;0.4099723;-0.3490305;-1;1;0;769;-3701;-1614;256;0.4016621;-0.5844875;-0.3628809;-0.6044497;3;1;1;-215;3708;-1653;128;0.4695291;-0.5436549;-0.5069252;-0.4764543;-4;-3;-2;-429;4099;106;4;-0.06232687;0.005540166;-0.7146519;-0.6966759;0;1;0;343;4124;76;16;0.4833795;-0.6534021;0.3781163;0.4432133;0;0;0;253;3934;1010;2;0.700831;-0.7084363;0.06232687;-0.05540166;0;-2;0;-649;4042;-31;8;0.4293629;-0.4515235;0.4861496;0.6127256;-1;-1;0;-373;4043;725;0.5329233;2.802253;-0.1694051;0.5387752;3.335533;-0.2842938;0.5439143;3.80386;-0.3872582;0.5029994;4.470312;-0.08290464;0.2256293;4.766433;0.01772018;-0.1055951;4.591994;0.01708688;-0.8040928;5.187481;-0.1087067;-0.8092213;6.100898;-0.3605783;0.7449922;4.79837;0.01761395;1.042805;4.66261;0.01685226;1.797129;5.261977;0.02225733;2.100707;6.110368;-0.2707592;0.2206623;2.759582;-0.1673056;0.1898621;1.301606;-0.2865339;0;0;0;0.2206623;2.759582;-0.1673056;0.1898621;1.301606;-0.2865339;0;0;0
272954.2567;NotLabelled;16384;-0.2216066;-0.4376731;-0.8280325;0.2714681;0;0;0;2446;-2662;1821;65536;0.5808892;0.4584487;0.5415512;-0.398892;-1;0;-2;-94;-3987;-1091;8192;0.9020205;0.3157895;0.09556787;-0.2783934;2;-1;1;-1788;-2489;2649;32768;0.7332327;0.4141274;0.4099723;-0.3504155;-1;0;0;727;-3695;-1590;256;0.400277;-0.5844875;-0.3628809;-0.6053678;2;0;1;-211;3786;-1805;128;0.468144;-0.544848;-0.5069252;-0.4764543;-4;-2;-2;-411;4129;108;4;-0.06232687;0.005540166;-0.7146519;-0.6966759;0;0;0;269;4064;128;16;0.4833795;-0.6534021;0.3781163;0.4432133;0;0;0;267;3920;996;2;0.700831;-0.7084363;0.06232687;-0.05540166;0;0;0;-683;4034;-75;8;0.4279778;-0.4515235;0.4861496;0.6136938;-1;-1;0;-323;4057;705;0.532585;2.802258;-0.1697297;0.5384401;3.335839;-0.2832166;0.5435822;3.804434;-0.3849498;0.5032768;4.470187;-0.07898909;0.2261797;4.766326;0.02233513;-0.1052087;4.592201;0.02126171;-0.8039034;5.188042;-0.1017321;-0.8095487;6.102057;-0.3514159;0.7455723;4.797774;0.02233547;1.043257;4.661735;0.02126265;1.799276;5.258967;0.02633214;2.104438;6.106607;-0.2672144;0.2203239;2.759582;-0.1677514;0.1892827;1.301606;-0.2869172;0;0;0;0.2203239;2.759582;-0.1677514;0.1892827;1.301606;-0.2869172;0;0;0
272975.2684;NotLabelled;16384;-0.2216066;-0.4376731;-0.8280325;0.2714681;-1;-1;2;2472;-2638;1845;65536;0.5808892;0.4584487;0.5415512;-0.398892;0;0;-1;-172;-3989;-1067;8192;0.9020205;0.3157895;0.09556787;-0.2783934;2;0;1;-1828;-2479;2701;32768;0.7332327;0.4141274;0.4099723;-0.3504155;-1;0;-1;783;-3703;-1648;256;0.400277;-0.5844875;-0.3628809;-0.6053678;0;0;1;-221;3778;-1745;128;0.468144;-0.544848;-0.5069252;-0.4764543;-4;-1;-1;-383;4165;198;4;-0.06232687;0.005540166;-0.7146519;-0.6966759;0;2;0;269;4074;92;16;0.4833795;-0.6524605;0.3781163;0.4445983;0;1;0;261;3922;972;2;0.700831;-0.7084363;0.06232687;-0.05540166;0;-2;0;-649;4116;-37;8;0.4279778;-0.4515235;0.4861496;0.6136938;0;-1;0;-379;4051;697;0.5292792;2.802443;-0.1710515;0.5351343;3.336023;-0.2845383;0.5402763;3.804619;-0.3862716;0.499971;4.470371;-0.08031085;0.2228739;4.766511;0.02101336;-0.1085145;4.592385;0.01993995;-0.8072322;5.188226;-0.1029219;-0.8128775;6.102241;-0.3526059;0.7422666;4.797958;0.02101374;1.039951;4.66192;0.01994085;1.795971;5.259151;0.02486849;2.101134;6.106791;-0.2686779;0.2170181;2.759767;-0.1690732;0.1859769;1.30179;-0.2882389;0;0;0;0.2170181;2.759767;-0.1690732;0.1859769;1.30179;-0.2882389;0;0;0
272996.3179;NotLabelled;16384;-0.2216066;-0.4376731;-0.8275771;0.2728532;0;0;1;2488;-2702;1885;65536;0.5808892;0.4584487;0.5415512;-0.398892;0;0;-2;-148;-3897;-1117;8192;0.9020205;0.3157895;0.09556787;-0.2783934;1;1;0;-1732;-2469;2623;32768;0.7332327;0.4141274;0.4099723;-0.3504155;-1;1;0;719;-3639;-1676;256;0.400277;-0.5844875;-0.3628809;-0.6053678;0;0;1;-277;3722;-1683;128;0.466759;-0.546035;-0.5069252;-0.4764543;-4;-1;-2;-463;4129;176;4;-0.06232687;0.005540166;-0.7146519;-0.6966759;1;0;0;279;4092;104;16;0.4833795;-0.6524605;0.3781163;0.4445983;0;0;0;257;3978;994;2;0.700831;-0.708313;0.06371191;-0.05540166;0;0;0;-611;4032;57;8;0.4279778;-0.4515235;0.4861496;0.6136938;0;-1;0;-371;4063;737;0.5292791;2.802448;-0.1709305;0.5351375;3.336324;-0.2830183;0.5402824;3.805184;-0.3835228;0.4999771;4.470937;-0.07756197;0.2228799;4.767076;0.02376243;-0.1085085;4.59295;0.0226889;-0.8058127;5.190688;-0.09898812;-0.8114579;6.104702;-0.3486718;0.7422726;4.798524;0.0237627;1.039957;4.662485;0.0226897;1.795976;5.259717;0.02775908;2.101138;6.107358;-0.2657874;0.2170179;2.759767;-0.169073;0.1859768;1.30179;-0.2882388;0;0;0;0.2170179;2.759767;-0.169073;0.1859768;1.30179;-0.2882388;0;0;0
273016.2106;NotLabelled;16384;-0.2216066;-0.4376731;-0.8275771;0.2728532;0;0;1;2494;-2624;1905;65536;0.5832654;0.4570637;0.5401662;-0.398892;0;0;-3;-38;-4001;-1127;8192;0.9020205;0.3157895;0.09556787;-0.2783934;2;2;0;-1792;-2519;2639;32768;0.7324566;0.4141274;0.4113573;-0.3504155;-2;1;0;689;-3667;-1686;256;0.400277;-0.5844875;-0.3628809;-0.6053678;1;1;2;-175;3718;-1705;128;0.466759;-0.5473176;-0.5055401;-0.4764543;-3;-1;-1;-497;4167;162;4;-0.06232687;0.006925208;-0.7146398;-0.6966759;0;1;0;319;4054;86;16;0.4833795;-0.6524605;0.3781163;0.4445983;0;0;0;257;3974;978;2;0.700831;-0.70842;0.06371191;-0.05401662;0;0;0;-649;4110;-89;8;0.4279778;-0.4515235;0.4861496;0.6136938;0;-1;0;-327;4053;745;0.5292895;2.802681;-0.1736262;0.5351513;3.336871;-0.2842056;0.5402993;3.806014;-0.3833855;0.499994;4.471766;-0.07742471;0.2228968;4.767906;0.02389963;-0.1084915;4.59378;0.02282622;-0.8057941;5.191517;-0.09886116;-0.8061904;6.105019;-0.3504798;0.7422895;4.799353;0.02390009;1.039975;4.663314;0.02282703;1.795992;5.260546;0.02790713;2.099004;6.108497;-0.2669667;0.2170283;2.759995;-0.171899;0.1859768;1.30179;-0.2882388;0;0;0;0.2170283;2.759995;-0.171899;0.1859768;1.30179;-0.2882388;0;0;0
273038.1525;NotLabelled;16384;-0.2216066;-0.4376731;-0.8275771;0.2728532;0;0;1;2504;-2630;1903;65536;0.5832654;0.4570637;0.5401662;-0.398892;0;0;-1;-130;-4001;-1065;8192;0.9025042;0.3144044;0.09556787;-0.2783934;2;1;0;-1822;-2617;2641;32768;0.7324566;0.4141274;0.4113573;-0.3504155;-2;0;0;765;-3623;-1698;256;0.400277;-0.5858725;-0.3628809;-0.6040275;3;0;1;-241;3732;-1711;128;0.466759;-0.5473176;-0.5055401;-0.4764543;-2;0;-2;-459;4159;212;4;-0.06232687;0.005540166;-0.7146519;-0.6966759;1;1;0;311;4102;84;16;0.4833795;-0.6534021;0.3781163;0.4432133;0;0;0;237;3956;986;2;0.700831;-0.7085432;0.06232687;-0.05401662;0;0;0;-565;4058;9;8;0.4279778;-0.4515235;0.4861496;0.6136938;0;0;0;-385;4029;739;0.5331286;2.802269;-0.1687626;0.5389904;3.336459;-0.279342;0.5441384;3.805602;-0.3785219;0.5052181;4.471454;-0.07259884;0.2287378;4.768175;0.02870776;-0.1030124;4.594739;0.02764317;-0.7999412;5.192477;-0.09616691;-0.7995198;6.105978;-0.3477859;0.7481948;4.798541;0.02870804;1.045596;4.661883;0.02764368;1.803274;5.256993;0.03420556;2.107241;6.104944;-0.2596829;0.2208673;2.759582;-0.1670352;0.1902133;1.301606;-0.2863011;0;0;0;0.2208673;2.759582;-0.1670352;0.1902133;1.301606;-0.2863011;0;0;0
273059.109;NotLabelled;16384;-0.2216066;-0.4376731;-0.8275771;0.2728532;0;0;0;2474;-2600;1891;65536;0.5832654;0.4570637;0.5401662;-0.398892;0;1;-2;-252;-3925;-1031;8192;0.9025042;0.3144044;0.09556787;-0.2783934;2;0;0;-1878;-2501;2687;32768;0.7338982;0.4127424;0.4113573;-0.3490305;-1;0;0;693;-3709;-1698;256;0.400277;-0.5858725;-0.3628809;-0.6040275;1;0;1;-249;3740;-1767;128;0.466759;-0.5473176;-0.5055401;-0.4764543;-1;0;-1;-421;4143;146;4;-0.06232687;0.005540166;-0.7146519;-0.6966759;0;1;0;349;4106;58;16;0.4833795;-0.6534021;0.3781163;0.4432133;-1;0;0;263;3954;982;2;0.700831;-0.7084363;0.06232687;-0.05540166;0;0;0;-621;4110;-77;8;0.4279778;-0.4515235;0.4861496;0.6136938;0;1;0;-407;4027;689;0.5331286;2.802269;-0.1687626;0.5389904;3.336459;-0.279342;0.5441384;3.805602;-0.3785219;0.5052181;4.471454;-0.07259884;0.2287378;4.768175;0.02870776;-0.1030124;4.594739;0.02764317;-0.7999412;5.192477;-0.09616691;-0.7995198;6.105978;-0.3477859;0.7481948;4.798541;0.02870804;1.045596;4.661883;0.02764368;1.803274;5.256993;0.03420556;2.109433;6.10307;-0.2627945;0.2208673;2.759582;-0.1670352;0.1902133;1.301606;-0.2863011;0;0;0;0.2208673;2.759582;-0.1670352;0.1902133;1.301606;-0.2863011;0;0;0
273080.1302;NotLabelled;16384;-0.2216066;-0.4376731;-0.8275771;0.2728532;0;2;0;2456;-2702;1883;65536;0.5832654;0.4570637;0.5401662;-0.398892;0;2;-2;-138;-4037;-1087;8192;0.9029855;0.3130194;0.09556787;-0.2783934;2;1;0;-1764;-2475;2631;32768;0.7338982;0.4127424;0.4113573;-0.3490305;-1;1;-1;735;-3689;-1686;256;0.398892;-0.5858725;-0.3628809;-0.604943;0;0;1;-233;3798;-1749;128;0.466759;-0.5473176;-0.5055401;-0.4764543;0;0;-2;-401;4113;136;4;-0.06371191;0.006925208;-0.7145177;-0.6966759;0;5;0;243;4048;76;16;0.4833795;-0.6542017;0.3767313;0.4432133;0;1;0;247;3936;946;2;0.700831;-0.7084363;0.06232687;-0.05540166;0;1;0;-605;4072;-77;8;0.4279778;-0.4529086;0.4847645;0.6137688;0;1;0;-311;3995;717;0.5322596;2.801663;-0.1719633;0.5381215;3.335854;-0.2825427;0.5432694;3.804996;-0.3817227;0.5050206;4.470146;-0.07418925;0.2288347;4.766882;0.02787158;-0.1030793;4.593764;0.02643541;-0.800281;5.191501;-0.09582859;-0.8004177;6.105002;-0.3474481;0.7483202;4.796758;0.02787185;1.045592;4.659822;0.02643621;1.804952;5.252807;0.03049386;2.110452;6.098882;-0.2671845;0.2199984;2.758977;-0.1702359;0.189591;1.300994;-0.289479;0;0;0;0.2199984;2.758977;-0.1702359;0.189591;1.300994;-0.289479;0;0;0
273101.6733;NotLabelled;16384;-0.2216066;-0.4376731;-0.8275771;0.2728532;0;1;0;2398;-2650;1885;65536;0.5832654;0.4570637;0.5401662;-0.398892;0;1;-2;-58;-3995;-1055;8192;0.9025573;0.3130194;0.09556787;-0.2797784;2;3;0;-1802;-2537;2653;32768;0.7332379;0.4127424;0.4113573;-0.3504155;-1;1;0;713;-3639;-1754;256;0.398892;-0.5858725;-0.3642659;-0.60411;-1;0;3;-205;3758;-1659;128;0.466759;-0.5485202;-0.5055401;-0.4750692;-1;-2;-1;-493;4081;254;4;-0.06509695;0.006925208;-0.7143928;-0.6966759;0;7;0;299;4088;42;16;0.4847645;-0.653176;0.3767313;0.4432133;0;1;0;251;3954;966;2;0.700831;-0.7085568;0.06094183;-0.05540166;0;2;0;-651;4096;21;8;0.4279778;-0.4529086;0.4847645;0.6137688;0;0;0;-351;4017;693;0.5281013;2.802537;-0.1664811;0.5339631;3.336729;-0.2770525;0.5391111;3.805874;-0.3762255;0.5023476;4.471807;-0.07021216;0.2268295;4.769407;0.03113663;-0.1054801;4.597047;0.03005105;-0.8026816;5.194784;-0.09221381;-0.8028185;6.108286;-0.343833;0.7463821;4.798093;0.03113729;1.043339;4.660474;0.0300523;1.802694;5.253458;0.03501499;2.108186;6.100098;-0.2610655;0.2158401;2.759851;-0.1647545;0.1859682;1.302094;-0.2868673;0;0;0;0.2158401;2.759851;-0.1647545;0.1859682;1.302094;-0.2868673;0;0;0
273123.1022;NotLabelled;16384;-0.2216066;-0.4376731;-0.8271192;0.2742382;-1;0;0;2436;-2658;1839;65536;0.584545;0.4570637;0.5387812;-0.398892;0;0;-1;-54;-4011;-1075;8192;0.9025573;0.3130194;0.09556787;-0.2797784;2;1;0;-1782;-2615;2633;32768;0.7340158;0.4113573;0.4113573;-0.3504155;-1;3;1;711;-3699;-1688;256;0.398892;-0.5858725;-0.3642659;-0.60411;-1;0;2;-261;3758;-1739;128;0.466759;-0.5485202;-0.5055401;-0.4750692;-1;-1;-1;-423;4157;172;4;-0.06509695;0.008310249;-0.7143781;-0.6966759;0;5;0;237;4082;104;16;0.4833795;-0.6524605;0.3781163;0.4445983;0;1;0;255;3948;1052;2;0.700831;-0.7085568;0.06094183;-0.05540166;0;3;0;-699;4142;-23;8;0.4279778;-0.4529086;0.4847645;0.6137688;1;1;0;-459;4037;675;0.5284197;2.802467;-0.1704875;0.5342815;3.336659;-0.2810589;0.5394295;3.805804;-0.3802319;0.5026661;4.471737;-0.07421857;0.2271479;4.769337;0.0271302;-0.1051617;4.596977;0.02604461;-0.800967;5.196605;-0.09490186;-0.798273;6.110168;-0.3462838;0.7467005;4.798023;0.0271309;1.043658;4.660403;0.02604592;1.803012;5.253388;0.03100777;2.110675;6.09871;-0.2665883;0.2161585;2.759781;-0.168761;0.1862733;1.301791;-0.2880473;0;0;0;0.2161585;2.759781;-0.168761;0.1862733;1.301791;-0.2880473;0;0;0
273143.1463;NotLabelled;16384;-0.2216066;-0.4376731;-0.8271192;0.2742382;-1;2;0;2524;-2624;1915;65536;0.5846795;0.4556787;0.5387812;-0.400277;0;3;-1;-242;-3967;-1035;8192;0.9025573;0.3130194;0.09556787;-0.2797784;3;0;1;-1960;-2521;2711;32768;0.7332379;0.4113573;0.4127424;-0.3504155;-1;2;0;769;-3721;-1726;256;0.398892;-0.5858725;-0.3642659;-0.60411;-1;-2;2;-185;3788;-1757;128;0.466759;-0.5485202;-0.5055401;-0.4750692;0;-2;-1;-433;4171;212;4;-0.06509695;0.008310249;-0.7143781;-0.6966759;0;3;0;235;4074;130;16;0.4847645;-0.6522341;0.3767313;0.4445983;0;1;0;207;3966;1042;2;0.700831;-0.7084471;0.06094183;-0.0567867;0;3;0;-671;4050;-125;8;0.4293629;-0.4529086;0.4847645;0.6128007;0;2;0;-387;3967;695;0.5248101;2.802947;-0.1706313;0.5306718;3.337138;-0.2812028;0.53582;3.806283;-0.3803757;0.4990565;4.472217;-0.0743624;0.2235383;4.769817;0.02698635;-0.1087713;4.597456;0.02590077;-0.8045767;5.197085;-0.09504575;-0.7994872;6.110645;-0.3464044;0.7430908;4.798502;0.02698702;1.040048;4.660883;0.02590215;1.799403;5.253868;0.03086388;2.104908;6.099502;-0.2680608;0.2125489;2.76026;-0.1689048;0.1826636;1.30227;-0.2881911;0;0;0;0.2125489;2.76026;-0.1689048;0.1826636;1.30227;-0.2881911;0;0;0
273163.261;NotLabelled;16384;-0.2216066;-0.4362881;-0.8278506;0.2742382;-1;4;0;2410;-2660;1885;65536;0.5846795;0.4556787;0.5387812;-0.400277;0;2;-2;-36;-3949;-1063;8192;0.9030365;0.3116343;0.09556787;-0.2797784;1;0;0;-1902;-2365;2649;32768;0.7340158;0.4113573;0.4113573;-0.3504155;0;0;-1;767;-3671;-1696;256;0.400277;-0.5858725;-0.3642659;-0.6031932;-2;0;2;-215;3754;-1703;128;0.466759;-0.5485202;-0.5055401;-0.4750692;0;0;-1;-357;4113;332;4;-0.06509695;0.008310249;-0.7143781;-0.6966759;0;4;0;233;4054;66;16;0.4847645;-0.653176;0.3767313;0.4432133;0;1;0;305;3920;998;2;0.700831;-0.7085649;0.05955679;-0.0567867;0;1;0;-687;4062;-45;8;0.4293629;-0.4529086;0.4847645;0.6128007;0;0;0;-365;4029;643;0.5284856;2.802771;-0.1688286;0.5343474;3.336963;-0.2794001;0.5394955;3.806108;-0.3785731;0.5020642;4.472741;-0.07417071;0.2262526;4.770326;0.02642402;-0.1058946;4.59765;0.0257098;-0.8014235;5.197082;-0.0977816;-0.7957765;6.110641;-0.3491282;0.7457779;4.7995;0.02642429;1.042865;4.662158;0.02571046;1.80387;5.253015;0.03153217;2.112191;6.098335;-0.2653811;0.2162244;2.760085;-0.167102;0.1866037;1.302094;-0.2864543;0;0;0;0.2162244;2.760085;-0.167102;0.1866037;1.302094;-0.2864543;0;0;0
273184.1559;NotLabelled;16384;-0.2216066;-0.4362881;-0.8278506;0.2742382;-1;1;0;2374;-2744;1855;65536;0.5846795;0.4556787;0.5387812;-0.400277;0;1;-2;24;-3961;-1033;8192;0.903182;0.3116343;0.09418282;-0.2797784;2;1;0;-1738;-2581;2703;32768;0.7341282;0.4099723;0.4113573;-0.3518005;0;3;0;733;-3705;-1672;256;0.400277;-0.5872576;-0.3642659;-0.6018448;-1;0;1;-285;3700;-1731;128;0.4653739;-0.5496958;-0.5055401;-0.4750692;-1;0;0;-455;4113;204;4;-0.06509695;0.009695291;-0.7143606;-0.6966759;0;0;1;213;4152;70;16;0.4847645;-0.653176;0.3767313;0.4432133;1;0;0;253;3978;1018;2;0.700831;-0.7085649;0.05955679;-0.0567867;1;0;0;-723;4060;-5;8;0.4293629;-0.4529086;0.4847645;0.6128007;1;-1;0;-377;4061;691;0.5290571;2.803004;-0.17083;0.5349221;3.337484;-0.2800027;0.540073;3.806886;-0.3779471;0.5040353;4.473613;-0.07357979;0.2288464;4.771779;0.0269983;-0.1036613;4.599798;0.026292;-0.7987633;5.19923;-0.09958041;-0.7922987;6.112789;-0.3509074;0.7484316;4.799866;0.02699882;1.045231;4.661903;0.02629316;1.806694;5.252099;0.03711331;2.118135;6.09666;-0.2587048;0.2167958;2.760313;-0.1692242;0.1875349;1.302094;-0.2858454;0;0;0;0.2167958;2.760313;-0.1692242;0.1875349;1.302094;-0.2858454;0;0;0
273204.9796;NotLabelled;16384;-0.2216066;-0.4362881;-0.8273905;0.2756233;-1;1;0;2404;-2746;1885;65536;0.5846795;0.4556787;0.5387812;-0.400277;-1;0;-1;6;-4019;-1077;8192;0.9035133;0.3102493;0.09556787;-0.2797784;1;2;0;-1850;-2493;2699;32768;0.7341282;0.4099723;0.4113573;-0.3518005;-2;0;0;849;-3681;-1646;256;0.400277;-0.5872576;-0.3642659;-0.6018448;-2;-1;1;-237;3768;-1697;128;0.466759;-0.5485202;-0.5055401;-0.4750692;0;-2;0;-431;4189;188;4;-0.06509695;0.009695291;-0.7143606;-0.6966759;0;-1;0;167;4050;48;16;0.4847645;-0.653176;0.3767313;0.4432133;1;0;0;185;3966;1062;2;0.700831;-0.7085649;0.05955679;-0.0567867;0;2;-1;-683;4032;-59;8;0.4293629;-0.4529086;0.4847645;0.6128007;0;2;0;-363;4021;697;0.5290858;2.802999;-0.1709141;0.5349476;3.337192;-0.2814855;0.5400956;3.806336;-0.3806584;0.5040062;4.473063;-0.07629728;0.2288002;4.771229;0.02423413;-0.1037074;4.599248;0.0234715;-0.7973889;5.200894;-0.09964126;-0.7908814;6.114452;-0.3509669;0.7483855;4.799316;0.02432287;1.045184;4.661353;0.02366757;1.807823;5.250055;0.03297043;2.119314;6.094616;-0.2627951;0.2168245;2.760313;-0.1691874;0.1875834;1.302094;-0.2858135;0;0;0;0.2168245;2.760313;-0.1691874;0.1875834;1.302094;-0.2858135;0;0;0
273224.9833;NotLabelled;16384;-0.2216066;-0.4362881;-0.8273905;0.2756233;0;0;0;2490;-2684;1869;65536;0.5848075;0.4542936;0.5387812;-0.4016621;0;1;-1;-82;-3989;-1031;8192;0.9035133;0.3102493;0.09556787;-0.2797784;1;0;-1;-1900;-2399;2647;32768;0.7341282;0.4099723;0.4113573;-0.3518005;-2;0;0;845;-3615;-1692;256;0.400277;-0.5872576;-0.365651;-0.6010043;-3;-1;1;-219;3818;-1695;128;0.466759;-0.5485202;-0.5055401;-0.4750692;-2;-2;0;-417;4125;202;4;-0.06509695;0.008310249;-0.7143781;-0.6966759;0;-3;0;225;4052;40;16;0.4847645;-0.653176;0.3767313;0.4432133;1;-2;0;219;3960;1008;2;0.700831;-0.7085649;0.05955679;-0.0567867;0;0;0;-679;4020;-27;8;0.4293629;-0.4515235;0.4847645;0.6138219;1;0;0;-307;4067;739;0.5290281;2.802771;-0.1681243;0.5348899;3.336963;-0.2786958;0.5400379;3.806108;-0.3778688;0.5055;4.473607;-0.07502419;0.2309866;4.772633;0.0248414;-0.1019162;4.601418;0.02448563;-0.7956434;5.20274;-0.09994459;-0.786791;6.116289;-0.351236;0.7506351;4.799524;0.02484161;1.047116;4.660876;0.0244863;1.809757;5.2496;0.03196609;2.121198;6.094162;-0.2638525;0.2167668;2.760085;-0.1663978;0.1875346;1.302094;-0.2858458;0;0;0;0.2167668;2.760085;-0.1663978;0.1875346;1.302094;-0.2858458;0;0;0
273245.1545;NotLabelled;16384;-0.2216066;-0.4362881;-0.8273905;0.2756233;0;1;0;2442;-2562;1893;65536;0.5848075;0.4542936;0.5387812;-0.4016621;-2;1;0;-58;-3971;-1011;8192;0.9035133;0.3102493;0.09556787;-0.2797784;1;0;0;-1794;-2377;2703;32768;0.7347904;0.4099723;0.4113573;-0.3504155;-3;0;0;727;-3661;-1726;256;0.400277;-0.5858725;-0.365651;-0.6023546;-3;0;1;-215;3706;-1635;128;0.466759;-0.5509872;-0.5041551;-0.4736842;0;-1;-1;-441;4049;224;4;-0.06371191;0.008310249;-0.7145029;-0.6966759;0;-2;0;277;4116;82;16;0.4847645;-0.653176;0.3767313;0.4432133;1;-2;0;253;3968;968;2;0.700831;-0.7085649;0.05955679;-0.0567867;1;0;0;-661;4042;9;8;0.4293629;-0.4515235;0.4847645;0.6138219;1;0;0;-365;4011;773;0.5290276;2.802997;-0.1715664;0.5348928;3.3375;-0.2806242;0.540044;3.806923;-0.3784677;0.5041072;4.474334;-0.07558954;0.2289676;4.772779;0.02429162;-0.1035753;4.600866;0.02392817;-0.7976812;5.202188;-0.09837234;-0.7896465;6.115736;-0.3496908;0.7485586;4.80076;0.02429205;1.045329;4.662734;0.02392912;1.80799;5.251459;0.02906764;2.118478;6.095454;-0.2693547;0.2167663;2.760306;-0.1699705;0.1866036;1.302095;-0.2864542;0;0;0;0.2167663;2.760306;-0.1699705;0.1866036;1.302095;-0.2864542;0;0;0
273265.0286;NotLabelled;16384;-0.2216066;-0.4362881;-0.8273905;0.2756233;0;4;0;2422;-2658;1905;65536;0.5848075;0.4542936;0.5387812;-0.4016621;-2;3;1;-80;-4045;-1033;8192;0.9035133;0.3102493;0.09556787;-0.2797784;1;1;-1;-1756;-2445;2647;32768;0.7340133;0.4099723;0.4127424;-0.3504155;-3;2;1;765;-3697;-1756;256;0.400277;-0.5858725;-0.365651;-0.6023546;-1;0;1;-245;3708;-1641;128;0.466759;-0.5497168;-0.5055401;-0.4736842;1;0;0;-441;4109;168;4;-0.06371191;0.008310249;-0.7145029;-0.6966759;0;-4;0;335;4048;112;16;0.4847645;-0.6523752;0.3781163;0.4432133;1;-1;0;269;3882;956;2;0.700831;-0.7085649;0.05955679;-0.0567867;1;0;0;-773;4042;-27;8;0.4293629;-0.4515235;0.4847645;0.6138219;1;0;0;-367;4025;733;0.5290388;2.8036;-0.1688921;0.5349007;3.337793;-0.2794555;0.5400487;3.806939;-0.3786213;0.5040568;4.474349;-0.07574946;0.2288989;4.772795;0.02408162;-0.103644;4.600882;0.02365743;-0.7977243;5.202546;-0.09709483;-0.7896438;6.116095;-0.3484122;0.7484901;4.800776;0.02417684;1.045261;4.662749;0.02386808;1.80792;5.251457;0.03082764;2.116308;6.095769;-0.2688737;0.2167776;2.760913;-0.1671662;0.1866361;1.302702;-0.2836562;0;0;0;0.2167776;2.760913;-0.1671662;0.1866361;1.302702;-0.2836562;0;0;0
273285.0308;NotLabelled;16384;-0.2216066;-0.4362881;-0.8273905;0.2756233;0;3;0;2426;-2682;1863;65536;0.5835284;0.4542936;0.5401662;-0.4016621;-3;4;0;-46;-4007;-1033;8192;0.9038402;0.3088643;0.09695291;-0.2797784;2;-1;0;-1920;-2513;2671;32768;0.7347851;0.4085872;0.4127424;-0.3504155;-1;0;1;737;-3701;-1740;256;0.4016621;-0.5872576;-0.365651;-0.6000795;-1;-1;1;-233;3712;-1697;128;0.466759;-0.5497168;-0.5055401;-0.4736842;2;-1;0;-463;4117;200;4;-0.06371191;0.008310249;-0.7145029;-0.6966759;0;-4;2;323;4014;76;16;0.4847645;-0.6523752;0.3781163;0.4432133;1;-3;0;231;3966;972;2;0.700831;-0.7084471;0.06094183;-0.0567867;0;-2;0;-703;4086;-81;8;0.4293629;-0.4515235;0.4847645;0.6138219;2;0;0;-317;4015;651;0.5299212;2.8036;-0.167743;0.5357831;3.337793;-0.2783064;0.5409311;3.80694;-0.3774722;0.5057384;4.475136;-0.07624528;0.2309364;4.774149;0.02286318;-0.1018081;4.602627;0.02287932;-0.7952566;5.203948;-0.1030947;-0.7886744;6.11745;-0.3546267;0.7505599;4.80152;0.02286351;1.047168;4.663146;0.02288043;1.810961;5.250395;0.02884853;2.123099;6.093377;-0.2707123;0.21766;2.760913;-0.1660172;0.1881358;1.302702;-0.2826644;0;0;0;0.21766;2.760913;-0.1660172;0.1881358;1.302702;-0.2826644;0;0;0
273306.2204;NotLabelled;16384;-0.2216066;-0.434903;-0.8281193;0.2756233;0;4;0;2470;-2654;1875;65536;0.584604;0.4529086;0.5401662;-0.4016621;-4;3;0;-32;-3965;-1129;8192;0.9038402;0.3088643;0.09695291;-0.2797784;2;-1;-1;-1852;-2523;2699;32768;0.7347851;0.4085872;0.4127424;-0.3504155;-1;1;0;703;-3645;-1824;256;0.4016621;-0.5872576;-0.367036;-0.5992334;-1;-2;1;-193;3734;-1693;128;0.466759;-0.5497168;-0.5055401;-0.4736842;2;0;0;-519;4161;228;4;-0.06371191;0.006925208;-0.7145177;-0.6966759;0;0;1;325;4062;40;16;0.4847645;-0.6506262;0.3795014;0.4445983;0;-1;0;243;3990;942;2;0.700831;-0.7084471;0.06094183;-0.0567867;2;-2;0;-683;4068;-145;8;0.4293629;-0.4515235;0.4847645;0.6138219;2;0;0;-317;4087;711;0.526557;2.804157;-0.1634899;0.5324188;3.338351;-0.2740533;0.5375669;3.807497;-0.3732191;0.5038832;4.476457;-0.07351926;0.2297612;4.77633;0.02487478;-0.1033786;4.605576;0.02524199;-0.7968155;5.2067;-0.1017357;-0.7878257;6.119593;-0.3553929;0.7494466;4.802501;0.02487504;1.045734;4.663442;0.02524269;1.809527;5.25069;0.03120971;2.121665;6.093673;-0.2683519;0.2142958;2.761471;-0.161764;0.1848066;1.303487;-0.2812375;0;0;0;0.2142958;2.761471;-0.161764;0.1848066;1.303487;-0.2812375;0;0;0
273326.1295;NotLabelled;16384;-0.2216066;-0.434903;-0.8281193;0.2756233;0;4;-1;2462;-2688;1901;65536;0.584604;0.4529086;0.5401662;-0.4016621;-3;2;0;-56;-3957;-1091;8192;0.9038402;0.3088643;0.09695291;-0.2797784;1;1;-2;-1760;-2451;2715;32768;0.7347851;0.4085872;0.4127424;-0.3504155;0;3;0;793;-3647;-1714;256;0.4016621;-0.5858725;-0.367036;-0.6005877;-5;-2;1;-293;3772;-1643;128;0.466759;-0.5497168;-0.5055401;-0.4736842;0;-1;0;-437;4169;126;4;-0.06371191;0.005540166;-0.7131767;-0.6980609;0;-3;2;367;4102;74;16;0.4847645;-0.6506262;0.3795014;0.4445983;0;0;0;285;3962;958;2;0.699446;-0.7098146;0.06094183;-0.0567867;1;0;0;-601;4118;49;8;0.4293629;-0.4515235;0.4847645;0.6138219;1;2;0;-377;4055;675;0.5203535;2.804055;-0.1616855;0.5262153;3.338249;-0.2722489;0.5313634;3.807395;-0.3714147;0.4962706;4.476269;-0.07168221;0.2215176;4.775558;0.02672718;-0.1112617;4.604102;0.02708682;-0.805108;5.205227;-0.09763396;-0.7969438;6.11812;-0.3513187;0.7411466;4.802824;0.02672738;1.037727;4.66439;0.02708769;1.801535;5.251637;0.03057051;2.112697;6.094622;-0.2700044;0.2080923;2.761369;-0.1599596;0.1838906;1.303487;-0.2818366;0;0;0;0.2080923;2.761369;-0.1599596;0.1838906;1.303487;-0.2818366;0;0;0
273347.0058;NotLabelled;16384;-0.2202216;-0.434903;-0.8284888;0.2756233;0;2;0;2516;-2650;1897;65536;0.584604;0.4529086;0.5401662;-0.4016621;-2;1;1;-30;-3995;-1143;8192;0.9038402;0.3088643;0.09695291;-0.2797784;1;3;-3;-1816;-2505;2707;32768;0.7355536;0.4072022;0.4127424;-0.3504155;0;3;0;827;-3651;-1768;256;0.4030471;-0.5858725;-0.367036;-0.5996591;-7;-2;2;-187;3750;-1663;128;0.466759;-0.5509072;-0.5055401;-0.4722992;1;-5;0;-485;4127;160;4;-0.06371191;0.005540166;-0.7145298;-0.6966759;0;-1;2;281;4064;144;16;0.4847645;-0.6506262;0.3795014;0.4445983;0;0;0;275;3918;992;2;0.699446;-0.7098146;0.06094183;-0.0567867;1;0;-1;-629;4094;39;8;0.4307479;-0.4515235;0.4847645;0.6128508;1;2;0;-353;4019;633;0.5263596;2.803923;-0.1608831;0.5322214;3.338119;-0.2714379;0.5373694;3.807266;-0.3705963;0.5016252;4.47683;-0.07248783;0.2265853;4.776105;0.02516213;-0.1060366;4.604346;0.02589452;-0.8007596;5.204543;-0.0984146;-0.7920291;6.117436;-0.3520813;0.7461891;4.803846;0.0251624;1.042896;4.665687;0.025895;1.806694;5.252934;0.03108299;2.120684;6.094581;-0.2702935;0.2140983;2.761237;-0.1591578;0.1845194;1.303487;-0.2814264;0;0;0;0.2140983;2.761237;-0.1591578;0.1845194;1.303487;-0.2814264;0;0;0
273368.0123;NotLabelled;16384;-0.2202216;-0.433518;-0.8287527;0.2770083;0;3;0;2376;-2648;1895;65536;0.584394;0.4515235;0.5415512;-0.4016621;-1;1;1;-42;-3971;-1161;8192;0.9038402;0.3088643;0.09695291;-0.2797784;1;1;-3;-1848;-2453;2769;32768;0.7348921;0.4072022;0.4127424;-0.3518005;-1;2;1;835;-3635;-1760;256;0.4030471;-0.5858725;-0.368421;-0.5988091;-4;-2;2;-131;3736;-1735;128;0.468144;-0.5510012;-0.5041551;-0.4722992;1;-4;0;-511;4051;258;4;-0.06371191;0.005540166;-0.7145298;-0.6966759;0;0;2;337;4126;68;16;0.4847645;-0.6506262;0.3795014;0.4445983;0;0;0;277;3958;996;2;0.699446;-0.7098146;0.06094183;-0.0567867;1;2;0;-673;4060;-41;8;0.4307479;-0.4515235;0.4847645;0.6128508;1;1;0;-373;4027;629;0.5263594;2.803924;-0.1608733;0.5322215;3.33814;-0.2713258;0.5373697;3.807307;-0.3703943;0.5031384;4.47763;-0.07381853;0.2287796;4.777762;0.02311493;-0.1042386;4.606774;0.0241985;-0.7975476;5.208667;-0.09980237;-0.7892554;6.120901;-0.355847;0.7484462;4.804303;0.02311528;1.044833;4.665459;0.02419937;1.808631;5.252707;0.0293951;2.122603;6.094926;-0.2703952;0.2140982;2.761237;-0.159157;0.1845191;1.303487;-0.2814261;0;0;0;0.2140982;2.761237;-0.159157;0.1845191;1.303487;-0.2814261;0;0;0
273389.468;NotLabelled;16384;-0.2202216;-0.433518;-0.8287527;0.2770083;0;3;-1;2374;-2636;1915;65536;0.5853435;0.4515235;0.5415512;-0.400277;0;1;1;-62;-3897;-1153;8192;0.9041182;0.3088643;0.09833795;-0.2783934;0;-1;-3;-1718;-2459;2793;32768;0.7347746;0.4072022;0.4141274;-0.3504155;-3;0;2;711;-3567;-1738;256;0.4044321;-0.5858725;-0.368421;-0.5978746;-4;-1;0;-185;3768;-1633;128;0.468144;-0.5510012;-0.5041551;-0.4722992;0;-2;0;-485;4059;286;4;-0.06509695;0.005540166;-0.7144049;-0.6966759;0;1;1;319;4122;66;16;0.4847645;-0.6506262;0.3795014;0.4445983;0;0;0;289;3944;948;2;0.699446;-0.7098146;0.06094183;-0.0567867;0;4;-1;-715;4034;-61;8;0.4307479;-0.4515235;0.4847645;0.6128508;0;1;0;-391;4017;637;0.5261543;2.803691;-0.1575285;0.5320163;3.337908;-0.2679811;0.5371646;3.807075;-0.3670496;0.50229;4.478084;-0.07210347;0.2276478;4.778201;0.02406844;-0.1052158;4.606915;0.02552522;-0.7982468;5.208809;-0.1000201;-0.7893515;6.120433;-0.3582048;0.7472902;4.805212;0.02406859;1.043802;4.666638;0.02552581;1.807111;5.254535;0.02913439;2.119623;6.0965;-0.2728865;0.213893;2.761005;-0.1558121;0.1851492;1.303487;-0.281012;0;0;0;0.213893;2.761005;-0.1558121;0.1851492;1.303487;-0.281012;0;0;0
273410.0775;NotLabelled;16384;-0.2202216;-0.433518;-0.8287527;0.2770083;0;2;-1;2382;-2678;1849;65536;0.5853435;0.4515235;0.5415512;-0.400277;0;0;0;-68;-3899;-1219;8192;0.9041182;0.3088643;0.09833795;-0.2783934;0;-2;-3;-1722;-2435;2719;32768;0.7347746;0.4072022;0.4141274;-0.3504155;-3;0;2;705;-3547;-1828;256;0.4044321;-0.5858725;-0.368421;-0.5978746;-3;0;0;-259;3768;-1649;128;0.468144;-0.5510012;-0.5041551;-0.4722992;0;-1;0;-461;4097;190;4;-0.06509695;0.005540166;-0.7144049;-0.6966759;0;-1;2;367;4054;90;16;0.4847645;-0.6515704;0.3795014;0.4432133;0;0;0;207;3944;956;2;0.699446;-0.7097024;0.06094183;-0.05817174;0;5;-2;-737;4016;3;8;0.4307479;-0.4515235;0.4847645;0.6128508;0;2;0;-397;4051;637;0.5294469;2.803509;-0.1561839;0.535309;3.337725;-0.2666365;0.5404572;3.806892;-0.3657051;0.5055827;4.477901;-0.07075888;0.2309405;4.778018;0.02541307;-0.1019231;4.606733;0.02686982;-0.7949541;5.208626;-0.09867549;-0.7860587;6.12025;-0.3568603;0.7505829;4.805029;0.02541322;1.047095;4.666456;0.02687037;1.810404;5.254352;0.03047907;2.122916;6.096318;-0.2715421;0.2171857;2.760822;-0.1544675;0.1884419;1.303304;-0.2796674;0;0;0;0.2171857;2.760822;-0.1544675;0.1884419;1.303304;-0.2796674;0;0;0
273430.1821;NotLabelled;16384;-0.2202216;-0.433518;-0.8287527;0.2770083;0;0;0;2376;-2674;1891;65536;0.5853435;0.4515235;0.5415512;-0.400277;0;0;1;-46;-3917;-1071;8192;0.9043918;0.3088643;0.09972299;-0.2770083;0;-1;-2;-1744;-2459;2703;32768;0.734652;0.4072022;0.4155124;-0.3490305;-2;0;2;627;-3523;-1946;256;0.4044321;-0.5858725;-0.368421;-0.5978746;-4;0;1;-169;3744;-1637;128;0.468144;-0.5510012;-0.5041551;-0.4722992;0;-1;0;-475;4133;240;4;-0.06509695;0.004155125;-0.7144143;-0.6966759;0;0;1;383;4038;60;16;0.4847645;-0.6523752;0.3781163;0.4432133;0;0;0;247;4010;1018;2;0.6980609;-0.7109501;0.06094183;-0.05955679;1;4;-2;-733;4086;-47;8;0.4307479;-0.4515235;0.4847645;0.6128508;0;1;0;-365;4005;623;0.5294462;2.802662;-0.1561265;0.5353082;3.336878;-0.266579;0.5404565;3.806045;-0.3656476;0.505582;4.477054;-0.07070145;0.2309398;4.777171;0.0254705;-0.1019238;4.605886;0.02692726;-0.7949548;5.207779;-0.09861809;-0.7860594;6.119403;-0.3568029;0.7505822;4.804183;0.02547067;1.047094;4.665609;0.02692783;1.80992;5.254143;0.02724636;2.120295;6.095843;-0.277705;0.217185;2.759975;-0.1544101;0.1884797;1.302702;-0.2824352;0;0;0;0.217185;2.759975;-0.1544101;0.1884797;1.302702;-0.2824352;0;0;0
273450.9766;NotLabelled;16384;-0.2202216;-0.432133;-0.8294757;0.2770083;0;1;-1;2416;-2648;1969;65536;0.5853435;0.4515235;0.5415512;-0.400277;0;0;2;-110;-3957;-1077;8192;0.9043918;0.3088643;0.09972299;-0.2770083;1;-1;-1;-1824;-2519;2689;32768;0.735418;0.4058172;0.4155124;-0.3490305;0;0;2;679;-3603;-1908;256;0.4044321;-0.5858725;-0.3698061;-0.5970188;-2;-1;0;-163;3764;-1633;128;0.468144;-0.5510012;-0.5041551;-0.4722992;0;-5;0;-421;4153;182;4;-0.06509695;0.004155125;-0.7144143;-0.6966759;0;1;1;277;4066;72;16;0.4847645;-0.6523752;0.3781163;0.4432133;1;0;0;211;3950;990;2;0.6980609;-0.7109501;0.06094183;-0.05955679;-1;0;-2;-677;4034;-83;8;0.4307479;-0.4515235;0.4847645;0.6128508;0;0;0;-355;4027;651;0.529446;2.802661;-0.1561263;0.5353081;3.336878;-0.2665788;0.5404564;3.806045;-0.3656473;0.5071039;4.477804;-0.0722383;0.2331472;4.778776;0.02321537;-0.1001128;4.608267;0.02502362;-0.7931306;5.209965;-0.1015254;-0.7842354;6.121588;-0.3597103;0.7528509;4.804583;0.02321571;1.049041;4.665327;0.02502465;1.811867;5.25386;0.02534235;2.124395;6.094222;-0.2810991;0.2171847;2.759975;-0.1544101;0.1884794;1.302702;-0.2824352;0;0;0;0.2171847;2.759975;-0.1544101;0.1884794;1.302702;-0.2824352;0;0;0
273470.9857;NotLabelled;16384;-0.2202216;-0.432133;-0.829937;0.2756233;0;2;-2;2500;-2638;1933;65536;0.5840591;0.4515235;0.5429363;-0.400277;-1;2;1;-200;-3961;-1177;8192;0.9048637;0.3074792;0.09972299;-0.2770083;0;0;0;-1788;-2423;2737;32768;0.735418;0.4058172;0.4155124;-0.3490305;0;0;0;685;-3621;-1906;256;0.4058172;-0.5858725;-0.3698061;-0.5960783;-1;-2;0;-249;3744;-1693;128;0.468144;-0.5521854;-0.5041551;-0.4709141;1;-6;0;-403;4131;310;4;-0.06509695;0.004155125;-0.7144143;-0.6966759;0;0;1;331;4044;98;16;0.4847645;-0.6523752;0.3781163;0.4432133;0;0;0;203;3978;910;2;0.699446;-0.7095875;0.06094183;-0.05955679;0;0;-3;-757;4048;-17;8;0.4307479;-0.4515235;0.4847645;0.6128508;0;0;0;-389;4035;629;0.5297925;2.802661;-0.1556363;0.5356546;3.33688;-0.2660806;0.540803;3.806048;-0.365142;0.5068157;4.478488;-0.07336882;0.2325791;4.779447;0.02132086;-0.1005289;4.608644;0.0235029;-0.7946565;5.208449;-0.1059232;-0.7880233;6.120024;-0.364347;0.7522595;4.805717;0.02132112;1.048573;4.666729;0.0235039;1.813045;5.253122;0.02473366;2.126262;6.093482;-0.2810042;0.2175312;2.759975;-0.1539206;0.1891138;1.302702;-0.2820106;0;0;0;0.2175312;2.759975;-0.1539206;0.1891138;1.302702;-0.2820106;0;0;0
273492.1929;NotLabelled;16384;-0.2188366;-0.432133;-0.8303033;0.2756233;-1;5;-3;2536;-2600;1931;65536;0.5840591;0.4515235;0.5429363;-0.400277;-1;5;2;-72;-3977;-1167;8192;0.9043918;0.3088643;0.09972299;-0.2770083;-2;0;-1;-1762;-2525;2723;32768;0.7346337;0.4058172;0.4168975;-0.3490305;3;0;-1;667;-3705;-1888;256;0.4058172;-0.5858725;-0.3698061;-0.5960783;0;-2;1;-273;3780;-1673;128;0.4695291;-0.5522723;-0.5027701;-0.4709141;-1;-6;0;-445;4155;256;4;-0.06509695;0.004155125;-0.7144143;-0.6966759;0;0;1;317;4078;68;16;0.4847645;-0.6523752;0.3781163;0.4432133;1;1;0;249;3956;964;2;0.6980609;-0.7108327;0.06094183;-0.06094183;1;2;-3;-725;4022;-71;8;0.4307479;-0.4515235;0.4847645;0.6128508;0;0;0;-371;3991;623;0.5297925;2.802662;-0.1556292;0.5356548;3.336899;-0.2659794;0.5408033;3.806085;-0.364958;0.5068161;4.478525;-0.07318518;0.2325796;4.779484;0.02150433;-0.1005285;4.608682;0.02368654;-0.7958134;5.207564;-0.1037838;-0.7891809;6.11914;-0.3622078;0.7522599;4.805753;0.0215047;1.048574;4.666766;0.02368748;1.811397;5.2553;0.02572834;2.12245;6.095973;-0.2813554;0.2175312;2.759975;-0.1539217;0.1891137;1.302702;-0.282011;0;0;0;0.2175312;2.759975;-0.1539217;0.1891137;1.302702;-0.282011;0;0;0
273512.153;NotLabelled;16384;-0.2174515;-0.432133;-0.8302062;0.2770083;-2;6;-2;2472;-2602;1919;65536;0.583839;0.4501385;0.5443213;-0.400277;0;5;3;-176;-3907;-1213;8192;0.9043918;0.3088643;0.09972299;-0.2770083;-2;3;0;-1830;-2449;2719;32768;0.734759;0.4058172;0.4155124;-0.3504155;4;2;-1;731;-3543;-1862;256;0.4058172;-0.5858725;-0.368421;-0.5969353;-1;-4;1;-255;3782;-1723;128;0.4695291;-0.5522723;-0.5027701;-0.4709141;-1;-7;0;-475;4151;198;4;-0.06509695;0.004155125;-0.7144143;-0.6966759;-1;-1;2;285;4058;108;16;0.4847645;-0.6523752;0.3781163;0.4432133;1;0;0;267;3982;894;2;0.6980609;-0.7108327;0.06094183;-0.06094183;2;2;-2;-781;4094;31;8;0.4307479;-0.4515235;0.4847645;0.6128508;0;0;0;-365;4027;657;0.5297925;2.802662;-0.1556292;0.5356548;3.336899;-0.2659794;0.5408033;3.806085;-0.364958;0.5052909;4.477777;-0.07164732;0.230368;4.777881;0.02376093;-0.1023424;4.606302;0.02559231;-0.79879;5.204823;-0.09713578;-0.7926072;6.115728;-0.3579238;0.7499861;4.805357;0.02376026;1.046622;4.667054;0.02559102;1.808077;5.25735;0.02887714;2.121268;6.098295;-0.2752775;0.2175312;2.759975;-0.1539217;0.1891137;1.302702;-0.282011;0;0;0;0.2175312;2.759975;-0.1539217;0.1891137;1.302702;-0.282011;0;0;0
273533.9828;NotLabelled;16384;-0.2174515;-0.4307479;-0.8309257;0.2770083;-2;4;-3;2388;-2634;1907;65536;0.583839;0.4501385;0.5443213;-0.400277;-1;4;2;-110;-3923;-1201;8192;0.9043918;0.3088643;0.09972299;-0.2770083;-2;1;0;-1872;-2505;2663;32768;0.734759;0.4058172;0.4155124;-0.3504155;5;2;-1;751;-3615;-1776;256;0.4072022;-0.5872576;-0.368421;-0.5946266;-3;-5;2;-253;3778;-1729;128;0.4695291;-0.5547053;-0.501385;-0.4695291;0;-7;0;-485;4125;280;4;-0.06509695;0.002770083;-0.714421;-0.6966759;-1;-4;3;323;4116;106;16;0.4847645;-0.6515704;0.3795014;0.4432133;0;0;0;307;3966;936;2;0.6980609;-0.7107126;0.06094183;-0.06232687;0;-1;-2;-843;4092;-25;8;0.4307479;-0.4501385;0.4861496;0.6127725;0;-2;0;-349;4033;669;0.5305179;2.803019;-0.1487063;0.5363836;3.337565;-0.2575503;0.5415351;3.807028;-0.3552062;0.5068237;4.479491;-0.06356931;0.2322636;4.780174;0.03105667;-0.1006611;4.609015;0.03327005;-0.7949646;5.208679;-0.09585822;-0.7873448;6.119585;-0.3566081;0.7519155;4.807001;0.03105682;1.048378;4.668332;0.0332706;1.811177;5.256866;0.03964138;2.12604;6.09781;-0.2627831;0.2182566;2.760327;-0.1471287;0.1906058;1.303304;-0.2781971;0;0;0;0.2182566;2.760327;-0.1471287;0.1906058;1.303304;-0.2781971;0;0;0
273554.9986;NotLabelled;16384;-0.2160665;-0.4307479;-0.8312869;0.2770083;-3;5;-3;2482;-2720;1841;65536;0.5825446;0.4501385;0.5457063;-0.400277;0;4;2;-130;-3907;-1225;8192;0.9039664;0.3088643;0.09972299;-0.2783934;-2;0;0;-1882;-2449;2651;32768;0.7333295;0.4072022;0.4155124;-0.3518005;6;1;-1;711;-3577;-1702;256;0.4085872;-0.5872576;-0.368421;-0.5936757;-2;-6;1;-209;3740;-1725;128;0.4709141;-0.5559506;-0.5;-0.468144;0;-9;0;-453;4123;288;4;-0.06509695;0.001385042;-0.714425;-0.6966759;0;-6;3;291;4036;50;16;0.4847645;-0.6515704;0.3795014;0.4432133;0;0;0;303;4028;938;2;0.6980609;-0.7105924;0.06232687;-0.06232687;0;-1;-3;-733;4012;-57;8;0.4293629;-0.4501385;0.4861496;0.6137438;0;-2;0;-371;4051;667;0.5307835;2.802763;-0.1453803;0.5366494;3.337328;-0.2541344;0.5418012;3.806808;-0.3517113;0.5064665;4.479949;-0.06172195;0.2316324;4.780623;0.03213486;-0.1011434;4.60918;0.03472425;-0.7963337;5.207924;-0.09389967;-0.790979;6.118776;-0.3548931;0.7512607;4.807903;0.03213501;1.047844;4.669498;0.03472471;1.810605;5.258048;0.04359186;2.123945;6.100909;-0.2550558;0.2185222;2.760071;-0.1438106;0.1912353;1.303304;-0.2777647;0;0;0;0.2185222;2.760071;-0.1438106;0.1912353;1.303304;-0.2777647;0;0;0
273575.9529;NotLabelled;16384;-0.2132964;-0.4293629;-0.8322555;0.2783934;-4;5;-4;2302;-2670;1765;65536;0.5813596;0.4487534;0.5470914;-0.4016621;2;3;0;-18;-3883;-1129;8192;0.9039664;0.3088643;0.09972299;-0.2783934;-3;2;1;-1702;-2549;2659;32768;0.7333295;0.4072022;0.4155124;-0.3518005;6;2;0;735;-3623;-1512;256;0.4085872;-0.5886427;-0.367036;-0.5931618;-2;-6;1;-229;3712;-1641;128;0.4722992;-0.5560196;-0.4986149;-0.468144;1;-7;0;-451;4077;418;4;-0.06509695;0.001385042;-0.714425;-0.6966759;-1;-7;2;303;4062;104;16;0.4847645;-0.6515704;0.3795014;0.4432133;0;0;0;301;3954;1000;2;0.6980609;-0.7104696;0.06232687;-0.06371191;2;-2;-3;-775;4070;-71;8;0.4293629;-0.4501385;0.4861496;0.6137438;-1;-2;0;-387;4035;661;0.5312504;2.802764;-0.144662;0.5371165;3.337344;-0.253343;0.5422683;3.806836;-0.3508555;0.5068421;4.479325;-0.05936602;0.2319627;4.779738;0.0351934;-0.1007801;4.608226;0.03744338;-0.7960299;5.206828;-0.09152466;-0.7903304;6.117629;-0.3526857;0.7515857;4.807116;0.03518927;1.048195;4.668763;0.03743398;1.810883;5.257315;0.05117619;2.125193;6.100175;-0.2464502;0.2189891;2.760072;-0.1430985;0.1921382;1.303305;-0.2771409;0;0;0;0.2189891;2.760072;-0.1430985;0.1921382;1.303305;-0.2771409;0;0;0
273595.9918;NotLabelled;16384;-0.2119114;-0.4293629;-0.8321449;0.2797784;-3;1;-4;2332;-2700;1731;65536;0.5826599;0.4487534;0.5457063;-0.4016621;3;0;0;18;-3879;-1133;8192;0.9030641;0.3102493;0.09972299;-0.2797784;0;3;2;-1850;-2483;2575;32768;0.7326765;0.4085872;0.4141274;-0.3531856;3;3;0;869;-3705;-1420;256;0.4099723;-0.5886427;-0.367036;-0.5922053;-1;-5;0;-215;3716;-1691;128;0.4722992;-0.5560196;-0.4986149;-0.468144;2;-5;0;-467;4097;302;4;-0.06371191;0;-0.7145512;-0.6966759;0;-7;2;299;4038;158;16;0.4847645;-0.6515704;0.3795014;0.4432133;0;-2;0;245;4032;964;2;0.6980609;-0.7104696;0.06371191;-0.06232687;0;-4;-2;-761;4012;-95;8;0.4293629;-0.4501385;0.4861496;0.6137438;-1;-2;0;-305;4005;697;0.5320997;2.802757;-0.1441953;0.5379658;3.337337;-0.2528763;0.5431175;3.806829;-0.3503889;0.5070724;4.48;-0.06055254;0.2319214;4.780407;0.03323276;-0.1006741;4.608614;0.03585703;-0.7958057;5.20821;-0.08906358;-0.7866486;6.119062;-0.3499462;0.7515208;4.808231;0.03323299;1.048249;4.670139;0.03585768;1.809256;5.260839;0.05062485;2.124152;6.105283;-0.2418519;0.2198384;2.760065;-0.1426318;0.1927701;1.303305;-0.2767017;0;0;0;0.2198384;2.760065;-0.1426318;0.1927701;1.303305;-0.2767017;0;0;0
273617.0234;NotLabelled;16384;-0.2119114;-0.4293629;-0.8321449;0.2797784;-2;0;-4;2374;-2770;1779;65536;0.5817026;0.4487534;0.5457063;-0.4030471;4;1;-1;-92;-3931;-1063;8192;0.9030641;0.3102493;0.09972299;-0.2797784;-1;1;1;-1906;-2425;2633;32768;0.7320073;0.4085872;0.4141274;-0.3545706;1;1;0;851;-3701;-1424;256;0.4099723;-0.5886427;-0.367036;-0.5922053;-1;-6;0;-153;3780;-1631;128;0.4736842;-0.5560058;-0.4986149;-0.466759;3;-3;1;-507;4091;320;4;-0.06371191;0;-0.7145512;-0.6966759;-1;-6;2;363;4032;36;16;0.4847645;-0.6515704;0.3795014;0.4432133;1;-3;0;231;3968;1000;2;0.6980609;-0.7104696;0.06371191;-0.06232687;0;-6;-2;-773;4068;-43;8;0.4279778;-0.4501385;0.4861496;0.6147104;-1;-2;0;-337;4003;649;0.5320996;2.802753;-0.144317;0.5379624;3.337044;-0.2544096;0.5431114;3.806277;-0.3531621;0.5070662;4.479447;-0.06332558;0.2319153;4.779854;0.0304597;-0.1006803;4.608062;0.03308403;-0.7958329;5.207659;-0.09171855;-0.7867393;6.119129;-0.3504344;0.7515146;4.807679;0.03045994;1.048243;4.669587;0.03308475;1.809252;5.260286;0.04772234;2.1241;6.105298;-0.2431573;0.2198384;2.760065;-0.1426317;0.19277;1.303305;-0.2767019;0;0;0;0.2198384;2.760065;-0.1426317;0.19277;1.303305;-0.2767019;0;0;0
273637.1704;NotLabelled;16384;-0.2105263;-0.4293629;-0.8324964;0.2797784;-2;0;-4;2404;-2642;1809;65536;0.5806316;0.4501385;0.5457063;-0.4030471;4;1;-2;-70;-3949;-971;8192;0.9030641;0.3102493;0.09972299;-0.2797784;0;0;0;-1880;-2493;2607;32768;0.7305487;0.4085872;0.4155124;-0.3559557;0;3;0;815;-3715;-1498;256;0.4099723;-0.5886427;-0.367036;-0.5922053;-2;-3;0;-151;3734;-1617;128;0.4736842;-0.5560058;-0.4986149;-0.466759;3;-2;0;-495;4055;322;4;-0.06232687;-0.001385042;-0.714672;-0.6966759;0;-7;1;497;4020;68;16;0.4847645;-0.6498163;0.3808864;0.4445983;0;-1;0;181;3930;970;2;0.6980609;-0.710344;0.06509695;-0.06232687;0;-4;-2;-671;4030;-75;8;0.4279778;-0.4501385;0.4861496;0.6147104;-1;-1;0;-387;4033;665;0.5292591;2.80353;-0.1429722;0.535122;3.337821;-0.2530648;0.540271;3.807054;-0.3518172;0.5042258;4.480224;-0.06198078;0.2290749;4.780631;0.03180453;-0.1035207;4.608839;0.03442886;-0.7997948;5.207515;-0.08852553;-0.7931226;6.119599;-0.3451459;0.7486743;4.808456;0.0318048;1.045402;4.670364;0.03442955;1.806409;5.261064;0.0491966;2.119072;6.106968;-0.2414474;0.216998;2.760842;-0.1412869;0.1894175;1.304088;-0.2753216;0;0;0;0.216998;2.760842;-0.1412869;0.1894175;1.304088;-0.2753216;0;0;0
273657.9916;NotLabelled;16384;-0.2105263;-0.4307479;-0.8317806;0.2797784;-2;0;-3;2506;-2664;1883;65536;0.5809684;0.4501385;0.5443213;-0.4044321;4;0;0;52;-4021;-951;8192;0.9030641;0.3102493;0.09972299;-0.2797784;2;0;-1;-1776;-2477;2615;32768;0.7305487;0.4085872;0.4155124;-0.3559557;0;5;3;897;-3695;-1538;256;0.4113573;-0.5921016;-0.365651;-0.5886427;-1;-3;0;-207;3748;-1573;128;0.4736842;-0.5572448;-0.4972299;-0.466759;3;-2;1;-441;4109;274;4;-0.06232687;-0.002770083;-0.714668;-0.6966759;0;-2;0;501;4014;116;16;0.4847645;-0.6498163;0.3808864;0.4445983;1;-1;0;281;3976;986;2;0.6980609;-0.7102158;0.06648199;-0.06232687;0;0;-1;-807;4068;29;8;0.4279778;-0.4501385;0.4861496;0.6147104;0;0;0;-341;4059;721;0.5305896;2.803274;-0.1377835;0.5364558;3.337869;-0.2463912;0.5416078;3.807374;-0.3438396;0.507084;4.480714;-0.05421096;0.2326071;4.781753;0.03952207;-0.1003639;4.610691;0.04225262;-0.793997;5.209177;-0.09564704;-0.78192;6.12192;-0.3497158;0.7522661;4.808439;0.03943241;1.048691;4.669697;0.04205453;1.809251;5.260457;0.07081044;2.124888;6.106361;-0.2166016;0.2183283;2.760581;-0.1362264;0.1922397;1.304088;-0.2733585;0;0;0;0.2183283;2.760581;-0.1362264;0.1922397;1.304088;-0.2733585;0;0;0
273679.1932;NotLabelled;16384;-0.2091413;-0.4307479;-0.8321299;0.2797784;0;0;-2;2532;-2734;1895;65536;0.5798926;0.4515235;0.5443213;-0.4044321;1;1;0;-92;-4071;-887;8192;0.9035387;0.3088643;0.09972299;-0.2797784;2;3;-1;-1804;-2573;2671;32768;0.7305487;0.4085872;0.4155124;-0.3559557;0;4;4;903;-3715;-1556;256;0.4113573;-0.5921016;-0.365651;-0.5886427;0;-3;0;-215;3730;-1661;128;0.4750692;-0.5559852;-0.4986149;-0.4653739;6;0;1;-473;4161;206;4;-0.06232687;-0.002770083;-0.714668;-0.6966759;0;0;0;523;4054;118;16;0.4847645;-0.6498163;0.3808864;0.4445983;0;-3;0;235;3984;944;2;0.6980609;-0.7102158;0.06648199;-0.06232687;0;-1;-1;-671;4082;-19;8;0.4279778;-0.4501385;0.4861496;0.6147104;0;0;0;-355;4067;685;0.5306132;2.803265;-0.137996;0.5364729;3.337262;-0.2495035;0.5416191;3.806232;-0.3494985;0.507045;4.479572;-0.05987594;0.2325519;4.780611;0.03380968;-0.1004195;4.609549;0.03648261;-0.7966073;5.207471;-0.09056193;-0.7869368;6.120819;-0.342553;0.752211;4.807297;0.03380996;1.048636;4.668555;0.03648341;1.811128;5.25712;0.05818009;2.126815;6.103024;-0.2291778;0.218352;2.760581;-0.1361887;0.192287;1.304088;-0.2733253;0;0;0;0.218352;2.760581;-0.1361887;0.192287;1.304088;-0.2733253;0;0;0
273700.2573;NotLabelled;16384;-0.2091413;-0.4307479;-0.8321299;0.2797784;-1;1;-3;2526;-2636;1893;65536;0.5798926;0.4515235;0.5443213;-0.4044321;0;4;0;-118;-4041;-883;8192;0.9033848;0.3088643;0.101108;-0.2797784;2;0;-3;-1950;-2465;2735;32768;0.7297592;0.4085872;0.4168975;-0.3559557;-2;1;2;777;-3775;-1654;256;0.4127424;-0.5919915;-0.3642659;-0.5886427;1;-3;0;-293;3810;-1643;128;0.4750692;-0.5559852;-0.4986149;-0.4653739;6;1;1;-391;4127;264;4;-0.06232687;-0.002770083;-0.714668;-0.6966759;-1;0;1;465;4048;142;16;0.4847645;-0.6498163;0.3808864;0.4445983;1;-1;0;227;3960;958;2;0.6980609;-0.7102158;0.06648199;-0.06232687;0;-2;-1;-659;4112;-5;8;0.4279778;-0.4501385;0.4861496;0.6147104;0;0;0;-397;4045;719;0.5308897;2.803265;-0.1375515;0.5367495;3.337262;-0.249059;0.5418956;3.806232;-0.3490539;0.505059;4.479512;-0.0595715;0.2295562;4.779647;0.03404863;-0.1028394;4.607471;0.03675358;-0.798724;5.205392;-0.09194177;-0.7885408;6.11874;-0.3439131;0.7491228;4.808077;0.03404897;1.046011;4.670331;0.03675437;1.808014;5.259552;0.05785441;2.122155;6.10578;-0.2302448;0.2186286;2.760581;-0.1357442;0.1928425;1.304088;-0.2729335;0;0;0;0.2186286;2.760581;-0.1357442;0.1928425;1.304088;-0.2729335;0;0;0
273721.1617;NotLabelled;16384;-0.2091413;-0.4307479;-0.8321299;0.2797784;-1;3;-3;2464;-2596;1881;65536;0.5789242;0.4515235;0.5443213;-0.4058172;-2;5;1;-34;-4063;-893;8192;0.9033848;0.3088643;0.101108;-0.2797784;2;0;-3;-1842;-2579;2789;32768;0.7297592;0.4085872;0.4168975;-0.3559557;-2;2;3;767;-3731;-1644;256;0.4127424;-0.5919915;-0.3642659;-0.5886427;0;-3;0;-287;3788;-1611;128;0.4764543;-0.5547987;-0.4986149;-0.4653739;3;2;1;-379;4137;226;4;-0.06232687;-0.002770083;-0.714668;-0.6966759;0;1;0;451;4012;98;16;0.4847645;-0.6507618;0.3808864;0.4432133;1;0;0;231;3962;940;2;0.6980609;-0.7102158;0.06648199;-0.06232687;0;0;0;-701;4056;-99;8;0.4279778;-0.4501385;0.4861496;0.6147104;0;0;0;-373;4035;667;0.5341671;2.803073;-0.1362051;0.5400234;3.336771;-0.2491376;0.5451666;3.805473;-0.3503842;0.5082793;4.478753;-0.0609087;0.2327601;4.778888;0.03266309;-0.09963588;4.60671;0.03530993;-0.7954717;5.204975;-0.09205407;-0.7853362;6.118922;-0.3418417;0.7523267;4.807318;0.03275442;1.049215;4.669572;0.03551185;1.811209;5.258734;0.05847323;2.125401;6.104962;-0.2295713;0.2219059;2.760395;-0.1342745;0.196144;1.303902;-0.2714677;0;0;0;0.2219059;2.760395;-0.1342745;0.196144;1.303902;-0.2714677;0;0;0
273741.9994;NotLabelled;16384;-0.2077562;-0.4307479;-0.8324768;0.2797784;0;3;-3;2464;-2700;1895;65536;0.5789242;0.4515235;0.5443213;-0.4058172;-2;2;2;44;-4051;-909;8192;0.9038572;0.3074792;0.101108;-0.2797784;1;0;-3;-1772;-2511;2721;32768;0.7297592;0.4085872;0.4168975;-0.3559557;-3;0;4;811;-3669;-1650;256;0.4127424;-0.5919915;-0.3642659;-0.5886427;-2;-3;0;-205;3774;-1591;128;0.4764543;-0.5547987;-0.4986149;-0.4653739;2;0;2;-431;4143;146;4;-0.06371191;-0.002770083;-0.7145459;-0.6966759;0;2;0;403;4096;106;16;0.4847645;-0.6507618;0.3808864;0.4432133;0;0;0;271;4026;882;2;0.6980609;-0.7102158;0.06648199;-0.06232687;0;0;-1;-779;4106;-49;8;0.4279778;-0.4501385;0.4861496;0.6147104;0;0;0;-347;4045;709;0.5335135;2.802813;-0.1333936;0.5393699;3.336511;-0.2463262;0.5445131;3.805212;-0.3475728;0.5076766;4.478493;-0.05809081;0.2321737;4.778628;0.03552926;-0.1002219;4.606451;0.03823419;-0.7972593;5.203447;-0.08850551;-0.7871675;6.117395;-0.3382949;0.7517404;4.807058;0.03552955;1.048629;4.669312;0.03823507;1.812302;5.256395;0.05856502;2.126443;6.102622;-0.2295345;0.2212524;2.760135;-0.1314632;0.1960964;1.303902;-0.2715019;0;0;0;0.2212524;2.760135;-0.1314632;0.1960964;1.303902;-0.2715019;0;0;0
273763.1595;NotLabelled;16384;-0.2077562;-0.4307479;-0.8324768;0.2797784;0;2;-2;2488;-2776;1843;65536;0.5789242;0.4515235;0.5443213;-0.4058172;-2;2;2;-118;-4041;-961;8192;0.9032287;0.3088643;0.1024931;-0.2797784;1;0;-5;-1782;-2493;2707;32768;0.7289662;0.4085872;0.4182825;-0.3559557;-2;3;4;747;-3651;-1668;256;0.4141274;-0.5923996;-0.3642659;-0.5872576;-2;-3;0;-205;3790;-1623;128;0.4764543;-0.5547987;-0.4986149;-0.4653739;1;0;1;-511;4115;192;4;-0.06371191;-0.002770083;-0.7145459;-0.6966759;0;0;0;355;4098;90;16;0.4847645;-0.6507618;0.3808864;0.4432133;0;0;0;219;3928;926;2;0.6980609;-0.7102158;0.06648199;-0.06232687;0;2;-1;-791;4064;15;8;0.4279778;-0.4501385;0.4861496;0.6147104;0;0;0;-369;4023;691;0.5339416;2.802813;-0.1326706;0.5397979;3.336512;-0.2456031;0.5449411;3.805212;-0.3468497;0.5079397;4.479204;-0.05904773;0.2323682;4.779519;0.03378826;-0.09999569;4.607288;0.03687623;-0.7966155;5.204284;-0.09213895;-0.7857083;6.118232;-0.3418936;0.7519295;4.808046;0.03378832;1.048843;4.670363;0.03687668;1.810337;5.260239;0.05805886;2.123286;6.106787;-0.2303975;0.2216804;2.760135;-0.13074;0.1969818;1.303902;-0.2708602;0;0;0;0.2216804;2.760135;-0.13074;0.1969818;1.303902;-0.2708602;0;0;0
273783.9909;NotLabelled;16384;-0.2063712;-0.4307479;-0.8328212;0.2797784;2;2;-1;2478;-2632;1873;65536;0.5796677;0.4501385;0.5457063;-0.4044321;-3;0;4;-68;-4003;-1011;8192;0.9041288;0.3074792;0.1024931;-0.2783934;2;0;-5;-1820;-2413;2733;32768;0.7297408;0.4072022;0.4182825;-0.3559557;-3;3;5;769;-3655;-1712;256;0.4141274;-0.5923996;-0.3642659;-0.5872576;-2;-3;0;-257;3786;-1513;128;0.4764543;-0.5547987;-0.4986149;-0.4653739;0;2;1;-471;4117;282;4;-0.06232687;-0.004155125;-0.7146613;-0.6966759;-1;-1;1;349;4044;76;16;0.4847645;-0.6490025;0.3822715;0.4445983;0;0;0;283;3952;934;2;0.6980609;-0.7100928;0.06648199;-0.06371191;0;2;-1;-783;4026;-149;8;0.4279778;-0.4501385;0.4861496;0.6147104;0;0;0;-339;4009;649;0.53108;2.803589;-0.1313624;0.5369363;3.337287;-0.244295;0.5420794;3.805988;-0.3455415;0.5050781;4.47998;-0.05773959;0.2295066;4.780295;0.03509635;-0.1028573;4.608064;0.03818436;-0.8006295;5.204133;-0.08887541;-0.7900122;6.116827;-0.3431827;0.7490679;4.808822;0.03509647;1.045982;4.671139;0.03818482;1.809189;5.258853;0.05770755;2.124346;6.104086;-0.2321992;0.2188188;2.760911;-0.1294319;0.1936077;1.304684;-0.2695237;0;0;0;0.2188188;2.760911;-0.1294319;0.1936077;1.304684;-0.2695237;0;0;0
273805.2292;NotLabelled;16384;-0.2063712;-0.4307479;-0.8332853;0.2783934;1;3;-1;2466;-2636;1865;65536;0.5796677;0.4501385;0.5457063;-0.4044321;-3;2;3;-188;-3983;-1039;8192;0.9039707;0.3074792;0.1038781;-0.2783934;1;1;-5;-1716;-2453;2707;32768;0.7288215;0.4072022;0.4210526;-0.3545706;-3;0;3;703;-3659;-1772;256;0.4141274;-0.5932491;-0.3628809;-0.5872576;1;-2;0;-223;3716;-1657;128;0.4764543;-0.5536339;-0.4986149;-0.466759;1;6;2;-499;4133;210;4;-0.06232687;-0.004155125;-0.7146613;-0.6966759;0;-2;0;337;4020;84;16;0.4847645;-0.6490025;0.3822715;0.4445983;0;-1;1;289;3970;922;2;0.6980609;-0.7100928;0.06648199;-0.06371191;0;0;0;-835;4022;-71;8;0.4279778;-0.4501385;0.4861496;0.6147104;1;0;0;-333;4019;663;0.5313413;2.803589;-0.1309204;0.5371976;3.337286;-0.2438601;0.5423409;3.805985;-0.3451129;0.5046837;4.479299;-0.05581442;0.2288157;4.779126;0.03771979;-0.1033709;4.606546;0.04046674;-0.802254;5.200716;-0.08935171;-0.7911223;6.113411;-0.3436374;0.7483475;4.808186;0.03772008;1.045403;4.670801;0.04046726;1.808131;5.259165;0.05912435;2.119668;6.104452;-0.2345132;0.2190802;2.760911;-0.1289893;0.1941524;1.304684;-0.2691317;0;0;0;0.2190802;2.760911;-0.1289893;0.1941524;1.304684;-0.2691317;0;0;0
273826.0753;NotLabelled;16384;-0.2063712;-0.4293629;-0.8339998;0.2783934;1;2;-1;2410;-2628;1887;65536;0.5783606;0.4501385;0.5470914;-0.4044321;-4;2;3;-56;-3915;-1023;8192;0.9038105;0.3074792;0.1052632;-0.2783934;0;0;-6;-1722;-2485;2709;32768;0.7288215;0.4072022;0.4210526;-0.3545706;-3;1;4;711;-3645;-1774;256;0.4155124;-0.5922798;-0.3628809;-0.5872576;0;-2;-1;-161;3724;-1647;128;0.4764543;-0.55121;-0.5;-0.468144;0;6;2;-393;4095;244;4;-0.06232687;-0.004155125;-0.7146613;-0.6966759;0;-2;0;377;4072;92;16;0.4847645;-0.6499491;0.3822715;0.4432133;0;0;0;209;3956;918;2;0.6980609;-0.7100928;0.06648199;-0.06371191;0;-1;0;-759;4028;7;8;0.4279778;-0.4501385;0.4861496;0.6147104;0;0;0;-353;4035;579;0.5345885;2.803394;-0.1296019;0.5404413;3.336772;-0.2440337;0.5455813;3.805187;-0.346597;0.5063117;4.479115;-0.05894893;0.2297314;4.778524;0.03381519;-0.1020518;4.605178;0.03693807;-0.8009135;5.199185;-0.09373522;-0.7926378;6.111826;-0.3483213;0.749194;4.808797;0.03381538;1.046569;4.672113;0.03693891;1.808853;5.261127;0.05304635;2.120392;6.106413;-0.2405882;0.2223274;2.760721;-0.1275419;0.1974005;1.304494;-0.2676851;0;0;0;0.2223274;2.760721;-0.1275419;0.1974005;1.304494;-0.2676851;0;0;0
273867.1637;NotLabelled;16384;-0.2063712;-0.4293629;-0.8339998;0.2783934;3;2;-2;2374;-2666;1813;65536;0.5783606;0.4501385;0.5470914;-0.4044321;-4;0;2;-22;-3887;-1011;8192;0.9040737;0.3074792;0.1066482;-0.2770083;1;0;-6;-1666;-2517;2677;32768;0.7286925;0.4072022;0.4224377;-0.3531856;-3;1;4;631;-3721;-1714;256;0.4155124;-0.5922798;-0.3628809;-0.5872576;0;-2;-1;-239;3782;-1689;128;0.4764543;-0.55121;-0.5;-0.468144;0;6;2;-371;4091;234;4;-0.06232687;-0.005540166;-0.7146519;-0.6966759;-1;0;1;439;4056;54;16;0.4847645;-0.6490025;0.3822715;0.4445983;0;0;0;233;3980;918;2;0.6980609;-0.7100928;0.06648199;-0.06371191;0;-1;0;-805;3998;-13;8;0.4279778;-0.4501385;0.4861496;0.6147104;0;-1;1;-379;3995;641;0.5312092;2.803312;-0.1282277;0.537062;3.33669;-0.2426596;0.5422021;3.805105;-0.3452227;0.5029324;4.479033;-0.05757466;0.2263522;4.778442;0.03518942;-0.1054311;4.605096;0.0383123;-0.8042674;5.199103;-0.09249586;-0.7959914;6.111745;-0.3470819;0.7458147;4.808715;0.03518963;1.043189;4.672031;0.03831303;1.805061;5.261657;0.0512656;2.114523;6.106666;-0.2453487;0.2189481;2.760639;-0.1261676;0.194154;1.304684;-0.2691297;0;0;0;0.2189481;2.760639;-0.1261676;0.194154;1.304684;-0.2691297;0;0;0
273888.0014;NotLabelled;16384;-0.2063712;-0.4293629;-0.8339998;0.2783934;3;1;-2;2424;-2658;1827;65536;0.5780156;0.4501385;0.5484765;-0.4030471;-4;1;1;-50;-3881;-1131;8192;0.9040737;0.3074792;0.1066482;-0.2770083;1;0;-4;-1784;-2449;2741;32768;0.7286925;0.4072022;0.4224377;-0.3531856;-3;-1;4;699;-3681;-1794;256;0.4155124;-0.5931262;-0.3614958;-0.5872576;0;-1;-2;-255;3794;-1631;128;0.4750692;-0.5512275;-0.5;-0.4695291;0;9;3;-417;4131;244;4;-0.06232687;-0.005540166;-0.7146519;-0.6966759;-1;-2;1;429;4090;88;16;0.4847645;-0.6490025;0.3822715;0.4445983;0;0;0;295;3958;962;2;0.6980609;-0.7099618;0.06786703;-0.06371191;0;0;-1;-813;4012;-51;8;0.4279778;-0.4501385;0.4861496;0.6147104;0;0;1;-379;4093;573;0.531463;2.803317;-0.1276651;0.5373192;3.336997;-0.2406811;0.5424622;3.805683;-0.3420009;0.5025359;4.478934;-0.0528605;0.2256594;4.777852;0.04060002;-0.1059446;4.604156;0.04338315;-0.8044913;5.198165;-0.08896375;-0.7984599;6.110134;-0.3460117;0.7450905;4.80866;0.04060012;1.042606;4.672276;0.04338354;1.804447;5.261902;0.05801249;2.114507;6.106911;-0.2379779;0.2192019;2.760639;-0.1257274;0.1946959;1.304684;-0.2687386;0;0;0;0.2192019;2.760639;-0.1257274;0.1946959;1.304684;-0.2687386;0;0;0
273909.117;NotLabelled;16384;-0.2063712;-0.4293629;-0.8339998;0.2783934;3;1;-2;2426;-2746;1855;65536;0.5790915;0.4487534;0.5484765;-0.4030471;-3;2;2;-114;-4001;-1075;8192;0.9039091;0.3074792;0.1080332;-0.2770083;0;-2;-4;-1768;-2475;2731;32768;0.7293307;0.4058172;0.4238227;-0.3518005;-3;-1;4;677;-3657;-1880;256;0.4155124;-0.5931262;-0.3614958;-0.5872576;-1;-2;-2;-289;3812;-1629;128;0.4750692;-0.5499679;-0.501385;-0.4695291;0;10;3;-423;4129;266;4;-0.06232687;-0.005540166;-0.7146519;-0.6966759;0;-2;0;411;4054;188;16;0.4847645;-0.6490025;0.3822715;0.4445983;0;0;0;243;4020;936;2;0.6980609;-0.7099618;0.06786703;-0.06371191;0;0;-2;-771;4024;-87;8;0.4265928;-0.4501385;0.4861496;0.6156724;-1;0;1;-419;4023;601;0.5314631;2.803312;-0.1277928;0.5373157;3.336675;-0.2422982;0.5424556;3.805075;-0.3449261;0.5025293;4.478326;-0.05578542;0.2256529;4.777245;0.03767526;-0.1059512;4.603549;0.04045827;-0.8045484;5.197556;-0.0916208;-0.7960544;6.108924;-0.3507259;0.7450839;4.808052;0.0376755;1.0426;4.671668;0.04045868;1.80399;5.261937;0.05238962;2.114178;6.105339;-0.2480168;0.219202;2.760639;-0.1257264;0.194696;1.304684;-0.2687381;0;0;0;0.219202;2.760639;-0.1257264;0.194696;1.304684;-0.2687381;0;0;0
273930.1037;NotLabelled;16384;-0.2063712;-0.4293629;-0.8344609;0.2770083;3;1;-1;2454;-2636;1949;65536;0.5787402;0.4487534;0.5498615;-0.4016621;-3;-1;3;-232;-4005;-1101;8192;0.9043325;0.3074792;0.1080332;-0.2756233;0;-1;-3;-1680;-2455;2711;32768;0.7291912;0.4058172;0.4252077;-0.3504155;-2;-1;4;631;-3671;-1866;256;0.4168975;-0.5907767;-0.3614958;-0.5886427;0;-2;-3;-259;3772;-1655;128;0.4750692;-0.5463195;-0.5027701;-0.4722992;1;9;3;-419;4119;172;4;-0.06232687;-0.005540166;-0.7146519;-0.6966759;0;0;0;369;4118;58;16;0.4847645;-0.6490025;0.3822715;0.4445983;0;1;1;211;3978;972;2;0.6980609;-0.7098362;0.06786703;-0.06509695;-1;3;-3;-759;4122;-3;8;0.4265928;-0.4515235;0.4861496;0.6146573;-1;0;1;-369;4087;689;0.5310527;2.803305;-0.1286352;0.536902;3.336343;-0.2446451;0.5420386;3.804452;-0.3485942;0.4990465;4.478206;-0.06106925;0.2208168;4.776101;0.03163724;-0.1100047;4.600926;0.03478815;-0.8103943;5.193029;-0.09634924;-0.8055161;6.103712;-0.3579422;0.7401044;4.80924;0.03163779;1.038229;4.6742;0.03478932;1.799696;5.264428;0.04333425;2.106812;6.10753;-0.2610452;0.2187917;2.760639;-0.1264388;0.1938206;1.304684;-0.2693701;0;0;0;0.2187917;2.760639;-0.1264388;0.1938206;1.304684;-0.2693701;0;0;0
273951.1306;NotLabelled;16384;-0.2063712;-0.4293629;-0.8349193;0.2756233;3;0;-2;2494;-2594;1983;65536;0.5787402;0.4487534;0.5498615;-0.4016621;-3;0;3;-108;-4035;-1091;8192;0.9041659;0.3074792;0.1094183;-0.2756233;0;0;-3;-1732;-2509;2787;32768;0.7291912;0.4058172;0.4252077;-0.3504155;-1;-1;3;617;-3643;-1816;256;0.4168975;-0.5907767;-0.3614958;-0.5886427;-1;-1;-2;-293;3790;-1609;128;0.4736842;-0.5475208;-0.5027701;-0.4722992;1;6;3;-391;4107;206;4;-0.06232687;-0.005540166;-0.7146519;-0.6966759;0;2;0;405;4068;96;16;0.4847645;-0.6499491;0.3822715;0.4432133;0;0;1;333;3966;980;2;0.6980609;-0.7098362;0.06786703;-0.06509695;-1;4;-3;-739;4060;-87;8;0.4265928;-0.4515235;0.4861496;0.6146573;0;0;1;-331;4003;777;0.5343011;2.803121;-0.1270735;0.5401537;3.336465;-0.2416672;0.5452934;3.804848;-0.3443725;0.5023013;4.478602;-0.0568479;0.2240716;4.776497;0.03585851;-0.10675;4.601322;0.03900959;-0.8084424;5.191517;-0.09375536;-0.8035644;6.102201;-0.3553488;0.7433591;4.809636;0.03585899;1.041484;4.674596;0.03901058;1.802476;5.265463;0.04546106;2.109591;6.108564;-0.258919;0.22204;2.760449;-0.1249997;0.1970689;1.304494;-0.2679302;0;0;0;0.22204;2.760449;-0.1249997;0.1970689;1.304494;-0.2679302;0;0;0
273972.1722;NotLabelled;16384;-0.2049861;-0.4293629;-0.8352605;0.2756233;3;1;-2;2482;-2592;1941;65536;0.5787402;0.4487534;0.5498615;-0.4016621;-3;1;4;-80;-4033;-1097;8192;0.904115;0.3088643;0.1094183;-0.2742382;-1;0;-3;-1728;-2511;2747;32768;0.7298552;0.4058172;0.4252077;-0.3490305;0;-1;4;577;-3673;-1846;256;0.4168975;-0.5916219;-0.3601108;-0.5886427;0;-1;-2;-251;3838;-1631;128;0.4736842;-0.5475208;-0.5027701;-0.4722992;2;6;2;-413;4161;202;4;-0.06094183;-0.005540166;-0.7147714;-0.6966759;0;0;0;431;4034;102;16;0.4847645;-0.6490025;0.3822715;0.4445983;0;-1;1;251;3986;932;2;0.6980609;-0.7098362;0.06786703;-0.06509695;0;3;-2;-727;4046;-147;8;0.4265928;-0.4515235;0.4861496;0.6146573;0;1;0;-375;4023;733;0.5316837;2.803577;-0.1313635;0.5375363;3.33692;-0.2459571;0.542676;3.805304;-0.3486625;0.4996117;4.478379;-0.05956197;0.2212767;4.775783;0.03439844;-0.1093575;4.600261;0.03787423;-0.8131067;5.189089;-0.08997846;-0.8082288;6.099771;-0.3515717;0.7405289;4.809456;0.03335601;1.038798;4.674717;0.03556943;1.797565;5.268445;0.04140127;2.104754;6.110941;-0.2645772;0.2194226;2.760905;-0.1292896;0.1938206;1.304684;-0.2693707;0;0;0;0.2194226;2.760905;-0.1292896;0.1938206;1.304684;-0.2693707;0;0;0
274012.3511;NotLabelled;16384;-0.2049861;-0.4293629;-0.8352605;0.2756233;3;1;-2;2554;-2600;1983;65536;0.5783822;0.4487534;0.5512465;-0.400277;-3;0;5;-146;-3965;-1145;8192;0.904115;0.3088643;0.1094183;-0.2742382;-1;-1;-3;-1690;-2547;2689;32768;0.7282737;0.4072022;0.4265928;-0.3490305;0;0;4;533;-3615;-1766;256;0.4168975;-0.5916219;-0.3601108;-0.5886427;-1;-1;-2;-277;3786;-1595;128;0.4736842;-0.5450451;-0.5041551;-0.4736842;2;7;2;-425;4117;150;4;-0.06094183;-0.006925208;-0.7147593;-0.6966759;-1;0;0;419;4086;64;16;0.4847645;-0.6490025;0.3822715;0.4445983;0;0;1;297;3994;924;2;0.6980609;-0.7097078;0.06786703;-0.06648199;0;0;0;-779;3992;-53;8;0.4265928;-0.4515235;0.4847645;0.6157503;0;1;1;-323;4071;775;0.5318081;2.803299;-0.1282326;0.537657;3.336318;-0.2443281;0.5427936;3.804411;-0.3483523;0.4991488;4.477485;-0.05933854;0.2206257;4.774889;0.03406277;-0.1100148;4.599366;0.03687435;-0.8126169;5.188633;-0.09519917;-0.8099892;6.098619;-0.3592397;0.7398788;4.808562;0.03406322;1.038143;4.673823;0.03687555;1.797493;5.266784;0.04455793;2.100917;6.110893;-0.2607325;0.219547;2.760633;-0.1260289;0.1943612;1.304684;-0.2689804;0;0;0;0.219547;2.760633;-0.1260289;0.1943612;1.304684;-0.2689804;0;0;0
