SEP=;
index;label;RightUpperArm_boneIndex;RightUpperArm_quat9x_w;RightUpperArm_quat9x_x;RightUpperArm_quat9x_y;RightUpperArm_quat9x_z;RightUpperArm_gyroscope_x;RightUpperArm_gyroscope_y;RightUpperArm_gyroscope_z;RightUpperArm_accelerometer_x;RightUpperArm_accelerometer_y;RightUpperArm_accelerometer_z;RightLowerArm_boneIndex;RightLowerArm_quat9x_w;RightLowerArm_quat9x_x;RightLowerArm_quat9x_y;RightLowerArm_quat9x_z;RightLowerArm_gyroscope_x;RightLowerArm_gyroscope_y;RightLowerArm_gyroscope_z;RightLowerArm_accelerometer_x;RightLowerArm_accelerometer_y;RightLowerArm_accelerometer_z;LeftUpperArm_boneIndex;LeftUpperArm_quat9x_w;LeftUpperArm_quat9x_x;LeftUpperArm_quat9x_y;LeftUpperArm_quat9x_z;LeftUpperArm_gyroscope_x;LeftUpperArm_gyroscope_y;LeftUpperArm_gyroscope_z;LeftUpperArm_accelerometer_x;LeftUpperArm_accelerometer_y;LeftUpperArm_accelerometer_z;LeftLowerArm_boneIndex;LeftLowerArm_quat9x_w;LeftLowerArm_quat9x_x;LeftLowerArm_quat9x_y;LeftLowerArm_quat9x_z;LeftLowerArm_gyroscope_x;LeftLowerArm_gyroscope_y;LeftLowerArm_gyroscope_z;LeftLowerArm_accelerometer_x;LeftLowerArm_accelerometer_y;LeftLowerArm_accelerometer_z;Chest_boneIndex;Chest_quat9x_w;Chest_quat9x_x;Chest_quat9x_y;Chest_quat9x_z;Chest_gyroscope_x;Chest_gyroscope_y;Chest_gyroscope_z;Chest_accelerometer_x;Chest_accelerometer_y;Chest_accelerometer_z;Spine_boneIndex;Spine_quat9x_w;Spine_quat9x_x;Spine_quat9x_y;Spine_quat9x_z;Spine_gyroscope_x;Spine_gyroscope_y;Spine_gyroscope_z;Spine_accelerometer_x;Spine_accelerometer_y;Spine_accelerometer_z;RightUpperLeg_boneIndex;RightUpperLeg_quat9x_w;RightUpperLeg_quat9x_x;RightUpperLeg_quat9x_y;RightUpperLeg_quat9x_z;RightUpperLeg_gyroscope_x;RightUpperLeg_gyroscope_y;RightUpperLeg_gyroscope_z;RightUpperLeg_accelerometer_x;RightUpperLeg_accelerometer_y;RightUpperLeg_accelerometer_z;RightLowerLeg_boneIndex;RightLowerLeg_quat9x_w;RightLowerLeg_quat9x_x;RightLowerLeg_quat9x_y;RightLowerLeg_quat9x_z;RightLowerLeg_gyroscope_x;RightLowerLeg_gyroscope_y;RightLowerLeg_gyroscope_z;RightLowerLeg_accelerometer_x;RightLowerLeg_accelerometer_y;RightLowerLeg_accelerometer_z;LeftUpperLeg_boneIndex;LeftUpperLeg_quat9x_w;LeftUpperLeg_quat9x_x;LeftUpperLeg_quat9x_y;LeftUpperLeg_quat9x_z;LeftUpperLeg_gyroscope_x;LeftUpperLeg_gyroscope_y;LeftUpperLeg_gyroscope_z;LeftUpperLeg_accelerometer_x;LeftUpperLeg_accelerometer_y;LeftUpperLeg_accelerometer_z;LeftLowerLeg_boneIndex;LeftLowerLeg_quat9x_w;LeftLowerLeg_quat9x_x;LeftLowerLeg_quat9x_y;LeftLowerLeg_quat9x_z;LeftLowerLeg_gyroscope_x;LeftLowerLeg_gyroscope_y;LeftLowerLeg_gyroscope_z;LeftLowerLeg_accelerometer_x;LeftLowerLeg_accelerometer_y;LeftLowerLeg_accelerometer_z;pelvis_x;pelvis_y;pelvis_z;lowerSpine_x;lowerSpine_y;lowerSpine_z;middleSpine_x;middleSpine_y;middleSpine_z;upperSpine_x;upperSpine_y;upperSpine_z;rightClavicle_x;rightClavicle_y;rightClavicle_z;rightShoulder_x;rightShoulder_y;rightShoulder_z;rightElbow_x;rightElbow_y;rightElbow_z;rightWrist_x;rightWrist_y;rightWrist_z;leftClavicle_x;leftClavicle_y;leftClavicle_z;leftShoulder_x;leftShoulder_y;leftShoulder_z;leftElbow_x;leftElbow_y;leftElbow_z;leftWrist_x;leftWrist_y;leftWrist_z;rightHip_x;rightHip_y;rightHip_z;rightKnee_x;rightKnee_y;rightKnee_z;rightAnkle_x;rightAnkle_y;rightAnkle_z;leftHip_x;leftHip_y;leftHip_z;leftKnee_x;leftKnee_y;leftKnee_z;leftAnkle_x;leftAnkle_y;leftAnkle_z;
153648.4825;NotLabelled;16384;-0.2409972;-0.4224377;-0.8209535;0.299169;-1;0;-2;2180;-2826;1831;65536;0.5950443;0.4487534;0.5443213;-0.3850415;1;2;0;-49;-3928;-1230;8192;0.8985174;0.3268698;0.1066482;-0.2728532;0;1;0;-1708;-2633;2573;32768;0.6994652;0.4196676;0.4570637;-0.3545706;0;3;2;495;-3675;-1484;256;0.4127424;-0.5960943;-0.3642659;-0.5844875;2;0;0;-187;3786;-1607;128;0.4695291;-0.5546224;-0.5027701;-0.468144;-1;2;-1;-483;4093;276;4;-0.033241;0.02493075;-0.7161817;-0.6966759;0;0;0;-21;4088;152;16;0.466759;-0.6039702;0.4362881;0.4764543;-1;0;-1;355;4042;824;2;0.6939058;-0.7175826;0.04155125;-0.04293629;0;-1;3;-495;4088;-129;8;0.4487534;-0.5041551;0.4556787;0.580349;2;2;0;-309;4085;671;0.5107363;2.823906;-0.1994177;0.5165987;3.358148;-0.309751;0.5217472;3.827336;-0.4087147;0.489237;4.50088;-0.1193281;0.2156683;4.802794;-0.02575271;-0.1178271;4.632756;-0.02302589;-0.7634147;5.276109;-0.1892873;-0.7442907;6.179293;-0.4751002;0.7354069;4.827883;-0.02575243;1.031404;4.688232;-0.02302521;1.76921;5.307376;0.001007557;2.003524;6.170733;-0.3112378;0.1984751;2.781219;-0.1977116;0.15988;1.318709;-0.2185639;0;0;0;0.1984751;2.781219;-0.1977116;0.15988;1.318709;-0.2185639;0;0;0
153669.4675;NotLabelled;16384;-0.2409972;-0.4224377;-0.8209535;0.299169;-1;0;-2;2180;-2826;1831;65536;0.5950443;0.4487534;0.5443213;-0.3850415;1;2;0;-49;-3928;-1230;8192;0.8985174;0.3268698;0.1066482;-0.2728532;0;1;0;-1708;-2633;2573;32768;0.6994652;0.4196676;0.4570637;-0.3545706;0;3;2;495;-3675;-1484;256;0.4127424;-0.5960943;-0.3642659;-0.5844875;2;0;0;-187;3786;-1607;128;0.4695291;-0.5546224;-0.5027701;-0.468144;-1;2;-1;-483;4093;276;4;-0.033241;0.02493075;-0.7161817;-0.6966759;0;0;0;-21;4088;152;16;0.466759;-0.6039702;0.4362881;0.4764543;-1;0;-1;355;4042;824;2;0.6939058;-0.7175826;0.04155125;-0.04293629;0;-1;3;-495;4088;-129;8;0.4487534;-0.5041551;0.4556787;0.580349;2;2;0;-309;4085;671;0.5107363;2.823906;-0.1994177;0.5165987;3.358148;-0.309751;0.5217472;3.827336;-0.4087147;0.489237;4.50088;-0.1193281;0.2156683;4.802794;-0.02575271;-0.1178271;4.632756;-0.02302589;-0.7634147;5.276109;-0.1892873;-0.7442907;6.179293;-0.4751002;0.7354069;4.827883;-0.02575243;1.031404;4.688232;-0.02302521;1.76921;5.307376;0.001007557;2.003524;6.170733;-0.3112378;0.1984751;2.781219;-0.1977116;0.15988;1.318709;-0.2185639;0;0;0;0.1984751;2.781219;-0.1977116;0.15988;1.318709;-0.2185639;0;0;0
153690.4696;NotLabelled;16384;-0.2409972;-0.4224377;-0.8209535;0.299169;-1;0;-2;2180;-2826;1831;65536;0.5950443;0.4487534;0.5443213;-0.3850415;1;2;0;-49;-3928;-1230;8192;0.8985174;0.3268698;0.1066482;-0.2728532;0;1;0;-1708;-2633;2573;32768;0.6994652;0.4196676;0.4570637;-0.3545706;0;3;2;495;-3675;-1484;256;0.4127424;-0.5960943;-0.3642659;-0.5844875;2;0;0;-187;3786;-1607;128;0.4695291;-0.5546224;-0.5027701;-0.468144;-1;2;-1;-483;4093;276;4;-0.033241;0.02493075;-0.7161817;-0.6966759;0;0;0;-21;4088;152;16;0.466759;-0.6039702;0.4362881;0.4764543;-1;0;-1;355;4042;824;2;0.6939058;-0.7175826;0.04155125;-0.04293629;0;-1;3;-495;4088;-129;8;0.4487534;-0.5041551;0.4556787;0.580349;2;2;0;-309;4085;671;0.5107363;2.823906;-0.1994177;0.5165987;3.358148;-0.309751;0.5217472;3.827336;-0.4087147;0.489237;4.50088;-0.1193281;0.2156683;4.802794;-0.02575271;-0.1178271;4.632756;-0.02302589;-0.7634147;5.276109;-0.1892873;-0.7442907;6.179293;-0.4751002;0.7354069;4.827883;-0.02575243;1.031404;4.688232;-0.02302521;1.76921;5.307376;0.001007557;2.003524;6.170733;-0.3112378;0.1984751;2.781219;-0.1977116;0.15988;1.318709;-0.2185639;0;0;0;0.1984751;2.781219;-0.1977116;0.15988;1.318709;-0.2185639;0;0;0
153710.5645;NotLabelled;16384;-0.2409972;-0.4224377;-0.8209535;0.299169;-1;0;-2;2180;-2826;1831;65536;0.5950443;0.4487534;0.5443213;-0.3850415;1;2;0;-49;-3928;-1230;8192;0.8985174;0.3268698;0.1066482;-0.2728532;0;1;0;-1708;-2633;2573;32768;0.6994652;0.4196676;0.4570637;-0.3545706;0;3;2;495;-3675;-1484;256;0.4127424;-0.5960943;-0.3642659;-0.5844875;2;0;0;-187;3786;-1607;128;0.4695291;-0.5546224;-0.5027701;-0.468144;-1;2;-1;-483;4093;276;4;-0.033241;0.02493075;-0.7161817;-0.6966759;0;0;0;-21;4088;152;16;0.466759;-0.6039702;0.4362881;0.4764543;-1;0;-1;355;4042;824;2;0.6939058;-0.7175826;0.04155125;-0.04293629;0;-1;3;-495;4088;-129;8;0.4487534;-0.5041551;0.4556787;0.580349;2;2;0;-309;4085;671;0.5107363;2.823906;-0.1994177;0.5165987;3.358148;-0.309751;0.5217472;3.827336;-0.4087147;0.489237;4.50088;-0.1193281;0.2156683;4.802794;-0.02575271;-0.1178271;4.632756;-0.02302589;-0.7634147;5.276109;-0.1892873;-0.7442907;6.179293;-0.4751002;0.7354069;4.827883;-0.02575243;1.031404;4.688232;-0.02302521;1.76921;5.307376;0.001007557;2.003524;6.170733;-0.3112378;0.1984751;2.781219;-0.1977116;0.15988;1.318709;-0.2185639;0;0;0;0.1984751;2.781219;-0.1977116;0.15988;1.318709;-0.2185639;0;0;0
153731.4731;NotLabelled;16384;-0.2409972;-0.4224377;-0.8209535;0.299169;-1;0;-2;2180;-2826;1831;65536;0.5950443;0.4487534;0.5443213;-0.3850415;1;2;0;-49;-3928;-1230;8192;0.8985174;0.3268698;0.1066482;-0.2728532;0;1;0;-1708;-2633;2573;32768;0.6994652;0.4196676;0.4570637;-0.3545706;0;3;2;495;-3675;-1484;256;0.4127424;-0.5960943;-0.3642659;-0.5844875;2;0;0;-187;3786;-1607;128;0.4695291;-0.5546224;-0.5027701;-0.468144;-1;2;-1;-483;4093;276;4;-0.033241;0.02493075;-0.7161817;-0.6966759;0;0;0;-21;4088;152;16;0.466759;-0.6039702;0.4362881;0.4764543;-1;0;-1;355;4042;824;2;0.6939058;-0.7175826;0.04155125;-0.04293629;0;-1;3;-495;4088;-129;8;0.4487534;-0.5041551;0.4556787;0.580349;2;2;0;-309;4085;671;0.5107363;2.823906;-0.1994177;0.5165987;3.358148;-0.309751;0.5217472;3.827336;-0.4087147;0.489237;4.50088;-0.1193281;0.2156683;4.802794;-0.02575271;-0.1178271;4.632756;-0.02302589;-0.7634147;5.276109;-0.1892873;-0.7442907;6.179293;-0.4751002;0.7354069;4.827883;-0.02575243;1.031404;4.688232;-0.02302521;1.76921;5.307376;0.001007557;2.003524;6.170733;-0.3112378;0.1984751;2.781219;-0.1977116;0.15988;1.318709;-0.2185639;0;0;0;0.1984751;2.781219;-0.1977116;0.15988;1.318709;-0.2185639;0;0;0
153752.458;NotLabelled;16384;-0.2409972;-0.4224377;-0.8209535;0.299169;-1;0;-2;2180;-2826;1831;65536;0.5950443;0.4487534;0.5443213;-0.3850415;1;2;0;-49;-3928;-1230;8192;0.8985174;0.3268698;0.1066482;-0.2728532;0;1;0;-1708;-2633;2573;32768;0.6994652;0.4196676;0.4570637;-0.3545706;0;3;2;495;-3675;-1484;256;0.4127424;-0.5960943;-0.3642659;-0.5844875;2;0;0;-187;3786;-1607;128;0.4695291;-0.5546224;-0.5027701;-0.468144;-1;2;-1;-483;4093;276;4;-0.033241;0.02493075;-0.7161817;-0.6966759;0;0;0;-21;4088;152;16;0.466759;-0.6039702;0.4362881;0.4764543;-1;0;-1;355;4042;824;2;0.6939058;-0.7175826;0.04155125;-0.04293629;0;-1;3;-495;4088;-129;8;0.4487534;-0.5041551;0.4556787;0.580349;2;2;0;-309;4085;671;0.5107363;2.823906;-0.1994177;0.5165987;3.358148;-0.309751;0.5217472;3.827336;-0.4087147;0.489237;4.50088;-0.1193281;0.2156683;4.802794;-0.02575271;-0.1178271;4.632756;-0.02302589;-0.7634147;5.276109;-0.1892873;-0.7442907;6.179293;-0.4751002;0.7354069;4.827883;-0.02575243;1.031404;4.688232;-0.02302521;1.76921;5.307376;0.001007557;2.003524;6.170733;-0.3112378;0.1984751;2.781219;-0.1977116;0.15988;1.318709;-0.2185639;0;0;0;0.1984751;2.781219;-0.1977116;0.15988;1.318709;-0.2185639;0;0;0
153772.4794;NotLabelled;16384;-0.2409972;-0.4224377;-0.8209535;0.299169;-1;0;-2;2180;-2826;1831;65536;0.5950443;0.4487534;0.5443213;-0.3850415;1;2;0;-49;-3928;-1230;8192;0.8985174;0.3268698;0.1066482;-0.2728532;0;1;0;-1708;-2633;2573;32768;0.6994652;0.4196676;0.4570637;-0.3545706;0;3;2;495;-3675;-1484;256;0.4127424;-0.5960943;-0.3642659;-0.5844875;2;0;0;-187;3786;-1607;128;0.4695291;-0.5546224;-0.5027701;-0.468144;-1;2;-1;-483;4093;276;4;-0.033241;0.02493075;-0.7161817;-0.6966759;0;0;0;-21;4088;152;16;0.466759;-0.6039702;0.4362881;0.4764543;-1;0;-1;355;4042;824;2;0.6939058;-0.7175826;0.04155125;-0.04293629;0;-1;3;-495;4088;-129;8;0.4487534;-0.5041551;0.4556787;0.580349;2;2;0;-309;4085;671;0.5107363;2.823906;-0.1994177;0.5165987;3.358148;-0.309751;0.5217472;3.827336;-0.4087147;0.489237;4.50088;-0.1193281;0.2156683;4.802794;-0.02575271;-0.1178271;4.632756;-0.02302589;-0.7634147;5.276109;-0.1892873;-0.7442907;6.179293;-0.4751002;0.7354069;4.827883;-0.02575243;1.031404;4.688232;-0.02302521;1.76921;5.307376;0.001007557;2.003524;6.170733;-0.3112378;0.1984751;2.781219;-0.1977116;0.15988;1.318709;-0.2185639;0;0;0;0.1984751;2.781219;-0.1977116;0.15988;1.318709;-0.2185639;0;0;0
153792.5555;NotLabelled;16384;-0.2409972;-0.4224377;-0.8209535;0.299169;-1;0;-2;2180;-2826;1831;65536;0.5950443;0.4487534;0.5443213;-0.3850415;1;2;0;-49;-3928;-1230;8192;0.8985174;0.3268698;0.1066482;-0.2728532;0;1;0;-1708;-2633;2573;32768;0.6994652;0.4196676;0.4570637;-0.3545706;0;3;2;495;-3675;-1484;256;0.4127424;-0.5960943;-0.3642659;-0.5844875;2;0;0;-187;3786;-1607;128;0.4695291;-0.5546224;-0.5027701;-0.468144;-1;2;-1;-483;4093;276;4;-0.033241;0.02493075;-0.7161817;-0.6966759;0;0;0;-21;4088;152;16;0.466759;-0.6039702;0.4362881;0.4764543;-1;0;-1;355;4042;824;2;0.6939058;-0.7175826;0.04155125;-0.04293629;0;-1;3;-495;4088;-129;8;0.4487534;-0.5041551;0.4556787;0.580349;2;2;0;-309;4085;671;0.5107363;2.823906;-0.1994177;0.5165987;3.358148;-0.309751;0.5217472;3.827336;-0.4087147;0.489237;4.50088;-0.1193281;0.2156683;4.802794;-0.02575271;-0.1178271;4.632756;-0.02302589;-0.7634147;5.276109;-0.1892873;-0.7442907;6.179293;-0.4751002;0.7354069;4.827883;-0.02575243;1.031404;4.688232;-0.02302521;1.76921;5.307376;0.001007557;2.003524;6.170733;-0.3112378;0.1984751;2.781219;-0.1977116;0.15988;1.318709;-0.2185639;0;0;0;0.1984751;2.781219;-0.1977116;0.15988;1.318709;-0.2185639;0;0;0
153812.5538;NotLabelled;16384;-0.2409972;-0.4224377;-0.8209535;0.299169;-1;0;-2;2180;-2826;1831;65536;0.5950443;0.4487534;0.5443213;-0.3850415;1;2;0;-49;-3928;-1230;8192;0.8985174;0.3268698;0.1066482;-0.2728532;0;1;0;-1708;-2633;2573;32768;0.6994652;0.4196676;0.4570637;-0.3545706;0;3;2;495;-3675;-1484;256;0.4127424;-0.5960943;-0.3642659;-0.5844875;2;0;0;-187;3786;-1607;128;0.4695291;-0.5546224;-0.5027701;-0.468144;-1;2;-1;-483;4093;276;4;-0.033241;0.02493075;-0.7161817;-0.6966759;0;0;0;-21;4088;152;16;0.466759;-0.6039702;0.4362881;0.4764543;-1;0;-1;355;4042;824;2;0.6939058;-0.7175826;0.04155125;-0.04293629;0;-1;3;-495;4088;-129;8;0.4487534;-0.5041551;0.4556787;0.580349;2;2;0;-309;4085;671;0.5107363;2.823906;-0.1994177;0.5165987;3.358148;-0.309751;0.5217472;3.827336;-0.4087147;0.489237;4.50088;-0.1193281;0.2156683;4.802794;-0.02575271;-0.1178271;4.632756;-0.02302589;-0.7634147;5.276109;-0.1892873;-0.7442907;6.179293;-0.4751002;0.7354069;4.827883;-0.02575243;1.031404;4.688232;-0.02302521;1.76921;5.307376;0.001007557;2.003524;6.170733;-0.3112378;0.1984751;2.781219;-0.1977116;0.15988;1.318709;-0.2185639;0;0;0;0.1984751;2.781219;-0.1977116;0.15988;1.318709;-0.2185639;0;0;0
153834.4635;NotLabelled;16384;-0.2409972;-0.4224377;-0.8209535;0.299169;-1;0;-2;2180;-2826;1831;65536;0.5950443;0.4487534;0.5443213;-0.3850415;1;2;0;-49;-3928;-1230;8192;0.8985174;0.3268698;0.1066482;-0.2728532;0;1;0;-1708;-2633;2573;32768;0.6994652;0.4196676;0.4570637;-0.3545706;0;3;2;495;-3675;-1484;256;0.4127424;-0.5960943;-0.3642659;-0.5844875;2;0;0;-187;3786;-1607;128;0.4695291;-0.5546224;-0.5027701;-0.468144;-1;2;-1;-483;4093;276;4;-0.033241;0.02493075;-0.7161817;-0.6966759;0;0;0;-21;4088;152;16;0.466759;-0.6039702;0.4362881;0.4764543;-1;0;-1;355;4042;824;2;0.6939058;-0.7175826;0.04155125;-0.04293629;0;-1;3;-495;4088;-129;8;0.4487534;-0.5041551;0.4556787;0.580349;2;2;0;-309;4085;671;0.5107363;2.823906;-0.1994177;0.5165987;3.358148;-0.309751;0.5217472;3.827336;-0.4087147;0.489237;4.50088;-0.1193281;0.2156683;4.802794;-0.02575271;-0.1178271;4.632756;-0.02302589;-0.7634147;5.276109;-0.1892873;-0.7442907;6.179293;-0.4751002;0.7354069;4.827883;-0.02575243;1.031404;4.688232;-0.02302521;1.76921;5.307376;0.001007557;2.003524;6.170733;-0.3112378;0.1984751;2.781219;-0.1977116;0.15988;1.318709;-0.2185639;0;0;0;0.1984751;2.781219;-0.1977116;0.15988;1.318709;-0.2185639;0;0;0
153854.6724;NotLabelled;16384;-0.2409972;-0.4224377;-0.8209535;0.299169;-1;0;-2;2180;-2826;1831;65536;0.5950443;0.4487534;0.5443213;-0.3850415;1;2;0;-49;-3928;-1230;8192;0.8985174;0.3268698;0.1066482;-0.2728532;0;1;0;-1708;-2633;2573;32768;0.6994652;0.4196676;0.4570637;-0.3545706;0;3;2;495;-3675;-1484;256;0.4127424;-0.5960943;-0.3642659;-0.5844875;2;0;0;-187;3786;-1607;128;0.4695291;-0.5546224;-0.5027701;-0.468144;-1;2;-1;-483;4093;276;4;-0.033241;0.02493075;-0.7161817;-0.6966759;0;0;0;-21;4088;152;16;0.466759;-0.6039702;0.4362881;0.4764543;-1;0;-1;355;4042;824;2;0.6939058;-0.7175826;0.04155125;-0.04293629;0;-1;3;-495;4088;-129;8;0.4487534;-0.5041551;0.4556787;0.580349;2;2;0;-309;4085;671;0.5107363;2.823906;-0.1994177;0.5165987;3.358148;-0.309751;0.5217472;3.827336;-0.4087147;0.489237;4.50088;-0.1193281;0.2156683;4.802794;-0.02575271;-0.1178271;4.632756;-0.02302589;-0.7634147;5.276109;-0.1892873;-0.7442907;6.179293;-0.4751002;0.7354069;4.827883;-0.02575243;1.031404;4.688232;-0.02302521;1.76921;5.307376;0.001007557;2.003524;6.170733;-0.3112378;0.1984751;2.781219;-0.1977116;0.15988;1.318709;-0.2185639;0;0;0;0.1984751;2.781219;-0.1977116;0.15988;1.318709;-0.2185639;0;0;0
153875.0208;NotLabelled;16384;-0.2409972;-0.4224377;-0.8209535;0.299169;-1;0;-2;2180;-2826;1831;65536;0.5950443;0.4487534;0.5443213;-0.3850415;1;2;0;-49;-3928;-1230;8192;0.8985174;0.3268698;0.1066482;-0.2728532;0;1;0;-1708;-2633;2573;32768;0.6994652;0.4196676;0.4570637;-0.3545706;0;3;2;495;-3675;-1484;256;0.4127424;-0.5960943;-0.3642659;-0.5844875;2;0;0;-187;3786;-1607;128;0.4695291;-0.5546224;-0.5027701;-0.468144;-1;2;-1;-483;4093;276;4;-0.033241;0.02493075;-0.7161817;-0.6966759;0;0;0;-21;4088;152;16;0.466759;-0.6039702;0.4362881;0.4764543;-1;0;-1;355;4042;824;2;0.6939058;-0.7175826;0.04155125;-0.04293629;0;-1;3;-495;4088;-129;8;0.4487534;-0.5041551;0.4556787;0.580349;2;2;0;-309;4085;671;0.5107363;2.823906;-0.1994177;0.5165987;3.358148;-0.309751;0.5217472;3.827336;-0.4087147;0.489237;4.50088;-0.1193281;0.2156683;4.802794;-0.02575271;-0.1178271;4.632756;-0.02302589;-0.7634147;5.276109;-0.1892873;-0.7442907;6.179293;-0.4751002;0.7354069;4.827883;-0.02575243;1.031404;4.688232;-0.02302521;1.76921;5.307376;0.001007557;2.003524;6.170733;-0.3112378;0.1984751;2.781219;-0.1977116;0.15988;1.318709;-0.2185639;0;0;0;0.1984751;2.781219;-0.1977116;0.15988;1.318709;-0.2185639;0;0;0
153915.7428;NotLabelled;16384;-0.2409972;-0.4224377;-0.8209535;0.299169;-1;0;-2;2180;-2826;1831;65536;0.5950443;0.4487534;0.5443213;-0.3850415;1;2;0;-49;-3928;-1230;8192;0.8985174;0.3268698;0.1066482;-0.2728532;0;1;0;-1708;-2633;2573;32768;0.6994652;0.4196676;0.4570637;-0.3545706;0;3;2;495;-3675;-1484;256;0.4127424;-0.5960943;-0.3642659;-0.5844875;2;0;0;-187;3786;-1607;128;0.4695291;-0.5546224;-0.5027701;-0.468144;-1;2;-1;-483;4093;276;4;-0.033241;0.02493075;-0.7161817;-0.6966759;0;0;0;-21;4088;152;16;0.466759;-0.6039702;0.4362881;0.4764543;-1;0;-1;355;4042;824;2;0.6939058;-0.7175826;0.04155125;-0.04293629;0;-1;3;-495;4088;-129;8;0.4487534;-0.5041551;0.4556787;0.580349;2;2;0;-309;4085;671;0.5107363;2.823906;-0.1994177;0.5165987;3.358148;-0.309751;0.5217472;3.827336;-0.4087147;0.489237;4.50088;-0.1193281;0.2156683;4.802794;-0.02575271;-0.1178271;4.632756;-0.02302589;-0.7634147;5.276109;-0.1892873;-0.7442907;6.179293;-0.4751002;0.7354069;4.827883;-0.02575243;1.031404;4.688232;-0.02302521;1.76921;5.307376;0.001007557;2.003524;6.170733;-0.3112378;0.1984751;2.781219;-0.1977116;0.15988;1.318709;-0.2185639;0;0;0;0.1984751;2.781219;-0.1977116;0.15988;1.318709;-0.2185639;0;0;0
153936.4672;NotLabelled;16384;-0.2409972;-0.4224377;-0.8209535;0.299169;-1;0;-2;2180;-2826;1831;65536;0.5950443;0.4487534;0.5443213;-0.3850415;1;2;0;-49;-3928;-1230;8192;0.8985174;0.3268698;0.1066482;-0.2728532;0;1;0;-1708;-2633;2573;32768;0.6994652;0.4196676;0.4570637;-0.3545706;0;3;2;495;-3675;-1484;256;0.4127424;-0.5960943;-0.3642659;-0.5844875;2;0;0;-187;3786;-1607;128;0.4695291;-0.5546224;-0.5027701;-0.468144;-1;2;-1;-483;4093;276;4;-0.033241;0.02493075;-0.7161817;-0.6966759;0;0;0;-21;4088;152;16;0.466759;-0.6039702;0.4362881;0.4764543;-1;0;-1;355;4042;824;2;0.6939058;-0.7175826;0.04155125;-0.04293629;0;-1;3;-495;4088;-129;8;0.4487534;-0.5041551;0.4556787;0.580349;2;2;0;-309;4085;671;0.5107363;2.823906;-0.1994177;0.5165987;3.358148;-0.309751;0.5217472;3.827336;-0.4087147;0.489237;4.50088;-0.1193281;0.2156683;4.802794;-0.02575271;-0.1178271;4.632756;-0.02302589;-0.7634147;5.276109;-0.1892873;-0.7442907;6.179293;-0.4751002;0.7354069;4.827883;-0.02575243;1.031404;4.688232;-0.02302521;1.76921;5.307376;0.001007557;2.003524;6.170733;-0.3112378;0.1984751;2.781219;-0.1977116;0.15988;1.318709;-0.2185639;0;0;0;0.1984751;2.781219;-0.1977116;0.15988;1.318709;-0.2185639;0;0;0
153956.5121;NotLabelled;16384;-0.2409972;-0.4224377;-0.8209535;0.299169;-1;0;-2;2180;-2826;1831;65536;0.5950443;0.4487534;0.5443213;-0.3850415;1;2;0;-49;-3928;-1230;8192;0.8985174;0.3268698;0.1066482;-0.2728532;0;1;0;-1708;-2633;2573;32768;0.6994652;0.4196676;0.4570637;-0.3545706;0;3;2;495;-3675;-1484;256;0.4127424;-0.5960943;-0.3642659;-0.5844875;2;0;0;-187;3786;-1607;128;0.4695291;-0.5546224;-0.5027701;-0.468144;-1;2;-1;-483;4093;276;4;-0.033241;0.02493075;-0.7161817;-0.6966759;0;0;0;-21;4088;152;16;0.466759;-0.6039702;0.4362881;0.4764543;-1;0;-1;355;4042;824;2;0.6939058;-0.7175826;0.04155125;-0.04293629;0;-1;3;-495;4088;-129;8;0.4487534;-0.5041551;0.4556787;0.580349;2;2;0;-309;4085;671;0.5107363;2.823906;-0.1994177;0.5165987;3.358148;-0.309751;0.5217472;3.827336;-0.4087147;0.489237;4.50088;-0.1193281;0.2156683;4.802794;-0.02575271;-0.1178271;4.632756;-0.02302589;-0.7634147;5.276109;-0.1892873;-0.7442907;6.179293;-0.4751002;0.7354069;4.827883;-0.02575243;1.031404;4.688232;-0.02302521;1.76921;5.307376;0.001007557;2.003524;6.170733;-0.3112378;0.1984751;2.781219;-0.1977116;0.15988;1.318709;-0.2185639;0;0;0;0.1984751;2.781219;-0.1977116;0.15988;1.318709;-0.2185639;0;0;0
153978.4652;NotLabelled;16384;-0.2409972;-0.4224377;-0.8209535;0.299169;-1;0;-2;2180;-2826;1831;65536;0.5950443;0.4487534;0.5443213;-0.3850415;1;2;0;-49;-3928;-1230;8192;0.8985174;0.3268698;0.1066482;-0.2728532;0;1;0;-1708;-2633;2573;32768;0.6994652;0.4196676;0.4570637;-0.3545706;0;3;2;495;-3675;-1484;256;0.4127424;-0.5960943;-0.3642659;-0.5844875;2;0;0;-187;3786;-1607;128;0.4695291;-0.5546224;-0.5027701;-0.468144;-1;2;-1;-483;4093;276;4;-0.033241;0.02493075;-0.7161817;-0.6966759;0;0;0;-21;4088;152;16;0.466759;-0.6039702;0.4362881;0.4764543;-1;0;-1;355;4042;824;2;0.6939058;-0.7175826;0.04155125;-0.04293629;0;-1;3;-495;4088;-129;8;0.4487534;-0.5041551;0.4556787;0.580349;2;2;0;-309;4085;671;0.5107363;2.823906;-0.1994177;0.5165987;3.358148;-0.309751;0.5217472;3.827336;-0.4087147;0.489237;4.50088;-0.1193281;0.2156683;4.802794;-0.02575271;-0.1178271;4.632756;-0.02302589;-0.7634147;5.276109;-0.1892873;-0.7442907;6.179293;-0.4751002;0.7354069;4.827883;-0.02575243;1.031404;4.688232;-0.02302521;1.76921;5.307376;0.001007557;2.003524;6.170733;-0.3112378;0.1984751;2.781219;-0.1977116;0.15988;1.318709;-0.2185639;0;0;0;0.1984751;2.781219;-0.1977116;0.15988;1.318709;-0.2185639;0;0;0
153998.6691;NotLabelled;16384;-0.2409972;-0.4224377;-0.8209535;0.299169;-1;0;-2;2180;-2826;1831;65536;0.5950443;0.4487534;0.5443213;-0.3850415;1;2;0;-49;-3928;-1230;8192;0.8985174;0.3268698;0.1066482;-0.2728532;0;1;0;-1708;-2633;2573;32768;0.6994652;0.4196676;0.4570637;-0.3545706;0;3;2;495;-3675;-1484;256;0.4127424;-0.5960943;-0.3642659;-0.5844875;2;0;0;-187;3786;-1607;128;0.4695291;-0.5546224;-0.5027701;-0.468144;-1;2;-1;-483;4093;276;4;-0.033241;0.02493075;-0.7161817;-0.6966759;0;0;0;-21;4088;152;16;0.466759;-0.6039702;0.4362881;0.4764543;-1;0;-1;355;4042;824;2;0.6939058;-0.7175826;0.04155125;-0.04293629;0;-1;3;-495;4088;-129;8;0.4487534;-0.5041551;0.4556787;0.580349;2;2;0;-309;4085;671;0.5107363;2.823906;-0.1994177;0.5165987;3.358148;-0.309751;0.5217472;3.827336;-0.4087147;0.489237;4.50088;-0.1193281;0.2156683;4.802794;-0.02575271;-0.1178271;4.632756;-0.02302589;-0.7634147;5.276109;-0.1892873;-0.7442907;6.179293;-0.4751002;0.7354069;4.827883;-0.02575243;1.031404;4.688232;-0.02302521;1.76921;5.307376;0.001007557;2.003524;6.170733;-0.3112378;0.1984751;2.781219;-0.1977116;0.15988;1.318709;-0.2185639;0;0;0;0.1984751;2.781219;-0.1977116;0.15988;1.318709;-0.2185639;0;0;0
154019.5355;NotLabelled;16384;-0.2409972;-0.4224377;-0.8209535;0.299169;-1;0;-2;2180;-2826;1831;65536;0.5950443;0.4487534;0.5443213;-0.3850415;1;2;0;-49;-3928;-1230;8192;0.8985174;0.3268698;0.1066482;-0.2728532;0;1;0;-1708;-2633;2573;32768;0.6994652;0.4196676;0.4570637;-0.3545706;0;3;2;495;-3675;-1484;256;0.4127424;-0.5960943;-0.3642659;-0.5844875;2;0;0;-187;3786;-1607;128;0.4695291;-0.5546224;-0.5027701;-0.468144;-1;2;-1;-483;4093;276;4;-0.033241;0.02493075;-0.7161817;-0.6966759;0;0;0;-21;4088;152;16;0.466759;-0.6039702;0.4362881;0.4764543;-1;0;-1;355;4042;824;2;0.6939058;-0.7175826;0.04155125;-0.04293629;0;-1;3;-495;4088;-129;8;0.4487534;-0.5041551;0.4556787;0.580349;2;2;0;-309;4085;671;0.5107363;2.823906;-0.1994177;0.5165987;3.358148;-0.309751;0.5217472;3.827336;-0.4087147;0.489237;4.50088;-0.1193281;0.2156683;4.802794;-0.02575271;-0.1178271;4.632756;-0.02302589;-0.7634147;5.276109;-0.1892873;-0.7442907;6.179293;-0.4751002;0.7354069;4.827883;-0.02575243;1.031404;4.688232;-0.02302521;1.76921;5.307376;0.001007557;2.003524;6.170733;-0.3112378;0.1984751;2.781219;-0.1977116;0.15988;1.318709;-0.2185639;0;0;0;0.1984751;2.781219;-0.1977116;0.15988;1.318709;-0.2185639;0;0;0
154040.4836;NotLabelled;16384;-0.2409972;-0.4224377;-0.8209535;0.299169;-1;0;-2;2180;-2826;1831;65536;0.5950443;0.4487534;0.5443213;-0.3850415;1;2;0;-49;-3928;-1230;8192;0.8985174;0.3268698;0.1066482;-0.2728532;0;1;0;-1708;-2633;2573;32768;0.6994652;0.4196676;0.4570637;-0.3545706;0;3;2;495;-3675;-1484;256;0.4127424;-0.5960943;-0.3642659;-0.5844875;2;0;0;-187;3786;-1607;128;0.4695291;-0.5546224;-0.5027701;-0.468144;-1;2;-1;-483;4093;276;4;-0.033241;0.02493075;-0.7161817;-0.6966759;0;0;0;-21;4088;152;16;0.466759;-0.6039702;0.4362881;0.4764543;-1;0;-1;355;4042;824;2;0.6939058;-0.7175826;0.04155125;-0.04293629;0;-1;3;-495;4088;-129;8;0.4487534;-0.5041551;0.4556787;0.580349;2;2;0;-309;4085;671;0.5107363;2.823906;-0.1994177;0.5165987;3.358148;-0.309751;0.5217472;3.827336;-0.4087147;0.489237;4.50088;-0.1193281;0.2156683;4.802794;-0.02575271;-0.1178271;4.632756;-0.02302589;-0.7634147;5.276109;-0.1892873;-0.7442907;6.179293;-0.4751002;0.7354069;4.827883;-0.02575243;1.031404;4.688232;-0.02302521;1.76921;5.307376;0.001007557;2.003524;6.170733;-0.3112378;0.1984751;2.781219;-0.1977116;0.15988;1.318709;-0.2185639;0;0;0;0.1984751;2.781219;-0.1977116;0.15988;1.318709;-0.2185639;0;0;0
154060.674;NotLabelled;16384;-0.2409972;-0.4224377;-0.8209535;0.299169;-1;0;-2;2180;-2826;1831;65536;0.5950443;0.4487534;0.5443213;-0.3850415;1;2;0;-49;-3928;-1230;8192;0.8985174;0.3268698;0.1066482;-0.2728532;0;1;0;-1708;-2633;2573;32768;0.6994652;0.4196676;0.4570637;-0.3545706;0;3;2;495;-3675;-1484;256;0.4127424;-0.5960943;-0.3642659;-0.5844875;2;0;0;-187;3786;-1607;128;0.4695291;-0.5546224;-0.5027701;-0.468144;-1;2;-1;-483;4093;276;4;-0.033241;0.02493075;-0.7161817;-0.6966759;0;0;0;-21;4088;152;16;0.466759;-0.6039702;0.4362881;0.4764543;-1;0;-1;355;4042;824;2;0.6939058;-0.7175826;0.04155125;-0.04293629;0;-1;3;-495;4088;-129;8;0.4487534;-0.5041551;0.4556787;0.580349;2;2;0;-309;4085;671;0.5107363;2.823906;-0.1994177;0.5165987;3.358148;-0.309751;0.5217472;3.827336;-0.4087147;0.489237;4.50088;-0.1193281;0.2156683;4.802794;-0.02575271;-0.1178271;4.632756;-0.02302589;-0.7634147;5.276109;-0.1892873;-0.7442907;6.179293;-0.4751002;0.7354069;4.827883;-0.02575243;1.031404;4.688232;-0.02302521;1.76921;5.307376;0.001007557;2.003524;6.170733;-0.3112378;0.1984751;2.781219;-0.1977116;0.15988;1.318709;-0.2185639;0;0;0;0.1984751;2.781219;-0.1977116;0.15988;1.318709;-0.2185639;0;0;0
154102.494;NotLabelled;16384;-0.2409972;-0.4224377;-0.8209535;0.299169;-1;0;-2;2180;-2826;1831;65536;0.5950443;0.4487534;0.5443213;-0.3850415;1;2;0;-49;-3928;-1230;8192;0.8985174;0.3268698;0.1066482;-0.2728532;0;1;0;-1708;-2633;2573;32768;0.6994652;0.4196676;0.4570637;-0.3545706;0;3;2;495;-3675;-1484;256;0.4127424;-0.5960943;-0.3642659;-0.5844875;2;0;0;-187;3786;-1607;128;0.4695291;-0.5546224;-0.5027701;-0.468144;-1;2;-1;-483;4093;276;4;-0.033241;0.02493075;-0.7161817;-0.6966759;0;0;0;-21;4088;152;16;0.466759;-0.6039702;0.4362881;0.4764543;-1;0;-1;355;4042;824;2;0.6939058;-0.7175826;0.04155125;-0.04293629;0;-1;3;-495;4088;-129;8;0.4487534;-0.5041551;0.4556787;0.580349;2;2;0;-309;4085;671;0.5107363;2.823906;-0.1994177;0.5165987;3.358148;-0.309751;0.5217472;3.827336;-0.4087147;0.489237;4.50088;-0.1193281;0.2156683;4.802794;-0.02575271;-0.1178271;4.632756;-0.02302589;-0.7634147;5.276109;-0.1892873;-0.7442907;6.179293;-0.4751002;0.7354069;4.827883;-0.02575243;1.031404;4.688232;-0.02302521;1.76921;5.307376;0.001007557;2.003524;6.170733;-0.3112378;0.1984751;2.781219;-0.1977116;0.15988;1.318709;-0.2185639;0;0;0;0.1984751;2.781219;-0.1977116;0.15988;1.318709;-0.2185639;0;0;0
154123.4869;NotLabelled;16384;-0.2409972;-0.4224377;-0.8209535;0.299169;-1;0;-2;2180;-2826;1831;65536;0.5950443;0.4487534;0.5443213;-0.3850415;1;2;0;-49;-3928;-1230;8192;0.8985174;0.3268698;0.1066482;-0.2728532;0;1;0;-1708;-2633;2573;32768;0.6994652;0.4196676;0.4570637;-0.3545706;0;3;2;495;-3675;-1484;256;0.4127424;-0.5960943;-0.3642659;-0.5844875;2;0;0;-187;3786;-1607;128;0.4695291;-0.5546224;-0.5027701;-0.468144;-1;2;-1;-483;4093;276;4;-0.033241;0.02493075;-0.7161817;-0.6966759;0;0;0;-21;4088;152;16;0.466759;-0.6039702;0.4362881;0.4764543;-1;0;-1;355;4042;824;2;0.6939058;-0.7175826;0.04155125;-0.04293629;0;-1;3;-495;4088;-129;8;0.4487534;-0.5041551;0.4556787;0.580349;2;2;0;-309;4085;671;0.5107363;2.823906;-0.1994177;0.5165987;3.358148;-0.309751;0.5217472;3.827336;-0.4087147;0.489237;4.50088;-0.1193281;0.2156683;4.802794;-0.02575271;-0.1178271;4.632756;-0.02302589;-0.7634147;5.276109;-0.1892873;-0.7442907;6.179293;-0.4751002;0.7354069;4.827883;-0.02575243;1.031404;4.688232;-0.02302521;1.76921;5.307376;0.001007557;2.003524;6.170733;-0.3112378;0.1984751;2.781219;-0.1977116;0.15988;1.318709;-0.2185639;0;0;0;0.1984751;2.781219;-0.1977116;0.15988;1.318709;-0.2185639;0;0;0
154143.4927;NotLabelled;16384;-0.2409972;-0.4224377;-0.8209535;0.299169;-1;0;-2;2180;-2826;1831;65536;0.5950443;0.4487534;0.5443213;-0.3850415;1;2;0;-49;-3928;-1230;8192;0.8985174;0.3268698;0.1066482;-0.2728532;0;1;0;-1708;-2633;2573;32768;0.6994652;0.4196676;0.4570637;-0.3545706;0;3;2;495;-3675;-1484;256;0.4127424;-0.5960943;-0.3642659;-0.5844875;2;0;0;-187;3786;-1607;128;0.4695291;-0.5546224;-0.5027701;-0.468144;-1;2;-1;-483;4093;276;4;-0.033241;0.02493075;-0.7161817;-0.6966759;0;0;0;-21;4088;152;16;0.466759;-0.6039702;0.4362881;0.4764543;-1;0;-1;355;4042;824;2;0.6939058;-0.7175826;0.04155125;-0.04293629;0;-1;3;-495;4088;-129;8;0.4487534;-0.5041551;0.4556787;0.580349;2;2;0;-309;4085;671;0.5107363;2.823906;-0.1994177;0.5165987;3.358148;-0.309751;0.5217472;3.827336;-0.4087147;0.489237;4.50088;-0.1193281;0.2156683;4.802794;-0.02575271;-0.1178271;4.632756;-0.02302589;-0.7634147;5.276109;-0.1892873;-0.7442907;6.179293;-0.4751002;0.7354069;4.827883;-0.02575243;1.031404;4.688232;-0.02302521;1.76921;5.307376;0.001007557;2.003524;6.170733;-0.3112378;0.1984751;2.781219;-0.1977116;0.15988;1.318709;-0.2185639;0;0;0;0.1984751;2.781219;-0.1977116;0.15988;1.318709;-0.2185639;0;0;0
154164.5545;NotLabelled;16384;-0.2409972;-0.4224377;-0.8209535;0.299169;-1;0;-2;2180;-2826;1831;65536;0.5950443;0.4487534;0.5443213;-0.3850415;1;2;0;-49;-3928;-1230;8192;0.8985174;0.3268698;0.1066482;-0.2728532;0;1;0;-1708;-2633;2573;32768;0.6994652;0.4196676;0.4570637;-0.3545706;0;3;2;495;-3675;-1484;256;0.4127424;-0.5960943;-0.3642659;-0.5844875;2;0;0;-187;3786;-1607;128;0.4695291;-0.5546224;-0.5027701;-0.468144;-1;2;-1;-483;4093;276;4;-0.033241;0.02493075;-0.7161817;-0.6966759;0;0;0;-21;4088;152;16;0.466759;-0.6039702;0.4362881;0.4764543;-1;0;-1;355;4042;824;2;0.6939058;-0.7175826;0.04155125;-0.04293629;0;-1;3;-495;4088;-129;8;0.4487534;-0.5041551;0.4556787;0.580349;2;2;0;-309;4085;671;0.5107363;2.823906;-0.1994177;0.5165987;3.358148;-0.309751;0.5217472;3.827336;-0.4087147;0.489237;4.50088;-0.1193281;0.2156683;4.802794;-0.02575271;-0.1178271;4.632756;-0.02302589;-0.7634147;5.276109;-0.1892873;-0.7442907;6.179293;-0.4751002;0.7354069;4.827883;-0.02575243;1.031404;4.688232;-0.02302521;1.76921;5.307376;0.001007557;2.003524;6.170733;-0.3112378;0.1984751;2.781219;-0.1977116;0.15988;1.318709;-0.2185639;0;0;0;0.1984751;2.781219;-0.1977116;0.15988;1.318709;-0.2185639;0;0;0
154185.7567;NotLabelled;16384;-0.2409972;-0.4224377;-0.8209535;0.299169;-1;0;-2;2180;-2826;1831;65536;0.5950443;0.4487534;0.5443213;-0.3850415;1;2;0;-49;-3928;-1230;8192;0.8985174;0.3268698;0.1066482;-0.2728532;0;1;0;-1708;-2633;2573;32768;0.6994652;0.4196676;0.4570637;-0.3545706;0;3;2;495;-3675;-1484;256;0.4127424;-0.5960943;-0.3642659;-0.5844875;2;0;0;-187;3786;-1607;128;0.4695291;-0.5546224;-0.5027701;-0.468144;-1;2;-1;-483;4093;276;4;-0.033241;0.02493075;-0.7161817;-0.6966759;0;0;0;-21;4088;152;16;0.466759;-0.6039702;0.4362881;0.4764543;-1;0;-1;355;4042;824;2;0.6939058;-0.7175826;0.04155125;-0.04293629;0;-1;3;-495;4088;-129;8;0.4487534;-0.5041551;0.4556787;0.580349;2;2;0;-309;4085;671;0.5107363;2.823906;-0.1994177;0.5165987;3.358148;-0.309751;0.5217472;3.827336;-0.4087147;0.489237;4.50088;-0.1193281;0.2156683;4.802794;-0.02575271;-0.1178271;4.632756;-0.02302589;-0.7634147;5.276109;-0.1892873;-0.7442907;6.179293;-0.4751002;0.7354069;4.827883;-0.02575243;1.031404;4.688232;-0.02302521;1.76921;5.307376;0.001007557;2.003524;6.170733;-0.3112378;0.1984751;2.781219;-0.1977116;0.15988;1.318709;-0.2185639;0;0;0;0.1984751;2.781219;-0.1977116;0.15988;1.318709;-0.2185639;0;0;0
154206.4768;NotLabelled;16384;-0.2409972;-0.4224377;-0.8209535;0.299169;-1;0;-2;2180;-2826;1831;65536;0.5950443;0.4487534;0.5443213;-0.3850415;1;2;0;-49;-3928;-1230;8192;0.8985174;0.3268698;0.1066482;-0.2728532;0;1;0;-1708;-2633;2573;32768;0.6994652;0.4196676;0.4570637;-0.3545706;0;3;2;495;-3675;-1484;256;0.4127424;-0.5960943;-0.3642659;-0.5844875;2;0;0;-187;3786;-1607;128;0.4695291;-0.5546224;-0.5027701;-0.468144;-1;2;-1;-483;4093;276;4;-0.033241;0.02493075;-0.7161817;-0.6966759;0;0;0;-21;4088;152;16;0.466759;-0.6039702;0.4362881;0.4764543;-1;0;-1;355;4042;824;2;0.6939058;-0.7175826;0.04155125;-0.04293629;0;-1;3;-495;4088;-129;8;0.4487534;-0.5041551;0.4556787;0.580349;2;2;0;-309;4085;671;0.5107363;2.823906;-0.1994177;0.5165987;3.358148;-0.309751;0.5217472;3.827336;-0.4087147;0.489237;4.50088;-0.1193281;0.2156683;4.802794;-0.02575271;-0.1178271;4.632756;-0.02302589;-0.7634147;5.276109;-0.1892873;-0.7442907;6.179293;-0.4751002;0.7354069;4.827883;-0.02575243;1.031404;4.688232;-0.02302521;1.76921;5.307376;0.001007557;2.003524;6.170733;-0.3112378;0.1984751;2.781219;-0.1977116;0.15988;1.318709;-0.2185639;0;0;0;0.1984751;2.781219;-0.1977116;0.15988;1.318709;-0.2185639;0;0;0
154226.5062;NotLabelled;16384;-0.2409972;-0.4224377;-0.8209535;0.299169;-1;0;-2;2180;-2826;1831;65536;0.5950443;0.4487534;0.5443213;-0.3850415;1;2;0;-49;-3928;-1230;8192;0.8985174;0.3268698;0.1066482;-0.2728532;0;1;0;-1708;-2633;2573;32768;0.6994652;0.4196676;0.4570637;-0.3545706;0;3;2;495;-3675;-1484;256;0.4127424;-0.5960943;-0.3642659;-0.5844875;2;0;0;-187;3786;-1607;128;0.4695291;-0.5546224;-0.5027701;-0.468144;-1;2;-1;-483;4093;276;4;-0.033241;0.02493075;-0.7161817;-0.6966759;0;0;0;-21;4088;152;16;0.466759;-0.6039702;0.4362881;0.4764543;-1;0;-1;355;4042;824;2;0.6939058;-0.7175826;0.04155125;-0.04293629;0;-1;3;-495;4088;-129;8;0.4487534;-0.5041551;0.4556787;0.580349;2;2;0;-309;4085;671;0.5107363;2.823906;-0.1994177;0.5165987;3.358148;-0.309751;0.5217472;3.827336;-0.4087147;0.489237;4.50088;-0.1193281;0.2156683;4.802794;-0.02575271;-0.1178271;4.632756;-0.02302589;-0.7634147;5.276109;-0.1892873;-0.7442907;6.179293;-0.4751002;0.7354069;4.827883;-0.02575243;1.031404;4.688232;-0.02302521;1.76921;5.307376;0.001007557;2.003524;6.170733;-0.3112378;0.1984751;2.781219;-0.1977116;0.15988;1.318709;-0.2185639;0;0;0;0.1984751;2.781219;-0.1977116;0.15988;1.318709;-0.2185639;0;0;0
154247.4796;NotLabelled;16384;-0.2409972;-0.4224377;-0.8209535;0.299169;-1;0;-2;2180;-2826;1831;65536;0.5950443;0.4487534;0.5443213;-0.3850415;1;2;0;-49;-3928;-1230;8192;0.8985174;0.3268698;0.1066482;-0.2728532;0;1;0;-1708;-2633;2573;32768;0.6994652;0.4196676;0.4570637;-0.3545706;0;3;2;495;-3675;-1484;256;0.4127424;-0.5960943;-0.3642659;-0.5844875;2;0;0;-187;3786;-1607;128;0.4695291;-0.5546224;-0.5027701;-0.468144;-1;2;-1;-483;4093;276;4;-0.033241;0.02493075;-0.7161817;-0.6966759;0;0;0;-21;4088;152;16;0.466759;-0.6039702;0.4362881;0.4764543;-1;0;-1;355;4042;824;2;0.6939058;-0.7175826;0.04155125;-0.04293629;0;-1;3;-495;4088;-129;8;0.4487534;-0.5041551;0.4556787;0.580349;2;2;0;-309;4085;671;0.5107363;2.823906;-0.1994177;0.5165987;3.358148;-0.309751;0.5217472;3.827336;-0.4087147;0.489237;4.50088;-0.1193281;0.2156683;4.802794;-0.02575271;-0.1178271;4.632756;-0.02302589;-0.7634147;5.276109;-0.1892873;-0.7442907;6.179293;-0.4751002;0.7354069;4.827883;-0.02575243;1.031404;4.688232;-0.02302521;1.76921;5.307376;0.001007557;2.003524;6.170733;-0.3112378;0.1984751;2.781219;-0.1977116;0.15988;1.318709;-0.2185639;0;0;0;0.1984751;2.781219;-0.1977116;0.15988;1.318709;-0.2185639;0;0;0
154288.6046;NotLabelled;16384;-0.2409972;-0.4224377;-0.8209535;0.299169;-1;0;-2;2180;-2826;1831;65536;0.5950443;0.4487534;0.5443213;-0.3850415;1;2;0;-49;-3928;-1230;8192;0.8985174;0.3268698;0.1066482;-0.2728532;0;1;0;-1708;-2633;2573;32768;0.6994652;0.4196676;0.4570637;-0.3545706;0;3;2;495;-3675;-1484;256;0.4127424;-0.5960943;-0.3642659;-0.5844875;2;0;0;-187;3786;-1607;128;0.4695291;-0.5546224;-0.5027701;-0.468144;-1;2;-1;-483;4093;276;4;-0.033241;0.02493075;-0.7161817;-0.6966759;0;0;0;-21;4088;152;16;0.466759;-0.6039702;0.4362881;0.4764543;-1;0;-1;355;4042;824;2;0.6939058;-0.7175826;0.04155125;-0.04293629;0;-1;3;-495;4088;-129;8;0.4487534;-0.5041551;0.4556787;0.580349;2;2;0;-309;4085;671;0.5107363;2.823906;-0.1994177;0.5165987;3.358148;-0.309751;0.5217472;3.827336;-0.4087147;0.489237;4.50088;-0.1193281;0.2156683;4.802794;-0.02575271;-0.1178271;4.632756;-0.02302589;-0.7634147;5.276109;-0.1892873;-0.7442907;6.179293;-0.4751002;0.7354069;4.827883;-0.02575243;1.031404;4.688232;-0.02302521;1.76921;5.307376;0.001007557;2.003524;6.170733;-0.3112378;0.1984751;2.781219;-0.1977116;0.15988;1.318709;-0.2185639;0;0;0;0.1984751;2.781219;-0.1977116;0.15988;1.318709;-0.2185639;0;0;0
154309.4845;NotLabelled;16384;-0.2409972;-0.4224377;-0.8209535;0.299169;-1;0;-2;2180;-2826;1831;65536;0.5950443;0.4487534;0.5443213;-0.3850415;1;2;0;-49;-3928;-1230;8192;0.8985174;0.3268698;0.1066482;-0.2728532;0;1;0;-1708;-2633;2573;32768;0.6994652;0.4196676;0.4570637;-0.3545706;0;3;2;495;-3675;-1484;256;0.4127424;-0.5960943;-0.3642659;-0.5844875;2;0;0;-187;3786;-1607;128;0.4695291;-0.5546224;-0.5027701;-0.468144;-1;2;-1;-483;4093;276;4;-0.033241;0.02493075;-0.7161817;-0.6966759;0;0;0;-21;4088;152;16;0.466759;-0.6039702;0.4362881;0.4764543;-1;0;-1;355;4042;824;2;0.6939058;-0.7175826;0.04155125;-0.04293629;0;-1;3;-495;4088;-129;8;0.4487534;-0.5041551;0.4556787;0.580349;2;2;0;-309;4085;671;0.5107363;2.823906;-0.1994177;0.5165987;3.358148;-0.309751;0.5217472;3.827336;-0.4087147;0.489237;4.50088;-0.1193281;0.2156683;4.802794;-0.02575271;-0.1178271;4.632756;-0.02302589;-0.7634147;5.276109;-0.1892873;-0.7442907;6.179293;-0.4751002;0.7354069;4.827883;-0.02575243;1.031404;4.688232;-0.02302521;1.76921;5.307376;0.001007557;2.003524;6.170733;-0.3112378;0.1984751;2.781219;-0.1977116;0.15988;1.318709;-0.2185639;0;0;0;0.1984751;2.781219;-0.1977116;0.15988;1.318709;-0.2185639;0;0;0
154352.6438;NotLabelled;16384;-0.2409972;-0.4224377;-0.8209535;0.299169;-1;0;-2;2180;-2826;1831;65536;0.5950443;0.4487534;0.5443213;-0.3850415;1;2;0;-49;-3928;-1230;8192;0.8985174;0.3268698;0.1066482;-0.2728532;0;1;0;-1708;-2633;2573;32768;0.6994652;0.4196676;0.4570637;-0.3545706;0;3;2;495;-3675;-1484;256;0.4127424;-0.5960943;-0.3642659;-0.5844875;2;0;0;-187;3786;-1607;128;0.4695291;-0.5546224;-0.5027701;-0.468144;-1;2;-1;-483;4093;276;4;-0.033241;0.02493075;-0.7161817;-0.6966759;0;0;0;-21;4088;152;16;0.466759;-0.6039702;0.4362881;0.4764543;-1;0;-1;355;4042;824;2;0.6939058;-0.7175826;0.04155125;-0.04293629;0;-1;3;-495;4088;-129;8;0.4487534;-0.5041551;0.4556787;0.580349;2;2;0;-309;4085;671;0.5107363;2.823906;-0.1994177;0.5165987;3.358148;-0.309751;0.5217472;3.827336;-0.4087147;0.489237;4.50088;-0.1193281;0.2156683;4.802794;-0.02575271;-0.1178271;4.632756;-0.02302589;-0.7634147;5.276109;-0.1892873;-0.7442907;6.179293;-0.4751002;0.7354069;4.827883;-0.02575243;1.031404;4.688232;-0.02302521;1.76921;5.307376;0.001007557;2.003524;6.170733;-0.3112378;0.1984751;2.781219;-0.1977116;0.15988;1.318709;-0.2185639;0;0;0;0.1984751;2.781219;-0.1977116;0.15988;1.318709;-0.2185639;0;0;0
154372.5835;NotLabelled;16384;-0.2396122;-0.4224377;-0.8213589;0.299169;-1;-2;-2;2292;-2832;1869;65536;0.5950443;0.4487534;0.5443213;-0.3850415;2;1;0;-195;-3932;-1178;8192;0.8980956;0.3268698;0.1066482;-0.2742382;1;0;0;-1830;-2553;2707;32768;0.6977242;0.4210526;0.4584487;-0.3545706;0;2;3;433;-3747;-1654;256;0.4113573;-0.597051;-0.3642659;-0.5844875;2;0;0;-137;3768;-1627;128;0.466759;-0.5557884;-0.5027701;-0.4695291;0;0;0;-475;4147;330;4;-0.03185596;0.02493075;-0.7162446;-0.6966759;0;1;0;-77;4058;120;16;0.4653739;-0.6050381;0.4362881;0.4764543;0;-1;-1;339;3982;822;2;0.6939058;-0.7175826;0.04155125;-0.04293629;0;1;2;-449;4026;-75;8;0.4501385;-0.5041551;0.4556787;0.5792754;0;2;0;-221;4023;613;0.5147731;2.823028;-0.2048704;0.5206418;3.357841;-0.3123976;0.5257961;3.827543;-0.4088968;0.4948799;4.500452;-0.1178651;0.2220225;4.80277;-0.02352175;-0.111866;4.6335;-0.02117039;-0.7587366;5.275994;-0.1857605;-0.7396142;6.179177;-0.4715739;0.7418178;4.826654;-0.02352118;1.03749;4.686312;-0.02116919;1.775239;5.305478;0.004027843;2.004917;6.170213;-0.3078495;0.2025118;2.780332;-0.2034065;0.1635044;1.317796;-0.2213789;0;0;0;0.2025118;2.780332;-0.2034065;0.1635044;1.317796;-0.2213789;0;0;0
154414.4796;NotLabelled;16384;-0.2396122;-0.4224377;-0.8213589;0.299169;0;-1;-2;2290;-2844;1843;65536;0.5950443;0.4487534;0.5443213;-0.3850415;1;0;0;-115;-3946;-1114;8192;0.8980956;0.3268698;0.1066482;-0.2742382;0;1;-1;-1646;-2649;2691;32768;0.6977242;0.4210526;0.4584487;-0.3545706;0;2;2;393;-3811;-1580;256;0.4113573;-0.5956919;-0.3642659;-0.5858725;3;0;0;-151;3808;-1595;128;0.466759;-0.5557884;-0.5027701;-0.4695291;0;0;0;-499;4139;284;4;-0.033241;0.02493075;-0.7161817;-0.6966759;1;1;0;-79;4060;110;16;0.4653739;-0.6039448;0.4362881;0.4778393;0;-2;-1;385;3996;786;2;0.6939058;-0.7176614;0.0401662;-0.04293629;0;2;-1;-473;4126;-171;8;0.4515235;-0.5055401;0.4542936;0.578077;-1;1;0;-273;3989;723;0.5108507;2.823258;-0.2030223;0.5167193;3.358071;-0.3105495;0.5218735;3.827773;-0.4070488;0.4885793;4.500602;-0.1160943;0.2147734;4.802333;-0.02262524;-0.1187593;4.632352;-0.0213627;-0.7665111;5.273471;-0.1878327;-0.7473885;6.176656;-0.4736461;0.734514;4.827326;-0.02093822;1.030476;4.687613;-0.01763254;1.766825;5.308351;0.009758353;1.996504;6.173086;-0.302119;0.1985893;2.780562;-0.2015585;0.1599941;1.318053;-0.2224105;0;0;0;0.1985893;2.780562;-0.2015585;0.1599941;1.318053;-0.2224105;0;0;0
154435.8142;NotLabelled;16384;-0.2396122;-0.4238227;-0.820645;0.299169;0;-1;-1;2246;-2938;1859;65536;0.5941457;0.4487534;0.5443213;-0.3864266;2;0;0;-139;-3974;-1140;8192;0.8980956;0.3268698;0.1066482;-0.2742382;0;1;0;-1692;-2655;2663;32768;0.6968122;0.4210526;0.4598338;-0.3545706;0;1;1;377;-3777;-1678;256;0.4113573;-0.5956919;-0.3642659;-0.5858725;3;0;0;-185;3760;-1591;128;0.466759;-0.5557884;-0.5027701;-0.4695291;0;0;0;-463;4197;260;4;-0.033241;0.02631579;-0.7161321;-0.6966759;0;2;-1;-29;4100;146;16;0.4653739;-0.6039448;0.4362881;0.4778393;0;0;0;303;3984;830;2;0.6939058;-0.7176614;0.0401662;-0.04293629;-1;3;-2;-499;4114;-139;8;0.4501385;-0.5055401;0.4542936;0.5791562;-1;0;0;-299;3995;767;0.5103317;2.823291;-0.2064911;0.5162004;3.358104;-0.3140182;0.5213546;3.827806;-0.4105175;0.4890046;4.500636;-0.1194566;0.2155034;4.802366;-0.02509946;-0.1180233;4.632386;-0.02275469;-0.7660447;5.275099;-0.1818678;-0.747951;6.178947;-0.4656396;0.7352468;4.827359;-0.02509904;1.031218;4.687647;-0.02275389;1.769121;5.306813;-0.002565622;1.995428;6.171751;-0.3163384;0.1980704;2.780596;-0.2050271;0.1592716;1.318052;-0.2229284;0;0;0;0.1980704;2.780596;-0.2050271;0.1592716;1.318052;-0.2229284;0;0;0
154456.7185;NotLabelled;16384;-0.2396122;-0.4238227;-0.820645;0.299169;0;-1;-1;2310;-2916;1889;65536;0.5941457;0.4487534;0.5443213;-0.3864266;0;1;-1;-201;-4028;-1084;8192;0.8980956;0.3268698;0.1066482;-0.2742382;0;2;0;-1788;-2675;2715;32768;0.6968122;0.4210526;0.4598338;-0.3545706;0;1;0;403;-3781;-1682;256;0.4113573;-0.5965367;-0.3628809;-0.5858725;2;0;0;-175;3792;-1695;128;0.466759;-0.5557884;-0.5027701;-0.4695291;0;0;0;-489;4229;226;4;-0.033241;0.02631579;-0.7161321;-0.6966759;0;2;-1;-59;4102;108;16;0.4653739;-0.6039448;0.4362881;0.4778393;1;0;0;329;3954;804;2;0.6939058;-0.7175772;0.0401662;-0.04432133;-1;5;-2;-473;4066;-99;8;0.4501385;-0.5055401;0.4542936;0.5791562;-1;1;0;-305;4037;773;0.5107459;2.823291;-0.2060902;0.5166146;3.358104;-0.3136173;0.5217687;3.827806;-0.4101166;0.488752;4.499955;-0.117561;0.214948;4.801191;-0.02250588;-0.1184019;4.630859;-0.02050249;-0.7655764;5.273573;-0.1830258;-0.7469092;6.177422;-0.4667605;0.7346652;4.826724;-0.02250552;1.030782;4.687314;-0.02050155;1.768568;5.30648;0.003572345;1.99551;6.171418;-0.3097423;0.1984845;2.780596;-0.2046263;0.1597219;1.318053;-0.222606;0;0;0;0.1984845;2.780596;-0.2046263;0.1597219;1.318053;-0.222606;0;0;0
154477.479;NotLabelled;16384;-0.2382271;-0.4238227;-0.8210481;0.299169;0;0;-1;2340;-2868;1917;65536;0.5941457;0.4487534;0.5443213;-0.3864266;0;2;0;-143;-4056;-1190;8192;0.8985985;0.3254848;0.1066482;-0.2742382;0;1;0;-1826;-2619;2673;32768;0.6976473;0.4196676;0.4598338;-0.3545706;0;2;0;443;-3723;-1746;256;0.4113573;-0.5965367;-0.3628809;-0.5858725;1;0;0;-239;3888;-1653;128;0.466759;-0.5557884;-0.5027701;-0.4695291;0;0;0;-483;4165;172;4;-0.033241;0.02770083;-0.7160799;-0.6966759;0;1;-1;-11;4092;92;16;0.4653739;-0.6039448;0.4362881;0.4778393;1;-1;0;359;3994;780;2;0.6939058;-0.7175772;0.0401662;-0.04432133;-2;5;-3;-491;4122;-63;8;0.4515235;-0.5055401;0.4542936;0.578077;-1;4;0;-325;4001;811;0.5108879;2.823319;-0.2089155;0.5167565;3.358133;-0.3164426;0.5219107;3.827834;-0.4129419;0.488894;4.499984;-0.1203863;0.21509;4.80122;-0.02533117;-0.1182599;4.630888;-0.02332778;-0.7667564;5.272738;-0.1839865;-0.7480894;6.176587;-0.4677209;0.7348072;4.826753;-0.02533084;1.030924;4.687343;-0.02332687;1.770482;5.30442;-1.192093E-07;1.99971;6.168194;-0.3148601;0.1986265;2.780624;-0.2074516;0.1597219;1.318053;-0.222606;0;0;0;0.1986265;2.780624;-0.2074516;0.1597219;1.318053;-0.222606;0;0;0
154518.6247;NotLabelled;16384;-0.2382271;-0.4238227;-0.8210481;0.299169;0;1;-1;2284;-2832;1947;65536;0.5941457;0.4487534;0.5443213;-0.3864266;0;2;0;-59;-4018;-1112;8192;0.8985985;0.3254848;0.1066482;-0.2742382;0;1;0;-1774;-2617;2625;32768;0.6976473;0.4196676;0.4598338;-0.3545706;0;1;0;433;-3749;-1634;256;0.4113573;-0.5965367;-0.3628809;-0.5858725;0;0;0;-169;3830;-1565;128;0.466759;-0.5557884;-0.5027701;-0.4695291;0;0;1;-471;4165;138;4;-0.033241;0.02770083;-0.7160799;-0.6966759;1;0;-1;33;4110;68;16;0.4653739;-0.6039448;0.4362881;0.4778393;2;-1;0;301;4000;756;2;0.6939058;-0.7175665;0.03878116;-0.04570637;-3;5;-2;-503;4082;-43;8;0.4515235;-0.5069252;0.4529086;0.5779508;-1;4;0;-233;4027;783;0.5108879;2.823319;-0.2089155;0.5167565;3.358133;-0.3164426;0.5219107;3.827834;-0.4129419;0.488894;4.499984;-0.1203863;0.21509;4.80122;-0.02533117;-0.1182599;4.630888;-0.02332778;-0.7667564;5.272738;-0.1839865;-0.7480894;6.176587;-0.4677209;0.7348072;4.826753;-0.02533084;1.030924;4.687343;-0.02332687;1.770482;5.30442;-1.192093E-07;1.99971;6.168194;-0.3148601;0.1986265;2.780624;-0.2074516;0.1597219;1.318053;-0.222606;0;0;0;0.1986265;2.780624;-0.2074516;0.1597219;1.318053;-0.222606;0;0;0
154539.5889;NotLabelled;16384;-0.2382271;-0.4238227;-0.8210481;0.299169;0;2;0;2252;-2892;1851;65536;0.5941457;0.4487534;0.5443213;-0.3864266;0;0;0;-67;-3956;-1118;8192;0.8985985;0.3254848;0.1066482;-0.2742382;0;1;-1;-1660;-2607;2643;32768;0.6976473;0.4196676;0.4598338;-0.3545706;0;1;0;407;-3761;-1534;256;0.4113573;-0.5978938;-0.3628809;-0.5844875;0;-1;0;-167;3786;-1643;128;0.468144;-0.5546224;-0.5027701;-0.4695291;2;0;0;-495;4129;218;4;-0.03185596;0.02770083;-0.7161428;-0.6966759;0;0;-1;27;4086;94;16;0.4653739;-0.6039448;0.4362881;0.4778393;1;-1;0;323;3982;776;2;0.6952909;-0.7161348;0.03878116;-0.04709141;-1;3;-2;-519;4070;-133;8;0.4515235;-0.5069252;0.4529086;0.5779508;-1;2;0;-279;4001;763;0.5112907;2.822769;-0.2192348;0.5171562;3.357297;-0.3281684;0.5223075;3.826743;-0.4259028;0.4916776;4.499742;-0.1350443;0.2188274;4.801816;-0.0399036;-0.1148757;4.632202;-0.03635483;-0.7625278;5.275002;-0.1966151;-0.7438694;6.178102;-0.4827265;0.7385948;4.826237;-0.04166913;1.034419;4.686202;-0.04025835;1.77536;5.301759;-0.0210017;2.00458;6.164701;-0.3381392;0.1990293;2.780077;-0.2176496;0.1597155;1.317463;-0.2260766;0;0;0;0.1990293;2.780077;-0.2176496;0.1597155;1.317463;-0.2260766;0;0;0
154579.6584;NotLabelled;16384;-0.2368421;-0.4238227;-0.8214488;0.299169;1;1;0;2202;-2920;1845;65536;0.5932426;0.4487534;0.5443213;-0.3878116;-1;0;0;-65;-3902;-1104;8192;0.898433;0.3254848;0.1080332;-0.2742382;1;2;-1;-1730;-2665;2583;32768;0.6960258;0.4196676;0.4612188;-0.3559557;0;1;1;371;-3739;-1516;256;0.4113573;-0.5978938;-0.3628809;-0.5844875;-1;0;0;-149;3822;-1617;128;0.468144;-0.5546224;-0.5027701;-0.4695291;1;0;0;-427;4097;252;4;-0.03185596;0.02770083;-0.7161428;-0.6966759;0;-2;0;-9;4060;122;16;0.4653739;-0.6029419;0.4376731;0.4778393;0;-3;0;287;4006;690;2;0.6952909;-0.7160424;0.03878116;-0.04847645;0;1;-1;-559;4046;-49;8;0.4515235;-0.5083103;0.4515235;0.577818;-1;2;0;-319;4003;761;0.5118164;2.823857;-0.2082481;0.517682;3.358385;-0.3171816;0.5228333;3.827831;-0.4149161;0.4912457;4.500061;-0.1223904;0.2180829;4.801885;-0.02734925;-0.1156285;4.632262;-0.02533904;-0.7649215;5.273245;-0.186237;-0.7454473;6.177755;-0.4678033;0.7378531;4.826311;-0.02734905;1.033672;4.686272;-0.02533823;1.772705;5.303979;-0.002006888;2.000503;6.168604;-0.3155643;0.1995552;2.781165;-0.2066629;0.1602817;1.318578;-0.2190652;0;0;0;0.1995552;2.781165;-0.2066629;0.1602817;1.318578;-0.2190652;0;0;0
154601.4681;NotLabelled;16384;-0.2368421;-0.4224377;-0.8221619;0.299169;1;0;0;2206;-2844;1843;65536;0.5932426;0.4487534;0.5443213;-0.3878116;-1;0;-1;-113;-3880;-1094;8192;0.898433;0.3254848;0.1080332;-0.2742382;1;0;0;-1706;-2619;2587;32768;0.6960258;0.4196676;0.4612188;-0.3559557;-1;0;1;463;-3799;-1528;256;0.4113573;-0.5978938;-0.3628809;-0.5844875;-1;-1;0;-207;3794;-1561;128;0.468144;-0.5546224;-0.5027701;-0.4695291;1;-1;0;-469;4103;224;4;-0.03185596;0.02631579;-0.716195;-0.6966759;0;-3;1;-1;4108;140;16;0.4653739;-0.6029419;0.4376731;0.4778393;0;-3;0;323;3950;710;2;0.6952909;-0.7160424;0.03878116;-0.04847645;-1;0;-1;-579;4084;-101;8;0.4515235;-0.5083103;0.4515235;0.577818;-2;4;0;-335;4003;755;0.5116653;2.823834;-0.2054234;0.5175308;3.358363;-0.314357;0.5226822;3.827809;-0.4120914;0.4910946;4.500039;-0.1195657;0.2179318;4.801862;-0.02452455;-0.1157796;4.63224;-0.02251435;-0.7650156;5.273009;-0.1844902;-0.745541;6.177519;-0.4660559;0.737702;4.826289;-0.02452433;1.033521;4.68625;-0.02251351;1.772553;5.303957;0.0008177757;2.000351;6.168581;-0.3127396;0.199404;2.781143;-0.2038382;0.1602817;1.318578;-0.2190651;0;0;0;0.199404;2.781143;-0.2038382;0.1602817;1.318578;-0.2190651;0;0;0
154621.6327;NotLabelled;16384;-0.2382271;-0.4224377;-0.8217617;0.299169;1;1;0;2280;-2834;1899;65536;0.5941457;0.4487534;0.5443213;-0.3864266;-4;1;-1;-133;-3936;-1088;8192;0.8982654;0.3254848;0.1094183;-0.2742382;2;0;0;-1714;-2601;2541;32768;0.6960258;0.4196676;0.4612188;-0.3559557;-2;1;2;521;-3721;-1598;256;0.4127424;-0.5969385;-0.3628809;-0.5844875;0;-1;0;-205;3764;-1617;128;0.468144;-0.5546224;-0.5027701;-0.4695291;2;0;0;-453;4091;262;4;-0.03047091;0.02493075;-0.7163049;-0.6966759;0;-5;1;-29;4108;106;16;0.4653739;-0.600832;0.4390582;0.4792244;0;-6;0;345;4038;678;2;0.6952909;-0.715966;0.0401662;-0.04847645;-1;0;-3;-573;4014;-103;8;0.4515235;-0.5096953;0.4501385;0.5776786;-2;0;0;-211;4035;729;0.5082406;2.824603;-0.2034628;0.514106;3.359132;-0.3123964;0.5192573;3.828578;-0.4101309;0.4860786;4.501445;-0.1192497;0.2122064;4.802866;-0.02497633;-0.1211117;4.632477;-0.02259038;-0.7690254;5.274108;-0.1864355;-0.7494369;6.177957;-0.4701079;0.7319187;4.828496;-0.02497637;1.028061;4.689147;-0.02259016;1.76664;5.307482;-0.001648664;1.99444;6.172107;-0.3152046;0.1959793;2.781912;-0.2018774;0.156601;1.319353;-0.2170489;0;0;0;0.1959793;2.781912;-0.2018774;0.156601;1.319353;-0.2170489;0;0;0
154642.5388;NotLabelled;16384;-0.2382271;-0.4224377;-0.8222646;0.2977839;2;2;-1;2192;-2774;1853;65536;0.5951893;0.4473684;0.5443213;-0.3864266;-5;1;-1;-11;-3926;-1152;8192;0.898766;0.3240997;0.1094183;-0.2742382;3;0;-1;-1706;-2609;2557;32768;0.6958135;0.4196676;0.4626039;-0.3545706;-3;1;3;439;-3765;-1494;256;0.4127424;-0.5982915;-0.3628809;-0.5831025;0;-1;0;-229;3724;-1555;128;0.4695291;-0.5534503;-0.5027701;-0.4695291;1;0;0;-485;4155;156;4;-0.03047091;0.02493075;-0.7163049;-0.6966759;0;-5;1;81;4042;136;16;0.4653739;-0.600832;0.4390582;0.4792244;0;-3;0;305;4018;774;2;0.6952909;-0.715966;0.0401662;-0.04847645;-2;0;-3;-503;4068;-143;8;0.4515235;-0.5096953;0.4501385;0.5776786;-2;0;0;-327;4029;791;0.508893;2.824599;-0.2029488;0.5147552;3.358839;-0.3132908;0.5199037;3.828025;-0.4122622;0.4881561;4.500975;-0.1214108;0.2149257;4.802981;-0.0271515;-0.1187542;4.633302;-0.0247587;-0.7675881;5.273101;-0.1920913;-0.7446143;6.176275;-0.4776528;0.7346913;4.827506;-0.02715141;1.030536;4.687527;-0.02475846;1.770813;5.30377;-0.002164006;1.997361;6.167947;-0.3178564;0.1966317;2.781912;-0.2012419;0.1573027;1.319353;-0.2165407;0;0;0;0.1966317;2.781912;-0.2012419;0.1573027;1.319353;-0.2165407;0;0;0
154663.4726;NotLabelled;16384;-0.2368421;-0.4210526;-0.8233743;0.2977839;3;2;-1;2246;-2846;1919;65536;0.5951893;0.4473684;0.5443213;-0.3864266;-5;0;0;-149;-3946;-1222;8192;0.8985963;0.3240997;0.1108033;-0.2742382;3;0;-1;-1810;-2617;2633;32768;0.6957253;0.4182825;0.4639889;-0.3545706;-4;0;3;501;-3849;-1488;256;0.4127424;-0.5982915;-0.3628809;-0.5831025;0;-2;0;-257;3818;-1603;128;0.4695291;-0.5546224;-0.5027701;-0.468144;3;-1;0;-481;4143;154;4;-0.03047091;0.0235457;-0.7163517;-0.6966759;0;-4;1;87;4120;82;16;0.4653739;-0.600832;0.4390582;0.4792244;0;-2;0;381;4008;756;2;0.6952909;-0.7157918;0.04155125;-0.04986149;-1;-1;-4;-485;4056;-199;8;0.4515235;-0.5096953;0.4501385;0.5776786;-2;0;0;-235;3937;817;0.5087326;2.824571;-0.2001248;0.5145949;3.358812;-0.3104581;0.5197434;3.828001;-0.4094218;0.4879958;4.50095;-0.1185705;0.2147654;4.802957;-0.02431113;-0.1189144;4.633277;-0.02191841;-0.7690156;5.271995;-0.1884615;-0.7460418;6.175169;-0.4740229;0.734531;4.827481;-0.02431118;1.030376;4.687502;-0.02191818;1.770199;5.304372;-0.00171864;1.996667;6.167583;-0.3200996;0.1964713;2.781884;-0.1984186;0.1573028;1.319353;-0.2165406;0;0;0;0.1964713;2.781884;-0.1984186;0.1573028;1.319353;-0.2165406;0;0;0
154685.2416;NotLabelled;16384;-0.2368421;-0.4210526;-0.8233743;0.2977839;3;3;0;2326;-2790;1893;65536;0.5949605;0.4459834;0.5457063;-0.3864266;-6;3;0;-139;-3990;-1190;8192;0.8990947;0.3227147;0.1108033;-0.2742382;2;0;-2;-1756;-2581;2689;32768;0.6957253;0.4182825;0.4639889;-0.3545706;-5;0;3;501;-3759;-1600;256;0.4141274;-0.5973336;-0.3628809;-0.5831025;-1;-2;0;-181;3780;-1655;128;0.4695291;-0.5546224;-0.5027701;-0.468144;5;-1;0;-533;4151;212;4;-0.02908587;0.02216066;-0.7164535;-0.6966759;0;-2;1;-1;4122;120;16;0.4639889;-0.6019022;0.4390582;0.4792244;0;-2;0;337;3982;734;2;0.6966759;-0.7143619;0.04293629;-0.04986149;0;-1;-3;-511;4092;-91;8;0.4501385;-0.5096953;0.4487534;0.5798331;-1;-1;0;-261;3981;851;0.51261;2.823662;-0.2029973;0.5184724;3.357903;-0.3133306;0.5236208;3.827091;-0.4122944;0.4902815;4.500675;-0.1230933;0.2163419;4.802278;-0.02960458;-0.116945;4.631834;-0.02683539;-0.7670438;5.270551;-0.1933862;-0.7444507;6.172984;-0.4813128;0.7360494;4.828004;-0.02960438;1.032217;4.688717;-0.02683479;1.773802;5.303491;-0.007365704;2.000272;6.166702;-0.325745;0.2003488;2.780974;-0.2012912;0.1609354;1.31845;-0.2193564;0;0;0;0.2003488;2.780974;-0.2012912;0.1609354;1.31845;-0.2193564;0;0;0
154705.4999;NotLabelled;16384;-0.2368421;-0.4196676;-0.8245803;0.2963989;3;2;0;2362;-2860;1929;65536;0.5956227;0.4445983;0.5470914;-0.3850415;-6;1;0;-147;-3962;-1278;8192;0.8990947;0.3227147;0.1108033;-0.2742382;3;-1;-3;-1772;-2661;2641;32768;0.6956315;0.4168975;0.4653739;-0.3545706;-4;2;1;507;-3819;-1642;256;0.4141274;-0.5986825;-0.3628809;-0.5817174;-2;-2;0;-217;3796;-1633;128;0.4709141;-0.5521854;-0.5041551;-0.468144;5;0;1;-463;4133;190;4;-0.02908587;0.02216066;-0.7164535;-0.6966759;0;0;1;31;4096;66;16;0.4639889;-0.5997822;0.4404432;0.4806094;0;-1;0;381;3994;744;2;0.6966759;-0.7143619;0.04293629;-0.04986149;0;0;-3;-491;4106;-43;8;0.4501385;-0.5096953;0.4487534;0.5798331;-1;0;0;-247;4009;853;0.5095525;2.824433;-0.2005901;0.5154081;3.358065;-0.3138348;0.5205506;3.826707;-0.4153553;0.4886446;4.500372;-0.1261843;0.2153475;4.802562;-0.03270926;-0.1183015;4.632827;-0.02993319;-0.769294;5.269485;-0.2008277;-0.7460358;6.170492;-0.4931326;0.7351086;4.827182;-0.03270912;1.030979;4.687264;-0.02993292;1.772505;5.302038;-0.008309484;1.999915;6.16428;-0.3286399;0.1972914;2.781756;-0.1986326;0.1579364;1.319231;-0.216825;0;0;0;0.1972914;2.781756;-0.1986326;0.1579364;1.319231;-0.216825;0;0;0
154726.5467;NotLabelled;16384;-0.2368421;-0.4196676;-0.8245803;0.2963989;2;4;0;2292;-2848;1911;65536;0.596654;0.4432133;0.5470914;-0.3850415;-5;2;1;-49;-3996;-1262;8192;0.8992451;0.3213296;0.1135734;-0.2742382;3;-1;-4;-1706;-2589;2663;32768;0.6954081;0.4168975;0.466759;-0.3531856;-4;1;4;431;-3725;-1634;256;0.4155124;-0.5977221;-0.3628809;-0.5817174;-4;-2;0;-151;3772;-1655;128;0.4722992;-0.5509072;-0.5055401;-0.466759;6;0;0;-515;4167;196;4;-0.02908587;0.02216066;-0.7164535;-0.6966759;1;0;1;-1;4050;134;16;0.4639889;-0.5997822;0.4404432;0.4806094;0;-1;-1;363;4008;778;2;0.6966759;-0.7142639;0.04293629;-0.05124654;-1;0;-3;-515;4158;-137;8;0.4501385;-0.5110803;0.4487534;0.5786126;0;0;0;-267;4021;845;0.5095538;2.824421;-0.2008412;0.5154026;3.357428;-0.316993;0.5205389;3.82551;-0.4210666;0.487041;4.499806;-0.133552;0.2130348;4.801592;-0.0408501;-0.1202212;4.631094;-0.03769668;-0.7712148;5.267751;-0.2085878;-0.7455039;6.168061;-0.5028297;0.7327375;4.827414;-0.04084986;1.02893;4.688188;-0.03769594;1.771299;5.302114;-0.02160788;1.996432;6.163884;-0.3448012;0.1972928;2.781755;-0.1986325;0.157938;1.319231;-0.2168245;0;0;0;0.1972928;2.781755;-0.1986325;0.157938;1.319231;-0.2168245;0;0;0
154747.7519;NotLabelled;16384;-0.2368421;-0.4182825;-0.8252837;0.2963989;3;5;0;2316;-2902;1933;65536;0.596654;0.4432133;0.5470914;-0.3850415;-5;2;1;-91;-4002;-1210;8192;0.8996663;0.3213296;0.1135734;-0.2728532;2;-3;-3;-1656;-2621;2701;32768;0.6962366;0.4155124;0.466759;-0.3531856;-5;0;3;469;-3751;-1636;256;0.4155124;-0.5990669;-0.3628809;-0.5803324;-5;-1;0;-157;3804;-1625;128;0.4722992;-0.5509072;-0.5055401;-0.466759;6;0;0;-499;4147;154;4;-0.02908587;0.02216066;-0.7164535;-0.6966759;0;0;0;17;4100;190;16;0.4639889;-0.5997822;0.4404432;0.4806094;0;0;0;313;3976;758;2;0.6966759;-0.7142639;0.04293629;-0.05124654;-2;1;-3;-503;4128;-107;8;0.4501385;-0.5110803;0.4473684;0.5796842;-1;3;0;-235;3983;829;0.5101929;2.824421;-0.200204;0.5160418;3.357428;-0.3163558;0.5211781;3.82551;-0.4204293;0.4891154;4.499889;-0.1329441;0.2157522;4.802261;-0.0402561;-0.1178661;4.632474;-0.03709602;-0.7681814;5.268909;-0.2113646;-0.7415222;6.169218;-0.505522;0.7355089;4.826976;-0.04025584;1.031404;4.687119;-0.03709519;1.773771;5.301001;-0.0193069;2.00223;6.161598;-0.3432915;0.1979319;2.781755;-0.1979954;0.1586359;1.31923;-0.2163142;0;0;0;0.1979319;2.781755;-0.1979954;0.1586359;1.31923;-0.2163142;0;0;0
154767.4648;NotLabelled;16384;-0.2368421;-0.4182825;-0.8252837;0.2963989;2;5;0;2258;-2890;1925;65536;0.5973015;0.4418283;0.5484765;-0.3836565;-5;0;1;-153;-3958;-1268;8192;0.8994904;0.3213296;0.1149584;-0.2728532;2;-1;-3;-1712;-2575;2645;32768;0.6953061;0.4155124;0.468144;-0.3531856;-4;0;3;399;-3741;-1698;256;0.4168975;-0.598604;-0.3642659;-0.5789474;-7;-1;1;-143;3868;-1591;128;0.4736842;-0.5497168;-0.5055401;-0.466759;4;0;0;-439;4145;138;4;-0.03047091;0.02216066;-0.7163959;-0.6966759;0;-1;1;1;4050;78;16;0.4639889;-0.5997822;0.4404432;0.4806094;1;0;0;313;4032;728;2;0.6966759;-0.7141632;0.04293629;-0.05263158;-2;3;-4;-539;4104;-99;8;0.4501385;-0.5110803;0.4473684;0.5796842;-2;1;0;-251;4021;811;0.5100023;2.824388;-0.1972119;0.5158477;3.357084;-0.3147772;0.520981;3.824888;-0.4200921;0.4894426;4.50064;-0.1357923;0.2163226;4.803685;-0.04458995;-0.1174442;4.634204;-0.04070515;-0.7675771;5.270638;-0.2156534;-0.7408335;6.169495;-0.5142142;0.7361006;4.827947;-0.04458988;1.031874;4.68785;-0.04070473;1.773765;5.302351;-0.0245415;2.000227;6.163142;-0.3494101;0.1977414;2.781728;-0.1948809;0.1588948;1.319231;-0.216124;0;0;0;0.1977414;2.781728;-0.1948809;0.1588948;1.319231;-0.216124;0;0;0
154787.4968;NotLabelled;16384;-0.2368421;-0.4168975;-0.82648;0.2950138;3;5;0;2266;-2820;1995;65536;0.5960267;0.4418283;0.5498615;-0.3836565;-5;0;1;-159;-3930;-1322;8192;0.9004027;0.3199446;0.1149584;-0.2714681;3;-1;-4;-1702;-2593;2655;32768;0.6960079;0.4155124;0.468144;-0.3518005;-4;2;4;377;-3725;-1738;256;0.4182825;-0.597637;-0.3642659;-0.5789474;-8;0;1;-163;3812;-1609;128;0.4736842;-0.5508898;-0.5055401;-0.4653739;9;-10;0;-487;4155;-58;4;-0.02908587;0.02216066;-0.7164535;-0.6966759;1;-2;1;-47;4094;64;16;0.4639889;-0.5997822;0.4404432;0.4806094;0;-2;0;345;4028;760;2;0.6966759;-0.7139751;0.04432133;-0.05401662;-3;3;-4;-609;4084;-53;8;0.4501385;-0.5110803;0.4473684;0.5796842;-1;0;0;-245;4025;795;0.5104313;2.824415;-0.2000873;0.5162768;3.357113;-0.3176462;0.5214101;3.824919;-0.4229557;0.488276;4.501295;-0.1403242;0.2144454;4.80393;-0.0498998;-0.1189294;4.633688;-0.04563607;-0.7703967;5.268049;-0.2231354;-0.7465122;6.166845;-0.5221204;0.7341659;4.829393;-0.04989952;1.030261;4.68999;-0.04563534;1.773964;5.302336;-0.03101349;2.00054;6.162452;-0.3575898;0.1981704;2.781756;-0.197757;0.1588965;1.319231;-0.216123;0;0;0;0.1981704;2.781756;-0.197757;0.1588965;1.319231;-0.216123;0;0;0
154809.4657;NotLabelled;16384;-0.2368421;-0.4155124;-0.8271772;0.2950138;1;5;0;2274;-2816;1981;65536;0.596662;0.4404432;0.5512465;-0.3822715;-5;3;0;-215;-3932;-1358;8192;0.9006413;0.3199446;0.1163435;-0.2700831;1;-4;-2;-1732;-2567;2759;32768;0.6956632;0.4141274;0.4709141;-0.3504155;-5;-1;0;363;-3759;-1832;256;0.4196676;-0.5971602;-0.365651;-0.5775623;-6;0;0;-205;3764;-1537;128;0.4764543;-0.5508341;-0.5055401;-0.4626039;5;-2;0;-457;4087;250;4;-0.02908587;0.02077562;-0.716495;-0.6966759;0;-2;1;37;4068;102;16;0.4653739;-0.5987082;0.4404432;0.4806094;1;2;0;261;4032;778;2;0.6980609;-0.7125147;0.04432133;-0.05540166;-2;3;-5;-585;4104;-79;8;0.4501385;-0.5124654;0.4473684;0.5784602;-1;0;0;-257;3977;819;0.5068227;2.82526;-0.1944761;0.5126612;3.357327;-0.3148589;0.5177884;3.824567;-0.4226482;0.4851765;4.502298;-0.143219;0.2115879;4.805593;-0.0542869;-0.1219353;4.635663;-0.04929722;-0.7731792;5.269795;-0.2284222;-0.7492262;6.167117;-0.5317979;0.7313303;4.830606;-0.05428642;1.027304;4.690968;-0.04929608;1.770594;5.303873;-0.03736353;1.99516;6.162502;-0.3691967;0.1945619;2.782613;-0.1919014;0.1554951;1.320122;-0.2131356;0;0;0;0.1945619;2.782613;-0.1919014;0.1554951;1.320122;-0.2131356;0;0;0
154830.0932;NotLabelled;16384;-0.2368421;-0.4127424;-0.8285629;0.2950138;1;6;0;2278;-2842;2009;65536;0.5964016;0.4390582;0.5526316;-0.3822715;-6;2;0;-85;-3958;-1374;8192;0.9015461;0.3185596;0.1163435;-0.2686981;1;-4;-2;-1618;-2647;2705;32768;0.697181;0.4127424;0.4709141;-0.3490305;-3;-1;0;351;-3609;-1818;256;0.4224377;-0.5956935;-0.367036;-0.5761772;-8;-1;0;-213;3864;-1521;128;0.4778393;-0.5520638;-0.5041551;-0.4612188;-1;-4;0;-455;4119;72;4;-0.02908587;0.01939058;-0.7165338;-0.6966759;1;-1;0;59;4068;82;16;0.4653739;-0.5998174;0.4404432;0.4792244;2;1;0;255;4038;720;2;0.6980609;-0.7121794;0.04432133;-0.05955679;-3;3;-5;-619;4146;-23;8;0.4487534;-0.5124654;0.4459834;0.5806018;-2;0;1;-279;3971;857;0.5103777;2.824969;-0.1903811;0.5162164;3.357054;-0.3106822;0.5213438;3.824311;-0.4183997;0.4876479;4.503988;-0.1438695;0.2135873;4.807518;-0.05721869;-0.1196905;4.637143;-0.05112088;-0.7705253;5.270814;-0.2333357;-0.7466511;6.167357;-0.5390134;0.7332928;4.833286;-0.05721831;1.029467;4.694118;-0.05112004;1.774549;5.304854;-0.03972113;2.001894;6.161608;-0.374495;0.1981169;2.782322;-0.1878135;0.1592635;1.319869;-0.2119143;0;0;0;0.1981169;2.782322;-0.1878135;0.1592635;1.319869;-0.2119143;0;0;0
154850.4661;NotLabelled;16384;-0.2354571;-0.4113573;-0.8296457;0.2950138;1;7;0;2222;-2786;2007;65536;0.5970204;0.4376731;0.5540166;-0.3808864;-5;4;3;-193;-3906;-1396;8192;0.901778;0.3185596;0.1177285;-0.267313;1;-3;-1;-1594;-2547;2673;32768;0.697181;0.4127424;0.4709141;-0.3490305;-2;-1;1;363;-3563;-1802;256;0.4224377;-0.5961764;-0.368421;-0.5747922;-7;-1;0;-183;3838;-1553;128;0.4778393;-0.5520638;-0.5041551;-0.4612188;-2;1;0;-497;4117;62;4;-0.02908587;0.01939058;-0.7151846;-0.6980609;1;0;0;77;4080;-10;16;0.466759;-0.5997566;0.4390582;0.4792244;2;1;0;301;3950;688;2;0.699446;-0.7108192;0.04432133;-0.05955679;-2;6;-6;-611;4080;-33;8;0.4487534;-0.5124654;0.4459834;0.5806018;-1;-1;1;-221;4031;879;0.5012833;2.82549;-0.1912024;0.507122;3.357576;-0.3115034;0.5122494;3.824833;-0.4192209;0.4809986;4.505231;-0.1461931;0.2079941;4.809826;-0.05994561;-0.1258168;4.640525;-0.05311853;-0.7760984;5.274784;-0.2352675;-0.7525351;6.169823;-0.5453427;0.7277786;4.833941;-0.0605402;1.023515;4.693847;-0.05443329;1.770141;5.302772;-0.04852855;1.997487;6.159526;-0.3833027;0.1890224;2.782843;-0.1886348;0.1557965;1.320243;-0.2121657;0;0;0;0.1890224;2.782843;-0.1886348;0.1557965;1.320243;-0.2121657;0;0;0
154871.5012;NotLabelled;16384;-0.2354571;-0.4099723;-0.830331;0.2950138;1;6;0;2178;-2766;1977;65536;0.5980333;0.4362881;0.5540166;-0.3808864;-5;3;1;-189;-3858;-1432;8192;0.901778;0.3185596;0.1177285;-0.267313;0;-2;-1;-1614;-2627;2679;32768;0.6978727;0.4127424;0.4709141;-0.3476454;0;0;0;377;-3667;-1840;256;0.4238227;-0.5951926;-0.368421;-0.5747922;-7;-1;1;-163;3772;-1461;128;0.4778393;-0.5509037;-0.5041551;-0.4626039;-3;6;0;-467;4065;152;4;-0.02908587;0.01939058;-0.7151846;-0.6980609;0;1;0;113;4030;12;16;0.466759;-0.5997566;0.4390582;0.4792244;2;3;0;385;4038;692;2;0.699446;-0.7106141;0.04570637;-0.06094183;-3;5;-5;-605;4042;-11;8;0.4487534;-0.5138504;0.4459834;0.5793763;-1;-1;0;-261;4033;883;0.5015004;2.82549;-0.1909861;0.5073391;3.357574;-0.3112924;0.5124664;3.82483;-0.4190145;0.4792921;4.505829;-0.147715;0.2054729;4.810001;-0.06256712;-0.1279529;4.639943;-0.05574065;-0.7797792;5.272311;-0.2389367;-0.7534303;6.166621;-0.5508875;0.7252004;4.835322;-0.06256706;1.021253;4.69593;-0.05574;1.765923;5.30721;-0.04682767;1.993769;6.163268;-0.3830365;0.1892395;2.782843;-0.188418;0.1560407;1.320242;-0.2119866;0;0;0;0.1892395;2.782843;-0.188418;0.1560407;1.320242;-0.2119866;0;0;0
154892.4586;NotLabelled;16384;-0.2354571;-0.4099723;-0.830331;0.2950138;0;8;0;2232;-2812;2005;65536;0.5967473;0.4362881;0.5554016;-0.3808864;-5;3;1;-77;-3902;-1408;8192;0.9021874;0.3185596;0.1177285;-0.265928;0;-1;-1;-1614;-2623;2673;32768;0.6978727;0.4127424;0.4709141;-0.3476454;0;1;0;395;-3689;-1778;256;0.4238227;-0.5956693;-0.3698061;-0.5734072;-9;-1;0;-247;3836;-1537;128;0.4764543;-0.5496679;-0.5055401;-0.4639889;-5;7;0;-451;4173;164;4;-0.02908587;0.01939058;-0.7151846;-0.6980609;0;3;0;101;4032;28;16;0.466759;-0.6008607;0.4390582;0.4778393;2;2;0;399;4044;626;2;0.699446;-0.7105817;0.04432133;-0.06232687;-3;6;-5;-637;4114;-67;8;0.4473684;-0.5138504;0.4459834;0.5804465;0;0;0;-285;4057;925;0.5052173;2.82524;-0.189718;0.5110558;3.357306;-0.3101062;0.5161828;3.824545;-0.4179001;0.4851457;4.506257;-0.1481433;0.2122861;4.81149;-0.06371291;-0.1216793;4.642508;-0.05653886;-0.7732984;5.274876;-0.2404711;-0.7494876;6.169123;-0.5528082;0.7320913;4.835158;-0.06371278;1.027699;4.694842;-0.05653822;1.772424;5.306056;-0.04771483;2.00065;6.162114;-0.3836658;0.1929565;2.782593;-0.1871428;0.1597843;1.319993;-0.2107494;0;0;0;0.1929565;2.782593;-0.1871428;0.1597843;1.319993;-0.2107494;0;0;0
154912.6666;NotLabelled;16384;-0.2354571;-0.4085872;-0.8310134;0.2950138;0;7;0;2230;-2744;2035;65536;0.5986377;0.434903;0.5554016;-0.3795014;-5;5;2;-191;-3896;-1410;8192;0.9021874;0.3185596;0.1177285;-0.265928;1;-2;-1;-1596;-2567;2763;32768;0.6978727;0.4127424;0.4709141;-0.3476454;-1;-1;0;491;-3693;-1786;256;0.4265928;-0.5941603;-0.3711911;-0.5720221;-8;-2;0;-201;3814;-1483;128;0.4750692;-0.5496958;-0.5055401;-0.4653739;-3;5;0;-505;4131;288;4;-0.03047091;0.02077562;-0.715088;-0.6980609;1;2;0;107;4030;4;16;0.468144;-0.5997822;0.4390582;0.4778393;2;2;0;269;4042;660;2;0.699446;-0.7104588;0.04432133;-0.06371191;-3;5;-4;-649;4114;-95;8;0.4473684;-0.5138504;0.4459834;0.5804465;0;1;1;-213;4025;903;0.5014935;2.826133;-0.1865613;0.5073354;3.358517;-0.3055365;0.5124657;3.82604;-0.4120896;0.4803376;4.509639;-0.1472833;0.2070022;4.815074;-0.06515396;-0.1267176;4.645659;-0.05686729;-0.7780264;5.277794;-0.2426869;-0.751292;6.170575;-0.5589572;0.7267722;4.839505;-0.06515372;1.022583;4.699679;-0.05686671;1.767295;5.310893;-0.04708779;1.9959;6.166951;-0.3827809;0.1892326;2.783479;-0.1841084;0.1563323;1.320874;-0.2077961;0;0;0;0.1892326;2.783479;-0.1841084;0.1563323;1.320874;-0.2077961;0;0;0
154933.4768;NotLabelled;16384;-0.234072;-0.4072022;-0.8320838;0.2950138;0;7;0;2190;-2710;2045;65536;0.5973496;0.434903;0.5567867;-0.3795014;-4;4;2;-241;-3858;-1472;8192;0.9021874;0.3185596;0.1177285;-0.265928;0;-4;0;-1530;-2547;2773;32768;0.6978727;0.4127424;0.4709141;-0.3476454;-1;-3;0;335;-3785;-1788;256;0.4265928;-0.5941603;-0.3711911;-0.5720221;-7;-2;0;-243;3732;-1555;128;0.4736842;-0.5497168;-0.5055401;-0.466759;-3;0;0;-469;4105;286;4;-0.03047091;0.02077562;-0.715088;-0.6980609;1;2;1;87;4092;132;16;0.468144;-0.5997822;0.4390582;0.4778393;2;4;0;293;3990;734;2;0.699446;-0.7103711;0.04570637;-0.06371191;-3;5;-4;-597;4104;-131;8;0.4473684;-0.5138504;0.4459834;0.5804465;0;1;0;-175;4013;885;0.5014936;2.826139;-0.1864394;0.507339;3.358836;-0.3040046;0.5124723;3.82664;-0.4093196;0.4803443;4.51024;-0.1445133;0.2070089;4.815674;-0.06238392;-0.1267109;4.646259;-0.05409738;-0.7792872;5.27733;-0.2390896;-0.7554505;6.170044;-0.5557763;0.7267789;4.840106;-0.06238371;1.022589;4.70028;-0.05409658;1.767303;5.311492;-0.04431772;1.995908;6.167552;-0.3800107;0.1892326;2.78348;-0.1841085;0.1563324;1.320874;-0.2077962;0;0;0;0.1892326;2.78348;-0.1841085;0.1563324;1.320874;-0.2077962;0;0;0
154953.6747;NotLabelled;16384;-0.234072;-0.4058172;-0.8327602;0.2950138;0;6;0;2104;-2696;2051;65536;0.5957659;0.433518;0.5595568;-0.3795014;-3;7;2;-213;-3810;-1548;8192;0.9021044;0.3199446;0.1177285;-0.2645429;-2;-4;0;-1548;-2587;2713;32768;0.698561;0.4127424;0.4709141;-0.3462604;-1;-4;0;397;-3685;-1780;256;0.4279778;-0.594496;-0.3711911;-0.5706371;-4;-3;1;-291;3778;-1521;128;0.4736842;-0.5509872;-0.5041551;-0.466759;-3;0;0;-433;4099;282;4;-0.03185596;0.02077562;-0.7150276;-0.6980609;0;4;0;71;4144;186;16;0.468144;-0.6008831;0.4390582;0.4764543;2;1;0;421;4006;774;2;0.700831;-0.7088382;0.04432133;-0.06648199;-3;4;-2;-659;4070;-33;8;0.4473684;-0.5138504;0.4459834;0.5804465;1;1;0;-233;4063;919;0.5051027;2.825856;-0.181759;0.5109518;3.358882;-0.2978233;0.5160883;3.826982;-0.4018202;0.4838262;4.511245;-0.1387513;0.2104352;4.816845;-0.05742906;-0.1232602;4.647402;-0.04875278;-0.7751672;5.278241;-0.236871;-0.753716;6.170077;-0.5561888;0.7302016;4.841355;-0.05742884;1.026032;4.701594;-0.04875207;1.769029;5.314855;-0.03683889;1.998824;6.170216;-0.3734969;0.1928416;2.78319;-0.1795579;0.1604806;1.320624;-0.2062158;0;0;0;0.1928416;2.78319;-0.1795579;0.1604806;1.320624;-0.2062158;0;0;0
154973.469;NotLabelled;16384;-0.232687;-0.4044321;-0.8333302;0.2963989;-3;6;0;2148;-2794;2037;65536;0.5967714;0.432133;0.5595568;-0.3795014;-2;7;2;-167;-3866;-1552;8192;0.9022841;0.3199446;0.1163435;-0.2645429;-2;-2;1;-1660;-2587;2701;32768;0.698561;0.4127424;0.4709141;-0.3462604;-1;-5;-1;309;-3701;-1766;256;0.4279778;-0.594496;-0.3711911;-0.5706371;-4;-3;2;-237;3806;-1503;128;0.4736842;-0.5509872;-0.5041551;-0.466759;-2;0;0;-419;4137;260;4;-0.03185596;0.02216066;-0.714986;-0.6980609;-1;4;0;-51;4026;90;16;0.4695291;-0.5998014;0.4390582;0.4764543;2;0;0;339;3974;712;2;0.700831;-0.7088382;0.04432133;-0.06648199;-1;4;-1;-689;4044;-35;8;0.4473684;-0.5138504;0.4459834;0.5804465;1;0;0;-237;3961;889;0.5016014;2.826774;-0.181824;0.5074505;3.3598;-0.2978883;0.512587;3.827899;-0.4018852;0.4803248;4.512163;-0.1388163;0.2069338;4.817763;-0.0574941;-0.1267616;4.64832;-0.04881782;-0.7785418;5.27997;-0.234638;-0.7546735;6.171066;-0.5558458;0.7267002;4.842273;-0.05749387;1.022531;4.702512;-0.0488171;1.765979;5.315176;-0.03461552;1.995774;6.170537;-0.3712735;0.1893403;2.784108;-0.1796229;0.1567717;1.321498;-0.2034552;0;0;0;0.1893403;2.784108;-0.1796229;0.1567717;1.321498;-0.2034552;0;0;0
154994.0226;NotLabelled;16384;-0.232687;-0.4044321;-0.8333302;0.2963989;-3;7;-1;2140;-2828;2005;65536;0.5964723;0.4307479;0.5609418;-0.3795014;-2;5;0;-99;-3782;-1518;8192;0.9026891;0.3199446;0.1163435;-0.2631579;0;-4;2;-1620;-2635;2519;32768;0.6992458;0.4127424;0.4709141;-0.3448753;1;0;-1;273;-3647;-1692;256;0.4293629;-0.5934964;-0.3711911;-0.5706371;-4;-3;0;-173;3836;-1549;128;0.4736842;-0.5509872;-0.5041551;-0.466759;-1;0;0;-459;4149;258;4;-0.033241;0.02216066;-0.714923;-0.6980609;0;2;0;33;4108;64;16;0.4695291;-0.5998014;0.4390582;0.4764543;2;0;0;307;4068;674;2;0.700831;-0.708707;0.04432133;-0.06786703;-2;4;-2;-657;4068;-93;8;0.4487534;-0.5138504;0.4459834;0.5793763;1;3;0;-305;4045;921;0.501128;2.826735;-0.1789576;0.506977;3.359761;-0.2950219;0.5121136;3.82786;-0.3990188;0.4782279;4.512701;-0.1376653;0.204117;4.817868;-0.05713941;-0.1291845;4.647671;-0.04807882;-0.7809619;5.279321;-0.2339098;-0.7576009;6.169602;-0.5574052;0.723825;4.843586;-0.05713928;1.019978;4.704536;-0.04807824;1.763497;5.317137;-0.03479612;1.993418;6.171797;-0.3731422;0.1888669;2.784069;-0.1767565;0.1567734;1.321497;-0.2034538;0;0;0;0.1888669;2.784069;-0.1767565;0.1567734;1.321497;-0.2034538;0;0;0
155014.5408;NotLabelled;16384;-0.232687;-0.4030471;-0.8335074;0.2977839;-2;6;-2;2098;-2876;1979;65536;0.5964723;0.4307479;0.5609418;-0.3795014;0;5;0;-231;-3826;-1504;8192;0.9026891;0.3199446;0.1163435;-0.2631579;0;-1;0;-1594;-2581;2569;32768;0.6992458;0.4127424;0.4709141;-0.3448753;3;4;-1;297;-3681;-1586;256;0.4293629;-0.594825;-0.3711911;-0.5692521;-5;-4;0;-151;3832;-1453;128;0.4736842;-0.5522514;-0.5027701;-0.466759;-1;0;0;-449;4135;152;4;-0.033241;0.0235457;-0.7162285;-0.6966759;-2;3;0;69;4056;48;16;0.4695291;-0.5998014;0.4390582;0.4764543;2;1;0;325;4048;700;2;0.700831;-0.708707;0.04432133;-0.06786703;-2;5;0;-671;4046;-103;8;0.4487534;-0.5138504;0.4459834;0.5793763;1;5;0;-273;3981;895;0.5074923;2.82664;-0.1804283;0.5133448;3.35999;-0.294995;0.5184845;3.828378;-0.3976767;0.486133;4.513303;-0.136345;0.2127006;4.819069;-0.05578694;-0.1209694;4.649599;-0.04666542;-0.7701201;5.28236;-0.2378345;-0.7457899;6.172641;-0.561258;0.7324632;4.843655;-0.05587214;1.028315;4.703961;-0.04685366;1.771746;5.316602;-0.03086221;2.002681;6.171264;-0.3685169;0.1952312;2.783968;-0.1783565;0.1573826;1.321498;-0.2029823;0;0;0;0.1952312;2.783968;-0.1783565;0.1573826;1.321498;-0.2029823;0;0;0
155035.6723;NotLabelled;16384;-0.2313019;-0.4030471;-0.8338928;0.2977839;-2;2;-1;2080;-2768;2001;65536;0.5964723;0.4307479;0.5609418;-0.3795014;1;3;-1;-75;-3796;-1436;8192;0.9028665;0.3199446;0.1149584;-0.2631579;1;2;0;-1474;-2533;2603;32768;0.698561;0.4127424;0.4709141;-0.3462604;2;6;-1;399;-3687;-1568;256;0.432133;-0.5932749;-0.3725762;-0.567867;-10;-3;1;-215;3814;-1397;128;0.4736842;-0.5522514;-0.5027701;-0.466759;-1;-3;0;-445;3999;316;4;-0.03462604;0.0235457;-0.7161629;-0.6966759;-1;1;0;121;4042;42;16;0.4695291;-0.5998014;0.4390582;0.4764543;2;1;0;331;3978;644;2;0.700831;-0.7086583;0.04293629;-0.06925207;-2;5;0;-763;4056;-65;8;0.4487534;-0.5138504;0.4445983;0.5804399;2;3;-1;-241;4001;907;0.5072187;2.826602;-0.1773164;0.5130713;3.359951;-0.2918831;0.518211;3.82834;-0.3945648;0.4847209;4.5151;-0.1382405;0.2107993;4.821043;-0.06004849;-0.122627;4.651153;-0.04986379;-0.7734454;5.283621;-0.2362734;-0.7487058;6.173903;-0.5596666;0.7305254;4.84639;-0.06004834;1.026576;4.7072;-0.04986322;1.770463;5.319206;-0.03100502;2.001693;6.174567;-0.366679;0.1949576;2.78393;-0.1752448;0.157639;1.321498;-0.202784;0;0;0;0.1949576;2.78393;-0.1752448;0.157639;1.321498;-0.202784;0;0;0
155055.6622;NotLabelled;16384;-0.2313019;-0.4030471;-0.8338928;0.2977839;-1;2;0;2106;-2790;2013;65536;0.5955889;0.4307479;0.5609418;-0.3808864;2;1;-2;-69;-3844;-1434;8192;0.9026891;0.3199446;0.1163435;-0.2631579;1;4;-1;-1600;-2581;2639;32768;0.6978727;0.4127424;0.4709141;-0.3476454;1;5;0;505;-3693;-1492;256;0.433518;-0.59139;-0.3739612;-0.567867;-8;-3;0;-227;3756;-1361;128;0.4736842;-0.5535092;-0.501385;-0.466759;-2;-3;0;-495;4071;262;4;-0.03462604;0.0235457;-0.7161629;-0.6966759;0;-2;0;83;4078;162;16;0.4709141;-0.5976964;0.4404432;0.4764543;2;0;0;239;4030;686;2;0.700831;-0.7086583;0.04293629;-0.06925207;-2;0;0;-799;4004;-5;8;0.4487534;-0.5138504;0.4459834;0.5793763;2;-3;0;-295;3997;793;0.5028983;2.827952;-0.1717775;0.5087544;3.36162;-0.2848499;0.5138972;3.830295;-0.3862191;0.4794258;4.518216;-0.1331588;0.2050757;4.824158;-0.05648023;-0.1281249;4.653871;-0.04556789;-0.7792965;5.286339;-0.2307397;-0.7553834;6.177372;-0.5521191;0.7247673;4.850202;-0.05648005;1.021002;4.711459;-0.04556733;1.764487;5.324059;-0.03053498;1.994894;6.180117;-0.3649939;0.1906372;2.785274;-0.169835;0.1532615;1.322842;-0.1972976;0;0;0;0.1906372;2.785274;-0.169835;0.1532615;1.322842;-0.1972976;0;0;0
155076.7563;NotLabelled;16384;-0.2313019;-0.4030471;-0.8333969;0.299169;-1;1;-1;2242;-2826;2023;65536;0.5957016;0.4293629;0.5609418;-0.3822715;1;2;-1;-77;-3880;-1382;8192;0.9026891;0.3199446;0.1163435;-0.2631579;1;-1;0;-1564;-2597;2729;32768;0.697181;0.4127424;0.4709141;-0.3490305;-4;1;1;481;-3749;-1622;256;0.433518;-0.5927169;-0.3739612;-0.566482;0;-2;0;-203;3812;-1335;128;0.4736842;-0.5535092;-0.501385;-0.466759;-1;-4;1;-477;4139;192;4;-0.033241;0.02216066;-0.7162727;-0.6966759;0;-1;0;123;4096;108;16;0.4709141;-0.5987979;0.4404432;0.4750692;1;0;0;371;4006;680;2;0.702216;-0.7072004;0.04432133;-0.06925207;-1;-2;0;-757;4082;3;8;0.4501385;-0.5138504;0.4459834;0.5783009;0;3;0;-243;3997;723;0.5071844;2.8277;-0.1701269;0.5130404;3.361368;-0.2831993;0.5181834;3.830043;-0.3845685;0.4852221;4.518048;-0.1315354;0.2115443;4.824594;-0.05486943;-0.1220294;4.65504;-0.043951;-0.7712192;5.289374;-0.2296967;-0.7440452;6.180409;-0.5508144;0.7312919;4.849498;-0.05486929;1.027221;4.710104;-0.04395038;1.770658;5.322705;-0.02670598;2.001983;6.179459;-0.3587432;0.1949232;2.785022;-0.1681845;0.1573547;1.322597;-0.1957181;0;0;0;0.1949232;2.785022;-0.1681845;0.1573547;1.322597;-0.1957181;0;0;0
155098.4595;NotLabelled;16384;-0.2299169;-0.4030471;-0.8337801;0.299169;-2;1;-1;2172;-2756;2071;65536;0.5957016;0.4293629;0.5609418;-0.3822715;0;4;0;-83;-3850;-1284;8192;0.9029993;0.3185596;0.1177285;-0.2631579;3;0;-3;-1684;-2565;2671;32768;0.6970627;0.4113573;0.4722992;-0.3490305;-4;4;2;477;-3761;-1682;256;0.434903;-0.5930243;-0.3739612;-0.5650969;-5;-3;1;-219;3804;-1363;128;0.4750692;-0.5548229;-0.4986149;-0.466759;-1;-6;0;-409;4141;236;4;-0.033241;0.02216066;-0.7162727;-0.6966759;0;2;0;171;4092;100;16;0.4709141;-0.5976964;0.4404432;0.4764543;1;-2;-1;297;4066;622;2;0.702216;-0.7072004;0.04432133;-0.06925207;0;0;0;-801;4032;21;8;0.4501385;-0.5138504;0.4445983;0.5793664;0;-1;0;-231;3997;817;0.5042435;2.827951;-0.1704859;0.5101032;3.361948;-0.2820009;0.5152494;3.830916;-0.3820025;0.4821644;4.519561;-0.1307353;0.208436;4.826266;-0.05488792;-0.1251162;4.656696;-0.04357633;-0.7750593;5.290207;-0.2294928;-0.7468745;6.181241;-0.5505239;0.7281802;4.85124;-0.05488759;1.024127;4.711915;-0.04357576;1.768833;5.322992;-0.02707756;2.001106;6.178741;-0.361042;0.1919823;2.785268;-0.168678;0.1545007;1.322842;-0.1963293;0;0;0;0.1919823;2.785268;-0.168678;0.1545007;1.322842;-0.1963293;0;0;0
155118.7033;NotLabelled;16384;-0.2299169;-0.4030471;-0.8337801;0.299169;-1;2;0;2224;-2776;2031;65536;0.5948105;0.4293629;0.5609418;-0.3836565;0;2;0;-85;-3906;-1294;8192;0.9028177;0.3185596;0.1191136;-0.2631579;3;1;-3;-1636;-2585;2679;32768;0.6978782;0.4099723;0.4722992;-0.3490305;-4;4;1;455;-3707;-1700;256;0.4362881;-0.5920061;-0.3739612;-0.5650969;-5;-2;1;-227;3826;-1337;128;0.4750692;-0.5559852;-0.4986149;-0.4653739;-1;-6;0;-437;4091;242;4;-0.03462604;0.0235457;-0.7161629;-0.6966759;0;1;0;121;4086;20;16;0.4709141;-0.5966733;0.4418283;0.4764543;0;1;0;307;4042;662;2;0.702216;-0.7071123;0.04570637;-0.06925207;-1;0;0;-869;4042;-7;8;0.4501385;-0.5138504;0.4459834;0.5783009;0;-2;0;-201;4001;799;0.5037147;2.828437;-0.1673786;0.5095744;3.362435;-0.2788861;0.5147206;3.831404;-0.3788811;0.4799995;4.520603;-0.129358;0.2055476;4.826859;-0.05431853;-0.12761;4.656541;-0.04261948;-0.7775512;5.290054;-0.2285426;-0.7495329;6.181835;-0.5475055;0.7252322;4.853044;-0.05431843;1.021501;4.714438;-0.04261857;1.765771;5.326108;-0.02852845;2.000329;6.180659;-0.3639547;0.1914535;2.785753;-0.1655713;0.1542519;1.323322;-0.1932691;0;0;0;0.1914535;2.785753;-0.1655713;0.1542519;1.323322;-0.1932691;0;0;0
155139.6279;NotLabelled;16384;-0.2285319;-0.4016621;-0.8348286;0.299169;-1;3;0;2156;-2826;2015;65536;0.5936047;0.4279778;0.5623268;-0.3850415;-1;5;1;-57;-3850;-1328;8192;0.9031215;0.3171745;0.1204986;-0.2631579;3;1;-5;-1646;-2643;2741;32768;0.6969388;0.4099723;0.4736842;-0.3490305;-3;3;2;357;-3719;-1758;256;0.4362881;-0.5933251;-0.3739612;-0.5637119;-2;-4;1;-243;3878;-1359;128;0.4750692;-0.5572242;-0.4972299;-0.4653739;-2;-5;0;-415;4123;230;4;-0.03462604;0.0235457;-0.7161629;-0.6966759;0;0;1;103;4056;52;16;0.4709141;-0.5977767;0.4418283;0.4750692;0;0;0;341;4020;672;2;0.702216;-0.7071123;0.04570637;-0.06925207;0;-3;-1;-723;4014;-123;8;0.4501385;-0.5138504;0.4459834;0.5783009;0;0;0;-283;3971;823;0.5076988;2.828193;-0.1655382;0.5135618;3.362498;-0.2755617;0.518711;3.831744;-0.3742535;0.4855044;4.521028;-0.1247572;0.2117261;4.827889;-0.04973014;-0.1218051;4.658305;-0.03802473;-0.7724133;5.290776;-0.2251552;-0.7440783;6.182501;-0.5442473;0.731467;4.852931;-0.04973018;1.027431;4.713675;-0.03802472;1.772967;5.323817;-0.02468979;2.006185;6.178555;-0.3605756;0.1954376;2.785505;-0.1638588;0.1583229;1.323073;-0.1916729;0;0;0;0.1954376;2.785505;-0.1638588;0.1583229;1.323073;-0.1916729;0;0;0
155160.6393;NotLabelled;16384;-0.2285319;-0.4016621;-0.8348286;0.299169;-1;4;-2;2202;-2776;2011;65536;0.5922895;0.4279778;0.5637119;-0.3850415;-2;5;1;-211;-3832;-1320;8192;0.9029356;0.3171745;0.1218837;-0.2631579;2;2;-4;-1608;-2555;2767;32768;0.6977517;0.4085872;0.4736842;-0.3490305;-2;4;1;433;-3679;-1854;256;0.4376731;-0.5923041;-0.3739612;-0.5637119;0;-5;1;-269;3884;-1379;128;0.4750692;-0.5572242;-0.4972299;-0.4653739;-1;-6;0;-411;4137;246;4;-0.03462604;0.02216066;-0.7162071;-0.6966759;0;0;1;89;4082;108;16;0.4709141;-0.5987979;0.4404432;0.4750692;0;0;0;311;4050;680;2;0.702216;-0.7070214;0.04709141;-0.06925207;0;-2;0;-713;4042;-25;8;0.4501385;-0.5138504;0.4459834;0.5783009;0;-1;0;-231;4015;883;0.5077206;2.827666;-0.1657696;0.5135836;3.361972;-0.2757932;0.5187327;3.831218;-0.3744848;0.4838897;4.521051;-0.1267387;0.2093883;4.827464;-0.05252235;-0.1237488;4.657133;-0.04042836;-0.7743531;5.289604;-0.2275718;-0.7489473;6.181273;-0.5470674;0.7290695;4.853715;-0.05252224;1.025355;4.715179;-0.04042804;1.770447;5.325911;-0.02949476;2.005949;6.179448;-0.3668356;0.1954593;2.784978;-0.1640903;0.1585847;1.322596;-0.1947228;0;0;0;0.1954593;2.784978;-0.1640903;0.1585847;1.322596;-0.1947228;0;0;0
155180.6445;NotLabelled;16384;-0.2285319;-0.4016621;-0.8343309;0.300554;-1;6;-2;2226;-2708;2023;65536;0.5932879;0.4265928;0.5637119;-0.3850415;-2;7;1;-71;-3802;-1374;8192;0.9029356;0.3171745;0.1218837;-0.2631579;2;4;-4;-1644;-2567;2677;32768;0.6968095;0.4085872;0.4750692;-0.3490305;-2;4;0;355;-3669;-1872;256;0.4376731;-0.5931763;-0.3725762;-0.5637119;0;-6;1;-323;3830;-1423;128;0.4750692;-0.558457;-0.4958449;-0.4653739;-1;-8;0;-445;4129;276;4;-0.03462604;0.02216066;-0.7162071;-0.6966759;0;-2;1;-15;4110;106;16;0.4709141;-0.5966733;0.4418283;0.4764543;0;0;0;315;4006;716;2;0.702216;-0.7070214;0.04709141;-0.06925207;0;-1;0;-671;4056;13;8;0.4501385;-0.5138504;0.4459834;0.5783009;0;-2;0;-309;3991;861;0.5043314;2.828396;-0.1633028;0.5101978;3.363004;-0.2718453;0.51535;3.832521;-0.3692364;0.4798509;4.52177;-0.1199581;0.2050541;4.827744;-0.04503226;-0.1279124;4.657057;-0.03327864;-0.7766709;5.291395;-0.2205124;-0.7481847;6.182316;-0.5418282;0.724709;4.854512;-0.0450322;1.021133;4.716243;-0.03327799;1.766199;5.326975;-0.02067125;2.000008;6.180699;-0.358717;0.1920701;2.785704;-0.1617513;0.1552595;1.323322;-0.1924605;0;0;0;0.1920701;2.785704;-0.1617513;0.1552595;1.323322;-0.1924605;0;0;0
155201.4647;NotLabelled;16384;-0.2257618;-0.400277;-0.8357495;0.300554;-2;4;-2;2100;-2706;1981;65536;0.5907377;0.4252077;0.566482;-0.3864266;0;6;3;-67;-3848;-1484;8192;0.9032329;0.3157895;0.1232687;-0.2631579;1;2;-3;-1548;-2599;2749;32768;0.6966745;0.4072022;0.4764543;-0.3490305;0;2;1;467;-3641;-1888;256;0.4390582;-0.595642;-0.3711911;-0.5609418;-2;-5;0;-203;3850;-1397;128;0.4778393;-0.5596974;-0.4930748;-0.4639889;0;-7;1;-395;4105;304;4;-0.033241;0.02216066;-0.7162727;-0.6966759;0;-3;0;41;4108;112;16;0.4709141;-0.5966733;0.4418283;0.4764543;0;0;0;279;4040;682;2;0.702216;-0.7071556;0.04709141;-0.06786703;0;-2;0;-665;4064;-21;8;0.4487534;-0.5138504;0.4459834;0.5793763;0;0;0;-265;4003;877;0.5062221;2.82844;-0.1645456;0.5120887;3.363068;-0.2729912;0.517241;3.832603;-0.3702971;0.4824671;4.521991;-0.1213031;0.2079931;4.828287;-0.04650889;-0.1251544;4.657958;-0.03469212;-0.7749625;5.290443;-0.224535;-0.7474549;6.181261;-0.5462244;0.7276762;4.854504;-0.04650861;1.023954;4.715925;-0.03469133;1.770216;5.325125;-0.01907194;2.006728;6.177832;-0.357803;0.1939608;2.785747;-0.1630025;0.1568577;1.323321;-0.1911603;0;0;0;0.1939608;2.785747;-0.1630025;0.1568577;1.323321;-0.1911603;0;0;0
155221.6157;NotLabelled;16384;-0.2257618;-0.400277;-0.8357495;0.300554;-1;1;-3;2162;-2792;2043;65536;0.5904031;0.4238227;0.567867;-0.3864266;0;3;2;-87;-3860;-1466;8192;0.9030429;0.3157895;0.1246537;-0.2631579;0;2;-4;-1554;-2571;2761;32768;0.6966745;0.4072022;0.4764543;-0.3490305;0;4;2;453;-3597;-1846;256;0.4404432;-0.5946186;-0.3711911;-0.5609418;0;-5;0;-159;3878;-1411;128;0.4778393;-0.5596974;-0.4930748;-0.4639889;0;-2;0;-449;4123;350;4;-0.033241;0.02077562;-0.7163143;-0.6966759;0;-1;0;71;4086;124;16;0.4709141;-0.5966733;0.4418283;0.4764543;0;0;0;309;4042;662;2;0.702216;-0.7070621;0.04847645;-0.06786703;0;-3;0;-659;4046;-3;8;0.4487534;-0.5138504;0.4459834;0.5793763;0;-1;0;-273;4003;851;0.5059546;2.82839;-0.1617287;0.5118212;3.363018;-0.2701743;0.5169736;3.832553;-0.3674802;0.4805693;4.52249;-0.1202464;0.2053765;4.82834;-0.04626752;-0.1273771;4.657269;-0.03405991;-0.7771831;5.289754;-0.2239105;-0.7502075;6.179766;-0.5478656;0.7249973;4.85576;-0.04626733;1.021593;4.717899;-0.03405917;1.767422;5.327685;-0.02085209;2.003938;6.180392;-0.3595805;0.1936933;2.785697;-0.1601857;0.1568598;1.323322;-0.1911586;0;0;0;0.1936933;2.785697;-0.1601857;0.1568598;1.323322;-0.1911586;0;0;0
155242.4621;NotLabelled;16384;-0.2243767;-0.398892;-0.8367841;0.300554;-1;1;-3;2148;-2744;2033;65536;0.5904031;0.4238227;0.567867;-0.3864266;1;4;4;-111;-3900;-1528;8192;0.9030429;0.3157895;0.1246537;-0.2631579;-1;5;-4;-1592;-2493;2807;32768;0.6965341;0.4058172;0.4778393;-0.3490305;0;3;1;429;-3629;-1880;256;0.4404432;-0.5946186;-0.3711911;-0.5609418;3;-4;0;-201;3818;-1395;128;0.4778393;-0.5596974;-0.4930748;-0.4639889;-2;-2;0;-463;4101;426;4;-0.033241;0.02077562;-0.7163143;-0.6966759;-1;-2;0;29;4066;142;16;0.4709141;-0.5966733;0.4418283;0.4764543;0;0;0;331;4012;694;2;0.702216;-0.7071936;0.04847645;-0.06648199;0;-2;1;-673;4028;33;8;0.4487534;-0.5138504;0.4459834;0.5793763;0;-1;0;-195;4061;871;0.5059546;2.82839;-0.1617287;0.5118212;3.363018;-0.2701743;0.5169736;3.832553;-0.3674802;0.4805693;4.52249;-0.1202464;0.2053765;4.82834;-0.04626752;-0.1273771;4.657269;-0.03405991;-0.7784261;5.288726;-0.2230723;-0.7514504;6.178739;-0.547027;0.7249973;4.85576;-0.04626733;1.021593;4.717899;-0.03405917;1.767422;5.327685;-0.02086055;2.003818;6.179373;-0.3622305;0.1936933;2.785697;-0.1601857;0.1568598;1.323322;-0.1911586;0;0;0;0.1936933;2.785697;-0.1601857;0.1568598;1.323322;-0.1911586;0;0;0
155263.4705;NotLabelled;16384;-0.2229917;-0.398892;-0.8371542;0.300554;-3;2;-3;2176;-2700;2065;65536;0.5890678;0.4238227;0.5692521;-0.3864266;2;6;4;-153;-3802;-1580;8192;0.9028506;0.3157895;0.1260388;-0.2631579;-1;4;-3;-1622;-2621;2779;32768;0.6965341;0.4058172;0.4778393;-0.3490305;2;3;2;325;-3673;-1956;256;0.4404432;-0.5954809;-0.3698061;-0.5609418;5;-4;0;-153;3856;-1459;128;0.4778393;-0.5609145;-0.4916897;-0.4639889;-1;-3;1;-475;4085;264;4;-0.033241;0.02077562;-0.7163143;-0.6966759;-1;-4;0;51;4022;70;16;0.4709141;-0.5966733;0.4418283;0.4764543;0;-1;0;297;4030;694;2;0.702216;-0.7071936;0.04847645;-0.06648199;0;-1;1;-771;4066;-27;8;0.4487534;-0.5124654;0.4459834;0.5806018;0;-2;0;-221;3921;935;0.506286;2.828394;-0.1612006;0.5121559;3.363317;-0.2681777;0.5173111;3.833118;-0.3641938;0.4802389;4.522472;-0.1154385;0.2047458;4.82788;-0.04075481;-0.1278333;4.656447;-0.02888504;-0.7797932;5.287086;-0.2174867;-0.7551069;6.177041;-0.541784;0.7243387;4.855825;-0.0407545;1.021075;4.718238;-0.02888429;1.766437;5.328611;-0.01643002;2.00354;6.180298;-0.3573096;0.1940246;2.785697;-0.1597842;0.1572553;1.323322;-0.1908333;0;0;0;0.1940246;2.785697;-0.1597842;0.1572553;1.323322;-0.1908333;0;0;0
155283.6216;NotLabelled;16384;-0.2229917;-0.398892;-0.8366557;0.301939;-3;2;-4;2100;-2778;2037;65536;0.5890678;0.4238227;0.5692521;-0.3864266;2;5;4;-121;-3766;-1474;8192;0.902365;0.3171745;0.1260388;-0.2631579;-2;2;-2;-1544;-2603;2745;32768;0.6965341;0.4058172;0.4778393;-0.3490305;3;2;2;313;-3663;-1838;256;0.4404432;-0.5954809;-0.3698061;-0.5609418;4;-4;0;-177;3862;-1415;128;0.4778393;-0.5609145;-0.4916897;-0.4639889;-1;0;0;-435;4111;242;4;-0.03185596;0.01939058;-0.716416;-0.6966759;0;-4;-1;33;4040;38;16;0.4709141;-0.5966733;0.4418283;0.4764543;0;0;0;305;4002;622;2;0.702216;-0.7072262;0.04986149;-0.06509695;0;-3;1;-765;4016;-81;8;0.4487534;-0.5124654;0.4459834;0.5806018;1;-3;0;-261;4013;859;0.5065553;2.828388;-0.1612448;0.5124252;3.363312;-0.2682218;0.5175804;3.833113;-0.3642379;0.4805082;4.522467;-0.1154827;0.2050152;4.827874;-0.04079895;-0.127564;4.656441;-0.02892917;-0.7781398;5.288951;-0.2160408;-0.7534537;6.178905;-0.5403384;0.7246079;4.85582;-0.0407986;1.021345;4.718232;-0.0289284;1.764956;5.330726;-0.01595414;2.002059;6.182412;-0.3568337;0.1942939;2.785692;-0.1598283;0.1572553;1.323322;-0.1908333;0;0;0;0.1942939;2.785692;-0.1598283;0.1572553;1.323322;-0.1908333;0;0;0
155304.5565;NotLabelled;16384;-0.2216066;-0.400277;-0.8363621;0.301939;-4;1;-5;2076;-2756;2027;65536;0.5881569;0.4238227;0.5692521;-0.3878116;3;5;3;-63;-3802;-1466;8192;0.902365;0.3171745;0.1260388;-0.2631579;-2;2;-2;-1586;-2639;2731;32768;0.6948852;0.4058172;0.4792244;-0.3504155;3;2;1;279;-3679;-1832;256;0.4404432;-0.5963389;-0.368421;-0.5609418;1;-4;0;-235;3842;-1421;128;0.4778393;-0.5597659;-0.4916897;-0.4653739;0;5;0;-425;4123;272;4;-0.03185596;0.01939058;-0.716416;-0.6966759;0;-4;-1;129;4032;64;16;0.4709141;-0.5966733;0.4418283;0.4764543;0;0;0;287;3978;678;2;0.702216;-0.7072262;0.04986149;-0.06509695;0;-5;1;-707;4042;-45;8;0.4487534;-0.5124654;0.4459834;0.5806018;1;-3;0;-237;4023;853;0.5068848;2.828388;-0.1608441;0.5127546;3.36331;-0.2678295;0.5179099;3.833109;-0.363853;0.4801651;4.521878;-0.1135812;0.20437;4.82684;-0.0381951;-0.1280328;4.655042;-0.02666266;-0.7792739;5.286936;-0.2135389;-0.7541264;6.177653;-0.5357002;0.7239341;4.855315;-0.03819448;1.020812;4.718004;-0.0266608;1.764364;5.330498;-0.010607;1.999597;6.18309;-0.3505155;0.1946235;2.785692;-0.159427;0.1576488;1.323322;-0.1905083;0;0;0;0.1946235;2.785692;-0.159427;0.1576488;1.323322;-0.1905083;0;0;0
155325.4912;NotLabelled;16384;-0.2188366;-0.400277;-0.8370913;0.301939;-4;1;-5;2170;-2802;2035;65536;0.5868132;0.4238227;0.5706371;-0.3878116;5;5;3;-91;-3962;-1434;8192;0.902365;0.3171745;0.1260388;-0.2631579;-3;3;-1;-1568;-2567;2741;32768;0.6940745;0.4072022;0.4792244;-0.3504155;4;3;1;283;-3641;-1860;256;0.4404432;-0.5976387;-0.368421;-0.5595568;0;-5;0;-199;3860;-1387;128;0.4764543;-0.5597282;-0.4930748;-0.4653739;0;6;0;-437;4121;258;4;-0.03047091;0.01800554;-0.7165124;-0.6966759;0;-2;0;109;4054;110;16;0.4709141;-0.5945346;0.4432133;0.4778393;0;-1;0;285;4068;690;2;0.702216;-0.7072533;0.05124654;-0.06371191;1;-7;2;-701;4030;-19;8;0.4473684;-0.5124654;0.4459834;0.5816696;1;-2;0;-267;3997;897;0.5038652;2.829101;-0.1583791;0.509735;3.364015;-0.2654002;0.5148902;3.833808;-0.361455;0.4786462;4.522668;-0.1112125;0.2035165;4.828234;-0.03584093;-0.1292603;4.657162;-0.02430303;-0.7823883;5.287419;-0.2101223;-0.7592044;6.178075;-0.5326003;0.7231415;4.855576;-0.03583854;1.019719;4.717618;-0.02429754;1.763198;5.330111;-0.005112529;1.997196;6.183902;-0.3428581;0.1916039;2.786404;-0.1569588;0.1544677;1.32404;-0.1881102;0;0;0;0.1916039;2.786404;-0.1569588;0.1544677;1.32404;-0.1881102;0;0;0
155346.6758;NotLabelled;16384;-0.2174515;-0.400277;-0.8369514;0.3033241;-5;2;-5;2268;-2766;2103;65536;0.5845433;0.4238227;0.5720221;-0.3891967;5;6;3;-209;-3976;-1386;8192;0.9012769;0.3185596;0.1274238;-0.2645429;-2;4;0;-1614;-2593;2765;32768;0.6933735;0.4072022;0.4792244;-0.3518005;8;5;0;415;-3753;-1738;256;0.4404432;-0.5984902;-0.367036;-0.5595568;2;-4;0;-233;3904;-1339;128;0.4764543;-0.5585737;-0.4930748;-0.466759;1;5;1;-461;4151;256;4;-0.03047091;0.01800554;-0.7165124;-0.6966759;0;-2;0;111;4096;150;16;0.4695291;-0.5956291;0.4432133;0.4778393;0;0;0;335;4022;724;2;0.702216;-0.7074974;0.05124654;-0.06094183;1;-4;2;-615;4024;-27;8;0.4487534;-0.5124654;0.4459834;0.5806018;1;-1;0;-251;4031;871;0.5079949;2.828267;-0.1606639;0.5138646;3.36318;-0.2676937;0.5190198;3.832971;-0.3637561;0.4820955;4.521244;-0.1120027;0.2066599;4.826359;-0.03593004;-0.1259388;4.65492;-0.02472682;-0.7791721;5.286208;-0.206634;-0.7585218;6.17756;-0.5273553;0.7262564;4.854238;-0.03592974;1.022978;4.716562;-0.02472585;1.764186;5.33185;-0.007220864;1.998699;6.186357;-0.3427898;0.1957336;2.78557;-0.1592429;0.1586614;1.323206;-0.1904704;0;0;0;0.1957336;2.78557;-0.1592429;0.1586614;1.323206;-0.1904704;0;0;0
155367.4642;NotLabelled;16384;-0.2160665;-0.400277;-0.83731;0.3033241;-5;0;-4;2208;-2778;2049;65536;0.5826105;0.4252077;0.5720221;-0.3905817;5;5;3;-171;-3944;-1332;8192;0.9008692;0.3185596;0.1274238;-0.265928;-2;5;0;-1518;-2623;2761;32768;0.692669;0.4072022;0.4792244;-0.3531856;6;4;0;473;-3731;-1664;256;0.4404432;-0.5993375;-0.365651;-0.5595568;2;-4;0;-193;3810;-1369;128;0.4764543;-0.5573481;-0.4944598;-0.466759;0;1;0;-485;4129;270;4;-0.03047091;0.01800554;-0.7165124;-0.6966759;0;-2;0;55;4118;102;16;0.4695291;-0.5956291;0.4432133;0.4778393;0;0;0;285;4024;648;2;0.702216;-0.7076153;0.05124654;-0.05955679;2;-4;2;-633;4072;-67;8;0.4487534;-0.5110803;0.4473684;0.580757;1;0;0;-307;4011;801;0.5083209;2.828263;-0.160388;0.5141875;3.362879;-0.2688904;0.5193397;3.832404;-0.3662463;0.4817299;4.520087;-0.1129869;0.2059862;4.82475;-0.03621595;-0.1264328;4.65294;-0.02534796;-0.7806449;5.283402;-0.2065995;-0.7620039;6.176233;-0.5233064;0.7255535;4.853168;-0.03621578;1.022419;4.715776;-0.02534723;1.763492;5.331156;-0.005521655;1.99851;6.186379;-0.3389099;0.1960596;2.785571;-0.15884;0.1590515;1.323206;-0.1901441;0;0;0;0.1960596;2.785571;-0.15884;0.1590515;1.323206;-0.1901441;0;0;0
155387.4485;NotLabelled;16384;-0.2146814;-0.4016621;-0.837003;0.3033241;-4;0;-4;2164;-2812;2007;65536;0.5826105;0.4252077;0.5720221;-0.3905817;5;2;1;-191;-3896;-1296;8192;0.9008692;0.3185596;0.1274238;-0.265928;-3;5;-1;-1542;-2585;2755;32768;0.6911441;0.4085872;0.4792244;-0.3545706;5;2;0;343;-3737;-1530;256;0.4418283;-0.5991614;-0.3642659;-0.5595568;2;-3;0;-197;3848;-1341;128;0.4750692;-0.5585291;-0.4944598;-0.466759;-1;0;0;-439;4109;298;4;-0.03047091;0.01800554;-0.7165124;-0.6966759;0;-3;0;59;4110;116;16;0.4695291;-0.5956291;0.4432133;0.4778393;1;-2;0;305;4050;626;2;0.702216;-0.7075136;0.05263158;-0.05955679;1;-3;2;-619;4104;-85;8;0.4487534;-0.5110803;0.4473684;0.580757;1;1;0;-291;4011;799;0.5086473;2.828267;-0.1598612;0.5145168;3.363171;-0.2669349;0.5196719;3.832954;-0.3630359;0.4797573;4.520604;-0.110039;0.2029948;4.824372;-0.03338976;-0.1288482;4.651456;-0.02246315;-0.7840498;5.281271;-0.2023888;-0.7647573;6.174101;-0.5190566;0.7224642;4.854528;-0.03338963;1.019788;4.718133;-0.02246279;1.760811;5.333513;-0.0008417368;1.994018;6.190632;-0.3306144;0.1963859;2.78557;-0.1584363;0.1594423;1.323206;-0.1898166;0;0;0;0.1963859;2.78557;-0.1584363;0.1594423;1.323206;-0.1898166;0;0;0
155407.5782;NotLabelled;16384;-0.2132964;-0.4016621;-0.836854;0.3047091;-3;0;-4;2246;-2824;1935;65536;0.5820257;0.4265928;0.5706371;-0.3919668;5;1;0;-91;-3906;-1142;8192;0.9003782;0.3199446;0.1274238;-0.265928;-3;4;0;-1578;-2659;2633;32768;0.6904318;0.4085872;0.4792244;-0.3559557;4;5;0;293;-3669;-1506;256;0.4418283;-0.6004518;-0.3642659;-0.5581717;2;-3;0;-187;3872;-1355;128;0.4750692;-0.5585291;-0.4944598;-0.466759;0;0;0;-491;4119;230;4;-0.02908587;0.0166205;-0.7166035;-0.6966759;0;-2;0;159;4094;198;16;0.4695291;-0.5956291;0.4432133;0.4778393;0;1;0;319;3978;622;2;0.702216;-0.7077305;0.05124654;-0.05817174;1;-1;2;-655;4064;-37;8;0.4487534;-0.5110803;0.4473684;0.580757;0;0;0;-283;4001;747;0.5093864;2.828261;-0.159297;0.515256;3.363165;-0.2663706;0.520411;3.832949;-0.3624716;0.4819866;4.520695;-0.1095061;0.2058829;4.825066;-0.03287151;-0.126334;4.65287;-0.02193772;-0.7809116;5.283718;-0.2005082;-0.7603577;6.178078;-0.5127506;0.7254164;4.854096;-0.0328716;1.022443;4.717057;-0.02193773;1.761622;5.334547;0.002482772;1.995661;6.192371;-0.3248556;0.1971251;2.785565;-0.157872;0.1600311;1.323206;-0.1893209;0;0;0;0.1971251;2.785565;-0.157872;0.1600311;1.323206;-0.1893209;0;0;0
155428.4732;NotLabelled;16384;-0.2132964;-0.4030471;-0.8361878;0.3047091;-3;-1;-3;2220;-2816;1945;65536;0.5810906;0.4265928;0.5706371;-0.3933518;5;1;0;-91;-3904;-1158;8192;0.899968;0.3199446;0.1274238;-0.267313;-2;5;-1;-1560;-2701;2557;32768;0.6904318;0.4085872;0.4792244;-0.3559557;3;3;1;355;-3581;-1510;256;0.4418283;-0.6004518;-0.3642659;-0.5581717;2;-2;0;-197;3852;-1259;128;0.4764543;-0.5573481;-0.4944598;-0.466759;0;0;0;-429;4101;198;4;-0.02908587;0.0166205;-0.7166035;-0.6966759;0;0;0;137;4122;136;16;0.4695291;-0.5956291;0.4432133;0.4778393;0;0;0;395;4010;670;2;0.702216;-0.7077305;0.05124654;-0.05817174;0;0;1;-655;4060;-49;8;0.4487534;-0.5110803;0.4473684;0.580757;0;0;0;-279;3983;775;0.5093864;2.828258;-0.1594191;0.5152528;3.362874;-0.2679217;0.5204049;3.832398;-0.3652776;0.4819804;4.520145;-0.112312;0.2058768;4.824516;-0.03567715;-0.1263401;4.652319;-0.02474351;-0.7810657;5.28334;-0.2021589;-0.7607502;6.178442;-0.5122834;0.7254103;4.853546;-0.03567713;1.022437;4.716507;-0.02474344;1.761514;5.334087;0.0004841089;1.995552;6.191911;-0.3268541;0.197125;2.785565;-0.157871;0.1600311;1.323206;-0.1893204;0;0;0;0.197125;2.785565;-0.157871;0.1600311;1.323206;-0.1893204;0;0;0
155449.67;NotLabelled;16384;-0.2132964;-0.4030471;-0.8361878;0.3047091;-2;-2;-2;2194;-2752;1969;65536;0.5800712;0.4279778;0.5706371;-0.3933518;3;0;0;-145;-3952;-1106;8192;0.8993582;0.3199446;0.1288089;-0.2686981;0;2;0;-1500;-2613;2575;32768;0.687928;0.4099723;0.4806094;-0.3573407;1;4;2;395;-3769;-1472;256;0.4418283;-0.6012899;-0.3628809;-0.5581717;1;-2;0;-197;3808;-1353;128;0.4764543;-0.5573481;-0.4944598;-0.466759;-1;-1;0;-413;4041;200;4;-0.02908587;0.0166205;-0.7166035;-0.6966759;0;0;0;103;4086;172;16;0.4695291;-0.594596;0.4445983;0.4778393;0;-2;0;375;4030;626;2;0.702216;-0.7077305;0.05124654;-0.05817174;0;-3;0;-715;4034;-57;8;0.4487534;-0.5110803;0.4473684;0.580757;0;0;0;-227;3999;753;0.5093575;2.828733;-0.1559568;0.515224;3.36335;-0.2644592;0.5203763;3.832874;-0.3618151;0.4812562;4.52003;-0.1073539;0.2048405;4.823942;-0.0300259;-0.1271929;4.651371;-0.01942587;-0.7815232;5.282392;-0.1982924;-0.7630469;6.178193;-0.5065086;0.724343;4.85352;-0.03002566;1.021516;4.716773;-0.01942486;1.760014;5.335037;0.005961657;1.9898;6.194924;-0.3189677;0.1970962;2.786041;-0.1544088;0.1600664;1.323682;-0.1859338;0;0;0;0.1970962;2.786041;-0.1544088;0.1600664;1.323682;-0.1859338;0;0;0
155470.6129;NotLabelled;16384;-0.2119114;-0.4030471;-0.8365399;0.3047091;-1;-2;-2;2228;-2782;1967;65536;0.5804911;0.4279778;0.5692521;-0.3947368;2;0;0;-135;-3932;-1020;8192;0.8993582;0.3199446;0.1288089;-0.2686981;0;3;0;-1552;-2639;2639;32768;0.687928;0.4099723;0.4806094;-0.3573407;0;2;2;393;-3805;-1462;256;0.4418283;-0.6012899;-0.3628809;-0.5581717;1;-1;0;-207;3786;-1341;128;0.4764543;-0.5573481;-0.4944598;-0.466759;0;0;0;-469;4045;262;4;-0.02908587;0.0166205;-0.7166035;-0.6966759;0;0;0;57;4070;116;16;0.4695291;-0.594596;0.4445983;0.4778393;0;-2;0;279;4032;638;2;0.702216;-0.7077305;0.05124654;-0.05817174;0;-4;0;-701;4014;-55;8;0.4487534;-0.5110803;0.4473684;0.580757;0;0;0;-291;3977;747;0.5093575;2.828734;-0.1559569;0.5152239;3.36335;-0.2644594;0.5203761;3.832874;-0.3618153;0.4812562;4.52003;-0.1073541;0.2048405;4.823942;-0.03002597;-0.1271929;4.651371;-0.01942579;-0.7828362;5.281556;-0.1964211;-0.761637;6.178158;-0.5021189;0.724343;4.85352;-0.0300259;1.021516;4.716773;-0.01942527;1.760014;5.335037;0.005960584;1.9898;6.194924;-0.3189689;0.1970961;2.786041;-0.1544089;0.1600663;1.323682;-0.1859339;0;0;0;0.1970961;2.786041;-0.1544089;0.1600663;1.323682;-0.1859339;0;0;0
155491.4721;NotLabelled;16384;-0.2119114;-0.4044321;-0.8358712;0.3047091;-1;0;-2;2286;-2770;1963;65536;0.5804911;0.4279778;0.5692521;-0.3947368;0;2;0;-177;-4042;-1032;8192;0.8993582;0.3199446;0.1288089;-0.2686981;1;2;0;-1716;-2677;2661;32768;0.687928;0.4099723;0.4806094;-0.3573407;-2;0;2;405;-3815;-1470;256;0.4418283;-0.6012899;-0.3628809;-0.5581717;0;-1;0;-279;3822;-1379;128;0.4764543;-0.5573481;-0.4944598;-0.466759;1;0;0;-429;4093;198;4;-0.02908587;0.0166205;-0.7166035;-0.6966759;0;0;0;93;4036;98;16;0.4695291;-0.594596;0.4445983;0.4778393;0;1;0;275;3988;666;2;0.700831;-0.7090006;0.05263158;-0.05817174;0;-2;0;-627;4006;-59;8;0.4487534;-0.5110803;0.4473684;0.580757;0;-3;0;-229;4031;785;0.5093575;2.828734;-0.1559569;0.5152239;3.36335;-0.2644594;0.5203761;3.832874;-0.3618153;0.4812562;4.52003;-0.1073541;0.2048405;4.823942;-0.03002597;-0.1271929;4.651371;-0.01942579;-0.7829543;5.281723;-0.1953846;-0.7617551;6.178327;-0.5010822;0.724343;4.85352;-0.0300259;1.021516;4.716773;-0.01942527;1.760014;5.335037;0.005960584;1.9898;6.194924;-0.3189689;0.1970961;2.786041;-0.1544089;0.1600663;1.323682;-0.1859339;0;0;0;0.1970961;2.786041;-0.1544089;0.1600663;1.323682;-0.1859339;0;0;0
155511.4604;NotLabelled;16384;-0.2119114;-0.4044321;-0.8358712;0.3047091;0;0;-2;2360;-2822;1937;65536;0.5795468;0.4279778;0.5692521;-0.3961219;-2;2;0;-141;-4042;-1018;8192;0.8993582;0.3199446;0.1288089;-0.2686981;1;0;0;-1648;-2617;2629;32768;0.687928;0.4099723;0.4806094;-0.3573407;-2;0;2;411;-3765;-1510;256;0.4418283;-0.6012899;-0.3628809;-0.5581717;0;0;0;-185;3908;-1337;128;0.4764543;-0.5573481;-0.4944598;-0.466759;2;0;0;-417;4151;198;4;-0.02908587;0.0166205;-0.7166035;-0.6966759;0;-1;0;71;4142;144;16;0.4695291;-0.594596;0.4445983;0.4778393;0;-1;0;355;4042;652;2;0.700831;-0.7091129;0.05263158;-0.0567867;0;-3;0;-663;4052;-51;8;0.4473684;-0.5110803;0.4473684;0.5818247;-1;-2;0;-281;4069;869;0.5093575;2.828734;-0.1559569;0.5152239;3.36335;-0.2644594;0.5203761;3.832874;-0.3618153;0.4812562;4.52003;-0.1073541;0.2048405;4.823942;-0.03002597;-0.1271929;4.651371;-0.01942579;-0.7829543;5.281723;-0.1953846;-0.761999;6.179054;-0.4989542;0.724343;4.85352;-0.0300259;1.021516;4.716773;-0.01942527;1.760014;5.335037;0.005960584;1.9898;6.194924;-0.3189689;0.1970961;2.786041;-0.1544089;0.1600663;1.323682;-0.1859339;0;0;0;0.1970961;2.786041;-0.1544089;0.1600663;1.323682;-0.1859339;0;0;0
155532.4916;NotLabelled;16384;-0.2119114;-0.4044321;-0.8358712;0.3047091;0;1;0;2324;-2798;2033;65536;0.5795468;0.4279778;0.5692521;-0.3961219;-4;1;0;-151;-4058;-1054;8192;0.8991587;0.3199446;0.1301939;-0.2686981;2;0;-1;-1670;-2673;2647;32768;0.687928;0.4099723;0.4806094;-0.3573407;-3;2;2;395;-3747;-1472;256;0.4418283;-0.6025727;-0.3628809;-0.5567867;0;-1;0;-245;3904;-1355;128;0.4764543;-0.5585051;-0.4944598;-0.4653739;2;0;-1;-497;4121;150;4;-0.02908587;0.0166205;-0.7179474;-0.6952909;1;-1;-1;15;4130;278;16;0.4695291;-0.594596;0.4445983;0.4778393;0;0;0;285;3966;628;2;0.700831;-0.7091129;0.05263158;-0.0567867;0;-2;-1;-579;4038;-45;8;0.4473684;-0.5110803;0.4473684;0.5818247;-1;0;0;-301;3991;835;0.5154169;2.828563;-0.1545062;0.5212835;3.363181;-0.2630005;0.5264357;3.832707;-0.3603493;0.4887984;4.519957;-0.105919;0.2130392;4.824468;-0.02860495;-0.1193659;4.652615;-0.01799756;-0.7740243;5.282964;-0.1980276;-0.7521281;6.180295;-0.5015314;0.7326043;4.852925;-0.02860528;1.029481;4.715538;-0.01799792;1.767403;5.334398;0.009535074;1.998195;6.194284;-0.3146809;0.2031556;2.785871;-0.1529589;0.1606418;1.323682;-0.1854373;0;0;0;0.2031556;2.785871;-0.1529589;0.1606418;1.323682;-0.1854373;0;0;0
155573.4788;NotLabelled;16384;-0.2119114;-0.4044321;-0.8358712;0.3047091;1;0;0;2412;-2878;1925;65536;0.5795468;0.4279778;0.5692521;-0.3961219;-5;1;0;-135;-4050;-1112;8192;0.8996503;0.3185596;0.1301939;-0.2686981;3;1;-2;-1732;-2649;2679;32768;0.6877829;0.4085872;0.4819945;-0.3573407;-5;1;1;455;-3841;-1516;256;0.4432133;-0.6015547;-0.3628809;-0.5567867;0;-1;0;-249;3900;-1369;128;0.4778393;-0.5573205;-0.4944598;-0.4653739;3;-3;-1;-431;4201;108;4;-0.02908587;0.0166205;-0.7166035;-0.6966759;3;-1;0;63;4120;204;16;0.4695291;-0.594596;0.4445983;0.4778393;0;0;0;285;4082;670;2;0.700831;-0.7090088;0.05401662;-0.0567867;0;-2;-1;-549;4036;-39;8;0.4473684;-0.5110803;0.4459834;0.5828869;-1;0;0;-245;4001;821;0.5098374;2.828729;-0.1554647;0.5157007;3.363055;-0.2653907;0.52085;3.832319;-0.3639968;0.4816053;4.520131;-0.1113355;0.2051398;4.824208;-0.034842;-0.1268734;4.651624;-0.02384074;-0.7820836;5.281976;-0.2018417;-0.7601824;6.179307;-0.5053445;0.7246386;4.853853;-0.0348419;1.021827;4.717171;-0.02384025;1.761612;5.333926;0.0007911921;1.992339;6.192832;-0.3260584;0.1975761;2.786041;-0.1537939;0.1606447;1.323682;-0.1854342;0;0;0;0.1975761;2.786041;-0.1537939;0.1606447;1.323682;-0.1854342;0;0;0
155593.4823;NotLabelled;16384;-0.2119114;-0.4044321;-0.8358712;0.3047091;2;1;0;2372;-2826;1965;65536;0.5795468;0.4279778;0.5692521;-0.3961219;-5;1;0;-169;-3974;-1076;8192;0.8996503;0.3185596;0.1301939;-0.2686981;3;0;-2;-1780;-2643;2669;32768;0.6877829;0.4085872;0.4819945;-0.3573407;-6;0;0;397;-3743;-1516;256;0.4432133;-0.6015547;-0.3628809;-0.5567867;-1;-1;0;-197;3938;-1435;128;0.4778393;-0.5584741;-0.4944598;-0.4639889;3;-8;-1;-417;4227;108;4;-0.02770083;0.0166205;-0.7166583;-0.6966759;2;-2;0;49;4102;148;16;0.4695291;-0.594596;0.4445983;0.4778393;0;-1;0;379;4044;626;2;0.700831;-0.7090088;0.05401662;-0.0567867;0;0;-2;-621;4076;-3;8;0.4473684;-0.5124654;0.4459834;0.5816696;-1;-1;0;-241;4025;869;0.5104045;2.828774;-0.15832;0.5162678;3.363101;-0.2682377;0.5214171;3.832366;-0.3668366;0.4821727;4.520178;-0.1141759;0.2057073;4.824256;-0.03768229;-0.1263059;4.651671;-0.02668065;-0.7815162;5.282021;-0.204691;-0.7596149;6.179353;-0.5081946;0.725206;4.8539;-0.03768277;1.022395;4.717218;-0.02668136;1.762179;5.333974;-0.002062201;1.992906;6.192881;-0.3289124;0.1981433;2.786086;-0.1566498;0.1606445;1.323682;-0.1854356;0;0;0;0.1981433;2.786086;-0.1566498;0.1606445;1.323682;-0.1854356;0;0;0
155615.0436;NotLabelled;16384;-0.2119114;-0.4044321;-0.8363748;0.3033241;3;3;0;2360;-2864;1965;65536;0.5805671;0.4265928;0.5692521;-0.3961219;-5;0;0;-147;-3996;-1066;8192;0.8999382;0.3171745;0.1315789;-0.2686981;4;0;-3;-1672;-2639;2657;32768;0.6868103;0.4085872;0.4833795;-0.3573407;-6;2;2;461;-3709;-1558;256;0.4432133;-0.6015547;-0.3628809;-0.5567867;-2;-1;1;-211;3890;-1401;128;0.4792244;-0.5596597;-0.4930748;-0.4626039;2;-7;-1;-387;4137;252;4;-0.02770083;0.0166205;-0.7166583;-0.6966759;2;-4;0;7;4052;44;16;0.4695291;-0.594596;0.4445983;0.4778393;0;-1;0;359;3996;580;2;0.700831;-0.7091129;0.05263158;-0.0567867;0;3;-2;-597;4074;-3;8;0.4473684;-0.5124654;0.4459834;0.5816696;-1;0;0;-275;4039;827;0.5104039;2.828774;-0.1583157;0.5162673;3.36311;-0.2681891;0.5214168;3.832383;-0.366749;0.4821734;4.520196;-0.114088;0.2057083;4.824273;-0.03759305;-0.1263049;4.651689;-0.02658994;-0.7829216;5.280163;-0.2060442;-0.7585443;6.176798;-0.5114113;0.725207;4.853918;-0.03759569;1.022396;4.717237;-0.02659559;1.763536;5.332478;-0.005081296;1.99185;6.191571;-0.3331363;0.1981426;2.786085;-0.1566495;0.1606437;1.323682;-0.1854356;0;0;0;0.1981426;2.786085;-0.1566495;0.1606437;1.323682;-0.1854356;0;0;0
155635.4665;NotLabelled;16384;-0.2119114;-0.4030471;-0.837043;0.3033241;5;2;2;2246;-2754;1933;65536;0.5801506;0.4265928;0.5706371;-0.3947368;-7;-1;-1;-103;-3916;-1102;8192;0.8999382;0.3171745;0.1315789;-0.2686981;5;0;-3;-1584;-2703;2619;32768;0.6883503;0.4072022;0.4833795;-0.3559557;-7;0;2;449;-3701;-1590;256;0.4432133;-0.6028337;-0.3628809;-0.5554016;-4;0;0;-225;3888;-1423;128;0.4792244;-0.5596597;-0.4930748;-0.4626039;2;-5;0;-441;4137;236;4;-0.02770083;0.01523546;-0.7166891;-0.6966759;0;-4;1;-1;4054;-2;16;0.4695291;-0.594596;0.4445983;0.4778393;-1;2;0;297;3996;512;2;0.700831;-0.7090006;0.05263158;-0.05817174;0;2;-2;-591;4144;-35;8;0.4473684;-0.5124654;0.4459834;0.5816696;-2;0;0;-303;4059;855;0.5105494;2.828724;-0.1548952;0.5164129;3.36306;-0.2647687;0.5215624;3.832334;-0.3633286;0.4838023;4.52024;-0.1106983;0.2079939;4.824917;-0.03421924;-0.1243912;4.653052;-0.0232112;-0.7803234;5.281372;-0.2056838;-0.757707;6.177211;-0.5135098;0.7275555;4.853441;-0.03421897;1.024448;4.716118;-0.02321017;1.765518;5.331358;0.0006562471;1.997384;6.188568;-0.3298258;0.1982882;2.786036;-0.153229;0.1612176;1.323682;-0.1849369;0;0;0;0.1982882;2.786036;-0.153229;0.1612176;1.323682;-0.1849369;0;0;0
155655.5621;NotLabelled;16384;-0.2132964;-0.4030471;-0.8366912;0.3033241;5;4;2;2246;-2846;1937;65536;0.5801506;0.4265928;0.5706371;-0.3947368;-9;1;-1;-47;-3966;-1108;8192;0.8997346;0.3171745;0.132964;-0.2686981;5;-1;-3;-1636;-2543;2621;32768;0.6873757;0.4072022;0.4847645;-0.3559557;-8;-1;2;339;-3723;-1576;256;0.4445983;-0.6009756;-0.3642659;-0.5554016;-2;0;1;-261;3906;-1425;128;0.4806094;-0.5607538;-0.4930748;-0.4598338;6;-8;-1;-417;4157;164;4;-0.02631579;0.01385042;-0.7154205;-0.6980609;3;-7;6;-129;4140;132;16;0.4695291;-0.594596;0.4445983;0.4778393;-3;1;0;449;4008;566;2;0.700831;-0.7088965;0.05401662;-0.05817174;0;0;-3;-523;4098;-61;8;0.4473684;-0.5124654;0.4459834;0.5816696;-2;0;0;-255;3949;853;0.5048705;2.828865;-0.1562931;0.5107306;3.362907;-0.2675897;0.5158772;3.831916;-0.3673995;0.4772085;4.520965;-0.1180399;0.2010071;4.825663;-0.04307631;-0.1311703;4.653443;-0.03134065;-0.7861819;5.2826;-0.2142349;-0.764189;6.178439;-0.5221058;0.7205334;4.854821;-0.0430761;1.017591;4.717916;-0.03134018;1.758287;5.33375;-0.01152623;1.987067;6.191141;-0.3436812;0.1926093;2.786181;-0.1545039;0.1608429;1.323682;-0.1852629;0;0;0;0.1926093;2.786181;-0.1545039;0.1608429;1.323682;-0.1852629;0;0;0
155675.5095;NotLabelled;16384;-0.2132964;-0.4016621;-0.8378574;0.301939;5;6;1;2240;-2832;1961;65536;0.5811665;0.4252077;0.5706371;-0.3947368;-10;2;-1;-109;-3862;-1230;8192;0.9004283;0.3157895;0.134349;-0.267313;6;-2;-1;-1630;-2725;2615;32768;0.6879322;0.4058172;0.4861496;-0.3545706;-8;0;2;365;-3711;-1606;256;0.4445983;-0.6022527;-0.3642659;-0.5540166;-3;-3;2;-243;3916;-1387;128;0.4819945;-0.560699;-0.4930748;-0.4584487;7;-10;-1;-469;4211;98;4;-0.02631579;0.01246537;-0.715446;-0.6980609;1;-10;7;-107;4130;92;16;0.4695291;-0.5956291;0.4432133;0.4778393;-5;2;-1;367;4050;588;2;0.700831;-0.7087814;0.05401662;-0.05955679;-1;2;-5;-603;4116;-17;8;0.4459834;-0.5124654;0.4445983;0.5837897;-3;-4;0;-195;4043;691;0.5053763;2.82833;-0.1560676;0.5112332;3.362071;-0.2687989;0.5163768;3.83081;-0.3698687;0.4791995;4.519951;-0.1205384;0.2036584;4.825249;-0.04558842;-0.1288913;4.65375;-0.03384615;-0.7845694;5.280862;-0.2213176;-0.7591488;6.175998;-0.5309675;0.7232465;4.853283;-0.04558814;1.020007;4.715735;-0.03384566;1.762095;5.32994;-0.01560009;1.99201;6.185614;-0.3513821;0.1931152;2.785651;-0.1541545;0.1617864;1.323206;-0.1878226;0;0;0;0.1931152;2.785651;-0.1541545;0.1617864;1.323206;-0.1878226;0;0;0
155696.8057;NotLabelled;16384;-0.2132964;-0.400277;-0.83852;0.301939;5;7;0;2234;-2784;1979;65536;0.583114;0.4238227;0.5706371;-0.3933518;-11;2;-2;-153;-3942;-1170;8192;0.9009128;0.3144044;0.134349;-0.267313;6;-3;-1;-1680;-2663;2557;32768;0.6886443;0.4058172;0.4861496;-0.3531856;-8;0;1;347;-3635;-1628;256;0.4445983;-0.6022527;-0.3642659;-0.5540166;-5;-1;2;-191;3942;-1417;128;0.4833795;-0.5606374;-0.4930748;-0.4570637;8;-14;-1;-415;4169;56;4;-0.02631579;0.01108033;-0.7154688;-0.6980609;2;-10;8;-23;4148;94;16;0.4695291;-0.5956291;0.4432133;0.4778393;-6;2;-2;327;4002;626;2;0.702216;-0.7074093;0.05401662;-0.05955679;-1;0;-6;-593;4102;-51;8;0.4459834;-0.5124654;0.4459834;0.5827323;-4;-3;1;-203;4025;749;0.5050604;2.828264;-0.1533502;0.510914;3.361698;-0.2675188;0.5160546;3.830164;-0.3698509;0.4788336;4.519306;-0.1205277;0.2032794;4.824605;-0.04562627;-0.1292724;4.653105;-0.03394218;-0.7847542;5.280545;-0.2210019;-0.7565522;6.174221;-0.5346011;0.7228675;4.852638;-0.04553521;1.019626;4.71509;-0.03374058;1.763469;5.327128;-0.01419544;1.993651;6.182072;-0.3516463;0.1927994;2.78559;-0.1513129;0.1618192;1.323206;-0.1877956;0;0;0;0.1927994;2.78559;-0.1513129;0.1618192;1.323206;-0.1877956;0;0;0
155717.4815;NotLabelled;16384;-0.2132964;-0.398892;-0.8391798;0.301939;5;7;0;2256;-2840;2007;65536;0.5827619;0.4224377;0.5720221;-0.3933518;-13;2;-2;-135;-3898;-1236;8192;0.9013227;0.3144044;0.134349;-0.265928;7;-4;-2;-1800;-2515;2645;32768;0.6884799;0.4044321;0.4875346;-0.3531856;-7;2;1;315;-3773;-1636;256;0.4459834;-0.6016615;-0.365651;-0.5526316;-9;-2;3;-215;3934;-1375;128;0.4861496;-0.5593682;-0.4930748;-0.4556787;9;-11;-1;-403;4147;32;4;-0.02493075;0.008310249;-0.715556;-0.6980609;2;-8;10;13;4152;162;16;0.4695291;-0.5966572;0.4418283;0.4778393;-7;4;-3;363;3992;560;2;0.700831;-0.7086637;0.05401662;-0.06094183;1;3;-8;-623;4124;-55;8;0.4445983;-0.5124654;0.4459834;0.5837897;-4;-4;1;-301;4105;797;0.5054359;2.827701;-0.1537118;0.5112826;3.360509;-0.2707708;0.5164169;3.828413;-0.3756413;0.4798233;4.518774;-0.1296225;0.2045498;4.824686;-0.05620588;-0.1281636;4.653557;-0.04372863;-0.7833937;5.280312;-0.2339401;-0.7554247;6.173209;-0.5497738;0.7241641;4.852232;-0.05620593;1.020792;4.714465;-0.04372841;1.764739;5.326439;-0.02626216;1.995105;6.180377;-0.3661274;0.193175;2.785039;-0.1514246;0.1623577;1.322724;-0.1907045;0;0;0;0.193175;2.785039;-0.1514246;0.1623577;1.322724;-0.1907045;0;0;0
155738.5555;NotLabelled;16384;-0.2132964;-0.3975069;-0.8398367;0.301939;6;9;0;2284;-2810;1987;65536;0.5846943;0.4210526;0.5720221;-0.3919668;-13;1;-3;-155;-3954;-1224;8192;0.9018046;0.3130194;0.134349;-0.265928;8;-3;-2;-1644;-2685;2705;32768;0.6899996;0.4030471;0.4875346;-0.3518005;-8;3;1;473;-3777;-1606;256;0.4473684;-0.6006324;-0.365651;-0.5526316;-11;-2;3;-211;3896;-1377;128;0.4875346;-0.5592893;-0.4930748;-0.4542936;9;-12;-1;-435;4183;34;4;-0.02631579;0.006925208;-0.7141672;-0.699446;0;-7;12;77;4070;100;16;0.468144;-0.5976579;0.4404432;0.4792244;-9;1;-4;507;3980;566;2;0.700831;-0.7085432;0.05401662;-0.06232687;1;8;-10;-579;4112;-67;8;0.4445983;-0.5138504;0.4445983;0.5836287;-6;0;2;-425;3961;823;0.4996988;2.826576;-0.1558641;0.5055419;3.359065;-0.2743697;0.5106732;3.826683;-0.3805104;0.4724659;4.517591;-0.1362798;0.1964832;4.823061;-0.06369093;-0.1358399;4.651204;-0.05081753;-0.7909759;5.277779;-0.2419471;-0.7602884;6.169186;-0.5617113;0.7160331;4.851796;-0.0636909;1.012974;4.714739;-0.05081725;1.758679;5.324592;-0.03409863;1.991566;6.176603;-0.3770654;0.1874379;2.783921;-0.1534519;0.1631317;1.321621;-0.1975689;0;0;0;0.1874379;2.783921;-0.1534519;0.1631317;1.321621;-0.1975689;0;0;0
155760.1942;NotLabelled;16384;-0.2132964;-0.3947368;-0.8416381;0.300554;6;11;2;2286;-2750;2097;65536;0.5862507;0.4182825;0.5734072;-0.3905817;-14;0;-2;-165;-3982;-1278;8192;0.902484;0.3116343;0.1357341;-0.2645429;8;-1;-3;-1702;-2523;2685;32768;0.6890189;0.4030471;0.4889196;-0.3518005;-8;1;0;497;-3725;-1626;256;0.4487534;-0.6012963;-0.367036;-0.5498615;-11;-3;3;-255;3914;-1319;128;0.4903047;-0.5602267;-0.4930748;-0.4501385;12;-9;-1;-503;4135;122;4;-0.02631579;0;-0.7155546;-0.6980609;0;-18;19;119;4074;48;16;0.468144;-0.5975648;0.4390582;0.4806094;-14;1;-7;277;3972;516;2;0.700831;-0.7082941;0.05401662;-0.06509695;0;11;-12;-661;4050;41;8;0.4445983;-0.5138504;0.4445983;0.5836287;-6;1;3;-287;3931;857;0.5010793;2.825702;-0.1447391;0.5069152;3.357537;-0.2661416;0.5120401;3.82457;-0.3748263;0.475921;4.516768;-0.133952;0.2008718;4.823442;-0.06291606;-0.1319876;4.652685;-0.04930041;-0.7874893;5.277009;-0.2464446;-0.7533002;6.166102;-0.5722342;0.7205086;4.850561;-0.06291586;1.017018;4.712645;-0.04929954;1.7641;5.320837;-0.03361726;1.995961;6.173023;-0.376846;0.1888185;2.78306;-0.1420761;0.1608745;1.321354;-0.2011736;0;0;0;0.1888185;2.78306;-0.1420761;0.1608745;1.321354;-0.2011736;0;0;0
155779.6235;NotLabelled;16384;-0.2132964;-0.3933518;-0.8422863;0.300554;7;11;3;2210;-2732;2029;65536;0.5858808;0.4168975;0.5747922;-0.3905817;-14;0;-2;-81;-3922;-1302;8192;0.9031565;0.3102493;0.1371191;-0.2631579;9;-7;-3;-1682;-2567;2753;32768;0.6896492;0.400277;0.4903047;-0.3518005;-11;1;1;497;-3787;-1568;256;0.4501385;-0.6019405;-0.368421;-0.5470914;-12;-4;3;-169;3892;-1291;128;0.4916897;-0.5612308;-0.4930748;-0.4473684;12;-8;-1;-475;4095;66;4;-0.02770083;-0.002770083;-0.7141431;-0.699446;1;-22;24;137;4108;70;16;0.466759;-0.5985479;0.4376731;0.4819945;-16;3;-7;383;4066;438;2;0.700831;-0.707927;0.05540166;-0.06786703;-7;11;-14;-657;4048;181;8;0.4432133;-0.5152354;0.4432133;0.5845138;-7;2;4;-365;3943;849;0.4955371;2.824327;-0.1432876;0.5013692;3.35583;-0.2661417;0.5064908;3.822564;-0.3761012;0.4724326;4.516029;-0.1385966;0.198312;4.8239;-0.06916088;-0.1350834;4.654247;-0.05485684;-0.7886913;5.278931;-0.2570852;-0.75366;6.167219;-0.5849773;0.7180307;4.8494;-0.06907612;1.014104;4.710629;-0.05466884;1.76248;5.317101;-0.03469729;1.997973;6.167071;-0.3809347;0.1832764;2.781693;-0.1404986;0.162516;1.3202;-0.2073304;0;0;0;0.1832764;2.781693;-0.1404986;0.162516;1.3202;-0.2073304;0;0;0
155801.6425;NotLabelled;16384;-0.2146814;-0.3919668;-0.8430729;0.299169;7;13;3;2250;-2790;2085;65536;0.5877834;0.4155124;0.5747922;-0.3891967;-16;2;-2;-139;-3826;-1360;8192;0.9040333;0.3088643;0.1371191;-0.2617728;8;-6;-4;-1652;-2547;2767;32768;0.6911552;0.398892;0.4903047;-0.3504155;-12;0;1;455;-3683;-1606;256;0.4515235;-0.6000507;-0.3698061;-0.5470914;-14;-3;2;-193;3934;-1235;128;0.4944598;-0.5598978;-0.4930748;-0.4459834;12;-7;-1;-487;4159;-18;4;-0.02770083;-0.008310249;-0.7141001;-0.699446;-2;-25;27;183;4120;66;16;0.466759;-0.5994495;0.434903;0.4833795;-18;6;-9;437;4000;526;2;0.702216;-0.7059991;0.05540166;-0.0734072;-5;13;-16;-683;4088;-51;8;0.4418283;-0.5180055;0.4418283;0.5841625;-8;4;6;-375;3929;879;0.4910845;2.822934;-0.1399955;0.4969093;3.353752;-0.2657754;0.5020242;3.819873;-0.378304;0.4670831;4.514422;-0.1441169;0.1925734;4.822279;-0.07617223;-0.1406112;4.652281;-0.06108172;-0.7954785;5.275148;-0.2648317;-0.7584724;6.161889;-0.596675;0.7122599;4.848426;-0.07617193;1.008504;4.710095;-0.06108087;1.758849;5.314348;-0.04938483;1.996085;6.16236;-0.3992177;0.178824;2.780316;-0.1369533;0.1593668;1.31936;-0.2149815;0;0;0;0.178824;2.780316;-0.1369533;0.1593668;1.31936;-0.2149815;0;0;0
