SEP=;
index;label;segment;RightUpperArm_boneIndex;RightUpperArm_quat9x_w;RightUpperArm_quat9x_x;RightUpperArm_quat9x_y;RightUpperArm_quat9x_z;RightUpperArm_gyroscope_x;RightUpperArm_gyroscope_y;RightUpperArm_gyroscope_z;RightUpperArm_accelerometer_x;RightUpperArm_accelerometer_y;RightUpperArm_accelerometer_z;RightLowerArm_boneIndex;RightLowerArm_quat9x_w;RightLowerArm_quat9x_x;RightLowerArm_quat9x_y;RightLowerArm_quat9x_z;RightLowerArm_gyroscope_x;RightLowerArm_gyroscope_y;RightLowerArm_gyroscope_z;RightLowerArm_accelerometer_x;RightLowerArm_accelerometer_y;RightLowerArm_accelerometer_z;LeftUpperArm_boneIndex;LeftUpperArm_quat9x_w;LeftUpperArm_quat9x_x;LeftUpperArm_quat9x_y;LeftUpperArm_quat9x_z;LeftUpperArm_gyroscope_x;LeftUpperArm_gyroscope_y;LeftUpperArm_gyroscope_z;LeftUpperArm_accelerometer_x;LeftUpperArm_accelerometer_y;LeftUpperArm_accelerometer_z;LeftLowerArm_boneIndex;LeftLowerArm_quat9x_w;LeftLowerArm_quat9x_x;LeftLowerArm_quat9x_y;LeftLowerArm_quat9x_z;LeftLowerArm_gyroscope_x;LeftLowerArm_gyroscope_y;LeftLowerArm_gyroscope_z;LeftLowerArm_accelerometer_x;LeftLowerArm_accelerometer_y;LeftLowerArm_accelerometer_z;Chest_boneIndex;Chest_quat9x_w;Chest_quat9x_x;Chest_quat9x_y;Chest_quat9x_z;Chest_gyroscope_x;Chest_gyroscope_y;Chest_gyroscope_z;Chest_accelerometer_x;Chest_accelerometer_y;Chest_accelerometer_z;Spine_boneIndex;Spine_quat9x_w;Spine_quat9x_x;Spine_quat9x_y;Spine_quat9x_z;Spine_gyroscope_x;Spine_gyroscope_y;Spine_gyroscope_z;Spine_accelerometer_x;Spine_accelerometer_y;Spine_accelerometer_z;RightUpperLeg_boneIndex;RightUpperLeg_quat9x_w;RightUpperLeg_quat9x_x;RightUpperLeg_quat9x_y;RightUpperLeg_quat9x_z;RightUpperLeg_gyroscope_x;RightUpperLeg_gyroscope_y;RightUpperLeg_gyroscope_z;RightUpperLeg_accelerometer_x;RightUpperLeg_accelerometer_y;RightUpperLeg_accelerometer_z;RightLowerLeg_boneIndex;RightLowerLeg_quat9x_w;RightLowerLeg_quat9x_x;RightLowerLeg_quat9x_y;RightLowerLeg_quat9x_z;RightLowerLeg_gyroscope_x;RightLowerLeg_gyroscope_y;RightLowerLeg_gyroscope_z;RightLowerLeg_accelerometer_x;RightLowerLeg_accelerometer_y;RightLowerLeg_accelerometer_z;LeftUpperLeg_boneIndex;LeftUpperLeg_quat9x_w;LeftUpperLeg_quat9x_x;LeftUpperLeg_quat9x_y;LeftUpperLeg_quat9x_z;LeftUpperLeg_gyroscope_x;LeftUpperLeg_gyroscope_y;LeftUpperLeg_gyroscope_z;LeftUpperLeg_accelerometer_x;LeftUpperLeg_accelerometer_y;LeftUpperLeg_accelerometer_z;LeftLowerLeg_boneIndex;LeftLowerLeg_quat9x_w;LeftLowerLeg_quat9x_x;LeftLowerLeg_quat9x_y;LeftLowerLeg_quat9x_z;LeftLowerLeg_gyroscope_x;LeftLowerLeg_gyroscope_y;LeftLowerLeg_gyroscope_z;LeftLowerLeg_accelerometer_x;LeftLowerLeg_accelerometer_y;LeftLowerLeg_accelerometer_z;pelvis_x;pelvis_y;pelvis_z;lowerSpine_x;lowerSpine_y;lowerSpine_z;middleSpine_x;middleSpine_y;middleSpine_z;upperSpine_x;upperSpine_y;upperSpine_z;rightClavicle_x;rightClavicle_y;rightClavicle_z;rightShoulder_x;rightShoulder_y;rightShoulder_z;rightElbow_x;rightElbow_y;rightElbow_z;rightWrist_x;rightWrist_y;rightWrist_z;leftClavicle_x;leftClavicle_y;leftClavicle_z;leftShoulder_x;leftShoulder_y;leftShoulder_z;leftElbow_x;leftElbow_y;leftElbow_z;leftWrist_x;leftWrist_y;leftWrist_z;rightHip_x;rightHip_y;rightHip_z;rightKnee_x;rightKnee_y;rightKnee_z;rightAnkle_x;rightAnkle_y;rightAnkle_z;leftHip_x;leftHip_y;leftHip_z;leftKnee_x;leftKnee_y;leftKnee_z;leftAnkle_x;leftAnkle_y;leftAnkle_z;
680373.7204;NotLabelled;NONE;16384;-0.3767313;0.4958449;-0.7152704;-0.3171745;-40;29;20;-2067;3433;840;65536;0.7483546;-0.3282548;0.2119114;0.536011;-40;45;22;-2900;3133;-1185;8192;0.6277204;-0.6232687;-0.4639889;-0.04709141;47;31;-11;2058;2863;997;32768;0.7085229;-0.6481994;0.05124654;-0.2742382;15;49;2;2001;3319;-120;256;0.1925208;-0.07894737;-0.7973714;-0.566482;9;22;29;-565;3336;1347;128;-0.1204986;0.1149584;0.7454432;0.6454294;-15;11;-22;-17;3761;-946;4;-0.6052631;0.1260388;-0.4639889;-0.6344171;9;17;-4;2155;3122;820;16;0.7175398;-0.6952909;0.009695291;-0.0401662;10;1;3;137;4254;-108;2;0.5831025;-0.6161085;-0.4155124;-0.3282548;-6;-18;6;813;3562;-7;8;0.3434903;-0.8318959;0.2534626;0.3545706;7;-9;-19;1241;2123;2913;0.5953099;2.459234;1.032417;0.6008017;2.959695;0.8153223;0.6056203;3.398795;0.6226407;0.5356965;4.081699;0.3633826;0.2486041;4.345537;0.2126662;-0.0797967;4.202566;0.3215305;-0.4529262;3.437026;0.6862924;-0.1544853;2.763608;0.09027332;0.7662559;4.398397;0.2122823;1.06482;4.319449;0.320683;1.455592;3.530359;0.7117162;1.144536;2.686534;0.4134017;0.283063;2.417867;1.043502;0.06909399;1.342371;0.0747994;0;0;0;0.283063;2.417867;1.043502;0.06909399;1.342371;0.0747994;0;0;0
680394.7331;NotLabelled;NONE;16384;-0.3836565;0.4958449;-0.7134174;-0.3130194;-40;27;16;-2007;3241;838;65536;0.75001;-0.33518;0.2091413;0.5304709;-33;46;18;-2820;3173;-1273;8192;0.6218836;-0.6273902;-0.4653739;-0.05540166;46;34;-10;2018;2747;1061;32768;0.7079107;-0.6468144;0.04709141;-0.2797784;14;49;8;1969;3243;12;256;0.1855956;-0.07894737;-0.7980279;-0.567867;6;21;31;-531;3308;1217;128;-0.1163435;0.1163435;0.7458883;0.6454294;-7;-1;-27;5;3607;-914;4;-0.6066482;0.1288089;-0.4626039;-0.6335486;9;16;0;2067;3034;670;16;0.7188179;-0.6939058;0.008310249;-0.04155125;8;12;6;27;4058;-142;2;0.5831025;-0.618506;-0.4141274;-0.3254848;-2;-18;10;911;3320;-181;8;0.3434903;-0.8298595;0.2562327;0.3573407;8;-14;-18;1459;2429;2557;0.60789;2.468341;1.022847;0.6134074;2.971116;0.8111668;0.6182485;3.41227;0.6232361;0.5545048;4.097486;0.3685244;0.2697618;4.364996;0.219838;-0.05986364;4.224413;0.3281086;-0.4315406;3.461699;0.7002021;-0.1399042;2.780893;0.1092301;0.787888;4.412984;0.2192577;1.085802;4.330521;0.3268268;1.475147;3.538519;0.7133736;1.160954;2.694802;0.4180554;0.2956418;2.426856;1.033447;0.06858127;1.342214;0.07801475;0;0;0;0.2956418;2.426856;1.033447;0.06858127;1.342214;0.07801475;0;0;0
680415.0294;NotLabelled;NONE;16384;-0.3891967;0.4972299;-0.7118602;-0.3074792;-40;29;13;-2007;2989;916;65536;0.7521758;-0.3407202;0.2063712;0.5249307;-26;50;13;-2926;3113;-1283;8192;0.6177285;-0.6287829;-0.468144;-0.06232687;45;36;-8;1836;2765;1035;32768;0.7066672;-0.6454294;0.04293629;-0.2867036;12;50;13;1913;3211;2;256;0.1800554;-0.08033241;-0.7981722;-0.5692521;4;24;32;-593;3142;1265;128;-0.1149584;0.1204986;0.7466402;0.6440443;0;-17;-30;41;3629;-1316;4;-0.6080332;0.1301939;-0.4612188;-0.6329473;7;15;4;2267;2906;784;16;0.7200019;-0.6925207;0.006925208;-0.04432133;8;15;2;651;3962;-386;2;0.5831025;-0.6199558;-0.4141274;-0.3227147;0;-17;9;975;3604;129;8;0.3434903;-0.8288326;0.2576177;0.3587258;8;-3;-14;993;2437;2207;0.6110981;2.46986;1.023872;0.6166167;2.972768;0.8125075;0.6214591;3.41404;0.6248533;0.5630392;4.100621;0.3725535;0.2804217;4.370782;0.2246053;-0.05033179;4.232277;0.3321122;-0.4351307;3.465896;0.6827113;-0.1461041;2.779227;0.09726644;0.798892;4.4149;0.2246032;1.096095;4.329829;0.332109;1.463235;3.528144;0.7204192;1.147106;2.685373;0.4244689;0.2988498;2.42837;1.034445;0.06718814;1.342045;0.08203207;0;0;0;0.2988498;2.42837;1.034445;0.06718814;1.342045;0.08203207;0;0;0
680435.7228;NotLabelled;NONE;16384;-0.400277;0.4972299;-0.7104143;-0.2963989;-46;27;10;-2047;2817;942;65536;0.7588006;-0.3490305;0.199446;0.5124654;-15;53;2;-2622;2771;-1187;8192;0.6135734;-0.6300569;-0.4709141;-0.06925207;44;32;-5;1720;2701;1005;32768;0.7052487;-0.6440443;0.0401662;-0.2936288;10;49;18;1929;3171;-84;256;0.1731302;-0.08033241;-0.7997029;-0.5692521;0;23;35;-611;3142;1345;128;-0.1121884;0.1260388;0.74734;0.6426592;1;-13;-28;-123;3603;-722;4;-0.6108033;0.1301939;-0.4612188;-0.6302746;1;17;8;2579;2726;774;16;0.7211559;-0.6911357;0.006925208;-0.04709141;4;7;1;529;4090;-366;2;0.5831025;-0.6223108;-0.4127424;-0.3199446;0;-9;4;973;3750;323;8;0.3462604;-0.8275076;0.2562327;0.3601108;11;14;-7;763;2783;2043;0.6155345;2.469081;1.028565;0.6210495;2.971638;0.8163692;0.6258885;3.412599;0.6279856;0.5729577;4.100647;0.3784853;0.2925006;4.373672;0.2316909;-0.03933964;4.2374;0.3387009;-0.4278367;3.472565;0.6885949;-0.1405102;2.781574;0.1074136;0.8113093;4.413614;0.2317644;1.107835;4.325717;0.338865;1.469458;3.520228;0.7244689;1.150704;2.679195;0.4263941;0.3032866;2.427608;1.039212;0.06800769;1.341675;0.08723894;0;0;0;0.3032866;2.427608;1.039212;0.06800769;1.341675;0.08723894;0;0;0
680455.7431;NotLabelled;NONE;16384;-0.4058172;0.4958449;-0.710529;-0.2908587;-50;24;14;-2055;2887;1054;65536;0.7625946;-0.3531856;0.1952908;0.5055401;-14;55;0;-2454;2717;-927;8192;0.6066482;-0.6331852;-0.4736842;-0.08171745;41;21;-5;1552;3291;929;32768;0.7015492;-0.6412742;0.03462604;-0.3088643;5;41;19;1981;3101;-86;256;0.16759;-0.08033241;-0.8008822;-0.5692521;-3;21;37;-457;3310;1515;128;-0.1108033;0.1288089;0.7482635;0.6412742;12;-13;-27;-7;3731;-978;4;-0.6135734;0.1301939;-0.4598338;-0.6285938;0;18;10;2743;2674;754;16;0.7211679;-0.6911357;0.005540166;-0.04709141;3;8;1;293;3922;-414;2;0.5831025;-0.6221011;-0.4141274;-0.3185596;-5;8;1;1345;3846;189;8;0.3490305;-0.8277984;0.2534626;0.3587258;15;33;1;925;2727;2171;0.6349144;2.46593;1.033286;0.6404272;2.968294;0.8206333;0.6452641;3.409083;0.6318487;0.5979038;4.097594;0.3825045;0.3196583;4.372929;0.235814;-0.01326465;4.239343;0.3428485;-0.4209752;3.480274;0.6833138;-0.1356871;2.784656;0.1066662;0.8387753;4.408639;0.2358123;1.134592;4.318305;0.3428458;1.486393;3.510384;0.7324297;1.161956;2.671961;0.4331418;0.3226666;2.424466;1.043974;0.07178113;1.341086;0.09307849;0;0;0;0.3226666;2.424466;1.043974;0.07178113;1.341086;0.09307849;0;0;0
680476.7377;NotLabelled;NONE;16384;-0.4127424;0.4944598;-0.7103062;-0.2839335;-55;21;19;-2055;2903;1208;65536;0.7663487;-0.3559557;0.1897507;0.5;-14;59;-3;-2536;2735;-1145;8192;0.602493;-0.6364052;-0.4736842;-0.08725762;39;16;-7;1430;3675;857;32768;0.7004189;-0.6398892;0.033241;-0.3144044;1;38;16;2263;3117;-28;256;0.1551246;-0.08171745;-0.805206;-0.566482;-6;18;36;-313;3524;1587;128;-0.1080332;0.1357341;0.7521617;0.6357341;14;-11;-25;-235;4039;-574;4;-0.6163435;0.1301939;-0.4570637;-0.6279037;-1;19;10;2931;2500;724;16;0.7224104;-0.6897507;0.004155125;-0.04847645;1;13;0;217;4066;-718;2;0.5831025;-0.619315;-0.4182825;-0.3185596;-7;33;0;1149;3892;267;8;0.3531856;-0.8295023;0.2479224;0.3545706;12;67;8;517;3063;2267;0.642482;2.462343;1.033386;0.6479895;2.964235;0.8196217;0.6528221;3.404605;0.6298619;0.6099432;4.093448;0.3806241;0.3334946;4.370612;0.2339791;-0.0002898201;4.23918;0.3409967;-0.416383;3.483273;0.6783418;-0.1336289;2.785738;0.1027618;0.8528332;4.402942;0.2339771;1.148056;4.310667;0.3409936;1.481387;3.495784;0.7323161;1.148201;2.663475;0.4256635;0.3302343;2.420903;1.044173;0.07011672;1.341284;0.09148209;0;0;0;0.3302343;2.420903;1.044173;0.07011672;1.341284;0.09148209;0;0;0
680499.9281;NotLabelled;NONE;16384;-0.4210526;0.4916897;-0.7095442;-0.2783934;-59;17;26;-2027;2687;1394;65536;0.7708824;-0.3587258;0.1842105;0.4930748;-11;66;-8;-2604;2829;-1163;8192;0.601108;-0.6377556;-0.4722992;-0.09418282;38;13;-12;1366;3915;877;32768;0.6992375;-0.6385041;0.03185596;-0.3199446;-1;37;13;2529;3115;20;256;0.1495845;-0.08171745;-0.8062536;-0.566482;-5;12;33;-267;3876;1443;128;-0.1066482;0.1398892;0.7527673;0.634349;15;-15;-23;-153;4247;-414;4;0.6240669;-0.1301939;0.4529086;0.6232687;1;23;12;3029;2660;736;16;0.7223268;-0.6897507;0.001385042;-0.04986149;-3;8;-1;233;4056;-362;2;0.5803324;-0.6101623;-0.4279778;-0.3282548;-11;64;-11;-167;4100;-83;8;0.3642659;-0.8354924;0.2285319;0.3421052;-3;86;14;-337;3719;2257;0.6568133;2.457039;1.037826;0.6622953;2.956601;0.8186686;0.6671051;3.394902;0.6241772;0.6366985;4.082929;0.3708863;0.3653224;4.364157;0.2225165;0.02919793;4.239386;0.3301814;-0.3941841;3.487404;0.6672287;-0.1171201;2.790634;0.0879681;0.8851588;4.387133;0.2225145;1.178645;4.290189;0.3301784;1.506464;3.471616;0.7184408;1.164947;2.642057;0.4135061;0.3445669;2.415718;1.049095;0.06981053;1.341062;0.09490328;0;0;0;0.3445669;2.415718;1.049095;0.06981053;1.341062;0.09490328;0;0;0
680521.7592;NotLabelled;NONE;16384;-0.4293629;0.4889196;-0.7086298;-0.2728532;-60;14;28;-1927;2691;1544;65536;0.7767885;-0.3601108;0.1786704;0.4847645;-9;67;-13;-2514;2885;-1415;8192;0.5983379;-0.6405364;-0.4709141;-0.09972299;39;10;-16;1286;4217;895;32768;0.6960891;-0.6385041;0.03047091;-0.3268698;-5;35;10;2845;3113;-38;256;0.1454294;-0.08310249;-0.8078427;-0.5650969;-6;5;30;-95;4164;1289;128;-0.1066482;0.1426593;0.753413;0.632964;16;-14;-19;-291;4395;-4;4;0.6288135;-0.1301939;0.4501385;0.6204986;11;24;13;3125;2618;828;16;0.7221316;-0.6897507;0;-0.05263158;-6;21;0;261;3896;-306;2;0.5803324;-0.6044211;-0.4307479;-0.33518;-13;51;-16;-905;4076;-141;8;0.367036;-0.8385612;0.2188366;0.3379501;-15;51;4;-51;3573;2517;0.6643198;2.446389;1.04559;0.6697987;2.945657;0.8257626;0.6746055;3.383696;0.6306832;0.6486552;4.071931;0.3774574;0.3791088;4.354918;0.2290985;0.04217965;4.232308;0.3367307;-0.3887967;3.482111;0.668081;-0.11288;2.785902;0.08759949;0.8990827;4.374539;0.2291305;1.191931;4.275693;0.3368029;1.515331;3.450684;0.715021;1.168464;2.623903;0.4085866;0.3520736;2.405083;1.056919;0.06801134;1.341263;0.09335647;0;0;0;0.3520736;2.405083;1.056919;0.06801134;1.341263;0.09335647;0;0;0
680542.8717;NotLabelled;NONE;16384;-0.4445983;0.4819945;-0.7081587;-0.2617728;-52;15;30;-1895;3095;1946;65536;0.7864292;-0.3628809;0.16759;0.4709141;-4;60;-14;-2424;3127;-1543;8192;0.5955678;-0.6432427;-0.4695291;-0.1052632;42;2;-20;1170;4531;713;32768;0.6941822;-0.6385041;0.02908587;-0.3310249;-7;34;8;3181;3597;2;256;0.1412742;-0.08587258;-0.8082901;-0.5650969;-4;3;26;229;4320;1045;128;-0.1052632;0.1454294;0.7553976;0.6301939;14;-6;-16;-563;4475;-2;4;0.6314803;-0.1315789;0.4459834;0.6204986;12;23;12;3597;2806;802;16;0.7219229;-0.6897507;-0.001385042;-0.05540166;-8;30;0;445;4002;-184;2;0.5817174;-0.5999756;-0.4307479;-0.3407202;-9;21;-23;-1057;4384;163;8;0.365651;-0.8386069;0.2188366;0.3393352;-19;-32;-2;755;3815;2217;0.671999;2.439297;1.052063;0.6774728;2.938116;0.8312207;0.6822754;3.375758;0.6352509;0.6615695;4.063468;0.380126;0.3941877;4.348089;0.2309764;0.05633294;4.228346;0.3389336;-0.3891804;3.48096;0.6571499;-0.1141221;2.786686;0.07394859;0.9142959;4.363752;0.2309743;1.206381;4.262976;0.3389304;1.516073;3.433931;0.7197844;1.161616;2.610519;0.4129627;0.3597531;2.398014;1.063484;0.07082281;1.341086;0.09380238;0;0;0;0.3597531;2.398014;1.063484;0.07082281;1.341086;0.09380238;0;0;0
680563.9311;NotLabelled;NONE;16384;-0.4529086;0.4792244;-0.7062938;-0.2576177;-44;14;31;-1873;3601;2184;65536;0.7910528;-0.3642659;0.1620499;0.4639889;0;54;-12;-2700;3479;-1781;8192;0.5914127;-0.6498916;-0.4639889;-0.1121884;27;-11;-10;1358;5471;767;32768;0.6896659;-0.6398892;0.02631579;-0.3379501;-12;13;5;3861;4365;10;256;0.1371191;-0.08725762;-0.8088571;-0.5650969;-2;3;21;459;4218;957;128;-0.1038781;0.1481994;0.755051;0.6301939;3;-4;-12;-745;4343;184;4;0.6331382;-0.132964;0.4432133;0.6204986;11;6;11;3375;3020;768;16;0.720255;-0.6911357;-0.004155125;-0.05955679;-10;25;-1;621;3974;-200;2;0.5844875;-0.5966878;-0.4293629;-0.3434903;-8;-5;-26;-679;4268;421;8;0.3601108;-0.8384148;0.2243767;0.3421052;-18;-45;-1;1087;3243;2663;0.6685843;2.435082;1.058444;0.6740446;2.932659;0.8348163;0.678835;3.369199;0.6364029;0.6645319;4.057348;0.3820232;0.3998178;4.344593;0.2331442;0.06085294;4.227862;0.3409218;-0.4092662;3.485495;0.6345364;-0.1292303;2.795091;0.0491149;0.9200485;4.355443;0.2332351;1.211172;4.251852;0.3411239;1.511286;3.416291;0.71535;1.152862;2.594557;0.408637;0.3563392;2.393863;1.070114;0.07347627;1.340906;0.09434383;0;0;0;0.3563392;2.393863;1.070114;0.07347627;1.340906;0.09434383;0;0;0
680585.734;NotLabelled;NONE;16384;-0.4584487;0.4764543;-0.7055982;-0.2548476;-37;7;27;-2043;3517;2402;65536;0.7951128;-0.3642659;0.1578947;0.4584487;5;41;-14;-2846;3653;-2039;8192;0.5900277;-0.6528749;-0.4612188;-0.1135734;19;-9;-5;1750;5397;817;32768;0.6876965;-0.6412742;0.02631579;-0.3393352;-13;9;5;3639;4529;22;256;0.132964;-0.0900277;-0.8092472;-0.5650969;-2;5;16;755;4110;715;128;-0.1024931;0.1495845;0.7549671;0.6301939;5;-4;-7;-691;4475;16;4;0.6341056;-0.132964;0.4418283;0.6204986;5;-2;9;2889;2808;770;16;0.7187979;-0.6925207;-0.005540166;-0.06094183;-13;10;-3;475;4014;-180;2;0.5872576;-0.5951538;-0.4265928;-0.3448753;0;-10;-19;421;4058;353;8;0.3573407;-0.8382878;0.2271468;0.3434903;-15;-10;0;597;3471;2661;0.671405;2.433323;1.056499;0.6768692;2.93125;0.8336517;0.681663;3.368101;0.6359234;0.6721542;4.056475;0.3819287;0.4094398;4.345657;0.2332596;0.06968217;4.231255;0.3410367;-0.4103008;3.49177;0.625833;-0.1298738;2.80318;0.03846511;0.9297339;4.352847;0.2332578;1.220142;4.24715;0.3410338;1.499868;3.406273;0.7191236;1.133666;2.586801;0.41556;0.3591596;2.392087;1.068099;0.07809485;1.340954;0.08984489;0;0;0;0.3591596;2.392087;1.068099;0.07809485;1.340954;0.08984489;0;0;0
680606.7089;NotLabelled;NONE;16384;-0.4639889;0.4736842;-0.7043396;-0.2534626;-26;0;19;-2053;3155;2680;65536;0.798147;-0.3628809;0.1537396;0.4556787;11;29;-19;-2880;3553;-1981;8192;0.5886427;-0.6538819;-0.4612188;-0.1149584;15;0;2;1862;5157;879;32768;0.6869569;-0.6412742;0.02770083;-0.3407202;-12;13;8;3375;4499;-94;256;0.1288089;-0.0900277;-0.8089508;-0.566482;2;11;4;629;4706;311;128;-0.101108;0.1481994;0.7577291;0.6274238;12;18;3;-747;4815;10;4;0.6346726;-0.132964;0.4390582;0.6218836;11;-6;0;2821;2882;848;16;0.7158508;-0.6952909;-0.008310249;-0.06371191;-9;10;-3;429;3838;40;2;0.5872576;-0.594533;-0.4252077;-0.3476454;0;14;1;675;5410;915;8;0.3559557;-0.8392506;0.2257618;0.3434903;4;9;2;269;3489;4021;0.6747587;2.431406;1.053296;0.6802247;2.929506;0.8308372;0.6850203;3.366511;0.6334495;0.6818765;4.055217;0.3801974;0.421847;4.346977;0.231844;0.08104643;4.235604;0.3395026;-0.4056435;3.497502;0.6163907;-0.1254705;2.811419;0.02597497;0.9421855;4.349354;0.2318421;1.231604;4.240861;0.3394999;1.505494;3.397722;0.716828;1.134758;2.578903;0.4170302;0.3625133;2.39016;1.064861;0.08020776;1.341166;0.08467093;0;0;0;0.3625133;2.39016;1.064861;0.08020776;1.341166;0.08467093;0;0;0
680627.7216;NotLabelled;NONE;16384;-0.466759;0.4695291;-0.7062802;-0.2506925;-16;-3;12;-1959;3019;2646;65536;0.8015;-0.3601108;0.1509695;0.4529086;12;20;-22;-2534;3465;-1917;8192;0.5858725;-0.6551452;-0.4626039;-0.1163435;13;6;11;1758;5033;609;32768;0.6842778;-0.6426592;0.02770083;-0.3434903;-7;17;8;3155;4337;-34;256;0.1274238;-0.08864266;-0.8083518;-0.567867;0;12;0;723;4772;635;128;-0.09972299;0.1440443;0.7587133;0.6274238;0;40;9;-863;5023;188;4;0.6333125;-0.132964;0.4390582;0.6232687;4;-12;-9;3373;3298;1118;16;0.7145029;-0.6966759;-0.008310249;-0.06371191;-7;3;-4;577;4266;52;2;0.5872576;-0.5925421;-0.4279778;-0.3476454;-6;14;14;787;5588;1021;8;0.3587258;-0.8390083;0.2243767;0.3421052;14;25;2;467;3693;4193;0.6787506;2.428643;1.045834;0.6841969;2.924958;0.8194188;0.6889751;3.360378;0.61856;0.688783;4.049934;0.3676105;0.4300062;4.3433;0.2202367;0.0887315;4.23303;0.3275278;-0.4017332;3.494815;0.5973648;-0.1221329;2.813149;0.001585856;0.9503501;4.343448;0.2202351;1.239301;4.233356;0.3275254;1.511995;3.389598;0.7043355;1.135876;2.572641;0.4061684;0.366506;2.387491;1.057754;0.08436336;1.341526;0.07428467;0;0;0;0.366506;2.387491;1.057754;0.08436336;1.341526;0.07428467;0;0;0
680649.0345;NotLabelled;NONE;16384;-0.4709141;0.466759;-0.7058482;-0.2493075;-9;5;7;-1671;3193;2594;65536;0.8061775;-0.3559557;0.1440443;0.4501385;2;19;-23;-2176;3047;-1431;8192;0.5844875;-0.6556472;-0.4639889;-0.1149584;11;5;18;1668;4949;465;32768;0.6829351;-0.6426592;0.02631579;-0.3462604;-2;18;5;2981;4123;46;256;0.1274238;-0.08725762;-0.8094735;-0.566482;-3;8;-3;629;4878;881;128;-0.09695291;0.1371191;0.7592087;0.6288089;-7;47;14;-1065;5053;-18;4;0.6306884;-0.134349;0.4404432;0.6246537;6;-4;-16;3049;3424;838;16;0.7144855;-0.6966759;-0.009695291;-0.06371191;-3;-1;-4;465;4270;76;2;0.5844875;-0.5922652;-0.432133;-0.3476454;-9;18;22;691;5812;1033;8;0.3628809;-0.8390826;0.2216066;0.3393352;23;41;4;479;4171;3747;0.6825198;2.430005;1.038738;0.6879603;2.925775;0.8111306;0.6927332;3.36071;0.6092256;0.6917678;4.050969;0.3602185;0.4326632;4.344456;0.2136638;0.0915108;4.233499;0.320634;-0.4054259;3.498513;0.5874309;-0.1274846;2.821934;-0.01488553;0.9530066;4.345192;0.2136776;1.242079;4.235126;0.320666;1.513119;3.390996;0.6978356;1.130885;2.575644;0.4030708;0.3702757;2.388882;1.050766;0.08649777;1.341667;0.06909874;0;0;0;0.3702757;2.388882;1.050766;0.08649777;1.341667;0.06909874;0;0;0
680669.7148;NotLabelled;NONE;16384;-0.4736842;0.4653739;-0.705397;-0.2479224;-9;12;9;-1737;3159;2536;65536;0.8074389;-0.3559557;0.1412742;0.4487534;-7;23;-20;-1798;3055;-1205;8192;0.5789474;-0.6578466;-0.468144;-0.1135734;10;9;21;1650;4377;315;32768;0.6809139;-0.6426592;0.0235457;-0.3504155;4;19;-3;2617;3475;-42;256;0.1260388;-0.08587258;-0.8088678;-0.567867;-1;10;-6;483;4788;1053;128;-0.09279778;0.1301939;0.7586476;0.6315789;-21;57;17;-767;4963;-126;4;0.628818;-0.1385041;0.4418283;0.6246537;5;3;-22;2603;3352;758;16;0.7144855;-0.6966759;-0.009695291;-0.06371191;1;-3;-5;241;4060;18;2;0.5831025;-0.5903707;-0.4376731;-0.3462604;-18;22;23;799;5658;1013;8;0.368421;-0.8406894;0.2146814;0.333795;27;74;11;213;4257;3601;0.6794385;2.436053;1.031628;0.6848782;2.931752;0.8038677;0.6896504;3.366626;0.6018282;0.6875138;4.055915;0.3501569;0.4279107;4.348395;0.2024761;0.08694819;4.237276;0.3098823;-0.415952;3.503738;0.5693917;-0.1324686;2.837014;-0.04127353;0.9482523;4.350011;0.2024744;1.237512;4.240847;0.30988;1.508446;3.399747;0.6938344;1.124334;2.585268;0.3990989;0.3671943;2.394933;1.043669;0.08409428;1.341872;0.06808015;0;0;0;0.3671943;2.394933;1.043669;0.08409428;1.341872;0.06808015;0;0;0
680689.7284;NotLabelled;NONE;16384;-0.4764543;0.4653739;-0.7044989;-0.2451524;-11;22;12;-1719;3197;2356;65536;0.8083115;-0.3573407;0.1371191;0.4473684;-14;17;-17;-1994;3195;-1189;8192;0.5761772;-0.65929;-0.4695291;-0.1135734;7;13;18;1616;4159;345;32768;0.6815953;-0.6412742;0.02077562;-0.3518005;7;18;-8;2409;3235;4;256;0.1274238;-0.08448754;-0.8087966;-0.567867;-2;7;-8;229;4726;1297;128;-0.0900277;0.1218837;0.7568894;0.6357341;-15;54;17;-681;4785;-150;4;0.6286014;-0.1412742;0.4432133;0.6232687;4;-2;-27;2265;3128;770;16;0.7146076;-0.6966759;-0.009695291;-0.06232687;5;-3;-4;257;4060;46;2;0.5831025;-0.5870388;-0.4432133;-0.3448753;-24;34;20;715;5390;809;8;0.3753462;-0.8429626;0.2063712;0.3254848;20;78;12;-455;4327;2981;0.6785375;2.445537;1.021497;0.6839855;2.942013;0.7954362;0.6887653;3.377577;0.5948884;0.6858361;4.067573;0.3451699;0.4258943;4.360178;0.1983339;0.08506401;4.24837;0.3054461;-0.4195163;3.516553;0.5665438;-0.1351815;2.851711;-0.04577601;0.9462336;4.36238;0.1983047;1.235623;4.253238;0.3053828;1.506627;3.418404;0.70273;1.120108;2.604754;0.4088519;0.3662929;2.404376;1.033385;0.08436284;1.341872;0.06774604;0;0;0;0.3662929;2.404376;1.033385;0.08436284;1.341872;0.06774604;0;0;0
680709.8375;NotLabelled;NONE;16384;-0.4792244;0.466759;-0.7026599;-0.2423823;-9;29;12;-2041;3147;2094;65536;0.8085417;-0.3601108;0.132964;0.4459834;-19;13;-12;-1882;3345;-1003;8192;0.5747922;-0.6582796;-0.4722992;-0.1149584;6;16;14;1556;3857;449;32768;0.6822592;-0.6398892;0.01800554;-0.3531856;9;17;-11;2139;3231;-76;256;0.1274238;-0.08171745;-0.8090812;-0.567867;3;7;-9;-67;4144;1429;128;-0.08310249;0.1066482;0.7553062;0.6412742;-16;50;18;409;3941;-754;4;-0.6191136;0.1495845;-0.4487534;-0.6268518;8;-4;-36;2693;3232;462;16;0.7148438;-0.6966759;-0.009695291;-0.05955679;9;-3;3;-213;4226;174;2;0.5845089;-0.5803324;-0.4501385;-0.3448753;-28;47;19;381;4136;449;8;0.3795014;-0.8431742;0.2022161;0.3227147;14;11;2;851;2665;2341;0.6749434;2.45155;1.015023;0.6804079;2.949503;0.7922342;0.6852021;3.386376;0.5945569;0.679647;4.076229;0.3444859;0.4185959;4.367762;0.1974865;0.07818992;4.254706;0.3046376;-0.4318876;3.523643;0.5570233;-0.1409297;2.859985;-0.05346635;0.938923;4.371954;0.1974841;1.228722;4.263975;0.3046339;1.494753;3.429406;0.7058766;1.112193;2.61493;0.409119;0.3626981;2.410312;1.026618;0.08183314;1.342065;0.06702307;0;0;0;0.3626981;2.410312;1.026618;0.08183314;1.342065;0.06702307;0;0;0
680729.9953;NotLabelled;NONE;16384;-0.4819945;0.4695291;-0.6998641;-0.2396122;-8;29;8;-2235;3239;1776;65536;0.8078937;-0.3642659;0.1301939;0.4445983;-22;11;-7;-1828;3267;-755;8192;0.5734072;-0.6574937;-0.4750692;-0.1149584;3;18;11;1548;3369;593;32768;0.6823266;-0.6398892;0.01523546;-0.3531856;10;15;-13;2089;2971;-56;256;0.1288089;-0.07894737;-0.8091369;-0.567867;0;10;-12;-413;3412;1743;128;-0.08310249;0.09833795;0.7552568;0.6426592;-11;35;17;899;3341;-1396;4;-0.6163435;0.1551246;-0.4515235;-0.6262456;11;8;-32;2591;3202;352;16;0.7161911;-0.6952909;-0.009695291;-0.05955679;9;-1;5;477;4062;-282;2;0.582678;-0.5706371;-0.4626039;-0.3476454;-13;36;0;-229;2358;-313;8;0.3808864;-0.8416837;0.2036011;0.3240997;1;-1;-3;685;2375;1449;0.6615856;2.47795;0.9864019;0.6670681;2.977549;0.7673287;0.6718781;3.415882;0.5729112;0.6632671;4.105454;0.3221532;0.4009277;4.395679;0.174861;0.06102514;4.281222;0.2821217;-0.451147;3.550983;0.5326434;-0.1552827;2.886796;-0.07490559;0.921231;4.40218;0.1748588;1.211505;4.295593;0.2821184;1.478265;3.462029;0.6849658;1.098492;2.646739;0.3868709;0.3493393;2.436627;0.9976639;0.07708326;1.342436;0.06520399;0;0;0;0.3493393;2.436627;0.9976639;0.07708326;1.342436;0.06520399;0;0;0
680750.8559;NotLabelled;NONE;16384;-0.4861496;0.4736842;-0.696519;-0.232687;-17;23;3;-2413;2577;978;65536;0.8071347;-0.3711911;0.1246537;0.4418283;-20;24;-9;-2198;3025;-891;8192;0.5720221;-0.6574543;-0.4764543;-0.1163435;2;16;7;1694;2729;843;32768;0.6829856;-0.6385041;0.01108033;-0.3545706;8;10;-10;1905;2767;-22;256;0.1288089;-0.07617728;-0.8094024;-0.567867;-1;12;-16;-1015;2568;1955;128;-0.08171745;0.09418282;0.7535734;0.6454294;-8;23;17;1027;2725;-1156;4;-0.6163435;0.1592798;-0.4529086;-0.6241991;4;19;-24;2307;2938;720;16;0.7174342;-0.6939058;-0.008310249;-0.06094183;6;-2;2;861;3970;-108;2;0.5812705;-0.5692521;-0.4639889;-0.3504155;-3;12;-8;-321;2672;-127;8;0.3808864;-0.8416837;0.2036011;0.3240997;0;7;3;993;2209;1355;0.6562091;2.490869;0.9767492;0.6616922;2.990522;0.7577998;0.6665029;3.428904;0.563491;0.6537247;4.118164;0.3120564;0.3896365;4.406653;0.1644782;0.05043113;4.290248;0.2718493;-0.4626839;3.560051;0.5205554;-0.1620196;2.892627;-0.08106185;0.9098911;4.4163;0.1644723;1.200803;4.311576;0.271838;1.46933;3.480121;0.6778548;1.092754;2.662894;0.3810069;0.3439626;2.449543;0.988;0.07534973;1.342292;0.0700122;0;0;0;0.3439626;2.449543;0.988;0.07534973;1.342292;0.0700122;0;0;0
680792.8878;NotLabelled;NONE;16384;-0.4930748;0.4736842;-0.6943743;-0.2243767;-34;10;11;-2349;2357;214;65536;0.8110468;-0.3739612;0.1149584;0.434903;0;45;-17;-2346;2609;-1317;8192;0.5720221;-0.6559514;-0.4778393;-0.1191136;-1;1;-12;1776;1973;1053;32768;0.6837239;-0.6385041;0.009695291;-0.3531856;0;-8;7;1507;2513;74;256;0.132964;-0.07202215;-0.8081371;-0.5692521;5;-5;-16;-1159;1958;2045;128;-0.08448754;0.0900277;0.7537757;0.6454294;-5;-7;10;773;2445;-1192;4;-0.6163435;0.1620499;-0.4542936;-0.6224772;-11;1;-1;2015;2580;874;16;0.718914;-0.6925207;-0.005540166;-0.05955679;-4;-17;-6;773;3984;-624;2;0.5828903;-0.567867;-0.4626039;-0.3518005;5;-2;-4;653;2114;595;8;0.3822715;-0.8438336;0.200831;0.3185596;6;13;16;1385;1629;1321;0.6608267;2.497712;0.9740089;0.6663232;2.998591;0.75788;0.6711459;3.438062;0.5660459;0.6553126;4.127019;0.3139572;0.3899496;4.414193;0.1660989;0.05126161;4.296382;0.2735717;-0.4671971;3.569191;0.5199904;-0.1585226;2.897022;-0.07221262;0.9101561;4.42615;0.1660968;1.201527;4.322822;0.2735691;1.468824;3.491488;0.6806455;1.09676;2.672503;0.3829559;0.3485797;2.456323;0.9850072;0.07880935;1.341753;0.07626402;0;0;0;0.3485797;2.456323;0.9850072;0.07880935;1.341753;0.07626402;0;0;0
680813.748;NotLabelled;NONE;16384;-0.4986149;0.4709141;-0.6931908;-0.2216066;-38;0;19;-2317;2519;100;65536;0.8152037;-0.3725762;0.1108033;0.4293629;11;52;-18;-2412;2449;-1121;8192;0.5747922;-0.6542823;-0.4764543;-0.1204986;-5;-4;-19;1874;1913;1093;32768;0.683679;-0.6385041;0.01246537;-0.3531856;-5;-16;13;1419;2575;404;256;0.1357341;-0.07202215;-0.8066984;-0.5706371;9;-12;-15;-1123;1960;2083;128;-0.08587258;0.09141274;0.7522637;0.6468144;-11;-19;5;907;2493;-1114;4;-0.6163435;0.1592798;-0.4556787;-0.6221797;-18;-10;9;2129;2398;1022;16;0.7191541;-0.6925207;-0.002770083;-0.0567867;-13;-29;-13;1013;3982;-1436;2;0.5826368;-0.5692521;-0.4612188;-0.3518005;13;0;5;763;1994;211;8;0.3850415;-0.8444608;0.199446;0.3144044;20;36;18;223;1557;1403;0.6598278;2.502541;0.9739272;0.6653208;3.003095;0.7570462;0.6701403;3.442278;0.5645521;0.6460233;4.131477;0.3137842;0.3772232;4.415728;0.1664878;0.0399805;4.293656;0.2737498;-0.4909819;3.571999;0.5095877;-0.1700652;2.902445;-0.07906166;0.8972487;4.433928;0.1664862;1.189846;4.333898;0.2737474;1.455097;3.501346;0.6796721;1.086965;2.680512;0.3821886;0.3475809;2.461169;0.9849927;0.07948995;1.341361;0.08221062;0;0;0;0.3475809;2.461169;0.9849927;0.07948995;1.341361;0.08221062;0;0;0
680834.7278;NotLabelled;NONE;16384;-0.5041551;0.466759;-0.6928739;-0.2188366;-45;-10;29;-2259;2791;286;65536;0.8200838;-0.3698061;0.1052632;0.4238227;23;60;-18;-2776;2281;-1587;8192;0.5775623;-0.653854;-0.4736842;-0.1204986;-10;-11;-23;2018;1995;1029;32768;0.6848467;-0.6371191;0.01800554;-0.3531856;-9;-30;19;1351;2925;348;256;0.1412742;-0.07479224;-0.8035247;-0.5734072;19;-24;-13;-1205;2040;2239;128;-0.0900277;0.09695291;0.747485;0.6509695;-23;-26;-1;645;2725;-1286;4;-0.6163435;0.1495845;-0.4570637;-0.6235687;-16;-32;28;2603;2532;590;16;0.7169848;-0.6952909;-0.004155125;-0.04986149;-22;-2;-12;383;4118;-682;2;0.579388;-0.5734072;-0.4612188;-0.3504155;10;-3;12;191;2700;245;8;0.3947368;-0.8491536;0.1855956;0.2977839;3;50;28;2163;1511;4467;0.6633771;2.4997;0.9770075;0.6688799;3.001145;0.7621959;0.673708;3.441118;0.5715175;0.6469309;4.131048;0.3230393;0.3770208;4.414777;0.1767706;0.04027267;4.291092;0.2837366;-0.4994566;3.572103;0.5075172;-0.1744289;2.906331;-0.08316146;0.8969746;4.434922;0.1766618;1.18998;4.335633;0.2834976;1.453446;3.502115;0.6886028;1.083149;2.68319;0.3885569;0.3511297;2.458282;0.9878879;0.07930022;1.341344;0.08267157;0;0;0;0.3511297;2.458282;0.9878879;0.07930022;1.341344;0.08267157;0;0;0
680854.7245;NotLabelled;NONE;16384;-0.5166205;0.4529086;-0.6928836;-0.2188366;-52;-43;49;-2185;3453;460;65536;0.8334878;-0.3587258;0.09833795;0.4085872;51;57;-11;-2990;2695;-2269;8192;0.5803324;-0.6543981;-0.4695291;-0.1204986;-13;-19;-28;2148;2109;1013;32768;0.6860515;-0.6371191;0.02493075;-0.3504155;-15;-52;26;1479;2855;616;256;0.1454294;-0.07756232;-0.8005337;-0.5761772;27;-32;-10;-1065;2220;2147;128;-0.09279778;0.101108;0.7441709;0.6537396;-23;-29;-3;265;3085;-1358;4;-0.6163435;0.1426593;-0.4556787;-0.6261997;-16;-18;35;2493;2766;118;16;0.7143834;-0.6980609;-0.004155125;-0.04847645;-25;-7;-14;169;3884;-296;2;0.5747922;-0.5780139;-0.4612188;-0.3504155;17;-13;4;-65;3030;-219;8;0.3933518;-0.8504584;0.1869806;0.2950138;-10;-9;20;5;2553;4521;0.6568276;2.488168;0.9782057;0.6623604;2.992363;0.7699313;0.6672153;3.434777;0.5849889;0.6382636;4.126477;0.3417265;0.3674556;4.41046;0.1976264;0.03110588;4.284923;0.3036853;-0.5184021;3.567733;0.5086495;-0.1827323;2.908432;-0.08333446;0.8873442;4.432223;0.1976246;1.180669;4.333043;0.3036826;1.442104;3.495482;0.7017018;1.07055;2.680649;0.3922184;0.3445785;2.446613;0.9885023;0.06707813;1.342781;0.06904095;0;0;0;0.3445785;2.446613;0.9885023;0.06707813;1.342781;0.06904095;0;0;0
680875.7296;NotLabelled;NONE;16384;-0.5235457;0.4432133;-0.6930746;-0.2216066;-55;-68;57;-2197;3661;842;65536;0.840443;-0.3518005;0.09833795;0.400277;72;53;-3;-2664;3281;-3267;8192;0.5900277;-0.6538379;-0.4584487;-0.1191136;-21;-39;-37;2268;2809;815;32768;0.6911232;-0.6371191;0.04709141;-0.3379501;-16;-96;28;551;3745;148;256;0.1481994;-0.08171745;-0.7976084;-0.5789474;30;-34;-5;-717;2784;2103;128;-0.09418282;0.1052632;0.7422001;0.6551247;-12;-31;-7;-205;3777;-1306;4;-0.6177285;0.1371191;-0.4529086;-0.6280793;-14;-2;38;2307;3004;454;16;0.71184;-0.700831;-0.005540166;-0.04570637;-26;-3;-12;89;4062;-78;2;0.5734072;-0.5824146;-0.4584487;-0.3490305;29;-36;9;1033;4486;975;8;0.3933518;-0.8530855;0.1814404;0.2908587;-2;71;15;-1925;3357;2319;0.6536874;2.47719;0.9834675;0.6592406;2.983229;0.7797133;0.6641134;3.427281;0.5987372;0.6339859;4.120765;0.3607562;0.362681;4.405406;0.2189086;0.02656559;4.278533;0.324116;-0.5376961;3.563797;0.4946802;-0.2007572;2.921003;-0.1144871;0.8825346;4.427993;0.2189066;1.176051;4.328475;0.3241129;1.433671;3.48778;0.7179895;1.059641;2.675994;0.4035155;0.3414375;2.435545;0.9933612;0.06765448;1.343224;0.05915824;0;0;0;0.3414375;2.435545;0.9933612;0.06765448;1.343224;0.05915824;0;0;0
680897.7326;NotLabelled;NONE;16384;-0.5304709;0.4293629;-0.694732;-0.2271468;-50;-87;59;-2229;3881;1268;65536;0.8479158;-0.3407202;0.101108;0.3933518;93;40;2;-2756;3591;-3229;8192;0.5955678;-0.6538849;-0.4515235;-0.1177285;-22;-44;-42;2548;3607;595;32768;0.6948244;-0.6371191;0.05955679;-0.3282548;-17;-119;25;1795;4271;120;256;0.1523546;-0.08587258;-0.794367;-0.5817174;34;-31;0;-337;3564;1931;128;-0.09556787;0.1094183;0.7426432;0.6537396;-7;-32;-11;-511;4569;-1034;4;-0.6204986;0.1315789;-0.4515235;-0.6275309;-13;-4;38;2309;3192;808;16;0.7091779;-0.7036011;-0.006925208;-0.04432133;-26;-5;-12;155;4158;232;2;0.5720221;-0.5886525;-0.4542936;-0.3462604;15;-26;17;1795;5598;1767;8;0.398892;-0.8533643;0.1745152;0.2867036;16;36;11;45;3325;2611;0.6427787;2.46589;0.9877771;0.6483437;2.973015;0.7867433;0.6532272;3.418032;0.6081544;0.6245207;4.113504;0.3758674;0.3537847;4.399883;0.23645;0.01743097;4.27288;0.3407348;-0.5533915;3.558091;0.4875979;-0.2192243;2.923145;-0.1312507;0.8736859;4.421346;0.2364484;1.167022;4.320335;0.3407326;1.42611;3.471822;0.7164633;1.040611;2.667515;0.396669;0.3305281;2.424192;0.9974287;0.06350177;1.343892;0.04742483;0;0;0;0.3305281;2.424192;0.9974287;0.06350177;1.343892;0.04742483;0;0;0
680918.753;NotLabelled;NONE;16384;-0.536011;0.4127424;-0.6982451;-0.234072;-45;-109;59;-1953;4061;1882;65536;0.8561025;-0.3282548;0.1052632;0.3850415;104;47;9;-3430;3841;-2979;8192;0.602493;-0.653474;-0.4432133;-0.1163435;-26;-39;-47;2772;4307;545;32768;0.6983384;-0.6371191;0.07617728;-0.3171745;-17;-127;23;1933;5009;-460;256;0.1537396;-0.0900277;-0.7916019;-0.5844875;35;-28;4;-191;4370;1903;128;-0.09695291;0.1135734;0.7406166;0.6551247;-8;-24;-12;-673;5219;-1016;4;-0.6218836;0.1274238;-0.4501385;-0.6280121;-16;-8;33;2439;3496;826;16;0.7049862;-0.7078863;-0.006925208;-0.04293629;-23;-11;-10;173;4174;456;2;0.5706371;-0.5897383;-0.4556787;-0.3448753;-2;0;12;1451;5144;1011;8;0.400277;-0.8539239;0.1731302;0.2839335;-1;15;12;-173;3855;3473;0.6382929;2.454063;0.9913954;0.6438538;2.96081;0.7894102;0.6487336;3.405492;0.6099865;0.6202396;4.102866;0.3834491;0.3495764;4.390496;0.246489;0.01320489;4.262777;0.3498381;-0.5641177;3.548086;0.469196;-0.2357602;2.925188;-0.16482;0.8694865;4.411742;0.2464872;1.162815;4.309753;0.3498355;1.420578;3.456989;0.7167493;1.033224;2.655101;0.3931434;0.3260427;2.412384;1.001132;0.06195518;1.344302;0.03660095;0;0;0;0.3260427;2.412384;1.001132;0.06195518;1.344302;0.03660095;0;0;0
680939.7346;NotLabelled;NONE;16384;-0.5401662;0.3933518;-0.7029028;-0.2437673;-40;-119;60;-1289;4397;2936;65536;0.8639318;-0.3157895;0.1094183;0.3767313;111;45;9;-3616;3897;-3615;8192;0.6080332;-0.6530027;-0.4362881;-0.1163435;-33;-30;-45;3108;4699;671;32768;0.7027035;-0.6357341;0.09141274;-0.3060942;-12;-120;29;3183;5305;-218;256;0.1537396;-0.09695291;-0.7856178;-0.5914127;37;-13;12;153;4906;1681;128;-0.09695291;0.1218837;0.7355914;0.6592798;-37;-15;-13;-337;5275;-512;4;-0.6232687;0.1204986;-0.4487534;-0.6289965;-11;-6;15;2305;3838;626;16;0.699446;-0.7135075;-0.008310249;-0.0401662;-9;0;0;-181;4184;896;2;0.5692521;-0.5891932;-0.4570637;-0.3462604;-3;22;0;409;4954;339;8;0.400277;-0.855671;0.1689751;0.2811634;-8;41;10;-675;4137;2341;0.6389252;2.445346;0.9866812;0.6444982;2.953197;0.7874888;0.6493887;3.398859;0.6105159;0.623366;4.098204;0.3898279;0.3537102;4.387954;0.2553707;0.01690751;4.260599;0.3577632;-0.5669416;3.547553;0.4527054;-0.2505011;2.938149;-0.200204;0.8736942;4.407305;0.2553686;1.166681;4.303388;0.3577601;1.425443;3.445424;0.7116178;1.030451;2.648032;0.3861415;0.3266742;2.403614;0.9961689;0.06545506;1.34447;0.02105955;0;0;0;0.3266742;2.403614;0.9961689;0.06545506;1.34447;0.02105955;0;0;0
680960.9324;NotLabelled;NONE;16384;-0.5457063;0.3767313;-0.7047943;-0.2520775;-41;-109;60;-977;4173;3776;65536;0.8717129;-0.301939;0.1149584;0.368421;112;41;3;-3772;3905;-3711;8192;0.6149584;-0.6501897;-0.4307479;-0.1163435;-39;-13;-42;3278;4869;941;32768;0.7066169;-0.632964;0.1066482;-0.2977839;-14;-112;43;4245;5353;-136;256;0.1523546;-0.101108;-0.7822175;-0.5955678;37;-6;12;75;4934;1607;128;-0.09556787;0.1246537;0.7315616;0.6634349;-36;-5;-14;-67;5195;-480;4;-0.6232687;0.1177285;-0.4487534;-0.6295208;-7;-4;6;2843;3678;652;16;0.6980609;-0.7148626;-0.008310249;-0.0401662;0;-5;4;-279;4130;830;2;0.5706371;-0.5845532;-0.4570637;-0.3518005;5;-7;-25;-691;4410;-199;8;0.3933518;-0.8583269;0.1717452;0.2811634;-19;-40;2;445;4163;2535;0.6397222;2.43224;0.9794937;0.6453271;2.943001;0.787885;0.650246;3.391248;0.6175671;0.629469;4.095007;0.4107931;0.3619692;4.389423;0.2822996;0.02425776;4.262653;0.3823976;-0.5649711;3.55117;0.4526118;-0.2594398;2.955994;-0.2183675;0.8820865;4.404781;0.2822979;1.174326;4.296612;0.3823955;1.431701;3.433759;0.725206;1.03251;2.640178;0.3955667;0.3274699;2.390372;0.9883083;0.06626576;1.344595;-0.001126725;0;0;0;0.3274699;2.390372;0.9883083;0.06626576;1.344595;-0.001126725;0;0;0
680980.7938;NotLabelled;NONE;16384;-0.5567867;0.3434903;-0.7090493;-0.2631579;-54;-75;65;-601;4079;4664;65536;0.8872259;-0.2742382;0.1177285;0.3518005;103;60;-23;-4608;3683;-4405;8192;0.6288089;-0.6402639;-0.4252077;-0.1177285;-48;8;-40;2378;5079;1121;32768;0.7106032;-0.6274238;0.1385041;-0.2867036;-22;-91;55;3279;4125;290;256;0.1495845;-0.1024931;-0.7793921;-0.599723;38;0;9;-105;4858;1437;128;-0.09279778;0.1274238;0.7276505;0.66759;-39;-6;-13;69;4915;-320;4;-0.6232687;0.1177285;-0.4487534;-0.6295208;-2;1;-1;2795;3570;770;16;0.6966759;-0.7162125;-0.008310249;-0.0401662;5;-1;8;-3;4196;644;2;0.5720221;-0.5866661;-0.4515235;-0.3531856;12;-44;-28;-187;4536;135;8;0.3905817;-0.8575532;0.1772853;0.2839335;-16;-30;3;923;3429;3273;0.6434468;2.427868;0.9795515;0.6490774;2.940967;0.7942968;0.6540191;3.391293;0.6295555;0.6374754;4.097603;0.4312711;0.3717218;4.395199;0.3065343;0.03329903;4.269336;0.4053653;-0.5595411;3.559546;0.4607542;-0.2712634;2.980448;-0.2315884;0.8919244;4.407325;0.3063112;1.183556;4.296146;0.4048729;1.445435;3.433251;0.7441487;1.038449;2.645821;0.4093307;0.3311933;2.385893;0.9878031;0.06830192;1.344481;-0.005779266;0;0;0;0.3311933;2.385893;0.9878031;0.06830192;1.344481;-0.005779266;0;0;0
681001.7581;NotLabelled;NONE;16384;-0.566482;0.3296399;-0.7069073;-0.265928;-68;-50;72;-505;4349;4556;65536;0.8953359;-0.2603878;0.1163435;0.3421052;98;73;-36;-4666;3711;-4697;8192;0.6388541;-0.6315789;-0.4224377;-0.1204986;-47;7;-47;1678;4605;1015;32768;0.709432;-0.6274238;0.1523546;-0.2825485;-30;-80;51;2641;3485;146;256;0.1481994;-0.1052632;-0.7749923;-0.6052631;39;-1;5;-235;4502;1321;128;-0.09141274;0.1301939;0.7234997;0.6717451;-50;-8;-14;95;4541;-122;4;-0.6232687;0.1177285;-0.4501385;-0.6285312;-2;-1;-6;2761;3150;1020;16;0.6980609;-0.7147982;-0.006925208;-0.04155125;8;-8;10;479;4118;376;2;0.5761772;-0.5887177;-0.4445983;-0.3518005;16;-53;-20;1305;4554;305;8;0.3878116;-0.8580631;0.1786704;0.2853186;-6;-7;4;969;3081;3425;0.6479062;2.427834;0.9745009;0.6535617;2.943207;0.795671;0.6585257;3.395556;0.6365688;0.6445993;4.104041;0.4459972;0.379959;4.403949;0.3244682;0.04105839;4.27825;0.4218623;-0.5652599;3.577794;0.4301164;-0.3020103;3.038164;-0.302889;0.9002024;4.414178;0.3244665;1.191406;4.300867;0.4218598;1.471728;3.4285;0.7196366;1.037755;2.658815;0.3775274;0.3356516;2.38576;0.9821848;0.07030491;1.344347;-0.01074507;0;0;0;0.3356516;2.38576;0.9821848;0.07030491;1.344347;-0.01074507;0;0;0
681021.7757;NotLabelled;NONE;16384;-0.5761772;0.3144044;-0.7065315;-0.2645429;-83;-39;80;-619;4327;4292;65536;0.9042879;-0.2451524;0.1121884;0.3310249;100;85;-46;-4662;3569;-4803;8192;0.6467299;-0.6260388;-0.4182825;-0.1218837;-42;-2;-52;1224;4035;987;32768;0.7091886;-0.6260388;0.166205;-0.2783934;-31;-66;46;2595;3125;-402;256;0.1481994;-0.1066482;-0.771539;-0.6094183;46;-5;3;-405;4108;1317;128;-0.0900277;0.132964;0.7179834;0.6772853;-53;-8;-13;-11;4301;-110;4;-0.6232687;0.1177285;-0.4515235;-0.627537;-5;-5;-10;2827;2932;1170;16;0.6980609;-0.7148197;-0.004155125;-0.04155125;9;-10;8;405;4048;252;2;0.5775623;-0.5923333;-0.4390582;-0.3504155;11;-27;-5;2063;4702;647;8;0.3878116;-0.8585224;0.1786704;0.2839335;4;1;6;651;2711;3561;0.653614;2.429064;0.9800143;0.6592938;2.946649;0.8076905;0.6642792;3.400966;0.6542988;0.6527246;4.112274;0.4743823;0.38908;4.414871;0.3574448;0.04977627;4.288882;0.4530421;-0.5628944;3.594194;0.4337192;-0.306215;3.07691;-0.3174992;0.9093552;4.423325;0.3574428;1.200194;4.307574;0.4530391;1.492646;3.431782;0.7282397;1.043825;2.669813;0.3880181;0.3413583;2.386897;0.9871246;0.07309952;1.344236;-0.003710628;0;0;0;0.3413583;2.386897;0.9871246;0.07309952;1.344236;-0.003710628;0;0;0
681042.8485;NotLabelled;NONE;16384;-0.5886427;0.299169;-0.7038983;-0.2617728;-95;-39;87;-915;4293;4012;65536;0.914034;-0.2299169;0.1052632;0.3171745;107;93;-54;-4352;3519;-5249;8192;0.6541724;-0.6204986;-0.4141274;-0.1246537;-38;-6;-54;1082;3531;893;32768;0.7084606;-0.6246537;0.1786704;-0.2756233;-28;-52;46;2511;2773;-846;256;0.1468144;-0.1094183;-0.7614026;-0.6218836;57;-6;4;-417;3796;1001;128;-0.08448754;0.1357341;0.7075245;0.6883656;-51;3;-15;-249;4045;-322;4;-0.6218836;0.1177285;-0.4542936;-0.6269115;0;-5;-12;3349;2622;736;16;0.700831;-0.7121148;-0.001385042;-0.04155125;6;3;7;159;4164;-140;2;0.5761772;-0.5947025;-0.4376731;-0.3504155;7;-5;3;1917;4430;567;8;0.3878116;-0.8589793;0.1786704;0.2825485;11;11;6;-23;2675;3361;0.6608388;2.430139;0.980813;0.666549;2.950489;0.8170297;0.6715615;3.407269;0.6711349;0.6601029;4.120516;0.4990579;0.3964919;4.424428;0.3855041;0.05718254;4.297454;0.47977;-0.567816;3.615092;0.4340757;-0.3132398;3.124546;-0.3355686;0.9167686;4.432789;0.3855024;1.207603;4.315942;0.4797672;1.507629;3.437252;0.7369934;1.045535;2.683541;0.396148;0.348582;2.387861;0.9871722;0.0779677;1.343967;-0.001721736;0;0;0;0.348582;2.387861;0.9871722;0.0779677;1.343967;-0.001721736;0;0;0
681062.8802;NotLabelled;NONE;16384;-0.601108;0.2811634;-0.7018076;-0.2590028;-107;-51;94;-951;4157;3506;65536;0.9228826;-0.2132964;0.09972299;0.3047091;119;93;-60;-4374;3451;-5237;8192;0.6610146;-0.6163435;-0.4085872;-0.1274238;-36;-3;-57;1028;3205;873;32768;0.7071679;-0.6232687;0.1883656;-0.2756233;-20;-45;43;2401;2339;-1008;256;0.1468144;-0.1121884;-0.7564381;-0.6274238;58;-9;8;-391;3800;961;128;-0.08033241;0.1385041;0.7034048;0.6925207;-47;7;-17;-425;4015;-244;4;-0.6204986;0.1177285;-0.4542936;-0.6282824;2;5;-9;3171;2646;522;16;0.702216;-0.7105817;-0.001385042;-0.04432133;5;8;10;-5;3976;-118;2;0.5747922;-0.5939972;-0.4404432;-0.3504155;-5;8;1;791;4098;369;8;0.3905817;-0.859485;0.1745152;0.2797784;11;15;7;149;3033;2553;0.6664441;2.434014;0.9885166;0.6722086;2.959313;0.8413811;0.6772696;3.420506;0.7101014;0.6657873;4.138996;0.5614315;0.4021453;4.446476;0.4580086;0.0628732;4.316516;0.5482526;-0.5742849;3.648396;0.470961;-0.3182221;3.186817;-0.3159149;0.9224227;4.454793;0.4580072;1.213296;4.334906;0.5482506;1.518994;3.452924;0.7868533;1.043855;2.707573;0.4455596;0.3541852;2.391557;0.9934177;0.07878215;1.343884;0.009855945;0;0;0;0.3541852;2.391557;0.9934177;0.07878215;1.343884;0.009855945;0;0;0
681083.7503;NotLabelled;NONE;16384;-0.6274238;0.2354571;-0.6965947;-0.2562327;-124;-86;104;-561;3903;3318;65536;0.941486;-0.1717452;0.08587258;0.2770083;144;100;-69;-4142;3401;-4767;8192;0.6769936;-0.6052631;-0.3961219;-0.1357341;-35;-2;-76;218;3459;691;32768;0.7053698;-0.6218836;0.2049861;-0.2714681;-20;-45;26;2019;1903;-708;256;0.1454294;-0.1149584;-0.7504907;-0.634349;59;-9;12;-241;3738;891;128;-0.07617728;0.1398892;0.6966759;0.6994789;-47;9;-20;-445;3943;-38;4;-0.6204986;0.1191136;-0.4542936;-0.6280213;6;13;-8;3005;2700;394;16;0.702216;-0.7104939;-0.001385042;-0.04570637;5;8;13;39;4122;-280;2;0.5747922;-0.5921471;-0.4418283;-0.3518005;-5;11;-3;279;3742;105;8;0.3919668;-0.8593041;0.1745152;0.2783934;6;3;5;469;3041;2323;0.6634954;2.435186;0.9968247;0.6692804;2.962358;0.8565474;0.6743598;3.425222;0.7312889;0.6639072;4.145929;0.5936825;0.4006975;4.455351;0.4950625;0.06125376;4.324521;0.5833819;-0.5891364;3.674141;0.4723442;-0.331129;3.243459;-0.3312364;0.9209865;4.4629;0.495061;1.211702;4.341211;0.5833795;1.519886;3.455438;0.8040727;1.033646;2.718537;0.4600762;0.3512361;2.392669;1.001127;0.08139013;1.343651;0.01745974;0;0;0;0.3512361;2.392669;1.001127;0.08139013;1.343651;0.01745974;0;0;0
681104.7197;NotLabelled;NONE;16384;-0.6398892;0.2091413;-0.6941574;-0.2548476;-127;-93;108;-347;3581;3430;65536;0.950524;-0.1481994;0.07756232;0.2617728;153;107;-75;-4080;3225;-4643;8192;0.6843339;-0.601108;-0.3878116;-0.1412742;-33;-11;-87;124;3507;619;32768;0.7043832;-0.6218836;0.2119114;-0.2686981;-16;-44;13;1751;2021;-1062;256;0.1440443;-0.1191136;-0.7453892;-0.6398892;62;-9;15;-157;3684;835;128;-0.07202215;0.1412742;0.6925207;0.7037538;-48;7;-21;-389;3861;32;4;-0.6218836;0.1218837;-0.4529086;-0.6271195;6;25;-6;2761;2798;574;16;0.7036011;-0.7089384;-0.001385042;-0.04847645;5;11;14;39;4020;-118;2;0.5747922;-0.5902845;-0.4432133;-0.3531856;-3;9;-6;321;3636;143;8;0.3933518;-0.8591189;0.1745152;0.2770083;3;-1;5;663;2937;2275;0.662572;2.437271;0.9977034;0.6683869;2.967171;0.8681148;0.673493;3.432473;0.7522415;0.6648466;4.155693;0.628388;0.4024041;4.467607;0.5357514;0.06264801;4.335981;0.621657;-0.6145032;3.731065;0.4376192;-0.3536246;3.379499;-0.4027025;0.9227107;4.47383;0.5357497;1.213135;4.349741;0.6216543;1.527681;3.456035;0.796652;1.023716;2.730175;0.4546971;0.3503117;2.394676;1.001076;0.08370256;1.34349;0.01884102;0;0;0;0.3503117;2.394676;1.001076;0.08370256;1.34349;0.01884102;0;0;0
681124.7294;NotLabelled;NONE;16384;-0.6509695;0.1814404;-0.6921523;-0.2534626;-133;-95;114;-79;3319;3566;65536;0.959119;-0.1232687;0.06925207;0.2451524;160;115;-80;-4150;2969;-4361;8192;0.6921855;-0.5969529;-0.3781163;-0.1468144;-28;-10;-93;404;3561;507;32768;0.7059135;-0.6204986;0.2160665;-0.2645429;-7;-35;1;1637;2461;-1494;256;0.1412742;-0.1232687;-0.7392412;-0.6468144;66;-8;18;-37;3544;703;128;-0.06786703;0.1440443;0.6869806;0.7090155;-51;2;-23;-275;3809;192;4;0.6265748;-0.1246537;0.4529086;0.6218836;5;22;-4;2561;2760;782;16;0.7036011;-0.7087436;-0.001385042;-0.05124654;4;8;13;445;4000;-4;2;0.5747922;-0.5884097;-0.4445983;-0.3545706;0;9;-9;211;3538;25;8;0.3933518;-0.8592818;0.1759003;0.2756233;2;7;6;571;2929;2277;0.6561678;2.438807;1.00643;0.6620005;2.970329;0.8836594;0.6671226;3.43708;0.7737736;0.6622118;4.162257;0.6617141;0.4013794;4.476993;0.5742194;0.06095503;4.345748;0.6580362;-0.6297758;3.769511;0.4362936;-0.3629016;3.464016;-0.4200056;0.9217113;4.48052;0.5742182;1.211498;4.353546;0.6580346;1.523759;3.454738;0.8094094;1.013695;2.73249;0.4688513;0.343907;2.396172;1.009211;0.08619339;1.343203;0.02651182;0;0;0;0.343907;2.396172;1.009211;0.08619339;1.343203;0.02651182;0;0;0
681166.7175;NotLabelled;NONE;16384;-0.6772853;0.1246537;-0.6808758;-0.2493075;-145;-94;129;387;3217;3742;65536;0.9741786;-0.07202215;0.05124654;0.2077562;166;125;-84;-3778;2751;-4457;8192;0.707237;-0.5872576;-0.3587258;-0.1620499;-19;9;-99;742;3825;839;32768;0.7109649;-0.6177285;0.2174515;-0.2562327;11;-19;-20;2151;2981;-1190;256;0.134349;-0.1357341;-0.7183307;-0.6689751;67;-17;16;-3;3708;89;128;-0.06094183;0.1565097;0.6731302;0.720199;-37;-21;-26;-377;4013;490;4;0.6309074;-0.1301939;0.4529086;0.6163435;-1;0;-1;2197;2990;1202;16;0.7068313;-0.7049862;0;-0.05817174;4;5;9;721;4030;112;2;0.5747922;-0.5862785;-0.4418283;-0.3614958;7;0;-5;-79;3948;337;8;0.3919668;-0.8603572;0.1759003;0.2742382;-2;-6;3;213;3185;2641;0.6631038;2.438301;1.00951;0.6689581;2.971783;0.8955634;0.6740994;3.440291;0.7934264;0.6737322;4.167584;0.6959251;0.4148765;4.48564;0.6147921;0.07363723;4.354877;0.6960081;-0.6311986;3.81046;0.440771;-0.3599312;3.554168;-0.4301628;0.9352203;4.485906;0.6147903;1.224206;4.355463;0.6960053;1.533705;3.451653;0.8209578;1.023482;2.729868;0.4796565;0.3508427;2.395627;1.011528;0.09077737;1.342845;0.02924773;0;0;0;0.3508427;2.395627;1.011528;0.09077737;1.342845;0.02924773;0;0;0
681186.8915;NotLabelled;NONE;16384;0.7041843;-0.06371191;0.66482;0.2409972;-151;-85;133;567;2595;3774;65536;0.9849418;-0.01523546;0.033241;0.1689751;178;124;-87;-3422;2761;-4541;8192;0.720826;-0.5747922;-0.3407202;-0.1842105;-21;25;-102;362;3969;1279;32768;0.7192021;-0.6135734;0.2132964;-0.2465374;19;-13;-36;2131;3621;-1228;256;0.132964;-0.1412742;-0.711;-0.6759003;66;-16;15;167;3834;-123;128;-0.05955679;0.1620499;0.66759;0.7242351;-35;-29;-27;-609;4127;600;4;0.6299108;-0.1301939;0.4542936;0.6163435;-3;-8;-1;2133;2974;1208;16;0.7067146;-0.7049862;0.001385042;-0.05955679;4;-5;5;737;4080;116;2;0.5747922;-0.586465;-0.4404432;-0.3628809;8;-7;-6;-235;3992;199;8;0.3905817;-0.8607028;0.1772853;0.2742382;-5;-14;2;-91;3085;2677;0.664462;2.441633;1.028033;0.6703617;2.979242;0.9354961;0.6755436;3.451457;0.8521626;0.6867101;4.183469;0.8021867;0.4329685;4.510167;0.741927;0.08963466;4.37979;0.8144743;-0.6345065;3.908291;0.4803529;-0.3464853;3.755082;-0.4092353;0.9532518;4.502234;0.7419257;1.24007;4.362247;0.8144726;1.539587;3.449176;0.8842306;1.040371;2.722453;0.5371786;0.3522004;2.398915;1.028208;0.09935515;1.341666;0.04884402;0;0;0;0.3522004;2.398915;1.028208;0.09935515;1.341666;0.04884402;0;0;0
681228.7273;NotLabelled;NONE;16384;0.7170584;-0.03462604;0.6551247;0.2354571;-152;-85;135;635;2517;3730;65536;0.9885986;0.01246537;0.0235457;0.1481994;184;125;-86;-3292;2791;-4369;8192;0.7269859;-0.567867;-0.333795;-0.1939058;-24;26;-97;280;4101;1481;32768;0.7234678;-0.6121883;0.2091413;-0.2409972;25;-7;-43;1981;3849;-1386;256;0.1315789;-0.1454294;-0.703766;-0.6828254;68;-18;15;181;3986;-185;128;-0.05955679;0.1689751;0.6634349;0.7264672;-36;-30;-28;-789;4095;1010;4;0.6301954;-0.1288089;0.4542936;0.6163435;-4;-13;-1;2393;2966;1094;16;0.7080896;-0.7036011;0.002770083;-0.05955679;5;-7;4;571;4096;-236;2;0.5761772;-0.5863211;-0.4376731;-0.3642659;6;-19;-9;-259;4062;405;8;0.3905817;-0.8599736;0.1786704;0.2756233;-7;-12;2;43;3251;2581;0.6657895;2.443305;1.029875;0.6717042;2.982281;0.945666;0.6768997;3.455729;0.8696474;0.6924043;4.188575;0.835591;0.440621;4.517997;0.7823593;0.09649119;4.388105;0.8519431;-0.6412997;4.007531;0.4406567;-0.3349619;3.968377;-0.4551231;0.9608486;4.506994;0.7823581;1.246803;4.363773;0.8519415;1.532181;3.443586;0.8614281;1.054392;2.706948;0.5052419;0.3535279;2.40059;1.029336;0.1039361;1.341223;0.05142751;0;0;0;0.3535279;2.40059;1.029336;0.1039361;1.341223;0.05142751;0;0;0
681248.9708;NotLabelled;NONE;16384;0.7271442;-0.005540166;0.6468144;0.2299169;-153;-91;132;645;2189;3818;65536;0.9907017;0.04155125;0.01385042;0.1288089;185;120;-85;-2902;2307;-4009;8192;0.7328349;-0.5609418;-0.3268698;-0.2036011;-23;23;-87;198;4047;1549;32768;0.7275134;-0.6108033;0.2022161;-0.2382271;32;5;-49;1637;4021;-1524;256;0.1288089;-0.1509695;-0.6963192;-0.6897507;69;-15;15;135;4088;-429;128;-0.05817174;0.1759003;0.6578947;0.7299655;-33;-36;-28;-973;4151;876;4;0.6291947;-0.1288089;0.4556787;0.6163435;-5;-12;0;2585;2844;1044;16;0.7080896;-0.7036011;0.002770083;-0.05955679;6;-2;3;253;4004;-78;2;0.5775623;-0.5870191;-0.434903;-0.3642659;3;-32;-9;29;4300;183;8;0.3878116;-0.8604932;0.1800554;0.2770083;-5;-22;1;747;3351;2843;0.6638774;2.440598;1.039737;0.669802;2.980494;0.9616449;0.6750066;3.454773;0.8910002;0.6933536;4.18811;0.872506;0.4428758;4.519557;0.8261213;0.09820119;4.389548;0.8927252;-0.6399341;4.052088;0.4459522;-0.320504;4.068757;-0.4459466;0.9630572;4.506549;0.8262028;1.248411;4.360782;0.8929061;1.530332;3.439497;0.8875038;1.06678;2.69566;0.5274853;0.3516158;2.397891;1.038674;0.1039418;1.340971;0.05763654;0;0;0;0.3516158;2.397891;1.038674;0.1039418;1.340971;0.05763654;0;0;0
681269.8829;NotLabelled;NONE;16384;0.7365843;0.0235457;0.6371191;0.2257618;-154;-94;131;795;2015;3898;65536;0.9913203;0.07063711;0.004155125;0.1108033;182;113;-81;-2614;1995;-3663;8192;0.7387792;-0.5540166;-0.3199446;-0.2119114;-21;15;-78;74;4053;1569;32768;0.7329775;-0.6080332;0.1939058;-0.2354571;40;15;-55;1659;4179;-1384;256;0.1260388;-0.1551246;-0.6869806;-0.6986474;68;-15;18;281;4188;-685;128;-0.05817174;0.1842105;0.6523545;0.7328821;-32;-38;-31;-1019;4195;1350;4;0.6250099;-0.1260388;0.4584487;0.6191136;-5;-20;-4;2501;2910;1050;16;0.7108246;-0.700831;0.004155125;-0.05955679;8;-12;0;711;3972;18;2;0.5789474;-0.590421;-0.4307479;-0.3614958;4;-29;-4;435;4316;125;8;0.3864266;-0.8605323;0.1828255;0.2770083;-2;-13;1;643;3153;2963;0.662174;2.442697;1.038952;0.6681111;2.98373;0.9691784;0.673327;3.459041;0.9058412;0.6972158;4.192449;0.9037089;0.4492717;4.526731;0.8646253;0.1035883;4.397876;0.9281764;-0.6388254;4.114265;0.4520293;-0.3060643;4.188822;-0.4320001;0.96934;4.509793;0.8646244;1.253548;4.360425;0.9281753;1.531937;3.439071;0.8847901;1.084062;2.688227;0.5195113;0.3499127;2.400012;1.037179;0.1037049;1.340971;0.05806187;0;0;0;0.3499127;2.400012;1.037179;0.1037049;1.340971;0.05806187;0;0;0
681290.7242;NotLabelled;NONE;16384;0.7450314;0.05263158;0.6274238;0.2202216;-157;-90;129;1079;1753;3934;65536;0.9908131;0.09833795;-0.002770083;0.09279778;176;116;-77;-2310;1911;-3259;8192;0.7438434;-0.5484765;-0.3130194;-0.2188366;-23;17;-69;-6;4009;1743;32768;0.7374966;-0.6066482;0.1842105;-0.232687;45;12;-60;1695;4141;-1004;256;0.1218837;-0.16759;-0.6703601;-0.7125134;64;-27;23;305;4258;-917;128;-0.0567867;0.199446;0.6440443;0.7363447;-31;-36;-31;-917;4345;1200;4;0.6228932;-0.1246537;0.4598338;0.6204986;-6;-24;-4;2695;2944;872;16;0.7109177;-0.700831;0.006925208;-0.05817174;8;-20;-2;573;4076;-62;2;0.5789474;-0.5922734;-0.4293629;-0.3601108;7;-23;0;621;4268;5;8;0.3864266;-0.8602368;0.1842105;0.2770083;-1;2;1;553;3179;2787;0.6627811;2.444391;1.047448;0.6687292;2.986411;0.9858022;0.6739548;3.462617;0.9296054;0.7011142;4.195697;0.9474812;0.4547021;4.532026;0.9173015;0.1083839;4.40304;0.9770109;-0.6337267;4.168056;0.474632;-0.2885671;4.299814;-0.3978943;0.9746895;4.512765;0.9173005;1.258165;4.360448;0.9770095;1.534529;3.440059;0.9078594;1.105305;2.681969;0.5352294;0.3505201;2.401738;1.044984;0.1015302;1.340628;0.06881441;0;0;0;0.3505201;2.401738;1.044984;0.1015302;1.340628;0.06881441;0;0;0
681310.7236;NotLabelled;NONE;16384;0.7608241;0.1080332;0.6066482;0.2036011;-163;-62;124;1155;1067;3830;65536;0.9875531;0.1440443;-0.0166205;0.06094183;162;116;-72;-2096;1253;-2627;8192;0.7543862;-0.533241;-0.3060942;-0.2299169;-33;17;-47;-498;3855;2065;32768;0.7492256;-0.602493;0.1648199;-0.2202216;38;-18;-73;1635;3855;-322;256;0.1204986;-0.1731302;-0.6620498;-0.7191634;59;-28;24;275;4242;-1043;128;-0.0567867;0.2063712;0.6385041;0.7392555;-31;-28;-30;-993;4309;1344;4;-0.6191136;0.1218837;-0.4612188;-0.6237948;-6;-22;-4;2823;3046;1016;16;0.7124864;-0.699446;0.008310249;-0.05540166;7;-14;-1;367;4190;168;2;0.5789474;-0.5960991;-0.4252077;-0.3587258;8;-16;2;669;4126;167;8;0.3850415;-0.8605601;0.1855956;0.2770083;0;-5;0;365;2973;2687;0.6526192;2.445147;1.052726;0.6585811;2.988438;1.003519;0.6638197;3.465807;0.9582522;0.701103;4.196771;1.010839;0.4594895;4.537577;0.995937;0.1112159;4.410787;1.048558;-0.6156318;4.214633;0.5086082;-0.2516964;4.399694;-0.3464352;0.9791563;4.51104;0.996412;1.260287;4.352108;1.049609;1.535903;3.431071;0.9863473;1.130613;2.664416;0.6045516;0.340359;2.402563;1.049207;0.1030092;1.340385;0.07129969;0;0;0;0.340359;2.402563;1.049207;0.1030092;1.340385;0.07129969;0;0;0
681330.8646;NotLabelled;NONE;16384;0.7671593;0.134349;0.5969529;0.1925208;-168;-49;116;1175;689;3526;65536;0.9846058;0.16759;-0.02493075;0.04293629;151;118;-69;-1548;1069;-1923;8192;0.7595018;-0.5263157;-0.3033241;-0.232687;-41;4;-35;-622;3839;2029;32768;0.7548858;-0.601108;0.1565097;-0.2105263;29;-24;-77;1565;3779;-284;256;0.1191136;-0.1800554;-0.6551247;-0.7240192;55;-30;26;331;4134;-1225;128;-0.05540166;0.2119114;0.634349;0.7413673;-34;-23;-30;-1109;4261;1244;4;-0.6177285;0.1204986;-0.4612188;-0.6254348;-4;-19;-5;2999;3062;920;16;0.7125753;-0.699446;0.009695291;-0.05401662;8;-18;0;437;4080;76;2;0.5775623;-0.5982706;-0.4252077;-0.3573407;6;-18;2;541;4026;67;8;0.3850415;-0.8605601;0.1855956;0.2770083;0;-5;0;359;2975;2691;0.6434174;2.445805;1.058011;0.6493869;2.989767;1.016885;0.6546322;3.467756;0.9787186;0.6954873;4.19713;1.048054;0.455557;4.539372;1.040905;0.1066451;4.413126;1.090517;-0.6199279;4.335953;0.5208989;-0.2353078;4.607378;-0.3014101;0.9750866;4.510276;1.040905;1.255414;4.348784;1.090517;1.539022;3.43679;0.9635988;1.181273;2.650109;0.5750938;0.331158;2.403278;1.053808;0.09794834;1.340534;0.07552023;0;0;0;0.331158;2.403278;1.053808;0.09794834;1.340534;0.07552023;0;0;0
681351.722;NotLabelled;NONE;16384;0.7729115;0.1606648;0.5872576;0.1786704;-170;-36;106;1037;399;3352;65536;0.9807639;0.1911357;-0.03185596;0.0235457;138;123;-66;-982;785;-1353;8192;0.765348;-0.5193906;-0.300554;-0.232687;-45;-6;-22;-586;3821;2001;32768;0.7595574;-0.601108;0.1481994;-0.199446;21;-22;-80;1549;3729;-390;256;0.1191136;-0.1883656;-0.6468144;-0.7293569;54;-29;27;397;4052;-1329;128;-0.05401662;0.2188366;0.6288089;0.7441722;-35;-24;-29;-979;4139;1198;4;-0.6163435;0.1204986;-0.4626039;-0.6257783;-2;-13;-5;2947;2962;770;16;0.7140155;-0.6980609;0.01108033;-0.05263158;8;-13;1;131;4064;-104;2;0.5775623;-0.6000764;-0.4238227;-0.3559557;6;-17;1;601;4110;225;8;0.3836565;-0.8604319;0.1869806;0.2783934;0;-11;0;539;3061;2763;0.6333893;2.444966;1.062445;0.6393635;2.989365;1.027595;0.6446133;3.467764;0.9949434;0.690863;4.195355;1.078212;0.4535197;4.539471;1.077332;0.1036094;4.414934;1.124156;-0.6140207;4.392349;0.5386429;-0.2111597;4.707016;-0.2591574;0.9728158;4.506464;1.077331;1.251862;4.341949;1.124155;1.543198;3.434382;0.9837338;1.212249;2.636877;0.5935473;0.3211304;2.402491;1.057713;0.09731995;1.34053;0.07638335;0;0;0;0.3211304;2.402491;1.057713;0.09731995;1.34053;0.07638335;0;0;0
681372.8162;NotLabelled;NONE;16384;0.7763328;0.1869806;0.5789474;0.1648199;-173;-28;94;903;41;2940;65536;0.9768687;0.2105263;-0.03739612;0.002770083;124;126;-64;-992;689;-913;8192;0.7713724;-0.5124654;-0.299169;-0.2299169;-47;-13;-11;-470;3721;1839;32768;0.762767;-0.602493;0.1385041;-0.1897507;15;-17;-81;1741;3761;-408;256;0.1177285;-0.1952908;-0.6398892;-0.7338551;49;-31;28;231;4092;-1355;128;-0.05263158;0.2257618;0.6246537;0.7457005;-32;-24;-28;-941;4107;1038;4;-0.6149584;0.1191136;-0.4626039;-0.627404;0;-5;-6;2903;2716;814;16;0.7154447;-0.6966759;0.01246537;-0.05124654;9;-5;1;239;3986;-234;2;0.5775623;-0.6018703;-0.4224377;-0.3545706;4;-17;2;537;4180;149;8;0.3836565;-0.8604319;0.1869806;0.2783934;2;-4;0;369;3051;2821;0.61879;2.44729;1.068824;0.6247693;2.992157;1.04225;0.630024;3.470995;1.016871;0.6808628;4.196277;1.116093;0.4457571;4.541867;1.122408;0.09497544;4.41862;1.166011;-0.6098546;4.453687;0.5657495;-0.1873514;4.810288;-0.2037459;0.9648277;4.505486;1.122407;1.242729;4.338174;1.166011;1.545499;3.436067;1.014991;1.242878;2.626813;0.6259965;0.3065319;2.404892;1.063395;0.09397437;1.34042;0.08228496;0;0;0;0.3065319;2.404892;1.063395;0.09397437;1.34042;0.08228496;0;0;0
681392.7261;NotLabelled;NONE;16384;0.7781444;0.2119114;0.5720221;0.1495845;-174;-20;80;789;-231;2552;65536;0.972385;0.2285319;-0.04432133;-0.0166205;110;134;-63;-688;491;-749;8192;0.7758409;-0.5069252;-0.299169;-0.2271468;-46;-17;0;-500;3721;1733;32768;0.7662448;-0.602493;0.1301939;-0.1814404;10;-18;-81;1853;3789;-386;256;0.1163435;-0.2022161;-0.634349;-0.7370035;41;-35;28;237;4130;-1275;128;-0.05124654;0.2299169;0.6204986;0.747993;-23;-18;-28;-857;4135;1184;4;-0.6149584;0.1204986;-0.4639889;-0.6261154;0;-4;-5;2745;2878;944;16;0.7181318;-0.6939058;0.01246537;-0.05124654;6;-6;0;533;4010;-182;2;0.5775623;-0.6036525;-0.4210526;-0.3531856;3;-17;4;673;4160;123;8;0.3836565;-0.8601298;0.1883656;0.2783934;3;-2;0;583;2957;2897;0.6050322;2.446312;1.077962;0.6110145;2.99145;1.057701;0.6162721;3.47055;1.03787;0.6721157;4.193457;1.150788;0.4394934;4.540563;1.163095;0.08773658;4.419065;1.203648;-0.5996646;4.50358;0.5882892;-0.160302;4.893445;-0.155191;0.958287;4.500428;1.163493;1.234878;4.330317;1.204529;1.554158;3.432852;1.059993;1.277787;2.611732;0.6763667;0.2927749;2.40398;1.072002;0.09079063;1.340288;0.08781701;0;0;0;0.2927749;2.40398;1.072002;0.09079063;1.340288;0.08781701;0;0;0
681412.7338;NotLabelled;NONE;16384;0.7771391;0.2562327;0.5623268;0.1191136;-166;-4;50;869;-935;1892;65536;0.9620757;0.2603878;-0.0567867;-0.05817174;91;124;-63;200;-15;-423;8192;0.7838148;-0.4986149;-0.300554;-0.2160665;-42;-20;19;-296;3669;1863;32768;0.7697418;-0.6066482;0.1149584;-0.1620499;-1;-27;-78;1929;3815;-178;256;0.1177285;-0.2160665;-0.6232687;-0.7422879;29;-45;27;107;4098;-1231;128;-0.04847645;0.2396122;0.6149584;0.7497081;-13;-15;-25;-701;3833;1194;4;-0.6135734;0.1204986;-0.4639889;-0.6274728;1;-8;-4;2665;2862;784;16;0.7181063;-0.6939058;0.01385042;-0.05124654;5;-7;1;497;4134;-228;2;0.5775623;-0.6044608;-0.4210526;-0.3518005;4;-15;7;689;4032;-13;8;0.3836565;-0.8601298;0.1883656;0.2783934;4;-3;-1;465;2937;2695;0.5930289;2.449211;1.086152;0.5990134;2.994545;1.072111;0.6042731;3.47384;1.057746;0.6657959;4.194496;1.181569;0.43593;4.543216;1.199015;0.08319896;4.423919;1.237592;-0.6014935;4.570315;0.6308848;-0.1441401;4.989981;-0.08501035;0.9543884;4.498959;1.199014;1.229599;4.326056;1.237591;1.560451;3.435776;1.075682;1.307869;2.605649;0.6950529;0.2807723;2.40695;1.079671;0.08510316;1.339972;0.09776947;0;0;0;0.2807723;2.40695;1.079671;0.08510316;1.339972;0.09776947;0;0;0
681433.7224;NotLabelled;NONE;16384;0.7741912;0.2770083;0.5595568;0.1038781;-159;0;37;841;-1249;1714;65536;0.9568964;0.2728532;-0.06232687;-0.07756232;84;117;-64;322;-147;-363;8192;0.7860096;-0.4958449;-0.3033241;-0.2105263;-40;-21;32;-390;3643;1995;32768;0.7692432;-0.6108033;0.1094183;-0.1523546;-12;-29;-73;1907;3731;-66;256;0.1204986;-0.2243767;-0.6177285;-0.7440071;23;-47;24;199;3980;-1261;128;-0.04709141;0.2437673;0.6121883;0.7507232;-10;-14;-22;-637;3799;1214;4;-0.6121883;0.1204986;-0.4639889;-0.6288242;2;-7;-2;2593;2922;766;16;0.7195114;-0.6925207;0.01523546;-0.04986149;5;-5;1;299;4108;-308;2;0.5761772;-0.6081752;-0.4210526;-0.3476454;3;-8;8;661;4052;115;8;0.3836565;-0.8593756;0.1897507;0.2797784;6;-3;-2;385;2991;2675;0.5661376;2.450219;1.093647;0.5721236;2.995706;1.088197;0.5773852;3.475168;1.081384;0.6454234;4.191478;1.225379;0.4188355;4.54176;1.251984;0.06488603;4.424817;1.286383;-0.5979444;4.669092;0.6869544;-0.09944438;5.137513;0.0313051;0.9368483;4.49256;1.251984;1.210301;4.316026;1.286384;1.570434;3.436233;1.129725;1.363628;2.586591;0.764857;0.2538821;2.408066;1.086447;0.08502928;1.339734;0.101047;0;0;0;0.2538821;2.408066;1.086447;0.08502928;1.339734;0.101047;0;0;0
681453.7292;NotLabelled;NONE;16384;0.7704243;0.2950138;0.5581717;0.08864266;-157;1;25;861;-1379;1622;65536;0.9511384;0.2853186;-0.06925207;-0.09556787;75;117;-63;712;-413;-269;8192;0.7891809;-0.4916897;-0.3074792;-0.2022161;-41;-28;39;-414;3747;2145;32768;0.7683711;-0.6149584;0.1052632;-0.1426593;-22;-37;-69;2089;3813;6;256;0.1232687;-0.2313019;-0.6135734;-0.7448704;16;-53;22;141;3834;-1179;128;-0.04709141;0.2479224;0.6108033;0.7504906;-9;-17;-18;-643;3661;1202;4;-0.6121883;0.1204986;-0.4639889;-0.6288242;1;-8;-2;2633;2960;830;16;0.7195114;-0.6925207;0.01523546;-0.04986149;5;1;1;325;4040;-320;2;0.5761772;-0.6081752;-0.4210526;-0.3476454;3;-6;8;457;4028;141;8;0.3836565;-0.8593756;0.1897507;0.2797784;5;-5;-2;451;3003;2647;0.5424429;2.451316;1.101565;0.5484293;2.996829;1.100389;0.5536912;3.47633;1.097332;0.6239506;4.190511;1.250539;0.3985054;4.541186;1.281338;0.04412299;4.425007;1.313813;-0.6058605;4.714103;0.7202864;-0.08435903;5.199674;0.09574366;0.9163498;4.490246;1.281338;1.189165;4.312366;1.313814;1.563549;3.436716;1.167702;1.375539;2.57788;0.8143721;0.2301881;2.40922;1.094009;0.08075064;1.339542;0.1069348;0;0;0;0.2301881;2.40922;1.094009;0.08075064;1.339542;0.1069348;0;0;0
681473.7425;NotLabelled;NONE;16384;0.765343;0.3144044;0.5567867;0.0734072;-150;2;15;951;-1769;1554;65536;0.9451658;0.2963989;-0.07479224;-0.1149584;70;120;-65;652;-509;-787;8192;0.7922365;-0.4889196;-0.3102493;-0.1925208;-44;-39;45;-308;3805;2137;32768;0.7673855;-0.6191136;0.1024931;-0.1315789;-33;-46;-65;2035;3975;-8;256;0.1274238;-0.2396122;-0.6108033;-0.7438202;13;-53;18;285;3678;-1237;128;-0.04709141;0.2506925;0.6094183;0.7506964;-5;-15;-17;-751;3797;1038;4;-0.6108033;0.1204986;-0.4639889;-0.6301696;2;-8;-2;2627;2928;810;16;0.7208419;-0.6911357;0.01523546;-0.04986149;5;-1;0;519;4036;-238;2;0.5747922;-0.6102723;-0.4210526;-0.3462604;3;-6;8;415;3980;167;8;0.3850415;-0.8579961;0.1911357;0.2811634;4;-6;-1;313;2981;2547;0.5257325;2.451286;1.105125;0.531719;2.996799;1.106067;0.5369809;3.476308;1.104872;0.6087459;4.188894;1.264665;0.3840818;4.539794;1.298466;0.02940279;4.424144;1.32956;-0.6100322;4.753043;0.7453699;-0.06623806;5.254726;0.1534254;0.9018073;4.487658;1.298465;1.174182;4.308858;1.329558;1.567711;3.439694;1.195533;1.395302;2.572685;0.8544177;0.213478;2.40922;1.097392;0.07911046;1.339541;0.1081541;0;0;0;0.213478;2.40922;1.097392;0.07911046;1.339541;0.1081541;0;0;0
681494.8261;NotLabelled;NONE;16384;0.7594058;0.3310249;0.5567867;0.06094183;-146;-4;3;907;-2085;1492;65536;0.9389244;0.3060942;-0.08171745;-0.134349;69;116;-68;946;-695;-727;8192;0.794065;-0.4875346;-0.3144044;-0.1814404;-44;-47;50;-278;3989;2105;32768;0.7639443;-0.6260388;0.09972299;-0.1204986;-43;-54;-63;2009;4021;-66;256;0.1315789;-0.2465374;-0.6066482;-0.744234;10;-53;14;329;3844;-1363;128;-0.04847645;0.2534626;0.6080332;0.7508011;0;-15;-14;-779;3735;1134;4;-0.6094183;0.1191136;-0.4639889;-0.6317718;-2;-11;-1;2647;2970;712;16;0.7222311;-0.6897507;0.0166205;-0.04847645;4;-12;0;617;4094;-298;2;0.5747922;-0.6110561;-0.4210526;-0.3448753;2;-10;7;345;3912;251;8;0.3850415;-0.8576863;0.1925208;0.2811634;3;-7;-2;383;3023;2491;0.4998924;2.452387;1.112327;0.5058787;2.997893;1.115328;0.5111407;3.477403;1.115943;0.5849351;4.188984;1.279252;0.3612943;4.54038;1.314656;0.006258488;4.425631;1.345009;-0.6204184;4.795207;0.7714084;-0.05356593;5.30976;0.2130974;0.8788629;4.486709;1.314656;1.150691;4.306952;1.34501;1.56173;3.443807;1.225425;1.405248;2.569005;0.8967564;0.1876382;2.410351;1.104422;0.07425598;1.339334;0.114005;0;0;0;0.1876382;2.410351;1.104422;0.07425598;1.339334;0.114005;0;0;0
681515.7838;NotLabelled;NONE;16384;0.7443307;0.3642659;0.5581717;0.04155125;-134;-13;-10;1301;-2297;1570;65536;0.9251508;0.3254848;-0.09556787;-0.1703601;62;102;-73;1378;-1275;-913;8192;0.796264;-0.4861496;-0.3171745;-0.1703601;-43;-56;51;-224;3937;2065;32768;0.7614391;-0.6315789;0.09972299;-0.1066482;-50;-61;-59;2157;4223;-136;256;0.1412742;-0.2590028;-0.599723;-0.7438357;4;-54;7;397;3948;-1295;128;-0.04986149;0.2590028;0.6080332;0.7488171;6;-16;-11;-903;4001;1256;4;-0.6080332;0.1191136;-0.4653739;-0.6320875;-3;-7;0;2645;2932;636;16;0.7222896;-0.6897507;0.01800554;-0.04709141;4;-9;-1;319;3996;-306;2;0.5747922;-0.6127867;-0.4196676;-0.3434903;3;-16;4;261;3882;257;8;0.3850415;-0.8569189;0.1939058;0.2825485;2;-14;-2;549;3153;2599;0.4779068;2.451345;1.120672;0.4838928;2.996839;1.125502;0.4891548;3.476344;1.127724;0.5628945;4.186556;1.296911;0.3392652;4.537679;1.334999;-0.01580983;4.422729;1.364112;-0.6335452;4.825106;0.8030188;-0.04314758;5.348894;0.278735;0.856827;4.483944;1.335;1.128608;4.303912;1.364112;1.555958;3.446315;1.263236;1.410682;2.562742;0.9534273;0.1656529;2.409336;1.112615;0.06962696;1.339102;0.1195206;0;0;0;0.1656529;2.409336;1.112615;0.06962696;1.339102;0.1195206;0;0;0
681536.7242;NotLabelled;NONE;16384;0.7353958;0.3808864;0.5595568;0.03185596;-130;-17;-17;1601;-2285;1526;65536;0.9177737;0.333795;-0.1038781;-0.1883656;63;106;-70;1562;-1487;-929;8192;0.8005624;-0.4847645;-0.3227147;-0.1412742;-38;-68;69;304;3987;2131;32768;0.7526755;-0.6454294;0.101108;-0.08171745;-67;-64;-40;2179;4381;350;256;0.1468144;-0.265928;-0.5969529;-0.7425464;0;-56;4;445;4054;-1217;128;-0.05124654;0.2617728;0.6080332;0.7477595;5;-20;-8;-887;3951;1354;4;-0.6080332;0.1177285;-0.4653739;-0.632347;-5;-8;0;2657;2840;674;16;0.7236097;-0.6883656;0.01800554;-0.04709141;4;-5;-1;381;4042;-298;2;0.5747922;-0.615275;-0.4182825;-0.3407202;4;-15;6;401;4088;177;8;0.3836565;-0.8567677;0.1952908;0.2839335;1;-3;-1;381;3069;2613;0.4431788;2.453847;1.122702;0.4491648;2.99934;1.127555;0.4544268;3.478845;1.129799;0.5259759;4.187235;1.307359;0.3013183;4.537263;1.349274;-0.05346733;4.420991;1.376611;-0.6582929;4.87989;0.8456428;-0.02526155;5.419642;0.3920616;0.8190284;4.484977;1.349274;1.091278;4.305376;1.376611;1.53506;3.453624;1.300111;1.405997;2.562413;1.005367;0.1309249;2.411839;1.114643;0.06575558;1.339097;0.12175;0;0;0;0.1309249;2.411839;1.114643;0.06575558;1.339097;0.12175;0;0;0
681557.7761;NotLabelled;NONE;16384;0.725434;0.3961219;0.5623268;0.02493075;-122;-14;-18;1713;-2117;1606;65536;0.9097899;0.3434903;-0.1108033;-0.2049861;64;103;-68;1742;-1363;-1013;8192;0.8007972;-0.4861496;-0.3268698;-0.1246537;-38;-78;77;414;3841;2201;32768;0.7475607;-0.6523545;0.1038781;-0.06925207;-77;-70;-32;1943;4487;420;256;0.1523546;-0.2700831;-0.5955678;-0.7410413;-2;-55;0;303;4072;-1261;128;-0.05401662;0.2645429;0.6066482;0.7477146;9;-22;-5;-863;3857;1338;4;-0.6066482;0.1163435;-0.4653739;-0.6339316;-2;-12;0;2731;2752;736;16;0.7236985;-0.6883656;0.01800554;-0.04570637;3;-9;-2;471;4010;-442;2;0.5747922;-0.6169782;-0.4168975;-0.3393352;5;-18;8;329;4032;139;8;0.3836565;-0.8559904;0.1966759;0.2853186;0;-11;-1;585;3109;2497;0.4206942;2.451492;1.131303;0.4266802;2.996985;1.136046;0.4319421;3.476491;1.138193;0.5026948;4.184325;1.31827;0.2776601;4.533972;1.361336;-0.07701439;4.417237;1.388138;-0.6759889;4.902711;0.8744522;-0.02003102;5.446141;0.4594828;0.795424;4.482222;1.361336;1.06785;4.302806;1.388138;1.54246;3.465412;1.345827;1.421873;2.560441;1.092303;0.1084402;2.409481;1.123253;0.06042428;1.33885;0.1271089;0;0;0;0.1084402;2.409481;1.123253;0.06042428;1.33885;0.1271089;0;0;0
681577.8947;NotLabelled;NONE;16384;0.7168511;0.4099723;0.5637119;0.0166205;-113;-10;-22;1807;-2391;1626;65536;0.9021524;0.3518005;-0.1177285;-0.2202216;62;95;-69;1896;-1345;-1037;8192;0.8016902;-0.4861496;-0.3310249;-0.1066482;-38;-85;83;582;3909;2329;32768;0.7405855;-0.6606648;0.1080332;-0.05817174;-88;-69;-21;1955;4461;448;256;0.16759;-0.2811634;-0.5900277;-0.738057;-4;-60;-3;287;3856;-1345;128;-0.0567867;0.267313;0.6066482;0.7465233;3;-23;-3;-877;3761;1266;4;-0.6052631;0.1149584;-0.4653739;-0.6355063;-3;-16;0;2815;2820;658;16;0.7250636;-0.6869806;0.01939058;-0.04432133;3;-8;-1;215;4056;-396;2;0.5747922;-0.6186704;-0.4155124;-0.3379501;5;-20;7;243;4012;101;8;0.3822715;-0.8555062;0.199446;0.2867036;-1;-16;-1;455;3193;2473;0.4021806;2.450922;1.132214;0.4081665;2.9964;1.138522;0.4134284;3.475897;1.142043;0.481609;4.183998;1.322064;0.255316;4.532842;1.365043;-0.09894532;4.414844;1.391773;-0.6909257;4.919414;0.8884872;-0.01805674;5.468551;0.5096825;0.7732618;4.482942;1.36517;1.046321;4.304505;1.392054;1.534773;3.47406;1.38492;1.416464;2.563511;1.151058;0.08992696;2.408935;1.124034;0.05653084;1.339082;0.1264575;0;0;0;0.08992696;2.408935;1.124034;0.05653084;1.339082;0.1264575;0;0;0
681597.8542;NotLabelled;NONE;16384;0.7085825;0.4224377;0.5650969;0.01108033;-104;-13;-24;1563;-2641;1624;65536;0.8938649;0.3601108;-0.1260388;-0.2354571;64;91;-68;2184;-1621;-665;8192;0.8014677;-0.4875346;-0.33518;-0.08725762;-36;-91;87;782;3635;2223;32768;0.7316887;-0.6703601;0.1135734;-0.04847645;-98;-65;-8;2007;4455;534;256;0.1745152;-0.2867036;-0.5872576;-0.7365283;-1;-58;-6;213;3690;-1261;128;-0.05955679;0.2700831;0.6052631;0.7464346;5;-27;-2;-795;3773;1352;4;-0.602493;0.1121884;-0.4653739;-0.6386259;-2;-15;-1;2857;2988;616;16;0.7251469;-0.6869806;0.01939058;-0.04293629;0;-11;-1;557;4122;-326;2;0.5761772;-0.6198166;-0.4141274;-0.33518;4;-25;5;375;4000;169;8;0.3822715;-0.8551821;0.200831;0.2867036;-3;-10;0;443;3057;2451;0.3560082;2.449876;1.139575;0.3619942;2.995358;1.145499;0.3672561;3.474858;1.148684;0.4272523;4.183114;1.330996;0.1969458;4.529181;1.375086;-0.1559304;4.407016;1.401411;-0.7402719;4.933728;0.9120774;-0.04347762;5.486014;0.5845786;0.7154332;4.485264;1.375086;0.9905335;4.309905;1.401412;1.494727;3.48916;1.422419;1.378192;2.573849;1.206979;0.04375458;2.407882;1.131426;0.04865751;1.33881;0.1324672;0;0;0;0.04375458;2.407882;1.131426;0.04865751;1.33881;0.1324672;0;0;0
681618.7255;NotLabelled;NONE;16384;0.6897869;0.4473684;0.5692521;0.002770083;-91;-22;-34;1921;-2629;1406;65536;0.8768287;0.3753462;-0.1398892;-0.265928;53;92;-68;2226;-1841;-219;8192;0.8008679;-0.4889196;-0.3393352;-0.06648199;-33;-95;93;1028;3473;2211;32768;0.7207674;-0.6814404;0.1204986;-0.0401662;-107;-57;6;2163;4415;720;256;0.1814404;-0.2908587;-0.5844875;-0.7354284;1;-59;-7;183;3776;-1105;128;-0.06232687;0.2728532;0.6038781;0.7463228;4;-27;-1;-813;3625;1202;4;-0.602493;0.1108033;-0.466759;-0.6378564;-5;-10;0;2877;2848;530;16;0.7251893;-0.6869806;0.02077562;-0.04155125;0;-16;-2;505;4020;-368;2;0.5761772;-0.6214857;-0.4127424;-0.333795;4;-21;4;605;3948;57;8;0.3808864;-0.8550083;0.2022161;0.2880886;-3;-10;0;595;3057;2563;0.3324476;2.448512;1.140357;0.3384334;2.993975;1.147805;0.3436951;3.473464;1.152329;0.400297;4.181679;1.335882;0.1683414;4.526569;1.380541;-0.1839536;4.402681;1.406602;-0.7649302;4.945249;0.9307706;-0.05145788;5.498982;0.6441799;0.6870317;4.485119;1.380541;0.9629593;4.311024;1.406601;1.48057;3.500041;1.458187;1.355327;2.580952;1.264857;0.02019411;2.406541;1.132082;0.04424027;1.339036;0.131725;0;0;0;0.02019411;2.406541;1.132082;0.04424027;1.339036;0.131725;0;0;0
681638.7979;NotLabelled;NONE;16384;0.6801584;0.4584487;0.5720221;0;-86;-19;-40;2095;-2767;1440;65536;0.8689621;0.3808864;-0.1468144;-0.2797784;45;87;-67;2390;-1799;-7;8192;0.7950453;-0.4944598;-0.3504155;-0.02493075;-25;-97;104;1172;3405;1983;32768;0.6952909;-0.7053412;0.134349;-0.03185596;-123;-35;32;2221;4277;832;256;0.1966759;-0.2977839;-0.5775623;-0.7342105;0;-58;-10;19;3902;-1135;128;-0.07063711;0.2783934;0.602493;0.7446541;5;-34;0;-757;3753;1212;4;-0.601108;0.1094183;-0.466759;-0.6394004;-5;-8;1;2811;2766;650;16;0.7265359;-0.6855956;0.02216066;-0.0401662;-1;-11;-3;499;4012;-432;2;0.5761772;-0.6231441;-0.4113573;-0.33241;4;-14;4;577;4040;27;8;0.3795014;-0.855624;0.2022161;0.2880886;-2;-9;1;497;3151;2701;0.3204714;2.447581;1.141819;0.3264569;2.993021;1.150768;0.3317185;3.472496;1.156611;0.3836586;4.180793;1.341221;0.1494431;4.52409;1.386363;-0.2020352;4.397859;1.412199;-0.7908078;4.966281;0.97795;-0.05458358;5.51945;0.7548493;0.668394;4.486039;1.386363;0.9454532;4.313718;1.412199;1.476551;3.514077;1.494567;1.336228;2.592468;1.325061;0.008218169;2.405634;1.133419;0.04233866;1.339032;0.1323913;0;0;0;0.008218169;2.405634;1.133419;0.04233866;1.339032;0.1323913;0;0;0
681659.7309;NotLabelled;NONE;16384;0.6701899;0.4695291;0.5747922;-0.001385042;-78;-16;-41;1799;-2571;1460;65536;0.8613299;0.3850415;-0.1537396;-0.2936288;33;80;-65;2568;-2011;247;8192;0.792096;-0.4958449;-0.3559557;-0.004155125;-23;-90;104;1278;3353;2001;32768;0.6800554;-0.7185016;0.1426593;-0.03047091;-130;-31;42;2331;4249;862;256;0.2049861;-0.301939;-0.5734072;-0.7334969;2;-58;-11;155;3906;-1171;128;-0.07479224;0.2811634;0.601108;0.7443268;5;-31;3;-881;3747;1186;4;-0.601108;0.1080332;-0.466759;-0.6396359;-7;-9;2;2823;2734;814;16;0.7265675;-0.6855956;0.0235457;-0.03878116;-2;-9;-4;449;4098;-396;2;0.5761772;-0.624792;-0.4099723;-0.3310249;5;-11;6;547;4100;21;8;0.3781163;-0.8554412;0.2036011;0.2894737;-2;-7;1;427;3101;2729;0.2810354;2.446506;1.1461;0.2870209;2.991939;1.155471;0.2922826;3.47141;1.161686;0.331416;4.179702;1.349445;0.09104794;4.518526;1.396021;-0.258109;4.385877;1.421172;-0.8285968;4.962882;0.9740286;-0.07699043;5.512239;0.7977021;0.6105994;4.48982;1.396039;0.8907077;4.322399;1.421211;1.435961;3.546616;1.591904;1.252456;2.625356;1.46784;-0.03121752;2.404565;1.137664;0.03489732;1.338741;0.1374111;0;0;0;-0.03121752;2.404565;1.137664;0.03489732;1.338741;0.1374111;0;0;0
681680.7284;NotLabelled;NONE;16384;0.6618716;0.4778393;0.5775623;-0.004155125;-73;-15;-44;2107;-2545;1380;65536;0.8542181;0.3878116;-0.1592798;-0.3074792;19;79;-64;2500;-2005;195;8192;0.7883831;-0.4986149;-0.3601108;0.01246537;-19;-86;102;1398;3337;1823;32768;0.66482;-0.7309542;0.1509695;-0.03047091;-134;-19;54;2425;4361;938;256;0.2119114;-0.3060942;-0.5706371;-0.7319653;5;-57;-12;63;3970;-1035;128;-0.08033241;0.2839335;0.599723;0.743815;5;-30;5;-907;3875;1152;4;-0.601108;0.1052632;-0.468144;-0.6390853;-6;-12;3;2759;2760;702;16;0.7266401;-0.6855956;0.0235457;-0.03739612;-3;3;-2;147;4080;-582;2;0.5747922;-0.6277005;-0.4085872;-0.3296399;4;-12;6;349;4042;-7;8;0.3781163;-0.8554412;0.2036011;0.2894737;-4;0;1;167;3187;2611;0.2621897;2.44437;1.147788;0.268175;2.989784;1.158264;0.2734363;3.46924;1.16545;0.3057275;4.177337;1.355238;0.06210238;4.513696;1.402754;-0.285763;4.377617;1.427482;-0.8731263;4.961732;1.012579;-0.1094772;5.504657;0.871623;0.5819061;4.489994;1.402754;0.8636118;4.325209;1.427482;1.423564;3.564037;1.615493;1.211029;2.64631;1.513556;-0.05006325;2.402447;1.139261;0.03266545;1.338738;0.1379931;0;0;0;-0.05006325;2.402447;1.139261;0.03266545;1.338738;0.1379931;0;0;0
681701.8752;NotLabelled;NONE;16384;0.6510639;0.4875346;0.5817174;-0.005540166;-74;-8;-51;2243;-2667;1364;65536;0.8476805;0.3891967;-0.1634349;-0.3213296;7;79;-64;2590;-2243;33;8192;0.7835162;-0.501385;-0.365651;0.03185596;-16;-89;103;1518;3219;1685;32768;0.6481994;-0.7441154;0.1578947;-0.03462604;-139;-4;65;2289;4315;930;256;0.2188366;-0.3102493;-0.566482;-0.7314056;0;-51;-13;77;4010;-893;128;-0.08448754;0.2853186;0.5983379;0.7439401;5;-33;5;-725;3835;1000;4;-0.599723;0.1038781;-0.468144;-0.6406113;-4;-14;2;2749;2720;654;16;0.726652;-0.6855956;0.02077562;-0.03878116;-3;15;-2;97;3966;-568;2;0.5747922;-0.628426;-0.4085872;-0.3282548;2;-16;5;313;4114;59;8;0.3767313;-0.856052;0.2036011;0.2894737;-4;3;1;557;3079;2713;0.2490443;2.441546;1.14902;0.2550294;2.986946;1.160226;0.2602907;3.466393;1.168053;0.2880127;4.174585;1.358204;0.04222333;4.509341;1.405885;-0.3047581;4.371011;1.430536;-0.8937939;4.961061;1.026546;-0.1195762;5.496019;0.9160825;0.5621693;4.488992;1.405885;0.8449308;4.326013;1.430536;1.40845;3.575741;1.649197;1.165662;2.663549;1.567052;-0.06320864;2.399634;1.140433;0.02859097;1.338959;0.1367392;0;0;0;-0.06320864;2.399634;1.140433;0.02859097;1.338959;0.1367392;0;0;0
681722.7199;NotLabelled;NONE;16384;0.6409541;0.4958449;0.5858725;-0.008310249;-67;-5;-48;1993;-2767;1488;65536;0.8423957;0.3878116;-0.1689751;-0.333795;0;75;-65;2728;-2179;-215;8192;0.7780865;-0.5041551;-0.3711911;0.05124654;-13;-86;103;1796;3025;1785;32768;0.6301939;-0.7576785;0.1648199;-0.0401662;-141;4;75;2425;4099;928;256;0.2271468;-0.3130194;-0.5637119;-0.7298302;-2;-52;-14;285;3730;-949;128;-0.08864266;0.2880886;0.5983379;0.7423874;10;-32;4;-907;3777;1154;4;-0.5983379;0.101108;-0.468144;-0.6423473;0;-15;1;2955;2798;558;16;0.7266058;-0.6855956;0.0166205;-0.04155125;-4;8;-3;539;4070;-286;2;0.5747922;-0.6300448;-0.4072022;-0.3268698;0;-15;8;481;4182;-85;8;0.3767313;-0.8563803;0.2022161;0.2894737;-3;1;1;669;3237;2757;0.2278184;2.440988;1.146911;0.2338033;2.986367;1.159059;0.2390645;3.4658;1.167714;0.2612805;4.173509;1.360372;0.01290262;4.506184;1.409193;-0.3330023;4.365088;1.433295;-0.9218048;4.958125;1.033359;-0.1379148;5.483796;0.9497935;0.5329902;4.489856;1.409212;0.8170003;4.328982;1.433336;1.380444;3.593508;1.697692;1.102961;2.689816;1.633413;-0.08443421;2.399091;1.138245;0.024095;1.339183;0.1354116;0;0;0;-0.08443421;2.399091;1.138245;0.024095;1.339183;0.1354116;0;0;0
681742.75;NotLabelled;NONE;16384;0.622508;0.5124654;0.5914127;-0.009695291;-61;-16;-47;2525;-2735;1370;65536;0.8304418;0.3850415;-0.1772853;-0.3614958;-13;66;-67;2818;-2131;-433;8192;0.7659668;-0.5096953;-0.3822715;0.08587258;-2;-70;98;1876;2661;1529;32768;0.5914127;-0.7844852;0.1772853;-0.05817174;-145;23;87;2015;3707;1048;256;0.2396122;-0.3185596;-0.5581717;-0.7277019;0;-44;-12;67;4006;-1065;128;-0.09833795;0.2936288;0.5983379;0.7389882;10;-31;7;-1025;3879;1018;4;-0.5969529;0.09972299;-0.466759;-0.6448555;0;-11;1;3081;2848;610;16;0.7253268;-0.6869806;0.01523546;-0.04155125;-6;3;-3;527;4096;-170;2;0.5747922;-0.6316534;-0.4058172;-0.3254848;1;-17;8;705;4168;-177;8;0.3767313;-0.8563803;0.2022161;0.2894737;-3;0;-1;859;3063;2721;0.208437;2.438334;1.146669;0.214422;2.983733;1.15789;0.2196833;3.46318;1.165731;0.2348049;4.171319;1.357492;-0.0168975;4.501545;1.405911;-0.3613668;4.357015;1.430217;-0.9616284;4.954518;1.054712;-0.1666821;5.466717;0.9954644;0.503328;4.490439;1.405911;0.7889404;4.332456;1.430217;1.359622;3.61192;1.719053;1.044405;2.719606;1.67212;-0.1038159;2.396422;1.13808;0.01956742;1.339407;0.1339116;0;0;0;-0.1038159;2.396422;1.13808;0.01956742;1.339407;0.1339116;0;0;0
681763.7185;NotLabelled;NONE;16384;0.6127303;0.5193906;0.5955678;-0.009695291;-57;-9;-49;2791;-2931;1338;65536;0.825623;0.3808864;-0.1828255;-0.3739612;-14;64;-72;2866;-1909;-791;8192;0.7587374;-0.5124654;-0.3891967;0.101108;0;-72;93;1660;2641;1463;32768;0.5706371;-0.7972728;0.1842105;-0.06925207;-147;26;91;2349;3495;946;256;0.2451524;-0.3213296;-0.5554016;-0.7267576;0;-37;-12;233;4100;-1097;128;-0.1038781;0.2950138;0.5983379;0.7376773;9;-31;7;-1063;4037;828;4;-0.5969529;0.09833795;-0.466759;-0.6450681;1;-9;3;3111;2944;536;16;0.7239596;-0.6883656;0.01385042;-0.04293629;-7;18;-2;295;4056;-250;2;0.5734072;-0.6359137;-0.4044321;-0.3213296;6;-15;9;845;4016;-7;8;0.3739612;-0.8567969;0.2036011;0.2908587;0;-5;-1;685;2971;2737;0.1757261;2.436863;1.139426;0.1817115;2.982305;1.148305;0.1869732;3.461781;1.154086;0.1918525;4.169917;1.346391;-0.06459892;4.496431;1.395059;-0.4069424;4.346916;1.419248;-1.018419;4.948263;1.06881;-0.2043182;5.432757;1.051463;0.4557328;4.49285;1.395059;0.7435995;4.338994;1.419249;1.315756;3.64881;1.772173;0.9177583;2.789135;1.7536;-0.1365271;2.394914;1.131032;0.0179559;1.339906;0.1290583;0;0;0;-0.1365271;2.394914;1.131032;0.0179559;1.339906;0.1290583;0;0;0
681783.7312;NotLabelled;NONE;16384;0.6040608;0.5263157;0.5983379;-0.009695291;-52;-5;-48;2535;-3029;1218;65536;0.8198908;0.3781163;-0.1883656;-0.3864266;-8;62;-75;3164;-1831;-1001;8192;0.7515596;-0.5166205;-0.3933518;0.1163435;3;-74;87;1688;2301;1367;32768;0.5498615;-0.808786;0.1925208;-0.08033241;-143;24;98;2809;3335;668;256;0.2506925;-0.3240997;-0.5540166;-0.7246918;-1;-33;-13;347;4062;-1061;128;-0.1080332;0.2977839;0.5983379;0.7359655;14;-28;8;-1003;4029;1074;4;-0.5969529;0.09833795;-0.4653739;-0.6460681;0;0;3;2943;3026;730;16;0.7238376;-0.6883656;0.01108033;-0.04570637;-7;24;-1;409;4028;56;2;0.5734072;-0.6373058;-0.4044321;-0.3185596;4;-9;9;1149;4226;97;8;0.3739612;-0.8567969;0.2036011;0.2908587;2;1;0;459;3097;2843;0.1667779;2.435031;1.136577;0.1727637;2.980495;1.143958;0.1780255;3.459985;1.148422;0.1784462;4.16798;1.341308;-0.0800547;4.492836;1.390236;-0.421452;4.34115;1.41429;-1.03689;4.942083;1.070133;-0.2120867;5.408448;1.070945;0.4402893;4.492526;1.390251;0.7291169;4.340463;1.414324;1.294232;3.664922;1.804917;0.8520777;2.826937;1.796704;-0.1454754;2.393059;1.128308;0.02007223;1.34018;0.1258618;0;0;0;-0.1454754;2.393059;1.128308;0.02007223;1.34018;0.1258618;0;0;0
681804.723;NotLabelled;NONE;16384;-0.5927978;-0.533241;-0.6034253;0.01108033;-47;-10;-44;2615;-3065;1000;65536;0.8148637;0.3739612;-0.1952908;-0.3975069;-5;38;-79;3160;-2105;-1931;8192;0.7451652;-0.5193906;-0.3975069;0.1301939;10;-75;78;1934;2281;1141;32768;0.5304709;-0.8183252;0.200831;-0.09279778;-137;25;103;2527;3095;314;256;0.2590028;-0.3240997;-0.5567867;-0.7196287;-136;42;40;4615;2410;1519;128;-0.1121884;0.299169;0.5983379;0.7347812;4;-31;10;-941;3959;440;4;-0.5969529;0.09833795;-0.4653739;-0.6460681;-3;0;1;2795;3084;602;16;0.722429;-0.6897507;0.01108033;-0.04709141;-7;0;-3;709;3982;170;2;0.5720221;-0.63836;-0.4058172;-0.3171745;4;-2;10;1165;4298;125;8;0.3753462;-0.856191;0.2036011;0.2908587;3;6;0;447;2989;2783;0.148125;2.433806;1.135042;0.154111;2.979284;1.141329;0.1593728;3.458782;1.144833;0.1563721;4.167252;1.335944;-0.1036965;4.490975;1.384065;-0.4443557;4.337701;1.40851;-1.070035;4.937171;1.080655;-0.2362103;5.386721;1.1016;0.4166427;4.493183;1.384065;0.7062034;4.34258;1.40851;1.271522;3.681612;1.823013;0.785652;2.868152;1.821762;-0.1641286;2.391818;1.126864;0.01822202;1.340192;0.1260194;0;0;0;-0.1641286;2.391818;1.126864;0.01822202;1.340192;0.1260194;0;0;0
681866.9077;NotLabelled;NONE;16384;-0.5650969;-0.5609418;-0.6049811;0.002770083;-24;-41;-33;2697;-3095;1010;65536;0.7927981;0.365651;-0.2285319;-0.4307479;10;31;-66;4364;-1407;-369;8192;0.7181197;-0.5401662;-0.4072022;0.1634349;33;-29;27;2152;2015;867;32768;0.4626039;-0.8418091;0.232687;-0.1523546;-85;13;119;1679;2721;108;256;0.2728532;-0.3365651;-0.5387812;-0.7224887;22;-25;-12;557;3736;79;128;-0.1218837;0.301939;0.5955678;0.7343542;-5;-8;7;-973;3987;902;4;-0.5969529;0.09972299;-0.4653739;-0.6458558;0;1;-2;2547;3138;584;16;0.7187833;-0.6939058;0.01523546;-0.0401662;-3;-13;0;515;4088;-60;2;0.567867;-0.6396793;-0.4127424;-0.3130194;0;3;7;831;4078;-37;8;0.3753462;-0.856191;0.2036011;0.2908587;3;0;0;551;2871;2491;0.1411416;2.433866;1.131699;0.1471276;2.979356;1.136803;0.1523895;3.45886;1.139266;0.1439525;4.170093;1.319656;-0.1185855;4.492512;1.362866;-0.4580703;4.337031;1.389602;-1.093341;4.934771;1.077405;-0.2501437;5.36513;1.117474;0.4017219;4.498688;1.362866;0.6924179;4.350684;1.389601;1.25432;3.703722;1.830032;0.7271442;2.916401;1.830025;-0.1711123;2.39186;1.123619;0.02245766;1.340234;0.1248838;0;0;0;-0.1711123;2.39186;1.123619;0.02245766;1.340234;0.1248838;0;0;0
681888.8767;NotLabelled;NONE;16384;-0.5595568;-0.566482;-0.6049746;0;-23;-36;-35;2925;-3189;1124;65536;0.7882383;0.3628809;-0.2354571;-0.4376731;6;31;-59;4832;-1447;-443;8192;0.7124864;-0.5457063;-0.4085872;0.166205;36;-31;20;2202;2043;673;32768;0.4473684;-0.8455903;0.2382271;-0.16759;-71;37;116;1345;2625;-152;256;0.2756233;-0.3365651;-0.5387812;-0.7214365;-22;-6;-8;237;3522;-315;128;-0.1232687;0.3033241;0.5955678;0.7335518;-4;-3;3;-947;3747;650;4;-0.5969529;0.101108;-0.466759;-0.6446398;0;1;-2;2545;3022;656;16;0.7188593;-0.6939058;0.01523546;-0.03878116;-2;-11;0;41;3976;-230;2;0.566482;-0.6400121;-0.4141274;-0.3130194;2;0;7;735;3820;33;8;0.3753462;-0.856191;0.2036011;0.2908587;3;-2;0;645;2981;2525;0.1045693;2.437011;1.108114;0.1105554;2.982493;1.114051;0.1158172;3.461993;1.117247;0.0934974;4.168051;1.315862;-0.1753148;4.484008;1.367426;-0.5116445;4.321219;1.390259;-1.167097;4.91134;1.106588;-0.3013607;5.274146;1.235702;0.3447693;4.500452;1.367426;0.6383501;4.357578;1.39026;1.157477;3.737763;1.914295;0.4893531;3.066963;1.876535;-0.2076843;2.395019;1.099964;0.0269258;1.341262;0.1123341;0;0;0;-0.2076843;2.395019;1.099964;0.0269258;1.341262;0.1123341;0;0;0
681909.8865;NotLabelled;NONE;16384;-0.5540166;-0.5720221;-0.6048542;-0.002770083;-22;-29;-33;2905;-3051;1100;65536;0.7833093;0.3614958;-0.2409972;-0.4445983;5;23;-50;4916;-1395;-469;8192;0.7078823;-0.5512465;-0.4085872;0.16759;40;-25;9;2408;1891;985;32768;0.434903;-0.8473557;0.2437673;-0.1828255;-60;21;115;2635;2777;256;256;0.2783934;-0.33518;-0.5415512;-0.7189393;-15;-3;-7;113;3838;-1483;128;-0.1232687;0.3033241;0.5941828;0.7346742;-6;0;0;-975;3579;930;4;-0.5969529;0.101108;-0.466759;-0.6446398;2;5;-2;2559;3046;440;16;0.7188593;-0.6939058;0.01523546;-0.03878116;0;0;2;7;4032;-18;2;0.5650969;-0.6412354;-0.4141274;-0.3130194;2;1;6;795;3974;37;8;0.3753462;-0.8558605;0.2049861;0.2908587;3;0;1;469;3007;2691;0.1024845;2.440592;1.102532;0.1084705;2.986078;1.108073;0.1137325;3.465581;1.110921;0.0889734;4.172174;1.307328;-0.1809248;4.487368;1.357879;-0.5166976;4.3235;1.381187;-1.178052;4.910507;1.104851;-0.3078256;5.257274;1.247172;0.3390998;4.505592;1.357879;0.6331656;4.363797;1.381187;1.140846;3.744918;1.9174;0.4449239;3.103695;1.869307;-0.2097692;2.398593;1.094416;0.02489202;1.341461;0.1104119;0;0;0;-0.2097692;2.398593;1.094416;0.02489202;1.341461;0.1104119;0;0;0
681931.1302;NotLabelled;NONE;16384;-0.5498615;-0.5775623;-0.6033601;-0.005540166;-20;-31;-30;2751;-2813;830;65536;0.7798461;0.3601108;-0.2465374;-0.4487534;7;20;-41;4674;-1295;-803;8192;0.7035329;-0.5567867;-0.4085872;0.16759;36;-14;-2;2494;1909;1225;32768;0.4265928;-0.8451183;0.2562327;-0.1952908;-50;-31;108;2403;3009;558;256;0.2783934;-0.3365651;-0.5387812;-0.7203721;24;-1;-8;117;3752;-1197;128;-0.1218837;0.3033241;0.5941828;0.7349052;-5;7;2;-1047;3693;574;4;-0.5969529;0.1038781;-0.466759;-0.6441992;0;2;-1;2455;3038;604;16;0.7188286;-0.6939058;0.0166205;-0.03878116;0;-9;2;443;4144;-100;2;0.5650969;-0.641014;-0.4155124;-0.3116343;1;0;5;721;4024;-99;8;0.3767313;-0.8552517;0.2049861;0.2908587;1;3;0;457;3043;2547;0.1008646;2.440565;1.102375;0.1068504;2.986029;1.109781;0.1121122;3.465518;1.114267;0.08570039;4.173862;1.304042;-0.1849214;4.488909;1.35155;-0.5203342;4.324513;1.376281;-1.188066;4.908294;1.108581;-0.3145106;5.241858;1.261657;0.3350609;4.508301;1.35155;0.6294358;4.36739;1.376282;1.126782;3.746941;1.920308;0.4076474;3.133035;1.859054;-0.2113888;2.398593;1.094103;0.02472868;1.341461;0.1104482;0;0;0;-0.2113888;2.398593;1.094103;0.02472868;1.341461;0.1104482;0;0;0
681951.8782;NotLabelled;NONE;16384;-0.5415512;-0.5886427;-0.6000252;-0.01385042;-6;-31;-29;3127;-3037;726;65536;0.7735851;0.3601108;-0.2534626;-0.4556787;10;15;-24;5044;-1395;-329;8192;0.6972222;-0.566482;-0.4072022;0.1648199;31;-26;-11;2434;2469;1329;32768;0.4099723;-0.8425357;0.2756233;-0.2146814;-38;0;85;933;3115;1220;256;0.2783934;-0.3365651;-0.5373961;-0.7214059;8;-4;-2;71;3908;-599;128;-0.1204986;0.3033241;0.5941828;0.7351336;-15;-1;0;-943;3913;194;4;-0.5969529;0.1038781;-0.466759;-0.6441992;0;0;0;2497;2948;636;16;0.7188686;-0.6939058;0.01800554;-0.03739612;1;-10;1;343;4092;-166;2;0.5637119;-0.6422324;-0.4155124;-0.3116343;3;-2;3;893;3970;21;8;0.3767313;-0.8552517;0.2049861;0.2908587;1;-5;0;629;2957;2455;0.1007543;2.443699;1.101381;0.10674;2.989156;1.109234;0.1120018;3.468643;1.114113;0.08526444;4.175603;1.308933;-0.1855959;4.489992;1.359349;-0.5207551;4.325036;1.383782;-1.194514;4.908002;1.129759;-0.3183506;5.230406;1.291595;0.3343621;4.509989;1.358154;0.6289613;4.369252;1.38114;1.118217;3.742677;1.925482;0.3796652;3.154358;1.846683;-0.2114989;2.401735;1.093072;0.02648409;1.341166;0.1135736;0;0;0;-0.2114989;2.401735;1.093072;0.02648409;1.341166;0.1135736;0;0;0
681972.7155;NotLabelled;NONE;16384;-0.5373961;-0.5914127;-0.6009261;-0.01800554;-1;-25;-26;3131;-2931;880;65536;0.7710317;0.3601108;-0.2562327;-0.4584487;4;11;-15;4904;-1629;-107;8192;0.6957708;-0.5706371;-0.4044321;0.1634349;26;-22;-13;2658;2347;1655;32768;0.4016621;-0.8420859;0.2825485;-0.2229917;-38;-14;69;1495;2995;1496;256;0.2783934;-0.3379501;-0.5373961;-0.7207581;2;3;2;103;4090;-1011;128;-0.1204986;0.3033241;0.5955678;0.7340119;0;3;-1;-975;4027;630;4;-0.5969529;0.1038781;-0.466759;-0.6441992;1;-2;3;2495;2932;676;16;0.7188326;-0.6939058;0.01939058;-0.03739612;0;-9;0;477;4132;-202;2;0.5637119;-0.6422324;-0.4155124;-0.3116343;3;-3;0;979;3936;89;8;0.3753462;-0.8555275;0.2063712;0.2908587;0;-7;0;519;2979;2577;0.0984244;2.444583;1.098959;0.10441;2.990035;1.107256;0.1096717;3.469516;1.112526;0.08143938;4.175987;1.308905;-0.1900051;4.489853;1.359442;-0.5249684;4.324338;1.382756;-1.207604;4.899308;1.134267;-0.3295664;5.208357;1.311288;0.3299236;4.510633;1.359442;0.6246828;4.370286;1.382756;1.091564;3.738195;1.940213;0.3214291;3.195739;1.838133;-0.2138289;2.402627;1.090613;0.02638752;1.341256;0.1125298;0;0;0;-0.2138289;2.402627;1.090613;0.02638752;1.341256;0.1125298;0;0;0
681992.7133;NotLabelled;NONE;16384;-0.536011;-0.5941828;-0.5993391;-0.02077562;0;-18;-23;3365;-2861;888;65536;0.7697443;0.3601108;-0.2576177;-0.4598338;0;13;-7;4706;-1485;-365;8192;0.6946201;-0.5734072;-0.4030471;0.1620499;17;-17;-18;2780;2487;1661;32768;0.3961219;-0.8408719;0.2894737;-0.2285319;-37;-26;54;1559;2893;1346;256;0.2783934;-0.3393352;-0.5387812;-0.7190713;1;8;4;121;4004;-943;128;-0.1204986;0.3047091;0.5955678;0.7334381;-4;1;-2;-943;3927;882;4;-0.5969529;0.1038781;-0.4653739;-0.6452005;-1;-3;3;2565;3002;712;16;0.7188646;-0.6939058;0.02077562;-0.03601108;0;-7;0;257;4100;-200;2;0.5637119;-0.6422324;-0.4155124;-0.3116343;2;0;0;917;4008;-71;8;0.3753462;-0.8551922;0.2077562;0.2908587;3;-5;0;645;2947;2841;0.09753123;2.444405;1.100303;0.1035172;2.989882;1.106733;0.108779;3.469378;1.110363;0.08185381;4.175904;1.306727;-0.1890093;4.490273;1.357258;-0.5242782;4.325378;1.380575;-1.213256;4.893929;1.134831;-0.3348505;5.197498;1.319349;0.3309571;4.510092;1.357258;0.6254562;4.3692;1.380576;1.084216;3.731192;1.938035;0.3010526;3.209613;1.826689;-0.2147223;2.40242;1.092113;0.02787587;1.34105;0.1146167;0;0;0;-0.2147223;2.40242;1.092113;0.02787587;1.34105;0.1146167;0;0;0
682012.8204;NotLabelled;NONE;16384;-0.533241;-0.5955678;-0.6003321;-0.0235457;2;-4;-20;3465;-2901;946;65536;0.7682649;0.3614958;-0.2576177;-0.4612188;0;0;-3;4702;-1411;-949;8192;0.6939294;-0.5761772;-0.400277;0.1620499;11;-19;-24;2604;2411;1615;32768;0.3905817;-0.8393112;0.299169;-0.2313019;-37;-39;40;1791;2369;1640;256;0.2811634;-0.33241;-0.5554016;-0.7085053;-120;-66;21;-579;6856;-1845;128;-0.1204986;0.3047091;0.5941828;0.7345605;-3;-3;-1;-929;4085;866;4;-0.5969529;0.1038781;-0.4653739;-0.6452005;0;-3;3;2651;2956;680;16;0.7188646;-0.6939058;0.02077562;-0.03601108;0;4;1;409;4078;-102;2;0.5623268;-0.6425489;-0.4168975;-0.3116343;2;-2;2;807;3968;-111;8;0.3753462;-0.8543821;0.2091413;0.2922437;3;-10;-1;551;3041;2615;0.09034619;2.443155;1.099929;0.09633207;2.988631;1.106411;0.1015939;3.468127;1.110086;0.07702869;4.17535;1.304237;-0.1927789;4.490786;1.353753;-0.5286043;4.327096;1.377545;-1.218954;4.893859;1.131525;-0.3406329;5.194671;1.320895;0.3272511;4.508852;1.353753;0.6212713;4.367043;1.377546;1.073333;3.7251;1.935958;0.2810944;3.219236;1.816591;-0.2219074;2.40117;1.091735;0.02776803;1.341047;0.1146673;0;0;0;-0.2219074;2.40117;1.091735;0.02776803;1.341047;0.1146673;0;0;0
682032.9499;NotLabelled;NONE;16384;-0.5318559;-0.5955678;-0.6014447;-0.02631579;7;-2;-15;3291;-2885;800;65536;0.7682649;0.3614958;-0.2576177;-0.4612188;7;-4;1;4458;-1343;-1275;8192;0.6958011;-0.5775623;-0.3961219;0.1592798;7;-22;-32;2652;2771;1415;32768;0.3864266;-0.8387373;0.3060942;-0.2313019;-35;-41;19;1225;2259;2054;256;0.2853186;-0.3310249;-0.5623268;-0.7020003;-1;18;5;-161;5246;-1067;128;-0.1218837;0.3060942;0.5941828;0.7337558;14;-11;0;-821;4345;1080;4;-0.5969529;0.1024931;-0.4653739;-0.645422;0;-2;2;2839;3044;556;16;0.7188326;-0.6939058;0.01939058;-0.03739612;0;4;2;413;4140;-2;2;0.5623268;-0.6425489;-0.4168975;-0.3116343;4;-6;0;703;4000;-79;8;0.3753462;-0.8540418;0.2105263;0.2922437;1;-12;0;431;3115;2433;0.09882149;2.443127;1.101772;0.1048071;2.988577;1.110121;0.1100688;3.468059;1.115436;0.08921397;4.182731;1.280577;-0.1788905;4.501407;1.316817;-0.5156509;4.340679;1.346784;-1.212608;4.902641;1.108505;-0.3334379;5.203785;1.293356;0.3412318;4.516588;1.316817;0.6344286;4.374245;1.346784;1.087194;3.728519;1.900244;0.2845851;3.238407;1.784491;-0.2134318;2.40117;1.093422;0.02865675;1.341047;0.114448;0;0;0;-0.2134318;2.40117;1.093422;0.02865675;1.341047;0.114448;0;0;0
682053.718;NotLabelled;NONE;16384;-0.5318559;-0.5955678;-0.6011767;-0.03185596;20;-15;-7;3341;-2583;790;65536;0.7678478;0.365651;-0.2603878;-0.4570637;27;-10;7;4204;-1553;-1157;8192;0.6949335;-0.5858725;-0.3864266;0.1565097;15;-25;-29;2870;3009;805;32768;0.3795014;-0.8398139;0.3157895;-0.2257618;-32;-28;-7;1799;2185;2360;256;0.2825485;-0.33241;-0.5581717;-0.7057721;43;-8;0;-179;4900;1335;128;-0.1218837;0.3060942;0.5969529;0.7315039;13;1;0;-603;4213;1852;4;-0.5983379;0.1024931;-0.4653739;-0.6441382;0;4;1;2955;3042;498;16;0.7187205;-0.6939058;0.02077562;-0.03878116;0;4;4;225;4036;-88;2;0.5623268;-0.6434454;-0.4155124;-0.3116343;2;-6;-2;829;4144;-37;8;0.3739612;-0.8538318;0.2119114;0.2936288;0;-13;0;565;3121;2565;0.09554365;2.441017;1.103487;0.1015294;2.986473;1.111443;0.1067911;3.465958;1.116413;0.08646631;4.18391;1.266729;-0.1813799;4.503499;1.296211;-0.5182986;4.343715;1.329292;-1.217975;4.901015;1.088046;-0.3394908;5.202157;1.276129;0.3387556;4.518226;1.296211;0.6318099;4.37628;1.329292;1.081036;3.723204;1.87698;0.2725268;3.243156;1.760123;-0.2167097;2.399054;1.095169;0.0280591;1.341049;0.1145712;0;0;0;-0.2167097;2.399054;1.095169;0.0280591;1.341049;0.1145712;0;0;0
682073.7282;NotLabelled;NONE;16384;-0.533241;-0.5955678;-0.5997134;-0.03601108;25;-21;-6;3311;-2553;1030;65536;0.7670305;0.3698061;-0.2617728;-0.4542936;23;-11;8;3926;-1765;-781;8192;0.6944765;-0.5900277;-0.3808864;0.1565097;14;-31;-22;3270;2831;635;32768;0.3767313;-0.8416439;0.3171745;-0.2216066;-23;-8;-12;2025;2523;2104;256;0.2770083;-0.3365651;-0.5498615;-0.7124905;56;5;3;-53;3806;-1741;128;-0.1218837;0.3074792;0.5955678;0.7320518;-25;-7;-4;-883;3853;888;4;-0.5983379;0.1038781;-0.4639889;-0.644915;0;5;0;2727;2906;602;16;0.7186832;-0.6939058;0.01939058;-0.0401662;1;6;4;373;4108;-188;2;0.5623268;-0.6434454;-0.4155124;-0.3116343;2;0;-3;1063;4186;-79;8;0.3739612;-0.8534868;0.2132964;0.2936288;1;-4;1;519;3139;2737;0.1021409;2.439313;1.109353;0.108127;2.984811;1.113573;0.113389;3.464319;1.11526;0.09351617;4.180308;1.274719;-0.1741419;4.499643;1.308367;-0.5111374;4.339637;1.339531;-1.214419;4.890777;1.094647;-0.339416;5.19731;1.290104;0.3460017;4.514083;1.308367;0.6389886;4.371565;1.339531;1.077297;3.703344;1.877714;0.2602802;3.234463;1.775625;-0.2101132;2.397295;1.101346;0.03162661;1.340623;0.1185622;0;0;0;-0.2101132;2.397295;1.101346;0.03162661;1.340623;0.1185622;0;0;0
682093.7219;NotLabelled;NONE;16384;-0.534626;-0.5955678;-0.5982146;-0.0401662;23;-12;-3;3461;-2557;1340;65536;0.7668516;0.3725762;-0.2631579;-0.4515235;18;-10;9;4104;-1723;-937;8192;0.6924446;-0.5941828;-0.3781163;0.1565097;19;-24;-17;3760;2575;785;32768;0.3753462;-0.8429864;0.3171745;-0.2188366;-16;7;-5;3319;2725;1962;256;0.2742382;-0.3393352;-0.5443213;-0.716491;10;10;3;145;3648;-1653;128;-0.1218837;0.3088643;0.5927978;0.7337152;-14;-6;-3;-935;3827;1106;4;-0.599723;0.1038781;-0.4639889;-0.6436272;-1;7;0;2691;2916;648;16;0.7199792;-0.6925207;0.02077562;-0.0401662;1;-1;4;291;4076;-270;2;0.5623268;-0.6418753;-0.4168975;-0.3130194;-2;10;-3;949;4116;21;8;0.3739612;-0.8538318;0.2119114;0.2936288;2;4;2;549;3019;2671;0.09722507;2.440157;1.107371;0.103211;2.985636;1.113513;0.1084729;3.465135;1.116889;0.09095603;4.176926;1.294403;-0.1756733;4.496145;1.336298;-0.513152;4.33646;1.363645;-1.216866;4.884598;1.113323;-0.3453064;5.196778;1.315127;0.3445132;4.50895;1.336298;0.6370688;4.364772;1.363644;1.070593;3.689869;1.897346;0.2516615;3.222185;1.805627;-0.2150286;2.398167;1.099205;0.03153955;1.340626;0.1185573;0;0;0;-0.2150286;2.398167;1.099205;0.03153955;1.340626;0.1185573;0;0;0
682135.7188;NotLabelled;NONE;16384;-0.5373961;-0.5914127;-0.5995598;-0.04432133;14;6;1;3301;-2527;1252;65536;0.7662398;0.3781163;-0.2617728;-0.4487534;11;-1;10;3612;-1675;-1191;8192;0.6894809;-0.599723;-0.3753462;0.1551246;12;-5;-9;3512;2869;1009;32768;0.3725762;-0.8436927;0.3185596;-0.2188366;-9;-2;10;3587;2255;2494;256;0.2700831;-0.3393352;-0.5429363;-0.7191154;19;15;0;-57;3870;-841;128;-0.1218837;0.3102493;0.5927978;0.7331307;11;6;1;-873;3941;1406;4;-0.601108;0.1038781;-0.4639889;-0.6423339;0;1;0;2535;2870;514;16;0.7199006;-0.6925207;0.02077562;-0.04155125;3;3;4;355;4032;-260;2;0.5623268;-0.6396133;-0.4182825;-0.3157895;-1;8;-4;573;3984;-29;8;0.3739612;-0.8534868;0.2132964;0.2936288;0;0;2;435;3185;2499;0.09531328;2.438359;1.114427;0.1012986;2.983783;1.124352;0.10656;3.463246;1.131052;0.08985096;4.172186;1.319703;-0.17643;4.490986;1.366696;-0.5140649;4.331243;1.391668;-1.217841;4.876402;1.135097;-0.3491469;5.192672;1.3428;0.3437695;4.50325;1.366695;0.6361848;4.358359;1.391668;1.062596;3.679421;1.925984;0.2432911;3.211329;1.839868;-0.2169397;2.396426;1.105946;0.02910382;1.340212;0.123738;0;0;0;-0.2169397;2.396426;1.105946;0.02910382;1.340212;0.123738;0;0;0
682156.8535;NotLabelled;NONE;16384;-0.5415512;-0.5900277;-0.5970767;-0.04570637;10;-8;7;3159;-2489;1048;65536;0.7657952;0.3822715;-0.2617728;-0.4459834;11;-5;4;3400;-1637;-919;8192;0.6864653;-0.6038781;-0.3753462;0.1523546;17;2;-11;2826;2891;917;32768;0.367036;-0.8434539;0.3227147;-0.2229917;-17;-8;18;3087;867;2506;256;0.2686981;-0.3393352;-0.5443213;-0.718587;-2;17;0;103;3900;-737;128;-0.1218837;0.3102493;0.5941828;0.7320086;-3;11;1;-755;3969;1358;4;-0.601108;0.1038781;-0.4639889;-0.6423339;0;-2;2;2617;2900;620;16;0.7211081;-0.6911357;0.02216066;-0.04293629;2;-2;5;329;4056;-180;2;0.5623268;-0.6389277;-0.4182825;-0.3171745;0;3;-8;465;3984;17;8;0.3739612;-0.8534868;0.2132964;0.2936288;0;-1;2;737;3273;2665;0.1046629;2.436798;1.119446;0.1106483;2.982221;1.129424;0.1159098;3.461684;1.136172;0.1017807;4.169188;1.330338;-0.163344;4.48857;1.37986;-0.5015478;4.329851;1.403649;-1.207363;4.869208;1.140501;-0.3423045;5.195651;1.347639;0.3568961;4.498962;1.37986;0.6487919;4.35283;1.40365;1.067823;3.668133;1.936452;0.2452173;3.20454;1.857776;-0.20759;2.394867;1.11096;0.03141917;1.339988;0.125585;0;0;0;-0.20759;2.394867;1.11096;0.03141917;1.339988;0.125585;0;0;0
682178.7206;NotLabelled;NONE;16384;-0.5429363;-0.5914127;-0.5943346;-0.04709141;9;-8;8;3249;-2443;1090;65536;0.7652126;0.3850415;-0.2617728;-0.4445983;10;-6;1;3566;-1673;-687;8192;0.686155;-0.6052631;-0.3753462;0.1481994;23;3;-19;2330;2901;483;32768;0.3614958;-0.8449469;0.3240997;-0.2243767;-19;5;20;2567;1125;2412;256;0.267313;-0.3365651;-0.5457063;-0.7193555;0;22;0;-125;4180;-1193;128;-0.1204986;0.3088643;0.5927978;0.733944;-4;12;3;-719;4127;1174;4;-0.601108;0.1038781;-0.4639889;-0.6423339;0;-6;1;2637;2960;632;16;0.7210642;-0.6911357;0.0235457;-0.04293629;3;-7;3;531;4082;-182;2;0.5637119;-0.6370153;-0.4182825;-0.3185596;1;0;-7;529;4202;15;8;0.3739612;-0.8534868;0.2132964;0.2936288;0;-2;2;629;3191;2751;0.1060729;2.436152;1.126844;0.1120585;2.981606;1.134959;0.1173203;3.461089;1.140069;0.1054618;4.168943;1.333109;-0.1586356;4.489254;1.382115;-0.4973488;4.331662;1.406146;-1.199193;4.872853;1.136228;-0.3376036;5.206382;1.346516;0.3616353;4.497972;1.382115;0.6530589;4.35094;1.406146;1.062945;3.662257;1.940921;0.2330422;3.211951;1.86171;-0.2061804;2.394192;1.118514;0.03099096;1.339313;0.1326946;0;0;0;-0.2061804;2.394192;1.118514;0.03099096;1.339313;0.1326946;0;0;0
682198.7218;NotLabelled;NONE;16384;-0.5443213;-0.5914127;-0.5930664;-0.04709141;11;-4;8;3353;-2595;1096;65536;0.7648427;0.3864266;-0.2631579;-0.4432133;7;-7;0;3668;-1743;-711;8192;0.6841152;-0.6094183;-0.3739612;0.1440443;31;-2;-15;2374;2651;177;32768;0.3573407;-0.8450683;0.3254848;-0.2285319;-19;20;24;3183;801;2120;256;0.2645429;-0.33518;-0.5457063;-0.7210242;4;11;0;-143;3844;-1093;128;-0.1204986;0.3088643;0.5914127;0.7350605;-8;6;0;-577;3701;1298;4;-0.599723;0.1038781;-0.4639889;-0.6436272;-2;-8;-2;2825;3002;672;16;0.7224237;-0.6897507;0.02493075;-0.04155125;4;-12;3;497;4066;-36;2;0.5637119;-0.6379226;-0.4168975;-0.3185596;1;-1;-5;559;4198;23;8;0.3739612;-0.8539621;0.2132964;0.2922437;2;4;2;531;3159;2703;0.1154289;2.435875;1.130371;0.1214142;2.981291;1.140743;0.1266756;3.460748;1.147837;0.1144554;4.168902;1.339752;-0.1498046;4.489158;1.388242;-0.488439;4.331434;1.412514;-1.189962;4.874242;1.145018;-0.3294461;5.212051;1.352854;0.3704618;4.498139;1.388242;0.6619592;4.351292;1.412515;1.069912;3.658129;1.942965;0.2342125;3.217093;1.873104;-0.196824;2.393949;1.121853;0.03370948;1.339071;0.1344602;0;0;0;-0.196824;2.393949;1.121853;0.03370948;1.339071;0.1344602;0;0;0
682218.8742;NotLabelled;NONE;16384;-0.5457063;-0.5900277;-0.5930615;-0.04847645;14;1;10;3275;-2539;1168;65536;0.763663;0.3878116;-0.2645429;-0.4432133;3;-10;-3;3750;-1631;-817;8192;0.6820159;-0.6135734;-0.3725762;0.1398892;40;2;-18;2374;2589;399;32768;0.3504155;-0.8468326;0.3254848;-0.232687;-23;13;25;3197;819;2266;256;0.2645429;-0.33518;-0.5470914;-0.7199739;-49;-4;9;-171;3160;-1005;128;-0.1191136;0.3088643;0.5900277;0.7363981;-19;2;-2;-705;3715;1116;4;-0.5983379;0.1024931;-0.4639889;-0.6451365;-2;-8;-3;2935;3016;624;16;0.7223745;-0.6897507;0.02631579;-0.04155125;4;-17;2;597;4174;-144;2;0.5637119;-0.638133;-0.4155124;-0.3199446;2;-2;0;653;4136;63;8;0.3739612;-0.853615;0.2146814;0.2922437;4;-6;0;639;3049;2623;0.1172265;2.436949;1.133179;0.1232113;2.982326;1.145411;0.1284724;3.461757;1.154141;0.1174057;4.169342;1.348214;-0.1463377;4.489867;1.397717;-0.4852194;4.33261;1.421558;-1.188111;4.87614;1.159171;-0.3276788;5.215211;1.365287;0.3739423;4.498021;1.39767;0.6652088;4.350636;1.421454;1.069461;3.652813;1.948614;0.2284866;3.221498;1.881402;-0.1950261;2.395053;1.124506;0.03074696;1.33884;0.1374407;0;0;0;-0.1950261;2.395053;1.124506;0.03074696;1.33884;0.1374407;0;0;0
682239.7192;NotLabelled;NONE;16384;-0.5484765;-0.5886427;-0.5918813;-0.04847645;13;1;12;3153;-2553;1102;65536;0.7639844;0.3878116;-0.265928;-0.4418283;1;-12;-6;3388;-1511;-1081;8192;0.6781119;-0.6191136;-0.3725762;0.134349;42;7;-29;2278;2673;629;32768;0.3448753;-0.847272;0.3282548;-0.2354571;-33;-4;19;2791;627;2078;256;0.267313;-0.33518;-0.5512465;-0.7157691;-2;5;3;283;4274;-1429;128;-0.1191136;0.3102493;0.5872576;0.7380283;-24;-8;0;-799;4073;1212;4;-0.5983379;0.1024931;-0.4653739;-0.6441382;-4;-7;-3;2893;2998;592;16;0.7223467;-0.6897507;0.02908587;-0.0401662;4;-15;2;371;4054;-232;2;0.5637119;-0.638133;-0.4155124;-0.3199446;4;-5;0;521;3970;9;8;0.3739612;-0.8532655;0.2160665;0.2922437;4;-4;0;609;3159;2637;0.1184904;2.435869;1.136049;0.1244745;2.98119;1.150584;0.1297352;3.460581;1.161338;0.1196926;4.168787;1.353184;-0.1435813;4.489858;1.401643;-0.482699;4.333179;1.42593;-1.18336;4.876208;1.156634;-0.3239497;5.215258;1.367006;0.3767104;4.497239;1.401643;0.6677543;4.349498;1.42593;1.058012;3.643533;1.952796;0.2106677;3.224701;1.886646;-0.1937619;2.394011;1.127185;0.03258935;1.338594;0.1394;0;0;0;-0.1937619;2.394011;1.127185;0.03258935;1.338594;0.1394;0;0;0
682259.8582;NotLabelled;NONE;16384;-0.5526316;-0.5893869;-0.5872576;-0.04847645;12;-2;11;2869;-2477;908;65536;0.7640284;0.3864266;-0.2700831;-0.4404432;6;-19;-14;3370;-1223;-1077;8192;0.6771579;-0.6232687;-0.3698061;0.1274238;44;7;-48;1838;2917;771;32768;0.3407202;-0.8482586;0.3310249;-0.234072;-28;-19;4;1329;565;1296;256;0.265928;-0.33518;-0.5498615;-0.7173486;20;15;-1;115;4508;-571;128;-0.1204986;0.3116343;0.5872576;0.7372195;6;-2;2;-715;4011;1654;4;-0.5969529;0.101108;-0.4653739;-0.6456404;-5;-5;-3;2697;2872;550;16;0.7236853;-0.6883656;0.03047091;-0.03878116;4;-8;3;319;4054;-202;2;0.5637119;-0.6390328;-0.4141274;-0.3199446;5;-8;0;595;4096;-45;8;0.3753462;-0.8521811;0.2160665;0.2936288;5;-6;0;649;3145;2641;0.1211107;2.436809;1.137291;0.1270937;2.982017;1.155588;0.1323535;3.461321;1.169649;0.1230505;4.171879;1.352633;-0.1398879;4.493804;1.397074;-0.4791691;4.337795;1.423313;-1.174598;4.88063;1.140405;-0.3163139;5.219448;1.355687;0.380411;4.500642;1.396988;0.6713006;4.352913;1.423122;1.04254;3.644056;1.95976;0.189773;3.236773;1.891226;-0.1911408;2.395012;1.128114;0.03417896;1.338341;0.141436;0;0;0;-0.1911408;2.395012;1.128114;0.03417896;1.338341;0.141436;0;0;0
682301.749;NotLabelled;NONE;16384;-0.5581717;-0.5895447;-0.5817174;-0.04986149;15;-17;11;2779;-2611;1066;65536;0.763933;0.3822715;-0.2783934;-0.4390582;0;-7;-36;2254;-1243;-751;8192;0.6694753;-0.6468144;-0.3518005;0.09833795;66;-16;-80;1876;3211;425;32768;0.3407202;-0.8510605;0.33241;-0.2216066;-10;9;-35;3161;971;376;256;0.2631579;-0.3240997;-0.566482;-0.7104966;-117;16;6;-357;3136;-2345;128;-0.1177285;0.3130194;0.5789474;0.7436255;-34;0;-1;-751;3585;1368;4;-0.5941828;0.09972299;-0.468144;-0.646408;-3;-8;-2;2769;3000;490;16;0.7249511;-0.6869806;0.033241;-0.03739612;5;-14;4;421;4144;-296;2;0.5637119;-0.6406188;-0.4127424;-0.3185596;5;-10;2;879;4096;15;8;0.3753462;-0.8519503;0.2188366;0.2922437;5;-3;1;535;3003;2509;0.1188662;2.435777;1.141513;0.1248493;2.980998;1.159418;0.1301091;3.460312;1.173134;0.1209393;4.170009;1.359439;-0.141935;4.491779;1.405358;-0.4812523;4.335722;1.430832;-1.171541;4.886189;1.15009;-0.3121254;5.220264;1.368254;0.3783655;4.498506;1.405358;0.6692208;4.350593;1.430831;1.031342;3.62814;1.95543;0.1749667;3.227258;1.894581;-0.1933853;2.393974;1.132368;0.03067734;1.338091;0.1445601;0;0;0;-0.1933853;2.393974;1.132368;0.03067734;1.338091;0.1445601;0;0;0
682343.7261;NotLabelled;NONE;16384;-0.5609418;-0.5921098;-0.5761772;-0.05263158;12;-16;9;2747;-2521;996;65536;0.7618018;0.3739612;-0.2908587;-0.4418283;0;-16;-59;2842;-1161;-1655;8192;0.6606648;-0.6680568;-0.333795;0.07617728;80;-10;-87;2346;2879;-61;32768;0.3504155;-0.8480176;0.3310249;-0.2202216;46;-31;0;4595;1803;1090;256;0.2576177;-0.3185596;-0.5706371;-0.7117066;46;33;-1;-27;3976;265;128;-0.1135734;0.3144044;0.5734072;0.7479674;-20;14;-2;-1077;3587;1864;4;-0.5927978;0.09972299;-0.4695291;-0.6466751;-4;-3;0;2547;2984;478;16;0.7261291;-0.6855956;0.03739612;-0.03601108;4;-8;5;287;4104;-308;2;0.5623268;-0.6427234;-0.4113573;-0.3185596;5;-2;0;599;3974;-91;8;0.3767313;-0.8506219;0.2216066;0.2922437;6;-4;1;515;3057;2729;0.1504423;2.4381;1.149997;0.1564197;2.982794;1.1799;0.161675;3.46169;1.204164;0.1568419;4.177546;1.365378;-0.1040519;4.502347;1.399827;-0.4443324;4.349375;1.430622;-1.133195;4.905062;1.156743;-0.2660875;5.226846;1.362599;0.4162801;4.505863;1.399827;0.7062107;4.357149;1.430622;1.016901;3.589531;1.923074;0.1628976;3.179602;1.902448;-0.161807;2.396509;1.13986;0.03226792;1.337569;0.1489814;0;0;0;-0.161807;2.396509;1.13986;0.03226792;1.337569;0.1489814;0;0;0
682364.9368;NotLabelled;NONE;16384;-0.5623268;-0.5945669;-0.5720221;-0.05540166;10;-27;8;2869;-2635;816;65536;0.7584478;0.3698061;-0.300554;-0.4445983;9;-8;-73;2422;-837;-1777;8192;0.6565097;-0.67708;-0.3268698;0.06094183;74;22;-87;2312;3529;465;32768;0.3573407;-0.8433049;0.333795;-0.2229917;41;-21;10;3569;2283;1168;256;0.2520775;-0.3144044;-0.5734072;-0.7133099;2;57;0;439;4040;347;128;-0.1108033;0.3144044;0.5720221;0.7494419;-16;22;-2;-983;3831;1560;4;-0.5914127;0.09833795;-0.4695291;-0.6481536;-4;-7;1;2513;2850;544;16;0.7273619;-0.6842105;0.03878116;-0.03601108;3;-6;6;509;4060;-406;2;0.5609418;-0.6439326;-0.4113573;-0.3185596;7;-9;1;347;4136;-51;8;0.3767313;-0.8497825;0.2229917;0.2936288;6;-11;0;621;3185;2679;0.1735211;2.439707;1.158121;0.1794923;2.983853;1.196723;0.1847427;3.462301;1.228636;0.1824988;4.178773;1.387147;-0.077218;4.504644;1.420363;-0.4180502;4.353023;1.451726;-1.107077;4.91196;1.184968;-0.2298064;5.208303;1.385898;0.4431232;4.506277;1.420363;0.7325135;4.356631;1.451726;0.9935316;3.55542;1.918851;0.1468068;3.130424;1.903909;-0.1387264;2.398283;1.147265;0.03525099;1.336761;0.1554186;0;0;0;-0.1387264;2.398283;1.147265;0.03525099;1.336761;0.1554186;0;0;0
682385.726;NotLabelled;NONE;16384;-0.566482;-0.6004646;-0.5609418;-0.06232687;17;-55;9;2855;-2791;710;65536;0.7479327;0.3628809;-0.3240997;-0.4515235;24;-5;-91;3492;-719;-1307;8192;0.6537396;-0.687063;-0.3157895;0.02908587;58;26;-99;1700;3893;803;32768;0.3711911;-0.8345125;0.3379501;-0.2271468;45;-31;7;3005;2931;1258;256;0.2465374;-0.3116343;-0.5747922;-0.7153442;14;25;3;-47;4126;-1267;128;-0.1052632;0.3130194;0.5706371;0.7518722;-33;20;-2;-1037;3783;956;4;-0.5900277;0.09556787;-0.4709141;-0.6488251;-5;-13;3;2743;2808;780;16;0.7285767;-0.6828254;0.04155125;-0.03462604;2;-3;5;333;3986;-382;2;0.5609418;-0.6448153;-0.4099723;-0.3185596;7;-13;3;437;4214;-127;8;0.3767313;-0.8494179;0.2243767;0.2936288;7;-11;0;549;3275;2697;0.1882546;2.438312;1.166265;0.1942238;2.982261;1.207565;0.1994722;3.460544;1.241851;0.2001498;4.177131;1.399855;-0.05823612;4.504081;1.432839;-0.3996836;4.353873;1.464309;-1.090355;4.914364;1.205171;-0.2068001;5.192663;1.40436;0.4621073;4.503592;1.432839;0.750885;4.352791;1.464309;0.987794;3.53495;1.915179;0.1436471;3.104923;1.898428;-0.1239921;2.396943;1.155187;0.03579578;1.33619;0.1601346;0;0;0;-0.1239921;2.396943;1.155187;0.03579578;1.33619;0.1601346;0;0;0
682407.9287;NotLabelled;NONE;16384;-0.567867;-0.6049684;-0.5540166;-0.06786703;19;-59;10;3097;-2719;746;65536;0.742107;0.3587258;-0.3379501;-0.4542936;32;-6;-96;3712;-621;-1277;8192;0.6523545;-0.691986;-0.3088643;0.01385042;54;19;-91;1858;3987;537;32768;0.3808864;-0.8289992;0.3407202;-0.2271468;54;-29;0;2745;3259;1502;256;0.2437673;-0.3130194;-0.5706371;-0.7190061;44;-9;6;239;3932;-377;128;-0.101108;0.3130194;0.566482;0.7555754;-35;22;-4;-985;3747;1766;4;-0.5886427;0.09279778;-0.4709141;-0.6504831;-7;-19;2;2885;2884;782;16;0.7285095;-0.6828254;0.04155125;-0.03601108;2;5;5;457;4050;-398;2;0.5609418;-0.6463754;-0.4085872;-0.3171745;6;-13;5;595;4274;-219;8;0.3781163;-0.8484349;0.2257618;0.2936288;10;-12;-1;731;3351;2715;0.2066077;2.436019;1.175685;0.2125739;2.979693;1.220459;0.2178199;3.457747;1.257801;0.2217881;4.173942;1.417526;-0.03509474;4.501993;1.451305;-0.3772269;4.353278;1.482424;-1.067528;4.916822;1.228987;-0.1768954;5.153848;1.448964;0.4852412;4.499118;1.451287;0.7733247;4.346918;1.482385;0.9729894;3.502121;1.900389;0.1352798;3.06056;1.867917;-0.1056383;2.394721;1.164321;0.03645445;1.335597;0.1648596;0;0;0;-0.1056383;2.394721;1.164321;0.03645445;1.335597;0.1648596;0;0;0
682428.8157;NotLabelled;NONE;16384;-0.5706371;-0.6078408;-0.5470914;-0.07479224;25;-59;14;2993;-2817;706;65536;0.7344091;0.3559557;-0.3518005;-0.4584487;33;0;-97;3972;-555;-849;8192;0.6509695;-0.6958687;-0.3033241;0;54;14;-80;2192;3813;451;32768;0.3891967;-0.8241742;0.3421052;-0.2285319;51;-35;2;2675;4031;2442;256;0.2382271;-0.3157895;-0.5650969;-0.7240099;36;10;0;393;3702;-631;128;-0.0900277;0.3116343;0.5623268;0.7606363;-24;29;-11;-1053;3827;1090;4;-0.5872576;0.0900277;-0.4722992;-0.6511198;-5;-19;0;3033;2750;764;16;0.7284397;-0.6828254;0.04155125;-0.03739612;2;5;3;453;4032;-322;2;0.5609418;-0.6479257;-0.4072022;-0.3157895;6;-10;7;761;4182;-363;8;0.3781163;-0.847693;0.2285319;0.2936288;10;-14;-1;733;3195;2753;0.2107644;2.432723;1.181382;0.216724;2.975803;1.232859;0.2219647;3.453361;1.276092;0.2267504;4.167489;1.444798;-0.02975279;4.495391;1.482666;-0.3720624;4.346697;1.511881;-1.057003;4.913303;1.250839;-0.1648473;5.126853;1.488012;0.4905795;4.491907;1.482666;0.7784813;4.338992;1.51188;0.9497337;3.477731;1.908337;0.1180477;3.026009;1.863258;-0.1014801;2.391569;1.169468;0.03841243;1.335319;0.1666605;0;0;0;-0.1014801;2.391569;1.169468;0.03841243;1.335319;0.1666605;0;0;0
682449.3808;NotLabelled;NONE;16384;-0.5734072;-0.6119361;-0.5387812;-0.08033241;28;-62;13;2987;-2751;736;65536;0.727003;0.3518005;-0.365651;-0.4626039;31;-7;-96;4292;-487;-1085;8192;0.6495845;-0.6994584;-0.2977839;-0.01108033;42;13;-77;2290;4115;849;32768;0.3961219;-0.8193209;0.3448753;-0.2299169;40;-38;2;2977;3397;2192;256;0.234072;-0.3130194;-0.5650969;-0.7265636;-9;42;-1;93;3554;-1081;128;-0.08587258;0.3102493;0.5637119;0.7606578;-20;21;-6;-1251;3487;1764;4;-0.5872576;0.08864266;-0.4722992;-0.6513098;-4;-11;-2;3201;2740;788;16;0.7297356;-0.6814404;0.04155125;-0.03739612;1;0;2;667;4068;-396;2;0.5581717;-0.6518486;-0.4058172;-0.3144044;5;-10;11;667;3998;-279;8;0.3795014;-0.8449752;0.232687;0.2963989;10;-16;-4;845;3185;2535;0.2210595;2.430625;1.186632;0.2270095;2.972824;1.246697;0.2322419;3.449637;1.297484;0.2407318;4.160491;1.479352;-0.0140577;4.48898;1.523235;-0.3571489;4.341569;1.54965;-1.040476;4.903876;1.275412;-0.1479924;5.093644;1.530869;0.5062491;4.482767;1.523243;0.7933383;4.32783;1.549668;0.9458687;3.461431;1.942558;0.1193013;3.001706;1.885768;-0.09118277;2.389666;1.174014;0.04058687;1.335035;0.1684051;0;0;0;-0.09118277;2.389666;1.174014;0.04058687;1.335035;0.1684051;0;0;0
682469.7229;NotLabelled;NONE;16384;-0.5775623;-0.6131371;-0.5318559;-0.08725762;29;-64;14;3023;-2771;902;65536;0.7209963;0.3476454;-0.3795014;-0.4639889;28;-18;-94;4238;-319;-583;8192;0.6495845;-0.7015287;-0.2922437;-0.02216066;22;25;-73;2446;4357;1139;32768;0.400277;-0.8135301;0.3545706;-0.2285319;4;-77;11;3155;3859;4448;256;0.2285319;-0.3088643;-0.567867;-0.7279444;9;34;2;539;4458;-1907;128;-0.08171745;0.3102493;0.5595568;0.7641752;-35;20;-4;-881;3797;1360;4;-0.5872576;0.08725762;-0.4722992;-0.6514968;-2;-6;-1;3455;2506;906;16;0.7297408;-0.6814404;0.0401662;-0.03878116;0;16;4;153;4008;-568;2;0.5567867;-0.6536971;-0.4058172;-0.3130194;0;-7;10;1041;4098;-551;8;0.3808864;-0.8430957;0.2354571;0.2977839;10;-11;-5;673;3167;2487;0.2307598;2.428185;1.193354;0.2367107;2.970462;1.252699;0.2419437;3.447343;1.302853;0.2516283;4.157439;1.487605;-0.002607226;4.486176;1.532813;-0.3459483;4.33924;1.558618;-1.026423;4.908943;1.292679;-0.131656;5.073079;1.557726;0.5176884;4.479084;1.532813;0.8045141;4.323555;1.558618;0.9417655;3.442062;1.922496;0.1183417;2.977267;1.861455;-0.08148283;2.387209;1.180795;0.0386603;1.334697;0.1715167;0;0;0;-0.08148283;2.387209;1.180795;0.0386603;1.334697;0.1715167;0;0;0
682489.726;NotLabelled;NONE;16384;-0.5831025;-0.6189912;-0.5166205;-0.09972299;29;-56;12;2977;-2517;782;65536;0.7121094;0.3379501;-0.4058172;-0.4626039;31;-40;-70;5182;181;-945;8192;0.6551247;-0.6984209;-0.2853186;-0.0401662;-17;16;-49;2358;4573;1279;32768;0.4030471;-0.8073842;0.367036;-0.2257618;1;-41;3;2665;3347;3338;256;0.2229917;-0.3074792;-0.5650969;-0.7323911;47;17;4;-173;4378;-1245;128;-0.07756232;0.3088643;0.5581717;0.7661796;-19;18;-3;-573;3713;1088;4;-0.5886427;0.08587258;-0.4709141;-0.6514335;2;1;1;3337;2576;680;16;0.7295725;-0.6814404;0.03739612;-0.04432133;-4;17;0;657;3984;-428;2;0.5567867;-0.6534975;-0.4072022;-0.3116343;1;-4;11;593;3890;-507;8;0.3808864;-0.8430957;0.2354571;0.2977839;8;-4;-6;803;3129;2245;0.248738;2.425908;1.19737;0.2546806;2.967428;1.26327;0.2599067;3.443667;1.319188;0.2727283;4.153928;1.50311;0.01995009;4.483842;1.547915;-0.3240409;4.33846;1.573867;-1.007729;4.905096;1.309624;-0.1107268;5.046412;1.580204;0.5402092;4.474442;1.54796;0.8263407;4.317674;1.573968;0.9589943;3.431715;1.928589;0.1345584;2.968153;1.871993;-0.06350285;2.385087;1.184274;0.04078168;1.334696;0.1710303;0;0;0;-0.06350285;2.385087;1.184274;0.04078168;1.334696;0.1710303;0;0;0
682510.7328;NotLabelled;NONE;16384;-0.5858725;-0.6211954;-0.5096953;-0.1052632;31;-54;9;2845;-2625;846;65536;0.707904;0.33518;-0.4168975;-0.4612188;30;-28;-64;3886;143;-845;8192;0.6578947;-0.6960368;-0.2839335;-0.04570637;-12;14;-25;2420;4519;907;32768;0.4058172;-0.8057503;0.368421;-0.2243767;10;-4;-3;2243;3221;2426;256;0.2202216;-0.3088643;-0.5595568;-0.7368864;45;0;6;-225;5004;-965;128;-0.07617728;0.3074792;0.5567867;0.7678816;-23;12;0;-613;4051;1506;4;-0.5900277;0.08587258;-0.4695291;-0.6511802;4;3;0;3055;3192;644;16;0.7282606;-0.6828254;0.03601108;-0.04570637;-6;13;0;735;4144;-318;2;0.5554016;-0.6553326;-0.4072022;-0.3102493;0;-4;10;945;3886;-501;8;0.3822715;-0.8415892;0.2368421;0.299169;5;-6;-5;957;3111;1989;0.261485;2.420501;1.20663;0.2674237;2.961668;1.275362;0.2726466;3.437609;1.33377;0.2874319;4.145634;1.52598;0.03557295;4.47571;1.574605;-0.3088286;4.331002;1.598814;-0.9827604;4.904071;1.323612;-0.08782578;5.004375;1.618278;0.5558037;4.46485;1.574605;0.8414899;4.306987;1.598815;0.962454;3.403548;1.91097;0.1356087;2.943878;1.857878;-0.05075502;2.379749;1.193304;0.04537206;1.334118;0.174346;0;0;0;-0.05075502;2.379749;1.193304;0.04537206;1.334118;0.174346;0;0;0
682552.8146;NotLabelled;NONE;16384;-0.5927978;-0.6213807;-0.4986149;-0.1177285;35;-35;-1;2753;-2411;952;65536;0.7005819;0.3296399;-0.4362881;-0.4584487;26;-28;-52;3668;117;-1083;8192;0.6592798;-0.695197;-0.2825485;-0.04709141;-3;-6;-1;1798;4243;493;32768;0.4085872;-0.8048355;0.365651;-0.2271468;9;1;13;4239;2463;588;256;0.2105263;-0.2977839;-0.5637119;-0.7411021;-20;13;0;33;4630;-467;128;-0.06786703;0.3033241;0.5470914;0.7772256;-25;17;0;-897;3997;1692;4;-0.5914127;0.08864266;-0.468144;-0.6505495;5;16;-1;2857;2850;770;16;0.7268183;-0.6842105;0.033241;-0.04986149;-5;10;0;627;4032;70;2;0.5526316;-0.6542075;-0.4127424;-0.3102493;-4;20;1;1081;3866;-251;8;0.3850415;-0.8408172;0.2368421;0.2977839;4;16;0;901;2909;2327;0.2630695;2.418149;1.20575;0.2690052;2.959048;1.27656;0.2742254;3.434761;1.336797;0.2891021;4.13972;1.539956;0.03729975;4.469061;1.593606;-0.3071413;4.324071;1.61546;-0.9770216;4.898762;1.333823;-0.08548611;4.984035;1.643161;0.5575279;4.458085;1.593607;0.8431722;4.299802;1.615461;0.9646777;3.392699;1.916587;0.1397998;2.929674;1.862072;-0.04917002;2.377449;1.192254;0.04883999;1.334458;0.1707724;0;0;0;-0.04917002;2.377449;1.192254;0.04883999;1.334458;0.1707724;0;0;0
