SEP=;
index;label;segment;RightUpperArm_boneIndex;RightUpperArm_quat9x_w;RightUpperArm_quat9x_x;RightUpperArm_quat9x_y;RightUpperArm_quat9x_z;RightUpperArm_gyroscope_x;RightUpperArm_gyroscope_y;RightUpperArm_gyroscope_z;RightUpperArm_accelerometer_x;RightUpperArm_accelerometer_y;RightUpperArm_accelerometer_z;RightLowerArm_boneIndex;RightLowerArm_quat9x_w;RightLowerArm_quat9x_x;RightLowerArm_quat9x_y;RightLowerArm_quat9x_z;RightLowerArm_gyroscope_x;RightLowerArm_gyroscope_y;RightLowerArm_gyroscope_z;RightLowerArm_accelerometer_x;RightLowerArm_accelerometer_y;RightLowerArm_accelerometer_z;LeftUpperArm_boneIndex;LeftUpperArm_quat9x_w;LeftUpperArm_quat9x_x;LeftUpperArm_quat9x_y;LeftUpperArm_quat9x_z;LeftUpperArm_gyroscope_x;LeftUpperArm_gyroscope_y;LeftUpperArm_gyroscope_z;LeftUpperArm_accelerometer_x;LeftUpperArm_accelerometer_y;LeftUpperArm_accelerometer_z;LeftLowerArm_boneIndex;LeftLowerArm_quat9x_w;LeftLowerArm_quat9x_x;LeftLowerArm_quat9x_y;LeftLowerArm_quat9x_z;LeftLowerArm_gyroscope_x;LeftLowerArm_gyroscope_y;LeftLowerArm_gyroscope_z;LeftLowerArm_accelerometer_x;LeftLowerArm_accelerometer_y;LeftLowerArm_accelerometer_z;Chest_boneIndex;Chest_quat9x_w;Chest_quat9x_x;Chest_quat9x_y;Chest_quat9x_z;Chest_gyroscope_x;Chest_gyroscope_y;Chest_gyroscope_z;Chest_accelerometer_x;Chest_accelerometer_y;Chest_accelerometer_z;Spine_boneIndex;Spine_quat9x_w;Spine_quat9x_x;Spine_quat9x_y;Spine_quat9x_z;Spine_gyroscope_x;Spine_gyroscope_y;Spine_gyroscope_z;Spine_accelerometer_x;Spine_accelerometer_y;Spine_accelerometer_z;RightUpperLeg_boneIndex;RightUpperLeg_quat9x_w;RightUpperLeg_quat9x_x;RightUpperLeg_quat9x_y;RightUpperLeg_quat9x_z;RightUpperLeg_gyroscope_x;RightUpperLeg_gyroscope_y;RightUpperLeg_gyroscope_z;RightUpperLeg_accelerometer_x;RightUpperLeg_accelerometer_y;RightUpperLeg_accelerometer_z;RightLowerLeg_boneIndex;RightLowerLeg_quat9x_w;RightLowerLeg_quat9x_x;RightLowerLeg_quat9x_y;RightLowerLeg_quat9x_z;RightLowerLeg_gyroscope_x;RightLowerLeg_gyroscope_y;RightLowerLeg_gyroscope_z;RightLowerLeg_accelerometer_x;RightLowerLeg_accelerometer_y;RightLowerLeg_accelerometer_z;LeftUpperLeg_boneIndex;LeftUpperLeg_quat9x_w;LeftUpperLeg_quat9x_x;LeftUpperLeg_quat9x_y;LeftUpperLeg_quat9x_z;LeftUpperLeg_gyroscope_x;LeftUpperLeg_gyroscope_y;LeftUpperLeg_gyroscope_z;LeftUpperLeg_accelerometer_x;LeftUpperLeg_accelerometer_y;LeftUpperLeg_accelerometer_z;LeftLowerLeg_boneIndex;LeftLowerLeg_quat9x_w;LeftLowerLeg_quat9x_x;LeftLowerLeg_quat9x_y;LeftLowerLeg_quat9x_z;LeftLowerLeg_gyroscope_x;LeftLowerLeg_gyroscope_y;LeftLowerLeg_gyroscope_z;LeftLowerLeg_accelerometer_x;LeftLowerLeg_accelerometer_y;LeftLowerLeg_accelerometer_z;pelvis_x;pelvis_y;pelvis_z;lowerSpine_x;lowerSpine_y;lowerSpine_z;middleSpine_x;middleSpine_y;middleSpine_z;upperSpine_x;upperSpine_y;upperSpine_z;rightClavicle_x;rightClavicle_y;rightClavicle_z;rightShoulder_x;rightShoulder_y;rightShoulder_z;rightElbow_x;rightElbow_y;rightElbow_z;rightWrist_x;rightWrist_y;rightWrist_z;leftClavicle_x;leftClavicle_y;leftClavicle_z;leftShoulder_x;leftShoulder_y;leftShoulder_z;leftElbow_x;leftElbow_y;leftElbow_z;leftWrist_x;leftWrist_y;leftWrist_z;rightHip_x;rightHip_y;rightHip_z;rightKnee_x;rightKnee_y;rightKnee_z;rightAnkle_x;rightAnkle_y;rightAnkle_z;leftHip_x;leftHip_y;leftHip_z;leftKnee_x;leftKnee_y;leftKnee_z;leftAnkle_x;leftAnkle_y;leftAnkle_z;
893206.4863;NotLabelled;NONE;16384;0.6430994;0.5387812;0.5207756;0.1578947;-16;-32;-14;2819;-2049;1585;65536;0.6949901;0.333795;-0.4930748;-0.4030471;10;37;5;3417;-104;-1968;8192;0.6274238;-0.6902206;-0.3421052;-0.1135734;-5;5;0;1250;3809;147;32768;0.4113573;-0.7968384;0.368421;-0.2451524;8;0;0;3201;1805;1540;256;0.1412742;-0.2271468;-0.6440443;-0.7166958;6;-4;-7;299;3806;-493;128;-0.1135734;0.3240997;0.6094183;0.7146116;-8;0;3;-941;3889;836;4;-0.5900277;0.16759;-0.4916897;-0.6180794;1;0;-7;2401;3238;708;16;0.7771589;-0.6218836;0.03047091;-0.09141274;4;4;1;633;3934;-862;2;0.5650969;-0.6248304;-0.4127424;-0.3462604;0;2;4;639;4016;-87;8;0.3933518;-0.847874;0.2063712;0.2894737;2;0;0;487;3201;2399;0.4763994;2.513413;1.236212;0.4823846;3.058809;1.224849;0.4876449;3.538169;1.212839;0.5553044;4.262757;1.306956;0.3282564;4.613728;1.310966;-0.0252527;4.498933;1.355603;-0.7500767;4.99057;1.053523;0.1697338;5.051269;1.272752;0.8463469;4.565354;1.310966;1.120333;4.391968;1.355603;1.248799;3.481884;1.644598;0.4214593;3.033386;1.754807;0.1641432;2.471185;1.229507;0.03377219;1.293725;0.370757;0;0;0;0.1641432;2.471185;1.229507;0.03377219;1.293725;0.370757;0;0;0
893226.4817;NotLabelled;NONE;16384;0.6400316;0.5429363;0.5193906;0.1606648;-16;-30;-17;2907;-2109;1543;65536;0.6933278;0.3379501;-0.4903047;-0.4058172;11;39;7;3521;-74;-1868;8192;0.6288089;-0.688959;-0.3421052;-0.1135734;-5;9;0;1268;3793;101;32768;0.4127424;-0.7961218;0.368421;-0.2451524;5;-2;-1;3195;1801;1680;256;0.1426593;-0.2257618;-0.6440443;-0.716859;6;-4;-6;331;3988;-471;128;-0.1135734;0.3240997;0.6080332;0.7157905;-5;3;2;-993;3859;988;4;-0.5900277;0.1703601;-0.4916897;-0.6173216;1;8;-5;2319;3256;688;16;0.7782652;-0.6204986;0.03047091;-0.09141274;2;-1;1;779;3910;-932;2;0.5650969;-0.6246799;-0.4141274;-0.3448753;0;5;3;529;4118;-5;8;0.3933518;-0.847874;0.2063712;0.2894737;2;3;0;569;3235;2413;0.4710573;2.514662;1.235249;0.4770428;3.060094;1.225799;0.4823036;3.539493;1.21547;0.547838;4.264009;1.31162;0.3197722;4.614308;1.316547;-0.03341377;4.498365;1.360773;-0.7611374;4.987672;1.061898;0.1574523;5.050686;1.285549;0.8380008;4.567436;1.316546;1.112478;4.394722;1.360772;1.243597;3.485672;1.651825;0.4165912;3.035638;1.758211;0.1588013;2.472457;1.228383;0.03241101;1.29377;0.3707232;0;0;0;0.1588013;2.472457;1.228383;0.03241101;1.29377;0.3707232;0;0;0
893247.7142;NotLabelled;NONE;16384;0.6369671;0.5457063;0.5193906;0.1634349;-17;-28;-20;2955;-2087;1531;65536;0.6916144;0.3421052;-0.4875346;-0.4085872;9;40;10;3507;-274;-1772;8192;0.6288089;-0.6880395;-0.3434903;-0.1149584;-6;7;0;1212;3741;89;32768;0.4127424;-0.7961218;0.368421;-0.2451524;3;-3;-1;3223;1857;1696;256;0.1440443;-0.2243767;-0.6412742;-0.7194955;6;7;-8;329;3988;-265;128;-0.1121884;0.3227147;0.6080332;0.7166342;-7;5;4;-965;3985;794;4;-0.5914127;0.1717452;-0.4916897;-0.6156101;1;6;-3;2359;3334;734;16;0.7782097;-0.6204986;0.03185596;-0.09141274;1;0;1;825;3988;-884;2;0.5637119;-0.6251649;-0.4141274;-0.3462604;0;6;2;575;4116;-87;8;0.3947368;-0.8472301;0.2063712;0.2894737;2;1;0;523;3239;2379;0.4659947;2.517281;1.234536;0.4719805;3.062743;1.226996;0.4772417;3.542175;1.218345;0.5399816;4.267017;1.313899;0.3105747;4.616444;1.31849;-0.04217303;4.499186;1.362746;-0.7722402;4.987071;1.067281;0.1460924;5.054035;1.29084;0.828979;4.571558;1.318626;1.104107;4.399933;1.363049;1.237939;3.491572;1.655015;0.4114982;3.040007;1.759288;0.153739;2.4751;1.227511;0.02986602;1.29272;0.3745793;0;0;0;0.153739;2.4751;1.227511;0.02986602;1.29272;0.3745793;0;0;0
893268.4935;NotLabelled;NONE;16384;0.6315228;0.5498615;0.5207756;0.166205;-19;-28;-22;2985;-2091;1577;65536;0.6891525;0.3476454;-0.4847645;-0.4113573;7;42;12;3723;-314;-1654;8192;0.6301939;-0.6867712;-0.3434903;-0.1149584;-5;3;-3;1128;3773;227;32768;0.4127424;-0.7961218;0.368421;-0.2451524;0;-4;0;3093;1873;1670;256;0.1426593;-0.2229917;-0.6412742;-0.7202017;12;14;-9;391;3964;-333;128;-0.1121884;0.3213296;0.6066482;0.7184281;-5;7;5;-921;3925;940;4;-0.5914127;0.1717452;-0.4916897;-0.6156101;1;7;-1;2385;3290;680;16;0.7782097;-0.6204986;0.03185596;-0.09141274;0;-3;0;801;3920;-1020;2;0.5637119;-0.6233211;-0.4168975;-0.3462604;-2;6;0;619;3960;-61;8;0.3947368;-0.8472301;0.2063712;0.2894737;1;0;0;547;3129;2493;0.4700294;2.517467;1.234776;0.4760152;3.062934;1.227601;0.4812765;3.542372;1.219271;0.5397921;4.266948;1.31942;0.3083634;4.615004;1.326153;-0.04370987;4.495426;1.369568;-0.7772795;4.981867;1.080466;0.1408165;5.052752;1.303787;0.827019;4.573121;1.326152;1.103126;4.402816;1.369568;1.237371;3.493325;1.657803;0.4109652;3.04176;1.762354;0.1577737;2.475291;1.22772;0.03260466;1.292287;0.375845;0;0;0;0.1577737;2.475291;1.22772;0.03260466;1.292287;0.375845;0;0;0
893289.4865;NotLabelled;NONE;16384;0.6251603;0.5554016;0.5207756;0.1717452;-19;-25;-23;3219;-2143;1419;65536;0.6846015;0.3559557;-0.4792244;-0.4182825;3;37;13;3677;-476;-1566;8192;0.6301939;-0.6865379;-0.3434903;-0.1163435;-4;0;-3;1134;3727;277;32768;0.4127424;-0.7954794;0.3698061;-0.2451524;0;-7;-1;3123;2015;1496;256;0.1426593;-0.2202216;-0.6412742;-0.7210535;5;17;-10;373;4002;-373;128;-0.1108033;0.3213296;0.6066482;0.7186431;-11;7;3;-973;3871;822;4;-0.5927978;0.1731302;-0.4903047;-0.6149943;1;9;-1;2293;3228;790;16;0.7782097;-0.6204986;0.03185596;-0.09141274;0;2;0;685;3952;-1032;2;0.5637119;-0.6233211;-0.4168975;-0.3462604;-3;8;0;429;4078;-47;8;0.3947368;-0.8472301;0.2063712;0.2894737;1;3;0;539;3245;2515;0.4749652;2.517443;1.234285;0.4809513;3.062932;1.228956;0.4862128;3.542395;1.222248;0.5447329;4.266889;1.322982;0.313309;4.614943;1.329979;-0.03876901;4.495337;1.373275;-0.7795623;4.978047;1.096608;0.1385351;5.054172;1.318192;0.831964;4.573052;1.329978;1.108066;4.402708;1.373275;1.246256;3.492906;1.658652;0.420278;3.041342;1.766525;0.1627097;2.475291;1.227075;0.03411587;1.292287;0.3757105;0;0;0;0.1627097;2.475291;1.227075;0.03411587;1.292287;0.3757105;0;0;0
893310.6203;NotLabelled;NONE;16384;0.619507;0.5595568;0.5221606;0.1745152;-20;-23;-23;3337;-2023;1317;65536;0.6836257;0.3601108;-0.4750692;-0.4210526;2;37;12;3707;-612;-1536;8192;0.6315789;-0.6854976;-0.3434903;-0.1149584;-5;0;0;1388;3849;139;32768;0.4141274;-0.7956085;0.3698061;-0.2423823;1;-7;-3;3151;1939;1486;256;0.1398892;-0.2174515;-0.6398892;-0.7236627;12;23;-10;401;4064;-629;128;-0.1108033;0.3199446;0.6066482;0.7192608;-7;8;4;-973;3853;868;4;-0.5927978;0.1731302;-0.4903047;-0.6149943;0;7;0;2247;3240;664;16;0.7793121;-0.6191136;0.03185596;-0.09141274;0;4;0;721;3942;-956;2;0.5637119;-0.6216199;-0.4182825;-0.3476454;-2;6;1;393;4122;-31;8;0.3947368;-0.8472301;0.2063712;0.2894737;1;0;0;593;3329;2475;0.4767916;2.517157;1.23453;0.4827778;3.062649;1.229622;0.4880393;3.542118;1.223286;0.5438008;4.266833;1.32399;0.3110533;4.614003;1.330973;-0.04056638;4.493059;1.374276;-0.7893014;4.970367;1.109886;0.1290853;5.052307;1.328172;0.829864;4.574088;1.330973;1.106613;4.404799;1.374275;1.244762;3.494361;1.657637;0.4185848;3.043941;1.768728;0.1645364;2.475011;1.227285;0.03575878;1.292286;0.3755582;0;0;0;0.1645364;2.475011;1.227285;0.03575878;1.292286;0.3755582;0;0;0
893351.6256;NotLabelled;NONE;16384;0.6150271;0.5623268;0.5235457;0.1772853;-20;-21;-20;3401;-2057;1301;65536;0.6816291;0.3642659;-0.4722992;-0.4238227;0;35;12;3867;-660;-1364;8192;0.632964;-0.6842189;-0.3434903;-0.1149584;-7;1;-1;1312;3793;133;32768;0.4155124;-0.7942402;0.3711911;-0.2423823;2;-10;-3;3259;1889;1514;256;0.1398892;-0.2146814;-0.6398892;-0.7244893;5;10;-10;201;3920;-535;128;-0.1094183;0.3185596;0.6052631;0.7212517;-8;10;5;-1023;3861;1028;4;-0.5941828;0.1745152;-0.4903047;-0.6132638;0;5;0;2133;3350;814;16;0.7780458;-0.6204986;0.03185596;-0.09279778;-2;2;0;901;3858;-802;2;0.5637119;-0.6216199;-0.4182825;-0.3476454;0;3;2;403;4014;-95;8;0.3961219;-0.8465834;0.2063712;0.2894737;2;0;0;487;3245;2423;0.4839875;2.516093;1.23708;0.4899738;3.061584;1.232112;0.4952353;3.541053;1.225722;0.5503095;4.265289;1.330182;0.3172491;4.612211;1.338863;-0.03427947;4.490732;1.381403;-0.7909302;4.963876;1.132519;0.1291398;5.051341;1.34137;0.8360952;4.572758;1.338863;1.112978;4.403495;1.381402;1.257305;3.493395;1.662763;0.4345729;3.038846;1.782279;0.1717323;2.473946;1.22984;0.03622419;1.291222;0.3791582;0;0;0;0.1717323;2.473946;1.22984;0.03622419;1.291222;0.3791582;0;0;0
893372.4808;NotLabelled;NONE;16384;0.6079102;0.567867;0.5249307;0.1800554;-21;-18;-18;3437;-2107;1279;65536;0.6791847;0.3711911;-0.4653739;-0.4293629;-2;33;11;3699;-538;-1510;8192;0.6371191;-0.681049;-0.3421052;-0.1149584;-11;0;-3;1328;3879;131;32768;0.4168975;-0.7930545;0.3739612;-0.2396122;2;-13;-4;3139;1945;1520;256;0.1371191;-0.2105263;-0.6371191;-0.7286674;13;7;-8;421;4094;-611;128;-0.1066482;0.3144044;0.602493;0.7257949;-12;11;7;-969;3907;982;4;-0.5941828;0.1745152;-0.4903047;-0.6132638;0;2;1;2253;3336;788;16;0.7780458;-0.6204986;0.03185596;-0.09279778;-2;0;0;789;3974;-836;2;0.5623268;-0.6228731;-0.4182825;-0.3476454;0;0;2;541;4024;95;8;0.3961219;-0.8457695;0.2077562;0.2908587;1;0;0;441;3185;2395;0.4948725;2.517362;1.232689;0.5008588;3.06287;1.229981;0.5061207;3.54236;1.225578;0.5584521;4.266803;1.330009;0.3240798;4.612841;1.338677;-0.02698606;4.490033;1.381222;-0.7897589;4.958558;1.142494;0.1307271;5.04976;1.347885;0.8430715;4.575355;1.338676;1.120593;4.407141;1.381222;1.268853;3.496758;1.659603;0.4464738;3.041833;1.780113;0.1826176;2.475245;1.22526;0.04237048;1.291894;0.3762204;0;0;0;0.1826176;2.475245;1.22526;0.04237048;1.291894;0.3762204;0;0;0
893413.6381;NotLabelled;NONE;16384;0.5988925;0.5747922;0.5263157;0.1842105;-24;-20;-17;3451;-2045;1173;65536;0.6773618;0.3767313;-0.4570637;-0.4362881;-2;42;11;3669;-604;-1416;8192;0.6371191;-0.681049;-0.3421052;-0.1149584;-11;1;-1;1372;3853;115;32768;0.4182825;-0.7927424;0.3739612;-0.2382271;0;-7;-3;3335;1933;1350;256;0.1371191;-0.2077562;-0.6357341;-0.7306695;10;19;-9;271;3924;-723;128;-0.1052632;0.3130194;0.602493;0.7265953;-9;10;6;-927;3953;1002;4;-0.5955678;0.1745152;-0.4903047;-0.6119189;-1;0;1;2157;3416;860;16;0.7781013;-0.6204986;0.03047091;-0.09279778;-2;0;-1;899;3970;-824;2;0.5623268;-0.6219407;-0.4196676;-0.3476454;-1;3;1;567;4072;-109;8;0.3961219;-0.845428;0.2091413;0.2908587;0;-5;0;709;3233;2373;0.5070848;2.5173;1.231178;0.5130711;3.062811;1.232909;0.518333;3.542321;1.232409;0.5679744;4.266017;1.343146;0.3323431;4.611115;1.354665;-0.01830024;4.486673;1.395924;-0.7897823;4.950881;1.177625;0.1325489;5.049985;1.370707;0.8514673;4.575511;1.354664;1.129572;4.407941;1.395924;1.287052;3.49624;1.664765;0.4671025;3.039476;1.79452;0.1948304;2.475245;1.223378;0.04612102;1.291894;0.3757796;0;0;0;0.1948304;2.475245;1.223378;0.04612102;1.291894;0.3757796;0;0;0
893434.4749;NotLabelled;NONE;16384;0.5905006;0.5817174;0.5277008;0.1855956;-26;-21;-15;3463;-1943;1001;65536;0.6736174;0.3836565;-0.4487534;-0.4445983;-3;41;10;3411;-846;-1196;8192;0.6398892;-0.6772768;-0.3448753;-0.1135734;-6;2;0;1326;3925;241;32768;0.4182825;-0.7918454;0.3767313;-0.2368421;2;-3;-2;2979;1903;1700;256;0.1357341;-0.2049861;-0.634349;-0.7329109;12;9;-9;337;4078;-1041;128;-0.1038781;0.3102493;0.601108;0.7291254;-7;11;5;-911;3835;1230;4;-0.5955678;0.1745152;-0.4903047;-0.6119189;0;-1;2;2209;3218;730;16;0.7771034;-0.6218836;0.03185596;-0.09141274;-2;-8;-2;831;3932;-786;2;0.5609418;-0.6222553;-0.4210526;-0.3476454;0;0;2;573;4014;-57;8;0.3961219;-0.8446062;0.2105263;0.2922437;2;-4;0;611;3203;2493;0.5067691;2.515734;1.232874;0.5127554;3.061244;1.234952;0.5180175;3.540755;1.234756;0.5637727;4.264208;1.348707;0.3264796;4.608153;1.360588;-0.02375937;4.481907;1.399749;-0.8043991;4.937008;1.195264;0.1186791;5.042589;1.381211;0.8457596;4.574968;1.362786;1.124457;4.408527;1.404609;1.284991;3.496461;1.670387;0.4665803;3.036799;1.799622;0.1945148;2.473684;1.225046;0.04346924;1.292095;0.3754057;0;0;0;0.1945148;2.473684;1.225046;0.04346924;1.292095;0.3754057;0;0;0
893475.6057;NotLabelled;NONE;16384;-0.5844875;-0.5873197;-0.5277008;-0.1869806;-27;-22;-13;3529;-1897;995;65536;0.6712395;0.3878116;-0.4459834;-0.4473684;-3;36;9;3991;-496;-1206;8192;0.6412742;-0.6759656;-0.3448753;-0.1135734;-6;2;4;1380;3875;191;32768;0.4196676;-0.7911122;0.3767313;-0.2368421;3;0;-3;3169;1967;1592;256;0.1357341;-0.2049861;-0.6301939;-0.7364867;37;-9;-14;607;4556;-749;128;-0.101108;0.3088643;0.599723;0.7312403;-12;18;9;-861;4055;800;4;-0.5955678;0.1745152;-0.4903047;-0.6119189;-1;0;3;2359;3306;744;16;0.7774625;-0.6218836;0.03462604;-0.08725762;-3;-14;-3;899;4002;-816;2;0.5609418;-0.6222553;-0.4210526;-0.3476454;0;0;2;591;4094;-81;8;0.3961219;-0.8446062;0.2105263;0.2922437;1;-5;-1;543;3285;2425;0.5224866;2.517484;1.225516;0.5284728;3.062981;1.229769;0.5337347;3.542489;1.231484;0.5780056;4.265642;1.347903;0.3398401;4.6089;1.361993;-0.009899318;4.481567;1.402091;-0.7972207;4.936288;1.224095;0.1279279;5.04796;1.395635;0.8592117;4.577107;1.361992;1.13852;4.411268;1.40209;1.308657;3.500851;1.667552;0.4912956;3.042244;1.806789;0.2102327;2.475465;1.217507;0.05039613;1.293336;0.3702279;0;0;0;0.2102327;2.475465;1.217507;0.05039613;1.293336;0.3702279;0;0;0
893496.5972;NotLabelled;NONE;16384;-0.5803324;-0.590986;-0.5277008;-0.1883656;-25;-22;-13;3573;-2119;911;65536;0.6705289;0.3905817;-0.4418283;-0.4501385;-2;33;8;3851;-680;-1118;8192;0.6412742;-0.6754887;-0.3462604;-0.1121884;-4;4;6;1540;3787;263;32768;0.4196676;-0.7917703;0.3753462;-0.2368421;4;0;-1;3319;2063;1516;256;0.134349;-0.199446;-0.6260388;-0.7417864;0;3;-9;181;4090;-589;128;-0.09833795;0.3033241;0.599723;0.7339322;-4;22;8;-901;4017;1028;4;-0.5955678;0.1731302;-0.4903047;-0.6123121;-3;0;4;2293;3360;798;16;0.776444;-0.6232687;0.03601108;-0.08587258;-3;-14;-3;805;3924;-934;2;0.5609418;-0.6222553;-0.4210526;-0.3476454;1;-1;2;585;4082;-51;8;0.3961219;-0.8437791;0.2119114;0.2936288;2;-7;-1;597;3249;2345;0.5213642;2.517751;1.224828;0.5273499;3.063222;1.231707;0.5326119;3.542715;1.235731;0.5748702;4.264706;1.359855;0.3357762;4.607158;1.377437;-0.01364529;4.47847;1.415952;-0.80455;4.931431;1.249744;0.1198866;5.046653;1.42277;0.8552314;4.576756;1.377437;1.134959;4.411247;1.415952;1.307761;3.500628;1.678988;0.4908191;3.040526;1.815732;0.2091107;2.475772;1.216599;0.04952718;1.293643;0.3692727;0;0;0;0.2091107;2.475772;1.216599;0.04952718;1.293643;0.3692727;0;0;0
893517.7275;NotLabelled;NONE;16384;-0.5720221;-0.5981551;-0.5277008;-0.1911357;-26;-18;-12;3593;-1999;885;65536;0.6679333;0.3947368;-0.434903;-0.4570637;-7;28;8;4299;-690;-662;8192;0.6412742;-0.6747769;-0.3476454;-0.1121884;-4;5;6;1444;3789;351;32768;0.4210526;-0.7910346;0.3753462;-0.2368421;6;1;0;3461;1997;1488;256;0.134349;-0.1980609;-0.6246537;-0.7433236;15;9;-10;149;4190;-1011;128;-0.09695291;0.300554;0.601108;0.7341231;-5;22;8;-953;3921;970;4;-0.5955678;0.1717452;-0.4889196;-0.6138079;-3;0;6;2299;3194;778;16;0.776596;-0.6232687;0.03601108;-0.08448754;-4;-8;-4;567;3980;-980;2;0.5609418;-0.623027;-0.4210526;-0.3462604;0;-3;1;447;4040;-107;8;0.3947368;-0.8432447;0.2146814;0.2950138;1;-7;-1;457;3267;2421;0.538236;2.516892;1.220989;0.5442219;3.062356;1.2284;0.5494837;3.541846;1.232892;0.5858605;4.262705;1.365183;0.3440105;4.603004;1.386461;-0.004388392;4.471087;1.423277;-0.8010326;4.921973;1.280484;0.1251745;5.041396;1.440721;0.8636931;4.576779;1.38648;1.144718;4.413097;1.423321;1.3258;3.503944;1.685852;0.5110234;3.042697;1.831376;0.2259827;2.474921;1.212717;0.05631737;1.294642;0.3647709;0;0;0;0.2259827;2.474921;1.212717;0.05631737;1.294642;0.3647709;0;0;0
893538.6343;NotLabelled;NONE;16384;-0.567867;-0.6021013;-0.5277008;-0.1911357;-25;-16;-12;3673;-2005;797;65536;0.6661244;0.3975069;-0.4307479;-0.4612188;-9;25;9;4377;-722;-648;8192;0.6412742;-0.6740615;-0.3490305;-0.1121884;-3;6;6;1348;3807;371;32768;0.4210526;-0.7906186;0.3753462;-0.2382271;7;2;2;3307;1905;1466;256;0.132964;-0.1980609;-0.6218836;-0.7458909;33;-4;-9;69;4130;-861;128;-0.09418282;0.2977839;0.601108;0.735611;-5;20;5;-925;3817;952;4;-0.5969529;0.1717452;-0.4889196;-0.612461;-1;0;7;2245;3082;640;16;0.7767454;-0.6232687;0.03601108;-0.08310249;-4;3;-1;317;3932;-1066;2;0.5609418;-0.623027;-0.4210526;-0.3462604;1;-3;1;461;4122;-189;8;0.3947368;-0.8432447;0.2146814;0.2950138;1;0;-1;395;3339;2327;0.5357212;2.51455;1.223733;0.5417073;3.060034;1.229512;0.5469692;3.539535;1.232568;0.5813832;4.260022;1.367386;0.3386126;4.599591;1.38982;-0.009433627;4.466608;1.426127;-0.809922;4.91344;1.292381;0.117129;5.036404;1.444872;0.858364;4.574769;1.389819;1.139826;4.411719;1.426126;1.32038;3.502882;1.690114;0.5063612;3.040143;1.835141;0.2234676;2.472555;1.215597;0.05505887;1.295031;0.3635792;0;0;0;0.2234676;2.472555;1.215597;0.05505887;1.295031;0.3635792;0;0;0
893558.5064;NotLabelled;NONE;16384;-0.5637119;-0.6059933;-0.5277008;-0.1911357;-22;-10;-10;3707;-1965;697;65536;0.6651575;0.398892;-0.4279778;-0.4639889;-8;20;12;4233;-818;-632;8192;0.6412742;-0.6726199;-0.3518005;-0.1121884;-3;1;0;1092;3781;395;32768;0.4224377;-0.7894604;0.3753462;-0.2396122;2;-2;1;3171;1801;1482;256;0.134349;-0.1980609;-0.6135734;-0.7524958;31;-6;-7;43;3934;-695;128;-0.09279778;0.2950138;0.601108;0.736902;-3;17;4;-859;3827;910;4;-0.5969529;0.1717452;-0.4875346;-0.613564;4;-2;4;2021;3230;620;16;0.775695;-0.6246537;0.03462604;-0.08310249;-3;13;0;417;4000;-810;2;0.5595568;-0.6242713;-0.4210526;-0.3462604;0;0;0;729;4126;31;8;0.3947368;-0.8424048;0.2160665;0.2963989;0;-9;0;707;3207;2323;0.5380113;2.513696;1.223581;0.5439972;3.059172;1.229989;0.5492589;3.538669;1.233599;0.5838227;4.258075;1.374035;0.3411382;4.597528;1.399023;-0.006958723;4.464363;1.434163;-0.8093711;4.910747;1.310858;0.1180827;5.036062;1.458923;0.8608828;4.57256;1.399022;1.142285;4.409153;1.434163;1.324961;3.500895;1.698684;0.5100784;3.039474;1.843061;0.2257577;2.47171;1.215392;0.05360198;1.295416;0.3624229;0;0;0;0.2257577;2.47171;1.215392;0.05360198;1.295416;0.3624229;0;0;0
893578.5962;NotLabelled;NONE;16384;-0.5609418;-0.6073545;-0.5290859;-0.1911357;-20;-4;-8;3743;-1867;667;65536;0.6660178;0.400277;-0.4238227;-0.4653739;-11;18;12;4137;-876;-520;8192;0.6412742;-0.6733425;-0.3504155;-0.1121884;-4;-1;-2;1078;3759;417;32768;0.4224377;-0.7894604;0.3753462;-0.2396122;0;-6;0;3313;1845;1560;256;0.1357341;-0.1980609;-0.6094183;-0.7556173;23;-4;-4;95;3992;-839;128;-0.09141274;0.2936288;0.602493;0.7364971;-5;16;4;-939;3861;952;4;-0.5969529;0.1717452;-0.4861496;-0.6146621;3;-1;2;2229;3372;892;16;0.7743361;-0.6260388;0.033241;-0.08587258;-1;0;0;871;3958;-538;2;0.5595568;-0.6242713;-0.4210526;-0.3462604;0;0;0;821;4070;-89;8;0.3947368;-0.8420483;0.2174515;0.2963989;1;-4;-1;541;3149;2433;0.5305083;2.514223;1.221093;0.5364941;3.059696;1.227748;0.5417561;3.539191;1.231576;0.571061;4.255852;1.386505;0.3259355;4.592992;1.418088;-0.02122939;4.456668;1.450203;-0.8250238;4.902487;1.334062;0.1023545;5.028994;1.481584;0.845845;4.571735;1.418088;1.12838;4.409664;1.450202;1.313761;3.502578;1.716852;0.4979218;3.040993;1.855177;0.2182547;2.47224;1.212884;0.05245529;1.296856;0.3574067;0;0;0;0.2182547;2.47224;1.212884;0.05245529;1.296856;0.3574067;0;0;0
893599.4966;NotLabelled;NONE;16384;-0.5581717;-0.608697;-0.5304709;-0.1911357;-18;-2;-7;3811;-1983;681;65536;0.6668454;0.4016621;-0.4196676;-0.466759;-12;12;11;4089;-792;-620;8192;0.6426592;-0.6720207;-0.3504155;-0.1121884;-6;-4;-3;1108;3767;449;32768;0.4224377;-0.7888004;0.3767313;-0.2396122;-2;-13;-1;3371;1863;1850;256;0.1357341;-0.1980609;-0.6066482;-0.7578431;16;-5;-3;119;4038;-985;128;-0.0900277;0.2908587;0.602493;0.7377658;-8;14;4;-889;3977;984;4;-0.5969529;0.1717452;-0.4861496;-0.6146621;-2;1;2;2283;3462;934;16;0.7743361;-0.6260388;0.033241;-0.08587258;-1;2;-1;973;4028;-568;2;0.5595568;-0.6242713;-0.4210526;-0.3462604;0;3;1;893;4076;-87;8;0.3947368;-0.8420483;0.2174515;0.2963989;2;-3;0;743;3203;2589;0.5274673;2.513986;1.220504;0.5334533;3.059477;1.225566;0.5387154;3.538981;1.227992;0.5646814;4.254247;1.389807;0.3180026;4.589942;1.42453;-0.02854514;4.451727;1.455198;-0.8340915;4.895362;1.342894;0.09312391;5.026809;1.487084;0.8380042;4.571068;1.42453;1.121267;4.409991;1.455198;1.304456;3.502316;1.721362;0.488349;3.040733;1.858095;0.2152134;2.471979;1.212428;0.05554883;1.29752;0.354517;0;0;0;0.2152134;2.471979;1.212428;0.05554883;1.29752;0.354517;0;0;0
893619.4993;NotLabelled;NONE;16384;-0.5540166;-0.6117104;-0.5318559;-0.1897507;-13;1;-5;3701;-2079;615;65536;0.6675283;0.4030471;-0.4141274;-0.4695291;-13;6;6;3991;-740;-858;8192;0.6440443;-0.6714153;-0.3490305;-0.1121884;-10;-9;-1;1352;3775;261;32768;0.4224377;-0.7885571;0.3781163;-0.2382271;-4;-16;-1;3153;2027;1720;256;0.1371191;-0.1980609;-0.6038781;-0.7598036;4;0;-1;157;4054;-961;128;-0.08725762;0.2894737;0.601108;0.7397704;-8;6;1;-947;3925;944;4;-0.5969529;0.1717452;-0.4861496;-0.6146621;-3;3;3;2255;3374;844;16;0.7743361;-0.6260388;0.033241;-0.08587258;0;-3;0;947;4008;-520;2;0.5595568;-0.6233349;-0.4224377;-0.3462604;-1;6;2;743;4096;71;8;0.3947368;-0.8416894;0.2188366;0.2963989;3;-1;0;485;3165;2493;0.5273269;2.513983;1.220549;0.5333129;3.059471;1.22585;0.5385749;3.538974;1.228487;0.5632838;4.253149;1.395239;0.3160251;4.588177;1.432215;-0.03029394;4.449164;1.461841;-0.8377956;4.890582;1.354972;0.08946764;5.02697;1.494179;0.8360581;4.570189;1.432215;1.119588;4.409387;1.461842;1.305444;3.501537;1.725549;0.4886051;3.041109;1.861811;0.2150732;2.47198;1.212453;0.05550788;1.29752;0.3545233;0;0;0;0.2150732;2.47198;1.212453;0.05550788;1.29752;0.3545233;0;0;0
893640.4803;NotLabelled;NONE;16384;-0.5526316;-0.6117574;-0.533241;-0.1897507;-12;1;-4;3775;-2117;693;65536;0.6682448;0.4016621;-0.4127424;-0.4709141;-14;5;4;4057;-896;-864;8192;0.6454294;-0.6703143;-0.3490305;-0.1108033;-8;-6;-1;1522;3687;369;32768;0.4224377;-0.7876406;0.3808864;-0.2368421;-5;-16;0;3075;1967;1666;256;0.1371191;-0.199446;-0.6038781;-0.7594412;1;-2;-1;261;3816;-945;128;-0.08725762;0.2880886;0.599723;0.7414333;-8;3;0;-959;3903;990;4;-0.5983379;0.1717452;-0.4861496;-0.6133139;-2;5;1;2181;3372;786;16;0.7744278;-0.6260388;0.03462604;-0.08448754;1;-16;-3;939;4042;-638;2;0.5581717;-0.6236364;-0.4238227;-0.3462604;-1;1;0;463;3968;-137;8;0.3947368;-0.8408389;0.2202216;0.2977839;1;-9;-1;533;3245;2313;0.525079;2.513944;1.221158;0.5310647;3.059402;1.229006;0.5363265;3.538887;1.233881;0.5583353;4.252122;1.404981;0.3098198;4.585993;1.443944;-0.03598291;4.445509;1.472652;-0.8449525;4.886211;1.374267;0.08238769;5.027597;1.50786;0.8299161;4.569947;1.443943;1.114039;4.410028;1.472651;1.300461;3.501426;1.733352;0.4837328;3.04083;1.869709;0.2128255;2.471979;1.212849;0.05485058;1.29752;0.3546258;0;0;0;0.2128255;2.471979;1.212849;0.05485058;1.29752;0.3546258;0;0;0
893661.4912;NotLabelled;NONE;16384;-0.5498615;-0.6146746;-0.533241;-0.1883656;-13;1;-1;3911;-1967;729;65536;0.6689722;0.4016621;-0.4099723;-0.4722992;-15;5;1;4107;-994;-852;8192;0.6468144;-0.6694309;-0.3490305;-0.1080332;-4;-4;1;1532;3795;315;32768;0.4224377;-0.7871242;0.3836565;-0.234072;-3;-15;0;3035;2035;1654;256;0.1371191;-0.199446;-0.6038781;-0.7594412;-1;6;0;199;4068;-941;128;-0.08587258;0.2880886;0.599723;0.741595;-6;0;0;-1053;3939;962;4;-0.5983379;0.1717452;-0.4875346;-0.6122134;-4;4;0;2137;3268;770;16;0.7745144;-0.6260388;0.03601108;-0.08310249;1;-11;0;535;3926;-794;2;0.5595568;-0.622394;-0.4238227;-0.3462604;-1;2;-2;383;4068;-131;8;0.3947368;-0.8403471;0.2202216;0.299169;0;-7;-1;481;3419;2269;0.5253042;2.512657;1.223067;0.5312897;3.058086;1.232749;0.5365511;3.537553;1.239238;0.5598246;4.250744;1.410347;0.3119013;4.585054;1.449314;-0.03414994;4.445184;1.47802;-0.8442879;4.883878;1.380277;0.08354682;5.024207;1.51153;0.8319684;4.568087;1.449314;1.115807;4.407663;1.478019;1.305591;3.499558;1.738023;0.4882069;3.039946;1.873768;0.2130512;2.470721;1.214606;0.05466759;1.297484;0.3547877;0;0;0;0.2130512;2.470721;1.214606;0.05466759;1.297484;0.3547877;0;0;0
893681.4896;NotLabelled;NONE;16384;-0.5484765;-0.6151316;-0.534626;-0.1869806;-14;2;0;3849;-1911;749;65536;0.6696701;0.400277;-0.4085872;-0.4736842;-15;4;0;4187;-868;-890;8192;0.6468144;-0.6696529;-0.3490305;-0.1066482;-3;-4;2;1486;3865;221;32768;0.4224377;-0.7868584;0.3850415;-0.232687;-2;-13;-2;3139;1949;1656;256;0.1371191;-0.1980609;-0.6052631;-0.7587007;-4;4;0;117;4058;-1025;128;-0.08587258;0.2894737;0.599723;0.7410555;-1;-5;-3;-1035;4079;996;4;-0.599723;0.1717452;-0.4861496;-0.6119596;1;0;1;2105;3068;596;16;0.774725;-0.6260388;0.03462604;-0.08171745;2;8;0;523;3888;-1014;2;0.5595568;-0.6216214;-0.4238227;-0.3476454;-3;1;-4;197;3986;-87;8;0.3947368;-0.8399829;0.2216066;0.299169;0;-2;0;607;3403;2227;0.530405;2.513533;1.221037;0.5363904;3.058955;1.231069;0.5416518;3.538417;1.237865;0.5649253;4.251609;1.408975;0.3170019;4.58592;1.447942;-0.02904922;4.44605;1.476647;-0.8393874;4.885947;1.386253;0.08880293;5.028227;1.512806;0.8370691;4.568952;1.447941;1.120908;4.408528;1.476646;1.315902;3.501588;1.73686;0.4992552;3.041618;1.875794;0.2181522;2.471602;1.212547;0.05528758;1.297449;0.3548187;0;0;0;0.2181522;2.471602;1.212547;0.05528758;1.297449;0.3548187;0;0;0
893723.5435;NotLabelled;NONE;16384;-0.5457063;-0.6176339;-0.536011;-0.1828255;-11;5;5;3787;-2137;587;65536;0.671708;0.3961219;-0.4044321;-0.4778393;-15;0;-6;4159;-752;-818;8192;0.6454294;-0.6704846;-0.3504155;-0.1052632;0;0;6;1608;3741;261;32768;0.4224377;-0.7861792;0.3864266;-0.232687;1;-3;-2;3417;1977;1376;256;0.134349;-0.1980609;-0.6094183;-0.7558648;-17;10;6;187;4270;-1017;128;-0.08725762;0.2936288;0.5983379;0.7403783;-4;-6;-6;-1035;3869;1116;4;-0.5983379;0.1717452;-0.4861496;-0.6133139;2;-7;0;2327;3216;770;16;0.7757556;-0.6246537;0.033241;-0.08310249;3;3;1;763;3950;-902;2;0.5609418;-0.6214794;-0.4210526;-0.3490305;0;-4;-5;129;4076;-23;8;0.3947368;-0.8394883;0.2216066;0.300554;-3;0;-1;451;3337;2349;0.5263362;2.51218;1.221678;0.5323215;3.057601;1.231773;0.537583;3.537062;1.238623;0.5602177;4.250861;1.407269;0.3119906;4.585075;1.44511;-0.03392828;4.444986;1.474337;-0.8450186;4.88466;1.389783;0.0842033;5.02588;1.509784;0.8320732;4.568587;1.445109;1.116063;4.408525;1.474336;1.312929;3.502242;1.735429;0.4969819;3.042089;1.877826;0.2140833;2.47025;1.213183;0.05137846;1.298243;0.3524942;0;0;0;0.2140833;2.47025;1.213183;0.05137846;1.298243;0.3524942;0;0;0
893743.5014;NotLabelled;NONE;16384;-0.5457063;-0.6192406;-0.534626;-0.1814404;-10;3;7;3835;-2145;531;65536;0.6723689;0.3947368;-0.4030471;-0.4792244;-14;-1;-7;4187;-702;-900;8192;0.6454294;-0.6707006;-0.3504155;-0.1038781;0;2;6;1462;3713;375;32768;0.4238227;-0.7854334;0.3864266;-0.232687;3;-2;0;3285;1965;1286;256;0.132964;-0.1966759;-0.6108033;-0.7553532;-14;12;6;189;3950;-1057;128;-0.08587258;0.2950138;0.5969529;0.7411072;-3;-7;-7;-925;3843;1210;4;-0.5983379;0.1717452;-0.4861496;-0.6133139;3;-4;-1;2481;3304;870;16;0.775606;-0.6246537;0.033241;-0.08448754;3;1;1;785;3860;-774;2;0.5623268;-0.6213189;-0.4182825;-0.3504155;0;-5;-6;457;4062;-97;8;0.3933518;-0.8401382;0.2216066;0.300554;-7;-1;0;565;3205;2283;0.5254808;2.512408;1.223798;0.5314658;3.057794;1.235625;0.536727;3.537232;1.243998;0.5641386;4.252316;1.406374;0.31814;4.588483;1.441354;-0.02868789;4.450948;1.471903;-0.8393832;4.893642;1.400326;0.09231669;5.031665;1.503678;0.8381022;4.568555;1.441353;1.121037;4.40688;1.471903;1.319156;3.502012;1.736924;0.5030212;3.043012;1.881944;0.2132283;2.470505;1.215159;0.04971035;1.297268;0.3563025;0;0;0;0.2132283;2.470505;1.215159;0.04971035;1.297268;0.3563025;0;0;0
893764.5142;NotLabelled;NONE;16384;-0.5457063;-0.6200456;-0.534626;-0.1786704;-7;4;9;3743;-2161;549;65536;0.6730005;0.3919668;-0.4030471;-0.4806094;-11;0;-8;4167;-650;-970;8192;0.6454294;-0.6694595;-0.3531856;-0.1024931;0;3;6;1288;3779;469;32768;0.4252077;-0.785365;0.3850415;-0.232687;5;0;0;3453;2023;1130;256;0.1315789;-0.1966759;-0.6121883;-0.754474;-12;11;6;319;3988;-971;128;-0.08725762;0.2963989;0.5969529;0.7403925;-2;-8;-7;-1001;3939;1220;4;-0.5969529;0.1703601;-0.4861496;-0.6150473;1;-2;0;2569;3330;924;16;0.7767195;-0.6232687;0.033241;-0.08448754;3;5;0;893;3930;-716;2;0.5637119;-0.6209946;-0.4168975;-0.3504155;0;-6;-4;699;4122;-97;8;0.3933518;-0.8396414;0.2216066;0.301939;-5;0;-1;611;3185;2435;0.5324649;2.511996;1.224181;0.5384492;3.057327;1.238317;0.54371;3.536724;1.248721;0.5719166;4.252213;1.409166;0.3262871;4.588742;1.443265;-0.0206871;4.451666;1.474221;-0.8299282;4.897829;1.407915;0.1028016;5.034779;1.503083;0.8462276;4.568248;1.443264;1.12899;4.406348;1.474221;1.32949;3.502148;1.739733;0.5143628;3.041685;1.885774;0.2202125;2.47013;1.215349;0.05321185;1.296892;0.3571633;0;0;0;0.2202125;2.47013;1.215349;0.05321185;1.296892;0.3571633;0;0;0
893785.4835;NotLabelled;NONE;16384;-0.5457063;-0.620443;-0.534626;-0.1772853;-5;5;11;3663;-2141;471;65536;0.6719836;0.3905817;-0.4044321;-0.4819945;-7;0;-9;4063;-586;-984;8192;0.6454294;-0.6694595;-0.3531856;-0.1024931;-2;2;5;1174;3731;517;32768;0.4265928;-0.7835199;0.3864266;-0.234072;5;-2;2;3537;1931;1174;256;0.1288089;-0.1966759;-0.6149584;-0.7526972;-15;12;8;289;3962;-881;128;-0.08725762;0.2977839;0.5955678;0.740952;-2;-9;-7;-899;3811;1210;4;-0.5969529;0.1703601;-0.4861496;-0.6150473;0;-2;0;2507;3334;974;16;0.7765675;-0.6232687;0.033241;-0.08587258;2;3;-1;1089;3956;-780;2;0.5637119;-0.6209946;-0.4168975;-0.3504155;0;-2;-2;733;4128;13;8;0.3919668;-0.8406529;0.2202216;0.301939;-3;3;0;623;3243;2627;0.5314323;2.510327;1.228859;0.5374168;3.055665;1.242706;0.5426776;3.535069;1.252855;0.5729588;4.250904;1.411368;0.3283011;4.588227;1.44459;-0.01906103;4.452231;1.475958;-0.826789;4.901986;1.415741;0.1071142;5.034817;1.505061;0.8481803;4.56624;1.444581;1.130481;4.403614;1.475939;1.336541;3.501193;1.743245;0.5228224;3.038113;1.888866;0.21918;2.468457;1.220051;0.05154526;1.295869;0.361102;0;0;0;0.21918;2.468457;1.220051;0.05154526;1.295869;0.361102;0;0;0
893805.4963;NotLabelled;NONE;16384;-0.5470914;-0.6212;-0.533241;-0.1745152;-2;4;13;3483;-2131;477;65536;0.6727867;0.3891967;-0.4044321;-0.4819945;-4;-1;-10;3889;-546;-872;8192;0.6454294;-0.6694595;-0.3531856;-0.1024931;-4;1;4;1174;3787;497;32768;0.4265928;-0.7835199;0.3864266;-0.234072;5;1;4;3511;2067;1044;256;0.1274238;-0.1952908;-0.6177285;-0.7510234;-14;11;9;207;3962;-935;128;-0.08725762;0.300554;0.5955678;0.7398326;-2;-5;-7;-991;3795;1136;4;-0.5969529;0.1689751;-0.4861496;-0.6154293;-1;-5;1;2307;3192;734;16;0.7766589;-0.6232687;0.03462604;-0.08448754;1;-14;-3;839;3974;-816;2;0.5637119;-0.6209946;-0.4168975;-0.3504155;-1;0;0;653;4164;-81;8;0.3919668;-0.8406529;0.2202216;0.301939;-1;2;-1;725;3235;2579;0.5379423;2.509917;1.229264;0.5439261;3.055202;1.245065;0.5491866;3.534566;1.256932;0.5836093;4.251064;1.411552;0.3408976;4.58996;1.442994;-0.007230878;4.456131;1.475174;-0.8141917;4.907626;1.417771;0.12067;5.035616;1.50408;0.8606423;4.564993;1.442994;1.142013;4.400923;1.475173;1.348596;3.498646;1.742557;0.5339853;3.036619;1.886532;0.2256903;2.468078;1.220294;0.05492088;1.29549;0.3619627;0;0;0;0.2256903;2.468078;1.220294;0.05492088;1.29549;0.3619627;0;0;0
893825.4834;NotLabelled;NONE;16384;-0.5470914;-0.6215875;-0.533241;-0.1731302;-1;2;13;3501;-2073;477;65536;0.671758;0.3878116;-0.4058172;-0.4833795;-4;0;-11;3889;-506;-876;8192;0.6468144;-0.6673874;-0.3545706;-0.1024931;-5;3;1;1214;3779;613;32768;0.4265928;-0.7824198;0.3878116;-0.2354571;4;0;7;3559;1951;1044;256;0.1260388;-0.1966759;-0.6191136;-0.7497541;-13;-8;12;99;3948;-1159;128;-0.08725762;0.301939;0.5941828;0.7403821;-2;-7;-6;-1035;3875;1160;4;-0.5969529;0.1689751;-0.4861496;-0.6154293;0;-4;0;2203;3168;588;16;0.7769552;-0.6232687;0.03462604;-0.08171745;0;-14;-3;457;3916;-966;2;0.5637119;-0.6217742;-0.4168975;-0.3490305;0;-3;1;699;4232;-117;8;0.3919668;-0.8401542;0.2202216;0.3033241;0;0;-2;569;3291;2525;0.5450708;2.508;1.230632;0.5510546;3.053281;1.246568;0.5563149;3.532642;1.258553;0.5921412;4.250024;1.408692;0.3500804;4.589568;1.438093;0.001709402;4.456602;1.471211;-0.8023754;4.91365;1.417508;0.1331801;5.040468;1.497819;0.869777;4.563618;1.438093;1.150847;4.39922;1.47121;1.358505;3.496942;1.737759;0.5444987;3.034916;1.885112;0.2328188;2.466164;1.221651;0.05705415;1.295452;0.3617683;0;0;0;0.2328188;2.466164;1.221651;0.05705415;1.295452;0.3617683;0;0;0
893846.5043;NotLabelled;NONE;16384;-0.5484765;-0.6234995;-0.5304709;-0.1703601;0;0;11;3355;-2073;493;65536;0.6715153;0.3850415;-0.4072022;-0.4847645;-1;-2;-10;3983;-288;-880;8192;0.6468144;-0.6673874;-0.3545706;-0.1024931;-7;5;0;1186;3789;477;32768;0.4279778;-0.7805554;0.3891967;-0.2368421;3;-3;10;3615;1833;1152;256;0.1288089;-0.2022161;-0.6191136;-0.747807;-5;-23;13;161;4252;-889;128;-0.08725762;0.3060942;0.5927978;0.739786;-3;-8;-7;-1007;3929;1210;4;-0.5955678;0.1689751;-0.4861496;-0.6167698;1;-6;0;2229;3178;560;16;0.7770997;-0.6232687;0.03462604;-0.08033241;0;0;-1;215;4000;-930;2;0.5637119;-0.6217742;-0.4168975;-0.3490305;0;-3;1;673;4250;-91;8;0.3919668;-0.8401542;0.2202216;0.3033241;1;1;-2;557;3297;2479;0.5404957;2.508723;1.228794;0.5464789;3.053944;1.246683;0.5517388;3.533257;1.260386;0.5909315;4.250874;1.40856;0.350461;4.591621;1.437066;0.001478791;4.460372;1.470595;-0.8016869;4.91918;1.41817;0.1344489;5.041147;1.499234;0.8700309;4.563248;1.437066;1.150336;4.397632;1.470595;1.362234;3.495856;1.735499;0.5463341;3.036351;1.880239;0.2282441;2.466919;1.219651;0.05279766;1.296207;0.3597023;0;0;0;0.2282441;2.466919;1.219651;0.05279766;1.296207;0.3597023;0;0;0
893867.5098;NotLabelled;NONE;16384;-0.5498615;-0.6238332;-0.5290859;-0.1689751;1;0;9;3325;-2243;529;65536;0.6704646;0.3836565;-0.4085872;-0.4861496;0;-5;-7;4065;-238;-840;8192;0.6481994;-0.6658277;-0.3545706;-0.1038781;-2;0;-3;1098;3895;443;32768;0.4265928;-0.7790806;0.3919668;-0.2396122;2;-3;11;3391;1731;1340;256;0.1315789;-0.2063712;-0.6191136;-0.7461879;-4;-21;10;231;4174;-925;128;-0.08725762;0.3060942;0.5927978;0.739786;-3;-2;-6;-863;3985;1194;4;-0.5955678;0.1689751;-0.4861496;-0.6167698;5;-5;0;2343;3206;574;16;0.7770997;-0.6232687;0.03462604;-0.08033241;1;2;0;567;3946;-868;2;0.5623268;-0.622098;-0.4182825;-0.3490305;-1;4;1;713;4062;99;8;0.3919668;-0.840516;0.2188366;0.3033241;2;3;-2;547;3153;2483;0.5207227;2.510281;1.229458;0.5267051;3.055429;1.249441;0.5319644;3.534688;1.264984;0.5734483;4.25238;1.412154;0.3340712;4.593939;1.440157;-0.01533425;4.463859;1.473834;-0.8128461;4.92958;1.400292;0.1231275;5.045505;1.491465;0.8535471;4.563897;1.44025;1.133316;4.397428;1.47404;1.338396;3.496686;1.747684;0.5193704;3.038279;1.877487;0.2084716;2.468513;1.220142;0.04621153;1.296579;0.3592695;0;0;0;0.2084716;2.468513;1.220142;0.04621153;1.296579;0.3592695;0;0;0
893909.5453;NotLabelled;NONE;16384;-0.5512465;-0.6241575;-0.5277008;-0.16759;2;0;6;3487;-2197;579;65536;0.6695613;0.3822715;-0.4113573;-0.4861496;0;-4;-7;4057;-554;-902;8192;0.6495845;-0.6652137;-0.3531856;-0.1038781;1;-1;-3;1370;4069;481;32768;0.4265928;-0.777091;0.3933518;-0.2437673;2;3;9;3517;2033;1328;256;0.132964;-0.2119114;-0.6177285;-0.7455371;2;-14;6;365;4008;-573;128;-0.08587258;0.3074792;0.5927978;0.7393736;0;0;-5;-977;3911;1024;4;-0.5955678;0.1703601;-0.4847645;-0.6174785;0;3;0;2219;3360;700;16;0.7782874;-0.6218836;0.03601108;-0.07894737;2;-4;0;777;3912;-780;2;0.5623268;-0.6211645;-0.4196676;-0.3490305;-1;0;0;403;4052;-39;8;0.3933518;-0.8398687;0.2188366;0.3033241;1;0;-1;595;3241;2337;0.5084686;2.510281;1.231488;0.514451;3.055429;1.251471;0.5197102;3.534688;1.267015;0.5622598;4.252534;1.413129;0.3233789;4.594475;1.440698;-0.02620327;4.464943;1.474656;-0.8216349;4.93464;1.40393;0.1139209;5.045694;1.504922;0.8428113;4.563689;1.440698;1.12235;4.39687;1.474656;1.329582;3.494298;1.740538;0.5053211;3.042432;1.859697;0.1962175;2.468513;1.222172;0.04260382;1.296579;0.359715;0;0;0;0.1962175;2.468513;1.222172;0.04260382;1.296579;0.359715;0;0;0
893929.7306;NotLabelled;NONE;16384;-0.5526316;-0.6241023;-0.5263157;-0.16759;2;0;8;3557;-2169;629;65536;0.6703501;0.3808864;-0.4113573;-0.4861496;0;-4;-7;3999;-574;-932;8192;0.6495845;-0.664996;-0.3531856;-0.1052632;2;0;-2;1448;4047;547;32768;0.4265928;-0.7773551;0.3919668;-0.2451524;4;6;8;3435;2175;1480;256;0.134349;-0.2132964;-0.6177285;-0.7448936;-6;-12;7;271;3998;-851;128;-0.08587258;0.3088643;0.5927978;0.7387961;0;-4;-5;-991;3937;996;4;-0.5955678;0.1703601;-0.4847645;-0.6174785;0;0;0;2073;3302;706;16;0.7782874;-0.6218836;0.03601108;-0.07894737;3;-2;0;647;3964;-778;2;0.5623268;-0.6211645;-0.4196676;-0.3490305;-1;0;0;403;3998;-107;8;0.3933518;-0.8398687;0.2188366;0.3033241;1;-2;-1;459;3201;2295;0.4876094;2.510119;1.237316;0.4935916;3.055251;1.257735;0.4988507;3.534497;1.273662;0.5445169;4.251737;1.421798;0.3071323;4.594644;1.450276;-0.04302227;4.466554;1.483798;-0.8344129;4.939906;1.394541;0.1002399;5.045994;1.508412;0.8264247;4.56158;1.450298;1.105222;4.393441;1.483847;1.307767;3.49034;1.75154;0.4785421;3.043809;1.85538;0.1753583;2.468358;1.227964;0.03694354;1.295504;0.3641844;0;0;0;0.1753583;2.468358;1.227964;0.03694354;1.295504;0.3641844;0;0;0
893950.478;NotLabelled;NONE;16384;-0.5540166;-0.6236119;-0.5263157;-0.1648199;3;3;9;3471;-2087;629;65536;0.6694295;0.3795014;-0.4141274;-0.4861496;0;-5;-7;4023;-456;-864;8192;0.6495845;-0.664996;-0.3531856;-0.1052632;1;0;0;1566;4045;517;32768;0.4265928;-0.776917;0.3919668;-0.2465374;4;5;6;3279;2227;1444;256;0.1371191;-0.2174515;-0.6177285;-0.7431855;-4;-19;7;187;4092;-1015;128;-0.08587258;0.3102493;0.5914127;0.7393256;-2;0;-3;-951;3909;1264;4;-0.5955678;0.1703601;-0.4847645;-0.6174785;0;-4;0;2089;3304;760;16;0.7784266;-0.6218836;0.03601108;-0.07756232;3;-5;-1;805;3944;-794;2;0.5637119;-0.6199079;-0.4196676;-0.3490305;-1;-1;0;341;3966;-65;8;0.3933518;-0.8393672;0.2188366;0.3047091;0;0;-1;475;3227;2285;0.4827466;2.510117;1.238007;0.4887288;3.055247;1.258499;0.4939879;3.53449;1.27449;0.5395371;4.251851;1.422078;0.3020929;4.594736;1.450318;-0.04803526;4.466607;1.483968;-0.8385767;4.942;1.398091;0.09601074;5.046899;1.513587;0.8213911;4.561767;1.450317;1.100222;4.393703;1.483968;1.303356;3.489719;1.748208;0.4734365;3.043363;1.847137;0.1704956;2.468358;1.228648;0.0355016;1.295504;0.364328;0;0;0;0.1704956;2.468358;1.228648;0.0355016;1.295504;0.364328;0;0;0
893971.4889;NotLabelled;NONE;16384;-0.5554016;-0.6235473;-0.5249307;-0.1648199;3;5;9;3381;-2243;685;65536;0.6693549;0.3781163;-0.4155124;-0.4861496;-1;-7;-7;4045;-336;-890;8192;0.6481994;-0.6658277;-0.3545706;-0.1038781;1;2;5;1662;3923;501;32768;0.4279778;-0.7771071;0.3891967;-0.2479224;8;2;2;3033;2131;1564;256;0.1385041;-0.2202216;-0.6177285;-0.7421122;-4;-31;6;155;4080;-811;128;-0.08587258;0.3116343;0.5914127;0.7387428;-1;1;-1;-953;3867;1150;4;-0.5941828;0.1703601;-0.4861496;-0.6177239;-1;-5;-2;2143;3246;782;16;0.7783613;-0.6218836;0.03739612;-0.07756232;4;-8;-1;781;3930;-804;2;0.5637119;-0.6208433;-0.4182825;-0.3490305;0;-6;0;375;4092;35;8;0.3933518;-0.8390049;0.2202216;0.3047091;0;-2;-1;481;3187;2461;0.4681467;2.510451;1.238713;0.474128;3.055503;1.261161;0.4793863;3.534687;1.278871;0.5260105;4.252202;1.425367;0.2890759;4.59548;1.45311;-0.06123799;4.46792;1.486988;-0.8485767;4.947112;1.393168;0.08494735;5.047037;1.521015;0.8083249;4.561743;1.453109;1.08691;4.39332;1.486988;1.287377;3.489335;1.753257;0.455528;3.044362;1.841651;0.155896;2.468726;1.229192;0.02976264;1.295872;0.3635345;0;0;0;0.155896;2.468726;1.229192;0.02976264;1.295872;0.3635345;0;0;0
893991.5086;NotLabelled;NONE;16384;-0.5567867;-0.622676;-0.5249307;-0.1634349;3;4;9;3327;-2221;705;65536;0.6701354;0.3767313;-0.4155124;-0.4861496;-1;-7;-5;3975;-258;-954;8192;0.6481994;-0.6650882;-0.3559557;-0.1038781;0;3;6;1540;3873;519;32768;0.4279778;-0.7766638;0.3891967;-0.2493075;7;2;0;3135;2025;1666;256;0.1426593;-0.2243767;-0.6177285;-0.7400776;-5;-30;7;145;3906;-841;128;-0.08587258;0.3116343;0.5914127;0.7387428;0;-1;-3;-947;3865;1130;4;-0.5941828;0.1703601;-0.4861496;-0.6177239;-1;-6;-2;2229;3260;726;16;0.7796025;-0.6204986;0.03739612;-0.07617728;4;-13;-2;821;3958;-804;2;0.5650969;-0.6195828;-0.4182825;-0.3490305;0;-6;0;409;4034;-29;8;0.3933518;-0.8385006;0.2202216;0.3060942;0;-2;-1;597;3301;2389;0.4653561;2.512213;1.237627;0.4713374;3.057262;1.260149;0.4765958;3.536443;1.277925;0.5244215;4.25399;1.423875;0.2880601;4.597683;1.45137;-0.062464;4.470732;1.485363;-0.8476795;4.95188;1.38406;0.08529961;5.048719;1.51811;0.8072524;4.563082;1.45137;1.085559;4.39422;1.485362;1.284376;3.491648;1.757594;0.4529684;3.04421;1.837268;0.1531054;2.470488;1.2281;0.03013837;1.295473;0.3649212;0;0;0;0.1531054;2.470488;1.2281;0.03013837;1.295473;0.3649212;0;0;0
894011.6151;NotLabelled;NONE;16384;-0.5581717;-0.6229639;-0.5235457;-0.1620499;4;5;7;3291;-2195;651;65536;0.6692747;0.3767313;-0.4168975;-0.4861496;0;-6;-3;3945;-198;-990;8192;0.6481994;-0.6643451;-0.3573407;-0.1038781;0;3;7;1388;3869;457;32768;0.4293629;-0.7765922;0.3878116;-0.2493075;7;4;0;3335;2023;1346;256;0.1454294;-0.2285319;-0.6177285;-0.7382648;-5;-24;6;301;3870;-801;128;-0.08587258;0.3116343;0.5914127;0.7387428;1;-2;-3;-959;3821;1196;4;-0.5914127;0.1689751;-0.4875346;-0.619668;-1;-9;-2;2393;3196;674;16;0.7798005;-0.6204986;0.03878116;-0.0734072;4;-7;-2;535;3978;-986;2;0.5650969;-0.6212927;-0.4168975;-0.3476454;2;-7;0;503;4128;-99;8;0.3933518;-0.8385006;0.2202216;0.3060942;-1;-3;-2;597;3373;2359;0.4460684;2.511523;1.242105;0.4520496;3.056572;1.264627;0.457308;3.535753;1.282403;0.5048309;4.253668;1.426631;0.2683177;4.59732;1.453342;-0.08214307;4.47029;1.487693;-0.8646121;4.953485;1.375473;0.0671255;5.049126;1.518702;0.7875257;4.562953;1.453341;1.065914;4.3943;1.487693;1.263049;3.492368;1.76325;0.4298326;3.046311;1.830855;0.1338177;2.469798;1.232579;0.02125035;1.294784;0.3679819;0;0;0;0.1338177;2.469798;1.232579;0.02125035;1.294784;0.3679819;0;0;0
894032.5394;NotLabelled;NONE;16384;-0.5595568;-0.6220795;-0.5235457;-0.1606648;5;7;5;3235;-2141;637;65536;0.6700524;0.3753462;-0.4168975;-0.4861496;0;-7;-3;3855;-240;-912;8192;0.6468144;-0.6651632;-0.3587258;-0.1024931;0;4;9;1456;3827;449;32768;0.4293629;-0.7765922;0.3878116;-0.2493075;9;3;1;3517;1927;1116;256;0.1481994;-0.2313019;-0.6177285;-0.7368499;-6;-25;6;339;3968;-787;128;-0.08587258;0.3130194;0.5914127;0.738157;1;-3;-3;-1061;3739;1224;4;-0.5914127;0.1689751;-0.4875346;-0.619668;0;-7;-2;2447;3190;568;16;0.7810296;-0.6191136;0.03878116;-0.07202215;4;-2;0;623;3964;-930;2;0.5650969;-0.6222199;-0.4155124;-0.3476454;0;-8;0;589;4124;17;8;0.3933518;-0.8385006;0.2202216;0.3060942;0;-1;-1;411;3213;2453;0.4334167;2.513358;1.240092;0.439398;3.058407;1.262614;0.4446563;3.537588;1.28039;0.4933175;4.25566;1.423459;0.2573451;4.599722;1.449643;-0.09331042;4.473298;1.484235;-0.8721693;4.960151;1.363073;0.05783755;5.0539;1.518299;0.7764984;4.564544;1.449642;1.054626;4.395511;1.484235;1.250521;3.494224;1.762772;0.4179388;3.045532;1.819957;0.121166;2.471633;1.230565;0.01616023;1.29512;0.3670568;0;0;0;0.121166;2.471633;1.230565;0.01616023;1.29512;0.3670568;0;0;0
894053.481;NotLabelled;NONE;16384;-0.5623268;-0.6199341;-0.5235457;-0.1592798;6;6;2;3121;-2203;713;65536;0.6717366;0.3725762;-0.4182825;-0.4847645;-1;-9;-1;3867;-300;-992;8192;0.6468144;-0.6644144;-0.3601108;-0.1024931;0;7;8;1318;3841;389;32768;0.4307479;-0.7760696;0.3864266;-0.2506925;10;1;0;3357;1789;1326;256;0.1523546;-0.2368421;-0.6177285;-0.734238;-6;-27;5;283;3926;-815;128;-0.08587258;0.3144044;0.5914127;0.7375681;-3;0;-1;-961;3745;1286;4;-0.5900277;0.16759;-0.4875346;-0.6213621;2;-5;-1;2473;3220;646;16;0.7810861;-0.6191136;0.0401662;-0.07063711;3;-6;-1;643;3914;-990;2;0.5650969;-0.6229917;-0.4155124;-0.3462604;0;-5;0;613;4030;29;8;0.3919668;-0.8386424;0.2202216;0.3074792;0;-1;-1;591;3185;2489;0.4189941;2.512643;1.243678;0.4249754;3.057688;1.266276;0.4302337;3.536867;1.284117;0.478732;4.255187;1.425987;0.2426769;4.599235;1.451626;-0.1079432;4.472779;1.486468;-0.8842911;4.961658;1.357584;0.04491013;5.054203;1.518262;0.7618389;4.564185;1.451626;1.040013;4.39528;1.486469;1.233584;3.495437;1.771231;0.4005687;3.046745;1.821714;0.1067434;2.470919;1.234145;0.008689746;1.294406;0.3698198;0;0;0;0.1067434;2.470919;1.234145;0.008689746;1.294406;0.3698198;0;0;0
894074.4836;NotLabelled;NONE;16384;-0.5623268;-0.6199341;-0.5235457;-0.1592798;5;6;2;3211;-2271;717;65536;0.672637;0.3711911;-0.4196676;-0.4833795;-1;-7;-1;3841;-278;-1188;8192;0.6468144;-0.6629056;-0.3628809;-0.1024931;0;3;3;1058;3811;509;32768;0.432133;-0.77485;0.3864266;-0.2520775;3;0;-1;3411;1691;1416;256;0.1551246;-0.2396122;-0.6163435;-0.7339231;-3;-18;3;327;3750;-775;128;-0.08587258;0.3144044;0.5900277;0.7386766;0;0;-2;-871;3755;1194;4;-0.5900277;0.16759;-0.4875346;-0.6213621;0;-1;0;2513;3300;722;16;0.7821819;-0.6177285;0.0401662;-0.07063711;2;-6;0;585;3952;-974;2;0.566482;-0.6217325;-0.4155124;-0.3462604;0;-6;0;709;4030;-153;8;0.3919668;-0.8377681;0.2216066;0.3088643;0;-3;-2;555;3269;2349;0.4009841;2.511957;1.24616;0.4069652;3.057;1.268833;0.4122236;3.536176;1.286742;0.4618389;4.254777;1.426789;0.2263114;4.599246;1.4516;-0.1244944;4.473413;1.486821;-0.8966483;4.96459;1.342414;0.03071809;5.054627;1.514697;0.7454197;4.563408;1.451599;1.023343;4.394168;1.486821;1.214388;3.494979;1.775328;0.3812386;3.045035;1.809955;0.08873343;2.470235;1.23662;0.004060686;1.29438;0.369986;0;0;0;0.08873343;2.470235;1.23662;0.004060686;1.29438;0.369986;0;0;0
894095.4788;NotLabelled;NONE;16384;-0.5637119;-0.6175003;-0.5249307;-0.1592798;5;5;2;3135;-2119;751;65536;0.672637;0.3711911;-0.4196676;-0.4833795;0;-4;0;3745;-176;-1246;8192;0.6468144;-0.6626899;-0.3628809;-0.1038781;0;0;1;1062;3771;483;32768;0.432133;-0.77485;0.3864266;-0.2520775;0;0;0;3493;1747;1252;256;0.1551246;-0.2409972;-0.6163435;-0.7334694;-1;-8;2;427;3878;-685;128;-0.08587258;0.3144044;0.5900277;0.7386766;3;0;0;-995;3725;1190;4;-0.5900277;0.16759;-0.4875346;-0.6213621;0;-1;1;2521;3290;598;16;0.7823057;-0.6177285;0.0401662;-0.06925207;1;-5;-1;711;3942;-996;2;0.566482;-0.6225019;-0.4155124;-0.3448753;0;-2;0;647;4078;-43;8;0.3919668;-0.8377681;0.2216066;0.3088643;0;-2;0;569;3197;2463;0.388234;2.510834;1.25079;0.3942143;3.055795;1.275343;0.3994719;3.534907;1.294904;0.448198;4.253324;1.436201;0.2122495;4.597463;1.46158;-0.1384076;4.471145;1.496541;-0.9093828;4.96232;1.345969;0.01660401;5.051057;1.526166;0.731401;4.562256;1.46158;1.009525;4.393291;1.496541;1.201398;3.495425;1.788594;0.3678717;3.045457;1.812054;0.07598358;2.469145;1.241095;-0.001597524;1.29329;0.3737975;0;0;0;0.07598358;2.469145;1.241095;-0.001597524;1.29329;0.3737975;0;0;0
894115.622;NotLabelled;NONE;16384;-0.5637119;-0.6190299;-0.5235457;-0.1578947;5;2;0;3117;-2199;705;65536;0.672637;0.3711911;-0.4196676;-0.4833795;2;-3;0;3703;-178;-1136;8192;0.6468144;-0.6626899;-0.3628809;-0.1038781;-1;0;1;1236;3789;453;32768;0.432133;-0.77485;0.3864266;-0.2520775;0;1;0;3489;1815;1232;256;0.1565097;-0.2409972;-0.6177285;-0.7320086;-2;0;0;333;3972;-761;128;-0.08587258;0.3144044;0.5914127;0.7375681;1;2;1;-977;3855;1228;4;-0.5900277;0.16759;-0.4875346;-0.6213621;0;0;1;2431;3240;630;16;0.7822334;-0.6177285;0.04155125;-0.06925207;0;-2;-1;773;3994;-884;2;0.566482;-0.6225019;-0.4155124;-0.3448753;0;0;0;649;3966;49;8;0.3919668;-0.8377681;0.2216066;0.3088643;-1;1;0;489;3189;2359;0.3835215;2.511189;1.249707;0.3895018;3.056151;1.27426;0.3947593;3.535263;1.293821;0.444816;4.253585;1.435136;0.2095054;4.59816;1.460523;-0.141385;4.472489;1.495481;-0.9117934;4.962302;1.337736;0.01378548;5.051039;1.520017;0.728591;4.56199;1.460523;1.006401;4.392511;1.49548;1.195753;3.493942;1.787019;0.3621765;3.043974;1.808602;0.07127112;2.469501;1.240013;-0.004357338;1.293646;0.3725424;0;0;0;0.07127112;2.469501;1.240013;-0.004357338;1.293646;0.3725424;0;0;0
894135.4825;NotLabelled;NONE;16384;-0.5650969;-0.6174102;-0.5235457;-0.1592798;5;0;-1;3157;-2249;807;65536;0.6735277;0.3698061;-0.4210526;-0.4819945;2;-3;0;3863;-240;-1140;8192;0.6468144;-0.6626899;-0.3628809;-0.1038781;-1;0;0;1306;3843;519;32768;0.432133;-0.77485;0.3864266;-0.2520775;0;0;0;3445;1891;1300;256;0.1551246;-0.2409972;-0.6177285;-0.7323033;0;4;0;337;4034;-817;128;-0.08587258;0.3144044;0.5914127;0.7375681;0;4;1;-975;3865;1284;4;-0.5900277;0.166205;-0.4861496;-0.6228176;-1;2;2;2407;3200;724;16;0.7823548;-0.6177285;0.04155125;-0.06786703;-1;-2;-2;703;3946;-1052;2;0.566482;-0.6225019;-0.4155124;-0.3448753;0;3;-1;447;4062;-17;8;0.3919668;-0.8368884;0.2229917;0.3102493;-1;-4;0;597;3341;2265;0.3840403;2.510844;1.251007;0.3900214;3.055887;1.27368;0.3952798;3.535063;1.291589;0.4447254;4.254042;1.429746;0.2091089;4.598511;1.453697;-0.1416565;4.472675;1.489311;-0.9104086;4.96584;1.333949;0.01486307;5.054578;1.517784;0.7282269;4.562814;1.453697;1.006202;4.393741;1.489311;1.195663;3.495172;1.780779;0.3620508;3.045204;1.800962;0.07178962;2.469122;1.241468;-0.002381906;1.293267;0.3738721;0;0;0;0.07178962;2.469122;1.241468;-0.002381906;1.293267;0.3738721;0;0;0
894156.4925;NotLabelled;NONE;16384;-0.5650969;-0.6174102;-0.5235457;-0.1592798;4;0;-4;3255;-2177;771;65536;0.6745167;0.3698061;-0.4210526;-0.4806094;3;-3;1;3907;-362;-1084;8192;0.6468144;-0.6626899;-0.3628809;-0.1038781;0;2;-2;1406;3915;451;32768;0.432133;-0.77485;0.3864266;-0.2520775;0;-1;-1;3317;1953;1388;256;0.1551246;-0.2409972;-0.6177285;-0.7323033;2;8;-1;283;4034;-759;128;-0.08587258;0.3144044;0.5914127;0.7375681;-1;4;2;-1001;3851;1202;4;-0.5914127;0.166205;-0.4861496;-0.6215026;1;0;2;2363;3180;614;16;0.7823548;-0.6177285;0.04155125;-0.06786703;-1;2;-1;511;3984;-1012;2;0.566482;-0.6225019;-0.4155124;-0.3448753;-2;4;-2;417;4100;65;8;0.3919668;-0.8368884;0.2229917;0.3102493;-1;-5;0;453;3231;2327;0.3809637;2.508362;1.25375;0.3869449;3.053405;1.276423;0.3922033;3.532581;1.294332;0.4430352;4.251336;1.433142;0.2080865;4.596241;1.457391;-0.1429248;4.471054;1.492869;-0.9120123;4.962767;1.334588;0.01364249;5.050198;1.517116;0.7271343;4.559536;1.45739;1.004779;4.389892;1.492869;1.194818;3.491323;1.783959;0.361244;3.041355;1.805634;0.06871307;2.46664;1.24421;-0.003631249;1.293624;0.3726257;0;0;0;0.06871307;2.46664;1.24421;-0.003631249;1.293624;0.3726257;0;0;0
894176.6063;NotLabelled;NONE;16384;-0.5650969;-0.6170512;-0.5235457;-0.1606648;5;0;-3;3303;-2147;759;65536;0.6745167;0.3698061;-0.4210526;-0.4806094;4;-2;2;3895;-362;-1198;8192;0.6481994;-0.6611162;-0.3628809;-0.1052632;0;-2;-1;1400;3865;541;32768;0.432133;-0.7752992;0.3864266;-0.2506925;0;-2;-3;3343;2101;1306;256;0.1537396;-0.2382271;-0.6177285;-0.7335008;-1;7;-2;233;3946;-917;128;-0.08587258;0.3130194;0.5900277;0.7392645;-2;4;4;-897;3815;1274;4;-0.5914127;0.166205;-0.4861496;-0.6215026;1;0;3;2347;3154;632;16;0.7824737;-0.6177285;0.04155125;-0.06648199;-2;-4;-2;689;3940;-1058;2;0.566482;-0.6217325;-0.4155124;-0.3462604;-2;3;-2;453;4002;-33;8;0.3905817;-0.8375357;0.2229917;0.3102493;-1;0;0;519;3207;2493;0.3831507;2.507164;1.255175;0.3891318;3.052207;1.277848;0.3943902;3.531384;1.295757;0.4452221;4.250139;1.434568;0.2102734;4.595044;1.458816;-0.1407379;4.469857;1.494294;-0.9098253;4.961569;1.336013;0.01567721;5.050799;1.518442;0.7293212;4.558339;1.458816;1.006965;4.388695;1.494294;1.197005;3.490126;1.785385;0.363431;3.040158;1.80706;0.07089996;2.465443;1.245635;-0.00363107;1.293625;0.3726258;0;0;0;0.07089996;2.465443;1.245635;-0.00363107;1.293625;0.3726258;0;0;0
894196.6976;NotLabelled;NONE;16384;-0.5650969;-0.6158734;-0.5249307;-0.1606648;6;0;-3;3265;-2165;739;65536;0.6747413;0.3711911;-0.4210526;-0.4792244;6;-2;2;3887;-396;-1152;8192;0.6481994;-0.6613352;-0.3628809;-0.1038781;0;0;0;1554;3861;593;32768;0.433518;-0.7745256;0.3864266;-0.2506925;0;0;-3;3431;2115;1344;256;0.1537396;-0.2382271;-0.6177285;-0.7335008;-1;2;-3;165;3972;-861;128;-0.08587258;0.3116343;0.5900277;0.7398495;0;6;4;-943;3841;1156;4;-0.5914127;0.166205;-0.4847645;-0.6225836;0;0;3;2331;3216;784;16;0.7824737;-0.6177285;0.04155125;-0.06648199;-1;0;-1;367;3940;-1054;2;0.567867;-0.6204677;-0.4155124;-0.3462604;0;0;-1;325;4008;-39;8;0.3905817;-0.8366511;0.2243767;0.3116343;-2;-3;0;539;3341;2353;0.389053;2.507485;1.253615;0.3950334;3.05245;1.278091;0.400291;3.531564;1.297585;0.4498456;4.250291;1.437008;0.2142864;4.594759;1.461535;-0.1365052;4.468923;1.496886;-0.9073697;4.958915;1.341954;0.019261;5.048144;1.518561;0.7333983;4.55897;1.461534;1.011339;4.389788;1.496885;1.204969;3.49043;1.783134;0.3723652;3.03908;1.812144;0.07680273;2.465795;1.243926;-0.003215149;1.293977;0.3714026;0;0;0;0.07680273;2.465795;1.243926;-0.003215149;1.293977;0.3714026;0;0;0
894217.5105;NotLabelled;NONE;16384;-0.5650969;-0.6155104;-0.5249307;-0.1620499;5;-1;-3;3303;-2147;803;65536;0.673875;0.3711911;-0.4224377;-0.4792244;6;-1;1;3885;-390;-1030;8192;0.6481994;-0.6613352;-0.3628809;-0.1038781;-1;2;0;1504;3881;617;32768;0.433518;-0.7745256;0.3864266;-0.2506925;0;0;-3;3329;2017;1372;256;0.1537396;-0.2368421;-0.6177285;-0.7339492;0;2;-3;289;3996;-815;128;-0.08587258;0.3116343;0.5914127;0.7387428;0;7;4;-1011;3847;1224;4;-0.5914127;0.166205;-0.4847645;-0.6225836;0;0;3;2379;3188;602;16;0.782546;-0.6177285;0.0401662;-0.06648199;-1;5;0;571;3950;-946;2;0.567867;-0.6204677;-0.4155124;-0.3462604;-1;-1;-1;433;4070;-55;8;0.3891967;-0.8372963;0.2243767;0.3116343;-3;-2;0;539;3227;2337;0.3844664;2.506501;1.255338;0.3904468;3.051469;1.279739;0.3957044;3.530586;1.299167;0.445259;4.249313;1.43859;0.2096999;4.593781;1.463116;-0.1410916;4.467946;1.498468;-0.9128802;4.95629;1.342936;0.01309174;5.048553;1.52143;0.7288117;4.557993;1.463116;1.006753;4.38881;1.498467;1.20153;3.490149;1.786123;0.3696107;3.0374;1.812871;0.07221609;2.46481;1.245656;-0.003215238;1.293977;0.3714025;0;0;0;0.07221609;2.46481;1.245656;-0.003215238;1.293977;0.3714025;0;0;0
894238.4826;NotLabelled;NONE;16384;-0.566482;-0.6138688;-0.5249307;-0.1634349;5;-2;-4;3287;-2107;771;65536;0.6748579;0.3711911;-0.4224377;-0.4778393;4;-2;3;3873;-316;-1050;8192;0.6481994;-0.6613352;-0.3628809;-0.1038781;0;0;0;1472;3773;521;32768;0.433518;-0.7749726;0.3864266;-0.2493075;0;0;-3;3247;2009;1308;256;0.1537396;-0.2368421;-0.6177285;-0.7339492;1;7;-3;255;3964;-751;128;-0.08587258;0.3102493;0.5914127;0.7393256;-1;6;3;-945;3869;1220;4;-0.5927978;0.1648199;-0.4847645;-0.6216338;0;0;3;2315;3340;764;16;0.7814507;-0.6191136;0.0401662;-0.06648199;-2;-1;-1;781;3962;-852;2;0.567867;-0.6204677;-0.4155124;-0.3462604;-1;0;-2;517;4044;-69;8;0.3891967;-0.8372963;0.2243767;0.3116343;-2;-1;0;589;3271;2455;0.3848902;2.506902;1.253692;0.3908715;3.051952;1.276214;0.3961298;3.531132;1.29399;0.4443792;4.249953;1.433386;0.208187;4.593985;1.457951;-0.1423638;4.4675;1.493373;-0.9156899;4.954649;1.341777;0.01043046;5.045045;1.520457;0.7273642;4.559159;1.45785;1.005625;4.390492;1.493151;1.201788;3.490847;1.77676;0.3699372;3.038097;1.805538;0.07263958;2.465178;1.244166;-0.004925013;1.294345;0.3700987;0;0;0;0.07263958;2.465178;1.244166;-0.004925013;1.294345;0.3700987;0;0;0
894259.4864;NotLabelled;NONE;16384;-0.566482;-0.6134984;-0.5249307;-0.1648199;6;-1;-5;3431;-2155;813;65536;0.6750739;0.3725762;-0.4224377;-0.4764543;4;-3;3;3901;-478;-1150;8192;0.6481994;-0.6605734;-0.3642659;-0.1038781;0;0;0;1396;3705;453;32768;0.433518;-0.7756616;0.3850415;-0.2493075;1;0;-3;3229;1915;1308;256;0.1523546;-0.2354571;-0.6177285;-0.7346833;1;9;-3;257;3988;-729;128;-0.08587258;0.3102493;0.5914127;0.7393256;0;4;2;-931;3849;1144;4;-0.5927978;0.1648199;-0.4833795;-0.6227114;-1;1;4;2309;3276;748;16;0.7813783;-0.6191136;0.04155125;-0.06648199;-3;-4;-2;713;3976;-950;2;0.567867;-0.6196927;-0.4155124;-0.3476454;0;0;-1;505;4142;81;8;0.3891967;-0.8372963;0.2243767;0.3116343;-2;-2;0;563;3269;2525;0.3906876;2.50492;1.253679;0.3966689;3.049972;1.276127;0.4019273;3.529156;1.293837;0.4501498;4.247977;1.433242;0.2139527;4.592008;1.45776;-0.1366051;4.465523;1.493115;-0.9095629;4.950647;1.333368;0.01636463;5.042844;1.512126;0.73313;4.557182;1.45776;1.011384;4.388515;1.493115;1.206807;3.489855;1.780334;0.3757784;3.035724;1.811039;0.07843685;2.463194;1.244159;-0.002402201;1.295437;0.3662815;0;0;0;0.07843685;2.463194;1.244159;-0.002402201;1.295437;0.3662815;0;0;0
894279.5078;NotLabelled;NONE;16384;-0.566482;-0.6131246;-0.5249307;-0.166205;5;0;-5;3421;-2107;867;65536;0.6759386;0.3725762;-0.4210526;-0.4764543;4;-4;3;3979;-526;-1130;8192;0.6468144;-0.6617108;-0.3642659;-0.1052632;0;0;1;1342;3725;561;32768;0.434903;-0.7753301;0.3850415;-0.2479224;0;0;-3;3375;1869;1326;256;0.1523546;-0.234072;-0.6177285;-0.7351257;0;9;-3;317;3922;-701;128;-0.08587258;0.3088643;0.5914127;0.7399052;-1;2;3;-1021;3877;1180;4;-0.5927978;0.1648199;-0.4833795;-0.6227114;0;0;3;2449;3228;678;16;0.7815673;-0.6191136;0.0401662;-0.06509695;-2;0;-1;583;4026;-860;2;0.567867;-0.6196927;-0.4155124;-0.3476454;0;1;-1;459;4076;31;8;0.3878116;-0.8379387;0.2243767;0.3116343;-2;0;0;583;3305;2495;0.3937547;2.503556;1.256401;0.3997361;3.048608;1.278849;0.4049945;3.527792;1.296559;0.4532798;4.246487;1.436589;0.217115;4.59052;1.461391;-0.133457;4.464039;1.496616;-0.9078366;4.947428;1.3385;0.01813912;5.042656;1.515411;0.7362889;4.555643;1.46139;1.014525;4.386918;1.496616;1.212692;3.488926;1.784044;0.38248;3.033575;1.818535;0.08150405;2.46183;1.24688;0.001692861;1.295069;0.367587;0;0;0;0.08150405;2.46183;1.24688;0.001692861;1.295069;0.367587;0;0;0
894299.6817;NotLabelled;NONE;16384;-0.566482;-0.6127475;-0.5249307;-0.16759;5;0;-5;3421;-2075;843;65536;0.6752841;0.3739612;-0.4224377;-0.4750692;4;-4;3;3899;-442;-1092;8192;0.6468144;-0.6617108;-0.3642659;-0.1052632;0;0;0;1354;3711;507;32768;0.434903;-0.7753301;0.3850415;-0.2479224;0;0;-3;3389;1855;1322;256;0.1495845;-0.2313019;-0.6191136;-0.7354062;0;11;-3;303;3992;-881;128;-0.08587258;0.3088643;0.5914127;0.7399052;0;1;2;-1003;3775;1160;4;-0.5927978;0.1634349;-0.4833795;-0.6230764;0;-2;3;2305;3200;600;16;0.7804682;-0.6204986;0.0401662;-0.06509695;-2;0;-1;609;4028;-898;2;0.567867;-0.6196927;-0.4155124;-0.3476454;0;0;0;607;4124;-57;8;0.3878116;-0.8374223;0.2243767;0.3130194;-1;0;0;609;3255;2479;0.3919912;2.50427;1.253692;0.3979726;3.049325;1.276065;0.4032309;3.528511;1.29371;0.4501866;4.247298;1.433723;0.213386;4.590894;1.458518;-0.1369516;4.463766;1.493746;-0.9124637;4.945415;1.335871;0.01417273;5.042504;1.508253;0.7326233;4.556978;1.458517;1.011171;4.388768;1.493746;1.205923;3.490162;1.781588;0.3773085;3.032038;1.81775;0.07974041;2.462543;1.244177;-0.00204432;1.295782;0.365065;0;0;0;0.07974041;2.462543;1.244177;-0.00204432;1.295782;0.365065;0;0;0
894321.7176;NotLabelled;NONE;16384;-0.566482;-0.6127475;-0.5249307;-0.16759;5;1;-4;3375;-2097;821;65536;0.6762564;0.3739612;-0.4224377;-0.4736842;2;-3;3;3895;-524;-1170;8192;0.6481994;-0.6603541;-0.3642659;-0.1052632;0;0;0;1298;3767;517;32768;0.434903;-0.7753301;0.3850415;-0.2479224;-2;-1;-3;3413;1907;1324;256;0.1481994;-0.2299169;-0.6191136;-0.7361206;2;14;-3;267;4018;-689;128;-0.08587258;0.3074792;0.5914127;0.7404819;0;4;3;-969;3859;1166;4;-0.5927978;0.1634349;-0.4833795;-0.6230764;1;-1;2;2299;3232;580;16;0.7804682;-0.6204986;0.0401662;-0.06509695;-2;0;-1;515;3938;-832;2;0.567867;-0.6196927;-0.4155124;-0.3476454;0;4;-1;425;4038;11;8;0.3878116;-0.83705;0.2257618;0.3130194;0;0;0;541;3247;2359;0.4059837;2.503462;1.251503;0.411965;3.048517;1.273876;0.4172235;3.527703;1.291521;0.4650652;4.246679;1.430256;0.2286835;4.590605;1.45447;-0.1218036;4.463963;1.489964;-0.8993645;4.943868;1.336932;0.02774304;5.042127;1.50609;0.7478795;4.55606;1.454469;1.026227;4.387577;1.489963;1.223323;3.488971;1.776206;0.3950318;3.030846;1.819132;0.09373289;2.461735;1.241988;0.003476009;1.29686;0.3612049;0;0;0;0.09373289;2.461735;1.241988;0.003476009;1.29686;0.3612049;0;0;0
894342.5044;NotLabelled;NONE;16384;-0.566482;-0.611177;-0.5263157;-0.1689751;4;0;-5;3409;-2123;903;65536;0.6771196;0.3739612;-0.4210526;-0.4736842;3;-2;3;3947;-516;-1202;8192;0.6481994;-0.6603541;-0.3642659;-0.1052632;-1;0;-2;1288;3841;473;32768;0.434903;-0.7757717;0.3850415;-0.2465374;-4;-2;-4;3217;1929;1316;256;0.1468144;-0.2271468;-0.6191136;-0.7372572;0;15;-4;213;4020;-801;128;-0.08587258;0.3074792;0.5914127;0.7404819;1;2;3;-899;3995;1118;4;-0.5927978;0.1634349;-0.4819945;-0.6241484;0;3;2;2303;3220;590;16;0.7804682;-0.6204986;0.0401662;-0.06509695;-1;2;1;483;3904;-824;2;0.567867;-0.6196927;-0.4155124;-0.3476454;0;2;-2;425;4086;89;8;0.3878116;-0.83705;0.2257618;0.3130194;-1;-3;0;627;3317;2467;0.4109835;2.503463;1.251109;0.4169647;3.048521;1.27341;0.4222233;3.527709;1.290991;0.4701367;4.246563;1.430333;0.2337915;4.590495;1.454823;-0.1167115;4.463862;1.49019;-0.8948822;4.943768;1.340291;0.03272545;5.043823;1.505608;0.7529836;4.555893;1.454822;1.031311;4.387349;1.49019;1.23243;3.488657;1.773347;0.4043187;3.030532;1.819607;0.09873253;2.461735;1.241601;0.004930288;1.29686;0.3611881;0;0;0;0.09873253;2.461735;1.241601;0.004930288;1.29686;0.3611881;0;0;0
894362.6314;NotLabelled;NONE;16384;-0.566482;-0.6107923;-0.5263157;-0.1703601;4;-2;-6;3467;-2129;895;65536;0.6780864;0.3739612;-0.4210526;-0.4722992;2;-2;4;3987;-482;-1208;8192;0.6481994;-0.6603541;-0.3642659;-0.1052632;0;-1;-3;1256;3891;503;32768;0.434903;-0.7762105;0.3850415;-0.2451524;-5;-3;-6;3261;1961;1374;256;0.1454294;-0.2243767;-0.6191136;-0.7383791;1;14;-4;183;4062;-789;128;-0.08587258;0.3060942;0.5914127;0.7410555;1;1;3;-975;3915;1182;4;-0.5941828;0.1634349;-0.4819945;-0.62283;0;4;1;2299;3270;666;16;0.7793183;-0.6218836;0.03878116;-0.06648199;0;0;0;737;3940;-742;2;0.567867;-0.6196927;-0.4155124;-0.3476454;0;0;-2;419;4116;-9;8;0.3878116;-0.83705;0.2257618;0.3130194;0;0;0;465;3249;2515;0.4142378;2.50245;1.252304;0.4202192;3.047508;1.274604;0.4254777;3.526696;1.292185;0.4721413;4.245519;1.432112;0.2352007;4.589022;1.456868;-0.1150848;4.461754;1.492115;-0.8958987;4.938228;1.345041;0.03294313;5.040139;1.502089;0.754452;4.555316;1.456868;1.033068;4.387225;1.492114;1.235958;3.488532;1.774005;0.4090443;3.029033;1.827509;0.101987;2.460722;1.242796;0.007192433;1.29686;0.36115;0;0;0;0.101987;2.460722;1.242796;0.007192433;1.29686;0.36115;0;0;0
894383.4805;NotLabelled;NONE;16384;-0.566482;-0.6092073;-0.5277008;-0.1717452;3;-1;-7;3467;-2185;897;65536;0.6782844;0.3753462;-0.4210526;-0.4709141;1;-3;3;3987;-548;-1158;8192;0.6481994;-0.6611162;-0.3628809;-0.1052632;0;-4;-4;1462;3827;497;32768;0.434903;-0.7766466;0.3850415;-0.2437673;-4;-3;-4;3563;2157;1244;256;0.1440443;-0.2229917;-0.6191136;-0.7390699;1;14;-4;203;4090;-799;128;-0.08725762;0.3060942;0.5914127;0.7408937;1;1;2;-899;3915;1200;4;-0.5941828;0.1634349;-0.4819945;-0.62283;-1;4;0;2345;3306;778;16;0.779365;-0.6218836;0.0401662;-0.06509695;0;-4;0;753;3934;-776;2;0.567867;-0.6196927;-0.4155124;-0.3476454;0;-1;-1;465;4152;-59;8;0.3878116;-0.83705;0.2257618;0.3130194;0;3;0;613;3267;2489;0.4260513;2.502337;1.248994;0.4320327;3.047398;1.271221;0.4372912;3.526589;1.288738;0.482713;4.245378;1.429245;0.2451814;4.588452;1.454265;-0.1048867;4.460556;1.48939;-0.8873994;4.935276;1.345709;0.04222667;5.038977;1.496835;0.76449;4.55564;1.454264;1.043393;4.388;1.48939;1.24804;3.489306;1.770009;0.4223895;3.028435;1.830732;0.1138005;2.460608;1.239491;0.01127253;1.297943;0.3571319;0;0;0;0.1138005;2.460608;1.239491;0.01127253;1.297943;0.3571319;0;0;0
894404.4857;NotLabelled;NONE;16384;-0.566482;-0.6088151;-0.5277008;-0.1731302;2;0;-5;3541;-2171;927;65536;0.6782844;0.3753462;-0.4210526;-0.4709141;1;-4;3;4015;-664;-1172;8192;0.6495845;-0.6597553;-0.3628809;-0.1052632;0;-1;-1;1526;3873;581;32768;0.434903;-0.7770799;0.3850415;-0.2423823;-3;-1;-3;3427;2163;1356;256;0.1426593;-0.2188366;-0.6204986;-0.739419;-1;13;-4;157;4008;-913;128;-0.08725762;0.3047091;0.5927978;0.7403575;0;0;1;-925;3875;1170;4;-0.5941828;0.1648199;-0.4819945;-0.6224649;-2;2;0;2243;3240;760;16;0.779365;-0.6218836;0.0401662;-0.06509695;0;0;0;671;3928;-818;2;0.567867;-0.6196927;-0.4155124;-0.3476454;0;2;0;531;4112;-21;8;0.3878116;-0.83705;0.2257618;0.3130194;0;1;0;587;3291;2397;0.4316917;2.502324;1.248544;0.4376734;3.0474;1.270406;0.442932;3.526602;1.287602;0.4884412;4.245269;1.4287;0.2509535;4.588355;1.453988;-0.09913319;4.460475;1.488991;-0.8839312;4.931738;1.346398;0.04564857;5.038465;1.495689;0.7702576;4.555474;1.453988;1.049136;4.387768;1.488991;1.253284;3.48841;1.767837;0.4288121;3.026168;1.833917;0.119441;2.460588;1.239072;0.01336764;1.297924;0.3571316;0;0;0;0.119441;2.460588;1.239072;0.01336764;1.297924;0.3571316;0;0;0
894424.6236;NotLabelled;NONE;16384;-0.566482;-0.6088151;-0.5277008;-0.1731302;2;0;-5;3557;-1983;905;65536;0.6801006;0.3753462;-0.4196676;-0.4695291;1;-3;3;3959;-614;-1274;8192;0.6495845;-0.6597553;-0.3628809;-0.1052632;0;0;0;1558;3833;529;32768;0.434903;-0.7770799;0.3850415;-0.2423823;-3;0;-2;3333;2139;1428;256;0.1412742;-0.2174515;-0.6204986;-0.7400932;0;8;-4;257;3992;-861;128;-0.08725762;0.3047091;0.5927978;0.7403575;1;0;1;-965;3873;1196;4;-0.5941828;0.1648199;-0.4819945;-0.6224649;0;0;0;2331;3250;722;16;0.779365;-0.6218836;0.0401662;-0.06509695;0;1;0;701;4000;-882;2;0.567867;-0.6189137;-0.4155124;-0.3490305;0;1;-1;443;4024;39;8;0.3878116;-0.83705;0.2257618;0.3130194;0;0;0;559;3219;2443;0.441175;2.50425;1.24496;0.4471573;3.049401;1.264872;0.4524166;3.528661;1.280353;0.4961078;4.247826;1.41948;0.2577388;4.590362;1.443918;-0.09200269;4.461669;1.479391;-0.8799742;4.931654;1.350764;0.05087769;5.038381;1.491908;0.7771263;4.558829;1.443825;1.056452;4.391943;1.479186;1.268218;3.491533;1.748799;0.4453079;3.027923;1.824124;0.1289238;2.462481;1.23565;0.01649494;1.297923;0.3570008;0;0;0;0.1289238;2.462481;1.23565;0.01649494;1.297923;0.3570008;0;0;0
894445.4919;NotLabelled;NONE;16384;-0.566482;-0.6084196;-0.5277008;-0.1745152;2;1;-3;3473;-1999;839;65536;0.6801006;0.3753462;-0.4196676;-0.4695291;1;-2;2;3843;-578;-1236;8192;0.6495845;-0.6597553;-0.3628809;-0.1052632;0;0;0;1372;3855;541;32768;0.433518;-0.7782837;0.3850415;-0.2409972;-4;2;-2;3329;2031;1418;256;0.1412742;-0.2174515;-0.6204986;-0.7400932;0;3;-3;175;4026;-823;128;-0.08864266;0.3047091;0.5927978;0.740193;3;2;2;-953;3903;1110;4;-0.5941828;0.1648199;-0.4819945;-0.6224649;0;0;0;2253;3258;674;16;0.7792481;-0.6218836;0.0401662;-0.06648199;0;1;1;637;3924;-920;2;0.567867;-0.6189137;-0.4155124;-0.3490305;-1;0;-2;537;4160;-17;8;0.3878116;-0.83705;0.2257618;0.3130194;0;1;0;493;3207;2507;0.445912;2.504251;1.244457;0.4518943;3.049401;1.264369;0.4571536;3.528662;1.27985;0.5009131;4.247708;1.419564;0.2625862;4.590258;1.444222;-0.08718133;4.461586;1.479513;-0.8745214;4.931082;1.345358;0.05681825;5.041438;1.48036;0.7819695;4.558652;1.444223;1.061264;4.391699;1.479513;1.271722;3.492266;1.753378;0.4491069;3.028657;1.831858;0.1336608;2.462481;1.235147;0.0178636;1.297923;0.356935;0;0;0;0.1336608;2.462481;1.235147;0.0178636;1.297923;0.356935;0;0;0
894466.6688;NotLabelled;NONE;16384;-0.566482;-0.6068158;-0.5290859;-0.1759003;1;-1;-3;3475;-2059;829;65536;0.6810547;0.3753462;-0.4196676;-0.468144;1;-1;2;3943;-496;-1106;8192;0.6495845;-0.6597553;-0.3628809;-0.1052632;0;-1;0;1416;3811;527;32768;0.433518;-0.7782837;0.3850415;-0.2409972;-3;2;-3;3271;1979;1342;256;0.1426593;-0.2174515;-0.6204986;-0.7398275;0;0;-3;187;4036;-795;128;-0.08864266;0.3047091;0.5927978;0.740193;5;2;1;-909;3915;1150;4;-0.5941828;0.1648199;-0.4819945;-0.6224649;0;-1;0;2279;3220;658;16;0.7792481;-0.6218836;0.0401662;-0.06648199;1;3;1;577;3918;-844;2;0.5692521;-0.61764;-0.4155124;-0.3490305;-1;0;-1;401;4066;-9;8;0.3878116;-0.8365307;0.2257618;0.3144044;0;3;0;583;3269;2439;0.4479124;2.503911;1.245575;0.4538949;3.049075;1.26512;0.4591543;3.528346;1.280279;0.5029138;4.247393;1.419993;0.2645869;4.589942;1.444651;-0.08518052;4.46127;1.479942;-0.8733137;4.928997;1.344272;0.0580253;5.039353;1.479273;0.7839702;4.558337;1.444651;1.063264;4.391384;1.479942;1.273714;3.49195;1.753814;0.4515;3.028381;1.836616;0.1356611;2.462136;1.236295;0.01986369;1.297578;0.3580839;0;0;0;0.1356611;2.462136;1.236295;0.01986369;1.297578;0.3580839;0;0;0
894487.5427;NotLabelled;NONE;16384;-0.5650969;-0.6081058;-0.5290859;-0.1759003;1;0;-4;3501;-2053;903;65536;0.6810547;0.3753462;-0.4196676;-0.468144;0;-1;2;3947;-490;-1152;8192;0.6495845;-0.6597553;-0.3628809;-0.1052632;0;0;0;1458;3807;527;32768;0.433518;-0.7789674;0.3836565;-0.2409972;-2;2;-2;3359;2003;1248;256;0.1426593;-0.2160665;-0.6204986;-0.7402331;0;3;-4;201;4004;-783;128;-0.08864266;0.3047091;0.5941828;0.7390816;6;2;2;-923;3937;1076;4;-0.5941828;0.1648199;-0.4819945;-0.6224649;-1;-1;0;2285;3236;654;16;0.7792481;-0.6218836;0.0401662;-0.06648199;1;-1;0;693;3918;-836;2;0.567867;-0.6189137;-0.4155124;-0.3490305;0;-1;0;431;4154;-55;8;0.3878116;-0.83705;0.2257618;0.3130194;0;-1;0;705;3267;2449;0.4457059;2.503911;1.245816;0.4516883;3.049075;1.265361;0.4569478;3.528346;1.280519;0.499292;4.247593;1.419638;0.2602892;4.58969;1.444027;-0.08922148;4.460356;1.479441;-0.8788245;4.924591;1.340368;0.05207652;5.036727;1.476919;0.7797339;4.559112;1.444027;1.05936;4.392741;1.479441;1.269329;3.493307;1.75368;0.4469693;3.029739;1.835015;0.1334547;2.462136;1.236536;0.01922455;1.297578;0.358119;0;0;0;0.1334547;2.462136;1.236536;0.01922455;1.297578;0.358119;0;0;0
894508.4816;NotLabelled;NONE;16384;-0.5650969;-0.6081058;-0.5290859;-0.1759003;1;0;-4;3509;-2059;869;65536;0.6820047;0.3753462;-0.4196676;-0.466759;0;-2;2;3955;-556;-1048;8192;0.6495845;-0.6597553;-0.3628809;-0.1052632;1;0;0;1480;3761;505;32768;0.433518;-0.7793946;0.3836565;-0.2396122;-1;2;-2;3293;2013;1306;256;0.1426593;-0.2146814;-0.6204986;-0.7406361;0;5;-3;219;4052;-779;128;-0.0900277;0.3033241;0.5955678;0.7383688;4;0;1;-929;3863;1236;4;-0.5941828;0.1648199;-0.4833795;-0.6213899;-1;0;-1;2311;3254;756;16;0.7792481;-0.6218836;0.0401662;-0.06648199;0;-5;0;679;3948;-834;2;0.567867;-0.6189137;-0.4155124;-0.3490305;0;0;0;389;4092;-33;8;0.3878116;-0.83705;0.2257618;0.3130194;0;0;0;509;3221;2355;0.448461;2.503943;1.245359;0.4544443;3.049171;1.263022;0.4597042;3.528491;1.276526;0.5007266;4.247818;1.415631;0.2610958;4.589476;1.440012;-0.08817637;4.4595;1.47543;-0.8786992;4.923532;1.340977;0.05250365;5.035667;1.475453;0.7805958;4.559853;1.440012;1.060527;4.393996;1.475429;1.271063;3.494562;1.749233;0.4496024;3.0298;1.83281;0.1362093;2.462135;1.236235;0.02002257;1.297578;0.358075;0;0;0;0.1362093;2.462135;1.236235;0.02002257;1.297578;0.358075;0;0;0
894528.5036;NotLabelled;NONE;16384;-0.5650969;-0.6064948;-0.5304709;-0.1772853;0;1;-5;3473;-2029;883;65536;0.6820047;0.3753462;-0.4196676;-0.466759;-1;-3;2;3981;-532;-1102;8192;0.6495845;-0.6597553;-0.3628809;-0.1052632;0;1;0;1396;3769;559;32768;0.433518;-0.7793946;0.3836565;-0.2396122;-1;2;-2;3223;2031;1330;256;0.1426593;-0.2146814;-0.6204986;-0.7406361;0;4;-3;253;3962;-767;128;-0.0900277;0.3033241;0.5955678;0.7383688;2;-1;1;-925;3873;1182;4;-0.5941828;0.1648199;-0.4833795;-0.6213899;0;-1;-1;2447;3254;780;16;0.7792924;-0.6218836;0.04155125;-0.06509695;1;-3;0;667;4006;-818;2;0.567867;-0.6181306;-0.4155124;-0.3504155;0;-1;0;513;4070;-9;8;0.3878116;-0.8365307;0.2257618;0.3144044;0;0;0;519;3237;2477;0.455925;2.504984;1.242886;0.461909;3.050282;1.258228;0.4671695;3.529656;1.269691;0.506897;4.249059;1.408773;0.2666436;4.590276;1.433194;-0.08238262;4.45966;1.46868;-0.8735551;4.92425;1.340108;0.05777007;5.038163;1.472223;0.7861971;4.561607;1.433096;1.066439;4.396266;1.468463;1.278316;3.495677;1.737393;0.4580415;3.029557;1.824965;0.1436729;2.463138;1.233955;0.02088633;1.297578;0.3580256;0;0;0;0.1436729;2.463138;1.233955;0.02088633;1.297578;0.3580256;0;0;0
894549.4898;NotLabelled;NONE;16384;-0.5650969;-0.6064948;-0.5304709;-0.1772853;0;2;-4;3451;-2055;881;65536;0.682855;0.3753462;-0.4182825;-0.466759;-2;-3;1;3913;-546;-1184;8192;0.6495845;-0.6597553;-0.3628809;-0.1052632;0;-1;0;1364;3775;545;32768;0.433518;-0.7800748;0.3822715;-0.2396122;-1;1;-2;3269;2043;1272;256;0.1426593;-0.2132964;-0.6204986;-0.7410361;-2;2;-2;173;4042;-819;128;-0.0900277;0.3033241;0.5955678;0.7383688;2;-2;0;-923;3837;1206;4;-0.5941828;0.1648199;-0.4833795;-0.6213899;0;-2;-1;2329;3290;728;16;0.7792924;-0.6218836;0.04155125;-0.06509695;0;-1;0;681;3948;-884;2;0.567867;-0.6181306;-0.4155124;-0.3504155;0;-1;0;349;4078;-13;8;0.3878116;-0.8365307;0.2257618;0.3144044;0;1;0;561;3241;2407;0.4563581;2.504965;1.242942;0.4623422;3.050263;1.258284;0.4676027;3.529637;1.269747;0.5073043;4.24904;1.408837;0.2670462;4.590258;1.433213;-0.08198667;4.459641;1.468633;-0.8745322;4.920171;1.334047;0.056768;5.034083;1.466336;0.7865999;4.561589;1.433212;1.066835;4.396248;1.468632;1.278023;3.496814;1.741934;0.4577326;3.030694;1.829352;0.1441062;2.463119;1.234011;0.02148397;1.297559;0.3580585;0;0;0;0.1441062;2.463119;1.234011;0.02148397;1.297559;0.3580585;0;0;0
894570.4803;NotLabelled;NONE;16384;-0.5650969;-0.6064948;-0.5304709;-0.1772853;0;1;-3;3443;-2021;873;65536;0.6837997;0.3753462;-0.4182825;-0.4653739;-1;-3;1;3891;-518;-1286;8192;0.6495845;-0.6597553;-0.3628809;-0.1052632;-1;0;0;1370;3825;543;32768;0.433518;-0.7800748;0.3822715;-0.2396122;-1;-1;-3;3271;2035;1292;256;0.1426593;-0.2132964;-0.6204986;-0.7410361;-1;1;-2;203;3964;-811;128;-0.09141274;0.3047091;0.5955678;0.7376279;2;-4;0;-941;3839;1178;4;-0.5927978;0.1634349;-0.4833795;-0.6230764;-1;-2;0;2363;3186;672;16;0.7802789;-0.6204986;0.04155125;-0.06648199;0;4;0;609;3960;-948;2;0.567867;-0.6181306;-0.4155124;-0.3504155;1;-1;0;271;4004;-23;8;0.3878116;-0.8365307;0.2257618;0.3144044;0;-1;0;531;3269;2341;0.4591025;2.504966;1.242618;0.4650866;3.050264;1.257959;0.4703472;3.529638;1.269422;0.5087281;4.249115;1.408498;0.2678441;4.589892;1.432867;-0.08094829;4.458636;1.46829;-0.8737914;4.919165;1.335467;0.05791634;5.034907;1.463221;0.7874495;4.562176;1.432867;1.067988;4.397351;1.46829;1.279784;3.497918;1.741122;0.4604098;3.030609;1.830774;0.1468505;2.46312;1.233686;0.02228047;1.297559;0.3580093;0;0;0;0.1468505;2.46312;1.233686;0.02228047;1.297559;0.3580093;0;0;0
894591.7747;NotLabelled;NONE;16384;-0.5650969;-0.6052806;-0.5318559;-0.1772853;0;0;-2;3484;-2100;879;65536;0.6845581;0.3739612;-0.4182825;-0.4653739;-1;-3;0;3949;-554;-1172;8192;0.6495845;-0.6597553;-0.3628809;-0.1052632;0;0;0;1332;3763;457;32768;0.433518;-0.7804989;0.3822715;-0.2382271;0;0;-4;3323;2001;1286;256;0.1426593;-0.2132964;-0.6204986;-0.7410361;0;0;-1;249;3990;-785;128;-0.09141274;0.3047091;0.5955678;0.7376279;0;-2;0;-979;3817;1130;4;-0.5927978;0.1634349;-0.4833795;-0.6230764;0;-1;0;2337;3136;718;16;0.7803514;-0.6204986;0.0401662;-0.06648199;0;2;0;587;3956;-978;2;0.567867;-0.6181306;-0.4155124;-0.3504155;1;-3;0;371;4066;-29;8;0.3878116;-0.8365307;0.2257618;0.3144044;0;3;0;505;3291;2433;0.4578683;2.502872;1.248731;0.4638525;3.048178;1.263769;0.4691131;3.527558;1.274965;0.5074972;4.247036;1.41404;0.2666137;4.587812;1.438415;-0.08217794;4.456556;1.473846;-0.8750265;4.917159;1.341313;0.0564788;5.034672;1.468929;0.7862192;4.560097;1.438402;1.066758;4.395271;1.473819;1.278565;3.495686;1.746141;0.4591941;3.028378;1.835811;0.1456161;2.461021;1.239825;0.02189775;1.296146;0.3631153;0;0;0;0.1456161;2.461021;1.239825;0.02189775;1.296146;0.3631153;0;0;0
894613.4912;NotLabelled;NONE;16384;-0.5650969;-0.6052806;-0.5318559;-0.1772853;0;1;-2;3495;-2114;877;65536;0.6845581;0.3739612;-0.4182825;-0.4653739;-1;-3;0;3956;-527;-1239;8192;0.6495845;-0.6597553;-0.3628809;-0.1052632;-1;1;-1;1348;3789;455;32768;0.433518;-0.7802408;0.3836565;-0.2368421;-1;-1;-2;3387;2023;1286;256;0.1440443;-0.2132964;-0.6204986;-0.7407681;-1;-2;0;247;3988;-803;128;-0.09279778;0.3060942;0.5955678;0.7368812;0;-4;0;-961;3881;1178;4;-0.5927978;0.1634349;-0.4833795;-0.6230764;0;-2;0;2357;3172;758;16;0.7802789;-0.6204986;0.04155125;-0.06648199;0;-1;0;711;3928;-938;2;0.5692521;-0.617786;-0.4141274;-0.3504155;0;-4;0;403;4126;-65;8;0.3878116;-0.8365307;0.2257618;0.3144044;0;0;0;735;3269;2525;0.4551653;2.503241;1.247566;0.4611494;3.048548;1.262604;0.46641;3.527927;1.2738;0.5047909;4.247405;1.412877;0.263907;4.588181;1.437245;-0.08488554;4.456925;1.472668;-0.8786428;4.915727;1.339327;0.05329084;5.031981;1.464948;0.7835122;4.560467;1.437245;1.06405;4.39564;1.472668;1.275846;3.496207;1.7455;0.4574677;3.027548;1.837158;0.1429131;2.46139;1.23866;0.01921536;1.296515;0.3619478;0;0;0;0.1429131;2.46139;1.23866;0.01921536;1.296515;0.3619478;0;0;0
894655.4823;NotLabelled;NONE;16384;-0.5650969;-0.6040608;-0.533241;-0.1772853;1;3;-1;3464;-2021;897;65536;0.6862514;0.3725762;-0.4182825;-0.4639889;-1;-4;0;3837;-435;-1207;8192;0.6509695;-0.6583888;-0.3628809;-0.1052632;-2;0;-2;1256;3777;577;32768;0.433518;-0.7802408;0.3836565;-0.2368421;-3;-2;-2;3285;2003;1474;256;0.1440443;-0.2132964;-0.6204986;-0.7407681;-1;0;0;185;4004;-791;128;-0.09418282;0.3074792;0.5941828;0.7372469;0;-3;0;-967;3899;1152;4;-0.5914127;0.1620499;-0.4847645;-0.623678;-1;-5;0;2427;3240;722;16;0.7802789;-0.6204986;0.04155125;-0.06648199;0;-3;-1;755;3960;-830;2;0.567867;-0.6198413;-0.4141274;-0.3490305;1;-4;2;627;4100;-17;8;0.3878116;-0.8365307;0.2257618;0.3144044;1;-2;0;569;3157;2417;0.455621;2.502877;1.248967;0.4616052;3.048192;1.263697;0.466866;3.527578;1.274623;0.5038295;4.247245;1.413101;0.2622728;4.587564;1.437198;-0.0862577;4.455648;1.472746;-0.8797752;4.914449;1.337985;0.05193245;5.030704;1.465273;0.781932;4.560878;1.437198;1.062797;4.396636;1.472745;1.274105;3.497202;1.745955;0.4558375;3.028372;1.837741;0.143369;2.461021;1.240086;0.02123976;1.296146;0.3631543;0;0;0;0.143369;2.461021;1.240086;0.02123976;1.296146;0.3631543;0;0;0
894676.4834;NotLabelled;NONE;16384;-0.5650969;-0.6040608;-0.533241;-0.1772853;1;2;-2;3412;-2013;841;65536;0.6862514;0.3725762;-0.4182825;-0.4639889;-1;-4;1;3839;-481;-1209;8192;0.6509695;-0.6591503;-0.3614958;-0.1052632;-2;-4;-2;1350;3799;579;32768;0.433518;-0.7802408;0.3836565;-0.2368421;-4;-2;-1;3301;2025;1362;256;0.1454294;-0.2132964;-0.6204986;-0.7404974;0;1;0;181;4074;-711;128;-0.09418282;0.3074792;0.5941828;0.7372469;1;-1;0;-917;3921;1114;4;-0.5914127;0.1606648;-0.4847645;-0.6240362;0;0;0;2375;3238;722;16;0.7792924;-0.6218836;0.04155125;-0.06509695;0;-1;-1;601;4014;-858;2;0.567867;-0.6206192;-0.4141274;-0.3476454;0;-2;1;661;4082;-63;8;0.3878116;-0.8365307;0.2257618;0.3144044;1;2;0;469;3175;2409;0.4592368;2.50317;1.248162;0.4652205;3.048441;1.264463;0.4704808;3.527794;1.27677;0.5074442;4.24746;1.415248;0.2658878;4.58778;1.439345;-0.08264291;4.455864;1.474893;-0.8770877;4.91293;1.339705;0.05484569;5.029682;1.464867;0.7855468;4.561092;1.439345;1.066412;4.396852;1.474892;1.280554;3.497357;1.745681;0.462287;3.028527;1.837467;0.1469851;2.46134;1.239151;0.02123934;1.296147;0.3631546;0;0;0;0.1469851;2.46134;1.239151;0.02123934;1.296147;0.3631546;0;0;0
894696.6351;NotLabelled;NONE;16384;-0.5650969;-0.6040608;-0.533241;-0.1772853;0;2;-2;3386;-2015;903;65536;0.6871858;0.3725762;-0.4182825;-0.4626039;-1;-1;2;3813;-501;-1299;8192;0.6509695;-0.6591503;-0.3614958;-0.1052632;-1;-3;-1;1404;3835;483;32768;0.433518;-0.7806599;0.3836565;-0.2354571;-5;-2;-1;3305;1975;1404;256;0.1454294;-0.2132964;-0.6204986;-0.7404974;0;1;0;139;3982;-773;128;-0.09556787;0.3074792;0.5955678;0.7359499;2;-1;0;-923;3845;1088;4;-0.5914127;0.1606648;-0.4847645;-0.6240362;0;2;1;2309;3202;608;16;0.7792924;-0.6218836;0.04155125;-0.06509695;0;1;0;477;3944;-976;2;0.567867;-0.6206192;-0.4141274;-0.3476454;0;1;1;571;4078;-75;8;0.3878116;-0.8365307;0.2257618;0.3144044;0;0;0;643;3187;2341;0.4588221;2.502694;1.245626;0.4648059;3.047965;1.261927;0.4700662;3.527318;1.274234;0.5056136;4.247171;1.41211;0.2633862;4.587033;1.435933;-0.08488184;4.454458;1.471605;-0.8790675;4.911526;1.334901;0.05264044;5.028276;1.461733;0.7830968;4.561373;1.435933;1.064288;4.397717;1.471605;1.276275;3.497554;1.741868;0.4578449;3.028724;1.832187;0.1465703;2.460864;1.236615;0.0209979;1.297559;0.3580872;0;0;0;0.1465703;2.460864;1.236615;0.0209979;1.297559;0.3580872;0;0;0
894717.4838;NotLabelled;NONE;16384;-0.5650969;-0.6028353;-0.534626;-0.1772853;0;1;-3;3426;-1991;927;65536;0.6871858;0.3725762;-0.4182825;-0.4626039;-1;-1;2;3817;-457;-1255;8192;0.6523545;-0.6585389;-0.3601108;-0.1052632;0;-4;-2;1350;3801;457;32768;0.432133;-0.7811622;0.3850415;-0.234072;-4;0;-1;3365;1865;1368;256;0.1454294;-0.2132964;-0.6204986;-0.7404974;0;3;-1;205;4034;-727;128;-0.09556787;0.3074792;0.5955678;0.7359499;3;0;0;-947;3915;974;4;-0.5914127;0.1620499;-0.4847645;-0.623678;0;2;0;2233;3148;660;16;0.7792924;-0.6218836;0.04155125;-0.06509695;0;4;0;537;3938;-916;2;0.567867;-0.6206192;-0.4141274;-0.3476454;0;2;1;425;4006;-43;8;0.3878116;-0.8365307;0.2257618;0.3144044;0;0;0;541;3295;2369;0.4590193;2.502732;1.245413;0.4650037;3.048066;1.259449;0.4702644;3.527465;1.269765;0.5058337;4.24732;1.407634;0.26361;4.587181;1.431496;-0.08465219;4.454607;1.467224;-0.8788748;4.912236;1.332635;0.05264741;5.030745;1.459201;0.7833207;4.561521;1.431413;1.064517;4.397864;1.467041;1.276578;3.496587;1.733506;0.4591614;3.026406;1.825955;0.146767;2.460865;1.23659;0.02105474;1.297559;0.3580832;0;0;0;0.146767;2.460865;1.23659;0.02105474;1.297559;0.3580832;0;0;0
894758.4831;NotLabelled;NONE;16384;-0.5650969;-0.6028353;-0.534626;-0.1772853;0;0;-3;3424;-2039;849;65536;0.6871858;0.3725762;-0.4182825;-0.4626039;-1;-2;2;3871;-567;-1161;8192;0.6523545;-0.6592944;-0.3587258;-0.1052632;0;-4;-2;1412;3831;453;32768;0.4307479;-0.7819268;0.3850415;-0.234072;-5;0;-2;3305;1967;1460;256;0.1440443;-0.2119114;-0.6204986;-0.7411655;0;5;-1;237;3956;-741;128;-0.09556787;0.3074792;0.5969529;0.7348269;3;-1;0;-933;3859;1110;4;-0.5914127;0.1620499;-0.4847645;-0.623678;0;1;0;2209;3186;676;16;0.7792481;-0.6218836;0.0401662;-0.06648199;0;1;0;705;3892;-860;2;0.567867;-0.6206192;-0.4141274;-0.3476454;0;-1;0;387;4046;-93;8;0.3878116;-0.8365307;0.2257618;0.3144044;0;2;0;579;3177;2353;0.4574251;2.504621;1.24313;0.4634095;3.049954;1.257166;0.4686704;3.529354;1.267481;0.5042176;4.249208;1.405356;0.2619901;4.58907;1.42918;-0.08627784;4.456495;1.464852;-0.8813727;4.911821;1.327628;0.05012935;5.030331;1.454342;0.781701;4.563409;1.429179;1.062892;4.399753;1.464852;1.276048;3.498872;1.731781;0.45835;3.029936;1.827986;0.1451729;2.462754;1.234307;0.02099778;1.29756;0.3580868;0;0;0;0.1451729;2.462754;1.234307;0.02099778;1.29756;0.3580868;0;0;0
894779.4839;NotLabelled;NONE;16384;-0.5637119;-0.6041307;-0.534626;-0.1772853;0;0;-4;3470;-2027;835;65536;0.687935;0.3711911;-0.4182825;-0.4626039;-1;-2;2;3881;-511;-1117;8192;0.6523545;-0.6592944;-0.3587258;-0.1052632;0;-4;-2;1420;3823;477;32768;0.4307479;-0.7826073;0.3836565;-0.234072;-4;0;-3;3243;1997;1460;256;0.1440443;-0.2119114;-0.6204986;-0.7411655;0;4;-2;235;3948;-787;128;-0.09695291;0.3074792;0.5969529;0.7346454;2;-1;0;-891;3907;1098;4;-0.5927978;0.1620499;-0.4847645;-0.6223617;0;0;0;2325;3272;778;16;0.7792481;-0.6218836;0.0401662;-0.06648199;0;0;0;705;3926;-850;2;0.567867;-0.6206192;-0.4141274;-0.3476454;0;0;0;515;4018;-115;8;0.3878116;-0.8365307;0.2257618;0.3144044;0;-1;0;573;3243;2451;0.4617151;2.504669;1.242354;0.4677;3.050048;1.254505;0.4729611;3.529481;1.263163;0.5086037;4.249217;1.401628;0.2664227;4.589092;1.42572;-0.08186507;4.456537;1.46127;-0.8774868;4.911864;1.327133;0.05451638;5.030373;1.450106;0.7861301;4.563359;1.425719;1.067296;4.399635;1.461269;1.279846;3.49809;1.72644;0.4620059;3.03058;1.828228;0.1494624;2.462772;1.233688;0.02177036;1.297578;0.357973;0;0;0;0.1494624;2.462772;1.233688;0.02177036;1.297578;0.357973;0;0;0
894799.483;NotLabelled;NONE;16384;-0.5637119;-0.6029022;-0.536011;-0.1772853;0;2;-3;3452;-2099;875;65536;0.6897035;0.3711911;-0.4168975;-0.4612188;-1;-3;2;3943;-533;-1119;8192;0.6523545;-0.6602655;-0.3573407;-0.1038781;2;-3;-1;1472;3775;453;32768;0.4307479;-0.7830203;0.3836565;-0.232687;-3;0;-3;3337;2005;1372;256;0.1440443;-0.2119114;-0.6204986;-0.7411655;2;1;0;193;4012;-805;128;-0.09695291;0.3088643;0.5969529;0.7340642;3;-2;0;-991;3907;1114;4;-0.5927978;0.1620499;-0.4847645;-0.6223617;-2;0;0;2375;3286;750;16;0.7791755;-0.6218836;0.04155125;-0.06648199;0;-1;0;829;3972;-790;2;0.567867;-0.6206192;-0.4141274;-0.3476454;0;0;0;513;4152;-7;8;0.3878116;-0.8365307;0.2257618;0.3144044;0;0;0;453;3215;2433;0.464001;2.503465;1.243595;0.469986;3.048852;1.25536;0.4752473;3.528291;1.26368;0.5108934;4.248027;1.402144;0.2687133;4.587903;1.426242;-0.07957375;4.455347;1.461802;-0.8758267;4.910574;1.331117;0.05660355;5.027806;1.45206;0.7884206;4.56217;1.426228;1.069588;4.398445;1.46177;1.282185;3.496713;1.726265;0.4650694;3.028034;1.828485;0.1517483;2.461562;1.234961;0.02178018;1.297578;0.3579723;0;0;0;0.1517483;2.461562;1.234961;0.02178018;1.297578;0.3579723;0;0;0
894821.7068;NotLabelled;NONE;16384;-0.5637119;-0.6016679;-0.5373961;-0.1772853;1;3;-2;3404;-2005;879;65536;0.6906276;0.3711911;-0.4168975;-0.4598338;-1;-5;1;3823;-519;-1249;8192;0.6523545;-0.6602655;-0.3573407;-0.1038781;2;-1;0;1424;3899;527;32768;0.4293629;-0.7841904;0.3836565;-0.2313019;-2;1;-2;3341;2065;1360;256;0.1440443;-0.2105263;-0.6204986;-0.7415601;-4;0;0;197;3976;-755;128;-0.09833795;0.3088643;0.5969529;0.7338799;2;-1;0;-1009;3887;1098;4;-0.5914127;0.1606648;-0.4847645;-0.6240362;0;-2;0;2329;3218;660;16;0.7791755;-0.6218836;0.04155125;-0.06648199;0;-2;-1;539;3972;-946;2;0.567867;-0.621393;-0.4141274;-0.3462604;0;-4;0;489;4090;73;8;0.3878116;-0.8365307;0.2257618;0.3144044;0;-2;0;585;3245;2465;0.4666317;2.503094;1.244771;0.4726168;3.04848;1.256602;0.477878;3.527918;1.264979;0.5135199;4.247654;1.403445;0.2713389;4.587529;1.427535;-0.07694918;4.454974;1.463084;-0.8741024;4.908353;1.331464;0.05820334;5.029138;1.449848;0.791046;4.561796;1.427537;1.072212;4.398071;1.463089;1.284375;3.496581;1.728752;0.46828;3.026558;1.832934;0.1543792;2.461192;1.236131;0.02443935;1.297208;0.3591383;0;0;0;0.1543792;2.461192;1.236131;0.02443935;1.297208;0.3591383;0;0;0
894861.6657;NotLabelled;NONE;16384;-0.5637119;-0.601258;-0.5373961;-0.1786704;2;3;-2;3432;-2005;867;65536;0.6913702;0.3698061;-0.4168975;-0.4598338;0;-4;1;3891;-461;-1231;8192;0.6523545;-0.6600461;-0.3573407;-0.1052632;1;-1;-1;1348;3875;517;32768;0.4293629;-0.7841904;0.3836565;-0.2313019;-2;0;-1;3341;2075;1394;256;0.1440443;-0.2105263;-0.6218836;-0.740399;-1;0;-1;131;4086;-755;128;-0.09833795;0.3102493;0.5969529;0.7332954;2;0;0;-931;3965;1098;4;-0.5914127;0.1606648;-0.4847645;-0.6240362;0;-1;0;2377;3240;644;16;0.7792924;-0.6218836;0.04155125;-0.06509695;0;-2;0;565;3950;-914;2;0.567867;-0.621393;-0.4141274;-0.3462604;0;-2;0;507;4118;-133;8;0.3878116;-0.8356336;0.2271468;0.3157895;0;-1;0;589;3251;2335;0.4685399;2.502422;1.245418;0.4745249;3.047816;1.25686;0.4797863;3.527259;1.264895;0.5141084;4.247062;1.403348;0.2713042;4.586493;1.427434;-0.07673979;4.453301;1.462986;-0.8750913;4.904949;1.332687;0.0572629;5.027477;1.448876;0.7910578;4.561714;1.427433;1.072524;4.398506;1.462986;1.285278;3.496984;1.728067;0.4699289;3.027057;1.838345;0.1562871;2.460514;1.236811;0.02523871;1.297208;0.3590828;0;0;0;0.1562871;2.460514;1.236811;0.02523871;1.297208;0.3590828;0;0;0
894882.4895;NotLabelled;NONE;16384;-0.5637119;-0.6016679;-0.5373961;-0.1772853;2;2;-3;3418;-2075;867;65536;0.6913702;0.3698061;-0.4168975;-0.4598338;0;-5;1;3885;-423;-1221;8192;0.6523545;-0.6600461;-0.3573407;-0.1052632;1;-2;-2;1318;3787;515;32768;0.4293629;-0.7845976;0.3836565;-0.2299169;-4;0;-2;3261;2023;1482;256;0.1440443;-0.2091413;-0.6218836;-0.7407914;-2;3;0;285;4020;-747;128;-0.09972299;0.3102493;0.5983379;0.7319784;1;0;0;-865;3941;1202;4;-0.5914127;0.1606648;-0.4847645;-0.6240362;0;0;0;2391;3230;716;16;0.7792924;-0.6218836;0.04155125;-0.06509695;0;1;0;429;3888;-872;2;0.567867;-0.6223139;-0.4127424;-0.3462604;1;-1;0;475;4050;-117;8;0.3878116;-0.8356336;0.2271468;0.3157895;0;0;0;627;3225;2333;0.4666281;2.502772;1.244278;0.4726131;3.048165;1.255785;0.4778744;3.527607;1.263878;0.512881;4.247857;1.399809;0.270393;4.587594;1.422749;-0.07776725;4.454844;1.458824;-0.8769054;4.904686;1.327104;0.0558728;5.025923;1.441221;0.7901236;4.562336;1.422748;1.071446;4.398995;1.458824;1.282996;3.496793;1.722551;0.4676555;3.026866;1.832893;0.1543755;2.460864;1.235665;0.0232584;1.297559;0.3579475;0;0;0;0.1543755;2.460864;1.235665;0.0232584;1.297559;0.3579475;0;0;0
894903.4786;NotLabelled;NONE;16384;-0.5637119;-0.6000172;-0.5387812;-0.1786704;3;2;-3;3422;-2059;885;65536;0.6914535;0.3698061;-0.4182825;-0.4584487;0;-5;1;3917;-489;-1195;8192;0.6523545;-0.6607941;-0.3559557;-0.1052632;1;-4;-3;1284;3807;549;32768;0.4279778;-0.785354;0.3836565;-0.2299169;-5;0;-2;3259;2009;1298;256;0.1440443;-0.2091413;-0.6218836;-0.7407914;-1;2;-1;213;3994;-711;128;-0.09972299;0.3102493;0.5983379;0.7319784;0;1;0;-873;3913;1152;4;-0.5914127;0.1606648;-0.4847645;-0.6240362;-1;2;0;2403;3160;604;16;0.7792924;-0.6218836;0.04155125;-0.06509695;0;1;0;685;3922;-860;2;0.567867;-0.621393;-0.4141274;-0.3462604;0;0;0;547;4034;27;8;0.3878116;-0.8356336;0.2271468;0.3157895;0;0;0;529;3241;2463;0.469368;2.502807;1.243743;0.4753534;3.048243;1.25297;0.4806151;3.527715;1.259059;0.5142981;4.248031;1.394978;0.2711862;4.587321;1.417912;-0.07672948;4.453934;1.453991;-0.8753778;4.905582;1.325524;0.0576514;5.026818;1.437574;0.7909621;4.563019;1.417912;1.072584;4.400196;1.45399;1.284717;3.497994;1.717249;0.4706709;3.026728;1.831374;0.1571149;2.460864;1.235319;0.02405198;1.297559;0.357895;0;0;0;0.1571149;2.460864;1.235319;0.02405198;1.297559;0.357895;0;0;0
894923.7186;NotLabelled;NONE;16384;-0.5637119;-0.6000172;-0.5387812;-0.1786704;3;1;-3;3486;-2021;863;65536;0.6923698;0.3698061;-0.4182825;-0.4570637;0;-3;1;3827;-491;-1427;8192;0.6523545;-0.6607941;-0.3559557;-0.1052632;0;-5;-3;1382;3825;485;32768;0.4279778;-0.785354;0.3836565;-0.2299169;-5;0;-2;3331;2035;1314;256;0.1426593;-0.2091413;-0.6218836;-0.7410594;-2;2;-1;231;4006;-769;128;-0.09972299;0.3102493;0.5983379;0.7319784;0;1;0;-971;3903;1060;4;-0.5914127;0.1606648;-0.4847645;-0.6240362;0;2;0;2445;3244;690;16;0.7792924;-0.6218836;0.04155125;-0.06509695;0;0;1;667;3972;-898;2;0.567867;-0.621393;-0.4141274;-0.3462604;0;-1;0;499;4072;-59;8;0.3878116;-0.8356336;0.2271468;0.3157895;0;0;0;555;3301;2447;0.469368;2.502807;1.243743;0.4753534;3.048243;1.25297;0.4806151;3.527715;1.259059;0.5142981;4.248031;1.394978;0.2711862;4.587321;1.417912;-0.07672948;4.453934;1.453991;-0.8770605;4.902019;1.323532;0.05568933;5.023204;1.437938;0.7909621;4.563019;1.417912;1.072584;4.400196;1.45399;1.283071;3.49734;1.716328;0.4685143;3.027521;1.832748;0.1571149;2.460864;1.235319;0.02405198;1.297559;0.357895;0;0;0;0.1571149;2.460864;1.235319;0.02405198;1.297559;0.357895;0;0;0
894944.4756;NotLabelled;NONE;16384;-0.5637119;-0.6000172;-0.5387812;-0.1786704;3;2;-1;3460;-1957;845;65536;0.6923698;0.3698061;-0.4182825;-0.4570637;1;-2;0;3827;-525;-1409;8192;0.6523545;-0.6615383;-0.3545706;-0.1052632;0;-2;-2;1406;3819;457;32768;0.4265928;-0.7865109;0.3836565;-0.2285319;-4;0;-1;3369;2001;1494;256;0.1426593;-0.2091413;-0.6232687;-0.7398949;-1;1;-1;259;4002;-789;128;-0.09972299;0.3102493;0.5983379;0.7319784;1;1;1;-1007;3867;1044;4;-0.5927978;0.1606648;-0.4847645;-0.6227207;1;2;0;2405;3248;684;16;0.7792924;-0.6218836;0.04155125;-0.06509695;0;3;1;631;3978;-870;2;0.567867;-0.621393;-0.4141274;-0.3462604;1;2;0;567;4102;-1;8;0.3878116;-0.8356336;0.2271468;0.3157895;0;1;0;487;3233;2449;0.4715851;2.502808;1.243458;0.4775706;3.048244;1.252685;0.4828323;3.527716;1.258774;0.5179344;4.247851;1.395289;0.275493;4.587603;1.418494;-0.07268715;4.454874;1.454448;-0.8732507;4.902959;1.325426;0.05948985;5.025884;1.438038;0.7952201;4.562273;1.418494;1.076518;4.398864;1.454449;1.287475;3.496007;1.716409;0.4731283;3.026188;1.834291;0.159332;2.460865;1.235034;0.02469435;1.297559;0.3578506;0;0;0;0.159332;2.460865;1.235034;0.02469435;1.297559;0.3578506;0;0;0
894964.4951;NotLabelled;NONE;16384;-0.5650969;-0.5974637;-0.5401662;-0.1786704;3;0;-1;3400;-1979;895;65536;0.6932821;0.3698061;-0.4182825;-0.4556787;1;-2;0;3805;-551;-1285;8192;0.6537396;-0.6601696;-0.3545706;-0.1052632;0;-1;-3;1378;3865;439;32768;0.4265928;-0.7865109;0.3836565;-0.2285319;-4;0;-2;3263;1989;1506;256;0.1426593;-0.2091413;-0.6232687;-0.7398949;-2;1;-1;235;3968;-787;128;-0.09972299;0.3102493;0.5983379;0.7319784;0;3;1;-915;3871;1092;4;-0.5927978;0.1620499;-0.4847645;-0.6223617;1;3;0;2329;3184;734;16;0.7791755;-0.6218836;0.04155125;-0.06648199;0;2;0;679;3946;-942;2;0.567867;-0.6206192;-0.4141274;-0.3476454;0;3;0;617;4154;5;8;0.3878116;-0.8361557;0.2271468;0.3144044;0;2;1;563;3161;2517;0.473939;2.501593;1.244707;0.4799245;3.047029;1.253934;0.4851861;3.526501;1.260022;0.5209689;4.247077;1.39401;0.2788418;4.587129;1.416067;-0.06945312;4.454845;1.452545;-0.8700272;4.90293;1.323587;0.06272233;5.025854;1.436124;0.7985454;4.561325;1.416067;1.0797;4.397785;1.452545;1.289032;3.49428;1.713571;0.4752544;3.02458;1.835779;0.161686;2.45965;1.236283;0.02472304;1.297559;0.3578494;0;0;0;0.161686;2.45965;1.236283;0.02472304;1.297559;0.3578494;0;0;0
894984.506;NotLabelled;NONE;16384;-0.5650969;-0.5982979;-0.5387812;-0.1800554;3;0;-1;3438;-1997;901;65536;0.6924446;0.3698061;-0.4196676;-0.4556787;2;-2;0;3891;-539;-1307;8192;0.6537396;-0.6609116;-0.3531856;-0.1052632;0;-2;-3;1368;3909;369;32768;0.4265928;-0.7869121;0.3836565;-0.2271468;-4;1;-3;3293;2017;1456;256;0.1426593;-0.2077562;-0.6232687;-0.740285;0;2;-2;153;4012;-767;128;-0.09972299;0.3088643;0.5983379;0.7325639;0;4;2;-997;3901;1056;4;-0.5927978;0.1620499;-0.4847645;-0.6223617;0;2;0;2301;3146;638;16;0.7791755;-0.6218836;0.04155125;-0.06648199;0;0;0;683;3936;-932;2;0.567867;-0.6196927;-0.4155124;-0.3476454;-1;4;0;541;4044;53;8;0.3878116;-0.8356336;0.2271468;0.3157895;0;0;0;617;3245;2501;0.4745372;2.503135;1.243542;0.4805228;3.048571;1.252769;0.4857844;3.528043;1.258857;0.5215676;4.248619;1.392845;0.2794402;4.588672;1.414902;-0.06885469;4.456388;1.451381;-0.8697499;4.902876;1.318928;0.0627839;5.027537;1.431345;0.7991439;4.562867;1.414901;1.080299;4.399327;1.45138;1.292403;3.495766;1.709961;0.4786251;3.026066;1.83217;0.1622841;2.461192;1.235118;0.02673651;1.297208;0.3589746;0;0;0;0.1622841;2.461192;1.235118;0.02673651;1.297208;0.3589746;0;0;0
895007.1287;NotLabelled;NONE;16384;-0.5650969;-0.5982979;-0.5387812;-0.1800554;3;0;0;3460;-2013;837;65536;0.6924446;0.3698061;-0.4196676;-0.4556787;2;-2;0;3853;-549;-1231;8192;0.6537396;-0.6609116;-0.3531856;-0.1052632;2;-2;-2;1412;3849;405;32768;0.4252077;-0.7876613;0.3836565;-0.2271468;-3;2;-3;3255;2055;1430;256;0.1426593;-0.2077562;-0.6232687;-0.740285;1;3;-3;221;4044;-747;128;-0.09972299;0.3088643;0.5983379;0.7325639;1;3;1;-911;3915;1096;4;-0.5927978;0.1620499;-0.4847645;-0.6223617;0;2;0;2313;3210;716;16;0.7791755;-0.6218836;0.04155125;-0.06648199;0;0;0;551;3970;-924;2;0.567867;-0.6196927;-0.4155124;-0.3476454;0;-1;0;433;4076;-49;8;0.3878116;-0.8356336;0.2271468;0.3157895;0;0;0;649;3239;2323;0.47727;2.503136;1.243174;0.4832555;3.048573;1.252337;0.4885172;3.528046;1.258369;0.5229743;4.248689;1.392345;0.2802216;4.588295;1.414396;-0.06782931;4.455371;1.450877;-0.8688824;4.901811;1.319216;0.06383759;5.024689;1.43205;0.7999721;4.563447;1.414396;1.081428;4.400426;1.450877;1.292452;3.496217;1.708074;0.4800182;3.025186;1.834047;0.1650168;2.461192;1.234756;0.02753076;1.297208;0.3589146;0;0;0;0.1650168;2.461192;1.234756;0.02753076;1.297208;0.3589146;0;0;0
895027.4776;NotLabelled;NONE;16384;-0.5650969;-0.5966283;-0.5401662;-0.1814404;4;0;-1;3464;-2025;877;65536;0.6933541;0.3698061;-0.4196676;-0.4542936;2;-4;0;3845;-559;-1275;8192;0.6537396;-0.6609116;-0.3531856;-0.1052632;2;-1;-1;1472;3893;455;32768;0.4252077;-0.7880595;0.3836565;-0.2257618;-1;2;-3;3265;2121;1370;256;0.1440443;-0.2063712;-0.6232687;-0.7404042;-2;6;-2;293;3960;-751;128;-0.09833795;0.3074792;0.5983379;0.7333334;1;3;2;-935;3951;1076;4;-0.5927978;0.1620499;-0.4833795;-0.623438;0;2;0;2375;3188;742;16;0.7791755;-0.6218836;0.04155125;-0.06648199;0;1;1;557;3954;-872;2;0.567867;-0.6196927;-0.4155124;-0.3476454;0;-1;0;433;4076;-49;8;0.3878116;-0.8356336;0.2271468;0.3157895;0;0;0;649;3239;2323;0.47727;2.503136;1.243174;0.4832555;3.048573;1.252337;0.4885172;3.528046;1.258369;0.5229743;4.248689;1.392345;0.2802216;4.588295;1.414396;-0.06782931;4.455371;1.450877;-0.8688824;4.901811;1.319216;0.06383759;5.024689;1.43205;0.7999721;4.563447;1.414396;1.081428;4.400426;1.450877;1.292452;3.496217;1.708074;0.4795299;3.026648;1.836334;0.1650168;2.461192;1.234756;0.02753076;1.297208;0.3589146;0;0;0;0.1650168;2.461192;1.234756;0.02753076;1.297208;0.3589146;0;0;0
895047.6856;NotLabelled;NONE;16384;-0.5650969;-0.5966283;-0.5401662;-0.1814404;4;0;-2;3476;-1961;887;65536;0.6934205;0.3698061;-0.4210526;-0.4529086;2;-4;0;3851;-553;-1281;8192;0.6523545;-0.6622788;-0.3531856;-0.1052632;2;0;0;1354;3833;473;32768;0.4252077;-0.7887322;0.3822715;-0.2257618;0;3;-2;3209;2025;1384;256;0.1440443;-0.2063712;-0.6232687;-0.7404042;0;-3;-4;105;4018;-615;128;-0.09833795;0.3074792;0.599723;0.7322012;1;2;1;-881;3877;1124;4;-0.5941828;0.1620499;-0.4833795;-0.6221181;0;2;0;2295;3210;732;16;0.7792481;-0.6218836;0.0401662;-0.06648199;0;5;1;585;3962;-872;2;0.567867;-0.6206192;-0.4141274;-0.3476454;0;0;0;355;4048;17;8;0.3878116;-0.8356336;0.2271468;0.3157895;0;1;0;513;3215;2401;0.4733268;2.502131;1.245148;0.4793124;3.047563;1.254638;0.4845739;3.527032;1.260957;0.5162862;4.247913;1.394326;0.2722405;4.586609;1.416102;-0.0752995;4.452389;1.452708;-0.8780767;4.89523;1.319405;0.05447322;5.019848;1.431735;0.7920818;4.563745;1.416101;1.074159;4.401829;1.452708;1.285293;3.49762;1.709814;0.4735059;3.026723;1.84037;0.1610737;2.460192;1.236702;0.02767877;1.297208;0.3589025;0;0;0;0.1610737;2.460192;1.236702;0.02767877;1.297208;0.3589025;0;0;0
895068.482;NotLabelled;NONE;16384;-0.566482;-0.5953134;-0.5401662;-0.1814404;5;0;-2;3470;-1953;941;65536;0.6934205;0.3698061;-0.4210526;-0.4529086;1;-4;1;3861;-549;-1315;8192;0.6523545;-0.6622788;-0.3531856;-0.1052632;2;0;0;1328;3823;483;32768;0.4252077;-0.789402;0.3808864;-0.2257618;0;2;-3;3157;2065;1388;256;0.1426593;-0.2063712;-0.6232687;-0.7406723;-2;5;-2;121;3994;-823;128;-0.09833795;0.3074792;0.599723;0.7322012;0;2;1;-925;3889;1046;4;-0.5941828;0.1620499;-0.4833795;-0.6221181;1;2;0;2273;3236;706;16;0.7791287;-0.6218836;0.0401662;-0.06786703;0;6;1;683;3930;-850;2;0.567867;-0.6206192;-0.4141274;-0.3476454;0;-1;0;385;4020;-79;8;0.3878116;-0.8356336;0.2271468;0.3157895;0;1;0;605;3267;2397;0.4729058;2.50132;1.245105;0.4788916;3.046781;1.252705;0.4841534;3.526269;1.257362;0.5158654;4.24715;1.390731;0.2718198;4.585847;1.412507;-0.07572001;4.451626;1.449113;-0.8784794;4.894467;1.315702;0.05378789;5.019043;1.4304;0.7916611;4.562981;1.412506;1.073738;4.401066;1.449113;1.282077;3.496917;1.708699;0.4710139;3.024886;1.839658;0.1606524;2.459351;1.236817;0.02499758;1.297578;0.3577616;0;0;0;0.1606524;2.459351;1.236817;0.02499758;1.297578;0.3577616;0;0;0
895089.4977;NotLabelled;NONE;16384;-0.566482;-0.5953134;-0.5401662;-0.1814404;4;0;-1;3472;-1987;971;65536;0.6943231;0.3698061;-0.4210526;-0.4515235;1;-3;1;3887;-499;-1341;8192;0.6523545;-0.6622788;-0.3531856;-0.1052632;1;0;0;1308;3803;527;32768;0.4252077;-0.789402;0.3808864;-0.2257618;1;0;-4;3299;2155;1296;256;0.1440443;-0.2049861;-0.6232687;-0.7407888;-6;-1;-1;233;4344;-845;128;-0.09833795;0.3074792;0.599723;0.7322012;0;1;0;-1001;3855;1088;4;-0.5941828;0.1634349;-0.4833795;-0.6217557;0;0;0;2355;3270;760;16;0.7791287;-0.6218836;0.0401662;-0.06786703;0;3;1;867;3928;-792;2;0.567867;-0.6206192;-0.4141274;-0.3476454;0;-2;0;471;4136;-25;8;0.3878116;-0.8356336;0.2271468;0.3157895;0;-2;0;653;3235;2511;0.4771505;2.50097;1.245929;0.4831363;3.046432;1.253529;0.488398;3.525919;1.258187;0.5215301;4.246626;1.39215;0.2781534;4.585787;1.414197;-0.06965238;4.452223;1.45068;-0.8720853;4.895213;1.315809;0.06038713;5.01979;1.428827;0.7979485;4.561894;1.414196;1.079703;4.399392;1.450679;1.288539;3.495243;1.709867;0.478439;3.022079;1.842687;0.1648972;2.459002;1.237641;0.02765977;1.297228;0.3588321;0;0;0;0.1648972;2.459002;1.237641;0.02765977;1.297228;0.3588321;0;0;0
895111.6581;NotLabelled;NONE;16384;-0.566482;-0.5948895;-0.5401662;-0.1828255;3;1;-1;3486;-1957;995;65536;0.6943231;0.3698061;-0.4210526;-0.4515235;2;-3;1;3985;-511;-1419;8192;0.6523545;-0.6620572;-0.3531856;-0.1066482;1;-1;0;1360;3823;467;32768;0.4265928;-0.7890496;0.3808864;-0.2243767;0;1;-4;3347;2047;1494;256;0.1440443;-0.2049861;-0.6232687;-0.7407888;1;0;-2;193;3714;-675;128;-0.09972299;0.3060942;0.599723;0.7325941;3;0;0;-913;3887;1068;4;-0.5941828;0.1634349;-0.4833795;-0.6217557;0;0;-1;2393;3312;776;16;0.7790068;-0.6218836;0.0401662;-0.06925207;0;1;1;677;3928;-790;2;0.567867;-0.6206192;-0.4141274;-0.3476454;0;0;1;619;4174;-23;8;0.3878116;-0.8356336;0.2271468;0.3157895;0;2;0;565;3261;2559;0.4762406;2.502866;1.243572;0.4822264;3.048327;1.251172;0.487488;3.527815;1.25583;0.5178747;4.248755;1.389188;0.2732064;4.587003;1.410959;-0.07408595;4.452143;1.447568;-0.8765744;4.895133;1.313026;0.05572528;5.021447;1.425541;0.7930889;4.565094;1.410958;1.075463;4.403697;1.447567;1.284405;3.499549;1.706668;0.4743596;3.026386;1.839821;0.1639871;2.460897;1.235284;0.02780659;1.297228;0.3588214;0;0;0;0.1639871;2.460897;1.235284;0.02780659;1.297228;0.3588214;0;0;0
895131.7035;NotLabelled;NONE;16384;-0.566482;-0.5948895;-0.5401662;-0.1828255;4;2;-1;3548;-1933;951;65536;0.6952219;0.3698061;-0.4210526;-0.4501385;1;-3;1;3727;-585;-1271;8192;0.6523545;-0.6620572;-0.3531856;-0.1066482;1;0;0;1300;3819;469;32768;0.4265928;-0.7890496;0.3808864;-0.2243767;-1;-1;-2;3403;2019;1478;256;0.1440443;-0.2049861;-0.6246537;-0.7396213;-6;2;0;249;4044;-771;128;-0.09972299;0.3060942;0.599723;0.7325941;-1;0;0;-911;3977;1096;4;-0.5927978;0.1634349;-0.4847645;-0.6219994;0;0;-2;2305;3210;610;16;0.7790068;-0.6218836;0.0401662;-0.06925207;0;0;0;663;3920;-954;2;0.567867;-0.6206192;-0.4141274;-0.3476454;0;0;2;575;4152;-79;8;0.3878116;-0.8356336;0.2271468;0.3157895;1;4;0;591;3223;2461;0.4782596;2.502518;1.24465;0.4842454;3.047985;1.251797;0.4895072;3.527477;1.256057;0.5198936;4.248417;1.389415;0.2752256;4.586665;1.411187;-0.07206666;4.451806;1.447796;-0.8753092;4.892964;1.311745;0.05699021;5.019279;1.42426;0.7951082;4.564756;1.411186;1.077482;4.40336;1.447795;1.285179;3.498545;1.705567;0.4767137;3.022594;1.838387;0.166006;2.460543;1.2364;0.02982508;1.296874;0.3599371;0;0;0;0.166006;2.460543;1.2364;0.02982508;1.296874;0.3599371;0;0;0
895152.4946;NotLabelled;NONE;16384;-0.567867;-0.5935675;-0.5401662;-0.1828255;2;0;-2;3488;-1975;1041;65536;0.6952771;0.3698061;-0.4224377;-0.4487534;0;-4;0;3929;-615;-1353;8192;0.6523545;-0.6620572;-0.3531856;-0.1066482;0;0;-1;1350;3849;485;32768;0.4265928;-0.7890496;0.3808864;-0.2243767;0;-1;0;3299;2095;1354;256;0.1440443;-0.2049861;-0.6246537;-0.7396213;-3;1;-1;109;4112;-855;128;-0.09972299;0.3074792;0.599723;0.7320138;0;0;0;-933;3953;1106;4;-0.5927978;0.1634349;-0.4847645;-0.6219994;1;0;-4;2289;3256;740;16;0.7790068;-0.6218836;0.0401662;-0.06925207;2;5;1;463;3998;-810;2;0.566482;-0.6226559;-0.4141274;-0.3462604;0;-1;6;537;4220;-51;8;0.3878116;-0.8356336;0.2271468;0.3157895;6;1;0;587;3263;2691;0.480529;2.504721;1.241363;0.4865148;3.050188;1.24851;0.4917766;3.52968;1.25277;0.5228354;4.251056;1.383594;0.2784765;4.5896;1.404215;-0.06893206;4.455184;1.441348;-0.8721875;4.896342;1.305374;0.05989796;5.024392;1.417702;0.7983392;4.56722;1.404215;1.080572;4.405698;1.441348;1.288295;3.500882;1.699101;0.4798376;3.024932;1.831977;0.1682755;2.462746;1.233113;0.02985004;1.296874;0.3599351;0;0;0;0.1682755;2.462746;1.233113;0.02985004;1.296874;0.3599351;0;0;0
895173.5965;NotLabelled;NONE;16384;-0.567867;-0.5918748;-0.5415512;-0.1842105;3;0;-1;3536;-1995;1019;65536;0.6952771;0.3698061;-0.4224377;-0.4487534;0;-3;0;3909;-597;-1389;8192;0.6523545;-0.6620572;-0.3531856;-0.1066482;0;0;-1;1366;3891;497;32768;0.4265928;-0.7890496;0.3808864;-0.2243767;0;-1;-1;3259;2145;1430;256;0.1440443;-0.2036011;-0.6246537;-0.7400038;-3;0;0;161;4044;-721;128;-0.09972299;0.3074792;0.599723;0.7320138;0;0;0;-967;3935;1142;4;-0.5927978;0.1648199;-0.4847645;-0.6216338;1;0;-4;2293;3250;670;16;0.7788824;-0.6218836;0.0401662;-0.07063711;2;6;2;605;3958;-818;2;0.566482;-0.6225019;-0.4155124;-0.3448753;1;-3;8;461;4224;-27;8;0.3891967;-0.8349894;0.2271468;0.3157895;7;7;-1;569;3373;2499;0.480529;2.50472;1.241369;0.4865148;3.050187;1.248578;0.4917766;3.529678;1.252893;0.5228354;4.251054;1.383718;0.2784766;4.589597;1.404339;-0.06893224;4.455181;1.441472;-0.8716007;4.896474;1.3025;0.06020039;5.024488;1.4172;0.7983392;4.567217;1.404338;1.080573;4.405695;1.441471;1.288296;3.50088;1.699223;0.4798386;3.02493;1.8321;0.1682755;2.462746;1.233113;0.02985013;1.296874;0.3599352;0;0;0;0.1682755;2.462746;1.233113;0.02985013;1.296874;0.3599352;0;0;0
895194.4854;NotLabelled;NONE;16384;-0.567867;-0.5918748;-0.5415512;-0.1842105;3;1;-1;3610;-1987;1061;65536;0.6952771;0.3698061;-0.4224377;-0.4487534;0;-3;0;3925;-643;-1393;8192;0.6523545;-0.6620572;-0.3531856;-0.1066482;0;0;-1;1382;3881;475;32768;0.4265928;-0.7890496;0.3808864;-0.2243767;-1;-1;-1;3293;2087;1570;256;0.1454294;-0.2049861;-0.6260388;-0.7381778;-8;5;0;397;3976;-741;128;-0.09972299;0.3074792;0.599723;0.7320138;-2;-3;0;-985;3995;938;4;-0.5914127;0.1648199;-0.4861496;-0.6218714;0;0;-5;2195;3308;656;16;0.7788824;-0.6218836;0.0401662;-0.07063711;2;2;2;709;3982;-800;2;0.566482;-0.6232672;-0.4155124;-0.3434903;3;-4;6;677;4106;-21;8;0.3905817;-0.8348653;0.2271468;0.3144044;6;1;-1;713;3241;2207;0.483855;2.506246;1.23981;0.4898408;3.051713;1.24702;0.4951027;3.531204;1.251335;0.5248326;4.252637;1.382149;0.2798505;4.59073;1.402766;-0.06730986;4.455675;1.4399;-0.8722379;4.893327;1.302489;0.05981386;5.02134;1.415134;0.7997533;4.569308;1.402765;1.082284;4.408307;1.4399;1.291141;3.503492;1.696734;0.4829791;3.027542;1.831393;0.1716017;2.464272;1.231555;0.03266451;1.296516;0.3609794;0;0;0;0.1716017;2.464272;1.231555;0.03266451;1.296516;0.3609794;0;0;0
895215.4931;NotLabelled;NONE;16384;-0.567867;-0.5918748;-0.5415512;-0.1842105;2;0;-1;3546;-1997;1069;65536;0.6961691;0.3698061;-0.4224377;-0.4473684;0;-2;0;3867;-639;-1413;8192;0.6523545;-0.6620572;-0.3531856;-0.1066482;0;0;-1;1304;3853;541;32768;0.4265928;-0.7894421;0.3808864;-0.2229917;-3;0;0;3297;2035;1598;256;0.1454294;-0.2049861;-0.6260388;-0.7381778;-3;-3;1;183;4044;-713;128;-0.101108;0.3074792;0.599723;0.7318237;1;-3;0;-901;3997;1080;4;-0.5914127;0.166205;-0.4861496;-0.6215026;0;2;-5;2271;3262;658;16;0.7787555;-0.6218836;0.0401662;-0.07202215;3;5;3;631;3986;-784;2;0.5650969;-0.6245232;-0.4155124;-0.3434903;0;-2;5;679;3966;-81;8;0.3905817;-0.8343424;0.2271468;0.3157895;6;-2;-1;521;3141;2349;0.4811829;2.508436;1.23719;0.4871688;3.053902;1.2444;0.4924304;3.533393;1.248715;0.5227469;4.255363;1.3764;0.2780323;4.593733;1.395597;-0.06922662;4.459112;1.433378;-0.8732942;4.896762;1.291019;0.05830598;5.024776;1.407339;0.7979182;4.571905;1.395597;1.08033;4.410846;1.433378;1.287603;3.50603;1.691491;0.4789165;3.03008;1.822961;0.1689295;2.466462;1.228935;0.03124027;1.296516;0.3611055;0;0;0;0.1689295;2.466462;1.228935;0.03124027;1.296516;0.3611055;0;0;0
895236.5248;NotLabelled;NONE;16384;-0.567867;-0.5918748;-0.5415512;-0.1842105;1;1;0;3540;-1975;1075;65536;0.6953267;0.3698061;-0.4238227;-0.4473684;0;-2;0;3853;-565;-1369;8192;0.6523545;-0.6620572;-0.3531856;-0.1066482;0;-2;0;1260;3823;487;32768;0.4252077;-0.790189;0.3808864;-0.2229917;-3;0;0;3241;2053;1544;256;0.1468144;-0.2049861;-0.6260388;-0.7379035;-3;-3;0;133;4022;-707;128;-0.101108;0.3088643;0.599723;0.7312403;3;-3;0;-879;3981;964;4;-0.5914127;0.166205;-0.4861496;-0.6215026;0;5;-5;2369;3352;712;16;0.7797304;-0.6204986;0.0401662;-0.0734072;3;2;3;763;3970;-782;2;0.5650969;-0.6252831;-0.4155124;-0.3421052;0;0;4;629;4120;-27;8;0.3919668;-0.8336926;0.2271468;0.3157895;6;2;0;489;3225;2429;0.4818034;2.509952;1.235966;0.4877892;3.055423;1.242782;0.4930511;3.534918;1.246752;0.5233673;4.256887;1.374437;0.2786528;4.595257;1.393633;-0.06860602;4.460636;1.431414;-0.8726737;4.898286;1.289056;0.05870193;5.028035;1.40525;0.7985389;4.57343;1.393632;1.08095;4.412371;1.431414;1.288224;3.507555;1.689527;0.4806339;3.030288;1.822949;0.1695499;2.467972;1.227743;0.03325656;1.296154;0.3622232;0;0;0;0.1695499;2.467972;1.227743;0.03325656;1.296154;0.3622232;0;0;0
895256.7605;NotLabelled;NONE;16384;-0.567867;-0.5918748;-0.5415512;-0.1842105;2;2;0;3484;-1925;995;65536;0.6960616;0.368421;-0.4238227;-0.4473684;0;-3;0;3871;-559;-1315;8192;0.6523545;-0.6620572;-0.3531856;-0.1066482;2;-3;1;1344;3839;397;32768;0.4252077;-0.790189;0.3808864;-0.2229917;-3;0;-1;3223;1967;1434;256;0.1468144;-0.2063712;-0.6260388;-0.7375174;-3;-3;0;147;4032;-715;128;-0.1024931;0.3088643;0.599723;0.7310475;2;-4;0;-929;3891;1002;4;-0.5914127;0.1689751;-0.4875346;-0.619668;0;3;-4;2279;3316;698;16;0.7797304;-0.6204986;0.0401662;-0.0734072;3;0;1;809;3930;-892;2;0.5637119;-0.6256112;-0.4168975;-0.3421052;2;0;7;439;4024;45;8;0.3933518;-0.8335638;0.2271468;0.3144044;8;1;-1;419;3233;2399;0.4792011;2.508526;1.24137;0.4851871;3.053997;1.24825;0.4904489;3.53349;1.252274;0.5193499;4.255626;1.379354;0.2739712;4.59353;1.398276;-0.07302094;4.458257;1.436182;-0.8768301;4.895906;1.292369;0.05425787;5.02389;1.412752;0.7938992;4.572724;1.398276;1.076628;4.412251;1.436181;1.283434;3.507437;1.694669;0.4751132;3.031639;1.828913;0.1669476;2.466547;1.233142;0.03222337;1.294729;0.367377;0;0;0;0.1669476;2.466547;1.233142;0.03222337;1.294729;0.367377;0;0;0
895277.6832;NotLabelled;NONE;16384;-0.567867;-0.5906045;-0.5429363;-0.1842105;2;3;0;3434;-1937;979;65536;0.6969498;0.368421;-0.4238227;-0.4459834;-1;-4;0;3823;-543;-1317;8192;0.6523545;-0.6630155;-0.3518005;-0.1052632;1;-3;0;1328;3795;393;32768;0.4252077;-0.7908551;0.3795014;-0.2229917;-2;1;-1;3267;2015;1416;256;0.1468144;-0.2063712;-0.6274238;-0.7363394;-4;-3;0;119;4008;-695;128;-0.1038781;0.3102493;0.599723;0.7302651;4;-6;0;-967;3915;1000;4;-0.5914127;0.1689751;-0.4875346;-0.619668;-1;3;-4;2203;3250;678;16;0.7806991;-0.6191136;0.0401662;-0.07479224;3;0;2;607;3960;-936;2;0.5637119;-0.6254426;-0.4182825;-0.3407202;0;-3;7;433;4070;-61;8;0.3947368;-0.8325298;0.2285319;0.3144044;8;0;0;561;3325;2389;0.4782283;2.513227;1.235042;0.4842143;3.058703;1.241524;0.4894762;3.538199;1.245199;0.5197126;4.260278;1.372289;0.274959;4.598634;1.391216;-0.07228291;4.464003;1.42912;-0.8757694;4.901654;1.283516;0.05548847;5.028326;1.403974;0.7948476;4.576868;1.391215;1.077279;4.415873;1.429119;1.283509;3.511057;1.688067;0.4748939;3.035261;1.820529;0.1659748;2.471242;1.226847;0.03141427;1.294729;0.3674472;0;0;0;0.1659748;2.471242;1.226847;0.03141427;1.294729;0.3674472;0;0;0
895299.4928;NotLabelled;NONE;16384;-0.5692521;-0.5897009;-0.5429363;-0.1828255;2;4;0;3362;-1895;1011;65536;0.6969498;0.368421;-0.4238227;-0.4459834;0;-5;0;3765;-567;-1337;8192;0.6523545;-0.6630155;-0.3518005;-0.1052632;1;-2;0;1424;3765;445;32768;0.4238227;-0.7915982;0.3795014;-0.2229917;-2;0;-1;3257;2015;1440;256;0.1481994;-0.2063712;-0.6274238;-0.7360619;-5;-2;1;159;4006;-625;128;-0.1038781;0.3102493;0.599723;0.7302651;2;-7;0;-903;3801;1006;4;-0.5914127;0.1689751;-0.4875346;-0.619668;2;1;-5;2203;3132;710;16;0.7806991;-0.6191136;0.0401662;-0.07479224;3;8;3;449;3946;-1004;2;0.5637119;-0.6261951;-0.4182825;-0.3393352;1;-3;6;441;4060;-95;8;0.3961219;-0.8318717;0.2285319;0.3144044;6;2;-1;511;3357;2251;0.4779224;2.51179;1.240081;0.4839084;3.05727;1.246224;0.4891703;3.536768;1.249602;0.5200889;4.259262;1.374146;0.2756488;4.597907;1.391918;-0.07171082;4.463729;1.430347;-0.8761014;4.899568;1.284302;0.05494398;5.027973;1.404571;0.7955173;4.575663;1.391918;1.077807;4.414543;1.430346;1.283641;3.509755;1.689702;0.4757639;3.032835;1.82263;0.1656688;2.4698;1.231914;0.03104842;1.293286;0.3725239;0;0;0;0.1656688;2.4698;1.231914;0.03104842;1.293286;0.3725239;0;0;0
895321.5137;NotLabelled;NONE;16384;-0.5692521;-0.5897009;-0.5429363;-0.1828255;2;4;0;3400;-1839;975;65536;0.6978342;0.368421;-0.4238227;-0.4445983;-1;-5;1;3705;-549;-1395;8192;0.6523545;-0.6630155;-0.3518005;-0.1052632;1;-2;0;1372;3761;455;32768;0.4238227;-0.7909327;0.3808864;-0.2229917;-3;0;0;3165;2063;1462;256;0.1495845;-0.2077562;-0.6288089;-0.7342079;-5;-2;1;167;3940;-693;128;-0.1052632;0.3116343;0.599723;0.7294765;2;-3;0;-933;3807;1092;4;-0.5900277;0.1703601;-0.4889196;-0.6195179;3;0;-5;2233;3210;712;16;0.7806353;-0.6191136;0.03878116;-0.07617728;3;8;3;743;3926;-910;2;0.5637119;-0.6261951;-0.4182825;-0.3393352;0;-1;3;593;4030;-33;8;0.3975069;-0.8312107;0.2285319;0.3144044;4;0;0;653;3221;2155;0.4756829;2.51179;1.24038;0.4816689;3.05727;1.246523;0.4869307;3.536768;1.249901;0.5164379;4.259425;1.373835;0.2713356;4.597607;1.39133;-0.07575923;4.462781;1.429884;-0.8785442;4.900575;1.280881;0.05228084;5.028979;1.402842;0.7912466;4.57638;1.39133;1.073853;4.415846;1.429884;1.27922;3.511058;1.68961;0.4706045;3.035618;1.823345;0.1634291;2.4698;1.232213;0.03037108;1.293286;0.3725795;0;0;0;0.1634291;2.4698;1.232213;0.03037108;1.293286;0.3725795;0;0;0
895341.5212;NotLabelled;NONE;16384;-0.5692521;-0.5884227;-0.5443213;-0.1828255;2;4;0;3330;-1871;1039;65536;0.6985637;0.367036;-0.4238227;-0.4445983;-1;-4;0;3695;-527;-1417;8192;0.6523545;-0.6630155;-0.3518005;-0.1052632;1;-2;0;1258;3735;485;32768;0.4238227;-0.7909327;0.3808864;-0.2229917;-3;-2;0;3139;2037;1536;256;0.1495845;-0.2077562;-0.6288089;-0.7342079;-5;-4;2;169;3858;-713;128;-0.1066482;0.3130194;0.599723;0.7286819;1;0;0;-827;3787;1148;4;-0.5900277;0.1703601;-0.4889196;-0.6195179;2;-3;-4;2341;3328;652;16;0.7815955;-0.6177285;0.03878116;-0.07756232;3;1;2;799;3958;-858;2;0.5637119;-0.6261951;-0.4182825;-0.3393352;0;0;2;551;3946;-151;8;0.3975069;-0.8312107;0.2285319;0.3144044;2;0;0;493;3177;2197;0.471034;2.515826;1.235304;0.4770202;3.06131;1.241105;0.482282;3.54081;1.244181;0.5124134;4.263976;1.364957;0.2675951;4.602433;1.381026;-0.07960367;4.468065;1.420236;-0.8811917;4.905954;1.265192;0.04892296;5.036089;1.390687;0.7874883;4.580777;1.381016;1.069969;4.420177;1.420214;1.273288;3.515225;1.68098;0.4634291;3.040905;1.811123;0.1587804;2.473831;1.227166;0.02823016;1.293314;0.3726516;0;0;0;0.1587804;2.473831;1.227166;0.02823016;1.293314;0.3726516;0;0;0
895362.6595;NotLabelled;NONE;16384;-0.5692521;-0.5888512;-0.5443213;-0.1814404;0;3;0;3366;-1881;1083;65536;0.7001683;0.365651;-0.4238227;-0.4432133;-2;-3;0;3763;-565;-1511;8192;0.6523545;-0.6639668;-0.3504155;-0.1038781;0;-3;0;1306;3755;427;32768;0.4224377;-0.7916733;0.3808864;-0.2229917;-4;0;0;3111;1991;1442;256;0.1495845;-0.2077562;-0.6301939;-0.7330195;-3;-4;1;147;3940;-615;128;-0.1066482;0.3130194;0.599723;0.7286819;0;2;0;-855;3825;984;4;-0.5900277;0.1717452;-0.4889196;-0.6191353;-1;2;-2;2313;3332;798;16;0.7815256;-0.6177285;0.0401662;-0.07756232;2;-1;1;791;3936;-888;2;0.5637119;-0.6269436;-0.4182825;-0.3379501;0;-1;1;531;3852;-57;8;0.3975069;-0.8312107;0.2285319;0.3144044;1;0;0;639;3161;2141;0.470578;2.514373;1.240335;0.4765642;3.05986;1.245789;0.4818261;3.539363;1.24856;0.5119552;4.262528;1.369337;0.2671367;4.600986;1.385401;-0.08006269;4.466618;1.424605;-0.8831438;4.902592;1.271908;0.04741603;5.031402;1.395454;0.7870299;4.579329;1.385401;1.06951;4.418729;1.424604;1.273844;3.513941;1.685143;0.4639833;3.039621;1.815272;0.1583243;2.472373;1.232226;0.02779002;1.291855;0.3777096;0;0;0;0.1583243;2.472373;1.232226;0.02779002;1.291855;0.3777096;0;0;0
895384.482;NotLabelled;NONE;16384;-0.5692521;-0.5875679;-0.5457063;-0.1814404;0;3;0;3382;-1817;1077;65536;0.7001683;0.365651;-0.4238227;-0.4432133;-2;-1;0;3749;-551;-1499;8192;0.6523545;-0.6639668;-0.3504155;-0.1038781;0;-3;0;1320;3713;431;32768;0.4210526;-0.7927993;0.3808864;-0.2216066;-3;0;0;3203;1925;1464;256;0.1495845;-0.2077562;-0.6301939;-0.7330195;-3;-3;1;151;3928;-629;128;-0.1066482;0.3130194;0.599723;0.7286819;1;1;0;-931;3881;980;4;-0.5900277;0.1717452;-0.4889196;-0.6191353;-5;1;-1;2423;3310;720;16;0.7815256;-0.6177285;0.0401662;-0.07756232;2;0;0;895;3872;-826;2;0.5637119;-0.6271181;-0.4168975;-0.3393352;1;0;-2;479;4100;-39;8;0.398892;-0.8301646;0.2299169;0.3144044;0;0;0;511;3329;2191;0.4720053;2.515812;1.239152;0.4779913;3.061299;1.244606;0.4832534;3.540801;1.247377;0.5140742;4.264359;1.365597;0.2695736;4.6031;1.380504;-0.07774478;4.469194;1.420232;-0.8801144;4.907019;1.269095;0.05067456;5.036219;1.39049;0.7894463;4.580958;1.380503;1.071782;4.420235;1.420231;1.275733;3.515476;1.681169;0.4653828;3.042638;1.813625;0.1597517;2.473812;1.231043;0.03049013;1.29145;0.3788863;0;0;0;0.1597517;2.473812;1.231043;0.03049013;1.29145;0.3788863;0;0;0
895404.4759;NotLabelled;NONE;16384;-0.5692521;-0.5875679;-0.5457063;-0.1814404;-1;3;0;3346;-1851;1015;65536;0.7008899;0.3642659;-0.4238227;-0.4432133;-2;-1;1;3703;-563;-1439;8192;0.6523545;-0.664182;-0.3504155;-0.1024931;0;-2;1;1350;3677;453;32768;0.4210526;-0.7927993;0.3808864;-0.2216066;-3;0;0;3261;1977;1496;256;0.1509695;-0.2091413;-0.6301939;-0.7323413;-3;-3;1;201;3940;-627;128;-0.1066482;0.3130194;0.601108;0.7275398;3;1;0;-923;3867;1044;4;-0.5900277;0.1717452;-0.4889196;-0.6191353;-4;1;1;2259;3216;722;16;0.782546;-0.6163435;0.04155125;-0.07756232;1;-3;0;783;3928;-1054;2;0.5637119;-0.6271181;-0.4168975;-0.3393352;0;0;-2;517;3984;-101;8;0.3975069;-0.8308287;0.2299169;0.3144044;-1;-1;0;511;3277;2309;0.4720053;2.515812;1.239152;0.4779913;3.061299;1.244606;0.4832534;3.540801;1.247377;0.5140742;4.264359;1.365597;0.2695736;4.6031;1.380504;-0.07774478;4.469194;1.420232;-0.8810101;4.905197;1.268588;0.04977888;5.034397;1.389983;0.7894463;4.580958;1.380503;1.071782;4.420235;1.420231;1.275733;3.515476;1.681169;0.4659798;3.042818;1.81785;0.1597517;2.473812;1.231043;0.03049013;1.29145;0.3788863;0;0;0;0.1597517;2.473812;1.231043;0.03049013;1.29145;0.3788863;0;0;0
