SEP=;
index;label;segment;RightUpperArm_boneIndex;RightUpperArm_quat9x_w;RightUpperArm_quat9x_x;RightUpperArm_quat9x_y;RightUpperArm_quat9x_z;RightUpperArm_gyroscope_x;RightUpperArm_gyroscope_y;RightUpperArm_gyroscope_z;RightUpperArm_accelerometer_x;RightUpperArm_accelerometer_y;RightUpperArm_accelerometer_z;RightLowerArm_boneIndex;RightLowerArm_quat9x_w;RightLowerArm_quat9x_x;RightLowerArm_quat9x_y;RightLowerArm_quat9x_z;RightLowerArm_gyroscope_x;RightLowerArm_gyroscope_y;RightLowerArm_gyroscope_z;RightLowerArm_accelerometer_x;RightLowerArm_accelerometer_y;RightLowerArm_accelerometer_z;LeftUpperArm_boneIndex;LeftUpperArm_quat9x_w;LeftUpperArm_quat9x_x;LeftUpperArm_quat9x_y;LeftUpperArm_quat9x_z;LeftUpperArm_gyroscope_x;LeftUpperArm_gyroscope_y;LeftUpperArm_gyroscope_z;LeftUpperArm_accelerometer_x;LeftUpperArm_accelerometer_y;LeftUpperArm_accelerometer_z;LeftLowerArm_boneIndex;LeftLowerArm_quat9x_w;LeftLowerArm_quat9x_x;LeftLowerArm_quat9x_y;LeftLowerArm_quat9x_z;LeftLowerArm_gyroscope_x;LeftLowerArm_gyroscope_y;LeftLowerArm_gyroscope_z;LeftLowerArm_accelerometer_x;LeftLowerArm_accelerometer_y;LeftLowerArm_accelerometer_z;Chest_boneIndex;Chest_quat9x_w;Chest_quat9x_x;Chest_quat9x_y;Chest_quat9x_z;Chest_gyroscope_x;Chest_gyroscope_y;Chest_gyroscope_z;Chest_accelerometer_x;Chest_accelerometer_y;Chest_accelerometer_z;Spine_boneIndex;Spine_quat9x_w;Spine_quat9x_x;Spine_quat9x_y;Spine_quat9x_z;Spine_gyroscope_x;Spine_gyroscope_y;Spine_gyroscope_z;Spine_accelerometer_x;Spine_accelerometer_y;Spine_accelerometer_z;RightUpperLeg_boneIndex;RightUpperLeg_quat9x_w;RightUpperLeg_quat9x_x;RightUpperLeg_quat9x_y;RightUpperLeg_quat9x_z;RightUpperLeg_gyroscope_x;RightUpperLeg_gyroscope_y;RightUpperLeg_gyroscope_z;RightUpperLeg_accelerometer_x;RightUpperLeg_accelerometer_y;RightUpperLeg_accelerometer_z;RightLowerLeg_boneIndex;RightLowerLeg_quat9x_w;RightLowerLeg_quat9x_x;RightLowerLeg_quat9x_y;RightLowerLeg_quat9x_z;RightLowerLeg_gyroscope_x;RightLowerLeg_gyroscope_y;RightLowerLeg_gyroscope_z;RightLowerLeg_accelerometer_x;RightLowerLeg_accelerometer_y;RightLowerLeg_accelerometer_z;LeftUpperLeg_boneIndex;LeftUpperLeg_quat9x_w;LeftUpperLeg_quat9x_x;LeftUpperLeg_quat9x_y;LeftUpperLeg_quat9x_z;LeftUpperLeg_gyroscope_x;LeftUpperLeg_gyroscope_y;LeftUpperLeg_gyroscope_z;LeftUpperLeg_accelerometer_x;LeftUpperLeg_accelerometer_y;LeftUpperLeg_accelerometer_z;LeftLowerLeg_boneIndex;LeftLowerLeg_quat9x_w;LeftLowerLeg_quat9x_x;LeftLowerLeg_quat9x_y;LeftLowerLeg_quat9x_z;LeftLowerLeg_gyroscope_x;LeftLowerLeg_gyroscope_y;LeftLowerLeg_gyroscope_z;LeftLowerLeg_accelerometer_x;LeftLowerLeg_accelerometer_y;LeftLowerLeg_accelerometer_z;pelvis_x;pelvis_y;pelvis_z;lowerSpine_x;lowerSpine_y;lowerSpine_z;middleSpine_x;middleSpine_y;middleSpine_z;upperSpine_x;upperSpine_y;upperSpine_z;rightClavicle_x;rightClavicle_y;rightClavicle_z;rightShoulder_x;rightShoulder_y;rightShoulder_z;rightElbow_x;rightElbow_y;rightElbow_z;rightWrist_x;rightWrist_y;rightWrist_z;leftClavicle_x;leftClavicle_y;leftClavicle_z;leftShoulder_x;leftShoulder_y;leftShoulder_z;leftElbow_x;leftElbow_y;leftElbow_z;leftWrist_x;leftWrist_y;leftWrist_z;rightHip_x;rightHip_y;rightHip_z;rightKnee_x;rightKnee_y;rightKnee_z;rightAnkle_x;rightAnkle_y;rightAnkle_z;leftHip_x;leftHip_y;leftHip_z;leftKnee_x;leftKnee_y;leftKnee_z;leftAnkle_x;leftAnkle_y;leftAnkle_z;
1128823.4746;NotLabelled;NONE;16384;0.6848929;-0.5720221;0.3379501;0.299169;-1;-1;0;123;3955;692;65536;0.7443152;-0.5747922;0.1260388;0.3157895;1;0;1;-1258;3835;-573;8192;0.5041551;-0.4196676;-0.5678637;-0.4972299;0;-1;-1;-120;4071;693;32768;0.5942942;-0.466759;-0.3448753;-0.5567867;0;-2;0;1373;3835;239;256;-0.03185596;0.06371191;-0.6620498;-0.746067;3;-2;0;-153;4098;-497;128;0.09279778;-0.02908587;0.5914127;0.8004833;-2;-1;0;-475;3925;1160;4;0.6412653;-0.5761772;0.3725762;0.3434903;0;0;0;85;4070;382;16;0.6426592;-0.6965203;-0.1883656;-0.2576177;0;0;0;285;4068;440;2;0.4307479;-0.3490305;-0.5951796;-0.5817174;0;0;0;-353;4080;343;8;0.6925207;-0.7165607;-0.06786703;-0.04847645;0;0;0;-104;4070;105;0.5909154;2.833411;0.000117138;0.5968987;3.378654;0.01731718;0.6021587;3.857986;0.03041422;0.5737931;4.586127;0.1168327;0.3025118;4.904175;0.1173717;-0.03282491;4.744316;0.1635623;-0.158183;3.830947;0.07205546;-0.03238519;2.945327;-0.2404318;0.8224612;4.924434;0.117371;1.116872;4.789109;0.1635615;1.26091;3.836729;0.1411767;1.112658;2.947402;-0.1502085;0.2786635;2.791596;-0.008968588;0.1479192;1.335865;-0.07688367;0;0;0;0.2786635;2.791596;-0.008968588;0.1479192;1.335865;-0.07688367;0;0;0
1128844.4957;NotLabelled;NONE;16384;0.6848929;-0.5720221;0.3379501;0.299169;-1;-1;0;97;4009;642;65536;0.7443152;-0.5747922;0.1260388;0.3157895;1;0;1;-1312;3839;-571;8192;0.5041551;-0.4182825;-0.5688847;-0.4972299;0;-2;-1;-184;4075;651;32768;0.5942942;-0.466759;-0.3448753;-0.5567867;0;-2;0;1363;3837;215;256;-0.03047091;0.06371191;-0.6620498;-0.7461249;2;-2;0;-139;4006;-493;128;0.09279778;-0.02908587;0.5914127;0.8004833;-1;-1;0;-505;3965;1188;4;0.6412653;-0.5761772;0.3725762;0.3434903;0;0;0;35;4076;402;16;0.6426592;-0.6965203;-0.1883656;-0.2576177;0;0;0;279;4064;358;2;0.4307479;-0.3490305;-0.5951796;-0.5817174;0;-1;0;-375;4076;361;8;0.6925207;-0.7165607;-0.06786703;-0.04847645;0;0;0;-142;4100;111;0.5909326;2.833411;0.0006775409;0.596916;3.378654;0.01787753;0.6021761;3.857986;0.03097455;0.5753528;4.585862;0.1200823;0.3047407;4.904474;0.1218333;-0.03092502;4.745152;0.1674821;-0.1559298;3.831783;0.07549348;-0.03129395;2.945587;-0.2358275;0.8247315;4.92364;0.1218327;1.118864;4.787528;0.1674815;1.262987;3.835148;0.1456517;1.117377;2.945575;-0.1463159;0.2786809;2.791596;-0.00840807;0.1480734;1.335865;-0.07658607;0;0;0;0.2786809;2.791596;-0.00840807;0.1480734;1.335865;-0.07658607;0;0;0
1128865.6;NotLabelled;NONE;16384;0.6848929;-0.5720221;0.3379501;0.299169;-1;-2;0;77;3981;708;65536;0.7449014;-0.5747922;0.1260388;0.3144044;1;0;2;-1272;3887;-553;8192;0.5055401;-0.4182825;-0.5676542;-0.4972299;-1;-2;0;-108;4075;637;32768;0.5940068;-0.468144;-0.3434903;-0.5567867;0;-3;-1;1359;3861;213;256;-0.03047091;0.06371191;-0.6620498;-0.7461249;1;-2;0;-107;4050;-475;128;0.09279778;-0.02908587;0.5914127;0.8004833;-2;0;0;-483;3925;1168;4;0.6412653;-0.5761772;0.3725762;0.3434903;0;0;0;55;4064;408;16;0.6426592;-0.6965203;-0.1883656;-0.2576177;0;0;0;277;4036;366;2;0.4307479;-0.3490305;-0.5951796;-0.5817174;0;0;0;-319;4082;317;8;0.6925207;-0.7165607;-0.06786703;-0.04847645;0;0;0;-146;4130;137;0.5909473;2.833411;0.001187265;0.5969307;3.378654;0.01838729;0.6021908;3.857986;0.03148434;0.5738654;4.585789;0.1207255;0.302596;4.903841;0.1225368;-0.03273957;4.743817;0.168159;-0.1577606;3.830448;0.07619305;-0.03255418;2.944253;-0.2348984;0.8225463;4.924081;0.1225359;1.116959;4.788568;0.1681576;1.263375;3.836546;0.145979;1.1183;2.946973;-0.1462547;0.2786956;2.791596;-0.007898286;0.1482135;1.335865;-0.07631501;0;0;0;0.2786956;2.791596;-0.007898286;0.1482135;1.335865;-0.07631501;0;0;0
1128886.5754;NotLabelled;NONE;16384;0.6860473;-0.5706371;0.3379501;0.299169;-1;-2;0;107;4021;594;65536;0.7446656;-0.5747922;0.1274238;0.3144044;1;-1;2;-1350;3831;-531;8192;0.5055401;-0.4196676;-0.5678434;-0.4958449;-1;-2;0;-112;4089;603;32768;0.5953021;-0.468144;-0.3434903;-0.5554016;0;-3;-1;1363;3911;237;256;-0.03047091;0.06371191;-0.6620498;-0.7461249;1;-2;0;-167;4046;-551;128;0.09279778;-0.02908587;0.5914127;0.8004833;-2;0;0;-463;3977;1180;4;0.6412653;-0.5761772;0.3725762;0.3434903;0;0;0;11;4002;414;16;0.6426592;-0.6965203;-0.1883656;-0.2576177;0;0;0;239;4088;418;2;0.4307479;-0.3490305;-0.5951796;-0.5817174;0;0;0;-299;4120;335;8;0.6925207;-0.7165607;-0.06786703;-0.04847645;0;0;0;-104;4100;103;0.5909473;2.833411;0.001187265;0.5969307;3.378654;0.01838729;0.6021908;3.857986;0.03148434;0.5738654;4.585789;0.1207255;0.302596;4.903841;0.1225368;-0.03273957;4.743817;0.168159;-0.1577606;3.830448;0.07619305;-0.03418754;2.943945;-0.2346748;0.8225463;4.924081;0.1225359;1.116959;4.788568;0.1681576;1.263329;3.836606;0.143275;1.115164;2.94719;-0.1478827;0.2786956;2.791596;-0.007898286;0.1482135;1.335865;-0.07631501;0;0;0;0.2786956;2.791596;-0.007898286;0.1482135;1.335865;-0.07631501;0;0;0
1128906.5232;NotLabelled;NONE;16384;0.6847571;-0.5706371;0.3393352;0.300554;-1;-1;0;155;4017;636;65536;0.7446656;-0.5747922;0.1274238;0.3144044;1;-1;3;-1338;3855;-539;8192;0.5055401;-0.4196676;-0.5678434;-0.4958449;0;-2;0;-138;4039;659;32768;0.5953021;-0.468144;-0.3434903;-0.5554016;0;-3;-1;1379;3843;211;256;-0.03047091;0.06371191;-0.6620498;-0.7461249;1;-2;0;-145;4056;-531;128;0.09279778;-0.02908587;0.5914127;0.8004833;-1;-1;0;-465;3959;1160;4;0.6412653;-0.5761772;0.3725762;0.3434903;0;0;0;45;4026;412;16;0.6426592;-0.6961443;-0.1897507;-0.2576177;0;0;0;331;4104;438;2;0.4307479;-0.3490305;-0.5951796;-0.5817174;0;0;0;-385;4080;349;8;0.6925207;-0.7165607;-0.06786703;-0.04847645;0;0;0;-186;4096;161;0.5909473;2.833411;0.001187265;0.5969307;3.378654;0.01838729;0.6021908;3.857986;0.03148434;0.5738654;4.585789;0.1207255;0.302596;4.903841;0.1225368;-0.03273957;4.743817;0.168159;-0.1596349;3.830983;0.07348922;-0.03785245;2.943912;-0.2364625;0.8225463;4.924081;0.1225359;1.116959;4.788568;0.1681576;1.263669;3.836593;0.1459145;1.117557;2.946928;-0.145524;0.2786956;2.791596;-0.007898286;0.1482135;1.335865;-0.07631501;0;0;0;0.2786956;2.791596;-0.007898286;0.1482135;1.335865;-0.07631501;0;0;0
1128947.4813;NotLabelled;NONE;16384;0.6847571;-0.5706371;0.3393352;0.300554;0;-1;0;181;4039;712;65536;0.7444273;-0.5747922;0.1288089;0.3144044;0;0;3;-1390;3867;-551;8192;0.5069252;-0.4196676;-0.5666073;-0.4958449;0;-3;0;-98;4087;655;32768;0.5953021;-0.468144;-0.3434903;-0.5554016;0;-2;-2;1381;3857;209;256;-0.02908587;0.06232687;-0.6620498;-0.7462971;0;-3;0;-139;4090;-549;128;0.09279778;-0.02908587;0.5900277;0.8015048;0;-2;0;-471;3965;1188;4;0.6404586;-0.5761772;0.3739612;0.3434903;0;0;0;15;4030;434;16;0.6426592;-0.6956302;-0.1897507;-0.2590028;0;0;0;299;3990;418;2;0.4307479;-0.3490305;-0.5951796;-0.5817174;0;0;0;-347;4052;317;8;0.6925207;-0.7165607;-0.06786703;-0.04847645;0;0;0;-124;4110;171;0.5883146;2.833721;0.001547307;0.5942979;3.378964;0.01874734;0.599558;3.858296;0.03184441;0.5712326;4.586098;0.1210855;0.2999632;4.904151;0.1228966;-0.0353725;4.744126;0.1685186;-0.1615201;3.83102;0.07549927;-0.03973737;2.943949;-0.2344521;0.8199134;4.92439;0.1228961;1.114326;4.788877;0.1685179;1.261036;3.836902;0.146275;1.114924;2.947238;-0.1451635;0.2760628;2.791906;-0.007538337;0.1455806;1.336175;-0.07595506;0;0;0;0.2760628;2.791906;-0.007538337;0.1455806;1.336175;-0.07595506;0;0;0
1128968.4918;NotLabelled;NONE;16384;0.6847571;-0.5706371;0.3393352;0.300554;0;0;0;89;4025;692;65536;0.7444273;-0.5747922;0.1288089;0.3144044;1;0;4;-1386;3825;-525;8192;0.5069252;-0.4196676;-0.5666073;-0.4958449;0;-3;0;-146;4029;637;32768;0.5955019;-0.4695291;-0.3434903;-0.5540166;0;-3;-2;1377;3871;255;256;-0.02908587;0.06232687;-0.6606648;-0.7475235;0;-3;0;-183;4002;-547;128;0.09279778;-0.02908587;0.5900277;0.8015048;0;-2;0;-521;3991;1192;4;0.6404586;-0.5761772;0.3739612;0.3434903;0;0;0;37;4056;382;16;0.6426592;-0.6956302;-0.1897507;-0.2590028;0;0;0;271;4046;392;2;0.432133;-0.3504155;-0.5947137;-0.5803324;0;0;0;-381;4082;287;8;0.6925207;-0.7165607;-0.06786703;-0.04847645;0;0;0;-156;4100;163;0.592115;2.833539;0.001126125;0.5980976;3.37872;0.02020615;0.603357;3.858004;0.03495596;0.5748853;4.585785;0.1243239;0.3035454;4.903777;0.126237;-0.0317463;4.74367;0.1718924;-0.1572093;3.830247;0.08108483;-0.03605814;2.942609;-0.2274922;0.8234911;4.924132;0.1261463;1.117942;4.788678;0.1716926;1.264764;3.836682;0.1511146;1.119744;2.947018;-0.1408688;0.2798635;2.791757;-0.008115564;0.1483358;1.335993;-0.07379469;0;0;0;0.2798635;2.791757;-0.008115564;0.1483358;1.335993;-0.07379469;0;0;0
1128989.5925;NotLabelled;NONE;16384;0.6847571;-0.5706371;0.3393352;0.300554;0;0;0;189;4011;714;65536;0.7441863;-0.5747922;0.1301939;0.3144044;0;0;3;-1346;3811;-553;8192;0.5069252;-0.4196676;-0.5678164;-0.4944598;-1;-3;1;-188;4061;607;32768;0.5955019;-0.4695291;-0.3434903;-0.5540166;0;-4;-2;1409;3883;221;256;-0.02908587;0.06232687;-0.6606648;-0.7475235;0;-3;0;-199;4048;-515;128;0.09279778;-0.02908587;0.5900277;0.8015048;0;-1;0;-447;3939;1170;4;0.6412653;-0.5761772;0.3725762;0.3434903;0;-1;0;41;4044;418;16;0.6426592;-0.6956302;-0.1897507;-0.2590028;0;0;0;259;4122;404;2;0.432133;-0.3504155;-0.5947137;-0.5803324;0;0;0;-391;4058;307;8;0.6925207;-0.7165607;-0.06786703;-0.04847645;-1;0;0;-120;4082;107;0.5921155;2.833539;0.001153857;0.5980982;3.37872;0.02023385;0.6033577;3.858004;0.03498363;0.5750612;4.585457;0.1270364;0.3037989;4.903506;0.1301156;-0.03153317;4.743314;0.1751703;-0.1573289;3.830207;0.08167595;-0.03614675;2.94257;-0.2268886;0.8237496;4.923734;0.1301148;1.118166;4.788041;0.1751691;1.264911;3.836124;0.1507697;1.120151;2.945621;-0.1387759;0.2798642;2.791756;-0.008087639;0.1483431;1.335993;-0.07377991;0;0;0;0.2798642;2.791756;-0.008087639;0.1483431;1.335993;-0.07377991;0;0;0
1129010.4859;NotLabelled;NONE;16384;0.6847571;-0.5706371;0.3393352;0.300554;0;-1;0;119;3941;650;65536;0.7441863;-0.5747922;0.1301939;0.3144044;0;0;2;-1366;3821;-577;8192;0.5069252;-0.4196676;-0.5678164;-0.4944598;0;-3;0;-160;4107;597;32768;0.5955019;-0.4695291;-0.3434903;-0.5540166;0;-3;-2;1399;3839;193;256;-0.02770083;0.06094183;-0.6606648;-0.7476903;0;-2;0;-163;4026;-457;128;0.09279778;-0.02908587;0.5900277;0.8015048;0;-1;0;-493;3953;1180;4;0.6404586;-0.5761772;0.3739612;0.3434903;0;-1;0;15;3988;406;16;0.6426592;-0.6956302;-0.1897507;-0.2590028;0;0;0;285;4032;406;2;0.432133;-0.3504155;-0.5947137;-0.5803324;0;0;0;-313;4076;319;8;0.6925207;-0.7165607;-0.06786703;-0.04847645;0;0;0;-84;4100;175;0.5908129;2.833507;0.004379705;0.5967955;3.378688;0.02345973;0.602055;3.857972;0.03820953;0.5737586;4.585425;0.1302623;0.3024964;4.903474;0.1333414;-0.03283575;4.743282;0.1783959;-0.1586249;3.830175;0.08489225;-0.03923082;2.941976;-0.2227488;0.8224469;4.923702;0.1333409;1.116864;4.788008;0.1783954;1.266241;3.836444;0.1563245;1.121481;2.945941;-0.1332211;0.2785614;2.791724;-0.004861824;0.1483433;1.335993;-0.07377969;0;0;0;0.2785614;2.791724;-0.004861824;0.1483433;1.335993;-0.07377969;0;0;0
1129030.4852;NotLabelled;NONE;16384;0.6847571;-0.5706371;0.3393352;0.300554;0;-1;0;105;4037;682;65536;0.7441863;-0.5747922;0.1301939;0.3144044;0;0;2;-1410;3837;-491;8192;0.5069252;-0.4210526;-0.5667901;-0.4944598;-1;-3;0;-150;4073;617;32768;0.5956951;-0.4709141;-0.3434903;-0.5526316;0;-3;-2;1421;3883;193;256;-0.02770083;0.06094183;-0.6606648;-0.7476903;0;-3;0;-171;4036;-523;128;0.09279778;-0.02908587;0.5900277;0.8015048;1;-1;0;-449;3959;1204;4;0.6404586;-0.5761772;0.3739612;0.3434903;0;-1;0;31;4046;368;16;0.6426592;-0.6956302;-0.1897507;-0.2590028;0;0;0;281;4000;414;2;0.432133;-0.3504155;-0.5947137;-0.5803324;0;0;0;-301;4108;321;8;0.6925207;-0.7165607;-0.06786703;-0.04847645;0;0;0;-142;4116;139;0.5921454;2.833539;0.002250522;0.5981281;3.37872;0.02133054;0.6033877;3.858004;0.03608036;0.5749233;4.585436;0.1282496;0.3035874;4.903422;0.1313811;-0.03170738;4.743145;0.1764118;-0.1571294;3.830038;0.08241639;-0.0365317;2.941838;-0.2247549;0.8235334;4.92377;0.1313808;1.117982;4.788137;0.1764119;1.267445;3.836574;0.154926;1.123819;2.946071;-0.135184;0.279894;2.791756;-0.0069911;0.1486311;1.335993;-0.07319818;0;0;0;0.279894;2.791756;-0.0069911;0.1486311;1.335993;-0.07319818;0;0;0
1129051.4856;NotLabelled;NONE;16384;0.6847571;-0.5706371;0.3393352;0.300554;0;-1;0;139;4007;706;65536;0.7441863;-0.5747922;0.1301939;0.3144044;0;0;1;-1390;3851;-585;8192;0.5083103;-0.4210526;-0.5655482;-0.4944598;-1;-3;0;-140;4103;605;32768;0.5956951;-0.4709141;-0.3434903;-0.5526316;0;-4;-2;1397;3853;261;256;-0.02770083;0.06094183;-0.6606648;-0.7476903;0;-3;0;-175;4032;-521;128;0.09279778;-0.02770083;0.5914127;0.8005325;0;-2;0;-479;3921;1180;4;0.6409586;-0.5747922;0.3739612;0.3448753;0;0;0;53;4026;376;16;0.6426592;-0.6956302;-0.1897507;-0.2590028;0;0;0;261;4014;424;2;0.432133;-0.3504155;-0.5947137;-0.5803324;0;0;0;-391;4108;387;8;0.6925207;-0.7165607;-0.06786703;-0.04847645;0;0;0;-74;4098;153;0.5921454;2.833539;0.002250522;0.5981281;3.37872;0.02133054;0.6033877;3.858004;0.03608036;0.5749233;4.585436;0.1282496;0.3035874;4.903422;0.1313811;-0.03170738;4.743145;0.1764118;-0.1571294;3.830038;0.08241639;-0.0365317;2.941838;-0.2247549;0.8235334;4.92377;0.1313808;1.117982;4.788137;0.1764119;1.265143;3.836208;0.1552323;1.121741;2.944872;-0.1324182;0.279894;2.791756;-0.0069911;0.1486311;1.335993;-0.07319818;0;0;0;0.279894;2.791756;-0.0069911;0.1486311;1.335993;-0.07319818;0;0;0
1129072.583;NotLabelled;NONE;16384;0.6841475;-0.5706371;0.3393352;0.301939;0;0;0;181;3981;652;65536;0.7441863;-0.5747922;0.1301939;0.3144044;0;0;1;-1400;3789;-553;8192;0.5083103;-0.4210526;-0.5667562;-0.4930748;0;-4;1;-120;4051;651;32768;0.5956951;-0.4709141;-0.3434903;-0.5526316;0;-4;-2;1397;3819;253;256;-0.02631579;0.06094183;-0.6606648;-0.7477403;0;-3;0;-167;4054;-521;128;0.09141274;-0.02770083;0.5914127;0.8006918;0;-1;0;-461;3939;1162;4;0.6409586;-0.5747922;0.3739612;0.3448753;0;0;0;73;4006;400;16;0.6426592;-0.6956302;-0.1897507;-0.2590028;0;0;0;273;4062;412;2;0.432133;-0.3504155;-0.5947137;-0.5803324;0;0;0;-379;4104;319;8;0.6925207;-0.7165607;-0.06786703;-0.04847645;0;0;0;-150;4110;99;0.592355;2.833331;0.006773189;0.5983383;3.378573;0.0240041;0.6035983;3.857904;0.03712833;0.575134;4.585337;0.1292976;0.3037981;4.903322;0.1324292;-0.0314967;4.743046;0.1774602;-0.1569348;3.829938;0.08348631;-0.03633746;2.941739;-0.2236853;0.8237441;4.923671;0.1324285;1.118193;4.788038;0.1774594;1.2653;3.836165;0.1535385;1.121899;2.944829;-0.1341119;0.2801031;2.791517;-0.002315015;0.1486311;1.335993;-0.07319835;0;0;0;0.2801031;2.791517;-0.002315015;0.1486311;1.335993;-0.07319835;0;0;0
1129092.7302;NotLabelled;NONE;16384;0.6847571;-0.5706371;0.3393352;0.300554;0;0;0;93;4049;696;65536;0.7441863;-0.5747922;0.1301939;0.3144044;0;0;0;-1382;3839;-557;8192;0.5083103;-0.4210526;-0.5667562;-0.4930748;0;-4;1;-156;4075;615;32768;0.5966781;-0.4722992;-0.3421052;-0.5512465;0;-4;-2;1423;3861;205;256;-0.02631579;0.05955679;-0.6606648;-0.7478519;0;-2;0;-177;4022;-461;128;0.09141274;-0.02770083;0.5914127;0.8006918;0;-2;0;-507;3953;1176;4;0.6409586;-0.5747922;0.3739612;0.3448753;0;-1;0;85;4068;434;16;0.6426592;-0.6956302;-0.1897507;-0.2590028;0;0;0;253;4052;428;2;0.432133;-0.3504155;-0.5947137;-0.5803324;0;0;0;-323;4084;309;8;0.6925207;-0.7165607;-0.06786703;-0.04847645;0;0;0;-78;4080;97;0.5923586;2.833327;0.007300079;0.5983418;3.378561;0.02478197;0.6036018;3.857887;0.03812683;0.5736344;4.585243;0.1304143;0.301641;4.902666;0.1336054;-0.03331985;4.741688;0.1786205;-0.1565683;3.828313;0.08436313;-0.03541633;2.940112;-0.22259;0.8215437;4.924091;0.1335925;1.116274;4.789061;0.1785928;1.266088;3.837532;0.1579955;1.123206;2.946196;-0.1299136;0.2801069;2.791517;-0.001808949;0.1487631;1.335994;-0.07292972;0;0;0;0.2801069;2.791517;-0.001808949;0.1487631;1.335994;-0.07292972;0;0;0
1129114.4918;NotLabelled;NONE;16384;0.6841475;-0.5706371;0.3393352;0.301939;0;0;0;123;3985;662;65536;0.7435997;-0.5747922;0.1301939;0.3157895;-1;0;0;-1332;3819;-545;8192;0.5096953;-0.4224377;-0.565684;-0.4916897;-1;-4;1;-108;4033;643;32768;0.5979547;-0.4722992;-0.3421052;-0.5498615;0;-5;-2;1389;3837;215;256;-0.02631579;0.05955679;-0.6606648;-0.7478519;-1;-3;0;-141;4066;-555;128;0.09141274;-0.02770083;0.5914127;0.8006918;0;-2;0;-487;3967;1180;4;0.6409586;-0.5747922;0.3739612;0.3448753;0;-1;0;37;4084;394;16;0.6426592;-0.6956302;-0.1897507;-0.2590028;0;0;0;303;4064;390;2;0.432133;-0.3504155;-0.5947137;-0.5803324;0;0;0;-349;4066;307;8;0.6925207;-0.7165607;-0.06786703;-0.04847645;0;0;0;-98;4112;113;0.5923617;2.833327;0.007889494;0.598345;3.378561;0.02537137;0.603605;3.857887;0.03871626;0.5749719;4.585298;0.1309958;0.3035622;4.90322;0.1341772;-0.03169505;4.742858;0.1791859;-0.156748;3.829752;0.08470064;-0.03494903;2.941552;-0.2219958;0.8235033;4.92369;0.1341765;1.117984;4.788118;0.1791852;1.267805;3.8366;0.1581965;1.124486;2.945168;-0.1292007;0.28011;2.791517;-0.001219474;0.1489165;1.335993;-0.07261648;0;0;0;0.28011;2.791517;-0.001219474;0.1489165;1.335993;-0.07261648;0;0;0
1129134.5204;NotLabelled;NONE;16384;0.6841475;-0.5706371;0.3393352;0.301939;0;0;0;145;4027;684;65536;0.7435997;-0.5747922;0.1301939;0.3157895;0;0;0;-1400;3799;-647;8192;0.5096953;-0.4224377;-0.565684;-0.4916897;-1;-5;1;-170;4013;589;32768;0.5968581;-0.4736842;-0.3421052;-0.5498615;0;-5;-1;1361;3805;213;256;-0.02631579;0.05955679;-0.6606648;-0.7478519;0;-3;0;-135;4006;-547;128;0.09141274;-0.02770083;0.5914127;0.8006918;0;-1;0;-449;3917;1208;4;0.6409586;-0.5747922;0.3739612;0.3448753;0;0;0;67;4038;384;16;0.6426592;-0.6956302;-0.1897507;-0.2590028;0;0;0;255;4076;426;2;0.432133;-0.3504155;-0.5947137;-0.5803324;0;0;0;-341;4052;337;8;0.6925207;-0.7165607;-0.06786703;-0.04847645;0;0;0;-120;4132;129;0.5923617;2.833327;0.007889494;0.598345;3.378561;0.02537137;0.603605;3.857887;0.03871626;0.5749719;4.585298;0.1309958;0.3035622;4.90322;0.1341772;-0.03169505;4.742858;0.1791859;-0.1549134;3.829526;0.08447067;-0.03147379;2.941623;-0.2224309;0.8235033;4.92369;0.1341765;1.117984;4.788118;0.1791852;1.268069;3.836643;0.1580945;1.126802;2.944967;-0.1295584;0.28011;2.791517;-0.001219474;0.1489165;1.335993;-0.07261648;0;0;0;0.28011;2.791517;-0.001219474;0.1489165;1.335993;-0.07261648;0;0;0
1129154.6396;NotLabelled;NONE;16384;0.6847571;-0.5706371;0.3393352;0.300554;0;0;0;113;3977;674;65536;0.7435997;-0.5747922;0.1301939;0.3157895;-1;0;0;-1404;3795;-571;8192;0.5096953;-0.4224377;-0.565684;-0.4916897;-1;-4;0;-42;4077;641;32768;0.5968581;-0.4736842;-0.3421052;-0.5498615;0;-5;-1;1357;3819;215;256;-0.02493075;0.05955679;-0.6606648;-0.7478994;0;-2;0;-189;4036;-513;128;0.09141274;-0.02770083;0.5914127;0.8006918;0;-1;0;-475;3943;1182;4;0.6409586;-0.5747922;0.3739612;0.3448753;0;0;0;77;4048;428;16;0.6426592;-0.6956302;-0.1897507;-0.2590028;0;0;0;237;4020;406;2;0.432133;-0.3504155;-0.5947137;-0.5803324;0;0;0;-325;4076;373;8;0.6925207;-0.7165607;-0.06786703;-0.04847645;0;0;0;-166;4076;123;0.5923617;2.833327;0.007889494;0.598345;3.378561;0.02537137;0.603605;3.857887;0.03871626;0.5749719;4.585298;0.1309958;0.3035622;4.90322;0.1341772;-0.03169505;4.742858;0.1791859;-0.1549134;3.829526;0.08447067;-0.03147379;2.941623;-0.2224309;0.8235033;4.92369;0.1341765;1.117984;4.788118;0.1791852;1.268069;3.836643;0.1580945;1.124972;2.944382;-0.1268277;0.28011;2.791517;-0.001219474;0.1489165;1.335993;-0.07261648;0;0;0;0.28011;2.791517;-0.001219474;0.1489165;1.335993;-0.07261648;0;0;0
1129175.5679;NotLabelled;NONE;16384;0.6847571;-0.5706371;0.3393352;0.300554;0;0;0;151;3971;668;65536;0.7435997;-0.5747922;0.1301939;0.3157895;0;0;-1;-1372;3861;-583;8192;0.5096953;-0.4238227;-0.5658501;-0.4903047;-1;-4;0;-94;4071;539;32768;0.5981312;-0.4736842;-0.3421052;-0.5484765;0;-4;-1;1397;3817;247;256;-0.02493075;0.05817174;-0.6620498;-0.7467828;0;-2;0;-109;4068;-489;128;0.0900277;-0.02631579;0.5914127;0.8008954;0;-1;0;-495;3883;1208;4;0.6409586;-0.5747922;0.3739612;0.3448753;0;-1;0;59;4054;392;16;0.6426592;-0.6956302;-0.1897507;-0.2590028;0;0;0;301;4036;424;2;0.432133;-0.3504155;-0.5947137;-0.5803324;0;0;0;-343;4102;281;8;0.6925207;-0.716653;-0.06786703;-0.04709141;0;0;0;-162;4086;151;0.5923636;2.833327;0.008403108;0.5983468;3.378561;0.02588502;0.6036068;3.857887;0.0392299;0.573468;4.585223;0.1316217;0.3014004;4.902582;0.1348537;-0.03352375;4.741519;0.1798398;-0.1584037;3.828413;0.08512548;-0.03440263;2.94051;-0.22155;0.8212981;4.924128;0.134853;1.116059;4.78916;0.179839;1.266182;3.837686;0.1590224;1.123607;2.945424;-0.1261615;0.2801119;2.791517;-0.0007059649;0.1490492;1.335993;-0.07234339;0;0;0;0.2801119;2.791517;-0.0007059649;0.1490492;1.335993;-0.07234339;0;0;0
1129196.5468;NotLabelled;NONE;16384;0.6841475;-0.5706371;0.3393352;0.301939;0;0;0;133;3971;682;65536;0.7435997;-0.5747922;0.1301939;0.3157895;-1;0;-1;-1362;3765;-567;8192;0.5110803;-0.4238227;-0.5657992;-0.4889196;-1;-4;0;-124;4015;625;32768;0.5981312;-0.4736842;-0.3421052;-0.5484765;0;-4;0;1403;3839;227;256;-0.02493075;0.05817174;-0.6620498;-0.7467828;-1;-2;0;-119;4030;-489;128;0.0900277;-0.02631579;0.5914127;0.8008954;0;-1;0;-507;3977;1154;4;0.6409586;-0.5747922;0.3739612;0.3448753;0;-1;0;29;4050;338;16;0.6426592;-0.6956302;-0.1897507;-0.2590028;0;-1;0;253;4062;422;2;0.432133;-0.3504155;-0.5947137;-0.5803324;0;0;0;-415;4030;297;8;0.6925207;-0.7167828;-0.06648199;-0.04709141;0;0;0;-108;4150;147;0.5923645;2.833323;0.00903073;0.5983477;3.378548;0.02679023;0.6036076;3.857866;0.04037914;0.5746298;4.585587;0.1300742;0.3030746;4.903394;0.1320901;-0.03211593;4.74304;0.1776205;-0.1567889;3.829933;0.08263355;-0.03212607;2.942031;-0.2237735;0.8230065;4.924101;0.1320894;1.117542;4.788825;0.1776197;1.268011;3.837344;0.1597458;1.128105;2.944839;-0.1259936;0.2801128;2.791517;-0.0001013726;0.1492049;1.335993;-0.07202151;0;0;0;0.2801128;2.791517;-0.0001013726;0.1492049;1.335993;-0.07202151;0;0;0
1129217.4932;NotLabelled;NONE;16384;0.6841475;-0.5706371;0.3393352;0.301939;0;0;0;157;4005;632;65536;0.7435997;-0.5747922;0.1301939;0.3157895;-1;0;-1;-1336;3869;-585;8192;0.5110803;-0.4238227;-0.5657992;-0.4889196;-1;-3;0;-128;3999;647;32768;0.5989212;-0.4736842;-0.3407202;-0.5484765;0;-4;0;1323;3793;217;256;-0.02493075;0.05817174;-0.6620498;-0.7467828;0;-2;0;-157;4058;-483;128;0.0900277;-0.02631579;0.5914127;0.8008954;0;-1;0;-511;3909;1122;4;0.6409586;-0.5747922;0.3739612;0.3448753;0;0;0;75;4036;456;16;0.6426592;-0.6956302;-0.1897507;-0.2590028;0;0;0;297;4062;418;2;0.432133;-0.3504155;-0.5947137;-0.5803324;0;0;0;-343;4030;321;8;0.6925207;-0.7167828;-0.06648199;-0.04709141;0;0;0;-154;4128;135;0.5923645;2.833323;0.00903073;0.5983477;3.378548;0.02679023;0.6036076;3.857866;0.04037914;0.5746298;4.585587;0.1300742;0.3030746;4.903394;0.1320901;-0.03211593;4.74304;0.1776205;-0.1549559;3.829708;0.08241435;-0.03029312;2.941805;-0.2239928;0.8230065;4.924101;0.1320894;1.117542;4.788825;0.1776197;1.270574;3.837761;0.1593313;1.130669;2.945255;-0.1264078;0.2801128;2.791517;-0.0001013726;0.1492049;1.335993;-0.07202151;0;0;0;0.2801128;2.791517;-0.0001013726;0.1492049;1.335993;-0.07202151;0;0;0
1129237.4884;NotLabelled;NONE;16384;0.6841475;-0.5706371;0.3393352;0.301939;0;0;0;111;3993;732;65536;0.7435997;-0.5747922;0.1301939;0.3157895;0;0;-1;-1328;3779;-581;8192;0.5124654;-0.4238227;-0.5645451;-0.4889196;-1;-4;0;-66;3975;593;32768;0.5978232;-0.4750692;-0.3407202;-0.5484765;0;-3;0;1333;3865;299;256;-0.02493075;0.05817174;-0.6620498;-0.7467828;0;-2;0;-165;4020;-525;128;0.0900277;-0.02631579;0.5914127;0.8008954;0;0;0;-545;3919;1146;4;0.6409586;-0.5747922;0.3739612;0.3448753;0;0;0;47;4064;428;16;0.6426592;-0.6956302;-0.1897507;-0.2590028;0;0;0;301;4048;410;2;0.432133;-0.3504155;-0.5947137;-0.5803324;0;0;0;-361;4114;299;8;0.6925207;-0.7167828;-0.06648199;-0.04709141;0;0;0;-154;4084;157;0.5923645;2.833323;0.00903073;0.5983477;3.378548;0.02679023;0.6036076;3.857866;0.04037914;0.5746298;4.585587;0.1300742;0.3030746;4.903394;0.1320901;-0.03211593;4.74304;0.1776205;-0.1549559;3.829708;0.08241435;-0.03029312;2.941805;-0.2239928;0.8230065;4.924101;0.1320894;1.117542;4.788825;0.1776197;1.270574;3.837761;0.1593313;1.129402;2.945985;-0.1280597;0.2801128;2.791517;-0.0001013726;0.1492049;1.335993;-0.07202151;0;0;0;0.2801128;2.791517;-0.0001013726;0.1492049;1.335993;-0.07202151;0;0;0
1129258.4906;NotLabelled;NONE;16384;0.6853004;-0.5692521;0.3393352;0.301939;0;1;0;147;3991;726;65536;0.7435997;-0.5747922;0.1301939;0.3157895;-1;0;-1;-1362;3819;-603;8192;0.5124654;-0.4238227;-0.5645451;-0.4889196;-1;-2;0;-94;3987;563;32768;0.5990909;-0.4750692;-0.3407202;-0.5470914;0;-3;0;1399;3819;245;256;-0.0235457;0.05817174;-0.6620498;-0.7468277;-1;-2;0;-147;4058;-533;128;0.0900277;-0.02631579;0.5914127;0.8008954;0;-1;0;-459;3921;1142;4;0.6409586;-0.5747922;0.3739612;0.3448753;0;0;0;59;4012;396;16;0.6426592;-0.6956302;-0.1897507;-0.2590028;0;0;0;267;4028;392;2;0.432133;-0.3504155;-0.5947137;-0.5803324;0;0;0;-385;4044;341;8;0.6925207;-0.7167828;-0.06648199;-0.04709141;0;0;0;-174;4120;157;0.5923645;2.833323;0.00903073;0.5983477;3.378548;0.02679023;0.6036076;3.857866;0.04037914;0.5746298;4.585587;0.1300742;0.3030746;4.903394;0.1320901;-0.03211593;4.74304;0.1776205;-0.1549559;3.829708;0.08241435;-0.03029312;2.941805;-0.2239928;0.8230065;4.924101;0.1320894;1.117542;4.788825;0.1776197;1.270519;3.83781;0.1565957;1.127512;2.94545;-0.1280658;0.2801128;2.791517;-0.0001013726;0.1492049;1.335993;-0.07202151;0;0;0;0.2801128;2.791517;-0.0001013726;0.1492049;1.335993;-0.07202151;0;0;0
1129279.4921;NotLabelled;NONE;16384;0.6853004;-0.5692521;0.3393352;0.301939;-1;1;0;99;3981;642;65536;0.7432513;-0.5747922;0.1288089;0.3171745;0;2;-1;-1282;3823;-573;8192;0.5124654;-0.4238227;-0.5645451;-0.4889196;-1;-1;0;-136;3999;589;32768;0.5990909;-0.4750692;-0.3407202;-0.5470914;0;-1;0;1303;3895;229;256;-0.0235457;0.0567867;-0.6620498;-0.7469344;0;-1;0;-215;4030;-547;128;0.0900277;-0.02631579;0.5914127;0.8008954;1;0;0;-493;3977;1120;4;0.6409586;-0.5747922;0.3739612;0.3448753;0;0;0;95;4038;414;16;0.6426592;-0.6956302;-0.1897507;-0.2590028;0;0;0;307;4044;404;2;0.432133;-0.3504155;-0.5947137;-0.5803324;0;0;0;-333;4110;303;8;0.6925207;-0.7167828;-0.06648199;-0.04709141;0;0;0;-120;4114;121;0.5923642;2.833323;0.009544194;0.5983473;3.378548;0.02730376;0.6036072;3.857866;0.04089271;0.5731249;4.585513;0.1306939;0.3009129;4.902757;0.1327577;-0.03394492;4.741703;0.1782667;-0.1584451;3.828909;0.08010738;-0.03322106;2.941006;-0.2260707;0.8208008;4.924539;0.132757;1.115616;4.789866;0.1782659;1.268631;3.83885;0.1575224;1.128197;2.946244;-0.1276446;0.2801124;2.791517;0.0004121065;0.1493368;1.335993;-0.07174791;0;0;0;0.2801124;2.791517;0.0004121065;0.1493368;1.335993;-0.07174791;0;0;0
1129300.4843;NotLabelled;NONE;16384;0.6853004;-0.5692521;0.3393352;0.301939;0;0;0;105;4017;638;65536;0.7438409;-0.5747922;0.1288089;0.3157895;0;1;-1;-1278;3881;-587;8192;0.5124654;-0.4238227;-0.5645451;-0.4889196;0;-2;0;-116;4005;653;32768;0.5990909;-0.4750692;-0.3407202;-0.5470914;0;-2;0;1383;3827;271;256;-0.0235457;0.0567867;-0.6620498;-0.7469344;-1;0;0;-179;4088;-513;128;0.0900277;-0.02631579;0.5914127;0.8008954;2;0;0;-429;3939;1128;4;0.6409586;-0.5747922;0.3739612;0.3448753;0;0;0;55;4066;380;16;0.6426592;-0.6956302;-0.1897507;-0.2590028;0;0;0;269;4124;414;2;0.432133;-0.3504155;-0.5947137;-0.5803324;0;0;0;-315;4042;361;8;0.6925207;-0.7167828;-0.06648199;-0.04709141;0;0;0;-70;4070;105;0.5923626;2.833323;0.01012735;0.5983458;3.378548;0.02788687;0.6036057;3.857866;0.04147577;0.5744627;4.585568;0.1312703;0.3028349;4.903313;0.133331;-0.03231874;4.742877;0.1788413;-0.1566146;3.830082;0.08042319;-0.0273103;2.94305;-0.2265806;0.8227621;4.924139;0.1333304;1.117329;4.788923;0.1788406;1.270387;3.837907;0.1584157;1.130547;2.945301;-0.127043;0.2801109;2.791517;0.0009952709;0.1494856;1.335993;-0.07143684;0;0;0;0.2801109;2.791517;0.0009952709;0.1494856;1.335993;-0.07143684;0;0;0
1129321.4871;NotLabelled;NONE;16384;0.6853004;-0.5692521;0.3393352;0.301939;0;0;0;149;3961;646;65536;0.7432513;-0.5747922;0.1288089;0.3171745;0;0;0;-1256;3805;-607;8192;0.5138504;-0.4252077;-0.5634413;-0.4875346;0;-4;-1;-92;4003;629;32768;0.5998765;-0.4750692;-0.3393352;-0.5470914;0;-3;0;1347;3831;295;256;-0.0235457;0.05817174;-0.6620498;-0.7468277;0;0;0;-115;3998;-517;128;0.0900277;-0.02631579;0.5927978;0.7998708;1;-1;0;-455;3939;1222;4;0.6402115;-0.5747922;0.3739612;0.3462604;0;0;0;69;4038;368;16;0.6426592;-0.6956302;-0.1897507;-0.2590028;0;0;0;273;4102;438;2;0.432133;-0.3504155;-0.5947137;-0.5803324;0;0;0;-375;4070;313;8;0.6925207;-0.7167828;-0.06648199;-0.04709141;0;0;0;-160;4086;143;0.5923626;2.833323;0.01012735;0.5983458;3.378548;0.02788687;0.6036057;3.857866;0.04147577;0.5744627;4.585568;0.1312703;0.3028349;4.903313;0.133331;-0.03231874;4.742877;0.1788413;-0.1566146;3.830082;0.08042319;-0.02895202;2.942746;-0.2263888;0.8227621;4.924139;0.1333304;1.117329;4.788923;0.1788406;1.270387;3.837907;0.1584157;1.130547;2.945301;-0.127043;0.2801109;2.791517;0.0009952709;0.1494856;1.335993;-0.07143684;0;0;0;0.2801109;2.791517;0.0009952709;0.1494856;1.335993;-0.07143684;0;0;0
1129341.4884;NotLabelled;NONE;16384;0.6841475;-0.5706371;0.3393352;0.301939;0;0;0;121;4007;638;65536;0.7438409;-0.5747922;0.1288089;0.3157895;0;-1;0;-1322;3815;-607;8192;0.5138504;-0.4252077;-0.5634413;-0.4875346;-1;-3;0;-64;4049;617;32768;0.5998765;-0.4750692;-0.3393352;-0.5470914;0;-2;1;1319;3803;229;256;-0.0235457;0.05817174;-0.6620498;-0.7468277;0;0;0;-175;4004;-479;128;0.0900277;-0.02631579;0.5914127;0.8008954;0;0;0;-475;3899;1218;4;0.6402115;-0.5747922;0.3739612;0.3462604;0;0;0;81;4064;378;16;0.6426592;-0.6956302;-0.1897507;-0.2590028;0;0;0;303;4048;418;2;0.432133;-0.3504155;-0.5947137;-0.5803324;0;1;0;-365;4118;287;8;0.6925207;-0.7167828;-0.06648199;-0.04709141;0;0;0;-172;4128;171;0.5892391;2.833613;0.009810552;0.5952228;3.378896;0.02568787;0.6004832;3.858259;0.03762212;0.5699844;4.585905;0.1274178;0.2977721;4.90315;0.1294318;-0.03709404;4.742095;0.1748796;-0.1617647;3.829646;0.07377949;-0.03304408;2.942613;-0.2334691;0.81766;4.924932;0.1295261;1.112467;4.790258;0.1750889;1.265673;3.839361;0.1506648;1.124022;2.947483;-0.1361742;0.276987;2.791776;0.0008346513;0.1493499;1.335993;-0.0717206;0;0;0;0.276987;2.791776;0.0008346513;0.1493499;1.335993;-0.0717206;0;0;0
1129361.685;NotLabelled;NONE;16384;0.6841475;-0.5706371;0.3393352;0.301939;0;0;0;135;3981;622;65536;0.7443204;-0.5734072;0.1288089;0.3171745;0;-1;0;-1300;3865;-611;8192;0.5138504;-0.4252077;-0.5634413;-0.4875346;0;-1;0;-54;4005;603;32768;0.5998765;-0.4750692;-0.3393352;-0.5470914;0;0;2;1297;3839;205;256;-0.0235457;0.05817174;-0.6620498;-0.7468277;0;0;0;-127;4006;-467;128;0.0900277;-0.02631579;0.5914127;0.8008954;0;0;0;-521;3927;1178;4;0.6402115;-0.5747922;0.3739612;0.3462604;0;0;0;77;4044;366;16;0.6426592;-0.6956302;-0.1897507;-0.2590028;0;0;0;297;4064;446;2;0.432133;-0.3504155;-0.5947137;-0.5803324;0;1;0;-401;4130;317;8;0.6925207;-0.7167828;-0.06648199;-0.04709141;1;0;0;-100;4076;145;0.5892388;2.833581;0.009916022;0.5952219;3.378807;0.0276756;0.6004818;3.858125;0.04126453;0.5699995;4.585772;0.1310658;0.2977875;4.903016;0.1331295;-0.0370703;4.741962;0.1786385;-0.1597178;3.82863;0.08318506;-0.03269453;2.941294;-0.2238917;0.8176754;4.924798;0.1331289;1.112491;4.790125;0.1786378;1.265742;3.839149;0.1577809;1.124038;2.947272;-0.1290323;0.276987;2.791776;0.0007839352;0.1493367;1.335993;-0.07174791;0;0;0;0.276987;2.791776;0.0007839352;0.1493367;1.335993;-0.07174791;0;0;0
1129382.6545;NotLabelled;NONE;16384;0.6841475;-0.5706371;0.3393352;0.301939;0;0;0;105;3947;620;65536;0.7443204;-0.5734072;0.1288089;0.3171745;0;0;0;-1310;3743;-505;8192;0.5138504;-0.4252077;-0.5634413;-0.4875346;0;0;0;-16;3979;599;32768;0.5998765;-0.4750692;-0.3393352;-0.5470914;0;0;1;1283;3817;213;256;-0.02493075;0.05817174;-0.6620498;-0.7467828;-1;0;0;-167;4016;-551;128;0.0900277;-0.02631579;0.5914127;0.8008954;1;0;0;-503;3925;1140;4;0.6402115;-0.5747922;0.3739612;0.3462604;0;0;0;83;4050;434;16;0.6426592;-0.6956302;-0.1897507;-0.2590028;0;0;0;275;4068;406;2;0.432133;-0.3504155;-0.5947137;-0.5803324;0;0;0;-389;4016;327;8;0.6925207;-0.7167828;-0.06648199;-0.04709141;0;0;0;-156;4084;131;0.5892388;2.833581;0.009916022;0.5952219;3.378807;0.0276756;0.6004818;3.858125;0.04126453;0.5699995;4.585772;0.1310658;0.2977875;4.903016;0.1331295;-0.0370703;4.741962;0.1786385;-0.1597352;3.82863;0.08320731;-0.03251268;2.942387;-0.2269284;0.8176754;4.924798;0.1331289;1.112491;4.790125;0.1786378;1.265739;3.839149;0.157753;1.124034;2.947272;-0.1290604;0.276987;2.791776;0.0007839352;0.1493367;1.335993;-0.07174791;0;0;0;0.276987;2.791776;0.0007839352;0.1493367;1.335993;-0.07174791;0;0;0
1129402.6562;NotLabelled;NONE;16384;0.6841475;-0.5706371;0.3393352;0.301939;0;0;0;53;4005;696;65536;0.7443204;-0.5734072;0.1288089;0.3171745;0;0;0;-1282;3771;-565;8192;0.5138504;-0.4252077;-0.5634413;-0.4875346;0;0;0;-90;3991;549;32768;0.5998765;-0.4750692;-0.3393352;-0.5470914;0;0;2;1269;3723;283;256;-0.0235457;0.05817174;-0.6620498;-0.7468277;1;0;0;-149;3988;-521;128;0.0900277;-0.02631579;0.5927978;0.7998708;1;0;0;-465;3945;1180;4;0.6402115;-0.5747922;0.3739612;0.3462604;0;1;0;39;4100;434;16;0.6426592;-0.6956302;-0.1897507;-0.2590028;0;0;0;291;4076;416;2;0.432133;-0.3504155;-0.5947137;-0.5803324;0;0;0;-415;4100;311;8;0.6925207;-0.7167828;-0.06648199;-0.04709141;0;0;0;-96;4088;151;0.5892399;2.833581;0.009408295;0.595223;3.378807;0.0271678;0.6004829;3.858125;0.0407567;0.5715051;4.585846;0.1304518;0.2999499;4.903653;0.1324676;-0.03524063;4.743299;0.1779981;-0.1580806;3.829967;0.08279192;-0.03142659;2.943723;-0.2275764;0.8198817;4.92436;0.132467;1.114418;4.789084;0.1779973;1.267627;3.838109;0.1568316;1.125397;2.946231;-0.1297215;0.2769881;2.791776;0.0002762005;0.149205;1.335993;-0.07202155;0;0;0;0.2769881;2.791776;0.0002762005;0.149205;1.335993;-0.07202155;0;0;0
1129423.4915;NotLabelled;NONE;16384;0.6853004;-0.5692521;0.3393352;0.301939;0;-1;0;173;3959;642;65536;0.7443204;-0.5734072;0.1288089;0.3171745;0;-1;0;-1308;3821;-533;8192;0.5138504;-0.4252077;-0.5634413;-0.4875346;0;0;0;-120;4065;635;32768;0.5998765;-0.4750692;-0.3393352;-0.5470914;0;0;0;1305;3801;231;256;-0.0235457;0.05817174;-0.6620498;-0.7468277;0;0;0;-173;4042;-491;128;0.0900277;-0.02631579;0.5927978;0.7998708;1;0;0;-513;3951;1190;4;0.6402115;-0.5747922;0.3739612;0.3462604;0;0;0;75;4090;348;16;0.6426592;-0.6956302;-0.1897507;-0.2590028;0;0;0;237;4054;372;2;0.432133;-0.3504155;-0.5947137;-0.5803324;0;0;0;-341;4092;387;8;0.6925207;-0.7167828;-0.06648199;-0.04709141;0;0;0;-106;4054;69;0.5892392;2.833613;0.009758577;0.5952231;3.378896;0.02563585;0.6004835;3.858258;0.03757004;0.5700012;4.585905;0.1273709;0.2977893;4.90315;0.1294345;-0.03706858;4.742095;0.1749435;-0.159751;3.828763;0.07953501;-0.03252837;2.94252;-0.2306002;0.8176773;4.924932;0.1294339;1.112493;4.790258;0.1749428;1.265736;3.839282;0.1540304;1.124032;2.947405;-0.1327821;0.2769873;2.791776;0.000782676;0.1493368;1.335993;-0.0717485;0;0;0;0.2769873;2.791776;0.000782676;0.1493368;1.335993;-0.0717485;0;0;0
1129443.6786;NotLabelled;NONE;16384;0.6853004;-0.5692521;0.3393352;0.301939;0;0;0;177;4001;666;65536;0.7432513;-0.5747922;0.1288089;0.3171745;0;0;0;-1336;3839;-585;8192;0.5138504;-0.4252077;-0.5634413;-0.4875346;0;0;0;-122;4031;659;32768;0.5986105;-0.4750692;-0.3393352;-0.5484765;0;0;0;1315;3829;271;256;-0.0235457;0.0567867;-0.6620498;-0.7469344;0;0;0;-135;4036;-485;128;0.0900277;-0.02631579;0.5927978;0.7998708;0;0;0;-513;3937;1190;4;0.6402115;-0.5747922;0.3739612;0.3462604;0;0;0;89;4074;432;16;0.6426592;-0.6961443;-0.1897507;-0.2576177;0;0;0;245;4072;400;2;0.432133;-0.3504155;-0.5947137;-0.5803324;0;0;0;-385;4096;317;8;0.6925207;-0.7167828;-0.06648199;-0.04709141;0;0;0;-168;4124;115;0.5892392;2.833613;0.009759814;0.5952231;3.378896;0.02563708;0.6004834;3.858258;0.03757128;0.5700011;4.585905;0.1273725;0.2977892;4.90315;0.1294363;-0.03706867;4.742095;0.1749454;-0.1615689;3.829301;0.07678618;-0.03434641;2.943058;-0.2333496;0.8176771;4.924932;0.1294356;1.112492;4.790258;0.1749445;1.26574;3.839283;0.1540596;1.124036;2.947406;-0.1327536;0.2769872;2.791776;0.000783965;0.1493368;1.335993;-0.07174792;0;0;0;0.2769872;2.791776;0.000783965;0.1493368;1.335993;-0.07174792;0;0;0
1129464.6104;NotLabelled;NONE;16384;0.6853004;-0.5692521;0.3393352;0.301939;0;0;0;135;4009;660;65536;0.7432513;-0.5747922;0.1288089;0.3171745;0;0;1;-1292;3861;-583;8192;0.5138504;-0.4252077;-0.5634413;-0.4875346;1;0;0;-90;4125;649;32768;0.5986105;-0.4750692;-0.3393352;-0.5484765;0;0;0;1343;3863;275;256;-0.0235457;0.05817174;-0.6620498;-0.7468277;0;0;0;-195;4018;-535;128;0.0900277;-0.02631579;0.5927978;0.7998708;0;0;0;-467;3971;1202;4;0.6402115;-0.5747922;0.3739612;0.3462604;0;0;0;75;4078;432;16;0.6426592;-0.6961443;-0.1897507;-0.2576177;0;0;0;277;4024;336;2;0.432133;-0.3504155;-0.5947137;-0.5803324;0;0;0;-359;4156;339;8;0.6925207;-0.7167828;-0.06648199;-0.04709141;0;0;0;-160;4108;119;0.5867908;2.833795;0.0086817;0.5927746;3.379078;0.02455901;0.598035;3.858441;0.03649323;0.5688919;4.586143;0.1262874;0.2972641;4.903888;0.1283478;-0.03788952;4.743451;0.1738581;-0.162185;3.830656;0.07544056;-0.03288069;2.943624;-0.2315628;0.8171912;4.924714;0.1283475;1.111758;4.789498;0.1738579;1.265049;3.838522;0.153293;1.121895;2.946894;-0.1335749;0.2745388;2.791958;-0.000294216;0.1470397;1.336175;-0.07309109;0;0;0;0.2745388;2.791958;-0.000294216;0.1470397;1.336175;-0.07309109;0;0;0
1129486.5841;NotLabelled;NONE;16384;0.6841475;-0.5706371;0.3393352;0.301939;0;0;0;127;4009;674;65536;0.7432513;-0.5747922;0.1288089;0.3171745;0;-1;1;-1300;3821;-503;8192;0.5138504;-0.4252077;-0.5634413;-0.4875346;1;0;0;-82;4103;703;32768;0.5986105;-0.4750692;-0.3393352;-0.5484765;0;0;0;1293;3803;251;256;-0.0235457;0.05817174;-0.6620498;-0.7468277;0;0;0;-137;4102;-525;128;0.0900277;-0.02631579;0.5927978;0.7998708;0;0;0;-541;3997;1158;4;0.6402115;-0.5747922;0.3739612;0.3462604;0;0;0;97;4060;376;16;0.6426592;-0.6965203;-0.1883656;-0.2576177;0;0;0;321;4058;414;2;0.432133;-0.3504155;-0.5947137;-0.5803324;0;0;0;-377;4064;355;8;0.6925207;-0.7167828;-0.06648199;-0.04709141;0;0;0;-146;4048;101;0.5867895;2.833795;0.008110166;0.5927733;3.379078;0.02398746;0.5980337;3.85844;0.03592169;0.5675513;4.586087;0.1257226;0.2953393;4.903331;0.1277861;-0.03951847;4.742277;0.173295;-0.1640188;3.829483;0.07513627;-0.03535375;2.942451;-0.2321354;0.8152272;4.925114;0.1277857;1.110042;4.79044;0.1732947;1.26329;3.839465;0.1524103;1.119539;2.947836;-0.1341587;0.2745375;2.791958;-0.0008656681;0.1468871;1.336175;-0.073397;0;0;0;0.2745375;2.791958;-0.0008656681;0.1468871;1.336175;-0.073397;0;0;0
1129507.4858;NotLabelled;NONE;16384;0.6841475;-0.5706371;0.3393352;0.301939;0;0;-1;63;4013;650;65536;0.74301;-0.5747922;0.1301939;0.3171745;0;0;1;-1304;3821;-531;8192;0.5138504;-0.4265928;-0.5623934;-0.4875346;1;0;0;-72;4031;741;32768;0.5986105;-0.4750692;-0.3393352;-0.5484765;-1;1;0;1345;3843;233;256;-0.02493075;0.05817174;-0.6606648;-0.7480084;0;0;0;-153;4074;-533;128;0.0900277;-0.02631579;0.5927978;0.7998708;1;0;0;-475;3929;1174;4;0.6402115;-0.5747922;0.3739612;0.3462604;0;0;0;105;4018;406;16;0.6426592;-0.6961443;-0.1897507;-0.2576177;0;0;0;287;4052;396;2;0.432133;-0.3504155;-0.5947137;-0.5803324;0;0;0;-379;4054;317;8;0.6925207;-0.7167828;-0.06648199;-0.04709141;0;0;0;-80;4128;91;0.5894283;2.833485;0.007796362;0.5954121;3.378768;0.02367367;0.6006725;3.85813;0.03560787;0.57019;4.585777;0.1254088;0.2979781;4.903021;0.1274723;-0.03687965;4.741967;0.1729812;-0.1595446;3.828636;0.07755038;-0.03087977;2.941603;-0.2297214;0.817866;4.924804;0.1274719;1.112681;4.79013;0.1729809;1.265929;3.839155;0.1520966;1.122178;2.947526;-0.1344725;0.2771763;2.791648;-0.001179464;0.149526;1.335865;-0.0737108;0;0;0;0.2771763;2.791648;-0.001179464;0.149526;1.335865;-0.0737108;0;0;0
1129528.5156;NotLabelled;NONE;16384;0.6841475;-0.5706371;0.3393352;0.301939;0;0;-1;111;3997;634;65536;0.74301;-0.5747922;0.1301939;0.3171745;0;0;1;-1300;3791;-517;8192;0.5138504;-0.4265928;-0.5623934;-0.4875346;1;0;1;-80;4015;607;32768;0.5986105;-0.4750692;-0.3393352;-0.5484765;-2;1;0;1323;3841;211;256;-0.02493075;0.05817174;-0.6606648;-0.7480084;0;0;0;-129;4038;-479;128;0.09141274;-0.02631579;0.5927978;0.7997137;1;0;0;-461;3985;1174;4;0.6402115;-0.5747922;0.3739612;0.3462604;0;0;0;23;4080;370;16;0.6426592;-0.6965203;-0.1883656;-0.2576177;0;0;0;261;4036;440;2;0.432133;-0.3504155;-0.5947137;-0.5803324;0;0;0;-359;4094;279;8;0.6925207;-0.7167828;-0.06648199;-0.04709141;0;0;0;-158;4076;73;0.5867872;2.833795;0.00758788;0.592771;3.379078;0.02346516;0.5980314;3.858441;0.03539935;0.5692288;4.585832;0.1277844;0.2977446;4.90369;0.1310133;-0.03747485;4.743244;0.1760008;-0.1603213;3.829911;0.08080322;-0.03403879;2.942309;-0.2258116;0.817681;4.924282;0.1310126;1.112193;4.788773;0.1759999;1.263081;3.837419;0.1551128;1.118783;2.945791;-0.1311822;0.2745352;2.791958;-0.001388006;0.1467469;1.336175;-0.07367633;0;0;0;0.2745352;2.791958;-0.001388006;0.1467469;1.336175;-0.07367633;0;0;0
1129548.5482;NotLabelled;NONE;16384;0.6841475;-0.5706371;0.3393352;0.301939;1;0;-1;85;4003;662;65536;0.74301;-0.5747922;0.1301939;0.3171745;0;-1;1;-1358;3851;-579;8192;0.5124654;-0.4265928;-0.5636558;-0.4875346;0;1;1;-150;4031;643;32768;0.5986105;-0.4750692;-0.3393352;-0.5484765;-1;1;0;1349;3869;213;256;-0.02493075;0.05817174;-0.6606648;-0.7480084;0;0;0;-149;4074;-509;128;0.09141274;-0.02631579;0.5927978;0.7997137;0;0;0;-499;3885;1108;4;0.6402115;-0.5747922;0.3739612;0.3462604;0;0;0;-3;4088;384;16;0.6426592;-0.6965203;-0.1883656;-0.2576177;0;1;0;283;4084;424;2;0.432133;-0.3504155;-0.5947137;-0.5803324;0;0;0;-379;4056;329;8;0.6925207;-0.716653;-0.06786703;-0.04709141;0;0;0;-108;4106;123;0.5894256;2.833489;0.00724861;0.5954094;3.378779;0.02287863;0.6006699;3.858147;0.03459546;0.5718672;4.585538;0.1269805;0.300383;4.903396;0.1302093;-0.03483645;4.742949;0.1751966;-0.157683;3.829617;0.0799995;-0.03140026;2.942015;-0.2266153;0.8203192;4.923987;0.1302089;1.114832;4.788479;0.1751963;1.265719;3.837126;0.1543099;1.121422;2.945498;-0.1319855;0.2771735;2.791648;-0.001706786;0.1493852;1.335865;-0.07399519;0;0;0;0.2771735;2.791648;-0.001706786;0.1493852;1.335865;-0.07399519;0;0;0
1129569.4873;NotLabelled;NONE;16384;0.6841475;-0.5706371;0.3393352;0.301939;0;0;0;119;3979;690;65536;0.74301;-0.5747922;0.1301939;0.3171745;-1;0;0;-1302;3827;-555;8192;0.5124654;-0.4265928;-0.5636558;-0.4875346;1;1;1;-160;4043;657;32768;0.5986105;-0.4750692;-0.3393352;-0.5484765;-1;1;-1;1369;3867;209;256;-0.02493075;0.05817174;-0.6606648;-0.7480084;0;0;0;-167;4028;-497;128;0.09141274;-0.02631579;0.5927978;0.7997137;0;0;0;-457;3951;1138;4;0.6414523;-0.5734072;0.3739612;0.3462604;0;0;0;5;4078;426;16;0.6426592;-0.6965203;-0.1883656;-0.2576177;0;1;0;285;4028;418;2;0.432133;-0.3504155;-0.5947137;-0.5803324;0;0;0;-389;4040;343;8;0.6925207;-0.716653;-0.06786703;-0.04709141;0;0;0;-144;4066;179;0.5894256;2.833489;0.00724861;0.5954094;3.378779;0.02287863;0.6006699;3.858147;0.03459546;0.5718672;4.585538;0.1269805;0.300383;4.903396;0.1302093;-0.03483645;4.742949;0.1751966;-0.157683;3.829617;0.0799995;-0.03140026;2.942015;-0.2266153;0.8203192;4.923987;0.1302089;1.114832;4.788479;0.1751963;1.265792;3.837081;0.1570505;1.121495;2.945453;-0.1292444;0.2771735;2.791648;-0.001706786;0.1493852;1.335865;-0.07399519;0;0;0;0.2771735;2.791648;-0.001706786;0.1493852;1.335865;-0.07399519;0;0;0
1129589.4854;NotLabelled;NONE;16384;0.6841475;-0.5706371;0.3393352;0.301939;1;0;-1;51;3929;622;65536;0.74301;-0.5747922;0.1301939;0.3171745;0;0;0;-1332;3849;-553;8192;0.5124654;-0.4265928;-0.5636558;-0.4875346;1;0;1;-154;4011;603;32768;0.5986105;-0.4750692;-0.3393352;-0.5484765;-1;1;-2;1343;3785;227;256;-0.02493075;0.05817174;-0.6606648;-0.7480084;0;0;0;-131;4014;-511;128;0.09141274;-0.02631579;0.5927978;0.7997137;0;0;0;-475;3951;1178;4;0.6398922;-0.5734072;0.3753462;0.3476454;0;0;0;47;4076;410;16;0.6426592;-0.6965203;-0.1883656;-0.2576177;0;1;0;265;4072;380;2;0.432133;-0.3504155;-0.5947137;-0.5803324;0;0;0;-343;4116;329;8;0.6925207;-0.716653;-0.06786703;-0.04709141;0;0;0;-164;4100;167;0.5927254;2.832976;0.01153721;0.5987093;3.378266;0.02716723;0.6039697;3.857634;0.03888406;0.575167;4.585025;0.1312691;0.3036829;4.902883;0.134498;-0.03153656;4.742436;0.1794852;-0.1543831;3.829104;0.08428811;-0.02810037;2.941502;-0.2223267;0.8236192;4.923474;0.1344975;1.118132;4.787966;0.1794849;1.269092;3.836568;0.1613392;1.124795;2.944941;-0.1249558;0.2804734;2.791135;0.002581812;0.1493852;1.335865;-0.07399523;0;0;0;0.2804734;2.791135;0.002581812;0.1493852;1.335865;-0.07399523;0;0;0
1129610.6289;NotLabelled;NONE;16384;0.6841475;-0.5706371;0.3393352;0.301939;1;0;-1;89;4037;642;65536;0.742766;-0.5747922;0.1315789;0.3171745;0;-1;0;-1334;3863;-529;8192;0.5124654;-0.4265928;-0.5636558;-0.4875346;1;0;1;-160;4005;631;32768;0.5967199;-0.4764543;-0.3407202;-0.5484765;0;1;-2;1351;3813;251;256;-0.02493075;0.05817174;-0.6606648;-0.7480084;0;0;0;-155;4042;-499;128;0.09141274;-0.02631579;0.5927978;0.7997137;0;0;0;-457;3939;1128;4;0.6398922;-0.5734072;0.3753462;0.3476454;0;1;0;-3;4062;388;16;0.6426592;-0.6965203;-0.1883656;-0.2576177;0;1;0;287;4084;388;2;0.432133;-0.3504155;-0.5947137;-0.5803324;0;0;0;-357;4066;303;8;0.6925207;-0.716653;-0.06786703;-0.04709141;0;0;0;-174;4088;109;0.5909334;2.833283;0.008694723;0.5969174;3.378574;0.02432473;0.6021778;3.857941;0.03604157;0.573375;4.585332;0.1284266;0.3018909;4.90319;0.1316555;-0.03332846;4.742743;0.1766427;-0.156175;3.829411;0.08144561;-0.02989227;2.941809;-0.2251692;0.8218272;4.923781;0.131655;1.11634;4.788273;0.1766425;1.2673;3.836876;0.1584967;1.123003;2.945248;-0.1277983;0.2786815;2.791442;-0.0002606735;0.1493851;1.335865;-0.07399527;0;0;0;0.2786815;2.791442;-0.0002606735;0.1493851;1.335865;-0.07399527;0;0;0
1129631.4821;NotLabelled;NONE;16384;0.6834587;-0.5706371;0.3407202;0.301939;1;-1;-1;107;3997;632;65536;0.742766;-0.5747922;0.1315789;0.3171745;-1;-1;1;-1324;3813;-527;8192;0.5124654;-0.4265928;-0.5624548;-0.4889196;1;0;1;-106;4021;675;32768;0.5954438;-0.4764543;-0.3407202;-0.5498615;-1;1;-2;1389;3849;201;256;-0.0235457;0.05817174;-0.6606648;-0.7480533;0;0;0;-193;4024;-539;128;0.09141274;-0.02631579;0.5927978;0.7997137;0;0;0;-429;3967;1144;4;0.6406428;-0.5734072;0.3753462;0.3462604;0;0;0;53;4026;390;16;0.6426592;-0.6965203;-0.1883656;-0.2576177;1;0;0;287;4068;378;2;0.432133;-0.3504155;-0.5947137;-0.5803324;0;0;0;-429;4034;359;8;0.6925207;-0.716653;-0.06786703;-0.04709141;0;0;0;-164;4120;151;0.5909334;2.833283;0.008694723;0.5969174;3.378574;0.02432473;0.6021778;3.857941;0.03604157;0.573375;4.585332;0.1284266;0.3018909;4.90319;0.1316555;-0.03332846;4.742743;0.1766427;-0.156175;3.829411;0.08144561;-0.0316853;2.941243;-0.2242604;0.8218272;4.923781;0.131655;1.11634;4.788273;0.1766425;1.2673;3.836876;0.1584967;1.122435;2.943944;-0.1234164;0.2786815;2.791442;-0.0002606735;0.1493851;1.335865;-0.07399527;0;0;0;0.2786815;2.791442;-0.0002606735;0.1493851;1.335865;-0.07399527;0;0;0
1129651.7039;NotLabelled;NONE;16384;0.6834587;-0.5706371;0.3407202;0.301939;1;0;0;117;3977;592;65536;0.742766;-0.5747922;0.1315789;0.3171745;-1;-2;0;-1286;3845;-563;8192;0.5110803;-0.4265928;-0.5637136;-0.4889196;1;0;1;-96;4019;677;32768;0.5946492;-0.4764543;-0.3421052;-0.5498615;0;1;-2;1431;3827;205;256;-0.0235457;0.05817174;-0.6606648;-0.7480533;0;0;0;-155;4092;-501;128;0.0900277;-0.02631579;0.5927978;0.7998708;0;0;0;-387;3935;1170;4;0.6406428;-0.5734072;0.3753462;0.3462604;0;0;0;43;4044;392;16;0.6426592;-0.6965203;-0.1883656;-0.2576177;0;0;0;279;4054;412;2;0.432133;-0.3504155;-0.5947137;-0.5803324;0;0;0;-369;4068;315;8;0.6925207;-0.716653;-0.06786703;-0.04709141;0;0;0;-188;4080;115;0.5940602;2.833021;0.008832276;0.6000441;3.378312;0.02446234;0.6053045;3.857679;0.03617918;0.5749956;4.584996;0.1286705;0.3028536;4.90229;0.1319473;-0.03203261;4.741143;0.1769132;-0.1558093;3.827765;0.08337964;-0.03076076;2.939596;-0.2220982;0.8227462;4.923959;0.1319469;1.117539;4.789054;0.1769128;1.265914;3.837291;0.1567291;1.119506;2.944617;-0.1252033;0.2818082;2.79118;-0.000123091;0.1495204;1.335865;-0.07372179;0;0;0;0.2818082;2.79118;-0.000123091;0.1495204;1.335865;-0.07372179;0;0;0
1129672.6031;NotLabelled;NONE;16384;0.6823;-0.5720221;0.3407202;0.301939;1;-1;-1;161;3983;662;65536;0.742173;-0.5747922;0.1315789;0.3185596;-1;-1;0;-1350;3839;-565;8192;0.5110803;-0.4279778;-0.5626628;-0.4889196;1;0;1;-90;4047;691;32768;0.5946492;-0.4764543;-0.3421052;-0.5498615;0;1;-1;1433;3885;273;256;-0.0235457;0.05817174;-0.6606648;-0.7480533;0;0;0;-217;4070;-547;128;0.0900277;-0.02631579;0.5927978;0.7998708;0;0;0;-435;3939;1160;4;0.6406428;-0.5734072;0.3753462;0.3462604;0;0;0;45;4058;402;16;0.6426592;-0.6961443;-0.1897507;-0.2576177;0;0;0;263;4046;364;2;0.432133;-0.3490305;-0.5941748;-0.5817174;0;0;0;-377;4062;315;8;0.6925207;-0.716653;-0.06786703;-0.04709141;0;0;0;-98;4032;105;0.5940598;2.833017;0.008853018;0.6000437;3.378301;0.02473031;0.6053041;3.857663;0.03666453;0.574995;4.58498;0.1291559;0.302853;4.902274;0.1324328;-0.03203321;4.741127;0.1773986;-0.1558074;3.827748;0.08386203;-0.0307586;2.93958;-0.2216158;0.8227456;4.923942;0.1324323;1.117538;4.789038;0.1773982;1.265974;3.83723;0.1599522;1.120818;2.943831;-0.1203243;0.2818078;2.791181;-0.0001228973;0.1495204;1.335865;-0.07372169;0;0;0;0.2818078;2.791181;-0.0001228973;0.1495204;1.335865;-0.07372169;0;0;0
1129692.7108;NotLabelled;NONE;16384;0.6816853;-0.5720221;0.3407202;0.3033241;1;-1;0;65;4055;678;65536;0.742173;-0.5747922;0.1315789;0.3185596;-1;-2;0;-1356;3833;-523;8192;0.5110803;-0.4279778;-0.5626628;-0.4889196;1;0;1;-86;4035;605;32768;0.5946492;-0.4764543;-0.3421052;-0.5498615;-1;1;-1;1417;3853;177;256;-0.0235457;0.05817174;-0.6606648;-0.7480533;0;0;0;-119;4034;-503;128;0.0900277;-0.02631579;0.5927978;0.7998708;1;0;0;-487;4021;1162;4;0.6406428;-0.5734072;0.3753462;0.3462604;0;0;0;-3;4096;390;16;0.6426592;-0.6961443;-0.1897507;-0.2576177;0;0;0;225;4056;382;2;0.432133;-0.3490305;-0.5941748;-0.5817174;0;0;0;-415;4078;325;8;0.6925207;-0.716653;-0.06786703;-0.04709141;0;0;0;-136;4126;129;0.591421;2.833327;0.009167045;0.5974048;3.37861;0.02504434;0.6026651;3.857973;0.03697856;0.5723561;4.585289;0.1294699;0.3002141;4.902584;0.1327468;-0.03467212;4.741437;0.1777126;-0.1566058;3.827534;0.08691312;-0.02991191;2.939666;-0.2187605;0.8201067;4.924252;0.1327463;1.1149;4.789348;0.1777122;1.261013;3.837175;0.1605488;1.115857;2.943776;-0.1197279;0.2791689;2.79149;0.0001911223;0.1468814;1.336175;-0.07340768;0;0;0;0.2791689;2.79149;0.0001911223;0.1468814;1.336175;-0.07340768;0;0;0
1129713.4775;NotLabelled;NONE;16384;0.6816853;-0.5720221;0.3407202;0.3033241;1;-1;0;91;4013;658;65536;0.7419261;-0.5747922;0.132964;0.3185596;0;-2;0;-1330;3853;-547;8192;0.5110803;-0.4279778;-0.5626628;-0.4889196;1;0;1;-102;4045;627;32768;0.5946492;-0.4764543;-0.3421052;-0.5498615;-1;1;-1;1385;3851;203;256;-0.0235457;0.05817174;-0.6606648;-0.7480533;0;0;0;-145;3986;-489;128;0.0900277;-0.02631579;0.5927978;0.7998708;0;0;0;-457;3991;1156;4;0.6398922;-0.5734072;0.3753462;0.3476454;0;0;0;43;4018;398;16;0.6426592;-0.6956302;-0.1897507;-0.2590028;0;0;0;327;4076;344;2;0.432133;-0.3490305;-0.5941748;-0.5817174;0;0;0;-411;4106;351;8;0.6925207;-0.716653;-0.06786703;-0.04709141;0;0;0;-130;4116;85;0.591421;2.833327;0.009167045;0.5974048;3.37861;0.02504434;0.6026651;3.857973;0.03697856;0.5723561;4.585289;0.1294699;0.3002141;4.902584;0.1327468;-0.03467212;4.741437;0.1777126;-0.1547618;3.827312;0.08669289;-0.02806804;2.939444;-0.2189808;0.8201067;4.924252;0.1327463;1.1149;4.789348;0.1777122;1.261013;3.837175;0.1605488;1.115857;2.943776;-0.1197279;0.2791689;2.79149;0.0001911223;0.1468814;1.336175;-0.07340768;0;0;0;0.2791689;2.79149;0.0001911223;0.1468814;1.336175;-0.07340768;0;0;0
1129733.4873;NotLabelled;NONE;16384;0.6816853;-0.5720221;0.3407202;0.3033241;1;-1;-1;55;4017;610;65536;0.7419261;-0.5747922;0.132964;0.3185596;0;-1;0;-1332;3849;-587;8192;0.5110803;-0.4279778;-0.5626628;-0.4889196;1;0;1;-140;4033;611;32768;0.5946492;-0.4764543;-0.3421052;-0.5498615;0;1;-1;1381;3799;203;256;-0.0235457;0.05817174;-0.6606648;-0.7480533;0;0;0;-149;4008;-519;128;0.0900277;-0.02631579;0.5927978;0.7998708;1;-1;0;-445;3969;1170;4;0.6394004;-0.5747922;0.3753462;0.3462604;0;0;0;33;4052;390;16;0.6426592;-0.6956302;-0.1897507;-0.2590028;0;0;0;277;4046;408;2;0.432133;-0.3490305;-0.5955276;-0.5803324;0;0;0;-287;4048;329;8;0.6925207;-0.7165607;-0.06786703;-0.04847645;0;0;0;-120;4124;133;0.5907442;2.833407;0.01118784;0.596728;3.37869;0.02706511;0.6019884;3.858053;0.03899933;0.5716794;4.58537;0.1314907;0.2995373;4.902664;0.1347676;-0.03534887;4.741517;0.1797335;-0.1554385;3.827392;0.08871368;-0.03053498;2.938957;-0.2160475;0.81943;4.924332;0.1347671;1.114223;4.789428;0.179733;1.260336;3.837255;0.1625696;1.11518;2.943856;-0.1177071;0.2784922;2.79157;0.002211906;0.1493311;1.335994;-0.07175918;0;0;0;0.2784922;2.79157;0.002211906;0.1493311;1.335994;-0.07175918;0;0;0
1129753.6325;NotLabelled;NONE;16384;0.6816853;-0.5720221;0.3407202;0.3033241;1;-1;0;121;3997;634;65536;0.7413298;-0.5747922;0.132964;0.3199446;-1;-1;0;-1324;3787;-543;8192;0.5096953;-0.4279778;-0.5639178;-0.4889196;0;0;1;-140;4039;617;32768;0.5946492;-0.4764543;-0.3421052;-0.5498615;0;0;-1;1467;3849;237;256;-0.0235457;0.05817174;-0.6606648;-0.7480533;-1;0;0;-151;4030;-559;128;0.0900277;-0.02631579;0.5927978;0.7998708;0;0;0;-461;3959;1114;4;0.6398922;-0.5734072;0.3753462;0.3476454;0;0;0;5;4108;396;16;0.6426592;-0.6956302;-0.1897507;-0.2590028;0;0;0;287;4036;392;2;0.432133;-0.3504155;-0.5947137;-0.5803324;0;-1;1;-349;4068;295;8;0.6925207;-0.7165607;-0.06786703;-0.04847645;1;0;0;-130;4128;123;0.5905717;2.833652;0.006521732;0.5965555;3.378935;0.02239901;0.6018159;3.858298;0.03433324;0.5715068;4.585614;0.1268246;0.2993648;4.902909;0.1301015;-0.03552142;4.741762;0.1750673;-0.1556111;3.827636;0.08404758;-0.03070753;2.939202;-0.2207136;0.8192574;4.924577;0.130101;1.11405;4.789672;0.1750668;1.260163;3.8375;0.1579035;1.115007;2.944101;-0.1223732;0.2783196;2.791815;-0.002454195;0.149331;1.335993;-0.07175927;0;0;0;0.2783196;2.791815;-0.002454195;0.149331;1.335993;-0.07175927;0;0;0
1129774.5118;NotLabelled;NONE;16384;0.6809913;-0.5720221;0.3421052;0.3033241;1;-1;-1;149;4059;632;65536;0.7413298;-0.5747922;0.132964;0.3199446;0;-1;0;-1294;3851;-553;8192;0.5096953;-0.4279778;-0.5639178;-0.4889196;1;0;0;-164;4025;663;32768;0.5946492;-0.4764543;-0.3421052;-0.5498615;0;0;-1;1419;3865;219;256;-0.0235457;0.05817174;-0.6620498;-0.7468277;0;0;0;-201;4070;-515;128;0.0900277;-0.02631579;0.5927978;0.7998708;1;-1;0;-497;3999;1156;4;0.6398922;-0.5734072;0.3753462;0.3476454;0;0;0;3;4016;400;16;0.6426592;-0.6961443;-0.1897507;-0.2576177;0;0;0;265;4046;368;2;0.432133;-0.3504155;-0.5947137;-0.5803324;0;0;1;-359;4062;325;8;0.6925207;-0.7165607;-0.06786703;-0.04847645;1;0;0;-90;4102;123;0.5907442;2.833407;0.01118784;0.596728;3.37869;0.02706511;0.6019884;3.858053;0.03899933;0.5716794;4.58537;0.1314907;0.2995373;4.902664;0.1347676;-0.03534887;4.741517;0.1797335;-0.1554385;3.827392;0.08871368;-0.02888759;2.939258;-0.2162438;0.81943;4.924332;0.1347671;1.114223;4.789428;0.179733;1.260388;3.837218;0.1652976;1.115232;2.943818;-0.1149791;0.2784922;2.79157;0.002211906;0.1493311;1.335994;-0.07175918;0;0;0;0.2784922;2.79157;0.002211906;0.1493311;1.335994;-0.07175918;0;0;0
1129795.816;NotLabelled;NONE;16384;0.6803727;-0.5720221;0.3421052;0.3047091;1;-1;0;121;3985;636;65536;0.7413298;-0.5747922;0.132964;0.3199446;0;-1;0;-1308;3881;-537;8192;0.5096953;-0.4279778;-0.5639178;-0.4889196;1;0;1;-152;4017;611;32768;0.5946492;-0.4764543;-0.3421052;-0.5498615;0;0;0;1397;3793;237;256;-0.0235457;0.05817174;-0.6620498;-0.7468277;-1;0;0;-203;4066;-525;128;0.0900277;-0.02631579;0.5941828;0.7988425;1;-2;0;-481;3963;1146;4;0.6398922;-0.5734072;0.3753462;0.3476454;0;-1;0;91;4070;434;16;0.6426592;-0.6961443;-0.1897507;-0.2576177;1;0;0;285;4062;368;2;0.432133;-0.3504155;-0.5947137;-0.5803324;0;-1;0;-317;4102;319;8;0.6925207;-0.7164281;-0.06925207;-0.04847645;1;0;0;-170;4144;153;0.5882948;2.833589;0.009560212;0.5942786;3.378872;0.02543749;0.5995389;3.858235;0.0373717;0.5690567;4.585881;0.1271729;0.2968447;4.903126;0.1292367;-0.03801309;4.742072;0.1747458;-0.1591883;3.827905;0.08561083;-0.03261403;2.939771;-0.219337;0.8167326;4.924908;0.129236;1.111548;4.790235;0.1747448;1.257714;3.838025;0.1603206;1.112579;2.944626;-0.1199672;0.2760428;2.791752;0.0005843714;0.1468872;1.336175;-0.07339653;0;0;0;0.2760428;2.791752;0.0005843714;0.1468872;1.336175;-0.07339653;0;0;0
1129816.4901;NotLabelled;NONE;16384;0.6803727;-0.5720221;0.3421052;0.3047091;1;0;0;81;4089;660;65536;0.7413298;-0.5747922;0.132964;0.3199446;0;-1;0;-1348;3853;-525;8192;0.5096953;-0.4279778;-0.5639178;-0.4889196;0;-1;1;-118;4031;639;32768;0.5946492;-0.4764543;-0.3421052;-0.5498615;-1;0;0;1421;3877;225;256;-0.0235457;0.05817174;-0.6620498;-0.7468277;-1;-2;0;-155;4070;-543;128;0.0900277;-0.02631579;0.5941828;0.7988425;1;-2;0;-489;3955;1150;4;0.6398922;-0.5734072;0.3753462;0.3476454;0;-2;0;1;4042;384;16;0.6426592;-0.6961443;-0.1897507;-0.2576177;1;0;0;259;4040;416;2;0.432133;-0.3504155;-0.5947137;-0.5803324;0;-1;0;-377;4116;315;8;0.6925207;-0.7164281;-0.06925207;-0.04847645;1;0;0;-128;4138;131;0.5882952;2.83362;0.00940372;0.5942795;3.378955;0.02339578;0.5995404;3.858355;0.03367271;0.5690581;4.586001;0.1234739;0.2968461;4.903246;0.1255377;-0.03801167;4.742193;0.1710467;-0.1573387;3.827804;0.08169102;-0.03076448;2.939669;-0.2232567;0.816734;4.925029;0.125537;1.111549;4.790355;0.1710458;1.257715;3.838146;0.1566216;1.11258;2.944747;-0.1236661;0.2760428;2.791752;0.0005843937;0.1468871;1.336175;-0.07339648;0;0;0;0.2760428;2.791752;0.0005843937;0.1468871;1.336175;-0.07339648;0;0;0
1129836.6368;NotLabelled;NONE;16384;0.6803727;-0.5720221;0.3421052;0.3047091;0;0;0;83;3997;624;65536;0.7402539;-0.5761772;0.132964;0.3199446;0;0;0;-1350;3851;-579;8192;0.5096953;-0.4293629;-0.5628639;-0.4889196;1;-1;1;-144;4101;635;32768;0.5946492;-0.4764543;-0.3421052;-0.5498615;-1;0;-1;1325;3899;255;256;-0.0235457;0.05817174;-0.6620498;-0.7468277;-2;-1;0;-115;4042;-501;128;0.0900277;-0.02493075;0.5941828;0.7988869;1;-1;-1;-461;3989;1072;4;0.6398922;-0.5734072;0.3753462;0.3476454;0;-2;0;75;4022;380;16;0.6426592;-0.6961443;-0.1897507;-0.2576177;0;-1;0;261;4098;348;2;0.432133;-0.3504155;-0.5947137;-0.5803324;0;-1;0;-365;4084;291;8;0.6925207;-0.7165607;-0.06786703;-0.04847645;1;0;0;-96;4056;105;0.5882952;2.83362;0.00940372;0.5942795;3.378955;0.02339578;0.5995404;3.858355;0.03367271;0.5690581;4.586001;0.1234739;0.2968461;4.903246;0.1255377;-0.03801167;4.742193;0.1710467;-0.1573387;3.827804;0.08169102;-0.03076448;2.939669;-0.2232567;0.816734;4.925029;0.125537;1.111549;4.790355;0.1710458;1.257715;3.838146;0.1566216;1.11258;2.944747;-0.1236661;0.2760428;2.791752;0.0005843937;0.1468871;1.336175;-0.07339648;0;0;0;0.2760428;2.791752;0.0005843937;0.1468871;1.336175;-0.07339648;0;0;0
1129857.4894;NotLabelled;NONE;16384;0.6803727;-0.5720221;0.3421052;0.3047091;0;0;-1;57;4045;628;65536;0.7402539;-0.5761772;0.132964;0.3199446;0;0;0;-1352;3913;-511;8192;0.5096953;-0.4293629;-0.5628639;-0.4889196;1;-2;0;-172;4059;655;32768;0.5946492;-0.4764543;-0.3421052;-0.5498615;-2;0;-1;1391;3873;253;256;-0.0235457;0.0567867;-0.6620498;-0.7469344;-2;-2;0;-213;4052;-531;128;0.0900277;-0.02493075;0.5941828;0.7988869;3;0;0;-483;3997;1132;4;0.6398922;-0.5734072;0.3753462;0.3476454;0;0;0;123;4024;404;16;0.6426592;-0.6961443;-0.1897507;-0.2576177;0;0;0;231;4076;430;2;0.432133;-0.3504155;-0.5947137;-0.5803324;0;-1;0;-343;4100;283;8;0.6925207;-0.7165607;-0.06786703;-0.04847645;1;0;0;-94;4092;115;0.588295;2.833619;0.009406164;0.5942794;3.378954;0.02342832;0.5995402;3.858354;0.03373171;0.5690579;4.585999;0.1235329;0.2968458;4.903244;0.1255966;-0.03801198;4.74219;0.1711056;-0.1573385;3.827802;0.08174935;-0.02930397;2.938897;-0.2203298;0.8167338;4.925026;0.125596;1.111549;4.790353;0.171105;1.255393;3.837786;0.1569671;1.110258;2.944387;-0.1233203;0.2760427;2.791753;0.0005843118;0.1468871;1.336175;-0.07339659;0;0;0;0.2760427;2.791753;0.0005843118;0.1468871;1.336175;-0.07339659;0;0;0
1129878.5076;NotLabelled;NONE;16384;0.6803727;-0.5720221;0.3421052;0.3047091;0;-1;-1;85;4001;614;65536;0.7402539;-0.5761772;0.132964;0.3199446;0;-1;0;-1316;3881;-507;8192;0.5096953;-0.4293629;-0.5628639;-0.4889196;1;-3;1;-132;4103;691;32768;0.5946492;-0.4764543;-0.3421052;-0.5498615;-2;-1;-1;1423;3865;229;256;-0.0235457;0.0567867;-0.6620498;-0.7469344;-3;-1;0;-211;4070;-545;128;0.08864266;-0.02493075;0.5955678;0.7980099;3;-2;0;-467;3967;1138;4;0.6398922;-0.5734072;0.3753462;0.3476454;0;0;0;71;4044;402;16;0.6426592;-0.6961443;-0.1897507;-0.2576177;1;0;0;281;4066;404;2;0.432133;-0.3518005;-0.5938954;-0.5803324;0;-1;0;-333;4146;321;8;0.6925207;-0.7165607;-0.06786703;-0.04847645;1;0;0;-180;4086;85;0.5882934;2.83362;0.009980857;0.5942777;3.378954;0.02400306;0.5995385;3.858354;0.03430647;0.5703955;4.586056;0.124101;0.2987677;4.903801;0.1261617;-0.03638588;4.743364;0.171672;-0.1555266;3.828976;0.0820681;-0.0268636;2.940071;-0.2197441;0.8186949;4.924627;0.126161;1.113262;4.789411;0.1716712;1.257135;3.836844;0.1578324;1.112584;2.943445;-0.1227567;0.276041;2.791753;0.001159012;0.1470397;1.336175;-0.07309058;0;0;0;0.276041;2.791753;0.001159012;0.1470397;1.336175;-0.07309058;0;0;0
1129899.5694;NotLabelled;NONE;16384;0.6796745;-0.5720221;0.3434903;0.3047091;0;-2;-1;67;4081;626;65536;0.7402539;-0.5761772;0.132964;0.3199446;0;-2;0;-1304;3883;-543;8192;0.5096953;-0.4293629;-0.5628639;-0.4889196;0;-3;1;-66;4067;619;32768;0.5943329;-0.4778393;-0.3407202;-0.5498615;-2;-1;0;1383;3791;287;256;-0.0235457;0.0567867;-0.6620498;-0.7469344;-2;-1;0;-73;4044;-515;128;0.08864266;-0.02493075;0.5955678;0.7980099;3;-2;0;-481;3947;1128;4;0.6398922;-0.5734072;0.3753462;0.3476454;0;-1;0;33;4052;404;16;0.6426592;-0.6961443;-0.1897507;-0.2576177;0;0;0;229;4082;376;2;0.432133;-0.3518005;-0.5938954;-0.5803324;0;-1;0;-353;4158;379;8;0.6925207;-0.7165607;-0.06786703;-0.04847645;0;0;0;-200;4092;83;0.5882939;2.833646;0.00984399;0.5942786;3.37902;0.02222151;0.5995398;3.858449;0.0310791;0.5703967;4.586151;0.1208735;0.2987691;4.903896;0.1229342;-0.0363846;4.743459;0.1684446;-0.1555392;3.829071;0.07885925;-0.02687638;2.940166;-0.2229527;0.8186963;4.924722;0.1229336;1.113263;4.789506;0.1684438;1.257134;3.836938;0.1545831;1.112583;2.943539;-0.126006;0.2760412;2.791752;0.001158692;0.1470397;1.336176;-0.07309081;0;0;0;0.2760412;2.791752;0.001158692;0.1470397;1.336176;-0.07309081;0;0;0
1129919.4792;NotLabelled;NONE;16384;0.6796745;-0.5720221;0.3434903;0.3047091;0;-1;-2;61;3969;662;65536;0.7404806;-0.5747922;0.134349;0.3213296;0;-1;1;-1332;3821;-531;8192;0.5096953;-0.4307479;-0.5630071;-0.4875346;1;-2;1;-64;3997;655;32768;0.5943329;-0.4778393;-0.3407202;-0.5498615;-2;-2;0;1361;3845;197;256;-0.02216066;0.0567867;-0.6634349;-0.7457469;-1;-1;0;-145;4014;-475;128;0.08864266;-0.0235457;0.5955678;0.798052;3;-2;0;-477;3927;1122;4;0.6398922;-0.5734072;0.3753462;0.3476454;0;-1;0;73;4046;424;16;0.6440443;-0.6948631;-0.1897507;-0.2576177;0;0;0;283;4048;358;2;0.432133;-0.3518005;-0.5938954;-0.5803324;0;0;0;-333;4088;333;8;0.6925207;-0.7165607;-0.06786703;-0.04847645;0;0;0;-124;4116;101;0.5882939;2.833646;0.00984399;0.5942786;3.37902;0.02222151;0.5995398;3.858449;0.0310791;0.5703967;4.586151;0.1208735;0.2987691;4.903896;0.1229342;-0.0363846;4.743459;0.1684446;-0.1566132;3.829029;0.08073866;-0.02795034;2.940124;-0.2210733;0.8186963;4.924722;0.1229336;1.113263;4.789506;0.1684438;1.257136;3.836939;0.154605;1.109481;2.943709;-0.1249038;0.2760412;2.791752;0.001158692;0.1470397;1.336176;-0.07309081;0;0;0;0.2760412;2.791752;0.001158692;0.1470397;1.336176;-0.07309081;0;0;0
1129940.9378;NotLabelled;NONE;16384;0.6796745;-0.5720221;0.3434903;0.3047091;0;-1;-2;113;3985;624;65536;0.7394034;-0.5761772;0.134349;0.3213296;0;-1;1;-1278;3789;-527;8192;0.5096953;-0.4307479;-0.5630071;-0.4875346;0;-1;1;-90;4037;615;32768;0.5943329;-0.4778393;-0.3407202;-0.5498615;-1;-1;0;1353;3839;241;256;-0.02216066;0.05540166;-0.6634349;-0.745851;-1;-2;0;-133;4034;-481;128;0.08864266;-0.0235457;0.5969529;0.7970165;2;-1;0;-475;3995;1088;4;0.6398922;-0.5734072;0.3753462;0.3476454;0;-2;0;63;4068;388;16;0.6440443;-0.6948631;-0.1897507;-0.2576177;0;0;0;245;4052;352;2;0.432133;-0.3518005;-0.5938954;-0.5803324;0;0;0;-355;4068;393;8;0.6925207;-0.7165607;-0.06786703;-0.04847645;0;0;0;-154;4130;151;0.5872532;2.834019;0.01532221;0.5932379;3.379393;0.02772972;0.5984991;3.858821;0.03661366;0.567683;4.58677;0.1238126;0.2953311;4.903901;0.1247033;-0.03946262;4.742862;0.1707368;-0.1595229;3.828432;0.0828011;-0.03187094;2.94003;-0.2209162;0.8152093;4.925912;0.1247026;1.110077;4.791532;0.1707359;1.254262;3.838973;0.1597743;1.107142;2.945744;-0.1200156;0.2750006;2.792126;0.006634511;0.1461413;1.336549;-0.06786077;0;0;0;0.2750006;2.792126;0.006634511;0.1461413;1.336549;-0.06786077;0;0;0
1129961.0292;NotLabelled;NONE;16384;0.6796745;-0.5720221;0.3434903;0.3047091;0;-1;-2;73;3959;624;65536;0.7394034;-0.5761772;0.134349;0.3213296;0;-1;1;-1304;3777;-573;8192;0.5096953;-0.4307479;-0.5630071;-0.4875346;0;-1;1;-138;4025;585;32768;0.5943329;-0.4778393;-0.3407202;-0.5498615;-1;0;0;1383;3839;233;256;-0.02216066;0.05540166;-0.6634349;-0.745851;-3;-2;0;-177;4018;-467;128;0.08864266;-0.0235457;0.5969529;0.7970165;2;0;0;-483;3971;1128;4;0.6398922;-0.5734072;0.3753462;0.3476454;0;-2;0;13;4098;404;16;0.6440443;-0.6948631;-0.1897507;-0.2576177;0;-1;0;263;4034;388;2;0.432133;-0.3518005;-0.5938954;-0.5803324;0;0;0;-395;4092;335;8;0.6925207;-0.716653;-0.06786703;-0.04709141;1;-1;0;-148;4082;67;0.5872393;2.834049;0.01573789;0.5932244;3.379462;0.02625456;0.5984858;3.858919;0.03347634;0.569012;4.586924;0.1206688;0.2972454;4.904556;0.1215567;-0.03784462;4.744136;0.1675915;-0.1577224;3.829706;0.07940652;-0.02799088;2.940537;-0.2211689;0.8171635;4.925608;0.121556;1.111783;4.790685;0.1675906;1.255991;3.838127;0.1569276;1.109452;2.944897;-0.1231679;0.2749862;2.792127;0.007207274;0.146282;1.336549;-0.06755634;0;0;0;0.2749862;2.792127;0.007207274;0.146282;1.336549;-0.06755634;0;0;0
1129981.6161;NotLabelled;NONE;16384;0.6789728;-0.5720221;0.3448753;0.3047091;0;-1;-1;55;3961;616;65536;0.7391504;-0.5761772;0.1357341;0.3213296;0;-2;1;-1284;3791;-557;8192;0.5096953;-0.4307479;-0.5630071;-0.4875346;0;-2;0;-112;4067;615;32768;0.5943329;-0.4778393;-0.3407202;-0.5498615;-1;-1;-1;1381;3831;195;256;-0.02216066;0.05540166;-0.6634349;-0.745851;-3;-1;0;-141;4012;-469;128;0.08864266;-0.0235457;0.5969529;0.7970165;2;-1;0;-519;3987;1110;4;0.6395639;-0.5720221;0.3767313;0.3490305;-1;-2;0;123;4036;396;16;0.6440443;-0.6948631;-0.1897507;-0.2576177;1;0;0;245;4058;376;2;0.433518;-0.3518005;-0.5928851;-0.5803324;0;-1;0;-407;4050;285;8;0.6939058;-0.715312;-0.06786703;-0.04709141;1;0;0;-110;4090;111;0.5872393;2.834049;0.01573789;0.5932244;3.379462;0.02625456;0.5984858;3.858919;0.03347634;0.569012;4.586924;0.1206688;0.2972454;4.904556;0.1215567;-0.03784462;4.744136;0.1675915;-0.1577224;3.829706;0.07940652;-0.02799088;2.940537;-0.2211689;0.8171635;4.925608;0.121556;1.111783;4.790685;0.1675906;1.255991;3.838127;0.1569276;1.109452;2.944897;-0.1231679;0.2749862;2.792127;0.007207274;0.146282;1.336549;-0.06755634;0;0;0;0.2749862;2.792127;0.007207274;0.146282;1.336549;-0.06755634;0;0;0
1130001.6224;NotLabelled;NONE;16384;0.6789728;-0.5720221;0.3448753;0.3047091;0;-2;-2;89;3983;574;65536;0.7391504;-0.5761772;0.1357341;0.3213296;0;-2;1;-1272;3857;-529;8192;0.5096953;-0.432133;-0.5619447;-0.4875346;0;-2;0;-120;4053;557;32768;0.5943329;-0.4778393;-0.3407202;-0.5498615;0;-1;0;1393;3861;267;256;-0.02216066;0.05540166;-0.66482;-0.7446167;-2;-1;0;-153;4074;-437;128;0.08864266;-0.0235457;0.5983379;0.7959772;2;0;0;-503;3981;1076;4;0.6395639;-0.5720221;0.3767313;0.3490305;0;-1;0;141;4018;386;16;0.6440443;-0.6948631;-0.1897507;-0.2576177;1;-1;0;275;4050;354;2;0.433518;-0.3518005;-0.5928851;-0.5803324;0;-1;0;-349;4058;389;8;0.6939058;-0.715312;-0.06786703;-0.04709141;1;-1;0;-130;4110;103;0.5887319;2.833842;0.0171738;0.5947171;3.379255;0.02769046;0.5999786;3.858711;0.03491221;0.5705047;4.586717;0.1221047;0.2987381;4.904349;0.1229926;-0.03635199;4.743929;0.1690274;-0.1573182;3.82946;0.08274243;-0.02937036;2.939725;-0.2169182;0.8186561;4.925401;0.1229919;1.113276;4.790478;0.1690265;1.257483;3.83792;0.1583635;1.110944;2.94469;-0.121732;0.2764788;2.791919;0.008643165;0.1462821;1.336549;-0.06755643;0;0;0;0.2764788;2.791919;0.008643165;0.1462821;1.336549;-0.06755643;0;0;0
1130042.5141;NotLabelled;NONE;16384;0.6776435;-0.5720221;0.3462604;0.3060942;0;-2;-2;97;4027;632;65536;0.7388948;-0.5761772;0.1371191;0.3213296;0;-3;2;-1264;3855;-483;8192;0.5096953;-0.432133;-0.5619447;-0.4875346;0;-2;1;-70;4079;633;32768;0.5943329;-0.4778393;-0.3407202;-0.5498615;-1;0;0;1367;3891;297;256;-0.02216066;0.05540166;-0.66482;-0.7446167;-2;-1;0;-175;4038;-495;128;0.08864266;-0.02216066;0.5983379;0.796017;2;0;0;-481;3997;1172;4;0.6395639;-0.5720221;0.3767313;0.3490305;0;-1;0;103;4112;386;16;0.6440443;-0.6948631;-0.1897507;-0.2576177;1;-1;0;223;4090;394;2;0.433518;-0.3531856;-0.5934156;-0.5789474;0;0;0;-371;4070;349;8;0.6939058;-0.715312;-0.06786703;-0.04709141;0;0;0;-128;4104;23;0.5887313;2.833872;0.01703709;0.5947168;3.379318;0.02566056;0.5999786;3.858796;0.0312181;0.5703401;4.587113;0.1157092;0.2985073;4.90469;0.1153798;-0.03655645;4.744371;0.1619581;-0.1575163;3.829904;0.07566398;-0.02954622;2.940167;-0.2239867;0.8184208;4.925851;0.1153791;1.113061;4.79116;0.1619574;1.254941;3.83825;0.1515773;1.108423;2.94502;-0.1285293;0.276478;2.791919;0.008663967;0.1462871;1.33655;-0.0675454;0;0;0;0.276478;2.791919;0.008663967;0.1462871;1.33655;-0.0675454;0;0;0
1130083.5405;NotLabelled;NONE;16384;0.6776435;-0.5720221;0.3462604;0.3060942;0;-2;-3;119;4001;640;65536;0.7386364;-0.5761772;0.1385041;0.3213296;0;-1;2;-1332;3865;-513;8192;0.5096953;-0.433518;-0.5608768;-0.4875346;0;-2;1;-28;4055;615;32768;0.5932167;-0.4792244;-0.3407202;-0.5498615;-1;-1;0;1295;3841;305;256;-0.02216066;0.05540166;-0.666205;-0.7433777;-3;-1;0;-181;4022;-495;128;0.08864266;-0.02216066;0.599723;0.794974;2;0;0;-495;3931;1090;4;0.6395639;-0.5720221;0.3767313;0.3490305;0;0;0;89;4088;410;16;0.6454294;-0.6939542;-0.1883656;-0.2576177;0;-1;0;283;4094;318;2;0.433518;-0.3531856;-0.5934156;-0.5789474;0;0;0;-299;4064;355;8;0.6939058;-0.7154421;-0.06648199;-0.04709141;0;0;0;-118;4118;131;0.5887313;2.833871;0.01703818;0.5947168;3.379317;0.02569102;0.5999785;3.858795;0.03127438;0.5703402;4.587111;0.1157651;0.2985073;4.904688;0.1154355;-0.03655633;4.74437;0.1620139;-0.1567408;3.829642;0.0774164;-0.03055213;2.939341;-0.2213125;0.8184208;4.925849;0.1154349;1.113061;4.791159;0.1620132;1.254941;3.838248;0.1516337;1.108424;2.945019;-0.1284723;0.2764781;2.791919;0.008662567;0.146287;1.33655;-0.06754601;0;0;0;0.2764781;2.791919;0.008662567;0.146287;1.33655;-0.06754601;0;0;0
1130125.6997;NotLabelled;NONE;16384;0.6757612;-0.5734072;0.3476454;0.3060942;0;-2;-3;81;3973;592;65536;0.7386364;-0.5761772;0.1385041;0.3213296;0;-2;2;-1268;3909;-555;8192;0.5096953;-0.433518;-0.5608768;-0.4875346;0;-1;1;-52;4071;563;32768;0.5932167;-0.4792244;-0.3407202;-0.5498615;-1;0;0;1255;3859;313;256;-0.02216066;0.05401662;-0.666205;-0.7434797;-2;-1;0;-121;4042;-517;128;0.08864266;-0.02216066;0.599723;0.794974;3;-1;0;-473;3965;1036;4;0.6395639;-0.5720221;0.3767313;0.3490305;0;0;0;129;4052;390;16;0.6454294;-0.6939542;-0.1883656;-0.2576177;0;0;0;289;4016;328;2;0.433518;-0.3531856;-0.5934156;-0.5789474;0;0;0;-361;4116;319;8;0.6939058;-0.7154421;-0.06648199;-0.04709141;0;0;0;-138;4110;91;0.5903316;2.833951;0.02156164;0.5963175;3.379424;0.02831829;0.6015792;3.858918;0.03223479;0.5717763;4.587537;0.1140187;0.2998773;4.905054;0.11247;-0.03515993;4.744839;0.1595922;-0.155338;3.830111;0.07498497;-0.03090547;2.93925;-0.2228064;0.8197865;4.926323;0.1124694;1.114448;4.791868;0.1595917;1.253995;3.83861;0.1494949;1.10563;2.944834;-0.127884;0.2780779;2.79197;0.01334379;0.1478927;1.336601;-0.06287543;0;0;0;0.2780779;2.79197;0.01334379;0.1478927;1.336601;-0.06287543;0;0;0
1130146.48;NotLabelled;NONE;16384;0.6757612;-0.5734072;0.3476454;0.3060942;1;0;-3;57;4051;598;65536;0.7372923;-0.5775623;0.1398892;0.3213296;-1;-1;3;-1272;3805;-489;8192;0.5096953;-0.433518;-0.5620778;-0.4861496;0;-1;1;-122;4081;567;32768;0.5932167;-0.4792244;-0.3407202;-0.5498615;-1;0;-1;1313;3879;255;256;-0.02077562;0.05401662;-0.666205;-0.7435197;-2;-1;0;-181;4092;-449;128;0.08725762;-0.02216066;0.599723;0.7951273;2;-1;0;-465;3967;1132;4;0.638806;-0.5720221;0.3767313;0.3504155;0;-1;0;65;4068;432;16;0.6454294;-0.6939542;-0.1883656;-0.2576177;0;0;0;293;4026;340;2;0.433518;-0.3531856;-0.5934156;-0.5789474;0;0;0;-363;4072;297;8;0.6939058;-0.7154421;-0.06648199;-0.04709141;1;0;0;-102;4082;101;0.5903028;2.833951;0.02213751;0.5962886;3.379424;0.0288941;0.6015504;3.858918;0.03281054;0.5730965;4.587592;0.1145884;0.3017858;4.905611;0.113037;-0.03354762;4.746018;0.1601605;-0.1527725;3.830767;0.07996724;-0.02772347;2.939906;-0.2175659;0.8217334;4.925918;0.1130363;1.116145;4.790917;0.1601597;1.255713;3.837661;0.150352;1.107923;2.943885;-0.1273339;0.2780492;2.79197;0.01391966;0.1480223;1.336601;-0.06256899;0;0;0;0.2780492;2.79197;0.01391966;0.1480223;1.336601;-0.06256899;0;0;0
1130166.8777;NotLabelled;NONE;16384;0.6756732;-0.5734072;0.3490305;0.3047091;1;-1;-3;45;3983;624;65536;0.7372923;-0.5775623;0.1398892;0.3213296;-1;-2;3;-1310;3807;-525;8192;0.5096953;-0.434903;-0.5610068;-0.4861496;0;-2;2;-64;4045;587;32768;0.59289;-0.4806094;-0.3393352;-0.5498615;-1;0;-2;1303;3825;223;256;-0.02077562;0.05401662;-0.66759;-0.7422763;-1;-1;0;-125;4074;-431;128;0.08725762;-0.02216066;0.601108;0.7940807;2;0;0;-501;3947;1102;4;0.6400436;-0.5706371;0.3767313;0.3504155;0;-1;0;87;4058;452;16;0.6454294;-0.6935768;-0.1897507;-0.2576177;0;0;0;311;4030;348;2;0.433518;-0.3531856;-0.5934156;-0.5789474;0;0;0;-363;4090;291;8;0.6939058;-0.7154421;-0.06648199;-0.04709141;0;0;0;-122;4140;55;0.5871418;2.834206;0.02300498;0.5931276;3.379676;0.03000169;0.5983894;3.859168;0.03412919;0.568437;4.587771;0.1160019;0.296472;4.905231;0.1144992;-0.03853069;4.744941;0.1616114;-0.1574638;3.829655;0.08138775;-0.03220112;2.937483;-0.2120999;0.8163766;4.926608;0.1144866;1.111067;4.792209;0.1615843;1.25327;3.839313;0.1550406;1.105986;2.945537;-0.1229138;0.2748882;2.792229;0.01476713;0.1481361;1.336601;-0.06229921;0;0;0;0.2748882;2.792229;0.01476713;0.1481361;1.336601;-0.06229921;0;0;0
1130188.4838;NotLabelled;NONE;16384;0.6756732;-0.5734072;0.3490305;0.3047091;1;-1;-2;43;3999;576;65536;0.7372923;-0.5775623;0.1398892;0.3213296;0;-1;3;-1358;3821;-501;8192;0.5096953;-0.434903;-0.5610068;-0.4861496;0;-2;1;-70;4025;571;32768;0.5941715;-0.4806094;-0.3393352;-0.5484765;-1;0;-2;1287;3857;263;256;-0.02077562;0.05263158;-0.66759;-0.7423758;-4;-1;0;-135;4052;-447;128;0.08725762;-0.02216066;0.601108;0.7940807;2;0;0;-475;4007;1036;4;0.6400436;-0.5706371;0.3767313;0.3504155;0;0;0;97;4088;468;16;0.6454294;-0.6935768;-0.1897507;-0.2576177;0;0;0;317;4056;360;2;0.433518;-0.3531856;-0.5934156;-0.5789474;0;0;0;-293;4052;323;8;0.6939058;-0.7154421;-0.06648199;-0.04709141;0;0;0;-140;4116;73;0.5877562;2.834016;0.02746561;0.5937423;3.379507;0.03256391;0.5990043;3.859011;0.03502268;0.568891;4.587908;0.1141818;0.2968624;4.905305;0.1114517;-0.03811631;4.745124;0.1591006;-0.1601245;3.830076;0.08079627;-0.0348329;2.937904;-0.212679;0.8167627;4.926787;0.1114507;1.111472;4.792623;0.1590992;1.251329;3.839382;0.152155;1.10096;2.94579;-0.1247369;0.2755024;2.792011;0.01938587;0.1454893;1.336906;-0.06199633;0;0;0;0.2755024;2.792011;0.01938587;0.1454893;1.336906;-0.06199633;0;0;0
1130229.7101;NotLabelled;NONE;16384;0.6737769;-0.5747922;0.3504155;0.3047091;1;-1;-2;43;3973;630;65536;0.7370282;-0.5775623;0.1412742;0.3213296;-1;-2;3;-1278;3845;-499;8192;0.5096953;-0.4362881;-0.5599303;-0.4861496;0;-1;2;-8;4049;561;32768;0.5933784;-0.4806094;-0.3407202;-0.5484765;-1;0;-2;1269;3857;289;256;-0.02077562;0.05263158;-0.6689751;-0.741128;-2;-1;0;-145;4034;-467;128;0.08725762;-0.02216066;0.601108;0.7940807;1;0;0;-485;3953;1080;4;0.6400436;-0.5706371;0.3767313;0.3504155;0;0;0;89;4014;398;16;0.6454294;-0.6939542;-0.1883656;-0.2576177;0;0;0;341;4072;366;2;0.434903;-0.3531856;-0.5924013;-0.5789474;0;0;0;-323;4062;319;8;0.6939058;-0.7154421;-0.06648199;-0.04709141;1;0;0;-142;4102;93;0.5877156;2.834017;0.02803521;0.5937018;3.379507;0.03313357;0.5989637;3.859011;0.03559235;0.5702025;4.587963;0.1147456;0.2987631;4.905864;0.1120126;-0.03651223;4.746305;0.1596626;-0.1583583;3.831258;0.0811063;-0.03245997;2.939085;-0.2121094;0.8187023;4.926382;0.1120118;1.113162;4.791672;0.1596615;1.253034;3.838431;0.1530066;1.105311;2.944562;-0.1244169;0.2754619;2.792011;0.01995538;0.1456174;1.336906;-0.06169545;0;0;0;0.2754619;2.792011;0.01995538;0.1456174;1.336906;-0.06169545;0;0;0
1130250.7364;NotLabelled;NONE;16384;0.6731488;-0.5747922;0.3504155;0.3060942;1;-1;-2;67;3987;640;65536;0.7367614;-0.5775623;0.1426593;0.3213296;0;-2;2;-1348;3869;-517;8192;0.5096953;-0.4362881;-0.5599303;-0.4861496;0;0;2;-50;4039;543;32768;0.5933784;-0.4806094;-0.3407202;-0.5484765;0;0;-2;1303;3899;283;256;-0.02077562;0.05263158;-0.6689751;-0.741128;-2;-1;0;-145;4048;-495;128;0.08725762;-0.02216066;0.602493;0.7930303;1;0;0;-483;3993;1084;4;0.6400436;-0.5706371;0.3767313;0.3504155;0;0;0;65;4088;416;16;0.6454294;-0.6939542;-0.1883656;-0.2576177;0;0;0;265;4078;394;2;0.434903;-0.3531856;-0.5924013;-0.5789474;0;0;0;-405;4038;301;8;0.6939058;-0.7155319;-0.06648199;-0.04570637;0;0;0;-108;4128;109;0.5903677;2.833712;0.02777299;0.5963537;3.379203;0.03287134;0.6016157;3.858707;0.03533009;0.5726988;4.587943;0.1117651;0.301197;4.905777;0.1078088;-0.0340539;4.74633;0.1560032;-0.1551135;3.830789;0.08212263;-0.03096936;2.938062;-0.2101525;0.8211321;4.926398;0.1078081;1.115612;4.791924;0.1560023;1.253144;3.838341;0.1496162;1.106672;2.943755;-0.1261538;0.2781138;2.791706;0.01969315;0.1482754;1.336601;-0.06196726;0;0;0;0.2781138;2.791706;0.01969315;0.1482754;1.336601;-0.06196726;0;0;0
1130271.6586;NotLabelled;NONE;16384;0.6731488;-0.5747922;0.3504155;0.3060942;2;-1;-2;47;4035;606;65536;0.735067;-0.5789474;0.1426593;0.3227147;-1;-2;2;-1354;3903;-509;8192;0.5083103;-0.4362881;-0.561188;-0.4861496;0;0;2;-98;4065;581;32768;0.5922539;-0.4819945;-0.3407202;-0.5484765;-1;1;-3;1333;3841;285;256;-0.02077562;0.05263158;-0.6689751;-0.741128;-1;-1;0;-153;4044;-409;128;0.08725762;-0.02216066;0.602493;0.7930303;1;0;0;-451;3949;1130;4;0.6400436;-0.5706371;0.3767313;0.3504155;0;0;0;91;4080;412;16;0.6454294;-0.6939542;-0.1883656;-0.2576177;0;0;0;281;4058;440;2;0.434903;-0.3531856;-0.5924013;-0.5789474;0;0;0;-339;4084;337;8;0.6939058;-0.7155319;-0.06648199;-0.04570637;1;1;0;-120;4052;65;0.5903646;2.83374;0.0276635;0.5963508;3.379245;0.0308613;0.6016128;3.858755;0.03164947;0.5726824;4.58799;0.1080793;0.3011813;4.905825;0.1040753;-0.03407797;4.746378;0.1522106;-0.1532342;3.830871;0.07489346;-0.03081156;2.937593;-0.2164219;0.8211166;4.926445;0.1041662;1.115588;4.791972;0.1524122;1.253123;3.838418;0.142758;1.1067;2.943831;-0.1330379;0.2781103;2.791707;0.01974201;0.1482863;1.336601;-0.06194126;0;0;0;0.2781103;2.791707;0.01974201;0.1482863;1.336601;-0.06194126;0;0;0
1130292.7747;NotLabelled;NONE;16384;0.6731488;-0.5747922;0.3504155;0.3060942;2;-1;-2;89;4031;616;65536;0.735067;-0.5789474;0.1426593;0.3227147;-1;-2;1;-1350;3879;-477;8192;0.5083103;-0.4362881;-0.5623849;-0.4847645;0;0;2;-16;4077;587;32768;0.5914549;-0.4819945;-0.3421052;-0.5484765;0;0;-2;1325;3903;279;256;-0.02077562;0.05263158;-0.6689751;-0.741128;-2;-1;0;-135;4030;-393;128;0.08725762;-0.02216066;0.602493;0.7930303;1;0;0;-475;3965;1066;4;0.6400436;-0.5706371;0.3767313;0.3504155;0;0;0;105;4068;416;16;0.6454294;-0.6939542;-0.1883656;-0.2576177;0;-1;0;255;4074;358;2;0.434903;-0.3531856;-0.5924013;-0.5789474;0;0;0;-365;4080;291;8;0.6939058;-0.7155319;-0.06648199;-0.04570637;1;0;0;-78;4152;85;0.5903679;2.83374;0.02761455;0.5963541;3.379245;0.03081234;0.601616;3.858755;0.03160048;0.5726991;4.58799;0.1080354;0.3011973;4.905825;0.104079;-0.03405352;4.746378;0.1522732;-0.1532391;3.830607;0.0781922;-0.02774098;2.936881;-0.2104248;0.8211325;4.926445;0.1040785;1.115612;4.791972;0.1522728;1.253167;3.838379;0.1486073;1.10481;2.943263;-0.1244211;0.2781138;2.791707;0.01969314;0.1482754;1.336601;-0.06196727;0;0;0;0.2781138;2.791707;0.01969314;0.1482754;1.336601;-0.06196727;0;0;0
1130313.5306;NotLabelled;NONE;16384;0.6731488;-0.5747922;0.3504155;0.3060942;2;-1;-1;43;4065;580;65536;0.7347968;-0.5789474;0.1440443;0.3227147;-1;-2;2;-1340;3831;-515;8192;0.5083103;-0.4376731;-0.5613077;-0.4847645;0;0;2;-22;4045;601;32768;0.5914549;-0.4819945;-0.3421052;-0.5484765;0;0;-2;1295;3809;205;256;-0.01939058;0.05263158;-0.6703601;-0.739913;-2;0;0;-129;4014;-401;128;0.08725762;-0.02077562;0.602493;0.7930679;0;0;0;-513;3961;1060;4;0.6400436;-0.5706371;0.3767313;0.3504155;0;0;0;93;4066;416;16;0.6454294;-0.6939542;-0.1883656;-0.2576177;1;-1;0;271;4054;338;2;0.434903;-0.3545706;-0.5915733;-0.5789474;0;0;0;-417;4132;311;8;0.6939058;-0.7154421;-0.06648199;-0.04709141;0;0;0;-110;4114;29;0.5903681;2.83374;0.02761461;0.5963542;3.379245;0.03081246;0.6016162;3.858755;0.03160065;0.5726994;4.58799;0.1080356;0.3011975;4.905825;0.1040794;-0.03405327;4.746378;0.1522738;-0.1532395;3.830607;0.07819332;-0.02774181;2.936881;-0.2104239;0.8211328;4.926445;0.1040787;1.115612;4.791972;0.1522728;1.255767;3.838751;0.1509376;1.10863;2.942925;-0.1204185;0.2781139;2.791707;0.0196931;0.1482754;1.336601;-0.06196735;0;0;0;0.2781139;2.791707;0.0196931;0.1482754;1.336601;-0.06196735;0;0;0
1130354.5166;NotLabelled;NONE;16384;0.6719636;-0.5761772;0.3504155;0.3060942;2;-1;-2;75;3987;638;65536;0.7347968;-0.5789474;0.1440443;0.3227147;-1;-2;1;-1340;3845;-525;8192;0.5083103;-0.4376731;-0.5613077;-0.4847645;0;0;1;-24;4079;595;32768;0.5914549;-0.4819945;-0.3421052;-0.5484765;0;0;-2;1297;3833;301;256;-0.01939058;0.05124654;-0.6703601;-0.7400102;-2;0;0;-203;4056;-397;128;0.08725762;-0.02077562;0.602493;0.7930679;0;0;0;-447;3971;1018;4;0.6400436;-0.5706371;0.3767313;0.3504155;0;0;0;77;4022;448;16;0.6454294;-0.6939542;-0.1883656;-0.2576177;1;0;0;283;4076;308;2;0.434903;-0.3545706;-0.5915733;-0.5789474;0;0;0;-395;4054;309;8;0.6952909;-0.7140961;-0.06648199;-0.04709141;0;0;0;-108;4106;41;0.5903296;2.833739;0.02815372;0.5963158;3.379244;0.0313797;0.6015778;3.858754;0.03219262;0.5710104;4.588194;0.1059915;0.2987956;4.905401;0.1008494;-0.03610331;4.745376;0.1495708;-0.1551461;3.829605;0.07526004;-0.0308587;2.935328;-0.2121731;0.8186831;4.92719;0.1008489;1.113457;4.793554;0.1495702;1.251279;3.839993;0.1487592;1.104666;2.944166;-0.1228805;0.2780754;2.791707;0.02022987;0.1483948;1.336601;-0.06168099;0;0;0;0.2780754;2.791707;0.02022987;0.1483948;1.336601;-0.06168099;0;0;0
1130375.7743;NotLabelled;NONE;16384;0.6712396;-0.5761772;0.3518005;0.3060942;1;0;-1;55;3981;528;65536;0.734187;-0.5789474;0.1440443;0.3240997;-2;0;0;-1326;3885;-515;8192;0.5083103;-0.4376731;-0.5613077;-0.4847645;1;0;1;-36;4011;533;32768;0.5914549;-0.4819945;-0.3421052;-0.5484765;0;1;-2;1321;3823;277;256;-0.01939058;0.05124654;-0.6703601;-0.7400102;-2;0;0;-139;4046;-393;128;0.08725762;-0.02077562;0.602493;0.7930679;0;0;0;-441;3925;1062;4;0.6400436;-0.5706371;0.3767313;0.3504155;0;-1;0;91;4092;428;16;0.6454294;-0.6939542;-0.1883656;-0.2576177;0;-1;0;289;4046;310;2;0.434903;-0.3545706;-0.5915733;-0.5789474;0;0;0;-363;4056;305;8;0.6952909;-0.7140961;-0.06648199;-0.04709141;0;-1;0;-172;4078;43;0.5902873;2.833739;0.02872652;0.5962735;3.379244;0.03195252;0.6015356;3.858754;0.03276543;0.5723267;4.58825;0.1065586;0.3007031;4.905963;0.1014141;-0.03449336;4.746562;0.1501365;-0.1515345;3.830332;0.07836097;-0.02665501;2.936055;-0.2088154;0.8206304;4.926785;0.1014135;1.115155;4.7926;0.1501359;1.252978;3.839039;0.1496087;1.106925;2.943213;-0.1223323;0.278033;2.791707;0.02080268;0.1485215;1.336601;-0.06137514;0;0;0;0.278033;2.791707;0.02080268;0.1485215;1.336601;-0.06137514;0;0;0
1130396.5181;NotLabelled;NONE;16384;0.6712396;-0.5761772;0.3518005;0.3060942;1;0;-1;51;3991;584;65536;0.734187;-0.5789474;0.1440443;0.3240997;-1;0;0;-1248;3829;-515;8192;0.5069252;-0.4376731;-0.5625589;-0.4847645;0;0;1;0;4089;583;32768;0.5914549;-0.4819945;-0.3421052;-0.5484765;0;0;-1;1375;3863;299;256;-0.01939058;0.05263158;-0.6703601;-0.739913;-2;0;0;-165;4044;-457;128;0.08725762;-0.02077562;0.602493;0.7930679;0;0;0;-433;3973;1052;4;0.6400436;-0.5706371;0.3767313;0.3504155;0;0;0;91;4072;458;16;0.6454294;-0.6939542;-0.1883656;-0.2576177;0;0;0;335;4092;350;2;0.434903;-0.3545706;-0.5915733;-0.5789474;0;0;0;-371;4112;303;8;0.6952909;-0.7140961;-0.06648199;-0.04709141;0;0;0;-134;4124;71;0.5902873;2.833739;0.02872652;0.5962735;3.379244;0.03195252;0.6015356;3.858754;0.03276543;0.5723267;4.58825;0.1065586;0.3007031;4.905963;0.1014141;-0.03449336;4.746562;0.1501365;-0.152596;3.830319;0.08028044;-0.02603907;2.936334;-0.2070681;0.8206304;4.926785;0.1014135;1.115155;4.7926;0.1501359;1.252978;3.839039;0.1496087;1.106925;2.943213;-0.1223323;0.278033;2.791707;0.02080268;0.1485215;1.336601;-0.06137514;0;0;0;0.278033;2.791707;0.02080268;0.1485215;1.336601;-0.06137514;0;0;0
1130416.4906;NotLabelled;NONE;16384;0.6712396;-0.5761772;0.3518005;0.3060942;1;0;-1;83;4013;576;65536;0.734187;-0.5789474;0.1440443;0.3240997;-1;0;0;-1328;3845;-509;8192;0.5069252;-0.4376731;-0.5625589;-0.4847645;0;0;1;-12;4041;587;32768;0.5906516;-0.4819945;-0.3434903;-0.5484765;0;0;0;1341;3885;283;256;-0.01939058;0.05263158;-0.6717451;-0.7386558;-1;0;0;-115;4042;-377;128;0.08725762;-0.02077562;0.602493;0.7930679;0;0;0;-465;4005;1038;4;0.6400436;-0.5706371;0.3767313;0.3504155;0;0;0;83;4102;452;16;0.6454294;-0.6944668;-0.1883656;-0.2562327;0;-1;0;275;4026;358;2;0.434903;-0.3545706;-0.5915733;-0.5789474;0;0;0;-411;4030;345;8;0.6952909;-0.7140961;-0.06648199;-0.04709141;0;0;0;-174;4102;63;0.5903296;2.833739;0.02815372;0.5963158;3.379244;0.0313797;0.6015778;3.858754;0.03219262;0.5710104;4.588194;0.1059915;0.2987956;4.905401;0.1008494;-0.03610331;4.745376;0.1495708;-0.1544929;3.829133;0.08020192;-0.02852848;2.935147;-0.2074066;0.8186831;4.92719;0.1008489;1.113457;4.793554;0.1495702;1.251287;3.839994;0.1511897;1.104674;2.944169;-0.1204496;0.2780754;2.791707;0.02022987;0.1483948;1.336601;-0.06168099;0;0;0;0.2780754;2.791707;0.02022987;0.1483948;1.336601;-0.06168099;0;0;0
1130436.587;NotLabelled;NONE;16384;0.6712396;-0.5761772;0.3518005;0.3060942;2;0;0;5;4029;674;65536;0.734187;-0.5789474;0.1440443;0.3240997;-1;0;0;-1332;3879;-483;8192;0.5069252;-0.4376731;-0.5625589;-0.4847645;0;0;1;-22;4049;571;32768;0.5893624;-0.4819945;-0.3434903;-0.5498615;0;1;0;1283;3933;299;256;-0.01939058;0.05263158;-0.6717451;-0.7386558;-1;0;0;-83;4030;-347;128;0.08725762;-0.02077562;0.602493;0.7930679;0;0;0;-437;3957;1040;4;0.6400436;-0.5706371;0.3767313;0.3504155;0;0;0;55;4060;362;16;0.6468144;-0.693177;-0.1883656;-0.2562327;0;0;0;347;4096;352;2;0.434903;-0.3545706;-0.5915733;-0.5789474;0;0;0;-365;4084;261;8;0.6952909;-0.7140961;-0.06648199;-0.04709141;0;0;0;-82;4138;57;0.5879067;2.833928;0.02650192;0.5938929;3.379433;0.02972789;0.5991548;3.858943;0.03054079;0.5684341;4.588647;0.1016097;0.2961584;4.905779;0.09524024;-0.03871699;4.745872;0.1445064;-0.156958;3.829629;0.07488457;-0.03097073;2.935643;-0.2127142;0.8160418;4.92767;0.09523976;1.110834;4.794274;0.1445061;1.24866;3.840715;0.1464205;1.103279;2.944183;-0.1235478;0.2756525;2.791895;0.01857813;0.1459783;1.336789;-0.06334298;0;0;0;0.2756525;2.791895;0.01857813;0.1459783;1.336789;-0.06334298;0;0;0
1130457.7188;NotLabelled;NONE;16384;0.6712396;-0.5761772;0.3518005;0.3060942;1;1;0;41;3979;594;65536;0.734187;-0.5789474;0.1440443;0.3240997;-1;0;0;-1320;3835;-543;8192;0.5069252;-0.4376731;-0.5625589;-0.4847645;0;1;1;-26;4089;565;32768;0.5893624;-0.4819945;-0.3434903;-0.5498615;0;1;0;1355;3917;327;256;-0.01939058;0.05124654;-0.6717451;-0.7387532;-2;-1;0;-189;4078;-373;128;0.08725762;-0.02077562;0.602493;0.7930679;0;0;0;-489;4031;1096;4;0.6400436;-0.5706371;0.3767313;0.3504155;0;0;0;55;4042;436;16;0.6468144;-0.693177;-0.1883656;-0.2562327;0;0;0;291;4040;380;2;0.434903;-0.3545706;-0.5915733;-0.5789474;0;0;0;-413;4064;263;8;0.6952909;-0.7140961;-0.06648199;-0.04709141;0;0;0;-120;4118;11;0.5868238;2.834271;0.03146009;0.5928099;3.379776;0.03468604;0.598072;3.859286;0.03549895;0.5673512;4.58899;0.1065679;0.2950755;4.906123;0.1001984;-0.03979987;4.746215;0.1494646;-0.1580409;3.829972;0.07984272;-0.03205362;2.935987;-0.207756;0.8149588;4.928013;0.1001979;1.109751;4.794618;0.1494643;1.247577;3.841058;0.1513787;1.100103;2.944802;-0.1183712;0.2745696;2.792238;0.02353628;0.1448955;1.337133;-0.05838482;0;0;0;0.2745696;2.792238;0.02353628;0.1448955;1.337133;-0.05838482;0;0;0
1130477.9096;NotLabelled;NONE;16384;0.6700481;-0.5775623;0.3518005;0.3060942;1;-1;0;-13;4031;656;65536;0.733574;-0.5789474;0.1440443;0.3254848;-1;-1;-1;-1256;3819;-467;8192;0.5069252;-0.4376731;-0.5625589;-0.4847645;0;1;1;-4;4049;587;32768;0.5893624;-0.4819945;-0.3434903;-0.5498615;0;0;0;1343;3901;273;256;-0.01939058;0.05124654;-0.6717451;-0.7387532;-3;0;0;-101;4052;-423;128;0.08725762;-0.02077562;0.602493;0.7930679;0;0;1;-569;3989;1064;4;0.6400436;-0.5706371;0.3767313;0.3504155;0;0;0;79;4054;446;16;0.6468144;-0.693177;-0.1883656;-0.2562327;0;0;0;277;4066;400;2;0.434903;-0.3545706;-0.5915733;-0.5789474;0;0;0;-345;4054;333;8;0.6952909;-0.7140961;-0.06648199;-0.04709141;0;0;0;-144;4108;47;0.5867749;2.834271;0.03202459;0.5927612;3.379776;0.03525057;0.5980231;3.859286;0.03606348;0.5686642;4.589047;0.107127;0.2969807;4.906687;0.1007552;-0.0381926;4.747405;0.1500226;-0.1562902;3.831162;0.08015787;-0.02971181;2.937176;-0.2071811;0.816904;4.927607;0.1007545;1.111447;4.793662;0.1500217;1.249269;3.840103;0.1522195;1.10235;2.943847;-0.1178331;0.2745207;2.792238;0.02410072;0.1450153;1.337133;-0.05808679;0;0;0;0.2745207;2.792238;0.02410072;0.1450153;1.337133;-0.05808679;0;0;0
1130497.5017;NotLabelled;NONE;16384;0.6700481;-0.5775623;0.3518005;0.3060942;1;-2;-1;61;4031;616;65536;0.733574;-0.5789474;0.1440443;0.3254848;-1;-1;-1;-1232;3851;-459;8192;0.5069252;-0.4390582;-0.5614786;-0.4847645;0;0;1;-48;4069;579;32768;0.5893624;-0.4819945;-0.3434903;-0.5498615;0;0;0;1375;3837;249;256;-0.01939058;0.05124654;-0.6717451;-0.7387532;-1;0;-1;-105;4056;-393;128;0.08587258;-0.02077562;0.602493;0.793219;0;0;1;-455;3981;1084;4;0.6400436;-0.5706371;0.3767313;0.3504155;0;0;0;91;4092;442;16;0.6468144;-0.693177;-0.1883656;-0.2562327;0;0;0;275;4034;362;2;0.434903;-0.3545706;-0.5915733;-0.5789474;0;0;0;-369;4062;347;8;0.6952909;-0.714186;-0.06648199;-0.04570637;0;0;0;-146;4112;67;0.5867749;2.834271;0.03202459;0.5927612;3.379776;0.03525057;0.5980231;3.859286;0.03606348;0.5686642;4.589047;0.107127;0.2969807;4.906687;0.1007552;-0.0381926;4.747405;0.1500226;-0.1544343;3.830717;0.08294469;-0.02617755;2.937025;-0.204566;0.816904;4.927607;0.1007545;1.111447;4.793662;0.1500217;1.249269;3.840103;0.1522195;1.10235;2.943847;-0.1178328;0.2745207;2.792238;0.02410072;0.1450153;1.337133;-0.05808679;0;0;0;0.2745207;2.792238;0.02410072;0.1450153;1.337133;-0.05808679;0;0;0
1130518.4852;NotLabelled;NONE;16384;0.6700481;-0.5775623;0.3518005;0.3060942;1;0;-1;121;4065;620;65536;0.733574;-0.5789474;0.1440443;0.3254848;-1;-1;0;-1334;3861;-509;8192;0.5069252;-0.4390582;-0.5614786;-0.4847645;0;0;1;-10;4027;527;32768;0.5893624;-0.4819945;-0.3434903;-0.5498615;0;-2;0;1363;3859;289;256;-0.01939058;0.05124654;-0.6717451;-0.7387532;0;0;-1;-107;4030;-393;128;0.08587258;-0.02077562;0.602493;0.793219;-1;-1;0;-527;3975;1132;4;0.6400436;-0.5706371;0.3767313;0.3504155;0;0;0;67;4028;376;16;0.6468144;-0.693177;-0.1883656;-0.2562327;0;0;0;325;4016;356;2;0.434903;-0.3545706;-0.5915733;-0.5789474;0;0;0;-337;4016;293;8;0.6952909;-0.714186;-0.06648199;-0.04570637;0;0;0;-182;4100;93;0.5867755;2.834268;0.03203815;0.5927616;3.379771;0.03550032;0.5980237;3.859281;0.03652085;0.5686663;4.589041;0.107585;0.2969827;4.906681;0.1012192;-0.03818949;4.747399;0.1504939;-0.1544343;3.830682;0.08381859;-0.02618397;2.936991;-0.203695;0.816906;4.927602;0.1012071;1.11145;4.793656;0.1504679;1.246937;3.839764;0.1533207;1.100011;2.943509;-0.1167288;0.2745213;2.792238;0.02409471;0.145014;1.337132;-0.05808992;0;0;0;0.2745213;2.792238;0.02409471;0.145014;1.337132;-0.05808992;0;0;0
1130540.0045;NotLabelled;NONE;16384;0.6700481;-0.5775623;0.3518005;0.3060942;1;1;0;119;3999;604;65536;0.733574;-0.5789474;0.1440443;0.3254848;-2;0;0;-1306;3887;-519;8192;0.5055401;-0.4390582;-0.5627259;-0.4847645;0;0;0;14;3999;575;32768;0.5893624;-0.4819945;-0.3434903;-0.5498615;0;-1;0;1259;3823;229;256;-0.01800554;0.05124654;-0.6717451;-0.7387882;-1;0;0;-165;3998;-381;128;0.08587258;-0.02077562;0.602493;0.793219;-1;0;0;-539;3949;1120;4;0.6400436;-0.5706371;0.3767313;0.3504155;0;0;0;87;4048;434;16;0.6468144;-0.693177;-0.1883656;-0.2562327;0;0;0;343;4082;400;2;0.434903;-0.3545706;-0.5915733;-0.5789474;0;0;0;-353;4078;369;8;0.6952909;-0.714186;-0.06648199;-0.04570637;0;0;0;-148;4070;65;0.5867748;2.834268;0.03204444;0.592761;3.379771;0.03550658;0.5980231;3.859281;0.0365271;0.5686641;4.589041;0.1075906;0.2969806;4.906682;0.1012186;-0.03819269;4.747399;0.1504857;-0.154434;3.830711;0.08340756;-0.02617734;2.937019;-0.204103;0.8169038;4.927602;0.1012182;1.111446;4.793656;0.1504858;1.246933;3.839763;0.1529323;1.100014;2.943507;-0.1171201;0.2745206;2.792238;0.02410097;0.1450153;1.337132;-0.05808663;0;0;0;0.2745206;2.792238;0.02410097;0.1450153;1.337132;-0.05808663;0;0;0
1130561.4928;NotLabelled;NONE;16384;0.6700481;-0.5775623;0.3518005;0.3060942;1;2;0;43;3973;622;65536;0.733574;-0.5789474;0.1440443;0.3254848;-2;2;1;-1276;3861;-497;8192;0.5055401;-0.4390582;-0.5615298;-0.4861496;0;1;0;16;4003;541;32768;0.5893624;-0.4819945;-0.3434903;-0.5498615;0;1;0;1305;3911;215;256;-0.01939058;0.05124654;-0.6731302;-0.7374914;-2;1;0;-173;4044;-369;128;0.08587258;-0.02077562;0.601108;0.7942691;-2;0;0;-457;3951;1048;4;0.6400436;-0.5706371;0.3767313;0.3504155;0;0;0;183;4026;386;16;0.6468144;-0.693177;-0.1883656;-0.2562327;0;0;0;263;4054;334;2;0.434903;-0.3545706;-0.5915733;-0.5789474;0;0;0;-317;4068;321;8;0.6952909;-0.714186;-0.06648199;-0.04570637;0;0;0;-78;4084;59;0.5867294;2.834268;0.03255427;0.5927156;3.379771;0.0360164;0.5979776;3.859281;0.03703693;0.5671253;4.588972;0.1081824;0.2947923;4.906056;0.1018476;-0.04005395;4.746083;0.1510988;-0.1561706;3.829394;0.08380485;-0.02737944;2.935702;-0.2034668;0.8146716;4.928041;0.1018468;1.109488;4.794693;0.1510976;1.244955;3.840809;0.1565036;1.098538;2.944553;-0.1138215;0.2744752;2.792238;0.02461088;0.1451229;1.337133;-0.05781721;0;0;0;0.2744752;2.792238;0.02461088;0.1451229;1.337133;-0.05781721;0;0;0
1130582.573;NotLabelled;NONE;16384;0.6707735;-0.5775623;0.3504155;0.3060942;1;4;0;35;4013;578;65536;0.7324788;-0.5803324;0.1440443;0.3254848;-2;2;1;-1256;3863;-529;8192;0.5055401;-0.4390582;-0.5615298;-0.4861496;0;1;0;72;4017;477;32768;0.5904924;-0.4806094;-0.3434903;-0.5498615;2;3;0;1291;3865;197;256;-0.01939058;0.05263158;-0.6731302;-0.7373939;-2;1;0;-127;4018;-379;128;0.08587258;-0.02077562;0.601108;0.7942691;-3;0;0;-435;3981;1106;4;0.6400436;-0.5706371;0.3767313;0.3504155;0;0;-1;113;4022;380;16;0.6468144;-0.693177;-0.1883656;-0.2562327;0;0;0;257;4044;328;2;0.434903;-0.3545706;-0.5915733;-0.5789474;0;0;0;-347;4068;301;8;0.6952909;-0.714186;-0.06648199;-0.04570637;0;0;0;-100;4102;85;0.5867728;2.834239;0.03222317;0.5927588;3.379728;0.03758633;0.5980207;3.859231;0.04027791;0.5685118;4.589247;0.108606;0.2967687;4.906809;0.1010049;-0.03838157;4.747648;0.1508176;-0.1546061;3.83096;0.08371022;-0.02632798;2.937268;-0.2037909;0.8166881;4.927828;0.1010041;1.111249;4.794125;0.1508164;1.244134;3.839866;0.1536633;1.097235;2.943611;-0.1164002;0.2745189;2.792238;0.02412134;0.1450196;1.337133;-0.0580759;0;0;0;0.2745189;2.792238;0.02412134;0.1450196;1.337133;-0.0580759;0;0;0
1130603.8104;NotLabelled;NONE;16384;0.6695784;-0.5789474;0.3504155;0.3060942;1;3;0;31;4007;592;65536;0.7330927;-0.5803324;0.1440443;0.3240997;-2;3;1;-1314;3889;-503;8192;0.5055401;-0.4376731;-0.56261;-0.4861496;1;4;0;8;4119;551;32768;0.591617;-0.4792244;-0.3434903;-0.5498615;2;3;2;1293;3847;299;256;-0.01939058;0.05263158;-0.6731302;-0.7373939;-1;1;0;-113;4054;-389;128;0.08587258;-0.02216066;0.601108;0.7942317;-2;1;1;-483;3965;1132;4;0.6400436;-0.5706371;0.3767313;0.3504155;0;0;0;127;4008;386;16;0.6468144;-0.6935518;-0.1869806;-0.2562327;0;0;0;319;4052;294;2;0.434903;-0.3545706;-0.5915733;-0.5789474;0;0;0;-347;4092;285;8;0.6952909;-0.714186;-0.06648199;-0.04570637;0;0;0;-102;4106;57;0.5868217;2.83424;0.03165951;0.5928077;3.379728;0.03702264;0.5980696;3.859231;0.03971414;0.5671957;4.58919;0.1080477;0.2948593;4.906244;0.1004489;-0.03999279;4.746457;0.1502603;-0.1553133;3.829776;0.08149078;-0.02616234;2.935364;-0.2033663;0.8147383;4.928236;0.1004483;1.109549;4.795082;0.1502597;1.24244;3.840824;0.1528095;1.096892;2.945086;-0.1196911;0.2745678;2.792238;0.02355775;0.1449001;1.337133;-0.05837347;0;0;0;0.2745678;2.792238;0.02355775;0.1449001;1.337133;-0.05837347;0;0;0
1130625.2869;NotLabelled;NONE;16384;0.6702099;-0.5789474;0.3504155;0.3047091;1;2;0;33;3989;578;65536;0.7330927;-0.5803324;0.1440443;0.3240997;-1;3;0;-1328;3847;-545;8192;0.5041551;-0.4376731;-0.5626543;-0.4875346;0;4;0;-26;4041;595;32768;0.5908108;-0.4792244;-0.3448753;-0.5498615;3;2;1;1353;3879;307;256;-0.01939058;0.05263158;-0.6731302;-0.7373939;-1;2;0;-143;4012;-395;128;0.08587258;-0.02216066;0.601108;0.7942317;-2;1;0;-493;3931;1082;4;0.6400436;-0.5706371;0.3767313;0.3504155;0;1;0;125;4012;410;16;0.6468144;-0.6935518;-0.1869806;-0.2562327;0;0;0;295;4012;324;2;0.434903;-0.3545706;-0.5915733;-0.5789474;0;0;0;-353;4072;281;8;0.6952909;-0.714186;-0.06648199;-0.04570637;0;0;0;-148;4088;97;0.5894778;2.833937;0.03137831;0.5954638;3.379426;0.03671357;0.6007257;3.858929;0.03938061;0.5698518;4.588888;0.1077137;0.2975154;4.905942;0.1001149;-0.03733677;4.746154;0.1499266;-0.1507958;3.829037;0.08394837;-0.0233271;2.934328;-0.2007328;0.8173945;4.927934;0.1001141;1.112205;4.794781;0.1499255;1.247432;3.840849;0.1522225;1.103785;2.94564;-0.1230091;0.2772239;2.791936;0.02327883;0.1475561;1.33683;-0.05865154;0;0;0;0.2772239;2.791936;0.02327883;0.1475561;1.33683;-0.05865154;0;0;0
1130645.7374;NotLabelled;NONE;16384;0.6709322;-0.5789474;0.3490305;0.3047091;0;3;0;19;4009;566;65536;0.7333635;-0.5803324;0.1426593;0.3240997;-1;3;0;-1324;3869;-553;8192;0.5041551;-0.4362881;-0.5637289;-0.4875346;0;4;0;-26;4025;575;32768;0.5895187;-0.4792244;-0.3448753;-0.5512465;3;3;2;1285;3883;263;256;-0.01939058;0.05263158;-0.6731302;-0.7373939;0;2;0;-177;4024;-385;128;0.08587258;-0.02216066;0.601108;0.7942317;-1;1;1;-447;3995;1066;4;0.6400436;-0.5706371;0.3767313;0.3504155;0;1;0;143;4026;454;16;0.6468144;-0.6935518;-0.1869806;-0.2562327;0;0;0;299;4050;378;2;0.434903;-0.3545706;-0.5915733;-0.5789474;0;0;0;-351;4088;315;8;0.6952909;-0.7143136;-0.06509695;-0.04570637;0;0;0;-100;4140;67;0.5894777;2.833937;0.03137854;0.5954638;3.379426;0.03671382;0.6007257;3.858929;0.03938089;0.5698517;4.588888;0.107714;0.2975152;4.905942;0.1001151;-0.03733685;4.746154;0.1499265;-0.1526822;3.829258;0.0841457;-0.02521339;2.934549;-0.2005354;0.8173943;4.927934;0.1001145;1.112204;4.794781;0.149926;1.244825;3.840484;0.1525814;1.102386;2.944564;-0.12096;0.2772238;2.791936;0.0232791;0.1475561;1.33683;-0.05865138;0;0;0;0.2772238;2.791936;0.0232791;0.1475561;1.33683;-0.05865138;0;0;0
1130666.4952;NotLabelled;NONE;16384;0.6709322;-0.5789474;0.3490305;0.3047091;0;3;0;-7;4047;530;65536;0.7333635;-0.5803324;0.1426593;0.3240997;-1;2;0;-1304;3875;-453;8192;0.5041551;-0.4362881;-0.5637289;-0.4875346;0;4;0;-4;4055;589;32768;0.5906419;-0.4778393;-0.3448753;-0.5512465;1;4;2;1345;3863;307;256;-0.02077562;0.05401662;-0.6731302;-0.737256;0;2;0;-199;4008;-411;128;0.08725762;-0.02216066;0.599723;0.7951273;-3;2;1;-461;3995;1114;4;0.6400436;-0.5706371;0.3767313;0.3504155;0;1;0;69;4026;458;16;0.6468144;-0.693177;-0.1883656;-0.2562327;0;1;0;305;4022;322;2;0.434903;-0.3545706;-0.5915733;-0.5789474;0;0;0;-351;4072;239;8;0.6952909;-0.7143136;-0.06509695;-0.04570637;0;0;0;-96;4138;79;0.5894777;2.833937;0.03137854;0.5954638;3.379426;0.03671382;0.6007257;3.858929;0.03938089;0.5698517;4.588888;0.107714;0.2975152;4.905942;0.1001151;-0.03733685;4.746154;0.1499265;-0.1516235;3.829265;0.08223124;-0.02239194;2.935108;-0.2033904;0.8173943;4.927934;0.1001145;1.112204;4.794781;0.149926;1.247156;3.840811;0.1523286;1.102626;2.945158;-0.1209945;0.2772238;2.791936;0.0232791;0.1475561;1.33683;-0.05865138;0;0;0;0.2772238;2.791936;0.0232791;0.1475561;1.33683;-0.05865138;0;0;0
1130686.5541;NotLabelled;NONE;16384;0.6722776;-0.5789474;0.3476454;0.3033241;0;3;0;3;4007;572;65536;0.7333635;-0.5803324;0.1426593;0.3240997;0;3;0;-1360;3855;-533;8192;0.5041551;-0.4362881;-0.5625281;-0.4889196;0;4;0;-40;4057;637;32768;0.5893462;-0.4778393;-0.3448753;-0.5526316;2;2;2;1361;3865;311;256;-0.02077562;0.05401662;-0.6731302;-0.737256;-1;1;0;-201;4056;-359;128;0.08725762;-0.02216066;0.599723;0.7951273;-1;1;1;-467;3989;1080;4;0.6400436;-0.5706371;0.3767313;0.3504155;0;1;0;49;4056;434;16;0.6468144;-0.693177;-0.1883656;-0.2562327;0;2;0;271;4038;370;2;0.434903;-0.3545706;-0.5915733;-0.5789474;0;1;0;-275;4064;329;8;0.6952909;-0.7143136;-0.06509695;-0.04570637;0;0;0;-142;4150;77;0.5869116;2.834215;0.03071862;0.5928975;3.379685;0.03771532;0.5981593;3.859178;0.04184285;0.5674108;4.589149;0.1100937;0.2951291;4.906249;0.1024578;-0.03975086;4.746525;0.1522858;-0.154291;3.829637;0.0850201;-0.02617903;2.93548;-0.2011058;0.8150119;4.928152;0.1024572;1.109799;4.794953;0.152285;1.244758;3.840983;0.1541805;1.101057;2.945861;-0.1213068;0.2746581;2.792238;0.0224808;0.1446703;1.337133;-0.05894117;0;0;0;0.2746581;2.792238;0.0224808;0.1446703;1.337133;-0.05894117;0;0;0
1130706.5021;NotLabelled;NONE;16384;0.6710823;-0.5803324;0.3476454;0.3033241;0;3;1;11;4043;548;65536;0.7342419;-0.5803324;0.1412742;0.3227147;0;3;0;-1358;3907;-501;8192;0.5027701;-0.434903;-0.5648355;-0.4889196;0;3;0;-80;4055;595;32768;0.5904665;-0.4764543;-0.3448753;-0.5526316;0;2;1;1301;3861;241;256;-0.02077562;0.05540166;-0.6731302;-0.7371532;0;2;0;-173;4052;-409;128;0.08725762;-0.0235457;0.599723;0.7950875;-1;2;1;-491;3999;1116;4;0.6400436;-0.5706371;0.3767313;0.3504155;0;1;0;77;4046;422;16;0.6468144;-0.693177;-0.1883656;-0.2562327;0;1;0;229;4020;364;2;0.434903;-0.3545706;-0.5915733;-0.5789474;0;1;0;-329;4062;275;8;0.6952909;-0.7143136;-0.06509695;-0.04570637;0;0;0;-50;4092;53;0.5869116;2.834215;0.0307198;0.5928974;3.379685;0.03771649;0.5981593;3.859178;0.04184398;0.5674108;4.589149;0.1100952;0.2951291;4.906249;0.1024595;-0.03975084;4.746525;0.1522873;-0.1551232;3.829866;0.08333208;-0.02701136;2.935709;-0.2027942;0.8150118;4.928152;0.1024587;1.109799;4.794953;0.1522865;1.242159;3.840617;0.1518187;1.096369;2.945764;-0.1234424;0.274658;2.792238;0.022482;0.1446703;1.337132;-0.05894066;0;0;0;0.274658;2.792238;0.022482;0.1446703;1.337132;-0.05894066;0;0;0
1130726.6605;NotLabelled;NONE;16384;0.6710823;-0.5803324;0.3476454;0.3033241;0;3;1;41;4039;538;65536;0.7342419;-0.5803324;0.1412742;0.3227147;0;3;0;-1318;3899;-453;8192;0.5027701;-0.434903;-0.5648355;-0.4889196;0;2;0;-110;4097;547;32768;0.5904665;-0.4764543;-0.3448753;-0.5526316;1;1;1;1335;3875;263;256;-0.02077562;0.05540166;-0.6731302;-0.7371532;0;1;0;-211;4068;-391;128;0.08725762;-0.0235457;0.599723;0.7950875;0;1;1;-451;4033;1000;4;0.6400436;-0.5706371;0.3767313;0.3504155;0;2;0;91;4062;378;16;0.6468144;-0.693177;-0.1883656;-0.2562327;0;0;0;291;4062;298;2;0.434903;-0.3545706;-0.5915733;-0.5789474;0;1;0;-309;4092;261;8;0.6952909;-0.7143136;-0.06509695;-0.04570637;0;0;0;-104;4120;87;0.586957;2.834216;0.03015271;0.5929428;3.379686;0.03712077;0.5982046;3.859179;0.04122312;0.5660906;4.589092;0.1094797;0.2932162;4.905681;0.1018466;-0.04136417;4.745331;0.1516736;-0.1550121;3.828234;0.08574295;-0.02740512;2.934333;-0.2014047;0.8130571;4.928556;0.1018456;1.108093;4.795909;0.1516722;1.242769;3.841899;0.1533616;1.098308;2.94758;-0.124329;0.2747034;2.792238;0.02191738;0.1445488;1.337133;-0.05923789;0;0;0;0.2747034;2.792238;0.02191738;0.1445488;1.337133;-0.05923789;0;0;0
1130746.4887;NotLabelled;NONE;16384;0.6710823;-0.5803324;0.3476454;0.3033241;0;3;0;97;4009;570;65536;0.734507;-0.5803324;0.1398892;0.3227147;0;4;0;-1308;3843;-479;8192;0.5027701;-0.434903;-0.5636337;-0.4903047;0;2;0;-114;4063;577;32768;0.5896553;-0.4764543;-0.3462604;-0.5526316;1;0;0;1339;3865;285;256;-0.02077562;0.05540166;-0.6731302;-0.7371532;0;2;-1;-179;4020;-369;128;0.08725762;-0.0235457;0.599723;0.7950875;0;1;1;-479;3977;1096;4;0.6400436;-0.5706371;0.3767313;0.3504155;0;1;0;95;4020;392;16;0.6468144;-0.693177;-0.1883656;-0.2562327;0;0;0;297;4060;348;2;0.434903;-0.3545706;-0.5915733;-0.5789474;0;1;0;-365;4108;293;8;0.6952909;-0.7143136;-0.06509695;-0.04570637;0;1;0;-126;4120;53;0.586957;2.834216;0.03015271;0.5929428;3.379686;0.03712077;0.5982046;3.859179;0.04122312;0.5660906;4.589092;0.1094797;0.2932162;4.905681;0.1018466;-0.04136417;4.745331;0.1516736;-0.1550121;3.828234;0.08574295;-0.02740512;2.934333;-0.2014047;0.8130571;4.928556;0.1018456;1.108093;4.795909;0.1516722;1.242769;3.841899;0.1533616;1.098308;2.94758;-0.124329;0.2747034;2.792238;0.02191738;0.1445488;1.337133;-0.05923789;0;0;0;0.2747034;2.792238;0.02191738;0.1445488;1.337133;-0.05923789;0;0;0
1130767.4942;NotLabelled;NONE;16384;0.671798;-0.5803324;0.3462604;0.3033241;0;3;1;65;3977;572;65536;0.734507;-0.5803324;0.1398892;0.3227147;0;4;-1;-1342;3903;-451;8192;0.501385;-0.434903;-0.5648661;-0.4903047;0;1;0;-36;4029;583;32768;0.5907719;-0.4750692;-0.3462604;-0.5526316;1;0;0;1339;3787;343;256;-0.02077562;0.05540166;-0.6731302;-0.7371532;0;1;0;-203;4070;-363;128;0.08725762;-0.02493075;0.599723;0.7950452;0;2;0;-393;3939;1090;4;0.6400436;-0.5706371;0.3767313;0.3504155;0;1;0;31;4072;438;16;0.6468144;-0.693177;-0.1883656;-0.2562327;-1;0;0;339;4040;400;2;0.434903;-0.3545706;-0.5915733;-0.5789474;0;1;0;-375;4054;319;8;0.6952909;-0.714186;-0.06648199;-0.04570637;0;0;0;-134;4120;81;0.586957;2.834216;0.03015271;0.5929428;3.379686;0.03712077;0.5982046;3.859179;0.04122312;0.5660906;4.589092;0.1094797;0.2932162;4.905681;0.1018466;-0.04136417;4.745331;0.1516736;-0.1550121;3.828234;0.08574295;-0.02564041;2.934888;-0.202342;0.8130571;4.928556;0.1018456;1.108093;4.795909;0.1516722;1.24017;3.841535;0.1510177;1.096919;2.946498;-0.1249813;0.2747034;2.792238;0.02191738;0.1445488;1.337133;-0.05923789;0;0;0;0.2747034;2.792238;0.02191738;0.1445488;1.337133;-0.05923789;0;0;0
1130788.6437;NotLabelled;NONE;16384;0.671798;-0.5803324;0.3462604;0.3033241;0;3;2;7;4051;566;65536;0.7353762;-0.5803324;0.1385041;0.3213296;0;4;-1;-1318;3849;-467;8192;0.501385;-0.434903;-0.5648661;-0.4903047;0;1;0;-68;4075;563;32768;0.5907719;-0.4750692;-0.3462604;-0.5526316;0;0;0;1353;3779;369;256;-0.02077562;0.05540166;-0.6731302;-0.7371532;0;1;0;-219;4044;-377;128;0.08864266;-0.02493075;0.599723;0.794892;0;2;0;-433;3987;1054;4;0.6407999;-0.5706371;0.3767313;0.3490305;0;1;0;79;4028;414;16;0.6468144;-0.693177;-0.1883656;-0.2562327;0;0;0;273;4076;322;2;0.433518;-0.3545706;-0.592589;-0.5789474;0;1;0;-349;4088;303;8;0.6952909;-0.714186;-0.06648199;-0.04570637;0;1;0;-172;4144;33;0.5869571;2.834216;0.03015113;0.5929429;3.379686;0.03709143;0.5982047;3.859179;0.04116935;0.5660909;4.589092;0.1094262;0.2932165;4.905682;0.1017931;-0.04136397;4.745331;0.15162;-0.1539531;3.828243;0.08378173;-0.02458132;2.934897;-0.2043035;0.8130573;4.928556;0.1017922;1.108093;4.795909;0.1516187;1.240149;3.841534;0.1536525;1.098794;2.94704;-0.1250688;0.2747035;2.792238;0.02191811;0.1445489;1.337133;-0.0592375;0;0;0;0.2747035;2.792238;0.02191811;0.1445489;1.337133;-0.0592375;0;0;0
1130808.9107;NotLabelled;NONE;16384;0.671798;-0.5803324;0.3462604;0.3033241;0;3;2;41;4047;528;65536;0.7353762;-0.5803324;0.1385041;0.3213296;0;4;-1;-1304;3913;-501;8192;0.501385;-0.434903;-0.5648661;-0.4903047;1;0;0;-38;4019;523;32768;0.5907719;-0.4750692;-0.3462604;-0.5526316;1;0;0;1351;3867;287;256;-0.02216066;0.0567867;-0.6731302;-0.7370074;0;2;0;-175;4058;-389;128;0.08864266;-0.02493075;0.5983379;0.795935;-1;1;0;-429;3951;1132;4;0.6407999;-0.5706371;0.3767313;0.3490305;0;1;0;37;4008;426;16;0.6468144;-0.693177;-0.1883656;-0.2562327;0;2;0;267;4052;380;2;0.433518;-0.3531856;-0.5934156;-0.5789474;0;1;0;-339;4080;293;8;0.6952909;-0.7140961;-0.06648199;-0.04709141;0;1;0;-136;4082;57;0.5900846;2.833956;0.02979216;0.5960705;3.379429;0.03649153;0.6013322;3.858924;0.04035768;0.5692168;4.588837;0.1086136;0.2963426;4.905427;0.1009737;-0.0382392;4.745076;0.1507925;-0.1508245;3.828018;0.08254294;-0.02135085;2.934927;-0.2062844;0.8161834;4.928301;0.1009856;1.111218;4.795654;0.1508194;1.243274;3.841278;0.1524397;1.101926;2.946783;-0.1262848;0.2778309;2.791975;0.02157918;0.1445505;1.337133;-0.05923419;0;0;0;0.2778309;2.791975;0.02157918;0.1445505;1.337133;-0.05923419;0;0;0
1130828.6211;NotLabelled;NONE;16384;0.6725101;-0.5803324;0.3448753;0.3033241;0;2;2;27;4047;550;65536;0.7353762;-0.5803324;0.1385041;0.3213296;0;2;-2;-1284;3885;-439;8192;0.501385;-0.434903;-0.5648661;-0.4903047;1;0;0;-12;4049;517;32768;0.5907719;-0.4750692;-0.3462604;-0.5526316;1;0;0;1373;3881;223;256;-0.02216066;0.0567867;-0.6731302;-0.7370074;0;1;0;-193;4088;-415;128;0.08864266;-0.02493075;0.5983379;0.795935;-1;1;0;-429;4011;1076;4;0.6403777;-0.5720221;0.3753462;0.3490305;0;1;0;49;4082;432;16;0.6468144;-0.693177;-0.1883656;-0.2562327;0;0;0;285;4070;376;2;0.433518;-0.3531856;-0.5934156;-0.5789474;0;2;0;-355;4076;287;8;0.6952909;-0.7140961;-0.06648199;-0.04709141;0;0;0;-90;4108;73;0.5901669;2.833927;0.02885458;0.5961525;3.379374;0.03744914;0.6014142;3.858853;0.04298122;0.5694247;4.588778;0.11115;0.2966045;4.905415;0.1034773;-0.03800361;4.745127;0.1533216;-0.1508447;3.828039;0.08590309;-0.02251021;2.934948;-0.2034325;0.8164493;4.9282;0.1034766;1.111462;4.795509;0.1533207;1.243525;3.841133;0.1548632;1.101079;2.946639;-0.1233022;0.2779136;2.791975;0.02048392;0.1443158;1.337133;-0.05980346;0;0;0;0.2779136;2.791975;0.02048392;0.1443158;1.337133;-0.05980346;0;0;0
1130849.4886;NotLabelled;NONE;16384;0.6725101;-0.5803324;0.3448753;0.3033241;0;1;1;-19;4033;556;65536;0.7356358;-0.5803324;0.1371191;0.3213296;0;2;-1;-1304;3899;-421;8192;0.501385;-0.434903;-0.5636609;-0.4916897;1;2;0;-12;4053;539;32768;0.5907719;-0.4750692;-0.3462604;-0.5526316;0;2;1;1283;3873;179;256;-0.02216066;0.0567867;-0.6731302;-0.7370074;0;1;0;-239;4004;-375;128;0.08864266;-0.02493075;0.5983379;0.795935;-1;2;0;-467;4041;1076;4;0.6403777;-0.5720221;0.3753462;0.3490305;0;1;0;95;4094;374;16;0.6468144;-0.693177;-0.1883656;-0.2562327;0;0;0;271;4102;354;2;0.433518;-0.3531856;-0.5934156;-0.5789474;0;1;0;-341;4064;303;8;0.6952909;-0.7140961;-0.06648199;-0.04709141;0;0;0;-106;4156;51;0.5855405;2.834403;0.02779049;0.5915262;3.379849;0.03638501;0.5967878;3.859328;0.04191712;0.5647983;4.589254;0.1100859;0.2919782;4.90589;0.1024132;-0.04262999;4.745603;0.1522575;-0.1544259;3.828526;0.08295508;-0.02609139;2.935435;-0.2063806;0.811823;4.928676;0.1024125;1.106836;4.795985;0.1522566;1.238899;3.841609;0.1537738;1.096453;2.947114;-0.1243917;0.2732872;2.79245;0.0194198;0.1443157;1.337132;-0.05980351;0;0;0;0.2732872;2.79245;0.0194198;0.1443157;1.337132;-0.05980351;0;0;0
1130870.489;NotLabelled;NONE;16384;0.6725101;-0.5803324;0.3448753;0.3033241;0;0;2;49;4015;540;65536;0.7356358;-0.5803324;0.1371191;0.3213296;0;2;-2;-1326;3865;-441;8192;0.501385;-0.433518;-0.5647268;-0.4916897;1;3;0;-26;4075;543;32768;0.5905867;-0.4736842;-0.3462604;-0.5540166;0;5;1;1309;3891;229;256;-0.02216066;0.0567867;-0.6731302;-0.7370074;0;2;0;-165;4042;-391;128;0.08864266;-0.02631579;0.5983379;0.7958905;-1;2;0;-447;3979;1090;4;0.6403777;-0.5720221;0.3753462;0.3490305;0;0;0;61;4088;410;16;0.6468144;-0.6926634;-0.1883656;-0.2576177;0;0;0;301;4034;332;2;0.433518;-0.3531856;-0.5934156;-0.5789474;0;1;0;-373;4104;285;8;0.6952909;-0.7140961;-0.06648199;-0.04709141;0;0;0;-134;4104;77;0.5855405;2.834403;0.02779049;0.5915262;3.379849;0.03638501;0.5967878;3.859328;0.04191712;0.5647983;4.589254;0.1100859;0.2919782;4.90589;0.1024132;-0.04262999;4.745603;0.1522575;-0.1544259;3.828526;0.08295508;-0.02432327;2.935993;-0.207311;0.811823;4.928676;0.1024125;1.106836;4.795985;0.1522566;1.236289;3.841251;0.1514331;1.093844;2.946756;-0.1267324;0.2732872;2.79245;0.0194198;0.1443157;1.337132;-0.05980351;0;0;0;0.2732872;2.79245;0.0194198;0.1443157;1.337132;-0.05980351;0;0;0
1130891.4972;NotLabelled;NONE;16384;0.6732185;-0.5803324;0.3434903;0.3033241;0;1;1;41;4015;560;65536;0.7358925;-0.5803324;0.1357341;0.3213296;0;2;-2;-1302;3933;-479;8192;0.5;-0.433518;-0.5659534;-0.4916897;1;3;0;-84;4081;529;32768;0.5905867;-0.4736842;-0.3462604;-0.5540166;0;3;0;1337;3875;231;256;-0.0235457;0.0567867;-0.6731302;-0.7369645;0;1;0;-199;4046;-381;128;0.08864266;-0.02631579;0.5983379;0.7958905;-2;2;0;-387;3969;1110;4;0.6395639;-0.5720221;0.3767313;0.3490305;0;0;0;91;3992;382;16;0.6468144;-0.6922853;-0.1897507;-0.2576177;0;0;0;257;4008;356;2;0.433518;-0.3531856;-0.5934156;-0.5789474;0;1;0;-333;4086;347;8;0.6952909;-0.7140961;-0.06648199;-0.04709141;0;0;0;-112;4114;55;0.5879723;2.834211;0.02943966;0.5939579;3.379658;0.03800586;0.5992196;3.859137;0.04351304;0.5672299;4.589064;0.1116818;0.2944098;4.905699;0.1040083;-0.04019854;4.745411;0.1538517;-0.151994;3.828339;0.0845008;-0.02189062;2.935806;-0.2057649;0.8142546;4.928485;0.104009;1.109267;4.795794;0.153854;1.241046;3.841378;0.1527058;1.098403;2.947691;-0.1279438;0.2757191;2.792258;0.02107123;0.1467479;1.33694;-0.05815243;0;0;0;0.2757191;2.792258;0.02107123;0.1467479;1.33694;-0.05815243;0;0;0
1130911.6119;NotLabelled;NONE;16384;0.6732185;-0.5803324;0.3434903;0.3033241;0;2;1;53;4035;570;65536;0.7358925;-0.5803324;0.1357341;0.3213296;0;1;-2;-1268;3839;-459;8192;0.5;-0.433518;-0.5647472;-0.4930748;2;1;0;-104;4057;531;32768;0.5905867;-0.4736842;-0.3462604;-0.5540166;1;0;0;1353;3909;251;256;-0.0235457;0.0567867;-0.6731302;-0.7369645;0;1;0;-207;4050;-407;128;0.08864266;-0.02631579;0.5969529;0.7969298;-2;1;0;-409;3921;1144;4;0.6395639;-0.5720221;0.3767313;0.3490305;0;0;0;71;4030;430;16;0.6468144;-0.6922853;-0.1897507;-0.2576177;0;0;0;293;4086;322;2;0.433518;-0.3531856;-0.5934156;-0.5789474;0;1;0;-381;4108;311;8;0.6952909;-0.7140961;-0.06648199;-0.04709141;0;0;0;-182;4122;35;0.5866897;2.834566;0.02600969;0.5926752;3.380013;0.03457585;0.5979368;3.859492;0.04008301;0.5674371;4.589491;0.1081529;0.2952639;4.906682;0.1004357;-0.03967109;4.747085;0.1502997;-0.150534;3.830025;0.07930443;-0.01920281;2.938053;-0.2121301;0.8151543;4.928407;0.100435;1.109895;4.795119;0.1502989;1.241655;3.840702;0.1516372;1.098488;2.947015;-0.1287458;0.2744363;2.792613;0.01764124;0.1439828;1.337243;-0.05811742;0;0;0;0.2744363;2.792613;0.01764124;0.1439828;1.337243;-0.05811742;0;0;0
1130932.4858;NotLabelled;NONE;16384;0.6732185;-0.5803324;0.3434903;0.3033241;0;1;1;21;4017;586;65536;0.7361466;-0.5803324;0.134349;0.3213296;0;1;-2;-1272;3877;-471;8192;0.5;-0.434903;-0.5636813;-0.4930748;3;-1;0;-98;4055;487;32768;0.5910705;-0.4736842;-0.3476454;-0.5526316;4;-1;-5;1113;3861;127;256;-0.0235457;0.0567867;-0.6731302;-0.7369645;0;1;0;-203;4042;-377;128;0.0900277;-0.02631579;0.5969529;0.7967746;-2;1;0;-461;4021;1108;4;0.6395639;-0.5720221;0.3767313;0.3490305;0;1;0;33;4068;406;16;0.6468144;-0.6922853;-0.1897507;-0.2576177;0;0;0;267;4056;356;2;0.433518;-0.3531856;-0.5934156;-0.5789474;0;0;0;-377;4110;261;8;0.6952909;-0.7140961;-0.06648199;-0.04709141;0;0;0;-124;4086;87;0.5866895;2.834537;0.02616723;0.5926748;3.379951;0.03662589;0.5979363;3.859408;0.04379669;0.5674366;4.589407;0.1118666;0.2952635;4.906598;0.1041494;-0.03967156;4.747001;0.1540134;-0.1505215;3.829941;0.08299775;-0.01919059;2.937968;-0.2084368;0.8151538;4.928322;0.1041487;1.109895;4.795035;0.1540126;1.239046;3.840261;0.1530305;1.095879;2.946574;-0.1273525;0.2744365;2.792613;0.01764142;0.1439828;1.337243;-0.05811734;0;0;0;0.2744365;2.792613;0.01764142;0.1439828;1.337243;-0.05811734;0;0;0
1130952.629;NotLabelled;NONE;16384;0.6732185;-0.5803324;0.3434903;0.3033241;0;1;1;63;4037;560;65536;0.7361466;-0.5803324;0.134349;0.3213296;0;1;-2;-1318;3871;-515;8192;0.5;-0.434903;-0.5636813;-0.4930748;2;0;0;-50;4059;577;32768;0.5902537;-0.4736842;-0.3490305;-0.5526316;6;0;-5;1243;3869;121;256;-0.0235457;0.0567867;-0.6731302;-0.7369645;0;1;0;-143;4024;-331;128;0.0900277;-0.02631579;0.5969529;0.7967746;-2;1;0;-501;3983;1138;4;0.6395639;-0.5720221;0.3767313;0.3490305;0;1;0;-3;4032;444;16;0.6468144;-0.6922853;-0.1897507;-0.2576177;0;0;0;287;4046;380;2;0.434903;-0.3545706;-0.5915733;-0.5789474;0;0;0;-433;4068;357;8;0.6952909;-0.7140961;-0.06648199;-0.04709141;0;0;0;-142;4130;77;0.586689;2.83454;0.02615337;0.5926743;3.379959;0.03636736;0.5979358;3.859419;0.04332303;0.5674345;4.589419;0.1113922;0.2952617;4.90661;0.1036687;-0.03967451;4.747012;0.1535248;-0.150534;3.829984;0.08211248;-0.01742389;2.938576;-0.2102387;0.8151519;4.928334;0.1036802;1.109892;4.795047;0.153551;1.236717;3.839961;0.1524034;1.096858;2.945298;-0.1265332;0.2744361;2.792612;0.01764787;0.1439842;1.337243;-0.05811394;0;0;0;0.2744361;2.792612;0.01764787;0.1439842;1.337243;-0.05811394;0;0;0
