SEP=;
index;label;segment;RightUpperArm_boneIndex;RightUpperArm_quat9x_w;RightUpperArm_quat9x_x;RightUpperArm_quat9x_y;RightUpperArm_quat9x_z;RightUpperArm_gyroscope_x;RightUpperArm_gyroscope_y;RightUpperArm_gyroscope_z;RightUpperArm_accelerometer_x;RightUpperArm_accelerometer_y;RightUpperArm_accelerometer_z;RightLowerArm_boneIndex;RightLowerArm_quat9x_w;RightLowerArm_quat9x_x;RightLowerArm_quat9x_y;RightLowerArm_quat9x_z;RightLowerArm_gyroscope_x;RightLowerArm_gyroscope_y;RightLowerArm_gyroscope_z;RightLowerArm_accelerometer_x;RightLowerArm_accelerometer_y;RightLowerArm_accelerometer_z;LeftUpperArm_boneIndex;LeftUpperArm_quat9x_w;LeftUpperArm_quat9x_x;LeftUpperArm_quat9x_y;LeftUpperArm_quat9x_z;LeftUpperArm_gyroscope_x;LeftUpperArm_gyroscope_y;LeftUpperArm_gyroscope_z;LeftUpperArm_accelerometer_x;LeftUpperArm_accelerometer_y;LeftUpperArm_accelerometer_z;LeftLowerArm_boneIndex;LeftLowerArm_quat9x_w;LeftLowerArm_quat9x_x;LeftLowerArm_quat9x_y;LeftLowerArm_quat9x_z;LeftLowerArm_gyroscope_x;LeftLowerArm_gyroscope_y;LeftLowerArm_gyroscope_z;LeftLowerArm_accelerometer_x;LeftLowerArm_accelerometer_y;LeftLowerArm_accelerometer_z;Chest_boneIndex;Chest_quat9x_w;Chest_quat9x_x;Chest_quat9x_y;Chest_quat9x_z;Chest_gyroscope_x;Chest_gyroscope_y;Chest_gyroscope_z;Chest_accelerometer_x;Chest_accelerometer_y;Chest_accelerometer_z;Spine_boneIndex;Spine_quat9x_w;Spine_quat9x_x;Spine_quat9x_y;Spine_quat9x_z;Spine_gyroscope_x;Spine_gyroscope_y;Spine_gyroscope_z;Spine_accelerometer_x;Spine_accelerometer_y;Spine_accelerometer_z;RightUpperLeg_boneIndex;RightUpperLeg_quat9x_w;RightUpperLeg_quat9x_x;RightUpperLeg_quat9x_y;RightUpperLeg_quat9x_z;RightUpperLeg_gyroscope_x;RightUpperLeg_gyroscope_y;RightUpperLeg_gyroscope_z;RightUpperLeg_accelerometer_x;RightUpperLeg_accelerometer_y;RightUpperLeg_accelerometer_z;RightLowerLeg_boneIndex;RightLowerLeg_quat9x_w;RightLowerLeg_quat9x_x;RightLowerLeg_quat9x_y;RightLowerLeg_quat9x_z;RightLowerLeg_gyroscope_x;RightLowerLeg_gyroscope_y;RightLowerLeg_gyroscope_z;RightLowerLeg_accelerometer_x;RightLowerLeg_accelerometer_y;RightLowerLeg_accelerometer_z;LeftUpperLeg_boneIndex;LeftUpperLeg_quat9x_w;LeftUpperLeg_quat9x_x;LeftUpperLeg_quat9x_y;LeftUpperLeg_quat9x_z;LeftUpperLeg_gyroscope_x;LeftUpperLeg_gyroscope_y;LeftUpperLeg_gyroscope_z;LeftUpperLeg_accelerometer_x;LeftUpperLeg_accelerometer_y;LeftUpperLeg_accelerometer_z;LeftLowerLeg_boneIndex;LeftLowerLeg_quat9x_w;LeftLowerLeg_quat9x_x;LeftLowerLeg_quat9x_y;LeftLowerLeg_quat9x_z;LeftLowerLeg_gyroscope_x;LeftLowerLeg_gyroscope_y;LeftLowerLeg_gyroscope_z;LeftLowerLeg_accelerometer_x;LeftLowerLeg_accelerometer_y;LeftLowerLeg_accelerometer_z;pelvis_x;pelvis_y;pelvis_z;lowerSpine_x;lowerSpine_y;lowerSpine_z;middleSpine_x;middleSpine_y;middleSpine_z;upperSpine_x;upperSpine_y;upperSpine_z;rightClavicle_x;rightClavicle_y;rightClavicle_z;rightShoulder_x;rightShoulder_y;rightShoulder_z;rightElbow_x;rightElbow_y;rightElbow_z;rightWrist_x;rightWrist_y;rightWrist_z;leftClavicle_x;leftClavicle_y;leftClavicle_z;leftShoulder_x;leftShoulder_y;leftShoulder_z;leftElbow_x;leftElbow_y;leftElbow_z;leftWrist_x;leftWrist_y;leftWrist_z;rightHip_x;rightHip_y;rightHip_z;rightKnee_x;rightKnee_y;rightKnee_z;rightAnkle_x;rightAnkle_y;rightAnkle_z;leftHip_x;leftHip_y;leftHip_z;leftKnee_x;leftKnee_y;leftKnee_z;leftAnkle_x;leftAnkle_y;leftAnkle_z;
1313459.4798;NotLabelled;NONE;16384;0.5900749;-0.5304709;0.4833795;0.3698061;-4;-26;3;-125;4181;760;65536;0.3559557;-0.09141274;0.1772853;0.9129673;113;-50;-2;-3002;1661;3246;8192;0.5166205;-0.4736842;-0.5463985;-0.4584487;0;-17;-10;300;3823;357;32768;0.5995327;-0.4722992;-0.3157895;-0.5637119;-7;-16;1;1257;3674;343;256;0;-0.01385042;-0.6883656;-0.7252316;2;-18;6;89;4082;-223;128;0.09556787;0.03462604;0.602493;0.7916249;-3;-20;-9;-897;3979;916;4;0.6547161;-0.466759;0.4141274;0.4265928;-2;-21;-4;1033;3946;904;16;0.6551247;-0.7017092;-0.1301939;-0.2479224;2;-10;0;707;3982;212;2;0.4598338;-0.4224377;-0.5124654;-0.5894731;4;-23;2;-385;4096;-403;8;0.7082413;-0.702216;0.02216066;-0.06925207;-6;-12;-2;676;4096;-19;0.7535977;2.779337;0.3062006;0.759584;3.324849;0.3072632;0.764846;3.80436;0.3061745;0.7760253;4.537069;0.3445607;0.5223594;4.86867;0.3235381;0.1789072;4.730559;0.3792601;0.01428219;3.819289;0.407822;0.08960633;3.476248;-0.4722035;1.042643;4.860736;0.3235373;1.329343;4.713012;0.3792593;1.452553;3.758762;0.4292532;1.316714;2.884686;0.0896575;0.4413432;2.737273;0.2984571;0.2402076;1.3244;-0.02433313;0;0;0;0.4413432;2.737273;0.2984571;0.2402076;1.3244;-0.02433313;0;0;0
1313479.4837;NotLabelled;NONE;16384;0.5885383;-0.5277008;0.4861496;0.3725762;-5;-28;3;-213;4177;684;65536;0.3518005;-0.08171745;0.1925208;0.9124113;106;-38;-11;-3456;1917;4050;8192;0.5180055;-0.4736842;-0.5462475;-0.4570637;2;-14;-9;366;3807;363;32768;0.6002602;-0.4722992;-0.3144044;-0.5637119;-5;-9;3;1285;3684;431;256;0.001385042;-0.0166205;-0.6883656;-0.7251721;3;-17;8;51;4056;-293;128;0.09418282;0.03739612;0.602493;0.7916648;-4;-22;-10;-963;3941;1206;4;0.6512141;-0.4653739;0.4168975;0.4307479;1;-10;0;1017;3926;742;16;0.6565097;-0.7023786;-0.1274238;-0.2437673;0;-10;-2;337;4110;328;2;0.4612188;-0.4252077;-0.5110803;-0.5875989;4;-21;3;-353;4054;-323;8;0.708462;-0.702216;0.0235457;-0.06648199;-6;-11;-3;506;4088;23;0.7556755;2.777928;0.3154931;0.7616618;3.323432;0.3188231;0.7669238;3.802942;0.3197275;0.7808977;4.535604;0.3581162;0.5284985;4.868171;0.3370948;0.1845221;4.73137;0.3928166;0.01949779;3.820065;0.4177295;0.07564814;3.451703;-0.4534501;1.048748;4.858252;0.3370937;1.334882;4.709435;0.392815;1.455704;3.754761;0.4405206;1.316685;2.880804;0.1019053;0.4434215;2.735896;0.3075607;0.2392144;1.324647;-0.02036212;0;0;0;0.4434215;2.735896;0.3075607;0.2392144;1.324647;-0.02036212;0;0;0
1313499.4806;NotLabelled;NONE;16384;0.5871155;-0.5221606;0.4916897;0.3753462;-9;-24;-4;-511;4199;762;65536;0.3462604;-0.06648199;0.2174515;0.9101641;83;-22;-16;-2652;1997;4030;8192;0.5180055;-0.4750692;-0.5450433;-0.4570637;5;-12;-8;338;3885;425;32768;0.5991678;-0.4736842;-0.3144044;-0.5637119;-4;-5;4;1317;3718;471;256;0.002770083;-0.02216066;-0.6869806;-0.7263325;4;-15;10;153;4134;-209;128;0.09279778;0.04293629;0.601108;0.7925997;-1;-11;-12;-885;4005;1118;4;0.6522017;-0.4639889;0.4168975;0.4307479;3;-7;0;849;3922;852;16;0.6565097;-0.7031075;-0.1260388;-0.2423823;-1;-6;-4;295;4106;274;2;0.4626039;-0.4279778;-0.5083103;-0.5869015;3;-20;3;-283;4102;-237;8;0.7071679;-0.7036011;0.02493075;-0.06509695;-6;-7;-3;566;4088;79;0.7480434;2.779552;0.3144263;0.7540296;3.325054;0.3180932;0.7592916;3.804563;0.3192936;0.7745879;4.537199;0.357681;0.5227897;4.870221;0.3366574;0.1785664;4.734042;0.3923772;0.01243777;3.822888;0.4154021;0.04794781;3.435553;-0.4486048;1.04302;4.859363;0.3366597;1.328885;4.71003;0.3923831;1.451713;3.755704;0.4418868;1.313608;2.882575;0.1007694;0.4357892;2.737525;0.3064658;0.2363478;1.325172;-0.01963006;0;0;0;0.4357892;2.737525;0.3064658;0.2363478;1.325172;-0.01963006;0;0;0
1313519.634;NotLabelled;NONE;16384;0.5872462;-0.5193906;0.4944598;0.3753462;-11;-24;-7;-309;4239;612;65536;0.3448753;-0.05817174;0.2271468;0.9088902;76;-18;-18;-2474;2155;3864;8192;0.5193906;-0.4778393;-0.5401183;-0.4584487;6;-11;-7;290;4099;413;32768;0.6006132;-0.4736842;-0.3116343;-0.5637119;-4;-2;3;1455;3906;467;256;0.002770083;-0.02493075;-0.6855956;-0.7275504;3;-11;10;277;4132;-201;128;0.09279778;0.04570637;0.599723;0.7934934;0;-14;-12;-981;3985;1006;4;0.6512848;-0.4639889;0.4168975;0.432133;4;-7;0;723;3860;802;16;0.6565097;-0.7033339;-0.1274238;-0.2409972;-1;0;-5;231;4042;384;2;0.4639889;-0.432133;-0.5069252;-0.583954;1;-15;3;-285;4132;-231;8;0.7036011;-0.7074879;0.02631579;-0.06094183;-7;-10;-5;624;4086;77;0.7481418;2.778128;0.3210317;0.7541277;3.32361;0.3270584;0.7593897;3.803108;0.3303334;0.7787498;4.535497;0.3715139;0.5288062;4.869988;0.351741;0.1838271;4.735512;0.4069162;0.01175823;3.825409;0.427755;0.01441808;3.406748;-0.4222525;1.048969;4.856242;0.3517403;1.333995;4.705113;0.4069152;1.45421;3.750446;0.456243;1.317302;2.876723;0.1161674;0.435888;2.736137;0.3128747;0.2369017;1.325082;-0.01906826;0;0;0;0.435888;2.736137;0.3128747;0.2369017;1.325082;-0.01906826;0;0;0
1313539.5084;NotLabelled;NONE;16384;0.5840607;-0.5180055;0.4986149;0.3767313;-8;-23;-9;-343;4157;594;65536;0.3448753;-0.05124654;0.2368421;0.90683;71;-12;-19;-2304;2115;3752;8192;0.5207756;-0.4778393;-0.538783;-0.4584487;6;-10;-8;300;4171;369;32768;0.6006132;-0.4736842;-0.3116343;-0.5637119;-4;-3;3;1515;3948;489;256;0.002770083;-0.02631579;-0.6855956;-0.7275016;1;-9;10;293;4084;-219;128;0.09141274;0.04847645;0.599723;0.7934898;0;-14;-11;-955;3917;968;4;0.6503637;-0.4639889;0.4168975;0.433518;6;-8;0;731;3844;766;16;0.6565097;-0.7038069;-0.1274238;-0.2396122;-2;0;-6;559;4008;426;2;0.4653739;-0.433518;-0.5055401;-0.5830252;1;-13;3;-249;4106;-193;8;0.7036011;-0.707553;0.02770083;-0.05955679;-6;-8;-4;452;4086;81;0.7390159;2.779372;0.3208597;0.7450015;3.324826;0.3289144;0.7502632;3.804311;0.3339721;0.7723513;4.536459;0.3779483;0.5236601;4.871955;0.3594266;0.1781751;4.738556;0.4140536;0.0009796023;3.82941;0.4337005;-0.01336041;3.400181;-0.4109017;1.043767;4.856266;0.3594256;1.328221;4.703866;0.4140522;1.441263;3.748078;0.458402;1.303589;2.876017;0.1143948;0.4267625;2.73741;0.3125338;0.2321306;1.32591;-0.02009897;0;0;0;0.4267625;2.73741;0.3125338;0.2321306;1.32591;-0.02009897;0;0;0
1313560.6512;NotLabelled;NONE;16384;0.5832078;-0.5166205;0.5;0.3781163;-6;-16;-12;-311;3995;566;65536;0.3448753;-0.04432133;0.2451524;0.9049845;61;-9;-19;-2156;1981;3874;8192;0.5207756;-0.4792244;-0.5375514;-0.4584487;6;-9;-7;322;4171;407;32768;0.6002362;-0.4750692;-0.3102493;-0.5637119;-4;-4;4;1463;3948;521;256;0.001385042;-0.02908587;-0.6855956;-0.7274;3;-7;10;237;4084;-305;128;0.09141274;0.05124654;0.599723;0.7933157;0;-9;-11;-919;3893;1152;4;0.6485471;-0.4639889;0.4182825;0.434903;5;-7;-2;687;3966;760;16;0.6565097;-0.7045261;-0.1260388;-0.2382271;-2;-3;-7;613;3958;424;2;0.466759;-0.4362881;-0.5055401;-0.579843;0;-11;3;-241;4118;-191;8;0.702216;-0.7090994;0.02908587;-0.0567867;-6;-1;-4;442;4058;127;0.7331424;2.780167;0.3197335;0.7391281;3.325616;0.3281197;0.7443898;3.805098;0.3334686;0.7678692;4.537203;0.3774474;0.519816;4.87317;0.3589268;0.1740781;4.740428;0.4135531;-0.004575491;3.831678;0.4377546;-0.03595737;3.3912;-0.4005715;1.039893;4.856494;0.3589261;1.324056;4.703552;0.4135523;1.437227;3.747666;0.455377;1.300246;2.875604;0.1110925;0.4208892;2.738211;0.3113801;0.2299307;1.326271;-0.02151851;0;0;0;0.4208892;2.738211;0.3113801;0.2299307;1.326271;-0.02151851;0;0;0
1313603.0487;NotLabelled;NONE;16384;0.5796197;-0.5166205;0.5041551;0.3781163;-3;-16;-15;-451;3905;552;65536;0.3434903;-0.03878116;0.2520775;0.9038625;49;-13;-24;-2018;1825;3802;8192;0.5221606;-0.4806094;-0.534965;-0.4584487;5;-8;-6;314;4181;479;32768;0.5996479;-0.4750692;-0.3088643;-0.5650969;-6;-5;4;1421;3904;535;256;0.001385042;-0.03047091;-0.6842105;-0.7286465;4;-5;10;255;4106;-301;128;0.09141274;0.05401662;0.599723;0.7931319;0;-7;-10;-933;3971;1062;4;0.6457236;-0.4653739;0.4196676;0.4362881;5;-9;-2;697;3952;756;16;0.6551247;-0.7072031;-0.1260388;-0.234072;-3;0;-6;575;4044;500;2;0.466759;-0.4376731;-0.5041551;-0.5800051;0;-10;3;-271;4110;-157;8;0.702216;-0.7090994;0.02908587;-0.0567867;-7;-1;-4;560;4132;157;0.7315223;2.781058;0.3154268;0.7375079;3.326506;0.3239207;0.7427695;3.805986;0.3293644;0.7705073;4.537941;0.3733605;0.5244126;4.875347;0.3548476;0.1779084;4.744617;0.4094706;-0.001140615;3.835931;0.4331777;-0.04848126;3.386555;-0.3996585;1.044384;4.855646;0.3548468;1.327653;4.701052;0.4094696;1.438278;3.744874;0.4514387;1.298721;2.873055;0.1075747;0.419269;2.739104;0.3070644;0.2303394;1.326179;-0.02279463;0;0;0;0.419269;2.739104;0.3070644;0.2303394;1.326179;-0.02279463;0;0;0
1313624.4964;NotLabelled;NONE;16384;0.5691881;-0.5180055;0.5124654;0.3808864;13;-27;-21;-471;3889;368;65536;0.3393352;-0.01523546;0.2617728;0.9033795;30;-15;-42;-2282;1593;3360;8192;0.5221606;-0.4833795;-0.5324634;-0.4584487;3;-7;-2;340;4235;341;32768;0.5988668;-0.4778393;-0.3060942;-0.5650969;-8;-5;4;1431;3934;553;256;0;-0.03462604;-0.6842105;-0.7284621;0;-1;5;293;4054;-203;128;0.09279778;0.05817174;0.599723;0.7926771;1;-3;-5;-871;3873;1000;4;0.6438433;-0.4653739;0.4196676;0.4390582;3;-2;-2;709;3874;710;16;0.6537396;-0.7089397;-0.1260388;-0.232687;-3;0;-4;741;3950;554;2;0.468144;-0.4404432;-0.5041551;-0.576783;0;-6;3;-181;4140;-87;8;0.699446;-0.7121512;0.02908587;-0.05263158;-6;0;-4;430;4072;183;0.7214803;2.783988;0.2985204;0.7274657;3.329435;0.3071239;0.7327274;3.808913;0.3126638;0.761785;4.540645;0.3594497;0.5163051;4.878563;0.3421859;0.1695562;4.748255;0.396261;-0.01103463;3.840094;0.4272601;-0.07032708;3.383099;-0.4006515;1.03624;4.85792;0.3421849;1.31922;4.702606;0.3962596;1.427502;3.746048;0.4355874;1.285578;2.875428;0.08966163;0.409227;2.742036;0.2901489;0.2251394;1.326863;-0.03274181;0;0;0;0.409227;2.742036;0.2901489;0.2251394;1.326863;-0.03274181;0;0;0
1313666.5179;NotLabelled;NONE;16384;0.562598;-0.5166205;0.5180055;0.3850415;11;-30;-13;-105;3771;610;65536;0.3407202;0;0.2617728;0.9029866;19;4;-45;-2954;1435;3382;8192;0.5221606;-0.4847645;-0.5312027;-0.4584487;4;-6;0;164;4209;431;32768;0.5991694;-0.4792244;-0.3033241;-0.5650969;-8;-5;0;1395;3882;567;256;0;-0.03601108;-0.6828254;-0.7296935;3;-4;3;143;4054;-267;128;0.09279778;0.05955679;0.601108;0.7915243;6;-1;-3;-887;3965;1034;4;0.6429383;-0.4653739;0.4210526;0.4390582;2;0;-3;735;3928;654;16;0.6523545;-0.7106667;-0.1260388;-0.2313019;-3;3;-4;331;4080;514;2;0.468144;-0.4418283;-0.5041551;-0.5757227;-2;-1;4;-163;4160;-95;8;0.6980609;-0.7136096;0.02908587;-0.05124654;-5;1;-4;460;4076;187;0.7134487;2.78478;0.2932461;0.7194343;3.330227;0.3017959;0.724696;3.809707;0.3072887;0.7593955;4.54119;0.3540931;0.5165288;4.880992;0.3368374;0.1687852;4.753361;0.3909088;-0.008247437;3.845279;0.439662;-0.1089778;3.387363;-0.3837232;1.036288;4.85634;0.3368368;1.318063;4.698848;0.3909079;1.421225;3.741734;0.430457;1.274096;2.871639;0.08538243;0.4011953;2.742826;0.2848791;0.2245307;1.326813;-0.03846981;0;0;0;0.4011953;2.742826;0.2848791;0.2245307;1.326813;-0.03846981;0;0;0
1313708.4712;NotLabelled;NONE;16384;0.5581203;-0.5166205;0.5207756;0.3878116;13;-24;-9;43;3727;578;65536;0.3448753;0.006925208;0.2631579;0.9009778;21;23;-50;-3438;1659;2796;8192;0.5221606;-0.4847645;-0.5312027;-0.4584487;5;-7;0;174;4235;477;32768;0.598059;-0.4806094;-0.3033241;-0.5650969;-9;-5;-1;1421;3822;495;256;0;-0.03739612;-0.6828254;-0.7296239;6;-5;1;205;4050;-235;128;0.09279778;0.05955679;0.602493;0.7904705;5;-1;-2;-837;3903;1106;4;0.6429383;-0.4653739;0.4210526;0.4390582;3;2;-4;723;3862;564;16;0.6523545;-0.7106667;-0.1260388;-0.2313019;-4;7;-4;313;4056;466;2;0.468144;-0.4432133;-0.5055401;-0.5734391;-2;0;4;-191;4062;-121;8;0.6966759;-0.7150598;0.02908587;-0.04986149;-5;3;-3;466;4044;193;0.7137676;2.785275;0.2839648;0.7197535;3.330749;0.2906406;0.7250155;3.810244;0.294486;0.761021;4.54148;0.3440765;0.5187687;4.881782;0.3280687;0.1707861;4.754571;0.3815917;-0.003282947;3.846364;0.4380559;-0.1289799;3.398439;-0.3873902;1.038483;4.856194;0.3280681;1.319963;4.697992;0.3815912;1.420555;3.740608;0.4212371;1.269747;2.871634;0.07493161;0.4015141;2.743293;0.2757537;0.2238623;1.326732;-0.04464406;0;0;0;0.4015141;2.743293;0.2757537;0.2238623;1.326732;-0.04464406;0;0;0
1313728.5752;NotLabelled;NONE;16384;0.5548851;-0.5166205;0.5221606;0.3905817;13;-16;-6;-63;3841;580;65536;0.3518005;0.01385042;0.2631579;0.8982163;22;38;-53;-3332;1637;2888;8192;0.5221606;-0.4861496;-0.5299355;-0.4584487;4;-9;1;124;4215;403;32768;0.5976451;-0.4819945;-0.301939;-0.5650969;-9;-7;-3;1431;3842;429;256;0;-0.03739612;-0.6814404;-0.7309176;6;-3;0;289;3982;-181;128;0.09141274;0.06094183;0.602493;0.7905264;3;-1;0;-849;3875;1074;4;0.6409242;-0.468144;0.4210526;0.4390582;5;4;-4;615;3944;594;16;0.6509695;-0.7114397;-0.1288089;-0.2313019;-3;11;-3;327;4012;474;2;0.468144;-0.4432133;-0.5055401;-0.5734391;-1;2;4;-187;4112;-127;8;0.6966759;-0.7151148;0.02770083;-0.04986149;-4;5;-3;432;4080;181;0.7132083;2.785304;0.2846172;0.7191943;3.330798;0.2893595;0.7244563;3.810303;0.2915052;0.7618465;4.541471;0.3411006;0.5202391;4.882231;0.325095;0.1720164;4.755678;0.3786173;0.001615621;3.847111;0.440246;-0.1372569;3.402344;-0.3847955;1.039904;4.855659;0.3250942;1.321084;4.696923;0.3786163;1.421589;3.739539;0.4184801;1.269228;2.870004;0.07426922;0.4009544;2.743293;0.2765671;0.2239524;1.326733;-0.04419027;0;0;0;0.4009544;2.743293;0.2765671;0.2239524;1.326733;-0.04419027;0;0;0
1313769.4869;NotLabelled;NONE;16384;0.5532093;-0.5138504;0.5235457;0.3947368;0;-8;-3;-59;4161;964;65536;0.4016621;0.0235457;0.2645429;0.8764304;23;183;-37;-3386;1681;2348;8192;0.5235457;-0.4903047;-0.5259221;-0.4570637;1;-9;0;254;4145;415;32768;0.5964611;-0.4875346;-0.300554;-0.5623268;-8;-10;-7;1397;3886;367;256;0.001385042;-0.03878116;-0.6814404;-0.7308441;0;-6;-2;331;4058;-301;128;0.0900277;0.06094183;0.6038781;0.789628;3;1;2;-969;3983;934;4;0.6388916;-0.4709141;0.4210526;0.4390582;6;5;-5;673;3990;648;16;0.6495845;-0.7127045;-0.1288089;-0.2313019;-2;0;-4;507;4064;576;2;0.466759;-0.4432133;-0.5083103;-0.5721177;-2;5;4;-237;4098;-69;8;0.6939058;-0.7179501;0.02631579;-0.04847645;-4;5;-3;462;4062;181;0.7039326;2.788182;0.2717253;0.7099187;3.333673;0.2767456;0.7151807;3.813178;0.2791358;0.7524855;4.544156;0.3315075;0.5108457;4.884948;0.3167461;0.1626258;4.758159;0.3697214;-0.003573433;3.849017;0.4342645;-0.1575638;3.410332;-0.3913508;1.030514;4.858431;0.316745;1.3117;4.699522;0.3697197;1.409714;3.741875;0.4094522;1.254049;2.872631;0.0659835;0.3916787;2.746175;0.263652;0.2203249;1.327162;-0.04923545;0;0;0;0.3916787;2.746175;0.263652;0.2203249;1.327162;-0.04923545;0;0;0
1313789.4958;NotLabelled;NONE;16384;0.5518953;-0.5138504;0.5249307;0.3947368;-4;0;-2;-95;4217;862;65536;0.4307479;0.02077562;0.267313;0.8617241;24;220;-28;-3038;1827;1964;8192;0.5235457;-0.4903047;-0.5271225;-0.4556787;0;-7;0;256;4145;395;32768;0.5966315;-0.4889196;-0.300554;-0.5609418;-7;-8;-6;1441;3856;389;256;0.001385042;-0.03878116;-0.6814404;-0.7308441;3;-1;-2;309;4056;-237;128;0.0900277;0.06094183;0.6052631;0.7885668;1;3;3;-955;3929;1032;4;0.6388196;-0.4722992;0.4210526;0.4376731;5;6;-5;695;3956;666;16;0.6495845;-0.7131525;-0.1288089;-0.2299169;-2;-2;-4;429;4028;582;2;0.466759;-0.4432133;-0.5096953;-0.5708842;-2;4;3;-261;4104;-5;8;0.6939058;-0.7179501;0.02631579;-0.04847645;-3;3;-3;414;4066;145;0.698872;2.790161;0.2603444;0.7048584;3.335665;0.2636471;0.7101205;3.815175;0.2645274;0.7473314;4.546158;0.3168914;0.5056431;4.886918;0.3021588;0.1574471;4.76008;0.3551784;-0.006913561;3.850159;0.4131171;-0.1992709;3.42872;-0.4134332;1.025315;4.860472;0.3020926;1.30653;4.701602;0.3550327;1.399293;3.743316;0.3918766;1.238822;2.871953;0.05607452;0.3866179;2.748129;0.2524142;0.2220596;1.326722;-0.05316692;0;0;0;0.3866179;2.748129;0.2524142;0.2220596;1.326722;-0.05316692;0;0;0
1313809.6062;NotLabelled;NONE;16384;0.5541673;-0.5124654;0.5249307;0.3933518;-12;3;-3;-247;4183;866;65536;0.4626039;0.01523546;0.2686981;0.8447289;23;247;-14;-3214;1587;1536;8192;0.5235457;-0.4916897;-0.5258308;-0.4556787;0;-7;0;324;4101;379;32768;0.5961908;-0.4903047;-0.299169;-0.5609418;-4;-6;-5;1455;3844;317;256;0.001385042;-0.03878116;-0.6814404;-0.7308441;2;0;-3;353;4052;-155;128;0.0900277;0.06094183;0.6052631;0.7885668;0;4;2;-967;3909;1090;4;0.6388196;-0.4722992;0.4210526;0.4376731;4;7;-5;625;3876;642;16;0.6481994;-0.7148559;-0.1288089;-0.2285319;-2;0;-4;295;3908;502;2;0.4653739;-0.4432133;-0.5110803;-0.5707766;-3;2;3;-249;4144;-25;8;0.6939058;-0.7179501;0.02631579;-0.04847645;-3;0;-2;394;4058;237;0.696835;2.791275;0.254561;0.7028214;3.336788;0.2559258;0.7080835;3.816298;0.2551026;0.7452879;4.547281;0.3074712;0.5036013;4.888041;0.2927083;0.1553988;4.761203;0.345684;-0.00905407;3.851709;0.4097483;-0.2130993;3.432151;-0.4149541;1.023273;4.861595;0.2927074;1.304481;4.702725;0.3456829;1.399747;3.744901;0.3877945;1.239074;2.872604;0.05452511;0.3845806;2.749215;0.2467924;0.2197907;1.327025;-0.05499581;0;0;0;0.3845806;2.749215;0.2467924;0.2197907;1.327025;-0.05499581;0;0;0
1313831.6141;NotLabelled;NONE;16384;0.5551132;-0.5110803;0.5263157;0.3919668;-18;1;-4;-295;4135;1046;65536;0.4972299;0.006925208;0.2714681;0.8240264;17;269;-2;-3112;1397;1450;8192;0.5270279;-0.4916897;-0.5235457;-0.4542936;0;-5;0;408;4073;387;32768;0.5963517;-0.4916897;-0.299169;-0.5595568;-3;-5;-3;1509;3864;293;256;0.001385042;-0.03878116;-0.6814404;-0.7308441;0;1;-2;347;4100;-157;128;0.09141274;0.05955679;0.6052631;0.7885133;1;5;3;-955;3949;936;4;0.637712;-0.4750692;0.4210526;0.4362881;5;7;-5;517;3920;632;16;0.6481994;-0.7150464;-0.1301939;-0.2271468;-2;8;-2;339;3998;508;2;0.4653739;-0.4432133;-0.5124654;-0.5695335;-3;4;3;-279;4044;-111;8;0.6925207;-0.7193782;0.02631579;-0.04709141;-3;4;-1;360;4072;195;0.6960901;2.791109;0.2479568;0.7020764;3.336621;0.2493215;0.7073385;3.816131;0.2484984;0.7445429;4.547115;0.300867;0.5028564;4.887874;0.286104;0.1546539;4.761037;0.3390797;-0.01416697;3.852145;0.400273;-0.2260719;3.435372;-0.423859;1.022528;4.861429;0.2861032;1.303736;4.702558;0.3390786;1.396495;3.744483;0.3810387;1.23248;2.8725;0.04857129;0.3838357;2.749049;0.2401882;0.2190458;1.326858;-0.06160006;0;0;0;0.3838357;2.749049;0.2401882;0.2190458;1.326858;-0.06160006;0;0;0
1313853.582;NotLabelled;NONE;16384;0.563094;-0.501385;0.533241;0.3836565;-41;-3;-4;-261;4237;1234;65536;0.5969529;-0.03185596;0.2756233;0.752771;6;275;29;-3348;1635;398;8192;0.5221606;-0.4930748;-0.527108;-0.4542936;-1;3;1;404;4105;321;32768;0.5969529;-0.4916897;-0.300554;-0.5581717;3;5;2;1365;3914;341;256;0;-0.03739612;-0.6814404;-0.7309176;0;6;-1;217;4012;-245;128;0.09141274;0.0567867;0.6066482;0.7876528;0;6;5;-867;3915;1080;4;0.6364609;-0.4792244;0.4196676;0.434903;5;8;-5;499;4014;606;16;0.6468144;-0.7156056;-0.1315789;-0.2285319;-2;8;-1;595;4112;646;2;0.4639889;-0.4418283;-0.5138504;-0.5704909;-2;5;3;-195;4136;-125;8;0.6911357;-0.7207581;0.02493075;-0.04709141;-2;6;-2;416;4118;281;0.6887003;2.793743;0.2381048;0.6946867;3.339256;0.2391953;0.6999487;3.818766;0.2381311;0.7371532;4.549749;0.2904997;0.4954666;4.89051;0.2757367;0.1472639;4.763672;0.3287124;-0.02622028;3.855645;0.3896994;-0.2449259;3.438251;-0.4323394;1.015138;4.864063;0.2757359;1.296346;4.705194;0.3287114;1.3919;3.747207;0.3662349;1.227644;2.874297;0.03633513;0.3764458;2.751679;0.230359;0.2141876;1.327557;-0.06358772;0;0;0;0.3764458;2.751679;0.230359;0.2141876;1.327557;-0.06358772;0;0;0
1313893.7068;NotLabelled;NONE;16384;0.5656382;-0.4972299;0.5373961;0.3795014;-46;0;-3;-267;4259;1136;65536;0.6274238;-0.04709141;0.2783934;0.7256851;6;273;38;-3446;1817;146;8192;0.5221606;-0.4916897;-0.5284002;-0.4542936;0;6;1;336;4135;361;32768;0.5960959;-0.4903047;-0.301939;-0.5595568;5;8;2;1465;3918;355;256;0;-0.03601108;-0.6814404;-0.7309871;1;8;-2;251;4048;-203;128;0.09279778;0.05540166;0.6066482;0.7875895;0;6;4;-909;3979;998;4;0.6363614;-0.4806094;0.4196676;0.433518;4;8;-7;537;4056;684;16;0.6454294;-0.716855;-0.1315789;-0.2285319;-1;2;-2;531;4050;682;2;0.4639889;-0.4418283;-0.5152354;-0.5692403;-3;6;4;-147;4112;-147;8;0.6911357;-0.7208047;0.0235457;-0.04709141;-2;7;-3;464;4142;157;0.6838304;2.795948;0.2247968;0.6898168;3.341461;0.2238394;0.6950787;3.820963;0.2209753;0.7323834;4.55194;0.2733467;0.4907437;4.892734;0.2585851;0.1425237;4.765944;0.3115604;-0.06019725;3.863637;0.3670158;-0.2822045;3.434394;-0.4480057;1.010412;4.866217;0.2585841;1.291598;4.707308;0.3115589;1.384216;3.749444;0.3583673;1.221776;2.875292;0.03086086;0.3715756;2.753855;0.2172217;0.2151904;1.327202;-0.06749301;0;0;0;0.3715756;2.753855;0.2172217;0.2151904;1.327202;-0.06749301;0;0;0
1313913.7269;NotLabelled;NONE;16384;0.569397;-0.4930748;0.5401662;0.3753462;-51;-3;-3;-555;4301;1114;65536;0.6551247;-0.06232687;0.2797784;0.6990358;6;262;45;-3580;1753;120;8192;0.5207756;-0.4916897;-0.5297653;-0.4542936;-1;8;1;380;4089;361;32768;0.5965302;-0.4889196;-0.3033241;-0.5595568;6;10;2;1373;3848;409;256;0;-0.03601108;-0.6814404;-0.7309871;0;8;-2;247;4052;-245;128;0.09279778;0.05540166;0.6066482;0.7875895;0;6;5;-921;3961;958;4;0.6362559;-0.4819945;0.4196676;0.432133;4;8;-7;583;3990;690;16;0.6454294;-0.7172951;-0.1315789;-0.2271468;-1;1;-2;447;4046;666;2;0.4626039;-0.4418283;-0.5166205;-0.5691123;-2;10;4;-163;4148;-191;8;0.6911357;-0.7208047;0.0235457;-0.04709141;-2;8;-3;436;4070;141;0.6860499;2.796193;0.2153927;0.6920362;3.341706;0.2141562;0.6972982;3.821206;0.2110466;0.7332211;4.552254;0.2634134;0.4909376;4.89259;0.2486496;0.1429579;4.765142;0.3016255;-0.07331344;3.866001;0.357321;-0.2971418;3.427137;-0.4520589;1.010655;4.867055;0.248649;1.292141;4.708678;0.3016249;1.38736;3.751065;0.3483694;1.225561;2.87702;0.02026453;0.3737951;2.754097;0.2078409;0.2165647;1.326705;-0.07267477;0;0;0;0.3737951;2.754097;0.2078409;0.2165647;1.326705;-0.07267477;0;0;0
1313934.4947;NotLabelled;NONE;16384;0.5729236;-0.4875346;0.5443213;0.3711911;-55;-5;-4;-383;4217;1232;65536;0.6815798;-0.07894737;0.2825485;0.6703601;4;247;49;-3540;1715;258;8192;0.5193906;-0.4916897;-0.5311233;-0.4542936;0;9;1;354;4113;385;32768;0.5956565;-0.4875346;-0.3047091;-0.5609418;8;10;3;1375;3796;435;256;0;-0.03462604;-0.6814404;-0.731054;1;8;-2;203;4108;-259;128;0.09279778;0.05401662;0.6066482;0.7876857;-1;5;5;-963;3947;984;4;0.6369385;-0.4847645;0.4182825;0.4293629;6;10;-8;529;3934;668;16;0.6454294;-0.7172951;-0.1315789;-0.2271468;0;2;-3;317;4026;566;2;0.4612188;-0.4418283;-0.5180055;-0.5689774;-2;10;3;-157;4148;-165;8;0.6897507;-0.722174;0.02216066;-0.04709141;-3;7;-3;464;4082;155;0.684011;2.797196;0.2096762;0.6899973;3.342709;0.2084397;0.6952593;3.82221;0.2053301;0.7311822;4.553257;0.257697;0.4888987;4.893593;0.2429331;0.1409191;4.766145;0.295909;-0.08860818;3.870127;0.3488134;-0.3112131;3.422097;-0.4558676;1.008616;4.868058;0.2429325;1.290102;4.709681;0.2959084;1.385132;3.752188;0.3454185;1.226663;2.877836;0.01650607;0.3717563;2.7551;0.2021244;0.2142534;1.326978;-0.07449874;0;0;0;0.3717563;2.7551;0.2021244;0.2142534;1.326978;-0.07449874;0;0;0
1313955.4792;NotLabelled;NONE;16384;0.5826138;-0.4764543;0.5512465;0.3601108;-63;4;-3;-263;4087;1264;65536;0.7231973;-0.1108033;0.2853186;0.6191136;-7;225;61;-2818;1695;-8;8192;0.5193906;-0.4903047;-0.5312172;-0.4556787;-1;10;2;296;4077;401;32768;0.5960782;-0.4861496;-0.3060942;-0.5609418;8;10;2;1433;3788;409;256;-0.001385042;-0.033241;-0.6814404;-0.731117;0;9;-1;287;4086;-243;128;0.09279778;0.05263158;0.6066482;0.7877794;-3;5;5;-993;3907;942;4;0.6357552;-0.4875346;0.4182825;0.4279778;6;12;-8;563;3940;660;16;0.6454294;-0.7170396;-0.132964;-0.2271468;0;7;-2;269;4034;530;2;0.4598338;-0.4404432;-0.5193906;-0.5699089;-3;11;2;-211;4134;-133;8;0.6897507;-0.7222152;0.02077562;-0.04709141;-2;8;-3;364;4082;185;0.683331;2.798181;0.2044155;0.6893173;3.343693;0.2031266;0.6945792;3.823194;0.1999708;0.7291206;4.554308;0.2523329;0.4861945;4.894185;0.2375669;0.1384562;4.766081;0.2905439;-0.1064057;3.874013;0.3414096;-0.3308985;3.41307;-0.4554164;1.005959;4.869633;0.2375662;1.287744;4.711789;0.290543;1.382676;3.754421;0.3426203;1.224836;2.880174;0.01312751;0.3710761;2.756084;0.1968682;0.2141019;1.326979;-0.07493336;0;0;0;0.3710761;2.756084;0.1968682;0.2141019;1.326979;-0.07493336;0;0;0
1313976.4998;NotLabelled;NONE;16384;0.5867528;-0.4722992;0.5540166;0.3545706;-62;10;-1;-145;3841;1202;65536;0.7403757;-0.1288089;0.2867036;0.5941828;-13;210;64;-2798;1721;-272;8192;0.5166205;-0.4889196;-0.5339978;-0.4570637;-2;11;1;292;4071;343;32768;0.5955968;-0.4833795;-0.3088643;-0.5623268;9;10;1;1347;3782;363;256;-0.004155125;-0.03047091;-0.6814404;-0.7312272;2;12;0;315;4114;-217;128;0.09418282;0.04986149;0.6066482;0.7877952;0;8;4;-983;3909;888;4;0.6365317;-0.4889196;0.4168975;0.4265928;7;14;-8;553;4004;670;16;0.6440443;-0.7180262;-0.134349;-0.2271468;0;15;-1;305;3984;546;2;0.4584487;-0.4390582;-0.5207756;-0.5708287;-4;12;2;-225;4168;-153;8;0.6897507;-0.7222152;0.02077562;-0.04709141;-3;8;-3;470;4070;229;0.6789583;2.800364;0.1948248;0.6849447;3.345877;0.1934836;0.6902066;3.825377;0.1902819;0.7248488;4.556486;0.2426414;0.4819694;4.896398;0.2278744;0.1342135;4.768341;0.2808519;-0.1448007;3.886013;0.3253304;-0.369469;3.399368;-0.4560132;1.00173;4.871773;0.2278736;1.283494;4.71389;0.2808508;1.378737;3.756406;0.3301187;1.222929;2.881861;0.0004488528;0.3667034;2.758266;0.1872818;0.2112464;1.327381;-0.07589144;0;0;0;0.3667034;2.758266;0.1872818;0.2112464;1.327381;-0.07589144;0;0;0
1313996.4848;NotLabelled;NONE;16384;0.5928852;-0.468144;0.5554016;0.3476454;-60;22;0;-49;3751;1062;65536;0.7551348;-0.1454294;0.2880886;0.5706371;-16;197;67;-2740;1895;-390;8192;0.5166205;-0.4875346;-0.5352626;-0.4570637;-3;11;0;324;4059;349;32768;0.5946895;-0.4819945;-0.3102493;-0.5637119;9;11;1;1367;3794;449;256;-0.005540166;-0.03047091;-0.6814404;-0.731218;1;14;0;345;4100;-179;128;0.09556787;0.04847645;0.6066482;0.7877149;-1;9;4;-957;3899;888;4;0.6353236;-0.4916897;0.4168975;0.4252077;8;15;-7;515;4028;672;16;0.6440443;-0.7173259;-0.1357341;-0.2285319;0;13;-1;537;4032;564;2;0.4570637;-0.4376731;-0.5235457;-0.570469;-5;12;2;-173;4148;-211;8;0.6883656;-0.7235182;0.01800554;-0.04847645;-3;11;-4;392;4058;311;0.6779409;2.800516;0.1864361;0.6839273;3.346027;0.1847598;0.6891892;3.825526;0.1812635;0.7240336;4.556627;0.2336013;0.4812481;4.896605;0.2188245;0.1334569;4.768647;0.2718063;-0.1599899;3.891011;0.3162565;-0.3873469;3.387415;-0.4534815;1.001002;4.871837;0.2188236;1.282722;4.713878;0.2718051;1.378062;3.756524;0.3233819;1.224268;2.881794;-0.006741315;0.365686;2.758414;0.1789212;0.2095311;1.327266;-0.0824;0;0;0;0.365686;2.758414;0.1789212;0.2095311;1.327266;-0.0824;0;0;0
1314016.6592;NotLabelled;NONE;16384;0.5980526;-0.4639889;0.5567867;0.3421052;-56;28;3;-77;3573;862;65536;0.7685283;-0.1620499;0.2894737;0.5470914;-17;187;70;-2734;2121;-570;8192;0.5152354;-0.4861496;-0.536671;-0.4584487;-3;13;0;338;4063;359;32768;0.5943588;-0.4806094;-0.3130194;-0.5637119;10;11;1;1367;3746;443;256;-0.006925208;-0.02908587;-0.6814404;-0.7312626;1;15;0;313;4008;-277;128;0.09556787;0.04847645;0.6066482;0.7877149;0;11;5;-905;3919;946;4;0.6350065;-0.4944598;0.4155124;0.4238227;8;15;-7;465;3994;642;16;0.6440443;-0.7170624;-0.1371191;-0.2285319;0;6;-2;541;4018;572;2;0.4556787;-0.4362881;-0.5249307;-0.5713645;-5;13;3;-101;4058;-157;8;0.6883656;-0.7235513;0.0166205;-0.04847645;-2;10;-4;486;4088;291;0.6754175;2.802391;0.1793617;0.6814038;3.347902;0.1773974;0.6866656;3.827398;0.1736481;0.7229925;4.558429;0.2259712;0.4808969;4.898897;0.2111877;0.1328471;4.771646;0.2641723;-0.1769002;3.899414;0.3041765;-0.4038647;3.379724;-0.4549058;1.0006;4.873075;0.2111872;1.281999;4.714546;0.2641718;1.379912;3.757447;0.3156503;1.226768;2.882818;-0.0150442;0.3631625;2.760285;0.1718708;0.2091572;1.327404;-0.08110277;0;0;0;0.3631625;2.760285;0.1718708;0.2091572;1.327404;-0.08110277;0;0;0
1314037.5237;NotLabelled;NONE;16384;0.6030262;-0.4626039;0.5567867;0.33518;-49;31;4;-143;3591;990;65536;0.7801092;-0.1786704;0.2922437;0.5235457;-20;172;70;-2566;2129;-796;8192;0.5138504;-0.4847645;-0.5392457;-0.4584487;-3;15;0;328;4047;317;32768;0.594546;-0.4778393;-0.3144044;-0.5650969;11;13;2;1383;3744;509;256;-0.009695291;-0.02631579;-0.6814404;-0.7313361;2;15;0;241;3962;-251;128;0.09695291;0.04570637;0.6066482;0.7877113;-2;14;5;-881;3893;932;4;0.6357537;-0.4958449;0.4141274;0.4224377;8;16;-8;505;3976;686;16;0.6440443;-0.7170624;-0.1371191;-0.2285319;0;7;-2;489;4008;626;2;0.4542936;-0.4362881;-0.5263157;-0.5711933;-5;15;3;-127;4088;-207;8;0.6869806;-0.724803;0.01523546;-0.04986149;-2;12;-4;420;4098;245;0.6692777;2.80407;0.1730894;0.6752639;3.349581;0.1711251;0.6805257;3.829077;0.1673757;0.7169541;4.560104;0.2196739;0.4749057;4.900606;0.2048794;0.1268383;4.773404;0.2578691;-0.1968952;3.906109;0.2943021;-0.4257931;3.369939;-0.4526407;0.994605;4.874712;0.2048786;1.275982;4.716146;0.2578679;1.373973;3.759049;0.3092463;1.223913;2.883324;-0.01995509;0.3570227;2.761964;0.1655984;0.2062752;1.3278;-0.08200656;0;0;0;0.3570227;2.761964;0.1655984;0.2062752;1.3278;-0.08200656;0;0;0
1314058.4911;NotLabelled;NONE;16384;0.6134437;-0.4584487;0.5554016;0.3240997;-39;26;8;-371;3495;1042;65536;0.7943271;-0.2105263;0.2950138;0.4875346;-29;122;69;-2510;2335;-680;8192;0.5124654;-0.4833795;-0.540626;-0.4598338;-2;16;0;314;4035;311;32768;0.5936046;-0.4764543;-0.3157895;-0.566482;12;15;3;1399;3810;495;256;-0.01108033;-0.02493075;-0.6814404;-0.7313649;2;19;0;259;4002;-231;128;0.09833795;0.04432133;0.6066482;0.7876187;0;16;5;-911;3897;946;4;0.6350563;-0.501385;0.4127424;0.4182825;7;16;-9;419;4014;700;16;0.6426592;-0.7175959;-0.1385041;-0.2299169;0;4;-3;443;4018;628;2;0.4529086;-0.434903;-0.5290859;-0.5707901;-4;16;3;-109;4080;-169;8;0.6869806;-0.7248308;0.01385042;-0.04986149;-2;13;-5;446;4046;307;0.669205;2.804336;0.1695724;0.6751913;3.349846;0.1672645;0.6804532;3.829339;0.1632131;0.7170848;4.560361;0.2154443;0.4751308;4.900928;0.2006196;0.1270282;4.773829;0.2536222;-0.2082973;3.910943;0.2899085;-0.4445805;3.356812;-0.4414642;0.994823;4.87489;0.2006191;1.276156;4.71625;0.2536219;1.376811;3.759542;0.3070183;1.227637;2.884462;-0.02429544;0.3569499;2.762225;0.1621101;0.2056265;1.3278;-0.08362027;0;0;0;0.3569499;2.762225;0.1621101;0.2056265;1.3278;-0.08362027;0;0;0
1314078.603;NotLabelled;NONE;16384;0.61665;-0.4570637;0.5554016;0.3199446;-33;24;11;-305;3585;1132;65536;0.7996369;-0.2257618;0.2963989;0.4709141;-37;116;70;-2504;2377;-732;8192;0.5096953;-0.4806094;-0.5433442;-0.4626039;-1;20;0;370;4101;329;32768;0.5912976;-0.4722992;-0.3213296;-0.5692521;12;21;4;1357;3790;543;256;-0.01385042;-0.02216066;-0.6814404;-0.7314069;1;18;0;267;4046;-217;128;0.09972299;0.04155125;0.6066482;0.7875956;-2;16;5;-937;3925;944;4;0.6355802;-0.5041551;0.4113573;0.4155124;6;16;-10;413;3990;712;16;0.6426592;-0.7175959;-0.1385041;-0.2299169;0;9;-3;355;4042;600;2;0.4515235;-0.433518;-0.5304709;-0.5716549;-5;16;3;-193;4150;-185;8;0.6869806;-0.7247818;0.01108033;-0.05124654;0;13;-5;396;4052;263;0.6665574;2.80659;0.1520617;0.6725437;3.352098;0.1494567;0.6778055;3.831589;0.1451442;0.7143346;4.562637;0.1970784;0.4724879;4.903229;0.1811033;0.1241632;4.776208;0.2328215;-0.2322973;3.921432;0.2577705;-0.4640689;3.331534;-0.4465723;0.9921724;4.87712;0.1831496;1.273274;4.718474;0.2373469;1.373431;3.761781;0.2919733;1.225505;2.886619;-0.03968196;0.3543023;2.764475;0.1446243;0.2068228;1.32737;-0.08740437;0;0;0;0.3543023;2.764475;0.1446243;0.2068228;1.32737;-0.08740437;0;0;0
1314098.5065;NotLabelled;NONE;16384;0.6222799;-0.4556787;0.5526316;0.3157895;-28;25;14;-275;3583;1176;65536;0.8036333;-0.2396122;0.2963989;0.4570637;-37;101;70;-2080;2705;-1324;8192;0.5083103;-0.4792244;-0.5446825;-0.4639889;-1;22;0;340;4119;339;32768;0.5914144;-0.4695291;-0.3227147;-0.5706371;12;21;4;1373;3842;579;256;-0.01800554;-0.01800554;-0.6814404;-0.7314305;2;19;-1;263;4058;-187;128;0.1024931;0.03739612;0.6066482;0.7874482;-2;19;6;-881;3935;1016;4;0.6362846;-0.5055401;0.4113573;0.4127424;7;18;-10;461;3968;600;16;0.6426592;-0.7170557;-0.1412742;-0.2299169;1;15;-2;317;3982;560;2;0.4487534;-0.4293629;-0.534626;-0.5730994;-6;18;3;-163;4132;-159;8;0.6855956;-0.7260445;0.006925208;-0.05263158;-1;15;-5;384;4072;263;0.6670676;2.807407;0.1445389;0.6730538;3.352913;0.1415817;0.6783156;3.832401;0.1369596;0.7152526;4.563418;0.189048;0.4734406;4.904084;0.1741594;0.1252856;4.777139;0.2271903;-0.2382516;3.925428;0.2547439;-0.4765808;3.318764;-0.4329733;0.993122;4.877829;0.1741587;1.274389;4.719082;0.2271895;1.375167;3.762362;0.2801517;1.230167;2.886485;-0.05090984;0.3548125;2.765287;0.1371308;0.2057902;1.327417;-0.08910485;0;0;0;0.3548125;2.765287;0.1371308;0.2057902;1.327417;-0.08910485;0;0;0
1314139.5552;NotLabelled;NONE;16384;0.6297113;-0.4542936;0.5484765;0.3102493;-14;29;20;-371;3517;1058;65536;0.8063357;-0.265928;0.301939;0.433518;-24;82;71;-2422;2905;-1644;8192;0.5041551;-0.4750692;-0.5486147;-0.468144;-1;25;0;288;4121;335;32768;0.5876136;-0.4653739;-0.3282548;-0.5747922;10;20;3;1447;3844;535;256;-0.02216066;-0.01385042;-0.6800554;-0.7326949;3;18;-2;231;4034;-223;128;0.1066482;0.03185596;0.6066482;0.78714;-5;20;7;-913;3921;914;4;0.6363252;-0.5110803;0.4085872;0.4085872;8;20;-10;385;4056;554;16;0.6412742;-0.7172991;-0.1440443;-0.2313019;0;11;-4;445;4040;594;2;0.4459834;-0.4265928;-0.5387812;-0.573439;-7;19;2;-109;4140;-87;8;0.6855956;-0.7260657;0.004155125;-0.05263158;-1;15;-5;356;4086;257;0.6667969;2.808479;0.1362071;0.6727831;3.353982;0.1325835;0.6780448;3.833464;0.1273756;0.715287;4.564479;0.1792707;0.4736169;4.905242;0.1642956;0.1254099;4.778456;0.2173648;-0.2446974;3.929466;0.2411626;-0.4872921;3.307778;-0.4314812;0.993287;4.878769;0.1642946;1.274489;4.71992;0.2173633;1.375693;3.763191;0.2693574;1.230196;2.887973;-0.06322441;0.3545417;2.766351;0.1288547;0.1996009;1.328198;-0.09152708;0;0;0;0.3545417;2.766351;0.1288547;0.1996009;1.328198;-0.09152708;0;0;0
1314159.6827;NotLabelled;NONE;16384;0.637208;-0.4556787;0.5401662;0.3074792;-6;31;27;-243;3719;1532;65536;0.8062406;-0.2936288;0.3074792;0.4113573;-50;74;72;-2046;2751;-586;8192;0.5027701;-0.4736842;-0.5498982;-0.4695291;0;24;0;268;4133;387;32768;0.5876691;-0.4626039;-0.3296399;-0.5761772;10;20;3;1483;3786;545;256;-0.0235457;-0.01108033;-0.6800554;-0.7326987;4;19;-2;273;4004;-215;128;0.1080332;0.02908587;0.6066482;0.7870583;-4;19;6;-889;3917;928;4;0.6360313;-0.5180055;0.4058172;0.4030471;8;21;-11;279;4034;590;16;0.6398892;-0.7175264;-0.1468144;-0.232687;0;9;-4;531;4064;644;2;0.4432133;-0.4238227;-0.5415512;-0.5750292;-7;20;2;-155;4146;-99;8;0.6855956;-0.7259745;0.001385042;-0.05401662;-1;14;-6;392;4120;271;0.6611317;2.810554;0.119147;0.6671177;3.356048;0.1145158;0.6723793;3.835521;0.1084223;0.7099292;4.566336;0.1628444;0.4684094;4.907253;0.1490019;0.120138;4.780437;0.2015722;-0.2580168;3.934843;0.218932;-0.5071856;3.280391;-0.4193512;0.9880679;4.880555;0.1490012;1.269192;4.721402;0.2015715;1.370351;3.764637;0.2529777;1.225653;2.888852;-0.07845922;0.3488764;2.768412;0.1118787;0.1970598;1.328196;-0.09690169;0;0;0;0.3488764;2.768412;0.1118787;0.1970598;1.328196;-0.09690169;0;0;0
1314180.5505;NotLabelled;NONE;16384;0.642525;-0.4556787;0.534626;0.3060942;-6;35;29;-267;3697;1670;65536;0.8047437;-0.3088643;0.3074792;0.4030471;-62;61;68;-1854;3215;-680;8192;0.4986149;-0.4695291;-0.5548505;-0.4722992;0;25;1;276;4085;381;32768;0.5858546;-0.4584487;-0.333795;-0.5789474;9;21;3;1431;3768;573;256;-0.02631579;-0.009695291;-0.6800554;-0.7326242;3;19;-2;231;3966;-193;128;0.1094183;0.02631579;0.6066482;0.7869645;-4;18;7;-897;3977;926;4;0.6364006;-0.5207756;0.4044321;0.400277;7;21;-10;277;4078;584;16;0.6398892;-0.7175264;-0.1468144;-0.232687;0;6;-5;455;4028;592;2;0.4418283;-0.4224377;-0.5429363;-0.5758076;-7;22;1;-169;4116;-99;8;0.6842105;-0.7272814;0;-0.05401662;-2;15;-6;302;4092;255;0.6547137;2.813107;0.09983777;0.6606998;3.358598;0.0948289;0.6659613;3.838066;0.08840345;0.7022413;4.568952;0.1427267;0.4601282;4.909446;0.1288466;0.1120797;4.782031;0.1814454;-0.2655129;3.936038;0.1883347;-0.5159119;3.247673;-0.4127086;0.9798324;4.883653;0.1288323;1.261235;4.724996;0.1814145;1.362763;3.76818;0.2311082;1.219416;2.893057;-0.1026554;0.3424583;2.770959;0.09260099;0.1950109;1.328185;-0.1011024;0;0;0;0.3424583;2.770959;0.09260099;0.1950109;1.328185;-0.1011024;0;0;0
1314201.4989;NotLabelled;NONE;16384;0.6456359;-0.4570637;0.5304709;0.3047091;-2;43;30;-269;3605;1464;65536;0.8004066;-0.3254848;0.3088643;0.3975069;-67;42;67;-1484;3417;-1224;8192;0.4972299;-0.468144;-0.5548989;-0.4750692;0;25;1;206;4085;413;32768;-0.5817174;0.4570637;0.3365651;0.5825989;8;22;3;1387;3780;593;256;-0.02908587;-0.004155125;-0.6786703;-0.7338551;4;21;-3;231;4050;-235;128;0.1135734;0.02077562;0.6052631;0.7876078;-4;19;7;-827;3961;952;4;0.6349959;-0.5235457;0.4044321;0.398892;6;20;-10;255;4066;590;16;0.6398892;-0.7172416;-0.1481994;-0.232687;0;9;-4;333;4076;588;2;0.4404432;-0.4196676;-0.5457063;-0.5762755;-7;22;1;-207;4086;-31;8;0.6842105;-0.7271759;-0.001385042;-0.05540166;-2;15;-7;362;4088;249;0.6539463;2.813919;0.09271444;0.6599324;3.359406;0.0873237;0.6651938;3.838869;0.08056261;0.7030623;4.56969;0.13469;0.4616903;4.910706;0.1207154;0.1133649;4.784062;0.173344;-0.2643636;3.938109;0.1697105;-0.5099756;3.232187;-0.412652;0.9813372;4.883783;0.1207145;1.262393;4.724529;0.1733429;1.365571;3.768082;0.2266158;1.225861;2.892873;-0.1084635;0.3416908;2.771766;0.0855096;0.194423;1.328186;-0.1022282;0;0;0;0.3416908;2.771766;0.0855096;0.194423;1.328186;-0.1022282;0;0;0
1314222.4734;NotLabelled;NONE;16384;0.6496229;-0.4612188;0.5235457;0.301939;3;54;28;-373;3559;1096;65536;0.7950271;-0.3407202;0.3116343;0.3933518;-65;23;70;-1376;3523;-1326;8192;0.4944598;-0.4653739;-0.5585051;-0.4764543;0;25;1;234;4095;367;32768;-0.5803324;0.4542936;0.3379501;0.5853387;8;22;2;1473;3736;561;256;-0.03185596;-0.001385042;-0.6786703;-0.7337505;3;21;-3;263;4028;-245;128;0.1149584;0.01800554;0.6052631;0.787475;-6;18;8;-829;3947;908;4;0.6364655;-0.5249307;0.4030471;0.3961219;6;19;-9;281;3964;560;16;0.6398892;-0.7169541;-0.1495845;-0.232687;0;15;-4;295;4020;528;2;0.4376731;-0.4155124;-0.5498615;-0.5774461;-7;20;1;-303;4024;-39;8;0.6828254;-0.728466;-0.004155125;-0.05540166;-2;13;-6;240;4092;315;0.6493024;2.815651;0.08046348;0.6552885;3.361147;0.07593481;0.66055;3.84062;0.06993143;0.6959093;4.571375;0.1265891;0.4533744;4.91161;0.113749;0.1054755;4.783593;0.1658776;-0.2709679;3.937075;0.160838;-0.51302;3.210668;-0.3973203;0.9731104;4.886464;0.1137483;1.254701;4.727991;0.1658768;1.355747;3.771125;0.2155889;1.21092;2.895669;-0.1166617;0.337047;2.77351;0.07318663;0.190639;1.328562;-0.1044314;0;0;0;0.337047;2.77351;0.07318663;0.190639;1.328562;-0.1044314;0;0;0
1314242.4728;NotLabelled;NONE;16384;0.6544582;-0.4639889;0.5166205;0.299169;12;57;29;-349;3491;1024;65536;0.7892854;-0.3559557;0.3144044;0.3891967;-66;23;72;-1550;3487;-1086;8192;0.4930748;-0.4639889;-0.558512;-0.4792244;0;24;1;214;4057;341;32768;-0.5789474;0.4529086;0.3393352;0.5869799;8;22;2;1423;3778;487;256;-0.033241;0;-0.6786703;-0.7336904;4;22;-4;253;4048;-223;128;0.1163435;0.01523546;0.6038781;0.7883929;-7;18;8;-877;3919;976;4;0.6367682;-0.5277008;0.4016621;0.3933518;7;20;-7;291;4032;492;16;0.6385041;-0.7176052;-0.1523546;-0.232687;0;13;-4;353;4028;486;2;0.4362881;-0.4141274;-0.5512465;-0.5781682;-7;19;1;-285;4186;15;8;0.6828254;-0.728445;-0.006925208;-0.05540166;-3;12;-7;272;4078;317;0.6490582;2.815976;0.07684089;0.6550442;3.361468;0.07191311;0.6603058;3.840936;0.06555895;0.6958848;4.5717;0.1219694;0.4534516;4.912003;0.1090185;0.1055151;4.784109;0.161196;-0.2668351;3.935812;0.1524539;-0.5045661;3.190138;-0.3816352;0.9731802;4.886702;0.1090177;1.254724;4.728162;0.1611949;1.358023;3.771635;0.2127609;1.211808;2.897142;-0.121411;0.3368028;2.77383;0.0695973;0.1872502;1.328935;-0.1058172;0;0;0;0.3368028;2.77383;0.0695973;0.1872502;1.328935;-0.1058172;0;0;0
1314262.6173;NotLabelled;NONE;16384;0.6582635;-0.4695291;0.5083103;0.2963989;18;60;31;-389;3557;1120;65536;0.7830509;-0.3711911;0.3157895;0.3864266;-68;31;72;-1804;3701;-1286;8192;0.4903047;-0.4612188;-0.5620437;-0.4806094;0;26;1;232;4037;341;32768;-0.5775623;0.4501385;0.3421052;0.5888643;9;22;2;1491;3810;547;256;-0.03601108;0.002770083;-0.6786703;-0.7335544;2;21;-4;167;3998;-185;128;0.1177285;0.01108033;0.6038781;0.7882566;-7;19;8;-849;3905;892;4;0.6361926;-0.5304709;0.400277;0.3919668;7;18;-7;225;3980;476;16;0.6385041;-0.716859;-0.1537396;-0.234072;0;12;-4;275;4048;534;2;0.434903;-0.4113573;-0.5526316;-0.5798645;-7;17;1;-173;4096;41;8;0.6828254;-0.7284305;-0.008310249;-0.05540166;-3;11;-6;304;4124;313;0.643926;2.816903;0.06584262;0.6499123;3.362407;0.06244268;0.655174;3.841892;0.05743141;0.690862;4.572659;0.1137097;0.4484794;4.912995;0.1006996;0.1005246;4.785163;0.1529032;-0.2693797;3.9359;0.1369599;-0.5003526;3.171559;-0.3731669;0.9682042;4.887618;0.1006988;1.249724;4.729046;0.1529022;1.350427;3.772095;0.2016864;1.203635;2.897722;-0.1325466;0.3316709;2.774777;0.05847143;0.1828259;1.329116;-0.1111414;0;0;0;0.3316709;2.774777;0.05847143;0.1828259;1.329116;-0.1111414;0;0;0
1314283.4967;NotLabelled;NONE;16384;0.6647175;-0.4806094;0.4916897;0.2922437;23;58;33;-697;3573;1152;65536;0.7704244;-0.400277;0.3213296;0.3781163;-66;11;75;-532;3683;-1158;8192;0.4861496;-0.4570637;-0.5654686;-0.4847645;1;27;0;160;4051;397;32768;-0.5734072;0.4459834;0.3462604;0.5936386;8;25;1;1425;3726;505;256;-0.03739612;0.005540166;-0.6772853;-0.7347485;3;20;-5;47;4066;-221;128;0.1191136;0.009695291;0.6038781;0.7880667;-6;16;8;-789;3947;942;4;0.6358322;-0.536011;0.3975069;0.3878116;7;17;-7;121;4034;466;16;0.6371191;-0.7174916;-0.1565097;-0.234072;-1;11;-5;297;4038;592;2;0.434903;-0.4099723;-0.5554016;-0.5781965;-7;16;0;-179;4058;9;8;0.6814404;-0.7296028;-0.009695291;-0.0567867;-2;10;-7;256;4088;323;0.6397217;2.818118;0.05985638;0.645708;3.363619;0.0559999;0.6509696;3.843099;0.05058733;0.6868746;4.573878;0.1065846;0.4445922;4.914282;0.09344843;0.09660056;4.786571;0.1457076;-0.2666048;3.9345;0.126056;-0.4894388;3.152393;-0.3602063;0.9643095;4.888749;0.09344757;1.245784;4.730114;0.1457065;1.348672;3.773489;0.1962686;1.202811;2.899034;-0.1381565;0.3274665;2.775987;0.05252346;0.1818656;1.329274;-0.1108248;0;0;0;0.3274665;2.775987;0.05252346;0.1818656;1.329274;-0.1108248;0;0;0
1314304.4847;NotLabelled;NONE;16384;0.667386;-0.4861496;0.4833795;0.2908587;26;53;35;-441;3599;1256;65536;0.7620096;-0.4155124;0.3268698;0.3739612;-73;15;85;88;3879;-1246;8192;0.4833795;-0.4556787;-0.5665786;-0.4875346;2;27;0;136;4043;417;32768;-0.5720221;0.4445983;0.3490305;0.594391;7;25;0;1473;3734;505;256;-0.0401662;0.01108033;-0.6772853;-0.7345397;5;18;-6;109;3980;-321;128;0.1204986;0.004155125;0.602493;0.7889645;-8;14;8;-735;3931;970;4;0.6372095;-0.5373961;0.3961219;0.3850415;8;15;-6;57;4032;440;16;0.6357341;-0.7184162;-0.1578947;-0.234072;-1;9;-5;311;4022;638;2;0.433518;-0.4085872;-0.5567867;-0.5788844;-6;15;0;-181;4070;-19;8;0.6814404;-0.7295607;-0.01246537;-0.0567867;-2;9;-6;274;4066;363;0.6299296;2.820019;0.042891;0.6359158;3.365517;0.03867108;0.6411774;3.844994;0.03293908;0.675885;4.575626;0.09154148;0.4330519;4.91568;0.0795738;0.08525951;4.78722;0.1313176;-0.2619798;3.928809;0.1015623;-0.4703265;3.114125;-0.3351061;0.9528099;4.890994;0.07957295;1.234533;4.73263;0.1313165;1.336604;3.77589;0.1813672;1.191106;2.901726;-0.1539727;0.3176744;2.777882;0.03558836;0.1771594;1.329432;-0.1164164;0;0;0;0.3176744;2.777882;0.03558836;0.1771594;1.329432;-0.1164164;0;0;0
1314324.506;NotLabelled;NONE;16384;0.6692919;-0.4916897;0.4750692;0.2908587;27;56;35;-333;3769;1380;65536;0.7544168;-0.4307479;0.3310249;0.368421;-69;32;88;-942;4441;-1390;8192;0.4819945;-0.4542936;-0.5676762;-0.4889196;2;26;1;164;4065;413;32768;-0.5692521;0.4418283;0.3518005;0.5974749;7;25;0;1509;3778;495;256;-0.04155125;0.01385042;-0.6759003;-0.7356905;5;16;-7;127;4026;-269;128;0.1218837;0.001385042;0.601108;0.7898175;-8;13;8;-699;4003;1048;4;0.6357009;-0.5401662;0.3961219;0.3836565;7;14;-6;65;4032;456;16;0.6357341;-0.7176574;-0.1592798;-0.2354571;0;8;-5;255;3968;590;2;0.432133;-0.4044321;-0.5595568;-0.5801654;-6;15;0;-227;4034;73;8;0.6800554;-0.7307994;-0.01523546;-0.0567867;-2;9;-6;226;4042;319;0.6305125;2.81974;0.03331415;0.6364987;3.365247;0.03050877;0.6417605;3.844737;0.0260201;0.6739452;4.575511;0.08429804;0.4299386;4.914718;0.07218477;0.08259292;4.78508;0.1239927;-0.25577;3.923187;0.09266696;-0.4624002;3.091493;-0.3115419;0.9497787;4.891827;0.07218403;1.232049;4.734461;0.1239918;1.331589;3.7774;0.1729867;1.185208;2.902293;-0.1595008;0.3182573;2.777622;0.02589344;0.1742221;1.329211;-0.1231681;0;0;0;0.3182573;2.777622;0.02589344;0.1742221;1.329211;-0.1231681;0;0;0
1314346.0341;NotLabelled;NONE;16384;0.6726028;-0.4972299;0.4653739;0.2894737;30;65;32;-495;3829;1158;65536;0.7476634;-0.4459834;0.333795;0.3614958;-61;37;83;-756;4621;-1924;8192;0.4792244;-0.4515235;-0.5698348;-0.4916897;3;25;0;162;4165;451;32768;-0.567867;0.4404432;0.3545706;0.5981776;6;23;-2;1503;3798;443;256;-0.04293629;0.0166205;-0.6759003;-0.7355536;5;15;-7;113;4058;-251;128;0.1218837;0;0.601108;0.7898186;-8;13;9;-711;3937;1016;4;0.6350367;-0.5429363;0.3947368;0.3822715;6;14;-5;163;3980;456;16;0.634349;-0.7185737;-0.1606648;-0.2354571;0;12;-4;225;3998;644;2;0.4307479;-0.4030471;-0.5609418;-0.5808215;-6;14;1;-245;4076;99;8;0.6800554;-0.7307693;-0.0166205;-0.0567867;-2;8;-6;188;4062;327;0.6272794;2.821063;0.0248235;0.6332656;3.366575;0.02352121;0.6385276;3.846075;0.02035378;0.6695449;4.576689;0.08121453;0.4250027;4.91555;0.07026006;0.07785527;4.78518;0.1215564;-0.2495007;3.919185;0.08663291;-0.4512121;3.07222;-0.2872123;0.9448786;4.893483;0.07025947;1.227389;4.736382;0.1215557;1.326806;3.779278;0.1699461;1.180086;2.904318;-0.1627769;0.3150245;2.778965;0.01727723;0.1734572;1.32938;-0.1224311;0;0;0;0.3150245;2.778965;0.01727723;0.1734572;1.32938;-0.1224311;0;0;0
1314366.6264;NotLabelled;NONE;16384;0.6732926;-0.5055401;0.4570637;0.2867036;36;70;24;-1065;3799;934;65536;0.7424029;-0.4570637;0.3379501;0.3545706;-51;21;75;-690;4479;-1996;8192;0.4778393;-0.4487534;-0.5719853;-0.4930748;2;26;0;66;4155;485;32768;-0.566482;0.4390582;0.3559557;0.5996846;6;21;-3;1475;3776;461;256;-0.04432133;0.01939058;-0.6745152;-0.7366742;4;19;-8;59;4004;-281;128;0.1232687;-0.002770083;0.599723;0.7906513;-7;12;9;-731;3993;960;4;0.6355425;-0.5443213;0.3933518;0.3808864;6;12;-6;141;4036;368;16;0.634349;-0.7179487;-0.1634349;-0.2354571;0;11;-4;255;4008;614;2;0.4307479;-0.4016621;-0.5623268;-0.5804415;-6;13;1;-229;4106;79;8;0.6800554;-0.7307364;-0.01800554;-0.0567867;-1;9;-6;188;4086;357;0.6211002;2.821773;0.01311491;0.6270865;3.367285;0.01176478;0.6323484;3.846786;0.008555278;0.6621099;4.577466;0.06923978;0.4169852;4.915903;0.05820633;0.07006303;4.784948;0.1095376;-0.2472132;3.915456;0.06892908;-0.4436936;3.054866;-0.2754218;0.9368981;4.89473;0.05820554;1.219679;4.738129;0.1095366;1.318525;3.780932;0.1572684;1.172968;2.905013;-0.1734375;0.3088453;2.779675;0.005572665;0.1711466;1.329146;-0.128085;0;0;0;0.3088453;2.779675;0.005572665;0.1711466;1.329146;-0.128085;0;0;0
1314387.4857;NotLabelled;NONE;16384;0.6722034;-0.5221606;0.4432133;0.2811634;44;40;12;-1369;3963;1150;65536;0.7297881;-0.4750692;0.3462604;0.3490305;-40;-10;61;-694;4201;-1420;8192;0.4736842;-0.4445983;-0.5750809;-0.4972299;2;24;0;172;4089;543;32768;-0.5623268;0.4362881;0.3614958;0.6022972;5;20;-4;1509;3738;369;256;-0.04570637;0.0235457;-0.6745152;-0.7364684;0;20;-8;53;3986;-263;128;0.1232687;-0.005540166;0.599723;0.7906367;-10;11;9;-691;3949;894;4;0.6353024;-0.5484765;0.3919668;0.3767313;8;13;-7;119;4008;286;16;0.632964;-0.7180796;-0.166205;-0.2368421;1;10;-4;153;4070;688;2;0.4293629;-0.400277;-0.5637119;-0.5810807;-5;12;0;-209;4088;119;8;0.6800554;-0.730701;-0.01939058;-0.0567867;-2;7;-6;218;4060;319;0.6145833;2.822677;0.01078561;0.6205697;3.368191;0.01093046;0.6258316;3.847698;0.009035036;0.654448;4.578207;0.0722858;0.4087988;4.916299;0.06240419;0.06207355;4.784625;0.1132263;-0.243745;3.910942;0.07472458;-0.4410283;3.0408;-0.2442242;0.928744;4.895934;0.06240351;1.211761;4.739594;0.1132256;1.312756;3.782578;0.1600964;1.166083;2.906716;-0.1702661;0.3023287;2.7806;0.00311872;0.1652821;1.329835;-0.1286366;0;0;0;0.3023287;2.7806;0.00311872;0.1652821;1.329835;-0.1286366;0;0;0
1314407.4839;NotLabelled;NONE;16384;0.6695096;-0.5290859;0.4390582;0.2811634;39;23;10;-1025;4021;1324;65536;0.7236415;-0.4833795;0.3504155;0.3462604;-42;0;57;-526;4093;-1114;8192;0.4709141;-0.4432133;-0.5760224;-0.5;1;23;0;48;4025;523;32768;-0.5609418;0.434903;0.3628809;0.6037558;4;19;-5;1521;3712;361;256;-0.04709141;0.02631579;-0.6745152;-0.7362874;0;17;-8;-9;4014;-335;128;0.1232687;-0.008310249;0.5983379;0.7916612;-12;10;8;-673;3981;960;4;0.6345773;-0.5512465;0.3905817;0.3753462;8;15;-9;107;4058;356;16;0.632964;-0.7177576;-0.16759;-0.2368421;2;11;-4;217;4026;734;2;0.4293629;-0.398892;-0.5650969;-0.5806877;-5;10;0;-237;4114;161;8;0.6786703;-0.7319496;-0.02077562;-0.0567867;-2;5;-5;172;4136;311;0.611185;2.823632;-0.004444681;0.6171712;3.369146;-0.004394241;0.6224332;3.848653;-0.006372668;0.6484305;4.579276;0.05668613;0.4015703;4.916484;0.0467184;0.05532003;4.783581;0.0975787;-0.2284362;3.902143;0.06794045;-0.4204828;3.016079;-0.2073906;0.9215853;4.897984;0.04671758;1.205162;4.742672;0.09757763;1.30512;3.785498;0.1434101;1.160158;2.907958;-0.183238;0.2989303;2.781554;-0.01210374;0.1626165;1.329757;-0.1327774;0;0;0;0.2989303;2.781554;-0.01210374;0.1626165;1.329757;-0.1327774;0;0;0
1314428.6237;NotLabelled;NONE;16384;0.6683411;-0.533241;0.434903;0.2825485;35;20;9;-671;3965;1216;65536;0.7179942;-0.4916897;0.3531856;0.3434903;-42;16;51;-994;4185;-1200;8192;0.4695291;-0.4404432;-0.5780703;-0.501385;1;21;2;-54;3977;519;32768;-0.5595568;0.434903;0.365651;0.6033697;3;16;-5;1523;3680;419;256;-0.04709141;0.03185596;-0.6745152;-0.7360685;3;8;-8;-199;3988;-273;128;0.1246537;-0.01246537;0.5969529;0.7924351;-6;9;8;-581;3993;948;4;0.6346484;-0.5540166;0.3891967;0.3725762;7;18;-9;37;4052;388;16;0.632964;-0.7174329;-0.1689751;-0.2368421;2;8;-4;345;4028;710;2;0.4279778;-0.3975069;-0.566482;-0.58131;-5;9;0;-139;4128;165;8;0.6786703;-0.7320557;-0.02077562;-0.05540166;-1;4;-6;162;4118;321;0.6037654;2.824811;-0.01109439;0.6097517;3.370322;-0.009222448;0.6150138;3.849832;-0.009599753;0.6397585;4.580516;0.05326654;0.3923202;4.917296;0.04321251;0.04629886;4.783813;0.09411114;-0.2260289;3.898564;0.07173178;-0.4163204;3.005731;-0.1821088;0.9123661;4.899688;0.04321149;1.196209;4.744877;0.09410968;1.293169;3.787366;0.1393605;1.147119;2.909861;-0.1868928;0.291511;2.782758;-0.01890519;0.1592689;1.330091;-0.1334828;0;0;0;0.291511;2.782758;-0.01890519;0.1592689;1.330091;-0.1334828;0;0;0
1314448.4875;NotLabelled;NONE;16384;0.6668079;-0.5373961;0.432133;0.2825485;33;25;6;-721;4015;990;65536;0.7132493;-0.501385;0.3531856;0.3393352;-40;29;43;-970;4255;-1334;8192;0.468144;-0.4390582;-0.5790435;-0.5027701;1;19;4;-92;4023;579;32768;-0.5581717;0.433518;0.367036;0.6048066;2;13;-7;1519;3668;371;256;-0.04709141;0.033241;-0.6745152;-0.7360073;2;9;-8;-121;4060;-253;128;0.1246537;-0.01523546;0.5955678;0.7934282;-8;9;8;-561;3955;938;4;0.6338831;-0.5567867;0.3878116;0.3711911;7;16;-9;-51;4008;292;16;0.6315789;-0.7183254;-0.1703601;-0.2368421;4;5;-4;207;4046;714;2;0.4279778;-0.3961219;-0.5692521;-0.5795468;-4;8;0;-113;4070;181;8;0.6786703;-0.7321186;-0.02216066;-0.05401662;0;2;-4;150;4052;483;0.5993727;2.825703;-0.0187211;0.605359;3.371207;-0.01541213;0.610621;3.850717;-0.01452628;0.6298867;4.581566;0.04832552;0.3799303;4.916482;0.03826486;0.03491947;4.78041;0.08916622;-0.2278512;3.892215;0.0693832;-0.4152705;2.993286;-0.1642761;0.9000936;4.902774;0.03826411;1.185089;4.750096;0.08916533;1.284188;3.792749;0.1332361;1.138188;2.913484;-0.188266;0.2871186;2.783672;-0.02665184;0.1556215;1.330421;-0.1344965;0;0;0;0.2871186;2.783672;-0.02665184;0.1556215;1.330421;-0.1344965;0;0;0
1314468.4807;NotLabelled;NONE;16384;0.6649974;-0.5429363;0.4279778;0.2825485;32;29;3;-719;3943;946;65536;0.7109932;-0.5083103;0.3518005;0.33518;-40;29;33;-910;4157;-1312;8192;0.466759;-0.4376731;-0.5800051;-0.5041551;2;15;4;-176;4037;603;32768;-0.5567867;0.433518;0.368421;0.6052409;2;11;-10;1541;3738;321;256;-0.04709141;0.03601108;-0.6745152;-0.7358769;1;9;-8;-81;4060;-313;128;0.1246537;-0.01800554;0.5955678;0.7933701;-6;8;8;-569;3983;976;4;0.6330594;-0.5595568;0.3878116;0.368421;7;15;-9;-65;4038;378;16;0.6315789;-0.7179955;-0.1717452;-0.2368421;5;6;-4;91;4010;678;2;0.4265928;-0.3947368;-0.5692521;-0.5815096;-4;6;0;-161;4102;103;8;0.6786703;-0.7320754;-0.0235457;-0.05401662;0;1;-5;106;4114;423;0.5928019;2.826218;-0.02905598;0.598788;3.371708;-0.02393211;0.6040499;3.851213;-0.02145091;0.6219453;4.582098;0.0413982;0.3713613;4.916543;0.03133629;0.02660635;4.779825;0.0822382;-0.2289878;3.889467;0.06599544;-0.4093287;2.984636;-0.1497734;0.8915496;4.90381;0.03133558;1.176831;4.751667;0.0822373;1.275499;3.79426;0.1259646;1.129705;2.915018;-0.1956948;0.2805481;2.784213;-0.0371379;0.1536672;1.330147;-0.1393692;0;0;0;0.2805481;2.784213;-0.0371379;0.1536672;1.330147;-0.1393692;0;0;0
1314488.6183;NotLabelled;NONE;16384;0.6605574;-0.5540166;0.4224377;0.2797784;30;24;-4;-905;4081;982;65536;0.7062504;-0.5221606;0.3462604;0.3296399;-38;15;9;-786;4109;-1082;8192;0.4639889;-0.4362881;-0.582062;-0.5055401;1;6;2;-98;4095;545;32768;-0.5540166;0.433518;0.3725762;0.6052395;1;5;-16;1513;3776;315;256;-0.04709141;0.03739612;-0.6745152;-0.7358078;1;6;-7;-51;4058;-299;128;0.1246537;-0.01939058;0.5955678;0.7933375;-5;6;7;-545;3979;1036;4;0.6326245;-0.5637119;0.3864266;0.3642659;6;9;-8;-193;4054;350;16;0.632964;-0.7161053;-0.1745152;-0.2368421;7;5;-3;165;4056;548;2;0.4265928;-0.3933518;-0.5706371;-0.5810906;-4;5;1;-151;4126;151;8;0.6772853;-0.7334576;-0.0235457;-0.05263158;0;4;-4;132;4090;421;0.5896329;2.827187;-0.03896777;0.595619;3.372678;-0.03393478;0.6008809;3.852183;-0.03153344;0.6160352;4.58313;0.03131026;0.3641989;4.916634;0.02124634;0.01995905;4.778624;0.07214985;-0.2258207;3.885427;0.06113397;-0.4019126;2.977071;-0.1430185;0.8844311;4.905851;0.02124478;1.170281;4.75478;0.07214719;1.26877;3.797304;0.1147624;1.122027;2.91731;-0.2043982;0.277379;2.785181;-0.04704207;0.1505479;1.330468;-0.1396972;0;0;0;0.277379;2.785181;-0.04704207;0.1505479;1.330468;-0.1396972;0;0;0
1314509.4995;NotLabelled;NONE;16384;0.6594092;-0.5581717;0.4196676;0.2783934;26;13;-6;-915;4143;940;65536;0.7051902;-0.5263157;0.3421052;0.3296399;-36;9;1;-860;4123;-1058;8192;0.4639889;-0.434903;-0.5830976;-0.5055401;0;4;0;-74;4089;581;32768;-0.5526316;0.434903;0.3739612;0.6046575;0;4;-18;1495;3800;305;256;-0.04709141;0.0401662;-0.6745152;-0.7356618;0;4;-7;-33;4094;-277;128;0.1246537;-0.02077562;0.5941828;0.7943404;-8;5;7;-535;4019;1006;4;0.6309438;-0.566482;0.3864266;0.3628809;6;6;-9;-203;4020;366;16;0.632964;-0.7157664;-0.1759003;-0.2368421;8;6;-3;131;4064;654;2;0.4265928;-0.3933518;-0.5720221;-0.5797272;-4;5;1;-123;4094;129;8;0.6772853;-0.7334118;-0.02493075;-0.05263158;0;2;-4;170;4062;367;0.5816497;2.829199;-0.0444412;0.5876358;3.374691;-0.03945262;0.5928978;3.854195;-0.03709033;0.6066813;4.585169;0.02575114;0.3542199;4.9182;0.01568582;0.01023928;4.779544;0.06658933;-0.2207188;3.882334;0.06735008;-0.3810959;2.967166;-0.1185093;0.8744715;4.908394;0.01568501;1.160604;4.757859;0.06658822;1.2582;3.800417;0.1119202;1.11391;2.917934;-0.2014352;0.2693957;2.787192;-0.05251187;0.1443013;1.331691;-0.1345432;0;0;0;0.2693957;2.787192;-0.05251187;0.1443013;1.331691;-0.1345432;0;0;0
1314529.4891;NotLabelled;NONE;16384;0.6558695;-0.5623268;0.4196676;0.2783934;23;1;-5;-635;4099;998;65536;0.7034293;-0.5304709;0.3379501;0.3310249;-35;11;-3;-926;4169;-1006;8192;0.4639889;-0.433518;-0.5829265;-0.5069252;0;3;0;-46;4085;563;32768;-0.5512465;0.4362881;0.3767313;0.6032027;1;4;-18;1521;3882;293;256;-0.04570637;0.04293629;-0.6745152;-0.7355927;1;3;-7;-197;3988;-321;128;0.1232687;-0.0235457;0.5927978;0.7955132;-5;0;6;-505;4001;1096;4;0.6304937;-0.567867;0.3864266;0.3614958;6;6;-8;-173;4088;292;16;0.632964;-0.7154246;-0.1772853;-0.2368421;8;8;-3;149;4074;604;2;0.4265928;-0.3933518;-0.5720221;-0.5797272;-4;3;1;-165;4052;207;8;0.6772853;-0.73351;-0.02493075;-0.05124654;0;1;-4;132;4090;369;0.5752137;2.830253;-0.05385035;0.5811995;3.375724;-0.04700452;0.5864613;3.855218;-0.04300964;0.5975028;4.586239;0.01982778;0.3437939;4.918321;0.009760641;0.0003358894;4.778376;0.06066489;-0.2251318;3.879785;0.06597145;-0.3771423;2.96271;-0.1175011;0.8640786;4.910466;0.009759858;1.150774;4.761005;0.06066388;1.250812;3.803783;0.1053071;1.10513;2.919812;-0.2031707;0.2629601;2.788273;-0.06207556;0.1411931;1.331997;-0.1348161;0;0;0;0.2629601;2.788273;-0.06207556;0.1411931;1.331997;-0.1348161;0;0;0
1314551.4832;NotLabelled;NONE;16384;0.6540887;-0.5637119;0.4196676;0.2797784;22;1;-3;-369;4001;810;65536;0.7016121;-0.534626;0.333795;0.33241;-35;15;-7;-872;4105;-814;8192;0.4639889;-0.433518;-0.5829265;-0.5069252;0;2;0;-14;4081;607;32768;-0.5498615;0.4376731;0.3781163;0.6025966;0;3;-18;1477;3786;271;256;-0.04432133;0.04293629;-0.6745152;-0.7356775;0;0;-6;-263;4040;-279;128;0.1232687;-0.02493075;0.5927978;0.795471;-6;-2;6;-557;4045;966;4;0.6304222;-0.5706371;0.3850415;0.3587258;5;4;-9;-207;4110;314;16;0.634349;-0.7138516;-0.1786704;-0.2368421;9;7;-2;341;4042;640;2;0.4265928;-0.3919668;-0.5734072;-0.5792969;-3;0;0;-147;4112;207;8;0.6772853;-0.73351;-0.02493075;-0.05124654;0;0;-4;114;4086;369;0.5722626;2.830764;-0.0585324;0.5782481;3.376204;-0.04953986;0.5835096;3.855678;-0.04365791;0.5903243;4.586735;0.01936375;0.3346998;4.917347;0.009379186;-0.00794353;4.775406;0.06024668;-0.2274636;3.875433;0.07399586;-0.3689242;2.956285;-0.1075284;0.8550213;4.9125;0.009378672;1.142576;4.764687;0.06024629;1.24241;3.807312;0.1019747;1.098341;2.9209;-0.2001925;0.2600093;2.788817;-0.06693626;0.1383366;1.332298;-0.1348057;0;0;0;0.2600093;2.788817;-0.06693626;0.1383366;1.332298;-0.1348057;0;0;0
1314572.5379;NotLabelled;NONE;16384;0.652581;-0.566482;0.4182825;0.2797784;22;9;0;-253;3995;700;65536;0.7010472;-0.5387812;0.3282548;0.33241;-33;20;-11;-1076;4177;-894;8192;0.4639889;-0.433518;-0.5829265;-0.5069252;0;0;1;-22;4109;611;32768;-0.5498615;0.4376731;0.3808864;0.6008495;0;1;-17;1529;3840;283;256;-0.04293629;0.04432133;-0.6745152;-0.7356775;0;-3;-6;-163;4164;-291;128;0.1218837;-0.02493075;0.5927978;0.7956844;-4;-4;5;-555;4013;986;4;0.6291048;-0.5720221;0.3864266;0.3573407;4;3;-8;-193;4202;342;16;0.634349;-0.7135035;-0.1800554;-0.2368421;9;0;-3;245;4054;570;2;0.4265928;-0.3919668;-0.5734072;-0.5792969;-3;0;0;-201;4048;185;8;0.6772853;-0.7336054;-0.02493075;-0.04986149;0;0;-3;90;4078;371;0.567286;2.832034;-0.05880228;0.5732715;3.377475;-0.04985324;0.5785332;3.85695;-0.04400951;0.5838636;4.588004;0.01919414;0.3275684;4.918098;0.009291492;-0.01478613;4.77545;0.06012317;-0.2304557;3.874579;0.07589242;-0.3605776;2.953463;-0.1041386;0.8478986;4.914309;0.009290576;1.135753;4.767066;0.06012183;1.235509;3.809691;0.1020363;1.091911;2.921833;-0.1960814;0.2550327;2.790087;-0.06720249;0.1351715;1.333163;-0.1293601;0;0;0;0.2550327;2.790087;-0.06720249;0.1351715;1.333163;-0.1293601;0;0;0
1314593.4981;NotLabelled;NONE;16384;0.6506777;-0.5720221;0.4127424;0.2811634;19;12;3;-453;3985;690;65536;0.7001327;-0.5457063;0.3171745;0.333795;-28;14;-20;-856;4115;-1062;8192;0.4653739;-0.433518;-0.5818214;-0.5069252;0;-1;1;-48;4131;617;32768;-0.5484765;0.4390582;0.3822715;0.600225;0;0;-17;1567;3896;285;256;-0.04155125;0.04432133;-0.6745152;-0.735757;1;-2;-7;-137;4116;-287;128;0.1204986;-0.02631579;0.5927978;0.7958508;-2;-6;5;-571;4019;1034;4;0.6278426;-0.5734072;0.3864266;0.3573407;4;0;-7;-165;4048;312;16;0.6357341;-0.7122697;-0.1800554;-0.2368421;9;0;-2;133;4018;576;2;0.4279778;-0.3919668;-0.5747922;-0.5768977;-3;-1;0;-201;4098;169;8;0.6772853;-0.733557;-0.02631579;-0.04986149;0;0;-3;82;4100;369;0.5656669;2.832555;-0.0664351;0.5716522;3.37799;-0.05715202;0.5769138;3.857462;-0.05101467;0.5793881;4.588516;0.01236497;0.3218055;4.91761;0.002541021;-0.01998919;4.773612;0.05333731;-0.2309565;3.871689;0.07223849;-0.3506674;2.949115;-0.107553;0.8421465;4.915851;0.002540737;1.130574;4.769722;0.05333737;1.230336;3.812348;0.09523639;1.091482;2.922586;-0.1994374;0.2534137;2.790613;-0.07486319;0.1325819;1.333451;-0.1290641;0;0;0;0.2534137;2.790613;-0.07486319;0.1325819;1.333451;-0.1290641;0;0;0
1314615.5;NotLabelled;NONE;16384;0.6491119;-0.5747922;0.4113573;0.2811634;18;9;5;-569;4007;712;65536;0.7002136;-0.5470914;0.3116343;0.3365651;-25;2;-24;-772;4073;-1040;8192;0.4653739;-0.433518;-0.5830252;-0.5055401;-2;-7;0;80;4177;645;32768;-0.5484765;0.4418283;0.3836565;0.5973015;0;-5;-15;1567;3904;201;256;-0.0401662;0.04570637;-0.6745152;-0.7357492;4;-4;-7;-165;4060;-311;128;0.1191136;-0.02631579;0.5927978;0.7960592;0;-7;5;-521;4009;1050;4;0.6281465;-0.5747922;0.3864266;0.3545706;3;-3;-6;-63;4110;274;16;0.6385041;-0.7107059;-0.1800554;-0.234072;8;-4;-3;145;4032;510;2;0.4279778;-0.3919668;-0.5747922;-0.5768977;-3;-2;0;-219;4086;161;8;0.6772853;-0.7336498;-0.02631579;-0.04847645;1;0;-2;86;4084;301;0.5615163;2.833531;-0.06531617;0.5675017;3.378962;-0.05574524;0.5727633;3.858429;-0.04935485;0.5737527;4.589472;0.01419646;0.3155021;4.918044;0.004449867;-0.02599934;4.773341;0.05521239;-0.2242179;3.868556;0.07533854;-0.3226003;2.943877;-0.1065566;0.8358456;4.917343;0.00444904;1.124569;4.771788;0.05521134;1.224515;3.814333;0.09477451;1.086122;2.923157;-0.1958116;0.2492632;2.791594;-0.07376808;0.1319506;1.334;-0.1239365;0;0;0;0.2492632;2.791594;-0.07376808;0.1319506;1.334;-0.1239365;0;0;0
1314636.6423;NotLabelled;NONE;16384;0.6481581;-0.5761772;0.4099723;0.2825485;16;0;7;-481;3989;624;65536;0.7002368;-0.5484765;0.3060942;0.3393352;-23;-6;-27;-788;4069;-1000;8192;0.466759;-0.433518;-0.5831174;-0.5041551;-2;-7;-2;128;4135;603;32768;-0.5484765;0.4432133;0.3850415;0.595381;0;-7;-12;1573;3910;275;256;-0.03878116;0.04570637;-0.6745152;-0.7358235;3;-5;-7;-133;4048;-213;128;0.1177285;-0.02631579;0.5927978;0.7962652;-3;-7;4;-541;3943;1044;4;0.6268764;-0.5761772;0.3864266;0.3545706;4;-4;-5;-55;4128;302;16;0.6385041;-0.7103536;-0.1814404;-0.234072;9;-2;-3;133;4094;410;2;0.4279778;-0.3919668;-0.5768977;-0.5747922;-2;-2;0;-139;4132;169;8;0.6772853;-0.7336498;-0.02631579;-0.04847645;0;0;-3;104;4128;339;0.5576102;2.834731;-0.06350872;0.5635956;3.380155;-0.05361084;0.5688571;3.85962;-0.04693303;0.5669904;4.590645;0.01678421;0.307458;4.918208;0.007112004;-0.03347546;4.77216;0.05784143;-0.2269582;3.86643;0.08122324;-0.3148565;2.941697;-0.1057023;0.8278003;4.91954;0.007111371;1.11709;4.775104;0.05784082;1.219592;3.81802;0.09980023;1.082687;2.924516;-0.1842658;0.2453572;2.792798;-0.0719879;0.1250729;1.335281;-0.1170846;0;0;0;0.2453572;2.792798;-0.0719879;0.1250729;1.335281;-0.1170846;0;0;0
1314657.4843;NotLabelled;NONE;16384;0.6471939;-0.5775623;0.4085872;0.2839335;12;-4;8;-375;4073;718;65536;0.7000149;-0.5484765;0.301939;0.3434903;-21;-10;-32;-926;4139;-946;8192;0.468144;-0.433518;-0.582006;-0.5041551;-3;-7;-2;142;4097;631;32768;-0.5484765;0.4445983;0.3850415;0.5943475;1;-7;-9;1509;3886;247;256;-0.03601108;0.04709141;-0.6731302;-0.7371441;3;-7;-6;-187;4038;-303;128;0.1135734;-0.02631579;0.5927978;0.7968685;-2;-9;4;-573;3967;1060;4;0.6268764;-0.5761772;0.3864266;0.3545706;4;-4;-4;-1;4046;316;16;0.6398892;-0.7095618;-0.1814404;-0.232687;9;-3;-2;183;4024;424;2;0.4293629;-0.3919668;-0.5772467;-0.5734072;-2;-4;0;-135;4152;155;8;0.6786703;-0.7324592;-0.02631579;-0.04709141;0;0;-2;74;4106;309;0.5517493;2.835397;-0.06699818;0.5577347;3.380816;-0.05677743;0.5629961;3.860276;-0.04981579;0.5596437;4.591283;0.01406248;0.2994459;4.918319;0.004462704;-0.04118992;4.771568;0.05516032;-0.2300569;3.864861;0.07847036;-0.3070155;2.940194;-0.1135309;0.8197843;4.920708;0.00446181;1.109367;4.776849;0.05515915;1.214595;3.820065;0.09719211;1.080216;2.924954;-0.182998;0.2394964;2.79347;-0.07550418;0.1227075;1.335548;-0.1165385;0;0;0;0.2394964;2.79347;-0.07550418;0.1227075;1.335548;-0.1165385;0;0;0
1314678.8095;NotLabelled;NONE;16384;0.6468456;-0.5775623;0.4072022;0.2867036;10;-4;9;-387;4089;688;65536;0.7001382;-0.5470914;0.2977839;0.3490305;-19;-7;-35;-1084;4141;-894;8192;0.4695291;-0.433518;-0.5820884;-0.5027701;-4;-6;-2;204;4085;579;32768;-0.5498615;0.4445983;0.3850415;0.5930663;1;-7;-6;1575;3928;199;256;-0.033241;0.04709141;-0.6731302;-0.7372742;2;-6;-7;-135;4062;-247;128;0.1121884;-0.02631579;0.5927978;0.7970647;-1;-11;3;-579;3971;1014;4;0.6256005;-0.5775623;0.3864266;0.3545706;3;-4;-3;81;4106;278;16;0.6412742;-0.7087638;-0.1814404;-0.2313019;8;-3;-2;173;4026;348;2;0.4307479;-0.3933518;-0.5766466;-0.5720221;-2;-6;-1;-141;4080;133;8;0.6786703;-0.7325954;-0.02493075;-0.04570637;0;-1;-3;56;4064;295;0.5484349;2.835991;-0.06306935;0.55442;3.381391;-0.05190323;0.5596813;3.860838;-0.04411054;0.5521531;4.59154;0.02281427;0.2900884;4.917121;0.01459228;-0.04969845;4.768213;0.06469692;-0.2339728;3.860596;0.08928346;-0.3012905;2.936454;-0.1087731;0.8104048;4.922486;0.01457219;1.10081;4.780076;0.06465325;1.206159;3.823282;0.1061536;1.071829;2.927486;-0.1718616;0.236182;2.794078;-0.07165393;0.1194608;1.336156;-0.1128803;0;0;0;0.236182;2.794078;-0.07165393;0.1194608;1.336156;-0.1128803;0;0;0
1314699.4876;NotLabelled;NONE;16384;0.6473495;-0.5775623;0.4044321;0.2894737;6;0;9;-331;4083;658;65536;0.7018403;-0.5470914;0.2853186;0.3559557;-17;6;-42;-1094;4205;-674;8192;0.4695291;-0.433518;-0.5832818;-0.501385;-5;-7;-3;178;4105;609;32768;-0.5498615;0.4445983;0.3850415;0.5930663;2;-7;-2;1513;3996;233;256;-0.03185596;0.04709141;-0.6731302;-0.7373353;0;-7;-6;-143;4090;-289;128;0.1108033;-0.02631579;0.5927978;0.7972584;-1;-10;3;-549;4069;960;4;0.6256005;-0.5775623;0.3864266;0.3545706;3;-4;0;89;4142;338;16;0.6426592;-0.7075083;-0.1814404;-0.2313019;6;-2;-3;139;4072;300;2;0.432133;-0.3933518;-0.5756094;-0.5720221;-2;-5;-2;-133;4104;95;8;0.6786703;-0.7326804;-0.02493075;-0.04432133;0;0;-3;136;4096;321;0.5418615;2.836962;-0.06300534;0.5478464;3.382356;-0.05153149;0.5531076;3.861799;-0.0434683;0.5425993;4.592439;0.02374117;0.2792102;4.916951;0.01563748;-0.05996854;4.76664;0.06567293;-0.2396717;3.857994;0.08564835;-0.2968915;2.93514;-0.1213837;0.7995003;4.924438;0.01563667;1.090482;4.783192;0.06567168;1.198539;3.826634;0.1056173;1.067335;2.930606;-0.1731412;0.2296086;2.795054;-0.07161541;0.1164393;1.336748;-0.108965;0;0;0;0.2296086;2.795054;-0.07161541;0.1164393;1.336748;-0.108965;0;0;0
1314720.4799;NotLabelled;NONE;16384;0.6463546;-0.5789474;0.4030471;0.2908587;4;1;8;-347;4113;650;65536;0.7025015;-0.5470914;0.2783934;0.3601108;-16;11;-45;-1090;4221;-584;8192;0.4722992;-0.432133;-0.5820719;-0.501385;-5;-4;-2;192;4099;605;32768;-0.5526316;0.4445983;0.3836565;0.5913869;3;-7;4;1485;3894;255;256;-0.03047091;0.04709141;-0.6745152;-0.7361271;0;-7;-6;-135;4110;-285;128;0.1094183;-0.02493075;0.5927978;0.7974942;-1;-9;3;-561;4021;1054;4;0.625174;-0.5789474;0.3850415;0.3545706;1;-4;2;137;4142;302;16;0.6440443;-0.7063427;-0.1828255;-0.2299169;3;0;-2;277;4040;310;2;0.432133;-0.3933518;-0.5756094;-0.5720221;-2;-4;-2;-103;4128;161;8;0.6786703;-0.7326804;-0.02493075;-0.04432133;0;0;-2;130;4072;325;0.5410827;2.837428;-0.05763308;0.5470676;3.382815;-0.04585581;0.5523288;3.862253;-0.03752589;0.5403323;4.592858;0.02981821;0.2762821;4.916835;0.02177887;-0.06258874;4.765823;0.07179245;-0.2369545;3.856043;0.08681837;-0.2726844;2.935924;-0.1365679;0.7965558;4.925382;0.02177027;1.087825;4.78472;0.07177427;1.198254;3.828579;0.1150672;1.067567;2.93255;-0.1639339;0.2288299;2.795525;-0.0662685;0.1157299;1.337219;-0.1038278;0;0;0;0.2288299;2.795525;-0.0662685;0.1157299;1.337219;-0.1038278;0;0;0
1314740.5327;NotLabelled;NONE;16384;0.6472161;-0.5789474;0.4016621;0.2908587;2;2;7;-391;4187;632;65536;0.7043178;-0.5470914;0.2700831;0.3628809;-15;12;-49;-1092;4255;-558;8192;0.4736842;-0.432133;-0.5821378;-0.5;-6;-5;-3;178;4129;607;32768;-0.5540166;0.4432133;0.3836565;0.5911305;3;-7;6;1449;4002;245;256;-0.02908587;0.04709141;-0.6745152;-0.7361832;0;-7;-5;-119;4092;-313;128;0.1080332;-0.02493075;0.5927978;0.7976829;0;-8;3;-541;3997;1124;4;0.626025;-0.5789474;0.3836565;0.3545706;1;-3;2;95;4072;304;16;0.6440443;-0.7063427;-0.1828255;-0.2299169;2;-2;-2;187;4068;384;2;0.433518;-0.3933518;-0.5759425;-0.5706371;-2;-4;-2;-115;4110;165;8;0.6772853;-0.7339609;-0.02493075;-0.04432133;-1;0;-2;20;4066;313;0.530552;2.838597;-0.05445466;0.5365369;3.383976;-0.04233949;0.541798;3.86341;-0.03371251;0.5281544;4.594222;0.03102095;0.2633775;4.917572;0.02180509;-0.07515717;4.76598;0.0723327;-0.2448196;3.855309;0.08721616;-0.267849;2.936983;-0.1450453;0.7836308;4.927289;0.02180444;1.075212;4.787462;0.07233199;1.188416;3.831398;0.109746;1.060015;2.935812;-0.1717296;0.2182993;2.796699;-0.06311814;0.1098697;1.338017;-0.09983487;0;0;0;0.2182993;2.796699;-0.06311814;0.1098697;1.338017;-0.09983487;0;0;0
1314762.2735;NotLabelled;NONE;16384;0.646592;-0.5789474;0.4016621;0.2922437;0;0;6;-399;4211;690;65536;0.7070919;-0.5457063;0.2617728;0.365651;-14;12;-51;-1034;4181;-562;8192;0.4736842;-0.432133;-0.5833246;-0.4986149;-7;-5;-3;208;4093;601;32768;-0.5567867;0.4432133;0.3822715;0.5894226;3;-7;9;1435;3948;199;256;-0.02631579;0.04709141;-0.6745152;-0.7362874;-1;-4;-5;-179;4106;-357;128;0.1066482;-0.02631579;0.5927978;0.7978249;2;-1;3;-581;3947;1138;4;0.626025;-0.5789474;0.3836565;0.3545706;1;-4;3;47;4092;306;16;0.6440443;-0.7067921;-0.1828255;-0.2285319;1;-1;-3;83;4038;350;2;0.433518;-0.3933518;-0.5759425;-0.5706371;-1;-4;-2;-125;4106;265;8;0.6772853;-0.733995;-0.02631579;-0.04293629;0;3;-3;10;4138;349;0.5294388;2.838597;-0.05075331;0.5354236;3.38397;-0.03834272;0.5406846;3.863398;-0.02945606;0.5255533;4.59417;0.03540112;0.2601185;4.916983;0.02624095;-0.07810654;4.764692;0.0767442;-0.2470098;3.853842;0.08915125;-0.2576148;2.937887;-0.1531516;0.7803509;4.927757;0.02623996;1.072216;4.788517;0.0767428;1.18812;3.832778;0.1142232;1.062752;2.937667;-0.1701098;0.2171862;2.796704;-0.05944133;0.1100562;1.338017;-0.09962936;0;0;0;0.2171862;2.796704;-0.05944133;0.1100562;1.338017;-0.09962936;0;0;0
1314782.5302;NotLabelled;NONE;16384;0.6486861;-0.5775623;0.400277;0.2922437;0;-2;5;-363;4133;650;65536;0.7074608;-0.5457063;0.2548476;0.3698061;-14;9;-52;-1032;4121;-516;8192;0.4750692;-0.432133;-0.5833805;-0.4972299;-7;-5;-2;234;4085;583;32768;-0.5581717;0.4418283;0.3808864;0.5900488;4;-7;12;1417;3922;223;256;-0.02493075;0.04709141;-0.6745152;-0.7363356;-2;-4;-4;-135;4064;-375;128;0.1052632;-0.02631579;0.5941828;0.7969781;0;-1;4;-627;4003;1102;4;0.6268717;-0.5789474;0.3822715;0.3545706;0;-4;3;47;4012;250;16;0.6440443;-0.7067921;-0.1828255;-0.2285319;1;0;-2;75;4094;316;2;0.4362881;-0.3933518;-0.573847;-0.5706371;3;-13;-7;-211;4238;185;8;0.6772853;-0.733995;-0.02631579;-0.04293629;-2;-3;-3;340;4040;251;0.5271348;2.83869;-0.05137598;0.5331196;3.384057;-0.03871055;0.5383806;3.863482;-0.02959985;0.5202737;4.594165;0.03548898;0.2535256;4.915896;0.02643707;-0.08407497;4.762214;0.07689978;-0.251126;3.851008;0.08827645;-0.2504449;2.938374;-0.1664658;0.7737099;4.928791;0.02642764;1.066141;4.790724;0.07687974;1.184258;3.83541;0.1180945;1.061714;2.94076;-0.1689108;0.2148822;2.796801;-0.06008513;0.1079025;1.338114;-0.1006718;0;0;0;0.2148822;2.796801;-0.06008513;0.1079025;1.338114;-0.1006718;0;0;0
1314803.5812;NotLabelled;NONE;16384;0.6480603;-0.5775623;0.400277;0.2936288;-2;-1;5;-233;4133;538;65536;0.7112523;-0.5429363;0.2396122;0.3767313;-12;4;-51;-1028;4087;-534;8192;0.4764543;-0.432133;-0.5822498;-0.4972299;-7;-4;-2;194;4037;647;32768;-0.5595568;0.4404432;0.3808864;0.5897725;5;-9;12;1319;3836;203;256;-0.02493075;0.04709141;-0.6745152;-0.7363356;0;-4;-4;-153;4136;-405;128;0.1052632;-0.02631579;0.5941828;0.7969781;0;-1;4;-643;3989;1176;4;0.6260863;-0.5789474;0.3822715;0.3559557;0;-3;3;37;4070;218;16;0.6440443;-0.7064323;-0.1842105;-0.2285319;1;2;-2;33;4106;426;2;0.4376731;-0.3947368;-0.5692521;-0.5732165;4;-20;-7;-139;4182;-169;8;0.6772853;-0.7340747;-0.02631579;-0.04155125;-3;-3;-3;42;3984;315;0.5259861;2.838712;-0.04785207;0.5319712;3.384115;-0.03678818;0.5372326;3.863563;-0.02908538;0.5176359;4.594199;0.03611074;0.2502329;4.915388;0.02710271;-0.08705445;4.76101;0.0775384;-0.2552422;3.849966;0.08388229;-0.2414524;2.93974;-0.1789822;0.7703897;4.929342;0.02710195;1.063101;4.791864;0.07753754;1.184062;3.836871;0.1179271;1.062171;2.943618;-0.1736696;0.2137333;2.796798;-0.05642821;0.1080922;1.338114;-0.1004681;0;0;0;0.2137333;2.796798;-0.05642821;0.1080922;1.338114;-0.1004681;0;0;0
1314824.4803;NotLabelled;NONE;16384;0.6495166;-0.5761772;0.398892;0.2950138;-1;0;6;-145;4059;524;65536;0.7123936;-0.5415512;0.232687;0.3808864;-10;5;-47;-992;4043;-406;8192;0.4792244;-0.4307479;-0.5833607;-0.4944598;-8;-3;-2;136;4051;569;32768;-0.5650969;0.4376731;0.3781163;0.588333;6;-10;15;1333;3854;203;256;-0.0235457;0.04709141;-0.6745152;-0.7363812;0;-1;-4;-135;4110;-361;128;0.1052632;-0.02631579;0.5941828;0.7969781;0;0;3;-619;3857;1316;4;0.6277692;-0.5789474;0.3795014;0.3559557;1;0;2;55;4016;264;16;0.6440443;-0.7060697;-0.1855956;-0.2285319;0;0;-2;161;4056;416;2;0.4404432;-0.3961219;-0.567867;-0.5715105;1;-6;-9;-155;4090;23;8;0.6772853;-0.7340747;-0.02631579;-0.04155125;-2;3;-3;-14;4112;433;0.520169;2.839159;-0.0472495;0.5261541;3.384562;-0.03618562;0.5314155;3.864011;-0.02848281;0.5118188;4.594646;0.03671332;0.2444158;4.915834;0.02770528;-0.09287155;4.761456;0.07814097;-0.2591231;3.850055;0.08426446;-0.2236326;2.947175;-0.2009454;0.7645727;4.92979;0.02770452;1.057284;4.792311;0.07814011;1.178497;3.837245;0.1159726;1.059133;2.944499;-0.1782138;0.2079162;2.797246;-0.05582564;0.1054831;1.338342;-0.1001978;0;0;0;0.2079162;2.797246;-0.05582564;0.1054831;1.338342;-0.1001978;0;0;0
1314845.5847;NotLabelled;NONE;16384;0.6495166;-0.5761772;0.398892;0.2950138;0;2;7;-83;4023;618;65536;0.7126951;-0.5415512;0.2271468;0.3836565;-10;4;-43;-996;3935;-414;8192;0.4792244;-0.4307479;-0.5833607;-0.4944598;-8;-4;-3;174;3979;559;32768;-0.566482;0.4362881;0.3767313;0.588918;7;-9;16;1385;3864;217;256;-0.0235457;0.04847645;-0.6745152;-0.7362913;1;0;-3;-77;4022;-265;128;0.1052632;-0.02770083;0.5927978;0.7979619;0;1;3;-589;3805;1168;4;0.6277692;-0.5789474;0.3795014;0.3559557;2;2;2;77;4042;298;16;0.6440443;-0.7065165;-0.1855956;-0.2271468;1;2;-2;105;4060;444;2;0.4404432;-0.3961219;-0.566482;-0.5728834;2;8;-4;45;4220;245;8;0.6759003;-0.7354271;-0.02631579;-0.0401662;-1;-2;-3;138;4118;479;0.5150962;2.839349;-0.04012734;0.5210813;3.384751;-0.0290634;0.5263426;3.8642;-0.02136055;0.5052568;4.594785;0.04393783;0.2371996;4.915429;0.03497563;-0.09977214;4.760357;0.0853909;-0.2652378;3.848792;0.08577508;-0.2180846;2.949719;-0.2095908;0.757327;4.930445;0.03497508;1.050318;4.793556;0.08539039;1.179136;3.839481;0.1231087;1.064748;2.949204;-0.1803883;0.2028434;2.797435;-0.0487034;0.1030587;1.338566;-0.09973488;0;0;0;0.2028434;2.797435;-0.0487034;0.1030587;1.338566;-0.09973488;0;0;0
1314866.4814;NotLabelled;NONE;16384;0.6497352;-0.5761772;0.3975069;0.2963989;0;5;9;-11;3985;648;65536;0.7139927;-0.5401662;0.2216066;0.3864266;-11;7;-39;-1052;3859;-398;8192;0.4806094;-0.4307479;-0.5833936;-0.4930748;-8;-3;-3;204;3955;557;32768;-0.5692521;0.434903;0.3753462;0.5881553;8;-8;16;1409;3796;113;256;-0.0235457;0.04847645;-0.6745152;-0.7362913;0;0;-2;-51;3954;-313;128;0.1052632;-0.02770083;0.5941828;0.7969311;0;2;2;-549;3861;1072;4;0.6281099;-0.5803324;0.3781163;0.3545706;2;4;1;125;4042;336;16;0.6440443;-0.7065165;-0.1855956;-0.2271468;2;2;-3;85;4038;446;2;0.4390582;-0.3947368;-0.567867;-0.573531;10;15;-2;-33;4270;337;8;0.6759003;-0.7354271;-0.02631579;-0.0401662;0;1;-3;-226;4178;535;0.5124731;2.839402;-0.04183553;0.5184577;3.384763;-0.02891809;0.5237187;3.864183;-0.01958588;0.5012641;4.594727;0.04571615;0.2326067;4.914868;0.03675546;-0.104074;4.759165;0.0871699;-0.2695366;3.8476;0.08820223;-0.213349;2.951024;-0.2131132;0.752705;4.930858;0.03675508;1.045952;4.794519;0.08716977;1.174917;3.840444;0.1243832;1.060029;2.951632;-0.1831901;0.2002205;2.797517;-0.0505657;0.1003316;1.338649;-0.1013925;0;0;0;0.2002205;2.797517;-0.0505657;0.1003316;1.338649;-0.1013925;0;0;0
1314887.4829;NotLabelled;NONE;16384;0.6514218;-0.5761772;0.3947368;0.2963989;0;9;10;-101;3981;672;65536;0.7141861;-0.5401662;0.2160665;0.3891967;-12;11;-35;-1064;3841;-322;8192;0.4819945;-0.4293629;-0.58444;-0.4916897;-8;-1;-4;218;3907;495;32768;-0.5706371;0.433518;0.3739612;0.5887176;3;-1;15;1113;3690;475;256;-0.02216066;0.04847645;-0.6745152;-0.7363343;1;3;-2;-227;3992;-349;128;0.1052632;-0.03047091;0.5941828;0.79683;-1;2;3;-549;3871;1142;4;0.6289416;-0.5803324;0.3767313;0.3545706;2;5;1;105;4066;320;16;0.6440443;-0.7061512;-0.1869806;-0.2271468;2;2;-1;113;4056;444;2;0.4376731;-0.3947368;-0.567867;-0.5745887;6;16;0;-91;4140;367;8;0.6759003;-0.7354505;-0.02770083;-0.03878116;0;9;-3;-102;4050;425;0.5110543;2.83958;-0.04348211;0.5170394;3.384982;-0.03245409;0.5223008;3.864431;-0.02478282;0.4998462;4.594975;0.04051921;0.2311888;4.915117;0.03155863;-0.1054918;4.759414;0.08197316;-0.2681966;3.847352;0.0806881;-0.2040693;2.954184;-0.2290426;0.7512871;4.931107;0.03155805;1.044534;4.794767;0.08197263;1.176239;3.841058;0.1189685;1.063555;2.953538;-0.1931168;0.1988015;2.797665;-0.05205519;0.1003318;1.338648;-0.1013927;0;0;0;0.1988015;2.797665;-0.05205519;0.1003318;1.338648;-0.1013927;0;0;0
1314908.6832;NotLabelled;NONE;16384;0.6522591;-0.5761772;0.3933518;0.2963989;-1;12;12;-123;3993;624;65536;0.7158387;-0.5401662;0.2105263;0.3891967;-11;15;-30;-1080;3897;-414;8192;0.4833795;-0.4279778;-0.584312;-0.4916897;-7;0;-7;156;3943;567;32768;-0.5706371;0.432133;0.3739612;0.589735;0;0;11;1081;3632;843;256;-0.02216066;0.04986149;-0.6745152;-0.7362418;5;3;-2;-99;4010;-383;128;0.1052632;-0.03047091;0.5927978;0.7978609;-2;3;3;-517;3897;1206;4;0.62849;-0.5817174;0.3753462;0.3545706;2;6;0;79;4072;244;16;0.6440443;-0.7061512;-0.1869806;-0.2271468;2;3;-2;157;4074;434;2;0.434903;-0.3919668;-0.5692521;-0.5772118;-4;14;-1;-167;3950;47;8;0.6759003;-0.7353227;-0.02908587;-0.0401662;1;1;-3;148;4046;371;0.5072293;2.83977;-0.03964142;0.5132143;3.385174;-0.02868308;0.5184757;3.864624;-0.02107307;0.4945322;4.595112;0.04432613;0.2252226;4.914706;0.03540924;-0.1111397;4.758309;0.08580464;-0.2721652;3.845969;0.07993659;-0.1977257;2.955524;-0.2352841;0.7452873;4.931756;0.03540851;1.038812;4.796008;0.08580369;1.175416;3.842981;0.1226183;1.063451;2.956962;-0.1939592;0.1949764;2.797854;-0.04820881;0.09790932;1.338863;-0.1009389;0;0;0;0.1949764;2.797854;-0.04820881;0.09790932;1.338863;-0.1009389;0;0;0
1314929.6073;NotLabelled;NONE;16384;0.6555682;-0.5761772;0.3878116;0.2963989;0;15;14;-101;4087;626;65536;0.7168229;-0.5415512;0.200831;0.3905817;-11;12;-22;-1048;3953;-338;8192;0.4847645;-0.4279778;-0.5831634;-0.4916897;-7;0;-9;46;3927;631;32768;-0.5706371;0.432133;0.3725762;0.590611;1;-8;5;1067;3670;871;256;-0.0235457;0.04986149;-0.6731302;-0.7374654;6;5;-1;-83;3928;-283;128;0.1052632;-0.03185596;0.5927978;0.7978068;-1;5;3;-523;3859;1164;4;0.628812;-0.5831025;0.3739612;0.3531856;1;7;0;71;4046;276;16;0.6440443;-0.705783;-0.1883656;-0.2271468;2;4;-2;163;4036;416;2;0.433518;-0.3905817;-0.5706371;-0.5778247;-4;13;-1;-245;3934;-3;8;0.6759003;-0.7352666;-0.03047091;-0.0401662;1;7;-2;-30;4154;393;0.5024999;2.840083;-0.04107458;0.5084845;3.385446;-0.02822785;0.5137456;3.864867;-0.0189578;0.4884335;4.595309;0.04644515;0.2185257;4.914398;0.03752999;-0.1175429;4.757372;0.08792456;-0.2777345;3.844897;0.08026563;-0.1976018;2.956846;-0.2402678;0.7385573;4.932422;0.03752926;1.032336;4.797224;0.08792374;1.171488;3.844451;0.1216124;1.059348;2.959208;-0.197068;0.1902474;2.798197;-0.04979885;0.0977024;1.338862;-0.1011399;0;0;0;0.1902474;2.798197;-0.04979885;0.0977024;1.338862;-0.1011399;0;0;0
1314949.5147;NotLabelled;NONE;16384;0.657199;-0.5761772;0.3850415;0.2963989;0;16;14;-107;4007;656;65536;0.7157892;-0.5429363;0.1980609;0.3919668;-14;11;-18;-1274;3825;-58;8192;0.4889196;-0.4265928;-0.5818741;-0.4903047;0;-15;-4;286;3995;481;32768;-0.5747922;0.433518;0.368421;0.5881684;8;-32;8;1437;4092;197;256;-0.0235457;0.05124654;-0.6731302;-0.7373704;5;8;-1;-187;3990;-269;128;0.1066482;-0.033241;0.5927978;0.7975663;-3;7;3;-507;3947;1198;4;0.6304085;-0.5831025;0.3725762;0.3518005;2;7;0;87;4086;238;16;0.6440443;-0.7054119;-0.1897507;-0.2271468;2;4;-2;99;4072;352;2;0.433518;-0.3891967;-0.5706371;-0.5787585;-2;11;-1;-373;3982;-59;8;0.6759003;-0.7352666;-0.03047091;-0.0401662;1;8;-3;52;4094;379;0.4983521;2.840436;-0.04270698;0.5043368;3.3858;-0.02989478;0.5095977;3.865222;-0.02065508;0.485927;4.595476;0.04739112;0.2167324;4.915198;0.03966258;-0.1196809;4.758743;0.08953036;-0.2764713;3.845778;0.07399803;-0.182318;2.961462;-0.2529845;0.7368032;4.93206;0.03966334;1.030284;4.796024;0.08953273;1.169775;3.843191;0.1200115;1.054613;2.958878;-0.2001678;0.1860996;2.798549;-0.05142843;0.09489495;1.339071;-0.1010507;0;0;0;0.1860996;2.798549;-0.05142843;0.09489495;1.339071;-0.1010507;0;0;0
1314971.4944;NotLabelled;NONE;16384;0.6588141;-0.5761772;0.3822715;0.2963989;1;15;15;-165;4067;622;65536;0.7158749;-0.5443213;0.1939058;0.3919668;-15;16;-16;-1316;3825;-204;8192;0.4889196;-0.4279778;-0.5820224;-0.4889196;1;-10;-3;424;4043;515;32768;-0.5803324;0.434903;0.367036;0.5825446;15;-34;9;853;3946;-97;256;-0.02493075;0.05263158;-0.6731302;-0.7372274;1;8;-1;-221;4036;-311;128;0.1066482;-0.03462604;0.5914127;0.798535;-2;7;4;-525;3977;1184;4;0.6299428;-0.5844875;0.3711911;0.3518005;2;7;0;73;4138;192;16;0.6440443;-0.7054119;-0.1897507;-0.2271468;1;4;-2;53;4066;382;2;0.433518;-0.3878116;-0.5720221;-0.5783208;-3;6;-2;-427;3978;31;8;0.6759003;-0.7352079;-0.03185596;-0.0401662;1;6;-2;42;4084;407;0.4975038;2.840428;-0.03999297;0.5034885;3.385799;-0.02750622;0.5087497;3.865226;-0.0185526;0.4837134;4.595436;0.04949787;0.2139214;4.914653;0.04177185;-0.1221985;4.757569;0.09163955;-0.2772298;3.844382;0.07200732;-0.1771044;2.960779;-0.2551282;0.7339597;4.932487;0.04177137;1.027695;4.797;0.09163931;1.172513;3.844798;0.1164013;1.055182;2.961928;-0.2069605;0.1852512;2.798536;-0.04868734;0.09207354;1.339274;-0.1009634;0;0;0;0.1852512;2.798536;-0.04868734;0.09207354;1.339274;-0.1009634;0;0;0
1314992.5509;NotLabelled;NONE;16384;0.6604137;-0.5761772;0.3795014;0.2963989;0;17;15;-91;4009;618;65536;0.7159339;-0.5457063;0.1897507;0.3919668;-11;18;-13;-1158;3991;-470;8192;0.4889196;-0.4293629;-0.5810015;-0.4889196;0;0;-3;382;4093;647;32768;0.5858169;-0.433518;-0.365651;-0.5789474;11;-25;12;1385;3934;-157;256;-0.02493075;0.05540166;-0.6717451;-0.7382869;2;8;-2;-55;4032;-415;128;0.1080332;-0.03601108;0.5914127;0.7982876;-7;4;3;-599;3909;1206;4;0.6302426;-0.5858725;0.3698061;0.3504155;2;7;1;63;4102;212;16;0.6440443;-0.7050379;-0.1911357;-0.2271468;1;6;-2;-5;4040;322;2;0.433518;-0.3864266;-0.5720221;-0.5792472;-3;1;-2;-427;4022;167;8;0.6759003;-0.7352079;-0.03185596;-0.0401662;1;4;-2;-22;4092;303;0.4926535;2.84073;-0.04180021;0.4986377;3.386056;-0.02746288;0.5038986;3.86545;-0.01688244;0.4789972;4.595673;0.05107287;0.2092585;4.914936;0.04334382;-0.1268808;4.757915;0.09328287;-0.2802969;3.844451;0.07385099;-0.1749385;2.961968;-0.2546592;0.7292999;4.93268;0.04326345;1.02302;4.79715;0.09310591;1.168326;3.845154;0.1225226;1.055122;2.961666;-0.2006172;0.1804011;2.798868;-0.05064827;0.09166173;1.339274;-0.1013374;0;0;0;0.1804011;2.798868;-0.05064827;0.09166173;1.339274;-0.1013374;0;0;0
1315012.5641;NotLabelled;NONE;16384;0.6619978;-0.5761772;0.3767313;0.2963989;0;18;15;-159;4035;556;65536;0.7174181;-0.5457063;0.1869806;0.3905817;-7;17;-9;-962;3985;-500;8192;0.4889196;-0.4279778;-0.5808561;-0.4903047;-3;14;-3;318;4165;777;32768;0.5882025;-0.432133;-0.365651;-0.5775623;6;-2;16;1329;3746;-47;256;-0.02770083;0.0567867;-0.6717451;-0.7380829;2;9;-1;-141;3996;-455;128;0.1080332;-0.03739612;0.5900277;0.7992482;-8;3;3;-527;3919;1188;4;0.6310533;-0.5858725;0.368421;0.3504155;2;7;1;57;4044;158;16;0.6440443;-0.7050379;-0.1911357;-0.2271468;0;6;-2;109;4024;376;2;0.434903;-0.3864266;-0.5720221;-0.578208;-6;-2;-2;-231;4084;283;8;0.6772853;-0.7338707;-0.033241;-0.0401662;2;1;-1;-34;4100;327;0.4883629;2.841077;-0.04383048;0.4943472;3.386411;-0.0298231;0.499608;3.865812;-0.01953273;0.4721319;4.595681;0.05116294;0.2012697;4.914019;0.0446258;-0.1343147;4.755628;0.09396651;-0.2859536;3.842051;0.06728456;-0.1753365;2.960714;-0.2625721;0.7212453;4.933597;0.0446251;1.01544;4.798916;0.0939658;1.158482;3.846491;0.1204309;1.050211;2.96404;-0.2072048;0.1761105;2.79921;-0.05265117;0.08864028;1.339473;-0.1014019;0;0;0;0.1761105;2.79921;-0.05265117;0.08864028;1.339473;-0.1014019;0;0;0
1315033.8091;NotLabelled;NONE;16384;0.6645342;-0.5775623;0.3711911;0.2950138;2;17;11;-163;4043;582;65536;0.7175251;-0.5484765;0.1842105;0.3878116;-5;10;-3;-1064;3945;-412;8192;0.4889196;-0.4265928;-0.5818741;-0.4903047;-4;17;-3;54;4135;781;32768;0.588716;-0.4307479;-0.3642659;-0.5789474;2;-2;13;1327;3728;667;256;-0.02908587;0.05817174;-0.6703601;-0.7391802;6;11;-2;-209;4022;-467;128;0.1066482;-0.03739612;0.5900277;0.7994342;-4;1;3;-489;3965;1202;4;0.6313404;-0.5872576;0.367036;0.3490305;3;7;1;-47;4052;188;16;0.6440443;-0.704661;-0.1925208;-0.2271468;0;6;-2;101;4054;366;2;0.4362881;-0.3850415;-0.5720221;-0.5780886;-7;0;-2;-163;4140;265;8;0.6772853;-0.7338707;-0.033241;-0.0401662;2;0;0;-36;4108;351;0.4867499;2.841017;-0.04152182;0.4927337;3.386301;-0.02566634;0.4979941;3.865663;-0.0137513;0.4721375;4.595613;0.05672425;0.2019826;4.914549;0.0500883;-0.1339529;4.756918;0.0994731;-0.2839432;3.843171;0.06951271;-0.1736874;2.962846;-0.2631583;0.7220002;4.932972;0.05008733;1.015895;4.797655;0.09947175;1.158789;3.845118;0.1225291;1.052626;2.963211;-0.2072527;0.174498;2.799179;-0.05049593;0.08805298;1.339473;-0.1019131;0;0;0;0.174498;2.799179;-0.05049593;0.08805298;1.339473;-0.1019131;0;0;0
1315055.5111;NotLabelled;NONE;16384;0.6648704;-0.5789474;0.368421;0.2950138;1;16;10;-123;4141;712;65536;0.7175665;-0.5498615;0.1828255;0.3864266;-7;4;-2;-1056;3817;-288;8192;0.4889196;-0.4224377;-0.5837339;-0.4916897;-1;-1;-4;-312;4003;625;32768;0.591098;-0.432133;-0.3587258;-0.5789474;-6;-24;7;1809;3780;163;256;-0.02908587;0.06094183;-0.6703601;-0.738957;8;10;-2;-281;4054;-447;128;0.1066482;-0.03878116;0.5886427;0.8003887;-3;2;4;-473;3929;1356;4;0.6316184;-0.5886427;0.365651;0.3476454;2;7;0;-3;4086;178;16;0.6426592;-0.7050977;-0.1939058;-0.2285319;1;7;0;87;4120;470;2;0.4362881;-0.3836565;-0.5734072;-0.5776371;-8;4;-1;-227;4084;277;8;0.6772853;-0.7338707;-0.033241;-0.0401662;2;2;0;-14;4096;367;0.4824346;2.841348;-0.04346009;0.4884183;3.386623;-0.02730919;0.4936786;3.86598;-0.01513442;0.4681296;4.595684;0.05795473;0.1981044;4.914752;0.05249365;-0.1378895;4.757082;0.1013569;-0.2843003;3.842916;0.06679735;-0.1720192;2.961733;-0.2629071;0.7181295;4.932962;0.05249286;1.011975;4.797348;0.1013559;1.157212;3.845146;0.1235316;1.048416;2.964923;-0.209872;0.1701826;2.799516;-0.05245865;0.08503482;1.339666;-0.101933;0;0;0;0.1701826;2.799516;-0.05245865;0.08503482;1.339666;-0.101933;0;0;0
1315075.4916;NotLabelled;NONE;16384;0.6663979;-0.5789474;0.365651;0.2950138;0;15;10;-149;4129;728;65536;0.716855;-0.5512465;0.1814404;0.3864266;-7;7;0;-1478;3829;-222;8192;0.4903047;-0.4224377;-0.582571;-0.4916897;0;-11;-3;18;4003;699;32768;0.5932878;-0.432133;-0.3573407;-0.5775623;-3;-19;10;1629;3726;-115;256;-0.03047091;0.06094183;-0.6689751;-0.7401554;8;7;-1;-317;4042;-359;128;0.1066482;-0.03878116;0.5886427;0.8003887;-4;2;3;-417;3945;1298;4;0.6311262;-0.5900277;0.3642659;0.3476454;2;7;0;23;4080;224;16;0.6426592;-0.7047154;-0.1952908;-0.2285319;1;7;-1;113;4104;454;2;0.4362881;-0.3822715;-0.5771786;-0.5747922;-10;8;-1;-201;4146;331;8;0.6772853;-0.7338067;-0.03462604;-0.0401662;2;2;0;-8;4136;333;0.4815126;2.841157;-0.04885283;0.4874957;3.386374;-0.03085729;0.4927555;3.865686;-0.01706087;0.4644853;4.595289;0.05603829;0.1932719;4.913348;0.05058164;-0.1421316;4.754426;0.0994427;-0.2848814;3.83971;0.06413852;-0.1722809;2.958098;-0.2643089;0.7132257;4.933498;0.05058102;1.007575;4.79898;0.09944209;1.157068;3.847355;0.1178251;1.040182;2.969715;-0.2196229;0.169261;2.799355;-0.05800455;0.08542141;1.339365;-0.1055129;0;0;0;0.169261;2.799355;-0.05800455;0.08542141;1.339365;-0.1055129;0;0;0
1315095.5184;NotLabelled;NONE;16384;0.6685205;-0.5789474;0.3628809;0.2936288;0;17;12;-93;4119;682;65536;0.7168831;-0.5526316;0.1800554;0.3850415;-7;14;3;-1360;3869;-396;8192;0.4903047;-0.4224377;-0.582571;-0.4916897;1;-4;-1;296;4071;693;32768;0.5949475;-0.432133;-0.3545706;-0.5775623;-4;0;13;1437;3720;255;256;-0.03047091;0.06232687;-0.66759;-0.7412897;6;7;-1;-353;4052;-431;128;0.1066482;-0.0401662;0.5872576;0.8013372;-5;3;3;-413;3919;1282;4;0.6326836;-0.5900277;0.3628809;0.3462604;2;8;-1;1;4048;160;16;0.6426592;-0.7038792;-0.1966759;-0.2299169;2;4;-1;39;4112;450;2;0.4362881;-0.3808864;-0.5794674;-0.5734072;-9;9;-1;-225;4182;335;8;0.6772853;-0.7338067;-0.03462604;-0.0401662;2;3;0;26;4126;317;0.4740982;2.841649;-0.05004796;0.4800812;3.386866;-0.03205233;0.485341;3.866178;-0.01825585;0.4587515;4.59558;0.05744018;0.1882668;4.914276;0.05315147;-0.1474936;4.755949;0.1014936;-0.2885307;3.841109;0.06271483;-0.1731939;2.959371;-0.2644431;0.7082653;4.933235;0.05315089;1.002312;4.79787;0.1014929;1.151989;3.846218;0.1166329;1.035263;2.96924;-0.2225921;0.1618465;2.799847;-0.05919956;0.08260895;1.339555;-0.1053322;0;0;0;0.1618465;2.799847;-0.05919956;0.08260895;1.339555;-0.1053322;0;0;0
1315115.4978;NotLabelled;NONE;16384;0.6700166;-0.5789474;0.3601108;0.2936288;-1;20;13;-103;4089;592;65536;0.7176427;-0.5540166;0.1786704;0.3822715;-5;20;4;-1462;3935;-400;8192;0.4903047;-0.4224377;-0.582571;-0.4916897;-1;11;-1;110;4235;907;32768;0.5954294;-0.4307479;-0.3531856;-0.5789474;-8;2;11;1613;3588;333;256;-0.03047091;0.06509695;-0.666205;-0.742297;8;6;-2;-227;3960;-493;128;0.1066482;-0.04155125;0.5858725;0.8022799;-9;3;3;-441;3925;1232;4;0.6321467;-0.5914127;0.3628809;0.3448753;2;9;-1;19;4088;136;16;0.6426592;-0.7038792;-0.1966759;-0.2299169;2;4;0;73;4096;448;2;0.4362881;-0.3795014;-0.5803754;-0.5734072;-6;7;-1;-263;4116;271;8;0.6772853;-0.7338067;-0.03462604;-0.0401662;2;4;0;44;4086;327;0.4757814;2.841566;-0.04578527;0.4817638;3.386719;-0.02594794;0.487023;3.865983;-0.01053238;0.4592685;4.595051;0.06788686;0.1882698;4.913326;0.06482373;-0.147228;4.754279;0.1126209;-0.2882637;3.839605;0.07007767;-0.1719443;2.957443;-0.2555858;0.7082369;4.933123;0.0648227;1.002508;4.798053;0.1126193;1.152186;3.846401;0.1277522;1.032257;2.971096;-0.2146601;0.1635301;2.799795;-0.05508959;0.08232776;1.339694;-0.1037759;0;0;0;0.1635301;2.799795;-0.05508959;0.08232776;1.339694;-0.1037759;0;0;0
1315156.5284;NotLabelled;NONE;16384;0.6744271;-0.5803324;0.3518005;0.2908587;-3;16;13;-209;4055;576;65536;0.720155;-0.5581717;0.1731302;0.3739612;-2;18;5;-1272;3821;-286;8192;0.4916897;-0.4182825;-0.5820571;-0.4944598;-1;-2;-7;-302;4037;675;32768;0.5979275;-0.432133;-0.3518005;-0.5761772;-1;-4;-4;1351;3742;-35;256;-0.03185596;0.06648199;-0.6634349;-0.7445935;8;5;-2;-299;4008;-467;128;0.1066482;-0.04432133;0.5831025;0.8041475;-10;2;2;-387;3951;1154;4;0.6334246;-0.5941828;0.3587258;0.3421052;1;7;1;-99;4104;204;16;0.6426592;-0.7030993;-0.199446;-0.2299169;2;5;0;59;4032;362;2;0.4362881;-0.3767313;-0.5821773;-0.5734072;0;2;-1;-329;4066;175;8;0.6786703;-0.7323819;-0.03601108;-0.04155125;3;3;-1;40;4116;357;0.4753093;2.841698;-0.05112283;0.4812909;3.386782;-0.02944662;0.4865495;3.86599;-0.01241442;0.4562852;4.594661;0.06872919;0.1841866;4.912005;0.06689222;-0.1507515;4.751622;0.1141431;-0.2900742;3.836849;0.06820981;-0.1751292;2.953956;-0.2559587;0.7040823;4.933602;0.06689146;0.9988265;4.799373;0.1141421;1.148569;3.847721;0.1286194;1.025786;2.974173;-0.2172508;0.1630584;2.799959;-0.06057952;0.08188981;1.339694;-0.1041219;0;0;0;0.1630584;2.799959;-0.06057952;0.08188981;1.339694;-0.1041219;0;0;0
1315177.6468;NotLabelled;NONE;16384;0.6758648;-0.5803324;0.3490305;0.2908587;-3;12;12;-153;4019;494;65536;0.7205132;-0.5595568;0.1731302;0.3711911;-2;12;4;-1346;3825;-298;8192;0.4930748;-0.4168975;-0.5818791;-0.4944598;-1;-1;-6;-58;3993;769;32768;0.5982578;-0.433518;-0.3518005;-0.5747922;0;2;-4;1307;3738;-173;256;-0.03185596;0.06786703;-0.6634349;-0.7444686;9;4;-2;-293;4070;-547;128;0.1066482;-0.04432133;0.5817174;0.80515;-10;3;1;-377;3891;1242;4;0.6336532;-0.5955678;0.3573407;0.3407202;1;5;0;-133;4092;220;16;0.6426592;-0.7026449;-0.199446;-0.2313019;2;4;0;101;4070;342;2;0.4362881;-0.3767313;-0.58081;-0.5747922;0;1;0;-335;4084;209;8;0.6786703;-0.7323819;-0.03601108;-0.04155125;3;1;-2;-8;4108;397;0.465439;2.842243;-0.05095255;0.4714188;3.387169;-0.02560719;0.4766762;3.866251;-0.005349226;0.4469656;4.594338;0.08107518;0.1750973;4.911884;0.0816167;-0.1599434;4.751406;0.1278059;-0.295424;3.836496;0.07380311;-0.1801635;2.952035;-0.2459478;0.6950085;4.933103;0.0816164;0.9896688;4.798323;0.1278058;1.141095;3.846843;0.1334552;1.017808;2.973053;-0.2116227;0.1531888;2.800569;-0.06071321;0.07624251;1.340059;-0.1037083;0;0;0;0.1531888;2.800569;-0.06071321;0.07624251;1.340059;-0.1037083;0;0;0
1315198.5123;NotLabelled;NONE;16384;0.6765783;-0.5803324;0.3476454;0.2908587;-3;12;12;-99;3973;542;65536;0.7215562;-0.5595568;0.1717452;0.3698061;0;10;1;-1486;3925;-312;8192;0.4930748;-0.4168975;-0.5818791;-0.4944598;0;0;-7;-58;3943;751;32768;0.5976242;-0.432133;-0.3545706;-0.5747922;-1;17;-6;1065;3728;-213;256;-0.03185596;0.06925207;-0.6620498;-0.7455732;8;5;-1;-279;4094;-529;128;0.1052632;-0.04432133;0.5803324;0.806331;-10;1;1;-441;3979;1238;4;0.6336532;-0.5955678;0.3573407;0.3407202;0;1;1;-189;4080;232;16;0.6426592;-0.7026449;-0.199446;-0.2313019;1;3;0;127;4054;364;2;0.4362881;-0.3767313;-0.58081;-0.5747922;0;0;0;-275;4092;295;8;0.6786703;-0.7323897;-0.03739612;-0.0401662;3;3;-1;-84;4146;361;0.4662996;2.842298;-0.05149324;0.4722785;3.387134;-0.02428354;0.4775351;3.866143;-0.002386451;0.4464955;4.594173;0.08404998;0.1740411;4.911217;0.08464442;-0.1606942;4.750119;0.1308938;-0.2944346;3.834965;0.07671493;-0.1815291;2.949143;-0.2400945;0.6939123;4.933396;0.08454862;0.9888297;4.79916;0.1306827;1.142581;3.84805;0.1359006;1.018687;2.973343;-0.2066257;0.1540497;2.800657;-0.06140805;0.07856949;1.340017;-0.1025151;0;0;0;0.1540497;2.800657;-0.06140805;0.07856949;1.340017;-0.1025151;0;0;0
1315240.5017;NotLabelled;NONE;16384;0.6798777;-0.5803324;0.3434903;0.2880886;-1;8;6;-207;4121;486;65536;0.7222099;-0.5595568;0.1689751;0.3698061;0;-1;-9;-1544;3877;-104;8192;0.4944598;-0.4141274;-0.5815031;-0.4958449;-1;5;-7;-198;4045;751;32768;0.5897383;-0.432133;-0.3587258;-0.5803324;-8;21;-9;1641;3808;347;256;-0.03185596;0.07063711;-0.6592798;-0.7478942;3;0;0;-287;4044;-611;128;0.1052632;-0.04570637;0.5775623;0.8082403;-9;-4;0;-471;3923;1208;4;0.6336532;-0.5955678;0.3573407;0.3407202;0;-2;1;-55;4086;202;16;0.6426592;-0.7022502;-0.200831;-0.2313019;1;0;0;55;4068;380;2;0.4362881;-0.3767313;-0.5821773;-0.5734072;0;-1;1;-277;4116;281;8;0.6800554;-0.7311039;-0.03739612;-0.0401662;4;0;-1;44;4110;309;0.4661771;2.842258;-0.05161858;0.4721548;3.386981;-0.02225546;0.4774103;3.865902;0.001534864;0.4452211;4.593557;0.09066877;0.1722671;4.910165;0.09243165;-0.1622147;4.74837;0.1380752;-0.2949436;3.833386;0.07876852;-0.182715;2.947883;-0.2391716;0.6921027;4.933165;0.0924311;0.9872305;4.799223;0.1380746;1.140973;3.848101;0.1400872;1.02079;2.972466;-0.2013886;0.1539276;2.800657;-0.06171148;0.07836635;1.340016;-0.1026698;0;0;0;0.1539276;2.800657;-0.06171148;0.07836635;1.340016;-0.1026698;0;0;0
1315261.8852;NotLabelled;NONE;16384;0.6805757;-0.5803324;0.3421052;0.2880886;-2;5;5;-159;4053;540;65536;0.721108;-0.5595568;0.16759;0.3725762;0;-1;-13;-1768;3821;-74;8192;0.4958449;-0.4127424;-0.5813084;-0.4958449;0;-5;-1;-220;4001;741;32768;0.5858218;-0.4362881;-0.3601108;-0.5803324;-7;-8;-14;1643;3830;489;256;-0.03185596;0.07063711;-0.6592798;-0.7478942;1;-1;0;-345;4084;-699;128;0.1038781;-0.04432133;0.5761772;0.8094842;-5;-7;-1;-473;3931;1230;4;0.6336532;-0.5955678;0.3573407;0.3407202;0;-3;2;-17;4066;202;16;0.6440443;-0.7009802;-0.200831;-0.2313019;1;0;0;63;4118;354;2;0.4376731;-0.3781163;-0.5802366;-0.5734072;0;-2;0;-279;4116;271;8;0.6814404;-0.7298131;-0.03739612;-0.0401662;3;0;0;22;4076;231;0.4634;2.842369;-0.05132801;0.4693753;3.386882;-0.01828515;0.474629;3.865631;0.00874044;0.4415637;4.592565;0.1032695;0.1682023;4.908797;0.1075644;-0.1660373;4.746235;0.1522487;-0.2997433;3.831291;0.09455608;-0.1850785;2.947035;-0.2259777;0.6880075;4.93247;0.1073652;0.9833408;4.798578;0.1518089;1.13901;3.847769;0.1537826;1.013624;2.9703;-0.1810515;0.1511513;2.800837;-0.06172489;0.07548242;1.340196;-0.1024841;0;0;0;0.1511513;2.800837;-0.06172489;0.07548242;1.340196;-0.1024841;0;0;0
1315303.4734;NotLabelled;NONE;16384;0.6812701;-0.5803324;0.3407202;0.2880886;-3;3;4;-149;4045;602;65536;0.7205638;-0.5581717;0.1620499;0.3781163;-11;-15;-21;-1522;3797;130;8192;0.4986149;-0.4155124;-0.5781367;-0.4944598;2;-14;3;-90;4091;769;32768;0.5861034;-0.4418283;-0.3573407;-0.5775623;-12;-21;-11;1499;3774;505;256;-0.03047091;0.07063711;-0.6578947;-0.7491705;4;-5;0;-323;4090;-747;128;0.1024931;-0.04293629;0.5761772;0.8097354;2;-1;-1;-461;3941;1376;4;0.6349853;-0.5941828;0.3559557;0.3421052;0;-3;3;-53;4114;170;16;0.6440443;-0.7014357;-0.200831;-0.2299169;1;-1;0;31;4052;416;2;0.4376731;-0.3781163;-0.5802366;-0.5734072;0;-3;0;-321;4022;211;8;0.6814404;-0.7299576;-0.03601108;-0.03878116;2;-1;0;26;4078;197;0.4626092;2.842744;-0.04611798;0.468583;3.38712;-0.01089959;0.4738354;3.865757;0.01803882;0.440734;4.592691;0.1125551;0.1673709;4.908924;0.1167457;-0.1668856;4.746362;0.1613024;-0.2993829;3.831819;0.09508561;-0.1796007;2.948823;-0.227044;0.6871761;4.932597;0.1167449;0.9824925;4.798705;0.1613013;1.140428;3.848293;0.1543209;1.010827;2.967896;-0.1710901;0.150361;2.801254;-0.05669428;0.07470783;1.340613;-0.09748231;0;0;0;0.150361;2.801254;-0.05669428;0.07470783;1.340613;-0.09748231;0;0;0
1315345.9072;NotLabelled;NONE;16384;0.6824476;-0.5789474;0.3407202;0.2880886;-3;3;4;-49;4047;600;65536;0.7165499;-0.5595568;0.1620499;0.3836565;-17;-37;-23;-1506;3763;150;8192;0.4986149;-0.4168975;-0.5783225;-0.4930748;4;-13;6;4;4041;733;32768;0.5865222;-0.4459834;-0.3559557;-0.5747922;-14;-20;-9;1563;3740;405;256;-0.02908587;0.06925207;-0.6565097;-0.7505686;5;-6;1;-329;4052;-559;128;0.1024931;-0.04293629;0.5761772;0.8097354;0;-1;-1;-465;3917;1286;4;0.6349853;-0.5941828;0.3559557;0.3421052;-1;-5;3;-87;4078;206;16;0.6440443;-0.7014357;-0.200831;-0.2299169;1;-1;0;41;4098;404;2;0.4376731;-0.3781163;-0.5802366;-0.5734072;0;-4;-1;-325;4104;197;8;0.6814404;-0.7299576;-0.03601108;-0.03878116;1;-1;0;24;4080;255;0.459092;2.842588;-0.03923787;0.4650656;3.386943;-0.003702119;0.4703178;3.865564;0.0255153;0.4359255;4.592066;0.1228468;0.1619945;4.907788;0.1283078;-0.1719607;4.744453;0.1722944;-0.3033058;3.829902;0.1039235;-0.1714124;2.951585;-0.226167;0.6817561;4.932396;0.1283072;0.9773212;4.798866;0.1722938;1.133423;3.848168;0.1632056;0.998599;2.966308;-0.1560628;0.1468439;2.801105;-0.04984043;0.07231898;1.340654;-0.09871293;0;0;0;0.1468439;2.801105;-0.04984043;0.07231898;1.340654;-0.09871293;0;0;0
1315366.5514;NotLabelled;NONE;16384;0.6831373;-0.5789474;0.3393352;0.2880886;-1;1;3;27;3813;414;65536;0.707538;-0.5567867;0.1606648;0.4044321;-12;-35;-25;-1390;3601;-234;8192;0.4972299;-0.4224377;-0.5766715;-0.4916897;4;-7;3;-66;3985;575;32768;0.586975;-0.4515235;-0.3504155;-0.5734072;-13;-7;-2;1777;3780;57;256;-0.02631579;0.06648199;-0.6565097;-0.7509212;0;-9;1;-125;3990;-539;128;0.101108;-0.04155125;0.5761772;0.8099818;-1;-5;-3;-441;3897;1308;4;0.634207;-0.5941828;0.3573407;0.3421052;-2;-9;2;-73;4048;192;16;0.6440443;-0.7018308;-0.199446;-0.2299169;1;-4;0;101;4084;386;2;0.4404432;-0.3781163;-0.5795071;-0.5720221;0;-4;-1;-367;4114;261;8;0.6828254;-0.7287346;-0.03601108;-0.03739612;2;-1;0;22;4122;305;0.4592818;2.842588;-0.03867499;0.4652554;3.386943;-0.003139198;0.4705077;3.865564;0.02607825;0.436148;4.591688;0.1262056;0.1622246;4.907391;0.132929;-0.1717262;4.743896;0.1763488;-0.3046995;3.829828;0.1047413;-0.1631081;2.952175;-0.223091;0.6819868;4.931989;0.1329283;0.9775571;4.798285;0.176348;1.134042;3.847625;0.1704808;0.9977437;2.964181;-0.1437419;0.1470336;2.801105;-0.04927762;0.07269637;1.340654;-0.09843522;0;0;0;0.1470336;2.801105;-0.04927762;0.07269637;1.340654;-0.09843522;0;0;0
1315386.5151;NotLabelled;NONE;16384;0.6838235;-0.5789474;0.3379501;0.2880886;1;2;3;17;3669;406;65536;0.705435;-0.5554016;0.1606648;0.4099723;-13;-35;-24;-1042;3389;432;8192;0.4972299;-0.4238227;-0.5756543;-0.4916897;4;-7;2;-80;4037;591;32768;0.5867331;-0.4529086;-0.3490305;-0.5734072;-12;-8;0;1899;3726;171;256;-0.02493075;0.06509695;-0.6578947;-0.7498769;0;-10;0;-111;3928;-661;128;0.09972299;-0.0401662;0.5761772;0.8102233;0;-6;-3;-503;3807;1206;4;0.6347542;-0.5927978;0.3573407;0.3434903;0;-9;2;51;4030;192;16;0.6454294;-0.7014029;-0.1980609;-0.2285319;1;-5;0;-1;4064;346;2;0.4404432;-0.3781163;-0.5795071;-0.5720221;0;-5;0;-333;4036;255;8;0.6828254;-0.7288017;-0.03462604;-0.03739612;2;-2;0;-2;4086;319;0.4636399;2.842443;-0.0409541;0.4696133;3.386778;-0.005105212;0.4748653;3.865381;0.02438755;0.4401419;4.591456;0.1247428;0.1660597;4.90702;0.1315691;-0.1678081;4.743343;0.1749427;-0.2991443;3.829274;0.100386;-0.131582;2.959574;-0.2362756;0.6858096;4.931879;0.1315683;0.9814478;4.798309;0.1749417;1.131492;3.846596;0.1765494;0.9873196;2.963561;-0.1353012;0.1513918;2.800965;-0.05158255;0.07608703;1.340481;-0.09821909;0;0;0;0.1513918;2.800965;-0.05158255;0.07608703;1.340481;-0.09821909;0;0;0
1315407.5166;NotLabelled;NONE;16384;0.6832383;-0.5789474;0.3379501;0.2894737;4;2;3;157;3627;336;65536;0.7016805;-0.5554016;0.1592798;0.4168975;-17;-21;-24;-1804;3459;940;8192;0.4972299;-0.4238227;-0.5768345;-0.4903047;3;-6;1;-36;3965;669;32768;0.5873034;-0.4542936;-0.3462604;-0.5734072;-11;-10;3;1903;3792;167;256;-0.0235457;0.06371191;-0.6565097;-0.7512532;1;-9;0;-187;3924;-645;128;0.09972299;-0.03878116;0.5761772;0.8102908;1;-7;-2;-443;3837;1244;4;0.6345139;-0.5914127;0.3587258;0.3448753;0;-9;1;33;4058;180;16;0.6454294;-0.7018526;-0.1980609;-0.2271468;2;-5;0;49;4078;344;2;0.4404432;-0.3795014;-0.5786011;-0.5720221;0;-6;0;-323;4040;191;8;0.6828254;-0.7288017;-0.03462604;-0.03739612;2;-2;0;16;4102;301;0.4632297;2.842542;-0.03226818;0.4692028;3.386857;0.003889561;0.4744547;3.865443;0.03365384;0.4393585;4.591851;0.131442;0.1651194;4.9073;0.137118;-0.1686732;4.743612;0.1810237;-0.2983268;3.829503;0.1040595;-0.1244473;2.962186;-0.2355356;0.6848569;4.932417;0.1370997;0.980555;4.799148;0.180984;1.128313;3.847081;0.1846156;0.9822712;2.964219;-0.1268523;0.1509816;2.80107;-0.04292204;0.07567406;1.340759;-0.09468479;0;0;0;0.1509816;2.80107;-0.04292204;0.07567406;1.340759;-0.09468479;0;0;0
1315447.6694;NotLabelled;NONE;16384;0.6839217;-0.5789474;0.3365651;0.2894737;6;2;0;-53;3779;516;65536;0.7001656;-0.5567867;0.1537396;0.4196676;-14;28;-30;-2688;3991;196;8192;0.4972299;-0.4252077;-0.5758143;-0.4903047;2;-5;0;-4;4039;609;32768;0.5889278;-0.4542936;-0.3434903;-0.5734072;-10;-14;7;1985;3800;187;256;-0.02216066;0.06232687;-0.6565097;-0.7514116;0;-9;0;-145;4042;-577;128;0.09833795;-0.03739612;0.5761772;0.8105251;1;-7;-1;-485;3815;1344;4;0.6345139;-0.5914127;0.3587258;0.3448753;0;-8;0;79;4074;220;16;0.6468144;-0.7009665;-0.1966759;-0.2271468;2;-5;0;59;4084;410;2;0.4418283;-0.3795014;-0.5775441;-0.5720221;0;-8;0;-333;4090;179;8;0.6828254;-0.7288715;-0.03462604;-0.03601108;2;-1;0;-32;4064;261;0.4624025;2.842442;-0.03135575;0.4683756;3.386754;0.004836515;0.4736274;3.865339;0.03463121;0.4385364;4.591368;0.1351918;0.164294;4.90679;0.1421109;-0.1694898;4.742931;0.1854427;-0.2973109;3.828626;0.1077377;-0.1120368;2.964247;-0.2333199;0.6840313;4.931913;0.1421102;0.9797378;4.798482;0.185442;1.130076;3.846828;0.1908327;0.9808999;2.964944;-0.1219211;0.1501545;2.800971;-0.04201245;0.0735018;1.340802;-0.09578078;0;0;0;0.1501545;2.800971;-0.04201245;0.0735018;1.340802;-0.09578078;0;0;0
1315468.4953;NotLabelled;NONE;16384;0.6815671;-0.5817174;0.3365651;0.2894737;10;7;-5;-281;3877;488;65536;0.7046813;-0.5554016;0.1454294;0.4168975;-3;60;-41;-2778;4147;-550;8192;0.4986149;-0.4252077;-0.5746154;-0.4903047;0;-5;-1;-60;4071;679;32768;0.590265;-0.4556787;-0.3393352;-0.5734072;-11;-17;11;1981;3852;271;256;-0.02077562;0.06094183;-0.6578947;-0.7503526;-3;-8;-1;-203;3994;-515;128;0.09695291;-0.03601108;0.5761772;0.8107547;0;-6;-2;-495;3945;1338;4;0.6337591;-0.5914127;0.3587258;0.3462604;0;-8;0;149;4054;264;16;0.6468144;-0.7014138;-0.1966759;-0.2257618;2;-6;0;111;4058;372;2;0.4418283;-0.3808864;-0.5780023;-0.5706371;1;-8;1;-289;4092;233;8;0.6842105;-0.7275715;-0.03462604;-0.03601108;3;-1;0;-22;4110;255;0.4642811;2.842663;-0.02610042;0.470254;3.386955;0.01039636;0.4755057;3.865522;0.04045875;0.4402297;4.59153;0.1411133;0.1659068;4.906881;0.1480747;-0.1678349;4.742931;0.1913875;-0.294245;3.828636;0.1112991;-0.09594695;2.967584;-0.2308482;0.6856375;4.932137;0.1480742;0.9813784;4.798776;0.1913869;1.129426;3.846768;0.1976618;0.9790204;2.966496;-0.119017;0.1520332;2.801198;-0.03678226;0.07559146;1.34103;-0.09084962;0;0;0;0.1520332;2.801198;-0.03678226;0.07559146;1.34103;-0.09084962;0;0;0
1315489.4889;NotLabelled;NONE;16384;0.6791748;-0.5858725;0.3365651;0.2867036;14;5;-9;-485;4123;664;65536;0.7100213;-0.5498615;0.1274238;0.4210526;0;-2;-70;-2402;3931;-674;8192;0.5;-0.4252077;-0.5734106;-0.4903047;-2;-4;0;-22;4201;747;32768;0.5936273;-0.4556787;-0.3310249;-0.5747922;-12;-22;22;2089;3864;307;256;-0.01939058;0.06094183;-0.6578947;-0.7503896;0;-9;-1;-305;3992;-557;128;0.09695291;-0.03462604;0.5761772;0.810815;0;-5;-1;-445;3855;1352;4;0.6337591;-0.5914127;0.3587258;0.3462604;-1;-6;0;133;4068;214;16;0.6468144;-0.7018007;-0.1952908;-0.2257618;3;-6;0;173;4054;338;2;0.4432133;-0.3822715;-0.5773929;-0.5692521;1;-7;1;-215;4108;299;8;0.6842105;-0.7276361;-0.033241;-0.03601108;2;-2;0;-62;4096;211;0.4587341;2.84285;-0.02648484;0.4647068;3.387123;0.01031169;0.4699582;3.865674;0.04063764;0.4343192;4.592017;0.1387073;0.1598449;4.90726;0.1445015;-0.1738263;4.743306;0.1883386;-0.2962728;3.828043;0.1133085;-0.09179171;2.971447;-0.2363044;0.6795636;4.932764;0.1445009;0.9753604;4.799697;0.188338;1.12345;3.847685;0.1925289;0.9687138;2.969228;-0.1270888;0.1464861;2.801391;-0.03719136;0.07342824;1.341075;-0.09194414;0;0;0;0.1464861;2.801391;-0.03719136;0.07342824;1.341075;-0.09194414;0;0;0
1315509.7319;NotLabelled;NONE;16384;0.6771805;-0.5872576;0.3393352;0.2853186;9;-14;-10;-495;4287;922;65536;0.7105223;-0.5443213;0.1204986;0.4293629;-6;-20;-80;-2628;3847;-96;8192;0.5;-0.4252077;-0.574592;-0.4889196;-1;-5;0;-148;4143;747;32768;0.5977381;-0.4542936;-0.3254848;-0.5747922;-14;-24;27;2123;3820;269;256;-0.01800554;0.05955679;-0.6578947;-0.7505353;0;-9;0;-393;4032;-531;128;0.09695291;-0.03462604;0.5761772;0.810815;0;-4;0;-485;3899;1312;4;0.6342916;-0.5900277;0.3587258;0.3476454;0;-5;0;191;4078;196;16;0.6481994;-0.7009665;-0.1952908;-0.2243767;3;-3;0;61;4088;244;2;0.4445983;-0.3836565;-0.5754061;-0.5692521;1;-6;0;-241;4164;259;8;0.6842105;-0.7276361;-0.033241;-0.03601108;1;-1;0;4;4102;193;0.4614304;2.842681;-0.0265266;0.467403;3.386951;0.01030473;0.4726545;3.865499;0.04066128;0.4355054;4.591755;0.1388226;0.1603763;4.906425;0.1446582;-0.1729531;4.741773;0.1884766;-0.293505;3.825592;0.1220744;-0.06828625;2.984051;-0.2505949;0.6800407;4.933011;0.1446575;0.976114;4.800555;0.188476;1.124258;3.848543;0.190251;0.9605426;2.975343;-0.1391498;0.1491825;2.801223;-0.03723601;0.07622443;1.340907;-0.09212098;0;0;0;0.1491825;2.801223;-0.03723601;0.07622443;1.340907;-0.09212098;0;0;0
1315530.5129;NotLabelled;NONE;16384;0.6746091;-0.5872576;0.3421052;0.2880886;0;-30;-10;-173;4333;1042;65536;0.7110351;-0.5387812;0.1121884;0.4376731;-10;-5;-83;-2806;3953;-354;8192;0.501385;-0.4265928;-0.5735344;-0.4875346;-2;-9;0;-154;4125;793;32768;0.6001307;-0.4542936;-0.3185596;-0.5761772;-16;-26;31;2095;3752;311;256;-0.0166205;0.05817174;-0.6578947;-0.7506759;-1;-9;0;-281;4054;-551;128;0.09556787;-0.03462604;0.5761772;0.8109794;0;-5;-1;-515;3915;1286;4;0.6342916;-0.5900277;0.3587258;0.3476454;-1;-3;1;161;4066;224;16;0.6495845;-0.7005107;-0.1939058;-0.2229917;3;-1;0;21;4066;274;2;0.4445983;-0.3836565;-0.5754061;-0.5692521;1;-5;0;-221;4082;261;8;0.6842105;-0.7277033;-0.033241;-0.03462604;1;-2;0;24;4092;195;0.4582229;2.842919;-0.01756994;0.4641955;3.387188;0.01926139;0.4694469;3.865737;0.04961796;0.4321159;4.591973;0.1478567;0.1569077;4.906574;0.1537272;-0.1763799;4.741832;0.1975301;-0.2989206;3.82548;0.137435;-0.0606446;2.994504;-0.2505094;0.6765654;4.93329;0.1537266;0.9726721;4.800902;0.1975293;1.123363;3.849302;0.2022241;0.9577142;2.980155;-0.1367882;0.145975;2.801461;-0.02827933;0.07311638;1.34134;-0.08825573;0;0;0;0.145975;2.801461;-0.02827933;0.07311638;1.34134;-0.08825573;0;0;0
1315550.491;NotLabelled;NONE;16384;0.674302;-0.5844875;0.3462604;0.2894737;-4;-28;-6;253;4229;774;65536;0.7113386;-0.534626;0.1024931;0.4445983;-6;5;-85;-2762;3889;-566;8192;0.5027701;-0.4265928;-0.5723206;-0.4875346;-3;-12;-1;-196;4105;735;32768;0.6034729;-0.4529086;-0.3116343;-0.5775623;-17;-29;34;2125;3662;251;256;-0.01523546;0.05817174;-0.6578947;-0.7507053;1;-9;0;-231;4038;-555;128;0.09556787;-0.033241;0.5761772;0.8110374;1;-7;-1;-449;3935;1376;4;0.6342916;-0.5900277;0.3587258;0.3476454;0;-3;2;105;4036;168;16;0.6495845;-0.7001259;-0.1952908;-0.2229917;1;0;0;25;4076;194;2;0.4445983;-0.3850415;-0.5744801;-0.5692521;0;-3;0;-251;4108;283;8;0.6855956;-0.7264606;-0.03185596;-0.03462604;0;-2;0;-30;4094;159;0.4574929;2.843171;-0.0136942;0.4634654;3.387423;0.02339743;0.4687166;3.865958;0.05398285;0.431203;4.592174;0.1522932;0.1559154;4.906704;0.1581961;-0.1773304;4.741874;0.2019843;-0.2980856;3.825101;0.1447523;-0.04496977;3.006056;-0.258849;0.6755664;4.933551;0.1581956;0.9717067;4.801236;0.2019838;1.12272;3.849688;0.2071891;0.9499285;2.985186;-0.1400398;0.145245;2.801718;-0.02442518;0.07262158;1.341597;-0.08468609;0;0;0;0.145245;2.801718;-0.02442518;0.07262158;1.341597;-0.08468609;0;0;0
1315571.4884;NotLabelled;NONE;16384;0.6728765;-0.5831025;0.3490305;0.2922437;-5;-16;-4;395;4007;656;65536;0.7124487;-0.5290859;0.09279778;0.4515235;-3;5;-87;-2698;3561;-410;8192;0.5041551;-0.4265928;-0.5722803;-0.4861496;-4;-13;-3;-218;4023;637;32768;0.6069991;-0.4529086;-0.3047091;-0.5775623;-17;-31;36;2077;3640;305;256;-0.01385042;0.0567867;-0.6578947;-0.7508382;3;-9;0;-117;4022;-535;128;0.09418282;-0.03185596;0.5761772;0.8112549;-1;-8;-2;-507;3853;1394;4;0.6342916;-0.5900277;0.3587258;0.3476454;-1;-4;3;83;4118;172;16;0.6495845;-0.7005107;-0.1939058;-0.2229917;0;-1;0;9;4052;284;2;0.4445983;-0.3850415;-0.5744801;-0.5692521;0;-3;-1;-315;4098;231;8;0.6855956;-0.7264606;-0.03185596;-0.03462604;0;0;0;20;4090;157;0.454899;2.843328;-0.01314072;0.4608714;3.387578;0.0239857;0.4661227;3.86611;0.05460168;0.4270982;4.592237;0.152988;0.1511566;4.906194;0.1589253;-0.1817451;4.740666;0.2026983;-0.307417;3.824579;0.1450698;-0.03842154;3.017521;-0.2721779;0.6707505;4.934122;0.1589245;0.9671658;4.802417;0.2026972;1.118238;3.850869;0.2054793;0.9393863;2.991817;-0.1520536;0.1426512;2.801876;-0.02387445;0.07013764;1.341755;-0.08426801;0;0;0;0.1426512;2.801876;-0.02387445;0.07013764;1.341755;-0.08426801;0;0;0
1315592.5305;NotLabelled;NONE;16384;0.6739476;-0.5803324;0.3504155;0.2936288;-4;-9;0;177;3999;668;65536;0.7159406;-0.5152354;0.0734072;0.4653739;-1;1;-87;-2752;3315;-370;8192;0.5083103;-0.4265928;-0.5697742;-0.4847645;-6;-15;-9;-268;3945;591;32768;0.6141266;-0.4515235;-0.2894737;-0.5789474;-17;-37;36;2053;3536;343;256;-0.01246537;0.05401662;-0.6578947;-0.7510668;1;-9;0;-207;3990;-501;128;0.09279778;-0.03047091;0.5761772;0.8114677;-2;-8;-1;-495;3875;1244;4;0.6348176;-0.5886427;0.3587258;0.3490305;-1;-6;3;51;4042;222;16;0.6495845;-0.7005107;-0.1939058;-0.2229917;0;-2;0;89;4088;244;2;0.4459834;-0.3850415;-0.5747772;-0.567867;0;-2;-1;-357;4106;239;8;0.6855956;-0.7264606;-0.03185596;-0.03462604;0;-1;0;-12;4102;205;0.4576302;2.843164;-0.0128329;0.4636025;3.387394;0.02458414;0.4688536;3.865911;0.05545571;0.4296452;4.592019;0.1539026;0.153624;4.905905;0.1598672;-0.1792356;4.740289;0.2036278;-0.3049054;3.824195;0.1461036;-0.02074022;3.030443;-0.2863355;0.6732107;4.933965;0.1598665;0.9696597;4.802332;0.2036271;1.123327;3.8512;0.2066495;0.9391872;2.9967;-0.1590159;0.1453825;2.801717;-0.02359054;0.07310583;1.341596;-0.08426762;0;0;0;0.1453825;2.801717;-0.02359054;0.07310583;1.341596;-0.08426762;0;0;0
1315612.7971;NotLabelled;NONE;16384;0.6738124;-0.5789474;0.3518005;0.2950138;-5;-10;2;179;3939;672;65536;0.7172831;-0.5083103;0.06371191;0.4722992;-1;1;-87;-2812;3209;-306;8192;0.5110803;-0.4265928;-0.5684714;-0.4833795;-6;-17;-12;-216;3963;575;32768;0.6179754;-0.4515235;-0.2811634;-0.5789474;-16;-39;36;2003;3554;365;256;-0.01108033;0.05263158;-0.6578947;-0.7511868;2;-8;0;-227;4006;-583;128;0.09279778;-0.02908587;0.5761772;0.8115185;-1;-9;-2;-497;3833;1188;4;0.6348176;-0.5886427;0.3587258;0.3490305;-1;-8;2;15;4072;256;16;0.6495845;-0.7005107;-0.1939058;-0.2229917;0;-1;0;81;4066;338;2;0.4473684;-0.3850415;-0.5736999;-0.567867;1;-5;-1;-421;4076;183;8;0.6855956;-0.7265847;-0.03047091;-0.033241;0;-2;0;64;4126;283;0.4578127;2.842948;-0.007144943;0.4637847;3.387157;0.03055862;0.4690356;3.865658;0.06168212;0.4309729;4.591821;0.1601756;0.1554459;4.90614;0.1661698;-0.1776722;4.741045;0.2099323;-0.3054536;3.825568;0.147456;0.005249459;3.061769;-0.3193105;0.6750763;4.933383;0.1661519;0.9713194;4.801282;0.2098933;1.127693;3.850586;0.2094873;0.9306118;3.007495;-0.1754081;0.145565;2.801507;-0.01792624;0.07360773;1.341596;-0.08382964;0;0;0;0.145565;2.801507;-0.01792624;0.07360773;1.341596;-0.08382964;0;0;0
1315633.5354;NotLabelled;NONE;16384;0.6743929;-0.5775623;0.3518005;0.2963989;-8;-13;6;213;3947;692;65536;0.7183588;-0.501385;0.05401662;0.4792244;0;2;-85;-2814;3159;-412;8192;0.5138504;-0.4265928;-0.5671487;-0.4819945;-6;-18;-14;-222;3915;569;32768;0.6210796;-0.4515235;-0.2742382;-0.5789474;-14;-39;36;2007;3554;359;256;-0.009695291;0.05263158;-0.6578947;-0.751206;5;-8;0;-251;3926;-577;128;0.09141274;-0.02908587;0.5761772;0.8116757;0;-9;-1;-377;3859;1280;4;0.6353372;-0.5872576;0.3587258;0.3504155;-1;-9;2;13;4078;272;16;0.6509695;-0.6992238;-0.1939058;-0.2229917;0;-2;0;163;4110;404;2;0.4473684;-0.3850415;-0.5736999;-0.567867;1;-7;0;-395;4082;251;8;0.6855956;-0.7265847;-0.03047091;-0.033241;0;-2;0;-38;4088;225;0.4578824;2.842947;-0.006568044;0.4638544;3.387154;0.03117058;0.4691054;3.865653;0.06232488;0.4308544;4.591798;0.1608666;0.1552468;4.906047;0.1668748;-0.1778302;4.740865;0.2106176;-0.3064996;3.825633;0.1463892;0.01804123;3.07765;-0.3363024;0.6748701;4.933423;0.1668724;0.971146;4.801395;0.2106127;1.13016;3.851144;0.2069753;0.9261678;3.013877;-0.1869266;0.1456347;2.801507;-0.01735224;0.07393763;1.341597;-0.08353878;0;0;0;0.1456347;2.801507;-0.01735224;0.07393763;1.341597;-0.08353878;0;0;0
1315659.0772;NotLabelled;NONE;16384;0.6754248;-0.5747922;0.3531856;0.2977839;-11;-13;10;271;3989;668;65536;0.7191687;-0.4944598;0.04432133;0.4861496;2;1;-83;-2808;3115;-356;8192;0.5166205;-0.4265928;-0.5646266;-0.4819945;-5;-18;-15;-110;3969;567;32768;0.6269605;-0.4501385;-0.265928;-0.5775623;-14;-37;38;1997;3572;343;256;-0.008310249;0.05124654;-0.6565097;-0.7525289;6;-8;0;-209;3948;-481;128;0.0900277;-0.02770083;0.5747922;0.8128601;-1;-9;-1;-465;3805;1382;4;0.6345531;-0.5872576;0.3601108;0.3504155;-1;-10;1;23;4032;256;16;0.6509695;-0.7000464;-0.1925208;-0.2216066;0;-3;0;87;4074;420;2;0.4487534;-0.3864266;-0.5716833;-0.567867;2;-9;0;-329;4050;195;8;0.6855956;-0.7265847;-0.03047091;-0.033241;0;-3;0;14;4114;271;0.4568905;2.843073;0.00346493;0.4628623;3.387263;0.04145066;0.4681131;3.865746;0.07282224;0.4283523;4.591805;0.1714182;0.1520909;4.905478;0.1774578;-0.1806398;4.739598;0.2211984;-0.3092524;3.824544;0.1543804;0.02812906;3.09292;-0.344314;0.671656;4.933936;0.1774417;0.9682075;4.802523;0.2211634;1.129818;3.852724;0.2147228;0.9193937;3.020399;-0.1862043;0.1446429;2.801638;-0.007339699;0.07304449;1.341953;-0.07843916;0;0;0;0.1446429;2.801638;-0.007339699;0.07304449;1.341953;-0.07843916;0;0;0
1315678.5519;NotLabelled;NONE;16384;0.6765485;-0.5720221;0.3531856;0.300554;-13;-11;15;263;3897;662;65536;0.719646;-0.4875346;0.03601108;0.4930748;-1;0;-81;-2838;2981;104;8192;0.5207756;-0.4265928;-0.5619839;-0.4806094;-3;-19;-15;-128;3985;557;32768;0.6295696;-0.4487534;-0.2590028;-0.5789474;-12;-33;40;2041;3590;347;256;-0.006925208;0.04986149;-0.6565097;-0.752636;5;-9;0;-233;3970;-531;128;0.08864266;-0.02631579;0.5747922;0.8130584;-3;-9;-1;-499;3827;1374;4;0.6342795;-0.5858725;0.3614958;0.3518005;-1;-11;1;53;4070;220;16;0.6509695;-0.7000464;-0.1925208;-0.2216066;1;-4;0;137;4100;400;2;0.4487534;-0.3878116;-0.5707447;-0.567867;2;-10;0;-371;4100;173;8;0.6855956;-0.7266414;-0.02908587;-0.033241;0;-4;0;6;4092;217;0.4585653;2.842996;-0.0005393624;0.4645355;3.387033;0.0395747;0.4697848;3.865391;0.07281764;0.4299728;4.591072;0.1741254;0.1536828;4.904695;0.1813818;-0.1790246;4.738622;0.224562;-0.3103007;3.824289;0.1531886;0.04096106;3.109557;-0.3602003;0.6732452;4.933202;0.1813812;0.9698166;4.801654;0.2245613;1.131477;3.85192;0.212515;0.9175372;3.026021;-0.1996854;0.1463182;2.801603;-0.01151925;0.07350863;1.341846;-0.07983693;0;0;0;0.1463182;2.801603;-0.01151925;0.07350863;1.341846;-0.07983693;0;0;0
