SEP=;
index;label;segment;RightUpperArm_boneIndex;RightUpperArm_quat9x_w;RightUpperArm_quat9x_x;RightUpperArm_quat9x_y;RightUpperArm_quat9x_z;RightUpperArm_gyroscope_x;RightUpperArm_gyroscope_y;RightUpperArm_gyroscope_z;RightUpperArm_accelerometer_x;RightUpperArm_accelerometer_y;RightUpperArm_accelerometer_z;RightLowerArm_boneIndex;RightLowerArm_quat9x_w;RightLowerArm_quat9x_x;RightLowerArm_quat9x_y;RightLowerArm_quat9x_z;RightLowerArm_gyroscope_x;RightLowerArm_gyroscope_y;RightLowerArm_gyroscope_z;RightLowerArm_accelerometer_x;RightLowerArm_accelerometer_y;RightLowerArm_accelerometer_z;LeftUpperArm_boneIndex;LeftUpperArm_quat9x_w;LeftUpperArm_quat9x_x;LeftUpperArm_quat9x_y;LeftUpperArm_quat9x_z;LeftUpperArm_gyroscope_x;LeftUpperArm_gyroscope_y;LeftUpperArm_gyroscope_z;LeftUpperArm_accelerometer_x;LeftUpperArm_accelerometer_y;LeftUpperArm_accelerometer_z;LeftLowerArm_boneIndex;LeftLowerArm_quat9x_w;LeftLowerArm_quat9x_x;LeftLowerArm_quat9x_y;LeftLowerArm_quat9x_z;LeftLowerArm_gyroscope_x;LeftLowerArm_gyroscope_y;LeftLowerArm_gyroscope_z;LeftLowerArm_accelerometer_x;LeftLowerArm_accelerometer_y;LeftLowerArm_accelerometer_z;Chest_boneIndex;Chest_quat9x_w;Chest_quat9x_x;Chest_quat9x_y;Chest_quat9x_z;Chest_gyroscope_x;Chest_gyroscope_y;Chest_gyroscope_z;Chest_accelerometer_x;Chest_accelerometer_y;Chest_accelerometer_z;Spine_boneIndex;Spine_quat9x_w;Spine_quat9x_x;Spine_quat9x_y;Spine_quat9x_z;Spine_gyroscope_x;Spine_gyroscope_y;Spine_gyroscope_z;Spine_accelerometer_x;Spine_accelerometer_y;Spine_accelerometer_z;RightUpperLeg_boneIndex;RightUpperLeg_quat9x_w;RightUpperLeg_quat9x_x;RightUpperLeg_quat9x_y;RightUpperLeg_quat9x_z;RightUpperLeg_gyroscope_x;RightUpperLeg_gyroscope_y;RightUpperLeg_gyroscope_z;RightUpperLeg_accelerometer_x;RightUpperLeg_accelerometer_y;RightUpperLeg_accelerometer_z;RightLowerLeg_boneIndex;RightLowerLeg_quat9x_w;RightLowerLeg_quat9x_x;RightLowerLeg_quat9x_y;RightLowerLeg_quat9x_z;RightLowerLeg_gyroscope_x;RightLowerLeg_gyroscope_y;RightLowerLeg_gyroscope_z;RightLowerLeg_accelerometer_x;RightLowerLeg_accelerometer_y;RightLowerLeg_accelerometer_z;LeftUpperLeg_boneIndex;LeftUpperLeg_quat9x_w;LeftUpperLeg_quat9x_x;LeftUpperLeg_quat9x_y;LeftUpperLeg_quat9x_z;LeftUpperLeg_gyroscope_x;LeftUpperLeg_gyroscope_y;LeftUpperLeg_gyroscope_z;LeftUpperLeg_accelerometer_x;LeftUpperLeg_accelerometer_y;LeftUpperLeg_accelerometer_z;LeftLowerLeg_boneIndex;LeftLowerLeg_quat9x_w;LeftLowerLeg_quat9x_x;LeftLowerLeg_quat9x_y;LeftLowerLeg_quat9x_z;LeftLowerLeg_gyroscope_x;LeftLowerLeg_gyroscope_y;LeftLowerLeg_gyroscope_z;LeftLowerLeg_accelerometer_x;LeftLowerLeg_accelerometer_y;LeftLowerLeg_accelerometer_z;pelvis_x;pelvis_y;pelvis_z;lowerSpine_x;lowerSpine_y;lowerSpine_z;middleSpine_x;middleSpine_y;middleSpine_z;upperSpine_x;upperSpine_y;upperSpine_z;rightClavicle_x;rightClavicle_y;rightClavicle_z;rightShoulder_x;rightShoulder_y;rightShoulder_z;rightElbow_x;rightElbow_y;rightElbow_z;rightWrist_x;rightWrist_y;rightWrist_z;leftClavicle_x;leftClavicle_y;leftClavicle_z;leftShoulder_x;leftShoulder_y;leftShoulder_z;leftElbow_x;leftElbow_y;leftElbow_z;leftWrist_x;leftWrist_y;leftWrist_z;rightHip_x;rightHip_y;rightHip_z;rightKnee_x;rightKnee_y;rightKnee_z;rightAnkle_x;rightAnkle_y;rightAnkle_z;leftHip_x;leftHip_y;leftHip_z;leftKnee_x;leftKnee_y;leftKnee_z;leftAnkle_x;leftAnkle_y;leftAnkle_z;
133307.6526;NotLabelled;NONE;16384;0.6861913;-0.6731302;0.2756233;0.008310249;0;1;0;-1561;3783;438;65536;0.7036011;-0.7096092;0.03739612;-0.001385042;-1;4;0;258;4078;-48;8192;0.4155124;-0.5927978;-0.6196247;-0.3033241;0;-3;-1;2056;3591;493;32768;0.5609418;-0.6074619;-0.4099723;-0.3850415;0;-3;0;-245;4123;-14;256;-0.1481994;-0.002770083;-0.9803463;-0.1301939;-3;1;0;205;1006;3855;128;0.2036011;-0.05540166;0.9451576;0.2493075;6;-5;0;53;1967;-3524;4;0.2603878;-0.7393463;0.6121883;0.1038781;0;0;-1;-3463;2106;-456;16;0.04570637;-0.9848902;-0.1606648;-0.04570637;4;-2;1;-1263;466;3856;2;0.1288089;-0.6385041;-0.7019442;-0.2880886;1;-2;0;3243;2342;37;8;0.09418282;-0.9891631;0.08033241;-0.07894737;1;-2;0;731;757;3831;0.9415402;1.258922;1.702518;0.9430889;1.400065;1.175547;0.944429;1.522176;0.711817;0.9526559;1.708891;0.002216935;0.6962448;1.766423;-0.3228847;0.3563863;1.806771;-0.1712029;0.04679016;0.9460595;-0.02404476;0;0;0;1.216084;1.743517;-0.3228883;1.50584;1.756121;-0.1712087;1.774998;0.9182053;0.2208712;1.788264;-0.02666569;0.2903681;0.6295745;1.243177;1.744491;0.7560315;0.4937146;2.99476;1.045803;0.3564055;4.30224;0.6295745;1.243177;1.744491;0.7560315;0.4937146;2.99476;1.045803;0.3564055;4.30224
133329.6345;NotLabelled;NONE;16384;0.6861913;-0.6731302;0.2756233;0.008310249;-4;-1;1;-1503;3907;606;65536;0.702216;-0.7109798;0.03739612;-0.001385042;-3;4;0;176;4144;22;8192;0.4168975;-0.5927978;-0.6186936;-0.3033241;-3;1;-3;2082;3695;647;32768;0.5609418;-0.6083376;-0.4099723;-0.3836565;-2;-1;-1;-291;4115;74;256;-0.1481994;-0.002770083;-0.9805292;-0.1288089;-3;0;0;181;1066;3771;128;0.2036011;-0.05540166;0.9451576;0.2493075;-1;4;0;1;2075;-3602;4;0.2603878;-0.7393463;0.6121883;0.1038781;0;0;-1;-3391;2066;-516;16;0.04709141;-0.9850499;-0.1592798;-0.04570637;3;-4;1;-1303;462;3828;2;0.1288089;-0.6385041;-0.7013742;-0.2894737;0;0;-1;3189;2368;57;8;0.09418282;-0.9891631;0.08033241;-0.07894737;0;-1;0;701;745;3823;0.9415452;1.261084;1.699653;0.9430778;1.400751;1.172289;0.9444035;1.521562;0.7082191;0.9526309;1.708277;-0.00138104;0.69622;1.76581;-0.3264831;0.3563614;1.806157;-0.174801;0.04679021;0.9460599;-0.02404449;0;0;0;1.21606;1.742904;-0.3264859;1.505815;1.755508;-0.1748062;1.77748;0.9188428;0.2182134;1.790747;-0.02602863;0.2877108;0.6295809;1.245457;1.741679;0.756037;0.4959943;2.991948;1.046291;0.3550198;4.298932;0.6295809;1.245457;1.741679;0.756037;0.4959943;2.991948;1.046291;0.3550198;4.298932
133349.6421;NotLabelled;NONE;16384;0.6875473;-0.6717451;0.2756233;0.008310249;-1;4;0;-1283;3803;302;65536;0.702216;-0.7110472;0.03601108;-0.002770083;0;4;0;198;4066;60;8192;0.4182825;-0.5927978;-0.617758;-0.3033241;0;-7;0;1742;3507;197;32768;0.5609418;-0.6083376;-0.4099723;-0.3836565;1;-4;0;-293;4071;210;256;-0.1481994;-0.002770083;-0.9805292;-0.1288089;-2;0;0;123;1282;3637;128;0.2036011;-0.05540166;0.9451576;0.2493075;8;-2;0;63;2163;-3616;4;0.2603878;-0.7393463;0.6121883;0.1038781;0;0;0;-3525;2074;-518;16;0.04709141;-0.9850499;-0.1592798;-0.04570637;3;-2;1;-1291;446;3758;2;0.1288089;-0.6385041;-0.7013742;-0.2894737;0;-1;-2;3295;2266;9;8;0.09418282;-0.9891631;0.08033241;-0.07894737;0;-2;0;689;671;3895;0.940583;1.263727;1.69681;0.9421158;1.403394;1.169446;0.9434414;1.524205;0.705376;0.9515062;1.708962;-0.004738271;0.6950325;1.765491;-0.3299663;0.3551756;1.806118;-0.1783553;0.04562752;0.9460208;-0.0275511;0;0;0;1.214881;1.742797;-0.3299699;1.50465;1.75594;-0.1783609;1.776604;0.9182346;0.2122366;1.791377;-0.0264914;0.2833853;0.6286186;1.2481;1.738836;0.7551496;0.498637;2.989098;1.045768;0.3541405;4.295616;0.6286186;1.2481;1.738836;0.7551496;0.498637;2.989098;1.045768;0.3541405;4.295616
133369.6493;NotLabelled;NONE;16384;0.6867461;-0.6731302;0.2742382;0.008310249;2;7;0;-1511;3745;180;65536;0.702216;-0.7110472;0.03601108;-0.002770083;0;0;0;282;4012;26;8192;0.4168975;-0.5927978;-0.6186936;-0.3033241;1;-1;0;2152;3555;431;32768;0.5609418;-0.6092688;-0.4085872;-0.3836565;0;0;0;-375;4071;114;256;-0.1481994;-0.002770083;-0.9805292;-0.1288089;-3;0;0;257;1172;3865;128;0.2022161;-0.05401662;0.9458992;0.2479224;4;-6;0;-11;2011;-3588;4;0.2603878;-0.7393463;0.6121883;0.1038781;0;0;0;-3539;2152;-414;16;0.04709141;-0.9850499;-0.1592798;-0.04570637;1;0;1;-1267;408;3716;2;0.1288089;-0.6385041;-0.7013742;-0.2894737;0;-3;-1;3317;2330;45;8;0.09418282;-0.9891592;0.08171745;-0.07756232;0;-3;0;723;713;3963;0.9422942;1.263655;1.699909;0.9438269;1.403321;1.172546;0.9451525;1.524133;0.7084754;0.9532173;1.70889;-0.001638889;0.6967436;1.765418;-0.3268669;0.3568868;1.806045;-0.175256;0.04565362;0.9460194;-0.02754743;0;0;0;1.216592;1.742725;-0.3268705;1.506361;1.755868;-0.1752616;1.778533;0.9171245;0.21295;1.793305;-0.02760148;0.284099;0.6303298;1.248027;1.741936;0.7568609;0.4985645;2.992197;1.047479;0.354068;4.298715;0.6303298;1.248027;1.741936;0.7568609;0.4985645;2.992197;1.047479;0.354068;4.298715
133390.6357;NotLabelled;NONE;16384;0.6867614;-0.6731302;0.2742382;0.006925208;1;-1;0;-1767;3711;374;65536;0.702216;-0.7110472;0.03601108;-0.002770083;0;-2;0;296;4050;-66;8192;0.4168975;-0.5927978;-0.6186936;-0.3033241;0;6;1;1980;3601;601;32768;0.5609418;-0.6083376;-0.4099723;-0.3836565;1;2;0;-297;4157;112;256;-0.1481994;-0.004155125;-0.9807053;-0.1274238;-5;0;-1;245;946;3985;128;0.2022161;-0.05401662;0.9458992;0.2479224;-2;-1;0;33;1927;-3522;4;0.2603878;-0.7393463;0.6121883;0.1038781;0;-2;1;-3529;2112;-378;16;0.04847645;-0.9849827;-0.1592798;-0.04570637;2;0;0;-1213;474;3822;2;0.1301939;-0.6385041;-0.7011184;-0.2894737;0;-3;0;3333;2330;53;8;0.09418282;-0.9891592;0.08171745;-0.07756232;0;-3;0;721;779;3975;0.9396576;1.267777;1.69951;0.9411704;1.405646;1.171673;0.9424788;1.524876;0.7071943;0.9505442;1.709632;-0.002920032;0.6940708;1.766161;-0.3281483;0.3542138;1.806788;-0.1765378;0.04565383;0.9460199;-0.02754756;0;0;0;1.21392;1.743468;-0.3281512;1.503688;1.75661;-0.176542;1.775598;0.918905;0.2140862;1.788314;-0.0258038;0.2858591;0.6276947;1.252293;1.741601;0.7542246;0.5028307;2.991863;1.044842;0.3583341;4.298381;0.6276947;1.252293;1.741601;0.7542246;0.5028307;2.991863;1.044842;0.3583341;4.298381
133411.3749;NotLabelled;NONE;16384;0.6861913;-0.6731302;0.2756233;0.008310249;0;1;0;-1273;3787;418;65536;0.702216;-0.7110472;0.03601108;-0.002770083;0;2;0;214;4046;48;8192;0.4168975;-0.5927978;-0.6186936;-0.3033241;0;0;1;1742;3525;503;32768;0.5609418;-0.6083376;-0.4099723;-0.3836565;0;-3;1;-225;4071;104;256;-0.1481994;-0.004155125;-0.9807053;-0.1274238;-2;0;-1;103;1060;3777;128;0.2022161;-0.05401662;0.9455351;0.2493075;0;0;0;59;2059;-3606;4;0.2603878;-0.7391503;0.6121883;0.1052632;0;-3;0;-3457;2114;-464;16;0.04847645;-0.9849827;-0.1592798;-0.04570637;1;-3;0;-1147;526;3870;2;0.1301939;-0.6398892;-0.6998546;-0.2894737;0;-1;0;3343;2342;33;8;0.09418282;-0.9891592;0.08171745;-0.07756232;0;0;0;809;739;3939;0.9408271;1.268525;1.699874;0.9423401;1.406394;1.172037;0.9436486;1.525623;0.7075578;0.9520374;1.708118;-0.003137231;0.6956479;1.764213;-0.3285072;0.3559075;1.806103;-0.1769783;0.04566117;0.9460196;-0.02753495;0;0;0;1.215443;1.740319;-0.3285104;1.505263;1.753271;-0.1769835;1.77711;0.9155653;0.2136891;1.791863;-0.02916098;0.2848426;0.6288643;1.253041;1.741965;0.7550505;0.5035789;2.992262;1.045782;0.3554173;4.298344;0.6288643;1.253041;1.741965;0.7550505;0.5035789;2.992262;1.045782;0.3554173;4.298344
133431.6196;NotLabelled;NONE;16384;0.6867461;-0.6731302;0.2742382;0.008310249;1;5;-1;-1519;3735;458;65536;0.702216;-0.7111161;0.03462604;-0.002770083;0;2;-1;318;4014;22;8192;0.4168975;-0.5927978;-0.6186936;-0.3033241;0;-5;2;1900;3595;453;32768;0.5623268;-0.6079907;-0.4085872;-0.3836565;0;-5;1;-303;4101;136;256;-0.1468144;-0.004155125;-0.9809136;-0.1274238;-3;-1;0;207;1274;3761;128;0.2022161;-0.05401662;0.9458992;0.2479224;3;-4;0;-59;2145;-3620;4;0.2603878;-0.738001;0.6135734;0.1052632;0;0;0;-3509;2080;-442;16;0.04847645;-0.9854267;-0.1565097;-0.04570637;1;-4;0;-1277;440;3816;2;0.1301939;-0.6398892;-0.6998546;-0.2894737;0;-3;0;3345;2346;57;8;0.09418282;-0.9890438;0.08310249;-0.07756232;0;-2;0;691;707;3901;0.9401261;1.265761;1.697844;0.9416552;1.405108;1.170395;0.942978;1.525638;0.7062521;0.9513665;1.708132;-0.004443169;0.694977;1.764227;-0.3298132;0.3552367;1.806117;-0.1782843;0.04566152;0.9460199;-0.02753505;0;0;0;1.214772;1.740333;-0.3298164;1.504593;1.753284;-0.1782898;1.776477;0.9155791;0.2123567;1.79123;-0.02914643;0.2835106;0.6281619;1.250159;1.739882;0.7569126;0.4983652;2.988516;1.047644;0.3502047;4.294598;0.6281619;1.250159;1.739882;0.7569126;0.4983652;2.988516;1.047644;0.3502047;4.294598
133451.7176;NotLabelled;NONE;16384;0.6867461;-0.6731302;0.2742382;0.008310249;1;0;-1;-1705;3731;354;65536;0.702216;-0.7111161;0.03462604;-0.002770083;0;0;-3;238;4088;-16;8192;0.4168975;-0.5941828;-0.6180422;-0.301939;0;-1;1;1834;3543;447;32768;0.5623268;-0.6088625;-0.4085872;-0.3822715;0;-2;0;-327;4111;180;256;-0.1468144;-0.004155125;-0.9810925;-0.1260388;-4;0;0;199;1052;3823;128;0.2022161;-0.05263158;0.9459773;0.2479224;0;-1;0;-3;1999;-3528;4;0.2603878;-0.738001;0.6135734;0.1052632;0;-2;0;-3363;2170;-432;16;0.04847645;-0.9854267;-0.1565097;-0.04570637;1;0;0;-1323;514;3812;2;0.1301939;-0.6398892;-0.6998546;-0.2894737;0;-3;0;3403;2258;61;8;0.09418282;-0.9890438;0.08310249;-0.07756232;0;-2;0;733;707;3959;0.9380007;1.26946;1.701906;0.9395136;1.407329;1.174069;0.940822;1.526558;0.7095903;0.9491483;1.709101;-0.001093328;0.6927397;1.765125;-0.3264604;0.3529844;1.806886;-0.17493;0.04397248;0.9461186;-0.0268785;0;0;0;1.212543;1.741415;-0.3264634;1.502359;1.754458;-0.1749354;1.773079;0.9167531;0.2165176;1.786646;-0.02819276;0.28493;0.6260379;1.253976;1.743997;0.7499658;0.5026305;2.99339;1.036665;0.3547518;4.300395;0.6260379;1.253976;1.743997;0.7499658;0.5026305;2.99339;1.036665;0.3547518;4.300395
133471.909;NotLabelled;NONE;16384;0.6861913;-0.6731302;0.2756233;0.008310249;0;-4;-1;-1491;3759;422;65536;0.702216;-0.7111161;0.03462604;-0.002770083;0;3;-2;216;4112;22;8192;0.4168975;-0.5941828;-0.6180422;-0.301939;1;-2;1;1784;3621;445;32768;0.5623268;-0.6097896;-0.4072022;-0.3822715;0;-1;0;-235;4155;104;256;-0.1468144;-0.004155125;-0.9810925;-0.1260388;-4;0;0;167;1036;3937;128;0.2022161;-0.05263158;0.9459773;0.2479224;0;-1;0;13;2055;-3624;4;0.2603878;-0.738001;0.6135734;0.1052632;0;0;1;-3423;2164;-426;16;0.04986149;-0.9851366;-0.1578947;-0.04570637;0;2;0;-1253;544;3826;2;0.1301939;-0.6398892;-0.6998546;-0.2894737;0;-1;0;3323;2340;27;8;0.09418282;-0.9890438;0.08310249;-0.07756232;0;-3;0;713;719;3979;0.93821;1.272826;1.703179;0.9397193;1.410378;1.17526;0.9410246;1.52933;0.7107091;0.9491737;1.709912;-0.0004772544;0.6926953;1.764933;-0.3259606;0.352945;1.806975;-0.1744958;0.04397073;0.9461186;-0.02688185;0;0;0;1.212508;1.741433;-0.3259741;1.50234;1.755013;-0.1745251;1.773874;0.9179988;0.2178416;1.788948;-0.02680397;0.2879013;0.6262474;1.257367;1.745281;0.7502775;0.5060215;2.994663;1.037084;0.3581429;4.301645;0.6262474;1.257367;1.745281;0.7502775;0.5060215;2.994663;1.037084;0.3581429;4.301645
133492.6913;NotLabelled;NONE;16384;0.6861913;-0.6731302;0.2756233;0.008310249;1;1;0;-1231;3791;428;65536;0.702216;-0.7111821;0.033241;-0.002770083;-1;4;-1;170;4102;-10;8192;0.4168975;-0.5941828;-0.6180422;-0.301939;0;0;0;1912;3663;479;32768;0.5623268;-0.6097896;-0.4072022;-0.3822715;0;0;-1;-169;4121;154;256;-0.1468144;-0.004155125;-0.9810925;-0.1260388;-2;0;0;249;1112;3913;128;0.200831;-0.05124654;0.9463483;0.2479224;0;-4;0;-37;2095;-3686;4;0.2603878;-0.738001;0.6135734;0.1052632;-1;0;1;-3467;2026;-434;16;0.04986149;-0.9853575;-0.1565097;-0.04570637;0;-1;0;-1133;436;3802;2;0.1301939;-0.6398892;-0.6998546;-0.2894737;0;-1;0;3327;2422;45;8;0.09418282;-0.9890438;0.08310249;-0.07756232;0;0;0;669;779;3961;0.9392158;1.272068;1.700929;0.9407253;1.40962;1.17301;0.9420307;1.528571;0.7084599;0.9501941;1.709153;-0.002726555;0.6937224;1.764175;-0.3282148;0.353969;1.806216;-0.1767572;0.04397099;0.9461195;-0.02688113;0;0;0;1.213535;1.740675;-0.3282179;1.503364;1.754254;-0.1767628;1.77486;0.9174752;0.2161307;1.787876;-0.0273118;0.2868078;0.6272534;1.256608;1.743032;0.7512581;0.5052631;2.992416;1.038704;0.3535783;4.298821;0.6272534;1.256608;1.743032;0.7512581;0.5052631;2.992416;1.038704;0.3535783;4.298821
133514.6224;NotLabelled;NONE;16384;0.6861913;-0.6731302;0.2756233;0.008310249;1;2;0;-1329;3899;506;65536;0.702216;-0.7111821;0.033241;-0.002770083;-2;4;0;150;4094;-16;8192;0.4182825;-0.5941828;-0.6171056;-0.301939;-1;0;0;1982;3697;533;32768;0.5623268;-0.6097896;-0.4072022;-0.3822715;0;0;-1;-253;4077;116;256;-0.1468144;-0.004155125;-0.9810925;-0.1260388;-3;1;0;265;1032;3925;128;0.200831;-0.05124654;0.9463483;0.2479224;0;-1;1;-119;2011;-3684;4;0.2603878;-0.738001;0.6135734;0.1052632;0;0;0;-3455;2100;-460;16;0.04986149;-0.9853575;-0.1565097;-0.04570637;0;-3;0;-1229;468;3862;2;0.1301939;-0.6412742;-0.6985856;-0.2894737;0;0;0;3361;2384;127;8;0.09418282;-0.9890438;0.08310249;-0.07756232;0;0;0;751;755;3953;0.9374613;1.272751;1.701618;0.9389675;1.40999;1.173617;0.9402698;1.528665;0.7089959;0.9484334;1.709247;-0.00219053;0.6919614;1.764269;-0.3276788;0.3522081;1.806311;-0.1762213;0.04220635;0.946214;-0.02635153;0;0;0;1.211774;1.740769;-0.3276819;1.501604;1.754349;-0.1762267;1.773092;0.9175694;0.2166722;1.786107;-0.02721786;0.2873492;0.625499;1.257317;1.743731;0.7495036;0.5059714;2.993116;1.036745;0.3544278;4.299582;0.625499;1.257317;1.743731;0.7495036;0.5059714;2.993116;1.036745;0.3544278;4.299582
133535.6293;NotLabelled;NONE;16384;0.6867461;-0.6731302;0.2742382;0.008310249;2;1;3;-1269;3869;272;65536;0.702216;-0.7112387;0.03185596;-0.004155125;-2;4;3;192;4120;36;8192;0.4182825;-0.5941828;-0.6171056;-0.301939;-1;-3;-1;1814;3583;499;32768;0.5623268;-0.6097896;-0.4072022;-0.3822715;-1;-2;-2;-287;4077;244;256;-0.1468144;-0.004155125;-0.9810925;-0.1260388;-1;0;0;155;1082;3929;128;0.200831;-0.05124654;0.9463483;0.2479224;1;2;0;-23;2087;-3572;4;0.2603878;-0.738001;0.6135734;0.1052632;0;1;1;-3381;2180;-440;16;0.04986149;-0.9853575;-0.1565097;-0.04570637;0;1;0;-1279;446;3876;2;0.1301939;-0.6398892;-0.6998546;-0.2894737;0;1;0;3345;2340;17;8;0.09418282;-0.9890438;0.08310249;-0.07756232;0;0;0;767;797;3899;0.9374574;1.272752;1.701612;0.9389633;1.409991;1.173612;0.9402655;1.528667;0.7089905;0.9484295;1.709248;-0.002195776;0.6919579;1.76427;-0.327684;0.3522045;1.806311;-0.1762268;0.04220596;0.9462144;-0.02635138;0;0;0;1.211771;1.74077;-0.327687;1.5016;1.75435;-0.1762317;1.773318;0.9165277;0.2142782;1.786334;-0.02825975;0.2849554;0.6254951;1.257317;1.743726;0.749499;0.5059721;2.99311;1.03674;0.3544278;4.299577;0.6254951;1.257317;1.743726;0.749499;0.5059721;2.99311;1.03674;0.3544278;4.299577
133556.6685;NotLabelled;NONE;16384;0.6859201;-0.6745152;0.2728532;0.009695291;2;4;3;-1403;3771;296;65536;0.702216;-0.7111659;0.033241;-0.005540166;-1;4;1;358;3998;-6;8192;0.4182825;-0.5941828;-0.6171056;-0.301939;-1;1;0;2240;3527;431;32768;0.5623268;-0.6097896;-0.4072022;-0.3822715;-2;1;0;-315;4157;196;256;-0.1468144;-0.004155125;-0.9810925;-0.1260388;-2;1;1;247;1074;3975;128;0.200831;-0.05124654;0.9463483;0.2479224;0;0;0;-49;2061;-3742;4;0.2603878;-0.7391503;0.6121883;0.1052632;0;2;2;-3499;2066;-398;16;0.04986149;-0.9853575;-0.1565097;-0.04570637;-1;0;0;-1169;544;3726;2;0.1301939;-0.6398892;-0.6998546;-0.2894737;0;0;0;3353;2378;-39;8;0.09418282;-0.9890438;0.08310249;-0.07756232;0;0;-1;791;701;3981;0.936476;1.273421;1.703399;0.9379819;1.41066;1.175398;0.9392841;1.529336;0.710777;0.9474481;1.709918;-0.0004092455;0.6909765;1.764939;-0.3258976;0.3512231;1.806981;-0.1744403;0.0422346;0.946213;-0.02634118;0;0;0;1.21079;1.741439;-0.3259005;1.500619;1.755019;-0.1744452;1.772337;0.9171972;0.2160647;1.785352;-0.02759027;0.286742;0.6245137;1.257987;1.745512;0.7485176;0.5066416;2.994897;1.035758;0.3550973;4.301364;0.6245137;1.257987;1.745512;0.7485176;0.5066416;2.994897;1.035758;0.3550973;4.301364
133578.6292;NotLabelled;NONE;16384;0.6859383;-0.6745152;0.2728532;0.008310249;0;3;-1;-1609;3693;460;65536;0.700831;-0.7125942;0.03185596;-0.005540166;-2;7;0;306;4076;-50;8192;0.4182825;-0.5941828;-0.6171056;-0.301939;-1;4;-1;2086;3631;453;32768;0.5609418;-0.611064;-0.4072022;-0.3822715;-1;0;0;-219;4121;154;256;-0.1468144;-0.004155125;-0.9812694;-0.1246537;-3;3;1;319;1074;3915;128;0.2022161;-0.05124654;0.9460533;0.2479224;1;1;0;-133;1985;-3726;4;0.2617728;-0.738661;0.6121883;0.1052632;0;2;2;-3573;2126;-404;16;0.04986149;-0.9853575;-0.1565097;-0.04570637;-1;-1;0;-1267;488;3748;2;0.1315789;-0.6398892;-0.6995955;-0.2894737;0;0;0;3395;2384;47;8;0.09418282;-0.9890438;0.08310249;-0.07756232;0;0;0;767;741;4015;0.9356787;1.274633;1.701519;0.9371846;1.411872;1.173519;0.9384869;1.530548;0.7088976;0.9466509;1.71113;-0.002288759;0.6901792;1.766151;-0.327777;0.3504259;1.808193;-0.1763198;0.04579432;0.9460175;-0.02738261;0;0;0;1.209992;1.742651;-0.32778;1.499821;1.756231;-0.1763246;1.771539;0.9184091;0.2141852;1.784555;-0.02637839;0.2848624;0.6237165;1.259199;1.743633;0.7490703;0.5074043;2.992612;1.036311;0.35586;4.299078;0.6237165;1.259199;1.743633;0.7490703;0.5074043;2.992612;1.036311;0.35586;4.299078
133599.6195;NotLabelled;NONE;16384;0.6859383;-0.6745152;0.2728532;0.008310249;-1;4;-3;-1543;3773;656;65536;0.700831;-0.7125821;0.03185596;-0.006925208;-3;9;-1;190;4122;16;8192;0.4182825;-0.5927978;-0.6184362;-0.301939;-1;2;-2;1852;3603;415;32768;0.5609418;-0.611064;-0.4072022;-0.3822715;-1;-3;0;-293;4121;210;256;-0.1468144;-0.004155125;-0.9812694;-0.1246537;-3;4;2;235;1004;3911;128;0.200831;-0.05124654;0.9463483;0.2479224;0;0;-1;7;2023;-3614;4;0.2617728;-0.738661;0.6121883;0.1052632;0;0;2;-3615;2188;-412;16;0.04847645;-0.9854267;-0.1565097;-0.04570637;-1;1;0;-1249;460;3878;2;0.1315789;-0.6412742;-0.6983261;-0.2894737;0;-1;1;3401;2370;-3;8;0.09418282;-0.9891515;0.08310249;-0.07617728;0;0;-1;723;709;3973;0.9346589;1.276688;1.698694;0.9361651;1.413925;1.170694;0.9374675;1.5326;0.7060722;0.9454706;1.71122;-0.0056113;0.6889365;1.765237;-0.3312179;0.3491848;1.80756;-0.1798355;0.04290357;0.9460621;-0.03036273;0;0;0;1.208759;1.741948;-0.3312209;1.498601;1.756064;-0.1798396;1.770367;0.9182405;0.2106347;1.782326;-0.02630091;0.2847073;0.6226966;1.261253;1.740808;0.744997;0.5068378;2.988509;1.032317;0.3552938;4.294958;0.6226966;1.261253;1.740808;0.744997;0.5068378;2.988509;1.032317;0.3552938;4.294958
133619.6849;NotLabelled;NONE;16384;0.6859537;-0.6745152;0.2728532;0.006925208;-2;3;-2;-1337;3953;338;65536;0.700831;-0.7126426;0.03047091;-0.006925208;-2;3;1;58;4166;236;8192;0.4182825;-0.5927978;-0.6184362;-0.301939;-1;-4;0;1746;3469;303;32768;0.5609418;-0.6119282;-0.4072022;-0.3808864;0;-2;0;-359;4061;244;256;-0.1468144;-0.004155125;-0.9814444;-0.1232687;-2;2;2;153;1058;3873;128;0.200831;-0.05124654;0.9463483;0.2479224;2;-1;-1;133;2043;-3608;4;0.2617728;-0.738661;0.6121883;0.1052632;0;0;2;-3631;2098;-386;16;0.04847645;-0.9854267;-0.1565097;-0.04570637;0;1;0;-1183;518;3938;2;0.1301939;-0.6412742;-0.6985856;-0.2894737;0;0;0;3421;2312;19;8;0.09418282;-0.9890438;0.08310249;-0.07756232;0;2;-1;729;687;3905;0.9364696;1.276585;1.698203;0.9379756;1.413824;1.170202;0.9392779;1.5325;0.7055814;0.9472805;1.71112;-0.006101966;0.6907463;1.765138;-0.3317089;0.3509946;1.80746;-0.1803263;0.04470445;0.9459627;-0.03086895;0;0;0;1.210569;1.741849;-0.3317121;1.500411;1.755965;-0.1803308;1.773947;0.9184723;0.2096168;1.785907;-0.02606964;0.2836896;0.6245074;1.261151;1.740317;0.7468081;0.5067356;2.988018;1.033666;0.3588567;4.294988;0.6245074;1.261151;1.740317;0.7468081;0.5067356;2.988018;1.033666;0.3588567;4.294988
133640.8985;NotLabelled;NONE;16384;0.6851519;-0.6759003;0.2714681;0.005540166;5;4;1;-1689;3683;164;65536;0.700831;-0.7126278;0.03047091;-0.008310249;1;-3;0;392;4056;48;8192;0.4182825;-0.5941828;-0.6171056;-0.301939;1;-3;2;1930;3519;387;32768;0.5609418;-0.6119282;-0.4072022;-0.3808864;2;-1;0;-279;4103;132;256;-0.1481994;-0.004155125;-0.9812362;-0.1232687;-3;0;1;177;1122;3793;128;0.200831;-0.05124654;0.9467101;0.2465374;5;0;0;65;2099;-3546;4;0.2617728;-0.738661;0.6121883;0.1052632;0;0;2;-3655;2102;-452;16;0.04847645;-0.9854267;-0.1565097;-0.04570637;0;-1;-1;-1125;374;3920;2;0.1301939;-0.6412742;-0.699158;-0.2880886;0;0;-1;3383;2312;77;8;0.09418282;-0.9891515;0.08310249;-0.07617728;0;0;0;783;649;3909;0.9365847;1.278689;1.698893;0.9380907;1.415928;1.170892;0.939393;1.534604;0.7062713;0.9472359;1.71126;-0.005903602;0.6906396;1.764276;-0.3316268;0.3508894;1.806878;-0.180319;0.04294189;0.9460616;-0.03034316;0;0;0;1.210472;1.741197;-0.33163;1.500326;1.755849;-0.1803244;1.773887;0.9183555;0.2096066;1.787366;-0.02603531;0.2853158;0.6246223;1.263255;1.741006;0.7469988;0.5088391;2.9887;1.033936;0.3609607;4.295653;0.6246223;1.263255;1.741006;0.7469988;0.5088391;2.9887;1.033936;0.3609607;4.295653
133661.7261;NotLabelled;NONE;16384;0.6851519;-0.6759003;0.2714681;0.005540166;1;-4;-1;-1717;3675;476;65536;0.700831;-0.7125821;0.03185596;-0.006925208;1;-2;0;266;4120;58;8192;0.4168975;-0.5927978;-0.6193708;-0.301939;0;2;1;1874;3641;665;32768;0.5609418;-0.6119282;-0.4072022;-0.3808864;0;-1;0;-259;4075;84;256;-0.1481994;-0.004155125;-0.9812362;-0.1232687;-2;0;0;185;1020;3775;128;0.2022161;-0.05124654;0.9464152;0.2465374;3;1;0;-43;1951;-3540;4;0.2617728;-0.738661;0.6121883;0.1052632;0;0;0;-3447;2164;-418;16;0.04847645;-0.9854267;-0.1565097;-0.04570637;0;3;0;-1283;418;3968;2;0.1301939;-0.6398892;-0.7004258;-0.2880886;-1;0;-1;3395;2288;21;8;0.09418282;-0.9891515;0.08310249;-0.07617728;0;0;0;817;671;4011;0.9368122;1.281263;1.696319;0.938302;1.417023;1.167936;0.9395901;1.534397;0.7029845;0.9474914;1.711008;-0.00920105;0.6909125;1.76409;-0.3349269;0.3511772;1.806817;-0.1836212;0.0446593;0.945962;-0.03096715;0;0;0;1.210736;1.740835;-0.33493;1.500597;1.755397;-0.183626;1.773411;0.9175754;0.2061188;1.7871;-0.02681637;0.2817897;0.6248512;1.265947;1.738485;0.7506981;0.5115318;2.985833;1.041271;0.3636532;4.291983;0.6248512;1.265947;1.738485;0.7506981;0.5115318;2.985833;1.041271;0.3636532;4.291983
133683.7973;NotLabelled;NONE;16384;0.6845889;-0.6759003;0.2728532;0.006925208;0;-3;-2;-1347;3815;392;65536;0.700831;-0.7125821;0.03185596;-0.006925208;0;1;0;130;4114;26;8192;0.4182825;-0.5927978;-0.6184362;-0.301939;0;-3;0;1716;3647;531;32768;0.5623268;-0.6106557;-0.4072022;-0.3808864;-2;-5;-1;-233;4155;108;256;-0.1481994;-0.004155125;-0.9814092;-0.1218837;-3;1;0;173;1014;3831;128;0.2022161;-0.05124654;0.9464152;0.2465374;1;-1;0;29;1991;-3648;4;0.2617728;-0.738661;0.6121883;0.1052632;0;0;0;-3447;2098;-338;16;0.04847645;-0.9854267;-0.1565097;-0.04570637;0;2;0;-1169;450;3910;2;0.1301939;-0.6412742;-0.699158;-0.2880886;0;0;0;3345;2304;7;8;0.09418282;-0.9891515;0.08310249;-0.07617728;0;0;0;769;699;3973;0.9367564;1.281268;1.696262;0.9382461;1.417026;1.167878;0.9395339;1.534398;0.7029262;0.9474348;1.711009;-0.009259701;0.6908557;1.764091;-0.3349856;0.3511204;1.806818;-0.1836796;0.04461737;0.9459629;-0.03099584;0;0;0;1.21068;1.740836;-0.3349889;1.50054;1.755398;-0.1836848;1.774963;0.9189458;0.2078696;1.788653;-0.02544498;0.2835405;0.6247954;1.265952;1.738428;0.750643;0.5115361;2.985777;1.041216;0.3636575;4.291926;0.6247954;1.265952;1.738428;0.750643;0.5115361;2.985777;1.041216;0.3636575;4.291926
133703.7639;NotLabelled;NONE;16384;0.6845889;-0.6759003;0.2728532;0.006925208;1;4;0;-1257;3859;402;65536;0.700831;-0.7126426;0.03047091;-0.006925208;0;3;1;98;4128;42;8192;0.4182825;-0.5927978;-0.6184362;-0.301939;-1;-3;0;1924;3623;501;32768;0.5609418;-0.6119282;-0.4072022;-0.3808864;-1;-3;-2;-293;4175;136;256;-0.1481994;-0.004155125;-0.9814092;-0.1218837;-3;2;0;161;1068;3941;128;0.2022161;-0.05124654;0.946775;0.2451524;0;0;0;-7;2061;-3680;4;0.2617728;-0.738661;0.6121883;0.1052632;0;0;0;-3415;2022;-456;16;0.04847645;-0.9854267;-0.1565097;-0.04570637;0;0;0;-1209;432;3878;2;0.1301939;-0.6412742;-0.699158;-0.2880886;0;0;0;3295;2292;83;8;0.09418282;-0.9891515;0.08310249;-0.07617728;0;2;0;739;701;3903;0.9362978;1.283966;1.695638;0.9377876;1.419724;1.167255;0.9390757;1.537097;0.7023028;0.946817;1.711745;-0.01036865;0.6901761;1.763822;-0.3362083;0.3504421;1.806828;-0.1849785;0.04461474;0.9459627;-0.03099828;0;0;0;1.21001;1.74078;-0.3362115;1.499883;1.755878;-0.1849839;1.774574;0.9183853;0.204151;1.789314;-0.02625632;0.2764232;0.6243368;1.26865;1.737804;0.7502596;0.5142348;2.985145;1.040912;0.3663561;4.291276;0.6243368;1.26865;1.737804;0.7502596;0.5142348;2.985145;1.040912;0.3663561;4.291276
133725.6289;NotLabelled;NONE;16384;0.6851394;-0.6759003;0.2714681;0.006925208;2;4;0;-1347;3847;440;65536;0.700831;-0.7126426;0.03047091;-0.006925208;-1;1;2;220;4114;2;8192;0.4182825;-0.5941828;-0.6171056;-0.301939;0;-2;0;1902;3555;409;32768;0.5609418;-0.6119282;-0.4072022;-0.3808864;-1;-1;-2;-211;4047;140;256;-0.1481994;-0.002770083;-0.9814141;-0.1218837;-2;2;0;231;1068;3903;128;0.2022161;-0.05263158;0.946699;0.2451524;0;3;0;-61;2021;-3606;4;0.2617728;-0.738661;0.6121883;0.1052632;0;0;0;-3353;2074;-494;16;0.04847645;-0.9854267;-0.1565097;-0.04570637;0;0;0;-1277;376;3794;2;0.1301939;-0.6398892;-0.7004258;-0.2880886;0;1;0;3385;2380;83;8;0.09418282;-0.9891515;0.08310249;-0.07617728;0;2;0;707;745;3857;0.9345788;1.286844;1.696894;0.9360524;1.421123;1.168133;0.9373263;1.537195;0.702854;0.9450671;1.711842;-0.009817779;0.6884262;1.763919;-0.3356569;0.3486922;1.806925;-0.1844273;0.04285548;0.9460602;-0.03046503;0;0;0;1.20826;1.740877;-0.3356601;1.498133;1.755975;-0.1844329;1.7728;0.918483;0.2047182;1.786494;-0.02590823;0.2803886;0.6226192;1.271646;1.739112;0.7485425;0.5172305;2.986453;1.039195;0.3693516;4.292584;0.6226192;1.271646;1.739112;0.7485425;0.5172305;2.986453;1.039195;0.3693516;4.292584
133746.813;NotLabelled;NONE;16384;0.6851394;-0.6759003;0.2714681;0.006925208;0;3;1;-1399;3813;438;65536;0.700831;-0.7126278;0.03047091;-0.008310249;-3;4;2;220;4130;-2;8192;0.4196676;-0.5941828;-0.6161646;-0.301939;0;-3;-2;1966;3545;395;32768;0.5609418;-0.6127882;-0.4072022;-0.3795014;-1;-1;-2;-355;4153;186;256;-0.1481994;-0.002770083;-0.9814141;-0.1218837;-1;1;1;283;930;3923;128;0.2022161;-0.05263158;0.946699;0.2451524;0;3;0;-3;1963;-3668;4;0.2631579;-0.7381687;0.6121883;0.1052632;0;4;0;-3289;2082;-522;16;0.04847645;-0.9854267;-0.1565097;-0.04570637;0;1;0;-1325;482;3746;2;0.1301939;-0.6398892;-0.6998546;-0.2894737;-1;2;-1;3365;2290;1;8;0.09418282;-0.9892669;0.08171745;-0.07617728;-1;1;0;805;673;3917;0.9341612;1.288084;1.697713;0.9356383;1.422679;1.169032;0.936915;1.539028;0.7038225;0.9442059;1.713977;-0.008779764;0.6874358;1.765486;-0.3346078;0.3475806;1.807507;-0.1833735;0.04284637;0.9460611;-0.03047804;0;0;0;1.20733;1.743858;-0.3346013;1.497156;1.759685;-0.1833577;1.770268;0.9220951;0.2066785;1.783984;-0.02229619;0.2823445;0.6222013;1.272861;1.73992;0.7484994;0.518446;2.987223;1.039544;0.3705668;4.293267;0.6222013;1.272861;1.73992;0.7484994;0.518446;2.987223;1.039544;0.3705668;4.293267
133767.6579;NotLabelled;NONE;16384;0.6851519;-0.6759003;0.2714681;0.005540166;-1;2;2;-1641;3811;336;65536;0.699446;-0.7139698;0.03047091;-0.009695291;-2;1;1;326;4080;98;8192;0.4196676;-0.5941828;-0.6161646;-0.301939;0;1;0;1986;3557;237;32768;0.5609418;-0.6127882;-0.4072022;-0.3795014;1;2;-1;-289;4117;294;256;-0.1481994;-0.002770083;-0.9815851;-0.1204986;-2;1;0;259;958;3937;128;0.2022161;-0.05401662;0.9466209;0.2451524;-1;5;0;101;1971;-3716;4;0.2631579;-0.7393152;0.6108033;0.1052632;0;3;2;-3509;2160;-496;16;0.04709141;-0.9850499;-0.1592798;-0.04570637;-2;4;0;-1343;470;3800;2;0.1301939;-0.6398892;-0.6998546;-0.2894737;-1;3;-1;3359;2322;71;8;0.09418282;-0.9892669;0.08171745;-0.07617728;-1;2;0;705;685;3963;0.9360231;1.288076;1.697798;0.9375;1.422671;1.169116;0.9387767;1.53902;0.7039075;0.9460542;1.713969;-0.008694708;0.6892781;1.765477;-0.334518;0.3494257;1.807498;-0.1832774;0.04464749;0.9459612;-0.0309839;0;0;0;1.209172;1.743849;-0.334521;1.499001;1.759676;-0.1832827;1.772204;0.9208136;0.2039427;1.787447;-0.02342296;0.2812314;0.6240631;1.272853;1.740005;0.7472471;0.5158226;2.986034;1.038316;0.367944;4.292073;0.6240631;1.272853;1.740005;0.7472471;0.5158226;2.986034;1.038316;0.367944;4.292073
133787.9952;NotLabelled;NONE;16384;0.6851519;-0.6759003;0.2714681;0.005540166;0;-1;0;-1723;3763;208;65536;0.699446;-0.7139698;0.03047091;-0.009695291;1;-2;0;234;4118;176;8192;0.4182825;-0.5941828;-0.6171056;-0.301939;2;1;1;1902;3477;265;32768;0.5609418;-0.6127882;-0.4072022;-0.3795014;3;4;0;-245;4105;256;256;-0.1481994;-0.002770083;-0.9815851;-0.1204986;-1;-1;0;117;1126;3719;128;0.2022161;-0.05401662;0.9466209;0.2451524;2;-3;0;73;2049;-3528;4;0.2631579;-0.7402591;0.6094183;0.1066482;0;2;2;-3635;2134;-510;16;0.04709141;-0.9849846;-0.1592798;-0.04709141;-2;4;0;-1321;492;3832;2;0.1301939;-0.6385041;-0.7011184;-0.2894737;0;3;-1;3349;2284;117;8;0.09418282;-0.9892669;0.08171745;-0.07617728;-1;3;0;821;711;3951;0.9385473;1.289227;1.69328;0.9400278;1.424139;1.16468;0.9413075;1.540767;0.6995406;0.9484454;1.713751;-0.01354253;0.691617;1.764254;-0.3394819;0.3517619;1.806554;-0.1883248;0.04532901;0.9457901;-0.03498398;0;0;0;1.21152;1.74284;-0.3394756;1.501356;1.759203;-0.18831;1.774592;0.9205723;0.1993965;1.789837;-0.02366376;0.276685;0.626587;1.273979;1.735476;0.7511762;0.5164924;2.981089;1.04222;0.3719959;4.287512;0.626587;1.273979;1.735476;0.7511762;0.5164924;2.981089;1.04222;0.3719959;4.287512
133808.618;NotLabelled;NONE;16384;0.6851394;-0.6759003;0.2714681;0.006925208;2;-3;0;-1393;3725;186;65536;0.699446;-0.7139268;0.03185596;-0.008310249;1;-3;0;186;4060;60;8192;0.4182825;-0.5941828;-0.6171056;-0.301939;5;0;0;1862;3527;601;32768;0.5609418;-0.6118656;-0.4085872;-0.3795014;1;2;-1;-385;4047;-2;256;-0.1481994;-0.002770083;-0.9815851;-0.1204986;-2;0;0;151;1026;3797;128;0.2022161;-0.05401662;0.9466209;0.2451524;0;-1;0;15;1993;-3490;4;0.2631579;-0.7402591;0.6094183;0.1066482;0;0;1;-3677;2144;-530;16;0.04709141;-0.9849846;-0.1592798;-0.04709141;-2;3;0;-1279;446;3924;2;0.1301939;-0.6385041;-0.7011184;-0.2894737;0;2;0;3345;2360;95;8;0.09418282;-0.9891592;0.08171745;-0.07756232;0;1;0;715;733;3965;0.9385663;1.289319;1.693793;0.9400469;1.424231;1.165192;0.9413269;1.540859;0.7000532;0.9484517;1.713844;-0.01302999;0.6916175;1.764347;-0.3389649;0.3517651;1.806646;-0.1878019;0.04532824;0.9457905;-0.03498526;0;0;0;1.211521;1.742932;-0.3389683;1.50136;1.759295;-0.1878074;1.774381;0.9214735;0.2017928;1.789628;-0.02276278;0.2790806;0.6266062;1.274072;1.735989;0.755138;0.5138147;2.979511;1.042598;0.3687322;4.286663;0.6266062;1.274072;1.735989;0.755138;0.5138147;2.979511;1.042598;0.3687322;4.286663
133829.7289;NotLabelled;NONE;16384;0.6845889;-0.6759003;0.2728532;0.006925208;2;-1;0;-1311;3825;434;65536;0.700831;-0.7125672;0.03185596;-0.008310249;0;0;0;314;4036;-82;8192;0.4182825;-0.5941828;-0.6171056;-0.301939;0;2;0;1902;3675;889;32768;0.5609418;-0.6118656;-0.4085872;-0.3795014;-2;-1;-3;-379;4117;-10;256;-0.1481994;-0.002770083;-0.9815851;-0.1204986;0;1;-1;201;1002;3941;128;0.2022161;-0.05401662;0.9466209;0.2451524;-3;3;1;37;2005;-3598;4;0.2631579;-0.7402591;0.6094183;0.1066482;0;0;0;-3533;2162;-432;16;0.04709141;-0.9847597;-0.1606648;-0.04709141;-2;1;0;-1283;320;3934;2;0.1301939;-0.6385041;-0.7011184;-0.2894737;0;2;0;3297;2376;159;8;0.09279778;-0.9892901;0.08171745;-0.07756232;0;3;1;645;709;3985;0.9368484;1.290001;1.694265;0.938329;1.424912;1.165665;0.9396088;1.541541;0.7005254;0.9467337;1.714525;-0.0125578;0.6898996;1.765028;-0.3384927;0.3500471;1.807328;-0.1873296;0.04527725;0.945791;-0.03501911;0;0;0;1.209803;1.743614;-0.338496;1.499642;1.759977;-0.1873351;1.772663;0.9221549;0.2022651;1.789953;-0.02209711;0.2789322;0.6248882;1.274753;1.736461;0.75342;0.5144961;2.979983;1.04088;0.3694136;4.287134;0.6248882;1.274753;1.736461;0.75342;0.5144961;2.979983;1.04088;0.3694136;4.287134
133850.6414;NotLabelled;NONE;16384;0.6845735;-0.6759003;0.2728532;0.008310249;-1;-1;1;-1195;3921;352;65536;0.699446;-0.7139093;0.03185596;-0.009695291;-1;0;4;56;4134;140;8192;0.4196676;-0.5927978;-0.6174972;-0.301939;-3;0;-1;1818;3687;751;32768;0.5595568;-0.6131324;-0.4085872;-0.3795014;-5;-5;-4;-251;4119;146;256;-0.1481994;-0.002770083;-0.9815851;-0.1204986;-1;1;-1;153;990;3951;128;0.2022161;-0.05401662;0.9466209;0.2451524;-2;4;1;55;2065;-3710;4;0.2631579;-0.7404572;0.6094183;0.1052632;0;1;-1;-3493;2184;-584;16;0.04570637;-0.984825;-0.1606648;-0.04709141;-1;0;0;-1279;418;3942;2;0.1301939;-0.6385041;-0.7011184;-0.2894737;0;1;0;3337;2386;127;8;0.09279778;-0.9895111;0.08033241;-0.07617728;0;3;1;645;721;3985;0.938985;1.289397;1.695997;0.9404656;1.424309;1.167397;0.9417455;1.540937;0.7022579;0.9488704;1.713922;-0.01082516;0.6920362;1.764425;-0.3367601;0.3521837;1.806724;-0.185597;0.04640466;0.945859;-0.03152053;0;0;0;1.211939;1.74301;-0.3367634;1.501778;1.759373;-0.1856025;1.774799;0.9215515;0.2039976;1.792089;-0.02270055;0.2806647;0.6270248;1.27415;1.738194;0.7555566;0.5138927;2.981716;1.043212;0.3686631;4.288808;0.6270248;1.27415;1.738194;0.7555566;0.5138927;2.981716;1.043212;0.3686631;4.288808
133871.66;NotLabelled;NONE;16384;0.6851239;-0.6759003;0.2714681;0.008310249;2;3;4;-1277;3851;218;65536;0.699446;-0.7139093;0.03185596;-0.009695291;-1;0;6;190;4122;84;8192;0.4210526;-0.5941828;-0.6152189;-0.301939;0;-7;-1;2048;3491;191;32768;0.5595568;-0.614907;-0.4072022;-0.3781163;-1;-1;-3;-411;4161;238;256;-0.1481994;-0.002770083;-0.9815851;-0.1204986;0;0;-1;145;1070;3901;128;0.2022161;-0.05540166;0.9465409;0.2451524;0;0;0;91;2145;-3720;4;0.2631579;-0.7404572;0.6094183;0.1052632;0;0;0;-3533;2126;-512;16;0.04570637;-0.984825;-0.1606648;-0.04709141;0;-1;0;-1383;460;3822;2;0.1315789;-0.6385041;-0.7008598;-0.2894737;0;0;0;3347;2384;127;8;0.09279778;-0.9895111;0.08033241;-0.07617728;0;-1;0;699;723;3985;0.9379958;1.289904;1.692506;0.9394763;1.424815;1.163906;0.9407561;1.541443;0.6987669;0.947881;1.714428;-0.01431626;0.6910468;1.764931;-0.3402512;0.3511944;1.807231;-0.1890881;0.0470836;0.9456842;-0.03551809;0;0;0;1.21095;1.743517;-0.3402545;1.500789;1.75988;-0.1890936;1.775811;0.921349;0.1975641;1.792058;-0.02263999;0.2776217;0.6260355;1.274656;1.734703;0.7520044;0.5167162;2.979901;1.039179;0.3751507;4.2875;0.6260355;1.274656;1.734703;0.7520044;0.5167162;2.979901;1.039179;0.3751507;4.2875
133891.7374;NotLabelled;NONE;16384;0.6856529;-0.6759003;0.2700831;0.009695291;1;2;5;-1415;3891;452;65536;0.699446;-0.7138462;0.033241;-0.009695291;-1;-1;5;366;3988;86;8192;0.4196676;-0.5941828;-0.6161646;-0.301939;1;2;-1;2272;3617;313;32768;0.5581717;-0.6161645;-0.4072022;-0.3781163;0;3;-2;-353;4105;176;256;-0.1468144;-0.002770083;-0.9817932;-0.1204986;0;0;-1;177;988;4101;128;0.200831;-0.05401662;0.9469157;0.2451524;-2;-3;0;-81;2019;-3732;4;0.2631579;-0.7404572;0.6094183;0.1052632;-1;-1;2;-3579;2194;-628;16;0.04570637;-0.984825;-0.1606648;-0.04709141;0;0;0;-1295;456;3798;2;0.1315789;-0.6385041;-0.7008598;-0.2894737;1;-1;0;3311;2380;145;8;0.09279778;-0.9895111;0.08033241;-0.07617728;-1;-1;0;695;801;3955;0.9369771;1.289973;1.694115;0.9384611;1.425203;1.165596;0.939744;1.542112;0.7005274;0.9468688;1.715096;-0.0125559;0.6900346;1.765599;-0.3384903;0.3501819;1.807898;-0.1873279;0.04708351;0.9456835;-0.03551819;0;0;0;1.209938;1.744185;-0.3384939;1.499777;1.760547;-0.1873329;1.773203;0.9206471;0.1974785;1.788946;-0.02315831;0.2797675;0.6250166;1.274699;1.7363;0.7509859;0.5167599;2.981498;1.03816;0.375195;4.289098;0.6250166;1.274699;1.7363;0.7509859;0.5167599;2.981498;1.03816;0.375195;4.289098
133911.7508;NotLabelled;NONE;16384;0.6856529;-0.6759003;0.2700831;0.009695291;0;0;3;-1601;3719;470;65536;0.699446;-0.713826;0.033241;-0.01108033;-1;0;3;268;4124;64;8192;0.4196676;-0.5941828;-0.6161646;-0.301939;0;4;-2;2064;3553;453;32768;0.5581717;-0.6152469;-0.4085872;-0.3781163;0;3;-3;-265;4187;224;256;-0.1468144;-0.002770083;-0.9817932;-0.1204986;-1;1;0;179;912;3951;128;0.2022161;-0.05401662;0.9466209;0.2451524;-1;0;0;-71;2007;-3792;4;0.2631579;-0.7404572;0.6094183;0.1052632;0;-3;2;-3545;2178;-504;16;0.04570637;-0.984825;-0.1606648;-0.04709141;-1;-1;0;-1301;416;3800;2;0.1315789;-0.6385041;-0.7008598;-0.2894737;0;-2;-1;3343;2398;107;8;0.09279778;-0.9895111;0.08033241;-0.07617728;-1;-1;0;675;767;3905;0.9370807;1.292039;1.698308;0.9385611;1.426948;1.169707;0.939841;1.543574;0.7045672;0.9468971;1.716601;-0.008506417;0.690041;1.767037;-0.3344346;0.3501768;1.809214;-0.1832637;0.0489384;0.9455745;-0.03591608;0;0;0;1.209951;1.745795;-0.3344471;1.499787;1.762246;-0.1832901;1.770866;0.9231489;0.2049193;1.785339;-0.02037287;0.2906286;0.6251205;1.27679;1.740504;0.7476459;0.5188515;2.986046;1.031204;0.3772869;4.294436;0.6251205;1.27679;1.740504;0.7476459;0.5188515;2.986046;1.031204;0.3772869;4.294436
133932.6418;NotLabelled;NONE;16384;0.6856529;-0.6759003;0.2700831;0.009695291;0;0;1;-1541;3833;340;65536;0.699446;-0.713826;0.033241;-0.01108033;0;0;1;330;4072;120;8192;0.4196676;-0.5941828;-0.6154839;-0.3033241;1;0;-2;1726;3561;369;32768;0.5581717;-0.6152469;-0.4085872;-0.3781163;0;0;-2;-297;4009;90;256;-0.1468144;-0.002770083;-0.9817932;-0.1204986;-1;1;0;143;1072;3759;128;0.2022161;-0.05401662;0.9466209;0.2451524;4;1;1;79;2097;-3694;4;0.2631579;-0.7402591;0.6094183;0.1066482;0;-1;2;-3521;2114;-528;16;0.04570637;-0.984825;-0.1606648;-0.04709141;-1;-3;0;-1319;484;3856;2;0.1315789;-0.6385041;-0.7008598;-0.2894737;0;-1;-1;3467;2384;91;8;0.09279778;-0.9894035;0.08033241;-0.07756232;-1;-1;0;695;647;4017;0.9384683;1.29183;1.696477;0.9399488;1.426742;1.167876;0.9412287;1.54337;0.7027373;0.9482979;1.716397;-0.0103361;0.6914477;1.766833;-0.3362685;0.3515807;1.80901;-0.1851045;0.05074891;0.945461;-0.03640206;0;0;0;1.211358;1.745591;-0.3362719;1.501191;1.762042;-0.1851094;1.773338;0.9231803;0.202863;1.789842;-0.02036309;0.2879606;0.6265081;1.276582;1.738673;0.7490106;0.5186424;2.984217;1.032545;0.3770773;4.292611;0.6265081;1.276582;1.738673;0.7490106;0.5186424;2.984217;1.032545;0.3770773;4.292611
133952.7712;NotLabelled;NONE;16384;0.6842848;-0.6772853;0.2700831;0.009695291;1;0;2;-1453;3879;446;65536;0.699446;-0.713826;0.033241;-0.01108033;-1;-1;3;266;4106;68;8192;0.4196676;-0.5941828;-0.6154839;-0.3033241;0;-3;-2;2026;3445;475;32768;0.5581717;-0.616096;-0.4085872;-0.3767313;-1;-7;-1;-495;4047;-4;256;-0.1468144;-0.001385042;-0.9817961;-0.1204986;-3;1;0;111;1124;3825;128;0.2022161;-0.05401662;0.9466209;0.2451524;3;-1;0;43;2073;-3548;4;0.2631579;-0.7402591;0.6094183;0.1066482;0;-1;1;-3581;2116;-374;16;0.04570637;-0.9851151;-0.1592798;-0.04570637;-1;-1;0;-1297;412;3892;2;0.1315789;-0.6385041;-0.7008598;-0.2894737;0;0;0;3411;2316;83;8;0.09279778;-0.9894035;0.08033241;-0.07756232;0;-3;0;735;627;4033;0.9384685;1.29183;1.69648;0.939949;1.426742;1.16788;0.9412289;1.54337;0.7027403;0.948298;1.716397;-0.01033312;0.6914478;1.766833;-0.3362655;0.3515808;1.80901;-0.1851016;0.05074917;0.9454608;-0.03640214;0;0;0;1.211358;1.745591;-0.336269;1.501191;1.762042;-0.1851064;1.770825;0.9219365;0.2019277;1.787329;-0.02160668;0.2870256;0.6265082;1.276582;1.738676;0.7515785;0.5163252;2.982552;1.035112;0.3747602;4.290945;0.6265082;1.276582;1.738676;0.7515785;0.5163252;2.982552;1.035112;0.3747602;4.290945
133974.6148;NotLabelled;NONE;16384;0.6848089;-0.6772853;0.2686981;0.01108033;0;-1;4;-1345;3857;222;65536;0.699446;-0.7137602;0.03462604;-0.01108033;0;-4;4;250;4056;128;8192;0.4210526;-0.5941828;-0.6158968;-0.300554;-5;-8;4;1856;3607;435;32768;0.5595568;-0.6175143;-0.4058172;-0.3753462;-1;-8;0;-287;4135;420;256;-0.1468144;-0.001385042;-0.9819652;-0.1191136;-5;0;0;185;1058;3915;128;0.200831;-0.05401662;0.9469157;0.2451524;-1;0;1;-5;1993;-3536;4;0.2631579;-0.7391167;0.6108033;0.1066482;0;-1;0;-3577;2148;-424;16;0.04570637;-0.9850499;-0.1592798;-0.04709141;0;0;0;-1343;354;3944;2;0.132964;-0.6385041;-0.7005984;-0.2894737;0;-1;-1;3365;2274;19;8;0.09279778;-0.9893977;0.08171745;-0.07617728;0;-2;0;727;631;4037;0.9374365;1.293127;1.693152;0.9389169;1.428039;1.164552;0.9401968;1.544667;0.6994126;0.9468059;1.717993;-0.0135926;0.6898243;1.767857;-0.3395093;0.3498416;1.80905;-0.1883342;0.05073765;0.945461;-0.03641848;0;0;0;1.20979;1.748031;-0.3395123;1.499575;1.765211;-0.1883388;1.769331;0.9251063;0.1986101;1.7874;-0.01826262;0.2853092;0.6254762;1.277879;1.735348;0.7509409;0.517622;2.979184;1.038309;0.3767903;4.28682;0.6254762;1.277879;1.735348;0.7509409;0.517622;2.979184;1.038309;0.3767903;4.28682
133994.6332;NotLabelled;NONE;16384;0.6848089;-0.6772853;0.2686981;0.01108033;2;0;3;-1287;3747;244;65536;0.699446;-0.7137374;0.03462604;-0.01246537;0;1;3;310;4054;38;8192;0.4210526;-0.5941828;-0.6158968;-0.300554;2;-6;1;1860;3631;205;32768;0.5595568;-0.6175143;-0.4058172;-0.3753462;0;-1;0;-349;4029;160;256;-0.1468144;-0.002770083;-0.9819622;-0.1191136;-1;-2;-1;143;992;3747;128;0.200831;-0.05401662;0.9469157;0.2451524;2;-1;0;49;1975;-3540;4;0.2631579;-0.7391167;0.6108033;0.1066482;0;-3;0;-3559;2128;-432;16;0.04570637;-0.9850499;-0.1592798;-0.04709141;0;-2;0;-1245;386;3874;2;0.132964;-0.6385041;-0.7005984;-0.2894737;0;-1;0;3409;2288;31;8;0.09279778;-0.9893977;0.08171745;-0.07617728;0;-1;0;839;693;3973;0.9366856;1.297029;1.695526;0.9381659;1.431939;1.166925;0.9394457;1.548565;0.7017854;0.9459099;1.719925;-0.01169652;0.6888741;1.768785;-0.3377227;0.3488905;1.810257;-0.1866256;0.05249195;0.9453444;-0.03694966;0;0;0;1.208848;1.74917;-0.3377255;1.498642;1.766885;-0.1866307;1.773642;0.9282305;0.1997732;1.790236;-0.01521635;0.2859154;0.6247254;1.281781;1.737722;0.7488914;0.5219727;2.981962;1.032717;0.3805559;4.290308;0.6247254;1.281781;1.737722;0.7488914;0.5219727;2.981962;1.032717;0.3805559;4.290308
134016.6387;NotLabelled;NONE;16384;0.6848089;-0.6772853;0.2686981;0.01108033;0;4;2;-1507;3763;476;65536;0.6980609;-0.715092;0.03462604;-0.01246537;-1;2;1;344;4028;36;8192;0.4196676;-0.5941828;-0.6168413;-0.300554;1;2;-2;2288;3631;429;32768;0.5581717;-0.6187664;-0.4058172;-0.3753462;-2;0;-1;-519;4125;84;256;-0.1468144;-0.002770083;-0.9819622;-0.1191136;-2;1;0;185;932;4089;128;0.200831;-0.05263158;0.9469937;0.2451524;-4;-2;0;-65;1951;-3798;4;0.2631579;-0.7391167;0.6108033;0.1066482;0;-4;0;-3501;2144;-438;16;0.04570637;-0.9851151;-0.1592798;-0.04570637;1;-3;-1;-1173;386;3892;2;0.132964;-0.6398892;-0.6993335;-0.2894737;0;-1;0;3303;2334;-33;8;0.09279778;-0.9892824;0.08310249;-0.07617728;0;-2;0;755;757;3919;0.937855;1.295651;1.695251;0.9393356;1.43056;1.16665;0.9406154;1.547186;0.7015105;0.9475346;1.718247;-0.01203907;0.6906277;1.767679;-0.3380803;0.3507606;1.810135;-0.1869945;0.05431513;0.9452224;-0.03741298;0;0;0;1.210546;1.746648;-0.3380834;1.50039;1.763634;-0.1869995;1.775269;0.924979;0.1994895;1.791835;-0.01846766;0.2856362;0.6258948;1.280402;1.737447;0.7496703;0.5205932;2.981725;1.033085;0.3791759;4.290162;0.6258948;1.280402;1.737447;0.7496703;0.5205932;2.981725;1.033085;0.3791759;4.290162
134037.7594;NotLabelled;NONE;16384;0.6853507;-0.6772853;0.267313;0.01108033;-1;0;1;-1545;3829;522;65536;0.6980609;-0.7150665;0.03462604;-0.01385042;-3;2;3;192;4066;46;8192;0.4196676;-0.5941828;-0.6168413;-0.300554;-4;6;0;2028;3597;669;32768;0.5581717;-0.6187664;-0.4058172;-0.3753462;-3;-5;-1;-231;4127;196;256;-0.1468144;-0.002770083;-0.9821292;-0.1177285;-4;1;0;263;982;3929;128;0.200831;-0.05263158;0.9469937;0.2451524;0;3;1;25;2011;-3866;4;0.2631579;-0.7379699;0.6121883;0.1066482;0;-3;0;-3417;2142;-544;16;0.04570637;-0.9853381;-0.1578947;-0.04570637;1;-4;0;-1239;404;3864;2;0.132964;-0.6398892;-0.6993335;-0.2894737;0;-2;0;3329;2450;17;8;0.09279778;-0.9892824;0.08310249;-0.07617728;0;0;0;721;731;3893;0.9367494;1.296162;1.691904;0.9382265;1.430757;1.163222;0.9395034;1.547105;0.6980132;0.9464227;1.718166;-0.01553625;0.6895157;1.767598;-0.3415776;0.3496486;1.810054;-0.1904919;0.05320285;0.9451418;-0.04090921;0;0;0;1.209435;1.746567;-0.3415805;1.499278;1.763554;-0.1904972;1.773953;0.9259388;0.1983871;1.789491;-0.01721096;0.2879066;0.6247895;1.280939;1.734111;0.7485651;0.5211308;2.978389;1.035589;0.3802996;4.286101;0.6247895;1.280939;1.734111;0.7485651;0.5211308;2.978389;1.035589;0.3802996;4.286101
134058.769;NotLabelled;NONE;16384;0.6858893;-0.6772853;0.265928;0.01108033;0;7;4;-1133;3815;206;65536;0.6980609;-0.7150384;0.03462604;-0.01523546;-1;1;5;312;4082;118;8192;0.4210526;-0.5927978;-0.6172299;-0.300554;-3;-7;-1;1612;3605;367;32768;0.5581717;-0.6205094;-0.4044321;-0.3739612;-3;-9;-3;-185;4137;228;256;-0.1468144;-0.001385042;-0.9821321;-0.1177285;-2;1;0;165;1018;3899;128;0.200831;-0.05401662;0.9472733;0.2437673;4;1;0;-41;2079;-3778;4;0.2631579;-0.7379699;0.6121883;0.1066482;0;0;2;-3423;2096;-396;16;0.04570637;-0.9853381;-0.1578947;-0.04570637;0;0;0;-1273;406;3806;2;0.132964;-0.6398892;-0.6993335;-0.2894737;0;0;-1;3423;2344;1;8;0.09279778;-0.9892824;0.08310249;-0.07617728;0;0;0;741;655;3945;0.9377325;1.299383;1.693813;0.9392095;1.433977;1.165131;0.9404862;1.550325;0.6999221;0.9472566;1.719419;-0.01409739;0.6902934;1.767846;-0.3402455;0.3504259;1.810582;-0.1892393;0.05501703;0.9450173;-0.04138601;0;0;0;1.210221;1.747027;-0.3402491;1.500074;1.764548;-0.189245;1.774771;0.9269338;0.1996239;1.790314;-0.01621699;0.2891425;0.6257725;1.284159;1.73602;0.7482525;0.5248017;2.980702;1.03516;0.3841138;4.288455;0.6257725;1.284159;1.73602;0.7482525;0.5248017;2.980702;1.03516;0.3841138;4.288455
134079.6243;NotLabelled;NONE;16384;0.6858893;-0.6772853;0.265928;0.01108033;1;6;3;-1601;3771;280;65536;0.6980609;-0.7149699;0.03601108;-0.01523546;0;-1;4;426;4092;100;8192;0.4224377;-0.5941828;-0.6149476;-0.300554;-4;-4;-5;2256;3599;555;32768;0.5581717;-0.6213421;-0.4044321;-0.3725762;-2;-3;-3;-439;4119;290;256;-0.1468144;-0.001385042;-0.9821321;-0.1177285;-2;1;0;225;1004;4053;128;0.200831;-0.05263158;0.9473512;0.2437673;3;-2;0;-51;1969;-3652;4;0.2645429;-0.7372729;0.6121883;0.1080332;0;1;2;-3515;2114;-412;16;0.04570637;-0.9853381;-0.1578947;-0.04570637;0;0;0;-1261;462;3838;2;0.132964;-0.6398892;-0.6993335;-0.2894737;0;0;-2;3381;2304;-11;8;0.09279778;-0.9892824;0.08310249;-0.07617728;0;-1;0;807;697;4011;0.9391837;1.303347;1.695451;0.9406479;1.436778;1.166474;0.9419135;1.552101;0.7010103;0.9482342;1.721495;-0.01294249;0.6911449;1.769351;-0.339075;0.3511602;1.811101;-0.1880572;0.05682309;0.9448888;-0.0418703;0;0;0;1.211127;1.749947;-0.3390786;1.500929;1.768197;-0.1880631;1.777725;0.9298811;0.1977924;1.792832;-0.01306629;0.2894993;0.6272248;1.288217;1.737699;0.7500902;0.5288589;2.982342;1.037403;0.3881705;4.290006;0.6272248;1.288217;1.737699;0.7500902;0.5288589;2.982342;1.037403;0.3881705;4.290006
134099.6234;NotLabelled;NONE;16384;0.6864247;-0.6772853;0.2645429;0.01108033;0;-1;1;-1657;3759;368;65536;0.6980609;-0.7149699;0.03601108;-0.01523546;0;-2;2;316;4054;102;8192;0.4238227;-0.5941828;-0.6139938;-0.300554;-5;1;-3;2020;3561;279;32768;0.5581717;-0.6213421;-0.4044321;-0.3725762;0;0;-1;-407;4131;380;256;-0.1468144;-0.001385042;-0.9821321;-0.1177285;-3;1;0;163;906;3867;128;0.200831;-0.05263158;0.9473512;0.2437673;0;0;0;-49;1901;-3658;4;0.2645429;-0.7372729;0.6121883;0.1080332;0;0;2;-3559;2164;-380;16;0.04570637;-0.9853381;-0.1578947;-0.04570637;0;0;0;-1207;362;3986;2;0.132964;-0.6398892;-0.6993335;-0.2894737;0;0;-1;3453;2386;11;8;0.09279778;-0.9892824;0.08310249;-0.07617728;0;-1;0;739;637;4059;0.9409366;1.30381;1.69506;0.9423974;1.436925;1.166004;0.9436598;1.551971;0.7004704;0.9499803;1.721364;-0.01348227;0.6928908;1.76922;-0.3396152;0.352906;1.810971;-0.1885974;0.05857525;0.9447582;-0.04239779;0;0;0;1.212873;1.749816;-0.3396183;1.502675;1.768067;-0.1886033;1.777881;0.9283729;0.1953911;1.79455;-0.01439404;0.2886742;0.6289779;1.288706;1.737319;0.7512536;0.5244148;2.978998;1.038566;0.3837266;4.286663;0.6289779;1.288706;1.737319;0.7512536;0.5244148;2.978998;1.038566;0.3837266;4.286663
134119.6354;NotLabelled;NONE;16384;0.6858655;-0.6772853;0.265928;0.01246537;0;0;2;-1355;3873;370;65536;0.6980609;-0.7148679;0.03739612;-0.0166205;-1;1;3;254;4074;66;8192;0.4238227;-0.5941828;-0.6139938;-0.300554;-1;-3;-4;1914;3469;261;32768;0.5581717;-0.6213421;-0.4044321;-0.3725762;0;-2;0;-391;4077;218;256;-0.1468144;-0.001385042;-0.9822972;-0.1163435;-3;2;1;147;1056;3929;128;0.199446;-0.05263158;0.947999;0.2423823;1;3;0;77;2015;-3654;4;0.2645429;-0.7372729;0.6121883;0.1080332;0;0;1;-3541;2150;-422;16;0.04570637;-0.985559;-0.1565097;-0.04570637;0;0;0;-1239;438;3986;2;0.132964;-0.6398892;-0.6987587;-0.2908587;0;1;-1;3511;2352;-1;8;0.09279778;-0.9892824;0.08310249;-0.07617728;1;1;0;717;635;4023;0.9398939;1.304455;1.696789;0.9413546;1.437569;1.167733;0.9426171;1.552615;0.7022003;0.9489375;1.722008;-0.01175255;0.691848;1.769863;-0.3378854;0.3518632;1.811614;-0.1868677;0.05857543;0.9447582;-0.0423981;0;0;0;1.21183;1.75046;-0.3378885;1.501632;1.76871;-0.1868736;1.777025;0.9279811;0.1947131;1.793694;-0.01478434;0.2879964;0.6279352;1.28935;1.739049;0.7502109;0.5250587;2.980728;1.037524;0.3843706;4.288392;0.6279352;1.28935;1.739049;0.7502109;0.5250587;2.980728;1.037524;0.3843706;4.288392
134139.6585;NotLabelled;NONE;16384;0.6864009;-0.6772853;0.2645429;0.01246537;-1;4;3;-1315;3883;514;65536;0.6966759;-0.7162888;0.03601108;-0.0166205;-2;2;3;348;4140;86;8192;0.4238227;-0.5941828;-0.6139938;-0.300554;-2;-3;-1;2036;3577;595;32768;0.5581717;-0.6222414;-0.4030471;-0.3725762;0;-6;0;-369;4073;182;256;-0.1468144;-0.001385042;-0.9822972;-0.1163435;-5;0;0;253;958;3927;128;0.199446;-0.05263158;0.947999;0.2423823;0;1;0;43;1917;-3624;4;0.2645429;-0.7384207;0.6108033;0.1080332;1;1;0;-3503;2136;-406;16;0.04570637;-0.9853381;-0.1578947;-0.04570637;0;2;0;-1179;394;3912;2;0.132964;-0.6398892;-0.6987587;-0.2908587;0;0;0;3409;2380;-33;8;0.09279778;-0.9891747;0.08310249;-0.07756232;1;3;0;763;679;3963;0.9430577;1.309672;1.695917;0.9445022;1.441304;1.16649;0.9457502;1.555045;0.7006364;0.9519293;1.722469;-0.01378161;0.6947872;1.769321;-0.340019;0.3548007;1.81135;-0.1890821;0.06214559;0.9444849;-0.04338946;0;0;0;1.214777;1.750129;-0.3400223;1.504587;1.768913;-0.1890876;1.779971;0.928184;0.1925052;1.796644;-0.01458263;0.2857872;0.6311003;1.294686;1.738228;0.7534381;0.5303946;2.979901;1.040627;0.3898494;4.287608;0.6311003;1.294686;1.738228;0.7534381;0.5303946;2.979901;1.040627;0.3898494;4.287608
134159.7272;NotLabelled;NONE;16384;0.6869569;-0.6772853;0.2631579;0.01108033;1;3;3;-1455;3763;132;65536;0.6966759;-0.7161844;0.03739612;-0.01800554;0;1;2;282;4146;122;8192;0.4252077;-0.5941828;-0.6137125;-0.299169;-3;-1;0;1836;3717;593;32768;0.5581717;-0.6230686;-0.4030471;-0.3711911;0;-3;-1;-393;4159;354;256;-0.1468144;-0.001385042;-0.9824603;-0.1149584;-5;0;1;169;846;3775;128;0.200831;-0.05263158;0.9477065;0.2423823;3;1;0;-1;2045;-3602;4;0.2645429;-0.7384207;0.6108033;0.1080332;0;3;1;-3585;2126;-360;16;0.04570637;-0.9852729;-0.1578947;-0.04709141;1;1;0;-1219;336;3890;2;0.132964;-0.6398892;-0.6993335;-0.2894737;0;0;0;3435;2350;-25;8;0.09279778;-0.9892901;0.08171745;-0.07756232;1;2;0;811;667;3895;0.9391497;1.310355;1.694668;0.9405942;1.441987;1.165241;0.9418423;1.555729;0.6993874;0.9480212;1.723153;-0.01503062;0.6908791;1.770004;-0.341268;0.3508927;1.812034;-0.1903311;0.05928844;0.9445279;-0.04635209;0;0;0;1.210869;1.750812;-0.3412713;1.500679;1.769597;-0.1903366;1.776091;0.9288673;0.191236;1.790754;-0.01387167;0.2851241;0.6271924;1.295369;1.736979;0.7509042;0.5306273;2.978238;1.038283;0.3899388;4.285888;0.6271924;1.295369;1.736979;0.7509042;0.5306273;2.978238;1.038283;0.3899388;4.285888
134181.6264;NotLabelled;NONE;16384;0.6861186;-0.6786703;0.2617728;0.01108033;0;1;1;-1617;3853;324;65536;0.6966759;-0.7161844;0.03739612;-0.01800554;0;0;0;394;4032;84;8192;0.4252077;-0.5941828;-0.6130355;-0.300554;2;-3;-2;2162;3485;375;32768;0.5581717;-0.6221705;-0.4044321;-0.3711911;3;3;0;-527;4047;236;256;-0.1468144;-0.001385042;-0.9824603;-0.1149584;-2;0;0;65;1058;3845;128;0.199446;-0.05263158;0.948352;0.2409972;4;0;0;111;1995;-3552;4;0.2645429;-0.7384207;0.6108033;0.1080332;0;2;0;-3597;2176;-398;16;0.04570637;-0.9852729;-0.1578947;-0.04709141;1;2;1;-1211;400;3872;2;0.132964;-0.6398892;-0.6987587;-0.2908587;0;2;-2;3375;2288;39;8;0.09279778;-0.9892901;0.08171745;-0.07756232;0;0;0;807;731;3893;0.9435368;1.312758;1.695537;0.9449813;1.444392;1.166111;0.9462295;1.558135;0.7002574;0.9522691;1.72359;-0.01462048;0.6950753;1.769436;-0.3409601;0.3550868;1.811744;-0.1901055;0.06285971;0.9442482;-0.0473365;0;0;0;1.215073;1.750455;-0.3409627;1.504891;1.769775;-0.1901102;1.783004;0.9292545;0.1899599;1.799242;-0.01330233;0.285413;0.6315793;1.297772;1.737848;0.7553519;0.5330296;2.979101;1.039184;0.3917603;4.287463;0.6315793;1.297772;1.737848;0.7553519;0.5330296;2.979101;1.039184;0.3917603;4.287463
134203.7716;NotLabelled;NONE;16384;0.6855886;-0.6786703;0.2631579;0.01108033;0;-1;0;-1575;3753;318;65536;0.6966759;-0.7161844;0.03739612;-0.01800554;1;-1;-1;366;4140;134;8192;0.4252077;-0.5941828;-0.6130355;-0.300554;0;4;0;2142;3497;419;32768;0.5581717;-0.6221705;-0.4044321;-0.3711911;2;-2;1;-285;4069;120;256;-0.1468144;-0.001385042;-0.9824603;-0.1149584;-3;0;0;139;900;3925;128;0.199446;-0.05263158;0.948352;0.2409972;0;0;0;169;1943;-3624;4;0.265928;-0.7379231;0.6108033;0.1080332;0;0;0;-3465;2212;-430;16;0.04570637;-0.9852729;-0.1578947;-0.04709141;1;2;0;-1163;416;3868;2;0.1315789;-0.6385041;-0.7002861;-0.2908587;0;3;-2;3333;2346;81;8;0.09279778;-0.9892901;0.08171745;-0.07756232;0;2;0;777;749;3939;0.9408591;1.316224;1.694832;0.9422873;1.446375;1.165039;0.9435212;1.558813;0.698869;0.9495605;1.724269;-0.01600879;0.6923668;1.770115;-0.3423481;0.3523783;1.812423;-0.1914935;0.06285964;0.9442484;-0.04733673;0;0;0;1.212364;1.751135;-0.3423512;1.502182;1.770453;-0.1914985;1.777755;0.9286911;0.187673;1.796;-0.01388955;0.2825214;0.628903;1.301357;1.737194;0.7526759;0.5366147;2.978447;1.036508;0.3953457;4.286808;0.628903;1.301357;1.737194;0.7526759;0.5366147;2.978447;1.036508;0.3953457;4.286808
134224.6369;NotLabelled;NONE;16384;0.6861186;-0.6786703;0.2617728;0.01108033;0;0;0;-1267;3797;268;65536;0.6966759;-0.7161844;0.03739612;-0.01800554;1;2;0;200;4062;82;8192;0.4252077;-0.5941828;-0.6130355;-0.300554;-1;-1;-2;1722;3647;623;32768;0.5581717;-0.6230686;-0.4030471;-0.3711911;0;-4;0;-341;4191;246;256;-0.1468144;-0.001385042;-0.9826213;-0.1135734;-3;0;0;101;880;3835;128;0.199446;-0.05263158;0.948352;0.2409972;1;0;0;41;1957;-3586;4;0.265928;-0.7379231;0.6108033;0.1080332;0;-1;0;-3355;2092;-538;16;0.04570637;-0.9852729;-0.1578947;-0.04709141;1;1;0;-1295;436;3796;2;0.132964;-0.6385041;-0.7000245;-0.2908587;0;1;-1;3251;2356;105;8;0.09418282;-0.9891592;0.08171745;-0.07756232;1;1;0;735;757;4003;0.9418979;1.315586;1.693089;0.9433261;1.445737;1.163296;0.9445598;1.558175;0.6971257;0.9505993;1.72363;-0.01775211;0.6934054;1.769477;-0.3440914;0.353417;1.811785;-0.1932367;0.06285982;0.9442484;-0.04733653;0;0;0;1.213403;1.750496;-0.3440945;1.503221;1.769815;-0.1932418;1.778821;0.9280529;0.1859097;1.797066;-0.01452756;0.280758;0.6299418;1.300718;1.735451;0.7505735;0.533371;2.975404;1.034405;0.392102;4.283766;0.6299418;1.300718;1.735451;0.7505735;0.533371;2.975404;1.034405;0.392102;4.283766
134245.792;NotLabelled;NONE;16384;0.6861396;-0.6786703;0.2617728;0.009695291;0;1;0;-1203;3917;474;65536;0.6966759;-0.7161844;0.03739612;-0.01800554;0;2;1;222;4130;6;8192;0.4252077;-0.5941828;-0.6130355;-0.300554;0;-2;-3;1926;3709;501;32768;0.5581717;-0.6230686;-0.4030471;-0.3711911;0;-1;0;-385;4067;168;256;-0.1481994;-0.001385042;-0.9824134;-0.1135734;-2;1;0;153;934;3885;128;0.199446;-0.05401662;0.9482741;0.2409972;0;3;0;-63;1973;-3576;4;0.265928;-0.7379231;0.6108033;0.1080332;0;1;1;-3317;2134;-442;16;0.04709141;-0.9849846;-0.1592798;-0.04709141;0;1;0;-1345;420;3808;2;0.132964;-0.6385041;-0.7000245;-0.2908587;0;0;0;3333;2378;69;8;0.09418282;-0.9892727;0.08033241;-0.07756232;1;2;0;629;683;3957;0.9410316;1.318921;1.69543;0.9424597;1.449072;1.165637;0.9436933;1.56151;0.6994674;0.9495943;1.724995;-0.01586479;0.6923494;1.769837;-0.342303;0.3523588;1.812422;-0.1915316;0.06285749;0.9442477;-0.04733962;0;0;0;1.212355;1.751068;-0.3423064;1.502179;1.77092;-0.1915368;1.777799;0.9291582;0.1876013;1.79404;-0.01339841;0.2830536;0.6290755;1.304053;1.737793;0.7497677;0.536706;2.97774;1.033664;0.3954368;4.286088;0.6290755;1.304053;1.737793;0.7497677;0.536706;2.97774;1.033664;0.3954368;4.286088
134266.8271;NotLabelled;NONE;16384;0.6880116;-0.6772853;0.2603878;0.01108033;-1;3;3;-1125;3955;406;65536;0.6966759;-0.7161844;0.03739612;-0.01800554;0;0;3;340;4136;140;8192;0.4252077;-0.5941828;-0.6130355;-0.300554;0;-1;-3;1990;3591;383;32768;0.5595568;-0.6218251;-0.4030471;-0.3711911;0;-4;1;-437;4027;152;256;-0.1481994;-0.001385042;-0.9824134;-0.1135734;-1;0;1;221;912;3881;128;0.200831;-0.05401662;0.9479818;0.2409972;0;0;0;-53;1931;-3598;4;0.265928;-0.7379231;0.6108033;0.1080332;0;2;1;-3351;2074;-484;16;0.04709141;-0.9849846;-0.1592798;-0.04709141;0;2;0;-1351;488;3758;2;0.132964;-0.6371191;-0.7012852;-0.2908587;0;2;0;3353;2414;123;8;0.09418282;-0.9892727;0.08033241;-0.07756232;1;2;0;651;751;3913;0.9420879;1.317543;1.693802;0.9435196;1.448007;1.164086;0.9447563;1.560723;0.6979833;0.9507071;1.72417;-0.01735729;0.6934757;1.769077;-0.3437971;0.3534989;1.811776;-0.193027;0.06272532;0.9442477;-0.04751434;0;0;0;1.213475;1.750144;-0.3438004;1.503306;1.769913;-0.1930323;1.779986;0.9281507;0.1853323;1.796493;-0.0144062;0.2807387;0.6301317;1.30265;1.736153;0.7542769;0.5353022;2.97576;1.042481;0.3902202;4.282748;0.6301317;1.30265;1.736153;0.7542769;0.5353022;2.97576;1.042481;0.3902202;4.282748
134287.6347;NotLabelled;NONE;16384;0.6871691;-0.6786703;0.2590028;0.01108033;0;0;3;-1435;3733;416;65536;0.6966759;-0.7161482;0.03739612;-0.01939058;0;0;1;418;4108;96;8192;0.4265928;-0.5941828;-0.6120725;-0.300554;-3;-3;0;1968;3575;591;32768;0.5595568;-0.6235441;-0.4016621;-0.3698061;0;-7;2;-413;4119;202;256;-0.1481994;-0.001385042;-0.9824134;-0.1135734;0;0;1;213;1014;3831;128;0.200831;-0.05401662;0.9479818;0.2409972;0;3;0;31;2029;-3638;4;0.265928;-0.7390673;0.6094183;0.1080332;0;3;0;-3409;2168;-412;16;0.04570637;-0.9850499;-0.1592798;-0.04709141;-1;3;0;-1317;474;3778;2;0.132964;-0.6371191;-0.7012852;-0.2908587;-1;2;-1;3297;2432;99;8;0.09418282;-0.9892727;0.08033241;-0.07756232;0;2;0;663;783;3923;0.9410334;1.318771;1.699164;0.9424651;1.44924;1.16945;0.943702;1.561958;0.7033473;0.9496531;1.725406;-0.01199281;0.6924216;1.770312;-0.3384332;0.3524447;1.813012;-0.1876629;0.06272522;0.9442487;-0.04751418;0;0;0;1.212421;1.75138;-0.3384363;1.502252;1.771149;-0.1876682;1.778926;0.9293864;0.1907005;1.796429;-0.01348662;0.2827384;0.6290771;1.303878;1.741516;0.7532221;0.5365303;2.981122;1.041426;0.3914478;4.288111;0.6290771;1.303878;1.741516;0.7532221;0.5365303;2.981122;1.041426;0.3914478;4.288111
134308.6257;NotLabelled;NONE;16384;0.6885342;-0.6772853;0.2590028;0.01108033;-2;-1;2;-1445;3845;438;65536;0.6966759;-0.7160745;0.03878116;-0.01939058;0;0;2;284;4108;160;8192;0.4279778;-0.5941828;-0.611784;-0.299169;-1;0;0;1994;3675;329;32768;0.5595568;-0.6235441;-0.4016621;-0.3698061;2;0;2;-345;4061;342;256;-0.1481994;-0.001385042;-0.9824134;-0.1135734;-3;1;1;35;966;3963;128;0.200831;-0.05401662;0.9479818;0.2409972;-2;3;0;113;1983;-3696;4;0.265928;-0.7390673;0.6094183;0.1080332;1;4;0;-3383;2224;-474;16;0.04570637;-0.984825;-0.1606648;-0.04709141;0;3;0;-1265;514;3816;2;0.132964;-0.6371191;-0.7012852;-0.2908587;-1;4;-1;3257;2376;63;8;0.09418282;-0.9893842;0.07894737;-0.07756232;0;2;0;677;717;3945;0.9401319;1.319301;1.697297;0.9415636;1.44977;1.167582;0.9428005;1.562488;0.7014799;0.9487516;1.725936;-0.01386029;0.6915201;1.770842;-0.3403008;0.3515432;1.813542;-0.1895304;0.06455119;0.9441023;-0.04796728;0;0;0;1.211519;1.751909;-0.3403038;1.501351;1.771679;-0.1895359;1.778177;0.9288859;0.1864201;1.79525;-0.01378155;0.2806214;0.6281755;1.304408;1.739648;0.7536979;0.5366077;2.978836;1.041427;0.3951905;4.28633;0.6281755;1.304408;1.739648;0.7536979;0.5366077;2.978836;1.041427;0.3951905;4.28633
134329.7749;NotLabelled;NONE;16384;0.6890537;-0.6772853;0.2576177;0.01108033;0;1;1;-1419;3829;208;65536;0.6966759;-0.7160745;0.03878116;-0.01939058;1;-1;1;338;4070;172;8192;0.4265928;-0.5941828;-0.6127506;-0.299169;0;2;0;1950;3551;297;32768;0.5595568;-0.6235441;-0.4016621;-0.3698061;3;3;1;-365;4077;220;256;-0.1481994;-0.001385042;-0.9825726;-0.1121884;-2;1;1;141;848;3901;128;0.200831;-0.05540166;0.9479018;0.2409972;0;3;0;107;1939;-3564;4;0.267313;-0.7397081;0.6080332;0.1080332;0;2;0;-3563;2180;-450;16;0.04570637;-0.984825;-0.1606648;-0.04709141;0;0;0;-1273;376;3878;2;0.132964;-0.6357341;-0.7025411;-0.2908587;0;1;-1;3281;2340;15;8;0.09418282;-0.9893842;0.07894737;-0.07756232;0;0;0;725;727;3931;0.9435459;1.319105;1.699895;0.9449776;1.449573;1.170181;0.9462147;1.562292;0.7040788;0.9521657;1.725739;-0.0112614;0.6949342;1.770645;-0.3377019;0.3549573;1.813345;-0.1869316;0.06629784;0.9439542;-0.04849831;0;0;0;1.214934;1.751713;-0.337705;1.504765;1.771482;-0.186937;1.784255;0.9288969;0.1875114;1.801328;-0.01377106;0.281713;0.6315897;1.304211;1.742247;0.7571119;0.5364113;2.981435;1.045031;0.3948464;4.288871;0.6315897;1.304211;1.742247;0.7571119;0.5364113;2.981435;1.045031;0.3948464;4.288871
134350.6198;NotLabelled;NONE;16384;0.6890745;-0.6772853;0.2576177;0.009695291;0;1;0;-1473;3775;368;65536;0.6980609;-0.7147244;0.03878116;-0.01939058;2;-1;0;498;3968;18;8192;0.4265928;-0.5941828;-0.6120725;-0.300554;1;3;-1;1926;3569;421;32768;0.5609418;-0.6222984;-0.4016621;-0.3698061;3;2;2;-413;4039;196;256;-0.1481994;0;-0.9825735;-0.1121884;0;1;0;261;982;3757;128;0.200831;-0.05540166;0.9479018;0.2409972;-2;0;0;7;1971;-3468;4;0.265928;-0.7402072;0.6080332;0.1080332;0;1;0;-3567;2188;-448;16;0.04570637;-0.984825;-0.1606648;-0.04709141;0;0;0;-1277;458;3876;2;0.132964;-0.6357341;-0.7025411;-0.2908587;0;2;0;3349;2334;119;8;0.09418282;-0.9893842;0.07894737;-0.07756232;0;0;0;697;673;3995;0.9426539;1.321831;1.702066;0.944089;1.452618;1.17243;0.945329;1.565616;0.706396;0.9511417;1.727093;-0.009392858;0.6938593;1.770993;-0.3359299;0.35388;1.813969;-0.1852433;0.06629559;0.9439542;-0.0485021;0;0;0;1.213866;1.752274;-0.3359331;1.503704;1.772578;-0.1852493;1.783074;0.9310238;0.1915991;1.800151;-0.01164365;0.2857999;0.6306973;1.306913;1.744407;0.7545186;0.5360537;2.981865;1.042502;0.3944879;4.289288;0.6306973;1.306913;1.744407;0.7545186;0.5360537;2.981865;1.042502;0.3944879;4.289288
134370.9845;NotLabelled;NONE;16384;0.6890745;-0.6772853;0.2576177;0.009695291;0;0;0;-1327;3741;380;65536;0.6980609;-0.7147606;0.03878116;-0.01800554;0;0;0;266;4090;40;8192;0.4265928;-0.5941828;-0.6120725;-0.300554;2;1;-1;1816;3551;605;32768;0.5609418;-0.6222984;-0.4016621;-0.3698061;0;-1;1;-369;4081;0;256;-0.1481994;0;-0.9825735;-0.1121884;0;2;0;61;918;3793;128;0.200831;-0.05540166;0.9479018;0.2409972;-4;1;0;83;1937;-3580;4;0.265928;-0.7402072;0.6080332;0.1080332;0;1;0;-3489;2158;-410;16;0.04570637;-0.9847577;-0.1606648;-0.04847645;0;2;0;-1257;440;3910;2;0.132964;-0.6357341;-0.7025411;-0.2908587;-1;2;0;3255;2456;67;8;0.09418282;-0.9893842;0.07894737;-0.07756232;0;1;1;743;701;3983;0.946053;1.322544;1.704852;0.9474882;1.453332;1.175216;0.9487282;1.566329;0.7091813;0.9541107;1.728108;-0.006542563;0.6967141;1.771438;-0.3330656;0.356617;1.813427;-0.1823675;0.06739768;0.9440475;-0.04503511;0;0;0;1.21677;1.754135;-0.3330692;1.50655;1.775167;-0.182373;1.783506;0.9323747;0.193487;1.801598;-0.01060581;0.2843076;0.6340964;1.307625;1.747192;0.7614226;0.5393763;2.985917;1.049794;0.3978109;4.293254;0.6340964;1.307625;1.747192;0.7614226;0.5393763;2.985917;1.049794;0.3978109;4.293254
134391.6298;NotLabelled;NONE;16384;0.6890745;-0.6772853;0.2576177;0.009695291;-1;2;0;-1345;3921;406;65536;0.6980609;-0.7147606;0.03878116;-0.01800554;0;1;0;390;4014;122;8192;0.4265928;-0.5941828;-0.6120725;-0.300554;-1;0;0;1870;3625;667;32768;0.5609418;-0.6222984;-0.4016621;-0.3698061;0;-1;1;-409;4059;156;256;-0.1481994;0;-0.9825735;-0.1121884;0;0;0;127;958;3953;128;0.200831;-0.0567867;0.9478199;0.2409972;-2;2;0;127;2051;-3672;4;0.265928;-0.7402072;0.6080332;0.1080332;0;0;-1;-3495;2232;-470;16;0.04570637;-0.9847577;-0.1606648;-0.04847645;0;0;0;-1285;436;3848;2;0.132964;-0.6357341;-0.701966;-0.2922437;0;1;0;3213;2376;9;8;0.09418282;-0.9893842;0.07894737;-0.07756232;0;1;0;761;783;3971;0.9442314;1.322694;1.705304;0.9456667;1.453481;1.175668;0.9469066;1.566479;0.7096338;0.9522892;1.728257;-0.006090105;0.6948926;1.771588;-0.3326132;0.3547955;1.813577;-0.1819151;0.06557614;0.9441972;-0.04458268;0;0;0;1.214949;1.754285;-0.3326167;1.504728;1.775317;-0.1819206;1.781685;0.9325247;0.1939397;1.799777;-0.01045609;0.2847601;0.6322748;1.307775;1.747645;0.7596011;0.539526;2.98637;1.044363;0.3973696;4.294434;0.6322748;1.307775;1.747645;0.7596011;0.539526;2.98637;1.044363;0.3973696;4.294434
134411.8586;NotLabelled;NONE;16384;0.6890745;-0.6772853;0.2576177;0.009695291;0;3;-1;-1511;3833;334;65536;0.6980609;-0.7147244;0.03878116;-0.01939058;0;2;-1;366;4012;120;8192;0.4265928;-0.5927978;-0.613414;-0.300554;0;0;1;1920;3543;403;32768;0.5609418;-0.6231902;-0.400277;-0.3698061;0;0;1;-309;4101;276;256;-0.1481994;0;-0.9824144;-0.1135734;0;0;0;133;1092;3833;128;0.200831;-0.0567867;0.9474667;0.2423823;0;-2;0;65;2117;-3678;4;0.265928;-0.7402072;0.6080332;0.1080332;0;0;0;-3427;2196;-466;16;0.04570637;-0.9847577;-0.1606648;-0.04847645;0;0;0;-1241;514;3784;2;0.132964;-0.6357341;-0.701966;-0.2922437;0;0;1;3205;2354;71;8;0.09418282;-0.9893842;0.07894737;-0.07756232;0;1;0;689;789;3897;0.944216;1.322012;1.704649;0.9456546;1.453118;1.175092;0.9468977;1.566396;0.7091255;0.9522898;1.728174;-0.006598592;0.6948977;1.771505;-0.3331249;0.3547986;1.813494;-0.1824312;0.06557636;0.9441972;-0.0445814;0;0;0;1.214954;1.754202;-0.3331209;1.504731;1.775234;-0.1824208;1.78168;0.9326682;0.1939527;1.799771;-0.0103116;0.2847738;0.6322591;1.307068;1.746979;0.7595685;0.5388188;2.985705;1.044313;0.396663;4.293773;0.6322591;1.307068;1.746979;0.7595685;0.5388188;2.985705;1.044313;0.396663;4.293773
134433.7726;NotLabelled;NONE;16384;0.6890745;-0.6772853;0.2576177;0.009695291;0;1;0;-1449;3759;304;65536;0.6980609;-0.7147244;0.03878116;-0.01939058;0;3;0;274;4094;32;8192;0.4265928;-0.5927978;-0.613414;-0.300554;0;0;-1;1834;3685;329;32768;0.5609418;-0.6231902;-0.400277;-0.3698061;0;1;0;-379;4149;238;256;-0.1481994;0;-0.9824144;-0.1135734;0;0;0;151;1050;3881;128;0.200831;-0.0567867;0.9474667;0.2423823;-1;0;0;5;2017;-3662;4;0.265928;-0.7400037;0.6080332;0.1094183;0;0;0;-3443;2212;-520;16;0.04570637;-0.9847577;-0.1606648;-0.04847645;-1;0;0;-1309;516;3784;2;0.132964;-0.6357341;-0.701966;-0.2922437;1;-1;0;3227;2416;13;8;0.09418282;-0.9892746;0.07894737;-0.07894737;0;0;0;673;757;3893;0.9458398;1.316462;1.703403;0.9472947;1.449048;1.174215;0.9485521;1.563629;0.708567;0.9540675;1.727377;-0.006707847;0.6967191;1.771714;-0.3331337;0.3566253;1.813427;-0.1823515;0.06739957;0.9440475;-0.04503214;0;0;0;1.216768;1.754197;-0.3331371;1.506542;1.774695;-0.1823565;1.785298;0.9322519;0.1929553;1.80138;-0.01070547;0.2843876;0.6338816;1.3014;1.745681;0.7611519;0.5331504;2.984412;1.045855;0.3909941;4.292488;0.6338816;1.3014;1.745681;0.7611519;0.5331504;2.984412;1.045855;0.3909941;4.292488
134454.6263;NotLabelled;NONE;16384;0.6890926;-0.6772853;0.2576177;0.008310249;-1;0;0;-1389;3927;428;65536;0.6980609;-0.7147244;0.03878116;-0.01939058;0;-2;1;318;4128;156;8192;0.4265928;-0.5927978;-0.613414;-0.300554;1;3;-1;1896;3695;413;32768;0.5609418;-0.6223662;-0.400277;-0.3711911;1;4;1;-333;4053;254;256;-0.1481994;0;-0.9824144;-0.1135734;-1;0;0;205;928;3989;128;0.200831;-0.0567867;0.9474667;0.2423823;-3;2;0;59;1971;-3608;4;0.265928;-0.7402072;0.6080332;0.1080332;-1;0;0;-3415;2142;-532;16;0.04570637;-0.9847577;-0.1606648;-0.04847645;-1;0;0;-1327;448;3816;2;0.132964;-0.6357341;-0.701966;-0.2922437;0;0;0;3363;2456;49;8;0.09418282;-0.9892746;0.07894737;-0.07894737;-1;0;0;633;727;4037;0.9458398;1.316462;1.703403;0.9472947;1.449048;1.174215;0.9485521;1.563629;0.708567;0.9540675;1.727377;-0.006707847;0.6967191;1.771714;-0.3331337;0.3566253;1.813427;-0.1823515;0.06739957;0.9440475;-0.04503214;0;0;0;1.216768;1.754197;-0.3331371;1.506542;1.774695;-0.1823565;1.785298;0.9322519;0.1929553;1.80138;-0.01070547;0.2843876;0.6338816;1.3014;1.745681;0.7637028;0.5308442;2.982713;1.048406;0.3886881;4.29079;0.6338816;1.3014;1.745681;0.7637028;0.5308442;2.982713;1.048406;0.3886881;4.29079
134474.6122;NotLabelled;NONE;16384;0.6890926;-0.6772853;0.2576177;0.008310249;0;-3;2;-1281;3833;302;65536;0.6980609;-0.7147606;0.03878116;-0.01800554;0;-1;2;350;4072;64;8192;0.4265928;-0.5927978;-0.6127334;-0.301939;2;2;0;1820;3559;451;32768;0.5623268;-0.6211151;-0.400277;-0.3711911;0;1;1;-275;4019;70;256;-0.1481994;0;-0.9824144;-0.1135734;1;-1;-1;151;1072;3911;128;0.200831;-0.0567867;0.9474667;0.2423823;0;-3;0;79;2159;-3722;4;0.265928;-0.7400037;0.6080332;0.1094183;0;0;0;-3447;2188;-528;16;0.04570637;-0.9847577;-0.1606648;-0.04847645;-1;0;0;-1345;442;3906;2;0.132964;-0.6357341;-0.701966;-0.2922437;0;0;0;3421;2456;107;8;0.09418282;-0.9892746;0.07894737;-0.07894737;-1;1;1;659;805;4007;0.947512;1.315823;1.702894;0.948967;1.448409;1.173705;0.9502243;1.56299;0.7080576;0.9557397;1.726738;-0.007217169;0.6983914;1.771075;-0.333643;0.3582975;1.812788;-0.1828608;0.06739993;0.9440475;-0.04503188;0;0;0;1.21844;1.753558;-0.3336464;1.508215;1.774056;-0.1828659;1.786971;0.9316127;0.1924459;1.801475;-0.01151967;0.2823255;0.6355538;1.30076;1.745172;0.7628241;0.5325112;2.983902;1.047527;0.3903549;4.291978;0.6355538;1.30076;1.745172;0.7628241;0.5325112;2.983902;1.047527;0.3903549;4.291978
134495.6155;NotLabelled;NONE;16384;0.6895908;-0.6772853;0.2562327;0.009695291;0;0;0;-1523;3845;362;65536;0.6980609;-0.7147606;0.03878116;-0.01800554;0;0;-1;356;4064;78;8192;0.4265928;-0.5927978;-0.6127334;-0.301939;1;0;0;1802;3611;667;32768;0.5623268;-0.6211151;-0.400277;-0.3711911;-1;-3;0;-259;4139;78;256;-0.1481994;0;-0.9822533;-0.1149584;0;0;0;119;1088;3867;128;0.200831;-0.0567867;0.9471112;0.2437673;-1;0;0;-51;2035;-3570;4;0.265928;-0.7402072;0.6080332;0.1080332;0;0;0;-3503;2220;-560;16;0.04570637;-0.9845307;-0.1620499;-0.04847645;-1;0;0;-1339;394;3858;2;0.132964;-0.634349;-0.703218;-0.2922437;0;0;0;3335;2452;101;8;0.09418282;-0.9893842;0.07756232;-0.07894737;0;0;0;705;723;3977;0.9456899;1.315973;1.703346;0.9471447;1.448559;1.174158;0.9484022;1.563139;0.7085098;0.9539176;1.726888;-0.006765068;0.6965691;1.771225;-0.3331908;0.3564754;1.812938;-0.1824087;0.06557775;0.9441972;-0.04457971;0;0;0;1.216618;1.753708;-0.3331943;1.506392;1.774206;-0.1824138;1.782629;0.9305253;0.1919806;1.798122;-0.01290798;0.2784777;0.6337317;1.30091;1.745624;0.7635529;0.5303547;2.982656;1.048256;0.3881986;4.290731;0.6337317;1.30091;1.745624;0.7635529;0.5303547;2.982656;1.048256;0.3881986;4.290731
134515.6575;NotLabelled;NONE;16384;0.6890745;-0.6772853;0.2576177;0.009695291;0;0;-1;-1481;3789;384;65536;0.6980609;-0.7147606;0.03878116;-0.01800554;1;0;-3;388;4074;124;8192;0.4279778;-0.5927978;-0.6117668;-0.301939;0;-2;0;1930;3627;455;32768;0.5609418;-0.6231902;-0.400277;-0.3698061;0;1;0;-481;4055;292;256;-0.1481994;0;-0.9822533;-0.1149584;0;1;0;177;1060;3815;128;0.200831;-0.0567867;0.9471112;0.2437673;-2;1;0;29;2075;-3528;4;0.265928;-0.7400037;0.6080332;0.1094183;0;0;0;-3525;2198;-488;16;0.04570637;-0.9845307;-0.1620499;-0.04847645;0;0;0;-1349;406;3888;2;0.132964;-0.634349;-0.703218;-0.2922437;1;0;0;3351;2420;109;8;0.09418282;-0.9893842;0.07756232;-0.07894737;0;0;0;703;767;3995;0.9427027;1.311371;1.701895;0.9441737;1.445438;1.17308;0.9454454;1.56132;0.7077544;0.9511412;1.727039;-0.007065535;0.6938629;1.772381;-0.3334081;0.3537622;1.813818;-0.182565;0.06558242;0.9441972;-0.04457203;0;0;0;1.213905;1.75465;-0.3333778;1.503663;1.774613;-0.1824965;1.779829;0.9319835;0.1943095;1.795313;-0.01144934;0.2808081;0.6307431;1.296191;1.744122;0.757877;0.5279417;2.982866;1.042627;0.3856328;4.290916;0.6307431;1.296191;1.744122;0.757877;0.5279417;2.982866;1.042627;0.3856328;4.290916
134556.6233;NotLabelled;NONE;16384;0.6885551;-0.6772853;0.2590028;0.009695291;2;-4;-1;-1283;3867;242;65536;0.6980609;-0.7147177;0.0401662;-0.0166205;2;-6;0;272;4094;92;8192;0.4265928;-0.5927978;-0.6127334;-0.301939;2;4;3;1936;3557;337;32768;0.5609418;-0.6214733;-0.4016621;-0.3711911;3;6;2;-249;4101;248;256;-0.1481994;0;-0.9822533;-0.1149584;0;0;-1;125;1076;3807;128;0.199446;-0.0567867;0.9474038;0.2437673;0;2;1;13;2051;-3566;4;0.265928;-0.7400037;0.6080332;0.1094183;0;0;-1;-3485;2270;-496;16;0.04570637;-0.9847577;-0.1606648;-0.04847645;0;-1;0;-1317;438;3856;2;0.132964;-0.634349;-0.703218;-0.2922437;0;2;0;3351;2390;83;8;0.09418282;-0.9893842;0.07756232;-0.07894737;0;1;0;719;665;3995;0.9438089;1.311132;1.70254;0.9452803;1.445197;1.173725;0.9465519;1.56108;0.7083993;0.952202;1.726798;-0.006420851;0.6949026;1.772141;-0.3327475;0.3548115;1.813577;-0.1818823;0.06557965;0.9441979;-0.04457629;0;0;0;1.214945;1.75441;-0.3327505;1.504713;1.774373;-0.1818873;1.781077;0.9296703;0.1901021;1.797155;-0.01328683;0.2815354;0.6318493;1.295951;1.744766;0.7616138;0.5253954;2.981805;1.046448;0.3830864;4.289836;0.6318493;1.295951;1.744766;0.7616138;0.5253954;2.981805;1.046448;0.3830864;4.289836
134576.6407;NotLabelled;NONE;16384;0.6885551;-0.6772853;0.2590028;0.009695291;2;-5;-1;-1245;3883;492;65536;0.6980609;-0.7147177;0.0401662;-0.0166205;0;0;0;262;4046;-28;8192;0.4265928;-0.5927978;-0.6127334;-0.301939;3;6;2;1842;3679;531;32768;0.5609418;-0.6214733;-0.4016621;-0.3711911;1;4;1;-253;4111;154;256;-0.1468144;0;-0.9822982;-0.1163435;1;0;0;177;964;3855;128;0.199446;-0.0567867;0.9470464;0.2451524;-3;0;0;49;2013;-3628;4;0.265928;-0.7400037;0.6080332;0.1094183;0;-1;-1;-3457;2218;-510;16;0.04570637;-0.9847577;-0.1606648;-0.04847645;0;-2;0;-1283;492;3822;2;0.132964;-0.634349;-0.703218;-0.2922437;0;1;1;3287;2362;107;8;0.09418282;-0.9892727;0.07756232;-0.08033241;0;0;0;743;773;3915;0.9448053;1.310517;1.700759;0.9462764;1.444576;1.171942;0.947548;1.560454;0.7066149;0.953198;1.726172;-0.008205295;0.6958987;1.771514;-0.3345316;0.3558077;1.812951;-0.1836664;0.06550992;0.9441986;-0.04464999;0;0;0;1.21594;1.753784;-0.3345345;1.505709;1.773747;-0.1836713;1.781928;0.9300659;0.1907359;1.798438;-0.01309156;0.2800043;0.6328457;1.295337;1.742985;0.76261;0.5247822;2.980024;1.047253;0.3826261;4.288113;0.6328457;1.295337;1.742985;0.76261;0.5247822;2.980024;1.047253;0.3826261;4.288113
134597.7813;NotLabelled;NONE;16384;0.6899148;-0.6759003;0.2590028;0.009695291;-1;0;-1;-1395;3799;318;65536;0.6980609;-0.7147177;0.0401662;-0.0166205;0;-1;0;318;4098;136;8192;0.4252077;-0.5927978;-0.6136954;-0.301939;2;3;1;1858;3621;619;32768;0.5609418;-0.6206439;-0.4016621;-0.3725762;0;1;0;-397;4121;166;256;-0.1468144;0;-0.9822982;-0.1163435;2;-1;0;127;1058;3911;128;0.199446;-0.0567867;0.9470464;0.2451524;-2;-3;0;75;2063;-3684;4;0.265928;-0.7400037;0.6080332;0.1094183;0;-1;0;-3447;2192;-434;16;0.04570637;-0.9847577;-0.1606648;-0.04847645;0;-3;-1;-1235;478;3840;2;0.132964;-0.634349;-0.703218;-0.2922437;0;1;0;3237;2360;105;8;0.09418282;-0.9892727;0.07756232;-0.08033241;0;0;0;745;797;3857;0.9451764;1.305188;1.700389;0.9466636;1.440726;1.171949;0.9479494;1.557905;0.7069486;0.9536826;1.725628;-0.007403135;0.6964186;1.771907;-0.3336257;0.3563167;1.812951;-0.1826776;0.06563587;0.9441986;-0.04446437;0;0;0;1.216459;1.754131;-0.3336286;1.506215;1.773646;-0.1826827;1.781398;0.9299648;0.1924874;1.797655;-0.01319289;0.2818023;0.6332156;1.28989;1.742564;0.7594784;0.5193343;2.979964;1.040419;0.3771784;4.288854;0.6332156;1.28989;1.742564;0.7594784;0.5193343;2.979964;1.040419;0.3771784;4.288854
134618.7059;NotLabelled;NONE;16384;0.6899148;-0.6759003;0.2590028;0.009695291;1;-1;-1;-1395;3753;108;65536;0.6980609;-0.7147177;0.0401662;-0.0166205;2;-5;0;336;4050;86;8192;0.4252077;-0.5927978;-0.6136954;-0.301939;0;-1;3;1848;3573;443;32768;0.5609418;-0.6206439;-0.4016621;-0.3725762;0;1;1;-435;4097;142;256;-0.1468144;0;-0.9822982;-0.1163435;0;-1;-1;61;1068;3867;128;0.1980609;-0.0567867;0.947337;0.2451524;0;-2;0;101;2091;-3668;4;0.265928;-0.7400037;0.6080332;0.1094183;-1;-1;0;-3425;2138;-446;16;0.04570637;-0.9850499;-0.1592798;-0.04709141;-1;-2;-1;-1233;422;3854;2;0.132964;-0.634349;-0.703218;-0.2922437;0;0;1;3167;2320;35;8;0.09418282;-0.9893842;0.07756232;-0.07894737;-1;0;0;697;799;3853;0.9468362;1.305126;1.703538;0.9483236;1.440664;1.175097;0.9496095;1.557843;0.7100968;0.9553427;1.725566;-0.004254997;0.6980785;1.771846;-0.3304775;0.3579768;1.812889;-0.179529;0.06563558;0.9441993;-0.04446428;0;0;0;1.218119;1.754069;-0.3304803;1.507874;1.773584;-0.1795345;1.782872;0.9309273;0.1980662;1.797565;-0.01240325;0.2858143;0.6348755;1.289828;1.745712;0.7611386;0.5192728;2.983112;1.042079;0.3771164;4.292002;0.6348755;1.289828;1.745712;0.7611386;0.5192728;2.983112;1.042079;0.3771164;4.292002
134639.9744;NotLabelled;NONE;16384;0.6885551;-0.6772853;0.2590028;0.009695291;2;-5;-1;-1441;3825;268;65536;0.699446;-0.7133139;0.04155125;-0.01523546;2;-7;0;280;4014;62;8192;0.4252077;-0.5927978;-0.6136954;-0.301939;1;3;1;2002;3621;477;32768;0.5609418;-0.6197454;-0.4030471;-0.3725762;0;5;0;-285;4185;182;256;-0.1468144;0;-0.9821332;-0.1177285;0;-1;-1;123;1024;4011;128;0.1980609;-0.0567867;0.947337;0.2451524;-2;0;1;-31;2047;-3598;4;0.265928;-0.7402072;0.6080332;0.1080332;-1;-1;0;-3453;2170;-414;16;0.04570637;-0.9850499;-0.1592798;-0.04709141;0;-2;0;-1217;508;3772;2;0.132964;-0.634349;-0.703218;-0.2922437;1;0;0;3185;2378;23;8;0.09418282;-0.9893842;0.07756232;-0.07894737;-2;0;0;765;763;3879;0.9468371;1.30514;1.703551;0.9483242;1.440671;1.175109;0.9496101;1.557844;0.7101068;0.9553431;1.725567;-0.004245102;0.6980789;1.771847;-0.3304675;0.3579773;1.812891;-0.1795189;0.06563603;0.9441986;-0.04446494;0;0;0;1.218119;1.75407;-0.3304706;1.507875;1.773585;-0.1795242;1.782872;0.9309237;0.1980656;1.797565;-0.01240683;0.2858132;0.6348764;1.289842;1.745725;0.7611395;0.5192866;2.983126;1.0455;0.3778696;4.291357;0.6348764;1.289842;1.745725;0.7611395;0.5192866;2.983126;1.0455;0.3778696;4.291357
134660.6269;NotLabelled;NONE;16384;0.6880116;-0.6772853;0.2603878;0.01108033;1;-7;0;-1387;3871;490;65536;0.699446;-0.7133421;0.04155125;-0.01385042;0;-4;0;252;4082;0;8192;0.4238227;-0.5927978;-0.6146527;-0.301939;1;4;0;1952;3733;479;32768;0.5609418;-0.6197454;-0.4030471;-0.3725762;0;2;-1;-249;4173;230;256;-0.1468144;0;-0.9821332;-0.1177285;0;0;-1;197;940;4039;128;0.1980609;-0.0567867;0.9469776;0.2465374;-5;0;0;-25;1951;-3676;4;0.265928;-0.7390673;0.6094183;0.1080332;0;-2;0;-3435;2218;-448;16;0.04432133;-0.9851131;-0.1592798;-0.04709141;-1;-1;0;-1241;402;3810;2;0.132964;-0.6357341;-0.701966;-0.2922437;0;-2;0;3195;2404;49;8;0.09418282;-0.9893842;0.07756232;-0.07894737;-2;0;1;663;741;3983;0.9460629;1.302587;1.703201;0.9475502;1.438118;1.174759;0.9488358;1.555291;0.709757;0.9547056;1.724982;-0.004128516;0.6974915;1.772267;-0.3302466;0.357392;1.813032;-0.1792177;0.06669585;0.9442797;-0.04103677;0;0;0;1.217524;1.754279;-0.3302495;1.507273;1.773258;-0.1792226;1.782253;0.9306023;0.1983907;1.798959;-0.01275015;0.285531;0.6341022;1.287289;1.745375;0.7577519;0.5190399;2.984473;1.042051;0.3776224;4.292717;0.6341022;1.287289;1.745375;0.7577519;0.5190399;2.984473;1.042051;0.3776224;4.292717
134681.654;NotLabelled;NONE;16384;0.6893723;-0.6759003;0.2603878;0.01108033;1;-3;0;-1231;3833;478;65536;0.699446;-0.7133421;0.04155125;-0.01385042;0;-2;0;298;4096;36;8192;0.4238227;-0.5927978;-0.6146527;-0.301939;1;-1;0;1774;3627;389;32768;0.5609418;-0.6189106;-0.4030471;-0.3739612;0;1;0;-295;4077;178;256;-0.1454294;0;-0.9823392;-0.1177285;2;0;0;223;1050;3839;128;0.1980609;-0.0567867;0.9469776;0.2465374;-1;-1;0;39;2057;-3530;4;0.265928;-0.7390673;0.6094183;0.1080332;0;-3;0;-3511;2122;-428;16;0.04432133;-0.9851131;-0.1592798;-0.04709141;-2;-1;0;-1207;394;3846;2;0.132964;-0.6357341;-0.701966;-0.2922437;0;-1;0;3405;2330;87;8;0.09279778;-0.989294;0.07894737;-0.08033241;-1;-2;0;661;685;3951;0.9435991;1.299963;1.70173;0.9451026;1.436974;1.173669;0.9464025;1.555448;0.7089971;0.9522724;1.72514;-0.004888415;0.6950582;1.772424;-0.3310064;0.3549588;1.81319;-0.1799776;0.06488173;0.9444265;-0.04056997;0;0;0;1.215091;1.754437;-0.3310094;1.50484;1.773415;-0.1799825;1.779673;0.9317868;0.2000216;1.796379;-0.01156569;0.2871624;0.6316371;1.284547;1.743851;0.7539096;0.5167475;2.983364;1.037729;0.3789959;4.292103;0.6316371;1.284547;1.743851;0.7539096;0.5167475;2.983364;1.037729;0.3789959;4.292103
134701.6419;NotLabelled;NONE;16384;0.6888239;-0.6759003;0.2617728;0.01246537;1;-2;-1;-1389;3801;264;65536;0.699446;-0.7132601;0.04293629;-0.01385042;1;-4;-1;400;4044;178;8192;0.4238227;-0.5927978;-0.6139704;-0.3033241;2;0;0;1960;3475;409;32768;0.5609418;-0.6189106;-0.4030471;-0.3739612;0;2;0;-441;4039;146;256;-0.1454294;0;-0.9821722;-0.1191136;1;-1;0;165;1022;3731;128;0.1980609;-0.0567867;0.9466159;0.2479224;-3;-2;0;43;2003;-3452;4;0.265928;-0.7390673;0.6094183;0.1080332;0;-2;0;-3479;2098;-490;16;0.04432133;-0.9853361;-0.1578947;-0.04709141;0;-2;-1;-1333;392;3898;2;0.132964;-0.6357341;-0.701966;-0.2922437;0;-1;0;3457;2348;101;8;0.09279778;-0.989294;0.07894737;-0.08033241;-1;-3;0;713;641;4007;0.9462155;1.300055;1.706671;0.9477189;1.437066;1.17861;0.949019;1.55554;0.713938;0.9548341;1.725267;6.02603E-05;0.6976051;1.772483;-0.3260555;0.3574921;1.813131;-0.1750252;0.06499416;0.9444265;-0.04038948;0;0;0;1.217644;1.754665;-0.3260587;1.507387;1.773732;-0.1750304;1.780076;0.9321034;0.2065152;1.794987;-0.01142073;0.2921202;0.6342534;1.284639;1.748792;0.7530768;0.51684;2.98864;1.033254;0.3790884;4.298163;0.6342534;1.284639;1.748792;0.7530768;0.51684;2.98864;1.033254;0.3790884;4.298163
134722.6287;NotLabelled;NONE;16384;0.6888239;-0.6759003;0.2617728;0.01246537;2;-2;-2;-1415;3721;346;65536;0.699446;-0.7132857;0.04293629;-0.01246537;1;-6;-2;356;3996;86;8192;0.4224377;-0.5927978;-0.6149242;-0.3033241;1;4;4;1866;3545;513;32768;0.5609418;-0.6189106;-0.4030471;-0.3739612;0;1;1;-285;4129;116;256;-0.1454294;0;-0.9821722;-0.1191136;2;-1;0;125;1014;3793;128;0.1980609;-0.05540166;0.946698;0.2479224;-3;-1;0;-3;1959;-3472;4;0.265928;-0.7390673;0.6094183;0.1080332;0;-1;0;-3507;2110;-472;16;0.04293629;-0.9853975;-0.1578947;-0.04709141;-1;-2;-1;-1297;370;3890;2;0.132964;-0.6357341;-0.701966;-0.2922437;0;-3;0;3429;2374;53;8;0.09279778;-0.9894055;0.07894737;-0.07894737;-1;-1;0;675;681;3997;0.9467783;1.294451;1.702755;0.9482981;1.432941;1.175081;0.9496126;1.552717;0.7107421;0.9555647;1.724411;-0.002663791;0.6983861;1.772631;-0.3286727;0.3582751;1.812999;-0.1775629;0.06675356;0.9442809;-0.0409108;0;0;0;1.218418;1.754603;-0.3286762;1.508154;1.773136;-0.1775677;1.779371;0.9302702;0.2022911;1.794278;-0.01325345;0.2878965;0.6348149;1.278918;1.744824;0.75358;0.5111177;2.984677;1.033511;0.3735154;4.29427;0.6348149;1.278918;1.744824;0.75358;0.5111177;2.984677;1.033511;0.3735154;4.29427
134742.623;NotLabelled;NONE;16384;0.688296;-0.6759003;0.2631579;0.01246537;2;-7;-3;-1437;3775;220;65536;0.699446;-0.7132857;0.04293629;-0.01246537;1;-9;-2;238;4146;14;8192;0.4224377;-0.5927978;-0.6149242;-0.3033241;2;1;2;1830;3621;551;32768;0.5609418;-0.6189106;-0.4030471;-0.3739612;0;0;1;-287;4047;-18;256;-0.1454294;0;-0.9821722;-0.1191136;2;0;0;105;1000;3813;128;0.1980609;-0.05540166;0.9463341;0.2493075;-4;0;0;15;2001;-3598;4;0.265928;-0.7379231;0.6108033;0.1080332;0;-1;-1;-3467;2142;-496;16;0.04293629;-0.9853975;-0.1578947;-0.04709141;-1;-1;-1;-1245;382;3840;2;0.132964;-0.6371191;-0.7012852;-0.2908587;0;-1;2;3435;2316;49;8;0.09141274;-0.9895344;0.07894737;-0.07894737;-1;-1;0;721;625;4003;0.9449733;1.295188;1.703381;0.9464896;1.433364;1.175624;0.947801;1.552863;0.7112148;0.9537532;1.724558;-0.002191067;0.6965744;1.772778;-0.3282;0.3564635;1.813145;-0.1770901;0.06494009;0.944427;-0.04044201;0;0;0;1.216606;1.75475;-0.328203;1.506342;1.773282;-0.1770953;1.777367;0.9314435;0.20517;1.792274;-0.01208019;0.2907758;0.6330103;1.279679;1.745461;0.7517754;0.5118794;2.985314;1.031227;0.3779442;4.295389;0.6330103;1.279679;1.745461;0.7517754;0.5118794;2.985314;1.031227;0.3779442;4.295389
134783.638;NotLabelled;NONE;16384;0.6877648;-0.6759003;0.2645429;0.01246537;2;-11;-1;-1457;3909;458;65536;0.699446;-0.7133085;0.04293629;-0.01108033;0;-5;0;242;4064;34;8192;0.4224377;-0.5927978;-0.6156055;-0.301939;0;2;2;2086;3545;589;32768;0.5609418;-0.6189106;-0.4030471;-0.3739612;-2;-1;1;-389;4125;116;256;-0.1440443;0;-0.9822074;-0.1204986;3;0;0;183;1012;3937;128;0.1980609;-0.05540166;0.9463341;0.2493075;-7;-1;0;101;2029;-3734;4;0.2645429;-0.7384207;0.6108033;0.1080332;0;0;-1;-3457;2200;-458;16;0.04293629;-0.9856836;-0.1565097;-0.04570637;0;-2;-1;-1219;400;3864;2;0.132964;-0.6371191;-0.7012852;-0.2908587;0;0;2;3365;2344;57;8;0.09141274;-0.9895344;0.07894737;-0.07894737;0;0;0;791;747;3941;0.9460021;1.29178;1.700929;0.9475346;1.431434;1.173561;0.9488603;1.552234;0.7094883;0.9548124;1.723929;-0.003917575;0.6976336;1.772148;-0.3299263;0.3575225;1.812516;-0.1788167;0.06494009;0.9444277;-0.04044191;0;0;0;1.217665;1.754121;-0.3299296;1.507401;1.772654;-0.1788219;1.778432;0.9308147;0.2034397;1.793338;-0.01270914;0.2890456;0.6340377;1.276153;1.742956;0.7514236;0.508806;2.983221;1.030875;0.374871;4.293295;0.6340377;1.276153;1.742956;0.7514236;0.508806;2.983221;1.030875;0.374871;4.293295
134803.8096;NotLabelled;NONE;16384;0.6877383;-0.6759003;0.2645429;0.01385042;0;-7;-1;-1159;3941;508;65536;0.699446;-0.7132238;0.04432133;-0.01108033;0;0;1;230;4122;-38;8192;0.4224377;-0.5927978;-0.6156055;-0.301939;-2;2;2;1878;3637;475;32768;0.5609418;-0.6189106;-0.4030471;-0.3739612;-1;-2;0;-329;4031;302;256;-0.1440443;0;-0.9822074;-0.1204986;2;-1;0;203;1036;3999;128;0.1980609;-0.05540166;0.9459682;0.2506925;-5;0;0;49;2087;-3860;4;0.2645429;-0.7384207;0.6108033;0.1080332;0;0;0;-3485;2092;-476;16;0.04293629;-0.9856836;-0.1565097;-0.04570637;-1;-1;0;-1199;386;3818;2;0.1315789;-0.6371191;-0.7015464;-0.2908587;0;0;1;3339;2360;59;8;0.09141274;-0.9894229;0.08033241;-0.07894737;-2;0;0;727;683;3929;0.9456486;1.288755;1.700009;0.947181;1.428408;1.172642;0.9485064;1.549209;0.7085685;0.9545403;1.722906;-0.004351377;0.6973968;1.772059;-0.3302487;0.3572737;1.812025;-0.1790596;0.0632414;0.9445708;-0.03978775;0;0;0;1.217427;1.753995;-0.3302518;1.50715;1.772084;-0.1790647;1.779607;0.9314852;0.2049106;1.794271;-0.01203871;0.2905581;0.6336842;1.273128;1.742036;0.7506953;0.5083871;2.983944;1.029875;0.3751788;4.294151;0.6336842;1.273128;1.742036;0.7506953;0.5083871;2.983944;1.029875;0.3751788;4.294151
134824.6124;NotLabelled;NONE;16384;0.6877383;-0.6759003;0.2645429;0.01385042;1;2;0;-1117;3891;478;65536;0.699446;-0.7132238;0.04432133;-0.01108033;0;-3;1;336;4080;110;8192;0.4224377;-0.5927978;-0.6156055;-0.301939;0;-1;1;1692;3623;207;32768;0.5595568;-0.6193258;-0.4030471;-0.3753462;0;2;0;-265;4137;290;256;-0.1440443;0;-0.9820365;-0.1218837;2;0;0;173;1108;3895;128;0.1980609;-0.05540166;0.9459682;0.2506925;0;0;0;-43;2061;-3596;4;0.2645429;-0.7384207;0.6108033;0.1080332;0;0;0;-3555;2108;-426;16;0.04293629;-0.9856836;-0.1565097;-0.04570637;-1;0;0;-1227;422;3840;2;0.1315789;-0.6371191;-0.7015464;-0.2908587;0;-1;0;3429;2328;19;8;0.09141274;-0.9894229;0.08033241;-0.07894737;-2;0;0;725;661;3971;0.9456578;1.286088;1.696891;0.9472065;1.42722;1.169918;0.9485463;1.549321;0.7061851;0.9546274;1.723018;-0.006735027;0.6975057;1.772171;-0.332649;0.3573727;1.812138;-0.1814827;0.06500296;0.9444292;-0.04030265;0;0;0;1.217536;1.754108;-0.3326175;1.507248;1.772196;-0.1814107;1.779666;0.9326773;0.2049476;1.794325;-0.01084638;0.2905964;0.6336921;1.270344;1.738864;0.7506202;0.5056026;2.980781;1.029713;0.3723938;4.291007;0.6336921;1.270344;1.738864;0.7506202;0.5056026;2.980781;1.029713;0.3723938;4.291007
134845.6348;NotLabelled;NONE;16384;0.6872039;-0.6759003;0.265928;0.01385042;1;-6;-1;-1503;3849;180;65536;0.700831;-0.7117955;0.04570637;-0.009695291;1;-5;0;256;4132;12;8192;0.4210526;-0.5927978;-0.6158733;-0.3033241;1;5;0;2114;3501;461;32768;0.5595568;-0.6184222;-0.4044321;-0.3753462;1;5;1;-325;4049;164;256;-0.1440443;0;-0.9818636;-0.1232687;2;0;0;205;1004;3913;128;0.1980609;-0.05540166;0.9459682;0.2506925;-4;1;0;71;2011;-3636;4;0.2645429;-0.7384207;0.6108033;0.1080332;0;-1;0;-3441;2178;-434;16;0.04293629;-0.9856836;-0.1565097;-0.04570637;-1;0;0;-1251;466;3912;2;0.1315789;-0.6371191;-0.7015464;-0.2908587;0;0;0;3407;2306;25;8;0.0900277;-0.9894384;0.08033241;-0.08033241;-1;0;0;737;705;4023;0.9455173;1.283793;1.698596;0.9470661;1.424925;1.171623;0.948406;1.547026;0.7078904;0.9545779;1.722689;-0.004546762;0.6974857;1.772845;-0.3303315;0.3573639;1.81253;-0.179065;0.0650022;0.9444289;-0.04030345;0;0;0;1.217509;1.754574;-0.3303345;1.507224;1.772129;-0.17907;1.779663;0.9315305;0.2049167;1.791743;-0.01186705;0.2923417;0.6335517;1.268049;1.74057;0.7505043;0.5033073;2.982484;1.029623;0.3700981;4.292704;0.6335517;1.268049;1.74057;0.7505043;0.5033073;2.982484;1.029623;0.3700981;4.292704
134865.634;NotLabelled;NONE;16384;0.6871747;-0.6759003;0.265928;0.01523546;0;-6;0;-1395;3935;400;65536;0.700831;-0.711813;0.04570637;-0.008310249;0;-4;0;252;4070;2;8192;0.4210526;-0.5927978;-0.6158733;-0.3033241;1;4;1;1868;3519;577;32768;0.5595568;-0.6184222;-0.4044321;-0.3753462;0;-1;0;-175;4117;74;256;-0.1440443;0;-0.9818636;-0.1232687;3;-1;0;147;958;3927;128;0.1980609;-0.0567867;0.9455179;0.2520775;-5;-1;0;97;2049;-3682;4;0.2645429;-0.7382168;0.6108033;0.1094183;0;0;-1;-3447;2248;-444;16;0.04155125;-0.9857429;-0.1565097;-0.04570637;-1;0;0;-1319;408;3930;2;0.1315789;-0.6371191;-0.7015464;-0.2908587;0;0;0;3443;2388;35;8;0.0900277;-0.9894384;0.08033241;-0.08033241;0;0;0;675;671;4031;0.9474665;1.28054;1.699659;0.9490151;1.421672;1.172686;0.9503549;1.543773;0.7089534;0.9566669;1.721401;-0.002995253;0.6996266;1.77256;-0.328665;0.359506;1.811962;-0.1773222;0.06608376;0.9444954;-0.03684409;0;0;0;1.219642;1.75408;-0.3286684;1.50935;1.771102;-0.1773276;1.779057;0.9302921;0.2081226;1.793158;-0.01313281;0.2949508;0.6355009;1.264796;1.741632;0.7523942;0.5000539;2.983552;1.031451;0.3668444;4.293785;0.6355009;1.264796;1.741632;0.7523942;0.5000539;2.983552;1.031451;0.3668444;4.293785
134885.8148;NotLabelled;NONE;16384;0.6871747;-0.6759003;0.265928;0.01523546;0;-3;1;-1287;3943;466;65536;0.700831;-0.711813;0.04570637;-0.008310249;0;0;0;280;4072;-12;8192;0.4210526;-0.5927978;-0.6158733;-0.3033241;0;0;0;1780;3751;653;32768;0.5595568;-0.6184222;-0.4044321;-0.3753462;-1;-1;0;-295;4099;146;256;-0.1440443;0;-0.9818636;-0.1232687;1;-3;0;81;984;3911;128;0.1980609;-0.05540166;0.9456;0.2520775;-3;-3;0;29;2137;-3602;4;0.2645429;-0.7384207;0.6108033;0.1080332;0;0;0;-3641;2134;-464;16;0.04155125;-0.9857429;-0.1565097;-0.04570637;0;0;0;-1277;326;3862;2;0.1315789;-0.6371191;-0.7015464;-0.2908587;0;0;1;3419;2374;61;8;0.0900277;-0.9894384;0.08033241;-0.08033241;0;1;0;695;653;3995;0.9439344;1.277963;1.699713;0.9455026;1.420886;1.173223;0.9468597;1.544563;0.7099079;0.9531717;1.72219;-0.002040565;0.6961314;1.773349;-0.3277106;0.3560109;1.812751;-0.1763681;0.06427883;0.9446387;-0.0363609;0;0;0;1.216147;1.75487;-0.327714;1.505854;1.771892;-0.1763729;1.775594;0.9310815;0.2090546;1.789695;-0.01234293;0.2958828;0.6319671;1.262076;1.741621;0.7514191;0.4950171;2.981867;1.029997;0.3654771;4.292569;0.6319671;1.262076;1.741621;0.7514191;0.4950171;2.981867;1.029997;0.3654771;4.292569
134907.6333;NotLabelled;NONE;16384;0.6871426;-0.6759003;0.265928;0.0166205;0;1;-1;-1281;3783;416;65536;0.700831;-0.711813;0.04570637;-0.008310249;0;2;0;420;4046;42;8192;0.4210526;-0.5927978;-0.6158733;-0.3033241;0;-1;0;1812;3673;527;32768;0.5595568;-0.6184222;-0.4044321;-0.3753462;-1;1;-1;-395;4123;242;256;-0.1440443;-0.001385042;-0.9816877;-0.1246537;1;-1;-1;173;1122;3821;128;0.1966759;-0.05540166;0.9455189;0.2534626;0;-1;0;-7;2193;-3574;4;0.2645429;-0.7384207;0.6108033;0.1080332;0;-1;0;-3589;2118;-430;16;0.04155125;-0.9857429;-0.1565097;-0.04570637;0;0;0;-1279;378;3876;2;0.1315789;-0.6371191;-0.7015464;-0.2908587;0;-1;1;3355;2376;61;8;0.0900277;-0.9894384;0.08033241;-0.08033241;0;0;0;751;637;3977;0.9439534;1.278552;1.6999;0.9455183;1.421162;1.173325;0.9468726;1.544563;0.7099371;0.953185;1.722191;-0.002011299;0.6961448;1.77335;-0.3276813;0.3560241;1.812752;-0.1763389;0.06427875;0.9446394;-0.0363606;0;0;0;1.21616;1.754871;-0.3276844;1.505868;1.771892;-0.1763434;1.775569;0.9310822;0.2091109;1.78967;-0.01234269;0.2959391;0.6319864;1.26269;1.74182;0.7488794;0.4979479;2.983739;1.027457;0.3684082;4.294441;0.6319864;1.26269;1.74182;0.7488794;0.4979479;2.983739;1.027457;0.3684082;4.294441
134928.6137;NotLabelled;NONE;16384;0.6871747;-0.6759003;0.265928;0.01523546;0;1;-1;-1423;3805;382;65536;0.700831;-0.711813;0.04570637;-0.008310249;0;0;-1;410;4136;30;8192;0.4210526;-0.5927978;-0.6158733;-0.3033241;1;0;0;2000;3531;337;32768;0.5595568;-0.6184222;-0.4044321;-0.3753462;0;2;1;-401;4021;222;256;-0.1440443;0;-0.9815118;-0.1260388;1;0;-1;139;1138;3819;128;0.1980609;-0.05540166;0.9452298;0.2534626;-3;1;0;29;2047;-3628;4;0.2645429;-0.7384207;0.6108033;0.1080332;0;0;-1;-3497;2192;-468;16;0.04155125;-0.9857429;-0.1565097;-0.04570637;0;0;0;-1283;446;3928;2;0.1315789;-0.6385041;-0.7008598;-0.2894737;0;-1;0;3395;2426;125;8;0.0900277;-0.9894384;0.08033241;-0.08033241;0;0;0;731;723;4017;0.9413767;1.272475;1.699165;0.9429576;1.416559;1.172991;0.944326;1.541257;0.7099502;0.9512578;1.720556;-0.001573622;0.6944083;1.77329;-0.3271426;0.3543984;1.813394;-0.1757355;0.06429248;0.9446392;-0.03633663;0;0;0;1.214364;1.753189;-0.3271459;1.504109;1.768946;-0.175741;1.7737;0.9281368;0.2097908;1.787767;-0.01528788;0.2966242;0.6294085;1.256497;1.74103;0.7458313;0.4917543;2.982994;1.023913;0.3622146;4.293802;0.6294085;1.256497;1.74103;0.7458313;0.4917543;2.982994;1.023913;0.3622146;4.293802
134948.6264;NotLabelled;NONE;16384;0.6879978;-0.6745152;0.267313;0.01523546;0;-1;-2;-1411;3783;406;65536;0.700831;-0.711813;0.04570637;-0.008310249;0;2;-1;286;4056;38;8192;0.4196676;-0.5927978;-0.616818;-0.3033241;0;3;2;1942;3507;473;32768;0.5595568;-0.6184222;-0.4044321;-0.3753462;0;0;1;-211;4125;146;256;-0.1440443;0;-0.9815118;-0.1260388;-1;0;0;199;1056;3931;128;0.1980609;-0.0567867;0.9451475;0.2534626;-3;2;0;-41;2055;-3744;4;0.2645429;-0.7384207;0.6108033;0.1080332;0;0;-1;-3479;2154;-472;16;0.04155125;-0.9857429;-0.1565097;-0.04570637;0;0;0;-1295;430;3848;2;0.1315789;-0.6385041;-0.7008598;-0.2894737;0;1;0;3375;2424;43;8;0.0900277;-0.9894384;0.08033241;-0.08033241;0;1;0;653;681;4037;0.9435471;1.27041;1.697801;0.9451281;1.414496;1.171628;0.9464964;1.539197;0.7085876;0.9530932;1.720752;-0.002367258;0.696159;1.773914;-0.3277996;0.3560396;1.812751;-0.1763087;0.06428237;0.9446392;-0.03635441;0;0;0;1.21616;1.75502;-0.327803;1.50585;1.770974;-0.1763139;1.77552;0.9301639;0.2091626;1.789613;-0.01326084;0.2959919;0.6315789;1.25443;1.739666;0.7483517;0.4896884;2.981597;1.026803;0.3601487;4.292326;0.6315789;1.25443;1.739666;0.7483517;0.4896884;2.981597;1.026803;0.3601487;4.292326
134968.6247;NotLabelled;NONE;16384;0.688027;-0.6745152;0.267313;0.01385042;0;3;0;-1163;3873;412;65536;0.700831;-0.7119007;0.04432133;-0.008310249;0;1;1;230;4112;32;8192;0.4196676;-0.5927978;-0.616818;-0.3033241;0;0;1;1782;3679;441;32768;0.5595568;-0.6184222;-0.4044321;-0.3753462;0;0;0;-179;4175;124;256;-0.1440443;0;-0.9816887;-0.1246537;-1;0;0;247;1070;3933;128;0.1980609;-0.0567867;0.9451475;0.2534626;0;1;0;-7;2149;-3730;4;0.2645429;-0.7384207;0.6108033;0.1080332;0;1;0;-3477;2138;-454;16;0.04155125;-0.9857429;-0.1565097;-0.04570637;0;0;0;-1269;388;3810;2;0.1315789;-0.6385041;-0.7008598;-0.2894737;0;0;0;3403;2384;113;8;0.0900277;-0.9894384;0.08033241;-0.08033241;0;0;0;719;653;3993;0.9462433;1.269045;1.698529;0.9478278;1.413445;1.172441;0.9491992;1.538421;0.7094754;0.9558068;1.719976;-0.001479268;0.6988778;1.773138;-0.326916;0.358756;1.811975;-0.1754296;0.06428298;0.944639;-0.03635342;0;0;0;1.218879;1.754243;-0.3269113;1.508566;1.770197;-0.1754172;1.778012;0.9306507;0.2129577;1.792103;-0.01277423;0.2997875;0.6342748;1.253041;1.740382;0.7510283;0.4882991;2.982315;1.029459;0.3587596;4.293049;0.6342748;1.253041;1.740382;0.7510283;0.4882991;2.982315;1.029459;0.3587596;4.293049
134988.6242;NotLabelled;NONE;16384;0.6872039;-0.6759003;0.265928;0.01385042;0;3;0;-1285;3893;420;65536;0.700831;-0.711813;0.04570637;-0.008310249;0;0;1;280;4038;148;8192;0.4210526;-0.5927978;-0.6158733;-0.3033241;0;-1;0;1892;3671;497;32768;0.5595568;-0.6184222;-0.4044321;-0.3753462;0;0;0;-359;4039;226;256;-0.1440443;0;-0.9815118;-0.1260388;0;0;0;171;1084;3989;128;0.1980609;-0.0567867;0.9451475;0.2534626;0;-1;0;7;2093;-3678;4;0.2631579;-0.7389154;0.6108033;0.1080332;0;0;0;-3537;2072;-412;16;0.04155125;-0.9857429;-0.1565097;-0.04570637;0;0;0;-1295;404;3784;2;0.1315789;-0.6385041;-0.7008598;-0.2894737;0;0;1;3389;2310;41;8;0.0900277;-0.9894384;0.08033241;-0.08033241;0;0;0;725;661;3929;0.9463534;1.271298;1.699729;0.9479381;1.415697;1.173641;0.9493097;1.540674;0.7106752;0.9557635;1.720265;-0.0007789135;0.6987761;1.772426;-0.3263314;0.3586561;1.811546;-0.1749142;0.06251784;0.9447765;-0.03583781;0;0;0;1.218784;1.753739;-0.3263346;1.508483;1.770226;-0.1749189;1.777957;0.9304492;0.2129374;1.792054;-0.01297522;0.2997668;0.6343849;1.255293;1.741582;0.751218;0.4905517;2.983507;1.029733;0.361012;4.294223;0.6343849;1.255293;1.741582;0.751218;0.4905517;2.983507;1.029733;0.361012;4.294223
135009.7672;NotLabelled;NONE;16384;0.6872039;-0.6759003;0.265928;0.01385042;0;1;0;-1443;3815;298;65536;0.700831;-0.711813;0.04570637;-0.008310249;0;0;0;308;4044;28;8192;0.4210526;-0.5927978;-0.6165536;-0.301939;0;0;0;2042;3493;381;32768;0.5595568;-0.6184222;-0.4044321;-0.3753462;0;0;0;-305;4153;276;256;-0.1440443;0;-0.9815118;-0.1260388;1;0;0;141;1132;3935;128;0.1980609;-0.0567867;0.9451475;0.2534626;1;0;0;3;2133;-3674;4;0.2631579;-0.7387117;0.6108033;0.1094183;1;0;1;-3517;2192;-476;16;0.04155125;-0.9857429;-0.1565097;-0.04570637;0;0;0;-1271;454;3946;2;0.1315789;-0.6385041;-0.7008598;-0.2894737;0;-1;-1;3373;2388;23;8;0.0900277;-0.9895499;0.08033241;-0.07894737;0;0;0;753;667;3963;0.9452186;1.269176;1.697146;0.946803;1.413575;1.171058;0.9481744;1.538551;0.7080927;0.9547716;1.720106;-0.002862275;0.6978377;1.773268;-0.3282949;0.357718;1.812106;-0.176804;0.0642822;0.9446387;-0.0363543;0;0;0;1.217839;1.754374;-0.3282979;1.507529;1.770327;-0.1768086;1.777199;0.9295177;0.2086682;1.791291;-0.01390624;0.2954979;0.63325;1.253171;1.739;0.7531515;0.4910417;2.982238;1.031602;0.3615022;4.292968;0.63325;1.253171;1.739;0.7531515;0.4910417;2.982238;1.031602;0.3615022;4.292968
135031.6221;NotLabelled;NONE;16384;0.6872039;-0.6759003;0.265928;0.01385042;0;1;-1;-1479;3739;336;65536;0.700831;-0.711813;0.04570637;-0.008310249;0;1;0;318;4030;62;8192;0.4210526;-0.5941828;-0.6152189;-0.301939;0;0;0;1922;3681;321;32768;0.5595568;-0.6184222;-0.4044321;-0.3753462;1;1;0;-321;4085;202;256;-0.1440443;0;-0.9815118;-0.1260388;0;0;1;191;1130;3869;128;0.1980609;-0.0567867;0.9451475;0.2534626;2;0;0;17;2065;-3514;4;0.2631579;-0.7387117;0.6108033;0.1094183;1;0;0;-3623;2186;-422;16;0.04155125;-0.9857429;-0.1565097;-0.04570637;0;0;0;-1281;386;3914;2;0.1315789;-0.6385041;-0.7008598;-0.2894737;0;0;0;3373;2360;19;8;0.0900277;-0.9895499;0.08033241;-0.07894737;0;0;0;783;649;3959;0.9452198;1.269175;1.697145;0.9468041;1.413575;1.171057;0.9481754;1.538551;0.7080915;0.9547721;1.720105;-0.002863288;0.6978379;1.773268;-0.3282959;0.3577183;1.812105;-0.1768048;0.06428249;0.9446387;-0.03635482;0;0;0;1.217839;1.754374;-0.3282994;1.507529;1.770327;-0.17681;1.779706;0.9307613;0.2096148;1.793798;-0.0126636;0.2964441;0.6332512;1.253171;1.738999;0.7557142;0.4887223;2.980562;1.034165;0.3591831;4.291291;0.6332512;1.253171;1.738999;0.7557142;0.4887223;2.980562;1.034165;0.3591831;4.291291
135052.6239;NotLabelled;NONE;16384;0.6872305;-0.6759003;0.265928;0.01246537;1;3;0;-1479;3841;342;65536;0.700831;-0.711813;0.04570637;-0.008310249;0;-1;0;428;4070;66;8192;0.4196676;-0.5941828;-0.6154839;-0.3033241;1;1;0;2028;3523;617;32768;0.5595568;-0.6175143;-0.4058172;-0.3753462;0;0;1;-473;4117;140;256;-0.1440443;0;-0.9815118;-0.1260388;0;0;1;205;1086;3883;128;0.199446;-0.05540166;0.9449385;0.2534626;-2;-1;0;33;2115;-3492;4;0.2631579;-0.7387117;0.6108033;0.1094183;0;-2;-1;-3633;2160;-390;16;0.04155125;-0.9857429;-0.1565097;-0.04570637;1;0;0;-1203;326;3986;2;0.1315789;-0.6385041;-0.7008598;-0.2894737;0;0;0;3335;2390;81;8;0.0900277;-0.9895499;0.08033241;-0.07894737;0;-1;0;789;687;4019;0.9452186;1.269176;1.697146;0.946803;1.413575;1.171058;0.9481744;1.538551;0.7080927;0.9547716;1.720106;-0.002862275;0.6978377;1.773268;-0.3282949;0.357718;1.812106;-0.176804;0.0642822;0.9446387;-0.0363543;0;0;0;1.217839;1.754374;-0.3282979;1.507529;1.770327;-0.1768086;1.777898;0.9304266;0.2101572;1.791991;-0.01299739;0.2969865;0.63325;1.253171;1.739;0.7557123;0.488723;2.980563;1.034162;0.3591833;4.291292;0.63325;1.253171;1.739;0.7557123;0.488723;2.980563;1.034162;0.3591833;4.291292
135073.8106;NotLabelled;NONE;16384;0.6872305;-0.6759003;0.265928;0.01246537;0;-2;0;-1485;3805;406;65536;0.700831;-0.711813;0.04570637;-0.008310249;-1;0;0;302;4136;14;8192;0.4196676;-0.5927978;-0.616818;-0.3033241;-1;1;3;1958;3573;677;32768;0.5595568;-0.6175795;-0.4044321;-0.3767313;0;-2;0;-215;4047;200;256;-0.1440443;-0.001385042;-0.9815108;-0.1260388;0;-1;0;211;1076;3875;128;0.199446;-0.0567867;0.9448562;0.2534626;-2;0;0;51;2149;-3584;4;0.2631579;-0.7375642;0.6121883;0.1094183;0;0;-1;-3541;2230;-418;16;0.04155125;-0.9858062;-0.1565097;-0.04432133;1;-2;0;-1247;430;3886;2;0.1315789;-0.6385041;-0.7002861;-0.2908587;0;-1;1;3329;2360;33;8;0.0900277;-0.9895499;0.08033241;-0.07894737;0;1;0;699;657;3943;0.9469048;1.269109;1.696813;0.948486;1.413199;1.170641;0.9498544;1.537902;0.7076015;0.9564513;1.719457;-0.003353238;0.6995172;1.772619;-0.328786;0.3593979;1.811456;-0.1772945;0.0642826;0.9446392;-0.03635423;0;0;0;1.219518;1.753725;-0.328789;1.509208;1.769678;-0.1772998;1.776851;0.9295731;0.2111137;1.792971;-0.01387382;0.297345;0.6349365;1.25313;1.738678;0.7573991;0.4886808;2.980242;1.03585;0.3591411;4.290971;0.6349365;1.25313;1.738678;0.7573991;0.4886808;2.980242;1.03585;0.3591411;4.290971
135094.6293;NotLabelled;NONE;16384;0.6872305;-0.6759003;0.265928;0.01246537;0;-1;0;-1407;3771;452;65536;0.700831;-0.7119007;0.04432133;-0.008310249;0;3;-1;370;4120;94;8192;0.4210526;-0.5941828;-0.6152189;-0.301939;-1;-5;2;1622;3667;355;32768;0.5595568;-0.6184222;-0.4044321;-0.3753462;0;-1;-2;-331;4139;208;256;-0.1440443;-0.001385042;-0.9815108;-0.1260388;0;-2;0;119;1116;3747;128;0.199446;-0.05540166;0.9449385;0.2534626;1;-2;0;15;2105;-3562;4;0.2631579;-0.7377684;0.6121883;0.1080332;0;0;0;-3467;2134;-412;16;0.04155125;-0.9858062;-0.1565097;-0.04432133;1;-2;0;-1235;344;3840;2;0.1315789;-0.6385041;-0.7008598;-0.2894737;0;-1;1;3333;2292;23;8;0.0900277;-0.9895499;0.08033241;-0.07894737;0;1;0;777;677;3939;0.9462198;1.267253;1.696861;0.9478043;1.411657;1.170774;0.9491759;1.536637;0.7078096;0.956256;1.717899;-0.003215492;0.6994626;1.771634;-0.3286654;0.3594523;1.811456;-0.1771842;0.06429444;0.9446385;-0.03633325;0;0;0;1.21941;1.751325;-0.3286685;1.509145;1.766549;-0.1771893;1.778477;0.9267716;0.2107658;1.791002;-0.01682067;0.2959955;0.6342512;1.251248;1.738714;0.7549233;0.4872398;2.980723;1.03655;0.3582768;4.290832;0.6342512;1.251248;1.738714;0.7549233;0.4872398;2.980723;1.03655;0.3582768;4.290832
135115.7389;NotLabelled;NONE;16384;0.6872305;-0.6759003;0.265928;0.01246537;0;3;-2;-1227;3829;358;65536;0.699446;-0.7132615;0.04432133;-0.008310249;0;3;-1;432;4022;6;8192;0.4210526;-0.5941828;-0.6152189;-0.301939;1;-6;0;1850;3693;295;32768;0.5595568;-0.6175143;-0.4058172;-0.3753462;1;4;-2;-425;4113;198;256;-0.1440443;-0.001385042;-0.9815108;-0.1260388;0;-1;0;147;1108;3785;128;0.199446;-0.05540166;0.9449385;0.2534626;1;-3;-1;-67;2093;-3616;4;0.2631579;-0.7377684;0.6121883;0.1080332;0;-3;0;-3435;2128;-468;16;0.04293629;-0.9859657;-0.1551246;-0.04432133;0;0;0;-1271;414;3830;2;0.1315789;-0.6385041;-0.7008598;-0.2894737;0;-2;0;3291;2294;-13;8;0.0900277;-0.9895499;0.08033241;-0.07894737;0;-1;0;823;659;3921;0.9444754;1.268067;1.698045;0.9460567;1.412157;1.171873;0.9474253;1.53686;0.7088336;0.9544936;1.718122;-0.002191663;0.6976949;1.771857;-0.3276371;0.3576872;1.811679;-0.1761502;0.06253055;0.944777;-0.0358144;0;0;0;1.217643;1.751548;-0.327649;1.50738;1.766772;-0.1761744;1.777631;0.9266398;0.2103717;1.791696;-0.01678491;0.2972062;0.6325071;1.252087;1.73991;0.7506432;0.4904032;2.98359;1.032291;0.3614402;4.293694;0.6325071;1.252087;1.73991;0.7506432;0.4904032;2.98359;1.032291;0.3614402;4.293694
135135.6225;NotLabelled;NONE;16384;0.6872542;-0.6759003;0.265928;0.01108033;1;4;-1;-1461;3781;430;65536;0.699446;-0.7132615;0.04432133;-0.008310249;-1;0;-1;232;4094;32;8192;0.4210526;-0.5955678;-0.6138782;-0.301939;1;0;0;2148;3541;429;32768;0.5595568;-0.6175143;-0.4058172;-0.3753462;0;3;0;-375;4071;138;256;-0.1440443;-0.001385042;-0.9815108;-0.1260388;0;0;0;247;1066;3919;128;0.199446;-0.05540166;0.9449385;0.2534626;-1;-2;0;-69;2025;-3646;4;0.2631579;-0.7377684;0.6121883;0.1080332;0;-2;0;-3407;2118;-478;16;0.04293629;-0.9859657;-0.1551246;-0.04432133;0;0;0;-1245;400;3874;2;0.1315789;-0.6385041;-0.7008598;-0.2894737;0;-1;0;3371;2386;139;8;0.0900277;-0.9895499;0.08033241;-0.07894737;0;-1;0;711;679;3957;0.9433351;1.267918;1.694048;0.9449165;1.412007;1.167875;0.9462849;1.536711;0.7048359;0.9533651;1.717972;-0.006189406;0.6965718;1.771708;-0.3316389;0.3565615;1.811529;-0.180158;0.06140134;0.9447117;-0.03931201;0;0;0;1.216519;1.751399;-0.331642;1.506254;1.766622;-0.1801628;1.776495;0.926722;0.2068927;1.792586;-0.01672554;0.2931294;0.6313668;1.251938;1.735913;0.7494823;0.4902534;2.979594;1.031407;0.3577609;4.289286;0.6313668;1.251938;1.735913;0.7494823;0.4902534;2.979594;1.031407;0.3577609;4.289286
135156.6302;NotLabelled;NONE;16384;0.6872305;-0.6759003;0.265928;0.01246537;1;0;1;-1305;3899;356;65536;0.699446;-0.7132615;0.04432133;-0.008310249;-1;0;-1;292;4062;72;8192;0.4210526;-0.5955678;-0.6145575;-0.300554;0;4;2;2080;3481;485;32768;0.5595568;-0.6175143;-0.4058172;-0.3753462;0;-3;0;-273;4141;166;256;-0.1440443;-0.001385042;-0.9815108;-0.1260388;-1;-1;0;269;1028;3899;128;0.199446;-0.05540166;0.9445658;0.2548476;0;1;0;-87;2115;-3668;4;0.2631579;-0.7377684;0.6121883;0.1080332;0;0;0;-3375;2118;-444;16;0.04155125;-0.9860251;-0.1551246;-0.04432133;0;0;0;-1267;404;3822;2;0.1315789;-0.6385041;-0.7008598;-0.2894737;0;0;0;3291;2360;71;8;0.0900277;-0.9894384;0.08033241;-0.08033241;0;0;0;689;701;3933;0.9450111;1.267265;1.693553;0.9465925;1.411354;1.167381;0.947961;1.536058;0.7043417;0.9550411;1.717319;-0.006683648;0.6982477;1.771055;-0.3321331;0.3582376;1.810876;-0.1806522;0.06140117;0.9447119;-0.03931233;0;0;0;1.218195;1.750746;-0.3321362;1.50793;1.765969;-0.1806569;1.77636;0.9257381;0.2069397;1.792451;-0.01770902;0.2931763;0.6330429;1.251285;1.735418;0.7511584;0.4896004;2.9791;1.033083;0.3571079;4.288791;0.6330429;1.251285;1.735418;0.7511584;0.4896004;2.9791;1.033083;0.3571079;4.288791
135178.622;NotLabelled;NONE;16384;0.6872305;-0.6759003;0.265928;0.01246537;1;3;0;-1523;3721;416;65536;0.699446;-0.7133462;0.04293629;-0.008310249;0;0;-2;364;4076;10;8192;0.4210526;-0.5955678;-0.6145575;-0.300554;0;-4;1;1818;3657;303;32768;0.5595568;-0.6175143;-0.4058172;-0.3753462;1;1;-2;-365;4115;234;256;-0.1440443;-0.001385042;-0.9815108;-0.1260388;0;-1;0;279;1106;3897;128;0.199446;-0.05540166;0.9445658;0.2548476;1;-1;0;-63;2123;-3546;4;0.2631579;-0.7377684;0.6121883;0.1080332;0;1;0;-3419;2040;-452;16;0.04155125;-0.9860251;-0.1551246;-0.04432133;0;-1;0;-1267;440;3772;2;0.1315789;-0.6385041;-0.7002861;-0.2908587;0;0;0;3361;2340;57;8;0.0900277;-0.9895499;0.08033241;-0.07894737;0;0;0;735;643;3981;0.9432946;1.265143;1.693265;0.9448919;1.410708;1.167499;0.9462748;1.536711;0.7048116;0.9533546;1.717972;-0.006213248;0.6965613;1.771708;-0.3316628;0.356551;1.811529;-0.1801817;0.06140167;0.9447122;-0.03931212;0;0;0;1.216509;1.751399;-0.3316658;1.506244;1.766623;-0.1801868;1.777213;0.9276319;0.2083293;1.793305;-0.01581526;0.2945659;0.6313251;1.249046;1.735076;0.7494407;0.4873617;2.978757;1.030893;0.3585391;4.288916;0.6313251;1.249046;1.735076;0.7494407;0.4873617;2.978757;1.030893;0.3585391;4.288916
135198.6318;NotLabelled;NONE;16384;0.6872305;-0.6759003;0.265928;0.01246537;1;-1;-1;-1579;3791;388;65536;0.699446;-0.7133462;0.04293629;-0.008310249;-1;2;-2;316;4102;16;8192;0.4210526;-0.5955678;-0.6145575;-0.300554;0;-1;0;1972;3613;333;32768;0.5595568;-0.6175143;-0.4058172;-0.3753462;1;1;-1;-405;4071;92;256;-0.1440443;-0.001385042;-0.981332;-0.1274238;0;0;0;201;1118;3749;128;0.1980609;-0.05401662;0.9449374;0.2548476;0;-2;0;-7;2073;-3466;4;0.2631579;-0.7377684;0.6121883;0.1080332;0;-1;1;-3531;2072;-392;16;0.04155125;-0.9860251;-0.1551246;-0.04432133;0;1;0;-1269;340;3816;2;0.1315789;-0.6385041;-0.7002861;-0.2908587;0;-1;0;3401;2382;27;8;0.0900277;-0.9895499;0.08033241;-0.07894737;-1;-2;0;725;693;3953;0.9415457;1.265278;1.693807;0.9431431;1.410843;1.168041;0.9445258;1.536845;0.7053533;0.9516054;1.718106;-0.00567174;0.6948121;1.771843;-0.3311213;0.3548017;1.811663;-0.1796401;0.05964191;0.9448462;-0.03879391;0;0;0;1.214759;1.751534;-0.3311248;1.504495;1.766757;-0.1796456;1.775434;0.9277663;0.2088914;1.791526;-0.01568079;0.2951277;0.6295761;1.24918;1.735617;0.7476923;0.4874964;2.979299;1.029145;0.358674;4.289458;0.6295761;1.24918;1.735617;0.7476923;0.4874964;2.979299;1.029145;0.358674;4.289458
135219.6288;NotLabelled;NONE;16384;0.6872542;-0.6759003;0.265928;0.01108033;0;0;0;-1249;3877;482;65536;0.699446;-0.7133462;0.04293629;-0.008310249;-1;4;0;180;4116;64;8192;0.4210526;-0.5955678;-0.6145575;-0.300554;-1;2;1;1980;3451;569;32768;0.5595568;-0.6175143;-0.4058172;-0.3753462;0;-1;0;-321;4071;208;256;-0.1440443;-0.001385042;-0.981332;-0.1274238;0;0;0;165;970;3843;128;0.1980609;-0.05401662;0.9449374;0.2548476;-3;-2;0;61;2027;-3498;4;0.2631579;-0.7375642;0.6121883;0.1094183;0;-1;0;-3533;2140;-462;16;0.04155125;-0.9860251;-0.1551246;-0.04432133;0;0;-1;-1241;314;3962;2;0.1315789;-0.6385041;-0.7008598;-0.2894737;0;-1;0;3323;2376;53;8;0.0900277;-0.9894365;0.08171745;-0.07894737;0;-1;0;745;641;3989;0.9413581;1.263186;1.693293;0.942952;1.408438;1.16744;0.9443318;1.534164;0.7046779;0.9515615;1.717388;-0.005842507;0.6948249;1.772125;-0.3311703;0.354814;1.811663;-0.1796161;0.05964381;0.9448462;-0.03879043;0;0;0;1.214764;1.751609;-0.3311735;1.504489;1.766298;-0.1796216;1.775401;0.9273076;0.2089344;1.791488;-0.01613951;0.2951723;0.6293887;1.247114;1.735115;0.7474386;0.4854293;2.978803;1.028822;0.3566067;4.288978;0.6293887;1.247114;1.735115;0.7474386;0.4854293;2.978803;1.028822;0.3566067;4.288978
135240.8611;NotLabelled;NONE;16384;0.6872542;-0.6759003;0.265928;0.01108033;1;4;2;-1227;3893;362;65536;0.699446;-0.7133462;0.04293629;-0.008310249;-2;0;-1;364;4044;138;8192;0.4210526;-0.5955678;-0.6152329;-0.299169;-2;1;3;1786;3611;501;32768;0.5595568;-0.6175143;-0.4058172;-0.3753462;0;-3;-2;-191;4151;152;256;-0.1440443;-0.002770083;-0.9813291;-0.1274238;1;-2;0;241;1014;3877;128;0.1980609;-0.05401662;0.9449374;0.2548476;-3;0;0;-81;2061;-3578;4;0.2617728;-0.7369059;0.6135734;0.1094183;1;0;-1;-3521;2102;-418;16;0.04155125;-0.9860251;-0.1551246;-0.04432133;0;-1;-1;-1247;394;3850;2;0.1315789;-0.6385041;-0.7008598;-0.2894737;0;0;1;3327;2348;-35;8;0.0900277;-0.9894365;0.08171745;-0.07894737;0;0;0;741;673;3969;0.9430319;1.262532;1.692795;0.9446259;1.407785;1.166942;0.9460055;1.533511;0.7041793;0.9532353;1.716734;-0.006341219;0.6964986;1.771472;-0.3316689;0.3564878;1.81101;-0.1801147;0.05964396;0.9448457;-0.03879047;0;0;0;1.216438;1.750956;-0.3316722;1.506163;1.765645;-0.1801203;1.777081;0.9266539;0.208431;1.793168;-0.01679277;0.2946689;0.6310625;1.24646;1.734617;0.7516691;0.4824517;2.976632;1.033052;0.3536296;4.286806;0.6310625;1.24646;1.734617;0.7516691;0.4824517;2.976632;1.033052;0.3536296;4.286806
135261.6096;NotLabelled;NONE;16384;0.6858893;-0.6772853;0.265928;0.01108033;0;-4;-1;-1597;3853;354;65536;0.699446;-0.713443;0.04155125;-0.006925208;-1;0;-3;180;4104;10;8192;0.4210526;-0.5955678;-0.6152329;-0.299169;-2;-4;1;1800;3701;429;32768;0.5595568;-0.618354;-0.4058172;-0.3739612;1;0;-2;-393;4151;250;256;-0.1440443;-0.002770083;-0.9813291;-0.1274238;1;-1;0;261;1014;3889;128;0.1980609;-0.05401662;0.9445628;0.2562327;-3;0;0;-189;2145;-3606;4;0.2617728;-0.7371103;0.6135734;0.1080332;1;0;0;-3529;2138;-352;16;0.04155125;-0.9860251;-0.1551246;-0.04432133;0;-2;-1;-1245;440;3818;2;0.1315789;-0.6398892;-0.6995955;-0.2894737;0;-1;0;3249;2396;-13;8;0.0900277;-0.9894365;0.08171745;-0.07894737;-1;-1;0;783;681;3891;0.9423499;1.26127;1.693012;0.9439437;1.406522;1.16716;0.9453233;1.532249;0.7043972;0.9530401;1.715178;-0.006193817;0.6964483;1.770489;-0.3315387;0.3565485;1.81101;-0.1799947;0.05965719;0.9448462;-0.03877007;0;0;0;1.21633;1.748559;-0.3315414;1.506096;1.762518;-0.1799996;1.779388;0.9247737;0.209578;1.795446;-0.0186739;0.2958213;0.6303806;1.245198;1.734834;0.7523298;0.4842391;2.97859;1.033272;0.355417;4.288859;0.6303806;1.245198;1.734834;0.7523298;0.4842391;2.97859;1.033272;0.355417;4.288859
135282.6298;NotLabelled;NONE;16384;0.6872305;-0.6759003;0.265928;0.01246537;0;-3;0;-1255;3887;434;65536;0.699446;-0.713443;0.04155125;-0.006925208;-2;2;-1;178;4088;124;8192;0.4210526;-0.5955678;-0.6152329;-0.299169;0;6;2;2128;3429;339;32768;0.5595568;-0.6174428;-0.4072022;-0.3739612;2;2;0;-359;4091;122;256;-0.1440443;-0.002770083;-0.9811482;-0.1288089;2;-2;0;107;1126;3839;128;0.1980609;-0.05401662;0.9445628;0.2562327;-3;-2;0;153;2149;-3598;4;0.2617728;-0.7371103;0.6135734;0.1080332;1;-3;0;-3509;2142;-366;16;0.04155125;-0.9860864;-0.1551246;-0.04293629;0;0;-1;-1277;418;3852;2;0.1315789;-0.6398892;-0.6995955;-0.2894737;-1;-3;0;3353;2340;45;8;0.0900277;-0.9894365;0.08171745;-0.07894737;-1;-1;-1;747;711;3927;0.9370857;1.258802;1.690096;0.9386958;1.405531;1.164653;0.9400898;1.532557;0.702246;0.9478065;1.715487;-0.008345187;0.6912146;1.770798;-0.3336897;0.3513151;1.811319;-0.1821459;0.05608932;0.9451058;-0.03776208;0;0;0;1.211096;1.748867;-0.3336929;1.500862;1.762826;-0.1821509;1.774189;0.925082;0.2074025;1.791786;-0.01819038;0.2952429;0.6251152;1.242613;1.731863;0.7445097;0.4839847;2.97729;1.025452;0.3551626;4.287559;0.6251152;1.242613;1.731863;0.7445097;0.4839847;2.97729;1.025452;0.3551626;4.287559
135303.7568;NotLabelled;NONE;16384;0.6872305;-0.6759003;0.265928;0.01246537;0;3;1;-1191;3927;316;65536;0.699446;-0.713443;0.04155125;-0.006925208;-2;3;0;338;4086;52;8192;0.4210526;-0.5955678;-0.6152329;-0.299169;0;5;2;1884;3505;489;32768;0.5595568;-0.6174428;-0.4072022;-0.3739612;1;-1;-1;-267;4181;128;256;-0.1440443;-0.004155125;-0.9811434;-0.1288089;0;-3;0;117;1034;3891;128;0.1980609;-0.05263158;0.9442642;0.2576177;-1;-5;0;-23;2129;-3682;4;0.2617728;-0.7371103;0.6135734;0.1080332;1;-3;0;-3443;2180;-452;16;0.04155125;-0.9860864;-0.1551246;-0.04293629;0;0;-1;-1211;414;3834;2;0.1315789;-0.6398892;-0.6995955;-0.2894737;0;-3;0;3319;2304;33;8;0.08864266;-0.9895616;0.08171745;-0.07894737;-2;-1;-1;719;687;3985;0.9368705;1.256728;1.693063;0.9384806;1.403457;1.16762;0.9398744;1.530483;0.7052128;0.9477475;1.715373;-0.004868865;0.6912162;1.771685;-0.3300893;0.3513148;1.811923;-0.1784738;0.05609178;0.9451056;-0.03775907;0;0;0;1.211089;1.749548;-0.3300923;1.500843;1.762973;-0.1784786;1.774112;0.9252284;0.2111151;1.793733;-0.01805949;0.2983595;0.6249;1.240538;1.73483;0.744223;0.4819105;2.980263;1.028703;0.3536601;4.289824;0.6249;1.240538;1.73483;0.744223;0.4819105;2.980263;1.028703;0.3536601;4.289824
135324.6701;NotLabelled;NONE;16384;0.6864247;-0.6772853;0.2645429;0.01108033;2;4;1;-1363;3765;402;65536;0.6980609;-0.7148774;0.0401662;-0.006925208;-1;1;-2;396;4080;40;8192;0.4210526;-0.5955678;-0.6152329;-0.299169;-1;0;1;1848;3717;605;32768;0.5595568;-0.6174428;-0.4072022;-0.3739612;0;0;-2;-329;4155;154;256;-0.1440443;-0.004155125;-0.9811434;-0.1288089;0;-1;0;277;1040;3943;128;0.1980609;-0.05263158;0.9442642;0.2576177;-1;-1;-1;-167;2121;-3564;4;0.2617728;-0.7369059;0.6135734;0.1094183;0;0;0;-3479;2140;-482;16;0.04155125;-0.9860864;-0.1551246;-0.04293629;0;-1;-1;-1241;420;3882;2;0.1315789;-0.6398892;-0.6995955;-0.2894737;0;-2;0;3371;2346;27;8;0.08864266;-0.9894462;0.08310249;-0.07894737;-1;-1;-1;753;639;4043;0.9361436;1.253273;1.692647;0.9377666;1.401168;1.167532;0.9391718;1.529221;0.7054076;0.9475357;1.713817;-0.004744947;0.6911527;1.770703;-0.3299824;0.3513647;1.811923;-0.1783769;0.05610469;0.9451056;-0.03774001;0;0;0;1.210963;1.747151;-0.3299859;1.500755;1.759845;-0.178382;1.773923;0.922101;0.211283;1.793514;-0.02118587;0.298534;0.624172;1.23699;1.734371;0.7430736;0.4783626;2.979844;1.02711;0.3501115;4.289501;0.624172;1.23699;1.734371;0.7430736;0.4783626;2.979844;1.02711;0.3501115;4.289501
135345.6216;NotLabelled;NONE;16384;0.6864247;-0.6772853;0.2645429;0.01108033;1;-2;0;-1489;3791;368;65536;0.6980609;-0.7148774;0.0401662;-0.006925208;-1;0;-2;192;4100;156;8192;0.4210526;-0.5955678;-0.6152329;-0.299169;0;-3;0;1884;3611;495;32768;0.5595568;-0.6182795;-0.4072022;-0.3725762;1;0;-1;-455;4017;170;256;-0.1440443;-0.004155125;-0.9811434;-0.1288089;0;0;0;279;1108;3847;128;0.1980609;-0.05263158;0.9442642;0.2576177;0;0;0;-71;2147;-3476;4;0.2617728;-0.7369059;0.6135734;0.1094183;1;-1;0;-3427;2132;-394;16;0.04155125;-0.9860864;-0.1551246;-0.04293629;0;1;-1;-1235;452;3918;2;0.1315789;-0.6398892;-0.6995955;-0.2894737;-1;0;0;3449;2390;55;8;0.08864266;-0.9895557;0.08310249;-0.07756232;0;0;-1;697;711;3963;0.9322488;1.253356;1.687793;0.9338718;1.401251;1.162678;0.935277;1.529303;0.7005534;0.9436408;1.7139;-0.009599209;0.6872579;1.770786;-0.3348367;0.34747;1.812005;-0.1832311;0.05322646;0.9451492;-0.04071764;0;0;0;1.207069;1.747234;-0.3348402;1.49686;1.759928;-0.1832363;1.769999;0.9221838;0.2064497;1.789589;-0.02110338;0.2937011;0.6202772;1.237073;1.729516;0.741734;0.476115;2.97332;1.02577;0.3478639;4.282978;0.6202772;1.237073;1.729516;0.741734;0.476115;2.97332;1.02577;0.3478639;4.282978
