SEP=;
index;label;segment;RightUpperArm_boneIndex;RightUpperArm_quat9x_w;RightUpperArm_quat9x_x;RightUpperArm_quat9x_y;RightUpperArm_quat9x_z;RightUpperArm_gyroscope_x;RightUpperArm_gyroscope_y;RightUpperArm_gyroscope_z;RightUpperArm_accelerometer_x;RightUpperArm_accelerometer_y;RightUpperArm_accelerometer_z;RightLowerArm_boneIndex;RightLowerArm_quat9x_w;RightLowerArm_quat9x_x;RightLowerArm_quat9x_y;RightLowerArm_quat9x_z;RightLowerArm_gyroscope_x;RightLowerArm_gyroscope_y;RightLowerArm_gyroscope_z;RightLowerArm_accelerometer_x;RightLowerArm_accelerometer_y;RightLowerArm_accelerometer_z;LeftUpperArm_boneIndex;LeftUpperArm_quat9x_w;LeftUpperArm_quat9x_x;LeftUpperArm_quat9x_y;LeftUpperArm_quat9x_z;LeftUpperArm_gyroscope_x;LeftUpperArm_gyroscope_y;LeftUpperArm_gyroscope_z;LeftUpperArm_accelerometer_x;LeftUpperArm_accelerometer_y;LeftUpperArm_accelerometer_z;LeftLowerArm_boneIndex;LeftLowerArm_quat9x_w;LeftLowerArm_quat9x_x;LeftLowerArm_quat9x_y;LeftLowerArm_quat9x_z;LeftLowerArm_gyroscope_x;LeftLowerArm_gyroscope_y;LeftLowerArm_gyroscope_z;LeftLowerArm_accelerometer_x;LeftLowerArm_accelerometer_y;LeftLowerArm_accelerometer_z;Chest_boneIndex;Chest_quat9x_w;Chest_quat9x_x;Chest_quat9x_y;Chest_quat9x_z;Chest_gyroscope_x;Chest_gyroscope_y;Chest_gyroscope_z;Chest_accelerometer_x;Chest_accelerometer_y;Chest_accelerometer_z;Spine_boneIndex;Spine_quat9x_w;Spine_quat9x_x;Spine_quat9x_y;Spine_quat9x_z;Spine_gyroscope_x;Spine_gyroscope_y;Spine_gyroscope_z;Spine_accelerometer_x;Spine_accelerometer_y;Spine_accelerometer_z;RightUpperLeg_boneIndex;RightUpperLeg_quat9x_w;RightUpperLeg_quat9x_x;RightUpperLeg_quat9x_y;RightUpperLeg_quat9x_z;RightUpperLeg_gyroscope_x;RightUpperLeg_gyroscope_y;RightUpperLeg_gyroscope_z;RightUpperLeg_accelerometer_x;RightUpperLeg_accelerometer_y;RightUpperLeg_accelerometer_z;RightLowerLeg_boneIndex;RightLowerLeg_quat9x_w;RightLowerLeg_quat9x_x;RightLowerLeg_quat9x_y;RightLowerLeg_quat9x_z;RightLowerLeg_gyroscope_x;RightLowerLeg_gyroscope_y;RightLowerLeg_gyroscope_z;RightLowerLeg_accelerometer_x;RightLowerLeg_accelerometer_y;RightLowerLeg_accelerometer_z;LeftUpperLeg_boneIndex;LeftUpperLeg_quat9x_w;LeftUpperLeg_quat9x_x;LeftUpperLeg_quat9x_y;LeftUpperLeg_quat9x_z;LeftUpperLeg_gyroscope_x;LeftUpperLeg_gyroscope_y;LeftUpperLeg_gyroscope_z;LeftUpperLeg_accelerometer_x;LeftUpperLeg_accelerometer_y;LeftUpperLeg_accelerometer_z;LeftLowerLeg_boneIndex;LeftLowerLeg_quat9x_w;LeftLowerLeg_quat9x_x;LeftLowerLeg_quat9x_y;LeftLowerLeg_quat9x_z;LeftLowerLeg_gyroscope_x;LeftLowerLeg_gyroscope_y;LeftLowerLeg_gyroscope_z;LeftLowerLeg_accelerometer_x;LeftLowerLeg_accelerometer_y;LeftLowerLeg_accelerometer_z;pelvis_x;pelvis_y;pelvis_z;lowerSpine_x;lowerSpine_y;lowerSpine_z;middleSpine_x;middleSpine_y;middleSpine_z;upperSpine_x;upperSpine_y;upperSpine_z;rightClavicle_x;rightClavicle_y;rightClavicle_z;rightShoulder_x;rightShoulder_y;rightShoulder_z;rightElbow_x;rightElbow_y;rightElbow_z;rightWrist_x;rightWrist_y;rightWrist_z;leftClavicle_x;leftClavicle_y;leftClavicle_z;leftShoulder_x;leftShoulder_y;leftShoulder_z;leftElbow_x;leftElbow_y;leftElbow_z;leftWrist_x;leftWrist_y;leftWrist_z;rightHip_x;rightHip_y;rightHip_z;rightKnee_x;rightKnee_y;rightKnee_z;rightAnkle_x;rightAnkle_y;rightAnkle_z;leftHip_x;leftHip_y;leftHip_z;leftKnee_x;leftKnee_y;leftKnee_z;leftAnkle_x;leftAnkle_y;leftAnkle_z;
651474.8176;NotLabelled;NONE;16384;0.6911357;-0.6981791;0.1855956;-0.02077562;0;1;0;-1085;3875;78;65536;0.6952909;-0.7150021;0.01246537;-0.07202215;0;1;0;498;4089;169;8192;0.501385;-0.6258427;-0.5429363;-0.2493075;0;0;0;1724;3695;495;32768;0.5706371;-0.6493763;-0.3795014;-0.3296399;0;0;0;-451;4081;220;256;-0.1260388;-0.02770083;-0.991475;-0.01800554;1;0;0;217;98;4035;128;0.1551246;-0.02770083;0.9761114;0.1495845;-2;-1;0;111;1273;-3962;4;0.2922437;-0.7302808;0.5969529;0.1578947;0;1;-1;-3171;2588;-502;16;0.04709141;-0.9766851;-0.1966759;-0.07202215;0;0;0;-1547;492;3738;2;0.1717452;-0.632964;-0.6869346;-0.3130194;0;1;1;3117;2664;35;8;0.1135734;-0.9883676;0.101108;-0.002770083;0;-1;0;795;847;3905;0.9467693;1.693283;1.788308;0.9470552;1.71933;1.243382;0.9472842;1.740206;0.7642975;0.9485428;1.761342;0.03080305;0.6885989;1.748057;-0.2963064;0.3514073;1.827307;-0.1543193;0.1051888;0.9403841;-0.04909737;0;0;0;1.208023;1.717134;-0.2963095;1.499943;1.75893;-0.1543241;1.801836;0.8942177;0.1446887;1.835203;-0.045066;0.2647705;0.6349062;1.686885;1.833393;0.748434;0.7865236;2.981138;0.9162056;0.6245503;4.307014;0.6349062;1.686885;1.833393;0.748434;0.7865236;2.981138;0.9162056;0.6245503;4.307014
651495.7289;NotLabelled;NONE;16384;0.6911357;-0.6985459;0.1842105;-0.02077562;0;0;0;-1191;3889;18;65536;0.6952909;-0.7148613;0.01246537;-0.0734072;0;0;1;496;4123;143;8192;0.501385;-0.6258427;-0.5429363;-0.2493075;0;-2;-1;1670;3691;345;32768;0.5706371;-0.6501837;-0.3781163;-0.3296399;0;0;0;-475;4131;238;256;-0.1246537;-0.02631579;-0.9916878;-0.01800554;2;0;0;199;202;4027;128;0.1551246;-0.02770083;0.9761114;0.1495845;-2;1;0;57;1281;-3912;4;0.2922437;-0.7302808;0.5969529;0.1578947;1;1;-1;-3213;2582;-506;16;0.04709141;-0.9766851;-0.1966759;-0.07202215;-1;1;0;-1559;580;3708;2;0.1717452;-0.6315789;-0.6882082;-0.3130194;0;1;1;3095;2670;3;8;0.1135734;-0.9883676;0.101108;-0.002770083;0;0;0;829;985;3939;0.9463528;1.693335;1.787362;0.9466385;1.719383;1.242437;0.9468675;1.740258;0.7633522;0.9481227;1.761334;0.02985609;0.6881767;1.748032;-0.2972503;0.350989;1.827308;-0.1552681;0.1050512;0.9403837;-0.04939125;0;0;0;1.2076;1.717087;-0.2972538;1.499522;1.758884;-0.1552739;1.803465;0.8935556;0.1398549;1.839106;-0.04572058;0.2593437;0.6344897;1.686938;1.832448;0.7512265;0.786576;2.97987;0.9227051;0.6246021;4.305271;0.6344897;1.686938;1.832448;0.7512265;0.786576;2.97987;0.9227051;0.6246021;4.305271
651515.8893;NotLabelled;NONE;16384;0.6911357;-0.6985459;0.1842105;-0.02077562;0;0;0;-1153;3883;204;65536;0.6952909;-0.7148613;0.01246537;-0.0734072;1;0;1;492;4063;91;8192;0.501385;-0.6270416;-0.5415512;-0.2493075;1;-1;0;1742;3627;349;32768;0.5706371;-0.6501837;-0.3781163;-0.3296399;0;1;0;-459;4099;228;256;-0.1246537;-0.02631579;-0.9916617;-0.01939058;3;0;0;251;174;4005;128;0.1551246;-0.02770083;0.9758981;0.1509695;-1;0;0;43;1343;-3948;4;0.2922437;-0.7302808;0.5969529;0.1578947;0;0;0;-3305;2594;-416;16;0.04709141;-0.9766851;-0.1966759;-0.07202215;0;1;0;-1527;494;3776;2;0.1703601;-0.6315789;-0.6885524;-0.3130194;0;0;0;3155;2608;25;8;0.1135734;-0.9883676;0.101108;-0.002770083;0;0;0;853;941;3899;0.9471904;1.694911;1.788661;0.9474763;1.720959;1.243736;0.9477054;1.741834;0.7646509;0.94892;1.763225;0.03116393;0.6890199;1.749338;-0.295955;0.3516088;1.827612;-0.1539475;0.1070824;0.9401655;-0.04918748;0;0;0;1.208527;1.719842;-0.295958;1.500328;1.762393;-0.153953;1.803451;0.8970647;0.1420184;1.83682;-0.04221964;0.2620991;0.6353272;1.688514;1.833746;0.748879;0.7881522;2.981488;0.9166784;0.6261787;4.30736;0.6353272;1.688514;1.833746;0.748879;0.7881522;2.981488;0.9166784;0.6261787;4.30736
651536.9146;NotLabelled;NONE;16384;0.6911357;-0.6985459;0.1842105;-0.02077562;0;-1;0;-1239;3949;304;65536;0.6952909;-0.7148358;0.01385042;-0.0734072;0;-1;1;544;4137;13;8192;0.501385;-0.6258427;-0.5429363;-0.2493075;0;3;1;1730;3697;463;32768;0.5706371;-0.6486713;-0.3795014;-0.3310249;-2;0;1;-471;4057;184;256;-0.1260388;-0.02631579;-0.9914866;-0.01939058;2;0;0;195;94;4031;128;0.1551246;-0.02770083;0.9758981;0.1509695;-2;0;0;49;1351;-3932;4;0.2922437;-0.7302808;0.5969529;0.1578947;0;-1;-1;-3241;2538;-460;16;0.04709141;-0.9766851;-0.1966759;-0.07202215;-1;0;0;-1521;602;3762;2;0.1703601;-0.6315789;-0.6885524;-0.3130194;0;-1;1;3169;2668;-5;8;0.1135734;-0.9883676;0.101108;-0.002770083;0;0;0;827;881;3939;0.9469833;1.689347;1.788378;0.9472858;1.716903;1.243527;0.9475294;1.739105;0.7645012;0.9488667;1.76251;0.03107604;0.6890132;1.749612;-0.2961208;0.3516068;1.827612;-0.1539516;0.1070857;0.9401652;-0.04917917;0;0;0;1.20851;1.719937;-0.2961237;1.500304;1.761997;-0.153956;1.801593;0.8961862;0.1424773;1.834953;-0.04309773;0.2625608;0.6351188;1.682825;1.833436;0.7485817;0.7824632;2.981187;0.9162785;0.6204897;4.307072;0.6351188;1.682825;1.833436;0.7485817;0.7824632;2.981187;0.9162785;0.6204897;4.307072
651557.7249;NotLabelled;NONE;16384;0.6911357;-0.6981791;0.1855956;-0.02077562;0;0;-1;-1075;3965;52;65536;0.6952909;-0.7148358;0.01385042;-0.0734072;-1;1;0;420;4115;151;8192;0.501385;-0.6258427;-0.5429363;-0.2493075;0;0;0;1596;3635;393;32768;0.5706371;-0.6494797;-0.3781163;-0.3310249;-1;-2;0;-397;4117;190;256;-0.1260388;-0.02631579;-0.9914585;-0.02077562;1;0;0;213;200;4029;128;0.1551246;-0.02908587;0.9758579;0.1509695;-2;0;0;71;1331;-4002;4;0.2922437;-0.7302808;0.5969529;0.1578947;0;-1;-1;-3121;2574;-444;16;0.04709141;-0.9766851;-0.1966759;-0.07202215;0;0;0;-1567;544;3790;2;0.1703601;-0.6315789;-0.6885524;-0.3130194;1;0;1;3147;2706;-87;8;0.1135734;-0.9883628;0.101108;-0.004155125;0;0;0;781;963;3951;0.9483296;1.689168;1.786976;0.9486319;1.716724;1.242125;0.9488757;1.738926;0.7630994;0.9502102;1.762273;0.0296725;0.6903546;1.74936;-0.2975218;0.3529524;1.827386;-0.1553572;0.1087116;0.9399394;-0.04993286;0;0;0;1.20985;1.719662;-0.2975251;1.501646;1.76172;-0.1553626;1.805573;0.896392;0.1397835;1.839552;-0.04311848;0.2579097;0.6364651;1.682647;1.832034;0.7531363;0.7822844;2.979463;0.9245396;0.6203114;4.304874;0.6364651;1.682647;1.832034;0.7531363;0.7822844;2.979463;0.9245396;0.6203114;4.304874
651578.7224;NotLabelled;NONE;16384;0.6911357;-0.6981791;0.1855956;-0.02077562;1;1;-1;-1189;3905;68;65536;0.6952909;-0.7148358;0.01385042;-0.0734072;0;0;0;464;4115;177;8192;0.501385;-0.6270416;-0.5415512;-0.2493075;0;-3;0;1758;3721;419;32768;0.5706371;-0.6494797;-0.3781163;-0.3310249;-1;-2;0;-459;4095;274;256;-0.1246537;-0.02631579;-0.9916337;-0.02077562;0;0;0;273;176;4025;128;0.1551246;-0.02908587;0.9758579;0.1509695;-1;0;0;5;1331;-3974;4;0.2922437;-0.7305789;0.5969529;0.1565097;0;0;-1;-3109;2514;-534;16;0.04709141;-0.9766851;-0.1966759;-0.07202215;0;0;0;-1535;524;3706;2;0.1703601;-0.6315789;-0.6885524;-0.3130194;0;1;1;3099;2688;-23;8;0.1135734;-0.9883676;0.101108;-0.002770083;0;0;0;829;917;3911;0.9498581;1.68541;1.786037;0.9501631;1.713209;1.241199;0.9504089;1.735624;0.7621834;0.9518829;1.760986;0.02882335;0.6920814;1.749062;-0.2984512;0.354681;1.826815;-0.156133;0.1087167;0.9399384;-0.04992205;0;0;0;1.211567;1.719183;-0.2984439;1.503352;1.760749;-0.156114;1.807221;0.8955523;0.1394753;1.839247;-0.04396284;0.2581048;0.6379933;1.678869;1.831091;0.7545515;0.7785064;2.978532;0.9258241;0.6165329;4.303959;0.6379933;1.678869;1.831091;0.7545515;0.7785064;2.978532;0.9258241;0.6165329;4.303959
651598.9388;NotLabelled;NONE;16384;0.6911357;-0.6981791;0.1855956;-0.02077562;0;-2;0;-1239;3939;140;65536;0.6952909;-0.7148358;0.01385042;-0.0734072;0;-1;1;456;4115;95;8192;0.501385;-0.6270416;-0.5415512;-0.2493075;0;-1;0;1836;3661;347;32768;0.5706371;-0.6494797;-0.3781163;-0.3310249;0;0;0;-509;4081;200;256;-0.1246537;-0.02631579;-0.9916337;-0.02077562;1;0;0;283;156;4075;128;0.1551246;-0.02908587;0.9758579;0.1509695;-1;1;0;21;1259;-4006;4;0.2922437;-0.7305789;0.5969529;0.1565097;0;1;0;-3139;2472;-472;16;0.04709141;-0.9766851;-0.1966759;-0.07202215;-1;2;0;-1509;566;3706;2;0.1703601;-0.6315789;-0.6885524;-0.3130194;0;0;1;3029;2674;-19;8;0.1135734;-0.9883676;0.101108;-0.002770083;0;0;0;813;891;3853;0.9502978;1.685413;1.787376;0.9506029;1.713212;1.242538;0.9508488;1.735626;0.7635229;0.9523095;1.761048;0.03016496;0.6925034;1.749138;-0.2971062;0.3551015;1.826863;-0.154776;0.1088545;0.9399393;-0.04962052;0;0;0;1.21199;1.719284;-0.2971099;1.503775;1.760853;-0.1547818;1.805003;0.8950417;0.1417127;1.836701;-0.04447377;0.2604302;0.6384331;1.678872;1.83243;0.7493853;0.7806742;2.982121;0.9169801;0.6187007;4.308019;0.6384331;1.678872;1.83243;0.7493853;0.7806742;2.982121;0.9169801;0.6187007;4.308019
651619.8659;NotLabelled;NONE;16384;0.6911357;-0.6981791;0.1855956;-0.02077562;1;-2;0;-1087;3917;182;65536;0.6952909;-0.7148358;0.01385042;-0.0734072;0;-1;1;462;4109;63;8192;0.501385;-0.6270416;-0.5415512;-0.2493075;2;1;1;1768;3669;401;32768;0.5706371;-0.6494797;-0.3781163;-0.3310249;0;1;0;-457;4115;192;256;-0.1246537;-0.02631579;-0.9916337;-0.02077562;0;0;0;267;136;4055;128;0.1551246;-0.02908587;0.9758579;0.1509695;0;0;0;35;1255;-4066;4;0.2922437;-0.7305789;0.5969529;0.1565097;0;2;0;-3219;2516;-456;16;0.04709141;-0.9764051;-0.1980609;-0.07202215;-2;2;0;-1517;484;3722;2;0.1703601;-0.6315789;-0.6885524;-0.3130194;0;0;0;3119;2660;-23;8;0.1135734;-0.9883676;0.101108;-0.002770083;0;0;0;821;871;3969;0.9502978;1.685413;1.787376;0.9506029;1.713212;1.242538;0.9508488;1.735626;0.7635229;0.9523095;1.761048;0.03016496;0.6925034;1.749138;-0.2971062;0.3551015;1.826863;-0.154776;0.1088545;0.9399393;-0.04962052;0;0;0;1.21199;1.719284;-0.2971099;1.503775;1.760853;-0.1547818;1.805003;0.8950417;0.1417127;1.836701;-0.04447377;0.2604302;0.6384331;1.678872;1.83243;0.7493853;0.7806742;2.982121;0.9169801;0.6187007;4.308019;0.6384331;1.678872;1.83243;0.7493853;0.7806742;2.982121;0.9169801;0.6187007;4.308019
651639.7342;NotLabelled;NONE;16384;0.6911357;-0.6981791;0.1855956;-0.02077562;1;0;0;-1107;3935;186;65536;0.6952909;-0.7149767;0.01385042;-0.07202215;0;-1;1;546;4107;107;8192;0.501385;-0.6270416;-0.5415512;-0.2493075;1;0;0;1716;3693;297;32768;0.5706371;-0.6494797;-0.3781163;-0.3310249;0;0;0;-425;4139;262;256;-0.1246537;-0.02631579;-0.9916337;-0.02077562;0;0;0;263;172;4009;128;0.1551246;-0.02908587;0.9758579;0.1509695;1;0;0;53;1269;-3958;4;0.2922437;-0.7305789;0.5969529;0.1565097;0;2;0;-3293;2448;-484;16;0.04570637;-0.976471;-0.1980609;-0.07202215;-2;1;0;-1571;480;3766;2;0.1703601;-0.6315789;-0.6885524;-0.3130194;0;0;0;3165;2632;-21;8;0.1135734;-0.9883676;0.101108;-0.002770083;0;0;0;775;849;3929;0.9502978;1.685413;1.787376;0.9506029;1.713212;1.242538;0.9508488;1.735626;0.7635229;0.9523095;1.761048;0.03016496;0.6925034;1.749138;-0.2971062;0.3551015;1.826863;-0.154776;0.1088545;0.9399393;-0.04962052;0;0;0;1.21199;1.719284;-0.2971099;1.503775;1.760853;-0.1547818;1.805003;0.8950417;0.1417127;1.836701;-0.04447377;0.2604302;0.6384331;1.678872;1.83243;0.7493853;0.7806742;2.982121;0.9172027;0.6184676;4.307961;0.6384331;1.678872;1.83243;0.7493853;0.7806742;2.982121;0.9172027;0.6184676;4.307961
651660.7304;NotLabelled;NONE;16384;0.6911357;-0.6981791;0.1855956;-0.02077562;0;0;0;-1249;3899;82;65536;0.6952909;-0.7148076;0.01523546;-0.0734072;0;0;1;508;4087;135;8192;0.501385;-0.6270416;-0.5415512;-0.2493075;1;0;0;1738;3651;345;32768;0.5706371;-0.6494797;-0.3781163;-0.3310249;0;1;0;-501;4111;238;256;-0.1246537;-0.02631579;-0.9916337;-0.02077562;1;0;0;261;164;4017;128;0.1551246;-0.02908587;0.9758579;0.1509695;0;0;0;61;1251;-3890;4;0.2922437;-0.7305789;0.5969529;0.1565097;0;0;0;-3311;2464;-526;16;0.04570637;-0.976471;-0.1980609;-0.07202215;-2;1;0;-1517;460;3762;2;0.1689751;-0.6315789;-0.6888936;-0.3130194;0;0;1;3189;2642;73;8;0.1135734;-0.9883676;0.101108;-0.002770083;0;0;0;801;789;3883;0.9484038;1.685635;1.787464;0.9487089;1.713434;1.242626;0.9489548;1.735848;0.7636107;0.9504156;1.76127;0.03025281;0.6906094;1.74936;-0.2970183;0.3532075;1.827085;-0.1546882;0.1069605;0.9401612;-0.0495327;0;0;0;1.210096;1.719506;-0.297022;1.501882;1.761075;-0.1546939;1.80311;0.8952637;0.1418005;1.834807;-0.0442518;0.2605181;0.6365391;1.679094;1.832518;0.7474914;0.7808962;2.982209;0.9146662;0.6223226;4.30857;0.6365391;1.679094;1.832518;0.7474914;0.7808962;2.982209;0.9146662;0.6223226;4.30857
651681.9433;NotLabelled;NONE;16384;0.6911357;-0.6981791;0.1855956;-0.02077562;0;-1;0;-1287;3821;194;65536;0.6952909;-0.7148076;0.01523546;-0.0734072;0;-1;0;596;4017;97;8192;0.5;-0.6281465;-0.5415512;-0.2493075;1;0;1;1836;3649;431;32768;0.5706371;-0.6494797;-0.3781163;-0.3310249;0;1;0;-449;4037;228;256;-0.1246537;-0.02631579;-0.9916037;-0.02216066;2;-1;-1;191;178;3935;128;0.1551246;-0.02908587;0.9758579;0.1509695;0;0;0;83;1221;-3898;4;0.2922437;-0.7305789;0.5969529;0.1565097;0;1;-1;-3355;2482;-430;16;0.04570637;-0.976471;-0.1980609;-0.07202215;-1;1;0;-1567;440;3836;2;0.1689751;-0.6315789;-0.6888936;-0.3130194;0;0;1;3091;2608;-39;8;0.1135734;-0.9883676;0.101108;-0.002770083;0;1;0;795;807;3869;0.9520616;1.685184;1.786929;0.9523667;1.712982;1.24209;0.9526129;1.735397;0.763075;0.9540742;1.760818;0.02971697;0.6942682;1.748908;-0.2975546;0.3568663;1.826633;-0.1552244;0.1106193;0.9397092;-0.05006928;0;0;0;1.213755;1.719054;-0.2975578;1.50554;1.760623;-0.1552292;1.806768;0.8948121;0.1412661;1.838466;-0.04470336;0.259984;0.6401969;1.678642;1.831982;0.7511485;0.7804449;2.981673;0.9183221;0.621871;4.308035;0.6401969;1.678642;1.831982;0.7511485;0.7804449;2.981673;0.9183221;0.621871;4.308035
651702.8127;NotLabelled;NONE;16384;0.6911357;-0.6978095;0.1869806;-0.02077562;0;-1;-1;-1233;3871;196;65536;0.6952909;-0.7148076;0.01523546;-0.0734072;0;0;-1;536;4061;115;8192;0.5;-0.6281465;-0.5415512;-0.2493075;0;1;0;1652;3693;443;32768;0.5706371;-0.6494797;-0.3781163;-0.3310249;-1;0;0;-413;4057;170;256;-0.1246537;-0.02770083;-0.9915659;-0.02216066;1;0;0;197;50;3937;128;0.1551246;-0.02908587;0.9758579;0.1509695;0;-1;0;75;1241;-3950;4;0.2908587;-0.7311314;0.5969529;0.1565097;0;0;0;-3179;2442;-522;16;0.04570637;-0.976471;-0.1980609;-0.07202215;-1;1;0;-1507;468;3744;2;0.1689751;-0.6315789;-0.6888936;-0.3130194;0;0;0;3185;2568;85;8;0.1135734;-0.9883676;0.101108;-0.002770083;0;0;0;817;847;3929;0.951897;1.682456;1.786795;0.9522021;1.710254;1.241957;0.9524481;1.732669;0.7629417;0.9540343;1.760104;0.02965647;0.6942759;1.749183;-0.2976875;0.3568784;1.826633;-0.1551974;0.1106233;0.9397092;-0.05006074;0;0;0;1.213752;1.719151;-0.2976906;1.505529;1.760227;-0.1552025;1.805475;0.8950386;0.1443895;1.837163;-0.04447687;0.2631096;0.6400324;1.675914;1.831849;0.7508948;0.7777162;2.981549;0.9179657;0.6191428;4.307923;0.6400324;1.675914;1.831849;0.7508948;0.7777162;2.981549;0.9179657;0.6191428;4.307923
651723.9448;NotLabelled;NONE;16384;0.6911357;-0.6978095;0.1869806;-0.02077562;-1;0;-2;-1201;3897;48;65536;0.6952909;-0.7148076;0.01523546;-0.0734072;0;1;-1;404;4099;83;8192;0.5;-0.6281465;-0.5415512;-0.2493075;0;0;0;1636;3697;419;32768;0.5706371;-0.6494797;-0.3781163;-0.3310249;-1;-2;0;-439;4119;232;256;-0.1246537;-0.02770083;-0.9915659;-0.02216066;-1;0;0;337;164;4125;128;0.1551246;-0.02908587;0.9758579;0.1509695;0;0;0;35;1299;-4020;4;0.2908587;-0.7311314;0.5969529;0.1565097;0;0;0;-3231;2504;-526;16;0.04432133;-0.9765348;-0.1980609;-0.07202215;-1;-1;0;-1515;484;3684;2;0.1689751;-0.6315789;-0.6888936;-0.3130194;0;0;1;3147;2626;-1;8;0.1135734;-0.9883676;0.101108;-0.002770083;0;0;0;851;865;3939;0.9533643;1.680605;1.786394;0.9536693;1.708403;1.241556;0.9539152;1.730818;0.7625406;0.9555619;1.757998;0.02924609;0.6957678;1.74768;-0.2980891;0.3585871;1.826106;-0.1556192;0.1106248;0.9397087;-0.05005716;0;0;0;1.21516;1.71622;-0.2980919;1.507052;1.756542;-0.1556237;1.806988;0.8913534;0.1439785;1.838672;-0.04816163;0.2626996;0.6414995;1.674063;1.831448;0.7554978;0.7783563;2.982784;0.9225265;0.6197829;4.309163;0.6414995;1.674063;1.831448;0.7554978;0.7783563;2.982784;0.9225265;0.6197829;4.309163
651745.7323;NotLabelled;NONE;16384;0.6911357;-0.6978095;0.1869806;-0.02077562;0;-1;-1;-1115;3945;40;65536;0.6952909;-0.7148358;0.01385042;-0.0734072;0;0;0;506;4099;221;8192;0.5;-0.6281465;-0.5415512;-0.2493075;0;-1;2;1736;3669;257;32768;0.5706371;-0.6494797;-0.3781163;-0.3310249;0;0;0;-435;4113;334;256;-0.1246537;-0.02770083;-0.9915659;-0.02216066;0;0;0;307;182;4055;128;0.1551246;-0.02908587;0.9758579;0.1509695;1;0;0;55;1341;-4024;4;0.2908587;-0.7311314;0.5969529;0.1565097;0;0;0;-3259;2524;-512;16;0.04432133;-0.9765348;-0.1980609;-0.07202215;-1;0;0;-1591;502;3742;2;0.16759;-0.6315789;-0.6892318;-0.3130194;0;0;0;3091;2682;43;8;0.1121884;-0.9885258;0.101108;-0.002770083;-1;0;0;757;865;3835;0.9533644;1.680605;1.786394;0.9536694;1.708404;1.241556;0.9539153;1.730818;0.7625406;0.9555619;1.757999;0.02924609;0.6957678;1.747681;-0.2980891;0.3585873;1.826107;-0.1556193;0.110625;0.9397092;-0.0500572;0;0;0;1.21516;1.71622;-0.298092;1.507052;1.756543;-0.1556237;1.806988;0.8913536;0.143978;1.838672;-0.04816115;0.2626991;0.6414996;1.674063;1.831448;0.7554979;0.7783568;2.982784;0.9218812;0.6234174;4.309673;0.6414996;1.674063;1.831448;0.7554979;0.7783568;2.982784;0.9218812;0.6234174;4.309673
651766.7162;NotLabelled;NONE;16384;0.6897507;-0.6991786;0.1869806;-0.02077562;2;-1;0;-1155;3949;186;65536;0.6952909;-0.7149767;0.01385042;-0.07202215;0;-1;0;484;4111;105;8192;0.5;-0.6281465;-0.5415512;-0.2493075;1;0;0;1696;3707;249;32768;0.5706371;-0.6487719;-0.3781163;-0.33241;0;0;0;-341;4137;326;256;-0.1246537;-0.02770083;-0.9915659;-0.02216066;0;0;0;307;178;4081;128;0.1551246;-0.02908587;0.9758579;0.1509695;2;0;0;17;1267;-3884;4;0.2908587;-0.7311314;0.5969529;0.1565097;0;0;0;-3309;2472;-408;16;0.04432133;-0.9765348;-0.1980609;-0.07202215;-1;0;0;-1547;412;3734;2;0.1689751;-0.6315789;-0.6888936;-0.3130194;0;-2;-1;3091;2614;25;8;0.1121884;-0.9885258;0.101108;-0.002770083;-1;-2;0;831;843;3955;0.9515997;1.680835;1.786843;0.9519047;1.708633;1.242005;0.9521507;1.731048;0.7629893;0.9537973;1.758229;0.02969477;0.6940032;1.74791;-0.2976404;0.3568226;1.826336;-0.1551706;0.1088604;0.939939;-0.04960851;0;0;0;1.213395;1.71645;-0.2976433;1.505287;1.756773;-0.155175;1.805223;0.8915834;0.1444267;1.836908;-0.04793131;0.2631478;0.639735;1.674293;1.831897;0.7537333;0.7785866;2.983232;0.9201165;0.6236472;4.310122;0.639735;1.674293;1.831897;0.7537333;0.7785866;2.983232;0.9201165;0.6236472;4.310122
651786.9343;NotLabelled;NONE;16384;0.6897507;-0.6991786;0.1869806;-0.02077562;0;-2;0;-1239;3933;256;65536;0.6966759;-0.7136271;0.01385042;-0.07202215;0;0;-1;480;4037;-21;8192;0.5;-0.6281465;-0.5415512;-0.2493075;2;2;-1;1688;3721;399;32768;0.5706371;-0.6487719;-0.3781163;-0.33241;1;2;-1;-363;4127;226;256;-0.1246537;-0.02770083;-0.9915659;-0.02216066;0;1;0;205;146;4085;128;0.1551246;-0.02908587;0.9758579;0.1509695;0;0;0;33;1233;-4002;4;0.2908587;-0.7311314;0.5969529;0.1565097;0;0;0;-3353;2472;-420;16;0.04432133;-0.9765348;-0.1980609;-0.07202215;-2;1;0;-1599;462;3768;2;0.1689751;-0.6315789;-0.6888936;-0.3130194;0;0;0;3239;2606;43;8;0.1121884;-0.9885258;0.101108;-0.002770083;-1;-2;0;789;867;3969;0.9484178;1.681014;1.783602;0.9487228;1.708812;1.238764;0.9489688;1.731227;0.7597486;0.9506153;1.758407;0.026454;0.6908213;1.748089;-0.3008813;0.3536407;1.826515;-0.1584114;0.1069659;0.9401611;-0.0495203;0;0;0;1.210214;1.716629;-0.3008841;1.502105;1.756951;-0.1584159;1.802041;0.8917621;0.141186;1.832076;-0.04797971;0.2585295;0.6365531;1.674472;1.828656;0.7505513;0.7787653;2.979991;0.9169347;0.6238259;4.306881;0.6365531;1.674472;1.828656;0.7505513;0.7787653;2.979991;0.9169347;0.6238259;4.306881
651807.8669;NotLabelled;NONE;16384;0.6911357;-0.6978095;0.1869806;-0.02077562;0;-1;0;-1161;3929;162;65536;0.6952909;-0.7149767;0.01385042;-0.07202215;0;0;0;498;4107;167;8192;0.5;-0.6275951;-0.5415512;-0.2506925;0;2;-1;1784;3671;437;32768;0.5706371;-0.6479627;-0.3795014;-0.33241;0;2;-1;-485;4059;186;256;-0.1260388;-0.02770083;-0.9913908;-0.02216066;0;1;0;269;118;4051;128;0.1551246;-0.02908587;0.9758579;0.1509695;0;1;0;37;1243;-3994;4;0.2908587;-0.7311314;0.5969529;0.1565097;0;0;-1;-3201;2606;-450;16;0.04432133;-0.9765348;-0.1980609;-0.07202215;0;-3;0;-1529;534;3784;2;0.1689751;-0.6315789;-0.6888936;-0.3130194;0;0;0;3127;2646;37;8;0.1121884;-0.9885258;0.101108;-0.002770083;0;0;0;813;901;3969;0.9491751;1.681109;1.787179;0.9494802;1.708907;1.242341;0.9497261;1.731322;0.7633253;0.9513727;1.758503;0.03003085;0.6915786;1.748184;-0.2973044;0.354398;1.82661;-0.1548345;0.1077233;0.9402564;-0.04594345;0;0;0;1.210971;1.716724;-0.2973072;1.502863;1.757046;-0.1548391;1.802799;0.8918574;0.1447629;1.832834;-0.04788446;0.2621064;0.6373104;1.674567;1.832233;0.7513087;0.7788606;2.983568;0.9176919;0.6239212;4.310458;0.6373104;1.674567;1.832233;0.7513087;0.7788606;2.983568;0.9176919;0.6239212;4.310458
651828.7186;NotLabelled;NONE;16384;0.6911357;-0.6978095;0.1869806;-0.02077562;1;0;0;-1125;3831;20;65536;0.6952909;-0.7149767;0.01385042;-0.07202215;0;0;0;480;4105;129;8192;0.5;-0.6275951;-0.5415512;-0.2506925;0;0;0;1748;3629;489;32768;0.5706371;-0.6479627;-0.3795014;-0.33241;0;-2;0;-425;4057;220;256;-0.1260388;-0.02770083;-0.9913908;-0.02216066;0;0;0;301;160;4025;128;0.1551246;-0.02908587;0.9758579;0.1509695;1;0;0;129;1407;-4002;4;0.2908587;-0.7311314;0.5969529;0.1565097;0;0;0;-3297;2544;-428;16;0.04432133;-0.9765348;-0.1980609;-0.07202215;0;-3;0;-1517;500;3724;2;0.1689751;-0.6315789;-0.6888936;-0.3130194;0;0;1;3099;2684;-3;8;0.1121884;-0.9885258;0.101108;-0.002770083;0;0;0;843;917;3933;0.9492702;1.681104;1.785944;0.9495754;1.708903;1.241105;0.9498217;1.731317;0.7620901;0.9514657;1.758436;0.02879328;0.6916693;1.748103;-0.2985395;0.3544935;1.826559;-0.1560745;0.1068273;0.9401612;-0.0498195;0;0;0;1.21106;1.716616;-0.2985427;1.502954;1.756936;-0.1560795;1.802024;0.8908303;0.141737;1.834331;-0.0489099;0.258496;0.6374055;1.674562;1.830998;0.7546223;0.778856;2.98201;0.9247148;0.6239161;4.308429;0.6374055;1.674562;1.830998;0.7546223;0.778856;2.98201;0.9247148;0.6239161;4.308429
651848.9812;NotLabelled;NONE;16384;0.6897507;-0.6991786;0.1869806;-0.02077562;1;0;1;-1225;3865;128;65536;0.6952909;-0.7149485;0.01523546;-0.07202215;0;-1;0;538;4069;123;8192;0.5;-0.6281465;-0.5415512;-0.2493075;1;-2;0;1678;3709;291;32768;0.5706371;-0.6494797;-0.3781163;-0.3310249;0;0;-1;-385;4111;266;256;-0.1260388;-0.02770083;-0.9913908;-0.02216066;0;0;-1;209;208;3963;128;0.1551246;-0.02908587;0.9760711;0.1495845;2;0;0;49;1319;-3946;4;0.2908587;-0.7311314;0.5969529;0.1565097;0;-1;1;-3305;2580;-514;16;0.04432133;-0.9765348;-0.1980609;-0.07202215;0;0;0;-1575;504;3678;2;0.16759;-0.632964;-0.6879601;-0.3130194;0;-3;0;3081;2616;-65;8;0.1121884;-0.9885258;0.101108;-0.002770083;0;-2;0;857;839;3889;0.9492701;1.681104;1.785944;0.9495754;1.708902;1.241105;0.9498215;1.731317;0.7620901;0.9514655;1.758436;0.02879331;0.6916692;1.748103;-0.2985395;0.3544934;1.826558;-0.1560745;0.1068271;0.9401612;-0.04981945;0;0;0;1.21106;1.716616;-0.2985427;1.502954;1.756935;-0.1560795;1.802023;0.89083;0.1417371;1.83433;-0.04891014;0.2584959;0.6374054;1.674562;1.830998;0.7546222;0.7788558;2.98201;0.9247147;0.6239159;4.308429;0.6374054;1.674562;1.830998;0.7546222;0.7788558;2.98201;0.9247147;0.6239159;4.308429
651869.7287;NotLabelled;NONE;16384;0.6911357;-0.6974369;0.1883656;-0.02077562;0;-1;-2;-1073;3953;82;65536;0.6952909;-0.7149767;0.01385042;-0.07202215;0;1;-2;448;4113;95;8192;0.5;-0.6281465;-0.5415512;-0.2493075;1;1;0;1816;3661;373;32768;0.5706371;-0.6494797;-0.3781163;-0.3310249;0;2;-1;-479;4099;238;256;-0.1260388;-0.02631579;-0.9914585;-0.02077562;0;0;0;243;100;4049;128;0.1551246;-0.02908587;0.9760711;0.1495845;0;-1;0;75;1235;-3988;4;0.2908587;-0.7299984;0.5983379;0.1565097;0;-1;0;-3331;2508;-514;16;0.04432133;-0.9765348;-0.1980609;-0.07202215;0;0;0;-1533;428;3796;2;0.16759;-0.632964;-0.6879601;-0.3130194;0;-2;0;3239;2640;-41;8;0.1121884;-0.9883832;0.1024931;-0.002770083;0;-2;0;837;883;3929;0.9497833;1.683667;1.782333;0.9500718;1.709958;1.23742;0.9503033;1.731047;0.7583447;0.951947;1.758166;0.02504778;0.6921505;1.747833;-0.3022851;0.3549748;1.826289;-0.1598197;0.1085906;0.9399346;-0.05027311;0;0;0;1.211541;1.716345;-0.3022886;1.503436;1.756666;-0.1598256;1.804167;0.891476;0.138978;1.836184;-0.04803944;0.2576102;0.63792;1.67725;1.827415;0.7551373;0.7815436;2.978427;0.9252301;0.6266037;4.304847;0.63792;1.67725;1.827415;0.7551373;0.7815436;2.978427;0.9252301;0.6266037;4.304847
651889.7267;NotLabelled;NONE;16384;0.6897507;-0.6988067;0.1883656;-0.02077562;1;0;0;-1003;3919;72;65536;0.6952909;-0.7151148;0.01385042;-0.07063711;0;-1;-1;402;4179;135;8192;0.5;-0.6281465;-0.5415512;-0.2493075;0;1;0;1748;3637;385;32768;0.5706371;-0.6494797;-0.3781163;-0.3310249;0;0;0;-475;4061;210;256;-0.1260388;-0.02770083;-0.9914209;-0.02077562;0;0;0;301;122;4025;128;0.1551246;-0.02908587;0.9760711;0.1495845;0;0;0;59;1223;-3966;4;0.2908587;-0.7299984;0.5983379;0.1565097;0;-3;0;-3285;2594;-430;16;0.04432133;-0.9768147;-0.1966759;-0.07202215;0;-2;0;-1481;468;3836;2;0.1689751;-0.632964;-0.6876212;-0.3130194;0;-2;0;3165;2726;-11;8;0.1121884;-0.9883832;0.1024931;-0.002770083;0;0;0;807;901;3931;0.9514062;1.687456;1.785741;0.9516948;1.713747;1.240828;0.9519264;1.734836;0.7617525;0.9533851;1.760198;0.02839255;0.6935768;1.748275;-0.2988769;0.3561793;1.826027;-0.1565511;0.1068216;0.9401603;-0.04983123;0;0;0;1.213062;1.718395;-0.29888;1.50485;1.759962;-0.1565563;1.805655;0.8947723;0.1421729;1.837685;-0.04474282;0.2608014;0.6395429;1.681039;1.830822;0.7552411;0.7856629;2.982244;0.9254785;0.6307232;4.308646;0.6395429;1.681039;1.830822;0.7552411;0.7856629;2.982244;0.9254785;0.6307232;4.308646
651909.8732;NotLabelled;NONE;16384;0.6897507;-0.6988465;0.1883656;-0.01939058;1;-1;1;-1087;3951;164;65536;0.6952909;-0.7151148;0.01385042;-0.07063711;0;-2;1;474;4073;41;8192;0.5;-0.6281465;-0.5415512;-0.2493075;0;-1;2;1778;3631;313;32768;0.5706371;-0.6494797;-0.3781163;-0.3310249;0;-3;0;-427;4119;262;256;-0.1260388;-0.02770083;-0.9914209;-0.02077562;-1;0;0;279;148;4039;128;0.1565097;-0.02908587;0.97585;0.1495845;1;0;0;91;1347;-3976;4;0.2908587;-0.7299984;0.5983379;0.1565097;0;-1;-1;-3235;2594;-448;16;0.04432133;-0.9768147;-0.1966759;-0.07202215;0;-3;0;-1547;492;3802;2;0.1689751;-0.632964;-0.6876212;-0.3130194;0;0;0;3157;2632;57;8;0.1121884;-0.9883832;0.1024931;-0.002770083;0;0;0;827;903;3907;0.9479861;1.686314;1.782554;0.9482746;1.712605;1.237641;0.9485061;1.733694;0.7585653;0.9500194;1.758798;0.02519625;0.6901725;1.747476;-0.3020639;0.352993;1.826205;-0.1597583;0.1049302;0.9403791;-0.04972768;0;0;0;1.209574;1.716169;-0.3020667;1.501478;1.756981;-0.1597634;1.802267;0.8917923;0.1389828;1.834293;-0.04772282;0.2576118;0.6361227;1.679897;1.827635;0.751789;0.7845206;2.979061;0.9217766;0.6298161;4.305521;0.6361227;1.679897;1.827635;0.751789;0.7845206;2.979061;0.9217766;0.6298161;4.305521
651930.8756;NotLabelled;NONE;16384;0.6897507;-0.6992183;0.1869806;-0.01939058;0;0;1;-1205;3957;160;65536;0.6952909;-0.7150866;0.01523546;-0.07063711;0;-1;0;508;4113;85;8192;0.5;-0.6281465;-0.5415512;-0.2493075;1;-3;1;1730;3689;369;32768;0.5706371;-0.6494797;-0.3781163;-0.3310249;1;-4;0;-337;4145;226;256;-0.1260388;-0.02770083;-0.9914209;-0.02077562;-2;0;0;249;144;4025;128;0.1551246;-0.02908587;0.9760711;0.1495845;1;0;0;35;1263;-3964;4;0.2908587;-0.7288609;0.599723;0.1565097;0;-1;0;-3233;2538;-400;16;0.04432133;-0.9768147;-0.1966759;-0.07202215;0;-1;0;-1509;448;3678;2;0.1689751;-0.632964;-0.6876212;-0.3130194;-1;-1;0;3065;2666;25;8;0.1121884;-0.9883832;0.1024931;-0.002770083;0;0;0;885;817;3901;0.9462209;1.686834;1.782893;0.9465095;1.713132;1.23798;0.9467412;1.734228;0.7589047;0.9482542;1.759332;0.02553615;0.6884074;1.74801;-0.301724;0.351228;1.82674;-0.1594183;0.1049304;0.9403794;-0.04972828;0;0;0;1.207809;1.716704;-0.3017272;1.499713;1.757516;-0.1594242;1.800509;0.8923271;0.1393138;1.832536;-0.04718781;0.257943;0.6343576;1.680416;1.827974;0.750024;0.7850397;2.979399;0.9200124;0.6303353;4.30586;0.6343576;1.680416;1.827974;0.750024;0.7850397;2.979399;0.9200124;0.6303353;4.30586
651951.7221;NotLabelled;NONE;16384;0.6897507;-0.6992183;0.1869806;-0.01939058;1;2;-1;-1303;3899;158;65536;0.6952909;-0.7150866;0.01523546;-0.07063711;0;0;-1;510;4067;131;8192;0.5;-0.6281465;-0.5415512;-0.2493075;0;0;-2;1778;3679;525;32768;0.5706371;-0.6501837;-0.3781163;-0.3296399;0;-2;-2;-453;4061;204;256;-0.1260388;-0.02770083;-0.9914209;-0.02077562;0;0;0;235;104;3955;128;0.1565097;-0.02770083;0.9758903;0.1495845;2;-3;0;49;1265;-3934;4;0.2908587;-0.7288609;0.599723;0.1565097;-1;-1;0;-3245;2448;-524;16;0.04432133;-0.9769158;-0.1966759;-0.07063711;0;-1;-1;-1477;486;3658;2;0.1689751;-0.632964;-0.6876212;-0.3130194;0;-2;0;3095;2674;-75;8;0.1108033;-0.9885394;0.1024931;-0.002770083;0;-2;-1;819;803;3877;0.9462841;1.687151;1.782878;0.9465727;1.713442;1.237964;0.9468041;1.73453;0.7588887;0.9483173;1.759635;0.02552;0.6884704;1.748313;-0.3017401;0.3512909;1.827042;-0.1594348;0.1066937;0.9401569;-0.05018152;0;0;0;1.207872;1.717006;-0.3017431;1.499776;1.757819;-0.1594397;1.800573;0.8926294;0.1392981;1.832599;-0.04688549;0.2579275;0.6344208;1.680734;1.827959;0.7484412;0.7856913;2.979808;0.9184299;0.6309867;4.306269;0.6344208;1.680734;1.827959;0.7484412;0.7856913;2.979808;0.9184299;0.6309867;4.306269
651971.97;NotLabelled;NONE;16384;0.6897507;-0.6988067;0.1883656;-0.02077562;0;-3;-4;-1207;3909;204;65536;0.6952909;-0.7151148;0.01385042;-0.07063711;0;0;-5;552;4089;125;8192;0.5;-0.6281465;-0.5415512;-0.2493075;-2;0;0;1752;3675;441;32768;0.5706371;-0.6516867;-0.3767313;-0.3282548;0;-4;-1;-521;4099;262;256;-0.1260388;-0.02770083;-0.9914209;-0.02077562;0;0;0;247;110;4011;128;0.1565097;-0.02770083;0.9758903;0.1495845;1;0;0;-7;1207;-3986;4;0.2908587;-0.7288609;0.599723;0.1565097;0;-3;1;-3253;2490;-448;16;0.04432133;-0.9771937;-0.1952908;-0.07063711;0;-3;0;-1533;502;3792;2;0.1689751;-0.632964;-0.6876212;-0.3130194;0;-1;0;3095;2618;53;8;0.1108033;-0.9885394;0.1024931;-0.002770083;0;0;0;803;873;3909;0.9462917;1.687597;1.782902;0.9465777;1.71365;1.237978;0.946807;1.73453;0.758893;0.9483202;1.759635;0.02552438;0.6884732;1.748312;-0.3017357;0.3512937;1.827042;-0.1594303;0.1066938;0.9401569;-0.05018155;0;0;0;1.207874;1.717006;-0.3017387;1.499779;1.757818;-0.1594354;1.800569;0.8926291;0.1393085;1.834252;-0.0466547;0.259302;0.6344286;1.6812;1.827988;0.7484488;0.7861569;2.979836;0.922079;0.6321738;4.305909;0.6344286;1.6812;1.827988;0.7484488;0.7861569;2.979836;0.922079;0.6321738;4.305909
651992.7222;NotLabelled;NONE;16384;0.6897507;-0.6988067;0.1883656;-0.02077562;0;0;-4;-1101;3893;54;65536;0.6952909;-0.7152503;0.01385042;-0.06925207;0;0;-5;520;4147;55;8192;0.501385;-0.628783;-0.5401662;-0.2479224;0;-4;0;1740;3649;221;32768;0.5706371;-0.6516867;-0.3767313;-0.3282548;0;-2;0;-441;4025;346;256;-0.1260388;-0.02770083;-0.9914209;-0.02077562;-2;1;0;197;162;3983;128;0.1565097;-0.02770083;0.9761016;0.1481994;0;0;0;41;1243;-3944;4;0.2908587;-0.7288609;0.599723;0.1565097;0;-2;0;-3213;2564;-426;16;0.04432133;-0.9771937;-0.1952908;-0.07063711;0;-1;0;-1523;486;3774;2;0.1689751;-0.632964;-0.6876212;-0.3130194;0;-1;0;3211;2688;43;8;0.1108033;-0.9885394;0.1024931;-0.002770083;0;0;0;889;839;3939;0.9479878;1.68676;1.782568;0.9482737;1.712813;1.237643;0.9485028;1.733694;0.7585585;0.950016;1.758798;0.02518982;0.6901691;1.747476;-0.3020704;0.3529897;1.826205;-0.1597651;0.1049301;0.9403791;-0.04972731;0;0;0;1.20957;1.716169;-0.3020735;1.501474;1.756982;-0.1597698;1.802271;0.8917923;0.1389676;1.835681;-0.04726243;0.2608142;0.6361247;1.680362;1.827653;0.7501448;0.7853196;2.979502;0.9235632;0.6315668;4.305629;0.6361247;1.680362;1.827653;0.7501448;0.7853196;2.979502;0.9235632;0.6315668;4.305629
652013.7197;NotLabelled;NONE;16384;0.6897507;-0.6983893;0.1897507;-0.02216066;0;0;-4;-1243;3843;16;65536;0.6952909;-0.7152758;0.01246537;-0.06925207;0;-1;-6;502;4105;155;8192;0.501385;-0.628783;-0.5401662;-0.2479224;0;0;0;1918;3665;279;32768;0.5706371;-0.6516867;-0.3767313;-0.3282548;1;0;0;-539;4063;294;256;-0.1260388;-0.02770083;-0.9914209;-0.02077562;-2;1;0;217;166;4037;128;0.1565097;-0.02770083;0.9761016;0.1481994;0;0;0;23;1241;-3910;4;0.2908587;-0.7288609;0.599723;0.1565097;0;-2;0;-3189;2476;-420;16;0.04432133;-0.9771937;-0.1952908;-0.07063711;1;0;0;-1553;454;3782;2;0.1689751;-0.632964;-0.6876212;-0.3130194;-1;0;1;3129;2678;-37;8;0.1108033;-0.9885394;0.1024931;-0.002770083;0;0;0;871;875;3877;0.9461418;1.689808;1.782833;0.9464113;1.714354;1.237839;0.9466258;1.733909;0.7586981;0.9481388;1.759013;0.02532932;0.6882918;1.747691;-0.3019308;0.3511124;1.82642;-0.1596254;0.1030378;0.9405943;-0.04962063;0;0;0;1.207693;1.716384;-0.3019341;1.499597;1.757196;-0.1596305;1.801466;0.8918234;0.1374892;1.834877;-0.04723155;0.2593362;0.6342801;1.683535;1.827946;0.7483006;0.7884926;2.979795;0.9217196;0.63474;4.305923;0.6342801;1.683535;1.827946;0.7483006;0.7884926;2.979795;0.9217196;0.63474;4.305923
652033.7168;NotLabelled;NONE;16384;0.6897507;-0.6983893;0.1897507;-0.02216066;1;-5;-1;-1051;3961;-48;65536;0.6952909;-0.7154085;0.01246537;-0.06786703;1;-2;-3;344;4171;175;8192;0.501385;-0.628783;-0.5401662;-0.2479224;0;4;0;1894;3599;327;32768;0.5706371;-0.6516867;-0.3767313;-0.3282548;1;0;0;-451;4047;204;256;-0.1260388;-0.02770083;-0.9914489;-0.01939058;0;0;1;237;82;4005;128;0.1565097;-0.02770083;0.9761016;0.1481994;0;0;0;75;1245;-3926;4;0.2908587;-0.7288609;0.599723;0.1565097;0;-1;0;-3195;2488;-462;16;0.04570637;-0.977229;-0.1952908;-0.06925207;0;-2;-1;-1531;520;3702;2;0.1689751;-0.634349;-0.6863437;-0.3130194;-1;-2;0;3037;2660;-43;8;0.1108033;-0.9885394;0.1024931;-0.002770083;0;1;0;805;829;3781;0.9478251;1.688949;1.782478;0.9480944;1.713495;1.237483;0.9483089;1.73305;0.7583425;0.9498219;1.758155;0.02497372;0.6899751;1.746832;-0.3022864;0.3527958;1.825562;-0.1599808;0.1012742;0.9408098;-0.04916617;0;0;0;1.209376;1.715526;-0.3022896;1.501281;1.756338;-0.1599863;1.80319;0.8909656;0.137092;1.836601;-0.04808986;0.2589382;0.6359633;1.682677;1.82759;0.7499835;0.787634;2.979439;0.9234025;0.6338812;4.305566;0.6359633;1.682677;1.82759;0.7499835;0.787634;2.979439;0.9234025;0.6338812;4.305566
652055.3905;NotLabelled;NONE;16384;0.6883656;-0.699797;0.1897507;-0.02077562;3;-4;2;-703;3973;114;65536;0.6966759;-0.7140598;0.01246537;-0.06786703;2;-4;1;324;4109;137;8192;0.501385;-0.6275905;-0.5415512;-0.2479224;0;0;0;1638;3741;439;32768;0.5706371;-0.6516867;-0.3767313;-0.3282548;0;0;0;-469;4099;272;256;-0.1260388;-0.02770083;-0.9914489;-0.01939058;0;0;0;267;78;4059;128;0.1565097;-0.02770083;0.9761016;0.1481994;0;0;0;67;1235;-3944;4;0.2922437;-0.7283067;0.599723;0.1565097;1;-2;1;-3271;2542;-452;16;0.04570637;-0.977229;-0.1952908;-0.06925207;0;-1;0;-1551;532;3734;2;0.1689751;-0.634349;-0.6863437;-0.3130194;0;-3;0;3087;2582;-65;8;0.1108033;-0.9885394;0.1024931;-0.002770083;0;-1;-1;901;801;3809;0.9461038;1.691888;1.782716;0.9463731;1.716434;1.237722;0.9465878;1.735989;0.7585808;0.9479712;1.759079;0.02514544;0.6880742;1.746767;-0.302039;0.3508908;1.82577;-0.1598949;0.09937839;0.9410179;-0.04905928;0;0;0;1.207487;1.715642;-0.3020426;1.4994;1.756946;-0.1599;1.801334;0.8915732;0.1371535;1.834755;-0.04748178;0.2589974;0.6342419;1.685616;1.827829;0.7483563;0.7905729;2.979669;0.9261572;0.6338999;4.304873;0.6342419;1.685616;1.827829;0.7483563;0.7905729;2.979669;0.9261572;0.6338999;4.304873
652075.7472;NotLabelled;NONE;16384;0.6897507;-0.6985088;0.1897507;-0.01800554;0;0;1;-1261;3973;392;65536;0.6966759;-0.7140343;0.01385042;-0.06786703;-2;0;2;502;4011;-17;8192;0.501385;-0.6275905;-0.5415512;-0.2479224;0;0;0;1692;3725;349;32768;0.5706371;-0.6516867;-0.3767313;-0.3282548;0;1;0;-405;4121;272;256;-0.1260388;-0.02770083;-0.9914209;-0.02077562;0;-1;0;183;152;4059;128;0.1565097;-0.02770083;0.9761016;0.1481994;0;-1;0;-15;1343;-3954;4;0.2922437;-0.7283067;0.599723;0.1565097;0;0;0;-3193;2520;-428;16;0.04570637;-0.9775048;-0.1939058;-0.06925207;0;0;0;-1497;520;3780;2;0.1689751;-0.634349;-0.6863437;-0.3130194;0;1;0;3175;2646;-13;8;0.1108033;-0.9883977;0.1038781;-0.001385042;0;0;0;823;889;3931;0.943813;1.692474;1.783313;0.9440823;1.717019;1.238319;0.944297;1.736575;0.7591777;0.9456804;1.759665;0.02574241;0.6857834;1.747352;-0.3014421;0.3486;1.826355;-0.1592979;0.1001532;0.9411148;-0.04548572;0;0;0;1.205196;1.716227;-0.3014456;1.497109;1.757532;-0.1593029;1.800884;0.8926381;0.1372702;1.834305;-0.04641688;0.2591137;0.6319512;1.686201;1.828426;0.7428765;0.7886781;2.978646;0.9206776;0.6320051;4.303851;0.6319512;1.686201;1.828426;0.7428765;0.7886781;2.978646;0.9206776;0.6320051;4.303851
652096.7277;NotLabelled;NONE;16384;0.6897507;-0.6988465;0.1883656;-0.01939058;0;3;0;-1355;3855;32;65536;0.6966759;-0.7140343;0.01385042;-0.06786703;-1;3;0;560;4059;167;8192;0.501385;-0.628783;-0.5401662;-0.2479224;0;0;-1;1810;3623;345;32768;0.5706371;-0.6516867;-0.3767313;-0.3282548;0;2;0;-511;4045;280;256;-0.1274238;-0.02770083;-0.9912438;-0.02077562;0;0;1;213;242;3991;128;0.1565097;-0.02770083;0.9761016;0.1481994;0;0;-1;29;1297;-3878;4;0.2922437;-0.7283067;0.599723;0.1565097;0;0;0;-3137;2514;-386;16;0.04570637;-0.9775048;-0.1939058;-0.06925207;0;0;0;-1479;526;3770;2;0.1689751;-0.634349;-0.6863437;-0.3130194;0;0;0;3133;2682;47;8;0.1108033;-0.9883977;0.1038781;-0.001385042;0;2;0;833;891;3881;0.9431907;1.690658;1.786752;0.9434601;1.715204;1.241757;0.9436747;1.734758;0.7626166;0.945188;1.759863;0.0292477;0.6853414;1.748541;-0.2980125;0.3481617;1.82727;-0.1557072;0.1019241;0.9409037;-0.04593289;0;0;0;1.204743;1.717234;-0.2980156;1.496647;1.758046;-0.1557117;1.800398;0.8931534;0.1408864;1.833809;-0.04590249;0.2627329;0.6313289;1.684385;1.831864;0.7421602;0.7868621;2.982094;0.9196378;0.6304138;4.307369;0.6313289;1.684385;1.831864;0.7421602;0.7868621;2.982094;0.9196378;0.6304138;4.307369
652117.7336;NotLabelled;NONE;16384;0.6897507;-0.6988465;0.1883656;-0.01939058;1;2;-1;-1323;3817;-18;65536;0.6952909;-0.7153831;0.01385042;-0.06786703;-1;2;0;450;4103;95;8192;0.501385;-0.6275905;-0.5415512;-0.2479224;0;3;0;1826;3547;323;32768;0.5706371;-0.6508841;-0.3781163;-0.3282548;0;2;0;-477;4117;232;256;-0.1274238;-0.02770083;-0.9912438;-0.02077562;0;0;2;191;192;4045;128;0.1565097;-0.02770083;0.9761016;0.1481994;1;0;-1;45;1287;-3902;4;0.2922437;-0.7283067;0.599723;0.1565097;0;1;0;-3175;2602;-462;16;0.04570637;-0.9775048;-0.1939058;-0.06925207;0;-1;0;-1447;514;3738;2;0.1689751;-0.634349;-0.6863437;-0.3130194;0;-1;0;3095;2662;17;8;0.1108033;-0.9885423;0.1024931;-0.001385042;0;1;0;815;849;3841;0.9428151;1.690699;1.785867;0.9430844;1.715245;1.240873;0.9432992;1.7348;0.7617319;0.9448099;1.759843;0.02836114;0.684961;1.748505;-0.2988968;0.3477859;1.827263;-0.1565965;0.1017959;0.9409029;-0.04621727;0;0;0;1.204361;1.717174;-0.2989002;1.496267;1.757984;-0.1566013;1.799006;0.892611;0.1396316;1.832758;-0.0464437;0.2613845;0.6309534;1.684426;1.83098;0.7450001;0.7869036;2.980895;0.9261829;0.6304545;4.305667;0.6309534;1.684426;1.83098;0.7450001;0.7869036;2.980895;0.9261829;0.6304545;4.305667
652138.7274;NotLabelled;NONE;16384;0.6897507;-0.6988067;0.1883656;-0.02077562;0;0;0;-1125;3947;172;65536;0.6952909;-0.7153831;0.01385042;-0.06786703;-1;0;0;496;4065;83;8192;0.5;-0.6281465;-0.5415512;-0.2493075;1;3;0;1714;3725;481;32768;0.5706371;-0.6508841;-0.3781163;-0.3282548;0;1;1;-411;4053;210;256;-0.1274238;-0.02770083;-0.9912438;-0.02077562;0;0;1;269;120;4061;128;0.1565097;-0.02770083;0.9761016;0.1481994;0;2;-1;99;1213;-3964;4;0.2922437;-0.7283067;0.599723;0.1565097;0;0;1;-3261;2522;-432;16;0.04570637;-0.9775048;-0.1939058;-0.06925207;0;2;0;-1547;540;3750;2;0.1689751;-0.634349;-0.6863437;-0.3130194;0;-1;0;3151;2666;-37;8;0.1108033;-0.9885423;0.1024931;-0.001385042;0;0;0;845;907;3915;0.9420272;1.690602;1.782297;0.9422966;1.715148;1.237302;0.9425114;1.734703;0.7581614;0.9440221;1.759746;0.02479067;0.6841732;1.748408;-0.3024673;0.3469981;1.827166;-0.160167;0.101008;0.9408059;-0.04978772;0;0;0;1.203573;1.717077;-0.3024706;1.49548;1.757887;-0.1601717;1.800058;0.8929942;0.1355757;1.835741;-0.0460546;0.2568249;0.6301655;1.684329;1.827409;0.7442123;0.7868066;2.977324;0.9253951;0.6303575;4.302098;0.6301655;1.684329;1.827409;0.7442123;0.7868066;2.977324;0.9253951;0.6303575;4.302098
652160.5045;NotLabelled;NONE;16384;0.6897507;-0.6988465;0.1883656;-0.01939058;0;-2;0;-1105;3971;204;65536;0.6952909;-0.7153831;0.01385042;-0.06786703;-1;0;0;428;4133;77;8192;0.5;-0.6281465;-0.5415512;-0.2493075;0;1;0;1676;3777;441;32768;0.5706371;-0.6508841;-0.3781163;-0.3282548;0;1;-1;-439;4079;232;256;-0.1274238;-0.02770083;-0.9912438;-0.02077562;0;0;0;235;106;4081;128;0.1565097;-0.02770083;0.9761016;0.1481994;0;-1;0;39;1265;-4070;4;0.2922437;-0.7283067;0.599723;0.1565097;0;0;0;-3279;2516;-386;16;0.04570637;-0.977229;-0.1952908;-0.06925207;0;2;0;-1521;466;3730;2;0.1689751;-0.634349;-0.6863437;-0.3130194;0;0;0;3173;2658;-1;8;0.1108033;-0.9885423;0.1024931;-0.001385042;0;0;0;799;851;4007;0.9437885;1.690068;1.781945;0.9440579;1.714614;1.23695;0.9442725;1.734169;0.7578093;0.9457833;1.759212;0.0244385;0.6859343;1.747874;-0.3028195;0.3487594;1.826632;-0.1605192;0.1010083;0.9408059;-0.04978789;0;0;0;1.205334;1.716542;-0.3028228;1.497241;1.757353;-0.1605239;1.798872;0.892164;0.1373717;1.834556;-0.04688478;0.2586211;0.6319268;1.683795;1.827057;0.7459735;0.7862723;2.976972;0.9271563;0.6298232;4.301744;0.6319268;1.683795;1.827057;0.7459735;0.7862723;2.976972;0.9271563;0.6298232;4.301744
652180.7284;NotLabelled;NONE;16384;0.6897507;-0.6988465;0.1883656;-0.01939058;0;3;0;-1233;3879;42;65536;0.6952909;-0.7153831;0.01385042;-0.06786703;-1;1;0;446;4121;105;8192;0.5;-0.6281465;-0.5415512;-0.2493075;1;1;0;1746;3701;349;32768;0.5706371;-0.6508841;-0.3781163;-0.3282548;0;1;0;-417;4117;258;256;-0.1274238;-0.02770083;-0.9912438;-0.02077562;0;0;0;179;276;4041;128;0.1578947;-0.02770083;0.9758785;0.1481994;2;0;-1;93;1377;-3974;4;0.2922437;-0.7283067;0.599723;0.1565097;0;0;0;-3179;2540;-472;16;0.04570637;-0.977229;-0.1952908;-0.06925207;0;1;0;-1575;438;3806;2;0.1689751;-0.634349;-0.6863437;-0.3130194;0;0;0;3185;2724;-29;8;0.1108033;-0.9885423;0.1024931;-0.001385042;0;1;0;755;861;3983;0.9420272;1.690602;1.782297;0.9422966;1.715148;1.237302;0.9425114;1.734703;0.7581614;0.9440221;1.759746;0.02479067;0.6841732;1.748408;-0.3024673;0.3469981;1.827166;-0.160167;0.101008;0.9408059;-0.04978772;0;0;0;1.203573;1.717077;-0.3024706;1.49548;1.757887;-0.1601717;1.797111;0.8926983;0.1377238;1.832794;-0.04635048;0.2589732;0.6301655;1.684329;1.827409;0.7442123;0.7868066;2.977324;0.9256099;0.6301336;4.302042;0.6301655;1.684329;1.827409;0.7442123;0.7868066;2.977324;0.9256099;0.6301336;4.302042
652200.8716;NotLabelled;NONE;16384;0.6897507;-0.6988465;0.1883656;-0.01939058;-1;0;0;-1311;3921;94;65536;0.6952909;-0.7153831;0.01385042;-0.06786703;-1;0;0;572;4073;117;8192;0.5;-0.6281465;-0.5415512;-0.2493075;0;0;0;1832;3691;347;32768;0.5706371;-0.6508841;-0.3781163;-0.3282548;0;0;0;-475;4085;236;256;-0.1288089;-0.02770083;-0.9910647;-0.02077562;0;0;0;193;214;4079;128;0.1578947;-0.02770083;0.9758785;0.1481994;1;1;0;143;1293;-3930;4;0.2922437;-0.7283067;0.599723;0.1565097;0;1;1;-3171;2568;-524;16;0.04570637;-0.977229;-0.1952908;-0.06925207;0;0;0;-1569;534;3766;2;0.1689751;-0.634349;-0.6869737;-0.3116343;0;0;0;3141;2702;35;8;0.1108033;-0.9885394;0.1024931;-0.002770083;0;0;0;885;973;3887;0.9420278;1.690592;1.782296;0.9422971;1.715143;1.237302;0.9425117;1.734703;0.7581613;0.9440223;1.759746;0.02479047;0.6841733;1.748408;-0.3024671;0.3469983;1.827166;-0.1601668;0.1010083;0.9408059;-0.04978754;0;0;0;1.203573;1.717077;-0.3024707;1.49548;1.757887;-0.1601719;1.797111;0.8926983;0.1377234;1.832795;-0.04635048;0.2589729;0.6301661;1.684319;1.827408;0.7442132;0.7867956;2.977323;0.9256108;0.6301222;4.302041;0.6301661;1.684319;1.827408;0.7442132;0.7867956;2.977323;0.9256108;0.6301222;4.302041
652222.2321;NotLabelled;NONE;16384;0.6897507;-0.6988465;0.1883656;-0.01939058;-1;-4;0;-1245;3901;132;65536;0.6952909;-0.7152503;0.01385042;-0.06925207;-1;0;-1;510;4073;83;8192;0.5;-0.6281465;-0.5415512;-0.2493075;0;0;0;1804;3655;419;32768;0.5706371;-0.6501837;-0.3781163;-0.3296399;0;1;0;-479;4077;244;256;-0.1288089;-0.02770083;-0.9910647;-0.02077562;0;0;0;163;60;3999;128;0.1578947;-0.02770083;0.9758785;0.1481994;1;1;0;55;1229;-3954;4;0.2922437;-0.7283067;0.599723;0.1565097;0;3;1;-3299;2580;-508;16;0.04570637;-0.977229;-0.1952908;-0.06925207;-1;0;0;-1537;496;3676;2;0.1703601;-0.634349;-0.6860012;-0.3130194;0;0;-1;3181;2654;63;8;0.1108033;-0.9885394;0.1024931;-0.002770083;0;0;0;849;891;3991;0.9415783;1.690641;1.781332;0.9418478;1.715192;1.236337;0.9420625;1.734752;0.7571968;0.9435709;1.759733;0.02382386;0.6837198;1.748381;-0.3034319;0.3465493;1.827166;-0.1611362;0.1008683;0.940806;-0.05007005;0;0;0;1.203118;1.717024;-0.3034348;1.495028;1.757833;-0.1611408;1.79749;0.8926431;0.1359099;1.833512;-0.04640579;0.2570595;0.6297165;1.684368;1.826444;0.7469783;0.7868456;2.976035;0.932079;0.6301724;4.300241;0.6297165;1.684368;1.826444;0.7469783;0.7868456;2.976035;0.932079;0.6301724;4.300241
652242.7133;NotLabelled;NONE;16384;0.6897507;-0.6984717;0.1897507;-0.01939058;-1;-3;0;-1303;3891;248;65536;0.6952909;-0.7152758;0.01246537;-0.06925207;-2;2;-1;496;4115;67;8192;0.5;-0.6281465;-0.5415512;-0.2493075;1;1;0;1746;3687;357;32768;0.5706371;-0.6493763;-0.3795014;-0.3296399;0;3;-1;-445;4121;202;256;-0.1288089;-0.02770083;-0.9910647;-0.02077562;0;0;0;187;108;4053;128;0.1578947;-0.02770083;0.9758785;0.1481994;0;0;0;111;1229;-3984;4;0.2922437;-0.7280077;0.599723;0.1578947;0;0;0;-3295;2594;-474;16;0.04570637;-0.977229;-0.1952908;-0.06925207;0;2;1;-1639;518;3706;2;0.1703601;-0.634349;-0.6860012;-0.3130194;0;1;0;3145;2682;-13;8;0.1108033;-0.9885394;0.1024931;-0.002770083;1;2;0;805;833;4009;0.9434687;1.69043;1.781205;0.943738;1.714981;1.236211;0.9439528;1.734541;0.7570705;0.9454607;1.759522;0.02369756;0.6856093;1.748169;-0.303558;0.3484388;1.826955;-0.1612623;0.1027586;0.9405944;-0.05019557;0;0;0;1.205008;1.716813;-0.3035614;1.496917;1.757622;-0.1612675;1.799381;0.8924325;0.135783;1.833734;-0.0468514;0.2555857;0.6316069;1.684157;1.826318;0.74887;0.7866337;2.975909;0.9339716;0.6299608;4.300114;0.6316069;1.684157;1.826318;0.74887;0.7866337;2.975909;0.9339716;0.6299608;4.300114
652262.7167;NotLabelled;NONE;16384;0.6897507;-0.6984717;0.1897507;-0.01939058;-2;-1;0;-1149;3931;136;65536;0.6952909;-0.7152758;0.01246537;-0.06925207;-2;5;-1;432;4115;85;8192;0.5;-0.6269498;-0.5429363;-0.2493075;0;1;1;1704;3661;515;32768;0.5692521;-0.6505908;-0.3795014;-0.3296399;-1;0;0;-455;4057;162;256;-0.1288089;-0.02770083;-0.9910647;-0.02077562;-1;0;0;179;168;4007;128;0.1565097;-0.02908587;0.9760613;0.1481994;0;0;0;101;1291;-3980;4;0.2922437;-0.7283067;0.599723;0.1565097;0;0;0;-3179;2500;-498;16;0.04570637;-0.9768521;-0.1966759;-0.07063711;0;-1;0;-1563;426;3798;2;0.1703601;-0.632964;-0.6872793;-0.3130194;0;1;0;3173;2662;47;8;0.1108033;-0.988682;0.101108;-0.002770083;1;2;0;831;895;3901;0.9434046;1.690117;1.781223;0.943674;1.714668;1.236228;0.9438885;1.734228;0.7570878;0.9453965;1.759209;0.02371484;0.6855451;1.747856;-0.3035407;0.3483746;1.826642;-0.161245;0.1009973;0.9408097;-0.0497317;0;0;0;1.204943;1.7165;-0.3035442;1.496853;1.757309;-0.1612502;1.799317;0.8921196;0.1358002;1.835606;-0.04715669;0.2550933;0.6315428;1.683844;1.826335;0.7512023;0.7841456;2.973978;0.9363041;0.6274722;4.298182;0.6315428;1.683844;1.826335;0.7512023;0.7841456;2.973978;0.9363041;0.6274722;4.298182
652282.8198;NotLabelled;NONE;16384;0.6897507;-0.6988465;0.1883656;-0.01939058;0;3;1;-1095;3897;-74;65536;0.6939058;-0.7165071;0.01108033;-0.07063711;0;4;0;464;4167;257;8192;0.5;-0.6269498;-0.5429363;-0.2493075;0;-4;2;1718;3707;449;32768;0.5692521;-0.6498871;-0.3795014;-0.3310249;-1;-2;0;-377;4089;228;256;-0.1288089;-0.02770083;-0.9910647;-0.02077562;-3;-2;0;229;156;3975;128;0.1565097;-0.02908587;0.9760613;0.1481994;3;3;0;143;1307;-3920;4;0.2922437;-0.729445;0.5983379;0.1565097;0;3;0;-3213;2476;-528;16;0.04570637;-0.9768521;-0.1966759;-0.07063711;0;-1;0;-1599;474;3706;2;0.1689751;-0.632964;-0.6876212;-0.3130194;0;2;1;3229;2612;59;8;0.1108033;-0.988682;0.101108;-0.002770083;1;2;0;829;829;3829;0.9433854;1.689618;1.780839;0.9436574;1.714409;1.235855;0.9438744;1.734179;0.7567235;0.9453983;1.75916;0.02335048;0.685554;1.747807;-0.3039107;0.3483804;1.826593;-0.1616224;0.1009985;0.9408098;-0.04972962;0;0;0;1.204953;1.716451;-0.3039025;1.496859;1.75726;-0.1616026;1.801151;0.8926777;0.1353484;1.836503;-0.04620445;0.2579825;0.6315233;1.683325;1.825947;0.748761;0.7858027;2.975541;0.9304115;0.6281842;4.300111;0.6315233;1.683325;1.825947;0.748761;0.7858027;2.975541;0.9304115;0.6281842;4.300111
652302.7278;NotLabelled;NONE;16384;0.6897507;-0.6988465;0.1883656;-0.01939058;0;1;1;-1259;3917;-4;65536;0.6939058;-0.7165071;0.01108033;-0.07063711;1;0;0;586;4093;185;8192;0.5;-0.6281465;-0.5415512;-0.2493075;0;-6;1;1724;3723;319;32768;0.5692521;-0.6498871;-0.3795014;-0.3310249;-1;-1;0;-433;4065;258;256;-0.1274238;-0.02770083;-0.9912718;-0.01939058;1;-2;-2;259;56;4019;128;0.1565097;-0.02908587;0.9762706;0.1468144;1;-1;1;101;1097;-3878;4;0.2922437;-0.7291464;0.5983379;0.1578947;0;2;0;-3363;2520;-550;16;0.04570637;-0.9768521;-0.1966759;-0.07063711;0;1;0;-1573;438;3658;2;0.1689751;-0.632964;-0.6876212;-0.3130194;0;1;-1;3159;2556;77;8;0.1108033;-0.988682;0.101108;-0.002770083;1;1;0;779;815;3965;0.9410505;1.69009;1.778431;0.9413223;1.71488;1.233448;0.9415392;1.73465;0.7543159;0.9430469;1.759631;0.02094299;0.6831955;1.748278;-0.3063123;0.346025;1.827064;-0.1640171;0.1003448;0.9407043;-0.05295035;0;0;0;1.202594;1.716923;-0.3063158;1.494503;1.757731;-0.1640222;1.798807;0.893019;0.1325375;1.832495;-0.04610026;0.2538164;0.6291885;1.683797;1.823539;0.7481009;0.7859349;2.972697;0.9297807;0.6283162;4.297263;0.6291885;1.683797;1.823539;0.7481009;0.7859349;2.972697;0.9297807;0.6283162;4.297263
652323.7273;NotLabelled;NONE;16384;0.6897507;-0.6988465;0.1883656;-0.01939058;1;-4;0;-1197;3891;180;65536;0.6939058;-0.7165071;0.01108033;-0.07063711;1;-2;0;512;4035;161;8192;0.5;-0.6281465;-0.5415512;-0.2493075;0;0;0;1808;3723;359;32768;0.5692521;-0.6498871;-0.3795014;-0.3310249;-1;1;-1;-413;4105;232;256;-0.1274238;-0.02908587;-0.9912041;-0.02077562;3;-1;-2;171;-38;3981;128;0.1565097;-0.02908587;0.9764779;0.1454294;0;0;1;103;1109;-3920;4;0.2922437;-0.729445;0.5983379;0.1565097;0;0;0;-3393;2578;-492;16;0.04570637;-0.9769512;-0.1966759;-0.06925207;0;3;1;-1533;402;3712;2;0.1689751;-0.632964;-0.6876212;-0.3130194;0;1;0;3249;2508;93;8;0.1108033;-0.9888226;0.09972299;-0.002770083;2;0;0;795;785;3987;0.9417231;1.695606;1.779671;0.9419787;1.718889;1.234621;0.9421811;1.737334;0.7554367;0.9435619;1.760363;0.0219993;0.683663;1.748035;-0.3051829;0.3464836;1.827065;-0.1630436;0.1004877;0.9407043;-0.05267785;0;0;0;1.203074;1.716887;-0.3051862;1.49499;1.758191;-0.1630486;1.796604;0.8930016;0.1348629;1.829964;-0.04611742;0.2562327;0.6298624;1.689438;1.824806;0.7480606;0.7894063;2.972338;0.9261428;0.6317883;4.297394;0.6298624;1.689438;1.824806;0.7480606;0.7894063;2.972338;0.9261428;0.6317883;4.297394
652344.8083;NotLabelled;NONE;16384;0.6897507;-0.6988835;0.1883656;-0.01800554;0;-5;1;-1085;3875;274;65536;0.6952909;-0.7151631;0.01108033;-0.07063711;0;0;0;384;4103;101;8192;0.5;-0.6286945;-0.5415512;-0.2479224;0;1;0;1742;3583;261;32768;0.5692521;-0.6498871;-0.3795014;-0.3310249;-1;0;0;-485;4083;200;256;-0.1274238;-0.02908587;-0.9912041;-0.02077562;3;-1;-2;319;36;3997;128;0.1551246;-0.02908587;0.9766988;0.1454294;0;0;1;41;1169;-3934;4;0.2922437;-0.729445;0.5983379;0.1565097;0;-2;0;-3301;2490;-508;16;0.04432133;-0.9769158;-0.1966759;-0.07063711;0;0;0;-1525;410;3802;2;0.1689751;-0.632964;-0.68825;-0.3116343;0;0;0;3191;2590;35;8;0.1121884;-0.9886665;0.09972299;-0.002770083;3;1;0;797;903;3973;0.9413527;1.69439;1.77969;0.9415917;1.716165;1.234578;0.9417796;1.733285;0.7553439;0.9433429;1.758068;0.02196413;0.6834564;1.74733;-0.3052844;0.3465021;1.827064;-0.1630041;0.1004937;0.9407036;-0.05266689;0;0;0;1.202768;1.714571;-0.3052879;1.494789;1.754629;-0.1630094;1.79637;0.8894396;0.1349378;1.829716;-0.04967856;0.2563112;0.6294935;1.688346;1.824851;0.7451618;0.7904842;2.97434;0.9267403;0.6335878;4.299005;0.6294935;1.688346;1.824851;0.7451618;0.7904842;2.97434;0.9267403;0.6335878;4.299005
652365.8816;NotLabelled;NONE;16384;0.6897507;-0.6985431;0.1897507;-0.0166205;-1;-2;1;-961;3905;108;65536;0.6952909;-0.7152985;0.01108033;-0.06925207;0;-1;0;412;4117;179;8192;0.5;-0.6286945;-0.5415512;-0.2479224;0;-2;1;1744;3625;373;32768;0.5692521;-0.6498871;-0.3795014;-0.3310249;-1;-2;0;-521;4093;220;256;-0.1260388;-0.02908587;-0.9913812;-0.02077562;1;-1;-2;333;92;3969;128;0.1551246;-0.02908587;0.9766988;0.1454294;0;0;1;41;1265;-3992;4;0.2908587;-0.7299984;0.5983379;0.1565097;0;0;-2;-3109;2406;-544;16;0.04432133;-0.9771937;-0.1952908;-0.07063711;1;-3;0;-1667;480;3710;2;0.1689751;-0.6315789;-0.6895213;-0.3116343;0;2;2;3041;2682;15;8;0.1121884;-0.9886665;0.09972299;-0.002770083;3;3;0;795;863;3863;0.9403495;1.695046;1.783581;0.9405884;1.716814;1.238468;0.9407762;1.733926;0.7592341;0.9423398;1.758709;0.02585453;0.6824534;1.747972;-0.3013941;0.3454993;1.827705;-0.1591138;0.1012664;0.9408137;-0.04910056;0;0;0;1.201765;1.715212;-0.3013972;1.493786;1.75527;-0.1591188;1.797118;0.8910009;0.1397175;1.830464;-0.04811811;0.261091;0.6284903;1.689004;1.828742;0.7441578;0.7911416;2.97823;0.9214598;0.637158;4.303817;0.6284903;1.689004;1.828742;0.7441578;0.7911416;2.97823;0.9214598;0.637158;4.303817
652387.2199;NotLabelled;NONE;16384;0.6897507;-0.6989179;0.1883656;-0.0166205;0;2;1;-1151;3839;66;65536;0.6952909;-0.7152985;0.01108033;-0.06925207;0;0;1;380;4117;103;8192;0.5;-0.6286945;-0.5415512;-0.2479224;0;0;0;1816;3683;297;32768;0.5692521;-0.6505908;-0.3795014;-0.3296399;0;0;0;-435;4151;252;256;-0.1260388;-0.02908587;-0.9913812;-0.02077562;1;0;-1;341;180;3987;128;0.1551246;-0.02908587;0.9766988;0.1454294;0;0;1;-29;1277;-4006;4;0.2908587;-0.7299984;0.5983379;0.1565097;0;0;-1;-3277;2458;-544;16;0.04570637;-0.9771299;-0.1952908;-0.07063711;1;-3;0;-1653;502;3652;2;0.16759;-0.6315789;-0.6898592;-0.3116343;0;0;3;3071;2588;109;8;0.1121884;-0.9886665;0.09972299;-0.002770083;1;2;1;819;855;3777;0.9388435;1.695208;1.784573;0.9390824;1.716975;1.23946;0.9392703;1.734088;0.7602262;0.9408363;1.758935;0.02684873;0.6809521;1.748214;-0.3004023;0.3439934;1.827919;-0.1581167;0.09951121;0.9410217;-0.0487093;0;0;0;1.200266;1.715479;-0.3004056;1.492284;1.755539;-0.1581221;1.79478;0.8912687;0.1415612;1.827786;-0.04784989;0.2630271;0.6269842;1.689165;1.829734;0.7426208;0.7937882;2.981163;0.916005;0.6400359;4.307296;0.6269842;1.689165;1.829734;0.7426208;0.7937882;2.981163;0.916005;0.6400359;4.307296
652407.0079;NotLabelled;NONE;16384;0.6911357;-0.6975483;0.1883656;-0.0166205;0;-3;0;-1261;3973;166;65536;0.6952909;-0.7152985;0.01108033;-0.06925207;0;-1;0;534;4045;157;8192;0.5;-0.6286945;-0.5415512;-0.2479224;0;0;0;1744;3675;363;32768;0.5692521;-0.6505908;-0.3795014;-0.3296399;1;1;0;-447;4095;242;256;-0.1260388;-0.02908587;-0.9913512;-0.02216066;3;0;0;223;126;4123;128;0.1551246;-0.02908587;0.9766988;0.1454294;0;-1;0;79;1201;-4034;4;0.2908587;-0.7302939;0.5983379;0.1551246;0;-2;0;-3277;2542;-460;16;0.04570637;-0.977229;-0.1952908;-0.06925207;0;-2;0;-1557;538;3628;2;0.16759;-0.6315789;-0.6898592;-0.3116343;0;0;1;3007;2566;-5;8;0.1121884;-0.9888052;0.09833795;-0.002770083;0;0;0;793;899;3755;0.9371414;1.695729;1.785011;0.9373803;1.717497;1.239898;0.9375681;1.734609;0.760664;0.9391342;1.759457;0.02728647;0.6792499;1.748735;-0.2999645;0.3422912;1.828441;-0.1576789;0.099511;0.9410222;-0.0487095;0;0;0;1.198563;1.716001;-0.2999678;1.490582;1.75606;-0.1576844;1.793078;0.8917902;0.1419989;1.827743;-0.04709136;0.2648284;0.625282;1.689686;1.830172;0.7409186;0.7943096;2.981601;0.9149361;0.6369209;4.307223;0.625282;1.689686;1.830172;0.7409186;0.7943096;2.981601;0.9149361;0.6369209;4.307223
652428.1731;NotLabelled;NONE;16384;0.6911357;-0.6975483;0.1883656;-0.0166205;1;-3;0;-1141;3861;92;65536;0.6952909;-0.7152985;0.01108033;-0.06925207;0;-1;0;480;4131;203;8192;0.5;-0.6286945;-0.5415512;-0.2479224;0;0;0;1796;3617;375;32768;0.5692521;-0.6505908;-0.3795014;-0.3296399;1;0;0;-523;4075;216;256;-0.1260388;-0.02908587;-0.9913512;-0.02216066;2;0;-1;305;136;4021;128;0.1551246;-0.02908587;0.9766988;0.1454294;0;-2;0;125;1235;-4002;4;0.2908587;-0.7288609;0.599723;0.1565097;0;-4;0;-3271;2550;-402;16;0.04570637;-0.977229;-0.1952908;-0.06925207;0;-4;-2;-1505;504;3688;2;0.16759;-0.6315789;-0.6898592;-0.3116343;1;-1;0;3033;2596;-57;8;0.1121884;-0.9886665;0.09972299;-0.002770083;0;-3;0;783;921;3991;0.9382725;1.693041;1.788203;0.9385115;1.714809;1.243091;0.9386993;1.731921;0.763857;0.9404018;1.758783;0.03055084;0.6805711;1.749051;-0.296773;0.3436152;1.828483;-0.1543281;0.09951523;0.9410214;-0.04870096;0;0;0;1.199873;1.716136;-0.2967765;1.49188;1.755702;-0.1543329;1.794351;0.8914332;0.1453762;1.829005;-0.04744899;0.2682086;0.6264133;1.686998;1.833365;0.7395302;0.7937956;2.986731;0.9170748;0.6371226;4.311969;0.6264133;1.686998;1.833365;0.7395302;0.7937956;2.986731;0.9170748;0.6371226;4.311969
652448.7424;NotLabelled;NONE;16384;0.6911357;-0.6975483;0.1883656;-0.0166205;0;-2;0;-1087;3907;152;65536;0.6952909;-0.7152985;0.01108033;-0.06925207;1;-2;-1;478;4019;115;8192;0.5;-0.6286945;-0.5415512;-0.2479224;0;0;-1;1796;3703;497;32768;0.5692521;-0.6505908;-0.3795014;-0.3296399;0;0;0;-421;4101;244;256;-0.1246537;-0.02908587;-0.9914944;-0.0235457;1;0;-1;299;238;3979;128;0.1551246;-0.02908587;0.9764916;0.1468144;-1;-1;0;23;1275;-3928;4;0.2908587;-0.7288609;0.599723;0.1565097;0;-5;0;-3251;2606;-408;16;0.04570637;-0.9775048;-0.1939058;-0.06925207;0;-5;-2;-1551;530;3846;2;0.16759;-0.6315789;-0.6892318;-0.3130194;1;-2;0;3049;2708;51;8;0.1121884;-0.9886665;0.09972299;-0.002770083;0;-3;0;791;925;3925;0.9382725;1.693041;1.788203;0.9385115;1.714809;1.243091;0.9386993;1.731921;0.763857;0.9404018;1.758783;0.03055084;0.6805711;1.749051;-0.296773;0.3436152;1.828483;-0.1543281;0.09951523;0.9410214;-0.04870096;0;0;0;1.199873;1.716136;-0.2967765;1.49188;1.755702;-0.1543329;1.794351;0.8914332;0.1453762;1.829005;-0.04744899;0.2682086;0.6264133;1.686998;1.833365;0.7403049;0.7919555;2.985226;0.9178498;0.6352825;4.310465;0.6264133;1.686998;1.833365;0.7403049;0.7919555;2.985226;0.9178498;0.6352825;4.310465
652469.6349;NotLabelled;NONE;16384;0.6911357;-0.6975483;0.1883656;-0.0166205;0;-3;0;-1087;3953;232;65536;0.6952909;-0.7152985;0.01108033;-0.06925207;0;-1;0;468;4137;97;8192;0.5;-0.6286945;-0.5415512;-0.2479224;0;0;0;1734;3679;447;32768;0.5692521;-0.6505908;-0.3795014;-0.3296399;-1;-1;0;-439;4061;168;256;-0.1246537;-0.02908587;-0.9914944;-0.0235457;1;0;-1;267;264;3969;128;0.1537396;-0.02770083;0.9767509;0.1468144;0;-1;0;79;1275;-3832;4;0.2908587;-0.7277191;0.601108;0.1565097;-1;-4;-1;-3173;2576;-440;16;0.04570637;-0.9778756;-0.1925208;-0.06786703;1;-7;-1;-1439;504;3788;2;0.16759;-0.632964;-0.6879601;-0.3130194;1;-3;1;3065;2656;13;8;0.1121884;-0.9885258;0.101108;-0.002770083;0;-1;0;793;839;3909;0.9384755;1.687431;1.788877;0.938731;1.710705;1.243827;0.9389334;1.729143;0.7646422;0.9407766;1.758084;0.03141597;0.6810021;1.749357;-0.2959812;0.3440438;1.828483;-0.1533723;0.09965564;0.9410214;-0.04841395;0;0;0;1.200294;1.71629;-0.2959844;1.492288;1.755366;-0.1533768;1.793936;0.8910966;0.1471586;1.828237;-0.04778516;0.2700912;0.6266149;1.681263;1.834013;0.7371861;0.7862203;2.986198;0.9106956;0.6297712;4.311997;0.6266149;1.681263;1.834013;0.7371861;0.7862203;2.986198;0.9106956;0.6297712;4.311997
652490.7518;NotLabelled;NONE;16384;0.6911357;-0.6975799;0.1883656;-0.01523546;2;0;0;-1053;3913;132;65536;0.6952909;-0.7152758;0.01246537;-0.06925207;0;-1;1;488;4051;87;8192;0.5;-0.6286945;-0.5415512;-0.2479224;0;0;0;1654;3649;429;32768;0.5692521;-0.6505908;-0.3795014;-0.3296399;0;-1;0;-491;4057;280;256;-0.1246537;-0.02908587;-0.9914944;-0.0235457;3;-1;-1;237;218;3923;128;0.1537396;-0.02770083;0.9767509;0.1468144;-1;-4;1;47;1275;-3808;4;0.2908587;-0.7265728;0.602493;0.1565097;-1;-5;0;-3169;2518;-402;16;0.04709141;-0.9780816;-0.1911357;-0.06786703;0;-7;-2;-1473;548;3696;2;0.16759;-0.632964;-0.6879601;-0.3130194;0;-5;0;3091;2640;-13;8;0.1121884;-0.9885258;0.101108;-0.002770083;0;-2;0;823;889;3825;0.9384983;1.687899;1.788938;0.938751;1.710924;1.243877;0.9389508;1.729143;0.7646836;0.9407939;1.758084;0.03145683;0.6810193;1.749357;-0.2959403;0.3440611;1.828482;-0.153331;0.09965537;0.9410214;-0.04841389;0;0;0;1.200312;1.71629;-0.2959434;1.492305;1.755366;-0.1533356;1.793903;0.8910966;0.1472509;1.828203;-0.04778492;0.2701834;0.6266379;1.681752;1.834077;0.7355599;0.7870467;2.986682;0.9124979;0.6315284;4.312138;0.6266379;1.681752;1.834077;0.7355599;0.7870467;2.986682;0.9124979;0.6315284;4.312138
652511.8204;NotLabelled;NONE;16384;0.6911357;-0.6975799;0.1883656;-0.01523546;0;0;0;-1159;3987;232;65536;0.6952909;-0.7152985;0.01108033;-0.06925207;0;0;0;440;4133;63;8192;0.501385;-0.6275905;-0.5415512;-0.2479224;0;-1;-1;1732;3733;333;32768;0.5692521;-0.6505908;-0.3795014;-0.3296399;0;-1;-1;-449;4117;250;256;-0.1232687;-0.02908587;-0.9916337;-0.02493075;2;0;0;315;180;4031;128;0.1537396;-0.02770083;0.9765417;0.1481994;-2;-2;0;-13;1273;-4036;4;0.2908587;-0.7265728;0.602493;0.1565097;0;-5;0;-3131;2574;-434;16;0.04709141;-0.9784463;-0.1897507;-0.06648199;0;-4;-1;-1435;588;3728;2;0.16759;-0.634349;-0.6866832;-0.3130194;0;-3;0;3063;2680;19;8;0.1121884;-0.9885258;0.101108;-0.002770083;0;-4;0;793;935;3885;0.9385061;1.688211;1.788845;0.9387587;1.711236;1.243784;0.9389586;1.729455;0.7645907;0.9408016;1.758396;0.03136384;0.681027;1.749669;-0.2960333;0.3440689;1.828794;-0.153424;0.1014208;0.9408095;-0.04886244;0;0;0;1.200319;1.716602;-0.2960364;1.492313;1.755678;-0.1534286;1.793918;0.8914087;0.1471508;1.828218;-0.04747319;0.2700835;0.6266457;1.682064;1.833984;0.7339163;0.7876997;2.987009;0.9112581;0.628762;4.312005;0.6266457;1.682064;1.833984;0.7339163;0.7876997;2.987009;0.9112581;0.628762;4.312005
652532.0589;NotLabelled;NONE;16384;0.6911357;-0.6975799;0.1883656;-0.01523546;0;-1;0;-1125;3957;140;65536;0.6952909;-0.7152985;0.01108033;-0.06925207;0;0;1;436;4103;135;8192;0.501385;-0.6275905;-0.5415512;-0.2479224;0;0;-1;1824;3623;333;32768;0.5692521;-0.6505908;-0.3795014;-0.3296399;0;0;0;-533;4109;278;256;-0.1232687;-0.02908587;-0.9916337;-0.02493075;2;0;0;227;246;4121;128;0.1537396;-0.02631579;0.97658;0.1481994;-2;-1;0;17;1253;-4050;4;0.2908587;-0.7262731;0.602493;0.1578947;0;-4;0;-3009;2596;-444;16;0.04709141;-0.9784463;-0.1897507;-0.06648199;0;-2;-1;-1491;606;3836;2;0.16759;-0.634349;-0.6866832;-0.3130194;0;-3;0;3087;2712;-3;8;0.1121884;-0.9883832;0.1024931;-0.002770083;0;-4;0;809;957;3929;0.9369386;1.682816;1.789948;0.9372081;1.70735;1.244953;0.9374225;1.726894;0.7658125;0.9394066;1.757915;0.03267139;0.6796889;1.75019;-0.2947957;0.3427275;1.829007;-0.1520234;0.09979462;0.9410224;-0.04812634;0;0;0;1.198972;1.716975;-0.2947991;1.49095;1.755564;-0.1520287;1.792997;0.8906708;0.1463042;1.826942;-0.0482105;0.2693352;0.625077;1.676544;1.835061;0.7290247;0.7821803;2.988389;0.905974;0.6241572;4.313548;0.625077;1.676544;1.835061;0.7290247;0.7821803;2.988389;0.905974;0.6241572;4.313548
652552.7952;NotLabelled;NONE;16384;0.6911357;-0.6975799;0.1883656;-0.01523546;1;0;0;-1147;3873;12;65536;0.6952909;-0.7152985;0.01108033;-0.06925207;0;-1;1;452;4137;137;8192;0.501385;-0.6275905;-0.5415512;-0.2479224;0;1;0;1830;3639;371;32768;0.5692521;-0.6505908;-0.3795014;-0.3296399;0;0;0;-491;4069;282;256;-0.1232687;-0.02908587;-0.9915978;-0.02631579;1;0;0;319;212;4009;128;0.1537396;-0.02631579;0.97658;0.1481994;-1;-2;0;9;1279;-3984;4;0.2908587;-0.7251219;0.6038781;0.1578947;0;-2;0;-3063;2512;-340;16;0.04709141;-0.9787139;-0.1883656;-0.06648199;0;-1;0;-1397;574;3806;2;0.16759;-0.6357341;-0.6854011;-0.3130194;0;-2;0;3051;2672;9;8;0.1121884;-0.9883832;0.1024931;-0.002770083;-1;-1;0;839;901;3881;0.9369611;1.683267;1.790009;0.9372278;1.707561;1.245003;0.93744;1.726894;0.7658535;0.9394243;1.757914;0.03271249;0.6797067;1.75019;-0.2947552;0.342745;1.829007;-0.1519824;0.0997941;0.9410219;-0.04812656;0;0;0;1.198989;1.716975;-0.2947584;1.490968;1.755563;-0.1519878;1.792964;0.8906703;0.1463971;1.826909;-0.04821134;0.2694275;0.6250996;1.677015;1.835126;0.7314585;0.7804642;2.986535;0.9084076;0.6224408;4.311694;0.6250996;1.677015;1.835126;0.7314585;0.7804642;2.986535;0.9084076;0.6224408;4.311694
652573.7192;NotLabelled;NONE;16384;0.6911357;-0.6975799;0.1883656;-0.01523546;1;-1;0;-1149;3905;150;65536;0.6952909;-0.7152758;0.01246537;-0.06925207;0;0;1;514;4115;55;8192;0.501385;-0.6281359;-0.5415512;-0.2465374;0;2;2;1784;3633;383;32768;0.5692521;-0.6505908;-0.3795014;-0.3296399;0;0;1;-461;4075;222;256;-0.1232687;-0.02908587;-0.9915978;-0.02631579;1;0;0;249;276;3977;128;0.1537396;-0.02631579;0.9763688;0.1495845;-2;-1;0;23;1325;-3906;4;0.2908587;-0.7251219;0.6038781;0.1578947;0;0;0;-3169;2498;-392;16;0.04709141;-0.9787139;-0.1883656;-0.06648199;-1;0;0;-1445;494;3698;2;0.16759;-0.6357341;-0.6854011;-0.3130194;0;0;0;3147;2656;-45;8;0.1121884;-0.9883832;0.1024931;-0.002770083;-1;0;0;829;909;3873;0.9367747;1.680542;1.789854;0.9370414;1.704835;1.244848;0.9372536;1.724169;0.7656982;0.9393779;1.757203;0.03264543;0.6797155;1.750468;-0.2948874;0.3427554;1.829007;-0.1519582;0.09979823;0.9410213;-0.04811779;0;0;0;1.198987;1.717076;-0.2948906;1.490954;1.755172;-0.1519636;1.792931;0.8902794;0.1464403;1.826866;-0.04860246;0.2694738;0.6249132;1.67429;1.834971;0.7295134;0.7780789;2.986806;0.9061304;0.6202694;4.312035;0.6249132;1.67429;1.834971;0.7295134;0.7780789;2.986806;0.9061304;0.6202694;4.312035
652593.7445;NotLabelled;NONE;16384;0.6911357;-0.6975799;0.1883656;-0.01523546;0;-3;0;-1131;3939;310;65536;0.6952909;-0.7152758;0.01246537;-0.06925207;0;0;0;444;3981;93;8192;0.501385;-0.6275905;-0.5415512;-0.2479224;0;0;0;1698;3679;393;32768;0.5692521;-0.6505908;-0.3795014;-0.3296399;0;0;0;-417;4101;296;256;-0.1232687;-0.02908587;-0.9915978;-0.02631579;1;0;0;195;180;4013;128;0.1537396;-0.02631579;0.9763688;0.1495845;-3;0;0;-35;1247;-3922;4;0.2908587;-0.7251219;0.6038781;0.1578947;0;0;0;-3123;2518;-420;16;0.04709141;-0.9787139;-0.1883656;-0.06648199;-2;0;0;-1451;512;3766;2;0.16759;-0.6357341;-0.6860319;-0.3116343;0;0;0;3147;2634;-51;8;0.1121884;-0.9883832;0.1024931;-0.002770083;-1;0;0;797;899;3871;0.938495;1.677496;1.78925;0.9387782;1.703298;1.244313;0.9390049;1.723958;0.7652189;0.9411291;1.756992;0.03216594;0.6814668;1.750256;-0.2953674;0.3445069;1.828795;-0.1524376;0.101565;0.94081;-0.0485617;0;0;0;1.200738;1.716865;-0.2953705;1.492705;1.754961;-0.1524428;1.796427;0.8909886;0.1468564;1.830362;-0.04789257;0.2698898;0.6266321;1.671119;1.83434;0.7312321;0.7749085;2.986175;0.9078494;0.617099;4.311403;0.6266321;1.671119;1.83434;0.7312321;0.7749085;2.986175;0.9078494;0.617099;4.311403
652614.7272;NotLabelled;NONE;16384;0.6911357;-0.6975799;0.1883656;-0.01523546;1;-1;0;-1155;3937;106;65536;0.6952909;-0.7152758;0.01246537;-0.06925207;0;0;0;508;4123;151;8192;0.501385;-0.6275905;-0.5415512;-0.2479224;0;0;0;1738;3675;387;32768;0.5692521;-0.6498871;-0.3795014;-0.3310249;0;-1;0;-479;4079;232;256;-0.1246537;-0.02908587;-0.9914247;-0.02631579;1;1;0;253;214;4013;128;0.1537396;-0.02631579;0.9761556;0.1509695;-3;0;0;65;1301;-3858;4;0.2908587;-0.7251219;0.6038781;0.1578947;0;1;0;-3127;2546;-388;16;0.04570637;-0.9787796;-0.1883656;-0.06648199;-2;1;0;-1507;436;3784;2;0.16759;-0.6357341;-0.6860319;-0.3116343;0;0;0;3211;2642;-107;8;0.1108033;-0.9885394;0.1024931;-0.002770083;-1;0;0;845;863;3925;0.9385105;1.677496;1.789286;0.9387937;1.703298;1.244349;0.9390205;1.723958;0.765255;0.9411448;1.756992;0.03220204;0.6814823;1.750256;-0.2953313;0.3445224;1.828795;-0.1524015;0.1015652;0.94081;-0.04856136;0;0;0;1.200754;1.716865;-0.2953344;1.49272;1.754961;-0.1524068;1.794697;0.8900681;0.1459969;1.828632;-0.04881406;0.2690305;0.6266476;1.671119;1.834376;0.7312476;0.7749085;2.98621;0.9078647;0.617099;4.311439;0.6266476;1.671119;1.834376;0.7312476;0.7749085;2.98621;0.9078647;0.617099;4.311439
652636.712;NotLabelled;NONE;16384;0.6911357;-0.6975799;0.1883656;-0.01523546;0;-2;0;-1231;3923;160;65536;0.6952909;-0.7152758;0.01246537;-0.06925207;-1;0;0;542;4081;135;8192;0.501385;-0.6281359;-0.5415512;-0.2465374;0;0;1;1902;3627;475;32768;0.5692521;-0.6505908;-0.3795014;-0.3296399;-1;0;1;-493;4087;178;256;-0.1246537;-0.02908587;-0.991387;-0.02770083;2;0;0;273;218;3997;128;0.1537396;-0.02631579;0.9761556;0.1509695;-2;0;0;71;1325;-3978;4;0.2908587;-0.7251219;0.6038781;0.1578947;0;3;-1;-3169;2566;-322;16;0.04570637;-0.9788727;-0.1883656;-0.06509695;-1;1;0;-1469;510;3836;2;0.16759;-0.6357341;-0.6860319;-0.3116343;0;1;1;3127;2624;-41;8;0.1108033;-0.9885394;0.1024931;-0.002770083;0;0;0;893;811;3931;0.9380355;1.674705;1.78816;0.9383352;1.702015;1.243297;0.9385763;1.724001;0.7642621;0.9406984;1.75697;0.03120631;0.6810338;1.750222;-0.2963243;0.3440796;1.828794;-0.1534002;0.101429;0.9408097;-0.04884506;0;0;0;1.200303;1.716797;-0.2963277;1.492273;1.754888;-0.1534054;1.795127;0.8899951;0.1441081;1.827752;-0.049124;0.2656778;0.6261713;1.668204;1.833223;0.7339904;0.7719927;2.984761;0.913704;0.6178248;4.31;0.6261713;1.668204;1.833223;0.7339904;0.7719927;2.984761;0.913704;0.6178248;4.31
652658.7399;NotLabelled;NONE;16384;0.6911357;-0.6972044;0.1897507;-0.01523546;0;-2;-1;-1191;3947;170;65536;0.6952909;-0.7152758;0.01246537;-0.06925207;0;0;0;462;4103;89;8192;0.501385;-0.6281359;-0.5415512;-0.2465374;-1;1;1;1806;3703;401;32768;0.5692521;-0.6513967;-0.3781163;-0.3296399;-2;-1;0;-471;4053;242;256;-0.1246537;-0.02908587;-0.991387;-0.02770083;2;0;0;197;230;4041;128;0.1537396;-0.02631579;0.9759404;0.1523546;-2;0;0;89;1353;-3920;4;0.2908587;-0.7262731;0.602493;0.1578947;0;3;0;-3197;2510;-384;16;0.04570637;-0.9788727;-0.1883656;-0.06509695;-1;0;0;-1429;438;3824;2;0.16759;-0.6357341;-0.6860319;-0.3116343;0;1;0;3147;2636;21;8;0.1108033;-0.9885394;0.1024931;-0.002770083;0;2;1;797;829;3859;0.9378743;1.67198;1.788061;0.9381741;1.69929;1.243198;0.9384153;1.721276;0.7641633;0.9406792;1.756258;0.031201;0.6810704;1.750499;-0.2963932;0.3441177;1.828795;-0.153313;0.1014334;0.9408098;-0.04883647;0;0;0;1.200328;1.716896;-0.296396;1.492285;1.754494;-0.1533182;1.796746;0.8905214;0.145229;1.831015;-0.04836023;0.2681704;0.6260101;1.665478;1.833124;0.7337285;0.7692674;2.984671;0.9169694;0.6157907;4.309509;0.6260101;1.665478;1.833124;0.7337285;0.7692674;2.984671;0.9169694;0.6157907;4.309509
652680.6458;NotLabelled;NONE;16384;0.6911357;-0.6972044;0.1897507;-0.01523546;1;0;-3;-1093;3897;142;65536;0.6952909;-0.7152758;0.01246537;-0.06925207;0;0;0;396;4115;117;8192;0.501385;-0.6269391;-0.5429363;-0.2465374;-2;0;1;1654;3727;453;32768;0.5692521;-0.6513967;-0.3781163;-0.3296399;-3;-3;0;-397;4083;198;256;-0.1246537;-0.02908587;-0.9913473;-0.02908587;3;0;1;195;252;4067;128;0.1537396;-0.02631579;0.9759404;0.1523546;-3;0;-1;7;1299;-3912;4;0.2908587;-0.7262731;0.602493;0.1578947;0;2;-1;-3337;2452;-382;16;0.04570637;-0.9788727;-0.1883656;-0.06509695;-1;1;-1;-1417;444;3772;2;0.16759;-0.6357341;-0.6860319;-0.3116343;0;2;1;3207;2608;-45;8;0.1108033;-0.9885394;0.1024931;-0.002770083;0;1;1;915;879;3929;0.9395418;1.668625;1.787467;0.9398581;1.697444;1.242681;0.940114;1.720757;0.7637086;0.9423777;1.755739;0.03074658;0.6827691;1.74998;-0.2968476;0.3458163;1.828276;-0.1537678;0.1014335;0.9408101;-0.04883638;0;0;0;1.202027;1.716377;-0.2968509;1.493984;1.753974;-0.1537727;1.798471;0.8900019;0.1447474;1.830804;-0.0488838;0.26818;0.6276762;1.661999;1.832501;0.737053;0.7654477;2.983628;0.9202939;0.6119708;4.308465;0.6276762;1.661999;1.832501;0.737053;0.7654477;2.983628;0.9202939;0.6119708;4.308465
652701.8103;NotLabelled;NONE;16384;0.6911357;-0.6972044;0.1897507;-0.01523546;2;1;-2;-1049;3831;126;65536;0.6952909;-0.7152758;0.01246537;-0.06925207;0;0;1;458;4079;89;8192;0.501385;-0.627482;-0.5429363;-0.2451524;-1;-2;2;1940;3617;403;32768;0.5692521;-0.6521987;-0.3767313;-0.3296399;-2;-2;1;-523;4033;258;256;-0.1246537;-0.02770083;-0.991387;-0.02908587;2;0;0;325;240;4023;128;0.1537396;-0.02631579;0.9759404;0.1523546;-3;0;0;19;1301;-3970;4;0.2908587;-0.7265728;0.602493;0.1565097;0;1;-1;-3201;2576;-448;16;0.04432133;-0.9789364;-0.1883656;-0.06509695;-1;2;0;-1441;464;3814;2;0.16759;-0.6357341;-0.6860319;-0.3116343;0;3;1;3253;2636;-23;8;0.1108033;-0.9885394;0.1024931;-0.002770083;0;3;0;857;877;3885;0.939355;1.665899;1.787303;0.9396713;1.694718;1.242518;0.9399269;1.718031;0.7635452;0.9423335;1.755027;0.03068244;0.6827812;1.750257;-0.2969723;0.3458299;1.828275;-0.1537374;0.1014379;0.9408097;-0.04882754;0;0;0;1.202027;1.716476;-0.2969759;1.493972;1.753579;-0.1537432;1.800275;0.8900945;0.1443305;1.832596;-0.04879093;0.2677658;0.6274894;1.659273;1.832338;0.7367656;0.7627218;2.983474;0.9198905;0.6092451;4.308328;0.6274894;1.659273;1.832338;0.7367656;0.7627218;2.983474;0.9198905;0.6092451;4.308328
652722.719;NotLabelled;NONE;16384;0.6911357;-0.6972044;0.1897507;-0.01523546;0;0;0;-1215;3931;122;65536;0.6952909;-0.7152758;0.01246537;-0.06925207;-1;0;2;458;4119;109;8192;0.501385;-0.627482;-0.5429363;-0.2451524;-1;2;1;1792;3703;337;32768;0.5692521;-0.6514968;-0.3767313;-0.3310249;-2;0;0;-431;4095;274;256;-0.1246537;-0.02770083;-0.991387;-0.02908587;2;0;0;301;250;3997;128;0.1537396;-0.02770083;0.9756848;0.1537396;-3;1;0;49;1269;-4044;4;0.2908587;-0.7265728;0.602493;0.1565097;0;2;-1;-3217;2524;-354;16;0.04432133;-0.9789364;-0.1883656;-0.06509695;-1;0;0;-1439;448;3760;2;0.166205;-0.6357341;-0.6863688;-0.3116343;0;2;2;3147;2666;-23;8;0.1108033;-0.988682;0.101108;-0.002770083;0;3;1;783;863;3869;0.939628;1.667222;1.787262;0.9399443;1.696042;1.242476;0.9402001;1.719354;0.7635038;0.9425208;1.756605;0.03065348;0.6829898;1.751233;-0.2970088;0.3458222;1.828276;-0.1537551;0.1014353;0.94081;-0.0488323;0;0;0;1.202327;1.718879;-0.2970119;1.494165;1.756737;-0.1537602;1.802185;0.8941793;0.1452272;1.832579;-0.0447073;0.2691529;0.6277624;1.660596;1.832297;0.7346878;0.766233;2.985353;0.9172675;0.6163993;4.310699;0.6277624;1.660596;1.832297;0.7346878;0.766233;2.985353;0.9172675;0.6163993;4.310699
652742.7222;NotLabelled;NONE;16384;0.6911357;-0.6972044;0.1897507;-0.01523546;0;1;0;-1223;3881;44;65536;0.6952909;-0.7151403;0.01246537;-0.07063711;0;1;1;480;4127;199;8192;0.501385;-0.627482;-0.5429363;-0.2451524;0;2;0;1578;3689;449;32768;0.5692521;-0.6514968;-0.3767313;-0.3310249;-2;0;0;-315;4199;292;256;-0.1260388;-0.02770083;-0.9911702;-0.03047091;1;0;1;255;182;4075;128;0.1537396;-0.02770083;0.9756848;0.1537396;-3;0;-1;3;1267;-3982;4;0.2908587;-0.7265728;0.602493;0.1565097;0;2;-1;-3197;2486;-382;16;0.04432133;-0.9786689;-0.1897507;-0.06509695;-1;2;0;-1467;540;3752;2;0.166205;-0.634349;-0.6876491;-0.3116343;0;1;2;3103;2586;-23;8;0.1108033;-0.988682;0.101108;-0.002770083;0;2;0;795;837;3877;0.9394808;1.663595;1.784429;0.9398162;1.694162;1.239738;0.9400889;1.719012;0.7608432;0.9425302;1.756263;0.02799341;0.683053;1.750892;-0.2997115;0.3458619;1.827934;-0.1565132;0.1014434;0.9408094;-0.04881596;0;0;0;1.20239;1.718537;-0.2996291;1.494205;1.756395;-0.1563294;1.802136;0.8948013;0.145514;1.83085;-0.04431641;0.2680755;0.6276136;1.656824;1.829431;0.7343493;0.7624604;2.982505;0.916711;0.6126262;4.307881;0.6276136;1.656824;1.829431;0.7343493;0.7624604;2.982505;0.916711;0.6126262;4.307881
652784.7397;NotLabelled;NONE;16384;0.6897507;-0.6985431;0.1897507;-0.0166205;1;-2;-1;-1243;3887;162;65536;0.6952909;-0.7151403;0.01246537;-0.07063711;0;0;1;502;4083;61;8192;0.501385;-0.627482;-0.5429363;-0.2451524;2;1;0;1828;3639;299;32768;0.567867;-0.6527044;-0.3767313;-0.3310249;0;2;0;-523;4053;328;256;-0.1260388;-0.02770083;-0.9911702;-0.03047091;3;1;1;263;250;3995;128;0.1551246;-0.02770083;0.9752463;0.1551246;-2;2;-1;23;1347;-4008;4;0.2894737;-0.7271258;0.602493;0.1565097;0;2;0;-3295;2458;-436;16;0.04432133;-0.9786689;-0.1897507;-0.06509695;-1;1;0;-1487;466;3788;2;0.166205;-0.634349;-0.6876491;-0.3116343;0;3;0;3259;2666;-3;8;0.1094183;-0.9888363;0.101108;-0.002770083;0;1;0;767;859;3907;0.9408685;1.661035;1.78585;0.9412038;1.691603;1.241161;0.9414764;1.716452;0.7622652;0.9439343;1.755652;0.02951726;0.6844555;1.751262;-0.2982008;0.3472965;1.828064;-0.1547981;0.1031948;0.9405981;-0.04921408;0;0;0;1.203779;1.718691;-0.2982042;1.495609;1.756044;-0.1548043;1.804438;0.8934864;0.1433458;1.833504;-0.04563153;0.2658242;0.6290014;1.654264;1.830853;0.7390527;0.7599005;2.983615;0.9254314;0.6098553;4.308408;0.6290014;1.654264;1.830853;0.7390527;0.7599005;2.983615;0.9254314;0.6098553;4.308408
652805.922;NotLabelled;NONE;16384;0.6897507;-0.6985431;0.1897507;-0.0166205;0;-2;0;-1087;3929;162;65536;0.6952909;-0.7151148;0.01385042;-0.07063711;0;-2;1;508;4045;131;8192;0.5;-0.6280442;-0.5429363;-0.2465374;3;4;0;1750;3705;361;32768;0.567867;-0.6511979;-0.3781163;-0.33241;0;3;1;-463;4077;216;256;-0.1260388;-0.02770083;-0.9911702;-0.03047091;1;0;0;253;272;3951;128;0.1551246;-0.02770083;0.9752463;0.1551246;-1;0;-1;-37;1347;-3884;4;0.2894737;-0.7282712;0.601108;0.1565097;0;2;-1;-3277;2488;-460;16;0.04293629;-0.978461;-0.1911357;-0.06509695;-1;4;0;-1549;446;3822;2;0.166205;-0.634349;-0.6876491;-0.3116343;-1;1;1;3223;2594;45;8;0.1094183;-0.9889769;0.09972299;-0.002770083;0;3;0;779;813;3989;0.9412618;1.657624;1.781971;0.941614;1.689705;1.237368;0.9419015;1.715884;0.758544;0.9443601;1.755085;0.02579612;0.6848814;1.750693;-0.3019226;0.3477223;1.827496;-0.1585201;0.103195;0.9405982;-0.04921331;0;0;0;1.204205;1.718122;-0.3019258;1.496036;1.755476;-0.1585251;1.804906;0.8929186;0.1395811;1.833024;-0.04578841;0.2653852;0.6293932;1.650728;1.826945;0.742639;0.7588413;2.981316;0.9290161;0.6087966;4.306108;0.6293932;1.650728;1.826945;0.742639;0.7588413;2.981316;0.9290161;0.6087966;4.306108
652825.8648;NotLabelled;NONE;16384;0.6897507;-0.6985431;0.1897507;-0.0166205;0;0;-1;-1201;3955;228;65536;0.6952909;-0.7151148;0.01385042;-0.07063711;-1;1;0;472;4083;63;8192;0.5;-0.6268442;-0.5443213;-0.2465374;2;4;0;1722;3677;489;32768;0.567867;-0.6511979;-0.3781163;-0.33241;0;2;0;-395;4031;184;256;-0.1260388;-0.02770083;-0.9911267;-0.03185596;1;0;1;267;236;3961;128;0.1551246;-0.02908587;0.975206;0.1551246;-1;2;-1;29;1277;-3836;4;0.2894737;-0.7285674;0.601108;0.1551246;0;2;-1;-3291;2492;-508;16;0.04293629;-0.978461;-0.1911357;-0.06509695;0;3;1;-1535;452;3828;2;0.1648199;-0.634349;-0.6879824;-0.3116343;-1;3;1;3281;2574;81;8;0.1094183;-0.9889721;0.09972299;-0.004155125;1;3;0;823;827;3973;0.9430414;1.657405;1.781554;0.9433935;1.689486;1.236951;0.943681;1.715666;0.7581263;0.9461396;1.754866;0.02537841;0.6866609;1.750474;-0.3023403;0.3495019;1.827277;-0.1589378;0.1049589;0.9403794;-0.04966649;0;0;0;1.205984;1.717903;-0.3023435;1.497815;1.755257;-0.1589428;1.803688;0.8923936;0.1413611;1.832076;-0.04655313;0.2652975;0.6311728;1.65051;1.826527;0.7460632;0.7582862;2.980475;0.9320261;0.6116722;4.305711;0.6311728;1.65051;1.826527;0.7460632;0.7582862;2.980475;0.9320261;0.6116722;4.305711
652846.9893;NotLabelled;NONE;16384;0.6897507;-0.6985431;0.1897507;-0.0166205;0;-1;0;-1135;3897;72;65536;0.6952909;-0.7151148;0.01385042;-0.07063711;0;0;1;442;4147;173;8192;0.5;-0.6262977;-0.5443213;-0.2479224;0;2;0;1710;3669;425;32768;0.567867;-0.6511979;-0.3781163;-0.33241;0;0;0;-397;4059;256;256;-0.1260388;-0.02770083;-0.9911267;-0.03185596;2;0;1;259;176;3987;128;0.1551246;-0.02908587;0.975206;0.1551246;-2;3;-1;55;1299;-3910;4;0.2894737;-0.7285674;0.601108;0.1551246;0;3;-1;-3287;2530;-478;16;0.04293629;-0.9781895;-0.1925208;-0.06509695;0;1;0;-1531;508;3756;2;0.1648199;-0.632964;-0.6898814;-0.3102493;0;3;2;3201;2616;99;8;0.1094183;-0.9889721;0.09972299;-0.004155125;1;3;0;771;821;3891;0.9428504;1.654223;1.781343;0.9432051;1.686546;1.236754;0.9434948;1.712939;0.7579418;0.9460937;1.754152;0.02530485;0.6866702;1.750752;-0.3024687;0.349513;1.827277;-0.158914;0.1049633;0.9403794;-0.04965764;0;0;0;1.205983;1.718;-0.3024723;1.497801;1.754858;-0.1589195;1.805494;0.8924823;0.1409246;1.833871;-0.04646468;0.2648636;0.6309816;1.647307;1.826312;0.7433593;0.7572694;2.982194;0.9292101;0.6106555;4.307445;0.6309816;1.647307;1.826312;0.7433593;0.7572694;2.982194;0.9292101;0.6106555;4.307445
652867.8104;NotLabelled;NONE;16384;0.6897507;-0.6985431;0.1897507;-0.0166205;1;0;0;-1091;3911;56;65536;0.6952909;-0.7151148;0.01385042;-0.07063711;0;0;1;440;4073;141;8192;0.5;-0.6262977;-0.5443213;-0.2479224;0;0;0;1684;3653;487;32768;0.567867;-0.6511979;-0.3781163;-0.33241;0;0;0;-473;4063;252;256;-0.1260388;-0.02770083;-0.9911267;-0.03185596;3;0;0;251;236;3983;128;0.1551246;-0.02908587;0.9749846;0.1565097;-2;1;0;61;1309;-4016;4;0.2894737;-0.7285674;0.601108;0.1551246;0;3;-1;-3231;2470;-482;16;0.04293629;-0.9781895;-0.1925208;-0.06509695;0;1;0;-1577;416;3702;2;0.1648199;-0.632964;-0.6898814;-0.3102493;0;4;1;3079;2636;23;8;0.1108033;-0.9889565;0.09833795;-0.004155125;1;4;0;823;833;3879;0.942853;1.654223;1.781349;0.9432077;1.686547;1.23676;0.9434974;1.71294;0.7579474;0.9460962;1.754152;0.02531046;0.6866729;1.750752;-0.3024632;0.3495156;1.827277;-0.1589084;0.1049634;0.9403796;-0.04965768;0;0;0;1.205985;1.718001;-0.3024666;1.497804;1.754859;-0.1589138;1.803788;0.8915541;0.140005;1.832165;-0.04739285;0.2639443;0.6309842;1.647308;1.826318;0.7433619;0.7572696;2.982199;0.9294139;0.6104443;4.307399;0.6309842;1.647308;1.826318;0.7433619;0.7572696;2.982199;0.9294139;0.6104443;4.307399
652888.7322;NotLabelled;NONE;16384;0.6897507;-0.6985747;0.1897507;-0.01523546;1;0;0;-1283;3963;112;65536;0.6952909;-0.7151148;0.01385042;-0.07063711;0;0;0;498;4155;109;8192;0.5;-0.6262977;-0.5443213;-0.2479224;0;0;0;1724;3697;427;32768;0.567867;-0.6511979;-0.3781163;-0.33241;0;0;0;-389;4149;274;256;-0.1260388;-0.02770083;-0.9910812;-0.033241;1;0;0;203;196;4079;128;0.1551246;-0.03047091;0.9749423;0.1565097;-2;4;0;89;1301;-3980;4;0.2894737;-0.7285674;0.601108;0.1551246;1;4;-1;-3241;2466;-456;16;0.04293629;-0.9781895;-0.1925208;-0.06509695;0;3;1;-1555;480;3700;2;0.1648199;-0.6315789;-0.6911497;-0.3102493;-1;4;0;3111;2598;21;8;0.1108033;-0.9890933;0.09695291;-0.004155125;0;3;0;777;835;3865;0.9428065;1.651388;1.781148;0.9431777;1.68522;1.236651;0.9434817;1.712939;0.7579131;0.9460811;1.754152;0.02527612;0.6866575;1.750752;-0.3024981;0.3495004;1.827277;-0.1589431;0.1049635;0.9403795;-0.04965741;0;0;0;1.20597;1.718;-0.3025011;1.497788;1.754858;-0.1589479;1.803816;0.8915538;0.1399276;1.832194;-0.04739392;0.2638664;0.6309363;1.644348;1.826088;0.7433134;0.7543095;2.98197;0.9293651;0.6074842;4.30717;0.6309363;1.644348;1.826088;0.7433134;0.7543095;2.98197;0.9293651;0.6074842;4.30717
652909.7348;NotLabelled;NONE;16384;0.6897507;-0.6985431;0.1897507;-0.0166205;0;-1;-1;-1255;3865;92;65536;0.6952909;-0.7151148;0.01385042;-0.07063711;0;0;0;474;4079;157;8192;0.5;-0.6262977;-0.5443213;-0.2479224;1;0;-1;1778;3605;355;32768;0.567867;-0.6511979;-0.3781163;-0.33241;0;0;0;-497;4027;256;256;-0.1260388;-0.02770083;-0.9910812;-0.033241;2;0;0;257;224;4071;128;0.1565097;-0.03047091;0.974721;0.1565097;-1;2;0;123;1335;-4030;4;0.2894737;-0.729708;0.599723;0.1551246;0;2;0;-3169;2486;-516;16;0.04293629;-0.9779158;-0.1939058;-0.06509695;-1;1;0;-1549;460;3672;2;0.1648199;-0.6315789;-0.6911497;-0.3102493;0;2;1;3053;2566;43;8;0.1108033;-0.9890864;0.09695291;-0.005540166;0;0;1;743;859;3875;0.9408675;1.648684;1.780987;0.9412414;1.682759;1.236505;0.941548;1.710692;0.75778;0.9443061;1.753917;0.02525944;0.6849465;1.751509;-0.3025735;0.3477874;1.827756;-0.158875;0.1049688;0.9403796;-0.04964621;0;0;0;1.204247;1.718577;-0.3025647;1.49605;1.754939;-0.1588532;1.801971;0.8917673;0.1405166;1.830335;-0.04717934;0.2644587;0.6289971;1.641623;1.825923;0.7412485;0.7515855;2.981816;0.9271559;0.6047597;4.307036;0.6289971;1.641623;1.825923;0.7412485;0.7515855;2.981816;0.9271559;0.6047597;4.307036
652930.8641;NotLabelled;NONE;16384;0.6897507;-0.6985431;0.1897507;-0.0166205;0;0;0;-1279;3933;170;65536;0.6952909;-0.7151148;0.01385042;-0.07063711;0;0;0;540;4095;55;8192;0.5;-0.6262977;-0.5443213;-0.2479224;0;0;0;1920;3723;443;32768;0.567867;-0.6511979;-0.3781163;-0.33241;0;0;0;-531;4119;274;256;-0.1260388;-0.02770083;-0.9910812;-0.033241;0;0;0;287;250;4071;128;0.1565097;-0.03047091;0.974721;0.1565097;-1;0;0;111;1329;-4000;4;0.2894737;-0.729708;0.599723;0.1551246;0;3;0;-3275;2514;-436;16;0.04293629;-0.9779158;-0.1939058;-0.06509695;-1;1;0;-1511;516;3724;2;0.1648199;-0.6315789;-0.6911497;-0.3102493;0;1;0;3099;2522;107;8;0.1108033;-0.9890864;0.09695291;-0.005540166;0;1;0;779;817;3859;0.9426308;1.648191;1.780969;0.9430049;1.682274;1.236487;0.9433116;1.710214;0.7577627;0.9460527;1.753439;0.02524239;0.6866853;1.75103;-0.3025849;0.3495296;1.827278;-0.1588788;0.1049678;0.9403801;-0.04964908;0;0;0;1.205986;1.718098;-0.3025877;1.497792;1.754461;-0.1588835;1.803752;0.8911557;0.1400625;1.832119;-0.04779184;0.2640035;0.6307604;1.64113;1.825905;0.7446769;0.7507544;2.981375;0.9308165;0.603718;4.30654;0.6307604;1.64113;1.825905;0.7446769;0.7507544;2.981375;0.9308165;0.603718;4.30654
652951.7345;NotLabelled;NONE;16384;0.6897507;-0.6981654;0.1911357;-0.0166205;0;-3;0;-1165;3971;80;65536;0.6952909;-0.7151148;0.01385042;-0.07063711;0;-1;0;472;4119;141;8192;0.5;-0.6262977;-0.5443213;-0.2479224;0;0;0;1698;3715;411;32768;0.567867;-0.6511979;-0.3781163;-0.33241;0;0;0;-387;4051;240;256;-0.1260388;-0.02770083;-0.9910812;-0.033241;0;0;0;257;198;4075;128;0.1551246;-0.03047091;0.9749423;0.1565097;-1;1;0;87;1303;-3930;4;0.2894737;-0.729708;0.599723;0.1551246;0;1;0;-3359;2512;-442;16;0.04293629;-0.9778227;-0.1939058;-0.06648199;-1;2;0;-1559;460;3764;2;0.1648199;-0.6315789;-0.6911497;-0.3102493;0;0;0;3105;2604;71;8;0.1108033;-0.9892213;0.09556787;-0.005540166;0;1;0;783;833;3899;0.9426308;1.648191;1.780969;0.9430049;1.682274;1.236487;0.9433116;1.710214;0.7577627;0.9460527;1.753439;0.02524239;0.6866853;1.75103;-0.3025849;0.3495296;1.827278;-0.1588788;0.1049678;0.9403801;-0.04964908;0;0;0;1.205986;1.718098;-0.3025877;1.497792;1.754461;-0.1588835;1.803752;0.8911557;0.1400625;1.832119;-0.04779184;0.2640035;0.6307604;1.64113;1.825905;0.7446769;0.7507544;2.981375;0.9308165;0.603718;4.30654;0.6307604;1.64113;1.825905;0.7446769;0.7507544;2.981375;0.9308165;0.603718;4.30654
652972.3075;NotLabelled;NONE;16384;0.6897507;-0.698197;0.1911357;-0.01523546;0;-1;1;-1043;3901;62;65536;0.6952909;-0.7151148;0.01385042;-0.07063711;0;0;2;496;4093;103;8192;0.5;-0.6262977;-0.5443213;-0.2479224;1;0;0;1628;3673;363;32768;0.567867;-0.6511979;-0.3781163;-0.33241;0;0;0;-427;4103;168;256;-0.1260388;-0.02770083;-0.9910812;-0.033241;2;0;0;285;274;4019;128;0.1551246;-0.03047091;0.974719;0.1578947;-2;-2;0;25;1359;-3898;4;0.2894737;-0.7311366;0.5983379;0.1537396;0;0;0;-3289;2512;-478;16;0.04155125;-0.9778825;-0.1939058;-0.06648199;-1;2;0;-1513;422;3810;2;0.1648199;-0.6315789;-0.6911497;-0.3102493;0;1;0;3199;2662;89;8;0.1108033;-0.9892213;0.09556787;-0.005540166;0;0;0;795;831;3951;0.9443324;1.647681;1.780534;0.9447064;1.681756;1.236052;0.945013;1.709689;0.7573271;0.9477546;1.752915;0.02480632;0.6883875;1.750506;-0.3030205;0.3512318;1.826753;-0.1593146;0.1049678;0.9403801;-0.04964878;0;0;0;1.207688;1.717574;-0.3030232;1.499494;1.753936;-0.1593192;1.805453;0.890631;0.1396264;1.83382;-0.04831564;0.2635677;0.6324619;1.64062;1.82547;0.7463777;0.7502446;2.980941;0.9288784;0.6024957;4.306531;0.6324619;1.64062;1.82547;0.7463777;0.7502446;2.980941;0.9288784;0.6024957;4.306531
652992.9655;NotLabelled;NONE;16384;0.6897507;-0.698197;0.1911357;-0.01523546;0;0;1;-1113;3899;254;65536;0.6952909;-0.7150866;0.01523546;-0.07063711;0;0;1;506;4041;77;8192;0.5;-0.6274987;-0.5429363;-0.2479224;0;0;0;1782;3681;421;32768;0.567867;-0.6511979;-0.3781163;-0.33241;0;0;0;-507;4085;284;256;-0.1260388;-0.02770083;-0.9910338;-0.03462604;2;0;0;291;322;4027;128;0.1551246;-0.03047091;0.974719;0.1578947;-3;0;0;15;1365;-3928;4;0.2880886;-0.7316836;0.5983379;0.1537396;0;0;-1;-3247;2528;-548;16;0.04155125;-0.9776068;-0.1952908;-0.06648199;0;0;0;-1581;454;3744;2;0.1634349;-0.6301939;-0.692741;-0.3102493;0;2;1;3119;2630;141;8;0.1108033;-0.9892213;0.09556787;-0.005540166;0;0;0;743;851;3961;0.9425297;1.645377;1.780689;0.9429201;1.68096;1.236303;0.9432411;1.710219;0.7576574;0.9459826;1.753444;0.02513665;0.6866154;1.751035;-0.3026906;0.3494596;1.827283;-0.1589844;0.1049676;0.9403791;-0.04964872;0;0;0;1.205916;1.718103;-0.3026933;1.497723;1.754465;-0.1589889;1.803725;0.8911607;0.1399124;1.832092;-0.04778707;0.2638537;0.6306579;1.638192;1.825595;0.7437792;0.7496603;2.982563;0.9256479;0.6055515;4.308641;0.6306579;1.638192;1.825595;0.7437792;0.7496603;2.982563;0.9256479;0.6055515;4.308641
653013.7222;NotLabelled;NONE;16384;0.6897507;-0.698197;0.1911357;-0.01523546;-1;-2;0;-1259;3935;244;65536;0.6952909;-0.7150866;0.01523546;-0.07063711;-1;0;1;538;4061;43;8192;0.5;-0.6262977;-0.5443213;-0.2479224;0;2;0;1688;3699;407;32768;0.567867;-0.6511979;-0.3781163;-0.33241;0;0;0;-529;4073;240;256;-0.1260388;-0.02770083;-0.9910338;-0.03462604;2;0;0;251;280;3951;128;0.1551246;-0.03047091;0.9744936;0.1592798;-1;0;0;107;1367;-3968;4;0.2880886;-0.7316836;0.5983379;0.1537396;0;-1;-1;-3255;2502;-470;16;0.04155125;-0.9776068;-0.1952908;-0.06648199;0;0;0;-1615;470;3712;2;0.1634349;-0.6301939;-0.692741;-0.3102493;0;0;1;3095;2600;27;8;0.1108033;-0.9892213;0.09556787;-0.005540166;0;1;0;771;863;3879;0.9441314;1.64243;1.780101;0.9445219;1.678013;1.235716;0.9448429;1.707272;0.7570697;0.9477277;1.752509;0.02467123;0.688417;1.751091;-0.3032068;0.3512625;1.827061;-0.1593503;0.1067358;0.9401572;-0.05009227;0;0;0;1.207706;1.717979;-0.3032098;1.4995;1.753845;-0.159355;1.803566;0.8900552;0.1401221;1.831921;-0.04889202;0.2640655;0.6322596;1.635245;1.825008;0.7484504;0.7492156;2.983589;0.9304028;0.6048894;4.309632;0.6322596;1.635245;1.825008;0.7484504;0.7492156;2.983589;0.9304028;0.6048894;4.309632
653033.7233;NotLabelled;NONE;16384;0.6897507;-0.698197;0.1911357;-0.01523546;1;0;0;-1225;3865;-42;65536;0.6952909;-0.7150866;0.01523546;-0.07063711;0;0;0;518;4047;175;8192;0.5;-0.6262977;-0.5443213;-0.2479224;0;0;0;1714;3651;401;32768;0.567867;-0.6511979;-0.3781163;-0.33241;0;0;0;-467;4089;294;256;-0.1260388;-0.02770083;-0.9910338;-0.03462604;2;0;0;207;294;3947;128;0.1551246;-0.03047091;0.9744936;0.1592798;-1;-2;0;121;1401;-3892;4;0.2880886;-0.7305487;0.599723;0.1537396;0;0;0;-3221;2534;-468;16;0.04155125;-0.9776068;-0.1952908;-0.06648199;0;-1;0;-1595;520;3728;2;0.1634349;-0.6301939;-0.692741;-0.3102493;1;0;1;3071;2604;35;8;0.1108033;-0.9892213;0.09556787;-0.005540166;0;0;0;759;823;3875;0.9440746;1.639594;1.77986;0.9444816;1.676686;1.235576;0.9448173;1.707272;0.7570125;0.9477021;1.752509;0.02461413;0.6883912;1.751091;-0.3032637;0.3512369;1.827061;-0.1594073;0.1067356;0.9401572;-0.0500925;0;0;0;1.207681;1.717979;-0.3032667;1.499474;1.753845;-0.1594121;1.805452;0.8905399;0.1395153;1.833808;-0.04840708;0.2634591;0.6322014;1.632285;1.824737;0.7483922;0.7462559;2.983319;0.9303445;0.6019299;4.309361;0.6322014;1.632285;1.824737;0.7483922;0.7462559;2.983319;0.9303445;0.6019299;4.309361
653075.9004;NotLabelled;NONE;16384;0.6897507;-0.698197;0.1911357;-0.01523546;1;0;0;-1235;3927;60;65536;0.6952909;-0.7150866;0.01523546;-0.07063711;1;-2;0;528;4087;129;8192;0.5;-0.6262977;-0.5443213;-0.2479224;1;0;0;1748;3659;301;32768;0.567867;-0.6503917;-0.3795014;-0.33241;0;0;0;-475;4107;310;256;-0.1260388;-0.02770083;-0.9909844;-0.03601108;2;0;0;283;326;4025;128;0.1551246;-0.03047091;0.9744936;0.1592798;-1;-2;0;105;1349;-3986;4;0.2880886;-0.7305487;0.599723;0.1537396;0;0;0;-3305;2474;-482;16;0.04155125;-0.9776068;-0.1952908;-0.06648199;-1;-1;0;-1523;450;3754;2;0.1634349;-0.6301939;-0.692741;-0.3102493;0;-1;0;3161;2656;81;8;0.1108033;-0.9892213;0.09556787;-0.005540166;0;-1;0;773;925;3845;0.9440905;1.639595;1.779896;0.9444975;1.676687;1.235612;0.9448332;1.707273;0.7570485;0.947718;1.75251;0.02465016;0.6884072;1.751092;-0.3032276;0.3512528;1.827061;-0.1593713;0.1067357;0.9401572;-0.05009229;0;0;0;1.207697;1.71798;-0.3032307;1.49949;1.753846;-0.1593762;1.805424;0.8905401;0.139596;1.83378;-0.04840672;0.2635398;0.6322174;1.632286;1.824773;0.7467827;0.7465901;2.983771;0.9287354;0.6022639;4.309814;0.6322174;1.632286;1.824773;0.7467827;0.7465901;2.983771;0.9287354;0.6022639;4.309814
653097.7269;NotLabelled;NONE;16384;0.6897507;-0.698197;0.1911357;-0.01523546;0;-2;0;-1179;3925;244;65536;0.6952909;-0.7150866;0.01523546;-0.07063711;0;0;0;496;4097;103;8192;0.5;-0.6257476;-0.5443213;-0.2493075;1;1;0;1802;3705;417;32768;0.567867;-0.6503917;-0.3795014;-0.33241;0;2;0;-431;4043;192;256;-0.1274238;-0.02770083;-0.9908073;-0.03601108;2;0;0;267;316;4017;128;0.1551246;-0.03047091;0.9742662;0.1606648;-1;1;0;-21;1409;-3892;4;0.2880886;-0.7305487;0.599723;0.1537396;0;-2;-1;-3291;2500;-422;16;0.04155125;-0.9779757;-0.1939058;-0.06509695;0;-2;0;-1513;376;3764;2;0.1620499;-0.6301939;-0.6930663;-0.3102493;0;0;1;3147;2566;53;8;0.1094183;-0.9893754;0.09556787;-0.005540166;0;0;0;755;905;3917;0.9439012;1.63687;1.779698;0.9443083;1.673962;1.235413;0.944644;1.704547;0.7568499;0.9476733;1.751796;0.02457908;0.6884199;1.75137;-0.303347;0.3512664;1.827061;-0.1593411;0.1067398;0.9401572;-0.05008285;0;0;0;1.207698;1.718078;-0.3033501;1.499478;1.753447;-0.1593461;1.805386;0.8901415;0.1396524;1.835667;-0.04881048;0.2631024;0.632028;1.629561;1.824575;0.7464931;0.743865;2.983583;0.9283309;0.599539;4.309641;0.632028;1.629561;1.824575;0.7464931;0.743865;2.983583;0.9283309;0.599539;4.309641
653118.7223;NotLabelled;NONE;16384;0.6897507;-0.698197;0.1911357;-0.01523546;0;0;0;-1143;3931;228;65536;0.6952909;-0.7150866;0.01523546;-0.07063711;-1;1;0;548;4081;101;8192;0.5;-0.6257476;-0.5443213;-0.2493075;0;1;0;1734;3675;469;32768;0.567867;-0.6503917;-0.3795014;-0.33241;0;-1;0;-393;4061;228;256;-0.1274238;-0.02770083;-0.990756;-0.03739612;3;0;0;249;318;3973;128;0.1551246;-0.03047091;0.9742662;0.1606648;-2;-2;0;109;1379;-3892;4;0.2880886;-0.7305487;0.599723;0.1537396;0;0;-1;-3189;2524;-544;16;0.04155125;-0.9779757;-0.1939058;-0.06509695;0;-2;0;-1521;442;3780;2;0.1620499;-0.6315789;-0.6918043;-0.3102493;0;0;0;3097;2576;73;8;0.1094183;-0.9893754;0.09556787;-0.005540166;0;0;0;733;843;3903;0.9434021;1.634063;1.778496;0.9438255;1.672663;1.234316;0.9441757;1.704576;0.7558399;0.947205;1.751759;0.02356488;0.6879497;1.751326;-0.3043591;0.3508039;1.82706;-0.1603585;0.1065998;0.9401565;-0.05038132;0;0;0;1.207224;1.717987;-0.3043623;1.499009;1.753343;-0.1603635;1.804094;0.8891127;0.1367975;1.83472;-0.04983902;0.2601628;0.6315277;1.626629;1.823343;0.7492324;0.7409334;2.982027;0.9382164;0.5975373;4.307187;0.6315277;1.626629;1.823343;0.7492324;0.7409334;2.982027;0.9382164;0.5975373;4.307187
653139.7123;NotLabelled;NONE;16384;0.6897507;-0.698197;0.1911357;-0.01523546;0;0;0;-1157;3835;22;65536;0.6952909;-0.7150866;0.01523546;-0.07063711;0;0;0;434;4121;219;8192;0.5;-0.6257476;-0.5443213;-0.2493075;0;0;0;1780;3643;391;32768;0.567867;-0.6503917;-0.3795014;-0.33241;0;0;0;-499;4077;260;256;-0.1274238;-0.02770083;-0.990756;-0.03739612;3;0;0;241;334;3957;128;0.1551246;-0.03047091;0.9742662;0.1606648;-3;-4;0;119;1351;-3948;4;0.2880886;-0.7305487;0.599723;0.1537396;0;-1;0;-3283;2496;-432;16;0.04155125;-0.9782493;-0.1925208;-0.06509695;0;-1;0;-1469;488;3708;2;0.1620499;-0.6315789;-0.6918043;-0.3102493;1;-3;1;3103;2618;-43;8;0.1094183;-0.9893822;0.09556787;-0.004155125;0;-1;0;803;895;3897;0.9432267;1.631338;1.778327;0.9436501;1.669938;1.234148;0.9440001;1.70185;0.7556711;0.9471757;1.751045;0.02352905;0.6879783;1.751604;-0.3044407;0.3508336;1.827061;-0.1602918;0.1066039;0.9401574;-0.05037186;0;0;0;1.207241;1.718083;-0.3044439;1.499013;1.75294;-0.1602972;1.804029;0.8887098;0.1369354;1.834643;-0.05024159;0.2603034;0.6313522;1.623905;1.823175;0.7489566;0.7382085;2.981868;0.9378256;0.5948122;4.307045;0.6313522;1.623905;1.823175;0.7489566;0.7382085;2.981868;0.9378256;0.5948122;4.307045
653179.7306;NotLabelled;NONE;16384;0.6897507;-0.698197;0.1911357;-0.01523546;0;-2;0;-1189;3981;176;65536;0.6952909;-0.7151912;0.0166205;-0.06925207;0;-1;0;536;4077;91;8192;0.5;-0.6257476;-0.5443213;-0.2493075;0;0;0;1788;3637;355;32768;0.567867;-0.6503917;-0.3795014;-0.33241;0;2;0;-451;4101;254;256;-0.1274238;-0.02770083;-0.9907027;-0.03878116;1;0;0;207;252;4025;128;0.1551246;-0.03047091;0.9740368;0.1620499;-2;-2;0;37;1381;-4020;4;0.2880886;-0.7294095;0.601108;0.1537396;0;-2;0;-3325;2476;-464;16;0.04155125;-0.9782493;-0.1925208;-0.06509695;0;-1;0;-1561;462;3780;2;0.1620499;-0.6315789;-0.6918043;-0.3102493;0;-3;1;3145;2610;39;8;0.1094183;-0.9892474;0.09695291;-0.004155125;0;-2;0;807;829;3923;0.9432267;1.631338;1.778327;0.9436501;1.669938;1.234148;0.9440001;1.70185;0.7556711;0.9471757;1.751045;0.02352905;0.6879783;1.751604;-0.3044407;0.3508336;1.827061;-0.1602918;0.1066039;0.9401574;-0.05037186;0;0;0;1.207241;1.718083;-0.3044439;1.499013;1.75294;-0.1602972;1.804029;0.8887098;0.1369354;1.834643;-0.05024159;0.2603034;0.6313522;1.623905;1.823175;0.7489566;0.7382085;2.981868;0.937629;0.5950241;4.307096;0.6313522;1.623905;1.823175;0.7489566;0.7382085;2.981868;0.937629;0.5950241;4.307096
653199.7359;NotLabelled;NONE;16384;0.6897507;-0.698197;0.1911357;-0.01523546;0;-4;0;-1179;3923;226;65536;0.6952909;-0.7151912;0.0166205;-0.06925207;0;-1;0;486;4079;149;8192;0.5;-0.6257476;-0.5443213;-0.2493075;0;2;0;1850;3649;395;32768;0.567867;-0.6503917;-0.3795014;-0.33241;0;1;0;-407;4111;296;256;-0.1274238;-0.02770083;-0.9907027;-0.03878116;2;0;-1;239;236;3959;128;0.1551246;-0.02908587;0.9740791;0.1620499;-1;-2;0;103;1373;-3904;4;0.2880886;-0.7294095;0.601108;0.1537396;0;-3;0;-3261;2482;-466;16;0.04155125;-0.9782493;-0.1925208;-0.06509695;0;-1;0;-1553;442;3810;2;0.1620499;-0.6315789;-0.6924239;-0.3088643;0;-1;2;3243;2568;11;8;0.1094183;-0.9892474;0.09695291;-0.004155125;0;-2;0;767;883;3925;0.9428562;1.625774;1.777534;0.9432963;1.665883;1.233463;0.9436609;1.699121;0.7550772;0.9469844;1.750327;0.02307367;0.6878458;1.751879;-0.3049394;0.3507019;1.827057;-0.1606434;0.1064791;0.9401532;-0.05070817;0;0;0;1.207097;1.718175;-0.3049426;1.498855;1.752534;-0.1606487;1.803889;0.8883039;0.1365654;1.834493;-0.05064809;0.2599353;0.6309804;1.618216;1.822351;0.7468566;0.7328576;2.981476;0.9354125;0.5896732;4.306721;0.6309804;1.618216;1.822351;0.7468566;0.7328576;2.981476;0.9354125;0.5896732;4.306721
653220.0067;NotLabelled;NONE;16384;0.6897507;-0.698197;0.1911357;-0.01523546;0;0;-1;-1059;3951;134;65536;0.6952909;-0.7151912;0.0166205;-0.06925207;0;0;0;508;4127;87;8192;0.5;-0.6257476;-0.5443213;-0.2493075;1;0;0;1682;3683;357;32768;0.567867;-0.6503917;-0.3795014;-0.33241;0;0;0;-455;4067;288;256;-0.1274238;-0.02770083;-0.9907027;-0.03878116;2;0;-1;283;316;4023;128;0.1551246;-0.02908587;0.9740791;0.1620499;-1;-2;0;39;1329;-3908;4;0.2867036;-0.729955;0.601108;0.1537396;0;-1;0;-3227;2396;-470;16;0.04155125;-0.9782493;-0.1925208;-0.06509695;0;-3;-1;-1513;430;3714;2;0.1620499;-0.632964;-0.691158;-0.3088643;0;-2;1;3155;2636;41;8;0.1094183;-0.9892474;0.09695291;-0.004155125;0;0;0;811;899;3847;0.9428805;1.626231;1.777608;0.9433178;1.666096;1.23352;0.9436802;1.699121;0.7551191;0.9470036;1.750327;0.02311552;0.687865;1.751879;-0.3048973;0.350721;1.827057;-0.1606013;0.1064789;0.9401532;-0.05070861;0;0;0;1.207116;1.718175;-0.3049002;1.498874;1.752534;-0.1606065;1.803857;0.8883036;0.13666;1.834461;-0.05064833;0.2600302;0.6310048;1.618693;1.82243;0.7468809;0.7333342;2.981555;0.9354374;0.59015;4.3068;0.6310048;1.618693;1.82243;0.7468809;0.7333342;2.981555;0.9354374;0.59015;4.3068
653241.7215;NotLabelled;NONE;16384;0.6897507;-0.698197;0.1911357;-0.01523546;0;0;-1;-1123;3941;160;65536;0.6952909;-0.7151912;0.0166205;-0.06925207;0;0;0;480;4097;149;8192;0.4986149;-0.6268519;-0.5443213;-0.2493075;0;1;1;1840;3619;511;32768;0.567867;-0.6503917;-0.3795014;-0.33241;-1;-1;2;-499;4115;244;256;-0.1260388;-0.02770083;-0.9908247;-0.0401662;1;0;0;305;346;4057;128;0.1551246;-0.02908587;0.9738477;0.1634349;-2;0;0;35;1349;-3946;4;0.2867036;-0.7288123;0.602493;0.1537396;0;-3;0;-3229;2440;-522;16;0.04155125;-0.9782493;-0.1925208;-0.06509695;0;-2;-1;-1525;482;3698;2;0.1620499;-0.632964;-0.691158;-0.3088643;0;-2;1;3313;2616;45;8;0.1094183;-0.9892474;0.09695291;-0.004155125;0;-1;0;817;781;3963;0.9428779;1.62623;1.777603;0.9433153;1.666096;1.233514;0.9436777;1.699121;0.7551132;0.947001;1.750326;0.02310961;0.6878624;1.751878;-0.3049031;0.3507185;1.827057;-0.1606072;0.1064791;0.9401526;-0.05070841;0;0;0;1.207114;1.718175;-0.3049061;1.498872;1.752533;-0.1606124;1.803861;0.888303;0.136647;1.834465;-0.05064929;0.260017;0.6310023;1.618693;1.822425;0.7500588;0.7358329;2.983132;0.9386148;0.5926483;4.308376;0.6310023;1.618693;1.822425;0.7500588;0.7358329;2.983132;0.9386148;0.5926483;4.308376
653262.7255;NotLabelled;NONE;16384;0.6897507;-0.698197;0.1911357;-0.01523546;0;-1;0;-1153;3853;142;65536;0.6952909;-0.7151912;0.0166205;-0.06925207;0;0;0;494;4081;85;8192;0.4986149;-0.6256465;-0.5457063;-0.2493075;0;0;3;1874;3683;499;32768;0.567867;-0.6511979;-0.3781163;-0.33241;-1;0;1;-499;4073;234;256;-0.1260388;-0.02770083;-0.9908247;-0.0401662;1;0;0;261;306;4013;128;0.1551246;-0.02908587;0.9738477;0.1634349;-1;-1;0;-35;1379;-3936;4;0.2867036;-0.7288123;0.602493;0.1537396;0;-2;-1;-3227;2468;-426;16;0.04155125;-0.9785208;-0.1911357;-0.06509695;0;0;0;-1481;464;3836;2;0.1606648;-0.632964;-0.6914812;-0.3088643;0;0;2;3227;2520;21;8;0.1094183;-0.9892474;0.09695291;-0.004155125;0;0;0;727;823;3969;0.9430906;1.620648;1.778115;0.9435447;1.662023;1.234139;0.9439217;1.696373;0.7558316;0.9473934;1.749657;0.0239771;0.6883157;1.752204;-0.3040785;0.3511639;1.827057;-0.1596314;0.1066251;0.9401531;-0.05040102;0;0;0;1.207559;1.718372;-0.3040813;1.499299;1.752248;-0.1596367;1.802212;0.8886395;0.1415266;1.832461;-0.050313;0.2649844;0.6312136;1.612986;1.822906;0.7452989;0.7304616;2.984368;0.9300328;0.5872772;4.31015;0.6312136;1.612986;1.822906;0.7452989;0.7304616;2.984368;0.9300328;0.5872772;4.31015
653282.815;NotLabelled;NONE;16384;0.6897507;-0.698197;0.1911357;-0.01523546;0;0;-1;-1173;3903;184;65536;0.6952909;-0.7151912;0.0166205;-0.06925207;0;0;0;488;4087;91;8192;0.4986149;-0.6256465;-0.5457063;-0.2493075;0;1;1;1622;3723;361;32768;0.567867;-0.650489;-0.3781163;-0.333795;-1;0;0;-367;4097;312;256;-0.1260388;-0.02770083;-0.9908247;-0.0401662;1;-1;-1;247;304;3977;128;0.1551246;-0.02770083;0.9738881;0.1634349;-1;-3;0;103;1405;-3908;4;0.2867036;-0.7288123;0.602493;0.1537396;0;-1;-1;-3223;2418;-408;16;0.04155125;-0.9785208;-0.1911357;-0.06509695;0;-1;0;-1437;442;3798;2;0.1606648;-0.632964;-0.6914812;-0.3088643;0;-1;1;3175;2612;31;8;0.1094183;-0.9892474;0.09695291;-0.004155125;0;0;0;821;817;3915;0.943107;1.620648;1.778151;0.9435612;1.662022;1.234175;0.9439382;1.696373;0.7558677;0.9474096;1.749657;0.0240131;0.688332;1.752204;-0.3040418;0.35118;1.827057;-0.1595951;0.1066249;0.940153;-0.05040074;0;0;0;1.207575;1.718371;-0.3040453;1.499315;1.752247;-0.1596006;1.804027;0.8891207;0.1411291;1.832339;-0.04982615;0.2650826;0.63123;1.612985;1.822942;0.7453157;0.7304615;2.984404;0.9298543;0.5874892;4.310236;0.63123;1.612985;1.822942;0.7453157;0.7304615;2.984404;0.9298543;0.5874892;4.310236
653303.7298;NotLabelled;NONE;16384;0.6897507;-0.698197;0.1911357;-0.01523546;-1;0;-1;-1253;3935;250;65536;0.6952909;-0.715324;0.0166205;-0.06786703;0;1;0;452;4113;97;8192;0.4986149;-0.6256465;-0.5457063;-0.2493075;1;0;-1;1602;3783;361;32768;0.567867;-0.650489;-0.3781163;-0.333795;0;2;-1;-463;4109;240;256;-0.1260388;-0.02770083;-0.9908247;-0.0401662;2;0;0;213;316;4031;128;0.1551246;-0.02770083;0.9738881;0.1634349;-2;-1;0;43;1385;-3938;4;0.2867036;-0.7288123;0.602493;0.1537396;0;0;-1;-3233;2426;-404;16;0.04155125;-0.9785208;-0.1911357;-0.06509695;0;-2;0;-1465;466;3720;2;0.1606648;-0.632964;-0.6914812;-0.3088643;0;0;1;3201;2586;17;8;0.1094183;-0.9892474;0.09695291;-0.004155125;0;0;0;831;861;3881;0.9431119;1.621102;1.778183;0.9435633;1.662235;1.234189;0.9439379;1.696373;0.7558666;0.9474094;1.749656;0.02401221;0.688332;1.752204;-0.3040427;0.3511801;1.827056;-0.1595962;0.1066249;0.9401526;-0.0504017;0;0;0;1.207575;1.718371;-0.3040461;1.499315;1.752247;-0.1596016;1.804026;0.8891208;0.1411288;1.830683;-0.05005574;0.2637011;0.6312352;1.61346;1.82298;0.7453209;0.7309363;2.984442;0.9298591;0.5879645;4.310274;0.6312352;1.61346;1.82298;0.7453209;0.7309363;2.984442;0.9298591;0.5879645;4.310274
653324.518;NotLabelled;NONE;16384;0.6897507;-0.698197;0.1911357;-0.01523546;0;-1;0;-1127;3923;-6;65536;0.6952909;-0.715324;0.0166205;-0.06786703;0;0;0;426;4103;231;8192;0.4986149;-0.6268519;-0.5443213;-0.2493075;1;1;-1;1816;3673;421;32768;0.567867;-0.650489;-0.3781163;-0.333795;-1;0;0;-543;4107;272;256;-0.1260388;-0.02770083;-0.9907675;-0.04155125;2;0;0;277;368;4061;128;0.1537396;-0.02770083;0.9738743;0.1648199;-3;0;0;55;1337;-3912;4;0.2867036;-0.7288123;0.602493;0.1537396;0;1;0;-3187;2514;-464;16;0.04155125;-0.9785208;-0.1911357;-0.06509695;0;0;0;-1521;498;3690;2;0.1606648;-0.632964;-0.6914812;-0.3088643;0;0;0;3177;2684;13;8;0.1094183;-0.9892474;0.09695291;-0.004155125;0;0;0;809;837;3895;0.9412209;1.621321;1.778296;0.9416723;1.662454;1.234302;0.9420469;1.696592;0.7559792;0.9455185;1.749875;0.02412468;0.6864409;1.752423;-0.3039303;0.3492891;1.827275;-0.1594837;0.1047339;0.9403715;-0.05028923;0;0;0;1.205684;1.71859;-0.3039336;1.497424;1.752466;-0.1594892;1.802135;0.8893397;0.1412412;1.828792;-0.04983687;0.2638134;0.6293442;1.613679;1.823092;0.7434299;0.7311552;2.984555;0.9279681;0.5881834;4.310387;0.6293442;1.613679;1.823092;0.7434299;0.7311552;2.984555;0.9279681;0.5881834;4.310387
653345.8846;NotLabelled;NONE;16384;0.6897507;-0.698197;0.1911357;-0.01523546;1;-1;1;-1067;3919;2;65536;0.6952909;-0.715324;0.0166205;-0.06786703;1;0;1;450;4079;129;8192;0.4986149;-0.6268519;-0.5443213;-0.2493075;0;-2;1;1652;3741;285;32768;0.567867;-0.650489;-0.3781163;-0.333795;0;-1;0;-417;4073;354;256;-0.1260388;-0.02770083;-0.9907675;-0.04155125;2;-1;-1;273;296;3983;128;0.1537396;-0.02770083;0.9738743;0.1648199;-1;-1;1;103;1359;-3972;4;0.2867036;-0.7288123;0.602493;0.1537396;0;0;0;-3291;2488;-460;16;0.04155125;-0.9785208;-0.1911357;-0.06509695;-1;1;0;-1411;486;3744;2;0.1606648;-0.634349;-0.6902109;-0.3088643;0;-1;1;3225;2616;35;8;0.1080332;-0.9893997;0.09695291;-0.004155125;0;0;0;783;831;3873;0.940977;1.615767;1.777822;0.941445;1.658406;1.233944;0.9418341;1.693869;0.755718;0.9454561;1.749163;0.02401334;0.6864384;1.752703;-0.3040801;0.3492866;1.827274;-0.1594882;0.104738;0.9403712;-0.05027902;0;0;0;1.20567;1.71869;-0.3040834;1.497395;1.752068;-0.159494;1.800283;0.8884586;0.1416959;1.826929;-0.05071771;0.2642705;0.6290989;1.608001;1.822588;0.7430815;0.7254773;2.98406;0.9275023;0.5825049;4.309908;0.6290989;1.608001;1.822588;0.7430815;0.7254773;2.98406;0.9275023;0.5825049;4.309908
653366.8082;NotLabelled;NONE;16384;0.6897507;-0.698197;0.1911357;-0.01523546;1;0;1;-1207;3893;252;65536;0.6952909;-0.7152905;0.01800554;-0.06786703;0;0;1;540;4045;71;8192;0.4986149;-0.6268519;-0.5443213;-0.2493075;1;-1;-1;1736;3701;309;32768;0.567867;-0.650489;-0.3781163;-0.333795;0;1;-2;-485;4075;276;256;-0.1260388;-0.02770083;-0.9907675;-0.04155125;2;0;-1;333;296;4045;128;0.1537396;-0.02770083;0.9738743;0.1648199;-2;-1;0;-51;1341;-3950;4;0.2867036;-0.7288123;0.602493;0.1537396;0;-1;0;-3303;2478;-382;16;0.04155125;-0.9785208;-0.1911357;-0.06509695;-1;1;0;-1445;422;3766;2;0.1606648;-0.634349;-0.6902109;-0.3088643;1;0;1;3173;2632;19;8;0.1080332;-0.9892629;0.09833795;-0.004155125;0;-2;0;737;843;3943;0.9409934;1.615768;1.777859;0.9414614;1.658407;1.233981;0.9418506;1.69387;0.7557549;0.9454725;1.749163;0.02405035;0.6864548;1.752703;-0.3040431;0.349303;1.827275;-0.1594511;0.1047378;0.9403713;-0.05027885;0;0;0;1.205686;1.71869;-0.3040464;1.497411;1.752068;-0.159457;1.800253;0.8884592;0.1417786;1.826899;-0.05071759;0.2643532;0.6291153;1.608001;1.822625;0.7430979;0.7254777;2.984097;0.9275186;0.5825052;4.309945;0.6291153;1.608001;1.822625;0.7430979;0.7254777;2.984097;0.9275186;0.5825052;4.309945
653386.7503;NotLabelled;NONE;16384;0.6897507;-0.6978164;0.1925208;-0.01523546;0;-1;-1;-1129;3863;174;65536;0.6952909;-0.7151912;0.0166205;-0.06925207;0;1;0;476;4057;99;8192;0.4986149;-0.6268519;-0.5443213;-0.2493075;1;3;-1;1790;3703;451;32768;0.567867;-0.650489;-0.3781163;-0.333795;0;0;-1;-505;4051;236;256;-0.1260388;-0.02770083;-0.9907085;-0.04293629;2;0;-1;261;266;4113;128;0.1537396;-0.02770083;0.9736389;0.166205;-2;0;0;-65;1379;-3952;4;0.2853186;-0.7293556;0.602493;0.1537396;0;1;-1;-3211;2476;-486;16;0.04155125;-0.9785208;-0.1911357;-0.06509695;0;2;1;-1493;416;3812;2;0.1606648;-0.634349;-0.6902109;-0.3088643;1;0;2;3139;2644;-25;8;0.1080332;-0.9892629;0.09833795;-0.004155125;0;0;0;723;867;3909;0.9427572;1.615545;1.777407;0.9432251;1.658184;1.233529;0.9436144;1.693647;0.7553029;0.9472363;1.74894;0.02359825;0.6882187;1.752481;-0.3044952;0.3510668;1.827052;-0.1599032;0.1065017;0.9401486;-0.05073096;0;0;0;1.20745;1.718467;-0.3044985;1.499175;1.751845;-0.1599091;1.802016;0.8882365;0.1413264;1.828663;-0.05094028;0.263901;0.6308792;1.607779;1.822173;0.7448618;0.725255;2.983645;0.9292825;0.5822825;4.309493;0.6308792;1.607779;1.822173;0.7448618;0.725255;2.983645;0.9292825;0.5822825;4.309493
653406.876;NotLabelled;NONE;16384;0.6897507;-0.698197;0.1911357;-0.01523546;0;0;1;-1143;3899;6;65536;0.6952909;-0.7151912;0.0166205;-0.06925207;0;0;1;532;4121;153;8192;0.4986149;-0.6268519;-0.5443213;-0.2493075;0;0;0;1806;3611;473;32768;0.567867;-0.650489;-0.3781163;-0.333795;-1;-2;0;-489;4121;292;256;-0.1260388;-0.02770083;-0.9907085;-0.04293629;1;0;0;287;378;3969;128;0.1537396;-0.02770083;0.9736389;0.166205;0;0;0;115;1477;-3878;4;0.2867036;-0.7288123;0.602493;0.1537396;0;2;0;-3217;2454;-408;16;0.04155125;-0.9785208;-0.1911357;-0.06509695;0;1;1;-1373;520;3764;2;0.1592798;-0.634349;-0.6905318;-0.3088643;0;-1;1;3231;2624;41;8;0.1080332;-0.9892629;0.09833795;-0.004155125;0;-2;0;801;831;3863;0.9443419;1.609467;1.776821;0.9448265;1.653615;1.233064;0.9452302;1.690405;0.7549374;0.9490042;1.747709;0.02338833;0.6900473;1.752241;-0.304741;0.3528949;1.826532;-0.1600057;0.1066335;0.9401534;-0.05038191;0;0;0;1.209267;1.718047;-0.3047436;1.500978;1.750927;-0.1600105;1.803838;0.8873181;0.1412054;1.830473;-0.05185843;0.2637826;0.6324624;1.601577;1.821555;0.7495185;0.7215526;2.984618;0.9338206;0.5785804;4.310483;0.6324624;1.601577;1.821555;0.7495185;0.7215526;2.984618;0.9338206;0.5785804;4.310483
653427.8846;NotLabelled;NONE;16384;0.6897507;-0.6982258;0.1911357;-0.01385042;1;-1;1;-1187;3913;148;65536;0.6952909;-0.7151577;0.01800554;-0.06925207;1;-2;0;554;4077;127;8192;0.4986149;-0.6268519;-0.5443213;-0.2493075;0;-2;1;1810;3641;347;32768;0.567867;-0.6511979;-0.3781163;-0.33241;0;-1;0;-489;4065;316;256;-0.1260388;-0.02770083;-0.9907085;-0.04293629;0;0;0;261;406;3951;128;0.1537396;-0.02770083;0.9736389;0.166205;-1;1;0;35;1465;-3862;4;0.2867036;-0.7288123;0.602493;0.1537396;0;1;0;-3269;2502;-432;16;0.04155125;-0.9784277;-0.1911357;-0.06648199;-1;1;1;-1413;454;3730;2;0.1592798;-0.634349;-0.6905318;-0.3088643;0;0;0;3183;2534;41;8;0.1080332;-0.9892678;0.09833795;-0.002770083;0;-3;-1;829;871;3853;0.9426552;1.609992;1.777294;0.9431397;1.65414;1.233536;0.9435436;1.690931;0.7554104;0.9473175;1.748234;0.02386126;0.6883606;1.752766;-0.3042681;0.3512082;1.827057;-0.1595328;0.1066337;0.9401536;-0.0503822;0;0;0;1.20758;1.718573;-0.3042706;1.499291;1.751452;-0.1595377;1.802105;0.8878431;0.1417252;1.828741;-0.05133331;0.264302;0.6307756;1.602102;1.822028;0.7446546;0.7195776;2.983511;0.9289569;0.5766053;4.309376;0.6307756;1.602102;1.822028;0.7446546;0.7195776;2.983511;0.9289569;0.5766053;4.309376
653448.8347;NotLabelled;NONE;16384;0.6897507;-0.6978452;0.1925208;-0.01385042;0;-3;0;-1289;3943;262;65536;0.6952909;-0.7152905;0.01800554;-0.06786703;0;-1;0;544;4033;109;8192;0.4986149;-0.6268519;-0.5443213;-0.2493075;1;-1;0;1788;3683;341;32768;0.567867;-0.6511979;-0.3781163;-0.33241;-1;-1;0;-453;4091;222;256;-0.1260388;-0.02770083;-0.9907085;-0.04293629;1;0;-1;219;292;3999;128;0.1537396;-0.02770083;0.9734014;0.16759;-1;-3;0;1;1389;-4014;4;0.2867036;-0.7288123;0.602493;0.1537396;-1;-2;0;-3315;2554;-404;16;0.0401662;-0.9784855;-0.1911357;-0.06648199;-1;3;1;-1445;472;3778;2;0.1606648;-0.634349;-0.690829;-0.3074792;0;-1;0;3167;2446;43;8;0.1080332;-0.9891291;0.09972299;-0.002770083;0;-3;-1;827;851;3971;0.9426641;1.610294;1.777215;0.9431487;1.654442;1.233458;0.9435526;1.691232;0.7553313;0.9473265;1.748536;0.02378219;0.6883695;1.753068;-0.3043471;0.3512172;1.827359;-0.1596119;0.1083974;0.9399273;-0.05083326;0;0;0;1.207589;1.718874;-0.3043497;1.4993;1.751754;-0.1596167;1.802115;0.888145;0.1416459;1.830405;-0.05080175;0.2656041;0.6307846;1.602404;1.821949;0.7446637;0.7198794;2.983432;0.9253252;0.5762048;4.309722;0.6307846;1.602404;1.821949;0.7446637;0.7198794;2.983432;0.9253252;0.5762048;4.309722
653470.0384;NotLabelled;NONE;16384;0.6897507;-0.6978452;0.1925208;-0.01385042;0;-4;0;-1165;3951;244;65536;0.6952909;-0.7152905;0.01800554;-0.06786703;0;0;0;448;4077;93;8192;0.4986149;-0.6268519;-0.5443213;-0.2493075;0;-1;0;1726;3629;453;32768;0.567867;-0.6520001;-0.3767313;-0.33241;-1;-5;-1;-485;4081;362;256;-0.1260388;-0.02770083;-0.9907085;-0.04293629;0;0;0;295;272;4065;128;0.1537396;-0.02631579;0.9734399;0.16759;0;0;1;-47;1429;-3982;4;0.2867036;-0.7288123;0.602493;0.1537396;-1;0;0;-3307;2530;-378;16;0.0401662;-0.9784855;-0.1911357;-0.06648199;-1;2;0;-1423;426;3802;2;0.1606648;-0.634349;-0.690829;-0.3074792;0;-2;0;3139;2560;61;8;0.1080332;-0.9891291;0.09972299;-0.002770083;-1;0;0;691;841;3957;0.9424305;1.607158;1.776625;0.9429313;1.652816;1.232992;0.9433494;1.690933;0.7549695;0.947123;1.748237;0.02342016;0.6881659;1.752768;-0.3047088;0.3510137;1.827059;-0.1599733;0.106506;0.9401488;-0.0507214;0;0;0;1.207385;1.718575;-0.3047119;1.499096;1.751454;-0.1599787;1.801957;0.8878453;0.1412374;1.830247;-0.05110121;0.2651961;0.6305496;1.599144;1.821328;0.7444289;0.7166197;2.98281;0.924466;0.5765879;4.309575;0.6305496;1.599144;1.821328;0.7444289;0.7166197;2.98281;0.924466;0.5765879;4.309575
653490.7433;NotLabelled;NONE;16384;0.6897507;-0.6978713;0.1925208;-0.01246537;0;-1;0;-1119;3907;60;65536;0.6952909;-0.7152905;0.01800554;-0.06786703;1;-1;0;434;4169;173;8192;0.5;-0.6257476;-0.5443213;-0.2493075;0;-2;0;1710;3663;343;32768;0.567867;-0.6520001;-0.3767313;-0.33241;0;-2;-1;-399;4051;278;256;-0.1260388;-0.02770083;-0.9907085;-0.04293629;-1;0;0;285;388;3955;128;0.1537396;-0.02631579;0.9734399;0.16759;1;0;0;27;1455;-3886;4;0.2867036;-0.7291031;0.602493;0.1523546;-2;0;0;-3185;2518;-392;16;0.0401662;-0.9783905;-0.1911357;-0.06786703;-2;2;2;-1549;442;3822;2;0.1606648;-0.6357341;-0.6895546;-0.3074792;0;-2;0;3137;2570;59;8;0.1080332;-0.9891291;0.09972299;-0.002770083;0;0;0;787;821;3893;0.9424512;1.607608;1.7767;0.9429499;1.653026;1.233047;0.943366;1.690934;0.7550077;0.9471397;1.748237;0.02345836;0.688183;1.752769;-0.304671;0.3510306;1.82706;-0.1599357;0.1065065;0.9401497;-0.0507215;0;0;0;1.207402;1.718575;-0.3046737;1.499113;1.751454;-0.1599406;1.801928;0.8878456;0.141322;1.828285;-0.05109251;0.2657754;0.6305705;1.599613;1.821407;0.7444494;0.7170888;2.98289;0.9244859;0.577057;4.309654;0.6305705;1.599613;1.821407;0.7444494;0.7170888;2.98289;0.9244859;0.577057;4.309654
653510.9003;NotLabelled;NONE;16384;0.6897507;-0.6978713;0.1925208;-0.01246537;2;0;0;-1091;3933;104;65536;0.6952909;-0.7152905;0.01800554;-0.06786703;1;-1;1;482;4083;135;8192;0.5;-0.6269498;-0.5429363;-0.2493075;1;-1;0;1772;3681;351;32768;0.567867;-0.6520001;-0.3767313;-0.33241;0;0;0;-433;4089;280;256;-0.1260388;-0.02770083;-0.9907085;-0.04293629;0;0;0;291;420;4041;128;0.1537396;-0.02631579;0.9734399;0.16759;0;0;0;-7;1395;-3888;4;0.2880886;-0.7285569;0.602493;0.1523546;-2;0;0;-3277;2506;-546;16;0.03878116;-0.9781747;-0.1925208;-0.06786703;-2;2;2;-1527;410;3682;2;0.1606648;-0.6357341;-0.6895546;-0.3074792;-1;0;0;3229;2562;3;8;0.1080332;-0.9891291;0.09972299;-0.002770083;-1;-2;-2;819;825;3969;0.9406985;1.608135;1.777078;0.9411972;1.653553;1.233425;0.9416133;1.691461;0.7553865;0.9453871;1.748764;0.02383703;0.6864302;1.753296;-0.3042923;0.3492778;1.827587;-0.159557;0.1065058;0.9401491;-0.05072098;0;0;0;1.20565;1.719103;-0.304295;1.49736;1.751981;-0.1595618;1.801439;0.8877511;0.1386303;1.827796;-0.0511868;0.2630835;0.6288178;1.60014;1.821786;0.7402682;0.7198136;2.98517;0.9166625;0.5790794;4.31235;0.6288178;1.60014;1.821786;0.7402682;0.7198136;2.98517;0.9166625;0.5790794;4.31235
653531.8517;NotLabelled;NONE;16384;0.6897507;-0.6978713;0.1925208;-0.01246537;1;0;0;-1113;3949;284;65536;0.6966759;-0.7139416;0.01800554;-0.06786703;0;-1;0;598;4039;-15;8192;0.4986149;-0.6280519;-0.5429363;-0.2493075;1;0;1;1860;3627;439;32768;0.567867;-0.6520001;-0.3767313;-0.33241;0;0;0;-503;4095;272;256;-0.1260388;-0.02770083;-0.9907085;-0.04293629;0;0;0;275;320;4009;128;0.1523546;-0.02631579;0.9736576;0.16759;0;-2;0;-45;1361;-3930;4;0.2880886;-0.7285569;0.602493;0.1523546;-2;0;1;-3287;2388;-520;16;0.03878116;-0.9781747;-0.1925208;-0.06786703;-2;2;2;-1519;358;3688;2;0.1606648;-0.6357341;-0.6895546;-0.3074792;-1;0;0;3245;2614;27;8;0.1080332;-0.9891291;0.09972299;-0.002770083;-1;-2;-1;763;845;3921;0.9406985;1.608135;1.777078;0.9411972;1.653553;1.233425;0.9416133;1.691461;0.7553865;0.9453871;1.748764;0.02383703;0.6864302;1.753296;-0.3042923;0.3492778;1.827587;-0.159557;0.1065058;0.9401491;-0.05072098;0;0;0;1.20565;1.719103;-0.304295;1.49736;1.751981;-0.1595618;1.799593;0.887269;0.1391085;1.825951;-0.05166888;0.2635622;0.6288178;1.60014;1.821786;0.7370889;0.717319;2.983579;0.913044;0.580003;4.311176;0.6288178;1.60014;1.821786;0.7370889;0.717319;2.983579;0.913044;0.580003;4.311176
